onset	duration	planning	condition	current_position	exp_stage	experiment_exp_id	goal_state	key_press	problem_id	response_time	start_state	trial_id	worker_id
-57.688	0.0	0	n/a	n/a	n/a	ward_and_allport	n/a	32.0	n/a	24.209	n/a	instructions	s629
3.015	5.242	1	UA_with_intermediate	1,0,0,2,0,0,0,0,0	practice	ward_and_allport	1,2,3,0,0,0,0,0,0	71.0	0.0	5.242	1,0,0,2,3,0,0,0,0	to_hand	s629
8.259	1.026	0	UA_with_intermediate	1,3,0,2,0,0,0,0,0	practice	ward_and_allport	1,2,3,0,0,0,0,0,0	89.0	0.0	1.026	1,0,0,2,3,0,0,0,0	to_board	s629
9.287	0.742	0	UA_with_intermediate	1,3,0,0,0,0,0,0,0	practice	ward_and_allport	1,2,3,0,0,0,0,0,0	71.0	0.0	0.742	1,0,0,2,3,0,0,0,0	to_hand	s629
10.03	0.744	0	UA_with_intermediate	1,3,2,0,0,0,0,0,0	practice	ward_and_allport	1,2,3,0,0,0,0,0,0	89.0	0.0	0.744	1,0,0,2,3,0,0,0,0	to_board	s629
10.775	2.693	0	UA_with_intermediate	1,3,0,0,0,0,0,0,0	practice	ward_and_allport	1,2,3,0,0,0,0,0,0	89.0	0.0	2.693	1,0,0,2,3,0,0,0,0	to_hand	s629
13.47	0.929	0	UA_with_intermediate	1,3,0,0,0,0,2,0,0	practice	ward_and_allport	1,2,3,0,0,0,0,0,0	82.0	0.0	0.929	1,0,0,2,3,0,0,0,0	to_board	s629
14.402	1.239	0	UA_with_intermediate	1,0,0,0,0,0,2,0,0	practice	ward_and_allport	1,2,3,0,0,0,0,0,0	89.0	0.0	1.239	1,0,0,2,3,0,0,0,0	to_hand	s629
15.641	0.858	0	UA_with_intermediate	1,0,0,0,0,0,2,3,0	practice	ward_and_allport	1,2,3,0,0,0,0,0,0	82.0	0.0	0.858	1,0,0,2,3,0,0,0,0	to_board	s629
16.5	0.952	0	UA_with_intermediate	1,0,0,0,0,0,2,0,0	practice	ward_and_allport	1,2,3,0,0,0,0,0,0	82.0	0.0	0.952	1,0,0,2,3,0,0,0,0	to_hand	s629
17.452	0.762	0	UA_with_intermediate	1,0,0,0,0,0,2,3,0	practice	ward_and_allport	1,2,3,0,0,0,0,0,0	82.0	0.0	0.762	1,0,0,2,3,0,0,0,0	to_board	s629
18.216	1.42	0	UA_with_intermediate	1,0,0,0,0,0,2,0,0	practice	ward_and_allport	1,2,3,0,0,0,0,0,0	82.0	0.0	1.42	1,0,0,2,3,0,0,0,0	to_hand	s629
19.637	0.457	0	UA_with_intermediate	1,0,0,3,0,0,2,0,0	practice	ward_and_allport	1,2,3,0,0,0,0,0,0	71.0	0.0	0.457	1,0,0,2,3,0,0,0,0	to_board	s629
20.095	1.08	0	UA_with_intermediate	1,0,0,3,0,0,0,0,0	practice	ward_and_allport	1,2,3,0,0,0,0,0,0	82.0	0.0	1.08	1,0,0,2,3,0,0,0,0	to_hand	s629
21.176	0.888	0	UA_with_intermediate	1,2,0,3,0,0,0,0,0	practice	ward_and_allport	1,2,3,0,0,0,0,0,0	89.0	0.0	0.888	1,0,0,2,3,0,0,0,0	to_board	s629
22.066	1.303	0	UA_with_intermediate	1,2,0,0,0,0,0,0,0	practice	ward_and_allport	1,2,3,0,0,0,0,0,0	71.0	0.0	1.303	1,0,0,2,3,0,0,0,0	to_hand	s629
23.369	0.508	0	UA_with_intermediate	1,2,3,0,0,0,0,0,0	practice	ward_and_allport	1,2,3,0,0,0,0,0,0	89.0	0.0	0.508	1,0,0,2,3,0,0,0,0	to_board	s629
23.88	1.0	0	UA_with_intermediate	n/a	practice	ward_and_allport	n/a	-1.0	0.0	n/a	n/a	feedback	s629
26.382	3.616	1	UA_with_intermediate	1,2,0,0,0,0,0,0,0	practice	ward_and_allport	1,3,2,0,0,0,0,0,0	71.0	1.0	3.616	1,2,0,3,0,0,0,0,0	to_hand	s629
29.998	0.792	0	UA_with_intermediate	1,2,0,3,0,0,0,0,0	practice	ward_and_allport	1,3,2,0,0,0,0,0,0	71.0	1.0	0.792	1,2,0,3,0,0,0,0,0	to_board	s629
30.792	0.778	0	UA_with_intermediate	1,0,0,3,0,0,0,0,0	practice	ward_and_allport	1,3,2,0,0,0,0,0,0	89.0	1.0	0.778	1,2,0,3,0,0,0,0,0	to_hand	s629
31.571	1.725	0	UA_with_intermediate	1,2,0,3,0,0,0,0,0	practice	ward_and_allport	1,3,2,0,0,0,0,0,0	89.0	1.0	1.725	1,2,0,3,0,0,0,0,0	to_board	s629
33.298	1.142	0	UA_with_intermediate	1,2,0,0,0,0,0,0,0	practice	ward_and_allport	1,3,2,0,0,0,0,0,0	71.0	1.0	1.142	1,2,0,3,0,0,0,0,0	to_hand	s629
34.441	0.443	0	UA_with_intermediate	1,2,3,0,0,0,0,0,0	practice	ward_and_allport	1,3,2,0,0,0,0,0,0	89.0	1.0	0.443	1,2,0,3,0,0,0,0,0	to_board	s629
34.885	3.23	0	UA_with_intermediate	1,2,0,0,0,0,0,0,0	practice	ward_and_allport	1,3,2,0,0,0,0,0,0	89.0	1.0	3.23	1,2,0,3,0,0,0,0,0	to_hand	s629
38.117	1.118	0	UA_with_intermediate	1,2,0,0,0,0,3,0,0	practice	ward_and_allport	1,3,2,0,0,0,0,0,0	82.0	1.0	1.118	1,2,0,3,0,0,0,0,0	to_board	s629
39.237	0.828	0	UA_with_intermediate	1,0,0,0,0,0,3,0,0	practice	ward_and_allport	1,3,2,0,0,0,0,0,0	89.0	1.0	0.828	1,2,0,3,0,0,0,0,0	to_hand	s629
40.066	1.251	0	UA_with_intermediate	1,0,0,2,0,0,3,0,0	practice	ward_and_allport	1,3,2,0,0,0,0,0,0	71.0	1.0	1.251	1,2,0,3,0,0,0,0,0	to_board	s629
41.319	0.741	0	UA_with_intermediate	0,0,0,2,0,0,3,0,0	practice	ward_and_allport	1,3,2,0,0,0,0,0,0	89.0	1.0	0.741	1,2,0,3,0,0,0,0,0	to_hand	s629
42.061	0.761	0	UA_with_intermediate	1,0,0,2,0,0,3,0,0	practice	ward_and_allport	1,3,2,0,0,0,0,0,0	89.0	1.0	0.761	1,2,0,3,0,0,0,0,0	to_board	s629
42.824	0.834	0	UA_with_intermediate	1,0,0,0,0,0,3,0,0	practice	ward_and_allport	1,3,2,0,0,0,0,0,0	71.0	1.0	0.834	1,2,0,3,0,0,0,0,0	to_hand	s629
43.659	1.361	0	UA_with_intermediate	1,0,0,2,0,0,3,0,0	practice	ward_and_allport	1,3,2,0,0,0,0,0,0	71.0	1.0	1.361	1,2,0,3,0,0,0,0,0	to_board	s629
45.022	0.821	0	UA_with_intermediate	1,0,0,2,0,0,0,0,0	practice	ward_and_allport	1,3,2,0,0,0,0,0,0	82.0	1.0	0.821	1,2,0,3,0,0,0,0,0	to_hand	s629
45.845	0.664	0	UA_with_intermediate	1,3,0,2,0,0,0,0,0	practice	ward_and_allport	1,3,2,0,0,0,0,0,0	89.0	1.0	0.664	1,2,0,3,0,0,0,0,0	to_board	s629
46.51	1.094	0	UA_with_intermediate	1,3,0,0,0,0,0,0,0	practice	ward_and_allport	1,3,2,0,0,0,0,0,0	71.0	1.0	1.094	1,2,0,3,0,0,0,0,0	to_hand	s629
47.606	0.488	0	UA_with_intermediate	1,3,2,0,0,0,0,0,0	practice	ward_and_allport	1,3,2,0,0,0,0,0,0	89.0	1.0	0.488	1,2,0,3,0,0,0,0,0	to_board	s629
48.098	1.0	0	UA_with_intermediate	n/a	practice	ward_and_allport	n/a	-1.0	1.0	n/a	n/a	feedback	s629
49.098	1.1	0	UA_with_intermediate	n/a	practice	ward_and_allport	n/a	-1.0	1.0	n/a	n/a	ITI	s629
50.199	1.859	1	UA_without_intermediate	0,0,0,1,2,0,0,0,0	practice	ward_and_allport	3,2,1,0,0,0,0,0,0	82.0	2.0	1.859	0,0,0,1,2,0,3,0,0	to_hand	s629
52.059	0.613	0	UA_without_intermediate	3,0,0,1,2,0,0,0,0	practice	ward_and_allport	3,2,1,0,0,0,0,0,0	89.0	2.0	0.613	0,0,0,1,2,0,3,0,0	to_board	s629
52.674	2.19	0	UA_without_intermediate	3,0,0,1,0,0,0,0,0	practice	ward_and_allport	3,2,1,0,0,0,0,0,0	71.0	2.0	2.19	0,0,0,1,2,0,3,0,0	to_hand	s629
54.864	0.396	0	UA_without_intermediate	3,2,0,1,0,0,0,0,0	practice	ward_and_allport	3,2,1,0,0,0,0,0,0	89.0	2.0	0.396	0,0,0,1,2,0,3,0,0	to_board	s629
55.262	1.678	0	UA_without_intermediate	3,2,0,0,0,0,0,0,0	practice	ward_and_allport	3,2,1,0,0,0,0,0,0	71.0	2.0	1.678	0,0,0,1,2,0,3,0,0	to_hand	s629
56.941	0.472	0	UA_without_intermediate	3,2,1,0,0,0,0,0,0	practice	ward_and_allport	3,2,1,0,0,0,0,0,0	89.0	2.0	0.472	0,0,0,1,2,0,3,0,0	to_board	s629
57.42	1.0	0	UA_without_intermediate	n/a	practice	ward_and_allport	n/a	-1.0	2.0	n/a	n/a	feedback	s629
58.42	1.2	0	UA_without_intermediate	n/a	practice	ward_and_allport	n/a	-1.0	2.0	n/a	n/a	ITI	s629
59.622	2.102	1	UA_without_intermediate	0,0,0,1,0,0,3,0,0	practice	ward_and_allport	2,3,1,0,0,0,0,0,0	71.0	3.0	2.102	0,0,0,1,2,0,3,0,0	to_hand	s629
61.725	0.753	0	UA_without_intermediate	2,0,0,1,0,0,3,0,0	practice	ward_and_allport	2,3,1,0,0,0,0,0,0	89.0	3.0	0.753	0,0,0,1,2,0,3,0,0	to_board	s629
62.479	1.526	0	UA_without_intermediate	2,0,0,0,0,0,3,0,0	practice	ward_and_allport	2,3,1,0,0,0,0,0,0	71.0	3.0	1.526	0,0,0,1,2,0,3,0,0	to_hand	s629
64.006	1.516	0	UA_without_intermediate	2,0,0,0,0,0,3,1,0	practice	ward_and_allport	2,3,1,0,0,0,0,0,0	82.0	3.0	1.516	0,0,0,1,2,0,3,0,0	to_board	s629
65.525	1.519	0	UA_without_intermediate	0,0,0,0,0,0,3,1,0	practice	ward_and_allport	2,3,1,0,0,0,0,0,0	89.0	3.0	1.519	0,0,0,1,2,0,3,0,0	to_hand	s629
67.044	0.478	0	UA_without_intermediate	2,0,0,0,0,0,3,1,0	practice	ward_and_allport	2,3,1,0,0,0,0,0,0	89.0	3.0	0.478	0,0,0,1,2,0,3,0,0	to_board	s629
67.525	0.906	0	UA_without_intermediate	2,0,0,0,0,0,3,0,0	practice	ward_and_allport	2,3,1,0,0,0,0,0,0	82.0	3.0	0.906	0,0,0,1,2,0,3,0,0	to_hand	s629
68.431	0.585	0	UA_without_intermediate	2,0,0,1,0,0,3,0,0	practice	ward_and_allport	2,3,1,0,0,0,0,0,0	71.0	3.0	0.585	0,0,0,1,2,0,3,0,0	to_board	s629
69.019	1.557	0	UA_without_intermediate	2,0,0,1,0,0,0,0,0	practice	ward_and_allport	2,3,1,0,0,0,0,0,0	82.0	3.0	1.557	0,0,0,1,2,0,3,0,0	to_hand	s629
70.578	0.873	0	UA_without_intermediate	2,3,0,1,0,0,0,0,0	practice	ward_and_allport	2,3,1,0,0,0,0,0,0	89.0	3.0	0.873	0,0,0,1,2,0,3,0,0	to_board	s629
71.453	1.714	0	UA_without_intermediate	2,3,0,0,0,0,0,0,0	practice	ward_and_allport	2,3,1,0,0,0,0,0,0	71.0	3.0	1.714	0,0,0,1,2,0,3,0,0	to_hand	s629
73.168	0.42	0	UA_without_intermediate	2,3,1,0,0,0,0,0,0	practice	ward_and_allport	2,3,1,0,0,0,0,0,0	89.0	3.0	0.42	0,0,0,1,2,0,3,0,0	to_board	s629
73.594	1.0	0	UA_without_intermediate	n/a	practice	ward_and_allport	n/a	-1.0	3.0	n/a	n/a	feedback	s629
74.594	1.0	0	UA_without_intermediate	n/a	practice	ward_and_allport	n/a	-1.0	3.0	n/a	n/a	ITI	s629
77.605	4.536	1	PA_with_intermediate	0,0,0,1,2,0,0,0,0	test	ward_and_allport	0,0,0,1,0,0,2,3,0	71.0	0.0	4.536	0,0,0,1,2,3,0,0,0	to_hand	s629
82.142	0.487	0	PA_with_intermediate	3,0,0,1,2,0,0,0,0	test	ward_and_allport	0,0,0,1,0,0,2,3,0	89.0	0.0	0.487	0,0,0,1,2,3,0,0,0	to_board	s629
82.632	0.583	0	PA_with_intermediate	0,0,0,1,2,0,0,0,0	test	ward_and_allport	0,0,0,1,0,0,2,3,0	89.0	0.0	0.583	0,0,0,1,2,3,0,0,0	to_hand	s629
83.216	0.489	0	PA_with_intermediate	3,0,0,1,2,0,0,0,0	test	ward_and_allport	0,0,0,1,0,0,2,3,0	89.0	0.0	0.489	0,0,0,1,2,3,0,0,0	to_board	s629
83.707	0.64	0	PA_with_intermediate	3,0,0,1,0,0,0,0,0	test	ward_and_allport	0,0,0,1,0,0,2,3,0	71.0	0.0	0.64	0,0,0,1,2,3,0,0,0	to_hand	s629
84.348	1.735	0	PA_with_intermediate	3,0,0,1,0,0,2,0,0	test	ward_and_allport	0,0,0,1,0,0,2,3,0	82.0	0.0	1.735	0,0,0,1,2,3,0,0,0	to_board	s629
86.085	1.126	0	PA_with_intermediate	3,0,0,0,0,0,2,0,0	test	ward_and_allport	0,0,0,1,0,0,2,3,0	71.0	0.0	1.126	0,0,0,1,2,3,0,0,0	to_hand	s629
87.213	0.631	0	PA_with_intermediate	3,0,0,1,0,0,2,0,0	test	ward_and_allport	0,0,0,1,0,0,2,3,0	71.0	0.0	0.631	0,0,0,1,2,3,0,0,0	to_board	s629
87.847	2.656	0	PA_with_intermediate	0,0,0,1,0,0,2,0,0	test	ward_and_allport	0,0,0,1,0,0,2,3,0	89.0	0.0	2.656	0,0,0,1,2,3,0,0,0	to_hand	s629
90.504	0.479	0	PA_with_intermediate	0,0,0,1,0,0,2,3,0	test	ward_and_allport	0,0,0,1,0,0,2,3,0	82.0	0.0	0.479	0,0,0,1,2,3,0,0,0	to_board	s629
90.989	1.0	0	PA_with_intermediate	n/a	test	ward_and_allport	n/a	-1.0	0.0	n/a	n/a	feedback	s629
91.989	2.768	0	PA_with_intermediate	n/a	test	ward_and_allport	n/a	-1.0	0.0	n/a	n/a	ITI	s629
94.759	3.089	1	PA_with_intermediate	1,2,0,0,0,0,0,0,0	test	ward_and_allport	1,3,0,0,0,0,2,0,0	89.0	1.0	3.089	1,2,3,0,0,0,0,0,0	to_hand	s629
97.85	1.447	0	PA_with_intermediate	1,2,0,0,0,0,3,0,0	test	ward_and_allport	1,3,0,0,0,0,2,0,0	82.0	1.0	1.447	1,2,3,0,0,0,0,0,0	to_board	s629
99.299	0.729	0	PA_with_intermediate	1,2,0,0,0,0,0,0,0	test	ward_and_allport	1,3,0,0,0,0,2,0,0	82.0	1.0	0.729	1,2,3,0,0,0,0,0,0	to_hand	s629
100.03	0.915	0	PA_with_intermediate	1,2,3,0,0,0,0,0,0	test	ward_and_allport	1,3,0,0,0,0,2,0,0	89.0	1.0	0.915	1,2,3,0,0,0,0,0,0	to_board	s629
100.947	2.184	0	PA_with_intermediate	1,2,0,0,0,0,0,0,0	test	ward_and_allport	1,3,0,0,0,0,2,0,0	89.0	1.0	2.184	1,2,3,0,0,0,0,0,0	to_hand	s629
103.133	0.52	0	PA_with_intermediate	1,2,0,3,0,0,0,0,0	test	ward_and_allport	1,3,0,0,0,0,2,0,0	71.0	1.0	0.52	1,2,3,0,0,0,0,0,0	to_board	s629
103.656	0.537	0	PA_with_intermediate	1,0,0,3,0,0,0,0,0	test	ward_and_allport	1,3,0,0,0,0,2,0,0	89.0	1.0	0.537	1,2,3,0,0,0,0,0,0	to_hand	s629
104.193	0.535	0	PA_with_intermediate	1,0,0,3,0,0,2,0,0	test	ward_and_allport	1,3,0,0,0,0,2,0,0	82.0	1.0	0.535	1,2,3,0,0,0,0,0,0	to_board	s629
104.732	0.842	0	PA_with_intermediate	1,0,0,0,0,0,2,0,0	test	ward_and_allport	1,3,0,0,0,0,2,0,0	71.0	1.0	0.842	1,2,3,0,0,0,0,0,0	to_hand	s629
105.574	0.459	0	PA_with_intermediate	1,3,0,0,0,0,2,0,0	test	ward_and_allport	1,3,0,0,0,0,2,0,0	89.0	1.0	0.459	1,2,3,0,0,0,0,0,0	to_board	s629
106.04	1.0	0	PA_with_intermediate	n/a	test	ward_and_allport	n/a	-1.0	1.0	n/a	n/a	feedback	s629
107.04	1.68	0	PA_with_intermediate	n/a	test	ward_and_allport	n/a	-1.0	1.0	n/a	n/a	ITI	s629
108.722	2.759	1	PA_without_intermediate	0,0,0,1,2,0,0,0,0	test	ward_and_allport	3,1,0,0,0,0,2,0,0	71.0	2.0	2.759	0,0,0,1,2,3,0,0,0	to_hand	s629
111.483	0.413	0	PA_without_intermediate	3,0,0,1,2,0,0,0,0	test	ward_and_allport	3,1,0,0,0,0,2,0,0	89.0	2.0	0.413	0,0,0,1,2,3,0,0,0	to_board	s629
111.898	0.643	0	PA_without_intermediate	3,0,0,1,0,0,0,0,0	test	ward_and_allport	3,1,0,0,0,0,2,0,0	71.0	2.0	0.643	0,0,0,1,2,3,0,0,0	to_hand	s629
112.543	0.393	0	PA_without_intermediate	3,0,0,1,0,0,2,0,0	test	ward_and_allport	3,1,0,0,0,0,2,0,0	82.0	2.0	0.393	0,0,0,1,2,3,0,0,0	to_board	s629
112.939	0.723	0	PA_without_intermediate	3,0,0,0,0,0,2,0,0	test	ward_and_allport	3,1,0,0,0,0,2,0,0	71.0	2.0	0.723	0,0,0,1,2,3,0,0,0	to_hand	s629
113.662	0.371	0	PA_without_intermediate	3,1,0,0,0,0,2,0,0	test	ward_and_allport	3,1,0,0,0,0,2,0,0	89.0	2.0	0.371	0,0,0,1,2,3,0,0,0	to_board	s629
114.039	1.0	0	PA_without_intermediate	n/a	test	ward_and_allport	n/a	-1.0	2.0	n/a	n/a	feedback	s629
115.039	2.224	0	PA_without_intermediate	n/a	test	ward_and_allport	n/a	-1.0	2.0	n/a	n/a	ITI	s629
117.267	3.562	1	PA_without_intermediate	0,0,0,0,0,0,1,2,0	test	ward_and_allport	2,0,0,3,1,0,0,0,0	82.0	3.0	3.562	0,0,0,0,0,0,1,2,3	to_hand	s629
120.83	1.007	0	PA_without_intermediate	0,0,0,3,0,0,1,2,0	test	ward_and_allport	2,0,0,3,1,0,0,0,0	71.0	3.0	1.007	0,0,0,0,0,0,1,2,3	to_board	s629
121.84	1.291	0	PA_without_intermediate	0,0,0,3,0,0,1,0,0	test	ward_and_allport	2,0,0,3,1,0,0,0,0	82.0	3.0	1.291	0,0,0,0,0,0,1,2,3	to_hand	s629
123.131	0.673	0	PA_without_intermediate	2,0,0,3,0,0,1,0,0	test	ward_and_allport	2,0,0,3,1,0,0,0,0	89.0	3.0	0.673	0,0,0,0,0,0,1,2,3	to_board	s629
123.808	0.782	0	PA_without_intermediate	2,0,0,0,0,0,1,0,0	test	ward_and_allport	2,0,0,3,1,0,0,0,0	71.0	3.0	0.782	0,0,0,0,0,0,1,2,3	to_hand	s629
124.591	0.699	0	PA_without_intermediate	2,0,0,3,0,0,1,0,0	test	ward_and_allport	2,0,0,3,1,0,0,0,0	71.0	3.0	0.699	0,0,0,0,0,0,1,2,3	to_board	s629
125.292	0.704	0	PA_without_intermediate	2,0,0,3,0,0,0,0,0	test	ward_and_allport	2,0,0,3,1,0,0,0,0	82.0	3.0	0.704	0,0,0,0,0,0,1,2,3	to_hand	s629
125.998	0.347	0	PA_without_intermediate	2,0,0,3,1,0,0,0,0	test	ward_and_allport	2,0,0,3,1,0,0,0,0	71.0	3.0	0.347	0,0,0,0,0,0,1,2,3	to_board	s629
126.352	1.0	0	PA_without_intermediate	n/a	test	ward_and_allport	n/a	-1.0	3.0	n/a	n/a	feedback	s629
127.352	2.36	0	PA_without_intermediate	n/a	test	ward_and_allport	n/a	-1.0	3.0	n/a	n/a	ITI	s629
129.715	4.767	1	PA_without_intermediate	0,0,0,0,0,0,1,2,0	test	ward_and_allport	3,2,0,1,0,0,0,0,0	82.0	4.0	4.767	0,0,0,0,0,0,1,2,3	to_hand	s629
134.483	1.324	0	PA_without_intermediate	3,0,0,0,0,0,1,2,0	test	ward_and_allport	3,2,0,1,0,0,0,0,0	89.0	4.0	1.324	0,0,0,0,0,0,1,2,3	to_board	s629
135.81	1.123	0	PA_without_intermediate	3,0,0,0,0,0,1,0,0	test	ward_and_allport	3,2,0,1,0,0,0,0,0	82.0	4.0	1.123	0,0,0,0,0,0,1,2,3	to_hand	s629
136.934	0.63	0	PA_without_intermediate	3,2,0,0,0,0,1,0,0	test	ward_and_allport	3,2,0,1,0,0,0,0,0	89.0	4.0	0.63	0,0,0,0,0,0,1,2,3	to_board	s629
137.567	0.462	0	PA_without_intermediate	3,2,0,0,0,0,0,0,0	test	ward_and_allport	3,2,0,1,0,0,0,0,0	82.0	4.0	0.462	0,0,0,0,0,0,1,2,3	to_hand	s629
138.03	0.444	0	PA_without_intermediate	3,2,0,1,0,0,0,0,0	test	ward_and_allport	3,2,0,1,0,0,0,0,0	71.0	4.0	0.444	0,0,0,0,0,0,1,2,3	to_board	s629
138.481	1.0	0	PA_without_intermediate	n/a	test	ward_and_allport	n/a	-1.0	4.0	n/a	n/a	feedback	s629
139.481	1.0	0	PA_without_intermediate	n/a	test	ward_and_allport	n/a	-1.0	4.0	n/a	n/a	ITI	s629
140.484	2.89	1	PA_without_intermediate	0,0,0,1,2,0,0,0,0	test	ward_and_allport	2,0,0,0,0,0,3,1,0	71.0	5.0	2.89	0,0,0,1,2,3,0,0,0	to_hand	s629
143.375	0.893	0	PA_without_intermediate	0,0,0,1,2,0,3,0,0	test	ward_and_allport	2,0,0,0,0,0,3,1,0	82.0	5.0	0.893	0,0,0,1,2,3,0,0,0	to_board	s629
144.271	1.331	0	PA_without_intermediate	0,0,0,1,0,0,3,0,0	test	ward_and_allport	2,0,0,0,0,0,3,1,0	71.0	5.0	1.331	0,0,0,1,2,3,0,0,0	to_hand	s629
145.603	0.521	0	PA_without_intermediate	2,0,0,1,0,0,3,0,0	test	ward_and_allport	2,0,0,0,0,0,3,1,0	89.0	5.0	0.521	0,0,0,1,2,3,0,0,0	to_board	s629
146.128	0.541	0	PA_without_intermediate	2,0,0,0,0,0,3,0,0	test	ward_and_allport	2,0,0,0,0,0,3,1,0	71.0	5.0	0.541	0,0,0,1,2,3,0,0,0	to_hand	s629
146.67	0.366	0	PA_without_intermediate	2,0,0,0,0,0,3,1,0	test	ward_and_allport	2,0,0,0,0,0,3,1,0	82.0	5.0	0.366	0,0,0,1,2,3,0,0,0	to_board	s629
147.044	1.0	0	PA_without_intermediate	n/a	test	ward_and_allport	n/a	-1.0	5.0	n/a	n/a	feedback	s629
148.044	1.408	0	PA_without_intermediate	n/a	test	ward_and_allport	n/a	-1.0	5.0	n/a	n/a	ITI	s629
149.456	2.316	1	PA_with_intermediate	0,0,0,1,2,0,0,0,0	test	ward_and_allport	2,3,0,1,0,0,0,0,0	71.0	6.0	2.316	0,0,0,1,2,3,0,0,0	to_hand	s629
151.773	1.025	0	PA_with_intermediate	3,0,0,1,2,0,0,0,0	test	ward_and_allport	2,3,0,1,0,0,0,0,0	89.0	6.0	1.025	0,0,0,1,2,3,0,0,0	to_board	s629
152.802	0.509	0	PA_with_intermediate	3,0,0,1,0,0,0,0,0	test	ward_and_allport	2,3,0,1,0,0,0,0,0	71.0	6.0	0.509	0,0,0,1,2,3,0,0,0	to_hand	s629
153.312	1.068	0	PA_with_intermediate	3,2,0,1,0,0,0,0,0	test	ward_and_allport	2,3,0,1,0,0,0,0,0	89.0	6.0	1.068	0,0,0,1,2,3,0,0,0	to_board	s629
154.384	1.894	0	PA_with_intermediate	3,2,0,0,0,0,0,0,0	test	ward_and_allport	2,3,0,1,0,0,0,0,0	71.0	6.0	1.894	0,0,0,1,2,3,0,0,0	to_hand	s629
156.279	0.678	0	PA_with_intermediate	3,2,1,0,0,0,0,0,0	test	ward_and_allport	2,3,0,1,0,0,0,0,0	89.0	6.0	0.678	0,0,0,1,2,3,0,0,0	to_board	s629
156.961	1.972	0	PA_with_intermediate	3,2,0,0,0,0,0,0,0	test	ward_and_allport	2,3,0,1,0,0,0,0,0	89.0	6.0	1.972	0,0,0,1,2,3,0,0,0	to_hand	s629
158.934	0.738	0	PA_with_intermediate	3,2,0,1,0,0,0,0,0	test	ward_and_allport	2,3,0,1,0,0,0,0,0	71.0	6.0	0.738	0,0,0,1,2,3,0,0,0	to_board	s629
159.675	1.255	0	PA_with_intermediate	3,0,0,1,0,0,0,0,0	test	ward_and_allport	2,3,0,1,0,0,0,0,0	89.0	6.0	1.255	0,0,0,1,2,3,0,0,0	to_hand	s629
160.931	1.015	0	PA_with_intermediate	3,0,0,1,0,0,2,0,0	test	ward_and_allport	2,3,0,1,0,0,0,0,0	82.0	6.0	1.015	0,0,0,1,2,3,0,0,0	to_board	s629
161.951	0.657	0	PA_with_intermediate	0,0,0,1,0,0,2,0,0	test	ward_and_allport	2,3,0,1,0,0,0,0,0	89.0	6.0	0.657	0,0,0,1,2,3,0,0,0	to_hand	s629
162.609	1.122	0	PA_with_intermediate	0,0,0,1,3,0,2,0,0	test	ward_and_allport	2,3,0,1,0,0,0,0,0	71.0	6.0	1.122	0,0,0,1,2,3,0,0,0	to_board	s629
163.734	0.529	0	PA_with_intermediate	0,0,0,1,3,0,0,0,0	test	ward_and_allport	2,3,0,1,0,0,0,0,0	82.0	6.0	0.529	0,0,0,1,2,3,0,0,0	to_hand	s629
164.264	0.418	0	PA_with_intermediate	2,0,0,1,3,0,0,0,0	test	ward_and_allport	2,3,0,1,0,0,0,0,0	89.0	6.0	0.418	0,0,0,1,2,3,0,0,0	to_board	s629
164.686	0.798	0	PA_with_intermediate	2,0,0,1,0,0,0,0,0	test	ward_and_allport	2,3,0,1,0,0,0,0,0	71.0	6.0	0.798	0,0,0,1,2,3,0,0,0	to_hand	s629
165.486	0.262	0	PA_with_intermediate	2,3,0,1,0,0,0,0,0	test	ward_and_allport	2,3,0,1,0,0,0,0,0	89.0	6.0	0.262	0,0,0,1,2,3,0,0,0	to_board	s629
165.757	1.0	0	PA_with_intermediate	n/a	test	ward_and_allport	n/a	-1.0	6.0	n/a	n/a	feedback	s629
166.757	1.136	0	PA_with_intermediate	n/a	test	ward_and_allport	n/a	-1.0	6.0	n/a	n/a	ITI	s629
167.897	4.432	1	PA_without_intermediate	0,0,0,0,0,0,1,2,0	test	ward_and_allport	1,0,0,3,2,0,0,0,0	82.0	7.0	4.432	0,0,0,0,0,0,1,2,3	to_hand	s629
172.33	0.864	0	PA_without_intermediate	0,0,0,3,0,0,1,2,0	test	ward_and_allport	1,0,0,3,2,0,0,0,0	71.0	7.0	0.864	0,0,0,0,0,0,1,2,3	to_board	s629
173.197	1.81	0	PA_without_intermediate	0,0,0,3,0,0,1,0,0	test	ward_and_allport	1,0,0,3,2,0,0,0,0	82.0	7.0	1.81	0,0,0,0,0,0,1,2,3	to_hand	s629
175.008	1.471	0	PA_without_intermediate	0,0,0,3,2,0,1,0,0	test	ward_and_allport	1,0,0,3,2,0,0,0,0	71.0	7.0	1.471	0,0,0,0,0,0,1,2,3	to_board	s629
176.482	1.363	0	PA_without_intermediate	0,0,0,3,2,0,0,0,0	test	ward_and_allport	1,0,0,3,2,0,0,0,0	82.0	7.0	1.363	0,0,0,0,0,0,1,2,3	to_hand	s629
177.846	0.391	0	PA_without_intermediate	1,0,0,3,2,0,0,0,0	test	ward_and_allport	1,0,0,3,2,0,0,0,0	89.0	7.0	0.391	0,0,0,0,0,0,1,2,3	to_board	s629
178.247	1.0	0	PA_without_intermediate	n/a	test	ward_and_allport	n/a	-1.0	7.0	n/a	n/a	feedback	s629
179.247	4.128	0	PA_without_intermediate	n/a	test	ward_and_allport	n/a	-1.0	7.0	n/a	n/a	ITI	s629
183.379	4.397	1	PA_without_intermediate	0,0,0,1,2,0,0,0,0	test	ward_and_allport	2,0,0,0,0,0,3,1,0	71.0	8.0	4.397	0,0,0,1,2,3,0,0,0	to_hand	s629
187.777	1.022	0	PA_without_intermediate	0,0,0,1,2,0,3,0,0	test	ward_and_allport	2,0,0,0,0,0,3,1,0	82.0	8.0	1.022	0,0,0,1,2,3,0,0,0	to_board	s629
188.803	1.019	0	PA_without_intermediate	0,0,0,1,0,0,3,0,0	test	ward_and_allport	2,0,0,0,0,0,3,1,0	71.0	8.0	1.019	0,0,0,1,2,3,0,0,0	to_hand	s629
189.822	0.336	0	PA_without_intermediate	2,0,0,1,0,0,3,0,0	test	ward_and_allport	2,0,0,0,0,0,3,1,0	89.0	8.0	0.336	0,0,0,1,2,3,0,0,0	to_board	s629
190.163	0.365	0	PA_without_intermediate	2,0,0,0,0,0,3,0,0	test	ward_and_allport	2,0,0,0,0,0,3,1,0	71.0	8.0	0.365	0,0,0,1,2,3,0,0,0	to_hand	s629
190.529	0.405	0	PA_without_intermediate	2,0,0,0,0,0,3,1,0	test	ward_and_allport	2,0,0,0,0,0,3,1,0	82.0	8.0	0.405	0,0,0,1,2,3,0,0,0	to_board	s629
190.943	1.0	0	PA_without_intermediate	n/a	test	ward_and_allport	n/a	-1.0	8.0	n/a	n/a	feedback	s629
191.943	1.136	0	PA_without_intermediate	n/a	test	ward_and_allport	n/a	-1.0	8.0	n/a	n/a	ITI	s629
193.083	1.486	1	PA_without_intermediate	0,0,0,1,2,0,0,0,0	test	ward_and_allport	3,2,0,0,0,0,1,0,0	71.0	9.0	1.486	0,0,0,1,2,3,0,0,0	to_hand	s629
194.57	0.495	0	PA_without_intermediate	3,0,0,1,2,0,0,0,0	test	ward_and_allport	3,2,0,0,0,0,1,0,0	89.0	9.0	0.495	0,0,0,1,2,3,0,0,0	to_board	s629
195.069	0.442	0	PA_without_intermediate	3,0,0,1,0,0,0,0,0	test	ward_and_allport	3,2,0,0,0,0,1,0,0	71.0	9.0	0.442	0,0,0,1,2,3,0,0,0	to_hand	s629
195.512	0.28	0	PA_without_intermediate	3,2,0,1,0,0,0,0,0	test	ward_and_allport	3,2,0,0,0,0,1,0,0	89.0	9.0	0.28	0,0,0,1,2,3,0,0,0	to_board	s629
195.796	0.477	0	PA_without_intermediate	3,2,0,0,0,0,0,0,0	test	ward_and_allport	3,2,0,0,0,0,1,0,0	71.0	9.0	0.477	0,0,0,1,2,3,0,0,0	to_hand	s629
196.275	0.28	0	PA_without_intermediate	3,2,0,0,0,0,1,0,0	test	ward_and_allport	3,2,0,0,0,0,1,0,0	82.0	9.0	0.28	0,0,0,1,2,3,0,0,0	to_board	s629
196.562	1.0	0	PA_without_intermediate	n/a	test	ward_and_allport	n/a	-1.0	9.0	n/a	n/a	feedback	s629
197.562	4.264	0	PA_without_intermediate	n/a	test	ward_and_allport	n/a	-1.0	9.0	n/a	n/a	ITI	s629
201.83	1.564	1	PA_with_intermediate	0,0,0,1,2,0,0,0,0	test	ward_and_allport	0,0,0,1,3,0,2,0,0	71.0	10.0	1.564	0,0,0,1,2,3,0,0,0	to_hand	s629
203.395	1.651	0	PA_with_intermediate	3,0,0,1,2,0,0,0,0	test	ward_and_allport	0,0,0,1,3,0,2,0,0	89.0	10.0	1.651	0,0,0,1,2,3,0,0,0	to_board	s629
205.051	0.351	0	PA_with_intermediate	3,0,0,1,0,0,0,0,0	test	ward_and_allport	0,0,0,1,3,0,2,0,0	71.0	10.0	0.351	0,0,0,1,2,3,0,0,0	to_hand	s629
205.402	0.367	0	PA_with_intermediate	3,0,0,1,0,0,2,0,0	test	ward_and_allport	0,0,0,1,3,0,2,0,0	82.0	10.0	0.367	0,0,0,1,2,3,0,0,0	to_board	s629
205.774	0.395	0	PA_with_intermediate	3,0,0,0,0,0,2,0,0	test	ward_and_allport	0,0,0,1,3,0,2,0,0	71.0	10.0	0.395	0,0,0,1,2,3,0,0,0	to_hand	s629
206.169	0.637	0	PA_with_intermediate	3,1,0,0,0,0,2,0,0	test	ward_and_allport	0,0,0,1,3,0,2,0,0	89.0	10.0	0.637	0,0,0,1,2,3,0,0,0	to_board	s629
206.811	1.056	0	PA_with_intermediate	3,1,0,0,0,0,0,0,0	test	ward_and_allport	0,0,0,1,3,0,2,0,0	82.0	10.0	1.056	0,0,0,1,2,3,0,0,0	to_hand	s629
207.867	0.058	0	PA_with_intermediate	3,1,0,2,0,0,0,0,0	test	ward_and_allport	0,0,0,1,3,0,2,0,0	71.0	10.0	0.058	0,0,0,1,2,3,0,0,0	to_board	s629
207.929	1.01	0	PA_with_intermediate	3,1,0,0,0,0,0,0,0	test	ward_and_allport	0,0,0,1,3,0,2,0,0	71.0	10.0	1.01	0,0,0,1,2,3,0,0,0	to_hand	s629
208.94	0.394	0	PA_with_intermediate	3,1,0,0,0,0,2,0,0	test	ward_and_allport	0,0,0,1,3,0,2,0,0	82.0	10.0	0.394	0,0,0,1,2,3,0,0,0	to_board	s629
209.338	1.037	0	PA_with_intermediate	3,0,0,0,0,0,2,0,0	test	ward_and_allport	0,0,0,1,3,0,2,0,0	89.0	10.0	1.037	0,0,0,1,2,3,0,0,0	to_hand	s629
210.376	0.501	0	PA_with_intermediate	3,0,0,0,0,0,2,1,0	test	ward_and_allport	0,0,0,1,3,0,2,0,0	82.0	10.0	0.501	0,0,0,1,2,3,0,0,0	to_board	s629
210.881	0.702	0	PA_with_intermediate	0,0,0,0,0,0,2,1,0	test	ward_and_allport	0,0,0,1,3,0,2,0,0	89.0	10.0	0.702	0,0,0,1,2,3,0,0,0	to_hand	s629
211.585	0.434	0	PA_with_intermediate	0,0,0,3,0,0,2,1,0	test	ward_and_allport	0,0,0,1,3,0,2,0,0	71.0	10.0	0.434	0,0,0,1,2,3,0,0,0	to_board	s629
212.022	1.572	0	PA_with_intermediate	0,0,0,0,0,0,2,1,0	test	ward_and_allport	0,0,0,1,3,0,2,0,0	71.0	10.0	1.572	0,0,0,1,2,3,0,0,0	to_hand	s629
213.596	1.075	0	PA_with_intermediate	3,0,0,0,0,0,2,1,0	test	ward_and_allport	0,0,0,1,3,0,2,0,0	89.0	10.0	1.075	0,0,0,1,2,3,0,0,0	to_board	s629
214.675	1.159	0	PA_with_intermediate	3,0,0,0,0,0,2,0,0	test	ward_and_allport	0,0,0,1,3,0,2,0,0	82.0	10.0	1.159	0,0,0,1,2,3,0,0,0	to_hand	s629
215.835	0.336	0	PA_with_intermediate	3,0,0,1,0,0,2,0,0	test	ward_and_allport	0,0,0,1,3,0,2,0,0	71.0	10.0	0.336	0,0,0,1,2,3,0,0,0	to_board	s629
216.175	0.514	0	PA_with_intermediate	0,0,0,1,0,0,2,0,0	test	ward_and_allport	0,0,0,1,3,0,2,0,0	89.0	10.0	0.514	0,0,0,1,2,3,0,0,0	to_hand	s629
216.691	0.304	0	PA_with_intermediate	0,0,0,1,3,0,2,0,0	test	ward_and_allport	0,0,0,1,3,0,2,0,0	71.0	10.0	0.304	0,0,0,1,2,3,0,0,0	to_board	s629
217.003	1.0	0	PA_with_intermediate	n/a	test	ward_and_allport	n/a	-1.0	10.0	n/a	n/a	feedback	s629
218.003	3.04	0	PA_with_intermediate	n/a	test	ward_and_allport	n/a	-1.0	10.0	n/a	n/a	ITI	s629
221.047	2.02	1	PA_with_intermediate	0,0,0,1,2,0,0,0,0	test	ward_and_allport	2,0,0,1,3,0,0,0,0	71.0	11.0	2.02	0,0,0,1,2,3,0,0,0	to_hand	s629
223.068	0.563	0	PA_with_intermediate	0,0,0,1,2,0,3,0,0	test	ward_and_allport	2,0,0,1,3,0,0,0,0	82.0	11.0	0.563	0,0,0,1,2,3,0,0,0	to_board	s629
223.636	0.475	0	PA_with_intermediate	0,0,0,1,0,0,3,0,0	test	ward_and_allport	2,0,0,1,3,0,0,0,0	71.0	11.0	0.475	0,0,0,1,2,3,0,0,0	to_hand	s629
224.112	0.381	0	PA_with_intermediate	2,0,0,1,0,0,3,0,0	test	ward_and_allport	2,0,0,1,3,0,0,0,0	89.0	11.0	0.381	0,0,0,1,2,3,0,0,0	to_board	s629
224.499	0.955	0	PA_with_intermediate	2,0,0,0,0,0,3,0,0	test	ward_and_allport	2,0,0,1,3,0,0,0,0	71.0	11.0	0.955	0,0,0,1,2,3,0,0,0	to_hand	s629
225.454	0.554	0	PA_with_intermediate	2,0,0,1,0,0,3,0,0	test	ward_and_allport	2,0,0,1,3,0,0,0,0	71.0	11.0	0.554	0,0,0,1,2,3,0,0,0	to_board	s629
226.014	0.287	0	PA_with_intermediate	2,0,0,1,0,0,0,0,0	test	ward_and_allport	2,0,0,1,3,0,0,0,0	82.0	11.0	0.287	0,0,0,1,2,3,0,0,0	to_hand	s629
226.302	0.346	0	PA_with_intermediate	2,0,0,1,3,0,0,0,0	test	ward_and_allport	2,0,0,1,3,0,0,0,0	71.0	11.0	0.346	0,0,0,1,2,3,0,0,0	to_board	s629
226.655	1.0	0	PA_with_intermediate	n/a	test	ward_and_allport	n/a	-1.0	11.0	n/a	n/a	feedback	s629
227.655	1.136	0	PA_with_intermediate	n/a	test	ward_and_allport	n/a	-1.0	11.0	n/a	n/a	ITI	s629
228.797	3.659	1	PA_with_intermediate	0,0,0,1,2,0,0,0,0	test	ward_and_allport	2,0,0,1,3,0,0,0,0	71.0	12.0	3.659	0,0,0,1,2,3,0,0,0	to_hand	s629
232.457	0.357	0	PA_with_intermediate	0,0,0,1,2,0,3,0,0	test	ward_and_allport	2,0,0,1,3,0,0,0,0	82.0	12.0	0.357	0,0,0,1,2,3,0,0,0	to_board	s629
232.82	0.581	0	PA_with_intermediate	0,0,0,1,0,0,3,0,0	test	ward_and_allport	2,0,0,1,3,0,0,0,0	71.0	12.0	0.581	0,0,0,1,2,3,0,0,0	to_hand	s629
233.401	0.459	0	PA_with_intermediate	2,0,0,1,0,0,3,0,0	test	ward_and_allport	2,0,0,1,3,0,0,0,0	89.0	12.0	0.459	0,0,0,1,2,3,0,0,0	to_board	s629
233.866	0.573	0	PA_with_intermediate	2,0,0,0,0,0,3,0,0	test	ward_and_allport	2,0,0,1,3,0,0,0,0	71.0	12.0	0.573	0,0,0,1,2,3,0,0,0	to_hand	s629
234.44	0.517	0	PA_with_intermediate	2,0,0,1,0,0,3,0,0	test	ward_and_allport	2,0,0,1,3,0,0,0,0	71.0	12.0	0.517	0,0,0,1,2,3,0,0,0	to_board	s629
234.962	0.284	0	PA_with_intermediate	2,0,0,1,0,0,0,0,0	test	ward_and_allport	2,0,0,1,3,0,0,0,0	82.0	12.0	0.284	0,0,0,1,2,3,0,0,0	to_hand	s629
235.248	0.326	0	PA_with_intermediate	2,0,0,1,3,0,0,0,0	test	ward_and_allport	2,0,0,1,3,0,0,0,0	71.0	12.0	0.326	0,0,0,1,2,3,0,0,0	to_board	s629
235.585	1.0	0	PA_with_intermediate	n/a	test	ward_and_allport	n/a	-1.0	12.0	n/a	n/a	feedback	s629
236.585	1.408	0	PA_with_intermediate	n/a	test	ward_and_allport	n/a	-1.0	12.0	n/a	n/a	ITI	s629
237.998	1.45	1	PA_without_intermediate	0,0,0,1,2,0,0,0,0	test	ward_and_allport	1,0,0,0,0,0,3,2,0	71.0	13.0	1.45	0,0,0,1,2,3,0,0,0	to_hand	s629
239.45	0.423	0	PA_without_intermediate	0,0,0,1,2,0,3,0,0	test	ward_and_allport	1,0,0,0,0,0,3,2,0	82.0	13.0	0.423	0,0,0,1,2,3,0,0,0	to_board	s629
239.879	0.843	0	PA_without_intermediate	0,0,0,1,0,0,3,0,0	test	ward_and_allport	1,0,0,0,0,0,3,2,0	71.0	13.0	0.843	0,0,0,1,2,3,0,0,0	to_hand	s629
240.723	0.464	0	PA_without_intermediate	0,0,0,1,0,0,3,2,0	test	ward_and_allport	1,0,0,0,0,0,3,2,0	82.0	13.0	0.464	0,0,0,1,2,3,0,0,0	to_board	s629
241.193	1.384	0	PA_without_intermediate	0,0,0,0,0,0,3,2,0	test	ward_and_allport	1,0,0,0,0,0,3,2,0	71.0	13.0	1.384	0,0,0,1,2,3,0,0,0	to_hand	s629
242.577	0.605	0	PA_without_intermediate	1,0,0,0,0,0,3,2,0	test	ward_and_allport	1,0,0,0,0,0,3,2,0	89.0	13.0	0.605	0,0,0,1,2,3,0,0,0	to_board	s629
243.19	1.0	0	PA_without_intermediate	n/a	test	ward_and_allport	n/a	-1.0	13.0	n/a	n/a	feedback	s629
244.19	1.68	0	PA_without_intermediate	n/a	test	ward_and_allport	n/a	-1.0	13.0	n/a	n/a	ITI	s629
245.877	2.975	1	PA_with_intermediate	0,0,0,0,0,0,1,2,0	test	ward_and_allport	2,3,0,0,0,0,1,0,0	82.0	14.0	2.975	0,0,0,0,0,0,1,2,3	to_hand	s629
248.853	0.857	0	PA_with_intermediate	3,0,0,0,0,0,1,2,0	test	ward_and_allport	2,3,0,0,0,0,1,0,0	89.0	14.0	0.857	0,0,0,0,0,0,1,2,3	to_board	s629
249.715	1.693	0	PA_with_intermediate	3,0,0,0,0,0,1,0,0	test	ward_and_allport	2,3,0,0,0,0,1,0,0	82.0	14.0	1.693	0,0,0,0,0,0,1,2,3	to_hand	s629
251.41	0.657	0	PA_with_intermediate	3,0,0,2,0,0,1,0,0	test	ward_and_allport	2,3,0,0,0,0,1,0,0	71.0	14.0	0.657	0,0,0,0,0,0,1,2,3	to_board	s629
252.072	1.046	0	PA_with_intermediate	0,0,0,2,0,0,1,0,0	test	ward_and_allport	2,3,0,0,0,0,1,0,0	89.0	14.0	1.046	0,0,0,0,0,0,1,2,3	to_hand	s629
253.12	0.522	0	PA_with_intermediate	3,0,0,2,0,0,1,0,0	test	ward_and_allport	2,3,0,0,0,0,1,0,0	89.0	14.0	0.522	0,0,0,0,0,0,1,2,3	to_board	s629
253.647	0.295	0	PA_with_intermediate	3,0,0,0,0,0,1,0,0	test	ward_and_allport	2,3,0,0,0,0,1,0,0	71.0	14.0	0.295	0,0,0,0,0,0,1,2,3	to_hand	s629
253.943	0.229	0	PA_with_intermediate	3,2,0,0,0,0,1,0,0	test	ward_and_allport	2,3,0,0,0,0,1,0,0	89.0	14.0	0.229	0,0,0,0,0,0,1,2,3	to_board	s629
254.179	0.807	0	PA_with_intermediate	3,2,0,0,0,0,0,0,0	test	ward_and_allport	2,3,0,0,0,0,1,0,0	82.0	14.0	0.807	0,0,0,0,0,0,1,2,3	to_hand	s629
254.986	0.421	0	PA_with_intermediate	3,2,0,1,0,0,0,0,0	test	ward_and_allport	2,3,0,0,0,0,1,0,0	71.0	14.0	0.421	0,0,0,0,0,0,1,2,3	to_board	s629
255.414	0.467	0	PA_with_intermediate	3,2,0,0,0,0,0,0,0	test	ward_and_allport	2,3,0,0,0,0,1,0,0	71.0	14.0	0.467	0,0,0,0,0,0,1,2,3	to_hand	s629
255.881	0.525	0	PA_with_intermediate	3,2,0,0,0,0,1,0,0	test	ward_and_allport	2,3,0,0,0,0,1,0,0	82.0	14.0	0.525	0,0,0,0,0,0,1,2,3	to_board	s629
256.412	1.105	0	PA_with_intermediate	3,0,0,0,0,0,1,0,0	test	ward_and_allport	2,3,0,0,0,0,1,0,0	89.0	14.0	1.105	0,0,0,0,0,0,1,2,3	to_hand	s629
257.519	0.512	0	PA_with_intermediate	3,0,0,2,0,0,1,0,0	test	ward_and_allport	2,3,0,0,0,0,1,0,0	71.0	14.0	0.512	0,0,0,0,0,0,1,2,3	to_board	s629
258.036	0.792	0	PA_with_intermediate	3,0,0,0,0,0,1,0,0	test	ward_and_allport	2,3,0,0,0,0,1,0,0	71.0	14.0	0.792	0,0,0,0,0,0,1,2,3	to_hand	s629
258.83	0.545	0	PA_with_intermediate	3,2,0,0,0,0,1,0,0	test	ward_and_allport	2,3,0,0,0,0,1,0,0	89.0	14.0	0.545	0,0,0,0,0,0,1,2,3	to_board	s629
259.38	1.463	0	PA_with_intermediate	3,2,0,0,0,0,0,0,0	test	ward_and_allport	2,3,0,0,0,0,1,0,0	82.0	14.0	1.463	0,0,0,0,0,0,1,2,3	to_hand	s629
260.844	0.603	0	PA_with_intermediate	3,2,0,0,0,0,1,0,0	test	ward_and_allport	2,3,0,0,0,0,1,0,0	82.0	14.0	0.603	0,0,0,0,0,0,1,2,3	to_board	s629
261.453	0.869	0	PA_with_intermediate	3,0,0,0,0,0,1,0,0	test	ward_and_allport	2,3,0,0,0,0,1,0,0	89.0	14.0	0.869	0,0,0,0,0,0,1,2,3	to_hand	s629
262.323	0.475	0	PA_with_intermediate	3,0,0,2,0,0,1,0,0	test	ward_and_allport	2,3,0,0,0,0,1,0,0	71.0	14.0	0.475	0,0,0,0,0,0,1,2,3	to_board	s629
262.804	0.548	0	PA_with_intermediate	0,0,0,2,0,0,1,0,0	test	ward_and_allport	2,3,0,0,0,0,1,0,0	89.0	14.0	0.548	0,0,0,0,0,0,1,2,3	to_hand	s629
263.353	0.496	0	PA_with_intermediate	0,0,0,2,3,0,1,0,0	test	ward_and_allport	2,3,0,0,0,0,1,0,0	71.0	14.0	0.496	0,0,0,0,0,0,1,2,3	to_board	s629
263.855	1.24	0	PA_with_intermediate	0,0,0,2,0,0,1,0,0	test	ward_and_allport	2,3,0,0,0,0,1,0,0	71.0	14.0	1.24	0,0,0,0,0,0,1,2,3	to_hand	s629
265.096	0.554	0	PA_with_intermediate	0,0,0,2,0,0,1,3,0	test	ward_and_allport	2,3,0,0,0,0,1,0,0	82.0	14.0	0.554	0,0,0,0,0,0,1,2,3	to_board	s629
265.655	0.478	0	PA_with_intermediate	0,0,0,0,0,0,1,3,0	test	ward_and_allport	2,3,0,0,0,0,1,0,0	71.0	14.0	0.478	0,0,0,0,0,0,1,2,3	to_hand	s629
266.133	0.464	0	PA_with_intermediate	2,0,0,0,0,0,1,3,0	test	ward_and_allport	2,3,0,0,0,0,1,0,0	89.0	14.0	0.464	0,0,0,0,0,0,1,2,3	to_board	s629
266.604	1.029	0	PA_with_intermediate	2,0,0,0,0,0,1,0,0	test	ward_and_allport	2,3,0,0,0,0,1,0,0	82.0	14.0	1.029	0,0,0,0,0,0,1,2,3	to_hand	s629
267.634	0.41	0	PA_with_intermediate	2,0,0,3,0,0,1,0,0	test	ward_and_allport	2,3,0,0,0,0,1,0,0	71.0	14.0	0.41	0,0,0,0,0,0,1,2,3	to_board	s629
268.05	0.753	0	PA_with_intermediate	2,0,0,0,0,0,1,0,0	test	ward_and_allport	2,3,0,0,0,0,1,0,0	71.0	14.0	0.753	0,0,0,0,0,0,1,2,3	to_hand	s629
268.803	0.326	0	PA_with_intermediate	2,3,0,0,0,0,1,0,0	test	ward_and_allport	2,3,0,0,0,0,1,0,0	89.0	14.0	0.326	0,0,0,0,0,0,1,2,3	to_board	s629
269.14	1.0	0	PA_with_intermediate	n/a	test	ward_and_allport	n/a	-1.0	14.0	n/a	n/a	feedback	s629
270.14	3.72	0	PA_with_intermediate	n/a	test	ward_and_allport	n/a	-1.0	14.0	n/a	n/a	ITI	s629
278.868	2.862	1	PA_without_intermediate	0,0,0,0,0,0,1,2,0	test	ward_and_allport	2,0,0,3,1,0,0,0,0	82.0	15.0	2.862	0,0,0,0,0,0,1,2,3	to_hand	s629
281.731	1.166	0	PA_without_intermediate	0,0,0,3,0,0,1,2,0	test	ward_and_allport	2,0,0,3,1,0,0,0,0	71.0	15.0	1.166	0,0,0,0,0,0,1,2,3	to_board	s629
282.902	1.045	0	PA_without_intermediate	0,0,0,3,0,0,1,0,0	test	ward_and_allport	2,0,0,3,1,0,0,0,0	82.0	15.0	1.045	0,0,0,0,0,0,1,2,3	to_hand	s629
283.949	0.67	0	PA_without_intermediate	2,0,0,3,0,0,1,0,0	test	ward_and_allport	2,0,0,3,1,0,0,0,0	89.0	15.0	0.67	0,0,0,0,0,0,1,2,3	to_board	s629
284.625	1.943	0	PA_without_intermediate	2,0,0,0,0,0,1,0,0	test	ward_and_allport	2,0,0,3,1,0,0,0,0	71.0	15.0	1.943	0,0,0,0,0,0,1,2,3	to_hand	s629
286.569	0.445	0	PA_without_intermediate	2,0,0,3,0,0,1,0,0	test	ward_and_allport	2,0,0,3,1,0,0,0,0	71.0	15.0	0.445	0,0,0,0,0,0,1,2,3	to_board	s629
287.02	0.243	0	PA_without_intermediate	2,0,0,3,0,0,0,0,0	test	ward_and_allport	2,0,0,3,1,0,0,0,0	82.0	15.0	0.243	0,0,0,0,0,0,1,2,3	to_hand	s629
287.264	0.304	0	PA_without_intermediate	2,0,0,3,1,0,0,0,0	test	ward_and_allport	2,0,0,3,1,0,0,0,0	71.0	15.0	0.304	0,0,0,0,0,0,1,2,3	to_board	s629
287.575	1.0	0	PA_without_intermediate	n/a	test	ward_and_allport	n/a	-1.0	15.0	n/a	n/a	feedback	s629
288.575	2.224	0	PA_without_intermediate	n/a	test	ward_and_allport	n/a	-1.0	15.0	n/a	n/a	ITI	s629
290.806	3.989	1	PA_without_intermediate	1,2,0,0,0,0,0,0,0	test	ward_and_allport	0,0,0,3,1,0,2,0,0	89.0	16.0	3.989	1,2,3,0,0,0,0,0,0	to_hand	s629
294.795	1.069	0	PA_without_intermediate	1,2,0,3,0,0,0,0,0	test	ward_and_allport	0,0,0,3,1,0,2,0,0	71.0	16.0	1.069	1,2,3,0,0,0,0,0,0	to_board	s629
295.871	0.763	0	PA_without_intermediate	1,0,0,3,0,0,0,0,0	test	ward_and_allport	0,0,0,3,1,0,2,0,0	89.0	16.0	0.763	1,2,3,0,0,0,0,0,0	to_hand	s629
296.634	0.388	0	PA_without_intermediate	1,0,0,3,0,0,2,0,0	test	ward_and_allport	0,0,0,3,1,0,2,0,0	82.0	16.0	0.388	1,2,3,0,0,0,0,0,0	to_board	s629
297.029	0.597	0	PA_without_intermediate	0,0,0,3,0,0,2,0,0	test	ward_and_allport	0,0,0,3,1,0,2,0,0	89.0	16.0	0.597	1,2,3,0,0,0,0,0,0	to_hand	s629
297.627	0.352	0	PA_without_intermediate	0,0,0,3,1,0,2,0,0	test	ward_and_allport	0,0,0,3,1,0,2,0,0	71.0	16.0	0.352	1,2,3,0,0,0,0,0,0	to_board	s629
297.989	1.0	0	PA_without_intermediate	n/a	test	ward_and_allport	n/a	-1.0	16.0	n/a	n/a	feedback	s629
298.989	1.272	0	PA_without_intermediate	n/a	test	ward_and_allport	n/a	-1.0	16.0	n/a	n/a	ITI	s629
300.268	3.369	1	PA_with_intermediate	1,2,0,0,0,0,0,0,0	test	ward_and_allport	1,3,0,0,0,0,2,0,0	89.0	17.0	3.369	1,2,3,0,0,0,0,0,0	to_hand	s629
303.638	1.64	0	PA_with_intermediate	1,2,0,0,0,0,3,0,0	test	ward_and_allport	1,3,0,0,0,0,2,0,0	82.0	17.0	1.64	1,2,3,0,0,0,0,0,0	to_board	s629
305.285	1.222	0	PA_with_intermediate	1,0,0,0,0,0,3,0,0	test	ward_and_allport	1,3,0,0,0,0,2,0,0	89.0	17.0	1.222	1,2,3,0,0,0,0,0,0	to_hand	s629
306.508	1.195	0	PA_with_intermediate	1,0,0,0,0,0,3,2,0	test	ward_and_allport	1,3,0,0,0,0,2,0,0	82.0	17.0	1.195	1,2,3,0,0,0,0,0,0	to_board	s629
307.71	0.589	0	PA_with_intermediate	0,0,0,0,0,0,3,2,0	test	ward_and_allport	1,3,0,0,0,0,2,0,0	89.0	17.0	0.589	1,2,3,0,0,0,0,0,0	to_hand	s629
308.3	1.13	0	PA_with_intermediate	1,0,0,0,0,0,3,2,0	test	ward_and_allport	1,3,0,0,0,0,2,0,0	89.0	17.0	1.13	1,2,3,0,0,0,0,0,0	to_board	s629
309.436	2.106	0	PA_with_intermediate	1,0,0,0,0,0,3,0,0	test	ward_and_allport	1,3,0,0,0,0,2,0,0	82.0	17.0	2.106	1,2,3,0,0,0,0,0,0	to_hand	s629
311.543	0.601	0	PA_with_intermediate	1,0,0,2,0,0,3,0,0	test	ward_and_allport	1,3,0,0,0,0,2,0,0	71.0	17.0	0.601	1,2,3,0,0,0,0,0,0	to_board	s629
312.152	0.458	0	PA_with_intermediate	1,0,0,2,0,0,0,0,0	test	ward_and_allport	1,3,0,0,0,0,2,0,0	82.0	17.0	0.458	1,2,3,0,0,0,0,0,0	to_hand	s629
312.61	0.718	0	PA_with_intermediate	1,3,0,2,0,0,0,0,0	test	ward_and_allport	1,3,0,0,0,0,2,0,0	89.0	17.0	0.718	1,2,3,0,0,0,0,0,0	to_board	s629
313.335	0.887	0	PA_with_intermediate	1,3,0,0,0,0,0,0,0	test	ward_and_allport	1,3,0,0,0,0,2,0,0	71.0	17.0	0.887	1,2,3,0,0,0,0,0,0	to_hand	s629
314.222	0.61	0	PA_with_intermediate	1,3,0,0,0,0,2,0,0	test	ward_and_allport	1,3,0,0,0,0,2,0,0	82.0	17.0	0.61	1,2,3,0,0,0,0,0,0	to_board	s629
314.843	1.0	0	PA_with_intermediate	n/a	test	ward_and_allport	n/a	-1.0	17.0	n/a	n/a	feedback	s629
315.843	2.632	0	PA_with_intermediate	n/a	test	ward_and_allport	n/a	-1.0	17.0	n/a	n/a	ITI	s629
318.482	2.281	1	PA_without_intermediate	1,2,0,0,0,0,0,0,0	test	ward_and_allport	0,0,0,3,2,0,1,0,0	89.0	18.0	2.281	1,2,3,0,0,0,0,0,0	to_hand	s629
320.763	0.606	0	PA_without_intermediate	1,2,0,3,0,0,0,0,0	test	ward_and_allport	0,0,0,3,2,0,1,0,0	71.0	18.0	0.606	1,2,3,0,0,0,0,0,0	to_board	s629
321.377	0.454	0	PA_without_intermediate	1,0,0,3,0,0,0,0,0	test	ward_and_allport	0,0,0,3,2,0,1,0,0	89.0	18.0	0.454	1,2,3,0,0,0,0,0,0	to_hand	s629
321.831	0.395	0	PA_without_intermediate	1,0,0,3,2,0,0,0,0	test	ward_and_allport	0,0,0,3,2,0,1,0,0	71.0	18.0	0.395	1,2,3,0,0,0,0,0,0	to_board	s629
322.235	0.423	0	PA_without_intermediate	0,0,0,3,2,0,0,0,0	test	ward_and_allport	0,0,0,3,2,0,1,0,0	89.0	18.0	0.423	1,2,3,0,0,0,0,0,0	to_hand	s629
322.659	0.398	0	PA_without_intermediate	0,0,0,3,2,0,1,0,0	test	ward_and_allport	0,0,0,3,2,0,1,0,0	82.0	18.0	0.398	1,2,3,0,0,0,0,0,0	to_board	s629
323.069	1.0	0	PA_without_intermediate	n/a	test	ward_and_allport	n/a	-1.0	18.0	n/a	n/a	feedback	s629
324.069	1.408	0	PA_without_intermediate	n/a	test	ward_and_allport	n/a	-1.0	18.0	n/a	n/a	ITI	s629
325.484	3.44	1	PA_without_intermediate	1,2,0,0,0,0,0,0,0	test	ward_and_allport	0,0,0,2,0,0,3,1,0	89.0	19.0	3.44	1,2,3,0,0,0,0,0,0	to_hand	s629
328.925	0.522	0	PA_without_intermediate	1,2,0,0,0,0,3,0,0	test	ward_and_allport	0,0,0,2,0,0,3,1,0	82.0	19.0	0.522	1,2,3,0,0,0,0,0,0	to_board	s629
329.453	0.943	0	PA_without_intermediate	1,0,0,0,0,0,3,0,0	test	ward_and_allport	0,0,0,2,0,0,3,1,0	89.0	19.0	0.943	1,2,3,0,0,0,0,0,0	to_hand	s629
330.397	0.373	0	PA_without_intermediate	1,0,0,2,0,0,3,0,0	test	ward_and_allport	0,0,0,2,0,0,3,1,0	71.0	19.0	0.373	1,2,3,0,0,0,0,0,0	to_board	s629
330.776	0.347	0	PA_without_intermediate	0,0,0,2,0,0,3,0,0	test	ward_and_allport	0,0,0,2,0,0,3,1,0	89.0	19.0	0.347	1,2,3,0,0,0,0,0,0	to_hand	s629
331.125	0.369	0	PA_without_intermediate	0,0,0,2,0,0,3,1,0	test	ward_and_allport	0,0,0,2,0,0,3,1,0	82.0	19.0	0.369	1,2,3,0,0,0,0,0,0	to_board	s629
331.504	1.0	0	PA_without_intermediate	n/a	test	ward_and_allport	n/a	-1.0	19.0	n/a	n/a	feedback	s629
332.504	1.0	0	PA_without_intermediate	n/a	test	ward_and_allport	n/a	-1.0	19.0	n/a	n/a	ITI	s629
333.513	2.115	1	PA_with_intermediate	1,2,0,0,0,0,0,0,0	test	ward_and_allport	1,0,0,2,3,0,0,0,0	89.0	20.0	2.115	1,2,3,0,0,0,0,0,0	to_hand	s629
335.628	0.595	0	PA_with_intermediate	1,2,0,0,0,0,3,0,0	test	ward_and_allport	1,0,0,2,3,0,0,0,0	82.0	20.0	0.595	1,2,3,0,0,0,0,0,0	to_board	s629
336.231	0.672	0	PA_with_intermediate	1,0,0,0,0,0,3,0,0	test	ward_and_allport	1,0,0,2,3,0,0,0,0	89.0	20.0	0.672	1,2,3,0,0,0,0,0,0	to_hand	s629
336.903	0.345	0	PA_with_intermediate	1,0,0,2,0,0,3,0,0	test	ward_and_allport	1,0,0,2,3,0,0,0,0	71.0	20.0	0.345	1,2,3,0,0,0,0,0,0	to_board	s629
337.254	0.773	0	PA_with_intermediate	1,0,0,2,0,0,0,0,0	test	ward_and_allport	1,0,0,2,3,0,0,0,0	82.0	20.0	0.773	1,2,3,0,0,0,0,0,0	to_hand	s629
338.028	0.378	0	PA_with_intermediate	1,3,0,2,0,0,0,0,0	test	ward_and_allport	1,0,0,2,3,0,0,0,0	89.0	20.0	0.378	1,2,3,0,0,0,0,0,0	to_board	s629
338.411	0.662	0	PA_with_intermediate	1,0,0,2,0,0,0,0,0	test	ward_and_allport	1,0,0,2,3,0,0,0,0	89.0	20.0	0.662	1,2,3,0,0,0,0,0,0	to_hand	s629
339.074	0.3	0	PA_with_intermediate	1,0,0,2,3,0,0,0,0	test	ward_and_allport	1,0,0,2,3,0,0,0,0	71.0	20.0	0.3	1,2,3,0,0,0,0,0,0	to_board	s629
339.38	1.0	0	PA_with_intermediate	n/a	test	ward_and_allport	n/a	-1.0	20.0	n/a	n/a	feedback	s629
340.38	1.0	0	PA_with_intermediate	n/a	test	ward_and_allport	n/a	-1.0	20.0	n/a	n/a	ITI	s629
341.385	3.39	1	PA_with_intermediate	1,2,0,0,0,0,0,0,0	test	ward_and_allport	1,0,0,2,3,0,0,0,0	89.0	21.0	3.39	1,2,3,0,0,0,0,0,0	to_hand	s629
344.776	0.283	0	PA_with_intermediate	1,2,0,0,0,0,3,0,0	test	ward_and_allport	1,0,0,2,3,0,0,0,0	82.0	21.0	0.283	1,2,3,0,0,0,0,0,0	to_board	s629
345.064	0.358	0	PA_with_intermediate	1,2,0,0,0,0,0,0,0	test	ward_and_allport	1,0,0,2,3,0,0,0,0	82.0	21.0	0.358	1,2,3,0,0,0,0,0,0	to_hand	s629
345.423	0.33	0	PA_with_intermediate	1,2,3,0,0,0,0,0,0	test	ward_and_allport	1,0,0,2,3,0,0,0,0	89.0	21.0	0.33	1,2,3,0,0,0,0,0,0	to_board	s629
345.761	0.679	0	PA_with_intermediate	1,2,0,0,0,0,0,0,0	test	ward_and_allport	1,0,0,2,3,0,0,0,0	89.0	21.0	0.679	1,2,3,0,0,0,0,0,0	to_hand	s629
346.441	0.412	0	PA_with_intermediate	1,2,3,0,0,0,0,0,0	test	ward_and_allport	1,0,0,2,3,0,0,0,0	89.0	21.0	0.412	1,2,3,0,0,0,0,0,0	to_board	s629
346.862	0.383	0	PA_with_intermediate	1,2,0,0,0,0,0,0,0	test	ward_and_allport	1,0,0,2,3,0,0,0,0	89.0	21.0	0.383	1,2,3,0,0,0,0,0,0	to_hand	s629
347.246	0.306	0	PA_with_intermediate	1,2,0,0,0,0,3,0,0	test	ward_and_allport	1,0,0,2,3,0,0,0,0	82.0	21.0	0.306	1,2,3,0,0,0,0,0,0	to_board	s629
347.559	1.258	0	PA_with_intermediate	1,0,0,0,0,0,3,0,0	test	ward_and_allport	1,0,0,2,3,0,0,0,0	89.0	21.0	1.258	1,2,3,0,0,0,0,0,0	to_hand	s629
348.818	0.433	0	PA_with_intermediate	1,0,0,2,0,0,3,0,0	test	ward_and_allport	1,0,0,2,3,0,0,0,0	71.0	21.0	0.433	1,2,3,0,0,0,0,0,0	to_board	s629
349.257	0.773	0	PA_with_intermediate	1,0,0,2,0,0,0,0,0	test	ward_and_allport	1,0,0,2,3,0,0,0,0	82.0	21.0	0.773	1,2,3,0,0,0,0,0,0	to_hand	s629
350.031	0.91	0	PA_with_intermediate	1,0,0,2,3,0,0,0,0	test	ward_and_allport	1,0,0,2,3,0,0,0,0	71.0	21.0	0.91	1,2,3,0,0,0,0,0,0	to_board	s629
350.95	1.0	0	PA_with_intermediate	n/a	test	ward_and_allport	n/a	-1.0	21.0	n/a	n/a	feedback	s629
351.95	1.0	0	PA_with_intermediate	n/a	test	ward_and_allport	n/a	-1.0	21.0	n/a	n/a	ITI	s629
352.955	2.748	1	PA_with_intermediate	0,0,0,1,2,0,0,0,0	test	ward_and_allport	2,3,0,1,0,0,0,0,0	71.0	22.0	2.748	0,0,0,1,2,3,0,0,0	to_hand	s629
355.705	0.788	0	PA_with_intermediate	0,0,0,1,2,0,3,0,0	test	ward_and_allport	2,3,0,1,0,0,0,0,0	82.0	22.0	0.788	0,0,0,1,2,3,0,0,0	to_board	s629
356.501	0.922	0	PA_with_intermediate	0,0,0,1,0,0,3,0,0	test	ward_and_allport	2,3,0,1,0,0,0,0,0	71.0	22.0	0.922	0,0,0,1,2,3,0,0,0	to_hand	s629
357.423	0.349	0	PA_with_intermediate	2,0,0,1,0,0,3,0,0	test	ward_and_allport	2,3,0,1,0,0,0,0,0	89.0	22.0	0.349	0,0,0,1,2,3,0,0,0	to_board	s629
357.781	2.537	0	PA_with_intermediate	2,0,0,1,0,0,0,0,0	test	ward_and_allport	2,3,0,1,0,0,0,0,0	82.0	22.0	2.537	0,0,0,1,2,3,0,0,0	to_hand	s629
360.318	0.881	0	PA_with_intermediate	2,3,0,1,0,0,0,0,0	test	ward_and_allport	2,3,0,1,0,0,0,0,0	89.0	22.0	0.881	0,0,0,1,2,3,0,0,0	to_board	s629
361.209	1.0	0	PA_with_intermediate	n/a	test	ward_and_allport	n/a	-1.0	22.0	n/a	n/a	feedback	s629
362.209	1.408	0	PA_with_intermediate	n/a	test	ward_and_allport	n/a	-1.0	22.0	n/a	n/a	ITI	s629
363.626	1.71	1	PA_without_intermediate	1,2,0,0,0,0,0,0,0	test	ward_and_allport	0,0,0,2,0,0,3,1,0	89.0	23.0	1.71	1,2,3,0,0,0,0,0,0	to_hand	s629
365.336	0.893	0	PA_without_intermediate	1,2,0,0,0,0,3,0,0	test	ward_and_allport	0,0,0,2,0,0,3,1,0	82.0	23.0	0.893	1,2,3,0,0,0,0,0,0	to_board	s629
366.236	0.707	0	PA_without_intermediate	1,0,0,0,0,0,3,0,0	test	ward_and_allport	0,0,0,2,0,0,3,1,0	89.0	23.0	0.707	1,2,3,0,0,0,0,0,0	to_hand	s629
366.944	0.368	0	PA_without_intermediate	1,0,0,2,0,0,3,0,0	test	ward_and_allport	0,0,0,2,0,0,3,1,0	71.0	23.0	0.368	1,2,3,0,0,0,0,0,0	to_board	s629
367.321	0.345	0	PA_without_intermediate	0,0,0,2,0,0,3,0,0	test	ward_and_allport	0,0,0,2,0,0,3,1,0	89.0	23.0	0.345	1,2,3,0,0,0,0,0,0	to_hand	s629
367.668	0.296	0	PA_without_intermediate	0,0,0,2,0,0,3,1,0	test	ward_and_allport	0,0,0,2,0,0,3,1,0	82.0	23.0	0.296	1,2,3,0,0,0,0,0,0	to_board	s629
367.975	1.0	0	PA_without_intermediate	n/a	test	ward_and_allport	n/a	-1.0	23.0	n/a	n/a	feedback	s629
368.975	1.816	0	PA_without_intermediate	n/a	test	ward_and_allport	n/a	-1.0	23.0	n/a	n/a	ITI	s629
370.797	2.694	1	PA_with_intermediate	1,2,0,0,0,0,0,0,0	test	ward_and_allport	1,3,0,2,0,0,0,0,0	89.0	24.0	2.694	1,2,3,0,0,0,0,0,0	to_hand	s629
373.493	0.382	0	PA_with_intermediate	1,2,0,0,0,0,3,0,0	test	ward_and_allport	1,3,0,2,0,0,0,0,0	82.0	24.0	0.382	1,2,3,0,0,0,0,0,0	to_board	s629
373.881	0.58	0	PA_with_intermediate	1,0,0,0,0,0,3,0,0	test	ward_and_allport	1,3,0,2,0,0,0,0,0	89.0	24.0	0.58	1,2,3,0,0,0,0,0,0	to_hand	s629
374.461	0.461	0	PA_with_intermediate	1,0,0,2,0,0,3,0,0	test	ward_and_allport	1,3,0,2,0,0,0,0,0	71.0	24.0	0.461	1,2,3,0,0,0,0,0,0	to_board	s629
374.931	0.503	0	PA_with_intermediate	1,0,0,2,0,0,0,0,0	test	ward_and_allport	1,3,0,2,0,0,0,0,0	82.0	24.0	0.503	1,2,3,0,0,0,0,0,0	to_hand	s629
375.436	0.581	0	PA_with_intermediate	1,3,0,2,0,0,0,0,0	test	ward_and_allport	1,3,0,2,0,0,0,0,0	89.0	24.0	0.581	1,2,3,0,0,0,0,0,0	to_board	s629
376.028	1.0	0	PA_with_intermediate	n/a	test	ward_and_allport	n/a	-1.0	24.0	n/a	n/a	feedback	s629
377.028	3.176	0	PA_with_intermediate	n/a	test	ward_and_allport	n/a	-1.0	24.0	n/a	n/a	ITI	s629
380.212	1.302	1	PA_with_intermediate	0,0,0,0,0,0,1,2,0	test	ward_and_allport	2,0,0,0,0,0,1,3,0	82.0	25.0	1.302	0,0,0,0,0,0,1,2,3	to_hand	s629
381.515	1.456	0	PA_with_intermediate	3,0,0,0,0,0,1,2,0	test	ward_and_allport	2,0,0,0,0,0,1,3,0	89.0	25.0	1.456	0,0,0,0,0,0,1,2,3	to_board	s629
382.978	1.483	0	PA_with_intermediate	0,0,0,0,0,0,1,2,0	test	ward_and_allport	2,0,0,0,0,0,1,3,0	89.0	25.0	1.483	0,0,0,0,0,0,1,2,3	to_hand	s629
384.463	0.624	0	PA_with_intermediate	3,0,0,0,0,0,1,2,0	test	ward_and_allport	2,0,0,0,0,0,1,3,0	89.0	25.0	0.624	0,0,0,0,0,0,1,2,3	to_board	s629
385.096	1.001	0	PA_with_intermediate	3,0,0,0,0,0,1,0,0	test	ward_and_allport	2,0,0,0,0,0,1,3,0	82.0	25.0	1.001	0,0,0,0,0,0,1,2,3	to_hand	s629
386.099	1.148	0	PA_with_intermediate	3,2,0,0,0,0,1,0,0	test	ward_and_allport	2,0,0,0,0,0,1,3,0	89.0	25.0	1.148	0,0,0,0,0,0,1,2,3	to_board	s629
387.256	1.177	0	PA_with_intermediate	3,2,0,0,0,0,0,0,0	test	ward_and_allport	2,0,0,0,0,0,1,3,0	82.0	25.0	1.177	0,0,0,0,0,0,1,2,3	to_hand	s629
388.434	0.729	0	PA_with_intermediate	3,2,0,0,0,0,1,0,0	test	ward_and_allport	2,0,0,0,0,0,1,3,0	82.0	25.0	0.729	0,0,0,0,0,0,1,2,3	to_board	s629
389.171	2.373	0	PA_with_intermediate	3,0,0,0,0,0,1,0,0	test	ward_and_allport	2,0,0,0,0,0,1,3,0	89.0	25.0	2.373	0,0,0,0,0,0,1,2,3	to_hand	s629
391.546	1.089	0	PA_with_intermediate	3,0,0,2,0,0,1,0,0	test	ward_and_allport	2,0,0,0,0,0,1,3,0	71.0	25.0	1.089	0,0,0,0,0,0,1,2,3	to_board	s629
392.642	0.448	0	PA_with_intermediate	0,0,0,2,0,0,1,0,0	test	ward_and_allport	2,0,0,0,0,0,1,3,0	89.0	25.0	0.448	0,0,0,0,0,0,1,2,3	to_hand	s629
393.091	0.596	0	PA_with_intermediate	0,0,0,2,0,0,1,3,0	test	ward_and_allport	2,0,0,0,0,0,1,3,0	82.0	25.0	0.596	0,0,0,0,0,0,1,2,3	to_board	s629
393.696	0.955	0	PA_with_intermediate	0,0,0,0,0,0,1,3,0	test	ward_and_allport	2,0,0,0,0,0,1,3,0	71.0	25.0	0.955	0,0,0,0,0,0,1,2,3	to_hand	s629
394.651	0.384	0	PA_with_intermediate	2,0,0,0,0,0,1,3,0	test	ward_and_allport	2,0,0,0,0,0,1,3,0	89.0	25.0	0.384	0,0,0,0,0,0,1,2,3	to_board	s629
395.047	1.0	0	PA_with_intermediate	n/a	test	ward_and_allport	n/a	-1.0	25.0	n/a	n/a	feedback	s629
396.047	2.36	0	PA_with_intermediate	n/a	test	ward_and_allport	n/a	-1.0	25.0	n/a	n/a	ITI	s629
398.414	1.937	1	PA_with_intermediate	0,0,0,1,2,0,0,0,0	test	ward_and_allport	0,0,0,1,0,0,2,3,0	71.0	26.0	1.937	0,0,0,1,2,3,0,0,0	to_hand	s629
400.352	0.323	0	PA_with_intermediate	3,0,0,1,2,0,0,0,0	test	ward_and_allport	0,0,0,1,0,0,2,3,0	89.0	26.0	0.323	0,0,0,1,2,3,0,0,0	to_board	s629
400.681	0.439	0	PA_with_intermediate	3,0,0,1,0,0,0,0,0	test	ward_and_allport	0,0,0,1,0,0,2,3,0	71.0	26.0	0.439	0,0,0,1,2,3,0,0,0	to_hand	s629
401.121	0.488	0	PA_with_intermediate	3,0,0,1,0,0,2,0,0	test	ward_and_allport	0,0,0,1,0,0,2,3,0	82.0	26.0	0.488	0,0,0,1,2,3,0,0,0	to_board	s629
401.616	0.879	0	PA_with_intermediate	0,0,0,1,0,0,2,0,0	test	ward_and_allport	0,0,0,1,0,0,2,3,0	89.0	26.0	0.879	0,0,0,1,2,3,0,0,0	to_hand	s629
402.497	0.339	0	PA_with_intermediate	0,0,0,1,0,0,2,3,0	test	ward_and_allport	0,0,0,1,0,0,2,3,0	82.0	26.0	0.339	0,0,0,1,2,3,0,0,0	to_board	s629
402.845	1.0	0	PA_with_intermediate	n/a	test	ward_and_allport	n/a	-1.0	26.0	n/a	n/a	feedback	s629
403.845	1.0	0	PA_with_intermediate	n/a	test	ward_and_allport	n/a	-1.0	26.0	n/a	n/a	ITI	s629
404.854	3.389	1	PA_without_intermediate	0,0,0,0,0,0,1,2,0	test	ward_and_allport	3,1,0,2,0,0,0,0,0	82.0	27.0	3.389	0,0,0,0,0,0,1,2,3	to_hand	s629
408.243	0.786	0	PA_without_intermediate	0,0,0,3,0,0,1,2,0	test	ward_and_allport	3,1,0,2,0,0,0,0,0	71.0	27.0	0.786	0,0,0,0,0,0,1,2,3	to_board	s629
409.039	0.804	0	PA_without_intermediate	0,0,0,0,0,0,1,2,0	test	ward_and_allport	3,1,0,2,0,0,0,0,0	71.0	27.0	0.804	0,0,0,0,0,0,1,2,3	to_hand	s629
409.843	0.014	0	PA_without_intermediate	3,0,0,0,0,0,1,2,0	test	ward_and_allport	3,1,0,2,0,0,0,0,0	89.0	27.0	0.014	0,0,0,0,0,0,1,2,3	to_board	s629
409.868	1.793	0	PA_without_intermediate	3,0,0,0,0,0,1,0,0	test	ward_and_allport	3,1,0,2,0,0,0,0,0	82.0	27.0	1.793	0,0,0,0,0,0,1,2,3	to_hand	s629
411.662	0.47	0	PA_without_intermediate	3,0,0,2,0,0,1,0,0	test	ward_and_allport	3,1,0,2,0,0,0,0,0	71.0	27.0	0.47	0,0,0,0,0,0,1,2,3	to_board	s629
412.143	0.569	0	PA_without_intermediate	3,0,0,2,0,0,0,0,0	test	ward_and_allport	3,1,0,2,0,0,0,0,0	82.0	27.0	0.569	0,0,0,0,0,0,1,2,3	to_hand	s629
412.712	0.402	0	PA_without_intermediate	3,1,0,2,0,0,0,0,0	test	ward_and_allport	3,1,0,2,0,0,0,0,0	89.0	27.0	0.402	0,0,0,0,0,0,1,2,3	to_board	s629
413.125	1.0	0	PA_without_intermediate	n/a	test	ward_and_allport	n/a	-1.0	27.0	n/a	n/a	feedback	s629
414.125	1.408	0	PA_without_intermediate	n/a	test	ward_and_allport	n/a	-1.0	27.0	n/a	n/a	ITI	s629
415.54	2.109	1	PA_with_intermediate	0,0,0,0,0,0,1,2,0	test	ward_and_allport	0,0,0,2,0,0,1,3,0	82.0	28.0	2.109	0,0,0,0,0,0,1,2,3	to_hand	s629
417.65	0.701	0	PA_with_intermediate	0,0,0,3,0,0,1,2,0	test	ward_and_allport	0,0,0,2,0,0,1,3,0	71.0	28.0	0.701	0,0,0,0,0,0,1,2,3	to_board	s629
418.358	0.597	0	PA_with_intermediate	0,0,0,3,0,0,1,0,0	test	ward_and_allport	0,0,0,2,0,0,1,3,0	82.0	28.0	0.597	0,0,0,0,0,0,1,2,3	to_hand	s629
418.956	0.529	0	PA_with_intermediate	2,0,0,3,0,0,1,0,0	test	ward_and_allport	0,0,0,2,0,0,1,3,0	89.0	28.0	0.529	0,0,0,0,0,0,1,2,3	to_board	s629
419.494	0.765	0	PA_with_intermediate	2,0,0,3,0,0,0,0,0	test	ward_and_allport	0,0,0,2,0,0,1,3,0	82.0	28.0	0.765	0,0,0,0,0,0,1,2,3	to_hand	s629
420.26	1.07	0	PA_with_intermediate	2,0,0,3,1,0,0,0,0	test	ward_and_allport	0,0,0,2,0,0,1,3,0	71.0	28.0	1.07	0,0,0,0,0,0,1,2,3	to_board	s629
421.34	0.641	0	PA_with_intermediate	2,0,0,3,0,0,0,0,0	test	ward_and_allport	0,0,0,2,0,0,1,3,0	71.0	28.0	0.641	0,0,0,0,0,0,1,2,3	to_hand	s629
421.983	0.435	0	PA_with_intermediate	2,0,0,3,0,0,1,0,0	test	ward_and_allport	0,0,0,2,0,0,1,3,0	82.0	28.0	0.435	0,0,0,0,0,0,1,2,3	to_board	s629
422.425	2.069	0	PA_with_intermediate	2,0,0,0,0,0,1,0,0	test	ward_and_allport	0,0,0,2,0,0,1,3,0	71.0	28.0	2.069	0,0,0,0,0,0,1,2,3	to_hand	s629
424.496	1.077	0	PA_with_intermediate	2,0,0,0,0,0,1,3,0	test	ward_and_allport	0,0,0,2,0,0,1,3,0	82.0	28.0	1.077	0,0,0,0,0,0,1,2,3	to_board	s629
425.583	1.207	0	PA_with_intermediate	0,0,0,0,0,0,1,3,0	test	ward_and_allport	0,0,0,2,0,0,1,3,0	89.0	28.0	1.207	0,0,0,0,0,0,1,2,3	to_hand	s629
426.791	0.376	0	PA_with_intermediate	0,0,0,2,0,0,1,3,0	test	ward_and_allport	0,0,0,2,0,0,1,3,0	71.0	28.0	0.376	0,0,0,0,0,0,1,2,3	to_board	s629
427.182	1.0	0	PA_with_intermediate	n/a	test	ward_and_allport	n/a	-1.0	28.0	n/a	n/a	feedback	s629
428.182	1.816	0	PA_with_intermediate	n/a	test	ward_and_allport	n/a	-1.0	28.0	n/a	n/a	ITI	s629
430.004	3.723	1	PA_without_intermediate	0,0,0,0,0,0,1,2,0	test	ward_and_allport	1,0,0,3,2,0,0,0,0	82.0	29.0	3.723	0,0,0,0,0,0,1,2,3	to_hand	s629
433.727	1.123	0	PA_without_intermediate	0,0,0,3,0,0,1,2,0	test	ward_and_allport	1,0,0,3,2,0,0,0,0	71.0	29.0	1.123	0,0,0,0,0,0,1,2,3	to_board	s629
434.859	1.342	0	PA_without_intermediate	0,0,0,3,0,0,1,0,0	test	ward_and_allport	1,0,0,3,2,0,0,0,0	82.0	29.0	1.342	0,0,0,0,0,0,1,2,3	to_hand	s629
436.203	1.055	0	PA_without_intermediate	0,0,0,3,2,0,1,0,0	test	ward_and_allport	1,0,0,3,2,0,0,0,0	71.0	29.0	1.055	0,0,0,0,0,0,1,2,3	to_board	s629
437.268	0.865	0	PA_without_intermediate	0,0,0,3,2,0,0,0,0	test	ward_and_allport	1,0,0,3,2,0,0,0,0	82.0	29.0	0.865	0,0,0,0,0,0,1,2,3	to_hand	s629
438.135	0.353	0	PA_without_intermediate	1,0,0,3,2,0,0,0,0	test	ward_and_allport	1,0,0,3,2,0,0,0,0	89.0	29.0	0.353	0,0,0,0,0,0,1,2,3	to_board	s629
438.505	1.0	0	PA_without_intermediate	n/a	test	ward_and_allport	n/a	-1.0	29.0	n/a	n/a	feedback	s629
439.505	2.088	0	PA_without_intermediate	n/a	test	ward_and_allport	n/a	-1.0	29.0	n/a	n/a	ITI	s629
446.604	2.222	1	PA_without_intermediate	1,2,0,0,0,0,0,0,0	test	ward_and_allport	0,0,0,3,2,0,1,0,0	89.0	30.0	2.222	1,2,3,0,0,0,0,0,0	to_hand	s629
448.827	1.231	0	PA_without_intermediate	1,2,0,3,0,0,0,0,0	test	ward_and_allport	0,0,0,3,2,0,1,0,0	71.0	30.0	1.231	1,2,3,0,0,0,0,0,0	to_board	s629
450.069	0.496	0	PA_without_intermediate	1,0,0,3,0,0,0,0,0	test	ward_and_allport	0,0,0,3,2,0,1,0,0	89.0	30.0	0.496	1,2,3,0,0,0,0,0,0	to_hand	s629
450.565	0.466	0	PA_without_intermediate	1,0,0,3,2,0,0,0,0	test	ward_and_allport	0,0,0,3,2,0,1,0,0	71.0	30.0	0.466	1,2,3,0,0,0,0,0,0	to_board	s629
451.043	0.449	0	PA_without_intermediate	0,0,0,3,2,0,0,0,0	test	ward_and_allport	0,0,0,3,2,0,1,0,0	89.0	30.0	0.449	1,2,3,0,0,0,0,0,0	to_hand	s629
451.493	0.532	0	PA_without_intermediate	0,0,0,3,2,0,1,0,0	test	ward_and_allport	0,0,0,3,2,0,1,0,0	82.0	30.0	0.532	1,2,3,0,0,0,0,0,0	to_board	s629
452.038	1.0	0	PA_without_intermediate	n/a	test	ward_and_allport	n/a	-1.0	30.0	n/a	n/a	feedback	s629
453.038	1.136	0	PA_without_intermediate	n/a	test	ward_and_allport	n/a	-1.0	30.0	n/a	n/a	ITI	s629
454.183	2.654	1	PA_without_intermediate	1,2,0,0,0,0,0,0,0	test	ward_and_allport	0,0,0,3,1,0,2,0,0	89.0	31.0	2.654	1,2,3,0,0,0,0,0,0	to_hand	s629
456.838	0.945	0	PA_without_intermediate	1,2,0,0,0,0,3,0,0	test	ward_and_allport	0,0,0,3,1,0,2,0,0	82.0	31.0	0.945	1,2,3,0,0,0,0,0,0	to_board	s629
457.79	0.939	0	PA_without_intermediate	1,0,0,0,0,0,3,0,0	test	ward_and_allport	0,0,0,3,1,0,2,0,0	89.0	31.0	0.939	1,2,3,0,0,0,0,0,0	to_hand	s629
458.73	1.934	0	PA_without_intermediate	1,2,0,0,0,0,3,0,0	test	ward_and_allport	0,0,0,3,1,0,2,0,0	89.0	31.0	1.934	1,2,3,0,0,0,0,0,0	to_board	s629
460.673	0.675	0	PA_without_intermediate	1,2,0,0,0,0,0,0,0	test	ward_and_allport	0,0,0,3,1,0,2,0,0	82.0	31.0	0.675	1,2,3,0,0,0,0,0,0	to_hand	s629
461.349	0.516	0	PA_without_intermediate	1,2,0,3,0,0,0,0,0	test	ward_and_allport	0,0,0,3,1,0,2,0,0	71.0	31.0	0.516	1,2,3,0,0,0,0,0,0	to_board	s629
461.874	0.539	0	PA_without_intermediate	1,0,0,3,0,0,0,0,0	test	ward_and_allport	0,0,0,3,1,0,2,0,0	89.0	31.0	0.539	1,2,3,0,0,0,0,0,0	to_hand	s629
462.415	0.307	0	PA_without_intermediate	1,0,0,3,0,0,2,0,0	test	ward_and_allport	0,0,0,3,1,0,2,0,0	82.0	31.0	0.307	1,2,3,0,0,0,0,0,0	to_board	s629
462.733	1.466	0	PA_without_intermediate	0,0,0,3,0,0,2,0,0	test	ward_and_allport	0,0,0,3,1,0,2,0,0	89.0	31.0	1.466	1,2,3,0,0,0,0,0,0	to_hand	s629
464.2	0.274	0	PA_without_intermediate	0,0,0,3,1,0,2,0,0	test	ward_and_allport	0,0,0,3,1,0,2,0,0	71.0	31.0	0.274	1,2,3,0,0,0,0,0,0	to_board	s629
464.484	1.0	0	PA_without_intermediate	n/a	test	ward_and_allport	n/a	-1.0	31.0	n/a	n/a	feedback	s629
465.484	6.168	0	PA_without_intermediate	n/a	test	ward_and_allport	n/a	-1.0	31.0	n/a	n/a	ITI	s629
471.659	3.382	1	PA_without_intermediate	0,0,0,1,2,0,0,0,0	test	ward_and_allport	3,1,0,0,0,0,2,0,0	71.0	32.0	3.382	0,0,0,1,2,3,0,0,0	to_hand	s629
475.043	1.644	0	PA_without_intermediate	3,0,0,1,2,0,0,0,0	test	ward_and_allport	3,1,0,0,0,0,2,0,0	89.0	32.0	1.644	0,0,0,1,2,3,0,0,0	to_board	s629
476.697	0.653	0	PA_without_intermediate	3,0,0,1,0,0,0,0,0	test	ward_and_allport	3,1,0,0,0,0,2,0,0	71.0	32.0	0.653	0,0,0,1,2,3,0,0,0	to_hand	s629
477.35	0.312	0	PA_without_intermediate	3,0,0,1,0,0,2,0,0	test	ward_and_allport	3,1,0,0,0,0,2,0,0	82.0	32.0	0.312	0,0,0,1,2,3,0,0,0	to_board	s629
477.673	0.419	0	PA_without_intermediate	3,0,0,0,0,0,2,0,0	test	ward_and_allport	3,1,0,0,0,0,2,0,0	71.0	32.0	0.419	0,0,0,1,2,3,0,0,0	to_hand	s629
478.093	0.468	0	PA_without_intermediate	3,1,0,0,0,0,2,0,0	test	ward_and_allport	3,1,0,0,0,0,2,0,0	89.0	32.0	0.468	0,0,0,1,2,3,0,0,0	to_board	s629
478.575	1.0	0	PA_without_intermediate	n/a	test	ward_and_allport	n/a	-1.0	32.0	n/a	n/a	feedback	s629
479.575	1.816	0	PA_without_intermediate	n/a	test	ward_and_allport	n/a	-1.0	32.0	n/a	n/a	ITI	s629
481.399	3.559	1	PA_with_intermediate	1,2,0,0,0,0,0,0,0	test	ward_and_allport	1,3,0,2,0,0,0,0,0	89.0	33.0	3.559	1,2,3,0,0,0,0,0,0	to_hand	s629
484.959	0.93	0	PA_with_intermediate	1,2,0,0,0,0,3,0,0	test	ward_and_allport	1,3,0,2,0,0,0,0,0	82.0	33.0	0.93	1,2,3,0,0,0,0,0,0	to_board	s629
485.896	0.559	0	PA_with_intermediate	1,0,0,0,0,0,3,0,0	test	ward_and_allport	1,3,0,2,0,0,0,0,0	89.0	33.0	0.559	1,2,3,0,0,0,0,0,0	to_hand	s629
486.457	0.365	0	PA_with_intermediate	1,0,0,2,0,0,3,0,0	test	ward_and_allport	1,3,0,2,0,0,0,0,0	71.0	33.0	0.365	1,2,3,0,0,0,0,0,0	to_board	s629
486.831	1.148	0	PA_with_intermediate	1,0,0,2,0,0,0,0,0	test	ward_and_allport	1,3,0,2,0,0,0,0,0	82.0	33.0	1.148	1,2,3,0,0,0,0,0,0	to_hand	s629
487.98	0.841	0	PA_with_intermediate	1,3,0,2,0,0,0,0,0	test	ward_and_allport	1,3,0,2,0,0,0,0,0	89.0	33.0	0.841	1,2,3,0,0,0,0,0,0	to_board	s629
488.834	1.0	0	PA_with_intermediate	n/a	test	ward_and_allport	n/a	-1.0	33.0	n/a	n/a	feedback	s629
489.834	1.952	0	PA_with_intermediate	n/a	test	ward_and_allport	n/a	-1.0	33.0	n/a	n/a	ITI	s629
491.797	2.101	1	PA_with_intermediate	0,0,0,0,0,0,1,2,0	test	ward_and_allport	0,0,0,2,3,0,1,0,0	82.0	34.0	2.101	0,0,0,0,0,0,1,2,3	to_hand	s629
493.898	2.182	0	PA_with_intermediate	3,0,0,0,0,0,1,2,0	test	ward_and_allport	0,0,0,2,3,0,1,0,0	89.0	34.0	2.182	0,0,0,0,0,0,1,2,3	to_board	s629
496.09	0.638	0	PA_with_intermediate	3,0,0,0,0,0,1,0,0	test	ward_and_allport	0,0,0,2,3,0,1,0,0	82.0	34.0	0.638	0,0,0,0,0,0,1,2,3	to_hand	s629
496.729	0.351	0	PA_with_intermediate	3,0,0,2,0,0,1,0,0	test	ward_and_allport	0,0,0,2,3,0,1,0,0	71.0	34.0	0.351	0,0,0,0,0,0,1,2,3	to_board	s629
497.09	0.382	0	PA_with_intermediate	0,0,0,2,0,0,1,0,0	test	ward_and_allport	0,0,0,2,3,0,1,0,0	89.0	34.0	0.382	0,0,0,0,0,0,1,2,3	to_hand	s629
497.474	0.358	0	PA_with_intermediate	0,0,0,2,3,0,1,0,0	test	ward_and_allport	0,0,0,2,3,0,1,0,0	71.0	34.0	0.358	0,0,0,0,0,0,1,2,3	to_board	s629
497.842	1.0	0	PA_with_intermediate	n/a	test	ward_and_allport	n/a	-1.0	34.0	n/a	n/a	feedback	s629
498.842	1.136	0	PA_with_intermediate	n/a	test	ward_and_allport	n/a	-1.0	34.0	n/a	n/a	ITI	s629
499.987	2.676	1	PA_without_intermediate	0,0,0,0,0,0,1,2,0	test	ward_and_allport	3,1,0,2,0,0,0,0,0	82.0	35.0	2.676	0,0,0,0,0,0,1,2,3	to_hand	s629
502.664	0.453	0	PA_without_intermediate	3,0,0,0,0,0,1,2,0	test	ward_and_allport	3,1,0,2,0,0,0,0,0	89.0	35.0	0.453	0,0,0,0,0,0,1,2,3	to_board	s629
503.125	1.182	0	PA_without_intermediate	3,0,0,0,0,0,1,0,0	test	ward_and_allport	3,1,0,2,0,0,0,0,0	82.0	35.0	1.182	0,0,0,0,0,0,1,2,3	to_hand	s629
504.308	0.39	0	PA_without_intermediate	3,0,0,2,0,0,1,0,0	test	ward_and_allport	3,1,0,2,0,0,0,0,0	71.0	35.0	0.39	0,0,0,0,0,0,1,2,3	to_board	s629
504.709	0.624	0	PA_without_intermediate	0,0,0,2,0,0,1,0,0	test	ward_and_allport	3,1,0,2,0,0,0,0,0	89.0	35.0	0.624	0,0,0,0,0,0,1,2,3	to_hand	s629
505.335	1.735	0	PA_without_intermediate	0,0,0,2,3,0,1,0,0	test	ward_and_allport	3,1,0,2,0,0,0,0,0	71.0	35.0	1.735	0,0,0,0,0,0,1,2,3	to_board	s629
507.08	0.874	0	PA_without_intermediate	0,0,0,2,0,0,1,0,0	test	ward_and_allport	3,1,0,2,0,0,0,0,0	71.0	35.0	0.874	0,0,0,0,0,0,1,2,3	to_hand	s629
507.956	1.198	0	PA_without_intermediate	3,0,0,2,0,0,1,0,0	test	ward_and_allport	3,1,0,2,0,0,0,0,0	89.0	35.0	1.198	0,0,0,0,0,0,1,2,3	to_board	s629
509.163	1.676	0	PA_without_intermediate	3,0,0,2,0,0,0,0,0	test	ward_and_allport	3,1,0,2,0,0,0,0,0	82.0	35.0	1.676	0,0,0,0,0,0,1,2,3	to_hand	s629
510.84	0.265	0	PA_without_intermediate	3,1,0,2,0,0,0,0,0	test	ward_and_allport	3,1,0,2,0,0,0,0,0	89.0	35.0	0.265	0,0,0,0,0,0,1,2,3	to_board	s629
511.117	1.0	0	PA_without_intermediate	n/a	test	ward_and_allport	n/a	-1.0	35.0	n/a	n/a	feedback	s629
512.117	1.68	0	PA_without_intermediate	n/a	test	ward_and_allport	n/a	-1.0	35.0	n/a	n/a	ITI	s629
513.808	4.171	1	PA_without_intermediate	0,0,0,1,2,0,0,0,0	test	ward_and_allport	3,2,0,0,0,0,1,0,0	71.0	36.0	4.171	0,0,0,1,2,3,0,0,0	to_hand	s629
517.979	1.238	0	PA_without_intermediate	3,0,0,1,2,0,0,0,0	test	ward_and_allport	3,2,0,0,0,0,1,0,0	89.0	36.0	1.238	0,0,0,1,2,3,0,0,0	to_board	s629
519.228	1.311	0	PA_without_intermediate	3,0,0,1,0,0,0,0,0	test	ward_and_allport	3,2,0,0,0,0,1,0,0	71.0	36.0	1.311	0,0,0,1,2,3,0,0,0	to_hand	s629
520.54	0.788	0	PA_without_intermediate	3,2,0,1,0,0,0,0,0	test	ward_and_allport	3,2,0,0,0,0,1,0,0	89.0	36.0	0.788	0,0,0,1,2,3,0,0,0	to_board	s629
521.338	1.538	0	PA_without_intermediate	3,2,0,0,0,0,0,0,0	test	ward_and_allport	3,2,0,0,0,0,1,0,0	71.0	36.0	1.538	0,0,0,1,2,3,0,0,0	to_hand	s629
522.878	1.103	0	PA_without_intermediate	3,2,0,0,0,0,1,0,0	test	ward_and_allport	3,2,0,0,0,0,1,0,0	82.0	36.0	1.103	0,0,0,1,2,3,0,0,0	to_board	s629
523.995	1.0	0	PA_without_intermediate	n/a	test	ward_and_allport	n/a	-1.0	36.0	n/a	n/a	feedback	s629
524.995	2.088	0	PA_without_intermediate	n/a	test	ward_and_allport	n/a	-1.0	36.0	n/a	n/a	ITI	s629
527.094	3.446	1	PA_with_intermediate	0,0,0,0,0,0,1,2,0	test	ward_and_allport	0,0,0,2,3,0,1,0,0	82.0	37.0	3.446	0,0,0,0,0,0,1,2,3	to_hand	s629
530.541	1.194	0	PA_with_intermediate	0,0,0,3,0,0,1,2,0	test	ward_and_allport	0,0,0,2,3,0,1,0,0	71.0	37.0	1.194	0,0,0,0,0,0,1,2,3	to_board	s629
531.744	2.099	0	PA_with_intermediate	0,0,0,0,0,0,1,2,0	test	ward_and_allport	0,0,0,2,3,0,1,0,0	71.0	37.0	2.099	0,0,0,0,0,0,1,2,3	to_hand	s629
533.844	0.481	0	PA_with_intermediate	0,0,0,3,0,0,1,2,0	test	ward_and_allport	0,0,0,2,3,0,1,0,0	71.0	37.0	0.481	0,0,0,0,0,0,1,2,3	to_board	s629
534.337	1.204	0	PA_with_intermediate	0,0,0,3,0,0,1,0,0	test	ward_and_allport	0,0,0,2,3,0,1,0,0	82.0	37.0	1.204	0,0,0,0,0,0,1,2,3	to_hand	s629
535.542	1.025	0	PA_with_intermediate	0,0,0,3,2,0,1,0,0	test	ward_and_allport	0,0,0,2,3,0,1,0,0	71.0	37.0	1.025	0,0,0,0,0,0,1,2,3	to_board	s629
536.58	2.037	0	PA_with_intermediate	0,0,0,3,0,0,1,0,0	test	ward_and_allport	0,0,0,2,3,0,1,0,0	71.0	37.0	2.037	0,0,0,0,0,0,1,2,3	to_hand	s629
538.618	0.357	0	PA_with_intermediate	2,0,0,3,0,0,1,0,0	test	ward_and_allport	0,0,0,2,3,0,1,0,0	89.0	37.0	0.357	0,0,0,0,0,0,1,2,3	to_board	s629
538.986	0.338	0	PA_with_intermediate	2,0,0,0,0,0,1,0,0	test	ward_and_allport	0,0,0,2,3,0,1,0,0	71.0	37.0	0.338	0,0,0,0,0,0,1,2,3	to_hand	s629
539.325	0.532	0	PA_with_intermediate	2,3,0,0,0,0,1,0,0	test	ward_and_allport	0,0,0,2,3,0,1,0,0	89.0	37.0	0.532	0,0,0,0,0,0,1,2,3	to_board	s629
539.868	0.936	0	PA_with_intermediate	2,3,0,0,0,0,0,0,0	test	ward_and_allport	0,0,0,2,3,0,1,0,0	82.0	37.0	0.936	0,0,0,0,0,0,1,2,3	to_hand	s629
540.805	0.806	0	PA_with_intermediate	2,3,0,0,0,0,1,0,0	test	ward_and_allport	0,0,0,2,3,0,1,0,0	82.0	37.0	0.806	0,0,0,0,0,0,1,2,3	to_board	s629
541.619	2.158	0	PA_with_intermediate	2,0,0,0,0,0,1,0,0	test	ward_and_allport	0,0,0,2,3,0,1,0,0	89.0	37.0	2.158	0,0,0,0,0,0,1,2,3	to_hand	s629
543.779	1.493	0	PA_with_intermediate	2,3,0,0,0,0,1,0,0	test	ward_and_allport	0,0,0,2,3,0,1,0,0	89.0	37.0	1.493	0,0,0,0,0,0,1,2,3	to_board	s629
545.282	1.064	0	PA_with_intermediate	2,0,0,0,0,0,1,0,0	test	ward_and_allport	0,0,0,2,3,0,1,0,0	89.0	37.0	1.064	0,0,0,0,0,0,1,2,3	to_hand	s629
546.346	0.529	0	PA_with_intermediate	2,0,0,0,0,0,1,3,0	test	ward_and_allport	0,0,0,2,3,0,1,0,0	82.0	37.0	0.529	0,0,0,0,0,0,1,2,3	to_board	s629
546.888	0.545	0	PA_with_intermediate	0,0,0,0,0,0,1,3,0	test	ward_and_allport	0,0,0,2,3,0,1,0,0	89.0	37.0	0.545	0,0,0,0,0,0,1,2,3	to_hand	s629
547.434	0.36	0	PA_with_intermediate	0,0,0,2,0,0,1,3,0	test	ward_and_allport	0,0,0,2,3,0,1,0,0	71.0	37.0	0.36	0,0,0,0,0,0,1,2,3	to_board	s629
547.803	1.072	0	PA_with_intermediate	0,0,0,2,0,0,1,0,0	test	ward_and_allport	0,0,0,2,3,0,1,0,0	82.0	37.0	1.072	0,0,0,0,0,0,1,2,3	to_hand	s629
548.877	0.374	0	PA_with_intermediate	0,0,0,2,3,0,1,0,0	test	ward_and_allport	0,0,0,2,3,0,1,0,0	71.0	37.0	0.374	0,0,0,0,0,0,1,2,3	to_board	s629
549.265	1.0	0	PA_with_intermediate	n/a	test	ward_and_allport	n/a	-1.0	37.0	n/a	n/a	feedback	s629
550.265	1.0	0	PA_with_intermediate	n/a	test	ward_and_allport	n/a	-1.0	37.0	n/a	n/a	ITI	s629
551.272	3.041	1	PA_without_intermediate	1,2,0,0,0,0,0,0,0	test	ward_and_allport	0,0,0,1,0,0,3,2,0	89.0	38.0	3.041	1,2,3,0,0,0,0,0,0	to_hand	s629
554.314	0.776	0	PA_without_intermediate	1,2,0,0,0,0,3,0,0	test	ward_and_allport	0,0,0,1,0,0,3,2,0	82.0	38.0	0.776	1,2,3,0,0,0,0,0,0	to_board	s629
555.1	1.431	0	PA_without_intermediate	1,0,0,0,0,0,3,0,0	test	ward_and_allport	0,0,0,1,0,0,3,2,0	89.0	38.0	1.431	1,2,3,0,0,0,0,0,0	to_hand	s629
556.532	0.459	0	PA_without_intermediate	1,0,0,0,0,0,3,2,0	test	ward_and_allport	0,0,0,1,0,0,3,2,0	82.0	38.0	0.459	1,2,3,0,0,0,0,0,0	to_board	s629
557.002	0.83	0	PA_without_intermediate	0,0,0,0,0,0,3,2,0	test	ward_and_allport	0,0,0,1,0,0,3,2,0	89.0	38.0	0.83	1,2,3,0,0,0,0,0,0	to_hand	s629
557.834	0.274	0	PA_without_intermediate	0,0,0,1,0,0,3,2,0	test	ward_and_allport	0,0,0,1,0,0,3,2,0	71.0	38.0	0.274	1,2,3,0,0,0,0,0,0	to_board	s629
558.118	1.0	0	PA_without_intermediate	n/a	test	ward_and_allport	n/a	-1.0	38.0	n/a	n/a	feedback	s629
559.118	1.0	0	PA_without_intermediate	n/a	test	ward_and_allport	n/a	-1.0	38.0	n/a	n/a	ITI	s629
560.128	3.276	1	PA_without_intermediate	0,0,0,1,2,0,0,0,0	test	ward_and_allport	1,0,0,0,0,0,3,2,0	71.0	39.0	3.276	0,0,0,1,2,3,0,0,0	to_hand	s629
563.405	0.874	0	PA_without_intermediate	0,0,0,1,2,0,3,0,0	test	ward_and_allport	1,0,0,0,0,0,3,2,0	82.0	39.0	0.874	0,0,0,1,2,3,0,0,0	to_board	s629
564.287	1.805	0	PA_without_intermediate	0,0,0,1,0,0,3,0,0	test	ward_and_allport	1,0,0,0,0,0,3,2,0	71.0	39.0	1.805	0,0,0,1,2,3,0,0,0	to_hand	s629
566.093	0.465	0	PA_without_intermediate	0,0,0,1,0,0,3,2,0	test	ward_and_allport	1,0,0,0,0,0,3,2,0	82.0	39.0	0.465	0,0,0,1,2,3,0,0,0	to_board	s629
566.568	1.451	0	PA_without_intermediate	0,0,0,0,0,0,3,2,0	test	ward_and_allport	1,0,0,0,0,0,3,2,0	71.0	39.0	1.451	0,0,0,1,2,3,0,0,0	to_hand	s629
568.021	0.332	0	PA_without_intermediate	1,0,0,0,0,0,3,2,0	test	ward_and_allport	1,0,0,0,0,0,3,2,0	89.0	39.0	0.332	0,0,0,1,2,3,0,0,0	to_board	s629
568.369	1.0	0	PA_without_intermediate	n/a	test	ward_and_allport	n/a	-1.0	39.0	n/a	n/a	feedback	s629
569.369	1.0	0	PA_without_intermediate	n/a	test	ward_and_allport	n/a	-1.0	39.0	n/a	n/a	ITI	s629
n/a	n/a	0	n/a	n/a	n/a	n/a	n/a	n/a	n/a	n/a	n/a	ITI	n/a
