onset	duration	condition	correct	correct_response	experiment_exp_id	key_press	response_time	stim_color	stim_word	trial_type	worker_id
3.51	1.5	congruent	1.0	82.0	stroop	82	0.563	green	green	congruent	s172
5.784	1.5	incongruent	1.0	71.0	stroop	71	0.408	blue	red	incongruent	s172
7.785	1.5	congruent	1.0	71.0	stroop	71	0.473	blue	blue	congruent	s172
10.195	1.5	congruent	1.0	82.0	stroop	82	0.545	green	green	congruent	s172
12.197	1.5	congruent	1.0	71.0	stroop	71	0.516	blue	blue	congruent	s172
14.336	1.5	congruent	1.0	82.0	stroop	82	0.562	green	green	congruent	s172
16.337	1.5	congruent	1.0	71.0	stroop	71	0.466	blue	blue	congruent	s172
18.34	1.5	incongruent	1.0	82.0	stroop	82	0.57	green	blue	incongruent	s172
20.343	1.5	congruent	1.0	89.0	stroop	89	0.384	red	red	congruent	s172
22.617	1.5	incongruent	1.0	71.0	stroop	71	0.446	blue	red	incongruent	s172
24.619	1.5	incongruent	1.0	82.0	stroop	82	0.562	green	red	incongruent	s172
26.894	1.5	incongruent	1.0	82.0	stroop	82	0.645	green	blue	incongruent	s172
29.168	1.5	incongruent	1.0	71.0	stroop	71	0.657	blue	red	incongruent	s172
31.17	1.5	congruent	1.0	71.0	stroop	71	0.514	blue	blue	congruent	s172
33.853	1.5	incongruent	1.0	82.0	stroop	82	0.631	green	red	incongruent	s172
35.855	1.5	congruent	1.0	82.0	stroop	82	0.46	green	green	congruent	s172
38.129	1.5	congruent	1.0	89.0	stroop	89	0.425	red	red	congruent	s172
40.131	1.5	congruent	1.0	71.0	stroop	71	0.536	blue	blue	congruent	s172
42.134	1.5	incongruent	1.0	89.0	stroop	89	0.389	red	green	incongruent	s172
44.408	1.5	congruent	1.0	71.0	stroop	71	0.402	blue	blue	congruent	s172
46.545	1.5	congruent	1.0	82.0	stroop	82	0.417	green	green	congruent	s172
49.092	1.5	incongruent	1.0	89.0	stroop	89	0.554	red	blue	incongruent	s172
51.501	1.5	incongruent	1.0	89.0	stroop	89	0.435	red	green	incongruent	s172
53.503	1.5	incongruent	1.0	89.0	stroop	89	0.689	red	green	incongruent	s172
55.506	1.5	incongruent	1.0	82.0	stroop	82	0.577	green	red	incongruent	s172
57.508	1.5	congruent	1.0	89.0	stroop	89	0.539	red	red	congruent	s172
60.053	1.5	congruent	1.0	71.0	stroop	71	0.446	blue	blue	congruent	s172
62.192	1.5	congruent	1.0	89.0	stroop	89	0.518	red	red	congruent	s172
64.194	1.5	congruent	1.0	71.0	stroop	71	0.551	blue	blue	congruent	s172
66.197	1.5	congruent	1.0	89.0	stroop	89	0.584	red	red	congruent	s172
68.471	1.5	incongruent	1.0	71.0	stroop	71	0.528	blue	green	incongruent	s172
70.474	1.5	congruent	1.0	89.0	stroop	89	0.482	red	red	congruent	s172
72.475	1.5	incongruent	1.0	71.0	stroop	71	0.637	blue	green	incongruent	s172
74.613	1.5	incongruent	1.0	71.0	stroop	71	0.481	blue	green	incongruent	s172
76.616	1.5	incongruent	1.0	82.0	stroop	82	0.583	green	red	incongruent	s172
78.891	1.5	congruent	1.0	82.0	stroop	82	0.63	green	green	congruent	s172
81.03	1.5	incongruent	0.0	89.0	stroop	71	0.856	red	blue	incongruent	s172
83.44	1.5	congruent	1.0	82.0	stroop	82	0.667	green	green	congruent	s172
85.442	1.5	congruent	1.0	89.0	stroop	89	0.412	red	red	congruent	s172
87.443	1.5	incongruent	1.0	89.0	stroop	89	0.468	red	green	incongruent	s172
90.261	1.5	incongruent	1.0	71.0	stroop	71	0.442	blue	red	incongruent	s172
92.264	1.5	incongruent	1.0	82.0	stroop	82	0.715	green	red	incongruent	s172
94.266	1.5	congruent	1.0	71.0	stroop	71	0.742	blue	blue	congruent	s172
96.404	1.5	congruent	1.0	82.0	stroop	82	0.648	green	green	congruent	s172
98.406	1.5	incongruent	1.0	82.0	stroop	82	1.046	green	blue	incongruent	s172
100.408	1.5	congruent	1.0	82.0	stroop	82	0.729	green	green	congruent	s172
102.411	1.5	incongruent	1.0	89.0	stroop	89	0.572	red	blue	incongruent	s172
104.413	1.5	congruent	1.0	82.0	stroop	82	0.703	green	green	congruent	s172
106.415	1.5	incongruent	1.0	89.0	stroop	89	0.552	red	blue	incongruent	s172
108.416	1.5	congruent	1.0	89.0	stroop	89	0.444	red	red	congruent	s172
110.419	1.5	incongruent	1.0	89.0	stroop	89	0.952	red	blue	incongruent	s172
112.692	1.5	incongruent	1.0	82.0	stroop	82	0.832	green	blue	incongruent	s172
114.695	1.5	congruent	1.0	82.0	stroop	82	0.675	green	green	congruent	s172
116.833	1.5	congruent	1.0	71.0	stroop	71	0.768	blue	blue	congruent	s172
118.836	1.5	congruent	1.0	89.0	stroop	89	0.465	red	red	congruent	s172
120.974	1.5	congruent	1.0	89.0	stroop	89	0.49	red	red	congruent	s172
122.976	1.5	congruent	1.0	89.0	stroop	89	0.558	red	red	congruent	s172
124.979	1.5	incongruent	1.0	89.0	stroop	89	0.759	red	blue	incongruent	s172
126.981	1.5	incongruent	1.0	71.0	stroop	71	0.537	blue	red	incongruent	s172
129.255	1.5	incongruent	1.0	89.0	stroop	89	0.682	red	blue	incongruent	s172
131.257	1.5	incongruent	1.0	82.0	stroop	82	0.639	green	blue	incongruent	s172
133.395	1.5	congruent	1.0	82.0	stroop	82	0.528	green	green	congruent	s172
135.806	1.5	incongruent	1.0	89.0	stroop	89	0.675	red	green	incongruent	s172
138.079	1.5	congruent	1.0	89.0	stroop	89	0.408	red	red	congruent	s172
140.761	1.5	congruent	1.0	82.0	stroop	82	0.716	green	green	congruent	s172
142.763	1.5	congruent	1.0	71.0	stroop	71	0.69	blue	blue	congruent	s172
145.173	1.5	congruent	1.0	71.0	stroop	71	0.526	blue	blue	congruent	s172
147.312	1.5	incongruent	1.0	71.0	stroop	71	0.767	blue	green	incongruent	s172
149.995	1.5	incongruent	1.0	82.0	stroop	82	0.597	green	blue	incongruent	s172
151.997	1.5	incongruent	1.0	89.0	stroop	89	0.781	red	green	incongruent	s172
154.135	1.5	congruent	1.0	82.0	stroop	82	0.616	green	green	congruent	s172
157.09	1.5	incongruent	1.0	71.0	stroop	71	0.659	blue	red	incongruent	s172
159.091	1.5	incongruent	1.0	71.0	stroop	71	0.774	blue	green	incongruent	s172
161.366	1.5	incongruent	1.0	89.0	stroop	89	0.798	red	green	incongruent	s172
163.368	1.5	congruent	1.0	89.0	stroop	89	0.692	red	red	congruent	s172
165.369	1.5	congruent	1.0	89.0	stroop	89	0.462	red	red	congruent	s172
167.371	1.5	incongruent	1.0	71.0	stroop	71	0.764	blue	green	incongruent	s172
169.373	1.5	congruent	1.0	71.0	stroop	71	0.408	blue	blue	congruent	s172
171.512	1.5	congruent	1.0	89.0	stroop	89	0.571	red	red	congruent	s172
173.514	1.5	incongruent	1.0	82.0	stroop	82	0.692	green	blue	incongruent	s172
175.516	1.5	congruent	1.0	82.0	stroop	82	0.475	green	green	congruent	s172
177.654	1.5	incongruent	1.0	71.0	stroop	71	0.588	blue	red	incongruent	s172
179.656	1.5	incongruent	1.0	71.0	stroop	71	0.618	blue	green	incongruent	s172
181.659	1.5	incongruent	1.0	82.0	stroop	82	0.617	green	red	incongruent	s172
183.796	1.5	congruent	1.0	71.0	stroop	71	0.675	blue	blue	congruent	s172
185.934	1.5	congruent	1.0	71.0	stroop	71	0.531	blue	blue	congruent	s172
188.208	1.5	incongruent	1.0	71.0	stroop	71	0.86	blue	green	incongruent	s172
190.89	1.5	congruent	1.0	82.0	stroop	82	0.519	green	green	congruent	s172
192.892	1.5	congruent	1.0	71.0	stroop	71	0.835	blue	blue	congruent	s172
194.895	1.5	incongruent	1.0	71.0	stroop	71	0.669	blue	red	incongruent	s172
197.169	1.5	incongruent	1.0	89.0	stroop	89	0.42	red	green	incongruent	s172
199.171	1.5	congruent	1.0	89.0	stroop	89	0.525	red	red	congruent	s172
201.173	1.5	incongruent	1.0	82.0	stroop	82	0.624	green	red	incongruent	s172
203.175	1.5	incongruent	1.0	82.0	stroop	82	0.661	green	blue	incongruent	s172
205.177	1.5	incongruent	1.0	82.0	stroop	82	0.563	green	red	incongruent	s172
207.179	1.5	incongruent	1.0	89.0	stroop	89	0.596	red	blue	incongruent	s172
