onset	duration	condition	correct	correct_response	experiment_exp_id	key_press	response_time	trial_id	trial_type	worker_id
3.008	0.5	AX	n/a	n/a	dot_pattern_expectancy	-1.0	n/a	cue	AX	s172
5.512	0.5	AX	1.0	89.0	dot_pattern_expectancy	89.0	0.395	probe	AX	s172
7.695	0.5	AY	n/a	n/a	dot_pattern_expectancy	-1.0	n/a	cue	AY	s172
10.198	0.5	AY	0.0	71.0	dot_pattern_expectancy	89.0	0.465	probe	AY	s172
12.517	0.5	AY	n/a	n/a	dot_pattern_expectancy	-1.0	n/a	cue	AY	s172
15.021	0.5	AY	1.0	71.0	dot_pattern_expectancy	71.0	1.064	probe	AY	s172
16.66	0.5	BX	n/a	n/a	dot_pattern_expectancy	-1.0	n/a	cue	BX	s172
19.163	0.5	BX	1.0	71.0	dot_pattern_expectancy	71.0	0.344	probe	BX	s172
21.073	0.5	AX	n/a	n/a	dot_pattern_expectancy	-1.0	n/a	cue	AX	s172
23.577	0.5	AX	1.0	89.0	dot_pattern_expectancy	89.0	0.338	probe	AX	s172
27.121	0.5	BX	n/a	n/a	dot_pattern_expectancy	-1.0	n/a	cue	BX	s172
29.625	0.5	BX	1.0	71.0	dot_pattern_expectancy	71.0	0.282	probe	BX	s172
31.263	0.5	BY	n/a	n/a	dot_pattern_expectancy	-1.0	n/a	cue	BY	s172
33.767	0.5	BY	1.0	71.0	dot_pattern_expectancy	71.0	0.359	probe	BY	s172
35.269	0.5	AX	n/a	n/a	dot_pattern_expectancy	-1.0	n/a	cue	AX	s172
37.773	0.5	AX	1.0	89.0	dot_pattern_expectancy	89.0	0.419	probe	AX	s172
39.276	0.5	AX	n/a	n/a	dot_pattern_expectancy	-1.0	n/a	cue	AX	s172
41.781	0.5	AX	1.0	89.0	dot_pattern_expectancy	89.0	0.374	probe	AX	s172
43.556	0.5	BY	n/a	n/a	dot_pattern_expectancy	-1.0	n/a	cue	BY	s172
46.06	0.5	BY	1.0	71.0	dot_pattern_expectancy	71.0	0.272	probe	BY	s172
48.515	0.5	AX	n/a	n/a	dot_pattern_expectancy	-1.0	n/a	cue	AX	s172
51.019	0.5	AX	1.0	89.0	dot_pattern_expectancy	89.0	0.405	probe	AX	s172
52.93	0.5	BX	n/a	n/a	dot_pattern_expectancy	-1.0	n/a	cue	BX	s172
55.434	0.5	BX	1.0	71.0	dot_pattern_expectancy	71.0	0.302	probe	BX	s172
57.072	0.5	AX	n/a	n/a	dot_pattern_expectancy	-1.0	n/a	cue	AX	s172
59.576	0.5	AX	1.0	89.0	dot_pattern_expectancy	89.0	0.482	probe	AX	s172
61.079	0.5	AX	n/a	n/a	dot_pattern_expectancy	-1.0	n/a	cue	AX	s172
63.584	0.5	AX	1.0	89.0	dot_pattern_expectancy	89.0	0.455	probe	AX	s172
65.222	0.5	AX	n/a	n/a	dot_pattern_expectancy	-1.0	n/a	cue	AX	s172
67.725	0.5	AX	1.0	89.0	dot_pattern_expectancy	89.0	0.43	probe	AX	s172
69.362	0.5	BY	n/a	n/a	dot_pattern_expectancy	-1.0	n/a	cue	BY	s172
71.867	0.5	BY	1.0	71.0	dot_pattern_expectancy	71.0	0.243	probe	BY	s172
74.32	0.5	AX	n/a	n/a	dot_pattern_expectancy	-1.0	n/a	cue	AX	s172
76.825	0.5	AX	1.0	89.0	dot_pattern_expectancy	89.0	0.444	probe	AX	s172
78.327	0.5	BY	n/a	n/a	dot_pattern_expectancy	-1.0	n/a	cue	BY	s172
80.832	0.5	BY	1.0	71.0	dot_pattern_expectancy	71.0	0.249	probe	BY	s172
82.333	0.5	AX	n/a	n/a	dot_pattern_expectancy	-1.0	n/a	cue	AX	s172
84.837	0.5	AX	1.0	89.0	dot_pattern_expectancy	89.0	0.399	probe	AX	s172
86.476	0.5	AX	n/a	n/a	dot_pattern_expectancy	-1.0	n/a	cue	AX	s172
88.979	0.5	AX	1.0	89.0	dot_pattern_expectancy	89.0	0.457	probe	AX	s172
90.616	0.5	AY	n/a	n/a	dot_pattern_expectancy	-1.0	n/a	cue	AY	s172
93.12	0.5	AY	1.0	71.0	dot_pattern_expectancy	71.0	0.516	probe	AY	s172
94.758	0.5	AX	n/a	n/a	dot_pattern_expectancy	-1.0	n/a	cue	AX	s172
97.261	0.5	AX	1.0	89.0	dot_pattern_expectancy	89.0	0.403	probe	AX	s172
98.764	0.5	AX	n/a	n/a	dot_pattern_expectancy	-1.0	n/a	cue	AX	s172
101.27	0.5	AX	1.0	89.0	dot_pattern_expectancy	89.0	0.464	probe	AX	s172
102.771	0.5	AX	n/a	n/a	dot_pattern_expectancy	-1.0	n/a	cue	AX	s172
105.275	0.5	AX	1.0	89.0	dot_pattern_expectancy	89.0	0.423	probe	AX	s172
107.049	0.5	AX	n/a	n/a	dot_pattern_expectancy	-1.0	n/a	cue	AX	s172
109.554	0.5	AX	1.0	89.0	dot_pattern_expectancy	89.0	0.474	probe	AX	s172
111.736	0.5	BX	n/a	n/a	dot_pattern_expectancy	-1.0	n/a	cue	BX	s172
114.241	0.5	BX	1.0	71.0	dot_pattern_expectancy	71.0	0.313	probe	BX	s172
116.015	0.5	BY	n/a	n/a	dot_pattern_expectancy	-1.0	n/a	cue	BY	s172
118.518	0.5	BY	1.0	71.0	dot_pattern_expectancy	71.0	0.37	probe	BY	s172
120.02	0.5	AX	n/a	n/a	dot_pattern_expectancy	-1.0	n/a	cue	AX	s172
122.524	0.5	AX	1.0	89.0	dot_pattern_expectancy	89.0	0.455	probe	AX	s172
124.025	0.5	AX	n/a	n/a	dot_pattern_expectancy	-1.0	n/a	cue	AX	s172
126.529	0.5	AX	1.0	89.0	dot_pattern_expectancy	89.0	0.455	probe	AX	s172
128.168	0.5	AY	n/a	n/a	dot_pattern_expectancy	-1.0	n/a	cue	AY	s172
130.671	0.5	AY	1.0	71.0	dot_pattern_expectancy	71.0	0.666	probe	AY	s172
132.852	0.5	AY	n/a	n/a	dot_pattern_expectancy	-1.0	n/a	cue	AY	s172
135.356	0.5	AY	1.0	71.0	dot_pattern_expectancy	71.0	0.61	probe	AY	s172
137.674	0.5	BX	n/a	n/a	dot_pattern_expectancy	-1.0	n/a	cue	BX	s172
140.178	0.5	BX	1.0	71.0	dot_pattern_expectancy	71.0	0.259	probe	BX	s172
141.816	0.5	BX	n/a	n/a	dot_pattern_expectancy	-1.0	n/a	cue	BX	s172
144.319	0.5	BX	1.0	71.0	dot_pattern_expectancy	71.0	0.254	probe	BX	s172
146.5	0.5	AY	n/a	n/a	dot_pattern_expectancy	-1.0	n/a	cue	AY	s172
149.004	0.5	AY	1.0	71.0	dot_pattern_expectancy	71.0	0.527	probe	AY	s172
151.05	0.5	AX	n/a	n/a	dot_pattern_expectancy	-1.0	n/a	cue	AX	s172
153.554	0.5	AX	1.0	89.0	dot_pattern_expectancy	89.0	0.38	probe	AX	s172
155.327	0.5	AX	n/a	n/a	dot_pattern_expectancy	-1.0	n/a	cue	AX	s172
157.831	0.5	AX	1.0	89.0	dot_pattern_expectancy	89.0	0.42	probe	AX	s172
159.333	0.5	AX	n/a	n/a	dot_pattern_expectancy	-1.0	n/a	cue	AX	s172
161.837	0.5	AX	1.0	89.0	dot_pattern_expectancy	89.0	0.409	probe	AX	s172
164.02	0.5	AY	n/a	n/a	dot_pattern_expectancy	-1.0	n/a	cue	AY	s172
166.525	0.5	AY	1.0	71.0	dot_pattern_expectancy	71.0	0.476	probe	AY	s172
168.979	0.5	AX	n/a	n/a	dot_pattern_expectancy	-1.0	n/a	cue	AX	s172
171.482	0.5	AX	1.0	89.0	dot_pattern_expectancy	89.0	0.564	probe	AX	s172
173.12	0.5	AX	n/a	n/a	dot_pattern_expectancy	-1.0	n/a	cue	AX	s172
175.624	0.5	AX	1.0	89.0	dot_pattern_expectancy	89.0	0.368	probe	AX	s172
188.042	0.5	AX	n/a	n/a	dot_pattern_expectancy	-1.0	n/a	cue	AX	s172
190.547	0.5	AX	1.0	89.0	dot_pattern_expectancy	89.0	0.384	probe	AX	s172
192.32	0.5	AX	n/a	n/a	dot_pattern_expectancy	-1.0	n/a	cue	AX	s172
194.824	0.5	AX	1.0	89.0	dot_pattern_expectancy	89.0	0.439	probe	AX	s172
196.326	0.5	AY	n/a	n/a	dot_pattern_expectancy	-1.0	n/a	cue	AY	s172
198.829	0.5	AY	1.0	71.0	dot_pattern_expectancy	71.0	0.475	probe	AY	s172
201.284	0.5	AY	n/a	n/a	dot_pattern_expectancy	-1.0	n/a	cue	AY	s172
203.788	0.5	AY	1.0	71.0	dot_pattern_expectancy	71.0	0.824	probe	AY	s172
205.562	0.5	AX	n/a	n/a	dot_pattern_expectancy	-1.0	n/a	cue	AX	s172
208.065	0.5	AX	1.0	89.0	dot_pattern_expectancy	89.0	0.352	probe	AX	s172
209.974	0.5	AX	n/a	n/a	dot_pattern_expectancy	-1.0	n/a	cue	AX	s172
212.479	0.5	AX	0.0	89.0	dot_pattern_expectancy	71.0	0.452	probe	AX	s172
214.389	0.5	AX	n/a	n/a	dot_pattern_expectancy	-1.0	n/a	cue	AX	s172
216.894	0.5	AX	1.0	89.0	dot_pattern_expectancy	89.0	0.532	probe	AX	s172
219.484	0.5	AY	n/a	n/a	dot_pattern_expectancy	-1.0	n/a	cue	AY	s172
221.988	0.5	AY	1.0	71.0	dot_pattern_expectancy	71.0	0.446	probe	AY	s172
223.49	0.5	BY	n/a	n/a	dot_pattern_expectancy	-1.0	n/a	cue	BY	s172
225.993	0.5	BY	1.0	71.0	dot_pattern_expectancy	71.0	0.285	probe	BY	s172
227.495	0.5	BY	n/a	n/a	dot_pattern_expectancy	-1.0	n/a	cue	BY	s172
229.999	0.5	BY	1.0	71.0	dot_pattern_expectancy	71.0	0.296	probe	BY	s172
231.5	0.5	AX	n/a	n/a	dot_pattern_expectancy	-1.0	n/a	cue	AX	s172
234.004	0.5	AX	1.0	89.0	dot_pattern_expectancy	89.0	0.34	probe	AX	s172
235.643	0.5	BX	n/a	n/a	dot_pattern_expectancy	-1.0	n/a	cue	BX	s172
238.146	0.5	BX	1.0	71.0	dot_pattern_expectancy	71.0	0.328	probe	BX	s172
240.193	0.5	AX	n/a	n/a	dot_pattern_expectancy	-1.0	n/a	cue	AX	s172
242.697	0.5	AX	1.0	89.0	dot_pattern_expectancy	89.0	0.381	probe	AX	s172
244.471	0.5	BX	n/a	n/a	dot_pattern_expectancy	-1.0	n/a	cue	BX	s172
246.975	0.5	BX	1.0	71.0	dot_pattern_expectancy	71.0	0.283	probe	BX	s172
249.565	0.5	AY	n/a	n/a	dot_pattern_expectancy	-1.0	n/a	cue	AY	s172
252.069	0.5	AY	1.0	71.0	dot_pattern_expectancy	71.0	0.711	probe	AY	s172
253.57	0.5	AX	n/a	n/a	dot_pattern_expectancy	-1.0	n/a	cue	AX	s172
256.074	0.5	AX	1.0	89.0	dot_pattern_expectancy	89.0	0.444	probe	AX	s172
258.529	0.5	BY	n/a	n/a	dot_pattern_expectancy	-1.0	n/a	cue	BY	s172
261.032	0.5	BY	1.0	71.0	dot_pattern_expectancy	71.0	0.256	probe	BY	s172
262.669	0.5	AX	n/a	n/a	dot_pattern_expectancy	-1.0	n/a	cue	AX	s172
265.174	0.5	AX	1.0	89.0	dot_pattern_expectancy	89.0	0.449	probe	AX	s172
266.812	0.5	AX	n/a	n/a	dot_pattern_expectancy	-1.0	n/a	cue	AX	s172
269.316	0.5	AX	1.0	89.0	dot_pattern_expectancy	89.0	0.539	probe	AX	s172
270.817	0.5	BY	n/a	n/a	dot_pattern_expectancy	-1.0	n/a	cue	BY	s172
273.32	0.5	BY	1.0	71.0	dot_pattern_expectancy	71.0	0.607	probe	BY	s172
274.958	0.5	AX	n/a	n/a	dot_pattern_expectancy	-1.0	n/a	cue	AX	s172
277.462	0.5	AX	1.0	89.0	dot_pattern_expectancy	89.0	0.353	probe	AX	s172
278.963	0.5	AY	n/a	n/a	dot_pattern_expectancy	-1.0	n/a	cue	AY	s172
281.467	0.5	AY	1.0	71.0	dot_pattern_expectancy	71.0	0.624	probe	AY	s172
283.65	0.5	AX	n/a	n/a	dot_pattern_expectancy	-1.0	n/a	cue	AX	s172
286.153	0.5	AX	1.0	89.0	dot_pattern_expectancy	89.0	0.416	probe	AX	s172
287.656	0.5	AX	n/a	n/a	dot_pattern_expectancy	-1.0	n/a	cue	AX	s172
290.161	0.5	AX	1.0	89.0	dot_pattern_expectancy	89.0	0.393	probe	AX	s172
292.071	0.5	BY	n/a	n/a	dot_pattern_expectancy	-1.0	n/a	cue	BY	s172
294.574	0.5	BY	1.0	71.0	dot_pattern_expectancy	71.0	0.278	probe	BY	s172
296.212	0.5	BY	n/a	n/a	dot_pattern_expectancy	-1.0	n/a	cue	BY	s172
298.716	0.5	BY	1.0	71.0	dot_pattern_expectancy	71.0	0.456	probe	BY	s172
300.355	0.5	AX	n/a	n/a	dot_pattern_expectancy	-1.0	n/a	cue	AX	s172
302.86	0.5	AX	1.0	89.0	dot_pattern_expectancy	89.0	0.387	probe	AX	s172
304.498	0.5	AX	n/a	n/a	dot_pattern_expectancy	-1.0	n/a	cue	AX	s172
307.002	0.5	AX	1.0	89.0	dot_pattern_expectancy	89.0	0.428	probe	AX	s172
308.505	0.5	BY	n/a	n/a	dot_pattern_expectancy	-1.0	n/a	cue	BY	s172
311.009	0.5	BY	1.0	71.0	dot_pattern_expectancy	71.0	0.047	probe	BY	s172
313.055	0.5	AY	n/a	n/a	dot_pattern_expectancy	-1.0	n/a	cue	AY	s172
315.559	0.5	AY	1.0	71.0	dot_pattern_expectancy	71.0	0.458	probe	AY	s172
317.74	0.5	AY	n/a	n/a	dot_pattern_expectancy	-1.0	n/a	cue	AY	s172
320.244	0.5	AY	1.0	71.0	dot_pattern_expectancy	71.0	0.578	probe	AY	s172
321.882	0.5	AY	n/a	n/a	dot_pattern_expectancy	-1.0	n/a	cue	AY	s172
324.386	0.5	AY	1.0	71.0	dot_pattern_expectancy	71.0	0.506	probe	AY	s172
326.159	0.5	BY	n/a	n/a	dot_pattern_expectancy	-1.0	n/a	cue	BY	s172
328.663	0.5	BY	1.0	71.0	dot_pattern_expectancy	71.0	0.422	probe	BY	s172
330.165	0.5	BX	n/a	n/a	dot_pattern_expectancy	-1.0	n/a	cue	BX	s172
332.669	0.5	BX	1.0	71.0	dot_pattern_expectancy	71.0	0.276	probe	BX	s172
334.579	0.5	AX	n/a	n/a	dot_pattern_expectancy	-1.0	n/a	cue	AX	s172
337.083	0.5	AX	1.0	89.0	dot_pattern_expectancy	89.0	0.412	probe	AX	s172
339.13	0.5	AX	n/a	n/a	dot_pattern_expectancy	-1.0	n/a	cue	AX	s172
341.634	0.5	AX	1.0	89.0	dot_pattern_expectancy	89.0	0.386	probe	AX	s172
343.272	0.5	AX	n/a	n/a	dot_pattern_expectancy	-1.0	n/a	cue	AX	s172
345.776	0.5	AX	1.0	89.0	dot_pattern_expectancy	89.0	0.533	probe	AX	s172
347.552	0.5	AX	n/a	n/a	dot_pattern_expectancy	-1.0	n/a	cue	AX	s172
350.057	0.5	AX	0.0	89.0	dot_pattern_expectancy	71.0	0.527	probe	AX	s172
351.695	0.5	BX	n/a	n/a	dot_pattern_expectancy	-1.0	n/a	cue	BX	s172
354.2	0.5	BX	1.0	71.0	dot_pattern_expectancy	71.0	0.483	probe	BX	s172
355.973	0.5	AX	n/a	n/a	dot_pattern_expectancy	-1.0	n/a	cue	AX	s172
358.477	0.5	AX	1.0	89.0	dot_pattern_expectancy	89.0	0.369	probe	AX	s172
370.488	0.5	BY	n/a	n/a	dot_pattern_expectancy	-1.0	n/a	cue	BY	s172
372.992	0.5	BY	1.0	71.0	dot_pattern_expectancy	71.0	0.36	probe	BY	s172
374.63	0.5	AY	n/a	n/a	dot_pattern_expectancy	-1.0	n/a	cue	AY	s172
377.134	0.5	AY	1.0	71.0	dot_pattern_expectancy	71.0	0.472	probe	AY	s172
378.635	0.5	AX	n/a	n/a	dot_pattern_expectancy	-1.0	n/a	cue	AX	s172
381.139	0.5	AX	1.0	89.0	dot_pattern_expectancy	89.0	0.409	probe	AX	s172
383.185	0.5	BY	n/a	n/a	dot_pattern_expectancy	-1.0	n/a	cue	BY	s172
385.689	0.5	BY	1.0	71.0	dot_pattern_expectancy	71.0	0.339	probe	BY	s172
387.462	0.5	BX	n/a	n/a	dot_pattern_expectancy	-1.0	n/a	cue	BX	s172
389.966	0.5	BX	1.0	71.0	dot_pattern_expectancy	71.0	0.444	probe	BX	s172
391.605	0.5	AX	n/a	n/a	dot_pattern_expectancy	-1.0	n/a	cue	AX	s172
394.108	0.5	AX	1.0	89.0	dot_pattern_expectancy	89.0	0.301	probe	AX	s172
395.745	0.5	AX	n/a	n/a	dot_pattern_expectancy	-1.0	n/a	cue	AX	s172
398.249	0.5	AX	1.0	89.0	dot_pattern_expectancy	89.0	0.365	probe	AX	s172
399.751	0.5	AX	n/a	n/a	dot_pattern_expectancy	-1.0	n/a	cue	AX	s172
402.255	0.5	AX	1.0	89.0	dot_pattern_expectancy	89.0	0.515	probe	AX	s172
403.756	0.5	AY	n/a	n/a	dot_pattern_expectancy	-1.0	n/a	cue	AY	s172
406.259	0.5	AY	1.0	71.0	dot_pattern_expectancy	71.0	0.585	probe	AY	s172
408.306	0.5	AX	n/a	n/a	dot_pattern_expectancy	-1.0	n/a	cue	AX	s172
410.81	0.5	AX	1.0	89.0	dot_pattern_expectancy	89.0	0.47	probe	AX	s172
413.265	0.5	AX	n/a	n/a	dot_pattern_expectancy	-1.0	n/a	cue	AX	s172
415.769	0.5	AX	1.0	89.0	dot_pattern_expectancy	89.0	0.426	probe	AX	s172
417.68	0.5	AX	n/a	n/a	dot_pattern_expectancy	-1.0	n/a	cue	AX	s172
420.184	0.5	AX	1.0	89.0	dot_pattern_expectancy	89.0	0.457	probe	AX	s172
421.686	0.5	AX	n/a	n/a	dot_pattern_expectancy	-1.0	n/a	cue	AX	s172
424.19	0.5	AX	1.0	89.0	dot_pattern_expectancy	89.0	0.465	probe	AX	s172
426.101	0.5	BX	n/a	n/a	dot_pattern_expectancy	-1.0	n/a	cue	BX	s172
428.604	0.5	BX	1.0	71.0	dot_pattern_expectancy	71.0	0.329	probe	BX	s172
430.786	0.5	AX	n/a	n/a	dot_pattern_expectancy	-1.0	n/a	cue	AX	s172
433.29	0.5	AX	1.0	89.0	dot_pattern_expectancy	89.0	0.479	probe	AX	s172
434.792	0.5	BY	n/a	n/a	dot_pattern_expectancy	-1.0	n/a	cue	BY	s172
437.296	0.5	BY	1.0	71.0	dot_pattern_expectancy	71.0	0.307	probe	BY	s172
439.207	0.5	BX	n/a	n/a	dot_pattern_expectancy	-1.0	n/a	cue	BX	s172
441.712	0.5	BX	1.0	71.0	dot_pattern_expectancy	71.0	0.298	probe	BX	s172
444.029	0.5	AY	n/a	n/a	dot_pattern_expectancy	-1.0	n/a	cue	AY	s172
446.533	0.5	AY	1.0	71.0	dot_pattern_expectancy	71.0	0.641	probe	AY	s172
448.851	0.5	BX	n/a	n/a	dot_pattern_expectancy	-1.0	n/a	cue	BX	s172
451.355	0.5	BX	1.0	71.0	dot_pattern_expectancy	71.0	0.296	probe	BX	s172
452.994	0.5	AY	n/a	n/a	dot_pattern_expectancy	-1.0	n/a	cue	AY	s172
455.499	0.5	AY	1.0	71.0	dot_pattern_expectancy	71.0	0.456	probe	AY	s172
457.001	0.5	BY	n/a	n/a	dot_pattern_expectancy	-1.0	n/a	cue	BY	s172
459.505	0.5	BY	1.0	71.0	dot_pattern_expectancy	71.0	0.299	probe	BY	s172
461.416	0.5	AX	n/a	n/a	dot_pattern_expectancy	-1.0	n/a	cue	AX	s172
463.92	0.5	AX	1.0	89.0	dot_pattern_expectancy	89.0	0.323	probe	AX	s172
465.422	0.5	AY	n/a	n/a	dot_pattern_expectancy	-1.0	n/a	cue	AY	s172
467.926	0.5	AY	1.0	71.0	dot_pattern_expectancy	71.0	0.568	probe	AY	s172
470.244	0.5	AX	n/a	n/a	dot_pattern_expectancy	-1.0	n/a	cue	AX	s172
472.747	0.5	AX	1.0	89.0	dot_pattern_expectancy	89.0	0.379	probe	AX	s172
474.249	0.5	AY	n/a	n/a	dot_pattern_expectancy	-1.0	n/a	cue	AY	s172
476.752	0.5	AY	1.0	71.0	dot_pattern_expectancy	71.0	0.576	probe	AY	s172
479.479	0.5	AX	n/a	n/a	dot_pattern_expectancy	-1.0	n/a	cue	AX	s172
481.983	0.5	AX	1.0	89.0	dot_pattern_expectancy	89.0	0.619	probe	AX	s172
483.486	0.5	AX	n/a	n/a	dot_pattern_expectancy	-1.0	n/a	cue	AX	s172
485.99	0.5	AX	1.0	89.0	dot_pattern_expectancy	89.0	0.382	probe	AX	s172
487.629	0.5	AX	n/a	n/a	dot_pattern_expectancy	-1.0	n/a	cue	AX	s172
490.132	0.5	AX	1.0	89.0	dot_pattern_expectancy	89.0	0.356	probe	AX	s172
491.769	0.5	AX	n/a	n/a	dot_pattern_expectancy	-1.0	n/a	cue	AX	s172
494.274	0.5	AX	1.0	89.0	dot_pattern_expectancy	89.0	0.403	probe	AX	s172
496.047	0.5	BY	n/a	n/a	dot_pattern_expectancy	-1.0	n/a	cue	BY	s172
498.551	0.5	BY	1.0	71.0	dot_pattern_expectancy	71.0	0.385	probe	BY	s172
500.324	0.5	AX	n/a	n/a	dot_pattern_expectancy	-1.0	n/a	cue	AX	s172
502.828	0.5	AX	1.0	89.0	dot_pattern_expectancy	89.0	0.358	probe	AX	s172
504.33	0.5	BY	n/a	n/a	dot_pattern_expectancy	-1.0	n/a	cue	BY	s172
506.834	0.5	BY	1.0	71.0	dot_pattern_expectancy	71.0	0.375	probe	BY	s172
509.289	0.5	AX	n/a	n/a	dot_pattern_expectancy	-1.0	n/a	cue	AX	s172
511.794	0.5	AX	1.0	89.0	dot_pattern_expectancy	89.0	0.375	probe	AX	s172
513.432	0.5	AX	n/a	n/a	dot_pattern_expectancy	-1.0	n/a	cue	AX	s172
515.935	0.5	AX	1.0	89.0	dot_pattern_expectancy	89.0	0.412	probe	AX	s172
517.573	0.5	BX	n/a	n/a	dot_pattern_expectancy	-1.0	n/a	cue	BX	s172
520.077	0.5	BX	1.0	71.0	dot_pattern_expectancy	71.0	0.307	probe	BX	s172
521.578	0.5	BX	n/a	n/a	dot_pattern_expectancy	-1.0	n/a	cue	BX	s172
524.082	0.5	BX	1.0	71.0	dot_pattern_expectancy	71.0	0.355	probe	BX	s172
525.584	0.5	AX	n/a	n/a	dot_pattern_expectancy	-1.0	n/a	cue	AX	s172
528.088	0.5	AX	1.0	89.0	dot_pattern_expectancy	89.0	0.508	probe	AX	s172
530.405	0.5	AY	n/a	n/a	dot_pattern_expectancy	-1.0	n/a	cue	AY	s172
532.909	0.5	AY	1.0	71.0	dot_pattern_expectancy	71.0	0.472	probe	AY	s172
534.955	0.5	AX	n/a	n/a	dot_pattern_expectancy	-1.0	n/a	cue	AX	s172
537.459	0.5	AX	1.0	89.0	dot_pattern_expectancy	89.0	0.473	probe	AX	s172
541.41	0.5	AX	n/a	n/a	dot_pattern_expectancy	-1.0	n/a	cue	AX	s172
543.914	0.5	AX	1.0	89.0	dot_pattern_expectancy	89.0	0.365	probe	AX	s172
556.059	0.5	AY	n/a	n/a	dot_pattern_expectancy	-1.0	n/a	cue	AY	s172
558.563	0.5	AY	1.0	71.0	dot_pattern_expectancy	71.0	0.454	probe	AY	s172
560.201	0.5	AX	n/a	n/a	dot_pattern_expectancy	-1.0	n/a	cue	AX	s172
562.705	0.5	AX	1.0	89.0	dot_pattern_expectancy	89.0	0.409	probe	AX	s172
564.342	0.5	AX	n/a	n/a	dot_pattern_expectancy	-1.0	n/a	cue	AX	s172
566.846	0.5	AX	1.0	89.0	dot_pattern_expectancy	89.0	0.336	probe	AX	s172
568.348	0.5	AX	n/a	n/a	dot_pattern_expectancy	-1.0	n/a	cue	AX	s172
570.852	0.5	AX	1.0	89.0	dot_pattern_expectancy	89.0	0.366	probe	AX	s172
572.353	0.5	AX	n/a	n/a	dot_pattern_expectancy	-1.0	n/a	cue	AX	s172
574.857	0.5	AX	1.0	89.0	dot_pattern_expectancy	89.0	0.545	probe	AX	s172
576.768	0.5	BX	n/a	n/a	dot_pattern_expectancy	-1.0	n/a	cue	BX	s172
579.271	0.5	BX	1.0	71.0	dot_pattern_expectancy	71.0	0.321	probe	BX	s172
580.908	0.5	AX	n/a	n/a	dot_pattern_expectancy	-1.0	n/a	cue	AX	s172
583.412	0.5	AX	1.0	89.0	dot_pattern_expectancy	89.0	0.475	probe	AX	s172
585.458	0.5	AX	n/a	n/a	dot_pattern_expectancy	-1.0	n/a	cue	AX	s172
587.961	0.5	AX	1.0	89.0	dot_pattern_expectancy	89.0	0.441	probe	AX	s172
589.735	0.5	AX	n/a	n/a	dot_pattern_expectancy	-1.0	n/a	cue	AX	s172
592.239	0.5	AX	1.0	89.0	dot_pattern_expectancy	89.0	0.594	probe	AX	s172
593.74	0.5	AX	n/a	n/a	dot_pattern_expectancy	-1.0	n/a	cue	AX	s172
596.244	0.5	AX	1.0	89.0	dot_pattern_expectancy	89.0	0.431	probe	AX	s172
598.427	0.5	AX	n/a	n/a	dot_pattern_expectancy	-1.0	n/a	cue	AX	s172
600.931	0.5	AX	1.0	89.0	dot_pattern_expectancy	89.0	0.439	probe	AX	s172
602.432	0.5	BX	n/a	n/a	dot_pattern_expectancy	-1.0	n/a	cue	BX	s172
604.936	0.5	BX	1.0	71.0	dot_pattern_expectancy	71.0	0.455	probe	BX	s172
608.615	0.5	BY	n/a	n/a	dot_pattern_expectancy	-1.0	n/a	cue	BY	s172
611.119	0.5	BY	1.0	71.0	dot_pattern_expectancy	71.0	0.347	probe	BY	s172
612.758	0.5	BY	n/a	n/a	dot_pattern_expectancy	-1.0	n/a	cue	BY	s172
615.261	0.5	BY	1.0	71.0	dot_pattern_expectancy	71.0	0.534	probe	BY	s172
616.899	0.5	BX	n/a	n/a	dot_pattern_expectancy	-1.0	n/a	cue	BX	s172
619.402	0.5	BX	1.0	71.0	dot_pattern_expectancy	71.0	0.28	probe	BX	s172
620.904	0.5	AX	n/a	n/a	dot_pattern_expectancy	-1.0	n/a	cue	AX	s172
623.408	0.5	AX	1.0	89.0	dot_pattern_expectancy	89.0	0.41	probe	AX	s172
625.318	0.5	AX	n/a	n/a	dot_pattern_expectancy	-1.0	n/a	cue	AX	s172
627.821	0.5	AX	1.0	89.0	dot_pattern_expectancy	89.0	0.386	probe	AX	s172
629.459	0.5	BX	n/a	n/a	dot_pattern_expectancy	-1.0	n/a	cue	BX	s172
631.963	0.5	BX	1.0	71.0	dot_pattern_expectancy	71.0	0.363	probe	BX	s172
633.464	0.5	AX	n/a	n/a	dot_pattern_expectancy	-1.0	n/a	cue	AX	s172
635.969	0.5	AX	1.0	89.0	dot_pattern_expectancy	89.0	0.339	probe	AX	s172
637.88	0.5	BY	n/a	n/a	dot_pattern_expectancy	-1.0	n/a	cue	BY	s172
640.384	0.5	BY	1.0	71.0	dot_pattern_expectancy	71.0	0.364	probe	BY	s172
642.566	0.5	AX	n/a	n/a	dot_pattern_expectancy	-1.0	n/a	cue	AX	s172
645.071	0.5	AX	1.0	89.0	dot_pattern_expectancy	89.0	0.533	probe	AX	s172
646.845	0.5	AX	n/a	n/a	dot_pattern_expectancy	-1.0	n/a	cue	AX	s172
649.35	0.5	AX	1.0	89.0	dot_pattern_expectancy	89.0	0.363	probe	AX	s172
650.851	0.5	AX	n/a	n/a	dot_pattern_expectancy	-1.0	n/a	cue	AX	s172
653.355	0.5	AX	1.0	89.0	dot_pattern_expectancy	89.0	0.323	probe	AX	s172
654.857	0.5	AX	n/a	n/a	dot_pattern_expectancy	-1.0	n/a	cue	AX	s172
657.361	0.5	AX	1.0	89.0	dot_pattern_expectancy	89.0	0.409	probe	AX	s172
659.406	0.5	AX	n/a	n/a	dot_pattern_expectancy	-1.0	n/a	cue	AX	s172
661.91	0.5	AX	1.0	89.0	dot_pattern_expectancy	89.0	0.378	probe	AX	s172
664.772	0.5	BX	n/a	n/a	dot_pattern_expectancy	-1.0	n/a	cue	BX	s172
667.276	0.5	BX	1.0	71.0	dot_pattern_expectancy	71.0	0.416	probe	BX	s172
668.777	0.5	BY	n/a	n/a	dot_pattern_expectancy	-1.0	n/a	cue	BY	s172
671.281	0.5	BY	1.0	71.0	dot_pattern_expectancy	71.0	0.299	probe	BY	s172
673.055	0.5	AX	n/a	n/a	dot_pattern_expectancy	-1.0	n/a	cue	AX	s172
675.559	0.5	AX	1.0	89.0	dot_pattern_expectancy	89.0	0.414	probe	AX	s172
677.332	0.5	AX	n/a	n/a	dot_pattern_expectancy	-1.0	n/a	cue	AX	s172
679.836	0.5	AX	1.0	89.0	dot_pattern_expectancy	89.0	0.349	probe	AX	s172
682.698	0.5	AX	n/a	n/a	dot_pattern_expectancy	-1.0	n/a	cue	AX	s172
685.202	0.5	AX	1.0	89.0	dot_pattern_expectancy	89.0	0.453	probe	AX	s172
686.975	0.5	BX	n/a	n/a	dot_pattern_expectancy	-1.0	n/a	cue	BX	s172
689.48	0.5	BX	1.0	71.0	dot_pattern_expectancy	71.0	0.356	probe	BX	s172
691.118	0.5	BX	n/a	n/a	dot_pattern_expectancy	-1.0	n/a	cue	BX	s172
693.621	0.5	BX	1.0	71.0	dot_pattern_expectancy	71.0	0.287	probe	BX	s172
696.076	0.5	AX	n/a	n/a	dot_pattern_expectancy	-1.0	n/a	cue	AX	s172
698.58	0.5	AX	1.0	89.0	dot_pattern_expectancy	89.0	0.356	probe	AX	s172
700.218	0.5	BX	n/a	n/a	dot_pattern_expectancy	-1.0	n/a	cue	BX	s172
702.722	0.5	BX	1.0	71.0	dot_pattern_expectancy	71.0	0.299	probe	BX	s172
704.224	0.5	AX	n/a	n/a	dot_pattern_expectancy	-1.0	n/a	cue	AX	s172
706.728	0.5	AX	1.0	89.0	dot_pattern_expectancy	89.0	0.387	probe	AX	s172
708.366	0.5	AX	n/a	n/a	dot_pattern_expectancy	-1.0	n/a	cue	AX	s172
710.869	0.5	AX	1.0	89.0	dot_pattern_expectancy	89.0	0.343	probe	AX	s172
712.507	0.5	BY	n/a	n/a	dot_pattern_expectancy	-1.0	n/a	cue	BY	s172
715.01	0.5	BY	1.0	71.0	dot_pattern_expectancy	71.0	0.35	probe	BY	s172
717.193	0.5	AX	n/a	n/a	dot_pattern_expectancy	-1.0	n/a	cue	AX	s172
719.697	0.5	AX	0.0	89.0	dot_pattern_expectancy	71.0	0.574	probe	AX	s172
721.2	0.5	AY	n/a	n/a	dot_pattern_expectancy	-1.0	n/a	cue	AY	s172
723.704	0.5	AY	0.0	71.0	dot_pattern_expectancy	89.0	0.377	probe	AY	s172
725.343	0.5	AX	n/a	n/a	dot_pattern_expectancy	-1.0	n/a	cue	AX	s172
727.846	0.5	AX	1.0	89.0	dot_pattern_expectancy	89.0	0.383	probe	AX	s172
