onset	duration	condition	correct	correct_response	experiment_exp_id	key_press	response_time	trial_id	trial_type	worker_id
3.004	0.5	AX	n/a	n/a	dot_pattern_expectancy	-1.0	n/a	cue	AX	s633
5.506	0.5	AX	1.0	89.0	dot_pattern_expectancy	89.0	0.454	probe	AX	s633
7.279	0.5	AX	n/a	n/a	dot_pattern_expectancy	-1.0	n/a	cue	AX	s633
9.782	0.5	AX	1.0	89.0	dot_pattern_expectancy	89.0	0.34	probe	AX	s633
11.283	0.5	AY	n/a	n/a	dot_pattern_expectancy	-1.0	n/a	cue	AY	s633
13.785	0.5	AY	1.0	71.0	dot_pattern_expectancy	71.0	0.514	probe	AY	s633
16.239	0.5	AY	n/a	n/a	dot_pattern_expectancy	-1.0	n/a	cue	AY	s633
18.741	0.5	AY	1.0	71.0	dot_pattern_expectancy	71.0	0.572	probe	AY	s633
20.514	0.5	AX	n/a	n/a	dot_pattern_expectancy	-1.0	n/a	cue	AX	s633
23.016	0.5	AX	1.0	89.0	dot_pattern_expectancy	89.0	0.356	probe	AX	s633
24.926	0.5	AX	n/a	n/a	dot_pattern_expectancy	-1.0	n/a	cue	AX	s633
27.428	0.5	AX	1.0	89.0	dot_pattern_expectancy	89.0	0.532	probe	AX	s633
29.337	0.5	AX	n/a	n/a	dot_pattern_expectancy	-1.0	n/a	cue	AX	s633
31.839	0.5	AX	1.0	89.0	dot_pattern_expectancy	89.0	0.355	probe	AX	s633
34.429	0.5	AY	n/a	n/a	dot_pattern_expectancy	-1.0	n/a	cue	AY	s633
36.931	0.5	AY	1.0	71.0	dot_pattern_expectancy	71.0	0.428	probe	AY	s633
38.432	0.5	BY	n/a	n/a	dot_pattern_expectancy	-1.0	n/a	cue	BY	s633
40.935	0.5	BY	1.0	71.0	dot_pattern_expectancy	71.0	0.275	probe	BY	s633
42.436	0.5	BY	n/a	n/a	dot_pattern_expectancy	-1.0	n/a	cue	BY	s633
44.938	0.5	BY	1.0	71.0	dot_pattern_expectancy	71.0	0.333	probe	BY	s633
46.439	0.5	AX	n/a	n/a	dot_pattern_expectancy	-1.0	n/a	cue	AX	s633
48.941	0.5	AX	1.0	89.0	dot_pattern_expectancy	89.0	0.371	probe	AX	s633
50.579	0.5	BX	n/a	n/a	dot_pattern_expectancy	-1.0	n/a	cue	BX	s633
53.082	0.5	BX	1.0	71.0	dot_pattern_expectancy	71.0	0.374	probe	BX	s633
55.127	0.5	AX	n/a	n/a	dot_pattern_expectancy	-1.0	n/a	cue	AX	s633
57.63	0.5	AX	1.0	89.0	dot_pattern_expectancy	89.0	0.361	probe	AX	s633
59.403	0.5	BX	n/a	n/a	dot_pattern_expectancy	-1.0	n/a	cue	BX	s633
61.906	0.5	BX	1.0	71.0	dot_pattern_expectancy	71.0	0.315	probe	BX	s633
64.495	0.5	AY	n/a	n/a	dot_pattern_expectancy	-1.0	n/a	cue	AY	s633
66.998	0.5	AY	1.0	71.0	dot_pattern_expectancy	71.0	0.841	probe	AY	s633
68.499	0.5	AX	n/a	n/a	dot_pattern_expectancy	-1.0	n/a	cue	AX	s633
71.002	0.5	AX	1.0	89.0	dot_pattern_expectancy	89.0	0.577	probe	AX	s633
73.455	0.5	BY	n/a	n/a	dot_pattern_expectancy	-1.0	n/a	cue	BY	s633
75.957	0.5	BY	1.0	71.0	dot_pattern_expectancy	71.0	0.319	probe	BY	s633
77.595	0.5	AX	n/a	n/a	dot_pattern_expectancy	-1.0	n/a	cue	AX	s633
80.097	0.5	AX	0.0	89.0	dot_pattern_expectancy	71.0	0.588	probe	AX	s633
81.734	0.5	AX	n/a	n/a	dot_pattern_expectancy	-1.0	n/a	cue	AX	s633
84.236	0.5	AX	1.0	89.0	dot_pattern_expectancy	89.0	0.318	probe	AX	s633
85.738	0.5	BY	n/a	n/a	dot_pattern_expectancy	-1.0	n/a	cue	BY	s633
88.24	0.5	BY	1.0	71.0	dot_pattern_expectancy	71.0	0.361	probe	BY	s633
89.878	0.5	AX	n/a	n/a	dot_pattern_expectancy	-1.0	n/a	cue	AX	s633
92.38	0.5	AX	1.0	89.0	dot_pattern_expectancy	89.0	0.323	probe	AX	s633
93.882	0.5	AY	n/a	n/a	dot_pattern_expectancy	-1.0	n/a	cue	AY	s633
96.384	0.5	AY	1.0	71.0	dot_pattern_expectancy	71.0	0.609	probe	AY	s633
98.565	0.5	AX	n/a	n/a	dot_pattern_expectancy	-1.0	n/a	cue	AX	s633
101.068	0.5	AX	1.0	89.0	dot_pattern_expectancy	89.0	0.596	probe	AX	s633
102.569	0.5	AX	n/a	n/a	dot_pattern_expectancy	-1.0	n/a	cue	AX	s633
105.071	0.5	AX	1.0	89.0	dot_pattern_expectancy	89.0	0.392	probe	AX	s633
106.98	0.5	BY	n/a	n/a	dot_pattern_expectancy	-1.0	n/a	cue	BY	s633
109.482	0.5	BY	1.0	71.0	dot_pattern_expectancy	71.0	0.431	probe	BY	s633
111.12	0.5	BY	n/a	n/a	dot_pattern_expectancy	-1.0	n/a	cue	BY	s633
113.622	0.5	BY	1.0	71.0	dot_pattern_expectancy	71.0	0.502	probe	BY	s633
115.26	0.5	AX	n/a	n/a	dot_pattern_expectancy	-1.0	n/a	cue	AX	s633
117.762	0.5	AX	1.0	89.0	dot_pattern_expectancy	89.0	0.426	probe	AX	s633
119.4	0.5	AX	n/a	n/a	dot_pattern_expectancy	-1.0	n/a	cue	AX	s633
121.902	0.5	AX	1.0	89.0	dot_pattern_expectancy	89.0	0.44	probe	AX	s633
123.403	0.5	BY	n/a	n/a	dot_pattern_expectancy	-1.0	n/a	cue	BY	s633
125.906	0.5	BY	1.0	71.0	dot_pattern_expectancy	71.0	0.406	probe	BY	s633
127.952	0.5	AY	n/a	n/a	dot_pattern_expectancy	-1.0	n/a	cue	AY	s633
130.454	0.5	AY	1.0	71.0	dot_pattern_expectancy	71.0	0.571	probe	AY	s633
132.635	0.5	AY	n/a	n/a	dot_pattern_expectancy	-1.0	n/a	cue	AY	s633
135.137	0.5	AY	1.0	71.0	dot_pattern_expectancy	71.0	0.57	probe	AY	s633
136.775	0.5	AY	n/a	n/a	dot_pattern_expectancy	-1.0	n/a	cue	AY	s633
139.277	0.5	AY	1.0	71.0	dot_pattern_expectancy	71.0	0.561	probe	AY	s633
141.05	0.5	BY	n/a	n/a	dot_pattern_expectancy	-1.0	n/a	cue	BY	s633
143.552	0.5	BY	1.0	71.0	dot_pattern_expectancy	71.0	0.305	probe	BY	s633
145.053	0.5	BX	n/a	n/a	dot_pattern_expectancy	-1.0	n/a	cue	BX	s633
147.555	0.5	BX	1.0	71.0	dot_pattern_expectancy	71.0	0.302	probe	BX	s633
149.464	0.5	AX	n/a	n/a	dot_pattern_expectancy	-1.0	n/a	cue	AX	s633
151.966	0.5	AX	1.0	89.0	dot_pattern_expectancy	89.0	0.335	probe	AX	s633
154.011	0.5	AX	n/a	n/a	dot_pattern_expectancy	-1.0	n/a	cue	AX	s633
156.513	0.5	AX	1.0	89.0	dot_pattern_expectancy	89.0	0.361	probe	AX	s633
158.15	0.5	AX	n/a	n/a	dot_pattern_expectancy	-1.0	n/a	cue	AX	s633
160.653	0.5	AX	1.0	89.0	dot_pattern_expectancy	89.0	0.357	probe	AX	s633
162.426	0.5	AX	n/a	n/a	dot_pattern_expectancy	-1.0	n/a	cue	AX	s633
164.928	0.5	AX	1.0	89.0	dot_pattern_expectancy	89.0	0.35	probe	AX	s633
166.565	0.5	BX	n/a	n/a	dot_pattern_expectancy	-1.0	n/a	cue	BX	s633
169.068	0.5	BX	1.0	71.0	dot_pattern_expectancy	71.0	0.312	probe	BX	s633
170.841	0.5	AX	n/a	n/a	dot_pattern_expectancy	-1.0	n/a	cue	AX	s633
173.343	0.5	AX	1.0	89.0	dot_pattern_expectancy	89.0	0.441	probe	AX	s633
185.347	0.5	BY	n/a	n/a	dot_pattern_expectancy	-1.0	n/a	cue	BY	s633
187.85	0.5	BY	1.0	71.0	dot_pattern_expectancy	71.0	0.242	probe	BY	s633
189.487	0.5	AY	n/a	n/a	dot_pattern_expectancy	-1.0	n/a	cue	AY	s633
191.989	0.5	AY	1.0	71.0	dot_pattern_expectancy	71.0	0.512	probe	AY	s633
193.49	0.5	AX	n/a	n/a	dot_pattern_expectancy	-1.0	n/a	cue	AX	s633
195.992	0.5	AX	1.0	89.0	dot_pattern_expectancy	89.0	0.382	probe	AX	s633
198.037	0.5	BY	n/a	n/a	dot_pattern_expectancy	-1.0	n/a	cue	BY	s633
200.54	0.5	BY	1.0	71.0	dot_pattern_expectancy	71.0	0.325	probe	BY	s633
202.313	0.5	BX	n/a	n/a	dot_pattern_expectancy	-1.0	n/a	cue	BX	s633
204.815	0.5	BX	1.0	71.0	dot_pattern_expectancy	71.0	0.291	probe	BX	s633
206.452	0.5	AX	n/a	n/a	dot_pattern_expectancy	-1.0	n/a	cue	AX	s633
208.955	0.5	AX	1.0	89.0	dot_pattern_expectancy	89.0	0.41	probe	AX	s633
210.592	0.5	AX	n/a	n/a	dot_pattern_expectancy	-1.0	n/a	cue	AX	s633
213.095	0.5	AX	1.0	89.0	dot_pattern_expectancy	89.0	0.369	probe	AX	s633
214.596	0.5	AX	n/a	n/a	dot_pattern_expectancy	-1.0	n/a	cue	AX	s633
217.099	0.5	AX	1.0	89.0	dot_pattern_expectancy	89.0	0.411	probe	AX	s633
218.6	0.5	AY	n/a	n/a	dot_pattern_expectancy	-1.0	n/a	cue	AY	s633
221.102	0.5	AY	1.0	71.0	dot_pattern_expectancy	71.0	0.519	probe	AY	s633
223.147	0.5	AX	n/a	n/a	dot_pattern_expectancy	-1.0	n/a	cue	AX	s633
225.649	0.5	AX	1.0	89.0	dot_pattern_expectancy	89.0	0.382	probe	AX	s633
228.103	0.5	AX	n/a	n/a	dot_pattern_expectancy	-1.0	n/a	cue	AX	s633
230.605	0.5	AX	1.0	89.0	dot_pattern_expectancy	89.0	0.603	probe	AX	s633
232.515	0.5	AX	n/a	n/a	dot_pattern_expectancy	-1.0	n/a	cue	AX	s633
235.017	0.5	AX	1.0	89.0	dot_pattern_expectancy	89.0	0.361	probe	AX	s633
236.519	0.5	AX	n/a	n/a	dot_pattern_expectancy	-1.0	n/a	cue	AX	s633
239.021	0.5	AX	1.0	89.0	dot_pattern_expectancy	89.0	0.448	probe	AX	s633
240.931	0.5	BX	n/a	n/a	dot_pattern_expectancy	-1.0	n/a	cue	BX	s633
243.433	0.5	BX	1.0	71.0	dot_pattern_expectancy	71.0	0.342	probe	BX	s633
245.614	0.5	AX	n/a	n/a	dot_pattern_expectancy	-1.0	n/a	cue	AX	s633
248.116	0.5	AX	1.0	89.0	dot_pattern_expectancy	89.0	0.603	probe	AX	s633
249.617	0.5	BY	n/a	n/a	dot_pattern_expectancy	-1.0	n/a	cue	BY	s633
252.119	0.5	BY	1.0	71.0	dot_pattern_expectancy	71.0	0.293	probe	BY	s633
254.028	0.5	BX	n/a	n/a	dot_pattern_expectancy	-1.0	n/a	cue	BX	s633
256.53	0.5	BX	1.0	71.0	dot_pattern_expectancy	71.0	0.258	probe	BX	s633
258.848	0.5	AY	n/a	n/a	dot_pattern_expectancy	-1.0	n/a	cue	AY	s633
261.351	0.5	AY	1.0	71.0	dot_pattern_expectancy	71.0	0.52	probe	AY	s633
263.668	0.5	BX	n/a	n/a	dot_pattern_expectancy	-1.0	n/a	cue	BX	s633
266.17	0.5	BX	1.0	71.0	dot_pattern_expectancy	71.0	0.297	probe	BX	s633
267.807	0.5	AY	n/a	n/a	dot_pattern_expectancy	-1.0	n/a	cue	AY	s633
270.31	0.5	AY	1.0	71.0	dot_pattern_expectancy	71.0	0.649	probe	AY	s633
271.811	0.5	BY	n/a	n/a	dot_pattern_expectancy	-1.0	n/a	cue	BY	s633
274.313	0.5	BY	1.0	71.0	dot_pattern_expectancy	71.0	0.419	probe	BY	s633
276.223	0.5	AX	n/a	n/a	dot_pattern_expectancy	-1.0	n/a	cue	AX	s633
278.724	0.5	AX	1.0	89.0	dot_pattern_expectancy	89.0	0.383	probe	AX	s633
280.226	0.5	AY	n/a	n/a	dot_pattern_expectancy	-1.0	n/a	cue	AY	s633
282.728	0.5	AY	1.0	71.0	dot_pattern_expectancy	71.0	0.528	probe	AY	s633
285.046	0.5	AX	n/a	n/a	dot_pattern_expectancy	-1.0	n/a	cue	AX	s633
287.549	0.5	AX	1.0	89.0	dot_pattern_expectancy	89.0	0.512	probe	AX	s633
289.05	0.5	AY	n/a	n/a	dot_pattern_expectancy	-1.0	n/a	cue	AY	s633
291.552	0.5	AY	1.0	71.0	dot_pattern_expectancy	71.0	0.497	probe	AY	s633
294.278	0.5	AX	n/a	n/a	dot_pattern_expectancy	-1.0	n/a	cue	AX	s633
296.78	0.5	AX	1.0	89.0	dot_pattern_expectancy	89.0	0.45	probe	AX	s633
298.281	0.5	AX	n/a	n/a	dot_pattern_expectancy	-1.0	n/a	cue	AX	s633
300.783	0.5	AX	1.0	89.0	dot_pattern_expectancy	89.0	0.351	probe	AX	s633
302.421	0.5	AX	n/a	n/a	dot_pattern_expectancy	-1.0	n/a	cue	AX	s633
304.922	0.5	AX	1.0	89.0	dot_pattern_expectancy	89.0	0.519	probe	AX	s633
306.56	0.5	AX	n/a	n/a	dot_pattern_expectancy	-1.0	n/a	cue	AX	s633
309.063	0.5	AX	1.0	89.0	dot_pattern_expectancy	89.0	0.482	probe	AX	s633
310.836	0.5	BY	n/a	n/a	dot_pattern_expectancy	-1.0	n/a	cue	BY	s633
313.338	0.5	BY	1.0	71.0	dot_pattern_expectancy	71.0	0.335	probe	BY	s633
315.111	0.5	AX	n/a	n/a	dot_pattern_expectancy	-1.0	n/a	cue	AX	s633
317.613	0.5	AX	1.0	89.0	dot_pattern_expectancy	89.0	0.458	probe	AX	s633
319.114	0.5	BY	n/a	n/a	dot_pattern_expectancy	-1.0	n/a	cue	BY	s633
321.616	0.5	BY	1.0	71.0	dot_pattern_expectancy	71.0	0.279	probe	BY	s633
324.07	0.5	AX	n/a	n/a	dot_pattern_expectancy	-1.0	n/a	cue	AX	s633
326.572	0.5	AX	1.0	89.0	dot_pattern_expectancy	89.0	0.422	probe	AX	s633
328.209	0.5	AX	n/a	n/a	dot_pattern_expectancy	-1.0	n/a	cue	AX	s633
330.712	0.5	AX	1.0	89.0	dot_pattern_expectancy	89.0	0.446	probe	AX	s633
332.349	0.5	BX	n/a	n/a	dot_pattern_expectancy	-1.0	n/a	cue	BX	s633
334.851	0.5	BX	1.0	71.0	dot_pattern_expectancy	71.0	0.281	probe	BX	s633
336.353	0.5	BX	n/a	n/a	dot_pattern_expectancy	-1.0	n/a	cue	BX	s633
338.856	0.5	BX	1.0	71.0	dot_pattern_expectancy	71.0	0.291	probe	BX	s633
340.357	0.5	AX	n/a	n/a	dot_pattern_expectancy	-1.0	n/a	cue	AX	s633
342.859	0.5	AX	1.0	89.0	dot_pattern_expectancy	89.0	0.602	probe	AX	s633
345.176	0.5	AY	n/a	n/a	dot_pattern_expectancy	-1.0	n/a	cue	AY	s633
347.678	0.5	AY	1.0	71.0	dot_pattern_expectancy	71.0	0.534	probe	AY	s633
349.723	0.5	AX	n/a	n/a	dot_pattern_expectancy	-1.0	n/a	cue	AX	s633
352.227	0.5	AX	1.0	89.0	dot_pattern_expectancy	89.0	0.558	probe	AX	s633
356.176	0.5	AX	n/a	n/a	dot_pattern_expectancy	-1.0	n/a	cue	AX	s633
358.679	0.5	AX	1.0	89.0	dot_pattern_expectancy	89.0	0.436	probe	AX	s633
370.819	0.5	AY	n/a	n/a	dot_pattern_expectancy	-1.0	n/a	cue	AY	s633
373.321	0.5	AY	1.0	71.0	dot_pattern_expectancy	71.0	0.51	probe	AY	s633
374.958	0.5	AX	n/a	n/a	dot_pattern_expectancy	-1.0	n/a	cue	AX	s633
377.46	0.5	AX	1.0	89.0	dot_pattern_expectancy	89.0	0.438	probe	AX	s633
379.097	0.5	AX	n/a	n/a	dot_pattern_expectancy	-1.0	n/a	cue	AX	s633
381.599	0.5	AX	1.0	89.0	dot_pattern_expectancy	89.0	0.662	probe	AX	s633
383.101	0.5	AX	n/a	n/a	dot_pattern_expectancy	-1.0	n/a	cue	AX	s633
385.603	0.5	AX	1.0	89.0	dot_pattern_expectancy	89.0	0.391	probe	AX	s633
387.104	0.5	AX	n/a	n/a	dot_pattern_expectancy	-1.0	n/a	cue	AX	s633
389.607	0.5	AX	1.0	89.0	dot_pattern_expectancy	89.0	0.588	probe	AX	s633
391.516	0.5	BX	n/a	n/a	dot_pattern_expectancy	-1.0	n/a	cue	BX	s633
394.019	0.5	BX	1.0	71.0	dot_pattern_expectancy	71.0	0.287	probe	BX	s633
395.656	0.5	AX	n/a	n/a	dot_pattern_expectancy	-1.0	n/a	cue	AX	s633
398.158	0.5	AX	1.0	89.0	dot_pattern_expectancy	89.0	0.328	probe	AX	s633
400.203	0.5	AX	n/a	n/a	dot_pattern_expectancy	-1.0	n/a	cue	AX	s633
402.706	0.5	AX	1.0	89.0	dot_pattern_expectancy	89.0	0.409	probe	AX	s633
404.479	0.5	AX	n/a	n/a	dot_pattern_expectancy	-1.0	n/a	cue	AX	s633
406.981	0.5	AX	1.0	89.0	dot_pattern_expectancy	89.0	0.338	probe	AX	s633
408.482	0.5	AX	n/a	n/a	dot_pattern_expectancy	-1.0	n/a	cue	AX	s633
410.984	0.5	AX	1.0	89.0	dot_pattern_expectancy	89.0	0.427	probe	AX	s633
413.166	0.5	AX	n/a	n/a	dot_pattern_expectancy	-1.0	n/a	cue	AX	s633
415.669	0.5	AX	1.0	89.0	dot_pattern_expectancy	89.0	0.423	probe	AX	s633
417.17	0.5	BX	n/a	n/a	dot_pattern_expectancy	-1.0	n/a	cue	BX	s633
419.672	0.5	BX	1.0	71.0	dot_pattern_expectancy	71.0	0.216	probe	BX	s633
423.349	0.5	BY	n/a	n/a	dot_pattern_expectancy	-1.0	n/a	cue	BY	s633
425.852	0.5	BY	1.0	71.0	dot_pattern_expectancy	71.0	0.283	probe	BY	s633
427.489	0.5	BY	n/a	n/a	dot_pattern_expectancy	-1.0	n/a	cue	BY	s633
429.991	0.5	BY	1.0	71.0	dot_pattern_expectancy	71.0	0.38	probe	BY	s633
431.628	0.5	BX	n/a	n/a	dot_pattern_expectancy	-1.0	n/a	cue	BX	s633
434.13	0.5	BX	1.0	71.0	dot_pattern_expectancy	71.0	0.261	probe	BX	s633
435.631	0.5	AX	n/a	n/a	dot_pattern_expectancy	-1.0	n/a	cue	AX	s633
438.134	0.5	AX	1.0	89.0	dot_pattern_expectancy	89.0	0.396	probe	AX	s633
440.043	0.5	AX	n/a	n/a	dot_pattern_expectancy	-1.0	n/a	cue	AX	s633
442.545	0.5	AX	1.0	89.0	dot_pattern_expectancy	89.0	0.52	probe	AX	s633
444.182	0.5	BX	n/a	n/a	dot_pattern_expectancy	-1.0	n/a	cue	BX	s633
446.685	0.5	BX	1.0	71.0	dot_pattern_expectancy	71.0	0.333	probe	BX	s633
448.187	0.5	AX	n/a	n/a	dot_pattern_expectancy	-1.0	n/a	cue	AX	s633
450.688	0.5	AX	1.0	89.0	dot_pattern_expectancy	89.0	0.333	probe	AX	s633
452.598	0.5	BY	n/a	n/a	dot_pattern_expectancy	-1.0	n/a	cue	BY	s633
455.1	0.5	BY	1.0	71.0	dot_pattern_expectancy	71.0	0.326	probe	BY	s633
457.281	0.5	AX	n/a	n/a	dot_pattern_expectancy	-1.0	n/a	cue	AX	s633
459.783	0.5	AX	1.0	89.0	dot_pattern_expectancy	89.0	0.612	probe	AX	s633
461.557	0.5	AX	n/a	n/a	dot_pattern_expectancy	-1.0	n/a	cue	AX	s633
464.059	0.5	AX	1.0	89.0	dot_pattern_expectancy	89.0	0.498	probe	AX	s633
465.56	0.5	AX	n/a	n/a	dot_pattern_expectancy	-1.0	n/a	cue	AX	s633
468.062	0.5	AX	1.0	89.0	dot_pattern_expectancy	89.0	0.558	probe	AX	s633
469.564	0.5	AX	n/a	n/a	dot_pattern_expectancy	-1.0	n/a	cue	AX	s633
472.066	0.5	AX	1.0	89.0	dot_pattern_expectancy	89.0	0.532	probe	AX	s633
474.111	0.5	AX	n/a	n/a	dot_pattern_expectancy	-1.0	n/a	cue	AX	s633
476.614	0.5	AX	1.0	89.0	dot_pattern_expectancy	89.0	0.496	probe	AX	s633
479.475	0.5	BX	n/a	n/a	dot_pattern_expectancy	-1.0	n/a	cue	BX	s633
481.977	0.5	BX	1.0	71.0	dot_pattern_expectancy	71.0	0.366	probe	BX	s633
483.479	0.5	BY	n/a	n/a	dot_pattern_expectancy	-1.0	n/a	cue	BY	s633
485.981	0.5	BY	1.0	71.0	dot_pattern_expectancy	71.0	0.33	probe	BY	s633
487.755	0.5	AX	n/a	n/a	dot_pattern_expectancy	-1.0	n/a	cue	AX	s633
490.257	0.5	AX	1.0	89.0	dot_pattern_expectancy	89.0	0.688	probe	AX	s633
492.03	0.5	AX	n/a	n/a	dot_pattern_expectancy	-1.0	n/a	cue	AX	s633
494.533	0.5	AX	1.0	89.0	dot_pattern_expectancy	89.0	0.345	probe	AX	s633
497.394	0.5	AX	n/a	n/a	dot_pattern_expectancy	-1.0	n/a	cue	AX	s633
499.896	0.5	AX	1.0	89.0	dot_pattern_expectancy	89.0	0.508	probe	AX	s633
501.669	0.5	BX	n/a	n/a	dot_pattern_expectancy	-1.0	n/a	cue	BX	s633
504.172	0.5	BX	1.0	71.0	dot_pattern_expectancy	71.0	0.277	probe	BX	s633
505.809	0.5	BX	n/a	n/a	dot_pattern_expectancy	-1.0	n/a	cue	BX	s633
508.312	0.5	BX	1.0	71.0	dot_pattern_expectancy	71.0	0.287	probe	BX	s633
510.765	0.5	AX	n/a	n/a	dot_pattern_expectancy	-1.0	n/a	cue	AX	s633
513.267	0.5	AX	1.0	89.0	dot_pattern_expectancy	89.0	0.588	probe	AX	s633
514.904	0.5	BX	n/a	n/a	dot_pattern_expectancy	-1.0	n/a	cue	BX	s633
517.407	0.5	BX	1.0	71.0	dot_pattern_expectancy	71.0	0.441	probe	BX	s633
518.908	0.5	AX	n/a	n/a	dot_pattern_expectancy	-1.0	n/a	cue	AX	s633
521.41	0.5	AX	1.0	89.0	dot_pattern_expectancy	89.0	0.748	probe	AX	s633
523.048	0.5	AX	n/a	n/a	dot_pattern_expectancy	-1.0	n/a	cue	AX	s633
525.551	0.5	AX	1.0	89.0	dot_pattern_expectancy	89.0	0.419	probe	AX	s633
527.188	0.5	BY	n/a	n/a	dot_pattern_expectancy	-1.0	n/a	cue	BY	s633
529.691	0.5	BY	1.0	71.0	dot_pattern_expectancy	71.0	0.379	probe	BY	s633
531.872	0.5	AX	n/a	n/a	dot_pattern_expectancy	-1.0	n/a	cue	AX	s633
534.375	0.5	AX	1.0	89.0	dot_pattern_expectancy	89.0	0.327	probe	AX	s633
535.877	0.5	AY	n/a	n/a	dot_pattern_expectancy	-1.0	n/a	cue	AY	s633
538.379	0.5	AY	1.0	71.0	dot_pattern_expectancy	71.0	0.501	probe	AY	s633
540.017	0.5	AX	n/a	n/a	dot_pattern_expectancy	-1.0	n/a	cue	AX	s633
542.519	0.5	AX	0.0	89.0	dot_pattern_expectancy	71.0	0.55	probe	AX	s633
554.659	0.5	AX	n/a	n/a	dot_pattern_expectancy	-1.0	n/a	cue	AX	s633
557.162	0.5	AX	1.0	89.0	dot_pattern_expectancy	89.0	0.345	probe	AX	s633
559.343	0.5	AY	n/a	n/a	dot_pattern_expectancy	-1.0	n/a	cue	AY	s633
561.845	0.5	AY	1.0	71.0	dot_pattern_expectancy	71.0	0.616	probe	AY	s633
564.162	0.5	AY	n/a	n/a	dot_pattern_expectancy	-1.0	n/a	cue	AY	s633
566.665	0.5	AY	1.0	71.0	dot_pattern_expectancy	71.0	0.529	probe	AY	s633
568.302	0.5	BX	n/a	n/a	dot_pattern_expectancy	-1.0	n/a	cue	BX	s633
570.805	0.5	BX	1.0	71.0	dot_pattern_expectancy	71.0	0.292	probe	BX	s633
572.714	0.5	AX	n/a	n/a	dot_pattern_expectancy	-1.0	n/a	cue	AX	s633
575.216	0.5	AX	1.0	89.0	dot_pattern_expectancy	89.0	0.598	probe	AX	s633
578.757	0.5	BX	n/a	n/a	dot_pattern_expectancy	-1.0	n/a	cue	BX	s633
581.26	0.5	BX	1.0	71.0	dot_pattern_expectancy	71.0	0.345	probe	BX	s633
582.897	0.5	BY	n/a	n/a	dot_pattern_expectancy	-1.0	n/a	cue	BY	s633
585.4	0.5	BY	1.0	71.0	dot_pattern_expectancy	71.0	0.461	probe	BY	s633
586.901	0.5	AX	n/a	n/a	dot_pattern_expectancy	-1.0	n/a	cue	AX	s633
589.403	0.5	AX	1.0	89.0	dot_pattern_expectancy	89.0	0.347	probe	AX	s633
590.904	0.5	AX	n/a	n/a	dot_pattern_expectancy	-1.0	n/a	cue	AX	s633
593.406	0.5	AX	1.0	89.0	dot_pattern_expectancy	89.0	0.37	probe	AX	s633
595.179	0.5	BY	n/a	n/a	dot_pattern_expectancy	-1.0	n/a	cue	BY	s633
597.683	0.5	BY	1.0	71.0	dot_pattern_expectancy	71.0	0.256	probe	BY	s633
600.137	0.5	AX	n/a	n/a	dot_pattern_expectancy	-1.0	n/a	cue	AX	s633
602.639	0.5	AX	1.0	89.0	dot_pattern_expectancy	89.0	0.348	probe	AX	s633
604.548	0.5	BX	n/a	n/a	dot_pattern_expectancy	-1.0	n/a	cue	BX	s633
607.051	0.5	BX	1.0	71.0	dot_pattern_expectancy	71.0	0.305	probe	BX	s633
608.689	0.5	AX	n/a	n/a	dot_pattern_expectancy	-1.0	n/a	cue	AX	s633
611.191	0.5	AX	1.0	89.0	dot_pattern_expectancy	89.0	0.363	probe	AX	s633
612.692	0.5	AX	n/a	n/a	dot_pattern_expectancy	-1.0	n/a	cue	AX	s633
615.195	0.5	AX	1.0	89.0	dot_pattern_expectancy	89.0	0.594	probe	AX	s633
616.832	0.5	AX	n/a	n/a	dot_pattern_expectancy	-1.0	n/a	cue	AX	s633
619.334	0.5	AX	1.0	89.0	dot_pattern_expectancy	89.0	0.475	probe	AX	s633
620.971	0.5	BY	n/a	n/a	dot_pattern_expectancy	-1.0	n/a	cue	BY	s633
623.474	0.5	BY	1.0	71.0	dot_pattern_expectancy	71.0	0.272	probe	BY	s633
625.927	0.5	AX	n/a	n/a	dot_pattern_expectancy	-1.0	n/a	cue	AX	s633
628.429	0.5	AX	1.0	89.0	dot_pattern_expectancy	89.0	0.349	probe	AX	s633
629.93	0.5	BY	n/a	n/a	dot_pattern_expectancy	-1.0	n/a	cue	BY	s633
632.432	0.5	BY	1.0	71.0	dot_pattern_expectancy	71.0	0.358	probe	BY	s633
633.934	0.5	AX	n/a	n/a	dot_pattern_expectancy	-1.0	n/a	cue	AX	s633
636.437	0.5	AX	1.0	89.0	dot_pattern_expectancy	89.0	0.352	probe	AX	s633
638.074	0.5	AX	n/a	n/a	dot_pattern_expectancy	-1.0	n/a	cue	AX	s633
640.576	0.5	AX	1.0	89.0	dot_pattern_expectancy	89.0	0.645	probe	AX	s633
642.213	0.5	AY	n/a	n/a	dot_pattern_expectancy	-1.0	n/a	cue	AY	s633
644.715	0.5	AY	1.0	71.0	dot_pattern_expectancy	71.0	0.767	probe	AY	s633
646.353	0.5	AX	n/a	n/a	dot_pattern_expectancy	-1.0	n/a	cue	AX	s633
648.855	0.5	AX	1.0	89.0	dot_pattern_expectancy	89.0	0.35	probe	AX	s633
650.356	0.5	AX	n/a	n/a	dot_pattern_expectancy	-1.0	n/a	cue	AX	s633
652.859	0.5	AX	1.0	89.0	dot_pattern_expectancy	89.0	0.542	probe	AX	s633
654.36	0.5	AX	n/a	n/a	dot_pattern_expectancy	-1.0	n/a	cue	AX	s633
656.862	0.5	AX	1.0	89.0	dot_pattern_expectancy	89.0	0.364	probe	AX	s633
658.636	0.5	AX	n/a	n/a	dot_pattern_expectancy	-1.0	n/a	cue	AX	s633
661.139	0.5	AX	1.0	89.0	dot_pattern_expectancy	89.0	0.33	probe	AX	s633
663.32	0.5	BX	n/a	n/a	dot_pattern_expectancy	-1.0	n/a	cue	BX	s633
665.823	0.5	BX	1.0	71.0	dot_pattern_expectancy	71.0	0.316	probe	BX	s633
667.596	0.5	BY	n/a	n/a	dot_pattern_expectancy	-1.0	n/a	cue	BY	s633
670.099	0.5	BY	1.0	71.0	dot_pattern_expectancy	71.0	0.298	probe	BY	s633
671.6	0.5	AX	n/a	n/a	dot_pattern_expectancy	-1.0	n/a	cue	AX	s633
674.101	0.5	AX	1.0	89.0	dot_pattern_expectancy	89.0	0.682	probe	AX	s633
675.603	0.5	AX	n/a	n/a	dot_pattern_expectancy	-1.0	n/a	cue	AX	s633
678.105	0.5	AX	1.0	89.0	dot_pattern_expectancy	89.0	0.685	probe	AX	s633
679.743	0.5	AY	n/a	n/a	dot_pattern_expectancy	-1.0	n/a	cue	AY	s633
682.245	0.5	AY	1.0	71.0	dot_pattern_expectancy	71.0	0.505	probe	AY	s633
684.426	0.5	AY	n/a	n/a	dot_pattern_expectancy	-1.0	n/a	cue	AY	s633
686.929	0.5	AY	1.0	71.0	dot_pattern_expectancy	71.0	0.494	probe	AY	s633
689.246	0.5	BX	n/a	n/a	dot_pattern_expectancy	-1.0	n/a	cue	BX	s633
691.749	0.5	BX	1.0	71.0	dot_pattern_expectancy	71.0	0.306	probe	BX	s633
693.386	0.5	BX	n/a	n/a	dot_pattern_expectancy	-1.0	n/a	cue	BX	s633
695.888	0.5	BX	1.0	71.0	dot_pattern_expectancy	71.0	0.309	probe	BX	s633
698.069	0.5	AY	n/a	n/a	dot_pattern_expectancy	-1.0	n/a	cue	AY	s633
700.572	0.5	AY	1.0	71.0	dot_pattern_expectancy	71.0	0.619	probe	AY	s633
702.617	0.5	AX	n/a	n/a	dot_pattern_expectancy	-1.0	n/a	cue	AX	s633
705.119	0.5	AX	1.0	89.0	dot_pattern_expectancy	89.0	0.363	probe	AX	s633
706.892	0.5	AX	n/a	n/a	dot_pattern_expectancy	-1.0	n/a	cue	AX	s633
709.395	0.5	AX	1.0	89.0	dot_pattern_expectancy	89.0	0.447	probe	AX	s633
710.897	0.5	AX	n/a	n/a	dot_pattern_expectancy	-1.0	n/a	cue	AX	s633
713.399	0.5	AX	1.0	89.0	dot_pattern_expectancy	89.0	0.64	probe	AX	s633
715.581	0.5	AY	n/a	n/a	dot_pattern_expectancy	-1.0	n/a	cue	AY	s633
718.083	0.5	AY	1.0	71.0	dot_pattern_expectancy	71.0	0.629	probe	AY	s633
720.537	0.5	AX	n/a	n/a	dot_pattern_expectancy	-1.0	n/a	cue	AX	s633
723.039	0.5	AX	1.0	89.0	dot_pattern_expectancy	89.0	0.804	probe	AX	s633
724.676	0.5	AX	n/a	n/a	dot_pattern_expectancy	-1.0	n/a	cue	AX	s633
727.178	0.5	AX	1.0	89.0	dot_pattern_expectancy	89.0	0.494	probe	AX	s633
