onset	duration	planning	condition	current_position	exp_stage	experiment_exp_id	goal_state	key_press	problem_id	response_time	start_state	trial_id	worker_id
-43.552	0.0	0	n/a	n/a	n/a	ward_and_allport	n/a	32.0	n/a	4.468	n/a	instructions	s627
3.01	3.728	1	UA_with_intermediate	1,0,0,2,0,0,0,0,0	practice	ward_and_allport	1,2,3,0,0,0,0,0,0	71.0	0.0	3.728	1,0,0,2,3,0,0,0,0	to_hand	s627
6.739	0.685	0	UA_with_intermediate	1,0,0,2,0,0,3,0,0	practice	ward_and_allport	1,2,3,0,0,0,0,0,0	82.0	0.0	0.685	1,0,0,2,3,0,0,0,0	to_board	s627
7.425	0.665	0	UA_with_intermediate	1,0,0,0,0,0,3,0,0	practice	ward_and_allport	1,2,3,0,0,0,0,0,0	71.0	0.0	0.665	1,0,0,2,3,0,0,0,0	to_hand	s627
8.09	0.554	0	UA_with_intermediate	1,2,0,0,0,0,3,0,0	practice	ward_and_allport	1,2,3,0,0,0,0,0,0	89.0	0.0	0.554	1,0,0,2,3,0,0,0,0	to_board	s627
8.646	0.579	0	UA_with_intermediate	1,2,0,0,0,0,0,0,0	practice	ward_and_allport	1,2,3,0,0,0,0,0,0	82.0	0.0	0.579	1,0,0,2,3,0,0,0,0	to_hand	s627
9.227	0.4	0	UA_with_intermediate	1,2,3,0,0,0,0,0,0	practice	ward_and_allport	1,2,3,0,0,0,0,0,0	89.0	0.0	0.4	1,0,0,2,3,0,0,0,0	to_board	s627
9.632	1.0	0	UA_with_intermediate	n/a	practice	ward_and_allport	n/a	-1.0	0.0	n/a	n/a	feedback	s627
12.134	3.759	1	UA_with_intermediate	1,0,0,3,0,0,0,0,0	practice	ward_and_allport	1,3,2,0,0,0,0,0,0	89.0	1.0	3.759	1,2,0,3,0,0,0,0,0	to_hand	s627
15.894	1.01	0	UA_with_intermediate	1,0,0,3,0,0,2,0,0	practice	ward_and_allport	1,3,2,0,0,0,0,0,0	82.0	1.0	1.01	1,2,0,3,0,0,0,0,0	to_board	s627
16.905	0.571	0	UA_with_intermediate	1,0,0,0,0,0,2,0,0	practice	ward_and_allport	1,3,2,0,0,0,0,0,0	71.0	1.0	0.571	1,2,0,3,0,0,0,0,0	to_hand	s627
17.477	0.487	0	UA_with_intermediate	1,3,0,0,0,0,2,0,0	practice	ward_and_allport	1,3,2,0,0,0,0,0,0	89.0	1.0	0.487	1,2,0,3,0,0,0,0,0	to_board	s627
17.966	0.816	0	UA_with_intermediate	1,3,0,0,0,0,0,0,0	practice	ward_and_allport	1,3,2,0,0,0,0,0,0	82.0	1.0	0.816	1,2,0,3,0,0,0,0,0	to_hand	s627
18.784	0.473	0	UA_with_intermediate	1,3,2,0,0,0,0,0,0	practice	ward_and_allport	1,3,2,0,0,0,0,0,0	89.0	1.0	0.473	1,2,0,3,0,0,0,0,0	to_board	s627
19.259	1.0	0	UA_with_intermediate	n/a	practice	ward_and_allport	n/a	-1.0	1.0	n/a	n/a	feedback	s627
20.259	1.1	0	UA_with_intermediate	n/a	practice	ward_and_allport	n/a	-1.0	1.0	n/a	n/a	ITI	s627
21.361	2.09	1	UA_without_intermediate	0,0,0,1,2,0,0,0,0	practice	ward_and_allport	3,2,1,0,0,0,0,0,0	82.0	2.0	2.09	0,0,0,1,2,0,3,0,0	to_hand	s627
23.451	0.72	0	UA_without_intermediate	3,0,0,1,2,0,0,0,0	practice	ward_and_allport	3,2,1,0,0,0,0,0,0	89.0	2.0	0.72	0,0,0,1,2,0,3,0,0	to_board	s627
24.173	0.527	0	UA_without_intermediate	3,0,0,1,0,0,0,0,0	practice	ward_and_allport	3,2,1,0,0,0,0,0,0	71.0	2.0	0.527	0,0,0,1,2,0,3,0,0	to_hand	s627
24.701	0.411	0	UA_without_intermediate	3,2,0,1,0,0,0,0,0	practice	ward_and_allport	3,2,1,0,0,0,0,0,0	89.0	2.0	0.411	0,0,0,1,2,0,3,0,0	to_board	s627
25.113	0.958	0	UA_without_intermediate	3,2,0,0,0,0,0,0,0	practice	ward_and_allport	3,2,1,0,0,0,0,0,0	71.0	2.0	0.958	0,0,0,1,2,0,3,0,0	to_hand	s627
26.071	0.297	0	UA_without_intermediate	3,2,1,0,0,0,0,0,0	practice	ward_and_allport	3,2,1,0,0,0,0,0,0	89.0	2.0	0.297	0,0,0,1,2,0,3,0,0	to_board	s627
26.37	1.0	0	UA_without_intermediate	n/a	practice	ward_and_allport	n/a	-1.0	2.0	n/a	n/a	feedback	s627
27.37	1.2	0	UA_without_intermediate	n/a	practice	ward_and_allport	n/a	-1.0	2.0	n/a	n/a	ITI	s627
28.572	1.931	1	UA_without_intermediate	0,0,0,1,0,0,3,0,0	practice	ward_and_allport	2,3,1,0,0,0,0,0,0	71.0	3.0	1.931	0,0,0,1,2,0,3,0,0	to_hand	s627
30.506	0.775	0	UA_without_intermediate	2,0,0,1,0,0,3,0,0	practice	ward_and_allport	2,3,1,0,0,0,0,0,0	89.0	3.0	0.775	0,0,0,1,2,0,3,0,0	to_board	s627
31.282	0.511	0	UA_without_intermediate	2,0,0,1,0,0,0,0,0	practice	ward_and_allport	2,3,1,0,0,0,0,0,0	82.0	3.0	0.511	0,0,0,1,2,0,3,0,0	to_hand	s627
31.794	0.411	0	UA_without_intermediate	2,3,0,1,0,0,0,0,0	practice	ward_and_allport	2,3,1,0,0,0,0,0,0	89.0	3.0	0.411	0,0,0,1,2,0,3,0,0	to_board	s627
32.208	0.485	0	UA_without_intermediate	2,3,0,0,0,0,0,0,0	practice	ward_and_allport	2,3,1,0,0,0,0,0,0	71.0	3.0	0.485	0,0,0,1,2,0,3,0,0	to_hand	s627
32.693	0.275	0	UA_without_intermediate	2,3,1,0,0,0,0,0,0	practice	ward_and_allport	2,3,1,0,0,0,0,0,0	89.0	3.0	0.275	0,0,0,1,2,0,3,0,0	to_board	s627
32.974	1.0	0	UA_without_intermediate	n/a	practice	ward_and_allport	n/a	-1.0	3.0	n/a	n/a	feedback	s627
33.974	1.0	0	UA_without_intermediate	n/a	practice	ward_and_allport	n/a	-1.0	3.0	n/a	n/a	ITI	s627
36.984	2.806	1	PA_with_intermediate	0,0,0,1,2,0,0,0,0	test	ward_and_allport	0,0,0,1,0,0,2,3,0	71.0	0.0	2.806	0,0,0,1,2,3,0,0,0	to_hand	s627
39.791	2.542	0	PA_with_intermediate	3,0,0,1,2,0,0,0,0	test	ward_and_allport	0,0,0,1,0,0,2,3,0	89.0	0.0	2.542	0,0,0,1,2,3,0,0,0	to_board	s627
42.335	0.714	0	PA_with_intermediate	3,0,0,1,0,0,0,0,0	test	ward_and_allport	0,0,0,1,0,0,2,3,0	71.0	0.0	0.714	0,0,0,1,2,3,0,0,0	to_hand	s627
43.05	0.612	0	PA_with_intermediate	3,0,0,1,0,0,2,0,0	test	ward_and_allport	0,0,0,1,0,0,2,3,0	82.0	0.0	0.612	0,0,0,1,2,3,0,0,0	to_board	s627
43.664	0.575	0	PA_with_intermediate	0,0,0,1,0,0,2,0,0	test	ward_and_allport	0,0,0,1,0,0,2,3,0	89.0	0.0	0.575	0,0,0,1,2,3,0,0,0	to_hand	s627
44.24	0.408	0	PA_with_intermediate	0,0,0,1,0,0,2,3,0	test	ward_and_allport	0,0,0,1,0,0,2,3,0	82.0	0.0	0.408	0,0,0,1,2,3,0,0,0	to_board	s627
44.653	1.0	0	PA_with_intermediate	n/a	test	ward_and_allport	n/a	-1.0	0.0	n/a	n/a	feedback	s627
45.653	1.408	0	PA_with_intermediate	n/a	test	ward_and_allport	n/a	-1.0	0.0	n/a	n/a	ITI	s627
47.062	2.514	1	PA_without_intermediate	1,2,0,0,0,0,0,0,0	test	ward_and_allport	0,0,0,1,0,0,3,2,0	89.0	1.0	2.514	1,2,3,0,0,0,0,0,0	to_hand	s627
49.578	0.837	0	PA_without_intermediate	1,2,0,0,0,0,3,0,0	test	ward_and_allport	0,0,0,1,0,0,3,2,0	82.0	1.0	0.837	1,2,3,0,0,0,0,0,0	to_board	s627
50.418	0.536	0	PA_without_intermediate	1,0,0,0,0,0,3,0,0	test	ward_and_allport	0,0,0,1,0,0,3,2,0	89.0	1.0	0.536	1,2,3,0,0,0,0,0,0	to_hand	s627
50.956	0.549	0	PA_without_intermediate	1,0,0,0,0,0,3,2,0	test	ward_and_allport	0,0,0,1,0,0,3,2,0	82.0	1.0	0.549	1,2,3,0,0,0,0,0,0	to_board	s627
51.506	0.777	0	PA_without_intermediate	0,0,0,0,0,0,3,2,0	test	ward_and_allport	0,0,0,1,0,0,3,2,0	89.0	1.0	0.777	1,2,3,0,0,0,0,0,0	to_hand	s627
52.284	0.501	0	PA_without_intermediate	0,0,0,1,0,0,3,2,0	test	ward_and_allport	0,0,0,1,0,0,3,2,0	71.0	1.0	0.501	1,2,3,0,0,0,0,0,0	to_board	s627
52.79	1.0	0	PA_without_intermediate	n/a	test	ward_and_allport	n/a	-1.0	1.0	n/a	n/a	feedback	s627
53.79	1.68	0	PA_without_intermediate	n/a	test	ward_and_allport	n/a	-1.0	1.0	n/a	n/a	ITI	s627
55.474	4.069	1	PA_with_intermediate	0,0,0,0,0,0,1,2,0	test	ward_and_allport	2,0,0,0,0,0,1,3,0	82.0	2.0	4.069	0,0,0,0,0,0,1,2,3	to_hand	s627
59.544	0.607	0	PA_with_intermediate	0,0,0,3,0,0,1,2,0	test	ward_and_allport	2,0,0,0,0,0,1,3,0	71.0	2.0	0.607	0,0,0,0,0,0,1,2,3	to_board	s627
60.152	0.939	0	PA_with_intermediate	0,0,0,3,0,0,1,0,0	test	ward_and_allport	2,0,0,0,0,0,1,3,0	82.0	2.0	0.939	0,0,0,0,0,0,1,2,3	to_hand	s627
61.092	0.578	0	PA_with_intermediate	2,0,0,3,0,0,1,0,0	test	ward_and_allport	2,0,0,0,0,0,1,3,0	89.0	2.0	0.578	0,0,0,0,0,0,1,2,3	to_board	s627
61.672	0.49	0	PA_with_intermediate	2,0,0,0,0,0,1,0,0	test	ward_and_allport	2,0,0,0,0,0,1,3,0	71.0	2.0	0.49	0,0,0,0,0,0,1,2,3	to_hand	s627
62.163	0.447	0	PA_with_intermediate	2,0,0,0,0,0,1,3,0	test	ward_and_allport	2,0,0,0,0,0,1,3,0	82.0	2.0	0.447	0,0,0,0,0,0,1,2,3	to_board	s627
62.614	1.0	0	PA_with_intermediate	n/a	test	ward_and_allport	n/a	-1.0	2.0	n/a	n/a	feedback	s627
63.614	3.72	0	PA_with_intermediate	n/a	test	ward_and_allport	n/a	-1.0	2.0	n/a	n/a	ITI	s627
67.336	2.772	1	PA_without_intermediate	0,0,0,1,2,0,0,0,0	test	ward_and_allport	3,1,0,0,0,0,2,0,0	71.0	3.0	2.772	0,0,0,1,2,3,0,0,0	to_hand	s627
70.108	0.445	0	PA_without_intermediate	3,0,0,1,2,0,0,0,0	test	ward_and_allport	3,1,0,0,0,0,2,0,0	89.0	3.0	0.445	0,0,0,1,2,3,0,0,0	to_board	s627
70.555	0.474	0	PA_without_intermediate	3,0,0,1,0,0,0,0,0	test	ward_and_allport	3,1,0,0,0,0,2,0,0	71.0	3.0	0.474	0,0,0,1,2,3,0,0,0	to_hand	s627
71.03	0.502	0	PA_without_intermediate	3,0,0,1,0,0,2,0,0	test	ward_and_allport	3,1,0,0,0,0,2,0,0	82.0	3.0	0.502	0,0,0,1,2,3,0,0,0	to_board	s627
71.534	0.405	0	PA_without_intermediate	3,0,0,0,0,0,2,0,0	test	ward_and_allport	3,1,0,0,0,0,2,0,0	71.0	3.0	0.405	0,0,0,1,2,3,0,0,0	to_hand	s627
71.94	0.37	0	PA_without_intermediate	3,1,0,0,0,0,2,0,0	test	ward_and_allport	3,1,0,0,0,0,2,0,0	89.0	3.0	0.37	0,0,0,1,2,3,0,0,0	to_board	s627
72.313	1.0	0	PA_without_intermediate	n/a	test	ward_and_allport	n/a	-1.0	3.0	n/a	n/a	feedback	s627
73.313	2.224	0	PA_without_intermediate	n/a	test	ward_and_allport	n/a	-1.0	3.0	n/a	n/a	ITI	s627
75.54	2.321	1	PA_without_intermediate	0,0,0,0,0,0,1,2,0	test	ward_and_allport	3,2,0,1,0,0,0,0,0	82.0	4.0	2.321	0,0,0,0,0,0,1,2,3	to_hand	s627
77.862	0.45	0	PA_without_intermediate	3,0,0,0,0,0,1,2,0	test	ward_and_allport	3,2,0,1,0,0,0,0,0	89.0	4.0	0.45	0,0,0,0,0,0,1,2,3	to_board	s627
78.314	0.445	0	PA_without_intermediate	3,0,0,0,0,0,1,0,0	test	ward_and_allport	3,2,0,1,0,0,0,0,0	82.0	4.0	0.445	0,0,0,0,0,0,1,2,3	to_hand	s627
78.76	0.32	0	PA_without_intermediate	3,2,0,0,0,0,1,0,0	test	ward_and_allport	3,2,0,1,0,0,0,0,0	89.0	4.0	0.32	0,0,0,0,0,0,1,2,3	to_board	s627
79.082	0.862	0	PA_without_intermediate	3,2,0,0,0,0,0,0,0	test	ward_and_allport	3,2,0,1,0,0,0,0,0	82.0	4.0	0.862	0,0,0,0,0,0,1,2,3	to_hand	s627
79.945	0.332	0	PA_without_intermediate	3,2,0,1,0,0,0,0,0	test	ward_and_allport	3,2,0,1,0,0,0,0,0	71.0	4.0	0.332	0,0,0,0,0,0,1,2,3	to_board	s627
80.283	1.0	0	PA_without_intermediate	n/a	test	ward_and_allport	n/a	-1.0	4.0	n/a	n/a	feedback	s627
81.283	1.272	0	PA_without_intermediate	n/a	test	ward_and_allport	n/a	-1.0	4.0	n/a	n/a	ITI	s627
82.558	3.901	1	PA_with_intermediate	1,2,0,0,0,0,0,0,0	test	ward_and_allport	1,0,0,0,0,0,2,3,0	89.0	5.0	3.901	1,2,3,0,0,0,0,0,0	to_hand	s627
86.46	0.52	0	PA_with_intermediate	1,2,0,3,0,0,0,0,0	test	ward_and_allport	1,0,0,0,0,0,2,3,0	71.0	5.0	0.52	1,2,3,0,0,0,0,0,0	to_board	s627
86.983	0.385	0	PA_with_intermediate	1,0,0,3,0,0,0,0,0	test	ward_and_allport	1,0,0,0,0,0,2,3,0	89.0	5.0	0.385	1,2,3,0,0,0,0,0,0	to_hand	s627
87.368	0.447	0	PA_with_intermediate	1,0,0,3,0,0,2,0,0	test	ward_and_allport	1,0,0,0,0,0,2,3,0	82.0	5.0	0.447	1,2,3,0,0,0,0,0,0	to_board	s627
87.818	0.366	0	PA_with_intermediate	1,0,0,0,0,0,2,0,0	test	ward_and_allport	1,0,0,0,0,0,2,3,0	71.0	5.0	0.366	1,2,3,0,0,0,0,0,0	to_hand	s627
88.185	0.363	0	PA_with_intermediate	1,0,0,0,0,0,2,3,0	test	ward_and_allport	1,0,0,0,0,0,2,3,0	82.0	5.0	0.363	1,2,3,0,0,0,0,0,0	to_board	s627
88.556	1.0	0	PA_with_intermediate	n/a	test	ward_and_allport	n/a	-1.0	5.0	n/a	n/a	feedback	s627
89.556	2.632	0	PA_with_intermediate	n/a	test	ward_and_allport	n/a	-1.0	5.0	n/a	n/a	ITI	s627
92.189	3.876	1	PA_without_intermediate	0,0,0,0,0,0,1,2,0	test	ward_and_allport	1,0,0,3,2,0,0,0,0	82.0	6.0	3.876	0,0,0,0,0,0,1,2,3	to_hand	s627
96.066	0.497	0	PA_without_intermediate	0,0,0,3,0,0,1,2,0	test	ward_and_allport	1,0,0,3,2,0,0,0,0	71.0	6.0	0.497	0,0,0,0,0,0,1,2,3	to_board	s627
96.565	0.675	0	PA_without_intermediate	0,0,0,3,0,0,1,0,0	test	ward_and_allport	1,0,0,3,2,0,0,0,0	82.0	6.0	0.675	0,0,0,0,0,0,1,2,3	to_hand	s627
97.241	1.237	0	PA_without_intermediate	0,0,0,3,2,0,1,0,0	test	ward_and_allport	1,0,0,3,2,0,0,0,0	71.0	6.0	1.237	0,0,0,0,0,0,1,2,3	to_board	s627
98.48	0.446	0	PA_without_intermediate	0,0,0,3,2,0,0,0,0	test	ward_and_allport	1,0,0,3,2,0,0,0,0	82.0	6.0	0.446	0,0,0,0,0,0,1,2,3	to_hand	s627
98.927	0.368	0	PA_without_intermediate	1,0,0,3,2,0,0,0,0	test	ward_and_allport	1,0,0,3,2,0,0,0,0	89.0	6.0	0.368	0,0,0,0,0,0,1,2,3	to_board	s627
99.3	1.0	0	PA_without_intermediate	n/a	test	ward_and_allport	n/a	-1.0	6.0	n/a	n/a	feedback	s627
100.3	1.408	0	PA_without_intermediate	n/a	test	ward_and_allport	n/a	-1.0	6.0	n/a	n/a	ITI	s627
101.71	2.552	1	PA_without_intermediate	1,2,0,0,0,0,0,0,0	test	ward_and_allport	0,0,0,3,1,0,2,0,0	89.0	7.0	2.552	1,2,3,0,0,0,0,0,0	to_hand	s627
104.264	0.463	0	PA_without_intermediate	1,2,0,3,0,0,0,0,0	test	ward_and_allport	0,0,0,3,1,0,2,0,0	71.0	7.0	0.463	1,2,3,0,0,0,0,0,0	to_board	s627
104.729	0.492	0	PA_without_intermediate	1,0,0,3,0,0,0,0,0	test	ward_and_allport	0,0,0,3,1,0,2,0,0	89.0	7.0	0.492	1,2,3,0,0,0,0,0,0	to_hand	s627
105.223	0.507	0	PA_without_intermediate	1,0,0,3,0,0,2,0,0	test	ward_and_allport	0,0,0,3,1,0,2,0,0	82.0	7.0	0.507	1,2,3,0,0,0,0,0,0	to_board	s627
105.732	0.403	0	PA_without_intermediate	0,0,0,3,0,0,2,0,0	test	ward_and_allport	0,0,0,3,1,0,2,0,0	89.0	7.0	0.403	1,2,3,0,0,0,0,0,0	to_hand	s627
106.136	0.363	0	PA_without_intermediate	0,0,0,3,1,0,2,0,0	test	ward_and_allport	0,0,0,3,1,0,2,0,0	71.0	7.0	0.363	1,2,3,0,0,0,0,0,0	to_board	s627
106.503	1.0	0	PA_without_intermediate	n/a	test	ward_and_allport	n/a	-1.0	7.0	n/a	n/a	feedback	s627
107.503	1.0	0	PA_without_intermediate	n/a	test	ward_and_allport	n/a	-1.0	7.0	n/a	n/a	ITI	s627
108.506	3.201	1	PA_with_intermediate	0,0,0,0,0,0,1,2,0	test	ward_and_allport	2,0,0,0,0,0,1,3,0	82.0	8.0	3.201	0,0,0,0,0,0,1,2,3	to_hand	s627
111.708	1.028	0	PA_with_intermediate	0,0,0,3,0,0,1,2,0	test	ward_and_allport	2,0,0,0,0,0,1,3,0	71.0	8.0	1.028	0,0,0,0,0,0,1,2,3	to_board	s627
112.739	0.446	0	PA_with_intermediate	0,0,0,3,0,0,1,0,0	test	ward_and_allport	2,0,0,0,0,0,1,3,0	82.0	8.0	0.446	0,0,0,0,0,0,1,2,3	to_hand	s627
113.186	0.416	0	PA_with_intermediate	2,0,0,3,0,0,1,0,0	test	ward_and_allport	2,0,0,0,0,0,1,3,0	89.0	8.0	0.416	0,0,0,0,0,0,1,2,3	to_board	s627
113.605	0.429	0	PA_with_intermediate	2,0,0,0,0,0,1,0,0	test	ward_and_allport	2,0,0,0,0,0,1,3,0	71.0	8.0	0.429	0,0,0,0,0,0,1,2,3	to_hand	s627
114.036	0.471	0	PA_with_intermediate	2,0,0,0,0,0,1,3,0	test	ward_and_allport	2,0,0,0,0,0,1,3,0	82.0	8.0	0.471	0,0,0,0,0,0,1,2,3	to_board	s627
114.514	1.0	0	PA_with_intermediate	n/a	test	ward_and_allport	n/a	-1.0	8.0	n/a	n/a	feedback	s627
115.514	1.0	0	PA_with_intermediate	n/a	test	ward_and_allport	n/a	-1.0	8.0	n/a	n/a	ITI	s627
116.517	2.331	1	PA_with_intermediate	0,0,0,1,2,0,0,0,0	test	ward_and_allport	2,0,0,1,3,0,0,0,0	71.0	9.0	2.331	0,0,0,1,2,3,0,0,0	to_hand	s627
118.849	0.467	0	PA_with_intermediate	0,0,0,1,2,0,3,0,0	test	ward_and_allport	2,0,0,1,3,0,0,0,0	82.0	9.0	0.467	0,0,0,1,2,3,0,0,0	to_board	s627
119.319	0.388	0	PA_with_intermediate	0,0,0,1,0,0,3,0,0	test	ward_and_allport	2,0,0,1,3,0,0,0,0	71.0	9.0	0.388	0,0,0,1,2,3,0,0,0	to_hand	s627
119.709	0.445	0	PA_with_intermediate	2,0,0,1,0,0,3,0,0	test	ward_and_allport	2,0,0,1,3,0,0,0,0	89.0	9.0	0.445	0,0,0,1,2,3,0,0,0	to_board	s627
120.157	0.498	0	PA_with_intermediate	2,0,0,1,0,0,0,0,0	test	ward_and_allport	2,0,0,1,3,0,0,0,0	82.0	9.0	0.498	0,0,0,1,2,3,0,0,0	to_hand	s627
120.655	0.468	0	PA_with_intermediate	2,0,0,1,3,0,0,0,0	test	ward_and_allport	2,0,0,1,3,0,0,0,0	71.0	9.0	0.468	0,0,0,1,2,3,0,0,0	to_board	s627
121.131	1.0	0	PA_with_intermediate	n/a	test	ward_and_allport	n/a	-1.0	9.0	n/a	n/a	feedback	s627
122.131	1.0	0	PA_with_intermediate	n/a	test	ward_and_allport	n/a	-1.0	9.0	n/a	n/a	ITI	s627
123.135	2.093	1	PA_with_intermediate	0,0,0,1,2,0,0,0,0	test	ward_and_allport	0,0,0,1,3,0,2,0,0	71.0	10.0	2.093	0,0,0,1,2,3,0,0,0	to_hand	s627
125.229	0.433	0	PA_with_intermediate	3,0,0,1,2,0,0,0,0	test	ward_and_allport	0,0,0,1,3,0,2,0,0	89.0	10.0	0.433	0,0,0,1,2,3,0,0,0	to_board	s627
125.664	0.35	0	PA_with_intermediate	3,0,0,1,0,0,0,0,0	test	ward_and_allport	0,0,0,1,3,0,2,0,0	71.0	10.0	0.35	0,0,0,1,2,3,0,0,0	to_hand	s627
126.015	0.358	0	PA_with_intermediate	3,0,0,1,0,0,2,0,0	test	ward_and_allport	0,0,0,1,3,0,2,0,0	82.0	10.0	0.358	0,0,0,1,2,3,0,0,0	to_board	s627
126.377	0.379	0	PA_with_intermediate	0,0,0,1,0,0,2,0,0	test	ward_and_allport	0,0,0,1,3,0,2,0,0	89.0	10.0	0.379	0,0,0,1,2,3,0,0,0	to_hand	s627
126.756	0.378	0	PA_with_intermediate	0,0,0,1,3,0,2,0,0	test	ward_and_allport	0,0,0,1,3,0,2,0,0	71.0	10.0	0.378	0,0,0,1,2,3,0,0,0	to_board	s627
127.142	1.0	0	PA_with_intermediate	n/a	test	ward_and_allport	n/a	-1.0	10.0	n/a	n/a	feedback	s627
128.142	1.408	0	PA_with_intermediate	n/a	test	ward_and_allport	n/a	-1.0	10.0	n/a	n/a	ITI	s627
129.553	3.111	1	PA_without_intermediate	0,0,0,1,2,0,0,0,0	test	ward_and_allport	2,0,0,0,0,0,3,1,0	71.0	11.0	3.111	0,0,0,1,2,3,0,0,0	to_hand	s627
132.664	0.824	0	PA_without_intermediate	0,0,0,1,2,0,3,0,0	test	ward_and_allport	2,0,0,0,0,0,3,1,0	82.0	11.0	0.824	0,0,0,1,2,3,0,0,0	to_board	s627
133.492	0.701	0	PA_without_intermediate	0,0,0,1,0,0,3,0,0	test	ward_and_allport	2,0,0,0,0,0,3,1,0	71.0	11.0	0.701	0,0,0,1,2,3,0,0,0	to_hand	s627
134.194	0.358	0	PA_without_intermediate	2,0,0,1,0,0,3,0,0	test	ward_and_allport	2,0,0,0,0,0,3,1,0	89.0	11.0	0.358	0,0,0,1,2,3,0,0,0	to_board	s627
134.554	0.387	0	PA_without_intermediate	2,0,0,0,0,0,3,0,0	test	ward_and_allport	2,0,0,0,0,0,3,1,0	71.0	11.0	0.387	0,0,0,1,2,3,0,0,0	to_hand	s627
134.942	0.338	0	PA_without_intermediate	2,0,0,0,0,0,3,1,0	test	ward_and_allport	2,0,0,0,0,0,3,1,0	82.0	11.0	0.338	0,0,0,1,2,3,0,0,0	to_board	s627
135.288	1.0	0	PA_without_intermediate	n/a	test	ward_and_allport	n/a	-1.0	11.0	n/a	n/a	feedback	s627
136.288	1.816	0	PA_without_intermediate	n/a	test	ward_and_allport	n/a	-1.0	11.0	n/a	n/a	ITI	s627
138.108	1.968	1	PA_with_intermediate	0,0,0,1,2,0,0,0,0	test	ward_and_allport	2,3,0,1,0,0,0,0,0	71.0	12.0	1.968	0,0,0,1,2,3,0,0,0	to_hand	s627
140.077	0.551	0	PA_with_intermediate	0,0,0,1,2,0,3,0,0	test	ward_and_allport	2,3,0,1,0,0,0,0,0	82.0	12.0	0.551	0,0,0,1,2,3,0,0,0	to_board	s627
140.632	0.352	0	PA_with_intermediate	0,0,0,1,0,0,3,0,0	test	ward_and_allport	2,3,0,1,0,0,0,0,0	71.0	12.0	0.352	0,0,0,1,2,3,0,0,0	to_hand	s627
140.985	0.348	0	PA_with_intermediate	2,0,0,1,0,0,3,0,0	test	ward_and_allport	2,3,0,1,0,0,0,0,0	89.0	12.0	0.348	0,0,0,1,2,3,0,0,0	to_board	s627
141.337	0.438	0	PA_with_intermediate	2,0,0,1,0,0,0,0,0	test	ward_and_allport	2,3,0,1,0,0,0,0,0	82.0	12.0	0.438	0,0,0,1,2,3,0,0,0	to_hand	s627
141.776	0.945	0	PA_with_intermediate	2,3,0,1,0,0,0,0,0	test	ward_and_allport	2,3,0,1,0,0,0,0,0	89.0	12.0	0.945	0,0,0,1,2,3,0,0,0	to_board	s627
142.726	1.0	0	PA_with_intermediate	n/a	test	ward_and_allport	n/a	-1.0	12.0	n/a	n/a	feedback	s627
143.726	3.176	0	PA_with_intermediate	n/a	test	ward_and_allport	n/a	-1.0	12.0	n/a	n/a	ITI	s627
146.907	3.78	1	PA_with_intermediate	1,2,0,0,0,0,0,0,0	test	ward_and_allport	1,0,0,2,3,0,0,0,0	89.0	13.0	3.78	1,2,3,0,0,0,0,0,0	to_hand	s627
150.688	0.587	0	PA_with_intermediate	1,2,0,0,0,0,3,0,0	test	ward_and_allport	1,0,0,2,3,0,0,0,0	82.0	13.0	0.587	1,2,3,0,0,0,0,0,0	to_board	s627
151.279	0.943	0	PA_with_intermediate	1,0,0,0,0,0,3,0,0	test	ward_and_allport	1,0,0,2,3,0,0,0,0	89.0	13.0	0.943	1,2,3,0,0,0,0,0,0	to_hand	s627
152.223	0.495	0	PA_with_intermediate	1,0,0,2,0,0,3,0,0	test	ward_and_allport	1,0,0,2,3,0,0,0,0	71.0	13.0	0.495	1,2,3,0,0,0,0,0,0	to_board	s627
152.722	0.418	0	PA_with_intermediate	1,0,0,2,0,0,0,0,0	test	ward_and_allport	1,0,0,2,3,0,0,0,0	82.0	13.0	0.418	1,2,3,0,0,0,0,0,0	to_hand	s627
153.141	0.445	0	PA_with_intermediate	1,0,0,2,3,0,0,0,0	test	ward_and_allport	1,0,0,2,3,0,0,0,0	71.0	13.0	0.445	1,2,3,0,0,0,0,0,0	to_board	s627
153.593	1.0	0	PA_with_intermediate	n/a	test	ward_and_allport	n/a	-1.0	13.0	n/a	n/a	feedback	s627
154.593	2.36	0	PA_with_intermediate	n/a	test	ward_and_allport	n/a	-1.0	13.0	n/a	n/a	ITI	s627
156.956	2.175	1	PA_with_intermediate	1,2,0,0,0,0,0,0,0	test	ward_and_allport	1,3,0,0,0,0,2,0,0	89.0	14.0	2.175	1,2,3,0,0,0,0,0,0	to_hand	s627
159.132	0.524	0	PA_with_intermediate	1,2,0,3,0,0,0,0,0	test	ward_and_allport	1,3,0,0,0,0,2,0,0	71.0	14.0	0.524	1,2,3,0,0,0,0,0,0	to_board	s627
159.66	0.449	0	PA_with_intermediate	1,0,0,3,0,0,0,0,0	test	ward_and_allport	1,3,0,0,0,0,2,0,0	89.0	14.0	0.449	1,2,3,0,0,0,0,0,0	to_hand	s627
160.11	0.47	0	PA_with_intermediate	1,0,0,3,0,0,2,0,0	test	ward_and_allport	1,3,0,0,0,0,2,0,0	82.0	14.0	0.47	1,2,3,0,0,0,0,0,0	to_board	s627
160.583	0.39	0	PA_with_intermediate	1,0,0,0,0,0,2,0,0	test	ward_and_allport	1,3,0,0,0,0,2,0,0	71.0	14.0	0.39	1,2,3,0,0,0,0,0,0	to_hand	s627
160.975	0.299	0	PA_with_intermediate	1,3,0,0,0,0,2,0,0	test	ward_and_allport	1,3,0,0,0,0,2,0,0	89.0	14.0	0.299	1,2,3,0,0,0,0,0,0	to_board	s627
161.278	1.0	0	PA_with_intermediate	n/a	test	ward_and_allport	n/a	-1.0	14.0	n/a	n/a	feedback	s627
162.278	1.0	0	PA_with_intermediate	n/a	test	ward_and_allport	n/a	-1.0	14.0	n/a	n/a	ITI	s627
168.285	3.109	1	PA_without_intermediate	1,2,0,0,0,0,0,0,0	test	ward_and_allport	0,0,0,2,0,0,3,1,0	89.0	15.0	3.109	1,2,3,0,0,0,0,0,0	to_hand	s627
171.396	0.494	0	PA_without_intermediate	1,2,0,0,0,0,3,0,0	test	ward_and_allport	0,0,0,2,0,0,3,1,0	82.0	15.0	0.494	1,2,3,0,0,0,0,0,0	to_board	s627
171.896	0.424	0	PA_without_intermediate	1,0,0,0,0,0,3,0,0	test	ward_and_allport	0,0,0,2,0,0,3,1,0	89.0	15.0	0.424	1,2,3,0,0,0,0,0,0	to_hand	s627
172.32	0.382	0	PA_without_intermediate	1,0,0,2,0,0,3,0,0	test	ward_and_allport	0,0,0,2,0,0,3,1,0	71.0	15.0	0.382	1,2,3,0,0,0,0,0,0	to_board	s627
172.707	0.447	0	PA_without_intermediate	0,0,0,2,0,0,3,0,0	test	ward_and_allport	0,0,0,2,0,0,3,1,0	89.0	15.0	0.447	1,2,3,0,0,0,0,0,0	to_hand	s627
173.155	0.39	0	PA_without_intermediate	0,0,0,2,0,0,3,1,0	test	ward_and_allport	0,0,0,2,0,0,3,1,0	82.0	15.0	0.39	1,2,3,0,0,0,0,0,0	to_board	s627
173.551	1.0	0	PA_without_intermediate	n/a	test	ward_and_allport	n/a	-1.0	15.0	n/a	n/a	feedback	s627
174.551	1.408	0	PA_without_intermediate	n/a	test	ward_and_allport	n/a	-1.0	15.0	n/a	n/a	ITI	s627
175.964	2.432	1	PA_with_intermediate	1,2,0,0,0,0,0,0,0	test	ward_and_allport	1,0,0,0,0,0,2,3,0	89.0	16.0	2.432	1,2,3,0,0,0,0,0,0	to_hand	s627
178.397	0.526	0	PA_with_intermediate	1,2,0,3,0,0,0,0,0	test	ward_and_allport	1,0,0,0,0,0,2,3,0	71.0	16.0	0.526	1,2,3,0,0,0,0,0,0	to_board	s627
178.927	0.391	0	PA_with_intermediate	1,0,0,3,0,0,0,0,0	test	ward_and_allport	1,0,0,0,0,0,2,3,0	89.0	16.0	0.391	1,2,3,0,0,0,0,0,0	to_hand	s627
179.319	0.375	0	PA_with_intermediate	1,0,0,3,0,0,2,0,0	test	ward_and_allport	1,0,0,0,0,0,2,3,0	82.0	16.0	0.375	1,2,3,0,0,0,0,0,0	to_board	s627
179.698	0.418	0	PA_with_intermediate	1,0,0,0,0,0,2,0,0	test	ward_and_allport	1,0,0,0,0,0,2,3,0	71.0	16.0	0.418	1,2,3,0,0,0,0,0,0	to_hand	s627
180.117	0.332	0	PA_with_intermediate	1,0,0,0,0,0,2,3,0	test	ward_and_allport	1,0,0,0,0,0,2,3,0	82.0	16.0	0.332	1,2,3,0,0,0,0,0,0	to_board	s627
180.457	1.0	0	PA_with_intermediate	n/a	test	ward_and_allport	n/a	-1.0	16.0	n/a	n/a	feedback	s627
181.457	1.816	0	PA_with_intermediate	n/a	test	ward_and_allport	n/a	-1.0	16.0	n/a	n/a	ITI	s627
183.276	2.89	1	PA_without_intermediate	0,0,0,0,0,0,1,2,0	test	ward_and_allport	3,2,0,1,0,0,0,0,0	82.0	17.0	2.89	0,0,0,0,0,0,1,2,3	to_hand	s627
186.168	0.494	0	PA_without_intermediate	3,0,0,0,0,0,1,2,0	test	ward_and_allport	3,2,0,1,0,0,0,0,0	89.0	17.0	0.494	0,0,0,0,0,0,1,2,3	to_board	s627
186.666	0.389	0	PA_without_intermediate	3,0,0,0,0,0,1,0,0	test	ward_and_allport	3,2,0,1,0,0,0,0,0	82.0	17.0	0.389	0,0,0,0,0,0,1,2,3	to_hand	s627
187.057	0.639	0	PA_without_intermediate	3,2,0,0,0,0,1,0,0	test	ward_and_allport	3,2,0,1,0,0,0,0,0	89.0	17.0	0.639	0,0,0,0,0,0,1,2,3	to_board	s627
187.7	0.766	0	PA_without_intermediate	3,2,0,0,0,0,0,0,0	test	ward_and_allport	3,2,0,1,0,0,0,0,0	82.0	17.0	0.766	0,0,0,0,0,0,1,2,3	to_hand	s627
188.467	0.336	0	PA_without_intermediate	3,2,0,1,0,0,0,0,0	test	ward_and_allport	3,2,0,1,0,0,0,0,0	71.0	17.0	0.336	0,0,0,0,0,0,1,2,3	to_board	s627
188.809	1.0	0	PA_without_intermediate	n/a	test	ward_and_allport	n/a	-1.0	17.0	n/a	n/a	feedback	s627
189.809	2.088	0	PA_without_intermediate	n/a	test	ward_and_allport	n/a	-1.0	17.0	n/a	n/a	ITI	s627
191.901	2.595	1	PA_without_intermediate	0,0,0,0,0,0,1,2,0	test	ward_and_allport	3,1,0,2,0,0,0,0,0	82.0	18.0	2.595	0,0,0,0,0,0,1,2,3	to_hand	s627
194.496	0.606	0	PA_without_intermediate	3,0,0,0,0,0,1,2,0	test	ward_and_allport	3,1,0,2,0,0,0,0,0	89.0	18.0	0.606	0,0,0,0,0,0,1,2,3	to_board	s627
195.106	1.086	0	PA_without_intermediate	3,0,0,0,0,0,1,0,0	test	ward_and_allport	3,1,0,2,0,0,0,0,0	82.0	18.0	1.086	0,0,0,0,0,0,1,2,3	to_hand	s627
196.194	0.473	0	PA_without_intermediate	3,0,0,2,0,0,1,0,0	test	ward_and_allport	3,1,0,2,0,0,0,0,0	71.0	18.0	0.473	0,0,0,0,0,0,1,2,3	to_board	s627
196.671	0.945	0	PA_without_intermediate	3,0,0,2,0,0,0,0,0	test	ward_and_allport	3,1,0,2,0,0,0,0,0	82.0	18.0	0.945	0,0,0,0,0,0,1,2,3	to_hand	s627
197.617	0.357	0	PA_without_intermediate	3,1,0,2,0,0,0,0,0	test	ward_and_allport	3,1,0,2,0,0,0,0,0	89.0	18.0	0.357	0,0,0,0,0,0,1,2,3	to_board	s627
197.98	1.0	0	PA_without_intermediate	n/a	test	ward_and_allport	n/a	-1.0	18.0	n/a	n/a	feedback	s627
198.98	1.136	0	PA_without_intermediate	n/a	test	ward_and_allport	n/a	-1.0	18.0	n/a	n/a	ITI	s627
200.12	1.899	1	PA_without_intermediate	0,0,0,1,2,0,0,0,0	test	ward_and_allport	3,1,0,0,0,0,2,0,0	71.0	19.0	1.899	0,0,0,1,2,3,0,0,0	to_hand	s627
202.02	0.551	0	PA_without_intermediate	3,0,0,1,2,0,0,0,0	test	ward_and_allport	3,1,0,0,0,0,2,0,0	89.0	19.0	0.551	0,0,0,1,2,3,0,0,0	to_board	s627
202.576	0.64	0	PA_without_intermediate	3,0,0,1,0,0,0,0,0	test	ward_and_allport	3,1,0,0,0,0,2,0,0	71.0	19.0	0.64	0,0,0,1,2,3,0,0,0	to_hand	s627
203.216	0.433	0	PA_without_intermediate	3,0,0,1,0,0,2,0,0	test	ward_and_allport	3,1,0,0,0,0,2,0,0	82.0	19.0	0.433	0,0,0,1,2,3,0,0,0	to_board	s627
203.653	0.419	0	PA_without_intermediate	3,0,0,0,0,0,2,0,0	test	ward_and_allport	3,1,0,0,0,0,2,0,0	71.0	19.0	0.419	0,0,0,1,2,3,0,0,0	to_hand	s627
204.074	0.273	0	PA_without_intermediate	3,1,0,0,0,0,2,0,0	test	ward_and_allport	3,1,0,0,0,0,2,0,0	89.0	19.0	0.273	0,0,0,1,2,3,0,0,0	to_board	s627
204.357	1.0	0	PA_without_intermediate	n/a	test	ward_and_allport	n/a	-1.0	19.0	n/a	n/a	feedback	s627
205.357	6.168	0	PA_without_intermediate	n/a	test	ward_and_allport	n/a	-1.0	19.0	n/a	n/a	ITI	s627
211.529	2.853	1	PA_without_intermediate	0,0,0,1,2,0,0,0,0	test	ward_and_allport	2,0,0,0,0,0,3,1,0	71.0	20.0	2.853	0,0,0,1,2,3,0,0,0	to_hand	s627
214.383	0.665	0	PA_without_intermediate	0,0,0,1,2,0,3,0,0	test	ward_and_allport	2,0,0,0,0,0,3,1,0	82.0	20.0	0.665	0,0,0,1,2,3,0,0,0	to_board	s627
215.052	0.51	0	PA_without_intermediate	0,0,0,1,0,0,3,0,0	test	ward_and_allport	2,0,0,0,0,0,3,1,0	71.0	20.0	0.51	0,0,0,1,2,3,0,0,0	to_hand	s627
215.564	0.384	0	PA_without_intermediate	2,0,0,1,0,0,3,0,0	test	ward_and_allport	2,0,0,0,0,0,3,1,0	89.0	20.0	0.384	0,0,0,1,2,3,0,0,0	to_board	s627
215.953	0.401	0	PA_without_intermediate	2,0,0,0,0,0,3,0,0	test	ward_and_allport	2,0,0,0,0,0,3,1,0	71.0	20.0	0.401	0,0,0,1,2,3,0,0,0	to_hand	s627
216.355	0.276	0	PA_without_intermediate	2,0,0,0,0,0,3,1,0	test	ward_and_allport	2,0,0,0,0,0,3,1,0	82.0	20.0	0.276	0,0,0,1,2,3,0,0,0	to_board	s627
216.64	1.0	0	PA_without_intermediate	n/a	test	ward_and_allport	n/a	-1.0	20.0	n/a	n/a	feedback	s627
217.64	1.816	0	PA_without_intermediate	n/a	test	ward_and_allport	n/a	-1.0	20.0	n/a	n/a	ITI	s627
219.46	2.253	1	PA_with_intermediate	0,0,0,1,2,0,0,0,0	test	ward_and_allport	0,0,0,1,0,0,2,3,0	71.0	21.0	2.253	0,0,0,1,2,3,0,0,0	to_hand	s627
221.713	0.442	0	PA_with_intermediate	3,0,0,1,2,0,0,0,0	test	ward_and_allport	0,0,0,1,0,0,2,3,0	89.0	21.0	0.442	0,0,0,1,2,3,0,0,0	to_board	s627
222.161	0.411	0	PA_with_intermediate	3,0,0,1,0,0,0,0,0	test	ward_and_allport	0,0,0,1,0,0,2,3,0	71.0	21.0	0.411	0,0,0,1,2,3,0,0,0	to_hand	s627
222.572	0.336	0	PA_with_intermediate	3,0,0,1,0,0,2,0,0	test	ward_and_allport	0,0,0,1,0,0,2,3,0	82.0	21.0	0.336	0,0,0,1,2,3,0,0,0	to_board	s627
222.914	0.838	0	PA_with_intermediate	0,0,0,1,0,0,2,0,0	test	ward_and_allport	0,0,0,1,0,0,2,3,0	89.0	21.0	0.838	0,0,0,1,2,3,0,0,0	to_hand	s627
223.752	0.417	0	PA_with_intermediate	0,0,0,1,0,0,2,3,0	test	ward_and_allport	0,0,0,1,0,0,2,3,0	82.0	21.0	0.417	0,0,0,1,2,3,0,0,0	to_board	s627
224.177	1.0	0	PA_with_intermediate	n/a	test	ward_and_allport	n/a	-1.0	21.0	n/a	n/a	feedback	s627
225.177	1.952	0	PA_with_intermediate	n/a	test	ward_and_allport	n/a	-1.0	21.0	n/a	n/a	ITI	s627
227.135	2.691	1	PA_with_intermediate	0,0,0,1,2,0,0,0,0	test	ward_and_allport	2,3,0,1,0,0,0,0,0	71.0	22.0	2.691	0,0,0,1,2,3,0,0,0	to_hand	s627
229.826	0.384	0	PA_with_intermediate	0,0,0,1,2,0,3,0,0	test	ward_and_allport	2,3,0,1,0,0,0,0,0	82.0	22.0	0.384	0,0,0,1,2,3,0,0,0	to_board	s627
230.216	0.393	0	PA_with_intermediate	0,0,0,1,0,0,3,0,0	test	ward_and_allport	2,3,0,1,0,0,0,0,0	71.0	22.0	0.393	0,0,0,1,2,3,0,0,0	to_hand	s627
230.609	0.352	0	PA_with_intermediate	2,0,0,1,0,0,3,0,0	test	ward_and_allport	2,3,0,1,0,0,0,0,0	89.0	22.0	0.352	0,0,0,1,2,3,0,0,0	to_board	s627
230.967	0.431	0	PA_with_intermediate	2,0,0,1,0,0,0,0,0	test	ward_and_allport	2,3,0,1,0,0,0,0,0	82.0	22.0	0.431	0,0,0,1,2,3,0,0,0	to_hand	s627
231.398	0.283	0	PA_with_intermediate	2,3,0,1,0,0,0,0,0	test	ward_and_allport	2,3,0,1,0,0,0,0,0	89.0	22.0	0.283	0,0,0,1,2,3,0,0,0	to_board	s627
231.688	1.0	0	PA_with_intermediate	n/a	test	ward_and_allport	n/a	-1.0	22.0	n/a	n/a	feedback	s627
232.688	1.136	0	PA_with_intermediate	n/a	test	ward_and_allport	n/a	-1.0	22.0	n/a	n/a	ITI	s627
233.83	2.222	1	PA_without_intermediate	0,0,0,0,0,0,1,2,0	test	ward_and_allport	3,1,0,2,0,0,0,0,0	82.0	23.0	2.222	0,0,0,0,0,0,1,2,3	to_hand	s627
236.054	0.432	0	PA_without_intermediate	3,0,0,0,0,0,1,2,0	test	ward_and_allport	3,1,0,2,0,0,0,0,0	89.0	23.0	0.432	0,0,0,0,0,0,1,2,3	to_board	s627
236.491	0.497	0	PA_without_intermediate	3,0,0,0,0,0,1,0,0	test	ward_and_allport	3,1,0,2,0,0,0,0,0	82.0	23.0	0.497	0,0,0,0,0,0,1,2,3	to_hand	s627
236.989	0.775	0	PA_without_intermediate	3,0,0,2,0,0,1,0,0	test	ward_and_allport	3,1,0,2,0,0,0,0,0	71.0	23.0	0.775	0,0,0,0,0,0,1,2,3	to_board	s627
237.77	1.986	0	PA_without_intermediate	3,0,0,2,0,0,0,0,0	test	ward_and_allport	3,1,0,2,0,0,0,0,0	82.0	23.0	1.986	0,0,0,0,0,0,1,2,3	to_hand	s627
239.757	0.288	0	PA_without_intermediate	3,1,0,2,0,0,0,0,0	test	ward_and_allport	3,1,0,2,0,0,0,0,0	89.0	23.0	0.288	0,0,0,0,0,0,1,2,3	to_board	s627
240.051	1.0	0	PA_without_intermediate	n/a	test	ward_and_allport	n/a	-1.0	23.0	n/a	n/a	feedback	s627
241.051	1.68	0	PA_without_intermediate	n/a	test	ward_and_allport	n/a	-1.0	23.0	n/a	n/a	ITI	s627
242.737	2.46	1	PA_without_intermediate	0,0,0,1,2,0,0,0,0	test	ward_and_allport	3,2,0,0,0,0,1,0,0	71.0	24.0	2.46	0,0,0,1,2,3,0,0,0	to_hand	s627
245.198	0.344	0	PA_without_intermediate	3,0,0,1,2,0,0,0,0	test	ward_and_allport	3,2,0,0,0,0,1,0,0	89.0	24.0	0.344	0,0,0,1,2,3,0,0,0	to_board	s627
245.548	0.352	0	PA_without_intermediate	3,0,0,1,0,0,0,0,0	test	ward_and_allport	3,2,0,0,0,0,1,0,0	71.0	24.0	0.352	0,0,0,1,2,3,0,0,0	to_hand	s627
245.9	0.298	0	PA_without_intermediate	3,2,0,1,0,0,0,0,0	test	ward_and_allport	3,2,0,0,0,0,1,0,0	89.0	24.0	0.298	0,0,0,1,2,3,0,0,0	to_board	s627
246.204	0.398	0	PA_without_intermediate	3,2,0,0,0,0,0,0,0	test	ward_and_allport	3,2,0,0,0,0,1,0,0	71.0	24.0	0.398	0,0,0,1,2,3,0,0,0	to_hand	s627
246.603	0.313	0	PA_without_intermediate	3,2,0,0,0,0,1,0,0	test	ward_and_allport	3,2,0,0,0,0,1,0,0	82.0	24.0	0.313	0,0,0,1,2,3,0,0,0	to_board	s627
246.923	1.0	0	PA_without_intermediate	n/a	test	ward_and_allport	n/a	-1.0	24.0	n/a	n/a	feedback	s627
247.923	2.088	0	PA_without_intermediate	n/a	test	ward_and_allport	n/a	-1.0	24.0	n/a	n/a	ITI	s627
250.017	2.019	1	PA_with_intermediate	0,0,0,0,0,0,1,2,0	test	ward_and_allport	0,0,0,2,0,0,1,3,0	82.0	25.0	2.019	0,0,0,0,0,0,1,2,3	to_hand	s627
252.037	0.91	0	PA_with_intermediate	3,0,0,0,0,0,1,2,0	test	ward_and_allport	0,0,0,2,0,0,1,3,0	89.0	25.0	0.91	0,0,0,0,0,0,1,2,3	to_board	s627
252.953	0.895	0	PA_with_intermediate	3,0,0,0,0,0,1,0,0	test	ward_and_allport	0,0,0,2,0,0,1,3,0	82.0	25.0	0.895	0,0,0,0,0,0,1,2,3	to_hand	s627
253.849	0.827	0	PA_with_intermediate	3,0,0,2,0,0,1,0,0	test	ward_and_allport	0,0,0,2,0,0,1,3,0	71.0	25.0	0.827	0,0,0,0,0,0,1,2,3	to_board	s627
254.682	0.414	0	PA_with_intermediate	0,0,0,2,0,0,1,0,0	test	ward_and_allport	0,0,0,2,0,0,1,3,0	89.0	25.0	0.414	0,0,0,0,0,0,1,2,3	to_hand	s627
255.097	0.362	0	PA_with_intermediate	0,0,0,2,0,0,1,3,0	test	ward_and_allport	0,0,0,2,0,0,1,3,0	82.0	25.0	0.362	0,0,0,0,0,0,1,2,3	to_board	s627
255.467	1.0	0	PA_with_intermediate	n/a	test	ward_and_allport	n/a	-1.0	25.0	n/a	n/a	feedback	s627
256.467	1.0	0	PA_with_intermediate	n/a	test	ward_and_allport	n/a	-1.0	25.0	n/a	n/a	ITI	s627
257.473	3.473	1	PA_without_intermediate	1,2,0,0,0,0,0,0,0	test	ward_and_allport	0,0,0,1,0,0,3,2,0	89.0	26.0	3.473	1,2,3,0,0,0,0,0,0	to_hand	s627
260.947	0.539	0	PA_without_intermediate	1,2,0,0,0,0,3,0,0	test	ward_and_allport	0,0,0,1,0,0,3,2,0	82.0	26.0	0.539	1,2,3,0,0,0,0,0,0	to_board	s627
261.492	0.487	0	PA_without_intermediate	1,0,0,0,0,0,3,0,0	test	ward_and_allport	0,0,0,1,0,0,3,2,0	89.0	26.0	0.487	1,2,3,0,0,0,0,0,0	to_hand	s627
261.98	0.617	0	PA_without_intermediate	1,0,0,0,0,0,3,2,0	test	ward_and_allport	0,0,0,1,0,0,3,2,0	82.0	26.0	0.617	1,2,3,0,0,0,0,0,0	to_board	s627
262.603	0.481	0	PA_without_intermediate	0,0,0,0,0,0,3,2,0	test	ward_and_allport	0,0,0,1,0,0,3,2,0	89.0	26.0	0.481	1,2,3,0,0,0,0,0,0	to_hand	s627
263.085	0.367	0	PA_without_intermediate	0,0,0,1,0,0,3,2,0	test	ward_and_allport	0,0,0,1,0,0,3,2,0	71.0	26.0	0.367	1,2,3,0,0,0,0,0,0	to_board	s627
263.462	1.0	0	PA_without_intermediate	n/a	test	ward_and_allport	n/a	-1.0	26.0	n/a	n/a	feedback	s627
264.462	1.0	0	PA_without_intermediate	n/a	test	ward_and_allport	n/a	-1.0	26.0	n/a	n/a	ITI	s627
265.468	1.974	1	PA_without_intermediate	0,0,0,0,0,0,1,2,0	test	ward_and_allport	1,0,0,3,2,0,0,0,0	82.0	27.0	1.974	0,0,0,0,0,0,1,2,3	to_hand	s627
267.444	0.707	0	PA_without_intermediate	0,0,0,3,0,0,1,2,0	test	ward_and_allport	1,0,0,3,2,0,0,0,0	71.0	27.0	0.707	0,0,0,0,0,0,1,2,3	to_board	s627
268.157	0.606	0	PA_without_intermediate	0,0,0,3,0,0,1,0,0	test	ward_and_allport	1,0,0,3,2,0,0,0,0	82.0	27.0	0.606	0,0,0,0,0,0,1,2,3	to_hand	s627
268.764	0.397	0	PA_without_intermediate	0,0,0,3,2,0,1,0,0	test	ward_and_allport	1,0,0,3,2,0,0,0,0	71.0	27.0	0.397	0,0,0,0,0,0,1,2,3	to_board	s627
269.168	0.392	0	PA_without_intermediate	0,0,0,3,2,0,0,0,0	test	ward_and_allport	1,0,0,3,2,0,0,0,0	82.0	27.0	0.392	0,0,0,0,0,0,1,2,3	to_hand	s627
269.56	0.283	0	PA_without_intermediate	1,0,0,3,2,0,0,0,0	test	ward_and_allport	1,0,0,3,2,0,0,0,0	89.0	27.0	0.283	0,0,0,0,0,0,1,2,3	to_board	s627
269.852	1.0	0	PA_without_intermediate	n/a	test	ward_and_allport	n/a	-1.0	27.0	n/a	n/a	feedback	s627
270.852	1.0	0	PA_without_intermediate	n/a	test	ward_and_allport	n/a	-1.0	27.0	n/a	n/a	ITI	s627
271.858	1.809	1	PA_with_intermediate	0,0,0,0,0,0,1,2,0	test	ward_and_allport	0,0,0,2,3,0,1,0,0	82.0	28.0	1.809	0,0,0,0,0,0,1,2,3	to_hand	s627
273.668	2.273	0	PA_with_intermediate	3,0,0,0,0,0,1,2,0	test	ward_and_allport	0,0,0,2,3,0,1,0,0	89.0	28.0	2.273	0,0,0,0,0,0,1,2,3	to_board	s627
275.946	0.514	0	PA_with_intermediate	3,0,0,0,0,0,1,0,0	test	ward_and_allport	0,0,0,2,3,0,1,0,0	82.0	28.0	0.514	0,0,0,0,0,0,1,2,3	to_hand	s627
276.462	0.454	0	PA_with_intermediate	3,0,0,2,0,0,1,0,0	test	ward_and_allport	0,0,0,2,3,0,1,0,0	71.0	28.0	0.454	0,0,0,0,0,0,1,2,3	to_board	s627
276.923	0.388	0	PA_with_intermediate	0,0,0,2,0,0,1,0,0	test	ward_and_allport	0,0,0,2,3,0,1,0,0	89.0	28.0	0.388	0,0,0,0,0,0,1,2,3	to_hand	s627
277.312	0.515	0	PA_with_intermediate	0,0,0,2,3,0,1,0,0	test	ward_and_allport	0,0,0,2,3,0,1,0,0	71.0	28.0	0.515	0,0,0,0,0,0,1,2,3	to_board	s627
277.836	1.0	0	PA_with_intermediate	n/a	test	ward_and_allport	n/a	-1.0	28.0	n/a	n/a	feedback	s627
278.836	1.544	0	PA_with_intermediate	n/a	test	ward_and_allport	n/a	-1.0	28.0	n/a	n/a	ITI	s627
280.387	2.161	1	PA_without_intermediate	1,2,0,0,0,0,0,0,0	test	ward_and_allport	0,0,0,3,1,0,2,0,0	89.0	29.0	2.161	1,2,3,0,0,0,0,0,0	to_hand	s627
282.549	0.435	0	PA_without_intermediate	1,2,0,3,0,0,0,0,0	test	ward_and_allport	0,0,0,3,1,0,2,0,0	71.0	29.0	0.435	1,2,3,0,0,0,0,0,0	to_board	s627
282.991	0.338	0	PA_without_intermediate	1,0,0,3,0,0,0,0,0	test	ward_and_allport	0,0,0,3,1,0,2,0,0	89.0	29.0	0.338	1,2,3,0,0,0,0,0,0	to_hand	s627
283.331	0.368	0	PA_without_intermediate	1,0,0,3,0,0,2,0,0	test	ward_and_allport	0,0,0,3,1,0,2,0,0	82.0	29.0	0.368	1,2,3,0,0,0,0,0,0	to_board	s627
283.704	0.411	0	PA_without_intermediate	0,0,0,3,0,0,2,0,0	test	ward_and_allport	0,0,0,3,1,0,2,0,0	89.0	29.0	0.411	1,2,3,0,0,0,0,0,0	to_hand	s627
284.117	0.356	0	PA_without_intermediate	0,0,0,3,1,0,2,0,0	test	ward_and_allport	0,0,0,3,1,0,2,0,0	71.0	29.0	0.356	1,2,3,0,0,0,0,0,0	to_board	s627
284.483	1.0	0	PA_without_intermediate	n/a	test	ward_and_allport	n/a	-1.0	29.0	n/a	n/a	feedback	s627
285.483	1.272	0	PA_without_intermediate	n/a	test	ward_and_allport	n/a	-1.0	29.0	n/a	n/a	ITI	s627
291.766	2.666	1	PA_with_intermediate	0,0,0,0,0,0,1,2,0	test	ward_and_allport	2,3,0,0,0,0,1,0,0	82.0	30.0	2.666	0,0,0,0,0,0,1,2,3	to_hand	s627
294.433	0.434	0	PA_with_intermediate	0,0,0,3,0,0,1,2,0	test	ward_and_allport	2,3,0,0,0,0,1,0,0	71.0	30.0	0.434	0,0,0,0,0,0,1,2,3	to_board	s627
294.873	0.362	0	PA_with_intermediate	0,0,0,3,0,0,1,0,0	test	ward_and_allport	2,3,0,0,0,0,1,0,0	82.0	30.0	0.362	0,0,0,0,0,0,1,2,3	to_hand	s627
295.237	0.334	0	PA_with_intermediate	2,0,0,3,0,0,1,0,0	test	ward_and_allport	2,3,0,0,0,0,1,0,0	89.0	30.0	0.334	0,0,0,0,0,0,1,2,3	to_board	s627
295.576	0.345	0	PA_with_intermediate	2,0,0,0,0,0,1,0,0	test	ward_and_allport	2,3,0,0,0,0,1,0,0	71.0	30.0	0.345	0,0,0,0,0,0,1,2,3	to_hand	s627
295.922	0.263	0	PA_with_intermediate	2,3,0,0,0,0,1,0,0	test	ward_and_allport	2,3,0,0,0,0,1,0,0	89.0	30.0	0.263	0,0,0,0,0,0,1,2,3	to_board	s627
296.196	1.0	0	PA_with_intermediate	n/a	test	ward_and_allport	n/a	-1.0	30.0	n/a	n/a	feedback	s627
297.196	3.04	0	PA_with_intermediate	n/a	test	ward_and_allport	n/a	-1.0	30.0	n/a	n/a	ITI	s627
300.244	2.974	1	PA_with_intermediate	1,2,0,0,0,0,0,0,0	test	ward_and_allport	1,3,0,2,0,0,0,0,0	89.0	31.0	2.974	1,2,3,0,0,0,0,0,0	to_hand	s627
303.219	1.007	0	PA_with_intermediate	1,2,0,0,0,0,3,0,0	test	ward_and_allport	1,3,0,2,0,0,0,0,0	82.0	31.0	1.007	1,2,3,0,0,0,0,0,0	to_board	s627
304.233	0.452	0	PA_with_intermediate	1,0,0,0,0,0,3,0,0	test	ward_and_allport	1,3,0,2,0,0,0,0,0	89.0	31.0	0.452	1,2,3,0,0,0,0,0,0	to_hand	s627
304.686	0.386	0	PA_with_intermediate	1,0,0,2,0,0,3,0,0	test	ward_and_allport	1,3,0,2,0,0,0,0,0	71.0	31.0	0.386	1,2,3,0,0,0,0,0,0	to_board	s627
305.079	0.356	0	PA_with_intermediate	1,0,0,2,0,0,0,0,0	test	ward_and_allport	1,3,0,2,0,0,0,0,0	82.0	31.0	0.356	1,2,3,0,0,0,0,0,0	to_hand	s627
305.436	0.261	0	PA_with_intermediate	1,3,0,2,0,0,0,0,0	test	ward_and_allport	1,3,0,2,0,0,0,0,0	89.0	31.0	0.261	1,2,3,0,0,0,0,0,0	to_board	s627
305.709	1.0	0	PA_with_intermediate	n/a	test	ward_and_allport	n/a	-1.0	31.0	n/a	n/a	feedback	s627
306.709	1.272	0	PA_with_intermediate	n/a	test	ward_and_allport	n/a	-1.0	31.0	n/a	n/a	ITI	s627
307.988	2.354	1	PA_with_intermediate	1,2,0,0,0,0,0,0,0	test	ward_and_allport	1,3,0,0,0,0,2,0,0	89.0	32.0	2.354	1,2,3,0,0,0,0,0,0	to_hand	s627
310.343	0.762	0	PA_with_intermediate	1,2,0,3,0,0,0,0,0	test	ward_and_allport	1,3,0,0,0,0,2,0,0	71.0	32.0	0.762	1,2,3,0,0,0,0,0,0	to_board	s627
311.112	0.327	0	PA_with_intermediate	1,0,0,3,0,0,0,0,0	test	ward_and_allport	1,3,0,0,0,0,2,0,0	89.0	32.0	0.327	1,2,3,0,0,0,0,0,0	to_hand	s627
311.441	0.327	0	PA_with_intermediate	1,0,0,3,0,0,2,0,0	test	ward_and_allport	1,3,0,0,0,0,2,0,0	82.0	32.0	0.327	1,2,3,0,0,0,0,0,0	to_board	s627
311.775	0.337	0	PA_with_intermediate	1,0,0,0,0,0,2,0,0	test	ward_and_allport	1,3,0,0,0,0,2,0,0	71.0	32.0	0.337	1,2,3,0,0,0,0,0,0	to_hand	s627
312.113	0.241	0	PA_with_intermediate	1,3,0,0,0,0,2,0,0	test	ward_and_allport	1,3,0,0,0,0,2,0,0	89.0	32.0	0.241	1,2,3,0,0,0,0,0,0	to_board	s627
312.362	1.0	0	PA_with_intermediate	n/a	test	ward_and_allport	n/a	-1.0	32.0	n/a	n/a	feedback	s627
313.362	1.136	0	PA_with_intermediate	n/a	test	ward_and_allport	n/a	-1.0	32.0	n/a	n/a	ITI	s627
314.505	2.381	1	PA_with_intermediate	1,2,0,0,0,0,0,0,0	test	ward_and_allport	1,0,0,2,3,0,0,0,0	89.0	33.0	2.381	1,2,3,0,0,0,0,0,0	to_hand	s627
316.887	0.431	0	PA_with_intermediate	1,2,0,0,0,0,3,0,0	test	ward_and_allport	1,0,0,2,3,0,0,0,0	82.0	33.0	0.431	1,2,3,0,0,0,0,0,0	to_board	s627
317.325	0.327	0	PA_with_intermediate	1,0,0,0,0,0,3,0,0	test	ward_and_allport	1,0,0,2,3,0,0,0,0	89.0	33.0	0.327	1,2,3,0,0,0,0,0,0	to_hand	s627
317.653	0.653	0	PA_with_intermediate	1,0,0,2,0,0,3,0,0	test	ward_and_allport	1,0,0,2,3,0,0,0,0	71.0	33.0	0.653	1,2,3,0,0,0,0,0,0	to_board	s627
318.313	0.369	0	PA_with_intermediate	1,0,0,2,0,0,0,0,0	test	ward_and_allport	1,0,0,2,3,0,0,0,0	82.0	33.0	0.369	1,2,3,0,0,0,0,0,0	to_hand	s627
318.682	0.356	0	PA_with_intermediate	1,0,0,2,3,0,0,0,0	test	ward_and_allport	1,0,0,2,3,0,0,0,0	71.0	33.0	0.356	1,2,3,0,0,0,0,0,0	to_board	s627
319.048	1.0	0	PA_with_intermediate	n/a	test	ward_and_allport	n/a	-1.0	33.0	n/a	n/a	feedback	s627
320.048	1.0	0	PA_with_intermediate	n/a	test	ward_and_allport	n/a	-1.0	33.0	n/a	n/a	ITI	s627
321.056	3.136	1	PA_with_intermediate	1,2,0,0,0,0,0,0,0	test	ward_and_allport	1,3,0,2,0,0,0,0,0	89.0	34.0	3.136	1,2,3,0,0,0,0,0,0	to_hand	s627
324.193	0.375	0	PA_with_intermediate	1,2,0,0,0,0,3,0,0	test	ward_and_allport	1,3,0,2,0,0,0,0,0	82.0	34.0	0.375	1,2,3,0,0,0,0,0,0	to_board	s627
324.576	0.378	0	PA_with_intermediate	1,0,0,0,0,0,3,0,0	test	ward_and_allport	1,3,0,2,0,0,0,0,0	89.0	34.0	0.378	1,2,3,0,0,0,0,0,0	to_hand	s627
324.955	0.318	0	PA_with_intermediate	1,0,0,2,0,0,3,0,0	test	ward_and_allport	1,3,0,2,0,0,0,0,0	71.0	34.0	0.318	1,2,3,0,0,0,0,0,0	to_board	s627
325.282	0.338	0	PA_with_intermediate	1,0,0,2,0,0,0,0,0	test	ward_and_allport	1,3,0,2,0,0,0,0,0	82.0	34.0	0.338	1,2,3,0,0,0,0,0,0	to_hand	s627
325.621	0.294	0	PA_with_intermediate	1,3,0,2,0,0,0,0,0	test	ward_and_allport	1,3,0,2,0,0,0,0,0	89.0	34.0	0.294	1,2,3,0,0,0,0,0,0	to_board	s627
325.928	1.0	0	PA_with_intermediate	n/a	test	ward_and_allport	n/a	-1.0	34.0	n/a	n/a	feedback	s627
326.928	1.0	0	PA_with_intermediate	n/a	test	ward_and_allport	n/a	-1.0	34.0	n/a	n/a	ITI	s627
327.934	2.196	1	PA_without_intermediate	1,2,0,0,0,0,0,0,0	test	ward_and_allport	0,0,0,3,2,0,1,0,0	89.0	35.0	2.196	1,2,3,0,0,0,0,0,0	to_hand	s627
330.131	0.376	0	PA_without_intermediate	1,2,0,3,0,0,0,0,0	test	ward_and_allport	0,0,0,3,2,0,1,0,0	71.0	35.0	0.376	1,2,3,0,0,0,0,0,0	to_board	s627
330.512	0.294	0	PA_without_intermediate	1,0,0,3,0,0,0,0,0	test	ward_and_allport	0,0,0,3,2,0,1,0,0	89.0	35.0	0.294	1,2,3,0,0,0,0,0,0	to_hand	s627
330.808	0.295	0	PA_without_intermediate	1,0,0,3,2,0,0,0,0	test	ward_and_allport	0,0,0,3,2,0,1,0,0	71.0	35.0	0.295	1,2,3,0,0,0,0,0,0	to_board	s627
331.109	0.319	0	PA_without_intermediate	0,0,0,3,2,0,0,0,0	test	ward_and_allport	0,0,0,3,2,0,1,0,0	89.0	35.0	0.319	1,2,3,0,0,0,0,0,0	to_hand	s627
331.428	0.349	0	PA_without_intermediate	0,0,0,3,2,0,1,0,0	test	ward_and_allport	0,0,0,3,2,0,1,0,0	82.0	35.0	0.349	1,2,3,0,0,0,0,0,0	to_board	s627
331.785	1.0	0	PA_without_intermediate	n/a	test	ward_and_allport	n/a	-1.0	35.0	n/a	n/a	feedback	s627
332.785	1.408	0	PA_without_intermediate	n/a	test	ward_and_allport	n/a	-1.0	35.0	n/a	n/a	ITI	s627
334.198	2.612	1	PA_with_intermediate	0,0,0,0,0,0,1,2,0	test	ward_and_allport	0,0,0,2,0,0,1,3,0	82.0	36.0	2.612	0,0,0,0,0,0,1,2,3	to_hand	s627
336.811	0.309	0	PA_with_intermediate	3,0,0,0,0,0,1,2,0	test	ward_and_allport	0,0,0,2,0,0,1,3,0	89.0	36.0	0.309	0,0,0,0,0,0,1,2,3	to_board	s627
337.125	0.39	0	PA_with_intermediate	3,0,0,0,0,0,1,0,0	test	ward_and_allport	0,0,0,2,0,0,1,3,0	82.0	36.0	0.39	0,0,0,0,0,0,1,2,3	to_hand	s627
337.516	0.367	0	PA_with_intermediate	3,0,0,2,0,0,1,0,0	test	ward_and_allport	0,0,0,2,0,0,1,3,0	71.0	36.0	0.367	0,0,0,0,0,0,1,2,3	to_board	s627
337.892	0.337	0	PA_with_intermediate	0,0,0,2,0,0,1,0,0	test	ward_and_allport	0,0,0,2,0,0,1,3,0	89.0	36.0	0.337	0,0,0,0,0,0,1,2,3	to_hand	s627
338.229	0.326	0	PA_with_intermediate	0,0,0,2,0,0,1,3,0	test	ward_and_allport	0,0,0,2,0,0,1,3,0	82.0	36.0	0.326	0,0,0,0,0,0,1,2,3	to_board	s627
338.571	1.0	0	PA_with_intermediate	n/a	test	ward_and_allport	n/a	-1.0	36.0	n/a	n/a	feedback	s627
339.571	2.768	0	PA_with_intermediate	n/a	test	ward_and_allport	n/a	-1.0	36.0	n/a	n/a	ITI	s627
342.346	2.239	1	PA_with_intermediate	0,0,0,0,0,0,1,2,0	test	ward_and_allport	2,3,0,0,0,0,1,0,0	82.0	37.0	2.239	0,0,0,0,0,0,1,2,3	to_hand	s627
344.586	0.45	0	PA_with_intermediate	0,0,0,3,0,0,1,2,0	test	ward_and_allport	2,3,0,0,0,0,1,0,0	71.0	37.0	0.45	0,0,0,0,0,0,1,2,3	to_board	s627
345.041	0.331	0	PA_with_intermediate	0,0,0,3,0,0,1,0,0	test	ward_and_allport	2,3,0,0,0,0,1,0,0	82.0	37.0	0.331	0,0,0,0,0,0,1,2,3	to_hand	s627
345.374	0.372	0	PA_with_intermediate	2,0,0,3,0,0,1,0,0	test	ward_and_allport	2,3,0,0,0,0,1,0,0	89.0	37.0	0.372	0,0,0,0,0,0,1,2,3	to_board	s627
345.754	0.514	0	PA_with_intermediate	2,0,0,0,0,0,1,0,0	test	ward_and_allport	2,3,0,0,0,0,1,0,0	71.0	37.0	0.514	0,0,0,0,0,0,1,2,3	to_hand	s627
346.269	0.305	0	PA_with_intermediate	2,3,0,0,0,0,1,0,0	test	ward_and_allport	2,3,0,0,0,0,1,0,0	89.0	37.0	0.305	0,0,0,0,0,0,1,2,3	to_board	s627
346.587	1.0	0	PA_with_intermediate	n/a	test	ward_and_allport	n/a	-1.0	37.0	n/a	n/a	feedback	s627
347.587	1.68	0	PA_with_intermediate	n/a	test	ward_and_allport	n/a	-1.0	37.0	n/a	n/a	ITI	s627
349.275	2.722	1	PA_without_intermediate	0,0,0,1,2,0,0,0,0	test	ward_and_allport	1,0,0,0,0,0,3,2,0	71.0	38.0	2.722	0,0,0,1,2,3,0,0,0	to_hand	s627
351.999	0.337	0	PA_without_intermediate	0,0,0,1,2,0,3,0,0	test	ward_and_allport	1,0,0,0,0,0,3,2,0	82.0	38.0	0.337	0,0,0,1,2,3,0,0,0	to_board	s627
352.342	0.699	0	PA_without_intermediate	0,0,0,1,0,0,3,0,0	test	ward_and_allport	1,0,0,0,0,0,3,2,0	71.0	38.0	0.699	0,0,0,1,2,3,0,0,0	to_hand	s627
353.042	0.316	0	PA_without_intermediate	0,0,0,1,0,0,3,2,0	test	ward_and_allport	1,0,0,0,0,0,3,2,0	82.0	38.0	0.316	0,0,0,1,2,3,0,0,0	to_board	s627
353.365	0.698	0	PA_without_intermediate	0,0,0,0,0,0,3,2,0	test	ward_and_allport	1,0,0,0,0,0,3,2,0	71.0	38.0	0.698	0,0,0,1,2,3,0,0,0	to_hand	s627
354.064	0.24	0	PA_without_intermediate	1,0,0,0,0,0,3,2,0	test	ward_and_allport	1,0,0,0,0,0,3,2,0	89.0	38.0	0.24	0,0,0,1,2,3,0,0,0	to_board	s627
354.316	1.0	0	PA_without_intermediate	n/a	test	ward_and_allport	n/a	-1.0	38.0	n/a	n/a	feedback	s627
355.316	2.224	0	PA_without_intermediate	n/a	test	ward_and_allport	n/a	-1.0	38.0	n/a	n/a	ITI	s627
357.547	1.122	1	PA_without_intermediate	0,0,0,1,2,0,0,0,0	test	ward_and_allport	1,0,0,0,0,0,3,2,0	71.0	39.0	1.122	0,0,0,1,2,3,0,0,0	to_hand	s627
358.671	0.399	0	PA_without_intermediate	0,0,0,1,2,0,3,0,0	test	ward_and_allport	1,0,0,0,0,0,3,2,0	82.0	39.0	0.399	0,0,0,1,2,3,0,0,0	to_board	s627
359.076	0.301	0	PA_without_intermediate	0,0,0,1,0,0,3,0,0	test	ward_and_allport	1,0,0,0,0,0,3,2,0	71.0	39.0	0.301	0,0,0,1,2,3,0,0,0	to_hand	s627
359.377	0.412	0	PA_without_intermediate	0,0,0,1,0,0,3,2,0	test	ward_and_allport	1,0,0,0,0,0,3,2,0	82.0	39.0	0.412	0,0,0,1,2,3,0,0,0	to_board	s627
359.796	0.588	0	PA_without_intermediate	0,0,0,0,0,0,3,2,0	test	ward_and_allport	1,0,0,0,0,0,3,2,0	71.0	39.0	0.588	0,0,0,1,2,3,0,0,0	to_hand	s627
360.384	0.242	0	PA_without_intermediate	1,0,0,0,0,0,3,2,0	test	ward_and_allport	1,0,0,0,0,0,3,2,0	89.0	39.0	0.242	0,0,0,1,2,3,0,0,0	to_board	s627
360.633	1.0	0	PA_without_intermediate	n/a	test	ward_and_allport	n/a	-1.0	39.0	n/a	n/a	feedback	s627
361.633	2.36	0	PA_without_intermediate	n/a	test	ward_and_allport	n/a	-1.0	39.0	n/a	n/a	ITI	s627
363.999	2.346	1	PA_without_intermediate	1,2,0,0,0,0,0,0,0	test	ward_and_allport	0,0,0,3,2,0,1,0,0	89.0	40.0	2.346	1,2,3,0,0,0,0,0,0	to_hand	s627
366.346	0.399	0	PA_without_intermediate	1,2,0,3,0,0,0,0,0	test	ward_and_allport	0,0,0,3,2,0,1,0,0	71.0	40.0	0.399	1,2,3,0,0,0,0,0,0	to_board	s627
366.752	0.497	0	PA_without_intermediate	1,0,0,3,0,0,0,0,0	test	ward_and_allport	0,0,0,3,2,0,1,0,0	89.0	40.0	0.497	1,2,3,0,0,0,0,0,0	to_hand	s627
367.251	0.364	0	PA_without_intermediate	1,0,0,3,2,0,0,0,0	test	ward_and_allport	0,0,0,3,2,0,1,0,0	71.0	40.0	0.364	1,2,3,0,0,0,0,0,0	to_board	s627
367.623	0.311	0	PA_without_intermediate	0,0,0,3,2,0,0,0,0	test	ward_and_allport	0,0,0,3,2,0,1,0,0	89.0	40.0	0.311	1,2,3,0,0,0,0,0,0	to_hand	s627
367.934	0.257	0	PA_without_intermediate	0,0,0,3,2,0,1,0,0	test	ward_and_allport	0,0,0,3,2,0,1,0,0	82.0	40.0	0.257	1,2,3,0,0,0,0,0,0	to_board	s627
368.204	1.0	0	PA_without_intermediate	n/a	test	ward_and_allport	n/a	-1.0	40.0	n/a	n/a	feedback	s627
369.204	1.0	0	PA_without_intermediate	n/a	test	ward_and_allport	n/a	-1.0	40.0	n/a	n/a	ITI	s627
370.21	2.878	1	PA_without_intermediate	0,0,0,0,0,0,1,2,0	test	ward_and_allport	2,0,0,3,1,0,0,0,0	82.0	41.0	2.878	0,0,0,0,0,0,1,2,3	to_hand	s627
373.09	0.507	0	PA_without_intermediate	0,0,0,3,0,0,1,2,0	test	ward_and_allport	2,0,0,3,1,0,0,0,0	71.0	41.0	0.507	0,0,0,0,0,0,1,2,3	to_board	s627
373.603	0.434	0	PA_without_intermediate	0,0,0,3,0,0,1,0,0	test	ward_and_allport	2,0,0,3,1,0,0,0,0	82.0	41.0	0.434	0,0,0,0,0,0,1,2,3	to_hand	s627
374.039	0.374	0	PA_without_intermediate	2,0,0,3,0,0,1,0,0	test	ward_and_allport	2,0,0,3,1,0,0,0,0	89.0	41.0	0.374	0,0,0,0,0,0,1,2,3	to_board	s627
374.422	0.525	0	PA_without_intermediate	2,0,0,3,0,0,0,0,0	test	ward_and_allport	2,0,0,3,1,0,0,0,0	82.0	41.0	0.525	0,0,0,0,0,0,1,2,3	to_hand	s627
374.948	0.406	0	PA_without_intermediate	2,0,0,3,1,0,0,0,0	test	ward_and_allport	2,0,0,3,1,0,0,0,0	71.0	41.0	0.406	0,0,0,0,0,0,1,2,3	to_board	s627
375.367	1.0	0	PA_without_intermediate	n/a	test	ward_and_allport	n/a	-1.0	41.0	n/a	n/a	feedback	s627
376.367	1.408	0	PA_without_intermediate	n/a	test	ward_and_allport	n/a	-1.0	41.0	n/a	n/a	ITI	s627
377.782	1.943	1	PA_with_intermediate	0,0,0,1,2,0,0,0,0	test	ward_and_allport	0,0,0,1,3,0,2,0,0	71.0	42.0	1.943	0,0,0,1,2,3,0,0,0	to_hand	s627
379.726	0.367	0	PA_with_intermediate	3,0,0,1,2,0,0,0,0	test	ward_and_allport	0,0,0,1,3,0,2,0,0	89.0	42.0	0.367	0,0,0,1,2,3,0,0,0	to_board	s627
380.099	0.281	0	PA_with_intermediate	3,0,0,1,0,0,0,0,0	test	ward_and_allport	0,0,0,1,3,0,2,0,0	71.0	42.0	0.281	0,0,0,1,2,3,0,0,0	to_hand	s627
380.38	0.355	0	PA_with_intermediate	3,0,0,1,0,0,2,0,0	test	ward_and_allport	0,0,0,1,3,0,2,0,0	82.0	42.0	0.355	0,0,0,1,2,3,0,0,0	to_board	s627
380.742	0.339	0	PA_with_intermediate	0,0,0,1,0,0,2,0,0	test	ward_and_allport	0,0,0,1,3,0,2,0,0	89.0	42.0	0.339	0,0,0,1,2,3,0,0,0	to_hand	s627
381.082	0.309	0	PA_with_intermediate	0,0,0,1,3,0,2,0,0	test	ward_and_allport	0,0,0,1,3,0,2,0,0	71.0	42.0	0.309	0,0,0,1,2,3,0,0,0	to_board	s627
381.399	1.0	0	PA_with_intermediate	n/a	test	ward_and_allport	n/a	-1.0	42.0	n/a	n/a	feedback	s627
382.399	1.136	0	PA_with_intermediate	n/a	test	ward_and_allport	n/a	-1.0	42.0	n/a	n/a	ITI	s627
383.542	1.454	1	PA_without_intermediate	0,0,0,1,2,0,0,0,0	test	ward_and_allport	3,2,0,0,0,0,1,0,0	71.0	43.0	1.454	0,0,0,1,2,3,0,0,0	to_hand	s627
384.997	0.417	0	PA_without_intermediate	3,0,0,1,2,0,0,0,0	test	ward_and_allport	3,2,0,0,0,0,1,0,0	89.0	43.0	0.417	0,0,0,1,2,3,0,0,0	to_board	s627
385.42	0.362	0	PA_without_intermediate	3,0,0,1,0,0,0,0,0	test	ward_and_allport	3,2,0,0,0,0,1,0,0	71.0	43.0	0.362	0,0,0,1,2,3,0,0,0	to_hand	s627
385.782	0.327	0	PA_without_intermediate	3,2,0,1,0,0,0,0,0	test	ward_and_allport	3,2,0,0,0,0,1,0,0	89.0	43.0	0.327	0,0,0,1,2,3,0,0,0	to_board	s627
386.116	0.373	0	PA_without_intermediate	3,2,0,0,0,0,0,0,0	test	ward_and_allport	3,2,0,0,0,0,1,0,0	71.0	43.0	0.373	0,0,0,1,2,3,0,0,0	to_hand	s627
386.491	0.296	0	PA_without_intermediate	3,2,0,0,0,0,1,0,0	test	ward_and_allport	3,2,0,0,0,0,1,0,0	82.0	43.0	0.296	0,0,0,1,2,3,0,0,0	to_board	s627
386.797	1.0	0	PA_without_intermediate	n/a	test	ward_and_allport	n/a	-1.0	43.0	n/a	n/a	feedback	s627
387.797	4.128	0	PA_without_intermediate	n/a	test	ward_and_allport	n/a	-1.0	43.0	n/a	n/a	ITI	s627
391.93	1.493	1	PA_without_intermediate	1,2,0,0,0,0,0,0,0	test	ward_and_allport	0,0,0,2,0,0,3,1,0	89.0	44.0	1.493	1,2,3,0,0,0,0,0,0	to_hand	s627
393.424	0.489	0	PA_without_intermediate	1,2,0,0,0,0,3,0,0	test	ward_and_allport	0,0,0,2,0,0,3,1,0	82.0	44.0	0.489	1,2,3,0,0,0,0,0,0	to_board	s627
393.922	0.788	0	PA_without_intermediate	1,0,0,0,0,0,3,0,0	test	ward_and_allport	0,0,0,2,0,0,3,1,0	89.0	44.0	0.788	1,2,3,0,0,0,0,0,0	to_hand	s627
394.711	0.361	0	PA_without_intermediate	1,0,0,2,0,0,3,0,0	test	ward_and_allport	0,0,0,2,0,0,3,1,0	71.0	44.0	0.361	1,2,3,0,0,0,0,0,0	to_board	s627
395.081	0.306	0	PA_without_intermediate	0,0,0,2,0,0,3,0,0	test	ward_and_allport	0,0,0,2,0,0,3,1,0	89.0	44.0	0.306	1,2,3,0,0,0,0,0,0	to_hand	s627
395.388	0.333	0	PA_without_intermediate	0,0,0,2,0,0,3,1,0	test	ward_and_allport	0,0,0,2,0,0,3,1,0	82.0	44.0	0.333	1,2,3,0,0,0,0,0,0	to_board	s627
395.736	1.0	0	PA_without_intermediate	n/a	test	ward_and_allport	n/a	-1.0	44.0	n/a	n/a	feedback	s627
396.736	1.136	0	PA_without_intermediate	n/a	test	ward_and_allport	n/a	-1.0	44.0	n/a	n/a	ITI	s627
402.88	1.458	1	PA_without_intermediate	0,0,0,0,0,0,1,2,0	test	ward_and_allport	2,0,0,3,1,0,0,0,0	82.0	45.0	1.458	0,0,0,0,0,0,1,2,3	to_hand	s627
404.339	0.474	0	PA_without_intermediate	0,0,0,3,0,0,1,2,0	test	ward_and_allport	2,0,0,3,1,0,0,0,0	71.0	45.0	0.474	0,0,0,0,0,0,1,2,3	to_board	s627
404.822	0.595	0	PA_without_intermediate	0,0,0,3,0,0,1,0,0	test	ward_and_allport	2,0,0,3,1,0,0,0,0	82.0	45.0	0.595	0,0,0,0,0,0,1,2,3	to_hand	s627
405.418	0.414	0	PA_without_intermediate	2,0,0,3,0,0,1,0,0	test	ward_and_allport	2,0,0,3,1,0,0,0,0	89.0	45.0	0.414	0,0,0,0,0,0,1,2,3	to_board	s627
405.842	0.415	0	PA_without_intermediate	2,0,0,3,0,0,0,0,0	test	ward_and_allport	2,0,0,3,1,0,0,0,0	82.0	45.0	0.415	0,0,0,0,0,0,1,2,3	to_hand	s627
406.258	0.32	0	PA_without_intermediate	2,0,0,3,1,0,0,0,0	test	ward_and_allport	2,0,0,3,1,0,0,0,0	71.0	45.0	0.32	0,0,0,0,0,0,1,2,3	to_board	s627
406.592	1.0	0	PA_without_intermediate	n/a	test	ward_and_allport	n/a	-1.0	45.0	n/a	n/a	feedback	s627
407.592	4.264	0	PA_without_intermediate	n/a	test	ward_and_allport	n/a	-1.0	45.0	n/a	n/a	ITI	s627
411.866	2.501	1	PA_with_intermediate	0,0,0,1,2,0,0,0,0	test	ward_and_allport	2,0,0,1,3,0,0,0,0	71.0	46.0	2.501	0,0,0,1,2,3,0,0,0	to_hand	s627
414.368	0.385	0	PA_with_intermediate	0,0,0,1,2,0,3,0,0	test	ward_and_allport	2,0,0,1,3,0,0,0,0	82.0	46.0	0.385	0,0,0,1,2,3,0,0,0	to_board	s627
414.763	0.32	0	PA_with_intermediate	0,0,0,1,0,0,3,0,0	test	ward_and_allport	2,0,0,1,3,0,0,0,0	71.0	46.0	0.32	0,0,0,1,2,3,0,0,0	to_hand	s627
415.085	0.348	0	PA_with_intermediate	2,0,0,1,0,0,3,0,0	test	ward_and_allport	2,0,0,1,3,0,0,0,0	89.0	46.0	0.348	0,0,0,1,2,3,0,0,0	to_board	s627
415.443	0.555	0	PA_with_intermediate	2,0,0,1,0,0,0,0,0	test	ward_and_allport	2,0,0,1,3,0,0,0,0	82.0	46.0	0.555	0,0,0,1,2,3,0,0,0	to_hand	s627
415.999	0.333	0	PA_with_intermediate	2,0,0,1,3,0,0,0,0	test	ward_and_allport	2,0,0,1,3,0,0,0,0	71.0	46.0	0.333	0,0,0,1,2,3,0,0,0	to_board	s627
416.344	1.0	0	PA_with_intermediate	n/a	test	ward_and_allport	n/a	-1.0	46.0	n/a	n/a	feedback	s627
417.344	3.04	0	PA_with_intermediate	n/a	test	ward_and_allport	n/a	-1.0	46.0	n/a	n/a	ITI	s627
420.391	1.441	1	PA_with_intermediate	0,0,0,0,0,0,1,2,0	test	ward_and_allport	0,0,0,2,3,0,1,0,0	82.0	47.0	1.441	0,0,0,0,0,0,1,2,3	to_hand	s627
421.833	0.511	0	PA_with_intermediate	3,0,0,0,0,0,1,2,0	test	ward_and_allport	0,0,0,2,3,0,1,0,0	89.0	47.0	0.511	0,0,0,0,0,0,1,2,3	to_board	s627
422.351	0.561	0	PA_with_intermediate	3,0,0,0,0,0,1,0,0	test	ward_and_allport	0,0,0,2,3,0,1,0,0	82.0	47.0	0.561	0,0,0,0,0,0,1,2,3	to_hand	s627
422.914	0.422	0	PA_with_intermediate	3,0,0,2,0,0,1,0,0	test	ward_and_allport	0,0,0,2,3,0,1,0,0	71.0	47.0	0.422	0,0,0,0,0,0,1,2,3	to_board	s627
423.346	0.312	0	PA_with_intermediate	0,0,0,2,0,0,1,0,0	test	ward_and_allport	0,0,0,2,3,0,1,0,0	89.0	47.0	0.312	0,0,0,0,0,0,1,2,3	to_hand	s627
423.66	0.333	0	PA_with_intermediate	0,0,0,2,3,0,1,0,0	test	ward_and_allport	0,0,0,2,3,0,1,0,0	71.0	47.0	0.333	0,0,0,0,0,0,1,2,3	to_board	s627
424.008	1.0	0	PA_with_intermediate	n/a	test	ward_and_allport	n/a	-1.0	47.0	n/a	n/a	feedback	s627
425.008	1.136	0	PA_with_intermediate	n/a	test	ward_and_allport	n/a	-1.0	47.0	n/a	n/a	ITI	s627
n/a	n/a	0	n/a	n/a	n/a	n/a	n/a	n/a	n/a	n/a	n/a	ITI	n/a
