onset	duration	EV	action	clicked_on_loss_card	experiment_exp_id	gain_amount	gain_probability	key_press	loss_amount	loss_probability	num_cards	num_click_in_round	num_loss_cards	risk	response_time	total_cards	trial_id	worker_id
3.013	5.181	-0.3150782029364831	draw_card	0.0	columbia_card_task_fmri	12.0	0.8333333333333334	89.0	-70.0	0.1666666666666666	6.0	1.0	1.0	-2.3638453653668208	5.181	n/a	stim	s627
8.196	2.514	-3.048411536269816	draw_card	0.0	columbia_card_task_fmri	12.0	0.8	89.0	-70.0	0.2	6.0	2.0	1.0	-0.1254798351632899	2.514	n/a	stim	s627
10.711	1.746	-7.148411536269817	draw_card	0.0	columbia_card_task_fmri	12.0	0.75	89.0	-70.0	0.25	6.0	3.0	1.0	2.579441143551371	1.746	n/a	stim	s627
12.458	1.635	-13.98174486960315	draw_card	0.0	columbia_card_task_fmri	12.0	0.6666666666666667	89.0	-70.0	0.3333333333333333	6.0	4.0	1.0	5.725477361276504	1.635	n/a	stim	s627
14.094	1.722	-27.648411536269816	end_round	0.0	columbia_card_task_fmri	12.0	0.5	71.0	-70.0	0.5	6.0	5.0	1.0	8.068956441006819	1.722	4.0	stim	s627
15.82	2.25	n/a	-1.0	n/a	columbia_card_task_fmri	n/a	n/a	-1.0	n/a	n/a	n/a	n/a	n/a	n/a	n/a	n/a	feedback	s627
18.07	0.0	n/a	-1.0	n/a	columbia_card_task_fmri	n/a	n/a	-1.0	n/a	n/a	n/a	n/a	n/a	n/a	n/a	n/a	ITI	s627
18.072	5.811	0.5182551303968508	draw_card	0.0	columbia_card_task_fmri	14.0	0.8333333333333334	89.0	-75.0	0.1666666666666666	6.0	1.0	1.0	0.2425529682408083	5.811	n/a	stim	s627
23.886	1.528	-2.448411536269816	draw_card	0.0	columbia_card_task_fmri	14.0	0.8	89.0	-75.0	0.2	6.0	2.0	1.0	2.6723324898753447	1.528	n/a	stim	s627
25.415	1.365	-6.898411536269817	draw_card	0.0	columbia_card_task_fmri	14.0	0.75	89.0	-75.0	0.25	6.0	3.0	1.0	5.60850882111324	1.365	n/a	stim	s627
26.781	1.5	-14.315078202936483	end_round	0.0	columbia_card_task_fmri	14.0	0.6666666666666667	71.0	-75.0	0.3333333333333333	6.0	4.0	1.0	9.023452092481136	1.5	3.0	stim	s627
28.287	2.25	n/a	-1.0	n/a	columbia_card_task_fmri	n/a	n/a	-1.0	n/a	n/a	n/a	n/a	n/a	n/a	n/a	n/a	feedback	s627
30.537	0.136	n/a	-1.0	n/a	columbia_card_task_fmri	n/a	n/a	-1.0	n/a	n/a	n/a	n/a	n/a	n/a	n/a	n/a	ITI	s627
30.674	4.477	2.1849217970635166	draw_card	0.0	columbia_card_task_fmri	15.0	0.8333333333333334	89.0	-70.0	0.1666666666666666	6.0	1.0	1.0	-1.2468647911120383	4.477	n/a	stim	s627
35.152	1.891	-0.6484115362698171	draw_card	1.0	columbia_card_task_fmri	15.0	0.8	89.0	-70.0	0.2	6.0	2.0	1.0	1.073538520749132	1.891	2.0	stim	s627
37.049	2.25	n/a	-1.0	n/a	columbia_card_task_fmri	n/a	n/a	-1.0	n/a	n/a	n/a	n/a	n/a	n/a	n/a	n/a	feedback	s627
39.299	0.34	n/a	-1.0	n/a	columbia_card_task_fmri	n/a	n/a	-1.0	n/a	n/a	n/a	n/a	n/a	n/a	n/a	n/a	ITI	s627
39.639	2.156	3.0182551303968506	draw_card	0.0	columbia_card_task_fmri	17.0	0.8333333333333334	89.0	-75.0	0.1666666666666666	6.0	1.0	1.0	1.3596900537491408	2.156	n/a	stim	s627
41.797	1.372	-0.0484115362698156	draw_card	0.0	columbia_card_task_fmri	17.0	0.8	89.0	-75.0	0.2	6.0	2.0	1.0	3.871496716905732	1.372	n/a	stim	s627
43.171	2.173	-4.648411536269817	end_round	0.0	columbia_card_task_fmri	17.0	0.75	71.0	-75.0	0.25	6.0	3.0	1.0	6.906774754457594	2.173	2.0	stim	s627
45.345	2.25	n/a	-1.0	n/a	columbia_card_task_fmri	n/a	n/a	-1.0	n/a	n/a	n/a	n/a	n/a	n/a	n/a	n/a	feedback	s627
47.595	0.408	n/a	-1.0	n/a	columbia_card_task_fmri	n/a	n/a	-1.0	n/a	n/a	n/a	n/a	n/a	n/a	n/a	n/a	ITI	s627
48.005	5.535	4.351588463730183	draw_card	0.0	columbia_card_task_fmri	24.0	0.75	89.0	-60.0	0.25	8.0	1.0	2.0	3.4448547118467943	5.535	n/a	stim	s627
53.541	1.976	1.351588463730183	draw_card	0.0	columbia_card_task_fmri	24.0	0.7142857142857143	89.0	-60.0	0.2857142857142857	8.0	2.0	2.0	5.018078929456031	1.976	n/a	stim	s627
55.519	1.206	-2.6484115362698173	draw_card	0.0	columbia_card_task_fmri	24.0	0.6666666666666667	89.0	-60.0	0.3333333333333333	8.0	3.0	2.0	6.66772430300373	1.206	n/a	stim	s627
56.727	0.888	-8.248411536269819	draw_card	1.0	columbia_card_task_fmri	24.0	0.6	89.0	-60.0	0.4	8.0	4.0	2.0	8.220302208625426	0.888	4.0	stim	s627
57.621	2.25	n/a	-1.0	n/a	columbia_card_task_fmri	n/a	n/a	-1.0	n/a	n/a	n/a	n/a	n/a	n/a	n/a	n/a	feedback	s627
59.871	0.136	n/a	-1.0	n/a	columbia_card_task_fmri	n/a	n/a	-1.0	n/a	n/a	n/a	n/a	n/a	n/a	n/a	n/a	ITI	s627
60.008	2.252	4.351588463730183	draw_card	0.0	columbia_card_task_fmri	29.0	0.75	89.0	-75.0	0.25	8.0	1.0	2.0	12.100283641222497	2.252	n/a	stim	s627
62.261	0.908	0.6373027494444712	draw_card	1.0	columbia_card_task_fmri	29.0	0.7142857142857143	89.0	-75.0	0.2857142857142857	8.0	2.0	2.0	14.048532703397392	0.908	2.0	stim	s627
63.173	2.25	n/a	-1.0	n/a	columbia_card_task_fmri	n/a	n/a	-1.0	n/a	n/a	n/a	n/a	n/a	n/a	n/a	n/a	feedback	s627
65.423	0.136	n/a	-1.0	n/a	columbia_card_task_fmri	n/a	n/a	-1.0	n/a	n/a	n/a	n/a	n/a	n/a	n/a	n/a	ITI	s627
65.56	4.072	0.1293662415079632	draw_card	0.0	columbia_card_task_fmri	17.0	0.7777777777777778	89.0	-65.0	0.2222222222222222	9.0	1.0	2.0	1.1641233555763932	4.072	n/a	stim	s627
69.633	1.272	-2.1484115362698173	draw_card	0.0	columbia_card_task_fmri	17.0	0.75	89.0	-65.0	0.25	9.0	2.0	2.0	2.579441143551371	1.272	n/a	stim	s627
70.906	1.046	-5.076982964841244	draw_card	0.0	columbia_card_task_fmri	17.0	0.7142857142857143	89.0	-65.0	0.2857142857142857	9.0	3.0	2.0	4.115157530221815	1.046	n/a	stim	s627
71.953	1.946	-8.981744869603148	draw_card	0.0	columbia_card_task_fmri	17.0	0.6666666666666667	89.0	-65.0	0.3333333333333333	9.0	4.0	2.0	5.725477361276504	1.946	n/a	stim	s627
73.9	1.485	-14.448411536269818	end_round	0.0	columbia_card_task_fmri	17.0	0.6	71.0	-65.0	0.4	9.0	5.0	2.0	7.241047228182253	1.485	4.0	stim	s627
75.39	2.25	n/a	-1.0	n/a	columbia_card_task_fmri	n/a	n/a	-1.0	n/a	n/a	n/a	n/a	n/a	n/a	n/a	n/a	feedback	s627
77.64	0.0	n/a	-1.0	n/a	columbia_card_task_fmri	n/a	n/a	-1.0	n/a	n/a	n/a	n/a	n/a	n/a	n/a	n/a	ITI	s627
77.642	2.672	4.451588463730182	draw_card	0.0	columbia_card_task_fmri	14.0	0.9	89.0	-95.0	0.1	10.0	1.0	1.0	-0.2253947834588316	2.672	n/a	stim	s627
80.314	1.428	3.24047735261907	draw_card	0.0	columbia_card_task_fmri	14.0	0.8888888888888888	89.0	-95.0	0.1111111111111111	10.0	2.0	1.0	1.3287336414764752	1.428	n/a	stim	s627
81.744	1.001	1.726588463730183	draw_card	0.0	columbia_card_task_fmri	14.0	0.875	89.0	-95.0	0.125	10.0	3.0	1.0	3.1203753250362354	1.001	n/a	stim	s627
82.747	0.998	-0.2198401076983882	draw_card	1.0	columbia_card_task_fmri	14.0	0.8571428571428572	89.0	-95.0	0.1428571428571428	10.0	4.0	1.0	5.212678807316159	0.998	4.0	stim	s627
83.749	2.25	n/a	-1.0	n/a	columbia_card_task_fmri	n/a	n/a	-1.0	n/a	n/a	n/a	n/a	n/a	n/a	n/a	n/a	feedback	s627
85.999	0.068	n/a	-1.0	n/a	columbia_card_task_fmri	n/a	n/a	-1.0	n/a	n/a	n/a	n/a	n/a	n/a	n/a	n/a	ITI	s627
86.068	4.367	0.3515884637301829	draw_card	0.0	columbia_card_task_fmri	15.0	0.8	89.0	-65.0	0.2	10.0	1.0	2.0	-0.9247845570584516	4.367	n/a	stim	s627
90.436	0.695	-1.426189314047594	draw_card	0.0	columbia_card_task_fmri	15.0	0.7777777777777778	89.0	-65.0	0.2222222222222222	10.0	2.0	2.0	0.3333129562809773	0.695	n/a	stim	s627
91.133	0.653	-3.648411536269817	draw_card	0.0	columbia_card_task_fmri	15.0	0.75	89.0	-65.0	0.25	10.0	3.0	2.0	1.7140581329869704	0.653	n/a	stim	s627
91.787	0.856	-6.505554393412671	draw_card	0.0	columbia_card_task_fmri	15.0	0.7142857142857143	89.0	-65.0	0.2857142857142857	10.0	4.0	2.0	3.212265426185425	0.856	n/a	stim	s627
92.644	1.129	-10.31507820293648	draw_card	0.0	columbia_card_task_fmri	15.0	0.6666666666666667	89.0	-65.0	0.3333333333333333	10.0	5.0	2.0	4.783258498147241	1.129	n/a	stim	s627
93.775	1.186	-15.648411536269816	end_round	0.0	columbia_card_task_fmri	15.0	0.6	71.0	-65.0	0.4	10.0	6.0	2.0	6.261819270052015	1.186	5.0	stim	s627
94.964	2.25	n/a	-1.0	n/a	columbia_card_task_fmri	n/a	n/a	-1.0	n/a	n/a	n/a	n/a	n/a	n/a	n/a	n/a	feedback	s627
97.214	0.0	n/a	-1.0	n/a	columbia_card_task_fmri	n/a	n/a	-1.0	n/a	n/a	n/a	n/a	n/a	n/a	n/a	n/a	ITI	s627
97.215	3.226	1.9515884637301844	draw_card	1.0	columbia_card_task_fmri	17.0	0.8	89.0	-65.0	0.2	10.0	1.0	2.0	-0.1254798351632899	3.226	1.0	stim	s627
100.443	2.25	n/a	-1.0	n/a	columbia_card_task_fmri	n/a	n/a	-1.0	n/a	n/a	n/a	n/a	n/a	n/a	n/a	n/a	feedback	s627
102.693	0.0	n/a	-1.0	n/a	columbia_card_task_fmri	n/a	n/a	-1.0	n/a	n/a	n/a	n/a	n/a	n/a	n/a	n/a	ITI	s627
102.695	2.858	0.5182551303968508	draw_card	1.0	columbia_card_task_fmri	13.0	0.8333333333333334	89.0	-70.0	0.1666666666666666	12.0	1.0	2.0	-1.991526956393347	2.858	1.0	stim	s627
105.559	2.25	n/a	-1.0	n/a	columbia_card_task_fmri	n/a	n/a	-1.0	n/a	n/a	n/a	n/a	n/a	n/a	n/a	n/a	feedback	s627
107.809	0.136	n/a	-1.0	n/a	columbia_card_task_fmri	n/a	n/a	-1.0	n/a	n/a	n/a	n/a	n/a	n/a	n/a	n/a	ITI	s627
107.946	2.432	0.5182551303968508	draw_card	0.0	columbia_card_task_fmri	15.0	0.8333333333333334	89.0	-80.0	0.1666666666666666	12.0	1.0	2.0	2.476883721885549	2.432	n/a	stim	s627
110.38	2.133	-0.9211388089970922	draw_card	1.0	columbia_card_task_fmri	15.0	0.8181818181818181	89.0	-80.0	0.1818181818181818	12.0	2.0	2.0	3.7125920745660608	2.133	2.0	stim	s627
112.519	2.25	n/a	-1.0	n/a	columbia_card_task_fmri	n/a	n/a	-1.0	n/a	n/a	n/a	n/a	n/a	n/a	n/a	n/a	feedback	s627
114.769	0.136	n/a	-1.0	n/a	columbia_card_task_fmri	n/a	n/a	-1.0	n/a	n/a	n/a	n/a	n/a	n/a	n/a	n/a	ITI	s627
114.907	4.252	-0.448411536269816	draw_card	1.0	columbia_card_task_fmri	14.0	0.8	89.0	-65.0	0.2	15.0	1.0	3.0	-1.324423734310752	4.252	1.0	stim	s627
119.166	2.25	n/a	-1.0	n/a	columbia_card_task_fmri	n/a	n/a	-1.0	n/a	n/a	n/a	n/a	n/a	n/a	n/a	n/a	feedback	s627
121.416	0.476	n/a	-1.0	n/a	columbia_card_task_fmri	n/a	n/a	-1.0	n/a	n/a	n/a	n/a	n/a	n/a	n/a	n/a	ITI	s627
121.894	2.444	-0.5234115362698171	end_round	0.0	columbia_card_task_fmri	1.0	0.9375	71.0	-45.0	0.0625	16.0	1.0	1.0	-21.736757765044597	2.444	0.0	stim	s627
124.345	2.25	n/a	-1.0	n/a	columbia_card_task_fmri	n/a	n/a	-1.0	n/a	n/a	n/a	n/a	n/a	n/a	n/a	n/a	feedback	s627
126.595	0.204	n/a	-1.0	n/a	columbia_card_task_fmri	n/a	n/a	-1.0	n/a	n/a	n/a	n/a	n/a	n/a	n/a	n/a	ITI	s627
126.8	1.462	0.4140884637301829	draw_card	0.0	columbia_card_task_fmri	15.0	0.8125	89.0	-70.0	0.1875	16.0	1.0	3.0	0.2507563620867472	1.462	n/a	stim	s627
128.264	1.176	-0.6484115362698171	draw_card	0.0	columbia_card_task_fmri	15.0	0.8	89.0	-70.0	0.2	16.0	2.0	3.0	1.073538520749132	1.176	n/a	stim	s627
129.441	0.914	-1.8626972505555324	draw_card	1.0	columbia_card_task_fmri	15.0	0.7857142857142857	89.0	-70.0	0.2142857142857142	16.0	3.0	3.0	1.950565033027196	0.914	3.0	stim	s627
130.358	2.25	n/a	-1.0	n/a	columbia_card_task_fmri	n/a	n/a	-1.0	n/a	n/a	n/a	n/a	n/a	n/a	n/a	n/a	feedback	s627
132.608	0.068	n/a	-1.0	n/a	columbia_card_task_fmri	n/a	n/a	-1.0	n/a	n/a	n/a	n/a	n/a	n/a	n/a	n/a	ITI	s627
132.679	2.836	7.351588463730183	draw_card	0.0	columbia_card_task_fmri	30.0	0.7	89.0	-50.0	0.3	10.0	1.0	3.0	3.7321965558153702	2.836	n/a	stim	s627
135.516	0.854	4.684921797063522	draw_card	0.0	columbia_card_task_fmri	30.0	0.6666666666666667	89.0	-50.0	0.3333333333333333	10.0	2.0	3.0	4.783258498147241	0.854	n/a	stim	s627
136.373	1.571	1.351588463730183	draw_card	1.0	columbia_card_task_fmri	30.0	0.625	89.0	-50.0	0.375	10.0	3.0	3.0	5.800094607889498	1.571	3.0	stim	s627
137.947	2.25	n/a	-1.0	n/a	columbia_card_task_fmri	n/a	n/a	-1.0	n/a	n/a	n/a	n/a	n/a	n/a	n/a	n/a	feedback	s627
140.197	0.068	n/a	-1.0	n/a	columbia_card_task_fmri	n/a	n/a	-1.0	n/a	n/a	n/a	n/a	n/a	n/a	n/a	n/a	ITI	s627
140.268	2.383	6.751588463730183	draw_card	0.0	columbia_card_task_fmri	17.0	0.8666666666666667	89.0	-70.0	0.1333333333333333	15.0	1.0	2.0	-3.3481336201852763	2.383	n/a	stim	s627
142.653	0.444	5.923017035158756	draw_card	0.0	columbia_card_task_fmri	17.0	0.8571428571428572	89.0	-70.0	0.1428571428571428	15.0	2.0	2.0	-2.4796691683163914	0.444	n/a	stim	s627
143.099	0.554	4.966973079114798	draw_card	1.0	columbia_card_task_fmri	17.0	0.8461538461538461	89.0	-70.0	0.1538461538461538	15.0	3.0	2.0	-1.5345248839762462	0.554	3.0	stim	s627
143.66	2.25	n/a	-1.0	n/a	columbia_card_task_fmri	n/a	n/a	-1.0	n/a	n/a	n/a	n/a	n/a	n/a	n/a	n/a	feedback	s627
145.91	0.34	n/a	-1.0	n/a	columbia_card_task_fmri	n/a	n/a	-1.0	n/a	n/a	n/a	n/a	n/a	n/a	n/a	n/a	ITI	s627
146.252	2.193	1.976588463730183	draw_card	0.0	columbia_card_task_fmri	7.0	0.9375	89.0	-95.0	0.0625	16.0	1.0	1.0	-8.226080137309594	2.193	n/a	stim	s627
148.447	1.348	1.551588463730183	draw_card	0.0	columbia_card_task_fmri	7.0	0.9333333333333332	89.0	-95.0	0.0666666666666666	16.0	2.0	1.0	-7.474171209972791	1.348	n/a	stim	s627
149.798	1.259	1.0658741780158971	draw_card	0.0	columbia_card_task_fmri	7.0	0.9285714285714286	89.0	-95.0	0.0714285714285714	16.0	3.0	1.0	-6.649551162575893	1.259	n/a	stim	s627
151.058	1.166	0.5054346175763362	draw_card	0.0	columbia_card_task_fmri	7.0	0.9230769230769232	89.0	-95.0	0.0769230769230769	16.0	4.0	1.0	-5.739856402634526	1.166	n/a	stim	s627
152.227	0.89	-0.148411536269817	draw_card	0.0	columbia_card_task_fmri	7.0	0.9166666666666666	89.0	-95.0	0.0833333333333333	16.0	5.0	1.0	-4.729623430959101	0.89	n/a	stim	s627
153.119	0.96	-0.9211388089970904	draw_card	0.0	columbia_card_task_fmri	7.0	0.9090909090909092	89.0	-95.0	0.0909090909090909	16.0	6.0	1.0	-3.5992441493800342	0.96	n/a	stim	s627
154.082	1.025	-1.8484115362698168	end_round	0.0	columbia_card_task_fmri	7.0	0.9	71.0	-95.0	0.1	16.0	7.0	1.0	-2.323480465633729	1.025	6.0	stim	s627
155.114	2.25	n/a	-1.0	n/a	columbia_card_task_fmri	n/a	n/a	-1.0	n/a	n/a	n/a	n/a	n/a	n/a	n/a	n/a	feedback	s627
157.364	0.476	n/a	-1.0	n/a	columbia_card_task_fmri	n/a	n/a	-1.0	n/a	n/a	n/a	n/a	n/a	n/a	n/a	n/a	ITI	s627
157.841	2.615	3.5390884637301827	draw_card	0.0	columbia_card_task_fmri	9.0	0.9375	89.0	-100.0	0.0625	16.0	1.0	1.0	-6.534020702641666	2.615	n/a	stim	s627
160.458	0.916	3.084921797063516	draw_card	0.0	columbia_card_task_fmri	9.0	0.9333333333333332	89.0	-100.0	0.0666666666666666	16.0	2.0	1.0	-5.7303653267194825	0.916	n/a	stim	s627
161.377	0.784	2.565874178015898	draw_card	0.0	columbia_card_task_fmri	9.0	0.9285714285714286	89.0	-100.0	0.0714285714285714	16.0	3.0	1.0	-4.849004368058196	0.784	n/a	stim	s627
162.162	1.172	1.9669730791147988	draw_card	0.0	columbia_card_task_fmri	9.0	0.9230769230769232	89.0	-100.0	0.0769230769230769	16.0	4.0	1.0	-3.876725330883712	1.172	n/a	stim	s627
163.336	1.429	1.2682551303968508	end_round	0.0	columbia_card_task_fmri	9.0	0.9166666666666666	71.0	-100.0	0.0833333333333333	16.0	5.0	1.0	-2.7970030086291544	1.429	4.0	stim	s627
164.77	2.25	n/a	-1.0	n/a	columbia_card_task_fmri	n/a	n/a	-1.0	n/a	n/a	n/a	n/a	n/a	n/a	n/a	n/a	feedback	s627
167.02	0.272	n/a	-1.0	n/a	columbia_card_task_fmri	n/a	n/a	-1.0	n/a	n/a	n/a	n/a	n/a	n/a	n/a	n/a	ITI	s627
167.295	3.696	4.476588463730183	draw_card	0.0	columbia_card_task_fmri	15.0	0.875	89.0	-80.0	0.125	16.0	1.0	2.0	-1.505959978291166	3.696	n/a	stim	s627
170.993	0.585	3.6849217970635166	draw_card	0.0	columbia_card_task_fmri	15.0	0.8666666666666667	89.0	-80.0	0.1333333333333333	16.0	2.0	2.0	-0.6312536338499086	0.585	n/a	stim	s627
171.581	0.706	2.7801598923016133	draw_card	1.0	columbia_card_task_fmri	15.0	0.8571428571428572	89.0	-80.0	0.1428571428571428	16.0	3.0	2.0	0.3172245511495646	0.706	3.0	stim	s627
172.29	2.25	n/a	-1.0	n/a	columbia_card_task_fmri	n/a	n/a	-1.0	n/a	n/a	n/a	n/a	n/a	n/a	n/a	n/a	feedback	s627
174.54	0.884	n/a	-1.0	n/a	columbia_card_task_fmri	n/a	n/a	-1.0	n/a	n/a	n/a	n/a	n/a	n/a	n/a	n/a	ITI	s627
175.426	2.495	6.601588463730183	draw_card	0.0	columbia_card_task_fmri	16.0	0.875	89.0	-70.0	0.125	16.0	1.0	2.0	-4.479392446943468	2.495	n/a	stim	s627
177.924	0.54	5.884921797063516	draw_card	0.0	columbia_card_task_fmri	16.0	0.8666666666666667	89.0	-70.0	0.1333333333333333	16.0	2.0	2.0	-3.6877096973838057	0.54	n/a	stim	s627
178.466	0.799	5.065874178015898	draw_card	0.0	columbia_card_task_fmri	16.0	0.8571428571428572	89.0	-70.0	0.1428571428571428	16.0	3.0	2.0	-2.829247925276011	0.799	n/a	stim	s627
179.267	1.76	4.120819232960951	draw_card	0.0	columbia_card_task_fmri	16.0	0.8461538461538461	89.0	-70.0	0.1538461538461538	16.0	4.0	2.0	-1.8949882159889349	1.76	n/a	stim	s627
181.029	1.841	3.0182551303968506	draw_card	0.0	columbia_card_task_fmri	16.0	0.8333333333333334	89.0	-70.0	0.1666666666666666	16.0	5.0	2.0	-0.8745216232053963	1.841	n/a	stim	s627
182.872	1.347	1.7152248273665445	draw_card	1.0	columbia_card_task_fmri	16.0	0.8181818181818181	89.0	-70.0	0.1818181818181818	16.0	6.0	2.0	0.243946426711112	1.347	6.0	stim	s627
184.223	2.25	n/a	-1.0	n/a	columbia_card_task_fmri	n/a	n/a	-1.0	n/a	n/a	n/a	n/a	n/a	n/a	n/a	n/a	feedback	s627
186.473	0.136	n/a	-1.0	n/a	columbia_card_task_fmri	n/a	n/a	-1.0	n/a	n/a	n/a	n/a	n/a	n/a	n/a	n/a	ITI	s627
186.61	3.271	7.914088463730183	draw_card	0.0	columbia_card_task_fmri	30.0	0.6875	89.0	-45.0	0.3125	16.0	1.0	5.0	1.836379646271837	3.271	n/a	stim	s627
189.883	1.144	6.351588463730186	draw_card	1.0	columbia_card_task_fmri	30.0	0.6666666666666667	89.0	-45.0	0.3333333333333333	16.0	2.0	5.0	2.427848905311812	1.144	2.0	stim	s627
191.034	2.25	n/a	-1.0	n/a	columbia_card_task_fmri	n/a	n/a	-1.0	n/a	n/a	n/a	n/a	n/a	n/a	n/a	n/a	feedback	s627
193.284	0.136	n/a	-1.0	n/a	columbia_card_task_fmri	n/a	n/a	-1.0	n/a	n/a	n/a	n/a	n/a	n/a	n/a	n/a	ITI	s627
193.421	2.805	-0.3150782029364831	draw_card	0.0	columbia_card_task_fmri	13.0	0.8333333333333334	89.0	-75.0	0.1666666666666666	6.0	1.0	1.0	-0.1298124877882145	2.805	n/a	stim	s627
196.228	0.846	-3.248411536269817	draw_card	0.0	columbia_card_task_fmri	13.0	0.8	89.0	-75.0	0.2	6.0	2.0	1.0	2.272623730362959	0.846	n/a	stim	s627
197.076	0.779	-7.648411536269817	end_round	0.0	columbia_card_task_fmri	13.0	0.75	71.0	-75.0	0.25	6.0	3.0	1.0	5.175765198753204	0.779	2.0	stim	s627
197.859	2.25	n/a	-1.0	n/a	columbia_card_task_fmri	n/a	n/a	-1.0	n/a	n/a	n/a	n/a	n/a	n/a	n/a	n/a	feedback	s627
200.109	0.068	n/a	-1.0	n/a	columbia_card_task_fmri	n/a	n/a	-1.0	n/a	n/a	n/a	n/a	n/a	n/a	n/a	n/a	ITI	s627
200.179	2.5	1.3515884637301847	draw_card	0.0	columbia_card_task_fmri	14.0	0.8333333333333334	89.0	-70.0	0.1666666666666666	6.0	1.0	1.0	-1.6191999979120588	2.5	n/a	stim	s627
202.681	1.119	-1.448411536269816	draw_card	0.0	columbia_card_task_fmri	14.0	0.8	89.0	-70.0	0.2	6.0	2.0	1.0	0.6738579540994181	1.119	n/a	stim	s627
203.803	1.606	-5.648411536269817	draw_card	1.0	columbia_card_task_fmri	14.0	0.75	89.0	-70.0	0.25	6.0	3.0	1.0	3.4448547118467943	1.606	3.0	stim	s627
205.411	2.25	n/a	-1.0	n/a	columbia_card_task_fmri	n/a	n/a	-1.0	n/a	n/a	n/a	n/a	n/a	n/a	n/a	n/a	feedback	s627
207.661	0.068	n/a	-1.0	n/a	columbia_card_task_fmri	n/a	n/a	-1.0	n/a	n/a	n/a	n/a	n/a	n/a	n/a	n/a	ITI	s627
207.732	3.676	1.3515884637301847	draw_card	0.0	columbia_card_task_fmri	16.0	0.8333333333333334	89.0	-80.0	0.1666666666666666	6.0	1.0	1.0	2.8492932696834785	3.676	n/a	stim	s627
211.411	1.526	-1.8484115362698164	draw_card	0.0	columbia_card_task_fmri	16.0	0.8	89.0	-80.0	0.2	6.0	2.0	1.0	5.470463530172495	1.526	n/a	stim	s627
212.939	0.793	-6.648411536269817	end_round	0.0	columbia_card_task_fmri	16.0	0.75	71.0	-80.0	0.25	6.0	3.0	1.0	8.637871009343357	0.793	2.0	stim	s627
213.737	2.25	n/a	-1.0	n/a	columbia_card_task_fmri	n/a	n/a	-1.0	n/a	n/a	n/a	n/a	n/a	n/a	n/a	n/a	feedback	s627
215.987	0.612	n/a	-1.0	n/a	columbia_card_task_fmri	n/a	n/a	-1.0	n/a	n/a	n/a	n/a	n/a	n/a	n/a	n/a	ITI	s627
216.601	2.218	3.851588463730185	draw_card	0.0	columbia_card_task_fmri	17.0	0.8333333333333334	89.0	-70.0	0.1666666666666666	6.0	1.0	1.0	-0.5021707682284244	2.218	n/a	stim	s627
218.822	0.735	0.9515884637301844	draw_card	1.0	columbia_card_task_fmri	17.0	0.8	89.0	-70.0	0.2	6.0	2.0	1.0	1.8729216585553203	0.735	2.0	stim	s627
219.561	2.25	n/a	-1.0	n/a	columbia_card_task_fmri	n/a	n/a	-1.0	n/a	n/a	n/a	n/a	n/a	n/a	n/a	n/a	feedback	s627
221.811	0.476	n/a	-1.0	n/a	columbia_card_task_fmri	n/a	n/a	-1.0	n/a	n/a	n/a	n/a	n/a	n/a	n/a	n/a	ITI	s627
222.29	2.135	3.851588463730183	draw_card	0.0	columbia_card_task_fmri	25.0	0.75	89.0	-65.0	0.25	8.0	1.0	2.0	6.041258417569203	2.135	n/a	stim	s627
224.427	2.605	0.6373027494444712	draw_card	1.0	columbia_card_task_fmri	25.0	0.7142857142857143	89.0	-65.0	0.2857142857142857	8.0	2.0	2.0	7.7269993913551716	2.605	2.0	stim	s627
227.037	2.25	n/a	-1.0	n/a	columbia_card_task_fmri	n/a	n/a	-1.0	n/a	n/a	n/a	n/a	n/a	n/a	n/a	n/a	feedback	s627
229.287	0.0	n/a	-1.0	n/a	columbia_card_task_fmri	n/a	n/a	-1.0	n/a	n/a	n/a	n/a	n/a	n/a	n/a	n/a	ITI	s627
229.289	2.486	3.851588463730183	draw_card	0.0	columbia_card_task_fmri	30.0	0.75	89.0	-80.0	0.25	8.0	1.0	2.0	14.697254232377958	2.486	n/a	stim	s627
231.778	0.748	-0.0769829648412405	draw_card	0.0	columbia_card_task_fmri	30.0	0.7142857142857143	89.0	-80.0	0.2857142857142857	8.0	2.0	2.0	16.757996604132643	0.748	n/a	stim	s627
232.529	1.954	-5.315078202936478	draw_card	1.0	columbia_card_task_fmri	30.0	0.6666666666666667	89.0	-80.0	0.3333333333333333	8.0	3.0	2.0	18.91879343247831	1.954	3.0	stim	s627
234.489	2.25	n/a	-1.0	n/a	columbia_card_task_fmri	n/a	n/a	-1.0	n/a	n/a	n/a	n/a	n/a	n/a	n/a	n/a	feedback	s627
236.739	0.068	n/a	-1.0	n/a	columbia_card_task_fmri	n/a	n/a	-1.0	n/a	n/a	n/a	n/a	n/a	n/a	n/a	n/a	ITI	s627
236.809	2.442	3.551588463730184	draw_card	1.0	columbia_card_task_fmri	13.0	0.9	89.0	-95.0	0.1	10.0	1.0	1.0	-0.5251364823578868	2.442	1.0	stim	s627
239.255	2.25	n/a	-1.0	n/a	columbia_card_task_fmri	n/a	n/a	-1.0	n/a	n/a	n/a	n/a	n/a	n/a	n/a	n/a	feedback	s627
241.505	0.204	n/a	-1.0	n/a	columbia_card_task_fmri	n/a	n/a	-1.0	n/a	n/a	n/a	n/a	n/a	n/a	n/a	n/a	ITI	s627
241.712	1.589	4.951588463730182	draw_card	0.0	columbia_card_task_fmri	14.0	0.9	89.0	-90.0	0.1	10.0	1.0	1.0	-1.7240536725342857	1.589	n/a	stim	s627
243.303	1.022	3.7960329081746256	draw_card	0.0	columbia_card_task_fmri	14.0	0.8888888888888888	89.0	-90.0	0.1111111111111111	10.0	2.0	1.0	-0.241334392048671	1.022	n/a	stim	s627
244.328	0.618	2.3515884637301827	draw_card	0.0	columbia_card_task_fmri	14.0	0.875	89.0	-90.0	0.125	10.0	3.0	1.0	1.467997586315683	0.618	n/a	stim	s627
244.949	0.993	0.494445606587327	end_round	0.0	columbia_card_task_fmri	14.0	0.8571428571428572	71.0	-90.0	0.1428571428571428	10.0	4.0	1.0	3.4641934488240764	0.993	3.0	stim	s627
245.95	2.25	n/a	-1.0	n/a	columbia_card_task_fmri	n/a	n/a	-1.0	n/a	n/a	n/a	n/a	n/a	n/a	n/a	n/a	feedback	s627
248.2	0.272	n/a	-1.0	n/a	columbia_card_task_fmri	n/a	n/a	-1.0	n/a	n/a	n/a	n/a	n/a	n/a	n/a	n/a	ITI	s627
248.474	1.378	0.1515884637301836	draw_card	0.0	columbia_card_task_fmri	16.0	0.8	89.0	-70.0	0.2	10.0	1.0	2.0	1.4732265073909616	1.378	n/a	stim	s627
249.855	0.893	-1.7595226473809278	draw_card	0.0	columbia_card_task_fmri	16.0	0.7777777777777778	89.0	-70.0	0.2222222222222222	10.0	2.0	2.0	2.825837401754804	0.893	n/a	stim	s627
250.75	0.604	-4.148411536269817	draw_card	0.0	columbia_card_task_fmri	16.0	0.75	89.0	-70.0	0.25	10.0	3.0	2.0	4.3102967088466	0.604	n/a	stim	s627
251.356	0.812	-7.219840107698388	end_round	0.0	columbia_card_task_fmri	16.0	0.7142857142857143	71.0	-70.0	0.2857142857142857	10.0	4.0	2.0	5.921027582598754	0.812	3.0	stim	s627
252.175	2.25	n/a	-1.0	n/a	columbia_card_task_fmri	n/a	n/a	-1.0	n/a	n/a	n/a	n/a	n/a	n/a	n/a	n/a	feedback	s627
254.425	0.068	n/a	-1.0	n/a	columbia_card_task_fmri	n/a	n/a	-1.0	n/a	n/a	n/a	n/a	n/a	n/a	n/a	n/a	ITI	s627
254.495	1.586	-0.5650782029364831	draw_card	0.0	columbia_card_task_fmri	7.0	0.9166666666666666	89.0	-100.0	0.0833333333333333	12.0	1.0	1.0	-3.3492079636175056	1.586	n/a	stim	s627
256.084	0.553	-1.3756842635425457	draw_card	0.0	columbia_card_task_fmri	7.0	0.9090909090909092	89.0	-100.0	0.0909090909090909	12.0	2.0	1.0	-2.163298589402636	0.553	n/a	stim	s627
256.64	0.787	-2.348411536269817	end_round	0.0	columbia_card_task_fmri	7.0	0.9	71.0	-100.0	0.1	12.0	3.0	1.0	-0.8248733595493647	0.787	2.0	stim	s627
257.433	2.25	n/a	-1.0	n/a	columbia_card_task_fmri	n/a	n/a	-1.0	n/a	n/a	n/a	n/a	n/a	n/a	n/a	n/a	feedback	s627
259.683	0.272	n/a	-1.0	n/a	columbia_card_task_fmri	n/a	n/a	-1.0	n/a	n/a	n/a	n/a	n/a	n/a	n/a	n/a	ITI	s627
259.957	1.963	-0.3150782029364813	draw_card	0.0	columbia_card_task_fmri	14.0	0.8333333333333334	89.0	-80.0	0.1666666666666666	12.0	1.0	2.0	2.1044798794553543	1.963	n/a	stim	s627
261.922	0.468	-1.7393206271789106	draw_card	0.0	columbia_card_task_fmri	14.0	0.8181818181818181	89.0	-80.0	0.1818181818181818	12.0	2.0	2.0	3.327162387582028	0.468	n/a	stim	s627
262.393	0.754	-3.448411536269816	draw_card	0.0	columbia_card_task_fmri	14.0	0.8	89.0	-80.0	0.2	12.0	3.0	2.0	4.67096914283335	0.754	n/a	stim	s627
263.149	1.486	-5.537300425158707	draw_card	0.0	columbia_card_task_fmri	14.0	0.7777777777777778	89.0	-80.0	0.2222222222222222	12.0	4.0	2.0	6.149583005943043	1.486	n/a	stim	s627
264.639	1.54	-8.148411536269817	draw_card	1.0	columbia_card_task_fmri	14.0	0.75	89.0	-80.0	0.25	12.0	5.0	2.0	7.77231273547654	1.54	5.0	stim	s627
266.184	2.25	n/a	-1.0	n/a	columbia_card_task_fmri	n/a	n/a	-1.0	n/a	n/a	n/a	n/a	n/a	n/a	n/a	n/a	feedback	s627
268.434	0.748	n/a	-1.0	n/a	columbia_card_task_fmri	n/a	n/a	-1.0	n/a	n/a	n/a	n/a	n/a	n/a	n/a	n/a	ITI	s627
269.185	1.624	1.351588463730183	draw_card	0.0	columbia_card_task_fmri	15.0	0.8333333333333334	89.0	-75.0	0.1666666666666666	12.0	1.0	2.0	0.6149253610667387	1.624	n/a	stim	s627
270.812	0.753	-0.0120478999061821	draw_card	0.0	columbia_card_task_fmri	15.0	0.8181818181818181	89.0	-75.0	0.1818181818181818	12.0	2.0	2.0	1.7855024462360944	0.753	n/a	stim	s627
271.569	0.427	-1.648411536269817	draw_card	1.0	columbia_card_task_fmri	15.0	0.8	89.0	-75.0	0.2	12.0	3.0	2.0	3.072047714488143	0.427	3.0	stim	s627
272.0	2.25	n/a	-1.0	n/a	columbia_card_task_fmri	n/a	n/a	-1.0	n/a	n/a	n/a	n/a	n/a	n/a	n/a	n/a	feedback	s627
274.25	0.068	n/a	-1.0	n/a	columbia_card_task_fmri	n/a	n/a	-1.0	n/a	n/a	n/a	n/a	n/a	n/a	n/a	n/a	ITI	s627
274.321	2.15	0.3515884637301829	draw_card	0.0	columbia_card_task_fmri	15.0	0.8	89.0	-65.0	0.2	15.0	1.0	3.0	-0.9247845570584516	2.15	n/a	stim	s627
276.474	0.755	-0.7912686791269594	draw_card	0.0	columbia_card_task_fmri	15.0	0.7857142857142857	89.0	-65.0	0.2142857142857142	15.0	2.0	3.0	-0.0994296590813021	0.755	n/a	stim	s627
277.231	0.373	-2.1099499978082807	draw_card	0.0	columbia_card_task_fmri	15.0	0.7692307692307692	89.0	-65.0	0.2307692307692307	15.0	3.0	3.0	0.7797761027301249	0.373	n/a	stim	s627
277.607	2.174	-3.648411536269817	draw_card	0.0	columbia_card_task_fmri	15.0	0.75	89.0	-65.0	0.25	15.0	4.0	3.0	1.7140581329869704	2.174	n/a	stim	s627
279.783	1.383	-5.466593354451634	end_round	0.0	columbia_card_task_fmri	15.0	0.7272727272727273	71.0	-65.0	0.2727272727272727	15.0	5.0	3.0	2.701253384008581	1.383	4.0	stim	s627
281.172	2.25	n/a	-1.0	n/a	columbia_card_task_fmri	n/a	n/a	-1.0	n/a	n/a	n/a	n/a	n/a	n/a	n/a	n/a	feedback	s627
283.422	0.0	n/a	-1.0	n/a	columbia_card_task_fmri	n/a	n/a	-1.0	n/a	n/a	n/a	n/a	n/a	n/a	n/a	n/a	ITI	s627
283.426	1.773	-0.398411536269817	draw_card	1.0	columbia_card_task_fmri	14.0	0.8125	89.0	-70.0	0.1875	16.0	1.0	3.0	-0.1392286707700591	1.773	1.0	stim	s627
285.203	2.25	n/a	-1.0	n/a	columbia_card_task_fmri	n/a	n/a	-1.0	n/a	n/a	n/a	n/a	n/a	n/a	n/a	n/a	feedback	s627
287.453	0.204	n/a	-1.0	n/a	columbia_card_task_fmri	n/a	n/a	-1.0	n/a	n/a	n/a	n/a	n/a	n/a	n/a	n/a	ITI	s627
287.659	2.211	-0.460911536269817	draw_card	0.0	columbia_card_task_fmri	11.0	0.6875	89.0	-30.0	0.3125	16.0	1.0	5.0	-13.901304138926008	2.211	n/a	stim	s627
289.873	1.686	-1.3150782029364831	draw_card	1.0	columbia_card_task_fmri	11.0	0.6666666666666667	89.0	-30.0	0.3333333333333333	16.0	2.0	5.0	-13.57852908212801	1.686	2.0	stim	s627
291.563	2.25	n/a	-1.0	n/a	columbia_card_task_fmri	n/a	n/a	-1.0	n/a	n/a	n/a	n/a	n/a	n/a	n/a	n/a	feedback	s627
293.813	0.068	n/a	-1.0	n/a	columbia_card_task_fmri	n/a	n/a	-1.0	n/a	n/a	n/a	n/a	n/a	n/a	n/a	n/a	ITI	s627
293.884	2.057	4.351588463730183	draw_card	0.0	columbia_card_task_fmri	15.0	0.8666666666666667	89.0	-75.0	0.1333333333333333	15.0	1.0	2.0	-2.3293576527206383	2.057	n/a	stim	s627
295.943	0.438	3.494445606587327	draw_card	0.0	columbia_card_task_fmri	15.0	0.8571428571428572	89.0	-75.0	0.1428571428571428	15.0	2.0	2.0	-1.4308865166612996	0.438	n/a	stim	s627
296.385	0.873	2.505434617576336	draw_card	0.0	columbia_card_task_fmri	15.0	0.8461538461538461	89.0	-75.0	0.1538461538461538	15.0	3.0	2.0	-0.4530898972530224	0.873	n/a	stim	s627
297.26	0.641	1.351588463730183	draw_card	0.0	columbia_card_task_fmri	15.0	0.8333333333333334	89.0	-75.0	0.1666666666666666	15.0	4.0	2.0	0.6149253610667387	0.641	n/a	stim	s627
297.905	0.889	-0.0120478999061821	draw_card	0.0	columbia_card_task_fmri	15.0	0.8181818181818181	89.0	-75.0	0.1818181818181818	15.0	5.0	2.0	1.7855024462360944	0.889	n/a	stim	s627
298.797	1.053	-1.648411536269817	end_round	0.0	columbia_card_task_fmri	15.0	0.8	71.0	-75.0	0.2	15.0	6.0	2.0	3.072047714488143	1.053	5.0	stim	s627
299.857	2.25	n/a	-1.0	n/a	columbia_card_task_fmri	n/a	n/a	-1.0	n/a	n/a	n/a	n/a	n/a	n/a	n/a	n/a	feedback	s627
302.107	0.068	n/a	-1.0	n/a	columbia_card_task_fmri	n/a	n/a	-1.0	n/a	n/a	n/a	n/a	n/a	n/a	n/a	n/a	ITI	s627
302.178	2.107	6.084921797063517	draw_card	0.0	columbia_card_task_fmri	17.0	0.8666666666666667	89.0	-75.0	0.1333333333333333	15.0	1.0	2.0	-1.650136483843763	2.107	n/a	stim	s627
304.288	0.544	5.208731320873042	draw_card	0.0	columbia_card_task_fmri	17.0	0.8571428571428572	89.0	-75.0	0.1428571428571428	15.0	2.0	2.0	-0.7316619476714834	0.544	n/a	stim	s627
304.835	0.418	4.197742309884029	draw_card	0.0	columbia_card_task_fmri	17.0	0.8461538461538461	89.0	-75.0	0.1538461538461538	15.0	3.0	2.0	0.2679018118523899	0.418	n/a	stim	s627
305.256	0.362	3.0182551303968506	draw_card	1.0	columbia_card_task_fmri	17.0	0.8333333333333334	89.0	-75.0	0.1666666666666666	15.0	4.0	2.0	1.3596900537491408	0.362	4.0	stim	s627
305.622	2.25	n/a	-1.0	n/a	columbia_card_task_fmri	n/a	n/a	-1.0	n/a	n/a	n/a	n/a	n/a	n/a	n/a	n/a	feedback	s627
307.872	0.34	n/a	-1.0	n/a	columbia_card_task_fmri	n/a	n/a	-1.0	n/a	n/a	n/a	n/a	n/a	n/a	n/a	n/a	ITI	s627
308.215	3.251	1.664088463730183	draw_card	0.0	columbia_card_task_fmri	2.0	0.9375	89.0	-25.0	0.0625	16.0	1.0	1.0	-26.27936346632115	3.251	n/a	stim	s627
311.469	0.949	1.5515884637301829	draw_card	0.0	columbia_card_task_fmri	2.0	0.9333333333333332	89.0	-25.0	0.0666666666666666	16.0	2.0	1.0	-26.084051200523295	0.949	n/a	stim	s627
312.421	0.585	1.4230170351587546	end_round	0.0	columbia_card_task_fmri	2.0	0.9285714285714286	71.0	-25.0	0.0714285714285714	16.0	3.0	1.0	-25.869613582753992	0.585	2.0	stim	s627
313.013	2.25	n/a	-1.0	n/a	columbia_card_task_fmri	n/a	n/a	-1.0	n/a	n/a	n/a	n/a	n/a	n/a	n/a	n/a	feedback	s627
315.263	0.0	n/a	-1.0	n/a	columbia_card_task_fmri	n/a	n/a	-1.0	n/a	n/a	n/a	n/a	n/a	n/a	n/a	n/a	ITI	s627
315.267	1.779	3.851588463730183	draw_card	0.0	columbia_card_task_fmri	9.0	0.9375	89.0	-95.0	0.0625	16.0	1.0	1.0	-7.742667080592369	1.779	n/a	stim	s627
317.05	0.705	3.41825513039685	draw_card	0.0	columbia_card_task_fmri	9.0	0.9333333333333332	89.0	-95.0	0.0666666666666666	16.0	2.0	1.0	-6.9759724997227295	0.705	n/a	stim	s627
317.758	0.462	2.9230170351587548	draw_card	0.0	columbia_card_task_fmri	9.0	0.9285714285714286	89.0	-95.0	0.0714285714285714	16.0	3.0	1.0	-6.135139779437388	0.462	n/a	stim	s627
318.224	0.783	2.3515884637301827	draw_card	0.0	columbia_card_task_fmri	9.0	0.9230769230769232	89.0	-95.0	0.0769230769230769	16.0	4.0	1.0	-5.20756278064745	0.783	n/a	stim	s627
319.01	0.912	1.6849217970635169	end_round	0.0	columbia_card_task_fmri	9.0	0.9166666666666666	71.0	-95.0	0.0833333333333333	16.0	5.0	1.0	-4.177474655955667	0.912	4.0	stim	s627
319.931	2.25	n/a	-1.0	n/a	columbia_card_task_fmri	n/a	n/a	-1.0	n/a	n/a	n/a	n/a	n/a	n/a	n/a	n/a	feedback	s627
322.181	0.0	n/a	-1.0	n/a	columbia_card_task_fmri	n/a	n/a	-1.0	n/a	n/a	n/a	n/a	n/a	n/a	n/a	n/a	ITI	s627
322.183	1.525	5.414088463730183	draw_card	0.0	columbia_card_task_fmri	11.0	0.9375	89.0	-100.0	0.0625	16.0	1.0	1.0	-6.050520336024441	1.525	n/a	stim	s627
323.71	0.889	4.951588463730183	draw_card	0.0	columbia_card_task_fmri	11.0	0.9333333333333332	89.0	-100.0	0.0666666666666666	16.0	2.0	1.0	-5.232081870141961	0.889	n/a	stim	s627
324.602	0.468	4.423017035158756	draw_card	0.0	columbia_card_task_fmri	11.0	0.9285714285714286	89.0	-100.0	0.0714285714285714	16.0	3.0	1.0	-4.334510882784269	0.468	n/a	stim	s627
325.073	0.943	3.813126925268645	draw_card	0.0	columbia_card_task_fmri	11.0	0.9230769230769232	89.0	-100.0	0.0769230769230769	16.0	4.0	1.0	-3.3443523391139607	0.943	n/a	stim	s627
326.019	0.939	3.1015884637301827	end_round	0.0	columbia_card_task_fmri	11.0	0.9166666666666666	71.0	-100.0	0.0833333333333333	16.0	5.0	1.0	-2.244777693067011	0.939	4.0	stim	s627
326.966	2.25	n/a	-1.0	n/a	columbia_card_task_fmri	n/a	n/a	-1.0	n/a	n/a	n/a	n/a	n/a	n/a	n/a	n/a	feedback	s627
329.216	0.272	n/a	-1.0	n/a	columbia_card_task_fmri	n/a	n/a	-1.0	n/a	n/a	n/a	n/a	n/a	n/a	n/a	n/a	ITI	s627
329.491	1.934	5.976588463730183	draw_card	0.0	columbia_card_task_fmri	16.0	0.875	89.0	-75.0	0.125	16.0	1.0	2.0	-2.827559589393044	1.934	n/a	stim	s627
331.428	0.567	5.21825513039685	draw_card	0.0	columbia_card_task_fmri	16.0	0.8666666666666667	89.0	-75.0	0.1333333333333333	16.0	2.0	2.0	-1.9897506241789704	0.567	n/a	stim	s627
331.997	0.725	4.3515884637301845	draw_card	0.0	columbia_card_task_fmri	16.0	0.8571428571428572	89.0	-75.0	0.1428571428571428	16.0	3.0	2.0	-1.0812776870774314	0.725	n/a	stim	s627
332.726	0.694	3.3515884637301827	draw_card	0.0	columbia_card_task_fmri	16.0	0.8461538461538461	89.0	-75.0	0.1538461538461538	16.0	4.0	2.0	-0.092597394021368	0.694	n/a	stim	s627
333.422	0.734	2.1849217970635166	draw_card	0.0	columbia_card_task_fmri	16.0	0.8333333333333334	89.0	-75.0	0.1666666666666666	16.0	5.0	2.0	0.987304462372748	0.734	n/a	stim	s627
334.16	0.893	0.8061339182756362	draw_card	0.0	columbia_card_task_fmri	16.0	0.8181818181818181	89.0	-75.0	0.1818181818181818	16.0	6.0	2.0	2.1709082234133987	0.893	n/a	stim	s627
335.056	1.15	-0.8484115362698164	end_round	0.0	columbia_card_task_fmri	16.0	0.8	71.0	-75.0	0.2	16.0	7.0	2.0	3.4717691913645794	1.15	6.0	stim	s627
336.211	2.25	n/a	-1.0	n/a	columbia_card_task_fmri	n/a	n/a	-1.0	n/a	n/a	n/a	n/a	n/a	n/a	n/a	n/a	feedback	s627
338.461	0.204	n/a	-1.0	n/a	columbia_card_task_fmri	n/a	n/a	-1.0	n/a	n/a	n/a	n/a	n/a	n/a	n/a	n/a	ITI	s627
338.669	1.264	6.226588463730183	draw_card	0.0	columbia_card_task_fmri	17.0	0.875	89.0	-80.0	0.125	16.0	1.0	2.0	-0.8451207614228196	1.264	n/a	stim	s627
339.936	1.108	5.418255130396851	draw_card	1.0	columbia_card_task_fmri	17.0	0.8666666666666667	89.0	-80.0	0.1333333333333333	16.0	2.0	2.0	0.0480332099532461	1.108	2.0	stim	s627
341.052	2.25	n/a	-1.0	n/a	columbia_card_task_fmri	n/a	n/a	-1.0	n/a	n/a	n/a	n/a	n/a	n/a	n/a	n/a	feedback	s627
343.302	0.0	n/a	-1.0	n/a	columbia_card_task_fmri	n/a	n/a	-1.0	n/a	n/a	n/a	n/a	n/a	n/a	n/a	n/a	ITI	s627
354.312	2.568	0.5182551303968508	draw_card	0.0	columbia_card_task_fmri	13.0	0.8333333333333334	89.0	-70.0	0.1666666666666666	6.0	1.0	1.0	-1.991526956393347	2.568	n/a	stim	s627
356.883	0.757	-2.248411536269817	draw_card	0.0	columbia_card_task_fmri	13.0	0.8	89.0	-70.0	0.2	6.0	2.0	1.0	0.2741850751983392	0.757	n/a	stim	s627
357.643	1.061	-6.398411536269817	end_round	0.0	columbia_card_task_fmri	13.0	0.75	71.0	-70.0	0.25	6.0	3.0	1.0	3.012144245847921	1.061	2.0	stim	s627
358.709	2.25	n/a	-1.0	n/a	columbia_card_task_fmri	n/a	n/a	-1.0	n/a	n/a	n/a	n/a	n/a	n/a	n/a	n/a	feedback	s627
360.959	0.204	n/a	-1.0	n/a	columbia_card_task_fmri	n/a	n/a	-1.0	n/a	n/a	n/a	n/a	n/a	n/a	n/a	n/a	ITI	s627
361.165	2.498	0.5182551303968508	draw_card	1.0	columbia_card_task_fmri	15.0	0.8333333333333334	89.0	-80.0	0.1666666666666666	6.0	1.0	1.0	2.476883721885549	2.498	1.0	stim	s627
363.669	2.25	n/a	-1.0	n/a	columbia_card_task_fmri	n/a	n/a	-1.0	n/a	n/a	n/a	n/a	n/a	n/a	n/a	n/a	feedback	s627
365.919	0.204	n/a	-1.0	n/a	columbia_card_task_fmri	n/a	n/a	-1.0	n/a	n/a	n/a	n/a	n/a	n/a	n/a	n/a	ITI	s627
366.127	2.187	2.1849217970635166	draw_card	0.0	columbia_card_task_fmri	16.0	0.8333333333333334	89.0	-75.0	0.1666666666666666	6.0	1.0	1.0	0.987304462372748	2.187	n/a	stim	s627
368.316	0.53	-0.8484115362698164	draw_card	1.0	columbia_card_task_fmri	16.0	0.8	89.0	-75.0	0.2	6.0	2.0	1.0	3.4717691913645794	0.53	2.0	stim	s627
368.855	2.25	n/a	-1.0	n/a	columbia_card_task_fmri	n/a	n/a	-1.0	n/a	n/a	n/a	n/a	n/a	n/a	n/a	n/a	feedback	s627
371.105	0.272	n/a	-1.0	n/a	columbia_card_task_fmri	n/a	n/a	-1.0	n/a	n/a	n/a	n/a	n/a	n/a	n/a	n/a	ITI	s627
371.38	2.545	3.3515884637301827	draw_card	0.0	columbia_card_task_fmri	21.0	0.75	89.0	-55.0	0.25	8.0	1.0	2.0	-0.0166065805028878	2.545	n/a	stim	s627
373.935	0.554	0.6373027494444694	draw_card	0.0	columbia_card_task_fmri	21.0	0.7142857142857143	89.0	-55.0	0.2857142857142857	8.0	2.0	2.0	1.4065783412871014	0.554	n/a	stim	s627
374.492	0.677	-2.981744869603148	draw_card	0.0	columbia_card_task_fmri	21.0	0.6666666666666667	89.0	-55.0	0.3333333333333333	8.0	3.0	2.0	2.8989138626937603	0.677	n/a	stim	s627
375.173	1.306	-8.048411536269818	draw_card	0.0	columbia_card_task_fmri	21.0	0.6	89.0	-55.0	0.4	8.0	4.0	2.0	4.303452943474312	1.306	n/a	stim	s627
376.483	0.89	-15.648411536269816	end_round	0.0	columbia_card_task_fmri	21.0	0.5	71.0	-55.0	0.5	8.0	5.0	2.0	5.070713677905836	0.89	4.0	stim	s627
377.376	2.25	n/a	-1.0	n/a	columbia_card_task_fmri	n/a	n/a	-1.0	n/a	n/a	n/a	n/a	n/a	n/a	n/a	n/a	feedback	s627
379.626	0.204	n/a	-1.0	n/a	columbia_card_task_fmri	n/a	n/a	-1.0	n/a	n/a	n/a	n/a	n/a	n/a	n/a	n/a	ITI	s627
379.834	4.276	4.601588463730183	draw_card	0.0	columbia_card_task_fmri	26.0	0.75	89.0	-65.0	0.25	8.0	1.0	2.0	6.474013791408218	4.276	n/a	stim	s627
384.113	4.272	1.3515884637301865	draw_card	0.0	columbia_card_task_fmri	26.0	0.7142857142857143	89.0	-65.0	0.2857142857142857	8.0	2.0	2.0	8.178506672280847	4.272	n/a	stim	s627
388.389	0.811	-2.981744869603146	draw_card	1.0	columbia_card_task_fmri	26.0	0.6666666666666667	89.0	-65.0	0.3333333333333333	8.0	3.0	2.0	9.965783018038294	0.811	3.0	stim	s627
389.205	2.25	n/a	-1.0	n/a	columbia_card_task_fmri	n/a	n/a	-1.0	n/a	n/a	n/a	n/a	n/a	n/a	n/a	n/a	feedback	s627
391.455	0.408	n/a	-1.0	n/a	columbia_card_task_fmri	n/a	n/a	-1.0	n/a	n/a	n/a	n/a	n/a	n/a	n/a	n/a	ITI	s627
391.866	1.45	-0.3150782029364831	draw_card	0.0	columbia_card_task_fmri	15.0	0.7777777777777778	89.0	-60.0	0.2222222222222222	9.0	1.0	2.0	-1.7435571461003398	1.45	n/a	stim	s627
393.32	0.519	-2.3984115362698173	draw_card	0.0	columbia_card_task_fmri	15.0	0.75	89.0	-60.0	0.25	9.0	2.0	2.0	-0.4492496865156425	0.519	n/a	stim	s627
393.844	0.627	-5.076982964841244	draw_card	1.0	columbia_card_task_fmri	15.0	0.7142857142857143	89.0	-60.0	0.2857142857142857	9.0	3.0	2.0	0.9551786896834996	0.627	3.0	stim	s627
394.48	2.25	n/a	-1.0	n/a	columbia_card_task_fmri	n/a	n/a	-1.0	n/a	n/a	n/a	n/a	n/a	n/a	n/a	n/a	feedback	s627
396.73	0.136	n/a	-1.0	n/a	columbia_card_task_fmri	n/a	n/a	-1.0	n/a	n/a	n/a	n/a	n/a	n/a	n/a	n/a	ITI	s627
396.869	1.928	4.051588463730184	draw_card	0.0	columbia_card_task_fmri	13.0	0.9	89.0	-90.0	0.1	10.0	1.0	1.0	-2.0237698476557178	1.928	n/a	stim	s627
398.801	0.646	2.907144019285738	draw_card	0.0	columbia_card_task_fmri	13.0	0.8888888888888888	89.0	-90.0	0.1111111111111111	10.0	2.0	1.0	-0.555333100887097	0.646	n/a	stim	s627
399.45	0.615	1.476588463730183	end_round	0.0	columbia_card_task_fmri	13.0	0.875	71.0	-90.0	0.125	10.0	3.0	1.0	1.1375361988845685	0.615	2.0	stim	s627
400.072	2.25	n/a	-1.0	n/a	columbia_card_task_fmri	n/a	n/a	-1.0	n/a	n/a	n/a	n/a	n/a	n/a	n/a	n/a	feedback	s627
402.322	0.272	n/a	-1.0	n/a	columbia_card_task_fmri	n/a	n/a	-1.0	n/a	n/a	n/a	n/a	n/a	n/a	n/a	n/a	ITI	s627
402.597	1.907	5.351588463730183	draw_card	0.0	columbia_card_task_fmri	15.0	0.9	89.0	-95.0	0.1	10.0	1.0	1.0	0.0743516058699711	1.907	n/a	stim	s627
404.508	0.751	4.12936624150796	draw_card	0.0	columbia_card_task_fmri	15.0	0.8888888888888888	89.0	-95.0	0.1111111111111111	10.0	2.0	1.0	1.6427611994977482	0.751	n/a	stim	s627
405.263	0.709	2.6015884637301827	draw_card	0.0	columbia_card_task_fmri	15.0	0.875	89.0	-95.0	0.125	10.0	3.0	1.0	3.4508641332664567	0.709	n/a	stim	s627
405.975	0.759	0.6373027494444694	end_round	0.0	columbia_card_task_fmri	15.0	0.8571428571428572	71.0	-95.0	0.1428571428571428	10.0	4.0	1.0	5.562388414498606	0.759	3.0	stim	s627
406.74	2.25	n/a	-1.0	n/a	columbia_card_task_fmri	n/a	n/a	-1.0	n/a	n/a	n/a	n/a	n/a	n/a	n/a	n/a	feedback	s627
408.99	0.34	n/a	-1.0	n/a	columbia_card_task_fmri	n/a	n/a	-1.0	n/a	n/a	n/a	n/a	n/a	n/a	n/a	n/a	ITI	s627
409.333	2.057	1.1515884637301836	draw_card	0.0	columbia_card_task_fmri	16.0	0.8	89.0	-65.0	0.2	10.0	1.0	2.0	-0.5251364823578939	2.057	n/a	stim	s627
411.394	0.488	-0.6484115362698153	draw_card	0.0	columbia_card_task_fmri	16.0	0.7777777777777778	89.0	-65.0	0.2222222222222222	10.0	2.0	2.0	0.7487140311583715	0.488	n/a	stim	s627
411.886	0.697	-2.8984115362698173	draw_card	0.0	columbia_card_task_fmri	16.0	0.75	89.0	-65.0	0.25	10.0	3.0	2.0	2.1467456772897293	0.697	n/a	stim	s627
412.586	3.064	-5.791268679126958	draw_card	0.0	columbia_card_task_fmri	16.0	0.7142857142857143	89.0	-65.0	0.2857142857142857	10.0	4.0	2.0	3.6637076808611297	3.064	n/a	stim	s627
415.654	0.625	-9.648411536269814	end_round	0.0	columbia_card_task_fmri	16.0	0.6666666666666667	71.0	-65.0	0.3333333333333333	10.0	5.0	2.0	5.254364290054852	0.625	4.0	stim	s627
416.283	2.25	n/a	-1.0	n/a	columbia_card_task_fmri	n/a	n/a	-1.0	n/a	n/a	n/a	n/a	n/a	n/a	n/a	n/a	feedback	s627
418.533	0.136	n/a	-1.0	n/a	columbia_card_task_fmri	n/a	n/a	-1.0	n/a	n/a	n/a	n/a	n/a	n/a	n/a	n/a	ITI	s627
418.671	2.33	-0.148411536269817	draw_card	0.0	columbia_card_task_fmri	7.0	0.9166666666666666	89.0	-95.0	0.0833333333333333	12.0	1.0	1.0	-4.729623430959101	2.33	n/a	stim	s627
421.005	1.226	-0.9211388089970904	draw_card	0.0	columbia_card_task_fmri	7.0	0.9090909090909092	89.0	-95.0	0.0909090909090909	12.0	2.0	1.0	-3.5992441493800342	1.226	n/a	stim	s627
422.234	0.679	-1.8484115362698168	draw_card	0.0	columbia_card_task_fmri	7.0	0.9	89.0	-95.0	0.1	12.0	3.0	1.0	-2.323480465633729	0.679	n/a	stim	s627
422.916	1.58	-2.981744869603151	draw_card	0.0	columbia_card_task_fmri	7.0	0.8888888888888888	89.0	-95.0	0.1111111111111111	12.0	4.0	1.0	-0.8693265035598401	1.58	n/a	stim	s627
424.501	0.904	-4.398411536269817	end_round	0.0	columbia_card_task_fmri	7.0	0.875	71.0	-95.0	0.125	12.0	5.0	1.0	0.8070798549794063	0.904	4.0	stim	s627
425.413	2.25	n/a	-1.0	n/a	columbia_card_task_fmri	n/a	n/a	-1.0	n/a	n/a	n/a	n/a	n/a	n/a	n/a	n/a	feedback	s627
427.663	0.34	n/a	-1.0	n/a	columbia_card_task_fmri	n/a	n/a	-1.0	n/a	n/a	n/a	n/a	n/a	n/a	n/a	n/a	ITI	s627
428.005	2.089	0.5182551303968508	draw_card	1.0	columbia_card_task_fmri	14.0	0.8333333333333334	89.0	-75.0	0.1666666666666666	12.0	1.0	2.0	0.2425529682408083	2.089	1.0	stim	s627
430.102	2.25	n/a	-1.0	n/a	columbia_card_task_fmri	n/a	n/a	-1.0	n/a	n/a	n/a	n/a	n/a	n/a	n/a	n/a	feedback	s627
432.352	0.068	n/a	-1.0	n/a	columbia_card_task_fmri	n/a	n/a	-1.0	n/a	n/a	n/a	n/a	n/a	n/a	n/a	n/a	ITI	s627
432.422	2.166	2.1849217970635166	draw_card	0.0	columbia_card_task_fmri	15.0	0.8333333333333334	89.0	-70.0	0.1666666666666666	12.0	1.0	2.0	-1.2468647911120383	2.166	n/a	stim	s627
434.593	1.691	0.8970430091847261	draw_card	0.0	columbia_card_task_fmri	15.0	0.8181818181818181	89.0	-70.0	0.1818181818181818	12.0	2.0	2.0	-0.1414246238894065	1.691	n/a	stim	s627
436.287	2.285	-0.6484115362698171	draw_card	1.0	columbia_card_task_fmri	15.0	0.8	89.0	-70.0	0.2	12.0	3.0	2.0	1.073538520749132	2.285	3.0	stim	s627
438.58	2.25	n/a	-1.0	n/a	columbia_card_task_fmri	n/a	n/a	-1.0	n/a	n/a	n/a	n/a	n/a	n/a	n/a	n/a	feedback	s627
440.83	0.0	n/a	-1.0	n/a	columbia_card_task_fmri	n/a	n/a	-1.0	n/a	n/a	n/a	n/a	n/a	n/a	n/a	n/a	ITI	s627
440.833	3.081	0.1515884637301836	draw_card	0.0	columbia_card_task_fmri	16.0	0.8	89.0	-70.0	0.2	15.0	1.0	3.0	1.4732265073909616	3.081	n/a	stim	s627
443.918	0.498	-1.076982964841246	draw_card	0.0	columbia_card_task_fmri	16.0	0.7857142857142857	89.0	-70.0	0.2142857142857142	15.0	2.0	3.0	2.3605867571651302	0.498	n/a	stim	s627
444.42	0.529	-2.494565382423664	draw_card	0.0	columbia_card_task_fmri	16.0	0.7692307692307692	89.0	-70.0	0.2307692307692307	15.0	3.0	3.0	3.305837869068448	0.529	n/a	stim	s627
444.953	0.665	-4.148411536269817	draw_card	1.0	columbia_card_task_fmri	16.0	0.75	89.0	-70.0	0.25	15.0	4.0	3.0	4.3102967088466	0.665	4.0	stim	s627
445.624	2.25	n/a	-1.0	n/a	columbia_card_task_fmri	n/a	n/a	-1.0	n/a	n/a	n/a	n/a	n/a	n/a	n/a	n/a	feedback	s627
447.874	0.204	n/a	-1.0	n/a	columbia_card_task_fmri	n/a	n/a	-1.0	n/a	n/a	n/a	n/a	n/a	n/a	n/a	n/a	ITI	s627
448.082	1.817	0.5390884637301829	draw_card	0.0	columbia_card_task_fmri	14.0	0.8125	89.0	-65.0	0.1875	16.0	1.0	3.0	-2.089029699023474	1.817	n/a	stim	s627
449.903	0.434	-0.448411536269816	draw_card	0.0	columbia_card_task_fmri	14.0	0.8	89.0	-65.0	0.2	16.0	2.0	3.0	-1.324423734310752	0.434	n/a	stim	s627
450.342	0.455	-1.576982964841244	draw_card	0.0	columbia_card_task_fmri	14.0	0.7857142857142857	89.0	-65.0	0.2142857142857142	16.0	3.0	3.0	-0.509403796159333	0.455	n/a	stim	s627
450.801	0.42	-2.879180767039049	draw_card	0.0	columbia_card_task_fmri	14.0	0.7692307692307692	89.0	-65.0	0.2307692307692307	16.0	4.0	3.0	0.3587936642049243	0.42	n/a	stim	s627
451.226	0.604	-4.398411536269817	draw_card	0.0	columbia_card_task_fmri	14.0	0.75	89.0	-65.0	0.25	16.0	5.0	3.0	1.281378811016694	0.604	n/a	stim	s627
451.834	1.088	-6.193866081724362	draw_card	1.0	columbia_card_task_fmri	14.0	0.7272727272727273	89.0	-65.0	0.2727272727272727	16.0	6.0	3.0	2.2562157689668467	1.088	6.0	stim	s627
452.929	2.25	n/a	-1.0	n/a	columbia_card_task_fmri	n/a	n/a	-1.0	n/a	n/a	n/a	n/a	n/a	n/a	n/a	n/a	feedback	s627
455.179	1.02	n/a	-1.0	n/a	columbia_card_task_fmri	n/a	n/a	-1.0	n/a	n/a	n/a	n/a	n/a	n/a	n/a	n/a	ITI	s627
456.203	2.361	0.2890884637301829	draw_card	0.0	columbia_card_task_fmri	16.0	0.8125	89.0	-75.0	0.1875	16.0	1.0	3.0	2.5908174679161746	2.361	n/a	stim	s627
458.568	0.582	-0.8484115362698164	draw_card	0.0	columbia_card_task_fmri	16.0	0.8	89.0	-75.0	0.2	16.0	2.0	3.0	3.4717691913645794	0.582	n/a	stim	s627
459.153	0.4	-2.1484115362698155	draw_card	0.0	columbia_card_task_fmri	16.0	0.7857142857142857	89.0	-75.0	0.2142857142857142	16.0	3.0	3.0	4.410795554067327	0.4	n/a	stim	s627
459.557	0.371	-3.648411536269821	draw_card	0.0	columbia_card_task_fmri	16.0	0.7692307692307692	89.0	-75.0	0.2307692307692307	16.0	4.0	3.0	5.411079385805046	0.371	n/a	stim	s627
459.931	0.661	-5.398411536269817	end_round	0.0	columbia_card_task_fmri	16.0	0.75	71.0	-75.0	0.25	16.0	5.0	3.0	6.474013791408218	0.661	4.0	stim	s627
460.602	2.25	n/a	-1.0	n/a	columbia_card_task_fmri	n/a	n/a	-1.0	n/a	n/a	n/a	n/a	n/a	n/a	n/a	n/a	feedback	s627
462.852	0.0	n/a	-1.0	n/a	columbia_card_task_fmri	n/a	n/a	-1.0	n/a	n/a	n/a	n/a	n/a	n/a	n/a	n/a	ITI	s627
462.856	2.477	4.551588463730184	draw_card	0.0	columbia_card_task_fmri	16.0	0.8666666666666667	89.0	-80.0	0.1333333333333333	15.0	1.0	2.0	-0.2916132415134171	2.477	n/a	stim	s627
465.336	0.397	3.637302749444471	draw_card	0.0	columbia_card_task_fmri	16.0	0.8571428571428572	89.0	-80.0	0.1428571428571428	15.0	2.0	2.0	0.666865796801531	0.397	n/a	stim	s627
465.738	0.458	2.5823576944994127	draw_card	0.0	columbia_card_task_fmri	16.0	0.8461538461538461	89.0	-80.0	0.1538461538461538	15.0	3.0	2.0	1.7099614792484914	0.458	n/a	stim	s627
466.2	0.457	1.3515884637301847	draw_card	0.0	columbia_card_task_fmri	16.0	0.8333333333333334	89.0	-80.0	0.1666666666666666	15.0	4.0	2.0	2.8492932696834785	0.457	n/a	stim	s627
466.661	1.511	-0.1029569908152738	draw_card	0.0	columbia_card_task_fmri	16.0	0.8181818181818181	89.0	-80.0	0.1818181818181818	15.0	5.0	2.0	4.098027275169038	1.511	n/a	stim	s627
468.177	0.887	-1.8484115362698164	end_round	0.0	columbia_card_task_fmri	16.0	0.8	71.0	-80.0	0.2	15.0	6.0	2.0	5.470463530172495	0.887	5.0	stim	s627
469.071	2.25	n/a	-1.0	n/a	columbia_card_task_fmri	n/a	n/a	-1.0	n/a	n/a	n/a	n/a	n/a	n/a	n/a	n/a	feedback	s627
471.321	0.0	n/a	-1.0	n/a	columbia_card_task_fmri	n/a	n/a	-1.0	n/a	n/a	n/a	n/a	n/a	n/a	n/a	n/a	ITI	s627
471.325	2.021	5.418255130396851	draw_card	0.0	columbia_card_task_fmri	17.0	0.8666666666666667	89.0	-80.0	0.1333333333333333	15.0	1.0	2.0	0.0480332099532461	2.021	n/a	stim	s627
473.35	0.638	4.494445606587329	draw_card	0.0	columbia_card_task_fmri	17.0	0.8571428571428572	89.0	-80.0	0.1428571428571428	15.0	2.0	2.0	1.0165129294113484	0.638	n/a	stim	s627
473.992	0.457	3.42851154065326	draw_card	0.0	columbia_card_task_fmri	17.0	0.8461538461538461	89.0	-80.0	0.1538461538461538	15.0	3.0	2.0	2.07049113675437	0.457	n/a	stim	s627
474.453	0.79	2.1849217970635184	draw_card	0.0	columbia_card_task_fmri	17.0	0.8333333333333334	89.0	-80.0	0.1666666666666666	15.0	4.0	2.0	3.2217083466446894	0.79	n/a	stim	s627
475.246	0.881	0.7152248273665445	draw_card	0.0	columbia_card_task_fmri	17.0	0.8181818181818181	89.0	-80.0	0.1818181818181818	15.0	5.0	2.0	4.483467819092446	0.881	n/a	stim	s627
476.131	1.76	-1.0484115362698156	draw_card	0.0	columbia_card_task_fmri	17.0	0.8	89.0	-80.0	0.2	15.0	6.0	2.0	5.870218535386499	1.76	n/a	stim	s627
477.895	0.946	-3.2039670918253726	end_round	0.0	columbia_card_task_fmri	17.0	0.7777777777777778	71.0	-80.0	0.2222222222222222	15.0	7.0	2.0	7.3960798947193	0.946	6.0	stim	s627
478.847	2.25	n/a	-1.0	n/a	columbia_card_task_fmri	n/a	n/a	-1.0	n/a	n/a	n/a	n/a	n/a	n/a	n/a	n/a	feedback	s627
481.097	0.068	n/a	-1.0	n/a	columbia_card_task_fmri	n/a	n/a	-1.0	n/a	n/a	n/a	n/a	n/a	n/a	n/a	n/a	ITI	s627
481.17	2.773	1.351588463730183	draw_card	0.0	columbia_card_task_fmri	1.0	0.9375	89.0	-15.0	0.0625	16.0	1.0	1.0	-28.85126823577517	2.773	n/a	stim	s627
483.946	0.842	1.2849217970635165	draw_card	0.0	columbia_card_task_fmri	1.0	0.9333333333333332	89.0	-15.0	0.0666666666666666	16.0	2.0	1.0	-28.739566497360777	0.842	n/a	stim	s627
484.792	0.945	1.20873132087304	draw_card	0.0	columbia_card_task_fmri	1.0	0.9285714285714286	89.0	-15.0	0.0714285714285714	16.0	3.0	1.0	-28.616682749056977	0.945	n/a	stim	s627
485.74	1.164	1.120819232960952	draw_card	0.0	columbia_card_task_fmri	1.0	0.9230769230769232	89.0	-15.0	0.0769230769230769	16.0	4.0	1.0	-28.480698080032	1.164	n/a	stim	s627
486.909	2.196	1.0182551303968497	end_round	0.0	columbia_card_task_fmri	1.0	0.9166666666666666	71.0	-15.0	0.0833333333333333	16.0	5.0	1.0	-28.3292104663542	2.196	4.0	stim	s627
489.113	2.25	n/a	-1.0	n/a	columbia_card_task_fmri	n/a	n/a	-1.0	n/a	n/a	n/a	n/a	n/a	n/a	n/a	n/a	feedback	s627
491.363	0.476	n/a	-1.0	n/a	columbia_card_task_fmri	n/a	n/a	-1.0	n/a	n/a	n/a	n/a	n/a	n/a	n/a	n/a	ITI	s627
491.844	1.943	4.476588463730183	draw_card	0.0	columbia_card_task_fmri	10.0	0.9375	89.0	-100.0	0.0625	16.0	1.0	1.0	-6.292273343657431	1.943	n/a	stim	s627
493.791	0.697	4.01825513039685	draw_card	0.0	columbia_card_task_fmri	10.0	0.9333333333333332	89.0	-100.0	0.0666666666666666	16.0	2.0	1.0	-5.481226339784676	0.697	n/a	stim	s627
494.492	1.104	3.494445606587327	draw_card	0.0	columbia_card_task_fmri	10.0	0.9285714285714286	89.0	-100.0	0.0714285714285714	16.0	3.0	1.0	-4.591760281199573	1.104	n/a	stim	s627
495.601	0.559	2.890050002191722	draw_card	0.0	columbia_card_task_fmri	10.0	0.9230769230769232	89.0	-100.0	0.0769230769230769	16.0	4.0	1.0	-3.6105414023525775	0.559	n/a	stim	s627
496.163	0.836	2.1849217970635166	draw_card	0.0	columbia_card_task_fmri	10.0	0.9166666666666666	89.0	-100.0	0.0833333333333333	16.0	5.0	1.0	-2.5208928266466373	0.836	n/a	stim	s627
497.004	2.012	1.3515884637301812	draw_card	0.0	columbia_card_task_fmri	10.0	0.9090909090909092	89.0	-100.0	0.0909090909090909	16.0	6.0	1.0	-1.3016679231706405	2.012	n/a	stim	s627
499.02	1.123	0.3515884637301829	draw_card	0.0	columbia_card_task_fmri	10.0	0.9	89.0	-100.0	0.1	16.0	7.0	1.0	0.0743516058699711	1.123	n/a	stim	s627
500.146	1.108	-0.8706337584920385	end_round	0.0	columbia_card_task_fmri	10.0	0.8888888888888888	71.0	-100.0	0.1111111111111111	16.0	8.0	1.0	1.6427611994977482	1.108	7.0	stim	s627
501.262	2.25	n/a	-1.0	n/a	columbia_card_task_fmri	n/a	n/a	-1.0	n/a	n/a	n/a	n/a	n/a	n/a	n/a	n/a	feedback	s627
503.512	0.136	n/a	-1.0	n/a	columbia_card_task_fmri	n/a	n/a	-1.0	n/a	n/a	n/a	n/a	n/a	n/a	n/a	n/a	ITI	s627
503.653	3.111	5.101588463730183	draw_card	0.0	columbia_card_task_fmri	15.0	0.875	89.0	-75.0	0.125	16.0	1.0	2.0	-3.1579417961067837	3.111	n/a	stim	s627
506.768	0.517	4.351588463730183	draw_card	1.0	columbia_card_task_fmri	15.0	0.8666666666666667	89.0	-75.0	0.1333333333333333	16.0	2.0	2.0	-2.3293576527206383	0.517	2.0	stim	s627
507.292	2.25	n/a	-1.0	n/a	columbia_card_task_fmri	n/a	n/a	-1.0	n/a	n/a	n/a	n/a	n/a	n/a	n/a	n/a	feedback	s627
509.542	0.068	n/a	-1.0	n/a	columbia_card_task_fmri	n/a	n/a	-1.0	n/a	n/a	n/a	n/a	n/a	n/a	n/a	n/a	ITI	s627
509.615	3.122	5.351588463730183	draw_card	0.0	columbia_card_task_fmri	16.0	0.875	89.0	-80.0	0.125	16.0	1.0	2.0	-1.1755434833910812	3.122	n/a	stim	s627
512.742	0.504	4.551588463730184	draw_card	0.0	columbia_card_task_fmri	16.0	0.8666666666666667	89.0	-80.0	0.1333333333333333	16.0	2.0	2.0	-0.2916132415134171	0.504	n/a	stim	s627
513.251	1.888	3.637302749444471	draw_card	0.0	columbia_card_task_fmri	16.0	0.8571428571428572	89.0	-80.0	0.1428571428571428	16.0	3.0	2.0	0.666865796801531	1.888	n/a	stim	s627
515.144	0.55	2.5823576944994127	draw_card	0.0	columbia_card_task_fmri	16.0	0.8461538461538461	89.0	-80.0	0.1538461538461538	16.0	4.0	2.0	1.7099614792484914	0.55	n/a	stim	s627
515.699	1.848	1.3515884637301847	draw_card	0.0	columbia_card_task_fmri	16.0	0.8333333333333334	89.0	-80.0	0.1666666666666666	16.0	5.0	2.0	2.8492932696834785	1.848	n/a	stim	s627
517.552	0.685	-0.1029569908152738	end_round	0.0	columbia_card_task_fmri	16.0	0.8181818181818181	71.0	-80.0	0.1818181818181818	16.0	6.0	2.0	4.098027275169038	0.685	5.0	stim	s627
518.246	2.25	n/a	-1.0	n/a	columbia_card_task_fmri	n/a	n/a	-1.0	n/a	n/a	n/a	n/a	n/a	n/a	n/a	n/a	feedback	s627
520.496	0.0	n/a	-1.0	n/a	columbia_card_task_fmri	n/a	n/a	-1.0	n/a	n/a	n/a	n/a	n/a	n/a	n/a	n/a	ITI	s627
520.499	4.602	2.5390884637301827	draw_card	1.0	columbia_card_task_fmri	4.0	0.6875	89.0	-5.0	0.3125	16.0	1.0	5.0	-28.568211677473283	4.602	1.0	stim	s627
525.11	2.25	n/a	-1.0	n/a	columbia_card_task_fmri	n/a	n/a	-1.0	n/a	n/a	n/a	n/a	n/a	n/a	n/a	n/a	feedback	s627
527.36	0.0	n/a	-1.0	n/a	columbia_card_task_fmri	n/a	n/a	-1.0	n/a	n/a	n/a	n/a	n/a	n/a	n/a	n/a	ITI	s627
527.365	2.561	-0.3150782029364813	draw_card	1.0	columbia_card_task_fmri	14.0	0.8333333333333334	89.0	-80.0	0.1666666666666666	6.0	1.0	1.0	2.1044798794553543	2.561	1.0	stim	s627
529.936	2.25	n/a	-1.0	n/a	columbia_card_task_fmri	n/a	n/a	-1.0	n/a	n/a	n/a	n/a	n/a	n/a	n/a	n/a	feedback	s627
532.186	0.204	n/a	-1.0	n/a	columbia_card_task_fmri	n/a	n/a	-1.0	n/a	n/a	n/a	n/a	n/a	n/a	n/a	n/a	ITI	s627
532.395	1.083	1.351588463730183	draw_card	0.0	columbia_card_task_fmri	15.0	0.8333333333333334	89.0	-75.0	0.1666666666666666	6.0	1.0	1.0	0.6149253610667387	1.083	n/a	stim	s627
533.483	0.42	-1.648411536269817	draw_card	0.0	columbia_card_task_fmri	15.0	0.8	89.0	-75.0	0.2	6.0	2.0	1.0	3.072047714488143	0.42	n/a	stim	s627
533.907	1.284	-6.148411536269817	draw_card	1.0	columbia_card_task_fmri	15.0	0.75	89.0	-75.0	0.25	6.0	3.0	1.0	6.041258417569203	1.284	3.0	stim	s627
535.198	2.25	n/a	-1.0	n/a	columbia_card_task_fmri	n/a	n/a	-1.0	n/a	n/a	n/a	n/a	n/a	n/a	n/a	n/a	feedback	s627
537.448	0.204	n/a	-1.0	n/a	columbia_card_task_fmri	n/a	n/a	-1.0	n/a	n/a	n/a	n/a	n/a	n/a	n/a	n/a	ITI	s627
537.657	0.965	3.0182551303968506	draw_card	0.0	columbia_card_task_fmri	16.0	0.8333333333333334	89.0	-70.0	0.1666666666666666	6.0	1.0	1.0	-0.8745216232053963	0.965	n/a	stim	s627
538.627	0.397	0.1515884637301836	draw_card	0.0	columbia_card_task_fmri	16.0	0.8	89.0	-70.0	0.2	6.0	2.0	1.0	1.4732265073909616	0.397	n/a	stim	s627
539.029	0.881	-4.148411536269817	draw_card	0.0	columbia_card_task_fmri	16.0	0.75	89.0	-70.0	0.25	6.0	3.0	1.0	4.3102967088466	0.881	n/a	stim	s627
539.915	0.539	-11.315078202936482	end_round	0.0	columbia_card_task_fmri	16.0	0.6666666666666667	71.0	-70.0	0.3333333333333333	6.0	4.0	1.0	7.609997366612099	0.539	3.0	stim	s627
540.46	2.25	n/a	-1.0	n/a	columbia_card_task_fmri	n/a	n/a	-1.0	n/a	n/a	n/a	n/a	n/a	n/a	n/a	n/a	feedback	s627
542.71	0.272	n/a	-1.0	n/a	columbia_card_task_fmri	n/a	n/a	-1.0	n/a	n/a	n/a	n/a	n/a	n/a	n/a	n/a	ITI	s627
542.985	2.686	3.6015884637301827	draw_card	0.0	columbia_card_task_fmri	23.0	0.75	89.0	-60.0	0.25	8.0	1.0	2.0	3.012144245847921	2.686	n/a	stim	s627
545.674	0.433	0.6373027494444712	draw_card	0.0	columbia_card_task_fmri	23.0	0.7142857142857143	89.0	-60.0	0.2857142857142857	8.0	2.0	2.0	4.566614700123637	0.433	n/a	stim	s627
546.112	2.385	-3.3150782029364816	draw_card	0.0	columbia_card_task_fmri	23.0	0.6666666666666667	89.0	-60.0	0.3333333333333333	8.0	3.0	2.0	6.196597449023884	2.385	n/a	stim	s627
548.501	2.844	-8.848411536269818	draw_card	0.0	columbia_card_task_fmri	23.0	0.6	89.0	-60.0	0.4	8.0	4.0	2.0	7.730671462567471	2.844	n/a	stim	s627
551.349	1.537	-17.148411536269816	end_round	0.0	columbia_card_task_fmri	23.0	0.5	71.0	-60.0	0.5	8.0	5.0	2.0	8.568688247995247	1.537	4.0	stim	s627
552.891	2.25	n/a	-1.0	n/a	columbia_card_task_fmri	n/a	n/a	-1.0	n/a	n/a	n/a	n/a	n/a	n/a	n/a	n/a	feedback	s627
555.141	0.136	n/a	-1.0	n/a	columbia_card_task_fmri	n/a	n/a	-1.0	n/a	n/a	n/a	n/a	n/a	n/a	n/a	n/a	ITI	s627
555.282	2.775	4.101588463730183	draw_card	1.0	columbia_card_task_fmri	27.0	0.75	89.0	-70.0	0.25	8.0	1.0	2.0	9.070657364251607	2.775	1.0	stim	s627
558.064	2.25	n/a	-1.0	n/a	columbia_card_task_fmri	n/a	n/a	-1.0	n/a	n/a	n/a	n/a	n/a	n/a	n/a	n/a	feedback	s627
560.314	0.204	n/a	-1.0	n/a	columbia_card_task_fmri	n/a	n/a	-1.0	n/a	n/a	n/a	n/a	n/a	n/a	n/a	n/a	ITI	s627
560.522	2.83	-0.6484115362698153	draw_card	0.0	columbia_card_task_fmri	16.0	0.7777777777777778	89.0	-65.0	0.2222222222222222	9.0	1.0	2.0	0.7487140311583715	2.83	n/a	stim	s627
563.357	0.46	-2.8984115362698173	draw_card	1.0	columbia_card_task_fmri	16.0	0.75	89.0	-65.0	0.25	9.0	2.0	2.0	2.1467456772897293	0.46	2.0	stim	s627
563.826	2.25	n/a	-1.0	n/a	columbia_card_task_fmri	n/a	n/a	-1.0	n/a	n/a	n/a	n/a	n/a	n/a	n/a	n/a	feedback	s627
566.076	0.272	n/a	-1.0	n/a	columbia_card_task_fmri	n/a	n/a	-1.0	n/a	n/a	n/a	n/a	n/a	n/a	n/a	n/a	ITI	s627
566.352	4.674	4.551588463730184	draw_card	0.0	columbia_card_task_fmri	13.0	0.9	89.0	-85.0	0.1	10.0	1.0	1.0	-3.5222639706939702	4.674	n/a	stim	s627
571.032	0.594	3.462699574841293	draw_card	0.0	columbia_card_task_fmri	13.0	0.8888888888888888	89.0	-85.0	0.1111111111111111	10.0	2.0	1.0	-2.1252438099392243	0.594	n/a	stim	s627
571.631	0.816	2.1015884637301827	end_round	0.0	columbia_card_task_fmri	13.0	0.875	71.0	-85.0	0.125	10.0	3.0	1.0	-0.5146920026748063	0.816	2.0	stim	s627
572.456	2.25	n/a	-1.0	n/a	columbia_card_task_fmri	n/a	n/a	-1.0	n/a	n/a	n/a	n/a	n/a	n/a	n/a	n/a	feedback	s627
574.706	0.272	n/a	-1.0	n/a	columbia_card_task_fmri	n/a	n/a	-1.0	n/a	n/a	n/a	n/a	n/a	n/a	n/a	n/a	ITI	s627
574.985	3.28	-0.448411536269816	draw_card	0.0	columbia_card_task_fmri	14.0	0.8	89.0	-65.0	0.2	10.0	1.0	2.0	-1.324423734310752	3.28	n/a	stim	s627
578.271	0.431	-2.203967091825371	draw_card	0.0	columbia_card_task_fmri	14.0	0.7777777777777778	89.0	-65.0	0.2222222222222222	10.0	2.0	2.0	-0.0820795563019842	0.431	n/a	stim	s627
578.707	0.892	-4.398411536269817	draw_card	0.0	columbia_card_task_fmri	14.0	0.75	89.0	-65.0	0.25	10.0	3.0	2.0	1.281378811016694	0.892	n/a	stim	s627
579.605	0.562	-7.219840107698387	end_round	0.0	columbia_card_task_fmri	14.0	0.7142857142857143	71.0	-65.0	0.2857142857142857	10.0	4.0	2.0	2.760831054195016	0.562	3.0	stim	s627
580.174	2.25	n/a	-1.0	n/a	columbia_card_task_fmri	n/a	n/a	-1.0	n/a	n/a	n/a	n/a	n/a	n/a	n/a	n/a	feedback	s627
582.424	0.34	n/a	-1.0	n/a	columbia_card_task_fmri	n/a	n/a	-1.0	n/a	n/a	n/a	n/a	n/a	n/a	n/a	n/a	ITI	s627
582.768	1.626	0.9515884637301844	draw_card	0.0	columbia_card_task_fmri	17.0	0.8	89.0	-70.0	0.2	10.0	1.0	2.0	1.8729216585553203	1.626	n/a	stim	s627
584.4	1.259	-0.9817448696031492	draw_card	0.0	columbia_card_task_fmri	17.0	0.7777777777777778	89.0	-70.0	0.2222222222222222	10.0	2.0	2.0	3.241283779088647	1.259	n/a	stim	s627
585.665	0.871	-3.3984115362698173	draw_card	0.0	columbia_card_task_fmri	17.0	0.75	89.0	-70.0	0.25	10.0	3.0	2.0	4.743027756231996	0.871	n/a	stim	s627
586.54	1.023	-6.505554393412675	end_round	0.0	columbia_card_task_fmri	17.0	0.7142857142857143	71.0	-70.0	0.2857142857142857	10.0	4.0	2.0	6.372511542729676	1.023	3.0	stim	s627
587.57	2.25	n/a	-1.0	n/a	columbia_card_task_fmri	n/a	n/a	-1.0	n/a	n/a	n/a	n/a	n/a	n/a	n/a	n/a	feedback	s627
589.82	0.204	n/a	-1.0	n/a	columbia_card_task_fmri	n/a	n/a	-1.0	n/a	n/a	n/a	n/a	n/a	n/a	n/a	n/a	ITI	s627
590.029	2.448	-0.3150782029364831	draw_card	1.0	columbia_card_task_fmri	13.0	0.8333333333333334	89.0	-75.0	0.1666666666666666	12.0	1.0	2.0	-0.1298124877882145	2.448	1.0	stim	s627
592.484	2.25	n/a	-1.0	n/a	columbia_card_task_fmri	n/a	n/a	-1.0	n/a	n/a	n/a	n/a	n/a	n/a	n/a	n/a	feedback	s627
594.734	0.068	n/a	-1.0	n/a	columbia_card_task_fmri	n/a	n/a	-1.0	n/a	n/a	n/a	n/a	n/a	n/a	n/a	n/a	ITI	s627
594.807	1.624	1.3515884637301847	draw_card	0.0	columbia_card_task_fmri	14.0	0.8333333333333334	89.0	-70.0	0.1666666666666666	12.0	1.0	2.0	-1.6191999979120588	1.624	n/a	stim	s627
596.436	1.504	0.0788611910029077	draw_card	0.0	columbia_card_task_fmri	14.0	0.8181818181818181	89.0	-70.0	0.1818181818181818	12.0	2.0	2.0	-0.5267879806667963	1.504	n/a	stim	s627
597.946	0.531	-1.448411536269816	draw_card	0.0	columbia_card_task_fmri	14.0	0.8	89.0	-70.0	0.2	12.0	3.0	2.0	0.6738579540994181	0.531	n/a	stim	s627
598.481	0.731	-3.315078202936484	draw_card	0.0	columbia_card_task_fmri	14.0	0.7777777777777778	89.0	-70.0	0.2222222222222222	12.0	4.0	2.0	1.9949655763401992	0.731	n/a	stim	s627
599.218	1.084	-5.648411536269817	end_round	0.0	columbia_card_task_fmri	14.0	0.75	71.0	-70.0	0.25	12.0	5.0	2.0	3.4448547118467943	1.084	4.0	stim	s627
600.313	2.25	n/a	-1.0	n/a	columbia_card_task_fmri	n/a	n/a	-1.0	n/a	n/a	n/a	n/a	n/a	n/a	n/a	n/a	feedback	s627
602.563	0.0	n/a	-1.0	n/a	columbia_card_task_fmri	n/a	n/a	-1.0	n/a	n/a	n/a	n/a	n/a	n/a	n/a	n/a	ITI	s627
602.567	2.491	1.3515884637301847	draw_card	0.0	columbia_card_task_fmri	16.0	0.8333333333333334	89.0	-80.0	0.1666666666666666	12.0	1.0	2.0	2.8492932696834785	2.491	n/a	stim	s627
605.063	0.558	-0.1029569908152738	draw_card	0.0	columbia_card_task_fmri	16.0	0.8181818181818181	89.0	-80.0	0.1818181818181818	12.0	2.0	2.0	4.098027275169038	0.558	n/a	stim	s627
605.625	1.258	-1.8484115362698164	draw_card	1.0	columbia_card_task_fmri	16.0	0.8	89.0	-80.0	0.2	12.0	3.0	2.0	5.470463530172495	1.258	3.0	stim	s627
606.891	2.25	n/a	-1.0	n/a	columbia_card_task_fmri	n/a	n/a	-1.0	n/a	n/a	n/a	n/a	n/a	n/a	n/a	n/a	feedback	s627
609.141	0.408	n/a	-1.0	n/a	columbia_card_task_fmri	n/a	n/a	-1.0	n/a	n/a	n/a	n/a	n/a	n/a	n/a	n/a	ITI	s627
609.555	2.066	1.1515884637301836	draw_card	0.0	columbia_card_task_fmri	16.0	0.8	89.0	-65.0	0.2	15.0	1.0	3.0	-0.5251364823578939	2.066	n/a	stim	s627
611.627	0.507	-0.0055543934126729	draw_card	0.0	columbia_card_task_fmri	16.0	0.7857142857142857	89.0	-65.0	0.2142857142857142	15.0	2.0	3.0	0.3105531526913907	0.507	n/a	stim	s627
612.14	0.366	-1.3407192285775105	draw_card	0.0	columbia_card_task_fmri	16.0	0.7692307692307692	89.0	-65.0	0.2307692307692307	15.0	3.0	3.0	1.2007669905933724	0.366	n/a	stim	s627
612.51	0.95	-2.8984115362698173	draw_card	0.0	columbia_card_task_fmri	16.0	0.75	89.0	-65.0	0.25	15.0	4.0	3.0	2.1467456772897293	0.95	n/a	stim	s627
613.466	0.648	-4.739320627178907	draw_card	0.0	columbia_card_task_fmri	16.0	0.7272727272727273	89.0	-65.0	0.2727272727272727	15.0	5.0	3.0	3.14629899438966	0.648	n/a	stim	s627
614.119	1.861	-6.948411536269818	draw_card	0.0	columbia_card_task_fmri	16.0	0.7	89.0	-65.0	0.3	15.0	6.0	3.0	4.19014684319162	1.861	n/a	stim	s627
615.984	0.766	-9.648411536269814	end_round	0.0	columbia_card_task_fmri	16.0	0.6666666666666667	71.0	-65.0	0.3333333333333333	15.0	7.0	3.0	5.254364290054852	0.766	6.0	stim	s627
616.76	2.25	n/a	-1.0	n/a	columbia_card_task_fmri	n/a	n/a	-1.0	n/a	n/a	n/a	n/a	n/a	n/a	n/a	n/a	feedback	s627
619.01	0.204	n/a	-1.0	n/a	columbia_card_task_fmri	n/a	n/a	-1.0	n/a	n/a	n/a	n/a	n/a	n/a	n/a	n/a	ITI	s627
619.217	1.686	-0.5234115362698171	draw_card	0.0	columbia_card_task_fmri	15.0	0.8125	89.0	-75.0	0.1875	16.0	1.0	3.0	2.200790514156054	1.686	n/a	stim	s627
620.908	0.432	-1.648411536269817	draw_card	0.0	columbia_card_task_fmri	15.0	0.8	89.0	-75.0	0.2	16.0	2.0	3.0	3.072047714488143	0.432	n/a	stim	s627
621.345	0.405	-2.934125821984102	draw_card	1.0	columbia_card_task_fmri	15.0	0.7857142857142857	89.0	-75.0	0.2142857142857142	16.0	3.0	3.0	4.000741178888546	0.405	3.0	stim	s627
621.756	2.25	n/a	-1.0	n/a	columbia_card_task_fmri	n/a	n/a	-1.0	n/a	n/a	n/a	n/a	n/a	n/a	n/a	n/a	feedback	s627
624.006	0.136	n/a	-1.0	n/a	columbia_card_task_fmri	n/a	n/a	-1.0	n/a	n/a	n/a	n/a	n/a	n/a	n/a	n/a	ITI	s627
624.146	3.459	0.0390884637301829	draw_card	1.0	columbia_card_task_fmri	14.0	0.6875	89.0	-35.0	0.3125	16.0	1.0	5.0	-10.20102688439782	3.459	1.0	stim	s627
627.611	2.25	n/a	-1.0	n/a	columbia_card_task_fmri	n/a	n/a	-1.0	n/a	n/a	n/a	n/a	n/a	n/a	n/a	n/a	feedback	s627
629.861	0.34	n/a	-1.0	n/a	columbia_card_task_fmri	n/a	n/a	-1.0	n/a	n/a	n/a	n/a	n/a	n/a	n/a	n/a	ITI	s627
630.206	2.065	5.21825513039685	draw_card	0.0	columbia_card_task_fmri	16.0	0.8666666666666667	89.0	-75.0	0.1333333333333333	15.0	1.0	2.0	-1.9897506241789704	2.065	n/a	stim	s627
632.277	0.764	4.3515884637301845	draw_card	0.0	columbia_card_task_fmri	16.0	0.8571428571428572	89.0	-75.0	0.1428571428571428	15.0	2.0	2.0	-1.0812776870774314	0.764	n/a	stim	s627
633.046	2.889	3.3515884637301827	draw_card	0.0	columbia_card_task_fmri	16.0	0.8461538461538461	89.0	-75.0	0.1538461538461538	15.0	3.0	2.0	-0.092597394021368	2.889	n/a	stim	s627
635.941	0.494	2.1849217970635166	draw_card	0.0	columbia_card_task_fmri	16.0	0.8333333333333334	89.0	-75.0	0.1666666666666666	15.0	4.0	2.0	0.987304462372748	0.494	n/a	stim	s627
636.44	0.62	0.8061339182756362	end_round	0.0	columbia_card_task_fmri	16.0	0.8181818181818181	71.0	-75.0	0.1818181818181818	15.0	5.0	2.0	2.1709082234133987	0.62	4.0	stim	s627
637.067	2.25	n/a	-1.0	n/a	columbia_card_task_fmri	n/a	n/a	-1.0	n/a	n/a	n/a	n/a	n/a	n/a	n/a	n/a	feedback	s627
639.317	0.068	n/a	-1.0	n/a	columbia_card_task_fmri	n/a	n/a	-1.0	n/a	n/a	n/a	n/a	n/a	n/a	n/a	n/a	ITI	s627
639.391	1.99	5.884921797063516	draw_card	0.0	columbia_card_task_fmri	16.0	0.8666666666666667	89.0	-70.0	0.1333333333333333	15.0	1.0	2.0	-3.6877096973838057	1.99	n/a	stim	s627
641.387	0.553	5.065874178015898	draw_card	0.0	columbia_card_task_fmri	16.0	0.8571428571428572	89.0	-70.0	0.1428571428571428	15.0	2.0	2.0	-2.829247925276011	0.553	n/a	stim	s627
641.946	1.044	4.120819232960951	draw_card	1.0	columbia_card_task_fmri	16.0	0.8461538461538461	89.0	-70.0	0.1538461538461538	15.0	3.0	2.0	-1.8949882159889349	1.044	3.0	stim	s627
642.998	2.25	n/a	-1.0	n/a	columbia_card_task_fmri	n/a	n/a	-1.0	n/a	n/a	n/a	n/a	n/a	n/a	n/a	n/a	feedback	s627
645.248	0.34	n/a	-1.0	n/a	columbia_card_task_fmri	n/a	n/a	-1.0	n/a	n/a	n/a	n/a	n/a	n/a	n/a	n/a	ITI	s627
645.593	2.8	3.2265884637301827	draw_card	0.0	columbia_card_task_fmri	8.0	0.9375	89.0	-90.0	0.0625	16.0	1.0	1.0	-9.192819533128688	2.8	n/a	stim	s627
648.398	0.427	2.818255130396849	draw_card	0.0	columbia_card_task_fmri	8.0	0.9333333333333332	89.0	-90.0	0.0666666666666666	16.0	2.0	1.0	-8.470484456974955	0.427	n/a	stim	s627
648.831	0.376	2.351588463730184	draw_card	0.0	columbia_card_task_fmri	8.0	0.9285714285714286	89.0	-90.0	0.0714285714285714	16.0	3.0	1.0	-7.678292379674563	0.376	n/a	stim	s627
649.213	0.4	1.8131269252686448	draw_card	0.0	columbia_card_task_fmri	8.0	0.9230769230769232	89.0	-90.0	0.0769230769230769	16.0	4.0	1.0	-6.804364809448877	0.4	n/a	stim	s627
649.618	0.418	1.184921797063516	draw_card	0.0	columbia_card_task_fmri	8.0	0.9166666666666666	89.0	-90.0	0.0833333333333333	16.0	5.0	1.0	-5.833844952182744	0.418	n/a	stim	s627
650.041	0.498	0.4424975546392737	draw_card	0.0	columbia_card_task_fmri	8.0	0.9090909090909092	89.0	-90.0	0.0909090909090909	16.0	6.0	1.0	-4.747893995069411	0.498	n/a	stim	s627
650.544	0.496	-0.4484115362698169	draw_card	0.0	columbia_card_task_fmri	8.0	0.9	89.0	-90.0	0.1	16.0	7.0	1.0	-3.5222639706939702	0.496	n/a	stim	s627
651.043	0.977	-1.5373004251587064	end_round	0.0	columbia_card_task_fmri	8.0	0.8888888888888888	71.0	-90.0	0.1111111111111111	16.0	8.0	1.0	-2.1252438099392243	0.977	7.0	stim	s627
652.029	2.25	n/a	-1.0	n/a	columbia_card_task_fmri	n/a	n/a	-1.0	n/a	n/a	n/a	n/a	n/a	n/a	n/a	n/a	feedback	s627
654.279	0.136	n/a	-1.0	n/a	columbia_card_task_fmri	n/a	n/a	-1.0	n/a	n/a	n/a	n/a	n/a	n/a	n/a	n/a	ITI	s627
654.419	3.645	4.789088463730183	draw_card	0.0	columbia_card_task_fmri	10.0	0.9375	89.0	-95.0	0.0625	16.0	1.0	1.0	-7.500950433084739	3.645	n/a	stim	s627
658.067	0.516	4.351588463730184	draw_card	0.0	columbia_card_task_fmri	10.0	0.9333333333333332	89.0	-95.0	0.0666666666666666	16.0	2.0	1.0	-6.726863322442011	0.516	n/a	stim	s627
658.589	0.706	3.851588463730184	draw_card	0.0	columbia_card_task_fmri	10.0	0.9285714285714286	89.0	-95.0	0.0714285714285714	16.0	3.0	1.0	-5.877924572057207	0.706	n/a	stim	s627
659.299	0.511	3.274665386807106	draw_card	0.0	columbia_card_task_fmri	10.0	0.9230769230769232	89.0	-95.0	0.0769230769230769	16.0	4.0	1.0	-4.941406770413625	0.511	n/a	stim	s627
659.815	0.538	2.6015884637301827	draw_card	0.0	columbia_card_task_fmri	10.0	0.9166666666666666	89.0	-95.0	0.0833333333333333	16.0	5.0	1.0	-3.901391397020156	0.538	n/a	stim	s627
660.358	0.42	1.806133918275636	draw_card	0.0	columbia_card_task_fmri	10.0	0.9090909090909092	89.0	-95.0	0.0909090909090909	16.0	6.0	1.0	-2.7376933983910128	0.42	n/a	stim	s627
660.782	1.133	0.8515884637301829	draw_card	0.0	columbia_card_task_fmri	10.0	0.9	89.0	-95.0	0.1	16.0	7.0	1.0	-1.4243320987489303	1.133	n/a	stim	s627
661.92	1.275	-0.3150782029364831	end_round	0.0	columbia_card_task_fmri	10.0	0.8888888888888888	71.0	-95.0	0.1111111111111111	16.0	8.0	1.0	0.0726694716083002	1.275	7.0	stim	s627
663.201	2.25	n/a	-1.0	n/a	columbia_card_task_fmri	n/a	n/a	-1.0	n/a	n/a	n/a	n/a	n/a	n/a	n/a	n/a	feedback	s627
665.451	0.068	n/a	-1.0	n/a	columbia_card_task_fmri	n/a	n/a	-1.0	n/a	n/a	n/a	n/a	n/a	n/a	n/a	n/a	ITI	s627
665.523	1.99	5.726588463730183	draw_card	1.0	columbia_card_task_fmri	15.0	0.875	89.0	-70.0	0.125	16.0	1.0	2.0	-4.809734189147441	1.99	1.0	stim	s627
667.521	2.25	n/a	-1.0	n/a	columbia_card_task_fmri	n/a	n/a	-1.0	n/a	n/a	n/a	n/a	n/a	n/a	n/a	n/a	feedback	s627
669.771	0.068	n/a	-1.0	n/a	columbia_card_task_fmri	n/a	n/a	-1.0	n/a	n/a	n/a	n/a	n/a	n/a	n/a	n/a	ITI	s627
669.844	0.954	4.726588463730183	draw_card	0.0	columbia_card_task_fmri	16.0	0.875	89.0	-85.0	0.125	16.0	1.0	2.0	0.476628704166572	0.954	n/a	stim	s627
670.804	0.501	3.884921797063516	draw_card	0.0	columbia_card_task_fmri	16.0	0.8666666666666667	89.0	-85.0	0.1333333333333333	16.0	2.0	2.0	1.4066760134254466	0.501	n/a	stim	s627
671.311	0.52	2.923017035158756	draw_card	0.0	columbia_card_task_fmri	16.0	0.8571428571428572	89.0	-85.0	0.1428571428571428	16.0	3.0	2.0	2.415156837533125	0.52	n/a	stim	s627
671.837	0.42	1.8131269252686428	draw_card	0.0	columbia_card_task_fmri	16.0	0.8461538461538461	89.0	-85.0	0.1538461538461538	16.0	4.0	2.0	3.5126634828720213	0.42	n/a	stim	s627
672.262	0.845	0.5182551303968508	draw_card	1.0	columbia_card_task_fmri	16.0	0.8333333333333334	89.0	-85.0	0.1666666666666666	16.0	5.0	2.0	4.711420665865738	0.845	5.0	stim	s627
673.116	2.25	n/a	-1.0	n/a	columbia_card_task_fmri	n/a	n/a	-1.0	n/a	n/a	n/a	n/a	n/a	n/a	n/a	n/a	feedback	s627
675.366	0.068	n/a	-1.0	n/a	columbia_card_task_fmri	n/a	n/a	-1.0	n/a	n/a	n/a	n/a	n/a	n/a	n/a	n/a	ITI	s627
