onset	duration	planning	condition	current_position	exp_stage	experiment_exp_id	goal_state	key_press	problem_id	response_time	start_state	trial_id	worker_id
-65.331	0.0	0	n/a	n/a	n/a	ward_and_allport	n/a	32.0	n/a	24.988	n/a	instructions	s584
3.013	2.974	1	UA_with_intermediate	1,0,0,2,0,0,0,0,0	practice	ward_and_allport	1,2,3,0,0,0,0,0,0	71.0	0.0	2.974	1,0,0,2,3,0,0,0,0	to_hand	s584
5.99	1.126	0	UA_with_intermediate	1,0,0,2,0,0,3,0,0	practice	ward_and_allport	1,2,3,0,0,0,0,0,0	82.0	0.0	1.126	1,0,0,2,3,0,0,0,0	to_board	s584
7.119	0.728	0	UA_with_intermediate	1,0,0,0,0,0,3,0,0	practice	ward_and_allport	1,2,3,0,0,0,0,0,0	71.0	0.0	0.728	1,0,0,2,3,0,0,0,0	to_hand	s584
7.849	0.654	0	UA_with_intermediate	1,2,0,0,0,0,3,0,0	practice	ward_and_allport	1,2,3,0,0,0,0,0,0	89.0	0.0	0.654	1,0,0,2,3,0,0,0,0	to_board	s584
8.505	0.92	0	UA_with_intermediate	1,2,0,0,0,0,0,0,0	practice	ward_and_allport	1,2,3,0,0,0,0,0,0	82.0	0.0	0.92	1,0,0,2,3,0,0,0,0	to_hand	s584
9.427	0.615	0	UA_with_intermediate	1,2,3,0,0,0,0,0,0	practice	ward_and_allport	1,2,3,0,0,0,0,0,0	89.0	0.0	0.615	1,0,0,2,3,0,0,0,0	to_board	s584
10.047	1.0	0	UA_with_intermediate	n/a	practice	ward_and_allport	n/a	-1.0	0.0	n/a	n/a	feedback	s584
12.55	2.369	1	UA_with_intermediate	1,2,0,0,0,0,0,0,0	practice	ward_and_allport	1,3,2,0,0,0,0,0,0	71.0	1.0	2.369	1,2,0,3,0,0,0,0,0	to_hand	s584
14.92	0.588	0	UA_with_intermediate	1,2,0,0,0,0,3,0,0	practice	ward_and_allport	1,3,2,0,0,0,0,0,0	82.0	1.0	0.588	1,2,0,3,0,0,0,0,0	to_board	s584
15.512	1.92	0	UA_with_intermediate	1,0,0,0,0,0,3,0,0	practice	ward_and_allport	1,3,2,0,0,0,0,0,0	89.0	1.0	1.92	1,2,0,3,0,0,0,0,0	to_hand	s584
17.433	0.809	0	UA_with_intermediate	1,0,0,0,0,0,3,2,0	practice	ward_and_allport	1,3,2,0,0,0,0,0,0	82.0	1.0	0.809	1,2,0,3,0,0,0,0,0	to_board	s584
18.244	0.498	0	UA_with_intermediate	0,0,0,0,0,0,3,2,0	practice	ward_and_allport	1,3,2,0,0,0,0,0,0	89.0	1.0	0.498	1,2,0,3,0,0,0,0,0	to_hand	s584
18.743	0.817	0	UA_with_intermediate	1,0,0,0,0,0,3,2,0	practice	ward_and_allport	1,3,2,0,0,0,0,0,0	89.0	1.0	0.817	1,2,0,3,0,0,0,0,0	to_board	s584
19.563	0.716	0	UA_with_intermediate	0,0,0,0,0,0,3,2,0	practice	ward_and_allport	1,3,2,0,0,0,0,0,0	89.0	1.0	0.716	1,2,0,3,0,0,0,0,0	to_hand	s584
20.28	0.484	0	UA_with_intermediate	0,0,0,1,0,0,3,2,0	practice	ward_and_allport	1,3,2,0,0,0,0,0,0	71.0	1.0	0.484	1,2,0,3,0,0,0,0,0	to_board	s584
20.767	2.007	0	UA_with_intermediate	0,0,0,1,0,0,3,0,0	practice	ward_and_allport	1,3,2,0,0,0,0,0,0	82.0	1.0	2.007	1,2,0,3,0,0,0,0,0	to_hand	s584
22.775	0.545	0	UA_with_intermediate	0,0,0,1,0,0,3,2,0	practice	ward_and_allport	1,3,2,0,0,0,0,0,0	82.0	1.0	0.545	1,2,0,3,0,0,0,0,0	to_board	s584
23.323	0.623	0	UA_with_intermediate	0,0,0,1,0,0,3,0,0	practice	ward_and_allport	1,3,2,0,0,0,0,0,0	82.0	1.0	0.623	1,2,0,3,0,0,0,0,0	to_hand	s584
23.948	0.424	0	UA_with_intermediate	2,0,0,1,0,0,3,0,0	practice	ward_and_allport	1,3,2,0,0,0,0,0,0	89.0	1.0	0.424	1,2,0,3,0,0,0,0,0	to_board	s584
24.375	0.848	0	UA_with_intermediate	2,0,0,1,0,0,0,0,0	practice	ward_and_allport	1,3,2,0,0,0,0,0,0	82.0	1.0	0.848	1,2,0,3,0,0,0,0,0	to_hand	s584
25.225	0.675	0	UA_with_intermediate	2,0,0,1,3,0,0,0,0	practice	ward_and_allport	1,3,2,0,0,0,0,0,0	71.0	1.0	0.675	1,2,0,3,0,0,0,0,0	to_board	s584
25.902	1.511	0	UA_with_intermediate	2,0,0,1,0,0,0,0,0	practice	ward_and_allport	1,3,2,0,0,0,0,0,0	71.0	1.0	1.511	1,2,0,3,0,0,0,0,0	to_hand	s584
27.415	0.432	0	UA_with_intermediate	2,0,0,1,0,0,3,0,0	practice	ward_and_allport	1,3,2,0,0,0,0,0,0	82.0	1.0	0.432	1,2,0,3,0,0,0,0,0	to_board	s584
27.849	0.816	0	UA_with_intermediate	0,0,0,1,0,0,3,0,0	practice	ward_and_allport	1,3,2,0,0,0,0,0,0	89.0	1.0	0.816	1,2,0,3,0,0,0,0,0	to_hand	s584
28.665	0.861	0	UA_with_intermediate	2,0,0,1,0,0,3,0,0	practice	ward_and_allport	1,3,2,0,0,0,0,0,0	89.0	1.0	0.861	1,2,0,3,0,0,0,0,0	to_board	s584
29.528	0.365	0	UA_with_intermediate	0,0,0,1,0,0,3,0,0	practice	ward_and_allport	1,3,2,0,0,0,0,0,0	89.0	1.0	0.365	1,2,0,3,0,0,0,0,0	to_hand	s584
29.894	0.314	0	UA_with_intermediate	0,0,0,1,0,0,3,2,0	practice	ward_and_allport	1,3,2,0,0,0,0,0,0	82.0	1.0	0.314	1,2,0,3,0,0,0,0,0	to_board	s584
30.21	0.678	0	UA_with_intermediate	0,0,0,0,0,0,3,2,0	practice	ward_and_allport	1,3,2,0,0,0,0,0,0	71.0	1.0	0.678	1,2,0,3,0,0,0,0,0	to_hand	s584
30.89	0.508	0	UA_with_intermediate	1,0,0,0,0,0,3,2,0	practice	ward_and_allport	1,3,2,0,0,0,0,0,0	89.0	1.0	0.508	1,2,0,3,0,0,0,0,0	to_board	s584
31.4	2.49	0	UA_with_intermediate	1,0,0,0,0,0,3,0,0	practice	ward_and_allport	1,3,2,0,0,0,0,0,0	82.0	1.0	2.49	1,2,0,3,0,0,0,0,0	to_hand	s584
33.892	0.672	0	UA_with_intermediate	1,0,0,2,0,0,3,0,0	practice	ward_and_allport	1,3,2,0,0,0,0,0,0	71.0	1.0	0.672	1,2,0,3,0,0,0,0,0	to_board	s584
34.567	0.901	0	UA_with_intermediate	1,0,0,2,0,0,0,0,0	practice	ward_and_allport	1,3,2,0,0,0,0,0,0	82.0	1.0	0.901	1,2,0,3,0,0,0,0,0	to_hand	s584
35.47	0.745	0	UA_with_intermediate	1,3,0,2,0,0,0,0,0	practice	ward_and_allport	1,3,2,0,0,0,0,0,0	89.0	1.0	0.745	1,2,0,3,0,0,0,0,0	to_board	s584
36.217	0.476	0	UA_with_intermediate	1,3,0,0,0,0,0,0,0	practice	ward_and_allport	1,3,2,0,0,0,0,0,0	71.0	1.0	0.476	1,2,0,3,0,0,0,0,0	to_hand	s584
36.694	0.379	0	UA_with_intermediate	1,3,2,0,0,0,0,0,0	practice	ward_and_allport	1,3,2,0,0,0,0,0,0	89.0	1.0	0.379	1,2,0,3,0,0,0,0,0	to_board	s584
37.078	1.0	0	UA_with_intermediate	n/a	practice	ward_and_allport	n/a	-1.0	1.0	n/a	n/a	feedback	s584
38.078	1.1	0	UA_with_intermediate	n/a	practice	ward_and_allport	n/a	-1.0	1.0	n/a	n/a	ITI	s584
39.181	3.637	1	UA_without_intermediate	0,0,0,1,2,0,0,0,0	practice	ward_and_allport	3,2,1,0,0,0,0,0,0	82.0	2.0	3.637	0,0,0,1,2,0,3,0,0	to_hand	s584
42.819	0.544	0	UA_without_intermediate	3,0,0,1,2,0,0,0,0	practice	ward_and_allport	3,2,1,0,0,0,0,0,0	89.0	2.0	0.544	0,0,0,1,2,0,3,0,0	to_board	s584
43.365	0.658	0	UA_without_intermediate	3,0,0,1,0,0,0,0,0	practice	ward_and_allport	3,2,1,0,0,0,0,0,0	71.0	2.0	0.658	0,0,0,1,2,0,3,0,0	to_hand	s584
44.025	0.52	0	UA_without_intermediate	3,2,0,1,0,0,0,0,0	practice	ward_and_allport	3,2,1,0,0,0,0,0,0	89.0	2.0	0.52	0,0,0,1,2,0,3,0,0	to_board	s584
44.549	0.637	0	UA_without_intermediate	3,2,0,0,0,0,0,0,0	practice	ward_and_allport	3,2,1,0,0,0,0,0,0	71.0	2.0	0.637	0,0,0,1,2,0,3,0,0	to_hand	s584
45.188	0.454	0	UA_without_intermediate	3,2,1,0,0,0,0,0,0	practice	ward_and_allport	3,2,1,0,0,0,0,0,0	89.0	2.0	0.454	0,0,0,1,2,0,3,0,0	to_board	s584
45.646	1.0	0	UA_without_intermediate	n/a	practice	ward_and_allport	n/a	-1.0	2.0	n/a	n/a	feedback	s584
46.646	1.2	0	UA_without_intermediate	n/a	practice	ward_and_allport	n/a	-1.0	2.0	n/a	n/a	ITI	s584
47.85	2.222	1	UA_without_intermediate	0,0,0,1,0,0,3,0,0	practice	ward_and_allport	2,3,1,0,0,0,0,0,0	71.0	3.0	2.222	0,0,0,1,2,0,3,0,0	to_hand	s584
50.074	0.44	0	UA_without_intermediate	2,0,0,1,0,0,3,0,0	practice	ward_and_allport	2,3,1,0,0,0,0,0,0	89.0	3.0	0.44	0,0,0,1,2,0,3,0,0	to_board	s584
50.518	0.56	0	UA_without_intermediate	2,0,0,0,0,0,3,0,0	practice	ward_and_allport	2,3,1,0,0,0,0,0,0	71.0	3.0	0.56	0,0,0,1,2,0,3,0,0	to_hand	s584
51.08	1.282	0	UA_without_intermediate	2,0,0,0,0,0,3,1,0	practice	ward_and_allport	2,3,1,0,0,0,0,0,0	82.0	3.0	1.282	0,0,0,1,2,0,3,0,0	to_board	s584
52.364	0.627	0	UA_without_intermediate	0,0,0,0,0,0,3,1,0	practice	ward_and_allport	2,3,1,0,0,0,0,0,0	89.0	3.0	0.627	0,0,0,1,2,0,3,0,0	to_hand	s584
52.992	0.491	0	UA_without_intermediate	0,0,0,2,0,0,3,1,0	practice	ward_and_allport	2,3,1,0,0,0,0,0,0	71.0	3.0	0.491	0,0,0,1,2,0,3,0,0	to_board	s584
53.486	0.595	0	UA_without_intermediate	0,0,0,2,0,0,3,0,0	practice	ward_and_allport	2,3,1,0,0,0,0,0,0	82.0	3.0	0.595	0,0,0,1,2,0,3,0,0	to_hand	s584
54.082	0.509	0	UA_without_intermediate	0,0,0,2,1,0,3,0,0	practice	ward_and_allport	2,3,1,0,0,0,0,0,0	71.0	3.0	0.509	0,0,0,1,2,0,3,0,0	to_board	s584
54.595	0.539	0	UA_without_intermediate	0,0,0,2,1,0,0,0,0	practice	ward_and_allport	2,3,1,0,0,0,0,0,0	82.0	3.0	0.539	0,0,0,1,2,0,3,0,0	to_hand	s584
55.135	0.51	0	UA_without_intermediate	0,0,0,2,1,3,0,0,0	practice	ward_and_allport	2,3,1,0,0,0,0,0,0	71.0	3.0	0.51	0,0,0,1,2,0,3,0,0	to_board	s584
55.649	1.168	0	UA_without_intermediate	0,0,0,2,1,0,0,0,0	practice	ward_and_allport	2,3,1,0,0,0,0,0,0	71.0	3.0	1.168	0,0,0,1,2,0,3,0,0	to_hand	s584
56.819	0.444	0	UA_without_intermediate	0,0,0,2,1,0,3,0,0	practice	ward_and_allport	2,3,1,0,0,0,0,0,0	82.0	3.0	0.444	0,0,0,1,2,0,3,0,0	to_board	s584
57.267	0.835	0	UA_without_intermediate	0,0,0,2,0,0,3,0,0	practice	ward_and_allport	2,3,1,0,0,0,0,0,0	71.0	3.0	0.835	0,0,0,1,2,0,3,0,0	to_hand	s584
58.104	0.359	0	UA_without_intermediate	1,0,0,2,0,0,3,0,0	practice	ward_and_allport	2,3,1,0,0,0,0,0,0	89.0	3.0	0.359	0,0,0,1,2,0,3,0,0	to_board	s584
58.466	0.778	0	UA_without_intermediate	1,0,0,2,0,0,0,0,0	practice	ward_and_allport	2,3,1,0,0,0,0,0,0	82.0	3.0	0.778	0,0,0,1,2,0,3,0,0	to_hand	s584
59.245	0.484	0	UA_without_intermediate	1,0,0,2,3,0,0,0,0	practice	ward_and_allport	2,3,1,0,0,0,0,0,0	71.0	3.0	0.484	0,0,0,1,2,0,3,0,0	to_board	s584
59.732	0.49	0	UA_without_intermediate	0,0,0,2,3,0,0,0,0	practice	ward_and_allport	2,3,1,0,0,0,0,0,0	89.0	3.0	0.49	0,0,0,1,2,0,3,0,0	to_hand	s584
60.223	0.726	0	UA_without_intermediate	0,0,0,2,3,1,0,0,0	practice	ward_and_allport	2,3,1,0,0,0,0,0,0	71.0	3.0	0.726	0,0,0,1,2,0,3,0,0	to_board	s584
60.952	1.499	0	UA_without_intermediate	0,0,0,2,3,0,0,0,0	practice	ward_and_allport	2,3,1,0,0,0,0,0,0	71.0	3.0	1.499	0,0,0,1,2,0,3,0,0	to_hand	s584
62.453	0.436	0	UA_without_intermediate	0,0,0,2,3,0,1,0,0	practice	ward_and_allport	2,3,1,0,0,0,0,0,0	82.0	3.0	0.436	0,0,0,1,2,0,3,0,0	to_board	s584
62.893	0.679	0	UA_without_intermediate	0,0,0,2,0,0,1,0,0	practice	ward_and_allport	2,3,1,0,0,0,0,0,0	71.0	3.0	0.679	0,0,0,1,2,0,3,0,0	to_hand	s584
63.574	0.346	0	UA_without_intermediate	0,0,0,2,0,0,1,3,0	practice	ward_and_allport	2,3,1,0,0,0,0,0,0	82.0	3.0	0.346	0,0,0,1,2,0,3,0,0	to_board	s584
63.922	0.886	0	UA_without_intermediate	0,0,0,0,0,0,1,3,0	practice	ward_and_allport	2,3,1,0,0,0,0,0,0	71.0	3.0	0.886	0,0,0,1,2,0,3,0,0	to_hand	s584
64.809	0.495	0	UA_without_intermediate	2,0,0,0,0,0,1,3,0	practice	ward_and_allport	2,3,1,0,0,0,0,0,0	89.0	3.0	0.495	0,0,0,1,2,0,3,0,0	to_board	s584
65.308	1.529	0	UA_without_intermediate	2,0,0,0,0,0,1,0,0	practice	ward_and_allport	2,3,1,0,0,0,0,0,0	82.0	3.0	1.529	0,0,0,1,2,0,3,0,0	to_hand	s584
66.837	0.715	0	UA_without_intermediate	2,3,0,0,0,0,1,0,0	practice	ward_and_allport	2,3,1,0,0,0,0,0,0	89.0	3.0	0.715	0,0,0,1,2,0,3,0,0	to_board	s584
67.556	1.324	0	UA_without_intermediate	2,3,0,0,0,0,0,0,0	practice	ward_and_allport	2,3,1,0,0,0,0,0,0	82.0	3.0	1.324	0,0,0,1,2,0,3,0,0	to_hand	s584
68.88	0.48	0	UA_without_intermediate	2,3,0,1,0,0,0,0,0	practice	ward_and_allport	2,3,1,0,0,0,0,0,0	71.0	3.0	0.48	0,0,0,1,2,0,3,0,0	to_board	s584
69.364	0.655	0	UA_without_intermediate	2,3,0,0,0,0,0,0,0	practice	ward_and_allport	2,3,1,0,0,0,0,0,0	71.0	3.0	0.655	0,0,0,1,2,0,3,0,0	to_hand	s584
70.021	0.825	0	UA_without_intermediate	2,3,1,0,0,0,0,0,0	practice	ward_and_allport	2,3,1,0,0,0,0,0,0	89.0	3.0	0.825	0,0,0,1,2,0,3,0,0	to_board	s584
70.851	1.0	0	UA_without_intermediate	n/a	practice	ward_and_allport	n/a	-1.0	3.0	n/a	n/a	feedback	s584
71.851	1.0	0	UA_without_intermediate	n/a	practice	ward_and_allport	n/a	-1.0	3.0	n/a	n/a	ITI	s584
74.859	3.813	1	PA_with_intermediate	1,2,0,0,0,0,0,0,0	test	ward_and_allport	1,3,0,2,0,0,0,0,0	89.0	0.0	3.813	1,2,3,0,0,0,0,0,0	to_hand	s584
78.674	0.564	0	PA_with_intermediate	1,2,0,0,0,0,3,0,0	test	ward_and_allport	1,3,0,2,0,0,0,0,0	82.0	0.0	0.564	1,2,3,0,0,0,0,0,0	to_board	s584
79.243	2.771	0	PA_with_intermediate	1,0,0,0,0,0,3,0,0	test	ward_and_allport	1,3,0,2,0,0,0,0,0	89.0	0.0	2.771	1,2,3,0,0,0,0,0,0	to_hand	s584
82.017	1.663	0	PA_with_intermediate	1,0,0,2,0,0,3,0,0	test	ward_and_allport	1,3,0,2,0,0,0,0,0	71.0	0.0	1.663	1,2,3,0,0,0,0,0,0	to_board	s584
83.684	2.903	0	PA_with_intermediate	1,0,0,2,0,0,0,0,0	test	ward_and_allport	1,3,0,2,0,0,0,0,0	82.0	0.0	2.903	1,2,3,0,0,0,0,0,0	to_hand	s584
86.589	0.725	0	PA_with_intermediate	1,3,0,2,0,0,0,0,0	test	ward_and_allport	1,3,0,2,0,0,0,0,0	89.0	0.0	0.725	1,2,3,0,0,0,0,0,0	to_board	s584
87.32	1.0	0	PA_with_intermediate	n/a	test	ward_and_allport	n/a	-1.0	0.0	n/a	n/a	feedback	s584
88.32	1.408	0	PA_with_intermediate	n/a	test	ward_and_allport	n/a	-1.0	0.0	n/a	n/a	ITI	s584
89.733	3.378	1	PA_without_intermediate	1,2,0,0,0,0,0,0,0	test	ward_and_allport	0,0,0,3,1,0,2,0,0	89.0	1.0	3.378	1,2,3,0,0,0,0,0,0	to_hand	s584
93.113	0.804	0	PA_without_intermediate	1,2,0,3,0,0,0,0,0	test	ward_and_allport	0,0,0,3,1,0,2,0,0	71.0	1.0	0.804	1,2,3,0,0,0,0,0,0	to_board	s584
93.923	1.046	0	PA_without_intermediate	1,0,0,3,0,0,0,0,0	test	ward_and_allport	0,0,0,3,1,0,2,0,0	89.0	1.0	1.046	1,2,3,0,0,0,0,0,0	to_hand	s584
94.97	0.765	0	PA_without_intermediate	1,0,0,3,0,0,2,0,0	test	ward_and_allport	0,0,0,3,1,0,2,0,0	82.0	1.0	0.765	1,2,3,0,0,0,0,0,0	to_board	s584
95.739	0.659	0	PA_without_intermediate	0,0,0,3,0,0,2,0,0	test	ward_and_allport	0,0,0,3,1,0,2,0,0	89.0	1.0	0.659	1,2,3,0,0,0,0,0,0	to_hand	s584
96.399	0.514	0	PA_without_intermediate	0,0,0,3,1,0,2,0,0	test	ward_and_allport	0,0,0,3,1,0,2,0,0	71.0	1.0	0.514	1,2,3,0,0,0,0,0,0	to_board	s584
96.92	1.0	0	PA_without_intermediate	n/a	test	ward_and_allport	n/a	-1.0	1.0	n/a	n/a	feedback	s584
97.92	1.68	0	PA_without_intermediate	n/a	test	ward_and_allport	n/a	-1.0	1.0	n/a	n/a	ITI	s584
99.603	3.132	1	PA_with_intermediate	1,2,0,0,0,0,0,0,0	test	ward_and_allport	1,3,0,0,0,0,2,0,0	89.0	2.0	3.132	1,2,3,0,0,0,0,0,0	to_hand	s584
102.737	0.419	0	PA_with_intermediate	1,2,0,3,0,0,0,0,0	test	ward_and_allport	1,3,0,0,0,0,2,0,0	71.0	2.0	0.419	1,2,3,0,0,0,0,0,0	to_board	s584
103.159	0.829	0	PA_with_intermediate	1,0,0,3,0,0,0,0,0	test	ward_and_allport	1,3,0,0,0,0,2,0,0	89.0	2.0	0.829	1,2,3,0,0,0,0,0,0	to_hand	s584
103.99	1.227	0	PA_with_intermediate	1,0,0,3,0,0,2,0,0	test	ward_and_allport	1,3,0,0,0,0,2,0,0	82.0	2.0	1.227	1,2,3,0,0,0,0,0,0	to_board	s584
105.222	0.944	0	PA_with_intermediate	1,0,0,0,0,0,2,0,0	test	ward_and_allport	1,3,0,0,0,0,2,0,0	71.0	2.0	0.944	1,2,3,0,0,0,0,0,0	to_hand	s584
106.167	0.421	0	PA_with_intermediate	1,3,0,0,0,0,2,0,0	test	ward_and_allport	1,3,0,0,0,0,2,0,0	89.0	2.0	0.421	1,2,3,0,0,0,0,0,0	to_board	s584
106.595	1.0	0	PA_with_intermediate	n/a	test	ward_and_allport	n/a	-1.0	2.0	n/a	n/a	feedback	s584
107.595	3.72	0	PA_with_intermediate	n/a	test	ward_and_allport	n/a	-1.0	2.0	n/a	n/a	ITI	s584
111.32	2.726	1	PA_without_intermediate	1,2,0,0,0,0,0,0,0	test	ward_and_allport	0,0,0,2,0,0,3,1,0	89.0	3.0	2.726	1,2,3,0,0,0,0,0,0	to_hand	s584
114.049	0.86	0	PA_without_intermediate	1,2,0,0,0,0,3,0,0	test	ward_and_allport	0,0,0,2,0,0,3,1,0	82.0	3.0	0.86	1,2,3,0,0,0,0,0,0	to_board	s584
114.914	1.25	0	PA_without_intermediate	1,0,0,0,0,0,3,0,0	test	ward_and_allport	0,0,0,2,0,0,3,1,0	89.0	3.0	1.25	1,2,3,0,0,0,0,0,0	to_hand	s584
116.166	0.557	0	PA_without_intermediate	1,0,0,2,0,0,3,0,0	test	ward_and_allport	0,0,0,2,0,0,3,1,0	71.0	3.0	0.557	1,2,3,0,0,0,0,0,0	to_board	s584
116.728	0.86	0	PA_without_intermediate	0,0,0,2,0,0,3,0,0	test	ward_and_allport	0,0,0,2,0,0,3,1,0	89.0	3.0	0.86	1,2,3,0,0,0,0,0,0	to_hand	s584
117.59	0.52	0	PA_without_intermediate	0,0,0,2,0,0,3,1,0	test	ward_and_allport	0,0,0,2,0,0,3,1,0	82.0	3.0	0.52	1,2,3,0,0,0,0,0,0	to_board	s584
118.122	1.0	0	PA_without_intermediate	n/a	test	ward_and_allport	n/a	-1.0	3.0	n/a	n/a	feedback	s584
119.122	2.224	0	PA_without_intermediate	n/a	test	ward_and_allport	n/a	-1.0	3.0	n/a	n/a	ITI	s584
121.352	3.493	1	PA_without_intermediate	1,2,0,0,0,0,0,0,0	test	ward_and_allport	0,0,0,3,2,0,1,0,0	89.0	4.0	3.493	1,2,3,0,0,0,0,0,0	to_hand	s584
124.847	0.64	0	PA_without_intermediate	1,2,0,3,0,0,0,0,0	test	ward_and_allport	0,0,0,3,2,0,1,0,0	71.0	4.0	0.64	1,2,3,0,0,0,0,0,0	to_board	s584
125.495	0.677	0	PA_without_intermediate	1,0,0,3,0,0,0,0,0	test	ward_and_allport	0,0,0,3,2,0,1,0,0	89.0	4.0	0.677	1,2,3,0,0,0,0,0,0	to_hand	s584
126.174	0.833	0	PA_without_intermediate	1,0,0,3,2,0,0,0,0	test	ward_and_allport	0,0,0,3,2,0,1,0,0	71.0	4.0	0.833	1,2,3,0,0,0,0,0,0	to_board	s584
127.014	0.54	0	PA_without_intermediate	0,0,0,3,2,0,0,0,0	test	ward_and_allport	0,0,0,3,2,0,1,0,0	89.0	4.0	0.54	1,2,3,0,0,0,0,0,0	to_hand	s584
127.556	0.499	0	PA_without_intermediate	0,0,0,3,2,0,1,0,0	test	ward_and_allport	0,0,0,3,2,0,1,0,0	82.0	4.0	0.499	1,2,3,0,0,0,0,0,0	to_board	s584
128.065	1.0	0	PA_without_intermediate	n/a	test	ward_and_allport	n/a	-1.0	4.0	n/a	n/a	feedback	s584
129.065	1.272	0	PA_without_intermediate	n/a	test	ward_and_allport	n/a	-1.0	4.0	n/a	n/a	ITI	s584
130.343	6.125	1	PA_with_intermediate	0,0,0,0,0,0,1,2,0	test	ward_and_allport	0,0,0,2,3,0,1,0,0	82.0	5.0	6.125	0,0,0,0,0,0,1,2,3	to_hand	s584
136.469	0.483	0	PA_with_intermediate	3,0,0,0,0,0,1,2,0	test	ward_and_allport	0,0,0,2,3,0,1,0,0	89.0	5.0	0.483	0,0,0,0,0,0,1,2,3	to_board	s584
136.958	2.403	0	PA_with_intermediate	3,0,0,0,0,0,1,0,0	test	ward_and_allport	0,0,0,2,3,0,1,0,0	82.0	5.0	2.403	0,0,0,0,0,0,1,2,3	to_hand	s584
139.361	0.488	0	PA_with_intermediate	3,0,0,2,0,0,1,0,0	test	ward_and_allport	0,0,0,2,3,0,1,0,0	71.0	5.0	0.488	0,0,0,0,0,0,1,2,3	to_board	s584
139.854	0.595	0	PA_with_intermediate	0,0,0,2,0,0,1,0,0	test	ward_and_allport	0,0,0,2,3,0,1,0,0	89.0	5.0	0.595	0,0,0,0,0,0,1,2,3	to_hand	s584
140.451	0.632	0	PA_with_intermediate	0,0,0,2,3,0,1,0,0	test	ward_and_allport	0,0,0,2,3,0,1,0,0	71.0	5.0	0.632	0,0,0,0,0,0,1,2,3	to_board	s584
141.09	1.0	0	PA_with_intermediate	n/a	test	ward_and_allport	n/a	-1.0	5.0	n/a	n/a	feedback	s584
142.09	2.632	0	PA_with_intermediate	n/a	test	ward_and_allport	n/a	-1.0	5.0	n/a	n/a	ITI	s584
144.726	2.77	1	PA_without_intermediate	0,0,0,1,2,0,0,0,0	test	ward_and_allport	3,1,0,0,0,0,2,0,0	71.0	6.0	2.77	0,0,0,1,2,3,0,0,0	to_hand	s584
147.498	0.514	0	PA_without_intermediate	3,0,0,1,2,0,0,0,0	test	ward_and_allport	3,1,0,0,0,0,2,0,0	89.0	6.0	0.514	0,0,0,1,2,3,0,0,0	to_board	s584
148.018	1.124	0	PA_without_intermediate	3,0,0,1,0,0,0,0,0	test	ward_and_allport	3,1,0,0,0,0,2,0,0	71.0	6.0	1.124	0,0,0,1,2,3,0,0,0	to_hand	s584
149.143	0.55	0	PA_without_intermediate	3,0,0,1,0,0,2,0,0	test	ward_and_allport	3,1,0,0,0,0,2,0,0	82.0	6.0	0.55	0,0,0,1,2,3,0,0,0	to_board	s584
149.698	0.507	0	PA_without_intermediate	3,0,0,0,0,0,2,0,0	test	ward_and_allport	3,1,0,0,0,0,2,0,0	71.0	6.0	0.507	0,0,0,1,2,3,0,0,0	to_hand	s584
150.206	0.419	0	PA_without_intermediate	3,1,0,0,0,0,2,0,0	test	ward_and_allport	3,1,0,0,0,0,2,0,0	89.0	6.0	0.419	0,0,0,1,2,3,0,0,0	to_board	s584
150.633	1.0	0	PA_without_intermediate	n/a	test	ward_and_allport	n/a	-1.0	6.0	n/a	n/a	feedback	s584
151.633	1.408	0	PA_without_intermediate	n/a	test	ward_and_allport	n/a	-1.0	6.0	n/a	n/a	ITI	s584
153.047	2.233	1	PA_without_intermediate	0,0,0,1,2,0,0,0,0	test	ward_and_allport	1,0,0,0,0,0,3,2,0	71.0	7.0	2.233	0,0,0,1,2,3,0,0,0	to_hand	s584
155.283	0.71	0	PA_without_intermediate	0,0,0,1,2,0,3,0,0	test	ward_and_allport	1,0,0,0,0,0,3,2,0	82.0	7.0	0.71	0,0,0,1,2,3,0,0,0	to_board	s584
155.999	0.479	0	PA_without_intermediate	0,0,0,1,0,0,3,0,0	test	ward_and_allport	1,0,0,0,0,0,3,2,0	71.0	7.0	0.479	0,0,0,1,2,3,0,0,0	to_hand	s584
156.48	0.457	0	PA_without_intermediate	0,0,0,1,0,0,3,2,0	test	ward_and_allport	1,0,0,0,0,0,3,2,0	82.0	7.0	0.457	0,0,0,1,2,3,0,0,0	to_board	s584
156.944	1.694	0	PA_without_intermediate	0,0,0,0,0,0,3,2,0	test	ward_and_allport	1,0,0,0,0,0,3,2,0	71.0	7.0	1.694	0,0,0,1,2,3,0,0,0	to_hand	s584
158.639	0.462	0	PA_without_intermediate	1,0,0,0,0,0,3,2,0	test	ward_and_allport	1,0,0,0,0,0,3,2,0	89.0	7.0	0.462	0,0,0,1,2,3,0,0,0	to_board	s584
159.111	1.0	0	PA_without_intermediate	n/a	test	ward_and_allport	n/a	-1.0	7.0	n/a	n/a	feedback	s584
160.111	1.0	0	PA_without_intermediate	n/a	test	ward_and_allport	n/a	-1.0	7.0	n/a	n/a	ITI	s584
161.117	3.015	1	PA_with_intermediate	1,2,0,0,0,0,0,0,0	test	ward_and_allport	1,0,0,0,0,0,2,3,0	89.0	8.0	3.015	1,2,3,0,0,0,0,0,0	to_hand	s584
164.133	2.325	0	PA_with_intermediate	1,2,0,3,0,0,0,0,0	test	ward_and_allport	1,0,0,0,0,0,2,3,0	71.0	8.0	2.325	1,2,3,0,0,0,0,0,0	to_board	s584
166.465	0.549	0	PA_with_intermediate	1,0,0,3,0,0,0,0,0	test	ward_and_allport	1,0,0,0,0,0,2,3,0	89.0	8.0	0.549	1,2,3,0,0,0,0,0,0	to_hand	s584
167.015	0.739	0	PA_with_intermediate	1,0,0,3,0,0,2,0,0	test	ward_and_allport	1,0,0,0,0,0,2,3,0	82.0	8.0	0.739	1,2,3,0,0,0,0,0,0	to_board	s584
167.76	0.496	0	PA_with_intermediate	1,0,0,0,0,0,2,0,0	test	ward_and_allport	1,0,0,0,0,0,2,3,0	71.0	8.0	0.496	1,2,3,0,0,0,0,0,0	to_hand	s584
168.257	0.378	0	PA_with_intermediate	1,0,0,0,0,0,2,3,0	test	ward_and_allport	1,0,0,0,0,0,2,3,0	82.0	8.0	0.378	1,2,3,0,0,0,0,0,0	to_board	s584
168.642	1.0	0	PA_with_intermediate	n/a	test	ward_and_allport	n/a	-1.0	8.0	n/a	n/a	feedback	s584
169.642	1.0	0	PA_with_intermediate	n/a	test	ward_and_allport	n/a	-1.0	8.0	n/a	n/a	ITI	s584
170.649	2.71	1	PA_with_intermediate	1,2,0,0,0,0,0,0,0	test	ward_and_allport	1,3,0,0,0,0,2,0,0	89.0	9.0	2.71	1,2,3,0,0,0,0,0,0	to_hand	s584
173.359	0.427	0	PA_with_intermediate	1,2,0,3,0,0,0,0,0	test	ward_and_allport	1,3,0,0,0,0,2,0,0	71.0	9.0	0.427	1,2,3,0,0,0,0,0,0	to_board	s584
173.791	0.992	0	PA_with_intermediate	1,0,0,3,0,0,0,0,0	test	ward_and_allport	1,3,0,0,0,0,2,0,0	89.0	9.0	0.992	1,2,3,0,0,0,0,0,0	to_hand	s584
174.785	0.428	0	PA_with_intermediate	1,0,0,3,0,0,2,0,0	test	ward_and_allport	1,3,0,0,0,0,2,0,0	82.0	9.0	0.428	1,2,3,0,0,0,0,0,0	to_board	s584
175.219	0.79	0	PA_with_intermediate	1,0,0,0,0,0,2,0,0	test	ward_and_allport	1,3,0,0,0,0,2,0,0	71.0	9.0	0.79	1,2,3,0,0,0,0,0,0	to_hand	s584
176.01	0.44	0	PA_with_intermediate	1,3,0,0,0,0,2,0,0	test	ward_and_allport	1,3,0,0,0,0,2,0,0	89.0	9.0	0.44	1,2,3,0,0,0,0,0,0	to_board	s584
176.459	1.0	0	PA_with_intermediate	n/a	test	ward_and_allport	n/a	-1.0	9.0	n/a	n/a	feedback	s584
177.459	1.0	0	PA_with_intermediate	n/a	test	ward_and_allport	n/a	-1.0	9.0	n/a	n/a	ITI	s584
178.466	2.771	1	PA_with_intermediate	0,0,0,1,2,0,0,0,0	test	ward_and_allport	0,0,0,1,0,0,2,3,0	71.0	10.0	2.771	0,0,0,1,2,3,0,0,0	to_hand	s584
181.239	0.456	0	PA_with_intermediate	3,0,0,1,2,0,0,0,0	test	ward_and_allport	0,0,0,1,0,0,2,3,0	89.0	10.0	0.456	0,0,0,1,2,3,0,0,0	to_board	s584
181.701	0.498	0	PA_with_intermediate	3,0,0,1,0,0,0,0,0	test	ward_and_allport	0,0,0,1,0,0,2,3,0	71.0	10.0	0.498	0,0,0,1,2,3,0,0,0	to_hand	s584
182.2	0.544	0	PA_with_intermediate	3,0,0,1,0,0,2,0,0	test	ward_and_allport	0,0,0,1,0,0,2,3,0	82.0	10.0	0.544	0,0,0,1,2,3,0,0,0	to_board	s584
182.751	1.591	0	PA_with_intermediate	0,0,0,1,0,0,2,0,0	test	ward_and_allport	0,0,0,1,0,0,2,3,0	89.0	10.0	1.591	0,0,0,1,2,3,0,0,0	to_hand	s584
184.344	0.658	0	PA_with_intermediate	0,0,0,1,0,0,2,3,0	test	ward_and_allport	0,0,0,1,0,0,2,3,0	82.0	10.0	0.658	0,0,0,1,2,3,0,0,0	to_board	s584
185.013	1.0	0	PA_with_intermediate	n/a	test	ward_and_allport	n/a	-1.0	10.0	n/a	n/a	feedback	s584
186.013	1.408	0	PA_with_intermediate	n/a	test	ward_and_allport	n/a	-1.0	10.0	n/a	n/a	ITI	s584
187.428	3.133	1	PA_without_intermediate	1,2,0,0,0,0,0,0,0	test	ward_and_allport	0,0,0,1,0,0,3,2,0	89.0	11.0	3.133	1,2,3,0,0,0,0,0,0	to_hand	s584
190.563	0.819	0	PA_without_intermediate	1,2,0,0,0,0,3,0,0	test	ward_and_allport	0,0,0,1,0,0,3,2,0	82.0	11.0	0.819	1,2,3,0,0,0,0,0,0	to_board	s584
191.388	1.394	0	PA_without_intermediate	1,0,0,0,0,0,3,0,0	test	ward_and_allport	0,0,0,1,0,0,3,2,0	89.0	11.0	1.394	1,2,3,0,0,0,0,0,0	to_hand	s584
192.783	0.576	0	PA_without_intermediate	1,0,0,0,0,0,3,2,0	test	ward_and_allport	0,0,0,1,0,0,3,2,0	82.0	11.0	0.576	1,2,3,0,0,0,0,0,0	to_board	s584
193.366	0.498	0	PA_without_intermediate	0,0,0,0,0,0,3,2,0	test	ward_and_allport	0,0,0,1,0,0,3,2,0	89.0	11.0	0.498	1,2,3,0,0,0,0,0,0	to_hand	s584
193.865	0.57	0	PA_without_intermediate	0,0,0,1,0,0,3,2,0	test	ward_and_allport	0,0,0,1,0,0,3,2,0	71.0	11.0	0.57	1,2,3,0,0,0,0,0,0	to_board	s584
194.446	1.0	0	PA_without_intermediate	n/a	test	ward_and_allport	n/a	-1.0	11.0	n/a	n/a	feedback	s584
195.446	1.816	0	PA_without_intermediate	n/a	test	ward_and_allport	n/a	-1.0	11.0	n/a	n/a	ITI	s584
197.27	3.146	1	PA_with_intermediate	0,0,0,0,0,0,1,2,0	test	ward_and_allport	2,0,0,0,0,0,1,3,0	82.0	12.0	3.146	0,0,0,0,0,0,1,2,3	to_hand	s584
200.418	0.799	0	PA_with_intermediate	0,0,0,3,0,0,1,2,0	test	ward_and_allport	2,0,0,0,0,0,1,3,0	71.0	12.0	0.799	0,0,0,0,0,0,1,2,3	to_board	s584
201.222	1.393	0	PA_with_intermediate	0,0,0,3,0,0,1,0,0	test	ward_and_allport	2,0,0,0,0,0,1,3,0	82.0	12.0	1.393	0,0,0,0,0,0,1,2,3	to_hand	s584
202.616	0.548	0	PA_with_intermediate	2,0,0,3,0,0,1,0,0	test	ward_and_allport	2,0,0,0,0,0,1,3,0	89.0	12.0	0.548	0,0,0,0,0,0,1,2,3	to_board	s584
203.171	0.674	0	PA_with_intermediate	2,0,0,0,0,0,1,0,0	test	ward_and_allport	2,0,0,0,0,0,1,3,0	71.0	12.0	0.674	0,0,0,0,0,0,1,2,3	to_hand	s584
203.846	0.741	0	PA_with_intermediate	2,0,0,0,0,0,1,3,0	test	ward_and_allport	2,0,0,0,0,0,1,3,0	82.0	12.0	0.741	0,0,0,0,0,0,1,2,3	to_board	s584
204.595	1.0	0	PA_with_intermediate	n/a	test	ward_and_allport	n/a	-1.0	12.0	n/a	n/a	feedback	s584
205.595	3.176	0	PA_with_intermediate	n/a	test	ward_and_allport	n/a	-1.0	12.0	n/a	n/a	ITI	s584
208.779	2.613	1	PA_with_intermediate	0,0,0,1,2,0,0,0,0	test	ward_and_allport	2,0,0,1,3,0,0,0,0	71.0	13.0	2.613	0,0,0,1,2,3,0,0,0	to_hand	s584
211.394	0.536	0	PA_with_intermediate	0,0,0,1,2,0,3,0,0	test	ward_and_allport	2,0,0,1,3,0,0,0,0	82.0	13.0	0.536	0,0,0,1,2,3,0,0,0	to_board	s584
211.936	0.516	0	PA_with_intermediate	0,0,0,1,0,0,3,0,0	test	ward_and_allport	2,0,0,1,3,0,0,0,0	71.0	13.0	0.516	0,0,0,1,2,3,0,0,0	to_hand	s584
212.453	0.521	0	PA_with_intermediate	2,0,0,1,0,0,3,0,0	test	ward_and_allport	2,0,0,1,3,0,0,0,0	89.0	13.0	0.521	0,0,0,1,2,3,0,0,0	to_board	s584
212.982	0.675	0	PA_with_intermediate	2,0,0,1,0,0,0,0,0	test	ward_and_allport	2,0,0,1,3,0,0,0,0	82.0	13.0	0.675	0,0,0,1,2,3,0,0,0	to_hand	s584
213.658	0.553	0	PA_with_intermediate	2,0,0,1,3,0,0,0,0	test	ward_and_allport	2,0,0,1,3,0,0,0,0	71.0	13.0	0.553	0,0,0,1,2,3,0,0,0	to_board	s584
214.217	1.0	0	PA_with_intermediate	n/a	test	ward_and_allport	n/a	-1.0	13.0	n/a	n/a	feedback	s584
215.217	2.36	0	PA_with_intermediate	n/a	test	ward_and_allport	n/a	-1.0	13.0	n/a	n/a	ITI	s584
217.583	2.797	1	PA_with_intermediate	0,0,0,1,2,0,0,0,0	test	ward_and_allport	0,0,0,1,3,0,2,0,0	71.0	14.0	2.797	0,0,0,1,2,3,0,0,0	to_hand	s584
220.382	0.417	0	PA_with_intermediate	3,0,0,1,2,0,0,0,0	test	ward_and_allport	0,0,0,1,3,0,2,0,0	89.0	14.0	0.417	0,0,0,1,2,3,0,0,0	to_board	s584
220.806	0.963	0	PA_with_intermediate	3,0,0,1,0,0,0,0,0	test	ward_and_allport	0,0,0,1,3,0,2,0,0	71.0	14.0	0.963	0,0,0,1,2,3,0,0,0	to_hand	s584
221.771	0.583	0	PA_with_intermediate	3,0,0,1,0,0,2,0,0	test	ward_and_allport	0,0,0,1,3,0,2,0,0	82.0	14.0	0.583	0,0,0,1,2,3,0,0,0	to_board	s584
222.361	0.891	0	PA_with_intermediate	0,0,0,1,0,0,2,0,0	test	ward_and_allport	0,0,0,1,3,0,2,0,0	89.0	14.0	0.891	0,0,0,1,2,3,0,0,0	to_hand	s584
223.254	0.342	0	PA_with_intermediate	0,0,0,1,3,0,2,0,0	test	ward_and_allport	0,0,0,1,3,0,2,0,0	71.0	14.0	0.342	0,0,0,1,2,3,0,0,0	to_board	s584
223.606	1.0	0	PA_with_intermediate	n/a	test	ward_and_allport	n/a	-1.0	14.0	n/a	n/a	feedback	s584
224.606	1.0	0	PA_with_intermediate	n/a	test	ward_and_allport	n/a	-1.0	14.0	n/a	n/a	ITI	s584
230.619	3.179	1	PA_without_intermediate	0,0,0,0,0,0,1,2,0	test	ward_and_allport	2,0,0,3,1,0,0,0,0	82.0	15.0	3.179	0,0,0,0,0,0,1,2,3	to_hand	s584
233.8	0.536	0	PA_without_intermediate	0,0,0,3,0,0,1,2,0	test	ward_and_allport	2,0,0,3,1,0,0,0,0	71.0	15.0	0.536	0,0,0,0,0,0,1,2,3	to_board	s584
234.346	1.51	0	PA_without_intermediate	0,0,0,3,0,0,1,0,0	test	ward_and_allport	2,0,0,3,1,0,0,0,0	82.0	15.0	1.51	0,0,0,0,0,0,1,2,3	to_hand	s584
235.857	0.404	0	PA_without_intermediate	2,0,0,3,0,0,1,0,0	test	ward_and_allport	2,0,0,3,1,0,0,0,0	89.0	15.0	0.404	0,0,0,0,0,0,1,2,3	to_board	s584
236.269	0.738	0	PA_without_intermediate	2,0,0,3,0,0,0,0,0	test	ward_and_allport	2,0,0,3,1,0,0,0,0	82.0	15.0	0.738	0,0,0,0,0,0,1,2,3	to_hand	s584
237.009	0.45	0	PA_without_intermediate	2,0,0,3,1,0,0,0,0	test	ward_and_allport	2,0,0,3,1,0,0,0,0	71.0	15.0	0.45	0,0,0,0,0,0,1,2,3	to_board	s584
237.468	1.0	0	PA_without_intermediate	n/a	test	ward_and_allport	n/a	-1.0	15.0	n/a	n/a	feedback	s584
238.468	1.408	0	PA_without_intermediate	n/a	test	ward_and_allport	n/a	-1.0	15.0	n/a	n/a	ITI	s584
239.884	1.42	1	PA_with_intermediate	0,0,0,1,2,0,0,0,0	test	ward_and_allport	0,0,0,1,3,0,2,0,0	71.0	16.0	1.42	0,0,0,1,2,3,0,0,0	to_hand	s584
241.304	0.42	0	PA_with_intermediate	3,0,0,1,2,0,0,0,0	test	ward_and_allport	0,0,0,1,3,0,2,0,0	89.0	16.0	0.42	0,0,0,1,2,3,0,0,0	to_board	s584
241.733	0.396	0	PA_with_intermediate	3,0,0,1,0,0,0,0,0	test	ward_and_allport	0,0,0,1,3,0,2,0,0	71.0	16.0	0.396	0,0,0,1,2,3,0,0,0	to_hand	s584
242.129	0.416	0	PA_with_intermediate	3,0,0,1,0,0,2,0,0	test	ward_and_allport	0,0,0,1,3,0,2,0,0	82.0	16.0	0.416	0,0,0,1,2,3,0,0,0	to_board	s584
242.552	0.739	0	PA_with_intermediate	0,0,0,1,0,0,2,0,0	test	ward_and_allport	0,0,0,1,3,0,2,0,0	89.0	16.0	0.739	0,0,0,1,2,3,0,0,0	to_hand	s584
243.292	0.315	0	PA_with_intermediate	0,0,0,1,3,0,2,0,0	test	ward_and_allport	0,0,0,1,3,0,2,0,0	71.0	16.0	0.315	0,0,0,1,2,3,0,0,0	to_board	s584
243.617	1.0	0	PA_with_intermediate	n/a	test	ward_and_allport	n/a	-1.0	16.0	n/a	n/a	feedback	s584
244.617	1.816	0	PA_with_intermediate	n/a	test	ward_and_allport	n/a	-1.0	16.0	n/a	n/a	ITI	s584
246.442	2.422	1	PA_without_intermediate	1,2,0,0,0,0,0,0,0	test	ward_and_allport	0,0,0,3,1,0,2,0,0	89.0	17.0	2.422	1,2,3,0,0,0,0,0,0	to_hand	s584
248.865	0.395	0	PA_without_intermediate	1,2,0,3,0,0,0,0,0	test	ward_and_allport	0,0,0,3,1,0,2,0,0	71.0	17.0	0.395	1,2,3,0,0,0,0,0,0	to_board	s584
249.27	0.501	0	PA_without_intermediate	1,0,0,3,0,0,0,0,0	test	ward_and_allport	0,0,0,3,1,0,2,0,0	89.0	17.0	0.501	1,2,3,0,0,0,0,0,0	to_hand	s584
249.772	0.489	0	PA_without_intermediate	1,0,0,3,0,0,2,0,0	test	ward_and_allport	0,0,0,3,1,0,2,0,0	82.0	17.0	0.489	1,2,3,0,0,0,0,0,0	to_board	s584
250.268	0.438	0	PA_without_intermediate	0,0,0,3,0,0,2,0,0	test	ward_and_allport	0,0,0,3,1,0,2,0,0	89.0	17.0	0.438	1,2,3,0,0,0,0,0,0	to_hand	s584
250.708	0.41	0	PA_without_intermediate	0,0,0,3,1,0,2,0,0	test	ward_and_allport	0,0,0,3,1,0,2,0,0	71.0	17.0	0.41	1,2,3,0,0,0,0,0,0	to_board	s584
251.13	1.0	0	PA_without_intermediate	n/a	test	ward_and_allport	n/a	-1.0	17.0	n/a	n/a	feedback	s584
252.13	2.088	0	PA_without_intermediate	n/a	test	ward_and_allport	n/a	-1.0	17.0	n/a	n/a	ITI	s584
254.226	2.073	1	PA_without_intermediate	0,0,0,1,2,0,0,0,0	test	ward_and_allport	1,0,0,0,0,0,3,2,0	71.0	18.0	2.073	0,0,0,1,2,3,0,0,0	to_hand	s584
256.3	0.541	0	PA_without_intermediate	0,0,0,1,2,0,3,0,0	test	ward_and_allport	1,0,0,0,0,0,3,2,0	82.0	18.0	0.541	0,0,0,1,2,3,0,0,0	to_board	s584
256.848	0.617	0	PA_without_intermediate	0,0,0,1,0,0,3,0,0	test	ward_and_allport	1,0,0,0,0,0,3,2,0	71.0	18.0	0.617	0,0,0,1,2,3,0,0,0	to_hand	s584
257.467	0.424	0	PA_without_intermediate	0,0,0,1,0,0,3,2,0	test	ward_and_allport	1,0,0,0,0,0,3,2,0	82.0	18.0	0.424	0,0,0,1,2,3,0,0,0	to_board	s584
257.9	1.078	0	PA_without_intermediate	0,0,0,0,0,0,3,2,0	test	ward_and_allport	1,0,0,0,0,0,3,2,0	71.0	18.0	1.078	0,0,0,1,2,3,0,0,0	to_hand	s584
258.98	0.429	0	PA_without_intermediate	1,0,0,0,0,0,3,2,0	test	ward_and_allport	1,0,0,0,0,0,3,2,0	89.0	18.0	0.429	0,0,0,1,2,3,0,0,0	to_board	s584
259.42	1.0	0	PA_without_intermediate	n/a	test	ward_and_allport	n/a	-1.0	18.0	n/a	n/a	feedback	s584
260.42	1.136	0	PA_without_intermediate	n/a	test	ward_and_allport	n/a	-1.0	18.0	n/a	n/a	ITI	s584
261.566	2.652	1	PA_without_intermediate	0,0,0,0,0,0,1,2,0	test	ward_and_allport	3,1,0,2,0,0,0,0,0	82.0	19.0	2.652	0,0,0,0,0,0,1,2,3	to_hand	s584
264.22	1.066	0	PA_without_intermediate	3,0,0,0,0,0,1,2,0	test	ward_and_allport	3,1,0,2,0,0,0,0,0	89.0	19.0	1.066	0,0,0,0,0,0,1,2,3	to_board	s584
265.296	1.659	0	PA_without_intermediate	3,0,0,0,0,0,1,0,0	test	ward_and_allport	3,1,0,2,0,0,0,0,0	82.0	19.0	1.659	0,0,0,0,0,0,1,2,3	to_hand	s584
266.957	0.711	0	PA_without_intermediate	3,0,0,2,0,0,1,0,0	test	ward_and_allport	3,1,0,2,0,0,0,0,0	71.0	19.0	0.711	0,0,0,0,0,0,1,2,3	to_board	s584
267.678	0.849	0	PA_without_intermediate	0,0,0,2,0,0,1,0,0	test	ward_and_allport	3,1,0,2,0,0,0,0,0	89.0	19.0	0.849	0,0,0,0,0,0,1,2,3	to_hand	s584
268.528	0.95	0	PA_without_intermediate	3,0,0,2,0,0,1,0,0	test	ward_and_allport	3,1,0,2,0,0,0,0,0	89.0	19.0	0.95	0,0,0,0,0,0,1,2,3	to_board	s584
269.488	0.506	0	PA_without_intermediate	3,0,0,2,0,0,0,0,0	test	ward_and_allport	3,1,0,2,0,0,0,0,0	82.0	19.0	0.506	0,0,0,0,0,0,1,2,3	to_hand	s584
269.995	0.534	0	PA_without_intermediate	3,1,0,2,0,0,0,0,0	test	ward_and_allport	3,1,0,2,0,0,0,0,0	89.0	19.0	0.534	0,0,0,0,0,0,1,2,3	to_board	s584
270.539	1.0	0	PA_without_intermediate	n/a	test	ward_and_allport	n/a	-1.0	19.0	n/a	n/a	feedback	s584
271.539	6.168	0	PA_without_intermediate	n/a	test	ward_and_allport	n/a	-1.0	19.0	n/a	n/a	ITI	s584
277.717	3.758	1	PA_without_intermediate	0,0,0,0,0,0,1,2,0	test	ward_and_allport	2,0,0,3,1,0,0,0,0	82.0	20.0	3.758	0,0,0,0,0,0,1,2,3	to_hand	s584
281.475	0.359	0	PA_without_intermediate	0,0,0,3,0,0,1,2,0	test	ward_and_allport	2,0,0,3,1,0,0,0,0	71.0	20.0	0.359	0,0,0,0,0,0,1,2,3	to_board	s584
281.841	1.425	0	PA_without_intermediate	0,0,0,0,0,0,1,2,0	test	ward_and_allport	2,0,0,3,1,0,0,0,0	71.0	20.0	1.425	0,0,0,0,0,0,1,2,3	to_hand	s584
283.268	0.536	0	PA_without_intermediate	0,0,0,3,0,0,1,2,0	test	ward_and_allport	2,0,0,3,1,0,0,0,0	71.0	20.0	0.536	0,0,0,0,0,0,1,2,3	to_board	s584
283.812	0.751	0	PA_without_intermediate	0,0,0,3,0,0,1,0,0	test	ward_and_allport	2,0,0,3,1,0,0,0,0	82.0	20.0	0.751	0,0,0,0,0,0,1,2,3	to_hand	s584
284.563	0.468	0	PA_without_intermediate	2,0,0,3,0,0,1,0,0	test	ward_and_allport	2,0,0,3,1,0,0,0,0	89.0	20.0	0.468	0,0,0,0,0,0,1,2,3	to_board	s584
285.04	0.958	0	PA_without_intermediate	2,0,0,3,0,0,0,0,0	test	ward_and_allport	2,0,0,3,1,0,0,0,0	82.0	20.0	0.958	0,0,0,0,0,0,1,2,3	to_hand	s584
286.0	1.278	0	PA_without_intermediate	2,0,0,3,1,0,0,0,0	test	ward_and_allport	2,0,0,3,1,0,0,0,0	71.0	20.0	1.278	0,0,0,0,0,0,1,2,3	to_board	s584
287.291	1.0	0	PA_without_intermediate	n/a	test	ward_and_allport	n/a	-1.0	20.0	n/a	n/a	feedback	s584
288.291	1.816	0	PA_without_intermediate	n/a	test	ward_and_allport	n/a	-1.0	20.0	n/a	n/a	ITI	s584
290.117	2.703	1	PA_with_intermediate	0,0,0,1,2,0,0,0,0	test	ward_and_allport	0,0,0,1,0,0,2,3,0	71.0	21.0	2.703	0,0,0,1,2,3,0,0,0	to_hand	s584
292.821	0.364	0	PA_with_intermediate	3,0,0,1,2,0,0,0,0	test	ward_and_allport	0,0,0,1,0,0,2,3,0	89.0	21.0	0.364	0,0,0,1,2,3,0,0,0	to_board	s584
293.195	0.768	0	PA_with_intermediate	3,0,0,1,0,0,0,0,0	test	ward_and_allport	0,0,0,1,0,0,2,3,0	71.0	21.0	0.768	0,0,0,1,2,3,0,0,0	to_hand	s584
293.965	0.793	0	PA_with_intermediate	3,0,0,1,0,0,2,0,0	test	ward_and_allport	0,0,0,1,0,0,2,3,0	82.0	21.0	0.793	0,0,0,1,2,3,0,0,0	to_board	s584
294.768	0.604	0	PA_with_intermediate	0,0,0,1,0,0,2,0,0	test	ward_and_allport	0,0,0,1,0,0,2,3,0	89.0	21.0	0.604	0,0,0,1,2,3,0,0,0	to_hand	s584
295.374	0.469	0	PA_with_intermediate	0,0,0,1,0,0,2,3,0	test	ward_and_allport	0,0,0,1,0,0,2,3,0	82.0	21.0	0.469	0,0,0,1,2,3,0,0,0	to_board	s584
295.855	1.0	0	PA_with_intermediate	n/a	test	ward_and_allport	n/a	-1.0	21.0	n/a	n/a	feedback	s584
296.855	1.952	0	PA_with_intermediate	n/a	test	ward_and_allport	n/a	-1.0	21.0	n/a	n/a	ITI	s584
298.818	3.039	1	PA_with_intermediate	1,2,0,0,0,0,0,0,0	test	ward_and_allport	1,0,0,2,3,0,0,0,0	89.0	22.0	3.039	1,2,3,0,0,0,0,0,0	to_hand	s584
301.859	1.074	0	PA_with_intermediate	1,2,0,0,0,0,3,0,0	test	ward_and_allport	1,0,0,2,3,0,0,0,0	82.0	22.0	1.074	1,2,3,0,0,0,0,0,0	to_board	s584
302.944	0.475	0	PA_with_intermediate	1,0,0,0,0,0,3,0,0	test	ward_and_allport	1,0,0,2,3,0,0,0,0	89.0	22.0	0.475	1,2,3,0,0,0,0,0,0	to_hand	s584
303.421	1.008	0	PA_with_intermediate	1,0,0,2,0,0,3,0,0	test	ward_and_allport	1,0,0,2,3,0,0,0,0	71.0	22.0	1.008	1,2,3,0,0,0,0,0,0	to_board	s584
304.439	0.751	0	PA_with_intermediate	1,0,0,2,0,0,0,0,0	test	ward_and_allport	1,0,0,2,3,0,0,0,0	82.0	22.0	0.751	1,2,3,0,0,0,0,0,0	to_hand	s584
305.192	0.826	0	PA_with_intermediate	1,0,0,2,0,0,3,0,0	test	ward_and_allport	1,0,0,2,3,0,0,0,0	82.0	22.0	0.826	1,2,3,0,0,0,0,0,0	to_board	s584
306.028	0.639	0	PA_with_intermediate	1,0,0,2,0,0,0,0,0	test	ward_and_allport	1,0,0,2,3,0,0,0,0	82.0	22.0	0.639	1,2,3,0,0,0,0,0,0	to_hand	s584
306.668	0.314	0	PA_with_intermediate	1,0,0,2,3,0,0,0,0	test	ward_and_allport	1,0,0,2,3,0,0,0,0	71.0	22.0	0.314	1,2,3,0,0,0,0,0,0	to_board	s584
306.996	1.0	0	PA_with_intermediate	n/a	test	ward_and_allport	n/a	-1.0	22.0	n/a	n/a	feedback	s584
307.996	1.136	0	PA_with_intermediate	n/a	test	ward_and_allport	n/a	-1.0	22.0	n/a	n/a	ITI	s584
309.142	2.544	1	PA_without_intermediate	0,0,0,0,0,0,1,2,0	test	ward_and_allport	3,2,0,1,0,0,0,0,0	82.0	23.0	2.544	0,0,0,0,0,0,1,2,3	to_hand	s584
311.686	1.073	0	PA_without_intermediate	3,0,0,0,0,0,1,2,0	test	ward_and_allport	3,2,0,1,0,0,0,0,0	89.0	23.0	1.073	0,0,0,0,0,0,1,2,3	to_board	s584
312.769	2.047	0	PA_without_intermediate	3,0,0,0,0,0,1,0,0	test	ward_and_allport	3,2,0,1,0,0,0,0,0	82.0	23.0	2.047	0,0,0,0,0,0,1,2,3	to_hand	s584
314.818	0.729	0	PA_without_intermediate	3,2,0,0,0,0,1,0,0	test	ward_and_allport	3,2,0,1,0,0,0,0,0	89.0	23.0	0.729	0,0,0,0,0,0,1,2,3	to_board	s584
315.559	1.211	0	PA_without_intermediate	3,2,0,0,0,0,0,0,0	test	ward_and_allport	3,2,0,1,0,0,0,0,0	82.0	23.0	1.211	0,0,0,0,0,0,1,2,3	to_hand	s584
316.771	0.496	0	PA_without_intermediate	3,2,0,1,0,0,0,0,0	test	ward_and_allport	3,2,0,1,0,0,0,0,0	71.0	23.0	0.496	0,0,0,0,0,0,1,2,3	to_board	s584
317.284	1.0	0	PA_without_intermediate	n/a	test	ward_and_allport	n/a	-1.0	23.0	n/a	n/a	feedback	s584
318.284	1.68	0	PA_without_intermediate	n/a	test	ward_and_allport	n/a	-1.0	23.0	n/a	n/a	ITI	s584
319.974	2.427	1	PA_without_intermediate	0,0,0,1,2,0,0,0,0	test	ward_and_allport	3,2,0,0,0,0,1,0,0	71.0	24.0	2.427	0,0,0,1,2,3,0,0,0	to_hand	s584
322.403	1.1	0	PA_without_intermediate	3,0,0,1,2,0,0,0,0	test	ward_and_allport	3,2,0,0,0,0,1,0,0	89.0	24.0	1.1	0,0,0,1,2,3,0,0,0	to_board	s584
323.513	0.581	0	PA_without_intermediate	3,0,0,1,0,0,0,0,0	test	ward_and_allport	3,2,0,0,0,0,1,0,0	71.0	24.0	0.581	0,0,0,1,2,3,0,0,0	to_hand	s584
324.095	0.778	0	PA_without_intermediate	3,2,0,1,0,0,0,0,0	test	ward_and_allport	3,2,0,0,0,0,1,0,0	89.0	24.0	0.778	0,0,0,1,2,3,0,0,0	to_board	s584
324.885	1.226	0	PA_without_intermediate	3,2,0,0,0,0,0,0,0	test	ward_and_allport	3,2,0,0,0,0,1,0,0	71.0	24.0	1.226	0,0,0,1,2,3,0,0,0	to_hand	s584
326.112	0.451	0	PA_without_intermediate	3,2,0,0,0,0,1,0,0	test	ward_and_allport	3,2,0,0,0,0,1,0,0	82.0	24.0	0.451	0,0,0,1,2,3,0,0,0	to_board	s584
326.578	1.0	0	PA_without_intermediate	n/a	test	ward_and_allport	n/a	-1.0	24.0	n/a	n/a	feedback	s584
327.578	2.088	0	PA_without_intermediate	n/a	test	ward_and_allport	n/a	-1.0	24.0	n/a	n/a	ITI	s584
329.68	2.78	1	PA_with_intermediate	0,0,0,1,2,0,0,0,0	test	ward_and_allport	2,3,0,1,0,0,0,0,0	71.0	25.0	2.78	0,0,0,1,2,3,0,0,0	to_hand	s584
332.462	0.615	0	PA_with_intermediate	3,0,0,1,2,0,0,0,0	test	ward_and_allport	2,3,0,1,0,0,0,0,0	89.0	25.0	0.615	0,0,0,1,2,3,0,0,0	to_board	s584
333.088	0.716	0	PA_with_intermediate	3,0,0,1,0,0,0,0,0	test	ward_and_allport	2,3,0,1,0,0,0,0,0	71.0	25.0	0.716	0,0,0,1,2,3,0,0,0	to_hand	s584
333.806	0.477	0	PA_with_intermediate	3,2,0,1,0,0,0,0,0	test	ward_and_allport	2,3,0,1,0,0,0,0,0	89.0	25.0	0.477	0,0,0,1,2,3,0,0,0	to_board	s584
334.296	1.705	0	PA_with_intermediate	3,2,0,0,0,0,0,0,0	test	ward_and_allport	2,3,0,1,0,0,0,0,0	71.0	25.0	1.705	0,0,0,1,2,3,0,0,0	to_hand	s584
336.003	0.691	0	PA_with_intermediate	3,2,0,1,0,0,0,0,0	test	ward_and_allport	2,3,0,1,0,0,0,0,0	71.0	25.0	0.691	0,0,0,1,2,3,0,0,0	to_board	s584
336.707	1.381	0	PA_with_intermediate	3,0,0,1,0,0,0,0,0	test	ward_and_allport	2,3,0,1,0,0,0,0,0	89.0	25.0	1.381	0,0,0,1,2,3,0,0,0	to_hand	s584
338.089	1.446	0	PA_with_intermediate	3,0,0,1,2,0,0,0,0	test	ward_and_allport	2,3,0,1,0,0,0,0,0	71.0	25.0	1.446	0,0,0,1,2,3,0,0,0	to_board	s584
339.548	0.692	0	PA_with_intermediate	0,0,0,1,2,0,0,0,0	test	ward_and_allport	2,3,0,1,0,0,0,0,0	89.0	25.0	0.692	0,0,0,1,2,3,0,0,0	to_hand	s584
340.242	0.711	0	PA_with_intermediate	0,0,0,1,2,0,3,0,0	test	ward_and_allport	2,3,0,1,0,0,0,0,0	82.0	25.0	0.711	0,0,0,1,2,3,0,0,0	to_board	s584
340.966	0.602	0	PA_with_intermediate	0,0,0,1,0,0,3,0,0	test	ward_and_allport	2,3,0,1,0,0,0,0,0	71.0	25.0	0.602	0,0,0,1,2,3,0,0,0	to_hand	s584
341.57	0.478	0	PA_with_intermediate	2,0,0,1,0,0,3,0,0	test	ward_and_allport	2,3,0,1,0,0,0,0,0	89.0	25.0	0.478	0,0,0,1,2,3,0,0,0	to_board	s584
342.061	0.595	0	PA_with_intermediate	2,0,0,1,0,0,0,0,0	test	ward_and_allport	2,3,0,1,0,0,0,0,0	82.0	25.0	0.595	0,0,0,1,2,3,0,0,0	to_hand	s584
342.657	0.551	0	PA_with_intermediate	2,3,0,1,0,0,0,0,0	test	ward_and_allport	2,3,0,1,0,0,0,0,0	89.0	25.0	0.551	0,0,0,1,2,3,0,0,0	to_board	s584
343.225	1.0	0	PA_with_intermediate	n/a	test	ward_and_allport	n/a	-1.0	25.0	n/a	n/a	feedback	s584
344.225	1.0	0	PA_with_intermediate	n/a	test	ward_and_allport	n/a	-1.0	25.0	n/a	n/a	ITI	s584
345.234	2.134	1	PA_without_intermediate	0,0,0,1,2,0,0,0,0	test	ward_and_allport	3,1,0,0,0,0,2,0,0	71.0	26.0	2.134	0,0,0,1,2,3,0,0,0	to_hand	s584
347.369	0.482	0	PA_without_intermediate	3,0,0,1,2,0,0,0,0	test	ward_and_allport	3,1,0,0,0,0,2,0,0	89.0	26.0	0.482	0,0,0,1,2,3,0,0,0	to_board	s584
347.86	1.489	0	PA_without_intermediate	3,0,0,1,0,0,0,0,0	test	ward_and_allport	3,1,0,0,0,0,2,0,0	71.0	26.0	1.489	0,0,0,1,2,3,0,0,0	to_hand	s584
349.35	1.265	0	PA_without_intermediate	3,0,0,1,0,0,2,0,0	test	ward_and_allport	3,1,0,0,0,0,2,0,0	82.0	26.0	1.265	0,0,0,1,2,3,0,0,0	to_board	s584
350.623	0.631	0	PA_without_intermediate	3,0,0,0,0,0,2,0,0	test	ward_and_allport	3,1,0,0,0,0,2,0,0	71.0	26.0	0.631	0,0,0,1,2,3,0,0,0	to_hand	s584
351.255	0.602	0	PA_without_intermediate	3,1,0,0,0,0,2,0,0	test	ward_and_allport	3,1,0,0,0,0,2,0,0	89.0	26.0	0.602	0,0,0,1,2,3,0,0,0	to_board	s584
351.868	1.0	0	PA_without_intermediate	n/a	test	ward_and_allport	n/a	-1.0	26.0	n/a	n/a	feedback	s584
352.868	1.0	0	PA_without_intermediate	n/a	test	ward_and_allport	n/a	-1.0	26.0	n/a	n/a	ITI	s584
353.879	2.735	1	PA_without_intermediate	1,2,0,0,0,0,0,0,0	test	ward_and_allport	0,0,0,2,0,0,3,1,0	89.0	27.0	2.735	1,2,3,0,0,0,0,0,0	to_hand	s584
356.616	0.552	0	PA_without_intermediate	1,2,0,0,0,0,3,0,0	test	ward_and_allport	0,0,0,2,0,0,3,1,0	82.0	27.0	0.552	1,2,3,0,0,0,0,0,0	to_board	s584
357.18	2.441	0	PA_without_intermediate	1,0,0,0,0,0,3,0,0	test	ward_and_allport	0,0,0,2,0,0,3,1,0	89.0	27.0	2.441	1,2,3,0,0,0,0,0,0	to_hand	s584
359.622	0.511	0	PA_without_intermediate	1,0,0,2,0,0,3,0,0	test	ward_and_allport	0,0,0,2,0,0,3,1,0	71.0	27.0	0.511	1,2,3,0,0,0,0,0,0	to_board	s584
360.149	1.191	0	PA_without_intermediate	0,0,0,2,0,0,3,0,0	test	ward_and_allport	0,0,0,2,0,0,3,1,0	89.0	27.0	1.191	1,2,3,0,0,0,0,0,0	to_hand	s584
361.341	0.607	0	PA_without_intermediate	0,0,0,2,0,0,3,1,0	test	ward_and_allport	0,0,0,2,0,0,3,1,0	82.0	27.0	0.607	1,2,3,0,0,0,0,0,0	to_board	s584
361.962	1.0	0	PA_without_intermediate	n/a	test	ward_and_allport	n/a	-1.0	27.0	n/a	n/a	feedback	s584
362.962	1.0	0	PA_without_intermediate	n/a	test	ward_and_allport	n/a	-1.0	27.0	n/a	n/a	ITI	s584
363.975	4.818	1	PA_with_intermediate	0,0,0,0,0,0,1,2,0	test	ward_and_allport	0,0,0,2,0,0,1,3,0	82.0	28.0	4.818	0,0,0,0,0,0,1,2,3	to_hand	s584
368.795	0.629	0	PA_with_intermediate	3,0,0,0,0,0,1,2,0	test	ward_and_allport	0,0,0,2,0,0,1,3,0	89.0	28.0	0.629	0,0,0,0,0,0,1,2,3	to_board	s584
369.437	1.24	0	PA_with_intermediate	3,0,0,0,0,0,1,0,0	test	ward_and_allport	0,0,0,2,0,0,1,3,0	82.0	28.0	1.24	0,0,0,0,0,0,1,2,3	to_hand	s584
370.679	0.509	0	PA_with_intermediate	3,0,0,2,0,0,1,0,0	test	ward_and_allport	0,0,0,2,0,0,1,3,0	71.0	28.0	0.509	0,0,0,0,0,0,1,2,3	to_board	s584
371.201	1.22	0	PA_with_intermediate	0,0,0,2,0,0,1,0,0	test	ward_and_allport	0,0,0,2,0,0,1,3,0	89.0	28.0	1.22	0,0,0,0,0,0,1,2,3	to_hand	s584
372.423	0.378	0	PA_with_intermediate	0,0,0,2,0,0,1,3,0	test	ward_and_allport	0,0,0,2,0,0,1,3,0	82.0	28.0	0.378	0,0,0,0,0,0,1,2,3	to_board	s584
372.815	1.0	0	PA_with_intermediate	n/a	test	ward_and_allport	n/a	-1.0	28.0	n/a	n/a	feedback	s584
373.815	1.544	0	PA_with_intermediate	n/a	test	ward_and_allport	n/a	-1.0	28.0	n/a	n/a	ITI	s584
375.371	3.414	1	PA_without_intermediate	1,2,0,0,0,0,0,0,0	test	ward_and_allport	0,0,0,1,0,0,3,2,0	89.0	29.0	3.414	1,2,3,0,0,0,0,0,0	to_hand	s584
378.787	0.693	0	PA_without_intermediate	1,2,0,0,0,0,3,0,0	test	ward_and_allport	0,0,0,1,0,0,3,2,0	82.0	29.0	0.693	1,2,3,0,0,0,0,0,0	to_board	s584
379.489	1.014	0	PA_without_intermediate	1,0,0,0,0,0,3,0,0	test	ward_and_allport	0,0,0,1,0,0,3,2,0	89.0	29.0	1.014	1,2,3,0,0,0,0,0,0	to_hand	s584
380.504	0.418	0	PA_without_intermediate	1,0,0,0,0,0,3,2,0	test	ward_and_allport	0,0,0,1,0,0,3,2,0	82.0	29.0	0.418	1,2,3,0,0,0,0,0,0	to_board	s584
380.935	0.904	0	PA_without_intermediate	0,0,0,0,0,0,3,2,0	test	ward_and_allport	0,0,0,1,0,0,3,2,0	89.0	29.0	0.904	1,2,3,0,0,0,0,0,0	to_hand	s584
381.841	0.471	0	PA_without_intermediate	0,0,0,1,0,0,3,2,0	test	ward_and_allport	0,0,0,1,0,0,3,2,0	71.0	29.0	0.471	1,2,3,0,0,0,0,0,0	to_board	s584
382.329	1.0	0	PA_without_intermediate	n/a	test	ward_and_allport	n/a	-1.0	29.0	n/a	n/a	feedback	s584
383.329	1.272	0	PA_without_intermediate	n/a	test	ward_and_allport	n/a	-1.0	29.0	n/a	n/a	ITI	s584
389.616	2.938	1	PA_with_intermediate	0,0,0,0,0,0,1,2,0	test	ward_and_allport	0,0,0,2,3,0,1,0,0	82.0	30.0	2.938	0,0,0,0,0,0,1,2,3	to_hand	s584
392.556	0.486	0	PA_with_intermediate	3,0,0,0,0,0,1,2,0	test	ward_and_allport	0,0,0,2,3,0,1,0,0	89.0	30.0	0.486	0,0,0,0,0,0,1,2,3	to_board	s584
393.052	1.991	0	PA_with_intermediate	3,0,0,0,0,0,1,0,0	test	ward_and_allport	0,0,0,2,3,0,1,0,0	82.0	30.0	1.991	0,0,0,0,0,0,1,2,3	to_hand	s584
395.045	1.189	0	PA_with_intermediate	3,0,0,2,0,0,1,0,0	test	ward_and_allport	0,0,0,2,3,0,1,0,0	71.0	30.0	1.189	0,0,0,0,0,0,1,2,3	to_board	s584
396.25	0.438	0	PA_with_intermediate	0,0,0,2,0,0,1,0,0	test	ward_and_allport	0,0,0,2,3,0,1,0,0	89.0	30.0	0.438	0,0,0,0,0,0,1,2,3	to_hand	s584
396.689	0.426	0	PA_with_intermediate	3,0,0,2,0,0,1,0,0	test	ward_and_allport	0,0,0,2,3,0,1,0,0	89.0	30.0	0.426	0,0,0,0,0,0,1,2,3	to_board	s584
397.127	0.497	0	PA_with_intermediate	0,0,0,2,0,0,1,0,0	test	ward_and_allport	0,0,0,2,3,0,1,0,0	89.0	30.0	0.497	0,0,0,0,0,0,1,2,3	to_hand	s584
397.625	0.299	0	PA_with_intermediate	0,0,0,2,3,0,1,0,0	test	ward_and_allport	0,0,0,2,3,0,1,0,0	71.0	30.0	0.299	0,0,0,0,0,0,1,2,3	to_board	s584
397.937	1.0	0	PA_with_intermediate	n/a	test	ward_and_allport	n/a	-1.0	30.0	n/a	n/a	feedback	s584
398.937	3.04	0	PA_with_intermediate	n/a	test	ward_and_allport	n/a	-1.0	30.0	n/a	n/a	ITI	s584
401.989	2.79	1	PA_with_intermediate	0,0,0,1,2,0,0,0,0	test	ward_and_allport	2,0,0,1,3,0,0,0,0	71.0	31.0	2.79	0,0,0,1,2,3,0,0,0	to_hand	s584
404.781	1.852	0	PA_with_intermediate	0,0,0,1,2,0,3,0,0	test	ward_and_allport	2,0,0,1,3,0,0,0,0	82.0	31.0	1.852	0,0,0,1,2,3,0,0,0	to_board	s584
406.646	0.831	0	PA_with_intermediate	0,0,0,1,0,0,3,0,0	test	ward_and_allport	2,0,0,1,3,0,0,0,0	71.0	31.0	0.831	0,0,0,1,2,3,0,0,0	to_hand	s584
407.479	0.66	0	PA_with_intermediate	2,0,0,1,0,0,3,0,0	test	ward_and_allport	2,0,0,1,3,0,0,0,0	89.0	31.0	0.66	0,0,0,1,2,3,0,0,0	to_board	s584
408.153	0.607	0	PA_with_intermediate	2,0,0,1,0,0,0,0,0	test	ward_and_allport	2,0,0,1,3,0,0,0,0	82.0	31.0	0.607	0,0,0,1,2,3,0,0,0	to_hand	s584
408.762	0.496	0	PA_with_intermediate	2,0,0,1,3,0,0,0,0	test	ward_and_allport	2,0,0,1,3,0,0,0,0	71.0	31.0	0.496	0,0,0,1,2,3,0,0,0	to_board	s584
409.273	1.0	0	PA_with_intermediate	n/a	test	ward_and_allport	n/a	-1.0	31.0	n/a	n/a	feedback	s584
410.273	1.272	0	PA_with_intermediate	n/a	test	ward_and_allport	n/a	-1.0	31.0	n/a	n/a	ITI	s584
411.56	4.185	1	PA_with_intermediate	0,0,0,0,0,0,1,2,0	test	ward_and_allport	2,0,0,0,0,0,1,3,0	82.0	32.0	4.185	0,0,0,0,0,0,1,2,3	to_hand	s584
415.746	0.644	0	PA_with_intermediate	0,0,0,3,0,0,1,2,0	test	ward_and_allport	2,0,0,0,0,0,1,3,0	71.0	32.0	0.644	0,0,0,0,0,0,1,2,3	to_board	s584
416.401	0.841	0	PA_with_intermediate	0,0,0,3,0,0,1,0,0	test	ward_and_allport	2,0,0,0,0,0,1,3,0	82.0	32.0	0.841	0,0,0,0,0,0,1,2,3	to_hand	s584
417.243	0.673	0	PA_with_intermediate	2,0,0,3,0,0,1,0,0	test	ward_and_allport	2,0,0,0,0,0,1,3,0	89.0	32.0	0.673	0,0,0,0,0,0,1,2,3	to_board	s584
417.93	0.942	0	PA_with_intermediate	2,0,0,0,0,0,1,0,0	test	ward_and_allport	2,0,0,0,0,0,1,3,0	71.0	32.0	0.942	0,0,0,0,0,0,1,2,3	to_hand	s584
418.874	0.704	0	PA_with_intermediate	2,0,0,0,0,0,1,3,0	test	ward_and_allport	2,0,0,0,0,0,1,3,0	82.0	32.0	0.704	0,0,0,0,0,0,1,2,3	to_board	s584
419.596	1.0	0	PA_with_intermediate	n/a	test	ward_and_allport	n/a	-1.0	32.0	n/a	n/a	feedback	s584
420.596	1.136	0	PA_with_intermediate	n/a	test	ward_and_allport	n/a	-1.0	32.0	n/a	n/a	ITI	s584
421.746	2.907	1	PA_with_intermediate	0,0,0,1,2,0,0,0,0	test	ward_and_allport	2,3,0,1,0,0,0,0,0	71.0	33.0	2.907	0,0,0,1,2,3,0,0,0	to_hand	s584
424.653	0.821	0	PA_with_intermediate	0,0,0,1,2,0,3,0,0	test	ward_and_allport	2,3,0,1,0,0,0,0,0	82.0	33.0	0.821	0,0,0,1,2,3,0,0,0	to_board	s584
425.487	0.662	0	PA_with_intermediate	0,0,0,1,0,0,3,0,0	test	ward_and_allport	2,3,0,1,0,0,0,0,0	71.0	33.0	0.662	0,0,0,1,2,3,0,0,0	to_hand	s584
426.149	0.645	0	PA_with_intermediate	2,0,0,1,0,0,3,0,0	test	ward_and_allport	2,3,0,1,0,0,0,0,0	89.0	33.0	0.645	0,0,0,1,2,3,0,0,0	to_board	s584
426.807	0.496	0	PA_with_intermediate	2,0,0,1,0,0,0,0,0	test	ward_and_allport	2,3,0,1,0,0,0,0,0	82.0	33.0	0.496	0,0,0,1,2,3,0,0,0	to_hand	s584
427.305	0.393	0	PA_with_intermediate	2,3,0,1,0,0,0,0,0	test	ward_and_allport	2,3,0,1,0,0,0,0,0	89.0	33.0	0.393	0,0,0,1,2,3,0,0,0	to_board	s584
427.71	1.0	0	PA_with_intermediate	n/a	test	ward_and_allport	n/a	-1.0	33.0	n/a	n/a	feedback	s584
428.71	1.0	0	PA_with_intermediate	n/a	test	ward_and_allport	n/a	-1.0	33.0	n/a	n/a	ITI	s584
429.718	2.677	1	PA_with_intermediate	1,2,0,0,0,0,0,0,0	test	ward_and_allport	1,3,0,2,0,0,0,0,0	89.0	34.0	2.677	1,2,3,0,0,0,0,0,0	to_hand	s584
432.397	0.603	0	PA_with_intermediate	1,2,0,0,0,0,3,0,0	test	ward_and_allport	1,3,0,2,0,0,0,0,0	82.0	34.0	0.603	1,2,3,0,0,0,0,0,0	to_board	s584
433.009	1.268	0	PA_with_intermediate	1,0,0,0,0,0,3,0,0	test	ward_and_allport	1,3,0,2,0,0,0,0,0	89.0	34.0	1.268	1,2,3,0,0,0,0,0,0	to_hand	s584
434.278	0.406	0	PA_with_intermediate	1,0,0,2,0,0,3,0,0	test	ward_and_allport	1,3,0,2,0,0,0,0,0	71.0	34.0	0.406	1,2,3,0,0,0,0,0,0	to_board	s584
434.695	0.473	0	PA_with_intermediate	1,0,0,2,0,0,0,0,0	test	ward_and_allport	1,3,0,2,0,0,0,0,0	82.0	34.0	0.473	1,2,3,0,0,0,0,0,0	to_hand	s584
435.169	0.474	0	PA_with_intermediate	1,3,0,2,0,0,0,0,0	test	ward_and_allport	1,3,0,2,0,0,0,0,0	89.0	34.0	0.474	1,2,3,0,0,0,0,0,0	to_board	s584
435.66	1.0	0	PA_with_intermediate	n/a	test	ward_and_allport	n/a	-1.0	34.0	n/a	n/a	feedback	s584
436.66	1.0	0	PA_with_intermediate	n/a	test	ward_and_allport	n/a	-1.0	34.0	n/a	n/a	ITI	s584
437.675	2.604	1	PA_without_intermediate	0,0,0,0,0,0,1,2,0	test	ward_and_allport	3,1,0,2,0,0,0,0,0	82.0	35.0	2.604	0,0,0,0,0,0,1,2,3	to_hand	s584
440.281	0.682	0	PA_without_intermediate	3,0,0,0,0,0,1,2,0	test	ward_and_allport	3,1,0,2,0,0,0,0,0	89.0	35.0	0.682	0,0,0,0,0,0,1,2,3	to_board	s584
440.977	1.195	0	PA_without_intermediate	3,0,0,0,0,0,1,0,0	test	ward_and_allport	3,1,0,2,0,0,0,0,0	82.0	35.0	1.195	0,0,0,0,0,0,1,2,3	to_hand	s584
442.174	0.601	0	PA_without_intermediate	3,0,0,2,0,0,1,0,0	test	ward_and_allport	3,1,0,2,0,0,0,0,0	71.0	35.0	0.601	0,0,0,0,0,0,1,2,3	to_board	s584
442.787	0.664	0	PA_without_intermediate	3,0,0,2,0,0,0,0,0	test	ward_and_allport	3,1,0,2,0,0,0,0,0	82.0	35.0	0.664	0,0,0,0,0,0,1,2,3	to_hand	s584
443.453	0.506	0	PA_without_intermediate	3,1,0,2,0,0,0,0,0	test	ward_and_allport	3,1,0,2,0,0,0,0,0	89.0	35.0	0.506	0,0,0,0,0,0,1,2,3	to_board	s584
443.975	1.0	0	PA_without_intermediate	n/a	test	ward_and_allport	n/a	-1.0	35.0	n/a	n/a	feedback	s584
444.975	1.408	0	PA_without_intermediate	n/a	test	ward_and_allport	n/a	-1.0	35.0	n/a	n/a	ITI	s584
446.394	3.117	1	PA_with_intermediate	0,0,0,0,0,0,1,2,0	test	ward_and_allport	2,3,0,0,0,0,1,0,0	82.0	36.0	3.117	0,0,0,0,0,0,1,2,3	to_hand	s584
449.513	0.936	0	PA_with_intermediate	0,0,0,3,0,0,1,2,0	test	ward_and_allport	2,3,0,0,0,0,1,0,0	71.0	36.0	0.936	0,0,0,0,0,0,1,2,3	to_board	s584
450.461	3.34	0	PA_with_intermediate	0,0,0,3,0,0,1,0,0	test	ward_and_allport	2,3,0,0,0,0,1,0,0	82.0	36.0	3.34	0,0,0,0,0,0,1,2,3	to_hand	s584
453.803	1.003	0	PA_with_intermediate	2,0,0,3,0,0,1,0,0	test	ward_and_allport	2,3,0,0,0,0,1,0,0	89.0	36.0	1.003	0,0,0,0,0,0,1,2,3	to_board	s584
454.821	1.911	0	PA_with_intermediate	2,0,0,0,0,0,1,0,0	test	ward_and_allport	2,3,0,0,0,0,1,0,0	71.0	36.0	1.911	0,0,0,0,0,0,1,2,3	to_hand	s584
456.732	0.398	0	PA_with_intermediate	2,3,0,0,0,0,1,0,0	test	ward_and_allport	2,3,0,0,0,0,1,0,0	89.0	36.0	0.398	0,0,0,0,0,0,1,2,3	to_board	s584
457.149	1.0	0	PA_with_intermediate	n/a	test	ward_and_allport	n/a	-1.0	36.0	n/a	n/a	feedback	s584
458.149	2.768	0	PA_with_intermediate	n/a	test	ward_and_allport	n/a	-1.0	36.0	n/a	n/a	ITI	s584
460.932	3.068	1	PA_with_intermediate	1,2,0,0,0,0,0,0,0	test	ward_and_allport	1,0,0,0,0,0,2,3,0	89.0	37.0	3.068	1,2,3,0,0,0,0,0,0	to_hand	s584
464.0	0.417	0	PA_with_intermediate	1,2,0,3,0,0,0,0,0	test	ward_and_allport	1,0,0,0,0,0,2,3,0	71.0	37.0	0.417	1,2,3,0,0,0,0,0,0	to_board	s584
464.428	0.521	0	PA_with_intermediate	1,0,0,3,0,0,0,0,0	test	ward_and_allport	1,0,0,0,0,0,2,3,0	89.0	37.0	0.521	1,2,3,0,0,0,0,0,0	to_hand	s584
464.95	0.445	0	PA_with_intermediate	1,0,0,3,0,0,2,0,0	test	ward_and_allport	1,0,0,0,0,0,2,3,0	82.0	37.0	0.445	1,2,3,0,0,0,0,0,0	to_board	s584
465.409	0.616	0	PA_with_intermediate	1,0,0,0,0,0,2,0,0	test	ward_and_allport	1,0,0,0,0,0,2,3,0	71.0	37.0	0.616	1,2,3,0,0,0,0,0,0	to_hand	s584
466.025	0.369	0	PA_with_intermediate	1,0,0,0,0,0,2,3,0	test	ward_and_allport	1,0,0,0,0,0,2,3,0	82.0	37.0	0.369	1,2,3,0,0,0,0,0,0	to_board	s584
466.408	1.0	0	PA_with_intermediate	n/a	test	ward_and_allport	n/a	-1.0	37.0	n/a	n/a	feedback	s584
467.408	1.68	0	PA_with_intermediate	n/a	test	ward_and_allport	n/a	-1.0	37.0	n/a	n/a	ITI	s584
469.097	2.097	1	PA_without_intermediate	0,0,0,0,0,0,1,2,0	test	ward_and_allport	1,0,0,3,2,0,0,0,0	82.0	38.0	2.097	0,0,0,0,0,0,1,2,3	to_hand	s584
471.195	0.688	0	PA_without_intermediate	0,0,0,3,0,0,1,2,0	test	ward_and_allport	1,0,0,3,2,0,0,0,0	71.0	38.0	0.688	0,0,0,0,0,0,1,2,3	to_board	s584
471.894	1.118	0	PA_without_intermediate	0,0,0,3,0,0,1,0,0	test	ward_and_allport	1,0,0,3,2,0,0,0,0	82.0	38.0	1.118	0,0,0,0,0,0,1,2,3	to_hand	s584
473.014	0.545	0	PA_without_intermediate	0,0,0,3,2,0,1,0,0	test	ward_and_allport	1,0,0,3,2,0,0,0,0	71.0	38.0	0.545	0,0,0,0,0,0,1,2,3	to_board	s584
473.572	2.38	0	PA_without_intermediate	0,0,0,3,2,0,0,0,0	test	ward_and_allport	1,0,0,3,2,0,0,0,0	82.0	38.0	2.38	0,0,0,0,0,0,1,2,3	to_hand	s584
475.955	0.606	0	PA_without_intermediate	1,0,0,3,2,0,0,0,0	test	ward_and_allport	1,0,0,3,2,0,0,0,0	89.0	38.0	0.606	0,0,0,0,0,0,1,2,3	to_board	s584
476.584	1.0	0	PA_without_intermediate	n/a	test	ward_and_allport	n/a	-1.0	38.0	n/a	n/a	feedback	s584
477.584	2.224	0	PA_without_intermediate	n/a	test	ward_and_allport	n/a	-1.0	38.0	n/a	n/a	ITI	s584
479.823	3.151	1	PA_without_intermediate	0,0,0,1,2,0,0,0,0	test	ward_and_allport	2,0,0,0,0,0,3,1,0	71.0	39.0	3.151	0,0,0,1,2,3,0,0,0	to_hand	s584
482.976	0.453	0	PA_without_intermediate	0,0,0,1,2,0,3,0,0	test	ward_and_allport	2,0,0,0,0,0,3,1,0	82.0	39.0	0.453	0,0,0,1,2,3,0,0,0	to_board	s584
483.447	0.889	0	PA_without_intermediate	0,0,0,1,0,0,3,0,0	test	ward_and_allport	2,0,0,0,0,0,3,1,0	71.0	39.0	0.889	0,0,0,1,2,3,0,0,0	to_hand	s584
484.339	0.672	0	PA_without_intermediate	2,0,0,1,0,0,3,0,0	test	ward_and_allport	2,0,0,0,0,0,3,1,0	89.0	39.0	0.672	0,0,0,1,2,3,0,0,0	to_board	s584
485.026	0.679	0	PA_without_intermediate	2,0,0,0,0,0,3,0,0	test	ward_and_allport	2,0,0,0,0,0,3,1,0	71.0	39.0	0.679	0,0,0,1,2,3,0,0,0	to_hand	s584
485.706	0.559	0	PA_without_intermediate	2,0,0,0,0,0,3,1,0	test	ward_and_allport	2,0,0,0,0,0,3,1,0	82.0	39.0	0.559	0,0,0,1,2,3,0,0,0	to_board	s584
486.277	1.0	0	PA_without_intermediate	n/a	test	ward_and_allport	n/a	-1.0	39.0	n/a	n/a	feedback	s584
487.277	2.36	0	PA_without_intermediate	n/a	test	ward_and_allport	n/a	-1.0	39.0	n/a	n/a	ITI	s584
489.647	2.007	1	PA_without_intermediate	0,0,0,1,2,0,0,0,0	test	ward_and_allport	2,0,0,0,0,0,3,1,0	71.0	40.0	2.007	0,0,0,1,2,3,0,0,0	to_hand	s584
491.654	0.445	0	PA_without_intermediate	0,0,0,1,2,0,3,0,0	test	ward_and_allport	2,0,0,0,0,0,3,1,0	82.0	40.0	0.445	0,0,0,1,2,3,0,0,0	to_board	s584
492.11	2.192	0	PA_without_intermediate	0,0,0,1,0,0,3,0,0	test	ward_and_allport	2,0,0,0,0,0,3,1,0	71.0	40.0	2.192	0,0,0,1,2,3,0,0,0	to_hand	s584
494.303	0.296	0	PA_without_intermediate	2,0,0,1,0,0,3,0,0	test	ward_and_allport	2,0,0,0,0,0,3,1,0	89.0	40.0	0.296	0,0,0,1,2,3,0,0,0	to_board	s584
494.614	0.409	0	PA_without_intermediate	2,0,0,0,0,0,3,0,0	test	ward_and_allport	2,0,0,0,0,0,3,1,0	71.0	40.0	0.409	0,0,0,1,2,3,0,0,0	to_hand	s584
495.024	0.509	0	PA_without_intermediate	2,0,0,0,0,0,3,1,0	test	ward_and_allport	2,0,0,0,0,0,3,1,0	82.0	40.0	0.509	0,0,0,1,2,3,0,0,0	to_board	s584
495.553	1.0	0	PA_without_intermediate	n/a	test	ward_and_allport	n/a	-1.0	40.0	n/a	n/a	feedback	s584
496.553	1.0	0	PA_without_intermediate	n/a	test	ward_and_allport	n/a	-1.0	40.0	n/a	n/a	ITI	s584
497.566	2.188	1	PA_without_intermediate	0,0,0,1,2,0,0,0,0	test	ward_and_allport	3,2,0,0,0,0,1,0,0	71.0	41.0	2.188	0,0,0,1,2,3,0,0,0	to_hand	s584
499.756	0.579	0	PA_without_intermediate	3,0,0,1,2,0,0,0,0	test	ward_and_allport	3,2,0,0,0,0,1,0,0	89.0	41.0	0.579	0,0,0,1,2,3,0,0,0	to_board	s584
500.344	0.7	0	PA_without_intermediate	3,0,0,1,0,0,0,0,0	test	ward_and_allport	3,2,0,0,0,0,1,0,0	71.0	41.0	0.7	0,0,0,1,2,3,0,0,0	to_hand	s584
501.044	0.438	0	PA_without_intermediate	3,2,0,1,0,0,0,0,0	test	ward_and_allport	3,2,0,0,0,0,1,0,0	89.0	41.0	0.438	0,0,0,1,2,3,0,0,0	to_board	s584
501.494	1.118	0	PA_without_intermediate	3,2,0,0,0,0,0,0,0	test	ward_and_allport	3,2,0,0,0,0,1,0,0	71.0	41.0	1.118	0,0,0,1,2,3,0,0,0	to_hand	s584
502.613	0.495	0	PA_without_intermediate	3,2,0,0,0,0,1,0,0	test	ward_and_allport	3,2,0,0,0,0,1,0,0	82.0	41.0	0.495	0,0,0,1,2,3,0,0,0	to_board	s584
503.124	1.0	0	PA_without_intermediate	n/a	test	ward_and_allport	n/a	-1.0	41.0	n/a	n/a	feedback	s584
504.124	1.408	0	PA_without_intermediate	n/a	test	ward_and_allport	n/a	-1.0	41.0	n/a	n/a	ITI	s584
505.542	3.719	1	PA_with_intermediate	0,0,0,0,0,0,1,2,0	test	ward_and_allport	0,0,0,2,0,0,1,3,0	82.0	42.0	3.719	0,0,0,0,0,0,1,2,3	to_hand	s584
509.264	0.812	0	PA_with_intermediate	0,0,0,3,0,0,1,2,0	test	ward_and_allport	0,0,0,2,0,0,1,3,0	71.0	42.0	0.812	0,0,0,0,0,0,1,2,3	to_board	s584
510.088	1.337	0	PA_with_intermediate	0,0,0,0,0,0,1,2,0	test	ward_and_allport	0,0,0,2,0,0,1,3,0	71.0	42.0	1.337	0,0,0,0,0,0,1,2,3	to_hand	s584
511.427	0.961	0	PA_with_intermediate	3,0,0,0,0,0,1,2,0	test	ward_and_allport	0,0,0,2,0,0,1,3,0	89.0	42.0	0.961	0,0,0,0,0,0,1,2,3	to_board	s584
512.402	0.706	0	PA_with_intermediate	3,0,0,0,0,0,1,0,0	test	ward_and_allport	0,0,0,2,0,0,1,3,0	82.0	42.0	0.706	0,0,0,0,0,0,1,2,3	to_hand	s584
513.11	0.534	0	PA_with_intermediate	3,0,0,2,0,0,1,0,0	test	ward_and_allport	0,0,0,2,0,0,1,3,0	71.0	42.0	0.534	0,0,0,0,0,0,1,2,3	to_board	s584
513.661	0.422	0	PA_with_intermediate	0,0,0,2,0,0,1,0,0	test	ward_and_allport	0,0,0,2,0,0,1,3,0	89.0	42.0	0.422	0,0,0,0,0,0,1,2,3	to_hand	s584
514.084	0.884	0	PA_with_intermediate	0,0,0,2,0,0,1,3,0	test	ward_and_allport	0,0,0,2,0,0,1,3,0	82.0	42.0	0.884	0,0,0,0,0,0,1,2,3	to_board	s584
514.985	1.0	0	PA_with_intermediate	n/a	test	ward_and_allport	n/a	-1.0	42.0	n/a	n/a	feedback	s584
515.985	1.136	0	PA_with_intermediate	n/a	test	ward_and_allport	n/a	-1.0	42.0	n/a	n/a	ITI	s584
517.136	2.477	1	PA_without_intermediate	0,0,0,0,0,0,1,2,0	test	ward_and_allport	1,0,0,3,2,0,0,0,0	82.0	43.0	2.477	0,0,0,0,0,0,1,2,3	to_hand	s584
519.614	0.484	0	PA_without_intermediate	3,0,0,0,0,0,1,2,0	test	ward_and_allport	1,0,0,3,2,0,0,0,0	89.0	43.0	0.484	0,0,0,0,0,0,1,2,3	to_board	s584
520.111	0.971	0	PA_without_intermediate	0,0,0,0,0,0,1,2,0	test	ward_and_allport	1,0,0,3,2,0,0,0,0	89.0	43.0	0.971	0,0,0,0,0,0,1,2,3	to_hand	s584
521.083	0.439	0	PA_without_intermediate	0,0,0,3,0,0,1,2,0	test	ward_and_allport	1,0,0,3,2,0,0,0,0	71.0	43.0	0.439	0,0,0,0,0,0,1,2,3	to_board	s584
521.537	1.925	0	PA_without_intermediate	0,0,0,3,0,0,1,0,0	test	ward_and_allport	1,0,0,3,2,0,0,0,0	82.0	43.0	1.925	0,0,0,0,0,0,1,2,3	to_hand	s584
523.464	1.095	0	PA_without_intermediate	0,0,0,3,2,0,1,0,0	test	ward_and_allport	1,0,0,3,2,0,0,0,0	71.0	43.0	1.095	0,0,0,0,0,0,1,2,3	to_board	s584
524.572	1.275	0	PA_without_intermediate	0,0,0,3,2,0,0,0,0	test	ward_and_allport	1,0,0,3,2,0,0,0,0	82.0	43.0	1.275	0,0,0,0,0,0,1,2,3	to_hand	s584
525.848	0.405	0	PA_without_intermediate	1,0,0,3,2,0,0,0,0	test	ward_and_allport	1,0,0,3,2,0,0,0,0	89.0	43.0	0.405	0,0,0,0,0,0,1,2,3	to_board	s584
526.27	1.0	0	PA_without_intermediate	n/a	test	ward_and_allport	n/a	-1.0	43.0	n/a	n/a	feedback	s584
527.27	4.128	0	PA_without_intermediate	n/a	test	ward_and_allport	n/a	-1.0	43.0	n/a	n/a	ITI	s584
531.412	2.464	1	PA_without_intermediate	1,2,0,0,0,0,0,0,0	test	ward_and_allport	0,0,0,3,2,0,1,0,0	89.0	44.0	2.464	1,2,3,0,0,0,0,0,0	to_hand	s584
533.878	0.426	0	PA_without_intermediate	1,2,0,3,0,0,0,0,0	test	ward_and_allport	0,0,0,3,2,0,1,0,0	71.0	44.0	0.426	1,2,3,0,0,0,0,0,0	to_board	s584
534.32	1.571	0	PA_without_intermediate	1,0,0,3,0,0,0,0,0	test	ward_and_allport	0,0,0,3,2,0,1,0,0	89.0	44.0	1.571	1,2,3,0,0,0,0,0,0	to_hand	s584
535.892	0.409	0	PA_without_intermediate	1,0,0,3,2,0,0,0,0	test	ward_and_allport	0,0,0,3,2,0,1,0,0	71.0	44.0	0.409	1,2,3,0,0,0,0,0,0	to_board	s584
536.316	0.963	0	PA_without_intermediate	0,0,0,3,2,0,0,0,0	test	ward_and_allport	0,0,0,3,2,0,1,0,0	89.0	44.0	0.963	1,2,3,0,0,0,0,0,0	to_hand	s584
537.281	0.381	0	PA_without_intermediate	0,0,0,3,2,0,1,0,0	test	ward_and_allport	0,0,0,3,2,0,1,0,0	82.0	44.0	0.381	1,2,3,0,0,0,0,0,0	to_board	s584
537.679	1.0	0	PA_without_intermediate	n/a	test	ward_and_allport	n/a	-1.0	44.0	n/a	n/a	feedback	s584
538.679	1.136	0	PA_without_intermediate	n/a	test	ward_and_allport	n/a	-1.0	44.0	n/a	n/a	ITI	s584
544.831	2.243	1	PA_without_intermediate	0,0,0,0,0,0,1,2,0	test	ward_and_allport	3,2,0,1,0,0,0,0,0	82.0	45.0	2.243	0,0,0,0,0,0,1,2,3	to_hand	s584
547.076	1.079	0	PA_without_intermediate	3,0,0,0,0,0,1,2,0	test	ward_and_allport	3,2,0,1,0,0,0,0,0	89.0	45.0	1.079	0,0,0,0,0,0,1,2,3	to_board	s584
548.174	0.845	0	PA_without_intermediate	3,0,0,0,0,0,1,0,0	test	ward_and_allport	3,2,0,1,0,0,0,0,0	82.0	45.0	0.845	0,0,0,0,0,0,1,2,3	to_hand	s584
549.021	0.468	0	PA_without_intermediate	3,2,0,0,0,0,1,0,0	test	ward_and_allport	3,2,0,1,0,0,0,0,0	89.0	45.0	0.468	0,0,0,0,0,0,1,2,3	to_board	s584
549.507	0.906	0	PA_without_intermediate	3,2,0,0,0,0,0,0,0	test	ward_and_allport	3,2,0,1,0,0,0,0,0	82.0	45.0	0.906	0,0,0,0,0,0,1,2,3	to_hand	s584
550.415	0.422	0	PA_without_intermediate	3,2,0,1,0,0,0,0,0	test	ward_and_allport	3,2,0,1,0,0,0,0,0	71.0	45.0	0.422	0,0,0,0,0,0,1,2,3	to_board	s584
550.856	1.0	0	PA_without_intermediate	n/a	test	ward_and_allport	n/a	-1.0	45.0	n/a	n/a	feedback	s584
551.856	4.264	0	PA_without_intermediate	n/a	test	ward_and_allport	n/a	-1.0	45.0	n/a	n/a	ITI	s584
556.135	3.557	1	PA_with_intermediate	0,0,0,0,0,0,1,2,0	test	ward_and_allport	2,3,0,0,0,0,1,0,0	82.0	46.0	3.557	0,0,0,0,0,0,1,2,3	to_hand	s584
559.693	0.532	0	PA_with_intermediate	0,0,0,3,0,0,1,2,0	test	ward_and_allport	2,3,0,0,0,0,1,0,0	71.0	46.0	0.532	0,0,0,0,0,0,1,2,3	to_board	s584
560.243	2.084	0	PA_with_intermediate	0,0,0,3,0,0,1,0,0	test	ward_and_allport	2,3,0,0,0,0,1,0,0	82.0	46.0	2.084	0,0,0,0,0,0,1,2,3	to_hand	s584
562.329	0.784	0	PA_with_intermediate	2,0,0,3,0,0,1,0,0	test	ward_and_allport	2,3,0,0,0,0,1,0,0	89.0	46.0	0.784	0,0,0,0,0,0,1,2,3	to_board	s584
563.13	0.745	0	PA_with_intermediate	2,0,0,0,0,0,1,0,0	test	ward_and_allport	2,3,0,0,0,0,1,0,0	71.0	46.0	0.745	0,0,0,0,0,0,1,2,3	to_hand	s584
563.877	0.556	0	PA_with_intermediate	2,3,0,0,0,0,1,0,0	test	ward_and_allport	2,3,0,0,0,0,1,0,0	89.0	46.0	0.556	0,0,0,0,0,0,1,2,3	to_board	s584
564.451	1.0	0	PA_with_intermediate	n/a	test	ward_and_allport	n/a	-1.0	46.0	n/a	n/a	feedback	s584
565.451	3.04	0	PA_with_intermediate	n/a	test	ward_and_allport	n/a	-1.0	46.0	n/a	n/a	ITI	s584
n/a	n/a	0	n/a	n/a	n/a	n/a	n/a	n/a	n/a	n/a	n/a	ITI	n/a
