onset	duration	condition	correct	correct_response	experiment_exp_id	key_press	response_time	trial_id	trial_type	worker_id
3.007	0.5	AX	n/a	n/a	dot_pattern_expectancy	-1.0	n/a	cue	AX	s525
5.51	0.5	AX	0.0	89.0	dot_pattern_expectancy	71.0	0.706	probe	AX	s525
7.284	0.5	AX	n/a	n/a	dot_pattern_expectancy	-1.0	n/a	cue	AX	s525
9.788	0.5	AX	1.0	89.0	dot_pattern_expectancy	89.0	0.588	probe	AX	s525
11.29	0.5	AY	n/a	n/a	dot_pattern_expectancy	-1.0	n/a	cue	AY	s525
13.794	0.5	AY	1.0	71.0	dot_pattern_expectancy	71.0	0.575	probe	AY	s525
16.248	0.5	AY	n/a	n/a	dot_pattern_expectancy	-1.0	n/a	cue	AY	s525
18.752	0.5	AY	1.0	71.0	dot_pattern_expectancy	71.0	0.736	probe	AY	s525
20.527	0.5	AX	n/a	n/a	dot_pattern_expectancy	-1.0	n/a	cue	AX	s525
23.031	0.5	AX	1.0	89.0	dot_pattern_expectancy	89.0	0.532	probe	AX	s525
24.941	0.5	AX	n/a	n/a	dot_pattern_expectancy	-1.0	n/a	cue	AX	s525
27.445	0.5	AX	1.0	89.0	dot_pattern_expectancy	89.0	0.39	probe	AX	s525
29.354	0.5	AX	n/a	n/a	dot_pattern_expectancy	-1.0	n/a	cue	AX	s525
31.858	0.5	AX	1.0	89.0	dot_pattern_expectancy	89.0	0.379	probe	AX	s525
34.448	0.5	AY	n/a	n/a	dot_pattern_expectancy	-1.0	n/a	cue	AY	s525
36.952	0.5	AY	1.0	71.0	dot_pattern_expectancy	71.0	0.553	probe	AY	s525
38.453	0.5	BY	n/a	n/a	dot_pattern_expectancy	-1.0	n/a	cue	BY	s525
40.957	0.5	BY	1.0	71.0	dot_pattern_expectancy	71.0	0.245	probe	BY	s525
42.459	0.5	BY	n/a	n/a	dot_pattern_expectancy	-1.0	n/a	cue	BY	s525
44.964	0.5	BY	1.0	71.0	dot_pattern_expectancy	71.0	0.622	probe	BY	s525
46.466	0.5	AX	n/a	n/a	dot_pattern_expectancy	-1.0	n/a	cue	AX	s525
48.971	0.5	AX	1.0	89.0	dot_pattern_expectancy	89.0	0.413	probe	AX	s525
50.608	0.5	BX	n/a	n/a	dot_pattern_expectancy	-1.0	n/a	cue	BX	s525
53.112	0.5	BX	1.0	71.0	dot_pattern_expectancy	71.0	0.24	probe	BX	s525
55.158	0.5	AX	n/a	n/a	dot_pattern_expectancy	-1.0	n/a	cue	AX	s525
57.662	0.5	AX	1.0	89.0	dot_pattern_expectancy	89.0	0.496	probe	AX	s525
59.435	0.5	BX	n/a	n/a	dot_pattern_expectancy	-1.0	n/a	cue	BX	s525
61.939	0.5	BX	1.0	71.0	dot_pattern_expectancy	71.0	0.337	probe	BX	s525
64.529	0.5	AY	n/a	n/a	dot_pattern_expectancy	-1.0	n/a	cue	AY	s525
67.033	0.5	AY	1.0	71.0	dot_pattern_expectancy	71.0	0.431	probe	AY	s525
68.534	0.5	AX	n/a	n/a	dot_pattern_expectancy	-1.0	n/a	cue	AX	s525
71.039	0.5	AX	1.0	89.0	dot_pattern_expectancy	89.0	0.366	probe	AX	s525
73.494	0.5	BY	n/a	n/a	dot_pattern_expectancy	-1.0	n/a	cue	BY	s525
75.998	0.5	BY	1.0	71.0	dot_pattern_expectancy	71.0	0.549	probe	BY	s525
77.636	0.5	AX	n/a	n/a	dot_pattern_expectancy	-1.0	n/a	cue	AX	s525
80.14	0.5	AX	1.0	89.0	dot_pattern_expectancy	89.0	0.414	probe	AX	s525
81.777	0.5	AX	n/a	n/a	dot_pattern_expectancy	-1.0	n/a	cue	AX	s525
84.281	0.5	AX	1.0	89.0	dot_pattern_expectancy	89.0	0.49	probe	AX	s525
85.783	0.5	BY	n/a	n/a	dot_pattern_expectancy	-1.0	n/a	cue	BY	s525
88.288	0.5	BY	1.0	71.0	dot_pattern_expectancy	71.0	0.605	probe	BY	s525
89.927	0.5	AX	n/a	n/a	dot_pattern_expectancy	-1.0	n/a	cue	AX	s525
92.431	0.5	AX	1.0	89.0	dot_pattern_expectancy	89.0	0.35	probe	AX	s525
93.933	0.5	AY	n/a	n/a	dot_pattern_expectancy	-1.0	n/a	cue	AY	s525
96.437	0.5	AY	1.0	71.0	dot_pattern_expectancy	71.0	0.486	probe	AY	s525
98.62	0.5	AX	n/a	n/a	dot_pattern_expectancy	-1.0	n/a	cue	AX	s525
101.126	0.5	AX	1.0	89.0	dot_pattern_expectancy	89.0	0.357	probe	AX	s525
102.628	0.5	AX	n/a	n/a	dot_pattern_expectancy	-1.0	n/a	cue	AX	s525
105.133	0.5	AX	1.0	89.0	dot_pattern_expectancy	89.0	0.375	probe	AX	s525
107.042	0.5	BY	n/a	n/a	dot_pattern_expectancy	-1.0	n/a	cue	BY	s525
109.546	0.5	BY	1.0	71.0	dot_pattern_expectancy	71.0	0.207	probe	BY	s525
111.185	0.5	BY	n/a	n/a	dot_pattern_expectancy	-1.0	n/a	cue	BY	s525
113.688	0.5	BY	1.0	71.0	dot_pattern_expectancy	71.0	0.254	probe	BY	s525
115.325	0.5	AX	n/a	n/a	dot_pattern_expectancy	-1.0	n/a	cue	AX	s525
117.83	0.5	AX	1.0	89.0	dot_pattern_expectancy	89.0	0.499	probe	AX	s525
119.469	0.5	AX	n/a	n/a	dot_pattern_expectancy	-1.0	n/a	cue	AX	s525
121.973	0.5	AX	1.0	89.0	dot_pattern_expectancy	89.0	0.529	probe	AX	s525
123.475	0.5	BY	n/a	n/a	dot_pattern_expectancy	-1.0	n/a	cue	BY	s525
125.979	0.5	BY	1.0	71.0	dot_pattern_expectancy	71.0	0.333	probe	BY	s525
128.024	0.5	AY	n/a	n/a	dot_pattern_expectancy	-1.0	n/a	cue	AY	s525
130.528	0.5	AY	1.0	71.0	dot_pattern_expectancy	71.0	0.616	probe	AY	s525
132.711	0.5	AY	n/a	n/a	dot_pattern_expectancy	-1.0	n/a	cue	AY	s525
135.214	0.5	AY	1.0	71.0	dot_pattern_expectancy	71.0	0.901	probe	AY	s525
136.851	0.5	AY	n/a	n/a	dot_pattern_expectancy	-1.0	n/a	cue	AY	s525
139.355	0.5	AY	1.0	71.0	dot_pattern_expectancy	71.0	0.557	probe	AY	s525
141.129	0.5	BY	n/a	n/a	dot_pattern_expectancy	-1.0	n/a	cue	BY	s525
143.633	0.5	BY	1.0	71.0	dot_pattern_expectancy	71.0	0.457	probe	BY	s525
145.134	0.5	BX	n/a	n/a	dot_pattern_expectancy	-1.0	n/a	cue	BX	s525
147.638	0.5	BX	1.0	71.0	dot_pattern_expectancy	71.0	0.454	probe	BX	s525
149.549	0.5	AX	n/a	n/a	dot_pattern_expectancy	-1.0	n/a	cue	AX	s525
152.052	0.5	AX	1.0	89.0	dot_pattern_expectancy	89.0	0.364	probe	AX	s525
154.099	0.5	AX	n/a	n/a	dot_pattern_expectancy	-1.0	n/a	cue	AX	s525
156.603	0.5	AX	1.0	89.0	dot_pattern_expectancy	89.0	0.361	probe	AX	s525
158.242	0.5	AX	n/a	n/a	dot_pattern_expectancy	-1.0	n/a	cue	AX	s525
160.745	0.5	AX	1.0	89.0	dot_pattern_expectancy	89.0	0.472	probe	AX	s525
162.52	0.5	AX	n/a	n/a	dot_pattern_expectancy	-1.0	n/a	cue	AX	s525
165.023	0.5	AX	1.0	89.0	dot_pattern_expectancy	89.0	0.469	probe	AX	s525
166.66	0.5	BX	n/a	n/a	dot_pattern_expectancy	-1.0	n/a	cue	BX	s525
169.164	0.5	BX	1.0	71.0	dot_pattern_expectancy	71.0	0.222	probe	BX	s525
170.938	0.5	AX	n/a	n/a	dot_pattern_expectancy	-1.0	n/a	cue	AX	s525
173.442	0.5	AX	1.0	89.0	dot_pattern_expectancy	89.0	0.39	probe	AX	s525
185.45	0.5	BY	n/a	n/a	dot_pattern_expectancy	-1.0	n/a	cue	BY	s525
187.954	0.5	BY	1.0	71.0	dot_pattern_expectancy	71.0	0.572	probe	BY	s525
189.593	0.5	AY	n/a	n/a	dot_pattern_expectancy	-1.0	n/a	cue	AY	s525
192.096	0.5	AY	1.0	71.0	dot_pattern_expectancy	71.0	0.687	probe	AY	s525
193.599	0.5	AX	n/a	n/a	dot_pattern_expectancy	-1.0	n/a	cue	AX	s525
196.103	0.5	AX	1.0	89.0	dot_pattern_expectancy	89.0	0.47	probe	AX	s525
198.149	0.5	BY	n/a	n/a	dot_pattern_expectancy	-1.0	n/a	cue	BY	s525
200.653	0.5	BY	1.0	71.0	dot_pattern_expectancy	71.0	0.395	probe	BY	s525
202.427	0.5	BX	n/a	n/a	dot_pattern_expectancy	-1.0	n/a	cue	BX	s525
204.93	0.5	BX	1.0	71.0	dot_pattern_expectancy	71.0	0.33	probe	BX	s525
206.569	0.5	AX	n/a	n/a	dot_pattern_expectancy	-1.0	n/a	cue	AX	s525
209.072	0.5	AX	1.0	89.0	dot_pattern_expectancy	89.0	0.399	probe	AX	s525
210.71	0.5	AX	n/a	n/a	dot_pattern_expectancy	-1.0	n/a	cue	AX	s525
213.214	0.5	AX	1.0	89.0	dot_pattern_expectancy	89.0	1.178	probe	AX	s525
214.715	0.5	AX	n/a	n/a	dot_pattern_expectancy	-1.0	n/a	cue	AX	s525
217.219	0.5	AX	1.0	89.0	dot_pattern_expectancy	89.0	0.407	probe	AX	s525
218.721	0.5	AY	n/a	n/a	dot_pattern_expectancy	-1.0	n/a	cue	AY	s525
221.225	0.5	AY	1.0	71.0	dot_pattern_expectancy	71.0	0.444	probe	AY	s525
223.27	0.5	AX	n/a	n/a	dot_pattern_expectancy	-1.0	n/a	cue	AX	s525
225.774	0.5	AX	1.0	89.0	dot_pattern_expectancy	89.0	0.424	probe	AX	s525
228.229	0.5	AX	n/a	n/a	dot_pattern_expectancy	-1.0	n/a	cue	AX	s525
230.733	0.5	AX	1.0	89.0	dot_pattern_expectancy	89.0	0.409	probe	AX	s525
232.644	0.5	AX	n/a	n/a	dot_pattern_expectancy	-1.0	n/a	cue	AX	s525
235.148	0.5	AX	1.0	89.0	dot_pattern_expectancy	89.0	0.421	probe	AX	s525
236.65	0.5	AX	n/a	n/a	dot_pattern_expectancy	-1.0	n/a	cue	AX	s525
239.153	0.5	AX	1.0	89.0	dot_pattern_expectancy	89.0	0.376	probe	AX	s525
241.063	0.5	BX	n/a	n/a	dot_pattern_expectancy	-1.0	n/a	cue	BX	s525
243.567	0.5	BX	1.0	71.0	dot_pattern_expectancy	71.0	0.091	probe	BX	s525
245.749	0.5	AX	n/a	n/a	dot_pattern_expectancy	-1.0	n/a	cue	AX	s525
248.253	0.5	AX	1.0	89.0	dot_pattern_expectancy	89.0	0.37	probe	AX	s525
249.756	0.5	BY	n/a	n/a	dot_pattern_expectancy	-1.0	n/a	cue	BY	s525
252.26	0.5	BY	1.0	71.0	dot_pattern_expectancy	71.0	0.005	probe	BY	s525
254.171	0.5	BX	n/a	n/a	dot_pattern_expectancy	-1.0	n/a	cue	BX	s525
256.675	0.5	BX	1.0	71.0	dot_pattern_expectancy	71.0	0.262	probe	BX	s525
258.993	0.5	AY	n/a	n/a	dot_pattern_expectancy	-1.0	n/a	cue	AY	s525
261.498	0.5	AY	1.0	71.0	dot_pattern_expectancy	71.0	0.527	probe	AY	s525
263.815	0.5	BX	n/a	n/a	dot_pattern_expectancy	-1.0	n/a	cue	BX	s525
266.318	0.5	BX	1.0	71.0	dot_pattern_expectancy	71.0	0.233	probe	BX	s525
267.957	0.5	AY	n/a	n/a	dot_pattern_expectancy	-1.0	n/a	cue	AY	s525
270.461	0.5	AY	0.0	71.0	dot_pattern_expectancy	89.0	0.461	probe	AY	s525
271.963	0.5	BY	n/a	n/a	dot_pattern_expectancy	-1.0	n/a	cue	BY	s525
274.468	0.5	BY	1.0	71.0	dot_pattern_expectancy	71.0	0.3	probe	BY	s525
276.379	0.5	AX	n/a	n/a	dot_pattern_expectancy	-1.0	n/a	cue	AX	s525
278.883	0.5	AX	1.0	89.0	dot_pattern_expectancy	89.0	0.524	probe	AX	s525
280.386	0.5	AY	n/a	n/a	dot_pattern_expectancy	-1.0	n/a	cue	AY	s525
282.888	0.5	AY	1.0	71.0	dot_pattern_expectancy	71.0	0.528	probe	AY	s525
285.207	0.5	AX	n/a	n/a	dot_pattern_expectancy	-1.0	n/a	cue	AX	s525
287.71	0.5	AX	1.0	89.0	dot_pattern_expectancy	89.0	0.538	probe	AX	s525
289.212	0.5	AY	n/a	n/a	dot_pattern_expectancy	-1.0	n/a	cue	AY	s525
291.715	0.5	AY	1.0	71.0	dot_pattern_expectancy	71.0	0.674	probe	AY	s525
294.44	0.5	AX	n/a	n/a	dot_pattern_expectancy	-1.0	n/a	cue	AX	s525
296.944	0.5	AX	1.0	89.0	dot_pattern_expectancy	89.0	0.582	probe	AX	s525
298.446	0.5	AX	n/a	n/a	dot_pattern_expectancy	-1.0	n/a	cue	AX	s525
300.95	0.5	AX	1.0	89.0	dot_pattern_expectancy	89.0	0.451	probe	AX	s525
302.589	0.5	AX	n/a	n/a	dot_pattern_expectancy	-1.0	n/a	cue	AX	s525
305.091	0.5	AX	1.0	89.0	dot_pattern_expectancy	89.0	0.358	probe	AX	s525
306.729	0.5	AX	n/a	n/a	dot_pattern_expectancy	-1.0	n/a	cue	AX	s525
309.233	0.5	AX	1.0	89.0	dot_pattern_expectancy	89.0	0.54	probe	AX	s525
311.006	0.5	BY	n/a	n/a	dot_pattern_expectancy	-1.0	n/a	cue	BY	s525
313.51	0.5	BY	1.0	71.0	dot_pattern_expectancy	71.0	0.261	probe	BY	s525
315.284	0.5	AX	n/a	n/a	dot_pattern_expectancy	-1.0	n/a	cue	AX	s525
317.788	0.5	AX	1.0	89.0	dot_pattern_expectancy	89.0	0.435	probe	AX	s525
319.289	0.5	BY	n/a	n/a	dot_pattern_expectancy	-1.0	n/a	cue	BY	s525
321.794	0.5	BY	1.0	71.0	dot_pattern_expectancy	71.0	0.275	probe	BY	s525
324.248	0.5	AX	n/a	n/a	dot_pattern_expectancy	-1.0	n/a	cue	AX	s525
326.751	0.5	AX	1.0	89.0	dot_pattern_expectancy	89.0	0.393	probe	AX	s525
328.388	0.5	AX	n/a	n/a	dot_pattern_expectancy	-1.0	n/a	cue	AX	s525
330.893	0.5	AX	1.0	89.0	dot_pattern_expectancy	89.0	0.362	probe	AX	s525
332.531	0.5	BX	n/a	n/a	dot_pattern_expectancy	-1.0	n/a	cue	BX	s525
335.036	0.5	BX	1.0	71.0	dot_pattern_expectancy	71.0	0.377	probe	BX	s525
336.538	0.5	BX	n/a	n/a	dot_pattern_expectancy	-1.0	n/a	cue	BX	s525
339.042	0.5	BX	1.0	71.0	dot_pattern_expectancy	71.0	0.315	probe	BX	s525
340.543	0.5	AX	n/a	n/a	dot_pattern_expectancy	-1.0	n/a	cue	AX	s525
343.047	0.5	AX	1.0	89.0	dot_pattern_expectancy	89.0	0.351	probe	AX	s525
345.365	0.5	AY	n/a	n/a	dot_pattern_expectancy	-1.0	n/a	cue	AY	s525
347.87	0.5	AY	1.0	71.0	dot_pattern_expectancy	71.0	0.578	probe	AY	s525
349.916	0.5	AX	n/a	n/a	dot_pattern_expectancy	-1.0	n/a	cue	AX	s525
352.421	0.5	AX	1.0	89.0	dot_pattern_expectancy	89.0	0.478	probe	AX	s525
356.372	0.5	AX	n/a	n/a	dot_pattern_expectancy	-1.0	n/a	cue	AX	s525
358.874	0.5	AX	1.0	89.0	dot_pattern_expectancy	89.0	0.366	probe	AX	s525
371.019	0.5	AY	n/a	n/a	dot_pattern_expectancy	-1.0	n/a	cue	AY	s525
373.523	0.5	AY	1.0	71.0	dot_pattern_expectancy	71.0	0.543	probe	AY	s525
375.163	0.5	AX	n/a	n/a	dot_pattern_expectancy	-1.0	n/a	cue	AX	s525
377.667	0.5	AX	1.0	89.0	dot_pattern_expectancy	89.0	0.348	probe	AX	s525
379.306	0.5	AX	n/a	n/a	dot_pattern_expectancy	-1.0	n/a	cue	AX	s525
381.809	0.5	AX	1.0	89.0	dot_pattern_expectancy	89.0	0.467	probe	AX	s525
383.312	0.5	AX	n/a	n/a	dot_pattern_expectancy	-1.0	n/a	cue	AX	s525
385.816	0.5	AX	1.0	89.0	dot_pattern_expectancy	89.0	0.465	probe	AX	s525
387.318	0.5	AX	n/a	n/a	dot_pattern_expectancy	-1.0	n/a	cue	AX	s525
389.822	0.5	AX	1.0	89.0	dot_pattern_expectancy	89.0	0.472	probe	AX	s525
391.733	0.5	BX	n/a	n/a	dot_pattern_expectancy	-1.0	n/a	cue	BX	s525
394.236	0.5	BX	1.0	71.0	dot_pattern_expectancy	71.0	0.277	probe	BX	s525
395.873	0.5	AX	n/a	n/a	dot_pattern_expectancy	-1.0	n/a	cue	AX	s525
398.377	0.5	AX	1.0	89.0	dot_pattern_expectancy	89.0	0.319	probe	AX	s525
400.423	0.5	AX	n/a	n/a	dot_pattern_expectancy	-1.0	n/a	cue	AX	s525
402.927	0.5	AX	1.0	89.0	dot_pattern_expectancy	89.0	0.594	probe	AX	s525
404.7	0.5	AX	n/a	n/a	dot_pattern_expectancy	-1.0	n/a	cue	AX	s525
407.204	0.5	AX	1.0	89.0	dot_pattern_expectancy	89.0	0.511	probe	AX	s525
408.706	0.5	AX	n/a	n/a	dot_pattern_expectancy	-1.0	n/a	cue	AX	s525
411.21	0.5	AX	1.0	89.0	dot_pattern_expectancy	89.0	0.373	probe	AX	s525
413.393	0.5	AX	n/a	n/a	dot_pattern_expectancy	-1.0	n/a	cue	AX	s525
415.896	0.5	AX	1.0	89.0	dot_pattern_expectancy	89.0	0.532	probe	AX	s525
417.399	0.5	BX	n/a	n/a	dot_pattern_expectancy	-1.0	n/a	cue	BX	s525
419.903	0.5	BX	1.0	71.0	dot_pattern_expectancy	71.0	0.424	probe	BX	s525
423.581	0.5	BY	n/a	n/a	dot_pattern_expectancy	-1.0	n/a	cue	BY	s525
426.084	0.5	BY	1.0	71.0	dot_pattern_expectancy	71.0	0.254	probe	BY	s525
427.722	0.5	BY	n/a	n/a	dot_pattern_expectancy	-1.0	n/a	cue	BY	s525
430.228	0.5	BY	1.0	71.0	dot_pattern_expectancy	71.0	0.22	probe	BY	s525
431.866	0.5	BX	n/a	n/a	dot_pattern_expectancy	-1.0	n/a	cue	BX	s525
434.371	0.5	BX	1.0	71.0	dot_pattern_expectancy	71.0	0.098	probe	BX	s525
435.873	0.5	AX	n/a	n/a	dot_pattern_expectancy	-1.0	n/a	cue	AX	s525
438.378	0.5	AX	1.0	89.0	dot_pattern_expectancy	89.0	0.368	probe	AX	s525
440.288	0.5	AX	n/a	n/a	dot_pattern_expectancy	-1.0	n/a	cue	AX	s525
442.792	0.5	AX	1.0	89.0	dot_pattern_expectancy	89.0	0.477	probe	AX	s525
444.429	0.5	BX	n/a	n/a	dot_pattern_expectancy	-1.0	n/a	cue	BX	s525
446.933	0.5	BX	1.0	71.0	dot_pattern_expectancy	71.0	0.276	probe	BX	s525
448.435	0.5	AX	n/a	n/a	dot_pattern_expectancy	-1.0	n/a	cue	AX	s525
450.939	0.5	AX	1.0	89.0	dot_pattern_expectancy	89.0	0.358	probe	AX	s525
452.85	0.5	BY	n/a	n/a	dot_pattern_expectancy	-1.0	n/a	cue	BY	s525
455.352	0.5	BY	0.0	71.0	dot_pattern_expectancy	-1.0	n/a	probe	BY	s525
457.534	0.5	AX	n/a	n/a	dot_pattern_expectancy	-1.0	n/a	cue	AX	s525
460.038	0.5	AX	1.0	89.0	dot_pattern_expectancy	89.0	0.438	probe	AX	s525
461.811	0.5	AX	n/a	n/a	dot_pattern_expectancy	-1.0	n/a	cue	AX	s525
464.315	0.5	AX	1.0	89.0	dot_pattern_expectancy	89.0	0.462	probe	AX	s525
465.817	0.5	AX	n/a	n/a	dot_pattern_expectancy	-1.0	n/a	cue	AX	s525
468.321	0.5	AX	1.0	89.0	dot_pattern_expectancy	89.0	0.325	probe	AX	s525
469.822	0.5	AX	n/a	n/a	dot_pattern_expectancy	-1.0	n/a	cue	AX	s525
472.326	0.5	AX	1.0	89.0	dot_pattern_expectancy	89.0	0.329	probe	AX	s525
474.372	0.5	AX	n/a	n/a	dot_pattern_expectancy	-1.0	n/a	cue	AX	s525
476.876	0.5	AX	1.0	89.0	dot_pattern_expectancy	89.0	0.425	probe	AX	s525
479.737	0.5	BX	n/a	n/a	dot_pattern_expectancy	-1.0	n/a	cue	BX	s525
482.241	0.5	BX	1.0	71.0	dot_pattern_expectancy	71.0	0.251	probe	BX	s525
483.743	0.5	BY	n/a	n/a	dot_pattern_expectancy	-1.0	n/a	cue	BY	s525
486.247	0.5	BY	1.0	71.0	dot_pattern_expectancy	71.0	0.297	probe	BY	s525
488.02	0.5	AX	n/a	n/a	dot_pattern_expectancy	-1.0	n/a	cue	AX	s525
490.524	0.5	AX	1.0	89.0	dot_pattern_expectancy	89.0	0.816	probe	AX	s525
492.298	0.5	AX	n/a	n/a	dot_pattern_expectancy	-1.0	n/a	cue	AX	s525
494.802	0.5	AX	1.0	89.0	dot_pattern_expectancy	89.0	0.384	probe	AX	s525
497.663	0.5	AX	n/a	n/a	dot_pattern_expectancy	-1.0	n/a	cue	AX	s525
500.167	0.5	AX	1.0	89.0	dot_pattern_expectancy	89.0	0.42	probe	AX	s525
501.941	0.5	BX	n/a	n/a	dot_pattern_expectancy	-1.0	n/a	cue	BX	s525
504.445	0.5	BX	1.0	71.0	dot_pattern_expectancy	71.0	0.232	probe	BX	s525
506.084	0.5	BX	n/a	n/a	dot_pattern_expectancy	-1.0	n/a	cue	BX	s525
508.586	0.5	BX	1.0	71.0	dot_pattern_expectancy	71.0	0.367	probe	BX	s525
511.04	0.5	AX	n/a	n/a	dot_pattern_expectancy	-1.0	n/a	cue	AX	s525
513.543	0.5	AX	1.0	89.0	dot_pattern_expectancy	89.0	0.442	probe	AX	s525
515.182	0.5	BX	n/a	n/a	dot_pattern_expectancy	-1.0	n/a	cue	BX	s525
517.686	0.5	BX	1.0	71.0	dot_pattern_expectancy	71.0	0.28	probe	BX	s525
519.189	0.5	AX	n/a	n/a	dot_pattern_expectancy	-1.0	n/a	cue	AX	s525
521.693	0.5	AX	1.0	89.0	dot_pattern_expectancy	89.0	0.578	probe	AX	s525
523.331	0.5	AX	n/a	n/a	dot_pattern_expectancy	-1.0	n/a	cue	AX	s525
525.835	0.5	AX	1.0	89.0	dot_pattern_expectancy	89.0	0.428	probe	AX	s525
527.472	0.5	BY	n/a	n/a	dot_pattern_expectancy	-1.0	n/a	cue	BY	s525
529.977	0.5	BY	1.0	71.0	dot_pattern_expectancy	71.0	0.291	probe	BY	s525
532.159	0.5	AX	n/a	n/a	dot_pattern_expectancy	-1.0	n/a	cue	AX	s525
534.663	0.5	AX	1.0	89.0	dot_pattern_expectancy	89.0	0.715	probe	AX	s525
536.165	0.5	AY	n/a	n/a	dot_pattern_expectancy	-1.0	n/a	cue	AY	s525
538.67	0.5	AY	1.0	71.0	dot_pattern_expectancy	71.0	1.007	probe	AY	s525
540.308	0.5	AX	n/a	n/a	dot_pattern_expectancy	-1.0	n/a	cue	AX	s525
542.811	0.5	AX	1.0	89.0	dot_pattern_expectancy	89.0	0.611	probe	AX	s525
554.956	0.5	AX	n/a	n/a	dot_pattern_expectancy	-1.0	n/a	cue	AX	s525
557.459	0.5	AX	1.0	89.0	dot_pattern_expectancy	89.0	0.517	probe	AX	s525
559.641	0.5	AY	n/a	n/a	dot_pattern_expectancy	-1.0	n/a	cue	AY	s525
562.146	0.5	AY	1.0	71.0	dot_pattern_expectancy	71.0	0.619	probe	AY	s525
564.465	0.5	AY	n/a	n/a	dot_pattern_expectancy	-1.0	n/a	cue	AY	s525
566.969	0.5	AY	1.0	71.0	dot_pattern_expectancy	71.0	0.689	probe	AY	s525
568.608	0.5	BX	n/a	n/a	dot_pattern_expectancy	-1.0	n/a	cue	BX	s525
571.111	0.5	BX	1.0	71.0	dot_pattern_expectancy	71.0	0.637	probe	BX	s525
573.02	0.5	AX	n/a	n/a	dot_pattern_expectancy	-1.0	n/a	cue	AX	s525
575.525	0.5	AX	1.0	89.0	dot_pattern_expectancy	89.0	0.529	probe	AX	s525
579.066	0.5	BX	n/a	n/a	dot_pattern_expectancy	-1.0	n/a	cue	BX	s525
581.57	0.5	BX	1.0	71.0	dot_pattern_expectancy	71.0	0.336	probe	BX	s525
583.207	0.5	BY	n/a	n/a	dot_pattern_expectancy	-1.0	n/a	cue	BY	s525
585.711	0.5	BY	1.0	71.0	dot_pattern_expectancy	71.0	0.337	probe	BY	s525
587.214	0.5	AX	n/a	n/a	dot_pattern_expectancy	-1.0	n/a	cue	AX	s525
589.719	0.5	AX	1.0	89.0	dot_pattern_expectancy	89.0	0.408	probe	AX	s525
591.221	0.5	AX	n/a	n/a	dot_pattern_expectancy	-1.0	n/a	cue	AX	s525
593.726	0.5	AX	1.0	89.0	dot_pattern_expectancy	89.0	0.593	probe	AX	s525
595.5	0.5	BY	n/a	n/a	dot_pattern_expectancy	-1.0	n/a	cue	BY	s525
598.005	0.5	BY	1.0	71.0	dot_pattern_expectancy	71.0	0.201	probe	BY	s525
600.459	0.5	AX	n/a	n/a	dot_pattern_expectancy	-1.0	n/a	cue	AX	s525
602.963	0.5	AX	1.0	89.0	dot_pattern_expectancy	89.0	0.371	probe	AX	s525
604.872	0.5	BX	n/a	n/a	dot_pattern_expectancy	-1.0	n/a	cue	BX	s525
607.375	0.5	BX	1.0	71.0	dot_pattern_expectancy	71.0	0.223	probe	BX	s525
609.013	0.5	AX	n/a	n/a	dot_pattern_expectancy	-1.0	n/a	cue	AX	s525
611.518	0.5	AX	1.0	89.0	dot_pattern_expectancy	89.0	0.399	probe	AX	s525
613.021	0.5	AX	n/a	n/a	dot_pattern_expectancy	-1.0	n/a	cue	AX	s525
615.523	0.5	AX	1.0	89.0	dot_pattern_expectancy	89.0	0.716	probe	AX	s525
617.16	0.5	AX	n/a	n/a	dot_pattern_expectancy	-1.0	n/a	cue	AX	s525
619.665	0.5	AX	1.0	89.0	dot_pattern_expectancy	89.0	0.708	probe	AX	s525
621.303	0.5	BY	n/a	n/a	dot_pattern_expectancy	-1.0	n/a	cue	BY	s525
623.806	0.5	BY	1.0	71.0	dot_pattern_expectancy	71.0	0.315	probe	BY	s525
626.259	0.5	AX	n/a	n/a	dot_pattern_expectancy	-1.0	n/a	cue	AX	s525
628.763	0.5	AX	1.0	89.0	dot_pattern_expectancy	89.0	0.644	probe	AX	s525
630.265	0.5	BY	n/a	n/a	dot_pattern_expectancy	-1.0	n/a	cue	BY	s525
632.769	0.5	BY	1.0	71.0	dot_pattern_expectancy	71.0	0.296	probe	BY	s525
634.27	0.5	AX	n/a	n/a	dot_pattern_expectancy	-1.0	n/a	cue	AX	s525
636.775	0.5	AX	1.0	89.0	dot_pattern_expectancy	89.0	0.39	probe	AX	s525
638.413	0.5	AX	n/a	n/a	dot_pattern_expectancy	-1.0	n/a	cue	AX	s525
640.916	0.5	AX	1.0	89.0	dot_pattern_expectancy	89.0	0.604	probe	AX	s525
642.553	0.5	AY	n/a	n/a	dot_pattern_expectancy	-1.0	n/a	cue	AY	s525
645.057	0.5	AY	1.0	71.0	dot_pattern_expectancy	71.0	0.586	probe	AY	s525
646.696	0.5	AX	n/a	n/a	dot_pattern_expectancy	-1.0	n/a	cue	AX	s525
649.2	0.5	AX	1.0	89.0	dot_pattern_expectancy	89.0	0.448	probe	AX	s525
650.703	0.5	AX	n/a	n/a	dot_pattern_expectancy	-1.0	n/a	cue	AX	s525
653.207	0.5	AX	1.0	89.0	dot_pattern_expectancy	89.0	0.521	probe	AX	s525
654.708	0.5	AX	n/a	n/a	dot_pattern_expectancy	-1.0	n/a	cue	AX	s525
657.212	0.5	AX	1.0	89.0	dot_pattern_expectancy	89.0	1.529	probe	AX	s525
658.987	0.5	AX	n/a	n/a	dot_pattern_expectancy	-1.0	n/a	cue	AX	s525
661.492	0.5	AX	1.0	89.0	dot_pattern_expectancy	89.0	0.433	probe	AX	s525
663.674	0.5	BX	n/a	n/a	dot_pattern_expectancy	-1.0	n/a	cue	BX	s525
666.178	0.5	BX	1.0	71.0	dot_pattern_expectancy	71.0	0.323	probe	BX	s525
667.951	0.5	BY	n/a	n/a	dot_pattern_expectancy	-1.0	n/a	cue	BY	s525
670.457	0.5	BY	1.0	71.0	dot_pattern_expectancy	71.0	0.292	probe	BY	s525
671.96	0.5	AX	n/a	n/a	dot_pattern_expectancy	-1.0	n/a	cue	AX	s525
674.465	0.5	AX	1.0	89.0	dot_pattern_expectancy	89.0	0.634	probe	AX	s525
675.967	0.5	AX	n/a	n/a	dot_pattern_expectancy	-1.0	n/a	cue	AX	s525
678.471	0.5	AX	1.0	89.0	dot_pattern_expectancy	89.0	0.499	probe	AX	s525
680.11	0.5	AY	n/a	n/a	dot_pattern_expectancy	-1.0	n/a	cue	AY	s525
682.613	0.5	AY	1.0	71.0	dot_pattern_expectancy	71.0	0.751	probe	AY	s525
684.794	0.5	AY	n/a	n/a	dot_pattern_expectancy	-1.0	n/a	cue	AY	s525
687.299	0.5	AY	0.0	71.0	dot_pattern_expectancy	89.0	0.39	probe	AY	s525
689.616	0.5	BX	n/a	n/a	dot_pattern_expectancy	-1.0	n/a	cue	BX	s525
692.119	0.5	BX	1.0	71.0	dot_pattern_expectancy	71.0	0.324	probe	BX	s525
693.757	0.5	BX	n/a	n/a	dot_pattern_expectancy	-1.0	n/a	cue	BX	s525
696.261	0.5	BX	1.0	71.0	dot_pattern_expectancy	71.0	0.654	probe	BX	s525
698.443	0.5	AY	n/a	n/a	dot_pattern_expectancy	-1.0	n/a	cue	AY	s525
700.947	0.5	AY	1.0	71.0	dot_pattern_expectancy	71.0	0.813	probe	AY	s525
702.993	0.5	AX	n/a	n/a	dot_pattern_expectancy	-1.0	n/a	cue	AX	s525
705.497	0.5	AX	1.0	89.0	dot_pattern_expectancy	89.0	0.485	probe	AX	s525
707.27	0.5	AX	n/a	n/a	dot_pattern_expectancy	-1.0	n/a	cue	AX	s525
709.775	0.5	AX	1.0	89.0	dot_pattern_expectancy	89.0	0.435	probe	AX	s525
711.277	0.5	AX	n/a	n/a	dot_pattern_expectancy	-1.0	n/a	cue	AX	s525
713.781	0.5	AX	1.0	89.0	dot_pattern_expectancy	89.0	0.588	probe	AX	s525
715.964	0.5	AY	n/a	n/a	dot_pattern_expectancy	-1.0	n/a	cue	AY	s525
718.468	0.5	AY	1.0	71.0	dot_pattern_expectancy	71.0	0.709	probe	AY	s525
720.923	0.5	AX	n/a	n/a	dot_pattern_expectancy	-1.0	n/a	cue	AX	s525
723.428	0.5	AX	0.0	89.0	dot_pattern_expectancy	71.0	1.039	probe	AX	s525
725.066	0.5	AX	n/a	n/a	dot_pattern_expectancy	-1.0	n/a	cue	AX	s525
727.569	0.5	AX	1.0	89.0	dot_pattern_expectancy	89.0	0.707	probe	AX	s525
