onset	duration	condition	correct	correct_response	experiment_exp_id	key_press	response_time	trial_id	trial_type	worker_id
3.018	0.5	AY	n/a	n/a	dot_pattern_expectancy	-1.0	n/a	cue	AY	s647
5.529	0.5	AY	1.0	71.0	dot_pattern_expectancy	71.0	0.526	probe	AY	s647
7.172	0.5	AX	n/a	n/a	dot_pattern_expectancy	-1.0	n/a	cue	AX	s647
9.684	0.5	AX	1.0	89.0	dot_pattern_expectancy	89.0	0.405	probe	AX	s647
11.326	0.5	AX	n/a	n/a	dot_pattern_expectancy	-1.0	n/a	cue	AX	s647
13.835	0.5	AX	1.0	89.0	dot_pattern_expectancy	89.0	0.404	probe	AX	s647
15.342	0.5	AX	n/a	n/a	dot_pattern_expectancy	-1.0	n/a	cue	AX	s647
17.851	0.5	AX	1.0	89.0	dot_pattern_expectancy	89.0	0.393	probe	AX	s647
19.358	0.5	AX	n/a	n/a	dot_pattern_expectancy	-1.0	n/a	cue	AX	s647
21.87	0.5	AX	1.0	89.0	dot_pattern_expectancy	89.0	0.398	probe	AX	s647
23.785	0.5	BX	n/a	n/a	dot_pattern_expectancy	-1.0	n/a	cue	BX	s647
26.296	0.5	BX	1.0	71.0	dot_pattern_expectancy	71.0	0.831	probe	BX	s647
27.939	0.5	AX	n/a	n/a	dot_pattern_expectancy	-1.0	n/a	cue	AX	s647
30.448	0.5	AX	1.0	89.0	dot_pattern_expectancy	89.0	0.408	probe	AX	s647
32.499	0.5	AX	n/a	n/a	dot_pattern_expectancy	-1.0	n/a	cue	AX	s647
35.008	0.5	AX	1.0	89.0	dot_pattern_expectancy	89.0	0.563	probe	AX	s647
36.787	0.5	AX	n/a	n/a	dot_pattern_expectancy	-1.0	n/a	cue	AX	s647
39.297	0.5	AX	1.0	89.0	dot_pattern_expectancy	89.0	0.439	probe	AX	s647
40.802	0.5	AX	n/a	n/a	dot_pattern_expectancy	-1.0	n/a	cue	AX	s647
43.314	0.5	AX	1.0	89.0	dot_pattern_expectancy	89.0	0.777	probe	AX	s647
45.5	0.5	AX	n/a	n/a	dot_pattern_expectancy	-1.0	n/a	cue	AX	s647
48.01	0.5	AX	1.0	89.0	dot_pattern_expectancy	89.0	0.478	probe	AX	s647
49.517	0.5	BX	n/a	n/a	dot_pattern_expectancy	-1.0	n/a	cue	BX	s647
52.026	0.5	BX	1.0	71.0	dot_pattern_expectancy	71.0	0.257	probe	BX	s647
55.709	0.5	BY	n/a	n/a	dot_pattern_expectancy	-1.0	n/a	cue	BY	s647
58.218	0.5	BY	1.0	71.0	dot_pattern_expectancy	71.0	1.011	probe	BY	s647
59.858	0.5	BY	n/a	n/a	dot_pattern_expectancy	-1.0	n/a	cue	BY	s647
62.37	0.5	BY	1.0	71.0	dot_pattern_expectancy	71.0	0.237	probe	BY	s647
64.013	0.5	BX	n/a	n/a	dot_pattern_expectancy	-1.0	n/a	cue	BX	s647
66.52	0.5	BX	1.0	71.0	dot_pattern_expectancy	71.0	0.24	probe	BX	s647
68.023	0.5	AX	n/a	n/a	dot_pattern_expectancy	-1.0	n/a	cue	AX	s647
70.534	0.5	AX	1.0	89.0	dot_pattern_expectancy	89.0	0.44	probe	AX	s647
72.449	0.5	AX	n/a	n/a	dot_pattern_expectancy	-1.0	n/a	cue	AX	s647
74.961	0.5	AX	1.0	89.0	dot_pattern_expectancy	89.0	0.524	probe	AX	s647
76.604	0.5	BX	n/a	n/a	dot_pattern_expectancy	-1.0	n/a	cue	BX	s647
79.113	0.5	BX	1.0	71.0	dot_pattern_expectancy	71.0	0.272	probe	BX	s647
80.62	0.5	AX	n/a	n/a	dot_pattern_expectancy	-1.0	n/a	cue	AX	s647
83.127	0.5	AX	1.0	89.0	dot_pattern_expectancy	89.0	0.449	probe	AX	s647
85.042	0.5	BY	n/a	n/a	dot_pattern_expectancy	-1.0	n/a	cue	BY	s647
87.553	0.5	BY	1.0	71.0	dot_pattern_expectancy	71.0	0.562	probe	BY	s647
89.739	0.5	AX	n/a	n/a	dot_pattern_expectancy	-1.0	n/a	cue	AX	s647
92.249	0.5	AX	1.0	89.0	dot_pattern_expectancy	89.0	0.375	probe	AX	s647
94.023	0.5	AX	n/a	n/a	dot_pattern_expectancy	-1.0	n/a	cue	AX	s647
96.532	0.5	AX	1.0	89.0	dot_pattern_expectancy	89.0	0.566	probe	AX	s647
98.038	0.5	AX	n/a	n/a	dot_pattern_expectancy	-1.0	n/a	cue	AX	s647
100.548	0.5	AX	1.0	89.0	dot_pattern_expectancy	89.0	1.282	probe	AX	s647
102.055	0.5	AX	n/a	n/a	dot_pattern_expectancy	-1.0	n/a	cue	AX	s647
104.568	0.5	AX	0.0	89.0	dot_pattern_expectancy	71.0	1.523	probe	AX	s647
106.619	0.5	AX	n/a	n/a	dot_pattern_expectancy	-1.0	n/a	cue	AX	s647
109.129	0.5	AX	1.0	89.0	dot_pattern_expectancy	89.0	0.379	probe	AX	s647
111.996	0.5	BX	n/a	n/a	dot_pattern_expectancy	-1.0	n/a	cue	BX	s647
114.504	0.5	BX	1.0	71.0	dot_pattern_expectancy	71.0	0.296	probe	BX	s647
116.01	0.5	BY	n/a	n/a	dot_pattern_expectancy	-1.0	n/a	cue	BY	s647
118.52	0.5	BY	1.0	71.0	dot_pattern_expectancy	71.0	0.275	probe	BY	s647
120.299	0.5	AX	n/a	n/a	dot_pattern_expectancy	-1.0	n/a	cue	AX	s647
122.808	0.5	AX	1.0	89.0	dot_pattern_expectancy	89.0	0.414	probe	AX	s647
124.586	0.5	AX	n/a	n/a	dot_pattern_expectancy	-1.0	n/a	cue	AX	s647
127.096	0.5	AX	1.0	89.0	dot_pattern_expectancy	89.0	0.388	probe	AX	s647
129.962	0.5	AX	n/a	n/a	dot_pattern_expectancy	-1.0	n/a	cue	AX	s647
132.471	0.5	AX	1.0	89.0	dot_pattern_expectancy	89.0	0.356	probe	AX	s647
134.25	0.5	BX	n/a	n/a	dot_pattern_expectancy	-1.0	n/a	cue	BX	s647
136.762	0.5	BX	1.0	71.0	dot_pattern_expectancy	71.0	0.297	probe	BX	s647
138.404	0.5	BX	n/a	n/a	dot_pattern_expectancy	-1.0	n/a	cue	BX	s647
140.917	0.5	BX	1.0	71.0	dot_pattern_expectancy	71.0	0.343	probe	BX	s647
143.375	0.5	AX	n/a	n/a	dot_pattern_expectancy	-1.0	n/a	cue	AX	s647
145.887	0.5	AX	1.0	89.0	dot_pattern_expectancy	89.0	0.306	probe	AX	s647
147.529	0.5	BX	n/a	n/a	dot_pattern_expectancy	-1.0	n/a	cue	BX	s647
150.039	0.5	BX	1.0	71.0	dot_pattern_expectancy	71.0	0.398	probe	BX	s647
151.546	0.5	AX	n/a	n/a	dot_pattern_expectancy	-1.0	n/a	cue	AX	s647
154.058	0.5	AX	1.0	89.0	dot_pattern_expectancy	89.0	0.352	probe	AX	s647
155.7	0.5	AX	n/a	n/a	dot_pattern_expectancy	-1.0	n/a	cue	AX	s647
158.211	0.5	AX	1.0	89.0	dot_pattern_expectancy	89.0	0.337	probe	AX	s647
159.85	0.5	BY	n/a	n/a	dot_pattern_expectancy	-1.0	n/a	cue	BY	s647
162.362	0.5	BY	1.0	71.0	dot_pattern_expectancy	71.0	0.403	probe	BY	s647
164.549	0.5	AX	n/a	n/a	dot_pattern_expectancy	-1.0	n/a	cue	AX	s647
167.058	0.5	AX	1.0	89.0	dot_pattern_expectancy	89.0	0.345	probe	AX	s647
168.564	0.5	AY	n/a	n/a	dot_pattern_expectancy	-1.0	n/a	cue	AY	s647
171.075	0.5	AY	1.0	71.0	dot_pattern_expectancy	71.0	0.643	probe	AY	s647
172.718	0.5	AX	n/a	n/a	dot_pattern_expectancy	-1.0	n/a	cue	AX	s647
175.229	0.5	AX	1.0	89.0	dot_pattern_expectancy	89.0	0.492	probe	AX	s647
187.39	0.5	AX	n/a	n/a	dot_pattern_expectancy	-1.0	n/a	cue	AX	s647
189.902	0.5	AX	1.0	89.0	dot_pattern_expectancy	89.0	0.486	probe	AX	s647
192.088	0.5	AY	n/a	n/a	dot_pattern_expectancy	-1.0	n/a	cue	AY	s647
194.598	0.5	AY	1.0	71.0	dot_pattern_expectancy	71.0	0.685	probe	AY	s647
196.92	0.5	AY	n/a	n/a	dot_pattern_expectancy	-1.0	n/a	cue	AY	s647
199.433	0.5	AY	1.0	71.0	dot_pattern_expectancy	71.0	0.669	probe	AY	s647
201.075	0.5	BX	n/a	n/a	dot_pattern_expectancy	-1.0	n/a	cue	BX	s647
203.587	0.5	BX	1.0	71.0	dot_pattern_expectancy	71.0	0.618	probe	BX	s647
205.501	0.5	AX	n/a	n/a	dot_pattern_expectancy	-1.0	n/a	cue	AX	s647
208.014	0.5	AX	1.0	89.0	dot_pattern_expectancy	89.0	0.46	probe	AX	s647
211.561	0.5	BX	n/a	n/a	dot_pattern_expectancy	-1.0	n/a	cue	BX	s647
214.072	0.5	BX	1.0	71.0	dot_pattern_expectancy	71.0	0.43	probe	BX	s647
215.715	0.5	BY	n/a	n/a	dot_pattern_expectancy	-1.0	n/a	cue	BY	s647
218.224	0.5	BY	1.0	71.0	dot_pattern_expectancy	71.0	0.607	probe	BY	s647
219.731	0.5	AX	n/a	n/a	dot_pattern_expectancy	-1.0	n/a	cue	AX	s647
222.239	0.5	AX	1.0	89.0	dot_pattern_expectancy	89.0	0.393	probe	AX	s647
223.746	0.5	AX	n/a	n/a	dot_pattern_expectancy	-1.0	n/a	cue	AX	s647
226.256	0.5	AX	1.0	89.0	dot_pattern_expectancy	89.0	0.719	probe	AX	s647
228.034	0.5	BY	n/a	n/a	dot_pattern_expectancy	-1.0	n/a	cue	BY	s647
230.545	0.5	BY	1.0	71.0	dot_pattern_expectancy	71.0	0.384	probe	BY	s647
233.004	0.5	AX	n/a	n/a	dot_pattern_expectancy	-1.0	n/a	cue	AX	s647
235.516	0.5	AX	1.0	89.0	dot_pattern_expectancy	89.0	0.57	probe	AX	s647
237.431	0.5	BX	n/a	n/a	dot_pattern_expectancy	-1.0	n/a	cue	BX	s647
239.943	0.5	BX	1.0	71.0	dot_pattern_expectancy	71.0	0.585	probe	BX	s647
241.581	0.5	AX	n/a	n/a	dot_pattern_expectancy	-1.0	n/a	cue	AX	s647
244.09	0.5	AX	1.0	89.0	dot_pattern_expectancy	89.0	0.349	probe	AX	s647
245.596	0.5	AX	n/a	n/a	dot_pattern_expectancy	-1.0	n/a	cue	AX	s647
248.108	0.5	AX	1.0	89.0	dot_pattern_expectancy	89.0	0.705	probe	AX	s647
249.746	0.5	AX	n/a	n/a	dot_pattern_expectancy	-1.0	n/a	cue	AX	s647
252.257	0.5	AX	1.0	89.0	dot_pattern_expectancy	89.0	0.746	probe	AX	s647
253.9	0.5	BY	n/a	n/a	dot_pattern_expectancy	-1.0	n/a	cue	BY	s647
256.412	0.5	BY	1.0	71.0	dot_pattern_expectancy	71.0	0.36	probe	BY	s647
258.87	0.5	AX	n/a	n/a	dot_pattern_expectancy	-1.0	n/a	cue	AX	s647
261.38	0.5	AX	1.0	89.0	dot_pattern_expectancy	89.0	0.345	probe	AX	s647
262.887	0.5	BY	n/a	n/a	dot_pattern_expectancy	-1.0	n/a	cue	BY	s647
265.396	0.5	BY	1.0	71.0	dot_pattern_expectancy	71.0	0.498	probe	BY	s647
266.903	0.5	AX	n/a	n/a	dot_pattern_expectancy	-1.0	n/a	cue	AX	s647
269.414	0.5	AX	1.0	89.0	dot_pattern_expectancy	89.0	0.568	probe	AX	s647
271.057	0.5	AX	n/a	n/a	dot_pattern_expectancy	-1.0	n/a	cue	AX	s647
273.568	0.5	AX	1.0	89.0	dot_pattern_expectancy	89.0	0.465	probe	AX	s647
275.211	0.5	AY	n/a	n/a	dot_pattern_expectancy	-1.0	n/a	cue	AY	s647
277.723	0.5	AY	1.0	71.0	dot_pattern_expectancy	71.0	0.588	probe	AY	s647
279.365	0.5	AX	n/a	n/a	dot_pattern_expectancy	-1.0	n/a	cue	AX	s647
281.875	0.5	AX	1.0	89.0	dot_pattern_expectancy	89.0	0.779	probe	AX	s647
283.377	0.5	AX	n/a	n/a	dot_pattern_expectancy	-1.0	n/a	cue	AX	s647
285.886	0.5	AX	0.0	89.0	dot_pattern_expectancy	-1.0	n/a	probe	AX	s647
287.393	0.5	AX	n/a	n/a	dot_pattern_expectancy	-1.0	n/a	cue	AX	s647
289.902	0.5	AX	1.0	89.0	dot_pattern_expectancy	89.0	0.393	probe	AX	s647
291.68	0.5	AX	n/a	n/a	dot_pattern_expectancy	-1.0	n/a	cue	AX	s647
294.192	0.5	AX	1.0	89.0	dot_pattern_expectancy	89.0	0.453	probe	AX	s647
296.378	0.5	BX	n/a	n/a	dot_pattern_expectancy	-1.0	n/a	cue	BX	s647
298.888	0.5	BX	1.0	71.0	dot_pattern_expectancy	71.0	0.396	probe	BX	s647
300.666	0.5	BY	n/a	n/a	dot_pattern_expectancy	-1.0	n/a	cue	BY	s647
303.176	0.5	BY	1.0	71.0	dot_pattern_expectancy	71.0	0.359	probe	BY	s647
304.683	0.5	AX	n/a	n/a	dot_pattern_expectancy	-1.0	n/a	cue	AX	s647
307.193	0.5	AX	1.0	89.0	dot_pattern_expectancy	89.0	0.59	probe	AX	s647
308.699	0.5	AX	n/a	n/a	dot_pattern_expectancy	-1.0	n/a	cue	AX	s647
311.211	0.5	AX	1.0	89.0	dot_pattern_expectancy	89.0	0.982	probe	AX	s647
312.853	0.5	AY	n/a	n/a	dot_pattern_expectancy	-1.0	n/a	cue	AY	s647
315.364	0.5	AY	1.0	71.0	dot_pattern_expectancy	71.0	1.918	probe	AY	s647
317.551	0.5	AY	n/a	n/a	dot_pattern_expectancy	-1.0	n/a	cue	AY	s647
320.061	0.5	AY	1.0	71.0	dot_pattern_expectancy	71.0	0.724	probe	AY	s647
322.384	0.5	BX	n/a	n/a	dot_pattern_expectancy	-1.0	n/a	cue	BX	s647
324.894	0.5	BX	1.0	71.0	dot_pattern_expectancy	71.0	0.389	probe	BX	s647
326.537	0.5	BX	n/a	n/a	dot_pattern_expectancy	-1.0	n/a	cue	BX	s647
329.05	0.5	BX	1.0	71.0	dot_pattern_expectancy	71.0	0.351	probe	BX	s647
331.236	0.5	AY	n/a	n/a	dot_pattern_expectancy	-1.0	n/a	cue	AY	s647
333.746	0.5	AY	1.0	71.0	dot_pattern_expectancy	71.0	0.819	probe	AY	s647
335.797	0.5	AX	n/a	n/a	dot_pattern_expectancy	-1.0	n/a	cue	AX	s647
338.306	0.5	AX	1.0	89.0	dot_pattern_expectancy	89.0	0.752	probe	AX	s647
340.084	0.5	AX	n/a	n/a	dot_pattern_expectancy	-1.0	n/a	cue	AX	s647
342.594	0.5	AX	0.0	89.0	dot_pattern_expectancy	-1.0	n/a	probe	AX	s647
344.101	0.5	AX	n/a	n/a	dot_pattern_expectancy	-1.0	n/a	cue	AX	s647
346.612	0.5	AX	1.0	89.0	dot_pattern_expectancy	89.0	0.635	probe	AX	s647
348.799	0.5	AY	n/a	n/a	dot_pattern_expectancy	-1.0	n/a	cue	AY	s647
351.31	0.5	AY	1.0	71.0	dot_pattern_expectancy	71.0	0.671	probe	AY	s647
353.769	0.5	AX	n/a	n/a	dot_pattern_expectancy	-1.0	n/a	cue	AX	s647
356.281	0.5	AX	1.0	89.0	dot_pattern_expectancy	89.0	0.618	probe	AX	s647
357.923	0.5	AX	n/a	n/a	dot_pattern_expectancy	-1.0	n/a	cue	AX	s647
360.43	0.5	AX	1.0	89.0	dot_pattern_expectancy	89.0	0.996	probe	AX	s647
372.857	0.5	AX	n/a	n/a	dot_pattern_expectancy	-1.0	n/a	cue	AX	s647
375.366	0.5	AX	1.0	89.0	dot_pattern_expectancy	89.0	0.392	probe	AX	s647
377.144	0.5	AX	n/a	n/a	dot_pattern_expectancy	-1.0	n/a	cue	AX	s647
379.654	0.5	AX	1.0	89.0	dot_pattern_expectancy	89.0	0.436	probe	AX	s647
381.16	0.5	AY	n/a	n/a	dot_pattern_expectancy	-1.0	n/a	cue	AY	s647
383.672	0.5	AY	1.0	71.0	dot_pattern_expectancy	71.0	0.643	probe	AY	s647
386.131	0.5	AY	n/a	n/a	dot_pattern_expectancy	-1.0	n/a	cue	AY	s647
388.64	0.5	AY	1.0	71.0	dot_pattern_expectancy	71.0	0.562	probe	AY	s647
390.418	0.5	AX	n/a	n/a	dot_pattern_expectancy	-1.0	n/a	cue	AX	s647
392.931	0.5	AX	1.0	89.0	dot_pattern_expectancy	89.0	0.554	probe	AX	s647
394.846	0.5	AX	n/a	n/a	dot_pattern_expectancy	-1.0	n/a	cue	AX	s647
397.356	0.5	AX	1.0	89.0	dot_pattern_expectancy	89.0	0.906	probe	AX	s647
399.271	0.5	AX	n/a	n/a	dot_pattern_expectancy	-1.0	n/a	cue	AX	s647
401.781	0.5	AX	1.0	89.0	dot_pattern_expectancy	89.0	0.759	probe	AX	s647
404.375	0.5	AY	n/a	n/a	dot_pattern_expectancy	-1.0	n/a	cue	AY	s647
406.885	0.5	AY	1.0	71.0	dot_pattern_expectancy	71.0	1.19	probe	AY	s647
408.391	0.5	BY	n/a	n/a	dot_pattern_expectancy	-1.0	n/a	cue	BY	s647
410.901	0.5	BY	1.0	71.0	dot_pattern_expectancy	71.0	0.606	probe	BY	s647
412.407	0.5	BY	n/a	n/a	dot_pattern_expectancy	-1.0	n/a	cue	BY	s647
414.917	0.5	BY	1.0	71.0	dot_pattern_expectancy	71.0	0.45	probe	BY	s647
416.424	0.5	AX	n/a	n/a	dot_pattern_expectancy	-1.0	n/a	cue	AX	s647
418.935	0.5	AX	1.0	89.0	dot_pattern_expectancy	89.0	1.158	probe	AX	s647
420.578	0.5	BX	n/a	n/a	dot_pattern_expectancy	-1.0	n/a	cue	BX	s647
423.087	0.5	BX	1.0	71.0	dot_pattern_expectancy	71.0	0.379	probe	BX	s647
425.138	0.5	AX	n/a	n/a	dot_pattern_expectancy	-1.0	n/a	cue	AX	s647
427.647	0.5	AX	1.0	89.0	dot_pattern_expectancy	89.0	0.588	probe	AX	s647
429.426	0.5	BX	n/a	n/a	dot_pattern_expectancy	-1.0	n/a	cue	BX	s647
431.933	0.5	BX	1.0	71.0	dot_pattern_expectancy	71.0	0.279	probe	BX	s647
434.525	0.5	AY	n/a	n/a	dot_pattern_expectancy	-1.0	n/a	cue	AY	s647
437.034	0.5	AY	1.0	71.0	dot_pattern_expectancy	71.0	0.679	probe	AY	s647
438.54	0.5	AX	n/a	n/a	dot_pattern_expectancy	-1.0	n/a	cue	AX	s647
441.052	0.5	AX	0.0	89.0	dot_pattern_expectancy	71.0	1.78	probe	AX	s647
443.511	0.5	BY	n/a	n/a	dot_pattern_expectancy	-1.0	n/a	cue	BY	s647
446.022	0.5	BY	1.0	71.0	dot_pattern_expectancy	71.0	0.495	probe	BY	s647
447.665	0.5	AX	n/a	n/a	dot_pattern_expectancy	-1.0	n/a	cue	AX	s647
450.172	0.5	AX	1.0	89.0	dot_pattern_expectancy	89.0	1.049	probe	AX	s647
451.815	0.5	AX	n/a	n/a	dot_pattern_expectancy	-1.0	n/a	cue	AX	s647
454.323	0.5	AX	1.0	89.0	dot_pattern_expectancy	89.0	0.471	probe	AX	s647
455.83	0.5	BY	n/a	n/a	dot_pattern_expectancy	-1.0	n/a	cue	BY	s647
458.337	0.5	BY	1.0	71.0	dot_pattern_expectancy	71.0	0.618	probe	BY	s647
459.979	0.5	AX	n/a	n/a	dot_pattern_expectancy	-1.0	n/a	cue	AX	s647
462.489	0.5	AX	0.0	89.0	dot_pattern_expectancy	71.0	1.454	probe	AX	s647
463.996	0.5	AY	n/a	n/a	dot_pattern_expectancy	-1.0	n/a	cue	AY	s647
466.502	0.5	AY	1.0	71.0	dot_pattern_expectancy	71.0	0.555	probe	AY	s647
468.689	0.5	AX	n/a	n/a	dot_pattern_expectancy	-1.0	n/a	cue	AX	s647
471.198	0.5	AX	1.0	89.0	dot_pattern_expectancy	89.0	0.603	probe	AX	s647
472.705	0.5	AX	n/a	n/a	dot_pattern_expectancy	-1.0	n/a	cue	AX	s647
475.216	0.5	AX	1.0	89.0	dot_pattern_expectancy	89.0	0.668	probe	AX	s647
477.13	0.5	BY	n/a	n/a	dot_pattern_expectancy	-1.0	n/a	cue	BY	s647
479.642	0.5	BY	1.0	71.0	dot_pattern_expectancy	71.0	0.491	probe	BY	s647
481.285	0.5	BY	n/a	n/a	dot_pattern_expectancy	-1.0	n/a	cue	BY	s647
483.798	0.5	BY	1.0	71.0	dot_pattern_expectancy	71.0	0.943	probe	BY	s647
485.44	0.5	AX	n/a	n/a	dot_pattern_expectancy	-1.0	n/a	cue	AX	s647
487.952	0.5	AX	1.0	89.0	dot_pattern_expectancy	89.0	0.49	probe	AX	s647
489.594	0.5	AX	n/a	n/a	dot_pattern_expectancy	-1.0	n/a	cue	AX	s647
492.104	0.5	AX	0.0	89.0	dot_pattern_expectancy	-1.0	n/a	probe	AX	s647
493.61	0.5	BY	n/a	n/a	dot_pattern_expectancy	-1.0	n/a	cue	BY	s647
496.12	0.5	BY	1.0	71.0	dot_pattern_expectancy	71.0	0.631	probe	BY	s647
498.17	0.5	AY	n/a	n/a	dot_pattern_expectancy	-1.0	n/a	cue	AY	s647
500.682	0.5	AY	1.0	71.0	dot_pattern_expectancy	71.0	0.61	probe	AY	s647
502.869	0.5	AY	n/a	n/a	dot_pattern_expectancy	-1.0	n/a	cue	AY	s647
505.38	0.5	AY	1.0	71.0	dot_pattern_expectancy	71.0	0.881	probe	AY	s647
507.023	0.5	AY	n/a	n/a	dot_pattern_expectancy	-1.0	n/a	cue	AY	s647
509.533	0.5	AY	1.0	71.0	dot_pattern_expectancy	71.0	0.586	probe	AY	s647
511.311	0.5	BY	n/a	n/a	dot_pattern_expectancy	-1.0	n/a	cue	BY	s647
513.823	0.5	BY	1.0	71.0	dot_pattern_expectancy	71.0	0.634	probe	BY	s647
515.328	0.5	BX	n/a	n/a	dot_pattern_expectancy	-1.0	n/a	cue	BX	s647
517.839	0.5	BX	1.0	71.0	dot_pattern_expectancy	71.0	0.699	probe	BX	s647
519.753	0.5	AX	n/a	n/a	dot_pattern_expectancy	-1.0	n/a	cue	AX	s647
522.26	0.5	AX	1.0	89.0	dot_pattern_expectancy	89.0	0.367	probe	AX	s647
524.309	0.5	AX	n/a	n/a	dot_pattern_expectancy	-1.0	n/a	cue	AX	s647
526.82	0.5	AX	1.0	89.0	dot_pattern_expectancy	89.0	1.1	probe	AX	s647
528.462	0.5	AX	n/a	n/a	dot_pattern_expectancy	-1.0	n/a	cue	AX	s647
530.972	0.5	AX	1.0	89.0	dot_pattern_expectancy	89.0	0.558	probe	AX	s647
532.751	0.5	AX	n/a	n/a	dot_pattern_expectancy	-1.0	n/a	cue	AX	s647
535.263	0.5	AX	1.0	89.0	dot_pattern_expectancy	89.0	0.469	probe	AX	s647
536.906	0.5	BX	n/a	n/a	dot_pattern_expectancy	-1.0	n/a	cue	BX	s647
539.414	0.5	BX	0.0	71.0	dot_pattern_expectancy	89.0	0.878	probe	BX	s647
541.193	0.5	AX	n/a	n/a	dot_pattern_expectancy	-1.0	n/a	cue	AX	s647
543.702	0.5	AX	1.0	89.0	dot_pattern_expectancy	89.0	1.075	probe	AX	s647
555.725	0.5	BY	n/a	n/a	dot_pattern_expectancy	-1.0	n/a	cue	BY	s647
558.238	0.5	BY	1.0	71.0	dot_pattern_expectancy	71.0	0.393	probe	BY	s647
559.881	0.5	AY	n/a	n/a	dot_pattern_expectancy	-1.0	n/a	cue	AY	s647
562.39	0.5	AY	1.0	71.0	dot_pattern_expectancy	71.0	0.631	probe	AY	s647
563.892	0.5	AX	n/a	n/a	dot_pattern_expectancy	-1.0	n/a	cue	AX	s647
566.401	0.5	AX	0.0	89.0	dot_pattern_expectancy	71.0	0.558	probe	AX	s647
568.451	0.5	BY	n/a	n/a	dot_pattern_expectancy	-1.0	n/a	cue	BY	s647
570.96	0.5	BY	1.0	71.0	dot_pattern_expectancy	71.0	0.521	probe	BY	s647
572.738	0.5	BX	n/a	n/a	dot_pattern_expectancy	-1.0	n/a	cue	BX	s647
575.25	0.5	BX	1.0	71.0	dot_pattern_expectancy	71.0	0.553	probe	BX	s647
576.893	0.5	AX	n/a	n/a	dot_pattern_expectancy	-1.0	n/a	cue	AX	s647
579.404	0.5	AX	1.0	89.0	dot_pattern_expectancy	89.0	0.415	probe	AX	s647
581.047	0.5	AX	n/a	n/a	dot_pattern_expectancy	-1.0	n/a	cue	AX	s647
583.557	0.5	AX	1.0	89.0	dot_pattern_expectancy	89.0	0.852	probe	AX	s647
585.064	0.5	AX	n/a	n/a	dot_pattern_expectancy	-1.0	n/a	cue	AX	s647
587.573	0.5	AX	1.0	89.0	dot_pattern_expectancy	89.0	0.496	probe	AX	s647
589.078	0.5	AY	n/a	n/a	dot_pattern_expectancy	-1.0	n/a	cue	AY	s647
591.589	0.5	AY	1.0	71.0	dot_pattern_expectancy	71.0	1.139	probe	AY	s647
593.64	0.5	AX	n/a	n/a	dot_pattern_expectancy	-1.0	n/a	cue	AX	s647
596.152	0.5	AX	1.0	89.0	dot_pattern_expectancy	89.0	0.994	probe	AX	s647
598.608	0.5	AX	n/a	n/a	dot_pattern_expectancy	-1.0	n/a	cue	AX	s647
601.121	0.5	AX	1.0	89.0	dot_pattern_expectancy	89.0	0.441	probe	AX	s647
603.037	0.5	AX	n/a	n/a	dot_pattern_expectancy	-1.0	n/a	cue	AX	s647
605.546	0.5	AX	1.0	89.0	dot_pattern_expectancy	89.0	0.546	probe	AX	s647
607.053	0.5	AX	n/a	n/a	dot_pattern_expectancy	-1.0	n/a	cue	AX	s647
609.564	0.5	AX	1.0	89.0	dot_pattern_expectancy	89.0	1.306	probe	AX	s647
611.478	0.5	BX	n/a	n/a	dot_pattern_expectancy	-1.0	n/a	cue	BX	s647
613.991	0.5	BX	1.0	71.0	dot_pattern_expectancy	71.0	0.346	probe	BX	s647
616.178	0.5	AX	n/a	n/a	dot_pattern_expectancy	-1.0	n/a	cue	AX	s647
618.686	0.5	AX	1.0	89.0	dot_pattern_expectancy	89.0	0.483	probe	AX	s647
620.188	0.5	BY	n/a	n/a	dot_pattern_expectancy	-1.0	n/a	cue	BY	s647
622.7	0.5	BY	1.0	71.0	dot_pattern_expectancy	71.0	0.593	probe	BY	s647
624.615	0.5	BX	n/a	n/a	dot_pattern_expectancy	-1.0	n/a	cue	BX	s647
627.124	0.5	BX	1.0	71.0	dot_pattern_expectancy	71.0	0.297	probe	BX	s647
629.447	0.5	AY	n/a	n/a	dot_pattern_expectancy	-1.0	n/a	cue	AY	s647
631.956	0.5	AY	1.0	71.0	dot_pattern_expectancy	71.0	0.637	probe	AY	s647
634.278	0.5	BX	n/a	n/a	dot_pattern_expectancy	-1.0	n/a	cue	BX	s647
636.79	0.5	BX	1.0	71.0	dot_pattern_expectancy	71.0	0.762	probe	BX	s647
638.433	0.5	AY	n/a	n/a	dot_pattern_expectancy	-1.0	n/a	cue	AY	s647
640.942	0.5	AY	1.0	71.0	dot_pattern_expectancy	71.0	0.729	probe	AY	s647
642.448	0.5	BY	n/a	n/a	dot_pattern_expectancy	-1.0	n/a	cue	BY	s647
644.961	0.5	BY	1.0	71.0	dot_pattern_expectancy	71.0	1.22	probe	BY	s647
646.87	0.5	AX	n/a	n/a	dot_pattern_expectancy	-1.0	n/a	cue	AX	s647
649.379	0.5	AX	1.0	89.0	dot_pattern_expectancy	89.0	0.798	probe	AX	s647
650.886	0.5	AY	n/a	n/a	dot_pattern_expectancy	-1.0	n/a	cue	AY	s647
653.394	0.5	AY	1.0	71.0	dot_pattern_expectancy	71.0	0.763	probe	AY	s647
655.713	0.5	AX	n/a	n/a	dot_pattern_expectancy	-1.0	n/a	cue	AX	s647
658.222	0.5	AX	1.0	89.0	dot_pattern_expectancy	89.0	1.001	probe	AX	s647
659.723	0.5	AY	n/a	n/a	dot_pattern_expectancy	-1.0	n/a	cue	AY	s647
662.235	0.5	AY	1.0	71.0	dot_pattern_expectancy	71.0	1.629	probe	AY	s647
664.964	0.5	AX	n/a	n/a	dot_pattern_expectancy	-1.0	n/a	cue	AX	s647
667.474	0.5	AX	1.0	89.0	dot_pattern_expectancy	89.0	0.501	probe	AX	s647
668.976	0.5	AX	n/a	n/a	dot_pattern_expectancy	-1.0	n/a	cue	AX	s647
671.487	0.5	AX	1.0	89.0	dot_pattern_expectancy	89.0	0.637	probe	AX	s647
673.129	0.5	AX	n/a	n/a	dot_pattern_expectancy	-1.0	n/a	cue	AX	s647
675.637	0.5	AX	1.0	89.0	dot_pattern_expectancy	89.0	1.608	probe	AX	s647
677.279	0.5	AX	n/a	n/a	dot_pattern_expectancy	-1.0	n/a	cue	AX	s647
679.788	0.5	AX	1.0	89.0	dot_pattern_expectancy	89.0	1.677	probe	AX	s647
681.562	0.5	BY	n/a	n/a	dot_pattern_expectancy	-1.0	n/a	cue	BY	s647
684.071	0.5	BY	1.0	71.0	dot_pattern_expectancy	71.0	0.859	probe	BY	s647
685.849	0.5	AX	n/a	n/a	dot_pattern_expectancy	-1.0	n/a	cue	AX	s647
688.359	0.5	AX	1.0	89.0	dot_pattern_expectancy	89.0	1.171	probe	AX	s647
689.86	0.5	BY	n/a	n/a	dot_pattern_expectancy	-1.0	n/a	cue	BY	s647
692.373	0.5	BY	1.0	71.0	dot_pattern_expectancy	71.0	0.376	probe	BY	s647
694.832	0.5	AX	n/a	n/a	dot_pattern_expectancy	-1.0	n/a	cue	AX	s647
697.343	0.5	AX	0.0	89.0	dot_pattern_expectancy	-1.0	n/a	probe	AX	s647
698.986	0.5	AX	n/a	n/a	dot_pattern_expectancy	-1.0	n/a	cue	AX	s647
701.493	0.5	AX	1.0	89.0	dot_pattern_expectancy	89.0	0.529	probe	AX	s647
703.135	0.5	BX	n/a	n/a	dot_pattern_expectancy	-1.0	n/a	cue	BX	s647
705.644	0.5	BX	1.0	71.0	dot_pattern_expectancy	71.0	0.279	probe	BX	s647
707.15	0.5	BX	n/a	n/a	dot_pattern_expectancy	-1.0	n/a	cue	BX	s647
709.66	0.5	BX	1.0	71.0	dot_pattern_expectancy	71.0	0.284	probe	BX	s647
711.166	0.5	AX	n/a	n/a	dot_pattern_expectancy	-1.0	n/a	cue	AX	s647
713.676	0.5	AX	0.0	89.0	dot_pattern_expectancy	71.0	0.386	probe	AX	s647
715.998	0.5	AY	n/a	n/a	dot_pattern_expectancy	-1.0	n/a	cue	AY	s647
718.508	0.5	AY	1.0	71.0	dot_pattern_expectancy	71.0	0.594	probe	AY	s647
720.559	0.5	AX	n/a	n/a	dot_pattern_expectancy	-1.0	n/a	cue	AX	s647
723.068	0.5	AX	1.0	89.0	dot_pattern_expectancy	89.0	0.367	probe	AX	s647
727.023	0.5	AX	n/a	n/a	dot_pattern_expectancy	-1.0	n/a	cue	AX	s647
729.534	0.5	AX	1.0	89.0	dot_pattern_expectancy	89.0	0.55	probe	AX	s647
