onset	duration	condition	correct	correct_response	experiment_exp_id	key_press	response_time	stim_color	stim_word	trial_type	worker_id
3.526	1.5	incongruent	1.0	82.0	stroop	82	0.723	green	red	incongruent	s647
5.803	1.5	incongruent	1.0	71.0	stroop	71	0.357	blue	green	incongruent	s647
7.808	1.5	congruent	1.0	82.0	stroop	82	0.548	green	green	congruent	s647
9.814	1.5	congruent	1.0	71.0	stroop	71	0.603	blue	blue	congruent	s647
11.819	1.5	incongruent	1.0	71.0	stroop	71	0.674	blue	green	incongruent	s647
13.822	1.5	congruent	1.0	89.0	stroop	89	0.44	red	red	congruent	s647
15.962	1.5	congruent	1.0	82.0	stroop	82	0.463	green	green	congruent	s647
17.968	1.5	incongruent	1.0	89.0	stroop	89	0.539	red	blue	incongruent	s647
19.971	1.5	congruent	1.0	71.0	stroop	71	0.495	blue	blue	congruent	s647
22.111	1.5	incongruent	1.0	71.0	stroop	71	0.453	blue	red	incongruent	s647
24.117	1.5	incongruent	1.0	82.0	stroop	82	0.59	green	blue	incongruent	s647
26.12	1.5	incongruent	1.0	71.0	stroop	71	0.459	blue	red	incongruent	s647
28.263	1.5	congruent	1.0	82.0	stroop	82	0.375	green	green	congruent	s647
30.4	1.5	congruent	1.0	82.0	stroop	82	0.907	green	green	congruent	s647
32.678	1.5	incongruent	1.0	82.0	stroop	82	0.513	green	red	incongruent	s647
35.365	1.5	congruent	1.0	71.0	stroop	71	0.377	blue	blue	congruent	s647
37.37	1.5	congruent	1.0	82.0	stroop	82	0.514	green	green	congruent	s647
39.376	1.5	incongruent	1.0	89.0	stroop	89	0.387	red	green	incongruent	s647
41.653	1.5	incongruent	1.0	89.0	stroop	89	0.323	red	green	incongruent	s647
43.658	1.5	congruent	1.0	71.0	stroop	71	0.386	blue	blue	congruent	s647
45.663	1.5	incongruent	1.0	82.0	stroop	82	0.496	green	red	incongruent	s647
47.666	1.5	incongruent	1.0	71.0	stroop	71	0.544	blue	red	incongruent	s647
49.673	1.5	incongruent	1.0	82.0	stroop	82	0.509	green	red	incongruent	s647
51.679	1.5	incongruent	1.0	89.0	stroop	89	0.575	red	blue	incongruent	s647
53.684	1.5	congruent	1.0	71.0	stroop	71	0.317	blue	blue	congruent	s647
55.962	1.5	incongruent	1.0	71.0	stroop	71	0.869	blue	green	incongruent	s647
57.964	1.5	congruent	1.0	82.0	stroop	82	0.442	green	green	congruent	s647
60.378	1.5	congruent	1.0	89.0	stroop	89	0.602	red	red	congruent	s647
62.38	1.5	congruent	1.0	71.0	stroop	71	0.333	blue	blue	congruent	s647
64.521	1.5	congruent	1.0	71.0	stroop	71	0.527	blue	blue	congruent	s647
66.527	1.5	congruent	1.0	71.0	stroop	71	0.453	blue	blue	congruent	s647
68.532	1.5	incongruent	1.0	82.0	stroop	82	0.766	green	blue	incongruent	s647
70.537	1.5	congruent	1.0	89.0	stroop	89	0.512	red	red	congruent	s647
72.81	1.5	incongruent	1.0	71.0	stroop	71	0.407	blue	green	incongruent	s647
74.814	1.5	incongruent	1.0	89.0	stroop	89	0.591	red	green	incongruent	s647
77.092	1.5	incongruent	1.0	82.0	stroop	82	0.397	green	blue	incongruent	s647
79.369	1.5	incongruent	1.0	89.0	stroop	89	0.509	red	blue	incongruent	s647
81.374	1.5	congruent	1.0	82.0	stroop	82	0.524	green	green	congruent	s647
84.06	1.5	incongruent	1.0	89.0	stroop	89	0.5	red	blue	incongruent	s647
86.066	1.5	congruent	1.0	89.0	stroop	89	0.502	red	red	congruent	s647
88.345	1.5	congruent	1.0	89.0	stroop	89	0.493	red	red	congruent	s647
90.35	1.5	congruent	1.0	82.0	stroop	82	0.574	green	green	congruent	s647
92.355	1.5	incongruent	1.0	71.0	stroop	71	0.349	blue	green	incongruent	s647
94.632	1.5	congruent	1.0	71.0	stroop	71	0.334	blue	blue	congruent	s647
96.771	1.5	congruent	1.0	82.0	stroop	82	0.46	green	green	congruent	s647
99.317	1.5	incongruent	1.0	82.0	stroop	82	0.637	green	blue	incongruent	s647
101.731	1.5	incongruent	1.0	82.0	stroop	82	0.536	green	blue	incongruent	s647
103.736	1.5	incongruent	1.0	71.0	stroop	71	0.528	blue	green	incongruent	s647
105.741	1.5	incongruent	1.0	71.0	stroop	71	0.434	blue	red	incongruent	s647
107.746	1.5	congruent	1.0	89.0	stroop	89	0.402	red	red	congruent	s647
110.293	1.5	congruent	1.0	71.0	stroop	71	0.502	blue	blue	congruent	s647
112.435	1.5	congruent	1.0	71.0	stroop	71	0.492	blue	blue	congruent	s647
114.44	1.5	congruent	1.0	71.0	stroop	71	0.358	blue	blue	congruent	s647
116.445	1.5	congruent	1.0	89.0	stroop	89	0.522	red	red	congruent	s647
118.722	1.5	incongruent	1.0	89.0	stroop	89	0.507	red	blue	incongruent	s647
120.728	1.5	congruent	1.0	89.0	stroop	89	0.405	red	red	congruent	s647
122.73	1.5	incongruent	1.0	82.0	stroop	82	0.713	green	blue	incongruent	s647
124.872	1.5	incongruent	1.0	89.0	stroop	89	0.887	red	green	incongruent	s647
126.876	1.5	incongruent	1.0	89.0	stroop	89	0.925	red	blue	incongruent	s647
129.152	1.5	congruent	1.0	82.0	stroop	82	0.543	green	green	congruent	s647
131.29	1.5	incongruent	1.0	89.0	stroop	89	0.514	red	blue	incongruent	s647
133.703	1.5	congruent	1.0	71.0	stroop	71	0.512	blue	blue	congruent	s647
135.709	1.5	congruent	1.0	71.0	stroop	71	0.446	blue	blue	congruent	s647
137.713	1.5	incongruent	1.0	71.0	stroop	71	0.542	blue	red	incongruent	s647
140.535	1.5	incongruent	1.0	82.0	stroop	82	0.626	green	red	incongruent	s647
142.54	1.5	incongruent	1.0	71.0	stroop	71	0.4	blue	green	incongruent	s647
144.545	1.5	congruent	1.0	89.0	stroop	89	0.534	red	red	congruent	s647
146.684	1.5	congruent	1.0	89.0	stroop	89	0.506	red	red	congruent	s647
148.69	1.5	incongruent	1.0	71.0	stroop	71	0.996	blue	red	incongruent	s647
150.695	1.5	congruent	1.0	82.0	stroop	82	0.475	green	green	congruent	s647
152.7	1.5	incongruent	1.0	89.0	stroop	89	0.589	red	green	incongruent	s647
154.705	1.5	congruent	1.0	82.0	stroop	82	0.739	green	green	congruent	s647
156.711	1.5	incongruent	1.0	82.0	stroop	82	0.785	green	blue	incongruent	s647
158.716	1.5	congruent	1.0	82.0	stroop	82	0.519	green	green	congruent	s647
160.721	1.5	incongruent	1.0	89.0	stroop	89	0.546	red	green	incongruent	s647
162.999	1.5	incongruent	1.0	82.0	stroop	82	0.633	green	blue	incongruent	s647
165.006	1.5	congruent	1.0	71.0	stroop	71	0.367	blue	blue	congruent	s647
167.148	1.5	congruent	1.0	82.0	stroop	82	0.618	green	green	congruent	s647
169.15	1.5	congruent	1.0	89.0	stroop	89	0.505	red	red	congruent	s647
171.292	1.5	congruent	1.0	89.0	stroop	89	0.49	red	red	congruent	s647
173.297	1.5	congruent	1.0	89.0	stroop	89	0.426	red	red	congruent	s647
175.302	1.5	incongruent	1.0	82.0	stroop	82	0.732	green	red	incongruent	s647
177.307	1.5	incongruent	1.0	71.0	stroop	71	0.471	blue	green	incongruent	s647
179.581	1.5	incongruent	1.0	82.0	stroop	82	0.454	green	red	incongruent	s647
181.587	1.5	incongruent	1.0	89.0	stroop	89	0.531	red	blue	incongruent	s647
183.726	1.5	congruent	1.0	89.0	stroop	89	0.494	red	red	congruent	s647
186.139	1.5	incongruent	1.0	89.0	stroop	89	0.61	red	green	incongruent	s647
188.414	1.5	congruent	1.0	82.0	stroop	82	0.818	green	green	congruent	s647
191.099	1.5	congruent	1.0	89.0	stroop	89	0.64	red	red	congruent	s647
193.102	1.5	congruent	1.0	89.0	stroop	89	0.562	red	red	congruent	s647
195.515	1.5	congruent	1.0	71.0	stroop	71	0.583	blue	blue	congruent	s647
197.656	1.5	incongruent	1.0	71.0	stroop	71	0.455	blue	red	incongruent	s647
200.341	1.5	incongruent	1.0	89.0	stroop	89	0.895	red	green	incongruent	s647
202.344	1.5	incongruent	1.0	82.0	stroop	82	0.703	green	red	incongruent	s647
204.483	1.5	congruent	1.0	82.0	stroop	82	0.625	green	green	congruent	s647
207.439	1.5	incongruent	1.0	71.0	stroop	71	0.61	blue	red	incongruent	s647
