onset	duration	planning	condition	current_position	exp_stage	experiment_exp_id	goal_state	key_press	problem_id	response_time	start_state	trial_id	worker_id
-73.04	0.0	0	n/a	n/a	n/a	ward_and_allport	n/a	32.0	n/a	34.175	n/a	instructions	s561
-5.913	2.557	1	UA_with_intermediate	1,0,0,2,0,0,0,0,0	practice	ward_and_allport	1,2,3,0,0,0,0,0,0	71.0	0.0	2.557	1,0,0,2,3,0,0,0,0	to_hand	s561
-3.355	0.794	0	UA_with_intermediate	1,0,0,2,0,0,3,0,0	practice	ward_and_allport	1,2,3,0,0,0,0,0,0	82.0	0.0	0.794	1,0,0,2,3,0,0,0,0	to_board	s561
-2.559	0.379	0	UA_with_intermediate	1,0,0,0,0,0,3,0,0	practice	ward_and_allport	1,2,3,0,0,0,0,0,0	71.0	0.0	0.379	1,0,0,2,3,0,0,0,0	to_hand	s561
-2.179	0.78	0	UA_with_intermediate	1,2,0,0,0,0,3,0,0	practice	ward_and_allport	1,2,3,0,0,0,0,0,0	89.0	0.0	0.78	1,0,0,2,3,0,0,0,0	to_board	s561
-1.398	0.669	0	UA_with_intermediate	1,2,0,0,0,0,0,0,0	practice	ward_and_allport	1,2,3,0,0,0,0,0,0	82.0	0.0	0.669	1,0,0,2,3,0,0,0,0	to_hand	s561
-0.727	0.466	0	UA_with_intermediate	1,2,3,0,0,0,0,0,0	practice	ward_and_allport	1,2,3,0,0,0,0,0,0	89.0	0.0	0.466	1,0,0,2,3,0,0,0,0	to_board	s561
-0.259	1.0	0	UA_with_intermediate	n/a	practice	ward_and_allport	n/a	-1.0	0.0	n/a	n/a	feedback	s561
2.243	2.122	1	UA_with_intermediate	1,0,0,3,0,0,0,0,0	practice	ward_and_allport	1,3,2,0,0,0,0,0,0	89.0	1.0	2.122	1,2,0,3,0,0,0,0,0	to_hand	s561
4.365	0.524	0	UA_with_intermediate	1,0,0,3,0,0,2,0,0	practice	ward_and_allport	1,3,2,0,0,0,0,0,0	82.0	1.0	0.524	1,2,0,3,0,0,0,0,0	to_board	s561
4.891	0.431	0	UA_with_intermediate	1,0,0,0,0,0,2,0,0	practice	ward_and_allport	1,3,2,0,0,0,0,0,0	71.0	1.0	0.431	1,2,0,3,0,0,0,0,0	to_hand	s561
5.323	0.494	0	UA_with_intermediate	1,3,0,0,0,0,2,0,0	practice	ward_and_allport	1,3,2,0,0,0,0,0,0	89.0	1.0	0.494	1,2,0,3,0,0,0,0,0	to_board	s561
5.818	0.596	0	UA_with_intermediate	1,3,0,0,0,0,0,0,0	practice	ward_and_allport	1,3,2,0,0,0,0,0,0	82.0	1.0	0.596	1,2,0,3,0,0,0,0,0	to_hand	s561
6.416	0.393	0	UA_with_intermediate	1,3,2,0,0,0,0,0,0	practice	ward_and_allport	1,3,2,0,0,0,0,0,0	89.0	1.0	0.393	1,2,0,3,0,0,0,0,0	to_board	s561
6.813	1.0	0	UA_with_intermediate	n/a	practice	ward_and_allport	n/a	-1.0	1.0	n/a	n/a	feedback	s561
7.813	1.1	0	UA_with_intermediate	n/a	practice	ward_and_allport	n/a	-1.0	1.0	n/a	n/a	ITI	s561
8.914	1.739	1	UA_without_intermediate	0,0,0,1,2,0,0,0,0	practice	ward_and_allport	3,2,1,0,0,0,0,0,0	82.0	2.0	1.739	0,0,0,1,2,0,3,0,0	to_hand	s561
10.654	0.433	0	UA_without_intermediate	3,0,0,1,2,0,0,0,0	practice	ward_and_allport	3,2,1,0,0,0,0,0,0	89.0	2.0	0.433	0,0,0,1,2,0,3,0,0	to_board	s561
11.09	1.11	0	UA_without_intermediate	3,0,0,1,0,0,0,0,0	practice	ward_and_allport	3,2,1,0,0,0,0,0,0	71.0	2.0	1.11	0,0,0,1,2,0,3,0,0	to_hand	s561
12.2	0.466	0	UA_without_intermediate	3,0,0,1,0,0,2,0,0	practice	ward_and_allport	3,2,1,0,0,0,0,0,0	82.0	2.0	0.466	0,0,0,1,2,0,3,0,0	to_board	s561
12.668	1.321	0	UA_without_intermediate	3,0,0,0,0,0,2,0,0	practice	ward_and_allport	3,2,1,0,0,0,0,0,0	71.0	2.0	1.321	0,0,0,1,2,0,3,0,0	to_hand	s561
13.99	0.893	0	UA_without_intermediate	3,0,0,1,0,0,2,0,0	practice	ward_and_allport	3,2,1,0,0,0,0,0,0	71.0	2.0	0.893	0,0,0,1,2,0,3,0,0	to_board	s561
14.884	0.318	0	UA_without_intermediate	3,0,0,1,0,0,0,0,0	practice	ward_and_allport	3,2,1,0,0,0,0,0,0	82.0	2.0	0.318	0,0,0,1,2,0,3,0,0	to_hand	s561
15.203	0.49	0	UA_without_intermediate	3,2,0,1,0,0,0,0,0	practice	ward_and_allport	3,2,1,0,0,0,0,0,0	89.0	2.0	0.49	0,0,0,1,2,0,3,0,0	to_board	s561
15.695	0.478	0	UA_without_intermediate	3,2,0,0,0,0,0,0,0	practice	ward_and_allport	3,2,1,0,0,0,0,0,0	71.0	2.0	0.478	0,0,0,1,2,0,3,0,0	to_hand	s561
16.173	0.331	0	UA_without_intermediate	3,2,1,0,0,0,0,0,0	practice	ward_and_allport	3,2,1,0,0,0,0,0,0	89.0	2.0	0.331	0,0,0,1,2,0,3,0,0	to_board	s561
16.507	1.0	0	UA_without_intermediate	n/a	practice	ward_and_allport	n/a	-1.0	2.0	n/a	n/a	feedback	s561
17.507	1.2	0	UA_without_intermediate	n/a	practice	ward_and_allport	n/a	-1.0	2.0	n/a	n/a	ITI	s561
18.71	2.072	1	UA_without_intermediate	0,0,0,1,0,0,3,0,0	practice	ward_and_allport	2,3,1,0,0,0,0,0,0	71.0	3.0	2.072	0,0,0,1,2,0,3,0,0	to_hand	s561
20.783	0.558	0	UA_without_intermediate	2,0,0,1,0,0,3,0,0	practice	ward_and_allport	2,3,1,0,0,0,0,0,0	89.0	3.0	0.558	0,0,0,1,2,0,3,0,0	to_board	s561
21.343	0.634	0	UA_without_intermediate	2,0,0,1,0,0,0,0,0	practice	ward_and_allport	2,3,1,0,0,0,0,0,0	82.0	3.0	0.634	0,0,0,1,2,0,3,0,0	to_hand	s561
21.978	0.409	0	UA_without_intermediate	2,3,0,1,0,0,0,0,0	practice	ward_and_allport	2,3,1,0,0,0,0,0,0	89.0	3.0	0.409	0,0,0,1,2,0,3,0,0	to_board	s561
22.389	0.462	0	UA_without_intermediate	2,3,0,0,0,0,0,0,0	practice	ward_and_allport	2,3,1,0,0,0,0,0,0	71.0	3.0	0.462	0,0,0,1,2,0,3,0,0	to_hand	s561
22.851	0.394	0	UA_without_intermediate	2,3,1,0,0,0,0,0,0	practice	ward_and_allport	2,3,1,0,0,0,0,0,0	89.0	3.0	0.394	0,0,0,1,2,0,3,0,0	to_board	s561
23.248	1.0	0	UA_without_intermediate	n/a	practice	ward_and_allport	n/a	-1.0	3.0	n/a	n/a	feedback	s561
24.248	1.0	0	UA_without_intermediate	n/a	practice	ward_and_allport	n/a	-1.0	3.0	n/a	n/a	ITI	s561
27.255	2.504	1	PA_with_intermediate	0,0,0,0,0,0,1,2,0	test	ward_and_allport	0,0,0,2,0,0,1,3,0	82.0	0.0	2.504	0,0,0,0,0,0,1,2,3	to_hand	s561
29.76	0.826	0	PA_with_intermediate	3,0,0,0,0,0,1,2,0	test	ward_and_allport	0,0,0,2,0,0,1,3,0	89.0	0.0	0.826	0,0,0,0,0,0,1,2,3	to_board	s561
30.587	1.753	0	PA_with_intermediate	3,0,0,0,0,0,1,0,0	test	ward_and_allport	0,0,0,2,0,0,1,3,0	82.0	0.0	1.753	0,0,0,0,0,0,1,2,3	to_hand	s561
32.341	0.578	0	PA_with_intermediate	3,0,0,2,0,0,1,0,0	test	ward_and_allport	0,0,0,2,0,0,1,3,0	71.0	0.0	0.578	0,0,0,0,0,0,1,2,3	to_board	s561
32.922	0.91	0	PA_with_intermediate	0,0,0,2,0,0,1,0,0	test	ward_and_allport	0,0,0,2,0,0,1,3,0	89.0	0.0	0.91	0,0,0,0,0,0,1,2,3	to_hand	s561
33.833	1.359	0	PA_with_intermediate	0,0,0,2,0,0,1,3,0	test	ward_and_allport	0,0,0,2,0,0,1,3,0	82.0	0.0	1.359	0,0,0,0,0,0,1,2,3	to_board	s561
35.196	1.0	0	PA_with_intermediate	n/a	test	ward_and_allport	n/a	-1.0	0.0	n/a	n/a	feedback	s561
36.196	2.768	0	PA_with_intermediate	n/a	test	ward_and_allport	n/a	-1.0	0.0	n/a	n/a	ITI	s561
38.966	1.793	1	PA_with_intermediate	0,0,0,1,2,0,0,0,0	test	ward_and_allport	0,0,0,1,3,0,2,0,0	71.0	1.0	1.793	0,0,0,1,2,3,0,0,0	to_hand	s561
40.759	1.152	0	PA_with_intermediate	3,0,0,1,2,0,0,0,0	test	ward_and_allport	0,0,0,1,3,0,2,0,0	89.0	1.0	1.152	0,0,0,1,2,3,0,0,0	to_board	s561
41.914	0.862	0	PA_with_intermediate	3,0,0,1,0,0,0,0,0	test	ward_and_allport	0,0,0,1,3,0,2,0,0	71.0	1.0	0.862	0,0,0,1,2,3,0,0,0	to_hand	s561
42.777	0.563	0	PA_with_intermediate	3,0,0,1,0,0,2,0,0	test	ward_and_allport	0,0,0,1,3,0,2,0,0	82.0	1.0	0.563	0,0,0,1,2,3,0,0,0	to_board	s561
43.341	0.454	0	PA_with_intermediate	0,0,0,1,0,0,2,0,0	test	ward_and_allport	0,0,0,1,3,0,2,0,0	89.0	1.0	0.454	0,0,0,1,2,3,0,0,0	to_hand	s561
43.797	0.398	0	PA_with_intermediate	0,0,0,1,3,0,2,0,0	test	ward_and_allport	0,0,0,1,3,0,2,0,0	71.0	1.0	0.398	0,0,0,1,2,3,0,0,0	to_board	s561
44.203	1.0	0	PA_with_intermediate	n/a	test	ward_and_allport	n/a	-1.0	1.0	n/a	n/a	feedback	s561
45.203	1.68	0	PA_with_intermediate	n/a	test	ward_and_allport	n/a	-1.0	1.0	n/a	n/a	ITI	s561
46.885	1.392	1	PA_without_intermediate	0,0,0,0,0,0,1,2,0	test	ward_and_allport	1,0,0,3,2,0,0,0,0	82.0	2.0	1.392	0,0,0,0,0,0,1,2,3	to_hand	s561
48.278	0.579	0	PA_without_intermediate	0,0,0,3,0,0,1,2,0	test	ward_and_allport	1,0,0,3,2,0,0,0,0	71.0	2.0	0.579	0,0,0,0,0,0,1,2,3	to_board	s561
48.859	0.939	0	PA_without_intermediate	0,0,0,3,0,0,1,0,0	test	ward_and_allport	1,0,0,3,2,0,0,0,0	82.0	2.0	0.939	0,0,0,0,0,0,1,2,3	to_hand	s561
49.798	0.456	0	PA_without_intermediate	0,0,0,3,2,0,1,0,0	test	ward_and_allport	1,0,0,3,2,0,0,0,0	71.0	2.0	0.456	0,0,0,0,0,0,1,2,3	to_board	s561
50.257	0.574	0	PA_without_intermediate	0,0,0,3,2,0,0,0,0	test	ward_and_allport	1,0,0,3,2,0,0,0,0	82.0	2.0	0.574	0,0,0,0,0,0,1,2,3	to_hand	s561
50.832	0.395	0	PA_without_intermediate	1,0,0,3,2,0,0,0,0	test	ward_and_allport	1,0,0,3,2,0,0,0,0	89.0	2.0	0.395	0,0,0,0,0,0,1,2,3	to_board	s561
51.232	1.0	0	PA_without_intermediate	n/a	test	ward_and_allport	n/a	-1.0	2.0	n/a	n/a	feedback	s561
52.232	2.224	0	PA_without_intermediate	n/a	test	ward_and_allport	n/a	-1.0	2.0	n/a	n/a	ITI	s561
54.459	1.316	1	PA_without_intermediate	1,2,0,0,0,0,0,0,0	test	ward_and_allport	0,0,0,3,2,0,1,0,0	89.0	3.0	1.316	1,2,3,0,0,0,0,0,0	to_hand	s561
55.776	0.584	0	PA_without_intermediate	1,2,0,3,0,0,0,0,0	test	ward_and_allport	0,0,0,3,2,0,1,0,0	71.0	3.0	0.584	1,2,3,0,0,0,0,0,0	to_board	s561
56.363	0.686	0	PA_without_intermediate	1,0,0,3,0,0,0,0,0	test	ward_and_allport	0,0,0,3,2,0,1,0,0	89.0	3.0	0.686	1,2,3,0,0,0,0,0,0	to_hand	s561
57.049	0.514	0	PA_without_intermediate	1,0,0,3,2,0,0,0,0	test	ward_and_allport	0,0,0,3,2,0,1,0,0	71.0	3.0	0.514	1,2,3,0,0,0,0,0,0	to_board	s561
57.565	0.399	0	PA_without_intermediate	0,0,0,3,2,0,0,0,0	test	ward_and_allport	0,0,0,3,2,0,1,0,0	89.0	3.0	0.399	1,2,3,0,0,0,0,0,0	to_hand	s561
57.966	0.294	0	PA_without_intermediate	0,0,0,3,2,0,1,0,0	test	ward_and_allport	0,0,0,3,2,0,1,0,0	82.0	3.0	0.294	1,2,3,0,0,0,0,0,0	to_board	s561
58.264	1.0	0	PA_without_intermediate	n/a	test	ward_and_allport	n/a	-1.0	3.0	n/a	n/a	feedback	s561
59.264	2.36	0	PA_without_intermediate	n/a	test	ward_and_allport	n/a	-1.0	3.0	n/a	n/a	ITI	s561
61.626	1.457	1	PA_without_intermediate	0,0,0,1,2,0,0,0,0	test	ward_and_allport	3,2,0,0,0,0,1,0,0	71.0	4.0	1.457	0,0,0,1,2,3,0,0,0	to_hand	s561
63.084	0.396	0	PA_without_intermediate	3,0,0,1,2,0,0,0,0	test	ward_and_allport	3,2,0,0,0,0,1,0,0	89.0	4.0	0.396	0,0,0,1,2,3,0,0,0	to_board	s561
63.482	0.49	0	PA_without_intermediate	3,0,0,1,0,0,0,0,0	test	ward_and_allport	3,2,0,0,0,0,1,0,0	71.0	4.0	0.49	0,0,0,1,2,3,0,0,0	to_hand	s561
63.973	0.41	0	PA_without_intermediate	3,2,0,1,0,0,0,0,0	test	ward_and_allport	3,2,0,0,0,0,1,0,0	89.0	4.0	0.41	0,0,0,1,2,3,0,0,0	to_board	s561
64.385	0.615	0	PA_without_intermediate	3,2,0,0,0,0,0,0,0	test	ward_and_allport	3,2,0,0,0,0,1,0,0	71.0	4.0	0.615	0,0,0,1,2,3,0,0,0	to_hand	s561
65.001	0.428	0	PA_without_intermediate	3,2,0,0,0,0,1,0,0	test	ward_and_allport	3,2,0,0,0,0,1,0,0	82.0	4.0	0.428	0,0,0,1,2,3,0,0,0	to_board	s561
65.435	1.0	0	PA_without_intermediate	n/a	test	ward_and_allport	n/a	-1.0	4.0	n/a	n/a	feedback	s561
66.435	1.0	0	PA_without_intermediate	n/a	test	ward_and_allport	n/a	-1.0	4.0	n/a	n/a	ITI	s561
67.437	1.166	1	PA_without_intermediate	0,0,0,0,0,0,1,2,0	test	ward_and_allport	2,0,0,3,1,0,0,0,0	82.0	5.0	1.166	0,0,0,0,0,0,1,2,3	to_hand	s561
68.604	0.49	0	PA_without_intermediate	0,0,0,3,0,0,1,2,0	test	ward_and_allport	2,0,0,3,1,0,0,0,0	71.0	5.0	0.49	0,0,0,0,0,0,1,2,3	to_board	s561
69.098	1.157	0	PA_without_intermediate	0,0,0,3,0,0,1,0,0	test	ward_and_allport	2,0,0,3,1,0,0,0,0	82.0	5.0	1.157	0,0,0,0,0,0,1,2,3	to_hand	s561
70.255	0.402	0	PA_without_intermediate	2,0,0,3,0,0,1,0,0	test	ward_and_allport	2,0,0,3,1,0,0,0,0	89.0	5.0	0.402	0,0,0,0,0,0,1,2,3	to_board	s561
70.661	0.725	0	PA_without_intermediate	2,0,0,3,0,0,0,0,0	test	ward_and_allport	2,0,0,3,1,0,0,0,0	82.0	5.0	0.725	0,0,0,0,0,0,1,2,3	to_hand	s561
71.387	0.39	0	PA_without_intermediate	2,0,0,3,1,0,0,0,0	test	ward_and_allport	2,0,0,3,1,0,0,0,0	71.0	5.0	0.39	0,0,0,0,0,0,1,2,3	to_board	s561
71.782	1.0	0	PA_without_intermediate	n/a	test	ward_and_allport	n/a	-1.0	5.0	n/a	n/a	feedback	s561
72.782	1.408	0	PA_without_intermediate	n/a	test	ward_and_allport	n/a	-1.0	5.0	n/a	n/a	ITI	s561
74.193	1.05	1	PA_with_intermediate	1,2,0,0,0,0,0,0,0	test	ward_and_allport	1,0,0,2,3,0,0,0,0	89.0	6.0	1.05	1,2,3,0,0,0,0,0,0	to_hand	s561
75.244	0.93	0	PA_with_intermediate	1,2,0,0,0,0,3,0,0	test	ward_and_allport	1,0,0,2,3,0,0,0,0	82.0	6.0	0.93	1,2,3,0,0,0,0,0,0	to_board	s561
76.177	0.633	0	PA_with_intermediate	1,0,0,0,0,0,3,0,0	test	ward_and_allport	1,0,0,2,3,0,0,0,0	89.0	6.0	0.633	1,2,3,0,0,0,0,0,0	to_hand	s561
76.812	0.308	0	PA_with_intermediate	1,0,0,2,0,0,3,0,0	test	ward_and_allport	1,0,0,2,3,0,0,0,0	71.0	6.0	0.308	1,2,3,0,0,0,0,0,0	to_board	s561
77.123	0.485	0	PA_with_intermediate	1,0,0,2,0,0,0,0,0	test	ward_and_allport	1,0,0,2,3,0,0,0,0	82.0	6.0	0.485	1,2,3,0,0,0,0,0,0	to_hand	s561
77.609	0.511	0	PA_with_intermediate	1,0,0,2,3,0,0,0,0	test	ward_and_allport	1,0,0,2,3,0,0,0,0	71.0	6.0	0.511	1,2,3,0,0,0,0,0,0	to_board	s561
78.124	1.0	0	PA_with_intermediate	n/a	test	ward_and_allport	n/a	-1.0	6.0	n/a	n/a	feedback	s561
79.124	1.136	0	PA_with_intermediate	n/a	test	ward_and_allport	n/a	-1.0	6.0	n/a	n/a	ITI	s561
80.263	1.501	1	PA_without_intermediate	0,0,0,1,2,0,0,0,0	test	ward_and_allport	1,0,0,0,0,0,3,2,0	71.0	7.0	1.501	0,0,0,1,2,3,0,0,0	to_hand	s561
81.765	0.907	0	PA_without_intermediate	0,0,0,1,2,0,3,0,0	test	ward_and_allport	1,0,0,0,0,0,3,2,0	82.0	7.0	0.907	0,0,0,1,2,3,0,0,0	to_board	s561
82.674	0.427	0	PA_without_intermediate	0,0,0,1,0,0,3,0,0	test	ward_and_allport	1,0,0,0,0,0,3,2,0	71.0	7.0	0.427	0,0,0,1,2,3,0,0,0	to_hand	s561
83.102	0.666	0	PA_without_intermediate	0,0,0,1,0,0,3,2,0	test	ward_and_allport	1,0,0,0,0,0,3,2,0	82.0	7.0	0.666	0,0,0,1,2,3,0,0,0	to_board	s561
83.772	0.841	0	PA_without_intermediate	0,0,0,0,0,0,3,2,0	test	ward_and_allport	1,0,0,0,0,0,3,2,0	71.0	7.0	0.841	0,0,0,1,2,3,0,0,0	to_hand	s561
84.614	0.347	0	PA_without_intermediate	1,0,0,0,0,0,3,2,0	test	ward_and_allport	1,0,0,0,0,0,3,2,0	89.0	7.0	0.347	0,0,0,1,2,3,0,0,0	to_board	s561
84.967	1.0	0	PA_without_intermediate	n/a	test	ward_and_allport	n/a	-1.0	7.0	n/a	n/a	feedback	s561
85.967	4.128	0	PA_without_intermediate	n/a	test	ward_and_allport	n/a	-1.0	7.0	n/a	n/a	ITI	s561
90.097	1.391	1	PA_without_intermediate	0,0,0,0,0,0,1,2,0	test	ward_and_allport	1,0,0,3,2,0,0,0,0	82.0	8.0	1.391	0,0,0,0,0,0,1,2,3	to_hand	s561
91.489	0.518	0	PA_without_intermediate	0,0,0,3,0,0,1,2,0	test	ward_and_allport	1,0,0,3,2,0,0,0,0	71.0	8.0	0.518	0,0,0,0,0,0,1,2,3	to_board	s561
92.01	0.493	0	PA_without_intermediate	0,0,0,3,0,0,1,0,0	test	ward_and_allport	1,0,0,3,2,0,0,0,0	82.0	8.0	0.493	0,0,0,0,0,0,1,2,3	to_hand	s561
92.504	0.457	0	PA_without_intermediate	0,0,0,3,2,0,1,0,0	test	ward_and_allport	1,0,0,3,2,0,0,0,0	71.0	8.0	0.457	0,0,0,0,0,0,1,2,3	to_board	s561
92.964	0.658	0	PA_without_intermediate	0,0,0,3,2,0,0,0,0	test	ward_and_allport	1,0,0,3,2,0,0,0,0	82.0	8.0	0.658	0,0,0,0,0,0,1,2,3	to_hand	s561
93.623	0.462	0	PA_without_intermediate	1,0,0,3,2,0,0,0,0	test	ward_and_allport	1,0,0,3,2,0,0,0,0	89.0	8.0	0.462	0,0,0,0,0,0,1,2,3	to_board	s561
94.09	1.0	0	PA_without_intermediate	n/a	test	ward_and_allport	n/a	-1.0	8.0	n/a	n/a	feedback	s561
95.09	1.136	0	PA_without_intermediate	n/a	test	ward_and_allport	n/a	-1.0	8.0	n/a	n/a	ITI	s561
96.23	0.996	1	PA_without_intermediate	1,2,0,0,0,0,0,0,0	test	ward_and_allport	0,0,0,2,0,0,3,1,0	89.0	9.0	0.996	1,2,3,0,0,0,0,0,0	to_hand	s561
97.226	0.42	0	PA_without_intermediate	1,2,0,0,0,0,3,0,0	test	ward_and_allport	0,0,0,2,0,0,3,1,0	82.0	9.0	0.42	1,2,3,0,0,0,0,0,0	to_board	s561
97.65	0.937	0	PA_without_intermediate	1,0,0,0,0,0,3,0,0	test	ward_and_allport	0,0,0,2,0,0,3,1,0	89.0	9.0	0.937	1,2,3,0,0,0,0,0,0	to_hand	s561
98.587	0.49	0	PA_without_intermediate	1,0,0,2,0,0,3,0,0	test	ward_and_allport	0,0,0,2,0,0,3,1,0	71.0	9.0	0.49	1,2,3,0,0,0,0,0,0	to_board	s561
99.082	0.405	0	PA_without_intermediate	0,0,0,2,0,0,3,0,0	test	ward_and_allport	0,0,0,2,0,0,3,1,0	89.0	9.0	0.405	1,2,3,0,0,0,0,0,0	to_hand	s561
99.488	0.653	0	PA_without_intermediate	0,0,0,2,0,0,3,1,0	test	ward_and_allport	0,0,0,2,0,0,3,1,0	82.0	9.0	0.653	1,2,3,0,0,0,0,0,0	to_board	s561
100.148	1.0	0	PA_without_intermediate	n/a	test	ward_and_allport	n/a	-1.0	9.0	n/a	n/a	feedback	s561
101.148	4.264	0	PA_without_intermediate	n/a	test	ward_and_allport	n/a	-1.0	9.0	n/a	n/a	ITI	s561
105.417	0.952	1	PA_with_intermediate	1,2,0,0,0,0,0,0,0	test	ward_and_allport	1,3,0,0,0,0,2,0,0	89.0	10.0	0.952	1,2,3,0,0,0,0,0,0	to_hand	s561
106.37	1.727	0	PA_with_intermediate	1,2,0,3,0,0,0,0,0	test	ward_and_allport	1,3,0,0,0,0,2,0,0	71.0	10.0	1.727	1,2,3,0,0,0,0,0,0	to_board	s561
108.102	0.572	0	PA_with_intermediate	1,0,0,3,0,0,0,0,0	test	ward_and_allport	1,3,0,0,0,0,2,0,0	89.0	10.0	0.572	1,2,3,0,0,0,0,0,0	to_hand	s561
108.675	0.419	0	PA_with_intermediate	1,0,0,3,0,0,2,0,0	test	ward_and_allport	1,3,0,0,0,0,2,0,0	82.0	10.0	0.419	1,2,3,0,0,0,0,0,0	to_board	s561
109.099	0.883	0	PA_with_intermediate	1,0,0,0,0,0,2,0,0	test	ward_and_allport	1,3,0,0,0,0,2,0,0	71.0	10.0	0.883	1,2,3,0,0,0,0,0,0	to_hand	s561
109.984	0.35	0	PA_with_intermediate	1,3,0,0,0,0,2,0,0	test	ward_and_allport	1,3,0,0,0,0,2,0,0	89.0	10.0	0.35	1,2,3,0,0,0,0,0,0	to_board	s561
110.343	1.0	0	PA_with_intermediate	n/a	test	ward_and_allport	n/a	-1.0	10.0	n/a	n/a	feedback	s561
111.343	3.04	0	PA_with_intermediate	n/a	test	ward_and_allport	n/a	-1.0	10.0	n/a	n/a	ITI	s561
114.388	2.103	1	PA_with_intermediate	0,0,0,1,2,0,0,0,0	test	ward_and_allport	2,0,0,1,3,0,0,0,0	71.0	11.0	2.103	0,0,0,1,2,3,0,0,0	to_hand	s561
116.491	0.758	0	PA_with_intermediate	0,0,0,1,2,0,3,0,0	test	ward_and_allport	2,0,0,1,3,0,0,0,0	82.0	11.0	0.758	0,0,0,1,2,3,0,0,0	to_board	s561
117.252	0.739	0	PA_with_intermediate	0,0,0,1,0,0,3,0,0	test	ward_and_allport	2,0,0,1,3,0,0,0,0	71.0	11.0	0.739	0,0,0,1,2,3,0,0,0	to_hand	s561
117.992	0.384	0	PA_with_intermediate	2,0,0,1,0,0,3,0,0	test	ward_and_allport	2,0,0,1,3,0,0,0,0	89.0	11.0	0.384	0,0,0,1,2,3,0,0,0	to_board	s561
118.38	0.677	0	PA_with_intermediate	2,0,0,1,0,0,0,0,0	test	ward_and_allport	2,0,0,1,3,0,0,0,0	82.0	11.0	0.677	0,0,0,1,2,3,0,0,0	to_hand	s561
119.057	0.358	0	PA_with_intermediate	2,0,0,1,3,0,0,0,0	test	ward_and_allport	2,0,0,1,3,0,0,0,0	71.0	11.0	0.358	0,0,0,1,2,3,0,0,0	to_board	s561
119.421	1.0	0	PA_with_intermediate	n/a	test	ward_and_allport	n/a	-1.0	11.0	n/a	n/a	feedback	s561
120.421	1.136	0	PA_with_intermediate	n/a	test	ward_and_allport	n/a	-1.0	11.0	n/a	n/a	ITI	s561
121.56	1.455	1	PA_with_intermediate	1,2,0,0,0,0,0,0,0	test	ward_and_allport	1,3,0,0,0,0,2,0,0	89.0	12.0	1.455	1,2,3,0,0,0,0,0,0	to_hand	s561
123.016	0.4	0	PA_with_intermediate	1,2,0,3,0,0,0,0,0	test	ward_and_allport	1,3,0,0,0,0,2,0,0	71.0	12.0	0.4	1,2,3,0,0,0,0,0,0	to_board	s561
123.421	0.564	0	PA_with_intermediate	1,0,0,3,0,0,0,0,0	test	ward_and_allport	1,3,0,0,0,0,2,0,0	89.0	12.0	0.564	1,2,3,0,0,0,0,0,0	to_hand	s561
123.985	0.54	0	PA_with_intermediate	1,0,0,3,0,0,2,0,0	test	ward_and_allport	1,3,0,0,0,0,2,0,0	82.0	12.0	0.54	1,2,3,0,0,0,0,0,0	to_board	s561
124.53	0.383	0	PA_with_intermediate	1,0,0,0,0,0,2,0,0	test	ward_and_allport	1,3,0,0,0,0,2,0,0	71.0	12.0	0.383	1,2,3,0,0,0,0,0,0	to_hand	s561
124.915	0.292	0	PA_with_intermediate	1,3,0,0,0,0,2,0,0	test	ward_and_allport	1,3,0,0,0,0,2,0,0	89.0	12.0	0.292	1,2,3,0,0,0,0,0,0	to_board	s561
125.213	1.0	0	PA_with_intermediate	n/a	test	ward_and_allport	n/a	-1.0	12.0	n/a	n/a	feedback	s561
126.213	1.408	0	PA_with_intermediate	n/a	test	ward_and_allport	n/a	-1.0	12.0	n/a	n/a	ITI	s561
127.624	1.134	1	PA_without_intermediate	0,0,0,1,2,0,0,0,0	test	ward_and_allport	1,0,0,0,0,0,3,2,0	71.0	13.0	1.134	0,0,0,1,2,3,0,0,0	to_hand	s561
128.76	0.716	0	PA_without_intermediate	0,0,0,1,2,0,3,0,0	test	ward_and_allport	1,0,0,0,0,0,3,2,0	82.0	13.0	0.716	0,0,0,1,2,3,0,0,0	to_board	s561
129.479	0.367	0	PA_without_intermediate	0,0,0,1,0,0,3,0,0	test	ward_and_allport	1,0,0,0,0,0,3,2,0	71.0	13.0	0.367	0,0,0,1,2,3,0,0,0	to_hand	s561
129.848	0.42	0	PA_without_intermediate	0,0,0,1,0,0,3,2,0	test	ward_and_allport	1,0,0,0,0,0,3,2,0	82.0	13.0	0.42	0,0,0,1,2,3,0,0,0	to_board	s561
130.273	0.521	0	PA_without_intermediate	0,0,0,0,0,0,3,2,0	test	ward_and_allport	1,0,0,0,0,0,3,2,0	71.0	13.0	0.521	0,0,0,1,2,3,0,0,0	to_hand	s561
130.795	0.321	0	PA_without_intermediate	1,0,0,0,0,0,3,2,0	test	ward_and_allport	1,0,0,0,0,0,3,2,0	89.0	13.0	0.321	0,0,0,1,2,3,0,0,0	to_board	s561
131.122	1.0	0	PA_without_intermediate	n/a	test	ward_and_allport	n/a	-1.0	13.0	n/a	n/a	feedback	s561
132.122	1.68	0	PA_without_intermediate	n/a	test	ward_and_allport	n/a	-1.0	13.0	n/a	n/a	ITI	s561
133.807	1.273	1	PA_with_intermediate	0,0,0,1,2,0,0,0,0	test	ward_and_allport	0,0,0,1,0,0,2,3,0	71.0	14.0	1.273	0,0,0,1,2,3,0,0,0	to_hand	s561
135.081	0.729	0	PA_with_intermediate	3,0,0,1,2,0,0,0,0	test	ward_and_allport	0,0,0,1,0,0,2,3,0	89.0	14.0	0.729	0,0,0,1,2,3,0,0,0	to_board	s561
135.814	0.417	0	PA_with_intermediate	3,0,0,1,0,0,0,0,0	test	ward_and_allport	0,0,0,1,0,0,2,3,0	71.0	14.0	0.417	0,0,0,1,2,3,0,0,0	to_hand	s561
136.232	0.453	0	PA_with_intermediate	3,0,0,1,0,0,2,0,0	test	ward_and_allport	0,0,0,1,0,0,2,3,0	82.0	14.0	0.453	0,0,0,1,2,3,0,0,0	to_board	s561
136.69	0.694	0	PA_with_intermediate	0,0,0,1,0,0,2,0,0	test	ward_and_allport	0,0,0,1,0,0,2,3,0	89.0	14.0	0.694	0,0,0,1,2,3,0,0,0	to_hand	s561
137.385	0.423	0	PA_with_intermediate	0,0,0,1,0,0,2,3,0	test	ward_and_allport	0,0,0,1,0,0,2,3,0	82.0	14.0	0.423	0,0,0,1,2,3,0,0,0	to_board	s561
137.817	1.0	0	PA_with_intermediate	n/a	test	ward_and_allport	n/a	-1.0	14.0	n/a	n/a	feedback	s561
138.817	3.72	0	PA_with_intermediate	n/a	test	ward_and_allport	n/a	-1.0	14.0	n/a	n/a	ITI	s561
147.543	1.345	1	PA_without_intermediate	1,2,0,0,0,0,0,0,0	test	ward_and_allport	0,0,0,1,0,0,3,2,0	89.0	15.0	1.345	1,2,3,0,0,0,0,0,0	to_hand	s561
148.889	0.5	0	PA_without_intermediate	1,2,0,0,0,0,3,0,0	test	ward_and_allport	0,0,0,1,0,0,3,2,0	82.0	15.0	0.5	1,2,3,0,0,0,0,0,0	to_board	s561
149.394	0.458	0	PA_without_intermediate	1,0,0,0,0,0,3,0,0	test	ward_and_allport	0,0,0,1,0,0,3,2,0	89.0	15.0	0.458	1,2,3,0,0,0,0,0,0	to_hand	s561
149.852	0.543	0	PA_without_intermediate	1,0,0,0,0,0,3,2,0	test	ward_and_allport	0,0,0,1,0,0,3,2,0	82.0	15.0	0.543	1,2,3,0,0,0,0,0,0	to_board	s561
150.399	0.883	0	PA_without_intermediate	0,0,0,0,0,0,3,2,0	test	ward_and_allport	0,0,0,1,0,0,3,2,0	89.0	15.0	0.883	1,2,3,0,0,0,0,0,0	to_hand	s561
151.283	0.388	0	PA_without_intermediate	0,0,0,1,0,0,3,2,0	test	ward_and_allport	0,0,0,1,0,0,3,2,0	71.0	15.0	0.388	1,2,3,0,0,0,0,0,0	to_board	s561
151.678	1.0	0	PA_without_intermediate	n/a	test	ward_and_allport	n/a	-1.0	15.0	n/a	n/a	feedback	s561
152.678	2.224	0	PA_without_intermediate	n/a	test	ward_and_allport	n/a	-1.0	15.0	n/a	n/a	ITI	s561
154.907	1.167	1	PA_without_intermediate	1,2,0,0,0,0,0,0,0	test	ward_and_allport	0,0,0,1,0,0,3,2,0	89.0	16.0	1.167	1,2,3,0,0,0,0,0,0	to_hand	s561
156.075	0.514	0	PA_without_intermediate	1,2,0,0,0,0,3,0,0	test	ward_and_allport	0,0,0,1,0,0,3,2,0	82.0	16.0	0.514	1,2,3,0,0,0,0,0,0	to_board	s561
156.594	0.446	0	PA_without_intermediate	1,0,0,0,0,0,3,0,0	test	ward_and_allport	0,0,0,1,0,0,3,2,0	89.0	16.0	0.446	1,2,3,0,0,0,0,0,0	to_hand	s561
157.041	0.649	0	PA_without_intermediate	1,0,0,0,0,0,3,2,0	test	ward_and_allport	0,0,0,1,0,0,3,2,0	82.0	16.0	0.649	1,2,3,0,0,0,0,0,0	to_board	s561
157.694	0.42	0	PA_without_intermediate	0,0,0,0,0,0,3,2,0	test	ward_and_allport	0,0,0,1,0,0,3,2,0	89.0	16.0	0.42	1,2,3,0,0,0,0,0,0	to_hand	s561
158.115	0.322	0	PA_without_intermediate	0,0,0,1,0,0,3,2,0	test	ward_and_allport	0,0,0,1,0,0,3,2,0	71.0	16.0	0.322	1,2,3,0,0,0,0,0,0	to_board	s561
158.443	1.0	0	PA_without_intermediate	n/a	test	ward_and_allport	n/a	-1.0	16.0	n/a	n/a	feedback	s561
159.443	1.272	0	PA_without_intermediate	n/a	test	ward_and_allport	n/a	-1.0	16.0	n/a	n/a	ITI	s561
160.721	1.382	1	PA_with_intermediate	1,2,0,0,0,0,0,0,0	test	ward_and_allport	1,0,0,0,0,0,2,3,0	89.0	17.0	1.382	1,2,3,0,0,0,0,0,0	to_hand	s561
162.104	0.702	0	PA_with_intermediate	1,2,0,3,0,0,0,0,0	test	ward_and_allport	1,0,0,0,0,0,2,3,0	71.0	17.0	0.702	1,2,3,0,0,0,0,0,0	to_board	s561
162.81	0.328	0	PA_with_intermediate	1,0,0,3,0,0,0,0,0	test	ward_and_allport	1,0,0,0,0,0,2,3,0	89.0	17.0	0.328	1,2,3,0,0,0,0,0,0	to_hand	s561
163.139	0.551	0	PA_with_intermediate	1,0,0,3,0,0,2,0,0	test	ward_and_allport	1,0,0,0,0,0,2,3,0	82.0	17.0	0.551	1,2,3,0,0,0,0,0,0	to_board	s561
163.694	0.385	0	PA_with_intermediate	1,0,0,0,0,0,2,0,0	test	ward_and_allport	1,0,0,0,0,0,2,3,0	71.0	17.0	0.385	1,2,3,0,0,0,0,0,0	to_hand	s561
164.08	0.409	0	PA_with_intermediate	1,0,0,0,0,0,2,3,0	test	ward_and_allport	1,0,0,0,0,0,2,3,0	82.0	17.0	0.409	1,2,3,0,0,0,0,0,0	to_board	s561
164.497	1.0	0	PA_with_intermediate	n/a	test	ward_and_allport	n/a	-1.0	17.0	n/a	n/a	feedback	s561
165.497	2.632	0	PA_with_intermediate	n/a	test	ward_and_allport	n/a	-1.0	17.0	n/a	n/a	ITI	s561
168.134	0.771	1	PA_without_intermediate	1,2,0,0,0,0,0,0,0	test	ward_and_allport	0,0,0,2,0,0,3,1,0	89.0	18.0	0.771	1,2,3,0,0,0,0,0,0	to_hand	s561
168.906	0.426	0	PA_without_intermediate	1,2,0,0,0,0,3,0,0	test	ward_and_allport	0,0,0,2,0,0,3,1,0	82.0	18.0	0.426	1,2,3,0,0,0,0,0,0	to_board	s561
169.336	0.581	0	PA_without_intermediate	1,0,0,0,0,0,3,0,0	test	ward_and_allport	0,0,0,2,0,0,3,1,0	89.0	18.0	0.581	1,2,3,0,0,0,0,0,0	to_hand	s561
169.918	0.419	0	PA_without_intermediate	1,0,0,2,0,0,3,0,0	test	ward_and_allport	0,0,0,2,0,0,3,1,0	71.0	18.0	0.419	1,2,3,0,0,0,0,0,0	to_board	s561
170.342	0.359	0	PA_without_intermediate	0,0,0,2,0,0,3,0,0	test	ward_and_allport	0,0,0,2,0,0,3,1,0	89.0	18.0	0.359	1,2,3,0,0,0,0,0,0	to_hand	s561
170.703	0.389	0	PA_without_intermediate	0,0,0,2,0,0,3,1,0	test	ward_and_allport	0,0,0,2,0,0,3,1,0	82.0	18.0	0.389	1,2,3,0,0,0,0,0,0	to_board	s561
171.097	1.0	0	PA_without_intermediate	n/a	test	ward_and_allport	n/a	-1.0	18.0	n/a	n/a	feedback	s561
172.097	1.408	0	PA_without_intermediate	n/a	test	ward_and_allport	n/a	-1.0	18.0	n/a	n/a	ITI	s561
173.51	1.145	1	PA_without_intermediate	0,0,0,1,2,0,0,0,0	test	ward_and_allport	3,1,0,0,0,0,2,0,0	71.0	19.0	1.145	0,0,0,1,2,3,0,0,0	to_hand	s561
174.655	0.368	0	PA_without_intermediate	3,0,0,1,2,0,0,0,0	test	ward_and_allport	3,1,0,0,0,0,2,0,0	89.0	19.0	0.368	0,0,0,1,2,3,0,0,0	to_board	s561
175.029	0.484	0	PA_without_intermediate	3,0,0,1,0,0,0,0,0	test	ward_and_allport	3,1,0,0,0,0,2,0,0	71.0	19.0	0.484	0,0,0,1,2,3,0,0,0	to_hand	s561
175.514	0.368	0	PA_without_intermediate	3,0,0,1,0,0,2,0,0	test	ward_and_allport	3,1,0,0,0,0,2,0,0	82.0	19.0	0.368	0,0,0,1,2,3,0,0,0	to_board	s561
175.886	0.529	0	PA_without_intermediate	3,0,0,0,0,0,2,0,0	test	ward_and_allport	3,1,0,0,0,0,2,0,0	71.0	19.0	0.529	0,0,0,1,2,3,0,0,0	to_hand	s561
176.416	0.296	0	PA_without_intermediate	3,1,0,0,0,0,2,0,0	test	ward_and_allport	3,1,0,0,0,0,2,0,0	89.0	19.0	0.296	0,0,0,1,2,3,0,0,0	to_board	s561
176.722	1.0	0	PA_without_intermediate	n/a	test	ward_and_allport	n/a	-1.0	19.0	n/a	n/a	feedback	s561
177.722	1.0	0	PA_without_intermediate	n/a	test	ward_and_allport	n/a	-1.0	19.0	n/a	n/a	ITI	s561
178.727	1.472	1	PA_with_intermediate	0,0,0,0,0,0,1,2,0	test	ward_and_allport	2,3,0,0,0,0,1,0,0	82.0	20.0	1.472	0,0,0,0,0,0,1,2,3	to_hand	s561
180.199	0.549	0	PA_with_intermediate	0,0,0,3,0,0,1,2,0	test	ward_and_allport	2,3,0,0,0,0,1,0,0	71.0	20.0	0.549	0,0,0,0,0,0,1,2,3	to_board	s561
180.753	0.727	0	PA_with_intermediate	0,0,0,3,0,0,1,0,0	test	ward_and_allport	2,3,0,0,0,0,1,0,0	82.0	20.0	0.727	0,0,0,0,0,0,1,2,3	to_hand	s561
181.481	0.384	0	PA_with_intermediate	2,0,0,3,0,0,1,0,0	test	ward_and_allport	2,3,0,0,0,0,1,0,0	89.0	20.0	0.384	0,0,0,0,0,0,1,2,3	to_board	s561
181.87	0.523	0	PA_with_intermediate	2,0,0,0,0,0,1,0,0	test	ward_and_allport	2,3,0,0,0,0,1,0,0	71.0	20.0	0.523	0,0,0,0,0,0,1,2,3	to_hand	s561
182.394	0.362	0	PA_with_intermediate	2,3,0,0,0,0,1,0,0	test	ward_and_allport	2,3,0,0,0,0,1,0,0	89.0	20.0	0.362	0,0,0,0,0,0,1,2,3	to_board	s561
182.765	1.0	0	PA_with_intermediate	n/a	test	ward_and_allport	n/a	-1.0	20.0	n/a	n/a	feedback	s561
183.765	1.0	0	PA_with_intermediate	n/a	test	ward_and_allport	n/a	-1.0	20.0	n/a	n/a	ITI	s561
184.769	1.268	1	PA_with_intermediate	1,2,0,0,0,0,0,0,0	test	ward_and_allport	1,3,0,2,0,0,0,0,0	89.0	21.0	1.268	1,2,3,0,0,0,0,0,0	to_hand	s561
186.038	1.01	0	PA_with_intermediate	1,2,0,0,0,0,3,0,0	test	ward_and_allport	1,3,0,2,0,0,0,0,0	82.0	21.0	1.01	1,2,3,0,0,0,0,0,0	to_board	s561
187.055	0.621	0	PA_with_intermediate	1,0,0,0,0,0,3,0,0	test	ward_and_allport	1,3,0,2,0,0,0,0,0	89.0	21.0	0.621	1,2,3,0,0,0,0,0,0	to_hand	s561
187.677	0.422	0	PA_with_intermediate	1,0,0,2,0,0,3,0,0	test	ward_and_allport	1,3,0,2,0,0,0,0,0	71.0	21.0	0.422	1,2,3,0,0,0,0,0,0	to_board	s561
188.104	0.735	0	PA_with_intermediate	1,0,0,2,0,0,0,0,0	test	ward_and_allport	1,3,0,2,0,0,0,0,0	82.0	21.0	0.735	1,2,3,0,0,0,0,0,0	to_hand	s561
188.841	0.444	0	PA_with_intermediate	1,3,0,2,0,0,0,0,0	test	ward_and_allport	1,3,0,2,0,0,0,0,0	89.0	21.0	0.444	1,2,3,0,0,0,0,0,0	to_board	s561
189.291	1.0	0	PA_with_intermediate	n/a	test	ward_and_allport	n/a	-1.0	21.0	n/a	n/a	feedback	s561
190.291	1.0	0	PA_with_intermediate	n/a	test	ward_and_allport	n/a	-1.0	21.0	n/a	n/a	ITI	s561
191.297	0.991	1	PA_with_intermediate	1,2,0,0,0,0,0,0,0	test	ward_and_allport	1,3,0,2,0,0,0,0,0	89.0	22.0	0.991	1,2,3,0,0,0,0,0,0	to_hand	s561
192.288	0.712	0	PA_with_intermediate	1,2,0,0,0,0,3,0,0	test	ward_and_allport	1,3,0,2,0,0,0,0,0	82.0	22.0	0.712	1,2,3,0,0,0,0,0,0	to_board	s561
193.006	0.45	0	PA_with_intermediate	1,0,0,0,0,0,3,0,0	test	ward_and_allport	1,3,0,2,0,0,0,0,0	89.0	22.0	0.45	1,2,3,0,0,0,0,0,0	to_hand	s561
193.457	0.431	0	PA_with_intermediate	1,0,0,2,0,0,3,0,0	test	ward_and_allport	1,3,0,2,0,0,0,0,0	71.0	22.0	0.431	1,2,3,0,0,0,0,0,0	to_board	s561
193.894	0.422	0	PA_with_intermediate	1,0,0,2,0,0,0,0,0	test	ward_and_allport	1,3,0,2,0,0,0,0,0	82.0	22.0	0.422	1,2,3,0,0,0,0,0,0	to_hand	s561
194.316	0.395	0	PA_with_intermediate	1,3,0,2,0,0,0,0,0	test	ward_and_allport	1,3,0,2,0,0,0,0,0	89.0	22.0	0.395	1,2,3,0,0,0,0,0,0	to_board	s561
194.72	1.0	0	PA_with_intermediate	n/a	test	ward_and_allport	n/a	-1.0	22.0	n/a	n/a	feedback	s561
195.72	1.408	0	PA_with_intermediate	n/a	test	ward_and_allport	n/a	-1.0	22.0	n/a	n/a	ITI	s561
197.133	0.971	1	PA_without_intermediate	0,0,0,0,0,0,1,2,0	test	ward_and_allport	3,1,0,2,0,0,0,0,0	82.0	23.0	0.971	0,0,0,0,0,0,1,2,3	to_hand	s561
198.105	0.384	0	PA_without_intermediate	3,0,0,0,0,0,1,2,0	test	ward_and_allport	3,1,0,2,0,0,0,0,0	89.0	23.0	0.384	0,0,0,0,0,0,1,2,3	to_board	s561
198.496	0.935	0	PA_without_intermediate	3,0,0,0,0,0,1,0,0	test	ward_and_allport	3,1,0,2,0,0,0,0,0	82.0	23.0	0.935	0,0,0,0,0,0,1,2,3	to_hand	s561
199.432	0.459	0	PA_without_intermediate	3,0,0,2,0,0,1,0,0	test	ward_and_allport	3,1,0,2,0,0,0,0,0	71.0	23.0	0.459	0,0,0,0,0,0,1,2,3	to_board	s561
199.897	0.415	0	PA_without_intermediate	3,0,0,2,0,0,0,0,0	test	ward_and_allport	3,1,0,2,0,0,0,0,0	82.0	23.0	0.415	0,0,0,0,0,0,1,2,3	to_hand	s561
200.314	0.338	0	PA_without_intermediate	3,1,0,2,0,0,0,0,0	test	ward_and_allport	3,1,0,2,0,0,0,0,0	89.0	23.0	0.338	0,0,0,0,0,0,1,2,3	to_board	s561
200.664	1.0	0	PA_without_intermediate	n/a	test	ward_and_allport	n/a	-1.0	23.0	n/a	n/a	feedback	s561
201.664	1.816	0	PA_without_intermediate	n/a	test	ward_and_allport	n/a	-1.0	23.0	n/a	n/a	ITI	s561
203.486	0.893	1	PA_with_intermediate	0,0,0,0,0,0,1,2,0	test	ward_and_allport	0,0,0,2,3,0,1,0,0	82.0	24.0	0.893	0,0,0,0,0,0,1,2,3	to_hand	s561
204.38	0.47	0	PA_with_intermediate	3,0,0,0,0,0,1,2,0	test	ward_and_allport	0,0,0,2,3,0,1,0,0	89.0	24.0	0.47	0,0,0,0,0,0,1,2,3	to_board	s561
204.857	0.463	0	PA_with_intermediate	3,0,0,0,0,0,1,0,0	test	ward_and_allport	0,0,0,2,3,0,1,0,0	82.0	24.0	0.463	0,0,0,0,0,0,1,2,3	to_hand	s561
205.32	0.345	0	PA_with_intermediate	3,0,0,2,0,0,1,0,0	test	ward_and_allport	0,0,0,2,3,0,1,0,0	71.0	24.0	0.345	0,0,0,0,0,0,1,2,3	to_board	s561
205.671	0.335	0	PA_with_intermediate	0,0,0,2,0,0,1,0,0	test	ward_and_allport	0,0,0,2,3,0,1,0,0	89.0	24.0	0.335	0,0,0,0,0,0,1,2,3	to_hand	s561
206.007	0.393	0	PA_with_intermediate	0,0,0,2,3,0,1,0,0	test	ward_and_allport	0,0,0,2,3,0,1,0,0	71.0	24.0	0.393	0,0,0,0,0,0,1,2,3	to_board	s561
206.411	1.0	0	PA_with_intermediate	n/a	test	ward_and_allport	n/a	-1.0	24.0	n/a	n/a	feedback	s561
207.411	3.176	0	PA_with_intermediate	n/a	test	ward_and_allport	n/a	-1.0	24.0	n/a	n/a	ITI	s561
210.593	1.699	1	PA_with_intermediate	0,0,0,1,2,0,0,0,0	test	ward_and_allport	2,3,0,1,0,0,0,0,0	71.0	25.0	1.699	0,0,0,1,2,3,0,0,0	to_hand	s561
212.294	0.547	0	PA_with_intermediate	0,0,0,1,2,0,3,0,0	test	ward_and_allport	2,3,0,1,0,0,0,0,0	82.0	25.0	0.547	0,0,0,1,2,3,0,0,0	to_board	s561
212.847	0.398	0	PA_with_intermediate	0,0,0,1,0,0,3,0,0	test	ward_and_allport	2,3,0,1,0,0,0,0,0	71.0	25.0	0.398	0,0,0,1,2,3,0,0,0	to_hand	s561
213.247	0.35	0	PA_with_intermediate	2,0,0,1,0,0,3,0,0	test	ward_and_allport	2,3,0,1,0,0,0,0,0	89.0	25.0	0.35	0,0,0,1,2,3,0,0,0	to_board	s561
213.604	1.104	0	PA_with_intermediate	2,0,0,1,0,0,0,0,0	test	ward_and_allport	2,3,0,1,0,0,0,0,0	82.0	25.0	1.104	0,0,0,1,2,3,0,0,0	to_hand	s561
214.708	0.357	0	PA_with_intermediate	2,3,0,1,0,0,0,0,0	test	ward_and_allport	2,3,0,1,0,0,0,0,0	89.0	25.0	0.357	0,0,0,1,2,3,0,0,0	to_board	s561
215.075	1.0	0	PA_with_intermediate	n/a	test	ward_and_allport	n/a	-1.0	25.0	n/a	n/a	feedback	s561
216.075	2.36	0	PA_with_intermediate	n/a	test	ward_and_allport	n/a	-1.0	25.0	n/a	n/a	ITI	s561
218.442	1.006	1	PA_with_intermediate	0,0,0,1,2,0,0,0,0	test	ward_and_allport	2,3,0,1,0,0,0,0,0	71.0	26.0	1.006	0,0,0,1,2,3,0,0,0	to_hand	s561
219.449	0.494	0	PA_with_intermediate	0,0,0,1,2,0,3,0,0	test	ward_and_allport	2,3,0,1,0,0,0,0,0	82.0	26.0	0.494	0,0,0,1,2,3,0,0,0	to_board	s561
219.95	0.411	0	PA_with_intermediate	0,0,0,1,0,0,3,0,0	test	ward_and_allport	2,3,0,1,0,0,0,0,0	71.0	26.0	0.411	0,0,0,1,2,3,0,0,0	to_hand	s561
220.362	0.371	0	PA_with_intermediate	2,0,0,1,0,0,3,0,0	test	ward_and_allport	2,3,0,1,0,0,0,0,0	89.0	26.0	0.371	0,0,0,1,2,3,0,0,0	to_board	s561
220.74	0.864	0	PA_with_intermediate	2,0,0,1,0,0,0,0,0	test	ward_and_allport	2,3,0,1,0,0,0,0,0	82.0	26.0	0.864	0,0,0,1,2,3,0,0,0	to_hand	s561
221.604	0.533	0	PA_with_intermediate	2,3,0,1,0,0,0,0,0	test	ward_and_allport	2,3,0,1,0,0,0,0,0	89.0	26.0	0.533	0,0,0,1,2,3,0,0,0	to_board	s561
222.146	1.0	0	PA_with_intermediate	n/a	test	ward_and_allport	n/a	-1.0	26.0	n/a	n/a	feedback	s561
223.146	1.0	0	PA_with_intermediate	n/a	test	ward_and_allport	n/a	-1.0	26.0	n/a	n/a	ITI	s561
224.154	1.147	1	PA_without_intermediate	1,2,0,0,0,0,0,0,0	test	ward_and_allport	0,0,0,3,1,0,2,0,0	89.0	27.0	1.147	1,2,3,0,0,0,0,0,0	to_hand	s561
225.301	0.351	0	PA_without_intermediate	1,2,0,3,0,0,0,0,0	test	ward_and_allport	0,0,0,3,1,0,2,0,0	71.0	27.0	0.351	1,2,3,0,0,0,0,0,0	to_board	s561
225.659	0.482	0	PA_without_intermediate	1,0,0,3,0,0,0,0,0	test	ward_and_allport	0,0,0,3,1,0,2,0,0	89.0	27.0	0.482	1,2,3,0,0,0,0,0,0	to_hand	s561
226.142	0.321	0	PA_without_intermediate	1,0,0,3,0,0,2,0,0	test	ward_and_allport	0,0,0,3,1,0,2,0,0	82.0	27.0	0.321	1,2,3,0,0,0,0,0,0	to_board	s561
226.47	0.378	0	PA_without_intermediate	0,0,0,3,0,0,2,0,0	test	ward_and_allport	0,0,0,3,1,0,2,0,0	89.0	27.0	0.378	1,2,3,0,0,0,0,0,0	to_hand	s561
226.848	0.327	0	PA_without_intermediate	0,0,0,3,1,0,2,0,0	test	ward_and_allport	0,0,0,3,1,0,2,0,0	71.0	27.0	0.327	1,2,3,0,0,0,0,0,0	to_board	s561
227.184	1.0	0	PA_without_intermediate	n/a	test	ward_and_allport	n/a	-1.0	27.0	n/a	n/a	feedback	s561
228.184	1.408	0	PA_without_intermediate	n/a	test	ward_and_allport	n/a	-1.0	27.0	n/a	n/a	ITI	s561
229.599	1.184	1	PA_with_intermediate	0,0,0,0,0,0,1,2,0	test	ward_and_allport	0,0,0,2,0,0,1,3,0	82.0	28.0	1.184	0,0,0,0,0,0,1,2,3	to_hand	s561
230.784	0.353	0	PA_with_intermediate	3,0,0,0,0,0,1,2,0	test	ward_and_allport	0,0,0,2,0,0,1,3,0	89.0	28.0	0.353	0,0,0,0,0,0,1,2,3	to_board	s561
231.142	0.572	0	PA_with_intermediate	3,0,0,0,0,0,1,0,0	test	ward_and_allport	0,0,0,2,0,0,1,3,0	82.0	28.0	0.572	0,0,0,0,0,0,1,2,3	to_hand	s561
231.715	0.374	0	PA_with_intermediate	3,0,0,2,0,0,1,0,0	test	ward_and_allport	0,0,0,2,0,0,1,3,0	71.0	28.0	0.374	0,0,0,0,0,0,1,2,3	to_board	s561
232.097	0.535	0	PA_with_intermediate	0,0,0,2,0,0,1,0,0	test	ward_and_allport	0,0,0,2,0,0,1,3,0	89.0	28.0	0.535	0,0,0,0,0,0,1,2,3	to_hand	s561
232.633	0.314	0	PA_with_intermediate	0,0,0,2,0,0,1,3,0	test	ward_and_allport	0,0,0,2,0,0,1,3,0	82.0	28.0	0.314	0,0,0,0,0,0,1,2,3	to_board	s561
232.958	1.0	0	PA_with_intermediate	n/a	test	ward_and_allport	n/a	-1.0	28.0	n/a	n/a	feedback	s561
233.958	1.816	0	PA_with_intermediate	n/a	test	ward_and_allport	n/a	-1.0	28.0	n/a	n/a	ITI	s561
235.782	0.884	1	PA_without_intermediate	0,0,0,1,2,0,0,0,0	test	ward_and_allport	2,0,0,0,0,0,3,1,0	71.0	29.0	0.884	0,0,0,1,2,3,0,0,0	to_hand	s561
236.667	0.5	0	PA_without_intermediate	0,0,0,1,2,0,3,0,0	test	ward_and_allport	2,0,0,0,0,0,3,1,0	82.0	29.0	0.5	0,0,0,1,2,3,0,0,0	to_board	s561
237.173	0.674	0	PA_without_intermediate	0,0,0,1,0,0,3,0,0	test	ward_and_allport	2,0,0,0,0,0,3,1,0	71.0	29.0	0.674	0,0,0,1,2,3,0,0,0	to_hand	s561
237.848	0.594	0	PA_without_intermediate	2,0,0,1,0,0,3,0,0	test	ward_and_allport	2,0,0,0,0,0,3,1,0	89.0	29.0	0.594	0,0,0,1,2,3,0,0,0	to_board	s561
238.45	0.344	0	PA_without_intermediate	2,0,0,0,0,0,3,0,0	test	ward_and_allport	2,0,0,0,0,0,3,1,0	71.0	29.0	0.344	0,0,0,1,2,3,0,0,0	to_hand	s561
238.794	0.358	0	PA_without_intermediate	2,0,0,0,0,0,3,1,0	test	ward_and_allport	2,0,0,0,0,0,3,1,0	82.0	29.0	0.358	0,0,0,1,2,3,0,0,0	to_board	s561
239.161	1.0	0	PA_without_intermediate	n/a	test	ward_and_allport	n/a	-1.0	29.0	n/a	n/a	feedback	s561
240.161	2.088	0	PA_without_intermediate	n/a	test	ward_and_allport	n/a	-1.0	29.0	n/a	n/a	ITI	s561
247.259	0.755	1	PA_without_intermediate	1,2,0,0,0,0,0,0,0	test	ward_and_allport	0,0,0,3,1,0,2,0,0	89.0	30.0	0.755	1,2,3,0,0,0,0,0,0	to_hand	s561
248.014	0.362	0	PA_without_intermediate	1,2,0,3,0,0,0,0,0	test	ward_and_allport	0,0,0,3,1,0,2,0,0	71.0	30.0	0.362	1,2,3,0,0,0,0,0,0	to_board	s561
248.384	0.459	0	PA_without_intermediate	1,0,0,3,0,0,0,0,0	test	ward_and_allport	0,0,0,3,1,0,2,0,0	89.0	30.0	0.459	1,2,3,0,0,0,0,0,0	to_hand	s561
248.844	0.237	0	PA_without_intermediate	1,0,0,3,0,0,2,0,0	test	ward_and_allport	0,0,0,3,1,0,2,0,0	82.0	30.0	0.237	1,2,3,0,0,0,0,0,0	to_board	s561
249.087	0.534	0	PA_without_intermediate	0,0,0,3,0,0,2,0,0	test	ward_and_allport	0,0,0,3,1,0,2,0,0	89.0	30.0	0.534	1,2,3,0,0,0,0,0,0	to_hand	s561
249.623	0.229	0	PA_without_intermediate	0,0,0,3,1,0,2,0,0	test	ward_and_allport	0,0,0,3,1,0,2,0,0	71.0	30.0	0.229	1,2,3,0,0,0,0,0,0	to_board	s561
249.863	1.0	0	PA_without_intermediate	n/a	test	ward_and_allport	n/a	-1.0	30.0	n/a	n/a	feedback	s561
250.863	1.136	0	PA_without_intermediate	n/a	test	ward_and_allport	n/a	-1.0	30.0	n/a	n/a	ITI	s561
252.005	0.842	1	PA_without_intermediate	0,0,0,0,0,0,1,2,0	test	ward_and_allport	2,0,0,3,1,0,0,0,0	82.0	31.0	0.842	0,0,0,0,0,0,1,2,3	to_hand	s561
252.849	0.955	0	PA_without_intermediate	0,0,0,3,0,0,1,2,0	test	ward_and_allport	2,0,0,3,1,0,0,0,0	71.0	31.0	0.955	0,0,0,0,0,0,1,2,3	to_board	s561
253.814	0.731	0	PA_without_intermediate	0,0,0,3,0,0,1,0,0	test	ward_and_allport	2,0,0,3,1,0,0,0,0	82.0	31.0	0.731	0,0,0,0,0,0,1,2,3	to_hand	s561
254.546	0.212	0	PA_without_intermediate	2,0,0,3,0,0,1,0,0	test	ward_and_allport	2,0,0,3,1,0,0,0,0	89.0	31.0	0.212	0,0,0,0,0,0,1,2,3	to_board	s561
254.766	0.598	0	PA_without_intermediate	2,0,0,3,0,0,0,0,0	test	ward_and_allport	2,0,0,3,1,0,0,0,0	82.0	31.0	0.598	0,0,0,0,0,0,1,2,3	to_hand	s561
255.365	0.295	0	PA_without_intermediate	2,0,0,3,1,0,0,0,0	test	ward_and_allport	2,0,0,3,1,0,0,0,0	71.0	31.0	0.295	0,0,0,0,0,0,1,2,3	to_board	s561
255.668	1.0	0	PA_without_intermediate	n/a	test	ward_and_allport	n/a	-1.0	31.0	n/a	n/a	feedback	s561
256.668	6.168	0	PA_without_intermediate	n/a	test	ward_and_allport	n/a	-1.0	31.0	n/a	n/a	ITI	s561
262.842	0.969	1	PA_without_intermediate	0,0,0,0,0,0,1,2,0	test	ward_and_allport	3,2,0,1,0,0,0,0,0	82.0	32.0	0.969	0,0,0,0,0,0,1,2,3	to_hand	s561
263.813	0.417	0	PA_without_intermediate	3,0,0,0,0,0,1,2,0	test	ward_and_allport	3,2,0,1,0,0,0,0,0	89.0	32.0	0.417	0,0,0,0,0,0,1,2,3	to_board	s561
264.238	0.327	0	PA_without_intermediate	3,0,0,0,0,0,1,0,0	test	ward_and_allport	3,2,0,1,0,0,0,0,0	82.0	32.0	0.327	0,0,0,0,0,0,1,2,3	to_hand	s561
264.566	0.306	0	PA_without_intermediate	3,2,0,0,0,0,1,0,0	test	ward_and_allport	3,2,0,1,0,0,0,0,0	89.0	32.0	0.306	0,0,0,0,0,0,1,2,3	to_board	s561
264.881	0.659	0	PA_without_intermediate	3,2,0,0,0,0,0,0,0	test	ward_and_allport	3,2,0,1,0,0,0,0,0	82.0	32.0	0.659	0,0,0,0,0,0,1,2,3	to_hand	s561
265.541	0.193	0	PA_without_intermediate	3,2,0,1,0,0,0,0,0	test	ward_and_allport	3,2,0,1,0,0,0,0,0	71.0	32.0	0.193	0,0,0,0,0,0,1,2,3	to_board	s561
265.743	1.0	0	PA_without_intermediate	n/a	test	ward_and_allport	n/a	-1.0	32.0	n/a	n/a	feedback	s561
266.743	1.816	0	PA_without_intermediate	n/a	test	ward_and_allport	n/a	-1.0	32.0	n/a	n/a	ITI	s561
268.569	1.76	1	PA_with_intermediate	0,0,0,1,2,0,0,0,0	test	ward_and_allport	0,0,0,1,3,0,2,0,0	71.0	33.0	1.76	0,0,0,1,2,3,0,0,0	to_hand	s561
270.329	0.399	0	PA_with_intermediate	3,0,0,1,2,0,0,0,0	test	ward_and_allport	0,0,0,1,3,0,2,0,0	89.0	33.0	0.399	0,0,0,1,2,3,0,0,0	to_board	s561
270.735	0.662	0	PA_with_intermediate	3,0,0,1,0,0,0,0,0	test	ward_and_allport	0,0,0,1,3,0,2,0,0	71.0	33.0	0.662	0,0,0,1,2,3,0,0,0	to_hand	s561
271.397	0.236	0	PA_with_intermediate	3,0,0,1,0,0,2,0,0	test	ward_and_allport	0,0,0,1,3,0,2,0,0	82.0	33.0	0.236	0,0,0,1,2,3,0,0,0	to_board	s561
271.64	0.759	0	PA_with_intermediate	0,0,0,1,0,0,2,0,0	test	ward_and_allport	0,0,0,1,3,0,2,0,0	89.0	33.0	0.759	0,0,0,1,2,3,0,0,0	to_hand	s561
272.401	0.215	0	PA_with_intermediate	0,0,0,1,3,0,2,0,0	test	ward_and_allport	0,0,0,1,3,0,2,0,0	71.0	33.0	0.215	0,0,0,1,2,3,0,0,0	to_board	s561
272.626	1.0	0	PA_with_intermediate	n/a	test	ward_and_allport	n/a	-1.0	33.0	n/a	n/a	feedback	s561
273.626	1.952	0	PA_with_intermediate	n/a	test	ward_and_allport	n/a	-1.0	33.0	n/a	n/a	ITI	s561
275.587	0.871	1	PA_with_intermediate	1,2,0,0,0,0,0,0,0	test	ward_and_allport	1,0,0,2,3,0,0,0,0	89.0	34.0	0.871	1,2,3,0,0,0,0,0,0	to_hand	s561
276.459	0.368	0	PA_with_intermediate	1,2,0,0,0,0,3,0,0	test	ward_and_allport	1,0,0,2,3,0,0,0,0	82.0	34.0	0.368	1,2,3,0,0,0,0,0,0	to_board	s561
276.835	0.443	0	PA_with_intermediate	1,0,0,0,0,0,3,0,0	test	ward_and_allport	1,0,0,2,3,0,0,0,0	89.0	34.0	0.443	1,2,3,0,0,0,0,0,0	to_hand	s561
277.279	0.358	0	PA_with_intermediate	1,0,0,2,0,0,3,0,0	test	ward_and_allport	1,0,0,2,3,0,0,0,0	71.0	34.0	0.358	1,2,3,0,0,0,0,0,0	to_board	s561
277.642	0.329	0	PA_with_intermediate	1,0,0,2,0,0,0,0,0	test	ward_and_allport	1,0,0,2,3,0,0,0,0	82.0	34.0	0.329	1,2,3,0,0,0,0,0,0	to_hand	s561
277.972	0.319	0	PA_with_intermediate	1,0,0,2,3,0,0,0,0	test	ward_and_allport	1,0,0,2,3,0,0,0,0	71.0	34.0	0.319	1,2,3,0,0,0,0,0,0	to_board	s561
278.3	1.0	0	PA_with_intermediate	n/a	test	ward_and_allport	n/a	-1.0	34.0	n/a	n/a	feedback	s561
279.3	1.136	0	PA_with_intermediate	n/a	test	ward_and_allport	n/a	-1.0	34.0	n/a	n/a	ITI	s561
280.442	1.193	1	PA_without_intermediate	1,2,0,0,0,0,0,0,0	test	ward_and_allport	0,0,0,3,2,0,1,0,0	89.0	35.0	1.193	1,2,3,0,0,0,0,0,0	to_hand	s561
281.636	0.261	0	PA_without_intermediate	1,2,0,3,0,0,0,0,0	test	ward_and_allport	0,0,0,3,2,0,1,0,0	71.0	35.0	0.261	1,2,3,0,0,0,0,0,0	to_board	s561
281.904	0.314	0	PA_without_intermediate	1,0,0,3,0,0,0,0,0	test	ward_and_allport	0,0,0,3,2,0,1,0,0	89.0	35.0	0.314	1,2,3,0,0,0,0,0,0	to_hand	s561
282.219	0.247	0	PA_without_intermediate	1,0,0,3,2,0,0,0,0	test	ward_and_allport	0,0,0,3,2,0,1,0,0	71.0	35.0	0.247	1,2,3,0,0,0,0,0,0	to_board	s561
282.472	0.412	0	PA_without_intermediate	0,0,0,3,2,0,0,0,0	test	ward_and_allport	0,0,0,3,2,0,1,0,0	89.0	35.0	0.412	1,2,3,0,0,0,0,0,0	to_hand	s561
282.885	0.231	0	PA_without_intermediate	0,0,0,3,2,0,1,0,0	test	ward_and_allport	0,0,0,3,2,0,1,0,0	82.0	35.0	0.231	1,2,3,0,0,0,0,0,0	to_board	s561
283.126	1.0	0	PA_without_intermediate	n/a	test	ward_and_allport	n/a	-1.0	35.0	n/a	n/a	feedback	s561
284.126	1.68	0	PA_without_intermediate	n/a	test	ward_and_allport	n/a	-1.0	35.0	n/a	n/a	ITI	s561
285.814	1.849	1	PA_without_intermediate	0,0,0,1,2,0,0,0,0	test	ward_and_allport	3,2,0,0,0,0,1,0,0	71.0	36.0	1.849	0,0,0,1,2,3,0,0,0	to_hand	s561
287.664	0.318	0	PA_without_intermediate	3,0,0,1,2,0,0,0,0	test	ward_and_allport	3,2,0,0,0,0,1,0,0	89.0	36.0	0.318	0,0,0,1,2,3,0,0,0	to_board	s561
287.988	0.307	0	PA_without_intermediate	3,0,0,1,0,0,0,0,0	test	ward_and_allport	3,2,0,0,0,0,1,0,0	71.0	36.0	0.307	0,0,0,1,2,3,0,0,0	to_hand	s561
288.295	0.254	0	PA_without_intermediate	3,2,0,1,0,0,0,0,0	test	ward_and_allport	3,2,0,0,0,0,1,0,0	89.0	36.0	0.254	0,0,0,1,2,3,0,0,0	to_board	s561
288.557	0.616	0	PA_without_intermediate	3,2,0,0,0,0,0,0,0	test	ward_and_allport	3,2,0,0,0,0,1,0,0	71.0	36.0	0.616	0,0,0,1,2,3,0,0,0	to_hand	s561
289.174	0.296	0	PA_without_intermediate	3,2,0,0,0,0,1,0,0	test	ward_and_allport	3,2,0,0,0,0,1,0,0	82.0	36.0	0.296	0,0,0,1,2,3,0,0,0	to_board	s561
289.48	1.0	0	PA_without_intermediate	n/a	test	ward_and_allport	n/a	-1.0	36.0	n/a	n/a	feedback	s561
290.48	2.088	0	PA_without_intermediate	n/a	test	ward_and_allport	n/a	-1.0	36.0	n/a	n/a	ITI	s561
292.575	0.916	1	PA_with_intermediate	0,0,0,0,0,0,1,2,0	test	ward_and_allport	2,0,0,0,0,0,1,3,0	82.0	37.0	0.916	0,0,0,0,0,0,1,2,3	to_hand	s561
293.491	1.163	0	PA_with_intermediate	0,0,0,3,0,0,1,2,0	test	ward_and_allport	2,0,0,0,0,0,1,3,0	71.0	37.0	1.163	0,0,0,0,0,0,1,2,3	to_board	s561
294.66	0.574	0	PA_with_intermediate	0,0,0,3,0,0,1,0,0	test	ward_and_allport	2,0,0,0,0,0,1,3,0	82.0	37.0	0.574	0,0,0,0,0,0,1,2,3	to_hand	s561
295.235	0.211	0	PA_with_intermediate	2,0,0,3,0,0,1,0,0	test	ward_and_allport	2,0,0,0,0,0,1,3,0	89.0	37.0	0.211	0,0,0,0,0,0,1,2,3	to_board	s561
295.454	0.405	0	PA_with_intermediate	2,0,0,0,0,0,1,0,0	test	ward_and_allport	2,0,0,0,0,0,1,3,0	71.0	37.0	0.405	0,0,0,0,0,0,1,2,3	to_hand	s561
295.86	0.282	0	PA_with_intermediate	2,0,0,0,0,0,1,3,0	test	ward_and_allport	2,0,0,0,0,0,1,3,0	82.0	37.0	0.282	0,0,0,0,0,0,1,2,3	to_board	s561
296.154	1.0	0	PA_with_intermediate	n/a	test	ward_and_allport	n/a	-1.0	37.0	n/a	n/a	feedback	s561
297.154	1.0	0	PA_with_intermediate	n/a	test	ward_and_allport	n/a	-1.0	37.0	n/a	n/a	ITI	s561
298.161	0.751	1	PA_without_intermediate	0,0,0,0,0,0,1,2,0	test	ward_and_allport	3,1,0,2,0,0,0,0,0	82.0	38.0	0.751	0,0,0,0,0,0,1,2,3	to_hand	s561
298.914	0.388	0	PA_without_intermediate	3,0,0,0,0,0,1,2,0	test	ward_and_allport	3,1,0,2,0,0,0,0,0	89.0	38.0	0.388	0,0,0,0,0,0,1,2,3	to_board	s561
299.307	1.012	0	PA_without_intermediate	3,0,0,0,0,0,1,0,0	test	ward_and_allport	3,1,0,2,0,0,0,0,0	82.0	38.0	1.012	0,0,0,0,0,0,1,2,3	to_hand	s561
300.32	0.369	0	PA_without_intermediate	3,0,0,2,0,0,1,0,0	test	ward_and_allport	3,1,0,2,0,0,0,0,0	71.0	38.0	0.369	0,0,0,0,0,0,1,2,3	to_board	s561
300.696	0.357	0	PA_without_intermediate	3,0,0,2,0,0,0,0,0	test	ward_and_allport	3,1,0,2,0,0,0,0,0	82.0	38.0	0.357	0,0,0,0,0,0,1,2,3	to_hand	s561
301.055	0.291	0	PA_without_intermediate	3,1,0,2,0,0,0,0,0	test	ward_and_allport	3,1,0,2,0,0,0,0,0	89.0	38.0	0.291	0,0,0,0,0,0,1,2,3	to_board	s561
301.355	1.0	0	PA_without_intermediate	n/a	test	ward_and_allport	n/a	-1.0	38.0	n/a	n/a	feedback	s561
302.355	1.0	0	PA_without_intermediate	n/a	test	ward_and_allport	n/a	-1.0	38.0	n/a	n/a	ITI	s561
303.363	0.882	1	PA_without_intermediate	0,0,0,0,0,0,1,2,0	test	ward_and_allport	3,2,0,1,0,0,0,0,0	82.0	39.0	0.882	0,0,0,0,0,0,1,2,3	to_hand	s561
304.245	0.359	0	PA_without_intermediate	3,0,0,0,0,0,1,2,0	test	ward_and_allport	3,2,0,1,0,0,0,0,0	89.0	39.0	0.359	0,0,0,0,0,0,1,2,3	to_board	s561
304.611	0.385	0	PA_without_intermediate	3,0,0,0,0,0,1,0,0	test	ward_and_allport	3,2,0,1,0,0,0,0,0	82.0	39.0	0.385	0,0,0,0,0,0,1,2,3	to_hand	s561
304.996	0.354	0	PA_without_intermediate	3,2,0,0,0,0,1,0,0	test	ward_and_allport	3,2,0,1,0,0,0,0,0	89.0	39.0	0.354	0,0,0,0,0,0,1,2,3	to_board	s561
305.356	0.83	0	PA_without_intermediate	3,2,0,0,0,0,0,0,0	test	ward_and_allport	3,2,0,1,0,0,0,0,0	82.0	39.0	0.83	0,0,0,0,0,0,1,2,3	to_hand	s561
306.188	0.243	0	PA_without_intermediate	3,2,0,1,0,0,0,0,0	test	ward_and_allport	3,2,0,1,0,0,0,0,0	71.0	39.0	0.243	0,0,0,0,0,0,1,2,3	to_board	s561
306.438	1.0	0	PA_without_intermediate	n/a	test	ward_and_allport	n/a	-1.0	39.0	n/a	n/a	feedback	s561
307.438	1.0	0	PA_without_intermediate	n/a	test	ward_and_allport	n/a	-1.0	39.0	n/a	n/a	ITI	s561
308.445	1.207	1	PA_with_intermediate	0,0,0,1,2,0,0,0,0	test	ward_and_allport	0,0,0,1,0,0,2,3,0	71.0	40.0	1.207	0,0,0,1,2,3,0,0,0	to_hand	s561
309.652	0.488	0	PA_with_intermediate	3,0,0,1,2,0,0,0,0	test	ward_and_allport	0,0,0,1,0,0,2,3,0	89.0	40.0	0.488	0,0,0,1,2,3,0,0,0	to_board	s561
310.147	0.308	0	PA_with_intermediate	3,0,0,1,0,0,0,0,0	test	ward_and_allport	0,0,0,1,0,0,2,3,0	71.0	40.0	0.308	0,0,0,1,2,3,0,0,0	to_hand	s561
310.457	0.324	0	PA_with_intermediate	3,0,0,1,0,0,2,0,0	test	ward_and_allport	0,0,0,1,0,0,2,3,0	82.0	40.0	0.324	0,0,0,1,2,3,0,0,0	to_board	s561
310.788	0.307	0	PA_with_intermediate	0,0,0,1,0,0,2,0,0	test	ward_and_allport	0,0,0,1,0,0,2,3,0	89.0	40.0	0.307	0,0,0,1,2,3,0,0,0	to_hand	s561
311.096	0.605	0	PA_with_intermediate	0,0,0,1,0,0,2,3,0	test	ward_and_allport	0,0,0,1,0,0,2,3,0	82.0	40.0	0.605	0,0,0,1,2,3,0,0,0	to_board	s561
311.709	1.0	0	PA_with_intermediate	n/a	test	ward_and_allport	n/a	-1.0	40.0	n/a	n/a	feedback	s561
312.709	1.544	0	PA_with_intermediate	n/a	test	ward_and_allport	n/a	-1.0	40.0	n/a	n/a	ITI	s561
314.26	0.795	1	PA_without_intermediate	0,0,0,1,2,0,0,0,0	test	ward_and_allport	2,0,0,0,0,0,3,1,0	71.0	41.0	0.795	0,0,0,1,2,3,0,0,0	to_hand	s561
315.056	0.304	0	PA_without_intermediate	0,0,0,1,2,0,3,0,0	test	ward_and_allport	2,0,0,0,0,0,3,1,0	82.0	41.0	0.304	0,0,0,1,2,3,0,0,0	to_board	s561
315.366	0.692	0	PA_without_intermediate	0,0,0,1,0,0,3,0,0	test	ward_and_allport	2,0,0,0,0,0,3,1,0	71.0	41.0	0.692	0,0,0,1,2,3,0,0,0	to_hand	s561
316.059	0.251	0	PA_without_intermediate	2,0,0,1,0,0,3,0,0	test	ward_and_allport	2,0,0,0,0,0,3,1,0	89.0	41.0	0.251	0,0,0,1,2,3,0,0,0	to_board	s561
316.317	0.347	0	PA_without_intermediate	2,0,0,0,0,0,3,0,0	test	ward_and_allport	2,0,0,0,0,0,3,1,0	71.0	41.0	0.347	0,0,0,1,2,3,0,0,0	to_hand	s561
316.665	0.305	0	PA_without_intermediate	2,0,0,0,0,0,3,1,0	test	ward_and_allport	2,0,0,0,0,0,3,1,0	82.0	41.0	0.305	0,0,0,1,2,3,0,0,0	to_board	s561
316.983	1.0	0	PA_without_intermediate	n/a	test	ward_and_allport	n/a	-1.0	41.0	n/a	n/a	feedback	s561
317.983	1.272	0	PA_without_intermediate	n/a	test	ward_and_allport	n/a	-1.0	41.0	n/a	n/a	ITI	s561
319.262	1.126	1	PA_with_intermediate	0,0,0,1,2,0,0,0,0	test	ward_and_allport	2,0,0,1,3,0,0,0,0	71.0	42.0	1.126	0,0,0,1,2,3,0,0,0	to_hand	s561
320.389	0.345	0	PA_with_intermediate	0,0,0,1,2,0,3,0,0	test	ward_and_allport	2,0,0,1,3,0,0,0,0	82.0	42.0	0.345	0,0,0,1,2,3,0,0,0	to_board	s561
320.74	0.486	0	PA_with_intermediate	0,0,0,1,0,0,3,0,0	test	ward_and_allport	2,0,0,1,3,0,0,0,0	71.0	42.0	0.486	0,0,0,1,2,3,0,0,0	to_hand	s561
321.227	0.36	0	PA_with_intermediate	2,0,0,1,0,0,3,0,0	test	ward_and_allport	2,0,0,1,3,0,0,0,0	89.0	42.0	0.36	0,0,0,1,2,3,0,0,0	to_board	s561
321.594	0.671	0	PA_with_intermediate	2,0,0,1,0,0,0,0,0	test	ward_and_allport	2,0,0,1,3,0,0,0,0	82.0	42.0	0.671	0,0,0,1,2,3,0,0,0	to_hand	s561
322.265	0.206	0	PA_with_intermediate	2,0,0,1,3,0,0,0,0	test	ward_and_allport	2,0,0,1,3,0,0,0,0	71.0	42.0	0.206	0,0,0,1,2,3,0,0,0	to_board	s561
322.479	1.0	0	PA_with_intermediate	n/a	test	ward_and_allport	n/a	-1.0	42.0	n/a	n/a	feedback	s561
323.479	3.04	0	PA_with_intermediate	n/a	test	ward_and_allport	n/a	-1.0	42.0	n/a	n/a	ITI	s561
326.525	0.92	1	PA_with_intermediate	0,0,0,0,0,0,1,2,0	test	ward_and_allport	0,0,0,2,3,0,1,0,0	82.0	43.0	0.92	0,0,0,0,0,0,1,2,3	to_hand	s561
327.446	0.45	0	PA_with_intermediate	3,0,0,0,0,0,1,2,0	test	ward_and_allport	0,0,0,2,3,0,1,0,0	89.0	43.0	0.45	0,0,0,0,0,0,1,2,3	to_board	s561
327.902	0.437	0	PA_with_intermediate	3,0,0,0,0,0,1,0,0	test	ward_and_allport	0,0,0,2,3,0,1,0,0	82.0	43.0	0.437	0,0,0,0,0,0,1,2,3	to_hand	s561
328.341	0.248	0	PA_with_intermediate	3,0,0,2,0,0,1,0,0	test	ward_and_allport	0,0,0,2,3,0,1,0,0	71.0	43.0	0.248	0,0,0,0,0,0,1,2,3	to_board	s561
328.596	0.393	0	PA_with_intermediate	0,0,0,2,0,0,1,0,0	test	ward_and_allport	0,0,0,2,3,0,1,0,0	89.0	43.0	0.393	0,0,0,0,0,0,1,2,3	to_hand	s561
328.989	0.28	0	PA_with_intermediate	0,0,0,2,3,0,1,0,0	test	ward_and_allport	0,0,0,2,3,0,1,0,0	71.0	43.0	0.28	0,0,0,0,0,0,1,2,3	to_board	s561
329.276	1.0	0	PA_with_intermediate	n/a	test	ward_and_allport	n/a	-1.0	43.0	n/a	n/a	feedback	s561
330.276	1.272	0	PA_with_intermediate	n/a	test	ward_and_allport	n/a	-1.0	43.0	n/a	n/a	ITI	s561
331.556	1.053	1	PA_with_intermediate	1,2,0,0,0,0,0,0,0	test	ward_and_allport	1,0,0,0,0,0,2,3,0	89.0	44.0	1.053	1,2,3,0,0,0,0,0,0	to_hand	s561
332.61	0.262	0	PA_with_intermediate	1,2,0,3,0,0,0,0,0	test	ward_and_allport	1,0,0,0,0,0,2,3,0	71.0	44.0	0.262	1,2,3,0,0,0,0,0,0	to_board	s561
332.878	0.487	0	PA_with_intermediate	1,0,0,3,0,0,0,0,0	test	ward_and_allport	1,0,0,0,0,0,2,3,0	89.0	44.0	0.487	1,2,3,0,0,0,0,0,0	to_hand	s561
333.366	0.219	0	PA_with_intermediate	1,0,0,3,0,0,2,0,0	test	ward_and_allport	1,0,0,0,0,0,2,3,0	82.0	44.0	0.219	1,2,3,0,0,0,0,0,0	to_board	s561
333.593	0.366	0	PA_with_intermediate	1,0,0,0,0,0,2,0,0	test	ward_and_allport	1,0,0,0,0,0,2,3,0	71.0	44.0	0.366	1,2,3,0,0,0,0,0,0	to_hand	s561
333.959	0.242	0	PA_with_intermediate	1,0,0,0,0,0,2,3,0	test	ward_and_allport	1,0,0,0,0,0,2,3,0	82.0	44.0	0.242	1,2,3,0,0,0,0,0,0	to_board	s561
334.21	1.0	0	PA_with_intermediate	n/a	test	ward_and_allport	n/a	-1.0	44.0	n/a	n/a	feedback	s561
335.21	1.136	0	PA_with_intermediate	n/a	test	ward_and_allport	n/a	-1.0	44.0	n/a	n/a	ITI	s561
341.357	0.96	1	PA_with_intermediate	0,0,0,0,0,0,1,2,0	test	ward_and_allport	2,0,0,0,0,0,1,3,0	82.0	45.0	0.96	0,0,0,0,0,0,1,2,3	to_hand	s561
342.319	0.438	0	PA_with_intermediate	0,0,0,3,0,0,1,2,0	test	ward_and_allport	2,0,0,0,0,0,1,3,0	71.0	45.0	0.438	0,0,0,0,0,0,1,2,3	to_board	s561
342.767	0.614	0	PA_with_intermediate	0,0,0,3,0,0,1,0,0	test	ward_and_allport	2,0,0,0,0,0,1,3,0	82.0	45.0	0.614	0,0,0,0,0,0,1,2,3	to_hand	s561
343.382	0.223	0	PA_with_intermediate	2,0,0,3,0,0,1,0,0	test	ward_and_allport	2,0,0,0,0,0,1,3,0	89.0	45.0	0.223	0,0,0,0,0,0,1,2,3	to_board	s561
343.617	0.351	0	PA_with_intermediate	2,0,0,0,0,0,1,0,0	test	ward_and_allport	2,0,0,0,0,0,1,3,0	71.0	45.0	0.351	0,0,0,0,0,0,1,2,3	to_hand	s561
343.969	0.228	0	PA_with_intermediate	2,0,0,0,0,0,1,3,0	test	ward_and_allport	2,0,0,0,0,0,1,3,0	82.0	45.0	0.228	0,0,0,0,0,0,1,2,3	to_board	s561
344.207	1.0	0	PA_with_intermediate	n/a	test	ward_and_allport	n/a	-1.0	45.0	n/a	n/a	feedback	s561
345.207	1.0	0	PA_with_intermediate	n/a	test	ward_and_allport	n/a	-1.0	45.0	n/a	n/a	ITI	s561
346.217	0.811	1	PA_with_intermediate	0,0,0,0,0,0,1,2,0	test	ward_and_allport	2,3,0,0,0,0,1,0,0	82.0	46.0	0.811	0,0,0,0,0,0,1,2,3	to_hand	s561
347.028	0.564	0	PA_with_intermediate	0,0,0,3,0,0,1,2,0	test	ward_and_allport	2,3,0,0,0,0,1,0,0	71.0	46.0	0.564	0,0,0,0,0,0,1,2,3	to_board	s561
347.6	0.344	0	PA_with_intermediate	0,0,0,3,0,0,1,0,0	test	ward_and_allport	2,3,0,0,0,0,1,0,0	82.0	46.0	0.344	0,0,0,0,0,0,1,2,3	to_hand	s561
347.945	0.215	0	PA_with_intermediate	2,0,0,3,0,0,1,0,0	test	ward_and_allport	2,3,0,0,0,0,1,0,0	89.0	46.0	0.215	0,0,0,0,0,0,1,2,3	to_board	s561
348.168	0.378	0	PA_with_intermediate	2,0,0,0,0,0,1,0,0	test	ward_and_allport	2,3,0,0,0,0,1,0,0	71.0	46.0	0.378	0,0,0,0,0,0,1,2,3	to_hand	s561
348.547	0.266	0	PA_with_intermediate	2,3,0,0,0,0,1,0,0	test	ward_and_allport	2,3,0,0,0,0,1,0,0	89.0	46.0	0.266	0,0,0,0,0,0,1,2,3	to_board	s561
348.822	1.0	0	PA_with_intermediate	n/a	test	ward_and_allport	n/a	-1.0	46.0	n/a	n/a	feedback	s561
349.822	1.0	0	PA_with_intermediate	n/a	test	ward_and_allport	n/a	-1.0	46.0	n/a	n/a	ITI	s561
350.83	0.905	1	PA_without_intermediate	0,0,0,1,2,0,0,0,0	test	ward_and_allport	3,1,0,0,0,0,2,0,0	71.0	47.0	0.905	0,0,0,1,2,3,0,0,0	to_hand	s561
351.737	0.249	0	PA_without_intermediate	3,0,0,1,2,0,0,0,0	test	ward_and_allport	3,1,0,0,0,0,2,0,0	89.0	47.0	0.249	0,0,0,1,2,3,0,0,0	to_board	s561
351.992	0.381	0	PA_without_intermediate	3,0,0,1,0,0,0,0,0	test	ward_and_allport	3,1,0,0,0,0,2,0,0	71.0	47.0	0.381	0,0,0,1,2,3,0,0,0	to_hand	s561
352.373	0.224	0	PA_without_intermediate	3,0,0,1,0,0,2,0,0	test	ward_and_allport	3,1,0,0,0,0,2,0,0	82.0	47.0	0.224	0,0,0,1,2,3,0,0,0	to_board	s561
352.605	0.34	0	PA_without_intermediate	3,0,0,0,0,0,2,0,0	test	ward_and_allport	3,1,0,0,0,0,2,0,0	71.0	47.0	0.34	0,0,0,1,2,3,0,0,0	to_hand	s561
352.946	0.24	0	PA_without_intermediate	3,1,0,0,0,0,2,0,0	test	ward_and_allport	3,1,0,0,0,0,2,0,0	89.0	47.0	0.24	0,0,0,1,2,3,0,0,0	to_board	s561
353.194	1.0	0	PA_without_intermediate	n/a	test	ward_and_allport	n/a	-1.0	47.0	n/a	n/a	feedback	s561
354.194	1.408	0	PA_without_intermediate	n/a	test	ward_and_allport	n/a	-1.0	47.0	n/a	n/a	ITI	s561
n/a	n/a	0	n/a	n/a	n/a	n/a	n/a	n/a	n/a	n/a	n/a	ITI	n/a
