onset	duration	EV	action	clicked_on_loss_card	experiment_exp_id	gain_amount	gain_probability	key_press	loss_amount	loss_probability	num_cards	num_click_in_round	num_loss_cards	risk	response_time	total_cards	trial_id	worker_id
-0.321	2.25	n/a	-1.0	n/a	columbia_card_task_fmri	n/a	n/a	-1.0	n/a	n/a	n/a	n/a	n/a	n/a	n/a	n/a	feedback	s561
1.929	0.204	n/a	-1.0	n/a	columbia_card_task_fmri	n/a	n/a	-1.0	n/a	n/a	n/a	n/a	n/a	n/a	n/a	n/a	ITI	s561
2.134	1.55	2.978228381096028	draw_card	1.0	columbia_card_task_fmri	15.0	0.8333333333333334	89.0	-70.0	0.1666666666666666	6.0	1.0	1.0	-0.3255287514298111	1.55	1.0	stim	s561
3.687	2.25	n/a	-1.0	n/a	columbia_card_task_fmri	n/a	n/a	-1.0	n/a	n/a	n/a	n/a	n/a	n/a	n/a	n/a	feedback	s561
5.937	0.272	n/a	-1.0	n/a	columbia_card_task_fmri	n/a	n/a	-1.0	n/a	n/a	n/a	n/a	n/a	n/a	n/a	n/a	ITI	s561
6.211	1.567	3.811561714429362	draw_card	0.0	columbia_card_task_fmri	17.0	0.8333333333333334	89.0	-75.0	0.1666666666666666	6.0	1.0	1.0	2.277709655848476	1.567	n/a	stim	s561
7.779	1.123	0.7448950477626957	draw_card	0.0	columbia_card_task_fmri	17.0	0.8	89.0	-75.0	0.2	6.0	2.0	1.0	4.786763903679564	1.123	n/a	stim	s561
8.902	1.34	-3.8551049522373058	draw_card	1.0	columbia_card_task_fmri	17.0	0.75	89.0	-75.0	0.25	6.0	3.0	1.0	7.8191781197489405	1.34	3.0	stim	s561
10.247	2.25	n/a	-1.0	n/a	columbia_card_task_fmri	n/a	n/a	-1.0	n/a	n/a	n/a	n/a	n/a	n/a	n/a	n/a	feedback	s561
12.497	0.136	n/a	-1.0	n/a	columbia_card_task_fmri	n/a	n/a	-1.0	n/a	n/a	n/a	n/a	n/a	n/a	n/a	n/a	ITI	s561
12.633	1.401	5.144895047762694	draw_card	0.0	columbia_card_task_fmri	24.0	0.75	89.0	-60.0	0.25	8.0	1.0	2.0	4.36056266921868	1.401	n/a	stim	s561
14.036	1.08	2.1448950477626942	draw_card	0.0	columbia_card_task_fmri	24.0	0.7142857142857143	89.0	-60.0	0.2857142857142857	8.0	2.0	2.0	5.932210569750772	1.08	n/a	stim	s561
15.117	1.342	-1.8551049522373055	draw_card	1.0	columbia_card_task_fmri	24.0	0.6666666666666667	89.0	-60.0	0.3333333333333333	8.0	3.0	2.0	7.580337319009693	1.342	3.0	stim	s561
16.464	2.25	n/a	-1.0	n/a	columbia_card_task_fmri	n/a	n/a	-1.0	n/a	n/a	n/a	n/a	n/a	n/a	n/a	n/a	feedback	s561
18.714	0.204	n/a	-1.0	n/a	columbia_card_task_fmri	n/a	n/a	-1.0	n/a	n/a	n/a	n/a	n/a	n/a	n/a	n/a	ITI	s561
18.921	1.651	5.144895047762694	draw_card	1.0	columbia_card_task_fmri	29.0	0.75	89.0	-75.0	0.25	8.0	1.0	2.0	13.008680826981866	1.651	1.0	stim	s561
20.574	2.25	n/a	-1.0	n/a	columbia_card_task_fmri	n/a	n/a	-1.0	n/a	n/a	n/a	n/a	n/a	n/a	n/a	n/a	feedback	s561
22.824	0.272	n/a	-1.0	n/a	columbia_card_task_fmri	n/a	n/a	-1.0	n/a	n/a	n/a	n/a	n/a	n/a	n/a	n/a	ITI	s561
23.097	0.968	0.9226728255404746	draw_card	0.0	columbia_card_task_fmri	17.0	0.7777777777777778	89.0	-65.0	0.2222222222222222	9.0	1.0	2.0	2.082374234085598	0.968	n/a	stim	s561
24.066	1.1	-1.3551049522373058	draw_card	0.0	columbia_card_task_fmri	17.0	0.75	89.0	-65.0	0.25	9.0	2.0	2.0	3.4960756315453168	1.1	n/a	stim	s561
25.167	1.116	-4.283676380808733	draw_card	0.0	columbia_card_task_fmri	17.0	0.7142857142857143	89.0	-65.0	0.2857142857142857	9.0	3.0	2.0	5.030177532209706	1.116	n/a	stim	s561
26.284	1.105	-8.188438285570637	draw_card	0.0	columbia_card_task_fmri	17.0	0.6666666666666667	89.0	-65.0	0.3333333333333333	9.0	4.0	2.0	6.638941945279058	1.105	n/a	stim	s561
27.39	1.365	-13.655104952237306	draw_card	0.0	columbia_card_task_fmri	17.0	0.6	89.0	-65.0	0.4	9.0	5.0	2.0	8.153161607837873	1.365	n/a	stim	s561
28.756	0.911	-21.855104952237305	end_round	0.0	columbia_card_task_fmri	17.0	0.5	71.0	-65.0	0.5	9.0	6.0	2.0	8.980375327582337	0.911	5.0	stim	s561
29.674	2.25	n/a	-1.0	n/a	columbia_card_task_fmri	n/a	n/a	-1.0	n/a	n/a	n/a	n/a	n/a	n/a	n/a	n/a	feedback	s561
31.924	0.272	n/a	-1.0	n/a	columbia_card_task_fmri	n/a	n/a	-1.0	n/a	n/a	n/a	n/a	n/a	n/a	n/a	n/a	ITI	s561
32.198	1.08	5.244895047762694	draw_card	0.0	columbia_card_task_fmri	14.0	0.9	89.0	-95.0	0.1	10.0	1.0	1.0	0.694578769646057	1.08	n/a	stim	s561
33.279	1.067	4.033783936651582	draw_card	0.0	columbia_card_task_fmri	14.0	0.8888888888888888	89.0	-95.0	0.1111111111111111	10.0	2.0	1.0	2.2467896770352382	1.067	n/a	stim	s561
34.348	1.112	2.5198950477626942	draw_card	0.0	columbia_card_task_fmri	14.0	0.875	89.0	-95.0	0.125	10.0	3.0	1.0	4.036425476166428	1.112	n/a	stim	s561
35.462	0.97	0.5734664763341231	draw_card	0.0	columbia_card_task_fmri	14.0	0.8571428571428572	89.0	-95.0	0.1428571428571428	10.0	4.0	1.0	6.126624483516537	0.97	n/a	stim	s561
36.434	1.321	-2.02177161890397	draw_card	0.0	columbia_card_task_fmri	14.0	0.8333333333333334	89.0	-95.0	0.1666666666666666	10.0	5.0	1.0	8.60279804660162	1.321	n/a	stim	s561
37.757	1.378	-5.655104952237305	draw_card	0.0	columbia_card_task_fmri	14.0	0.8	89.0	-95.0	0.2	10.0	6.0	1.0	11.577036094318167	1.378	n/a	stim	s561
39.136	0.761	-11.105104952237305	end_round	0.0	columbia_card_task_fmri	14.0	0.75	71.0	-95.0	0.25	10.0	7.0	1.0	15.17140503171565	0.761	6.0	stim	s561
39.9	2.25	n/a	-1.0	n/a	columbia_card_task_fmri	n/a	n/a	-1.0	n/a	n/a	n/a	n/a	n/a	n/a	n/a	n/a	feedback	s561
42.15	0.34	n/a	-1.0	n/a	columbia_card_task_fmri	n/a	n/a	-1.0	n/a	n/a	n/a	n/a	n/a	n/a	n/a	n/a	ITI	s561
42.492	1.424	1.1448950477626942	draw_card	1.0	columbia_card_task_fmri	15.0	0.8	89.0	-65.0	0.2	10.0	1.0	2.0	-0.0038874858960227	1.424	1.0	stim	s561
43.919	2.25	n/a	-1.0	n/a	columbia_card_task_fmri	n/a	n/a	-1.0	n/a	n/a	n/a	n/a	n/a	n/a	n/a	n/a	feedback	s561
46.169	0.204	n/a	-1.0	n/a	columbia_card_task_fmri	n/a	n/a	-1.0	n/a	n/a	n/a	n/a	n/a	n/a	n/a	n/a	ITI	s561
46.374	1.435	2.744895047762696	draw_card	0.0	columbia_card_task_fmri	17.0	0.8	89.0	-65.0	0.2	10.0	1.0	2.0	0.794364990120819	1.435	n/a	stim	s561
47.811	1.162	0.9226728255404746	draw_card	0.0	columbia_card_task_fmri	17.0	0.7777777777777778	89.0	-65.0	0.2222222222222222	10.0	2.0	2.0	2.082374234085598	1.162	n/a	stim	s561
48.974	1.266	-1.3551049522373058	draw_card	0.0	columbia_card_task_fmri	17.0	0.75	89.0	-65.0	0.25	10.0	3.0	2.0	3.4960756315453168	1.266	n/a	stim	s561
50.242	1.604	-4.283676380808733	draw_card	0.0	columbia_card_task_fmri	17.0	0.7142857142857143	89.0	-65.0	0.2857142857142857	10.0	4.0	2.0	5.030177532209706	1.604	n/a	stim	s561
51.848	1.778	-8.188438285570637	draw_card	1.0	columbia_card_task_fmri	17.0	0.6666666666666667	89.0	-65.0	0.3333333333333333	10.0	5.0	2.0	6.638941945279058	1.778	5.0	stim	s561
53.628	2.25	n/a	-1.0	n/a	columbia_card_task_fmri	n/a	n/a	-1.0	n/a	n/a	n/a	n/a	n/a	n/a	n/a	n/a	feedback	s561
55.878	0.068	n/a	-1.0	n/a	columbia_card_task_fmri	n/a	n/a	-1.0	n/a	n/a	n/a	n/a	n/a	n/a	n/a	n/a	ITI	s561
55.947	1.402	1.311561714429362	draw_card	0.0	columbia_card_task_fmri	13.0	0.8333333333333334	89.0	-70.0	0.1666666666666666	12.0	1.0	2.0	-1.069141111186184	1.402	n/a	stim	s561
57.351	1.233	0.0539859568536007	draw_card	0.0	columbia_card_task_fmri	13.0	0.8181818181818181	89.0	-70.0	0.1818181818181818	12.0	2.0	2.0	0.0087366558734842	1.233	n/a	stim	s561
58.586	1.431	-1.4551049522373054	draw_card	0.0	columbia_card_task_fmri	13.0	0.8	89.0	-70.0	0.2	12.0	3.0	2.0	1.1935227097779304	1.431	n/a	stim	s561
60.019	1.162	-3.2995493966817504	draw_card	0.0	columbia_card_task_fmri	13.0	0.7777777777777778	89.0	-70.0	0.2222222222222222	12.0	4.0	2.0	2.497303361649614	1.162	n/a	stim	s561
61.184	1.552	-5.605104952237306	draw_card	1.0	columbia_card_task_fmri	13.0	0.75	89.0	-70.0	0.25	12.0	5.0	2.0	3.928309907793349	1.552	5.0	stim	s561
62.742	2.25	n/a	-1.0	n/a	columbia_card_task_fmri	n/a	n/a	-1.0	n/a	n/a	n/a	n/a	n/a	n/a	n/a	n/a	feedback	s561
64.992	0.0	n/a	-1.0	n/a	columbia_card_task_fmri	n/a	n/a	-1.0	n/a	n/a	n/a	n/a	n/a	n/a	n/a	n/a	ITI	s561
64.994	1.309	1.311561714429362	draw_card	0.0	columbia_card_task_fmri	15.0	0.8333333333333334	89.0	-80.0	0.1666666666666666	12.0	1.0	2.0	3.3936310049743312	1.309	n/a	stim	s561
66.304	1.473	-0.1278322249645809	draw_card	1.0	columbia_card_task_fmri	15.0	0.8181818181818181	89.0	-80.0	0.1818181818181818	12.0	2.0	2.0	4.628022231330881	1.473	2.0	stim	s561
67.785	2.25	n/a	-1.0	n/a	columbia_card_task_fmri	n/a	n/a	-1.0	n/a	n/a	n/a	n/a	n/a	n/a	n/a	n/a	feedback	s561
70.035	0.408	n/a	-1.0	n/a	columbia_card_task_fmri	n/a	n/a	-1.0	n/a	n/a	n/a	n/a	n/a	n/a	n/a	n/a	ITI	s561
70.445	1.583	0.3448950477626953	draw_card	1.0	columbia_card_task_fmri	14.0	0.8	89.0	-65.0	0.2	15.0	1.0	3.0	-0.4029806553814623	1.583	1.0	stim	s561
72.031	2.25	n/a	-1.0	n/a	columbia_card_task_fmri	n/a	n/a	-1.0	n/a	n/a	n/a	n/a	n/a	n/a	n/a	n/a	feedback	s561
74.281	0.204	n/a	-1.0	n/a	columbia_card_task_fmri	n/a	n/a	-1.0	n/a	n/a	n/a	n/a	n/a	n/a	n/a	n/a	ITI	s561
74.487	2.655	0.2698950477626942	draw_card	0.0	columbia_card_task_fmri	1.0	0.9375	89.0	-45.0	0.0625	16.0	1.0	1.0	-20.7361605050731	2.655	n/a	stim	s561
77.144	1.061	0.0782283810960278	draw_card	0.0	columbia_card_task_fmri	1.0	0.9333333333333332	89.0	-45.0	0.0666666666666666	16.0	2.0	1.0	-20.402525228505883	1.061	n/a	stim	s561
78.206	0.872	-0.1408192379515913	draw_card	0.0	columbia_card_task_fmri	1.0	0.9285714285714286	89.0	-45.0	0.0714285714285714	16.0	3.0	1.0	-20.036275908342382	0.872	n/a	stim	s561
79.08	0.666	-0.3935664906988441	draw_card	0.0	columbia_card_task_fmri	1.0	0.9230769230769232	89.0	-45.0	0.0769230769230769	16.0	4.0	1.0	-19.63185325764954	0.666	n/a	stim	s561
79.749	0.718	-0.6884382855706392	draw_card	0.0	columbia_card_task_fmri	1.0	0.9166666666666666	89.0	-45.0	0.0833333333333333	16.0	5.0	1.0	-19.182302538497154	0.718	n/a	stim	s561
80.468	0.525	-1.0369231340554874	draw_card	0.0	columbia_card_task_fmri	1.0	0.9090909090909092	89.0	-45.0	0.0909090909090909	16.0	6.0	1.0	-18.67880291804195	0.525	n/a	stim	s561
80.994	0.521	-1.4551049522373058	draw_card	0.0	columbia_card_task_fmri	1.0	0.9	89.0	-45.0	0.1	16.0	7.0	1.0	-18.10999813043686	0.521	n/a	stim	s561
81.517	0.466	-1.9662160633484165	draw_card	0.0	columbia_card_task_fmri	1.0	0.8888888888888888	89.0	-45.0	0.1111111111111111	16.0	8.0	1.0	-17.46103288675758	0.466	n/a	stim	s561
81.985	0.39	-2.6051049522373058	draw_card	0.0	columbia_card_task_fmri	1.0	0.875	89.0	-45.0	0.125	16.0	9.0	1.0	-16.712160234472684	0.39	n/a	stim	s561
82.376	0.484	-3.426533523665877	draw_card	0.0	columbia_card_task_fmri	1.0	0.8571428571428572	89.0	-45.0	0.1428571428571428	16.0	10.0	1.0	-15.8367680504888	0.484	n/a	stim	s561
82.861	0.443	-4.521771618903973	draw_card	0.0	columbia_card_task_fmri	1.0	0.8333333333333334	89.0	-45.0	0.1666666666666666	16.0	11.0	1.0	-14.798843289174387	0.443	n/a	stim	s561
83.306	0.351	-6.055104952237305	draw_card	0.0	columbia_card_task_fmri	1.0	0.8	89.0	-45.0	0.2	16.0	12.0	1.0	-13.551097126908347	0.351	n/a	stim	s561
83.66	0.319	-8.355104952237305	draw_card	0.0	columbia_card_task_fmri	1.0	0.75	89.0	-45.0	0.25	16.0	13.0	1.0	-12.04195499196262	0.319	n/a	stim	s561
83.981	0.346	-12.18843828557064	draw_card	0.0	columbia_card_task_fmri	1.0	0.6666666666666667	89.0	-45.0	0.3333333333333333	16.0	14.0	1.0	-10.285261885728278	0.346	n/a	stim	s561
84.329	0.314	-19.855104952237305	draw_card	0.0	columbia_card_task_fmri	1.0	0.5	89.0	-45.0	0.5	16.0	15.0	1.0	-8.975894918605857	0.314	n/a	stim	s561
84.645	0.326	-42.855104952237305	draw_card	1.0	columbia_card_task_fmri	1.0	0.0	89.0	-45.0	1.0	16.0	16.0	1.0	-29.930795860546556	0.326	16.0	stim	s561
84.974	2.25	n/a	-1.0	n/a	columbia_card_task_fmri	n/a	n/a	-1.0	n/a	n/a	n/a	n/a	n/a	n/a	n/a	n/a	feedback	s561
87.224	0.136	n/a	-1.0	n/a	columbia_card_task_fmri	n/a	n/a	-1.0	n/a	n/a	n/a	n/a	n/a	n/a	n/a	n/a	ITI	s561
87.362	3.457	1.2073950477626942	draw_card	0.0	columbia_card_task_fmri	15.0	0.8125	89.0	-70.0	0.1875	16.0	1.0	3.0	1.1701233923800416	3.457	n/a	stim	s561
90.822	1.228	0.1448950477626942	draw_card	1.0	columbia_card_task_fmri	15.0	0.8	89.0	-70.0	0.2	16.0	2.0	3.0	1.991897423797809	1.228	2.0	stim	s561
92.056	2.25	n/a	-1.0	n/a	columbia_card_task_fmri	n/a	n/a	-1.0	n/a	n/a	n/a	n/a	n/a	n/a	n/a	n/a	feedback	s561
94.306	0.34	n/a	-1.0	n/a	columbia_card_task_fmri	n/a	n/a	-1.0	n/a	n/a	n/a	n/a	n/a	n/a	n/a	n/a	ITI	s561
94.648	1.656	8.144895047762695	draw_card	0.0	columbia_card_task_fmri	30.0	0.7	89.0	-50.0	0.3	10.0	1.0	3.0	4.647606530318413	1.656	n/a	stim	s561
96.305	2.278	5.4782283810960335	draw_card	1.0	columbia_card_task_fmri	30.0	0.6666666666666667	89.0	-50.0	0.3333333333333333	10.0	2.0	3.0	5.697617088054258	2.278	2.0	stim	s561
98.588	2.25	n/a	-1.0	n/a	columbia_card_task_fmri	n/a	n/a	-1.0	n/a	n/a	n/a	n/a	n/a	n/a	n/a	n/a	feedback	s561
100.838	0.068	n/a	-1.0	n/a	columbia_card_task_fmri	n/a	n/a	-1.0	n/a	n/a	n/a	n/a	n/a	n/a	n/a	n/a	ITI	s561
100.909	1.551	7.544895047762695	draw_card	0.0	columbia_card_task_fmri	17.0	0.8666666666666667	89.0	-70.0	0.1333333333333333	15.0	1.0	2.0	-2.423699832398057	1.551	n/a	stim	s561
102.462	1.478	6.716323619191267	draw_card	0.0	columbia_card_task_fmri	17.0	0.8571428571428572	89.0	-70.0	0.1428571428571428	15.0	2.0	2.0	-1.5565673740966517	1.478	n/a	stim	s561
103.941	1.174	5.760279663147309	draw_card	0.0	columbia_card_task_fmri	17.0	0.8461538461538461	89.0	-70.0	0.1538461538461538	15.0	3.0	2.0	-0.6127891948090642	1.174	n/a	stim	s561
105.118	1.532	4.644895047762696	draw_card	0.0	columbia_card_task_fmri	17.0	0.8333333333333334	89.0	-70.0	0.1666666666666666	15.0	4.0	2.0	0.4181635070400844	1.532	n/a	stim	s561
106.652	1.491	3.326713229580874	draw_card	0.0	columbia_card_task_fmri	17.0	0.8181818181818181	89.0	-70.0	0.1818181818181818	15.0	5.0	2.0	1.548221965041428	1.491	n/a	stim	s561
108.146	1.485	1.7448950477626957	draw_card	0.0	columbia_card_task_fmri	17.0	0.8	89.0	-70.0	0.2	15.0	6.0	2.0	2.7903466463931323	1.485	n/a	stim	s561
109.633	2.037	-0.1884382855706379	draw_card	1.0	columbia_card_task_fmri	17.0	0.7777777777777778	89.0	-70.0	0.2222222222222222	15.0	7.0	2.0	4.157205704963872	2.037	7.0	stim	s561
111.673	2.25	n/a	-1.0	n/a	columbia_card_task_fmri	n/a	n/a	-1.0	n/a	n/a	n/a	n/a	n/a	n/a	n/a	n/a	feedback	s561
113.923	0.34	n/a	-1.0	n/a	columbia_card_task_fmri	n/a	n/a	-1.0	n/a	n/a	n/a	n/a	n/a	n/a	n/a	n/a	ITI	s561
114.265	1.668	2.7698950477626942	draw_card	0.0	columbia_card_task_fmri	7.0	0.9375	89.0	-95.0	0.0625	16.0	1.0	1.0	-7.292431442171289	1.668	n/a	stim	s561
115.935	1.558	2.3448950477626944	draw_card	0.0	columbia_card_task_fmri	7.0	0.9333333333333332	89.0	-95.0	0.0666666666666666	16.0	2.0	1.0	-6.542172256037354	1.558	n/a	stim	s561
117.495	1.592	1.8591807620484089	draw_card	1.0	columbia_card_task_fmri	7.0	0.9285714285714286	89.0	-95.0	0.0714285714285714	16.0	3.0	1.0	-5.719253378633262	1.592	3.0	stim	s561
119.093	2.25	n/a	-1.0	n/a	columbia_card_task_fmri	n/a	n/a	-1.0	n/a	n/a	n/a	n/a	n/a	n/a	n/a	n/a	feedback	s561
121.343	0.136	n/a	-1.0	n/a	columbia_card_task_fmri	n/a	n/a	-1.0	n/a	n/a	n/a	n/a	n/a	n/a	n/a	n/a	ITI	s561
121.48	1.827	4.332395047762694	draw_card	0.0	columbia_card_task_fmri	9.0	0.9375	89.0	-100.0	0.0625	16.0	1.0	1.0	-5.6039527992255	1.827	n/a	stim	s561
123.309	1.27	3.878228381096028	draw_card	0.0	columbia_card_task_fmri	9.0	0.9333333333333332	89.0	-100.0	0.0666666666666666	16.0	2.0	1.0	-4.80184268353284	1.27	n/a	stim	s561
124.581	1.418	3.359180762048409	draw_card	0.0	columbia_card_task_fmri	9.0	0.9285714285714286	89.0	-100.0	0.0714285714285714	16.0	3.0	1.0	-3.9220750664675705	1.418	n/a	stim	s561
126.002	1.317	2.76027966314731	draw_card	0.0	columbia_card_task_fmri	9.0	0.9230769230769232	89.0	-100.0	0.0769230769230769	16.0	4.0	1.0	-2.9514419644984398	1.317	n/a	stim	s561
127.322	1.399	2.061561714429362	draw_card	0.0	columbia_card_task_fmri	9.0	0.9166666666666666	89.0	-100.0	0.0833333333333333	16.0	5.0	1.0	-1.8734233832573288	1.399	n/a	stim	s561
128.723	1.264	1.2358041386717842	draw_card	0.0	columbia_card_task_fmri	9.0	0.9090909090909092	89.0	-100.0	0.0909090909090909	16.0	6.0	1.0	-0.6670710530498027	1.264	n/a	stim	s561
129.989	1.429	0.2448950477626938	draw_card	0.0	columbia_card_task_fmri	9.0	0.9	89.0	-100.0	0.1	16.0	7.0	1.0	0.694578769646057	1.429	n/a	stim	s561
131.42	1.521	-0.9662160633484164	draw_card	0.0	columbia_card_task_fmri	9.0	0.8888888888888888	89.0	-100.0	0.1111111111111111	16.0	8.0	1.0	2.2467896770352382	1.521	n/a	stim	s561
132.944	1.705	-2.4801049522373058	draw_card	1.0	columbia_card_task_fmri	9.0	0.875	89.0	-100.0	0.125	16.0	9.0	1.0	4.036425476166428	1.705	9.0	stim	s561
134.655	2.25	n/a	-1.0	n/a	columbia_card_task_fmri	n/a	n/a	-1.0	n/a	n/a	n/a	n/a	n/a	n/a	n/a	n/a	feedback	s561
136.905	0.068	n/a	-1.0	n/a	columbia_card_task_fmri	n/a	n/a	-1.0	n/a	n/a	n/a	n/a	n/a	n/a	n/a	n/a	ITI	s561
136.976	1.931	5.269895047762694	draw_card	0.0	columbia_card_task_fmri	15.0	0.875	89.0	-80.0	0.125	16.0	1.0	2.0	-0.5842643009623387	1.931	n/a	stim	s561
138.91	1.368	4.478228381096028	draw_card	0.0	columbia_card_task_fmri	15.0	0.8666666666666667	89.0	-80.0	0.1333333333333333	16.0	2.0	2.0	0.2892509834168351	1.368	n/a	stim	s561
140.28	1.205	3.573466476334125	draw_card	0.0	columbia_card_task_fmri	15.0	0.8571428571428572	89.0	-80.0	0.1428571428571428	16.0	3.0	2.0	1.2365082923175876	1.205	n/a	stim	s561
141.488	1.33	2.529510432378077	draw_card	0.0	columbia_card_task_fmri	15.0	0.8461538461538461	89.0	-80.0	0.1538461538461538	16.0	4.0	2.0	2.267469193402917	1.33	n/a	stim	s561
142.821	1.232	1.311561714429362	draw_card	1.0	columbia_card_task_fmri	15.0	0.8333333333333334	89.0	-80.0	0.1666666666666666	16.0	5.0	2.0	3.3936310049743312	1.232	5.0	stim	s561
144.058	2.25	n/a	-1.0	n/a	columbia_card_task_fmri	n/a	n/a	-1.0	n/a	n/a	n/a	n/a	n/a	n/a	n/a	n/a	feedback	s561
146.308	0.068	n/a	-1.0	n/a	columbia_card_task_fmri	n/a	n/a	-1.0	n/a	n/a	n/a	n/a	n/a	n/a	n/a	n/a	ITI	s561
146.377	1.105	7.394895047762694	draw_card	0.0	columbia_card_task_fmri	16.0	0.875	89.0	-70.0	0.125	16.0	1.0	2.0	-3.5531020572614374	1.105	n/a	stim	s561
147.484	1.17	6.678228381096028	draw_card	0.0	columbia_card_task_fmri	16.0	0.8666666666666667	89.0	-70.0	0.1333333333333333	16.0	2.0	2.0	-2.762733642710714	1.17	n/a	stim	s561
148.657	1.22	5.8591807620484095	draw_card	0.0	columbia_card_task_fmri	16.0	0.8571428571428572	89.0	-70.0	0.1428571428571428	16.0	3.0	2.0	-1.9056191843782384	1.22	n/a	stim	s561
149.879	1.305	4.914125816993463	draw_card	0.0	columbia_card_task_fmri	16.0	0.8461538461538461	89.0	-70.0	0.1538461538461538	16.0	4.0	2.0	-0.9727413026174894	1.305	n/a	stim	s561
151.187	1.201	3.811561714429362	draw_card	0.0	columbia_card_task_fmri	16.0	0.8333333333333334	89.0	-70.0	0.1666666666666666	16.0	5.0	2.0	0.0463077372940361	1.201	n/a	stim	s561
152.391	1.287	2.508531411399056	end_round	0.0	columbia_card_task_fmri	16.0	0.8181818181818181	71.0	-70.0	0.1818181818181818	16.0	6.0	2.0	1.1633220091134788	1.287	5.0	stim	s561
153.682	2.25	n/a	-1.0	n/a	columbia_card_task_fmri	n/a	n/a	-1.0	n/a	n/a	n/a	n/a	n/a	n/a	n/a	n/a	feedback	s561
155.932	0.068	n/a	-1.0	n/a	columbia_card_task_fmri	n/a	n/a	-1.0	n/a	n/a	n/a	n/a	n/a	n/a	n/a	n/a	ITI	s561
156.003	1.169	8.707395047762695	draw_card	0.0	columbia_card_task_fmri	30.0	0.6875	89.0	-45.0	0.3125	16.0	1.0	5.0	2.753846391458559	1.169	n/a	stim	s561
157.175	1.682	7.144895047762698	draw_card	0.0	columbia_card_task_fmri	30.0	0.6666666666666667	89.0	-45.0	0.3333333333333333	16.0	2.0	5.0	3.3446503487412897	1.682	n/a	stim	s561
158.867	2.641	5.359180762048406	end_round	0.0	columbia_card_task_fmri	30.0	0.6428571428571428	71.0	-45.0	0.3571428571428571	16.0	3.0	5.0	3.925068200334138	2.641	2.0	stim	s561
161.512	2.25	n/a	-1.0	n/a	columbia_card_task_fmri	n/a	n/a	-1.0	n/a	n/a	n/a	n/a	n/a	n/a	n/a	n/a	feedback	s561
163.762	0.136	n/a	-1.0	n/a	columbia_card_task_fmri	n/a	n/a	-1.0	n/a	n/a	n/a	n/a	n/a	n/a	n/a	n/a	ITI	s561
163.9	1.919	0.4782283810960281	draw_card	1.0	columbia_card_task_fmri	13.0	0.8333333333333334	89.0	-75.0	0.1666666666666666	6.0	1.0	1.0	0.7900379033491447	1.919	1.0	stim	s561
165.822	2.25	n/a	-1.0	n/a	columbia_card_task_fmri	n/a	n/a	-1.0	n/a	n/a	n/a	n/a	n/a	n/a	n/a	n/a	feedback	s561
168.072	0.0	n/a	-1.0	n/a	columbia_card_task_fmri	n/a	n/a	-1.0	n/a	n/a	n/a	n/a	n/a	n/a	n/a	n/a	ITI	s561
168.076	1.376	2.144895047762696	draw_card	0.0	columbia_card_task_fmri	14.0	0.8333333333333334	89.0	-70.0	0.1666666666666666	6.0	1.0	1.0	-0.6973452736854071	1.376	n/a	stim	s561
169.454	1.273	-0.6551049522373047	draw_card	0.0	columbia_card_task_fmri	14.0	0.8	89.0	-70.0	0.2	6.0	2.0	1.0	1.5927004219268426	1.273	n/a	stim	s561
170.73	1.341	-4.855104952237306	draw_card	0.0	columbia_card_task_fmri	14.0	0.75	89.0	-70.0	0.25	6.0	3.0	1.0	4.36056266921868	1.341	n/a	stim	s561
172.073	2.169	-11.855104952237305	end_round	0.0	columbia_card_task_fmri	14.0	0.6666666666666667	71.0	-70.0	0.3333333333333333	6.0	4.0	1.0	7.580337319009693	2.169	3.0	stim	s561
174.246	2.25	n/a	-1.0	n/a	columbia_card_task_fmri	n/a	n/a	-1.0	n/a	n/a	n/a	n/a	n/a	n/a	n/a	n/a	feedback	s561
176.496	0.136	n/a	-1.0	n/a	columbia_card_task_fmri	n/a	n/a	-1.0	n/a	n/a	n/a	n/a	n/a	n/a	n/a	n/a	ITI	s561
176.634	1.402	2.144895047762696	draw_card	0.0	columbia_card_task_fmri	16.0	0.8333333333333334	89.0	-80.0	0.1666666666666666	6.0	1.0	1.0	3.7656340499831984	1.402	n/a	stim	s561
178.039	1.364	-1.055104952237305	draw_card	0.0	columbia_card_task_fmri	16.0	0.8	89.0	-80.0	0.2	6.0	2.0	1.0	6.384165757647232	1.364	n/a	stim	s561
179.406	1.361	-5.855104952237306	draw_card	0.0	columbia_card_task_fmri	16.0	0.75	89.0	-80.0	0.25	6.0	3.0	1.0	9.548828005017748	1.361	n/a	stim	s561
180.77	1.139	-13.8551049522373	end_round	0.0	columbia_card_task_fmri	16.0	0.6666666666666667	71.0	-80.0	0.3333333333333333	6.0	4.0	1.0	13.229944224264685	1.139	3.0	stim	s561
181.915	2.25	n/a	-1.0	n/a	columbia_card_task_fmri	n/a	n/a	-1.0	n/a	n/a	n/a	n/a	n/a	n/a	n/a	n/a	feedback	s561
184.165	0.34	n/a	-1.0	n/a	columbia_card_task_fmri	n/a	n/a	-1.0	n/a	n/a	n/a	n/a	n/a	n/a	n/a	n/a	ITI	s561
184.508	1.438	4.644895047762696	draw_card	0.0	columbia_card_task_fmri	17.0	0.8333333333333334	89.0	-70.0	0.1666666666666666	6.0	1.0	1.0	0.4181635070400844	1.438	n/a	stim	s561
185.949	1.277	1.7448950477626957	draw_card	0.0	columbia_card_task_fmri	17.0	0.8	89.0	-70.0	0.2	6.0	2.0	1.0	2.7903466463931323	1.277	n/a	stim	s561
187.228	1.928	-2.6051049522373058	draw_card	0.0	columbia_card_task_fmri	17.0	0.75	89.0	-70.0	0.25	6.0	3.0	1.0	5.657425511699273	1.928	n/a	stim	s561
189.159	1.272	-9.855104952237305	end_round	0.0	columbia_card_task_fmri	17.0	0.6666666666666667	71.0	-70.0	0.3333333333333333	6.0	4.0	1.0	8.992551990138658	1.272	3.0	stim	s561
190.437	2.25	n/a	-1.0	n/a	columbia_card_task_fmri	n/a	n/a	-1.0	n/a	n/a	n/a	n/a	n/a	n/a	n/a	n/a	feedback	s561
192.687	0.408	n/a	-1.0	n/a	columbia_card_task_fmri	n/a	n/a	-1.0	n/a	n/a	n/a	n/a	n/a	n/a	n/a	n/a	ITI	s561
193.099	1.429	4.644895047762694	draw_card	0.0	columbia_card_task_fmri	25.0	0.75	89.0	-65.0	0.25	8.0	1.0	2.0	6.954433031615878	1.429	n/a	stim	s561
194.53	1.512	1.4306093334769825	draw_card	0.0	columbia_card_task_fmri	25.0	0.7142857142857143	89.0	-65.0	0.2857142857142857	8.0	2.0	2.0	8.638702114990416	1.512	n/a	stim	s561
196.045	3.965	-2.855104952237302	end_round	0.0	columbia_card_task_fmri	25.0	0.6666666666666667	71.0	-65.0	0.3333333333333333	8.0	3.0	2.0	10.40489965686436	3.965	2.0	stim	s561
200.017	2.25	n/a	-1.0	n/a	columbia_card_task_fmri	n/a	n/a	-1.0	n/a	n/a	n/a	n/a	n/a	n/a	n/a	n/a	feedback	s561
202.267	0.136	n/a	-1.0	n/a	columbia_card_task_fmri	n/a	n/a	-1.0	n/a	n/a	n/a	n/a	n/a	n/a	n/a	n/a	ITI	s561
202.407	2.603	4.644895047762694	draw_card	0.0	columbia_card_task_fmri	30.0	0.75	89.0	-80.0	0.25	8.0	1.0	2.0	15.60397535274921	2.603	n/a	stim	s561
205.013	1.553	0.7163236191912707	draw_card	0.0	columbia_card_task_fmri	30.0	0.7142857142857143	89.0	-80.0	0.2857142857142857	8.0	2.0	2.0	17.663512240393864	1.553	n/a	stim	s561
206.569	1.726	-4.521771618903967	draw_card	0.0	columbia_card_task_fmri	30.0	0.6666666666666667	89.0	-80.0	0.3333333333333333	8.0	3.0	2.0	19.8231478422332	1.726	n/a	stim	s561
208.298	1.185	-11.855104952237305	end_round	0.0	columbia_card_task_fmri	30.0	0.6	71.0	-80.0	0.4	8.0	4.0	2.0	21.855752376345364	1.185	3.0	stim	s561
209.49	2.25	n/a	-1.0	n/a	columbia_card_task_fmri	n/a	n/a	-1.0	n/a	n/a	n/a	n/a	n/a	n/a	n/a	n/a	feedback	s561
211.74	0.136	n/a	-1.0	n/a	columbia_card_task_fmri	n/a	n/a	-1.0	n/a	n/a	n/a	n/a	n/a	n/a	n/a	n/a	ITI	s561
211.879	1.79	4.344895047762695	draw_card	0.0	columbia_card_task_fmri	13.0	0.9	89.0	-95.0	0.1	10.0	1.0	1.0	0.3952280002451687	1.79	n/a	stim	s561
213.673	1.508	3.1448950477626942	draw_card	0.0	columbia_card_task_fmri	13.0	0.8888888888888888	89.0	-95.0	0.1111111111111111	10.0	2.0	1.0	1.933139926724131	1.508	n/a	stim	s561
215.183	2.04	1.6448950477626942	draw_card	0.0	columbia_card_task_fmri	13.0	0.875	89.0	-95.0	0.125	10.0	3.0	1.0	3.706295827559913	2.04	n/a	stim	s561
217.227	1.477	-0.2836763808087328	draw_card	0.0	columbia_card_task_fmri	13.0	0.8571428571428572	89.0	-95.0	0.1428571428571428	10.0	4.0	1.0	5.777254455626448	1.477	n/a	stim	s561
218.706	1.535	-2.855104952237304	draw_card	0.0	columbia_card_task_fmri	13.0	0.8333333333333334	89.0	-95.0	0.1666666666666666	10.0	5.0	1.0	8.230643268416834	1.535	n/a	stim	s561
220.245	1.537	-6.455104952237305	draw_card	1.0	columbia_card_task_fmri	13.0	0.8	89.0	-95.0	0.2	10.0	6.0	1.0	11.177523709403468	1.537	6.0	stim	s561
221.787	2.25	n/a	-1.0	n/a	columbia_card_task_fmri	n/a	n/a	-1.0	n/a	n/a	n/a	n/a	n/a	n/a	n/a	n/a	feedback	s561
224.037	0.0	n/a	-1.0	n/a	columbia_card_task_fmri	n/a	n/a	-1.0	n/a	n/a	n/a	n/a	n/a	n/a	n/a	n/a	ITI	s561
224.039	1.5	5.744895047762694	draw_card	0.0	columbia_card_task_fmri	14.0	0.9	89.0	-90.0	0.1	10.0	1.0	1.0	-0.8020506538406771	1.5	n/a	stim	s561
225.541	1.273	4.589339492207137	draw_card	0.0	columbia_card_task_fmri	14.0	0.8888888888888888	89.0	-90.0	0.1111111111111111	10.0	2.0	1.0	0.6786597698245416	1.273	n/a	stim	s561
226.817	1.344	3.1448950477626942	draw_card	0.0	columbia_card_task_fmri	14.0	0.875	89.0	-90.0	0.125	10.0	3.0	1.0	2.385890233099758	1.344	n/a	stim	s561
228.165	1.162	1.2877521906198384	draw_card	1.0	columbia_card_task_fmri	14.0	0.8571428571428572	89.0	-90.0	0.1428571428571428	10.0	4.0	1.0	4.379881203937508	1.162	4.0	stim	s561
229.332	2.25	n/a	-1.0	n/a	columbia_card_task_fmri	n/a	n/a	-1.0	n/a	n/a	n/a	n/a	n/a	n/a	n/a	n/a	feedback	s561
231.582	0.068	n/a	-1.0	n/a	columbia_card_task_fmri	n/a	n/a	-1.0	n/a	n/a	n/a	n/a	n/a	n/a	n/a	n/a	ITI	s561
231.653	0.539	0.944895047762695	draw_card	0.0	columbia_card_task_fmri	16.0	0.8	89.0	-70.0	0.2	10.0	1.0	2.0	2.3911130451459783	0.539	n/a	stim	s561
232.194	1.304	-0.9662160633484164	draw_card	1.0	columbia_card_task_fmri	16.0	0.7777777777777778	89.0	-70.0	0.2222222222222222	10.0	2.0	2.0	3.7422035359519583	1.304	2.0	stim	s561
233.504	2.25	n/a	-1.0	n/a	columbia_card_task_fmri	n/a	n/a	-1.0	n/a	n/a	n/a	n/a	n/a	n/a	n/a	n/a	feedback	s561
235.754	0.0	n/a	-1.0	n/a	columbia_card_task_fmri	n/a	n/a	-1.0	n/a	n/a	n/a	n/a	n/a	n/a	n/a	n/a	ITI	s561
235.758	2.553	0.2282283810960281	draw_card	0.0	columbia_card_task_fmri	7.0	0.9166666666666666	89.0	-100.0	0.0833333333333333	12.0	1.0	1.0	-2.424772479788256	2.553	n/a	stim	s561
238.314	1.537	-0.5823776795100342	draw_card	0.0	columbia_card_task_fmri	7.0	0.9090909090909092	89.0	-100.0	0.0909090909090909	12.0	2.0	1.0	-1.240663392943624	1.537	n/a	stim	s561
239.853	1.23	-1.555104952237306	draw_card	0.0	columbia_card_task_fmri	7.0	0.9	89.0	-100.0	0.1	12.0	3.0	1.0	0.0958893258961737	1.23	n/a	stim	s561
241.087	1.42	-2.743993841126195	draw_card	0.0	columbia_card_task_fmri	7.0	0.8888888888888888	89.0	-100.0	0.1111111111111111	12.0	4.0	1.0	1.619501728989654	1.42	n/a	stim	s561
242.509	1.273	-4.230104952237306	draw_card	0.0	columbia_card_task_fmri	7.0	0.875	89.0	-100.0	0.125	12.0	5.0	1.0	3.3761771632877213	1.273	n/a	stim	s561
243.786	1.787	-6.140819237951591	draw_card	0.0	columbia_card_task_fmri	7.0	0.8571428571428572	89.0	-100.0	0.1428571428571428	12.0	6.0	1.0	5.427894815096664	1.787	n/a	stim	s561
245.575	2.034	-8.688438285570637	draw_card	0.0	columbia_card_task_fmri	7.0	0.8333333333333334	89.0	-100.0	0.1666666666666666	12.0	7.0	1.0	7.858498249038192	2.034	n/a	stim	s561
247.613	0.891	-12.255104952237303	end_round	0.0	columbia_card_task_fmri	7.0	0.8	71.0	-100.0	0.2	12.0	8.0	1.0	10.778020421818468	0.891	7.0	stim	s561
248.51	2.25	n/a	-1.0	n/a	columbia_card_task_fmri	n/a	n/a	-1.0	n/a	n/a	n/a	n/a	n/a	n/a	n/a	n/a	feedback	s561
250.76	0.0	n/a	-1.0	n/a	columbia_card_task_fmri	n/a	n/a	-1.0	n/a	n/a	n/a	n/a	n/a	n/a	n/a	n/a	ITI	s561
250.763	1.438	0.4782283810960299	draw_card	0.0	columbia_card_task_fmri	14.0	0.8333333333333334	89.0	-80.0	0.1666666666666666	12.0	1.0	2.0	3.0216422808112497	1.438	n/a	stim	s561
252.205	1.407	-0.9460140431463993	draw_card	0.0	columbia_card_task_fmri	14.0	0.8181818181818181	89.0	-80.0	0.1818181818181818	12.0	2.0	2.0	4.242993756166861	1.407	n/a	stim	s561
253.615	1.515	-2.6551049522373047	draw_card	0.0	columbia_card_task_fmri	14.0	0.8	89.0	-80.0	0.2	12.0	3.0	2.0	5.585437258089549	1.515	n/a	stim	s561
255.133	1.57	-4.743993841126195	draw_card	0.0	columbia_card_task_fmri	14.0	0.7777777777777778	89.0	-80.0	0.2222222222222222	12.0	4.0	2.0	7.062659226936958	1.57	n/a	stim	s561
256.707	1.499	-7.355104952237306	draw_card	0.0	columbia_card_task_fmri	14.0	0.75	89.0	-80.0	0.25	12.0	5.0	2.0	8.683977573732122	1.499	n/a	stim	s561
258.21	1.768	-10.71224780938016	draw_card	0.0	columbia_card_task_fmri	14.0	0.7142857142857143	89.0	-80.0	0.2857142857142857	12.0	6.0	2.0	10.443315205290888	1.768	n/a	stim	s561
259.981	1.091	-15.188438285570632	end_round	0.0	columbia_card_task_fmri	14.0	0.6666666666666667	71.0	-80.0	0.3333333333333333	12.0	7.0	2.0	12.288214807052109	1.091	6.0	stim	s561
261.076	2.25	n/a	-1.0	n/a	columbia_card_task_fmri	n/a	n/a	-1.0	n/a	n/a	n/a	n/a	n/a	n/a	n/a	n/a	feedback	s561
263.326	0.136	n/a	-1.0	n/a	columbia_card_task_fmri	n/a	n/a	-1.0	n/a	n/a	n/a	n/a	n/a	n/a	n/a	n/a	ITI	s561
263.466	0.9	2.1448950477626942	draw_card	0.0	columbia_card_task_fmri	15.0	0.8333333333333334	89.0	-75.0	0.1666666666666666	12.0	1.0	2.0	1.5338401024906003	0.9	n/a	stim	s561
264.369	1.375	0.7812586841263292	draw_card	0.0	columbia_card_task_fmri	15.0	0.8181818181818181	89.0	-75.0	0.1818181818181818	12.0	2.0	2.0	2.703027475953668	1.375	n/a	stim	s561
265.747	1.553	-0.8551049522373058	draw_card	0.0	columbia_card_task_fmri	15.0	0.8	89.0	-75.0	0.2	12.0	3.0	2.0	3.988149358167042	1.553	n/a	stim	s561
267.303	1.509	-2.855104952237304	draw_card	0.0	columbia_card_task_fmri	15.0	0.7777777777777778	89.0	-75.0	0.2222222222222222	12.0	4.0	2.0	5.402310302613365	1.509	n/a	stim	s561
268.816	1.675	-5.355104952237306	draw_card	0.0	columbia_card_task_fmri	15.0	0.75	89.0	-75.0	0.25	12.0	5.0	2.0	6.954433031615878	1.675	n/a	stim	s561
270.494	1.545	-8.569390666523017	draw_card	0.0	columbia_card_task_fmri	15.0	0.7142857142857143	89.0	-75.0	0.2857142857142857	12.0	6.0	2.0	8.638702114990416	1.545	n/a	stim	s561
272.043	0.99	-12.855104952237305	end_round	0.0	columbia_card_task_fmri	15.0	0.6666666666666667	71.0	-75.0	0.3333333333333333	12.0	7.0	2.0	10.40489965686436	0.99	6.0	stim	s561
273.038	2.25	n/a	-1.0	n/a	columbia_card_task_fmri	n/a	n/a	-1.0	n/a	n/a	n/a	n/a	n/a	n/a	n/a	n/a	feedback	s561
275.288	0.136	n/a	-1.0	n/a	columbia_card_task_fmri	n/a	n/a	-1.0	n/a	n/a	n/a	n/a	n/a	n/a	n/a	n/a	ITI	s561
275.427	1.064	1.1448950477626942	draw_card	1.0	columbia_card_task_fmri	15.0	0.8	89.0	-65.0	0.2	15.0	1.0	3.0	-0.0038874858960227	1.064	1.0	stim	s561
276.496	2.25	n/a	-1.0	n/a	columbia_card_task_fmri	n/a	n/a	-1.0	n/a	n/a	n/a	n/a	n/a	n/a	n/a	n/a	feedback	s561
278.746	0.476	n/a	-1.0	n/a	columbia_card_task_fmri	n/a	n/a	-1.0	n/a	n/a	n/a	n/a	n/a	n/a	n/a	n/a	ITI	s561
279.226	1.21	0.3948950477626942	draw_card	0.0	columbia_card_task_fmri	14.0	0.8125	89.0	-70.0	0.1875	16.0	1.0	3.0	0.7806338217319464	1.21	n/a	stim	s561
280.439	1.552	-0.6551049522373047	draw_card	0.0	columbia_card_task_fmri	14.0	0.8	89.0	-70.0	0.2	16.0	2.0	3.0	1.5927004219268426	1.552	n/a	stim	s561
281.994	1.44	-1.8551049522373055	draw_card	0.0	columbia_card_task_fmri	14.0	0.7857142857142857	89.0	-70.0	0.2142857142857142	16.0	3.0	3.0	2.458358590206217	1.44	n/a	stim	s561
283.437	1.531	-3.239720336852691	draw_card	0.0	columbia_card_task_fmri	14.0	0.7692307692307692	89.0	-70.0	0.2307692307692307	16.0	4.0	3.0	3.3805490709122097	1.531	n/a	stim	s561
284.972	1.478	-4.855104952237306	draw_card	0.0	columbia_card_task_fmri	14.0	0.75	89.0	-70.0	0.25	16.0	5.0	3.0	4.36056266921868	1.478	n/a	stim	s561
286.453	1.801	-6.764195861328214	draw_card	0.0	columbia_card_task_fmri	14.0	0.7272727272727273	89.0	-70.0	0.2727272727272727	16.0	6.0	3.0	5.396135372892495	1.801	n/a	stim	s561
288.257	1.564	-9.055104952237308	draw_card	0.0	columbia_card_task_fmri	14.0	0.7	89.0	-70.0	0.3	16.0	7.0	3.0	6.477656219611006	1.564	n/a	stim	s561
289.825	1.76	-11.855104952237305	draw_card	0.0	columbia_card_task_fmri	14.0	0.6666666666666667	89.0	-70.0	0.3333333333333333	16.0	8.0	3.0	7.580337319009693	1.76	n/a	stim	s561
291.589	0.92	-15.355104952237305	end_round	0.0	columbia_card_task_fmri	14.0	0.625	71.0	-70.0	0.375	16.0	9.0	3.0	8.647159860834073	0.92	8.0	stim	s561
292.514	2.25	n/a	-1.0	n/a	columbia_card_task_fmri	n/a	n/a	-1.0	n/a	n/a	n/a	n/a	n/a	n/a	n/a	n/a	feedback	s561
294.764	0.204	n/a	-1.0	n/a	columbia_card_task_fmri	n/a	n/a	-1.0	n/a	n/a	n/a	n/a	n/a	n/a	n/a	n/a	ITI	s561
294.974	1.179	0.3323950477626942	draw_card	1.0	columbia_card_task_fmri	11.0	0.6875	89.0	-30.0	0.3125	16.0	1.0	5.0	-12.95102310685667	1.179	1.0	stim	s561
296.158	2.25	n/a	-1.0	n/a	columbia_card_task_fmri	n/a	n/a	-1.0	n/a	n/a	n/a	n/a	n/a	n/a	n/a	n/a	feedback	s561
298.408	0.068	n/a	-1.0	n/a	columbia_card_task_fmri	n/a	n/a	-1.0	n/a	n/a	n/a	n/a	n/a	n/a	n/a	n/a	ITI	s561
298.479	1.852	5.144895047762694	draw_card	0.0	columbia_card_task_fmri	15.0	0.8666666666666667	89.0	-75.0	0.1333333333333333	15.0	1.0	2.0	-1.406478744220049	1.852	n/a	stim	s561
300.335	1.355	4.287752190619838	draw_card	0.0	columbia_card_task_fmri	15.0	0.8571428571428572	89.0	-75.0	0.1428571428571428	15.0	2.0	2.0	-0.5092956522811285	1.355	n/a	stim	s561
301.694	1.553	3.2987412016088475	draw_card	1.0	columbia_card_task_fmri	15.0	0.8461538461538461	89.0	-75.0	0.1538461538461538	15.0	3.0	2.0	0.4671799636406035	1.553	3.0	stim	s561
303.252	2.25	n/a	-1.0	n/a	columbia_card_task_fmri	n/a	n/a	-1.0	n/a	n/a	n/a	n/a	n/a	n/a	n/a	n/a	feedback	s561
305.502	0.068	n/a	-1.0	n/a	columbia_card_task_fmri	n/a	n/a	-1.0	n/a	n/a	n/a	n/a	n/a	n/a	n/a	n/a	ITI	s561
305.574	0.679	6.8782283810960285	draw_card	0.0	columbia_card_task_fmri	17.0	0.8666666666666667	89.0	-75.0	0.1333333333333333	15.0	1.0	2.0	-0.7282381092676822	0.679	n/a	stim	s561
306.256	1.512	6.002037904905554	draw_card	0.0	columbia_card_task_fmri	17.0	0.8571428571428572	89.0	-75.0	0.1428571428571428	15.0	2.0	2.0	0.1889761135464525	1.512	n/a	stim	s561
307.772	1.239	4.991048893916541	draw_card	1.0	columbia_card_task_fmri	17.0	0.8461538461538461	89.0	-75.0	0.1538461538461538	15.0	3.0	2.0	1.1872473259029803	1.239	3.0	stim	s561
309.018	2.25	n/a	-1.0	n/a	columbia_card_task_fmri	n/a	n/a	-1.0	n/a	n/a	n/a	n/a	n/a	n/a	n/a	n/a	feedback	s561
311.268	0.34	n/a	-1.0	n/a	columbia_card_task_fmri	n/a	n/a	-1.0	n/a	n/a	n/a	n/a	n/a	n/a	n/a	n/a	ITI	s561
311.611	0.929	2.4573950477626942	draw_card	0.0	columbia_card_task_fmri	2.0	0.9375	89.0	-25.0	0.0625	16.0	1.0	1.0	-25.197070514951516	0.929	n/a	stim	s561
312.544	1.496	2.3448950477626944	draw_card	0.0	columbia_card_task_fmri	2.0	0.9333333333333332	89.0	-25.0	0.0666666666666666	16.0	2.0	1.0	-25.00741143124293	1.496	n/a	stim	s561
314.044	1.202	2.216323619191266	draw_card	0.0	columbia_card_task_fmri	2.0	0.9285714285714286	89.0	-25.0	0.0714285714285714	16.0	3.0	1.0	-24.798836121916747	1.202	n/a	stim	s561
315.249	1.44	2.0679719708396176	draw_card	0.0	columbia_card_task_fmri	2.0	0.9230769230769232	89.0	-25.0	0.0769230769230769	16.0	4.0	1.0	-24.568102189194143	1.44	n/a	stim	s561
316.693	1.199	1.8948950477626945	draw_card	1.0	columbia_card_task_fmri	2.0	0.9166666666666666	89.0	-25.0	0.0833333333333333	16.0	5.0	1.0	-24.31115133626012	1.199	5.0	stim	s561
317.897	2.25	n/a	-1.0	n/a	columbia_card_task_fmri	n/a	n/a	-1.0	n/a	n/a	n/a	n/a	n/a	n/a	n/a	n/a	feedback	s561
320.147	0.476	n/a	-1.0	n/a	columbia_card_task_fmri	n/a	n/a	-1.0	n/a	n/a	n/a	n/a	n/a	n/a	n/a	n/a	ITI	s561
320.628	1.813	4.644895047762694	draw_card	0.0	columbia_card_task_fmri	9.0	0.9375	89.0	-95.0	0.0625	16.0	1.0	1.0	-6.810090286793898	1.813	n/a	stim	s561
322.444	2.023	4.211561714429362	draw_card	0.0	columbia_card_task_fmri	9.0	0.9333333333333332	89.0	-95.0	0.0666666666666666	16.0	2.0	1.0	-6.045014191760512	2.023	n/a	stim	s561
324.472	1.77	3.7163236191912654	draw_card	0.0	columbia_card_task_fmri	9.0	0.9285714285714286	89.0	-95.0	0.0714285714285714	16.0	3.0	1.0	-5.205850382769132	1.77	n/a	stim	s561
326.246	1.354	3.1448950477626942	draw_card	0.0	columbia_card_task_fmri	9.0	0.9230769230769232	89.0	-95.0	0.0769230769230769	16.0	4.0	1.0	-4.279997451122092	1.354	n/a	stim	s561
327.604	1.435	2.478228381096028	draw_card	0.0	columbia_card_task_fmri	9.0	0.9166666666666666	89.0	-95.0	0.0833333333333333	16.0	5.0	1.0	-3.2516940135665067	1.435	n/a	stim	s561
329.042	3.825	1.6903495932172392	draw_card	0.0	columbia_card_task_fmri	9.0	0.9090909090909092	89.0	-95.0	0.0909090909090909	16.0	6.0	1.0	-2.1009536736548284	3.825	n/a	stim	s561
332.871	3.302	0.7448950477626939	draw_card	0.0	columbia_card_task_fmri	9.0	0.9	89.0	-95.0	0.1	16.0	7.0	1.0	-0.8020506538406771	3.302	n/a	stim	s561
336.176	3.18	-0.4106605077928611	draw_card	0.0	columbia_card_task_fmri	9.0	0.8888888888888888	89.0	-95.0	0.1111111111111111	16.0	8.0	1.0	0.6786597698245487	3.18	n/a	stim	s561
339.359	0.808	-1.8551049522373055	end_round	0.0	columbia_card_task_fmri	9.0	0.875	71.0	-95.0	0.125	16.0	9.0	1.0	2.385890233099758	0.808	8.0	stim	s561
340.175	2.25	n/a	-1.0	n/a	columbia_card_task_fmri	n/a	n/a	-1.0	n/a	n/a	n/a	n/a	n/a	n/a	n/a	n/a	feedback	s561
342.425	0.272	n/a	-1.0	n/a	columbia_card_task_fmri	n/a	n/a	-1.0	n/a	n/a	n/a	n/a	n/a	n/a	n/a	n/a	ITI	s561
342.699	1.656	6.207395047762694	draw_card	0.0	columbia_card_task_fmri	11.0	0.9375	89.0	-100.0	0.0625	16.0	1.0	1.0	-5.121393133818501	1.656	n/a	stim	s561
344.359	1.591	5.744895047762695	draw_card	1.0	columbia_card_task_fmri	11.0	0.9333333333333332	89.0	-100.0	0.0666666666666666	16.0	2.0	1.0	-4.304472448077494	1.591	2.0	stim	s561
345.956	2.25	n/a	-1.0	n/a	columbia_card_task_fmri	n/a	n/a	-1.0	n/a	n/a	n/a	n/a	n/a	n/a	n/a	n/a	feedback	s561
348.206	0.884	n/a	-1.0	n/a	columbia_card_task_fmri	n/a	n/a	-1.0	n/a	n/a	n/a	n/a	n/a	n/a	n/a	n/a	ITI	s561
349.095	1.196	6.769895047762694	draw_card	0.0	columbia_card_task_fmri	16.0	0.875	89.0	-75.0	0.125	16.0	1.0	2.0	-1.903933422774589	1.196	n/a	stim	s561
350.295	1.775	6.011561714429361	draw_card	0.0	columbia_card_task_fmri	16.0	0.8666666666666667	89.0	-75.0	0.1333333333333333	16.0	2.0	2.0	-1.067367343152224	1.775	n/a	stim	s561
352.074	1.353	5.144895047762696	draw_card	0.0	columbia_card_task_fmri	16.0	0.8571428571428572	89.0	-75.0	0.1428571428571428	16.0	3.0	2.0	-0.1601684346614575	1.353	n/a	stim	s561
353.431	1.738	4.144895047762694	draw_card	0.0	columbia_card_task_fmri	16.0	0.8461538461538461	89.0	-75.0	0.1538461538461538	16.0	4.0	2.0	0.827205237256976	1.738	n/a	stim	s561
355.173	1.718	2.978228381096028	draw_card	0.0	columbia_card_task_fmri	16.0	0.8333333333333334	89.0	-75.0	0.1666666666666666	16.0	5.0	2.0	1.9057667363358064	1.718	n/a	stim	s561
356.896	1.733	1.5994405023081475	draw_card	0.0	columbia_card_task_fmri	16.0	0.8181818181818181	89.0	-75.0	0.1818181818181818	16.0	6.0	2.0	3.087995933183606	1.733	n/a	stim	s561
358.633	1.857	-0.055104952237305	draw_card	0.0	columbia_card_task_fmri	16.0	0.8	89.0	-75.0	0.2	16.0	7.0	2.0	4.387449038298712	1.857	n/a	stim	s561
360.494	1.691	-2.0773271744595254	draw_card	0.0	columbia_card_task_fmri	16.0	0.7777777777777778	89.0	-75.0	0.2222222222222222	16.0	8.0	2.0	5.817376074757732	1.691	n/a	stim	s561
362.189	0.871	-4.605104952237306	end_round	0.0	columbia_card_task_fmri	16.0	0.75	71.0	-75.0	0.25	16.0	9.0	2.0	7.386798556572671	0.871	8.0	stim	s561
363.068	2.25	n/a	-1.0	n/a	columbia_card_task_fmri	n/a	n/a	-1.0	n/a	n/a	n/a	n/a	n/a	n/a	n/a	n/a	feedback	s561
365.318	0.136	n/a	-1.0	n/a	columbia_card_task_fmri	n/a	n/a	-1.0	n/a	n/a	n/a	n/a	n/a	n/a	n/a	n/a	ITI	s561
365.458	2.118	7.019895047762694	draw_card	0.0	columbia_card_task_fmri	17.0	0.875	89.0	-80.0	0.125	16.0	1.0	2.0	0.0756690903893613	2.118	n/a	stim	s561
367.581	1.609	6.211561714429362	draw_card	1.0	columbia_card_task_fmri	17.0	0.8666666666666667	89.0	-80.0	0.1333333333333333	16.0	2.0	2.0	0.9676563341863158	1.609	2.0	stim	s561
369.197	2.25	n/a	-1.0	n/a	columbia_card_task_fmri	n/a	n/a	-1.0	n/a	n/a	n/a	n/a	n/a	n/a	n/a	n/a	feedback	s561
371.447	0.136	n/a	-1.0	n/a	columbia_card_task_fmri	n/a	n/a	-1.0	n/a	n/a	n/a	n/a	n/a	n/a	n/a	n/a	ITI	s561
382.59	1.485	1.311561714429362	draw_card	1.0	columbia_card_task_fmri	13.0	0.8333333333333334	89.0	-70.0	0.1666666666666666	6.0	1.0	1.0	-1.069141111186184	1.485	1.0	stim	s561
384.081	2.25	n/a	-1.0	n/a	columbia_card_task_fmri	n/a	n/a	-1.0	n/a	n/a	n/a	n/a	n/a	n/a	n/a	n/a	feedback	s561
386.331	0.068	n/a	-1.0	n/a	columbia_card_task_fmri	n/a	n/a	-1.0	n/a	n/a	n/a	n/a	n/a	n/a	n/a	n/a	ITI	s561
386.404	0.937	1.311561714429362	draw_card	0.0	columbia_card_task_fmri	15.0	0.8333333333333334	89.0	-80.0	0.1666666666666666	6.0	1.0	1.0	3.3936310049743312	0.937	n/a	stim	s561
387.345	2.134	-1.8551049522373055	draw_card	1.0	columbia_card_task_fmri	15.0	0.8	89.0	-80.0	0.2	6.0	2.0	1.0	5.984794831706168	2.134	2.0	stim	s561
389.484	2.25	n/a	-1.0	n/a	columbia_card_task_fmri	n/a	n/a	-1.0	n/a	n/a	n/a	n/a	n/a	n/a	n/a	n/a	feedback	s561
391.734	0.068	n/a	-1.0	n/a	columbia_card_task_fmri	n/a	n/a	-1.0	n/a	n/a	n/a	n/a	n/a	n/a	n/a	n/a	ITI	s561
391.806	1.057	2.978228381096028	draw_card	0.0	columbia_card_task_fmri	16.0	0.8333333333333334	89.0	-75.0	0.1666666666666666	6.0	1.0	1.0	1.9057667363358064	1.057	n/a	stim	s561
392.867	2.128	-0.055104952237305	draw_card	1.0	columbia_card_task_fmri	16.0	0.8	89.0	-75.0	0.2	6.0	2.0	1.0	4.387449038298712	2.128	2.0	stim	s561
394.999	2.25	n/a	-1.0	n/a	columbia_card_task_fmri	n/a	n/a	-1.0	n/a	n/a	n/a	n/a	n/a	n/a	n/a	n/a	feedback	s561
397.249	0.612	n/a	-1.0	n/a	columbia_card_task_fmri	n/a	n/a	-1.0	n/a	n/a	n/a	n/a	n/a	n/a	n/a	n/a	ITI	s561
397.865	0.699	4.144895047762694	draw_card	0.0	columbia_card_task_fmri	21.0	0.75	89.0	-55.0	0.25	8.0	1.0	2.0	0.903098862783274	0.699	n/a	stim	s561
398.568	1.586	1.4306093334769807	draw_card	0.0	columbia_card_task_fmri	21.0	0.7142857142857143	89.0	-55.0	0.2857142857142857	8.0	2.0	2.0	2.324542884064876	1.586	n/a	stim	s561
400.157	2.214	-2.188438285570636	draw_card	0.0	columbia_card_task_fmri	21.0	0.6666666666666667	89.0	-55.0	0.3333333333333333	8.0	3.0	2.0	3.815201116290425	2.214	n/a	stim	s561
402.375	1.392	-7.255104952237306	end_round	0.0	columbia_card_task_fmri	21.0	0.6	71.0	-55.0	0.4	8.0	4.0	2.0	5.21828413814989	1.392	3.0	stim	s561
403.774	2.25	n/a	-1.0	n/a	columbia_card_task_fmri	n/a	n/a	-1.0	n/a	n/a	n/a	n/a	n/a	n/a	n/a	n/a	feedback	s561
406.024	0.476	n/a	-1.0	n/a	columbia_card_task_fmri	n/a	n/a	-1.0	n/a	n/a	n/a	n/a	n/a	n/a	n/a	n/a	ITI	s561
406.505	0.936	5.394895047762694	draw_card	1.0	columbia_card_task_fmri	26.0	0.75	89.0	-65.0	0.25	8.0	1.0	2.0	7.386798556572671	0.936	1.0	stim	s561
407.446	2.25	n/a	-1.0	n/a	columbia_card_task_fmri	n/a	n/a	-1.0	n/a	n/a	n/a	n/a	n/a	n/a	n/a	n/a	feedback	s561
409.696	0.0	n/a	-1.0	n/a	columbia_card_task_fmri	n/a	n/a	-1.0	n/a	n/a	n/a	n/a	n/a	n/a	n/a	n/a	ITI	s561
409.7	0.93	0.4782283810960281	draw_card	0.0	columbia_card_task_fmri	15.0	0.7777777777777778	89.0	-60.0	0.2222222222222222	9.0	1.0	2.0	-0.8215264339845625	0.93	n/a	stim	s561
410.634	1.593	-1.6051049522373058	draw_card	0.0	columbia_card_task_fmri	15.0	0.75	89.0	-60.0	0.25	9.0	2.0	2.0	0.4710151426249496	1.593	n/a	stim	s561
412.231	1.823	-4.283676380808733	draw_card	0.0	columbia_card_task_fmri	15.0	0.7142857142857143	89.0	-60.0	0.2857142857142857	9.0	3.0	2.0	1.87367960778996	1.823	n/a	stim	s561
414.057	2.251	-7.855104952237304	draw_card	0.0	columbia_card_task_fmri	15.0	0.6666666666666667	89.0	-60.0	0.3333333333333333	9.0	4.0	2.0	3.344650348741297	2.251	n/a	stim	s561
416.313	0.962	-12.855104952237305	end_round	0.0	columbia_card_task_fmri	15.0	0.6	71.0	-60.0	0.4	9.0	5.0	2.0	4.729207879296688	0.962	4.0	stim	s561
417.282	2.25	n/a	-1.0	n/a	columbia_card_task_fmri	n/a	n/a	-1.0	n/a	n/a	n/a	n/a	n/a	n/a	n/a	n/a	feedback	s561
419.532	0.068	n/a	-1.0	n/a	columbia_card_task_fmri	n/a	n/a	-1.0	n/a	n/a	n/a	n/a	n/a	n/a	n/a	n/a	ITI	s561
419.605	1.245	4.844895047762695	draw_card	0.0	columbia_card_task_fmri	13.0	0.9	89.0	-90.0	0.1	10.0	1.0	1.0	-1.1013374079387042	1.245	n/a	stim	s561
420.854	1.555	3.7004506033182496	draw_card	0.0	columbia_card_task_fmri	13.0	0.8888888888888888	89.0	-90.0	0.1111111111111111	10.0	2.0	1.0	0.3650711650718179	1.555	n/a	stim	s561
422.414	1.716	2.2698950477626942	draw_card	0.0	columbia_card_task_fmri	13.0	0.875	89.0	-90.0	0.125	10.0	3.0	1.0	2.055818723787553	1.716	n/a	stim	s561
424.133	1.196	0.4306093334769825	draw_card	0.0	columbia_card_task_fmri	13.0	0.8571428571428572	89.0	-90.0	0.1428571428571428	10.0	4.0	1.0	4.030566156854853	1.196	n/a	stim	s561
425.333	1.452	-2.021771618903972	draw_card	0.0	columbia_card_task_fmri	13.0	0.8333333333333334	89.0	-90.0	0.1666666666666666	10.0	5.0	1.0	6.37002142724436	1.452	n/a	stim	s561
426.789	2.241	-5.455104952237305	draw_card	0.0	columbia_card_task_fmri	13.0	0.8	89.0	-90.0	0.2	10.0	6.0	1.0	9.180103530362238	2.241	n/a	stim	s561
429.034	2.503	-10.605104952237305	draw_card	0.0	columbia_card_task_fmri	13.0	0.75	89.0	-90.0	0.25	10.0	7.0	1.0	12.576163193910482	2.503	n/a	stim	s561
431.541	1.987	-19.18843828557064	end_round	0.0	columbia_card_task_fmri	13.0	0.6666666666666667	71.0	-90.0	0.3333333333333333	10.0	8.0	1.0	16.526326851465626	1.987	7.0	stim	s561
433.534	2.25	n/a	-1.0	n/a	columbia_card_task_fmri	n/a	n/a	-1.0	n/a	n/a	n/a	n/a	n/a	n/a	n/a	n/a	feedback	s561
435.784	0.204	n/a	-1.0	n/a	columbia_card_task_fmri	n/a	n/a	-1.0	n/a	n/a	n/a	n/a	n/a	n/a	n/a	n/a	ITI	s561
435.991	1.602	6.144895047762694	draw_card	0.0	columbia_card_task_fmri	15.0	0.9	89.0	-95.0	0.1	10.0	1.0	1.0	0.9939413056407104	1.602	n/a	stim	s561
437.597	1.063	4.922672825540471	draw_card	0.0	columbia_card_task_fmri	15.0	0.8888888888888888	89.0	-95.0	0.1111111111111111	10.0	2.0	1.0	2.560450666077734	1.063	n/a	stim	s561
438.664	0.813	3.3948950477626942	draw_card	1.0	columbia_card_task_fmri	15.0	0.875	89.0	-95.0	0.125	10.0	3.0	1.0	4.3665658105867	0.813	3.0	stim	s561
439.484	2.25	n/a	-1.0	n/a	columbia_card_task_fmri	n/a	n/a	-1.0	n/a	n/a	n/a	n/a	n/a	n/a	n/a	n/a	feedback	s561
441.734	0.272	n/a	-1.0	n/a	columbia_card_task_fmri	n/a	n/a	-1.0	n/a	n/a	n/a	n/a	n/a	n/a	n/a	n/a	ITI	s561
442.01	1.054	1.944895047762695	draw_card	0.0	columbia_card_task_fmri	16.0	0.8	89.0	-65.0	0.2	10.0	1.0	2.0	0.3952280002451758	1.054	n/a	stim	s561
443.069	1.204	0.144895047762696	draw_card	0.0	columbia_card_task_fmri	16.0	0.7777777777777778	89.0	-65.0	0.2222222222222222	10.0	2.0	2.0	1.667465060952388	1.204	n/a	stim	s561
444.277	1.016	-2.1051049522373058	draw_card	1.0	columbia_card_task_fmri	16.0	0.75	89.0	-65.0	0.25	10.0	3.0	2.0	3.063860522605701	1.016	3.0	stim	s561
445.299	2.25	n/a	-1.0	n/a	columbia_card_task_fmri	n/a	n/a	-1.0	n/a	n/a	n/a	n/a	n/a	n/a	n/a	n/a	feedback	s561
447.549	0.068	n/a	-1.0	n/a	columbia_card_task_fmri	n/a	n/a	-1.0	n/a	n/a	n/a	n/a	n/a	n/a	n/a	n/a	ITI	s561
447.622	1.218	0.6448950477626942	draw_card	0.0	columbia_card_task_fmri	7.0	0.9166666666666666	89.0	-95.0	0.0833333333333333	12.0	1.0	1.0	-3.8029023163447695	1.218	n/a	stim	s561
448.844	1.072	-0.1278322249645791	draw_card	0.0	columbia_card_task_fmri	7.0	0.9090909090909092	89.0	-95.0	0.0909090909090909	12.0	2.0	1.0	-2.6744105703763665	1.072	n/a	stim	s561
449.921	0.975	-1.055104952237306	draw_card	0.0	columbia_card_task_fmri	7.0	0.9	89.0	-95.0	0.1	12.0	3.0	1.0	-1.4006102276343064	0.975	n/a	stim	s561
450.901	0.885	-2.18843828557064	draw_card	0.0	columbia_card_task_fmri	7.0	0.8888888888888888	89.0	-95.0	0.1111111111111111	12.0	4.0	1.0	0.0514958705152039	0.885	n/a	stim	s561
451.791	0.84	-3.6051049522373058	draw_card	0.0	columbia_card_task_fmri	7.0	0.875	89.0	-95.0	0.125	12.0	5.0	1.0	1.7257598707019497	0.84	n/a	stim	s561
452.636	0.641	-5.426533523665877	draw_card	1.0	columbia_card_task_fmri	7.0	0.8571428571428572	89.0	-95.0	0.1428571428571428	12.0	6.0	1.0	3.681263078843884	0.641	6.0	stim	s561
453.282	2.25	n/a	-1.0	n/a	columbia_card_task_fmri	n/a	n/a	-1.0	n/a	n/a	n/a	n/a	n/a	n/a	n/a	n/a	feedback	s561
455.532	0.272	n/a	-1.0	n/a	columbia_card_task_fmri	n/a	n/a	-1.0	n/a	n/a	n/a	n/a	n/a	n/a	n/a	n/a	ITI	s561
455.808	1.352	1.311561714429362	draw_card	0.0	columbia_card_task_fmri	14.0	0.8333333333333334	89.0	-75.0	0.1666666666666666	12.0	1.0	2.0	1.1619303010192823	1.352	n/a	stim	s561
457.164	0.876	-0.0369231340554891	draw_card	0.0	columbia_card_task_fmri	14.0	0.8181818181818181	89.0	-75.0	0.1818181818181818	12.0	2.0	2.0	2.318075289627174	0.876	n/a	stim	s561
458.045	0.6	-1.6551049522373047	draw_card	0.0	columbia_card_task_fmri	14.0	0.8	89.0	-75.0	0.2	12.0	3.0	2.0	3.588865373325838	0.6	n/a	stim	s561
458.65	0.887	-3.6328827300150808	draw_card	1.0	columbia_card_task_fmri	14.0	0.7777777777777778	89.0	-75.0	0.2222222222222222	12.0	4.0	2.0	4.987259637498333	0.887	4.0	stim	s561
459.542	2.25	n/a	-1.0	n/a	columbia_card_task_fmri	n/a	n/a	-1.0	n/a	n/a	n/a	n/a	n/a	n/a	n/a	n/a	feedback	s561
461.792	0.748	n/a	-1.0	n/a	columbia_card_task_fmri	n/a	n/a	-1.0	n/a	n/a	n/a	n/a	n/a	n/a	n/a	n/a	ITI	s561
462.545	0.658	2.978228381096028	draw_card	0.0	columbia_card_task_fmri	15.0	0.8333333333333334	89.0	-70.0	0.1666666666666666	12.0	1.0	2.0	-0.3255287514298111	0.658	n/a	stim	s561
463.208	0.886	1.6903495932172374	draw_card	1.0	columbia_card_task_fmri	15.0	0.8181818181818181	89.0	-70.0	0.1818181818181818	12.0	2.0	2.0	0.7784406917752165	0.886	2.0	stim	s561
464.1	2.25	n/a	-1.0	n/a	columbia_card_task_fmri	n/a	n/a	-1.0	n/a	n/a	n/a	n/a	n/a	n/a	n/a	n/a	feedback	s561
466.35	0.068	n/a	-1.0	n/a	columbia_card_task_fmri	n/a	n/a	-1.0	n/a	n/a	n/a	n/a	n/a	n/a	n/a	n/a	ITI	s561
466.422	0.938	0.944895047762695	draw_card	0.0	columbia_card_task_fmri	16.0	0.8	89.0	-70.0	0.2	15.0	1.0	3.0	2.3911130451459783	0.938	n/a	stim	s561
467.364	1.469	-0.2836763808087346	draw_card	0.0	columbia_card_task_fmri	16.0	0.7857142857142857	89.0	-70.0	0.2142857142857142	15.0	2.0	3.0	3.277462737795659	1.469	n/a	stim	s561
468.838	1.418	-1.7012587983911525	draw_card	1.0	columbia_card_task_fmri	16.0	0.7692307692307692	89.0	-70.0	0.2307692307692307	15.0	3.0	3.0	4.221691683965098	1.418	3.0	stim	s561
470.264	2.25	n/a	-1.0	n/a	columbia_card_task_fmri	n/a	n/a	-1.0	n/a	n/a	n/a	n/a	n/a	n/a	n/a	n/a	feedback	s561
472.514	0.0	n/a	-1.0	n/a	columbia_card_task_fmri	n/a	n/a	-1.0	n/a	n/a	n/a	n/a	n/a	n/a	n/a	n/a	ITI	s561
472.519	1.205	1.3323950477626942	draw_card	0.0	columbia_card_task_fmri	14.0	0.8125	89.0	-65.0	0.1875	16.0	1.0	3.0	-1.1665026543948969	1.205	n/a	stim	s561
473.73	1.411	0.3448950477626953	draw_card	0.0	columbia_card_task_fmri	14.0	0.8	89.0	-65.0	0.2	16.0	2.0	3.0	-0.4029806553814623	1.411	n/a	stim	s561
475.146	1.617	-0.7836763808087328	draw_card	0.0	columbia_card_task_fmri	14.0	0.7857142857142857	89.0	-65.0	0.2142857142857142	16.0	3.0	3.0	0.4109399882736539	1.617	n/a	stim	s561
476.768	1.694	-2.085874183006537	draw_card	1.0	columbia_card_task_fmri	14.0	0.7692307692307692	89.0	-65.0	0.2307692307692307	16.0	4.0	3.0	1.2780254850872197	1.694	4.0	stim	s561
478.471	2.25	n/a	-1.0	n/a	columbia_card_task_fmri	n/a	n/a	-1.0	n/a	n/a	n/a	n/a	n/a	n/a	n/a	n/a	feedback	s561
480.721	0.204	n/a	-1.0	n/a	columbia_card_task_fmri	n/a	n/a	-1.0	n/a	n/a	n/a	n/a	n/a	n/a	n/a	n/a	ITI	s561
480.932	0.88	1.0823950477626942	draw_card	0.0	columbia_card_task_fmri	16.0	0.8125	89.0	-75.0	0.1875	16.0	1.0	3.0	3.507439483997679	0.88	n/a	stim	s561
481.817	1.756	-0.055104952237305	draw_card	0.0	columbia_card_task_fmri	16.0	0.8	89.0	-75.0	0.2	16.0	2.0	3.0	4.387449038298712	1.756	n/a	stim	s561
483.578	1.44	-1.355104952237304	draw_card	1.0	columbia_card_task_fmri	16.0	0.7857142857142857	89.0	-75.0	0.2142857142857142	16.0	3.0	3.0	5.32551996468144	1.44	3.0	stim	s561
485.023	2.25	n/a	-1.0	n/a	columbia_card_task_fmri	n/a	n/a	-1.0	n/a	n/a	n/a	n/a	n/a	n/a	n/a	n/a	feedback	s561
487.273	0.068	n/a	-1.0	n/a	columbia_card_task_fmri	n/a	n/a	-1.0	n/a	n/a	n/a	n/a	n/a	n/a	n/a	n/a	ITI	s561
487.345	0.737	5.344895047762695	draw_card	0.0	columbia_card_task_fmri	16.0	0.8666666666666667	89.0	-80.0	0.1333333333333333	15.0	1.0	2.0	0.6284460588378451	0.737	n/a	stim	s561
488.086	1.356	4.430609333476983	draw_card	0.0	columbia_card_task_fmri	16.0	0.8571428571428572	89.0	-80.0	0.1428571428571428	15.0	2.0	2.0	1.585716826428822	1.356	n/a	stim	s561
489.446	1.297	3.375664278531924	draw_card	0.0	columbia_card_task_fmri	16.0	0.8461538461538461	89.0	-80.0	0.1538461538461538	15.0	3.0	2.0	2.6275733631865634	1.297	n/a	stim	s561
490.748	1.442	2.144895047762696	draw_card	0.0	columbia_card_task_fmri	16.0	0.8333333333333334	89.0	-80.0	0.1666666666666666	15.0	4.0	2.0	3.7656340499831984	1.442	n/a	stim	s561
492.194	1.593	0.6903495932172374	end_round	0.0	columbia_card_task_fmri	16.0	0.8181818181818181	71.0	-80.0	0.1818181818181818	15.0	5.0	2.0	5.0130645490728085	1.593	4.0	stim	s561
493.794	2.25	n/a	-1.0	n/a	columbia_card_task_fmri	n/a	n/a	-1.0	n/a	n/a	n/a	n/a	n/a	n/a	n/a	n/a	feedback	s561
496.044	0.068	n/a	-1.0	n/a	columbia_card_task_fmri	n/a	n/a	-1.0	n/a	n/a	n/a	n/a	n/a	n/a	n/a	n/a	ITI	s561
496.117	0.716	6.211561714429362	draw_card	0.0	columbia_card_task_fmri	17.0	0.8666666666666667	89.0	-80.0	0.1333333333333333	15.0	1.0	2.0	0.9676563341863158	0.716	n/a	stim	s561
496.838	1.385	5.28775219061984	draw_card	0.0	columbia_card_task_fmri	17.0	0.8571428571428572	89.0	-80.0	0.1428571428571428	15.0	2.0	2.0	1.93494013178627	1.385	n/a	stim	s561
498.227	1.364	4.221818124685771	draw_card	0.0	columbia_card_task_fmri	17.0	0.8461538461538461	89.0	-80.0	0.1538461538461538	15.0	3.0	2.0	2.987691864211534	1.364	n/a	stim	s561
499.596	1.448	2.97822838109603	draw_card	1.0	columbia_card_task_fmri	17.0	0.8333333333333334	89.0	-80.0	0.1666666666666666	15.0	4.0	2.0	4.137650974503394	1.448	4.0	stim	s561
501.051	2.25	n/a	-1.0	n/a	columbia_card_task_fmri	n/a	n/a	-1.0	n/a	n/a	n/a	n/a	n/a	n/a	n/a	n/a	feedback	s561
503.301	0.34	n/a	-1.0	n/a	columbia_card_task_fmri	n/a	n/a	-1.0	n/a	n/a	n/a	n/a	n/a	n/a	n/a	n/a	ITI	s561
503.645	0.377	2.1448950477626942	draw_card	0.0	columbia_card_task_fmri	1.0	0.9375	89.0	-15.0	0.0625	16.0	1.0	1.0	-27.648437271355867	0.377	n/a	stim	s561
504.026	1.852	2.078228381096028	draw_card	0.0	columbia_card_task_fmri	1.0	0.9333333333333332	89.0	-15.0	0.0666666666666666	16.0	2.0	1.0	-27.54474579113934	1.852	n/a	stim	s561
505.883	0.436	2.0020379049055514	draw_card	0.0	columbia_card_task_fmri	1.0	0.9285714285714286	89.0	-15.0	0.0714285714285714	16.0	3.0	1.0	-27.430245116713824	0.436	n/a	stim	s561
506.324	1.284	1.9141258169934636	draw_card	0.0	columbia_card_task_fmri	1.0	0.9230769230769232	89.0	-15.0	0.0769230769230769	16.0	4.0	1.0	-27.303051223730456	1.284	n/a	stim	s561
507.613	0.49	1.8115617144293608	draw_card	0.0	columbia_card_task_fmri	1.0	0.9166666666666666	89.0	-15.0	0.0833333333333333	16.0	5.0	1.0	-27.160802270560424	0.49	n/a	stim	s561
508.108	0.501	1.6903495932172397	draw_card	0.0	columbia_card_task_fmri	1.0	0.9090909090909092	89.0	-15.0	0.0909090909090909	16.0	6.0	1.0	-27.00049637417508	0.501	n/a	stim	s561
508.613	0.503	1.5448950477626942	draw_card	0.0	columbia_card_task_fmri	1.0	0.9	89.0	-15.0	0.1	16.0	7.0	1.0	-26.818260474540587	0.503	n/a	stim	s561
509.122	0.515	1.3671172699849166	draw_card	0.0	columbia_card_task_fmri	1.0	0.8888888888888888	89.0	-15.0	0.1111111111111111	16.0	8.0	1.0	-26.60901683871256	0.515	n/a	stim	s561
509.642	0.636	1.1448950477626942	draw_card	0.0	columbia_card_task_fmri	1.0	0.875	89.0	-15.0	0.125	16.0	9.0	1.0	-26.36599960615316	0.636	n/a	stim	s561
510.282	0.604	0.8591807620484087	draw_card	0.0	columbia_card_task_fmri	1.0	0.8571428571428572	89.0	-15.0	0.1428571428571428	16.0	10.0	1.0	-26.080066375249565	0.604	n/a	stim	s561
510.89	1.215	0.4782283810960277	end_round	0.0	columbia_card_task_fmri	1.0	0.8333333333333334	71.0	-15.0	0.1666666666666666	16.0	11.0	1.0	-25.738804423490976	1.215	10.0	stim	s561
512.111	2.25	n/a	-1.0	n/a	columbia_card_task_fmri	n/a	n/a	-1.0	n/a	n/a	n/a	n/a	n/a	n/a	n/a	n/a	feedback	s561
514.361	0.0	n/a	-1.0	n/a	columbia_card_task_fmri	n/a	n/a	-1.0	n/a	n/a	n/a	n/a	n/a	n/a	n/a	n/a	ITI	s561
514.365	1.15	5.269895047762694	draw_card	0.0	columbia_card_task_fmri	10.0	0.9375	89.0	-100.0	0.0625	16.0	1.0	1.0	-5.362680037837968	1.15	n/a	stim	s561
515.52	1.186	4.811561714429361	draw_card	0.0	columbia_card_task_fmri	10.0	0.9333333333333332	89.0	-100.0	0.0666666666666666	16.0	2.0	1.0	-4.553164431715466	1.186	n/a	stim	s561
516.711	1.132	4.287752190619838	draw_card	0.0	columbia_card_task_fmri	10.0	0.9285714285714286	89.0	-100.0	0.0714285714285714	16.0	3.0	1.0	-3.66527740948667	1.132	n/a	stim	s561
517.847	1.178	3.6833565862242335	draw_card	0.0	columbia_card_task_fmri	10.0	0.9230769230769232	89.0	-100.0	0.0769230769230769	16.0	4.0	1.0	-2.685689676613915	1.178	n/a	stim	s561
519.029	1.09	2.978228381096028	draw_card	0.0	columbia_card_task_fmri	10.0	0.9166666666666666	89.0	-100.0	0.0833333333333333	16.0	5.0	1.0	-1.597729521079419	1.09	n/a	stim	s561
520.125	1.039	2.1448950477626925	draw_card	0.0	columbia_card_task_fmri	10.0	0.9090909090909092	89.0	-100.0	0.0909090909090909	16.0	6.0	1.0	-0.3802563038442557	1.039	n/a	stim	s561
521.169	1.215	1.1448950477626942	draw_card	0.0	columbia_card_task_fmri	10.0	0.9	89.0	-100.0	0.1	16.0	7.0	1.0	0.9939413056407104	1.215	n/a	stim	s561
522.388	1.085	-0.0773271744595271	draw_card	0.0	columbia_card_task_fmri	10.0	0.8888888888888888	89.0	-100.0	0.1111111111111111	16.0	8.0	1.0	2.560450666077734	1.085	n/a	stim	s561
523.477	1.758	-1.6051049522373058	draw_card	1.0	columbia_card_task_fmri	10.0	0.875	89.0	-100.0	0.125	16.0	9.0	1.0	4.3665658105867	1.758	9.0	stim	s561
525.242	2.25	n/a	-1.0	n/a	columbia_card_task_fmri	n/a	n/a	-1.0	n/a	n/a	n/a	n/a	n/a	n/a	n/a	n/a	feedback	s561
527.492	0.0	n/a	-1.0	n/a	columbia_card_task_fmri	n/a	n/a	-1.0	n/a	n/a	n/a	n/a	n/a	n/a	n/a	n/a	ITI	s561
527.496	1.836	5.894895047762694	draw_card	0.0	columbia_card_task_fmri	15.0	0.875	89.0	-75.0	0.125	16.0	1.0	2.0	-2.233806337023932	1.836	n/a	stim	s561
529.337	1.5	5.144895047762694	draw_card	0.0	columbia_card_task_fmri	15.0	0.8666666666666667	89.0	-75.0	0.1333333333333333	16.0	2.0	2.0	-1.406478744220049	1.5	n/a	stim	s561
530.841	1.299	4.287752190619838	draw_card	0.0	columbia_card_task_fmri	15.0	0.8571428571428572	89.0	-75.0	0.1428571428571428	16.0	3.0	2.0	-0.5092956522811285	1.299	n/a	stim	s561
532.145	1.463	3.2987412016088475	draw_card	0.0	columbia_card_task_fmri	15.0	0.8461538461538461	89.0	-75.0	0.1538461538461538	16.0	4.0	2.0	0.4671799636406035	1.463	n/a	stim	s561
533.613	1.251	2.1448950477626942	draw_card	0.0	columbia_card_task_fmri	15.0	0.8333333333333334	89.0	-75.0	0.1666666666666666	16.0	5.0	2.0	1.5338401024906003	1.251	n/a	stim	s561
534.869	1.328	0.7812586841263292	draw_card	1.0	columbia_card_task_fmri	15.0	0.8181818181818181	89.0	-75.0	0.1818181818181818	16.0	6.0	2.0	2.703027475953668	1.328	6.0	stim	s561
536.206	2.25	n/a	-1.0	n/a	columbia_card_task_fmri	n/a	n/a	-1.0	n/a	n/a	n/a	n/a	n/a	n/a	n/a	n/a	feedback	s561
538.456	0.272	n/a	-1.0	n/a	columbia_card_task_fmri	n/a	n/a	-1.0	n/a	n/a	n/a	n/a	n/a	n/a	n/a	n/a	ITI	s561
538.734	0.66	6.144895047762694	draw_card	0.0	columbia_card_task_fmri	16.0	0.875	89.0	-80.0	0.125	16.0	1.0	2.0	-0.2543054141809833	0.66	n/a	stim	s561
539.399	1.311	5.344895047762695	draw_card	0.0	columbia_card_task_fmri	16.0	0.8666666666666667	89.0	-80.0	0.1333333333333333	16.0	2.0	2.0	0.6284460588378451	1.311	n/a	stim	s561
540.715	1.568	4.430609333476983	draw_card	0.0	columbia_card_task_fmri	16.0	0.8571428571428572	89.0	-80.0	0.1428571428571428	16.0	3.0	2.0	1.585716826428822	1.568	n/a	stim	s561
542.289	1.521	3.375664278531924	draw_card	0.0	columbia_card_task_fmri	16.0	0.8461538461538461	89.0	-80.0	0.1538461538461538	16.0	4.0	2.0	2.6275733631865634	1.521	n/a	stim	s561
543.815	1.443	2.144895047762696	draw_card	1.0	columbia_card_task_fmri	16.0	0.8333333333333334	89.0	-80.0	0.1666666666666666	16.0	5.0	2.0	3.7656340499831984	1.443	5.0	stim	s561
545.268	2.25	n/a	-1.0	n/a	columbia_card_task_fmri	n/a	n/a	-1.0	n/a	n/a	n/a	n/a	n/a	n/a	n/a	n/a	feedback	s561
547.518	0.204	n/a	-1.0	n/a	columbia_card_task_fmri	n/a	n/a	-1.0	n/a	n/a	n/a	n/a	n/a	n/a	n/a	n/a	ITI	s561
547.727	1.057	3.3323950477626942	draw_card	0.0	columbia_card_task_fmri	4.0	0.6875	89.0	-5.0	0.3125	16.0	1.0	5.0	-27.38496404396115	1.057	n/a	stim	s561
548.79	3.801	3.1448950477626947	draw_card	1.0	columbia_card_task_fmri	4.0	0.6666666666666667	89.0	-5.0	0.3333333333333333	16.0	2.0	5.0	-27.321684727632057	3.801	2.0	stim	s561
552.598	2.25	n/a	-1.0	n/a	columbia_card_task_fmri	n/a	n/a	-1.0	n/a	n/a	n/a	n/a	n/a	n/a	n/a	n/a	feedback	s561
554.848	0.0	n/a	-1.0	n/a	columbia_card_task_fmri	n/a	n/a	-1.0	n/a	n/a	n/a	n/a	n/a	n/a	n/a	n/a	ITI	s561
554.854	1.206	0.4782283810960299	draw_card	0.0	columbia_card_task_fmri	14.0	0.8333333333333334	89.0	-80.0	0.1666666666666666	6.0	1.0	1.0	3.0216422808112497	1.206	n/a	stim	s561
556.064	2.006	-2.6551049522373047	draw_card	1.0	columbia_card_task_fmri	14.0	0.8	89.0	-80.0	0.2	6.0	2.0	1.0	5.585437258089549	2.006	2.0	stim	s561
558.08	2.25	n/a	-1.0	n/a	columbia_card_task_fmri	n/a	n/a	-1.0	n/a	n/a	n/a	n/a	n/a	n/a	n/a	n/a	feedback	s561
560.33	0.204	n/a	-1.0	n/a	columbia_card_task_fmri	n/a	n/a	-1.0	n/a	n/a	n/a	n/a	n/a	n/a	n/a	n/a	ITI	s561
560.54	1.367	2.1448950477626942	draw_card	1.0	columbia_card_task_fmri	15.0	0.8333333333333334	89.0	-75.0	0.1666666666666666	6.0	1.0	1.0	1.5338401024906003	1.367	1.0	stim	s561
561.917	2.25	n/a	-1.0	n/a	columbia_card_task_fmri	n/a	n/a	-1.0	n/a	n/a	n/a	n/a	n/a	n/a	n/a	n/a	feedback	s561
564.167	0.204	n/a	-1.0	n/a	columbia_card_task_fmri	n/a	n/a	-1.0	n/a	n/a	n/a	n/a	n/a	n/a	n/a	n/a	ITI	s561
564.377	2.563	3.811561714429362	draw_card	0.0	columbia_card_task_fmri	16.0	0.8333333333333334	89.0	-70.0	0.1666666666666666	6.0	1.0	1.0	0.0463077372940361	2.563	n/a	stim	s561
566.945	0.997	0.944895047762695	end_round	0.0	columbia_card_task_fmri	16.0	0.8	71.0	-70.0	0.2	6.0	2.0	1.0	2.3911130451459783	0.997	1.0	stim	s561
567.948	2.25	n/a	-1.0	n/a	columbia_card_task_fmri	n/a	n/a	-1.0	n/a	n/a	n/a	n/a	n/a	n/a	n/a	n/a	feedback	s561
570.198	0.272	n/a	-1.0	n/a	columbia_card_task_fmri	n/a	n/a	-1.0	n/a	n/a	n/a	n/a	n/a	n/a	n/a	n/a	ITI	s561
570.476	1.551	4.394895047762694	draw_card	1.0	columbia_card_task_fmri	23.0	0.75	89.0	-60.0	0.25	8.0	1.0	2.0	3.928309907793349	1.551	1.0	stim	s561
572.037	2.25	n/a	-1.0	n/a	columbia_card_task_fmri	n/a	n/a	-1.0	n/a	n/a	n/a	n/a	n/a	n/a	n/a	n/a	feedback	s561
574.287	0.204	n/a	-1.0	n/a	columbia_card_task_fmri	n/a	n/a	-1.0	n/a	n/a	n/a	n/a	n/a	n/a	n/a	n/a	ITI	s561
574.496	1.222	4.894895047762694	draw_card	1.0	columbia_card_task_fmri	27.0	0.75	89.0	-70.0	0.25	8.0	1.0	2.0	9.981271354387715	1.222	1.0	stim	s561
575.726	2.25	n/a	-1.0	n/a	columbia_card_task_fmri	n/a	n/a	-1.0	n/a	n/a	n/a	n/a	n/a	n/a	n/a	n/a	feedback	s561
577.976	0.408	n/a	-1.0	n/a	columbia_card_task_fmri	n/a	n/a	-1.0	n/a	n/a	n/a	n/a	n/a	n/a	n/a	n/a	ITI	s561
578.39	1.137	0.144895047762696	draw_card	0.0	columbia_card_task_fmri	16.0	0.7777777777777778	89.0	-65.0	0.2222222222222222	9.0	1.0	2.0	1.667465060952388	1.137	n/a	stim	s561
579.533	1.555	-2.1051049522373058	draw_card	1.0	columbia_card_task_fmri	16.0	0.75	89.0	-65.0	0.25	9.0	2.0	2.0	3.063860522605701	1.555	2.0	stim	s561
581.094	2.25	n/a	-1.0	n/a	columbia_card_task_fmri	n/a	n/a	-1.0	n/a	n/a	n/a	n/a	n/a	n/a	n/a	n/a	feedback	s561
583.344	0.136	n/a	-1.0	n/a	columbia_card_task_fmri	n/a	n/a	-1.0	n/a	n/a	n/a	n/a	n/a	n/a	n/a	n/a	ITI	s561
583.486	2.131	5.344895047762695	draw_card	0.0	columbia_card_task_fmri	13.0	0.9	89.0	-85.0	0.1	10.0	1.0	1.0	-2.597553674659004	2.131	n/a	stim	s561
585.623	2.025	4.256006158873805	draw_card	0.0	columbia_card_task_fmri	13.0	0.8888888888888888	89.0	-85.0	0.1111111111111111	10.0	2.0	1.0	-1.2026640945603262	2.025	n/a	stim	s561
587.653	1.566	2.8948950477626942	draw_card	0.0	columbia_card_task_fmri	13.0	0.875	89.0	-85.0	0.125	10.0	3.0	1.0	0.4056587367704196	1.566	n/a	stim	s561
589.225	0.659	1.144895047762696	end_round	0.0	columbia_card_task_fmri	13.0	0.8571428571428572	71.0	-85.0	0.1428571428571428	10.0	4.0	1.0	2.284177757998499	0.659	3.0	stim	s561
589.895	2.25	n/a	-1.0	n/a	columbia_card_task_fmri	n/a	n/a	-1.0	n/a	n/a	n/a	n/a	n/a	n/a	n/a	n/a	feedback	s561
592.145	0.272	n/a	-1.0	n/a	columbia_card_task_fmri	n/a	n/a	-1.0	n/a	n/a	n/a	n/a	n/a	n/a	n/a	n/a	ITI	s561
592.422	1.318	0.3448950477626953	draw_card	0.0	columbia_card_task_fmri	14.0	0.8	89.0	-65.0	0.2	10.0	1.0	2.0	-0.4029806553814623	1.318	n/a	stim	s561
593.746	1.634	-1.4106605077928591	draw_card	0.0	columbia_card_task_fmri	14.0	0.7777777777777778	89.0	-65.0	0.2222222222222222	10.0	2.0	2.0	0.8377095965095762	1.634	n/a	stim	s561
595.387	2.765	-3.6051049522373058	draw_card	1.0	columbia_card_task_fmri	14.0	0.75	89.0	-65.0	0.25	10.0	3.0	2.0	2.1994907070508205	2.765	3.0	stim	s561
598.163	2.25	n/a	-1.0	n/a	columbia_card_task_fmri	n/a	n/a	-1.0	n/a	n/a	n/a	n/a	n/a	n/a	n/a	n/a	feedback	s561
600.413	0.34	n/a	-1.0	n/a	columbia_card_task_fmri	n/a	n/a	-1.0	n/a	n/a	n/a	n/a	n/a	n/a	n/a	n/a	ITI	s561
600.759	1.597	1.7448950477626957	draw_card	0.0	columbia_card_task_fmri	17.0	0.8	89.0	-70.0	0.2	10.0	1.0	2.0	2.7903466463931323	1.597	n/a	stim	s561
602.362	0.864	-0.1884382855706379	end_round	0.0	columbia_card_task_fmri	17.0	0.7777777777777778	71.0	-70.0	0.2222222222222222	10.0	2.0	2.0	4.157205704963872	0.864	1.0	stim	s561
603.237	2.25	n/a	-1.0	n/a	columbia_card_task_fmri	n/a	n/a	-1.0	n/a	n/a	n/a	n/a	n/a	n/a	n/a	n/a	feedback	s561
605.487	0.136	n/a	-1.0	n/a	columbia_card_task_fmri	n/a	n/a	-1.0	n/a	n/a	n/a	n/a	n/a	n/a	n/a	n/a	ITI	s561
605.628	1.093	0.4782283810960281	draw_card	0.0	columbia_card_task_fmri	13.0	0.8333333333333334	89.0	-75.0	0.1666666666666666	12.0	1.0	2.0	0.7900379033491447	1.093	n/a	stim	s561
606.728	1.425	-0.8551049522373075	draw_card	0.0	columbia_card_task_fmri	13.0	0.8181818181818181	89.0	-75.0	0.1818181818181818	12.0	2.0	2.0	1.933139926724131	1.425	n/a	stim	s561
608.158	1.894	-2.4551049522373054	draw_card	0.0	columbia_card_task_fmri	13.0	0.8	89.0	-75.0	0.2	12.0	3.0	2.0	3.189597616895206	1.894	n/a	stim	s561
610.058	1.744	-4.410660507792859	draw_card	0.0	columbia_card_task_fmri	13.0	0.7777777777777778	89.0	-75.0	0.2222222222222222	12.0	4.0	2.0	4.57222459269007	1.744	n/a	stim	s561
611.808	2.351	-6.855104952237306	draw_card	0.0	columbia_card_task_fmri	13.0	0.75	89.0	-75.0	0.25	12.0	5.0	2.0	6.089746004765864	2.351	n/a	stim	s561
614.165	0.833	-9.997962095094447	end_round	0.0	columbia_card_task_fmri	13.0	0.7142857142857143	71.0	-75.0	0.2857142857142857	12.0	6.0	2.0	7.736477307340891	0.833	5.0	stim	s561
615.006	2.25	n/a	-1.0	n/a	columbia_card_task_fmri	n/a	n/a	-1.0	n/a	n/a	n/a	n/a	n/a	n/a	n/a	n/a	feedback	s561
617.256	0.34	n/a	-1.0	n/a	columbia_card_task_fmri	n/a	n/a	-1.0	n/a	n/a	n/a	n/a	n/a	n/a	n/a	n/a	ITI	s561
617.602	1.349	2.144895047762696	draw_card	0.0	columbia_card_task_fmri	14.0	0.8333333333333334	89.0	-70.0	0.1666666666666666	12.0	1.0	2.0	-0.6973452736854071	1.349	n/a	stim	s561
618.958	1.577	0.8721677750354191	draw_card	0.0	columbia_card_task_fmri	14.0	0.8181818181818181	89.0	-70.0	0.1818181818181818	12.0	2.0	2.0	0.3935786758360109	1.577	n/a	stim	s561
620.541	1.958	-0.6551049522373047	draw_card	0.0	columbia_card_task_fmri	14.0	0.8	89.0	-70.0	0.2	12.0	3.0	2.0	1.5927004219268426	1.958	n/a	stim	s561
622.504	1.863	-2.521771618903972	draw_card	1.0	columbia_card_task_fmri	14.0	0.7777777777777778	89.0	-70.0	0.2222222222222222	12.0	4.0	2.0	2.9122517337134823	1.863	4.0	stim	s561
624.377	2.25	n/a	-1.0	n/a	columbia_card_task_fmri	n/a	n/a	-1.0	n/a	n/a	n/a	n/a	n/a	n/a	n/a	n/a	feedback	s561
626.627	0.068	n/a	-1.0	n/a	columbia_card_task_fmri	n/a	n/a	-1.0	n/a	n/a	n/a	n/a	n/a	n/a	n/a	n/a	ITI	s561
626.702	0.72	2.144895047762696	draw_card	0.0	columbia_card_task_fmri	16.0	0.8333333333333334	89.0	-80.0	0.1666666666666666	12.0	1.0	2.0	3.7656340499831984	0.72	n/a	stim	s561
627.427	1.264	0.6903495932172374	draw_card	0.0	columbia_card_task_fmri	16.0	0.8181818181818181	89.0	-80.0	0.1818181818181818	12.0	2.0	2.0	5.0130645490728085	1.264	n/a	stim	s561
628.698	1.247	-1.055104952237305	draw_card	0.0	columbia_card_task_fmri	16.0	0.8	89.0	-80.0	0.2	12.0	3.0	2.0	6.384165757647232	1.247	n/a	stim	s561
629.952	2.006	-3.18843828557064	draw_card	0.0	columbia_card_task_fmri	16.0	0.7777777777777778	89.0	-80.0	0.2222222222222222	12.0	4.0	2.0	7.892915067566435	2.006	n/a	stim	s561
631.965	0.369	-5.855104952237306	draw_card	0.0	columbia_card_task_fmri	16.0	0.75	89.0	-80.0	0.25	12.0	5.0	2.0	9.548828005017748	0.369	n/a	stim	s561
632.341	1.252	-9.283676380808732	end_round	0.0	columbia_card_task_fmri	16.0	0.7142857142857143	71.0	-80.0	0.2857142857142857	12.0	6.0	2.0	11.345696693845165	1.252	5.0	stim	s561
633.603	2.25	n/a	-1.0	n/a	columbia_card_task_fmri	n/a	n/a	-1.0	n/a	n/a	n/a	n/a	n/a	n/a	n/a	n/a	feedback	s561
635.853	0.0	n/a	-1.0	n/a	columbia_card_task_fmri	n/a	n/a	-1.0	n/a	n/a	n/a	n/a	n/a	n/a	n/a	n/a	ITI	s561
635.859	1.359	1.944895047762695	draw_card	0.0	columbia_card_task_fmri	16.0	0.8	89.0	-65.0	0.2	15.0	1.0	3.0	0.3952280002451758	1.359	n/a	stim	s561
637.225	1.216	0.7877521906198384	draw_card	1.0	columbia_card_task_fmri	16.0	0.7857142857142857	89.0	-65.0	0.2142857142857142	15.0	2.0	3.0	1.229845238572146	1.216	2.0	stim	s561
638.448	2.25	n/a	-1.0	n/a	columbia_card_task_fmri	n/a	n/a	-1.0	n/a	n/a	n/a	n/a	n/a	n/a	n/a	n/a	feedback	s561
640.698	0.204	n/a	-1.0	n/a	columbia_card_task_fmri	n/a	n/a	-1.0	n/a	n/a	n/a	n/a	n/a	n/a	n/a	n/a	ITI	s561
640.909	1.612	0.2698950477626942	draw_card	1.0	columbia_card_task_fmri	15.0	0.8125	89.0	-75.0	0.1875	16.0	1.0	3.0	3.117844716374961	1.612	1.0	stim	s561
642.528	2.25	n/a	-1.0	n/a	columbia_card_task_fmri	n/a	n/a	-1.0	n/a	n/a	n/a	n/a	n/a	n/a	n/a	n/a	feedback	s561
644.778	1.02	n/a	-1.0	n/a	columbia_card_task_fmri	n/a	n/a	-1.0	n/a	n/a	n/a	n/a	n/a	n/a	n/a	n/a	ITI	s561
645.804	1.165	0.8323950477626942	draw_card	1.0	columbia_card_task_fmri	14.0	0.6875	89.0	-35.0	0.3125	16.0	1.0	5.0	-9.262527635410926	1.165	1.0	stim	s561
646.979	2.25	n/a	-1.0	n/a	columbia_card_task_fmri	n/a	n/a	-1.0	n/a	n/a	n/a	n/a	n/a	n/a	n/a	n/a	feedback	s561
649.229	0.0	n/a	-1.0	n/a	columbia_card_task_fmri	n/a	n/a	-1.0	n/a	n/a	n/a	n/a	n/a	n/a	n/a	n/a	ITI	s561
649.235	0.901	6.011561714429361	draw_card	0.0	columbia_card_task_fmri	16.0	0.8666666666666667	89.0	-75.0	0.1333333333333333	15.0	1.0	2.0	-1.067367343152224	0.901	n/a	stim	s561
650.143	1.194	5.144895047762696	draw_card	0.0	columbia_card_task_fmri	16.0	0.8571428571428572	89.0	-75.0	0.1428571428571428	15.0	2.0	2.0	-0.1601684346614575	1.194	n/a	stim	s561
651.343	0.881	4.144895047762694	draw_card	0.0	columbia_card_task_fmri	16.0	0.8461538461538461	89.0	-75.0	0.1538461538461538	15.0	3.0	2.0	0.827205237256976	0.881	n/a	stim	s561
652.229	0.64	2.978228381096028	draw_card	0.0	columbia_card_task_fmri	16.0	0.8333333333333334	89.0	-75.0	0.1666666666666666	15.0	4.0	2.0	1.9057667363358064	0.64	n/a	stim	s561
652.876	1.819	1.5994405023081475	draw_card	0.0	columbia_card_task_fmri	16.0	0.8181818181818181	89.0	-75.0	0.1818181818181818	15.0	5.0	2.0	3.087995933183606	1.819	n/a	stim	s561
654.7	0.868	-0.055104952237305	draw_card	0.0	columbia_card_task_fmri	16.0	0.8	89.0	-75.0	0.2	15.0	6.0	2.0	4.387449038298712	0.868	n/a	stim	s561
655.574	1.108	-2.0773271744595254	draw_card	0.0	columbia_card_task_fmri	16.0	0.7777777777777778	89.0	-75.0	0.2222222222222222	15.0	7.0	2.0	5.817376074757732	1.108	n/a	stim	s561
656.687	1.257	-4.605104952237306	draw_card	0.0	columbia_card_task_fmri	16.0	0.75	89.0	-75.0	0.25	15.0	8.0	2.0	7.386798556572671	1.257	n/a	stim	s561
657.949	0.884	-7.855104952237304	end_round	0.0	columbia_card_task_fmri	16.0	0.7142857142857143	71.0	-75.0	0.2857142857142857	15.0	9.0	2.0	9.08983562501615	0.884	8.0	stim	s561
658.841	2.25	n/a	-1.0	n/a	columbia_card_task_fmri	n/a	n/a	-1.0	n/a	n/a	n/a	n/a	n/a	n/a	n/a	n/a	feedback	s561
661.091	0.0	n/a	-1.0	n/a	columbia_card_task_fmri	n/a	n/a	-1.0	n/a	n/a	n/a	n/a	n/a	n/a	n/a	n/a	ITI	s561
661.097	0.929	6.678228381096028	draw_card	0.0	columbia_card_task_fmri	16.0	0.8666666666666667	89.0	-70.0	0.1333333333333333	15.0	1.0	2.0	-2.762733642710714	0.929	n/a	stim	s561
662.033	1.141	5.8591807620484095	draw_card	0.0	columbia_card_task_fmri	16.0	0.8571428571428572	89.0	-70.0	0.1428571428571428	15.0	2.0	2.0	-1.9056191843782384	1.141	n/a	stim	s561
663.181	1.407	4.914125816993463	draw_card	0.0	columbia_card_task_fmri	16.0	0.8461538461538461	89.0	-70.0	0.1538461538461538	15.0	3.0	2.0	-0.9727413026174894	1.407	n/a	stim	s561
664.595	0.881	3.811561714429362	draw_card	0.0	columbia_card_task_fmri	16.0	0.8333333333333334	89.0	-70.0	0.1666666666666666	15.0	4.0	2.0	0.0463077372940361	0.881	n/a	stim	s561
665.483	0.815	2.508531411399056	draw_card	1.0	columbia_card_task_fmri	16.0	0.8181818181818181	89.0	-70.0	0.1818181818181818	15.0	5.0	2.0	1.1633220091134788	0.815	5.0	stim	s561
666.309	2.25	n/a	-1.0	n/a	columbia_card_task_fmri	n/a	n/a	-1.0	n/a	n/a	n/a	n/a	n/a	n/a	n/a	n/a	feedback	s561
668.559	0.068	n/a	-1.0	n/a	columbia_card_task_fmri	n/a	n/a	-1.0	n/a	n/a	n/a	n/a	n/a	n/a	n/a	n/a	ITI	s561
668.632	0.855	4.019895047762694	draw_card	0.0	columbia_card_task_fmri	8.0	0.9375	89.0	-90.0	0.0625	16.0	1.0	1.0	-8.256896863145734	0.855	n/a	stim	s561
669.493	1.135	3.611561714429361	draw_card	0.0	columbia_card_task_fmri	8.0	0.9333333333333332	89.0	-90.0	0.0666666666666666	16.0	2.0	1.0	-7.536277773758965	1.135	n/a	stim	s561
670.634	1.634	3.144895047762695	draw_card	0.0	columbia_card_task_fmri	8.0	0.9285714285714286	89.0	-90.0	0.0714285714285714	16.0	3.0	1.0	-6.74585524429601	1.634	n/a	stim	s561
672.274	1.275	2.606433509301156	draw_card	0.0	columbia_card_task_fmri	8.0	0.9230769230769232	89.0	-90.0	0.0769230769230769	16.0	4.0	1.0	-5.873755804804322	1.275	n/a	stim	s561
673.555	1.308	1.9782283810960275	draw_card	0.0	columbia_card_task_fmri	8.0	0.9166666666666666	89.0	-90.0	0.0833333333333333	16.0	5.0	1.0	-4.905128461889305	1.308	n/a	stim	s561
674.869	2.071	1.235804138671785	draw_card	0.0	columbia_card_task_fmri	8.0	0.9090909090909092	89.0	-90.0	0.0909090909090909	16.0	6.0	1.0	-3.821141132558445	2.071	n/a	stim	s561
676.946	1.097	0.3448950477626944	end_round	0.0	columbia_card_task_fmri	8.0	0.9	71.0	-90.0	0.1	16.0	7.0	1.0	-2.597553674659004	1.097	6.0	stim	s561
678.051	2.25	n/a	-1.0	n/a	columbia_card_task_fmri	n/a	n/a	-1.0	n/a	n/a	n/a	n/a	n/a	n/a	n/a	n/a	feedback	s561
680.301	0.476	n/a	-1.0	n/a	columbia_card_task_fmri	n/a	n/a	-1.0	n/a	n/a	n/a	n/a	n/a	n/a	n/a	n/a	ITI	s561
