onset	duration	planning	condition	current_position	exp_stage	experiment_exp_id	goal_state	key_press	problem_id	response_time	start_state	trial_id	worker_id
-56.59	0.0	0	n/a	n/a	n/a	ward_and_allport	n/a	32.0	n/a	7.628	n/a	instructions	s497
3.009	4.2	1	UA_with_intermediate	1,0,0,2,0,0,0,0,0	practice	ward_and_allport	1,2,3,0,0,0,0,0,0	71.0	0.0	4.2	1,0,0,2,3,0,0,0,0	to_hand	s497
7.21	1.55	0	UA_with_intermediate	1,0,0,2,3,0,0,0,0	practice	ward_and_allport	1,2,3,0,0,0,0,0,0	71.0	0.0	1.55	1,0,0,2,3,0,0,0,0	to_board	s497
8.764	2.234	0	UA_with_intermediate	1,0,0,2,0,0,0,0,0	practice	ward_and_allport	1,2,3,0,0,0,0,0,0	71.0	0.0	2.234	1,0,0,2,3,0,0,0,0	to_hand	s497
10.999	0.512	0	UA_with_intermediate	1,0,0,2,0,0,3,0,0	practice	ward_and_allport	1,2,3,0,0,0,0,0,0	82.0	0.0	0.512	1,0,0,2,3,0,0,0,0	to_board	s497
11.512	0.892	0	UA_with_intermediate	1,0,0,0,0,0,3,0,0	practice	ward_and_allport	1,2,3,0,0,0,0,0,0	71.0	0.0	0.892	1,0,0,2,3,0,0,0,0	to_hand	s497
12.406	1.048	0	UA_with_intermediate	1,2,0,0,0,0,3,0,0	practice	ward_and_allport	1,2,3,0,0,0,0,0,0	89.0	0.0	1.048	1,0,0,2,3,0,0,0,0	to_board	s497
13.456	1.496	0	UA_with_intermediate	1,2,0,0,0,0,0,0,0	practice	ward_and_allport	1,2,3,0,0,0,0,0,0	82.0	0.0	1.496	1,0,0,2,3,0,0,0,0	to_hand	s497
14.953	1.502	0	UA_with_intermediate	1,2,3,0,0,0,0,0,0	practice	ward_and_allport	1,2,3,0,0,0,0,0,0	89.0	0.0	1.502	1,0,0,2,3,0,0,0,0	to_board	s497
16.459	1.0	0	UA_with_intermediate	n/a	practice	ward_and_allport	n/a	-1.0	0.0	n/a	n/a	feedback	s497
18.961	4.113	1	UA_with_intermediate	1,2,0,0,0,0,0,0,0	practice	ward_and_allport	1,3,2,0,0,0,0,0,0	71.0	1.0	4.113	1,2,0,3,0,0,0,0,0	to_hand	s497
23.076	2.556	0	UA_with_intermediate	1,2,0,3,0,0,0,0,0	practice	ward_and_allport	1,3,2,0,0,0,0,0,0	71.0	1.0	2.556	1,2,0,3,0,0,0,0,0	to_board	s497
25.634	1.111	0	UA_with_intermediate	1,0,0,3,0,0,0,0,0	practice	ward_and_allport	1,3,2,0,0,0,0,0,0	89.0	1.0	1.111	1,2,0,3,0,0,0,0,0	to_hand	s497
26.746	0.99	0	UA_with_intermediate	1,0,0,3,0,0,2,0,0	practice	ward_and_allport	1,3,2,0,0,0,0,0,0	82.0	1.0	0.99	1,2,0,3,0,0,0,0,0	to_board	s497
27.736	1.183	0	UA_with_intermediate	1,0,0,0,0,0,2,0,0	practice	ward_and_allport	1,3,2,0,0,0,0,0,0	71.0	1.0	1.183	1,2,0,3,0,0,0,0,0	to_hand	s497
28.921	0.548	0	UA_with_intermediate	1,3,0,0,0,0,2,0,0	practice	ward_and_allport	1,3,2,0,0,0,0,0,0	89.0	1.0	0.548	1,2,0,3,0,0,0,0,0	to_board	s497
29.471	1.268	0	UA_with_intermediate	1,3,0,0,0,0,0,0,0	practice	ward_and_allport	1,3,2,0,0,0,0,0,0	82.0	1.0	1.268	1,2,0,3,0,0,0,0,0	to_hand	s497
30.74	0.658	0	UA_with_intermediate	1,3,2,0,0,0,0,0,0	practice	ward_and_allport	1,3,2,0,0,0,0,0,0	89.0	1.0	0.658	1,2,0,3,0,0,0,0,0	to_board	s497
31.401	1.0	0	UA_with_intermediate	n/a	practice	ward_and_allport	n/a	-1.0	1.0	n/a	n/a	feedback	s497
32.401	1.1	0	UA_with_intermediate	n/a	practice	ward_and_allport	n/a	-1.0	1.0	n/a	n/a	ITI	s497
33.503	5.072	1	UA_without_intermediate	0,0,0,1,2,0,0,0,0	practice	ward_and_allport	3,2,1,0,0,0,0,0,0	82.0	2.0	5.072	0,0,0,1,2,0,3,0,0	to_hand	s497
38.576	0.696	0	UA_without_intermediate	3,0,0,1,2,0,0,0,0	practice	ward_and_allport	3,2,1,0,0,0,0,0,0	89.0	2.0	0.696	0,0,0,1,2,0,3,0,0	to_board	s497
39.274	3.334	0	UA_without_intermediate	3,0,0,1,0,0,0,0,0	practice	ward_and_allport	3,2,1,0,0,0,0,0,0	71.0	2.0	3.334	0,0,0,1,2,0,3,0,0	to_hand	s497
42.609	1.104	0	UA_without_intermediate	3,2,0,1,0,0,0,0,0	practice	ward_and_allport	3,2,1,0,0,0,0,0,0	89.0	2.0	1.104	0,0,0,1,2,0,3,0,0	to_board	s497
43.715	0.998	0	UA_without_intermediate	3,2,0,0,0,0,0,0,0	practice	ward_and_allport	3,2,1,0,0,0,0,0,0	71.0	2.0	0.998	0,0,0,1,2,0,3,0,0	to_hand	s497
44.714	0.511	0	UA_without_intermediate	3,2,1,0,0,0,0,0,0	practice	ward_and_allport	3,2,1,0,0,0,0,0,0	89.0	2.0	0.511	0,0,0,1,2,0,3,0,0	to_board	s497
45.231	1.0	0	UA_without_intermediate	n/a	practice	ward_and_allport	n/a	-1.0	2.0	n/a	n/a	feedback	s497
46.231	1.2	0	UA_without_intermediate	n/a	practice	ward_and_allport	n/a	-1.0	2.0	n/a	n/a	ITI	s497
47.432	2.526	1	UA_without_intermediate	0,0,0,1,0,0,3,0,0	practice	ward_and_allport	2,3,1,0,0,0,0,0,0	71.0	3.0	2.526	0,0,0,1,2,0,3,0,0	to_hand	s497
49.959	0.679	0	UA_without_intermediate	2,0,0,1,0,0,3,0,0	practice	ward_and_allport	2,3,1,0,0,0,0,0,0	89.0	3.0	0.679	0,0,0,1,2,0,3,0,0	to_board	s497
50.64	2.906	0	UA_without_intermediate	2,0,0,1,0,0,0,0,0	practice	ward_and_allport	2,3,1,0,0,0,0,0,0	82.0	3.0	2.906	0,0,0,1,2,0,3,0,0	to_hand	s497
53.547	0.793	0	UA_without_intermediate	2,3,0,1,0,0,0,0,0	practice	ward_and_allport	2,3,1,0,0,0,0,0,0	89.0	3.0	0.793	0,0,0,1,2,0,3,0,0	to_board	s497
54.342	0.649	0	UA_without_intermediate	2,3,0,0,0,0,0,0,0	practice	ward_and_allport	2,3,1,0,0,0,0,0,0	71.0	3.0	0.649	0,0,0,1,2,0,3,0,0	to_hand	s497
54.993	0.502	0	UA_without_intermediate	2,3,1,0,0,0,0,0,0	practice	ward_and_allport	2,3,1,0,0,0,0,0,0	89.0	3.0	0.502	0,0,0,1,2,0,3,0,0	to_board	s497
55.498	1.0	0	UA_without_intermediate	n/a	practice	ward_and_allport	n/a	-1.0	3.0	n/a	n/a	feedback	s497
56.498	1.0	0	UA_without_intermediate	n/a	practice	ward_and_allport	n/a	-1.0	3.0	n/a	n/a	ITI	s497
59.504	8.316	1	PA_without_intermediate	0,0,0,1,2,0,0,0,0	test	ward_and_allport	1,0,0,0,0,0,3,2,0	71.0	0.0	8.316	0,0,0,1,2,3,0,0,0	to_hand	s497
67.822	1.545	0	PA_without_intermediate	0,0,0,1,2,0,3,0,0	test	ward_and_allport	1,0,0,0,0,0,3,2,0	82.0	0.0	1.545	0,0,0,1,2,3,0,0,0	to_board	s497
69.369	1.918	0	PA_without_intermediate	0,0,0,1,0,0,3,0,0	test	ward_and_allport	1,0,0,0,0,0,3,2,0	71.0	0.0	1.918	0,0,0,1,2,3,0,0,0	to_hand	s497
71.288	0.74	0	PA_without_intermediate	0,0,0,1,0,0,3,2,0	test	ward_and_allport	1,0,0,0,0,0,3,2,0	82.0	0.0	0.74	0,0,0,1,2,3,0,0,0	to_board	s497
72.03	1.688	0	PA_without_intermediate	0,0,0,0,0,0,3,2,0	test	ward_and_allport	1,0,0,0,0,0,3,2,0	71.0	0.0	1.688	0,0,0,1,2,3,0,0,0	to_hand	s497
73.719	0.435	0	PA_without_intermediate	1,0,0,0,0,0,3,2,0	test	ward_and_allport	1,0,0,0,0,0,3,2,0	89.0	0.0	0.435	0,0,0,1,2,3,0,0,0	to_board	s497
74.157	1.0	0	PA_without_intermediate	n/a	test	ward_and_allport	n/a	-1.0	0.0	n/a	n/a	feedback	s497
75.157	2.088	0	PA_without_intermediate	n/a	test	ward_and_allport	n/a	-1.0	0.0	n/a	n/a	ITI	s497
77.248	3.524	1	PA_with_intermediate	0,0,0,1,2,0,0,0,0	test	ward_and_allport	0,0,0,1,0,0,2,3,0	71.0	1.0	3.524	0,0,0,1,2,3,0,0,0	to_hand	s497
80.774	0.909	0	PA_with_intermediate	3,0,0,1,2,0,0,0,0	test	ward_and_allport	0,0,0,1,0,0,2,3,0	89.0	1.0	0.909	0,0,0,1,2,3,0,0,0	to_board	s497
81.686	1.512	0	PA_with_intermediate	3,0,0,1,0,0,0,0,0	test	ward_and_allport	0,0,0,1,0,0,2,3,0	71.0	1.0	1.512	0,0,0,1,2,3,0,0,0	to_hand	s497
83.198	0.806	0	PA_with_intermediate	3,0,0,1,0,0,2,0,0	test	ward_and_allport	0,0,0,1,0,0,2,3,0	82.0	1.0	0.806	0,0,0,1,2,3,0,0,0	to_board	s497
84.007	1.637	0	PA_with_intermediate	0,0,0,1,0,0,2,0,0	test	ward_and_allport	0,0,0,1,0,0,2,3,0	89.0	1.0	1.637	0,0,0,1,2,3,0,0,0	to_hand	s497
85.646	0.715	0	PA_with_intermediate	0,0,0,1,0,0,2,3,0	test	ward_and_allport	0,0,0,1,0,0,2,3,0	82.0	1.0	0.715	0,0,0,1,2,3,0,0,0	to_board	s497
86.365	1.0	0	PA_with_intermediate	n/a	test	ward_and_allport	n/a	-1.0	1.0	n/a	n/a	feedback	s497
87.365	1.0	0	PA_with_intermediate	n/a	test	ward_and_allport	n/a	-1.0	1.0	n/a	n/a	ITI	s497
88.368	3.725	1	PA_without_intermediate	0,0,0,1,2,0,0,0,0	test	ward_and_allport	2,0,0,0,0,0,3,1,0	71.0	2.0	3.725	0,0,0,1,2,3,0,0,0	to_hand	s497
92.094	1.093	0	PA_without_intermediate	0,0,0,1,2,0,3,0,0	test	ward_and_allport	2,0,0,0,0,0,3,1,0	82.0	2.0	1.093	0,0,0,1,2,3,0,0,0	to_board	s497
93.19	2.26	0	PA_without_intermediate	0,0,0,1,0,0,3,0,0	test	ward_and_allport	2,0,0,0,0,0,3,1,0	71.0	2.0	2.26	0,0,0,1,2,3,0,0,0	to_hand	s497
95.451	0.458	0	PA_without_intermediate	2,0,0,1,0,0,3,0,0	test	ward_and_allport	2,0,0,0,0,0,3,1,0	89.0	2.0	0.458	0,0,0,1,2,3,0,0,0	to_board	s497
95.91	1.511	0	PA_without_intermediate	2,0,0,0,0,0,3,0,0	test	ward_and_allport	2,0,0,0,0,0,3,1,0	71.0	2.0	1.511	0,0,0,1,2,3,0,0,0	to_hand	s497
97.422	0.71	0	PA_without_intermediate	2,0,0,0,0,0,3,1,0	test	ward_and_allport	2,0,0,0,0,0,3,1,0	82.0	2.0	0.71	0,0,0,1,2,3,0,0,0	to_board	s497
98.136	1.0	0	PA_without_intermediate	n/a	test	ward_and_allport	n/a	-1.0	2.0	n/a	n/a	feedback	s497
99.136	1.0	0	PA_without_intermediate	n/a	test	ward_and_allport	n/a	-1.0	2.0	n/a	n/a	ITI	s497
100.138	3.431	1	PA_without_intermediate	0,0,0,0,0,0,1,2,0	test	ward_and_allport	3,2,0,1,0,0,0,0,0	82.0	3.0	3.431	0,0,0,0,0,0,1,2,3	to_hand	s497
103.57	1.112	0	PA_without_intermediate	3,0,0,0,0,0,1,2,0	test	ward_and_allport	3,2,0,1,0,0,0,0,0	89.0	3.0	1.112	0,0,0,0,0,0,1,2,3	to_board	s497
104.684	1.459	0	PA_without_intermediate	3,0,0,0,0,0,1,0,0	test	ward_and_allport	3,2,0,1,0,0,0,0,0	82.0	3.0	1.459	0,0,0,0,0,0,1,2,3	to_hand	s497
106.144	0.661	0	PA_without_intermediate	3,2,0,0,0,0,1,0,0	test	ward_and_allport	3,2,0,1,0,0,0,0,0	89.0	3.0	0.661	0,0,0,0,0,0,1,2,3	to_board	s497
106.807	1.498	0	PA_without_intermediate	3,2,0,0,0,0,0,0,0	test	ward_and_allport	3,2,0,1,0,0,0,0,0	82.0	3.0	1.498	0,0,0,0,0,0,1,2,3	to_hand	s497
108.307	0.577	0	PA_without_intermediate	3,2,0,1,0,0,0,0,0	test	ward_and_allport	3,2,0,1,0,0,0,0,0	71.0	3.0	0.577	0,0,0,0,0,0,1,2,3	to_board	s497
108.887	1.0	0	PA_without_intermediate	n/a	test	ward_and_allport	n/a	-1.0	3.0	n/a	n/a	feedback	s497
109.887	1.0	0	PA_without_intermediate	n/a	test	ward_and_allport	n/a	-1.0	3.0	n/a	n/a	ITI	s497
110.89	5.158	1	PA_with_intermediate	1,2,0,0,0,0,0,0,0	test	ward_and_allport	1,3,0,0,0,0,2,0,0	89.0	4.0	5.158	1,2,3,0,0,0,0,0,0	to_hand	s497
116.05	0.843	0	PA_with_intermediate	1,2,0,3,0,0,0,0,0	test	ward_and_allport	1,3,0,0,0,0,2,0,0	71.0	4.0	0.843	1,2,3,0,0,0,0,0,0	to_board	s497
116.895	1.583	0	PA_with_intermediate	1,0,0,3,0,0,0,0,0	test	ward_and_allport	1,3,0,0,0,0,2,0,0	89.0	4.0	1.583	1,2,3,0,0,0,0,0,0	to_hand	s497
118.479	0.806	0	PA_with_intermediate	1,0,0,3,0,0,2,0,0	test	ward_and_allport	1,3,0,0,0,0,2,0,0	82.0	4.0	0.806	1,2,3,0,0,0,0,0,0	to_board	s497
119.289	2.232	0	PA_with_intermediate	1,0,0,0,0,0,2,0,0	test	ward_and_allport	1,3,0,0,0,0,2,0,0	71.0	4.0	2.232	1,2,3,0,0,0,0,0,0	to_hand	s497
121.522	0.599	0	PA_with_intermediate	1,3,0,0,0,0,2,0,0	test	ward_and_allport	1,3,0,0,0,0,2,0,0	89.0	4.0	0.599	1,2,3,0,0,0,0,0,0	to_board	s497
122.125	1.0	0	PA_with_intermediate	n/a	test	ward_and_allport	n/a	-1.0	4.0	n/a	n/a	feedback	s497
123.125	1.544	0	PA_with_intermediate	n/a	test	ward_and_allport	n/a	-1.0	4.0	n/a	n/a	ITI	s497
124.673	3.403	1	PA_without_intermediate	0,0,0,1,2,0,0,0,0	test	ward_and_allport	1,0,0,0,0,0,3,2,0	71.0	5.0	3.403	0,0,0,1,2,3,0,0,0	to_hand	s497
128.077	3.263	0	PA_without_intermediate	0,0,0,1,2,0,3,0,0	test	ward_and_allport	1,0,0,0,0,0,3,2,0	82.0	5.0	3.263	0,0,0,1,2,3,0,0,0	to_board	s497
131.342	1.712	0	PA_without_intermediate	0,0,0,1,0,0,3,0,0	test	ward_and_allport	1,0,0,0,0,0,3,2,0	71.0	5.0	1.712	0,0,0,1,2,3,0,0,0	to_hand	s497
133.055	0.859	0	PA_without_intermediate	0,0,0,1,0,0,3,2,0	test	ward_and_allport	1,0,0,0,0,0,3,2,0	82.0	5.0	0.859	0,0,0,1,2,3,0,0,0	to_board	s497
133.918	0.599	0	PA_without_intermediate	0,0,0,0,0,0,3,2,0	test	ward_and_allport	1,0,0,0,0,0,3,2,0	71.0	5.0	0.599	0,0,0,1,2,3,0,0,0	to_hand	s497
134.517	0.509	0	PA_without_intermediate	1,0,0,0,0,0,3,2,0	test	ward_and_allport	1,0,0,0,0,0,3,2,0	89.0	5.0	0.509	0,0,0,1,2,3,0,0,0	to_board	s497
135.03	1.0	0	PA_without_intermediate	n/a	test	ward_and_allport	n/a	-1.0	5.0	n/a	n/a	feedback	s497
136.03	1.272	0	PA_without_intermediate	n/a	test	ward_and_allport	n/a	-1.0	5.0	n/a	n/a	ITI	s497
137.305	3.593	1	PA_with_intermediate	0,0,0,0,0,0,1,2,0	test	ward_and_allport	2,0,0,0,0,0,1,3,0	82.0	6.0	3.593	0,0,0,0,0,0,1,2,3	to_hand	s497
140.9	0.881	0	PA_with_intermediate	0,0,0,3,0,0,1,2,0	test	ward_and_allport	2,0,0,0,0,0,1,3,0	71.0	6.0	0.881	0,0,0,0,0,0,1,2,3	to_board	s497
141.784	1.239	0	PA_with_intermediate	0,0,0,3,0,0,1,0,0	test	ward_and_allport	2,0,0,0,0,0,1,3,0	82.0	6.0	1.239	0,0,0,0,0,0,1,2,3	to_hand	s497
143.024	0.561	0	PA_with_intermediate	2,0,0,3,0,0,1,0,0	test	ward_and_allport	2,0,0,0,0,0,1,3,0	89.0	6.0	0.561	0,0,0,0,0,0,1,2,3	to_board	s497
143.588	1.821	0	PA_with_intermediate	2,0,0,0,0,0,1,0,0	test	ward_and_allport	2,0,0,0,0,0,1,3,0	71.0	6.0	1.821	0,0,0,0,0,0,1,2,3	to_hand	s497
145.411	0.568	0	PA_with_intermediate	2,0,0,0,0,0,1,3,0	test	ward_and_allport	2,0,0,0,0,0,1,3,0	82.0	6.0	0.568	0,0,0,0,0,0,1,2,3	to_board	s497
145.983	1.0	0	PA_with_intermediate	n/a	test	ward_and_allport	n/a	-1.0	6.0	n/a	n/a	feedback	s497
146.983	3.04	0	PA_with_intermediate	n/a	test	ward_and_allport	n/a	-1.0	6.0	n/a	n/a	ITI	s497
150.027	2.481	1	PA_with_intermediate	1,2,0,0,0,0,0,0,0	test	ward_and_allport	1,0,0,0,0,0,2,3,0	89.0	7.0	2.481	1,2,3,0,0,0,0,0,0	to_hand	s497
152.509	0.733	0	PA_with_intermediate	1,2,0,3,0,0,0,0,0	test	ward_and_allport	1,0,0,0,0,0,2,3,0	71.0	7.0	0.733	1,2,3,0,0,0,0,0,0	to_board	s497
153.245	0.784	0	PA_with_intermediate	1,0,0,3,0,0,0,0,0	test	ward_and_allport	1,0,0,0,0,0,2,3,0	89.0	7.0	0.784	1,2,3,0,0,0,0,0,0	to_hand	s497
154.03	0.687	0	PA_with_intermediate	1,0,0,3,0,0,2,0,0	test	ward_and_allport	1,0,0,0,0,0,2,3,0	82.0	7.0	0.687	1,2,3,0,0,0,0,0,0	to_board	s497
154.72	1.06	0	PA_with_intermediate	1,0,0,0,0,0,2,0,0	test	ward_and_allport	1,0,0,0,0,0,2,3,0	71.0	7.0	1.06	1,2,3,0,0,0,0,0,0	to_hand	s497
155.781	0.646	0	PA_with_intermediate	1,0,0,0,0,0,2,3,0	test	ward_and_allport	1,0,0,0,0,0,2,3,0	82.0	7.0	0.646	1,2,3,0,0,0,0,0,0	to_board	s497
156.432	1.0	0	PA_with_intermediate	n/a	test	ward_and_allport	n/a	-1.0	7.0	n/a	n/a	feedback	s497
157.432	1.272	0	PA_with_intermediate	n/a	test	ward_and_allport	n/a	-1.0	7.0	n/a	n/a	ITI	s497
158.707	3.222	1	PA_with_intermediate	1,2,0,0,0,0,0,0,0	test	ward_and_allport	1,3,0,2,0,0,0,0,0	89.0	8.0	3.222	1,2,3,0,0,0,0,0,0	to_hand	s497
161.93	1.197	0	PA_with_intermediate	1,2,0,0,0,0,3,0,0	test	ward_and_allport	1,3,0,2,0,0,0,0,0	82.0	8.0	1.197	1,2,3,0,0,0,0,0,0	to_board	s497
163.13	1.254	0	PA_with_intermediate	1,0,0,0,0,0,3,0,0	test	ward_and_allport	1,3,0,2,0,0,0,0,0	89.0	8.0	1.254	1,2,3,0,0,0,0,0,0	to_hand	s497
164.386	0.741	0	PA_with_intermediate	1,0,0,2,0,0,3,0,0	test	ward_and_allport	1,3,0,2,0,0,0,0,0	71.0	8.0	0.741	1,2,3,0,0,0,0,0,0	to_board	s497
165.131	2.315	0	PA_with_intermediate	1,0,0,2,0,0,0,0,0	test	ward_and_allport	1,3,0,2,0,0,0,0,0	82.0	8.0	2.315	1,2,3,0,0,0,0,0,0	to_hand	s497
167.447	0.688	0	PA_with_intermediate	1,3,0,2,0,0,0,0,0	test	ward_and_allport	1,3,0,2,0,0,0,0,0	89.0	8.0	0.688	1,2,3,0,0,0,0,0,0	to_board	s497
168.14	1.0	0	PA_with_intermediate	n/a	test	ward_and_allport	n/a	-1.0	8.0	n/a	n/a	feedback	s497
169.14	1.136	0	PA_with_intermediate	n/a	test	ward_and_allport	n/a	-1.0	8.0	n/a	n/a	ITI	s497
170.279	3.221	1	PA_with_intermediate	0,0,0,1,2,0,0,0,0	test	ward_and_allport	2,0,0,1,3,0,0,0,0	71.0	9.0	3.221	0,0,0,1,2,3,0,0,0	to_hand	s497
173.502	0.931	0	PA_with_intermediate	0,0,0,1,2,0,3,0,0	test	ward_and_allport	2,0,0,1,3,0,0,0,0	82.0	9.0	0.931	0,0,0,1,2,3,0,0,0	to_board	s497
174.437	0.507	0	PA_with_intermediate	0,0,0,1,0,0,3,0,0	test	ward_and_allport	2,0,0,1,3,0,0,0,0	71.0	9.0	0.507	0,0,0,1,2,3,0,0,0	to_hand	s497
174.945	0.511	0	PA_with_intermediate	2,0,0,1,0,0,3,0,0	test	ward_and_allport	2,0,0,1,3,0,0,0,0	89.0	9.0	0.511	0,0,0,1,2,3,0,0,0	to_board	s497
175.46	1.315	0	PA_with_intermediate	2,0,0,1,0,0,0,0,0	test	ward_and_allport	2,0,0,1,3,0,0,0,0	82.0	9.0	1.315	0,0,0,1,2,3,0,0,0	to_hand	s497
176.775	1.143	0	PA_with_intermediate	2,0,0,1,3,0,0,0,0	test	ward_and_allport	2,0,0,1,3,0,0,0,0	71.0	9.0	1.143	0,0,0,1,2,3,0,0,0	to_board	s497
177.924	1.0	0	PA_with_intermediate	n/a	test	ward_and_allport	n/a	-1.0	9.0	n/a	n/a	feedback	s497
178.924	1.0	0	PA_with_intermediate	n/a	test	ward_and_allport	n/a	-1.0	9.0	n/a	n/a	ITI	s497
179.929	5.03	1	PA_with_intermediate	0,0,0,0,0,0,1,2,0	test	ward_and_allport	2,3,0,0,0,0,1,0,0	82.0	10.0	5.03	0,0,0,0,0,0,1,2,3	to_hand	s497
184.961	1.161	0	PA_with_intermediate	0,0,0,3,0,0,1,2,0	test	ward_and_allport	2,3,0,0,0,0,1,0,0	71.0	10.0	1.161	0,0,0,0,0,0,1,2,3	to_board	s497
186.127	1.782	0	PA_with_intermediate	0,0,0,3,0,0,1,0,0	test	ward_and_allport	2,3,0,0,0,0,1,0,0	82.0	10.0	1.782	0,0,0,0,0,0,1,2,3	to_hand	s497
187.911	0.625	0	PA_with_intermediate	2,0,0,3,0,0,1,0,0	test	ward_and_allport	2,3,0,0,0,0,1,0,0	89.0	10.0	0.625	0,0,0,0,0,0,1,2,3	to_board	s497
188.541	0.72	0	PA_with_intermediate	2,0,0,0,0,0,1,0,0	test	ward_and_allport	2,3,0,0,0,0,1,0,0	71.0	10.0	0.72	0,0,0,0,0,0,1,2,3	to_hand	s497
189.263	0.724	0	PA_with_intermediate	2,3,0,0,0,0,1,0,0	test	ward_and_allport	2,3,0,0,0,0,1,0,0	89.0	10.0	0.724	0,0,0,0,0,0,1,2,3	to_board	s497
189.993	1.0	0	PA_with_intermediate	n/a	test	ward_and_allport	n/a	-1.0	10.0	n/a	n/a	feedback	s497
190.993	1.0	0	PA_with_intermediate	n/a	test	ward_and_allport	n/a	-1.0	10.0	n/a	n/a	ITI	s497
191.998	2.106	1	PA_without_intermediate	0,0,0,1,2,0,0,0,0	test	ward_and_allport	3,2,0,0,0,0,1,0,0	71.0	11.0	2.106	0,0,0,1,2,3,0,0,0	to_hand	s497
194.106	0.51	0	PA_without_intermediate	3,0,0,1,2,0,0,0,0	test	ward_and_allport	3,2,0,0,0,0,1,0,0	89.0	11.0	0.51	0,0,0,1,2,3,0,0,0	to_board	s497
194.621	0.784	0	PA_without_intermediate	3,0,0,1,0,0,0,0,0	test	ward_and_allport	3,2,0,0,0,0,1,0,0	71.0	11.0	0.784	0,0,0,1,2,3,0,0,0	to_hand	s497
195.405	0.481	0	PA_without_intermediate	3,2,0,1,0,0,0,0,0	test	ward_and_allport	3,2,0,0,0,0,1,0,0	89.0	11.0	0.481	0,0,0,1,2,3,0,0,0	to_board	s497
195.89	0.702	0	PA_without_intermediate	3,2,0,0,0,0,0,0,0	test	ward_and_allport	3,2,0,0,0,0,1,0,0	71.0	11.0	0.702	0,0,0,1,2,3,0,0,0	to_hand	s497
196.593	0.547	0	PA_without_intermediate	3,2,0,0,0,0,1,0,0	test	ward_and_allport	3,2,0,0,0,0,1,0,0	82.0	11.0	0.547	0,0,0,1,2,3,0,0,0	to_board	s497
197.145	1.0	0	PA_without_intermediate	n/a	test	ward_and_allport	n/a	-1.0	11.0	n/a	n/a	feedback	s497
198.145	1.408	0	PA_without_intermediate	n/a	test	ward_and_allport	n/a	-1.0	11.0	n/a	n/a	ITI	s497
199.557	1.693	1	PA_with_intermediate	0,0,0,1,2,0,0,0,0	test	ward_and_allport	0,0,0,1,0,0,2,3,0	71.0	12.0	1.693	0,0,0,1,2,3,0,0,0	to_hand	s497
201.252	1.95	0	PA_with_intermediate	3,0,0,1,2,0,0,0,0	test	ward_and_allport	0,0,0,1,0,0,2,3,0	89.0	12.0	1.95	0,0,0,1,2,3,0,0,0	to_board	s497
203.205	0.991	0	PA_with_intermediate	3,0,0,1,0,0,0,0,0	test	ward_and_allport	0,0,0,1,0,0,2,3,0	71.0	12.0	0.991	0,0,0,1,2,3,0,0,0	to_hand	s497
204.198	0.492	0	PA_with_intermediate	3,0,0,1,0,0,2,0,0	test	ward_and_allport	0,0,0,1,0,0,2,3,0	82.0	12.0	0.492	0,0,0,1,2,3,0,0,0	to_board	s497
204.694	1.479	0	PA_with_intermediate	0,0,0,1,0,0,2,0,0	test	ward_and_allport	0,0,0,1,0,0,2,3,0	89.0	12.0	1.479	0,0,0,1,2,3,0,0,0	to_hand	s497
206.173	0.482	0	PA_with_intermediate	0,0,0,1,0,0,2,3,0	test	ward_and_allport	0,0,0,1,0,0,2,3,0	82.0	12.0	0.482	0,0,0,1,2,3,0,0,0	to_board	s497
206.66	1.0	0	PA_with_intermediate	n/a	test	ward_and_allport	n/a	-1.0	12.0	n/a	n/a	feedback	s497
207.66	2.768	0	PA_with_intermediate	n/a	test	ward_and_allport	n/a	-1.0	12.0	n/a	n/a	ITI	s497
210.432	3.417	1	PA_with_intermediate	1,2,0,0,0,0,0,0,0	test	ward_and_allport	1,0,0,2,3,0,0,0,0	89.0	13.0	3.417	1,2,3,0,0,0,0,0,0	to_hand	s497
213.85	0.829	0	PA_with_intermediate	1,2,0,0,0,0,3,0,0	test	ward_and_allport	1,0,0,2,3,0,0,0,0	82.0	13.0	0.829	1,2,3,0,0,0,0,0,0	to_board	s497
214.683	1.476	0	PA_with_intermediate	1,0,0,0,0,0,3,0,0	test	ward_and_allport	1,0,0,2,3,0,0,0,0	89.0	13.0	1.476	1,2,3,0,0,0,0,0,0	to_hand	s497
216.16	0.563	0	PA_with_intermediate	1,0,0,2,0,0,3,0,0	test	ward_and_allport	1,0,0,2,3,0,0,0,0	71.0	13.0	0.563	1,2,3,0,0,0,0,0,0	to_board	s497
216.729	1.338	0	PA_with_intermediate	1,0,0,2,0,0,0,0,0	test	ward_and_allport	1,0,0,2,3,0,0,0,0	82.0	13.0	1.338	1,2,3,0,0,0,0,0,0	to_hand	s497
218.067	1.45	0	PA_with_intermediate	1,0,0,2,3,0,0,0,0	test	ward_and_allport	1,0,0,2,3,0,0,0,0	71.0	13.0	1.45	1,2,3,0,0,0,0,0,0	to_board	s497
219.523	1.0	0	PA_with_intermediate	n/a	test	ward_and_allport	n/a	-1.0	13.0	n/a	n/a	feedback	s497
220.523	1.68	0	PA_with_intermediate	n/a	test	ward_and_allport	n/a	-1.0	13.0	n/a	n/a	ITI	s497
222.208	4.62	1	PA_without_intermediate	0,0,0,0,0,0,1,2,0	test	ward_and_allport	1,0,0,3,2,0,0,0,0	82.0	14.0	4.62	0,0,0,0,0,0,1,2,3	to_hand	s497
226.828	0.796	0	PA_without_intermediate	0,0,0,3,0,0,1,2,0	test	ward_and_allport	1,0,0,3,2,0,0,0,0	71.0	14.0	0.796	0,0,0,0,0,0,1,2,3	to_board	s497
227.628	0.648	0	PA_without_intermediate	0,0,0,3,0,0,1,0,0	test	ward_and_allport	1,0,0,3,2,0,0,0,0	82.0	14.0	0.648	0,0,0,0,0,0,1,2,3	to_hand	s497
228.277	0.553	0	PA_without_intermediate	0,0,0,3,2,0,1,0,0	test	ward_and_allport	1,0,0,3,2,0,0,0,0	71.0	14.0	0.553	0,0,0,0,0,0,1,2,3	to_board	s497
228.835	0.549	0	PA_without_intermediate	0,0,0,3,2,0,0,0,0	test	ward_and_allport	1,0,0,3,2,0,0,0,0	82.0	14.0	0.549	0,0,0,0,0,0,1,2,3	to_hand	s497
229.384	0.523	0	PA_without_intermediate	1,0,0,3,2,0,0,0,0	test	ward_and_allport	1,0,0,3,2,0,0,0,0	89.0	14.0	0.523	0,0,0,0,0,0,1,2,3	to_board	s497
229.914	1.0	0	PA_without_intermediate	n/a	test	ward_and_allport	n/a	-1.0	14.0	n/a	n/a	feedback	s497
230.914	2.224	0	PA_without_intermediate	n/a	test	ward_and_allport	n/a	-1.0	14.0	n/a	n/a	ITI	s497
238.145	3.348	1	PA_without_intermediate	0,0,0,0,0,0,1,2,0	test	ward_and_allport	1,0,0,3,2,0,0,0,0	82.0	15.0	3.348	0,0,0,0,0,0,1,2,3	to_hand	s497
241.494	0.656	0	PA_without_intermediate	0,0,0,3,0,0,1,2,0	test	ward_and_allport	1,0,0,3,2,0,0,0,0	71.0	15.0	0.656	0,0,0,0,0,0,1,2,3	to_board	s497
242.155	0.568	0	PA_without_intermediate	0,0,0,3,0,0,1,0,0	test	ward_and_allport	1,0,0,3,2,0,0,0,0	82.0	15.0	0.568	0,0,0,0,0,0,1,2,3	to_hand	s497
242.724	0.627	0	PA_without_intermediate	0,0,0,3,2,0,1,0,0	test	ward_and_allport	1,0,0,3,2,0,0,0,0	71.0	15.0	0.627	0,0,0,0,0,0,1,2,3	to_board	s497
243.356	0.569	0	PA_without_intermediate	0,0,0,3,2,0,0,0,0	test	ward_and_allport	1,0,0,3,2,0,0,0,0	82.0	15.0	0.569	0,0,0,0,0,0,1,2,3	to_hand	s497
243.925	0.461	0	PA_without_intermediate	1,0,0,3,2,0,0,0,0	test	ward_and_allport	1,0,0,3,2,0,0,0,0	89.0	15.0	0.461	0,0,0,0,0,0,1,2,3	to_board	s497
244.392	1.0	0	PA_without_intermediate	n/a	test	ward_and_allport	n/a	-1.0	15.0	n/a	n/a	feedback	s497
245.392	2.36	0	PA_without_intermediate	n/a	test	ward_and_allport	n/a	-1.0	15.0	n/a	n/a	ITI	s497
247.757	2.061	1	PA_without_intermediate	0,0,0,0,0,0,1,2,0	test	ward_and_allport	3,1,0,2,0,0,0,0,0	82.0	16.0	2.061	0,0,0,0,0,0,1,2,3	to_hand	s497
249.818	0.665	0	PA_without_intermediate	3,0,0,0,0,0,1,2,0	test	ward_and_allport	3,1,0,2,0,0,0,0,0	89.0	16.0	0.665	0,0,0,0,0,0,1,2,3	to_board	s497
250.488	1.256	0	PA_without_intermediate	3,0,0,0,0,0,1,0,0	test	ward_and_allport	3,1,0,2,0,0,0,0,0	82.0	16.0	1.256	0,0,0,0,0,0,1,2,3	to_hand	s497
251.744	0.579	0	PA_without_intermediate	3,0,0,2,0,0,1,0,0	test	ward_and_allport	3,1,0,2,0,0,0,0,0	71.0	16.0	0.579	0,0,0,0,0,0,1,2,3	to_board	s497
252.327	0.573	0	PA_without_intermediate	3,0,0,2,0,0,0,0,0	test	ward_and_allport	3,1,0,2,0,0,0,0,0	82.0	16.0	0.573	0,0,0,0,0,0,1,2,3	to_hand	s497
252.901	0.469	0	PA_without_intermediate	3,1,0,2,0,0,0,0,0	test	ward_and_allport	3,1,0,2,0,0,0,0,0	89.0	16.0	0.469	0,0,0,0,0,0,1,2,3	to_board	s497
253.377	1.0	0	PA_without_intermediate	n/a	test	ward_and_allport	n/a	-1.0	16.0	n/a	n/a	feedback	s497
254.377	1.0	0	PA_without_intermediate	n/a	test	ward_and_allport	n/a	-1.0	16.0	n/a	n/a	ITI	s497
255.382	3.807	1	PA_without_intermediate	1,2,0,0,0,0,0,0,0	test	ward_and_allport	0,0,0,3,1,0,2,0,0	89.0	17.0	3.807	1,2,3,0,0,0,0,0,0	to_hand	s497
259.191	0.557	0	PA_without_intermediate	1,2,0,3,0,0,0,0,0	test	ward_and_allport	0,0,0,3,1,0,2,0,0	71.0	17.0	0.557	1,2,3,0,0,0,0,0,0	to_board	s497
259.752	1.881	0	PA_without_intermediate	1,0,0,3,0,0,0,0,0	test	ward_and_allport	0,0,0,3,1,0,2,0,0	89.0	17.0	1.881	1,2,3,0,0,0,0,0,0	to_hand	s497
261.634	0.605	0	PA_without_intermediate	1,0,0,3,0,0,2,0,0	test	ward_and_allport	0,0,0,3,1,0,2,0,0	82.0	17.0	0.605	1,2,3,0,0,0,0,0,0	to_board	s497
262.243	0.6	0	PA_without_intermediate	0,0,0,3,0,0,2,0,0	test	ward_and_allport	0,0,0,3,1,0,2,0,0	89.0	17.0	0.6	1,2,3,0,0,0,0,0,0	to_hand	s497
262.845	0.679	0	PA_without_intermediate	0,0,0,3,1,0,2,0,0	test	ward_and_allport	0,0,0,3,1,0,2,0,0	71.0	17.0	0.679	1,2,3,0,0,0,0,0,0	to_board	s497
263.531	1.0	0	PA_without_intermediate	n/a	test	ward_and_allport	n/a	-1.0	17.0	n/a	n/a	feedback	s497
264.531	1.408	0	PA_without_intermediate	n/a	test	ward_and_allport	n/a	-1.0	17.0	n/a	n/a	ITI	s497
265.944	4.002	1	PA_with_intermediate	1,2,0,0,0,0,0,0,0	test	ward_and_allport	1,3,0,0,0,0,2,0,0	89.0	18.0	4.002	1,2,3,0,0,0,0,0,0	to_hand	s497
269.946	1.625	0	PA_with_intermediate	1,2,0,3,0,0,0,0,0	test	ward_and_allport	1,3,0,0,0,0,2,0,0	71.0	18.0	1.625	1,2,3,0,0,0,0,0,0	to_board	s497
271.576	0.707	0	PA_with_intermediate	1,0,0,3,0,0,0,0,0	test	ward_and_allport	1,3,0,0,0,0,2,0,0	89.0	18.0	0.707	1,2,3,0,0,0,0,0,0	to_hand	s497
272.284	0.719	0	PA_with_intermediate	1,0,0,3,0,0,2,0,0	test	ward_and_allport	1,3,0,0,0,0,2,0,0	82.0	18.0	0.719	1,2,3,0,0,0,0,0,0	to_board	s497
273.008	2.283	0	PA_with_intermediate	1,0,0,0,0,0,2,0,0	test	ward_and_allport	1,3,0,0,0,0,2,0,0	71.0	18.0	2.283	1,2,3,0,0,0,0,0,0	to_hand	s497
275.292	0.563	0	PA_with_intermediate	1,3,0,0,0,0,2,0,0	test	ward_and_allport	1,3,0,0,0,0,2,0,0	89.0	18.0	0.563	1,2,3,0,0,0,0,0,0	to_board	s497
275.861	1.0	0	PA_with_intermediate	n/a	test	ward_and_allport	n/a	-1.0	18.0	n/a	n/a	feedback	s497
276.861	1.136	0	PA_with_intermediate	n/a	test	ward_and_allport	n/a	-1.0	18.0	n/a	n/a	ITI	s497
278.002	3.098	1	PA_without_intermediate	1,2,0,0,0,0,0,0,0	test	ward_and_allport	0,0,0,1,0,0,3,2,0	89.0	19.0	3.098	1,2,3,0,0,0,0,0,0	to_hand	s497
281.101	0.542	0	PA_without_intermediate	1,2,0,0,0,0,3,0,0	test	ward_and_allport	0,0,0,1,0,0,3,2,0	82.0	19.0	0.542	1,2,3,0,0,0,0,0,0	to_board	s497
281.648	0.546	0	PA_without_intermediate	1,0,0,0,0,0,3,0,0	test	ward_and_allport	0,0,0,1,0,0,3,2,0	89.0	19.0	0.546	1,2,3,0,0,0,0,0,0	to_hand	s497
282.196	0.542	0	PA_without_intermediate	1,0,0,0,0,0,3,2,0	test	ward_and_allport	0,0,0,1,0,0,3,2,0	82.0	19.0	0.542	1,2,3,0,0,0,0,0,0	to_board	s497
282.742	0.723	0	PA_without_intermediate	0,0,0,0,0,0,3,2,0	test	ward_and_allport	0,0,0,1,0,0,3,2,0	89.0	19.0	0.723	1,2,3,0,0,0,0,0,0	to_hand	s497
283.466	0.504	0	PA_without_intermediate	0,0,0,1,0,0,3,2,0	test	ward_and_allport	0,0,0,1,0,0,3,2,0	71.0	19.0	0.504	1,2,3,0,0,0,0,0,0	to_board	s497
283.977	1.0	0	PA_without_intermediate	n/a	test	ward_and_allport	n/a	-1.0	19.0	n/a	n/a	feedback	s497
284.977	4.128	0	PA_without_intermediate	n/a	test	ward_and_allport	n/a	-1.0	19.0	n/a	n/a	ITI	s497
289.109	3.28	1	PA_without_intermediate	0,0,0,0,0,0,1,2,0	test	ward_and_allport	2,0,0,3,1,0,0,0,0	82.0	20.0	3.28	0,0,0,0,0,0,1,2,3	to_hand	s497
292.39	0.726	0	PA_without_intermediate	0,0,0,3,0,0,1,2,0	test	ward_and_allport	2,0,0,3,1,0,0,0,0	71.0	20.0	0.726	0,0,0,0,0,0,1,2,3	to_board	s497
293.122	1.069	0	PA_without_intermediate	0,0,0,0,0,0,1,2,0	test	ward_and_allport	2,0,0,3,1,0,0,0,0	71.0	20.0	1.069	0,0,0,0,0,0,1,2,3	to_hand	s497
294.192	0.747	0	PA_without_intermediate	0,0,0,3,0,0,1,2,0	test	ward_and_allport	2,0,0,3,1,0,0,0,0	71.0	20.0	0.747	0,0,0,0,0,0,1,2,3	to_board	s497
294.943	0.657	0	PA_without_intermediate	0,0,0,3,0,0,1,0,0	test	ward_and_allport	2,0,0,3,1,0,0,0,0	82.0	20.0	0.657	0,0,0,0,0,0,1,2,3	to_hand	s497
295.602	0.546	0	PA_without_intermediate	2,0,0,3,0,0,1,0,0	test	ward_and_allport	2,0,0,3,1,0,0,0,0	89.0	20.0	0.546	0,0,0,0,0,0,1,2,3	to_board	s497
296.152	1.146	0	PA_without_intermediate	2,0,0,3,0,0,0,0,0	test	ward_and_allport	2,0,0,3,1,0,0,0,0	82.0	20.0	1.146	0,0,0,0,0,0,1,2,3	to_hand	s497
297.3	1.233	0	PA_without_intermediate	2,0,0,3,1,0,0,0,0	test	ward_and_allport	2,0,0,3,1,0,0,0,0	71.0	20.0	1.233	0,0,0,0,0,0,1,2,3	to_board	s497
298.539	1.0	0	PA_without_intermediate	n/a	test	ward_and_allport	n/a	-1.0	20.0	n/a	n/a	feedback	s497
299.539	1.136	0	PA_without_intermediate	n/a	test	ward_and_allport	n/a	-1.0	20.0	n/a	n/a	ITI	s497
300.681	3.222	1	PA_without_intermediate	0,0,0,0,0,0,1,2,0	test	ward_and_allport	3,2,0,1,0,0,0,0,0	82.0	21.0	3.222	0,0,0,0,0,0,1,2,3	to_hand	s497
303.904	0.881	0	PA_without_intermediate	3,0,0,0,0,0,1,2,0	test	ward_and_allport	3,2,0,1,0,0,0,0,0	89.0	21.0	0.881	0,0,0,0,0,0,1,2,3	to_board	s497
304.789	1.531	0	PA_without_intermediate	3,0,0,0,0,0,1,0,0	test	ward_and_allport	3,2,0,1,0,0,0,0,0	82.0	21.0	1.531	0,0,0,0,0,0,1,2,3	to_hand	s497
306.322	0.832	0	PA_without_intermediate	3,2,0,0,0,0,1,0,0	test	ward_and_allport	3,2,0,1,0,0,0,0,0	89.0	21.0	0.832	0,0,0,0,0,0,1,2,3	to_board	s497
307.159	1.037	0	PA_without_intermediate	3,2,0,0,0,0,0,0,0	test	ward_and_allport	3,2,0,1,0,0,0,0,0	82.0	21.0	1.037	0,0,0,0,0,0,1,2,3	to_hand	s497
308.197	0.675	0	PA_without_intermediate	3,2,0,1,0,0,0,0,0	test	ward_and_allport	3,2,0,1,0,0,0,0,0	71.0	21.0	0.675	0,0,0,0,0,0,1,2,3	to_board	s497
308.88	1.0	0	PA_without_intermediate	n/a	test	ward_and_allport	n/a	-1.0	21.0	n/a	n/a	feedback	s497
309.88	4.264	0	PA_without_intermediate	n/a	test	ward_and_allport	n/a	-1.0	21.0	n/a	n/a	ITI	s497
314.148	3.059	1	PA_with_intermediate	0,0,0,1,2,0,0,0,0	test	ward_and_allport	0,0,0,1,3,0,2,0,0	71.0	22.0	3.059	0,0,0,1,2,3,0,0,0	to_hand	s497
317.208	1.337	0	PA_with_intermediate	3,0,0,1,2,0,0,0,0	test	ward_and_allport	0,0,0,1,3,0,2,0,0	89.0	22.0	1.337	0,0,0,1,2,3,0,0,0	to_board	s497
318.552	0.521	0	PA_with_intermediate	3,0,0,1,0,0,0,0,0	test	ward_and_allport	0,0,0,1,3,0,2,0,0	71.0	22.0	0.521	0,0,0,1,2,3,0,0,0	to_hand	s497
319.073	0.449	0	PA_with_intermediate	3,0,0,1,0,0,2,0,0	test	ward_and_allport	0,0,0,1,3,0,2,0,0	82.0	22.0	0.449	0,0,0,1,2,3,0,0,0	to_board	s497
319.528	1.506	0	PA_with_intermediate	0,0,0,1,0,0,2,0,0	test	ward_and_allport	0,0,0,1,3,0,2,0,0	89.0	22.0	1.506	0,0,0,1,2,3,0,0,0	to_hand	s497
321.035	0.606	0	PA_with_intermediate	0,0,0,1,3,0,2,0,0	test	ward_and_allport	0,0,0,1,3,0,2,0,0	71.0	22.0	0.606	0,0,0,1,2,3,0,0,0	to_board	s497
321.649	1.0	0	PA_with_intermediate	n/a	test	ward_and_allport	n/a	-1.0	22.0	n/a	n/a	feedback	s497
322.649	3.04	0	PA_with_intermediate	n/a	test	ward_and_allport	n/a	-1.0	22.0	n/a	n/a	ITI	s497
325.696	3.669	1	PA_with_intermediate	1,2,0,0,0,0,0,0,0	test	ward_and_allport	1,3,0,2,0,0,0,0,0	89.0	23.0	3.669	1,2,3,0,0,0,0,0,0	to_hand	s497
329.365	0.39	0	PA_with_intermediate	1,2,0,0,0,0,3,0,0	test	ward_and_allport	1,3,0,2,0,0,0,0,0	82.0	23.0	0.39	1,2,3,0,0,0,0,0,0	to_board	s497
329.762	1.833	0	PA_with_intermediate	1,0,0,0,0,0,3,0,0	test	ward_and_allport	1,3,0,2,0,0,0,0,0	89.0	23.0	1.833	1,2,3,0,0,0,0,0,0	to_hand	s497
331.596	0.585	0	PA_with_intermediate	1,0,0,2,0,0,3,0,0	test	ward_and_allport	1,3,0,2,0,0,0,0,0	71.0	23.0	0.585	1,2,3,0,0,0,0,0,0	to_board	s497
332.187	0.913	0	PA_with_intermediate	1,0,0,2,0,0,0,0,0	test	ward_and_allport	1,3,0,2,0,0,0,0,0	82.0	23.0	0.913	1,2,3,0,0,0,0,0,0	to_hand	s497
333.101	0.635	0	PA_with_intermediate	1,3,0,2,0,0,0,0,0	test	ward_and_allport	1,3,0,2,0,0,0,0,0	89.0	23.0	0.635	1,2,3,0,0,0,0,0,0	to_board	s497
333.743	1.0	0	PA_with_intermediate	n/a	test	ward_and_allport	n/a	-1.0	23.0	n/a	n/a	feedback	s497
334.743	1.136	0	PA_with_intermediate	n/a	test	ward_and_allport	n/a	-1.0	23.0	n/a	n/a	ITI	s497
335.886	2.02	1	PA_with_intermediate	0,0,0,1,2,0,0,0,0	test	ward_and_allport	2,0,0,1,3,0,0,0,0	71.0	24.0	2.02	0,0,0,1,2,3,0,0,0	to_hand	s497
337.907	1.831	0	PA_with_intermediate	0,0,0,1,2,0,3,0,0	test	ward_and_allport	2,0,0,1,3,0,0,0,0	82.0	24.0	1.831	0,0,0,1,2,3,0,0,0	to_board	s497
339.745	0.879	0	PA_with_intermediate	0,0,0,1,0,0,3,0,0	test	ward_and_allport	2,0,0,1,3,0,0,0,0	71.0	24.0	0.879	0,0,0,1,2,3,0,0,0	to_hand	s497
340.625	0.453	0	PA_with_intermediate	2,0,0,1,0,0,3,0,0	test	ward_and_allport	2,0,0,1,3,0,0,0,0	89.0	24.0	0.453	0,0,0,1,2,3,0,0,0	to_board	s497
341.085	0.94	0	PA_with_intermediate	2,0,0,1,0,0,0,0,0	test	ward_and_allport	2,0,0,1,3,0,0,0,0	82.0	24.0	0.94	0,0,0,1,2,3,0,0,0	to_hand	s497
342.026	0.737	0	PA_with_intermediate	2,0,0,1,3,0,0,0,0	test	ward_and_allport	2,0,0,1,3,0,0,0,0	71.0	24.0	0.737	0,0,0,1,2,3,0,0,0	to_board	s497
342.771	1.0	0	PA_with_intermediate	n/a	test	ward_and_allport	n/a	-1.0	24.0	n/a	n/a	feedback	s497
343.771	1.408	0	PA_with_intermediate	n/a	test	ward_and_allport	n/a	-1.0	24.0	n/a	n/a	ITI	s497
345.185	3.09	1	PA_without_intermediate	1,2,0,0,0,0,0,0,0	test	ward_and_allport	0,0,0,2,0,0,3,1,0	89.0	25.0	3.09	1,2,3,0,0,0,0,0,0	to_hand	s497
348.277	0.461	0	PA_without_intermediate	1,2,0,0,0,0,3,0,0	test	ward_and_allport	0,0,0,2,0,0,3,1,0	82.0	25.0	0.461	1,2,3,0,0,0,0,0,0	to_board	s497
348.744	1.406	0	PA_without_intermediate	1,0,0,0,0,0,3,0,0	test	ward_and_allport	0,0,0,2,0,0,3,1,0	89.0	25.0	1.406	1,2,3,0,0,0,0,0,0	to_hand	s497
350.151	0.53	0	PA_without_intermediate	1,0,0,2,0,0,3,0,0	test	ward_and_allport	0,0,0,2,0,0,3,1,0	71.0	25.0	0.53	1,2,3,0,0,0,0,0,0	to_board	s497
350.687	0.81	0	PA_without_intermediate	0,0,0,2,0,0,3,0,0	test	ward_and_allport	0,0,0,2,0,0,3,1,0	89.0	25.0	0.81	1,2,3,0,0,0,0,0,0	to_hand	s497
351.498	0.67	0	PA_without_intermediate	0,0,0,2,0,0,3,1,0	test	ward_and_allport	0,0,0,2,0,0,3,1,0	82.0	25.0	0.67	1,2,3,0,0,0,0,0,0	to_board	s497
352.177	1.0	0	PA_without_intermediate	n/a	test	ward_and_allport	n/a	-1.0	25.0	n/a	n/a	feedback	s497
353.177	1.68	0	PA_without_intermediate	n/a	test	ward_and_allport	n/a	-1.0	25.0	n/a	n/a	ITI	s497
354.863	3.32	1	PA_with_intermediate	0,0,0,0,0,0,1,2,0	test	ward_and_allport	0,0,0,2,3,0,1,0,0	82.0	26.0	3.32	0,0,0,0,0,0,1,2,3	to_hand	s497
358.185	1.19	0	PA_with_intermediate	3,0,0,0,0,0,1,2,0	test	ward_and_allport	0,0,0,2,3,0,1,0,0	89.0	26.0	1.19	0,0,0,0,0,0,1,2,3	to_board	s497
359.381	1.578	0	PA_with_intermediate	3,0,0,0,0,0,1,0,0	test	ward_and_allport	0,0,0,2,3,0,1,0,0	82.0	26.0	1.578	0,0,0,0,0,0,1,2,3	to_hand	s497
360.961	1.146	0	PA_with_intermediate	3,0,0,2,0,0,1,0,0	test	ward_and_allport	0,0,0,2,3,0,1,0,0	71.0	26.0	1.146	0,0,0,0,0,0,1,2,3	to_board	s497
362.114	0.881	0	PA_with_intermediate	0,0,0,2,0,0,1,0,0	test	ward_and_allport	0,0,0,2,3,0,1,0,0	89.0	26.0	0.881	0,0,0,0,0,0,1,2,3	to_hand	s497
362.996	0.953	0	PA_with_intermediate	0,0,0,2,3,0,1,0,0	test	ward_and_allport	0,0,0,2,3,0,1,0,0	71.0	26.0	0.953	0,0,0,0,0,0,1,2,3	to_board	s497
363.957	1.0	0	PA_with_intermediate	n/a	test	ward_and_allport	n/a	-1.0	26.0	n/a	n/a	feedback	s497
364.957	3.72	0	PA_with_intermediate	n/a	test	ward_and_allport	n/a	-1.0	26.0	n/a	n/a	ITI	s497
368.683	2.545	1	PA_without_intermediate	1,2,0,0,0,0,0,0,0	test	ward_and_allport	0,0,0,1,0,0,3,2,0	89.0	27.0	2.545	1,2,3,0,0,0,0,0,0	to_hand	s497
371.229	0.613	0	PA_without_intermediate	1,2,0,0,0,0,3,0,0	test	ward_and_allport	0,0,0,1,0,0,3,2,0	82.0	27.0	0.613	1,2,3,0,0,0,0,0,0	to_board	s497
371.849	0.729	0	PA_without_intermediate	1,0,0,0,0,0,3,0,0	test	ward_and_allport	0,0,0,1,0,0,3,2,0	89.0	27.0	0.729	1,2,3,0,0,0,0,0,0	to_hand	s497
372.58	0.643	0	PA_without_intermediate	1,0,0,0,0,0,3,2,0	test	ward_and_allport	0,0,0,1,0,0,3,2,0	82.0	27.0	0.643	1,2,3,0,0,0,0,0,0	to_board	s497
373.229	0.571	0	PA_without_intermediate	0,0,0,0,0,0,3,2,0	test	ward_and_allport	0,0,0,1,0,0,3,2,0	89.0	27.0	0.571	1,2,3,0,0,0,0,0,0	to_hand	s497
373.802	0.577	0	PA_without_intermediate	0,0,0,1,0,0,3,2,0	test	ward_and_allport	0,0,0,1,0,0,3,2,0	71.0	27.0	0.577	1,2,3,0,0,0,0,0,0	to_board	s497
374.387	1.0	0	PA_without_intermediate	n/a	test	ward_and_allport	n/a	-1.0	27.0	n/a	n/a	feedback	s497
375.387	2.224	0	PA_without_intermediate	n/a	test	ward_and_allport	n/a	-1.0	27.0	n/a	n/a	ITI	s497
377.619	1.261	1	PA_without_intermediate	0,0,0,1,2,0,0,0,0	test	ward_and_allport	3,1,0,0,0,0,2,0,0	71.0	28.0	1.261	0,0,0,1,2,3,0,0,0	to_hand	s497
378.882	0.585	0	PA_without_intermediate	3,0,0,1,2,0,0,0,0	test	ward_and_allport	3,1,0,0,0,0,2,0,0	89.0	28.0	0.585	0,0,0,1,2,3,0,0,0	to_board	s497
379.474	1.05	0	PA_without_intermediate	3,0,0,1,0,0,0,0,0	test	ward_and_allport	3,1,0,0,0,0,2,0,0	71.0	28.0	1.05	0,0,0,1,2,3,0,0,0	to_hand	s497
380.525	0.489	0	PA_without_intermediate	3,0,0,1,0,0,2,0,0	test	ward_and_allport	3,1,0,0,0,0,2,0,0	82.0	28.0	0.489	0,0,0,1,2,3,0,0,0	to_board	s497
381.022	0.473	0	PA_without_intermediate	3,0,0,0,0,0,2,0,0	test	ward_and_allport	3,1,0,0,0,0,2,0,0	71.0	28.0	0.473	0,0,0,1,2,3,0,0,0	to_hand	s497
381.495	0.454	0	PA_without_intermediate	3,1,0,0,0,0,2,0,0	test	ward_and_allport	3,1,0,0,0,0,2,0,0	89.0	28.0	0.454	0,0,0,1,2,3,0,0,0	to_board	s497
381.958	1.0	0	PA_without_intermediate	n/a	test	ward_and_allport	n/a	-1.0	28.0	n/a	n/a	feedback	s497
382.958	1.272	0	PA_without_intermediate	n/a	test	ward_and_allport	n/a	-1.0	28.0	n/a	n/a	ITI	s497
384.237	1.824	1	PA_with_intermediate	0,0,0,0,0,0,1,2,0	test	ward_and_allport	2,3,0,0,0,0,1,0,0	82.0	29.0	1.824	0,0,0,0,0,0,1,2,3	to_hand	s497
386.062	0.869	0	PA_with_intermediate	0,0,0,3,0,0,1,2,0	test	ward_and_allport	2,3,0,0,0,0,1,0,0	71.0	29.0	0.869	0,0,0,0,0,0,1,2,3	to_board	s497
386.939	0.611	0	PA_with_intermediate	0,0,0,3,0,0,1,0,0	test	ward_and_allport	2,3,0,0,0,0,1,0,0	82.0	29.0	0.611	0,0,0,0,0,0,1,2,3	to_hand	s497
387.551	0.488	0	PA_with_intermediate	2,0,0,3,0,0,1,0,0	test	ward_and_allport	2,3,0,0,0,0,1,0,0	89.0	29.0	0.488	0,0,0,0,0,0,1,2,3	to_board	s497
388.046	2.403	0	PA_with_intermediate	2,0,0,0,0,0,1,0,0	test	ward_and_allport	2,3,0,0,0,0,1,0,0	71.0	29.0	2.403	0,0,0,0,0,0,1,2,3	to_hand	s497
390.451	0.425	0	PA_with_intermediate	2,3,0,0,0,0,1,0,0	test	ward_and_allport	2,3,0,0,0,0,1,0,0	89.0	29.0	0.425	0,0,0,0,0,0,1,2,3	to_board	s497
390.885	1.0	0	PA_with_intermediate	n/a	test	ward_and_allport	n/a	-1.0	29.0	n/a	n/a	feedback	s497
391.885	2.632	0	PA_with_intermediate	n/a	test	ward_and_allport	n/a	-1.0	29.0	n/a	n/a	ITI	s497
399.525	2.382	1	PA_without_intermediate	1,2,0,0,0,0,0,0,0	test	ward_and_allport	0,0,0,3,2,0,1,0,0	89.0	30.0	2.382	1,2,3,0,0,0,0,0,0	to_hand	s497
401.909	0.748	0	PA_without_intermediate	1,2,0,3,0,0,0,0,0	test	ward_and_allport	0,0,0,3,2,0,1,0,0	71.0	30.0	0.748	1,2,3,0,0,0,0,0,0	to_board	s497
402.664	0.518	0	PA_without_intermediate	1,0,0,3,0,0,0,0,0	test	ward_and_allport	0,0,0,3,2,0,1,0,0	89.0	30.0	0.518	1,2,3,0,0,0,0,0,0	to_hand	s497
403.184	0.497	0	PA_without_intermediate	1,0,0,3,2,0,0,0,0	test	ward_and_allport	0,0,0,3,2,0,1,0,0	71.0	30.0	0.497	1,2,3,0,0,0,0,0,0	to_board	s497
403.689	0.379	0	PA_without_intermediate	0,0,0,3,2,0,0,0,0	test	ward_and_allport	0,0,0,3,2,0,1,0,0	89.0	30.0	0.379	1,2,3,0,0,0,0,0,0	to_hand	s497
404.068	0.406	0	PA_without_intermediate	0,0,0,3,2,0,1,0,0	test	ward_and_allport	0,0,0,3,2,0,1,0,0	82.0	30.0	0.406	1,2,3,0,0,0,0,0,0	to_board	s497
404.483	1.0	0	PA_without_intermediate	n/a	test	ward_and_allport	n/a	-1.0	30.0	n/a	n/a	feedback	s497
405.483	1.408	0	PA_without_intermediate	n/a	test	ward_and_allport	n/a	-1.0	30.0	n/a	n/a	ITI	s497
406.898	1.588	1	PA_without_intermediate	0,0,0,1,2,0,0,0,0	test	ward_and_allport	2,0,0,0,0,0,3,1,0	71.0	31.0	1.588	0,0,0,1,2,3,0,0,0	to_hand	s497
408.487	0.696	0	PA_without_intermediate	0,0,0,1,2,0,3,0,0	test	ward_and_allport	2,0,0,0,0,0,3,1,0	82.0	31.0	0.696	0,0,0,1,2,3,0,0,0	to_board	s497
409.191	0.636	0	PA_without_intermediate	0,0,0,1,0,0,3,0,0	test	ward_and_allport	2,0,0,0,0,0,3,1,0	71.0	31.0	0.636	0,0,0,1,2,3,0,0,0	to_hand	s497
409.828	0.487	0	PA_without_intermediate	2,0,0,1,0,0,3,0,0	test	ward_and_allport	2,0,0,0,0,0,3,1,0	89.0	31.0	0.487	0,0,0,1,2,3,0,0,0	to_board	s497
410.324	0.507	0	PA_without_intermediate	2,0,0,0,0,0,3,0,0	test	ward_and_allport	2,0,0,0,0,0,3,1,0	71.0	31.0	0.507	0,0,0,1,2,3,0,0,0	to_hand	s497
410.832	0.534	0	PA_without_intermediate	2,0,0,0,0,0,3,1,0	test	ward_and_allport	2,0,0,0,0,0,3,1,0	82.0	31.0	0.534	0,0,0,1,2,3,0,0,0	to_board	s497
411.376	1.0	0	PA_without_intermediate	n/a	test	ward_and_allport	n/a	-1.0	31.0	n/a	n/a	feedback	s497
412.376	1.0	0	PA_without_intermediate	n/a	test	ward_and_allport	n/a	-1.0	31.0	n/a	n/a	ITI	s497
413.383	3.467	1	PA_with_intermediate	0,0,0,0,0,0,1,2,0	test	ward_and_allport	0,0,0,2,0,0,1,3,0	82.0	32.0	3.467	0,0,0,0,0,0,1,2,3	to_hand	s497
416.85	1.082	0	PA_with_intermediate	3,0,0,0,0,0,1,2,0	test	ward_and_allport	0,0,0,2,0,0,1,3,0	89.0	32.0	1.082	0,0,0,0,0,0,1,2,3	to_board	s497
417.939	1.678	0	PA_with_intermediate	3,0,0,0,0,0,1,0,0	test	ward_and_allport	0,0,0,2,0,0,1,3,0	82.0	32.0	1.678	0,0,0,0,0,0,1,2,3	to_hand	s497
419.618	0.522	0	PA_with_intermediate	3,0,0,2,0,0,1,0,0	test	ward_and_allport	0,0,0,2,0,0,1,3,0	71.0	32.0	0.522	0,0,0,0,0,0,1,2,3	to_board	s497
420.148	1.946	0	PA_with_intermediate	0,0,0,2,0,0,1,0,0	test	ward_and_allport	0,0,0,2,0,0,1,3,0	89.0	32.0	1.946	0,0,0,0,0,0,1,2,3	to_hand	s497
422.095	0.544	0	PA_with_intermediate	0,0,0,2,0,0,1,3,0	test	ward_and_allport	0,0,0,2,0,0,1,3,0	82.0	32.0	0.544	0,0,0,0,0,0,1,2,3	to_board	s497
422.65	1.0	0	PA_with_intermediate	n/a	test	ward_and_allport	n/a	-1.0	32.0	n/a	n/a	feedback	s497
423.65	1.0	0	PA_with_intermediate	n/a	test	ward_and_allport	n/a	-1.0	32.0	n/a	n/a	ITI	s497
424.658	3.662	1	PA_with_intermediate	1,2,0,0,0,0,0,0,0	test	ward_and_allport	1,0,0,0,0,0,2,3,0	89.0	33.0	3.662	1,2,3,0,0,0,0,0,0	to_hand	s497
428.32	0.559	0	PA_with_intermediate	1,2,0,3,0,0,0,0,0	test	ward_and_allport	1,0,0,0,0,0,2,3,0	71.0	33.0	0.559	1,2,3,0,0,0,0,0,0	to_board	s497
428.887	0.583	0	PA_with_intermediate	1,0,0,3,0,0,0,0,0	test	ward_and_allport	1,0,0,0,0,0,2,3,0	89.0	33.0	0.583	1,2,3,0,0,0,0,0,0	to_hand	s497
429.472	0.586	0	PA_with_intermediate	1,0,0,3,0,0,2,0,0	test	ward_and_allport	1,0,0,0,0,0,2,3,0	82.0	33.0	0.586	1,2,3,0,0,0,0,0,0	to_board	s497
430.066	0.54	0	PA_with_intermediate	1,0,0,0,0,0,2,0,0	test	ward_and_allport	1,0,0,0,0,0,2,3,0	71.0	33.0	0.54	1,2,3,0,0,0,0,0,0	to_hand	s497
430.608	0.829	0	PA_with_intermediate	1,0,0,0,0,0,2,3,0	test	ward_and_allport	1,0,0,0,0,0,2,3,0	82.0	33.0	0.829	1,2,3,0,0,0,0,0,0	to_board	s497
431.445	1.0	0	PA_with_intermediate	n/a	test	ward_and_allport	n/a	-1.0	33.0	n/a	n/a	feedback	s497
432.445	1.0	0	PA_with_intermediate	n/a	test	ward_and_allport	n/a	-1.0	33.0	n/a	n/a	ITI	s497
433.455	3.329	1	PA_with_intermediate	0,0,0,1,2,0,0,0,0	test	ward_and_allport	2,3,0,1,0,0,0,0,0	71.0	34.0	3.329	0,0,0,1,2,3,0,0,0	to_hand	s497
436.785	0.475	0	PA_with_intermediate	0,0,0,1,2,0,3,0,0	test	ward_and_allport	2,3,0,1,0,0,0,0,0	82.0	34.0	0.475	0,0,0,1,2,3,0,0,0	to_board	s497
437.269	0.422	0	PA_with_intermediate	0,0,0,1,0,0,3,0,0	test	ward_and_allport	2,3,0,1,0,0,0,0,0	71.0	34.0	0.422	0,0,0,1,2,3,0,0,0	to_hand	s497
437.692	0.399	0	PA_with_intermediate	2,0,0,1,0,0,3,0,0	test	ward_and_allport	2,3,0,1,0,0,0,0,0	89.0	34.0	0.399	0,0,0,1,2,3,0,0,0	to_board	s497
438.098	0.558	0	PA_with_intermediate	2,0,0,1,0,0,0,0,0	test	ward_and_allport	2,3,0,1,0,0,0,0,0	82.0	34.0	0.558	0,0,0,1,2,3,0,0,0	to_hand	s497
438.657	0.501	0	PA_with_intermediate	2,3,0,1,0,0,0,0,0	test	ward_and_allport	2,3,0,1,0,0,0,0,0	89.0	34.0	0.501	0,0,0,1,2,3,0,0,0	to_board	s497
439.169	1.0	0	PA_with_intermediate	n/a	test	ward_and_allport	n/a	-1.0	34.0	n/a	n/a	feedback	s497
440.169	1.408	0	PA_with_intermediate	n/a	test	ward_and_allport	n/a	-1.0	34.0	n/a	n/a	ITI	s497
441.583	2.622	1	PA_without_intermediate	1,2,0,0,0,0,0,0,0	test	ward_and_allport	0,0,0,3,2,0,1,0,0	89.0	35.0	2.622	1,2,3,0,0,0,0,0,0	to_hand	s497
444.206	0.572	0	PA_without_intermediate	1,2,0,3,0,0,0,0,0	test	ward_and_allport	0,0,0,3,2,0,1,0,0	71.0	35.0	0.572	1,2,3,0,0,0,0,0,0	to_board	s497
444.785	0.546	0	PA_without_intermediate	1,0,0,3,0,0,0,0,0	test	ward_and_allport	0,0,0,3,2,0,1,0,0	89.0	35.0	0.546	1,2,3,0,0,0,0,0,0	to_hand	s497
445.331	0.814	0	PA_without_intermediate	1,0,0,3,2,0,0,0,0	test	ward_and_allport	0,0,0,3,2,0,1,0,0	71.0	35.0	0.814	1,2,3,0,0,0,0,0,0	to_board	s497
446.153	0.415	0	PA_without_intermediate	0,0,0,3,2,0,0,0,0	test	ward_and_allport	0,0,0,3,2,0,1,0,0	89.0	35.0	0.415	1,2,3,0,0,0,0,0,0	to_hand	s497
446.57	0.405	0	PA_without_intermediate	0,0,0,3,2,0,1,0,0	test	ward_and_allport	0,0,0,3,2,0,1,0,0	82.0	35.0	0.405	1,2,3,0,0,0,0,0,0	to_board	s497
446.985	1.0	0	PA_without_intermediate	n/a	test	ward_and_allport	n/a	-1.0	35.0	n/a	n/a	feedback	s497
447.985	1.816	0	PA_without_intermediate	n/a	test	ward_and_allport	n/a	-1.0	35.0	n/a	n/a	ITI	s497
449.811	2.222	1	PA_with_intermediate	0,0,0,0,0,0,1,2,0	test	ward_and_allport	0,0,0,2,3,0,1,0,0	82.0	36.0	2.222	0,0,0,0,0,0,1,2,3	to_hand	s497
452.034	0.457	0	PA_with_intermediate	3,0,0,0,0,0,1,2,0	test	ward_and_allport	0,0,0,2,3,0,1,0,0	89.0	36.0	0.457	0,0,0,0,0,0,1,2,3	to_board	s497
452.499	2.539	0	PA_with_intermediate	3,0,0,0,0,0,1,0,0	test	ward_and_allport	0,0,0,2,3,0,1,0,0	82.0	36.0	2.539	0,0,0,0,0,0,1,2,3	to_hand	s497
455.04	0.438	0	PA_with_intermediate	3,0,0,2,0,0,1,0,0	test	ward_and_allport	0,0,0,2,3,0,1,0,0	71.0	36.0	0.438	0,0,0,0,0,0,1,2,3	to_board	s497
455.486	0.45	0	PA_with_intermediate	0,0,0,2,0,0,1,0,0	test	ward_and_allport	0,0,0,2,3,0,1,0,0	89.0	36.0	0.45	0,0,0,0,0,0,1,2,3	to_hand	s497
455.937	0.455	0	PA_with_intermediate	0,0,0,2,3,0,1,0,0	test	ward_and_allport	0,0,0,2,3,0,1,0,0	71.0	36.0	0.455	0,0,0,0,0,0,1,2,3	to_board	s497
456.403	1.0	0	PA_with_intermediate	n/a	test	ward_and_allport	n/a	-1.0	36.0	n/a	n/a	feedback	s497
457.403	3.176	0	PA_with_intermediate	n/a	test	ward_and_allport	n/a	-1.0	36.0	n/a	n/a	ITI	s497
460.587	1.868	1	PA_with_intermediate	0,0,0,0,0,0,1,2,0	test	ward_and_allport	2,0,0,0,0,0,1,3,0	82.0	37.0	1.868	0,0,0,0,0,0,1,2,3	to_hand	s497
462.457	1.92	0	PA_with_intermediate	0,0,0,3,0,0,1,2,0	test	ward_and_allport	2,0,0,0,0,0,1,3,0	71.0	37.0	1.92	0,0,0,0,0,0,1,2,3	to_board	s497
464.383	1.598	0	PA_with_intermediate	0,0,0,3,0,0,1,0,0	test	ward_and_allport	2,0,0,0,0,0,1,3,0	82.0	37.0	1.598	0,0,0,0,0,0,1,2,3	to_hand	s497
465.982	0.637	0	PA_with_intermediate	2,0,0,3,0,0,1,0,0	test	ward_and_allport	2,0,0,0,0,0,1,3,0	89.0	37.0	0.637	0,0,0,0,0,0,1,2,3	to_board	s497
466.626	1.859	0	PA_with_intermediate	2,0,0,0,0,0,1,0,0	test	ward_and_allport	2,0,0,0,0,0,1,3,0	71.0	37.0	1.859	0,0,0,0,0,0,1,2,3	to_hand	s497
468.486	0.57	0	PA_with_intermediate	2,0,0,0,0,0,1,3,0	test	ward_and_allport	2,0,0,0,0,0,1,3,0	82.0	37.0	0.57	0,0,0,0,0,0,1,2,3	to_board	s497
469.066	1.0	0	PA_with_intermediate	n/a	test	ward_and_allport	n/a	-1.0	37.0	n/a	n/a	feedback	s497
470.066	2.36	0	PA_with_intermediate	n/a	test	ward_and_allport	n/a	-1.0	37.0	n/a	n/a	ITI	s497
472.435	3.158	1	PA_with_intermediate	0,0,0,0,0,0,1,2,0	test	ward_and_allport	0,0,0,2,0,0,1,3,0	82.0	38.0	3.158	0,0,0,0,0,0,1,2,3	to_hand	s497
475.594	0.569	0	PA_with_intermediate	3,0,0,0,0,0,1,2,0	test	ward_and_allport	0,0,0,2,0,0,1,3,0	89.0	38.0	0.569	0,0,0,0,0,0,1,2,3	to_board	s497
476.174	1.281	0	PA_with_intermediate	3,0,0,0,0,0,1,0,0	test	ward_and_allport	0,0,0,2,0,0,1,3,0	82.0	38.0	1.281	0,0,0,0,0,0,1,2,3	to_hand	s497
477.455	0.55	0	PA_with_intermediate	3,0,0,2,0,0,1,0,0	test	ward_and_allport	0,0,0,2,0,0,1,3,0	71.0	38.0	0.55	0,0,0,0,0,0,1,2,3	to_board	s497
478.015	0.886	0	PA_with_intermediate	0,0,0,2,0,0,1,0,0	test	ward_and_allport	0,0,0,2,0,0,1,3,0	89.0	38.0	0.886	0,0,0,0,0,0,1,2,3	to_hand	s497
478.902	0.525	0	PA_with_intermediate	0,0,0,2,0,0,1,3,0	test	ward_and_allport	0,0,0,2,0,0,1,3,0	82.0	38.0	0.525	0,0,0,0,0,0,1,2,3	to_board	s497
479.434	1.0	0	PA_with_intermediate	n/a	test	ward_and_allport	n/a	-1.0	38.0	n/a	n/a	feedback	s497
480.434	1.0	0	PA_with_intermediate	n/a	test	ward_and_allport	n/a	-1.0	38.0	n/a	n/a	ITI	s497
481.443	1.427	1	PA_without_intermediate	0,0,0,1,2,0,0,0,0	test	ward_and_allport	3,1,0,0,0,0,2,0,0	71.0	39.0	1.427	0,0,0,1,2,3,0,0,0	to_hand	s497
482.871	1.227	0	PA_without_intermediate	3,0,0,1,2,0,0,0,0	test	ward_and_allport	3,1,0,0,0,0,2,0,0	89.0	39.0	1.227	0,0,0,1,2,3,0,0,0	to_board	s497
484.104	0.952	0	PA_without_intermediate	3,0,0,1,0,0,0,0,0	test	ward_and_allport	3,1,0,0,0,0,2,0,0	71.0	39.0	0.952	0,0,0,1,2,3,0,0,0	to_hand	s497
485.057	0.516	0	PA_without_intermediate	3,0,0,1,0,0,2,0,0	test	ward_and_allport	3,1,0,0,0,0,2,0,0	82.0	39.0	0.516	0,0,0,1,2,3,0,0,0	to_board	s497
485.582	0.394	0	PA_without_intermediate	3,0,0,0,0,0,2,0,0	test	ward_and_allport	3,1,0,0,0,0,2,0,0	71.0	39.0	0.394	0,0,0,1,2,3,0,0,0	to_hand	s497
485.977	0.353	0	PA_without_intermediate	3,1,0,0,0,0,2,0,0	test	ward_and_allport	3,1,0,0,0,0,2,0,0	89.0	39.0	0.353	0,0,0,1,2,3,0,0,0	to_board	s497
486.34	1.0	0	PA_without_intermediate	n/a	test	ward_and_allport	n/a	-1.0	39.0	n/a	n/a	feedback	s497
487.34	1.408	0	PA_without_intermediate	n/a	test	ward_and_allport	n/a	-1.0	39.0	n/a	n/a	ITI	s497
488.757	1.825	1	PA_with_intermediate	1,2,0,0,0,0,0,0,0	test	ward_and_allport	1,0,0,2,3,0,0,0,0	89.0	40.0	1.825	1,2,3,0,0,0,0,0,0	to_hand	s497
490.583	1.114	0	PA_with_intermediate	1,2,0,0,0,0,3,0,0	test	ward_and_allport	1,0,0,2,3,0,0,0,0	82.0	40.0	1.114	1,2,3,0,0,0,0,0,0	to_board	s497
491.706	0.65	0	PA_with_intermediate	1,0,0,0,0,0,3,0,0	test	ward_and_allport	1,0,0,2,3,0,0,0,0	89.0	40.0	0.65	1,2,3,0,0,0,0,0,0	to_hand	s497
492.357	0.501	0	PA_with_intermediate	1,0,0,2,0,0,3,0,0	test	ward_and_allport	1,0,0,2,3,0,0,0,0	71.0	40.0	0.501	1,2,3,0,0,0,0,0,0	to_board	s497
492.866	0.465	0	PA_with_intermediate	1,0,0,2,0,0,0,0,0	test	ward_and_allport	1,0,0,2,3,0,0,0,0	82.0	40.0	0.465	1,2,3,0,0,0,0,0,0	to_hand	s497
493.332	0.516	0	PA_with_intermediate	1,0,0,2,3,0,0,0,0	test	ward_and_allport	1,0,0,2,3,0,0,0,0	71.0	40.0	0.516	1,2,3,0,0,0,0,0,0	to_board	s497
493.856	1.0	0	PA_with_intermediate	n/a	test	ward_and_allport	n/a	-1.0	40.0	n/a	n/a	feedback	s497
494.856	1.816	0	PA_with_intermediate	n/a	test	ward_and_allport	n/a	-1.0	40.0	n/a	n/a	ITI	s497
496.678	2.387	1	PA_without_intermediate	0,0,0,0,0,0,1,2,0	test	ward_and_allport	2,0,0,3,1,0,0,0,0	82.0	41.0	2.387	0,0,0,0,0,0,1,2,3	to_hand	s497
499.066	1.121	0	PA_without_intermediate	0,0,0,3,0,0,1,2,0	test	ward_and_allport	2,0,0,3,1,0,0,0,0	71.0	41.0	1.121	0,0,0,0,0,0,1,2,3	to_board	s497
500.194	1.247	0	PA_without_intermediate	0,0,0,3,0,0,1,0,0	test	ward_and_allport	2,0,0,3,1,0,0,0,0	82.0	41.0	1.247	0,0,0,0,0,0,1,2,3	to_hand	s497
501.442	0.52	0	PA_without_intermediate	2,0,0,3,0,0,1,0,0	test	ward_and_allport	2,0,0,3,1,0,0,0,0	89.0	41.0	0.52	0,0,0,0,0,0,1,2,3	to_board	s497
501.972	0.707	0	PA_without_intermediate	2,0,0,3,0,0,0,0,0	test	ward_and_allport	2,0,0,3,1,0,0,0,0	82.0	41.0	0.707	0,0,0,0,0,0,1,2,3	to_hand	s497
502.679	0.962	0	PA_without_intermediate	2,0,0,3,1,0,0,0,0	test	ward_and_allport	2,0,0,3,1,0,0,0,0	71.0	41.0	0.962	0,0,0,0,0,0,1,2,3	to_board	s497
503.653	1.0	0	PA_without_intermediate	n/a	test	ward_and_allport	n/a	-1.0	41.0	n/a	n/a	feedback	s497
504.653	2.088	0	PA_without_intermediate	n/a	test	ward_and_allport	n/a	-1.0	41.0	n/a	n/a	ITI	s497
506.752	2.393	1	PA_without_intermediate	1,2,0,0,0,0,0,0,0	test	ward_and_allport	0,0,0,3,1,0,2,0,0	89.0	42.0	2.393	1,2,3,0,0,0,0,0,0	to_hand	s497
509.146	0.86	0	PA_without_intermediate	1,2,0,3,0,0,0,0,0	test	ward_and_allport	0,0,0,3,1,0,2,0,0	71.0	42.0	0.86	1,2,3,0,0,0,0,0,0	to_board	s497
510.015	0.891	0	PA_without_intermediate	1,0,0,3,0,0,0,0,0	test	ward_and_allport	0,0,0,3,1,0,2,0,0	89.0	42.0	0.891	1,2,3,0,0,0,0,0,0	to_hand	s497
510.907	0.929	0	PA_without_intermediate	1,0,0,3,0,0,2,0,0	test	ward_and_allport	0,0,0,3,1,0,2,0,0	82.0	42.0	0.929	1,2,3,0,0,0,0,0,0	to_board	s497
511.846	0.643	0	PA_without_intermediate	0,0,0,3,0,0,2,0,0	test	ward_and_allport	0,0,0,3,1,0,2,0,0	89.0	42.0	0.643	1,2,3,0,0,0,0,0,0	to_hand	s497
512.49	0.575	0	PA_without_intermediate	0,0,0,3,1,0,2,0,0	test	ward_and_allport	0,0,0,3,1,0,2,0,0	71.0	42.0	0.575	1,2,3,0,0,0,0,0,0	to_board	s497
513.075	1.0	0	PA_without_intermediate	n/a	test	ward_and_allport	n/a	-1.0	42.0	n/a	n/a	feedback	s497
514.075	1.136	0	PA_without_intermediate	n/a	test	ward_and_allport	n/a	-1.0	42.0	n/a	n/a	ITI	s497
515.223	2.073	1	PA_without_intermediate	0,0,0,0,0,0,1,2,0	test	ward_and_allport	3,1,0,2,0,0,0,0,0	82.0	43.0	2.073	0,0,0,0,0,0,1,2,3	to_hand	s497
517.297	0.577	0	PA_without_intermediate	3,0,0,0,0,0,1,2,0	test	ward_and_allport	3,1,0,2,0,0,0,0,0	89.0	43.0	0.577	0,0,0,0,0,0,1,2,3	to_board	s497
517.881	1.095	0	PA_without_intermediate	3,0,0,0,0,0,1,0,0	test	ward_and_allport	3,1,0,2,0,0,0,0,0	82.0	43.0	1.095	0,0,0,0,0,0,1,2,3	to_hand	s497
518.978	0.553	0	PA_without_intermediate	3,0,0,2,0,0,1,0,0	test	ward_and_allport	3,1,0,2,0,0,0,0,0	71.0	43.0	0.553	0,0,0,0,0,0,1,2,3	to_board	s497
519.54	0.534	0	PA_without_intermediate	3,0,0,2,0,0,0,0,0	test	ward_and_allport	3,1,0,2,0,0,0,0,0	82.0	43.0	0.534	0,0,0,0,0,0,1,2,3	to_hand	s497
520.076	0.397	0	PA_without_intermediate	3,1,0,2,0,0,0,0,0	test	ward_and_allport	3,1,0,2,0,0,0,0,0	89.0	43.0	0.397	0,0,0,0,0,0,1,2,3	to_board	s497
520.481	1.0	0	PA_without_intermediate	n/a	test	ward_and_allport	n/a	-1.0	43.0	n/a	n/a	feedback	s497
521.481	6.168	0	PA_without_intermediate	n/a	test	ward_and_allport	n/a	-1.0	43.0	n/a	n/a	ITI	s497
527.66	1.079	1	PA_without_intermediate	0,0,0,1,2,0,0,0,0	test	ward_and_allport	3,2,0,0,0,0,1,0,0	71.0	44.0	1.079	0,0,0,1,2,3,0,0,0	to_hand	s497
528.74	0.554	0	PA_without_intermediate	3,0,0,1,2,0,0,0,0	test	ward_and_allport	3,2,0,0,0,0,1,0,0	89.0	44.0	0.554	0,0,0,1,2,3,0,0,0	to_board	s497
529.305	0.49	0	PA_without_intermediate	3,0,0,1,0,0,0,0,0	test	ward_and_allport	3,2,0,0,0,0,1,0,0	71.0	44.0	0.49	0,0,0,1,2,3,0,0,0	to_hand	s497
529.796	0.411	0	PA_without_intermediate	3,2,0,1,0,0,0,0,0	test	ward_and_allport	3,2,0,0,0,0,1,0,0	89.0	44.0	0.411	0,0,0,1,2,3,0,0,0	to_board	s497
530.216	0.949	0	PA_without_intermediate	3,2,0,0,0,0,0,0,0	test	ward_and_allport	3,2,0,0,0,0,1,0,0	71.0	44.0	0.949	0,0,0,1,2,3,0,0,0	to_hand	s497
531.166	0.303	0	PA_without_intermediate	3,2,0,0,0,0,1,0,0	test	ward_and_allport	3,2,0,0,0,0,1,0,0	82.0	44.0	0.303	0,0,0,1,2,3,0,0,0	to_board	s497
531.478	1.0	0	PA_without_intermediate	n/a	test	ward_and_allport	n/a	-1.0	44.0	n/a	n/a	feedback	s497
532.478	1.816	0	PA_without_intermediate	n/a	test	ward_and_allport	n/a	-1.0	44.0	n/a	n/a	ITI	s497
539.304	1.057	1	PA_with_intermediate	0,0,0,1,2,0,0,0,0	test	ward_and_allport	0,0,0,1,3,0,2,0,0	71.0	45.0	1.057	0,0,0,1,2,3,0,0,0	to_hand	s497
540.363	1.304	0	PA_with_intermediate	3,0,0,1,2,0,0,0,0	test	ward_and_allport	0,0,0,1,3,0,2,0,0	89.0	45.0	1.304	0,0,0,1,2,3,0,0,0	to_board	s497
541.677	0.629	0	PA_with_intermediate	3,0,0,1,0,0,0,0,0	test	ward_and_allport	0,0,0,1,3,0,2,0,0	71.0	45.0	0.629	0,0,0,1,2,3,0,0,0	to_hand	s497
542.307	0.405	0	PA_with_intermediate	3,0,0,1,0,0,2,0,0	test	ward_and_allport	0,0,0,1,3,0,2,0,0	82.0	45.0	0.405	0,0,0,1,2,3,0,0,0	to_board	s497
542.723	0.389	0	PA_with_intermediate	3,0,0,0,0,0,2,0,0	test	ward_and_allport	0,0,0,1,3,0,2,0,0	71.0	45.0	0.389	0,0,0,1,2,3,0,0,0	to_hand	s497
543.113	1.194	0	PA_with_intermediate	3,0,0,1,0,0,2,0,0	test	ward_and_allport	0,0,0,1,3,0,2,0,0	71.0	45.0	1.194	0,0,0,1,2,3,0,0,0	to_board	s497
544.319	0.341	0	PA_with_intermediate	0,0,0,1,0,0,2,0,0	test	ward_and_allport	0,0,0,1,3,0,2,0,0	89.0	45.0	0.341	0,0,0,1,2,3,0,0,0	to_hand	s497
544.661	0.56	0	PA_with_intermediate	0,0,0,1,3,0,2,0,0	test	ward_and_allport	0,0,0,1,3,0,2,0,0	71.0	45.0	0.56	0,0,0,1,2,3,0,0,0	to_board	s497
545.231	1.0	0	PA_with_intermediate	n/a	test	ward_and_allport	n/a	-1.0	45.0	n/a	n/a	feedback	s497
546.231	1.952	0	PA_with_intermediate	n/a	test	ward_and_allport	n/a	-1.0	45.0	n/a	n/a	ITI	s497
548.191	1.605	1	PA_with_intermediate	0,0,0,1,2,0,0,0,0	test	ward_and_allport	2,3,0,1,0,0,0,0,0	71.0	46.0	1.605	0,0,0,1,2,3,0,0,0	to_hand	s497
549.797	0.971	0	PA_with_intermediate	0,0,0,1,2,0,3,0,0	test	ward_and_allport	2,3,0,1,0,0,0,0,0	82.0	46.0	0.971	0,0,0,1,2,3,0,0,0	to_board	s497
550.775	0.464	0	PA_with_intermediate	0,0,0,1,0,0,3,0,0	test	ward_and_allport	2,3,0,1,0,0,0,0,0	71.0	46.0	0.464	0,0,0,1,2,3,0,0,0	to_hand	s497
551.24	0.489	0	PA_with_intermediate	2,0,0,1,0,0,3,0,0	test	ward_and_allport	2,3,0,1,0,0,0,0,0	89.0	46.0	0.489	0,0,0,1,2,3,0,0,0	to_board	s497
551.74	0.708	0	PA_with_intermediate	2,0,0,1,0,0,0,0,0	test	ward_and_allport	2,3,0,1,0,0,0,0,0	82.0	46.0	0.708	0,0,0,1,2,3,0,0,0	to_hand	s497
552.448	0.675	0	PA_with_intermediate	2,3,0,1,0,0,0,0,0	test	ward_and_allport	2,3,0,1,0,0,0,0,0	89.0	46.0	0.675	0,0,0,1,2,3,0,0,0	to_board	s497
553.136	1.0	0	PA_with_intermediate	n/a	test	ward_and_allport	n/a	-1.0	46.0	n/a	n/a	feedback	s497
554.136	1.136	0	PA_with_intermediate	n/a	test	ward_and_allport	n/a	-1.0	46.0	n/a	n/a	ITI	s497
n/a	n/a	0	n/a	n/a	n/a	n/a	n/a	n/a	n/a	n/a	n/a	ITI	n/a
