onset	duration	EV	action	clicked_on_loss_card	experiment_exp_id	gain_amount	gain_probability	key_press	loss_amount	loss_probability	num_cards	num_click_in_round	num_loss_cards	risk	response_time	total_cards	trial_id	worker_id
3.007	2.942	-0.4985614825553848	draw_card	0.0	columbia_card_task_fmri	12.0	0.8333333333333334	89.0	-70.0	0.1666666666666666	6.0	1.0	1.0	-1.6489408505306002	2.942	n/a	stim	s497
5.952	2.607	-3.231894815888717	draw_card	0.0	columbia_card_task_fmri	12.0	0.8	89.0	-70.0	0.2	6.0	2.0	1.0	0.5899401234331165	2.607	n/a	stim	s497
8.56	2.8	-7.3318948158887185	end_round	0.0	columbia_card_task_fmri	12.0	0.75	71.0	-70.0	0.25	6.0	3.0	1.0	3.2953973024595413	2.8	2.0	stim	s497
11.363	2.25	n/a	-1.0	n/a	columbia_card_task_fmri	n/a	n/a	-1.0	n/a	n/a	n/a	n/a	n/a	n/a	n/a	n/a	feedback	s497
13.613	0.204	n/a	-1.0	n/a	columbia_card_task_fmri	n/a	n/a	-1.0	n/a	n/a	n/a	n/a	n/a	n/a	n/a	n/a	ITI	s497
13.82	3.029	0.3347718507779491	draw_card	1.0	columbia_card_task_fmri	14.0	0.8333333333333334	89.0	-75.0	0.1666666666666666	6.0	1.0	1.0	0.9580510199444774	3.029	1.0	stim	s497
16.851	2.25	n/a	-1.0	n/a	columbia_card_task_fmri	n/a	n/a	-1.0	n/a	n/a	n/a	n/a	n/a	n/a	n/a	n/a	feedback	s497
19.101	0.204	n/a	-1.0	n/a	columbia_card_task_fmri	n/a	n/a	-1.0	n/a	n/a	n/a	n/a	n/a	n/a	n/a	n/a	ITI	s497
19.307	1.197	2.0014385174446154	draw_card	0.0	columbia_card_task_fmri	15.0	0.8333333333333334	89.0	-70.0	0.1666666666666666	6.0	1.0	1.0	-0.5316939612672336	1.197	n/a	stim	s497
20.506	0.567	-0.8318948158887187	draw_card	0.0	columbia_card_task_fmri	15.0	0.8	89.0	-70.0	0.2	6.0	2.0	1.0	1.789206684569983	0.567	n/a	stim	s497
21.075	0.911	-5.081894815888719	draw_card	0.0	columbia_card_task_fmri	15.0	0.75	89.0	-70.0	0.25	6.0	3.0	1.0	4.593757795199764	0.911	n/a	stim	s497
21.989	0.881	-12.165228149222049	end_round	0.0	columbia_card_task_fmri	15.0	0.6666666666666667	71.0	-70.0	0.3333333333333333	6.0	4.0	1.0	7.855553859828902	0.881	3.0	stim	s497
22.873	2.25	n/a	-1.0	n/a	columbia_card_task_fmri	n/a	n/a	-1.0	n/a	n/a	n/a	n/a	n/a	n/a	n/a	n/a	feedback	s497
25.123	0.272	n/a	-1.0	n/a	columbia_card_task_fmri	n/a	n/a	-1.0	n/a	n/a	n/a	n/a	n/a	n/a	n/a	n/a	ITI	s497
25.396	1.764	2.8347718507779494	draw_card	0.0	columbia_card_task_fmri	17.0	0.8333333333333334	89.0	-75.0	0.1666666666666666	6.0	1.0	1.0	2.075414888294098	1.764	n/a	stim	s497
27.161	2.778	-0.2318948158887173	draw_card	0.0	columbia_card_task_fmri	17.0	0.8	89.0	-75.0	0.2	6.0	2.0	1.0	4.587681194336298	2.778	n/a	stim	s497
29.94	1.252	-4.831894815888719	end_round	0.0	columbia_card_task_fmri	17.0	0.75	71.0	-75.0	0.25	6.0	3.0	1.0	7.623437351680877	1.252	2.0	stim	s497
31.195	2.25	n/a	-1.0	n/a	columbia_card_task_fmri	n/a	n/a	-1.0	n/a	n/a	n/a	n/a	n/a	n/a	n/a	n/a	feedback	s497
33.445	0.204	n/a	-1.0	n/a	columbia_card_task_fmri	n/a	n/a	-1.0	n/a	n/a	n/a	n/a	n/a	n/a	n/a	n/a	ITI	s497
33.65	1.953	4.1681051841112815	draw_card	0.0	columbia_card_task_fmri	24.0	0.75	89.0	-60.0	0.25	8.0	1.0	2.0	4.160965590579288	1.953	n/a	stim	s497
35.606	1.762	1.1681051841112813	draw_card	0.0	columbia_card_task_fmri	24.0	0.7142857142857143	89.0	-60.0	0.2857142857142857	8.0	2.0	2.0	5.734453003291577	1.762	n/a	stim	s497
37.369	1.512	-2.8318948158887185	draw_card	0.0	columbia_card_task_fmri	24.0	0.6666666666666667	89.0	-60.0	0.3333333333333333	8.0	3.0	2.0	7.384351902887772	1.512	n/a	stim	s497
38.883	3.577	-8.43189481588872	draw_card	1.0	columbia_card_task_fmri	24.0	0.6	89.0	-60.0	0.4	8.0	4.0	2.0	8.937149855337282	3.577	4.0	stim	s497
42.462	2.25	n/a	-1.0	n/a	columbia_card_task_fmri	n/a	n/a	-1.0	n/a	n/a	n/a	n/a	n/a	n/a	n/a	n/a	feedback	s497
44.712	0.408	n/a	-1.0	n/a	columbia_card_task_fmri	n/a	n/a	-1.0	n/a	n/a	n/a	n/a	n/a	n/a	n/a	n/a	ITI	s497
45.122	0.72	4.1681051841112815	draw_card	0.0	columbia_card_task_fmri	29.0	0.75	89.0	-75.0	0.25	8.0	1.0	2.0	12.817614877338954	0.72	n/a	stim	s497
45.842	0.594	0.4538194698255695	draw_card	1.0	columbia_card_task_fmri	29.0	0.7142857142857143	89.0	-75.0	0.2857142857142857	8.0	2.0	2.0	14.766076648311248	0.594	2.0	stim	s497
46.439	2.25	n/a	-1.0	n/a	columbia_card_task_fmri	n/a	n/a	-1.0	n/a	n/a	n/a	n/a	n/a	n/a	n/a	n/a	feedback	s497
48.689	0.136	n/a	-1.0	n/a	columbia_card_task_fmri	n/a	n/a	-1.0	n/a	n/a	n/a	n/a	n/a	n/a	n/a	n/a	ITI	s497
48.828	0.543	-0.0541170381109383	draw_card	0.0	columbia_card_task_fmri	17.0	0.7777777777777778	89.0	-65.0	0.2222222222222222	9.0	1.0	2.0	1.8798095620859956	0.543	n/a	stim	s497
49.374	0.615	-2.3318948158887185	draw_card	0.0	columbia_card_task_fmri	17.0	0.75	89.0	-65.0	0.25	9.0	2.0	2.0	3.2953973024595413	0.615	n/a	stim	s497
49.991	0.795	-5.2604662444601455	draw_card	0.0	columbia_card_task_fmri	17.0	0.7142857142857143	89.0	-65.0	0.2857142857142857	9.0	3.0	2.0	4.831383280556565	0.795	n/a	stim	s497
50.788	0.863	-9.165228149222049	end_round	0.0	columbia_card_task_fmri	17.0	0.6666666666666667	71.0	-65.0	0.3333333333333333	9.0	4.0	2.0	6.441962800807744	0.863	3.0	stim	s497
51.653	2.25	n/a	-1.0	n/a	columbia_card_task_fmri	n/a	n/a	-1.0	n/a	n/a	n/a	n/a	n/a	n/a	n/a	n/a	feedback	s497
53.903	0.272	n/a	-1.0	n/a	columbia_card_task_fmri	n/a	n/a	-1.0	n/a	n/a	n/a	n/a	n/a	n/a	n/a	n/a	ITI	s497
54.177	0.994	4.268105184111281	draw_card	0.0	columbia_card_task_fmri	14.0	0.9	89.0	-95.0	0.1	10.0	1.0	1.0	0.4900036708908928	0.994	n/a	stim	s497
55.173	2.052	3.056994073000169	end_round	0.0	columbia_card_task_fmri	14.0	0.8888888888888888	71.0	-95.0	0.1111111111111111	10.0	2.0	1.0	2.0444523909263594	2.052	1.0	stim	s497
57.229	2.25	n/a	-1.0	n/a	columbia_card_task_fmri	n/a	n/a	-1.0	n/a	n/a	n/a	n/a	n/a	n/a	n/a	n/a	feedback	s497
59.479	0.34	n/a	-1.0	n/a	columbia_card_task_fmri	n/a	n/a	-1.0	n/a	n/a	n/a	n/a	n/a	n/a	n/a	n/a	ITI	s497
59.82	0.512	0.1681051841112812	draw_card	1.0	columbia_card_task_fmri	15.0	0.8	89.0	-65.0	0.2	10.0	1.0	2.0	-0.2095403870305858	0.512	1.0	stim	s497
60.334	2.25	n/a	-1.0	n/a	columbia_card_task_fmri	n/a	n/a	-1.0	n/a	n/a	n/a	n/a	n/a	n/a	n/a	n/a	feedback	s497
62.584	0.136	n/a	-1.0	n/a	columbia_card_task_fmri	n/a	n/a	-1.0	n/a	n/a	n/a	n/a	n/a	n/a	n/a	n/a	ITI	s497
62.721	0.598	1.7681051841112827	draw_card	0.0	columbia_card_task_fmri	17.0	0.8	89.0	-65.0	0.2	10.0	1.0	2.0	0.5899401234331165	0.598	n/a	stim	s497
63.321	0.83	-0.0541170381109383	draw_card	0.0	columbia_card_task_fmri	17.0	0.7777777777777778	89.0	-65.0	0.2222222222222222	10.0	2.0	2.0	1.8798095620859956	0.83	n/a	stim	s497
64.152	0.473	-2.3318948158887185	draw_card	0.0	columbia_card_task_fmri	17.0	0.75	89.0	-65.0	0.25	10.0	3.0	2.0	3.2953973024595413	0.473	n/a	stim	s497
64.627	0.996	-5.2604662444601455	draw_card	0.0	columbia_card_task_fmri	17.0	0.7142857142857143	89.0	-65.0	0.2857142857142857	10.0	4.0	2.0	4.831383280556565	0.996	n/a	stim	s497
65.624	0.906	-9.165228149222049	end_round	0.0	columbia_card_task_fmri	17.0	0.6666666666666667	71.0	-65.0	0.3333333333333333	10.0	5.0	2.0	6.441962800807744	0.906	4.0	stim	s497
66.533	2.25	n/a	-1.0	n/a	columbia_card_task_fmri	n/a	n/a	-1.0	n/a	n/a	n/a	n/a	n/a	n/a	n/a	n/a	feedback	s497
68.783	0.34	n/a	-1.0	n/a	columbia_card_task_fmri	n/a	n/a	-1.0	n/a	n/a	n/a	n/a	n/a	n/a	n/a	n/a	ITI	s497
69.125	2.02	0.3347718507779491	draw_card	0.0	columbia_card_task_fmri	13.0	0.8333333333333334	89.0	-70.0	0.1666666666666666	12.0	1.0	2.0	-1.2765315361328824	2.02	n/a	stim	s497
71.148	0.91	-0.9228039067978122	draw_card	0.0	columbia_card_task_fmri	13.0	0.8181818181818181	89.0	-70.0	0.1818181818181818	12.0	2.0	2.0	-0.1968963475722063	0.91	n/a	stim	s497
72.06	3.399	-2.431894815888718	draw_card	0.0	columbia_card_task_fmri	13.0	0.8	89.0	-70.0	0.2	12.0	3.0	2.0	0.9896897581795088	3.399	n/a	stim	s497
75.461	1.28	-4.276339260333163	end_round	0.0	columbia_card_task_fmri	13.0	0.7777777777777778	71.0	-70.0	0.2222222222222222	12.0	4.0	2.0	2.2953083683853848	1.28	3.0	stim	s497
76.744	2.25	n/a	-1.0	n/a	columbia_card_task_fmri	n/a	n/a	-1.0	n/a	n/a	n/a	n/a	n/a	n/a	n/a	n/a	feedback	s497
78.994	0.068	n/a	-1.0	n/a	columbia_card_task_fmri	n/a	n/a	-1.0	n/a	n/a	n/a	n/a	n/a	n/a	n/a	n/a	ITI	s497
79.064	1.259	0.3347718507779491	draw_card	1.0	columbia_card_task_fmri	15.0	0.8333333333333334	89.0	-80.0	0.1666666666666666	12.0	1.0	2.0	3.1928210443689764	1.259	1.0	stim	s497
80.327	2.25	n/a	-1.0	n/a	columbia_card_task_fmri	n/a	n/a	-1.0	n/a	n/a	n/a	n/a	n/a	n/a	n/a	n/a	feedback	s497
82.577	0.0	n/a	-1.0	n/a	columbia_card_task_fmri	n/a	n/a	-1.0	n/a	n/a	n/a	n/a	n/a	n/a	n/a	n/a	ITI	s497
82.578	1.743	-0.6318948158887177	draw_card	0.0	columbia_card_task_fmri	14.0	0.8	89.0	-65.0	0.2	15.0	1.0	3.0	-0.6092707884680877	1.743	n/a	stim	s497
84.323	0.806	-1.7604662444601458	draw_card	0.0	columbia_card_task_fmri	14.0	0.7857142857142857	89.0	-65.0	0.2142857142857142	15.0	2.0	3.0	0.2059328086338752	0.806	n/a	stim	s497
85.131	0.929	-3.0626640466579502	draw_card	0.0	columbia_card_task_fmri	14.0	0.7692307692307692	89.0	-65.0	0.2307692307692307	15.0	3.0	3.0	1.07431602241153	0.929	n/a	stim	s497
86.063	1.057	-4.581894815888719	draw_card	1.0	columbia_card_task_fmri	14.0	0.75	89.0	-65.0	0.25	15.0	4.0	3.0	1.9970882306387023	1.057	4.0	stim	s497
87.125	2.25	n/a	-1.0	n/a	columbia_card_task_fmri	n/a	n/a	-1.0	n/a	n/a	n/a	n/a	n/a	n/a	n/a	n/a	feedback	s497
89.375	0.204	n/a	-1.0	n/a	columbia_card_task_fmri	n/a	n/a	-1.0	n/a	n/a	n/a	n/a	n/a	n/a	n/a	n/a	ITI	s497
89.582	0.539	-0.7068948158887187	draw_card	0.0	columbia_card_task_fmri	1.0	0.9375	89.0	-45.0	0.0625	16.0	1.0	1.0	-21.0349233006918	0.539	n/a	stim	s497
90.122	0.574	-0.8985614825553851	draw_card	0.0	columbia_card_task_fmri	1.0	0.9333333333333332	89.0	-45.0	0.0666666666666666	16.0	2.0	1.0	-20.69713334990874	0.574	n/a	stim	s497
90.697	0.736	-1.1176091016030043	draw_card	0.0	columbia_card_task_fmri	1.0	0.9285714285714286	89.0	-45.0	0.0714285714285714	16.0	3.0	1.0	-20.326593030368745	0.736	n/a	stim	s497
91.435	0.729	-1.370356354350257	draw_card	1.0	columbia_card_task_fmri	1.0	0.9230769230769232	89.0	-45.0	0.0769230769230769	16.0	4.0	1.0	-19.917730436913075	0.729	4.0	stim	s497
92.168	2.25	n/a	-1.0	n/a	columbia_card_task_fmri	n/a	n/a	-1.0	n/a	n/a	n/a	n/a	n/a	n/a	n/a	n/a	feedback	s497
94.418	1.02	n/a	-1.0	n/a	columbia_card_task_fmri	n/a	n/a	-1.0	n/a	n/a	n/a	n/a	n/a	n/a	n/a	n/a	ITI	s497
95.439	0.538	0.2306051841112812	draw_card	0.0	columbia_card_task_fmri	15.0	0.8125	89.0	-70.0	0.1875	16.0	1.0	3.0	0.9662561347436522	0.538	n/a	stim	s497
95.98	0.589	-0.8318948158887187	draw_card	0.0	columbia_card_task_fmri	15.0	0.8	89.0	-70.0	0.2	16.0	2.0	3.0	1.789206684569983	0.589	n/a	stim	s497
96.57	0.577	-2.046180530174434	draw_card	0.0	columbia_card_task_fmri	15.0	0.7857142857142857	89.0	-70.0	0.2142857142857142	16.0	3.0	3.0	2.6664039458973647	0.577	n/a	stim	s497
97.15	1.177	-3.4472794312733352	draw_card	1.0	columbia_card_task_fmri	15.0	0.7692307692307692	89.0	-70.0	0.2307692307692307	16.0	4.0	3.0	3.6008206864524936	1.177	4.0	stim	s497
98.331	2.25	n/a	-1.0	n/a	columbia_card_task_fmri	n/a	n/a	-1.0	n/a	n/a	n/a	n/a	n/a	n/a	n/a	n/a	feedback	s497
100.581	0.0	n/a	-1.0	n/a	columbia_card_task_fmri	n/a	n/a	-1.0	n/a	n/a	n/a	n/a	n/a	n/a	n/a	n/a	ITI	s497
100.583	0.878	7.1681051841112815	draw_card	1.0	columbia_card_task_fmri	30.0	0.7	89.0	-50.0	0.3	10.0	1.0	3.0	4.448357191271377	0.878	1.0	stim	s497
101.464	2.25	n/a	-1.0	n/a	columbia_card_task_fmri	n/a	n/a	-1.0	n/a	n/a	n/a	n/a	n/a	n/a	n/a	n/a	feedback	s497
103.714	0.0	n/a	-1.0	n/a	columbia_card_task_fmri	n/a	n/a	-1.0	n/a	n/a	n/a	n/a	n/a	n/a	n/a	n/a	ITI	s497
103.716	0.543	6.568105184111282	draw_card	0.0	columbia_card_task_fmri	17.0	0.8666666666666667	89.0	-70.0	0.1333333333333333	15.0	1.0	2.0	-2.6334804462909034	0.543	n/a	stim	s497
104.262	0.616	5.739533755539855	draw_card	0.0	columbia_card_task_fmri	17.0	0.8571428571428572	89.0	-70.0	0.1428571428571428	15.0	2.0	2.0	-1.764793386234956	0.616	n/a	stim	s497
104.88	2.26	4.7834897994958965	draw_card	0.0	columbia_card_task_fmri	17.0	0.8461538461538461	89.0	-70.0	0.1538461538461538	15.0	3.0	2.0	-0.8194208282196165	2.26	n/a	stim	s497
107.142	0.825	3.6681051841112833	end_round	0.0	columbia_card_task_fmri	17.0	0.8333333333333334	71.0	-70.0	0.1666666666666666	15.0	4.0	2.0	0.2131674251635118	0.825	3.0	stim	s497
107.97	2.25	n/a	-1.0	n/a	columbia_card_task_fmri	n/a	n/a	-1.0	n/a	n/a	n/a	n/a	n/a	n/a	n/a	n/a	feedback	s497
110.22	0.068	n/a	-1.0	n/a	columbia_card_task_fmri	n/a	n/a	-1.0	n/a	n/a	n/a	n/a	n/a	n/a	n/a	n/a	ITI	s497
110.29	0.8	1.7931051841112813	draw_card	0.0	columbia_card_task_fmri	7.0	0.9375	89.0	-95.0	0.0625	16.0	1.0	1.0	-7.512968010739986	0.8	n/a	stim	s497
111.092	0.912	1.3681051841112817	draw_card	0.0	columbia_card_task_fmri	7.0	0.9333333333333332	89.0	-95.0	0.0666666666666666	16.0	2.0	1.0	-6.760783052153929	0.912	n/a	stim	s497
112.007	1.7	0.8823908983969957	end_round	0.0	columbia_card_task_fmri	7.0	0.9285714285714286	71.0	-95.0	0.0714285714285714	16.0	3.0	1.0	-5.93587843402852	1.7	2.0	stim	s497
113.71	2.25	n/a	-1.0	n/a	columbia_card_task_fmri	n/a	n/a	-1.0	n/a	n/a	n/a	n/a	n/a	n/a	n/a	n/a	feedback	s497
115.96	0.476	n/a	-1.0	n/a	columbia_card_task_fmri	n/a	n/a	-1.0	n/a	n/a	n/a	n/a	n/a	n/a	n/a	n/a	ITI	s497
116.439	0.658	3.355605184111281	draw_card	0.0	columbia_card_task_fmri	9.0	0.9375	89.0	-100.0	0.0625	16.0	1.0	1.0	-5.820309524799292	0.658	n/a	stim	s497
117.098	2.952	2.901438517444615	draw_card	0.0	columbia_card_task_fmri	9.0	0.9333333333333332	89.0	-100.0	0.0666666666666666	16.0	2.0	1.0	-5.016395722291421	2.952	n/a	stim	s497
120.052	1.878	2.382390898396997	draw_card	1.0	columbia_card_task_fmri	9.0	0.9285714285714286	89.0	-100.0	0.0714285714285714	16.0	3.0	1.0	-4.13476834974017	1.878	3.0	stim	s497
121.934	2.25	n/a	-1.0	n/a	columbia_card_task_fmri	n/a	n/a	-1.0	n/a	n/a	n/a	n/a	n/a	n/a	n/a	n/a	feedback	s497
124.184	0.136	n/a	-1.0	n/a	columbia_card_task_fmri	n/a	n/a	-1.0	n/a	n/a	n/a	n/a	n/a	n/a	n/a	n/a	ITI	s497
124.323	0.614	4.2931051841112815	draw_card	0.0	columbia_card_task_fmri	15.0	0.875	89.0	-80.0	0.125	16.0	1.0	2.0	-0.7908492371578149	0.614	n/a	stim	s497
124.938	0.657	3.5014385174446154	draw_card	0.0	columbia_card_task_fmri	15.0	0.8666666666666667	89.0	-80.0	0.1333333333333333	16.0	2.0	2.0	0.084056102001746	0.657	n/a	stim	s497
125.597	0.576	2.596676612682712	draw_card	0.0	columbia_card_task_fmri	15.0	0.8571428571428572	89.0	-80.0	0.1428571428571428	16.0	3.0	2.0	1.0327382365644908	0.576	n/a	stim	s497
126.175	0.762	1.5527205687266643	draw_card	0.0	columbia_card_task_fmri	15.0	0.8461538461538461	89.0	-80.0	0.1538461538461538	16.0	4.0	2.0	2.0651603525225752	0.762	n/a	stim	s497
126.939	1.12	0.3347718507779491	end_round	0.0	columbia_card_task_fmri	15.0	0.8333333333333334	71.0	-80.0	0.1666666666666666	16.0	5.0	2.0	3.1928210443689764	1.12	4.0	stim	s497
128.063	2.25	n/a	-1.0	n/a	columbia_card_task_fmri	n/a	n/a	-1.0	n/a	n/a	n/a	n/a	n/a	n/a	n/a	n/a	feedback	s497
130.313	0.068	n/a	-1.0	n/a	columbia_card_task_fmri	n/a	n/a	-1.0	n/a	n/a	n/a	n/a	n/a	n/a	n/a	n/a	ITI	s497
130.384	2.467	6.4181051841112815	end_round	0.0	columbia_card_task_fmri	16.0	0.875	71.0	-70.0	0.125	16.0	1.0	2.0	-3.765049614620682	2.467	0.0	stim	s497
132.855	2.25	n/a	-1.0	n/a	columbia_card_task_fmri	n/a	n/a	-1.0	n/a	n/a	n/a	n/a	n/a	n/a	n/a	n/a	feedback	s497
135.105	0.0	n/a	-1.0	n/a	columbia_card_task_fmri	n/a	n/a	-1.0	n/a	n/a	n/a	n/a	n/a	n/a	n/a	n/a	ITI	s497
135.108	1.041	7.7306051841112815	draw_card	1.0	columbia_card_task_fmri	30.0	0.6875	89.0	-45.0	0.3125	16.0	1.0	5.0	2.552196815891669	1.041	1.0	stim	s497
136.153	2.25	n/a	-1.0	n/a	columbia_card_task_fmri	n/a	n/a	-1.0	n/a	n/a	n/a	n/a	n/a	n/a	n/a	n/a	feedback	s497
138.403	0.0	n/a	-1.0	n/a	columbia_card_task_fmri	n/a	n/a	-1.0	n/a	n/a	n/a	n/a	n/a	n/a	n/a	n/a	ITI	s497
138.405	0.925	-0.4985614825553848	draw_card	0.0	columbia_card_task_fmri	13.0	0.8333333333333334	89.0	-75.0	0.1666666666666666	6.0	1.0	1.0	0.5856065410271043	0.925	n/a	stim	s497
139.332	0.652	-3.431894815888718	draw_card	1.0	columbia_card_task_fmri	13.0	0.8	89.0	-75.0	0.2	6.0	2.0	1.0	2.988523210151719	0.652	2.0	stim	s497
139.986	2.25	n/a	-1.0	n/a	columbia_card_task_fmri	n/a	n/a	-1.0	n/a	n/a	n/a	n/a	n/a	n/a	n/a	n/a	feedback	s497
142.236	0.204	n/a	-1.0	n/a	columbia_card_task_fmri	n/a	n/a	-1.0	n/a	n/a	n/a	n/a	n/a	n/a	n/a	n/a	ITI	s497
142.443	0.498	1.168105184111283	draw_card	1.0	columbia_card_task_fmri	14.0	0.8333333333333334	89.0	-70.0	0.1666666666666666	6.0	1.0	1.0	-0.9041158313007857	0.498	1.0	stim	s497
142.944	2.25	n/a	-1.0	n/a	columbia_card_task_fmri	n/a	n/a	-1.0	n/a	n/a	n/a	n/a	n/a	n/a	n/a	n/a	feedback	s497
145.194	0.204	n/a	-1.0	n/a	columbia_card_task_fmri	n/a	n/a	-1.0	n/a	n/a	n/a	n/a	n/a	n/a	n/a	n/a	ITI	s497
145.401	0.466	1.168105184111283	draw_card	0.0	columbia_card_task_fmri	16.0	0.8333333333333334	89.0	-80.0	0.1666666666666666	6.0	1.0	1.0	3.565298475868936	0.466	n/a	stim	s497
145.869	0.946	-2.031894815888718	draw_card	0.0	columbia_card_task_fmri	16.0	0.8	89.0	-80.0	0.2	6.0	2.0	1.0	6.186909295672606	0.946	n/a	stim	s497
146.817	1.235	-6.831894815888719	draw_card	1.0	columbia_card_task_fmri	16.0	0.75	89.0	-80.0	0.25	6.0	3.0	1.0	9.354775034085089	1.235	3.0	stim	s497
148.056	2.25	n/a	-1.0	n/a	columbia_card_task_fmri	n/a	n/a	-1.0	n/a	n/a	n/a	n/a	n/a	n/a	n/a	n/a	feedback	s497
150.306	0.272	n/a	-1.0	n/a	columbia_card_task_fmri	n/a	n/a	-1.0	n/a	n/a	n/a	n/a	n/a	n/a	n/a	n/a	ITI	s497
150.58	0.799	3.6681051841112833	draw_card	0.0	columbia_card_task_fmri	17.0	0.8333333333333334	89.0	-70.0	0.1666666666666666	6.0	1.0	1.0	0.2131674251635118	0.799	n/a	stim	s497
151.382	0.824	0.7681051841112827	draw_card	0.0	columbia_card_task_fmri	17.0	0.8	89.0	-70.0	0.2	6.0	2.0	1.0	2.58874580204494	0.824	n/a	stim	s497
152.207	0.954	-3.5818948158887185	end_round	0.0	columbia_card_task_fmri	17.0	0.75	71.0	-70.0	0.25	6.0	3.0	1.0	5.45935739997735	0.954	2.0	stim	s497
153.164	2.25	n/a	-1.0	n/a	columbia_card_task_fmri	n/a	n/a	-1.0	n/a	n/a	n/a	n/a	n/a	n/a	n/a	n/a	feedback	s497
155.414	0.136	n/a	-1.0	n/a	columbia_card_task_fmri	n/a	n/a	-1.0	n/a	n/a	n/a	n/a	n/a	n/a	n/a	n/a	ITI	s497
155.552	3.016	3.6681051841112815	draw_card	0.0	columbia_card_task_fmri	25.0	0.75	89.0	-65.0	0.25	8.0	1.0	2.0	6.757792265762667	3.016	n/a	stim	s497
158.57	0.504	0.4538194698255695	draw_card	0.0	columbia_card_task_fmri	25.0	0.7142857142857143	89.0	-65.0	0.2857142857142857	8.0	2.0	2.0	8.443778943192513	0.504	n/a	stim	s497
159.078	2.006	-3.831894815888715	draw_card	1.0	columbia_card_task_fmri	25.0	0.6666666666666667	89.0	-65.0	0.3333333333333333	8.0	3.0	2.0	10.2116311257926	2.006	3.0	stim	s497
161.087	2.25	n/a	-1.0	n/a	columbia_card_task_fmri	n/a	n/a	-1.0	n/a	n/a	n/a	n/a	n/a	n/a	n/a	n/a	feedback	s497
163.337	0.204	n/a	-1.0	n/a	columbia_card_task_fmri	n/a	n/a	-1.0	n/a	n/a	n/a	n/a	n/a	n/a	n/a	n/a	ITI	s497
163.544	1.5	3.6681051841112815	draw_card	0.0	columbia_card_task_fmri	30.0	0.75	89.0	-80.0	0.25	8.0	1.0	2.0	15.41486514366298	1.5	n/a	stim	s497
165.048	1.938	-0.2604662444601422	end_round	0.0	columbia_card_task_fmri	30.0	0.7142857142857143	71.0	-80.0	0.2857142857142857	8.0	2.0	2.0	17.475808646056613	1.938	1.0	stim	s497
166.989	2.25	n/a	-1.0	n/a	columbia_card_task_fmri	n/a	n/a	-1.0	n/a	n/a	n/a	n/a	n/a	n/a	n/a	n/a	feedback	s497
169.239	0.272	n/a	-1.0	n/a	columbia_card_task_fmri	n/a	n/a	-1.0	n/a	n/a	n/a	n/a	n/a	n/a	n/a	n/a	ITI	s497
169.514	0.792	3.3681051841112826	draw_card	1.0	columbia_card_task_fmri	13.0	0.9	89.0	-95.0	0.1	10.0	1.0	1.0	0.190196664598389	0.792	1.0	stim	s497
170.31	2.25	n/a	-1.0	n/a	columbia_card_task_fmri	n/a	n/a	-1.0	n/a	n/a	n/a	n/a	n/a	n/a	n/a	n/a	feedback	s497
172.56	0.272	n/a	-1.0	n/a	columbia_card_task_fmri	n/a	n/a	-1.0	n/a	n/a	n/a	n/a	n/a	n/a	n/a	n/a	ITI	s497
172.835	0.477	4.768105184111281	draw_card	0.0	columbia_card_task_fmri	14.0	0.9	89.0	-90.0	0.1	10.0	1.0	1.0	-1.0089942842888782	0.477	n/a	stim	s497
173.316	0.447	3.612549628555725	draw_card	0.0	columbia_card_task_fmri	14.0	0.8888888888888888	89.0	-90.0	0.1111111111111111	10.0	2.0	1.0	0.4740606195365373	0.447	n/a	stim	s497
173.766	0.963	2.168105184111281	draw_card	0.0	columbia_card_task_fmri	14.0	0.875	89.0	-90.0	0.125	10.0	3.0	1.0	2.1837436246865565	0.963	n/a	stim	s497
174.732	0.941	0.3109623269684254	end_round	0.0	columbia_card_task_fmri	14.0	0.8571428571428572	71.0	-90.0	0.1428571428571428	10.0	4.0	1.0	4.1803077009437	0.941	3.0	stim	s497
175.676	2.25	n/a	-1.0	n/a	columbia_card_task_fmri	n/a	n/a	-1.0	n/a	n/a	n/a	n/a	n/a	n/a	n/a	n/a	feedback	s497
177.926	0.34	n/a	-1.0	n/a	columbia_card_task_fmri	n/a	n/a	-1.0	n/a	n/a	n/a	n/a	n/a	n/a	n/a	n/a	ITI	s497
178.268	2.776	-0.031894815888718	draw_card	0.0	columbia_card_task_fmri	16.0	0.8	89.0	-70.0	0.2	10.0	1.0	2.0	2.188973566072896	2.776	n/a	stim	s497
181.047	1.563	-1.9430059269998292	draw_card	0.0	columbia_card_task_fmri	16.0	0.7777777777777778	89.0	-70.0	0.2222222222222222	10.0	2.0	2.0	3.5418383740597577	1.563	n/a	stim	s497
182.613	0.956	-4.331894815888719	end_round	0.0	columbia_card_task_fmri	16.0	0.75	71.0	-70.0	0.25	10.0	3.0	2.0	5.0265551238383	0.956	2.0	stim	s497
183.572	2.25	n/a	-1.0	n/a	columbia_card_task_fmri	n/a	n/a	-1.0	n/a	n/a	n/a	n/a	n/a	n/a	n/a	n/a	feedback	s497
185.822	0.204	n/a	-1.0	n/a	columbia_card_task_fmri	n/a	n/a	-1.0	n/a	n/a	n/a	n/a	n/a	n/a	n/a	n/a	ITI	s497
186.028	2.383	-0.7485614825553848	draw_card	0.0	columbia_card_task_fmri	7.0	0.9166666666666666	89.0	-100.0	0.0833333333333333	12.0	1.0	1.0	-2.634555073194722	2.383	n/a	stim	s497
188.414	1.816	-1.5591675431614471	draw_card	0.0	columbia_card_task_fmri	7.0	0.9090909090909092	89.0	-100.0	0.0909090909090909	12.0	2.0	1.0	-1.44834483570893	1.816	n/a	stim	s497
190.232	2.755	-2.5318948158887187	end_round	0.0	columbia_card_task_fmri	7.0	0.9	71.0	-100.0	0.1	12.0	3.0	1.0	-0.1096067378805187	2.755	2.0	stim	s497
192.991	2.25	n/a	-1.0	n/a	columbia_card_task_fmri	n/a	n/a	-1.0	n/a	n/a	n/a	n/a	n/a	n/a	n/a	n/a	feedback	s497
195.241	0.068	n/a	-1.0	n/a	columbia_card_task_fmri	n/a	n/a	-1.0	n/a	n/a	n/a	n/a	n/a	n/a	n/a	n/a	ITI	s497
195.313	2.356	-0.498561482555383	draw_card	0.0	columbia_card_task_fmri	14.0	0.8333333333333334	89.0	-80.0	0.1666666666666666	12.0	1.0	2.0	2.8203478766864194	2.356	n/a	stim	s497
197.672	2.349	-1.922803906797812	draw_card	1.0	columbia_card_task_fmri	14.0	0.8181818181818181	89.0	-80.0	0.1818181818181818	12.0	2.0	2.0	4.043252658882146	2.349	2.0	stim	s497
200.025	2.25	n/a	-1.0	n/a	columbia_card_task_fmri	n/a	n/a	-1.0	n/a	n/a	n/a	n/a	n/a	n/a	n/a	n/a	feedback	s497
202.275	0.0	n/a	-1.0	n/a	columbia_card_task_fmri	n/a	n/a	-1.0	n/a	n/a	n/a	n/a	n/a	n/a	n/a	n/a	ITI	s497
202.278	1.126	1.1681051841112813	draw_card	0.0	columbia_card_task_fmri	15.0	0.8333333333333334	89.0	-75.0	0.1666666666666666	12.0	1.0	2.0	1.3305006833674329	1.126	n/a	stim	s497
203.407	1.029	-0.1955311795250838	draw_card	0.0	columbia_card_task_fmri	15.0	0.8181818181818181	89.0	-75.0	0.1818181818181818	12.0	2.0	2.0	2.5013098817423938	1.029	n/a	stim	s497
204.439	1.16	-1.8318948158887187	draw_card	1.0	columbia_card_task_fmri	15.0	0.8	89.0	-75.0	0.2	12.0	3.0	2.0	3.7880928538955416	1.16	3.0	stim	s497
205.603	2.25	n/a	-1.0	n/a	columbia_card_task_fmri	n/a	n/a	-1.0	n/a	n/a	n/a	n/a	n/a	n/a	n/a	n/a	feedback	s497
207.853	0.408	n/a	-1.0	n/a	columbia_card_task_fmri	n/a	n/a	-1.0	n/a	n/a	n/a	n/a	n/a	n/a	n/a	n/a	ITI	s497
208.264	0.775	0.1681051841112812	draw_card	0.0	columbia_card_task_fmri	15.0	0.8	89.0	-65.0	0.2	15.0	1.0	3.0	-0.2095403870305858	0.775	n/a	stim	s497
209.041	0.638	-0.9747519587458612	draw_card	0.0	columbia_card_task_fmri	15.0	0.7857142857142857	89.0	-65.0	0.2142857142857142	15.0	2.0	3.0	0.6159958846743692	0.638	n/a	stim	s497
209.682	0.664	-2.293433277427182	draw_card	0.0	columbia_card_task_fmri	15.0	0.7692307692307692	89.0	-65.0	0.2307692307692307	15.0	3.0	3.0	1.4953850880782935	0.664	n/a	stim	s497
210.348	0.914	-3.8318948158887194	draw_card	0.0	columbia_card_task_fmri	15.0	0.75	89.0	-65.0	0.25	15.0	4.0	3.0	2.429851851118869	0.914	n/a	stim	s497
211.266	1.066	-5.650076634070535	draw_card	0.0	columbia_card_task_fmri	15.0	0.7272727272727273	89.0	-65.0	0.2727272727272727	15.0	5.0	3.0	3.4172317749899577	1.066	n/a	stim	s497
212.335	1.277	-7.8318948158887185	end_round	0.0	columbia_card_task_fmri	15.0	0.7	71.0	-65.0	0.3	15.0	6.0	3.0	4.448357191271377	1.277	5.0	stim	s497
213.616	2.25	n/a	-1.0	n/a	columbia_card_task_fmri	n/a	n/a	-1.0	n/a	n/a	n/a	n/a	n/a	n/a	n/a	n/a	feedback	s497
215.866	0.204	n/a	-1.0	n/a	columbia_card_task_fmri	n/a	n/a	-1.0	n/a	n/a	n/a	n/a	n/a	n/a	n/a	n/a	ITI	s497
216.073	1.317	-0.5818948158887187	draw_card	0.0	columbia_card_task_fmri	14.0	0.8125	89.0	-70.0	0.1875	16.0	1.0	3.0	0.5761883364988378	1.317	n/a	stim	s497
217.393	0.843	-1.6318948158887177	draw_card	0.0	columbia_card_task_fmri	14.0	0.8	89.0	-70.0	0.2	16.0	2.0	3.0	1.3894453485404128	0.843	n/a	stim	s497
218.238	1.296	-2.8318948158887185	draw_card	0.0	columbia_card_task_fmri	14.0	0.7857142857142857	89.0	-70.0	0.2142857142857142	16.0	3.0	3.0	2.2563107108817637	1.296	n/a	stim	s497
219.537	0.961	-4.216510200504104	draw_card	0.0	columbia_card_task_fmri	14.0	0.7692307692307692	89.0	-70.0	0.2307692307692307	16.0	4.0	3.0	3.179722246401795	0.961	n/a	stim	s497
220.501	0.964	-5.831894815888719	draw_card	0.0	columbia_card_task_fmri	14.0	0.75	89.0	-70.0	0.25	16.0	5.0	3.0	4.160965590579288	0.964	n/a	stim	s497
221.468	0.986	-7.740985724979627	end_round	0.0	columbia_card_task_fmri	14.0	0.7272727272727273	71.0	-70.0	0.2727272727272727	16.0	6.0	3.0	5.197767735270396	0.986	5.0	stim	s497
222.457	2.25	n/a	-1.0	n/a	columbia_card_task_fmri	n/a	n/a	-1.0	n/a	n/a	n/a	n/a	n/a	n/a	n/a	n/a	feedback	s497
224.707	0.136	n/a	-1.0	n/a	columbia_card_task_fmri	n/a	n/a	-1.0	n/a	n/a	n/a	n/a	n/a	n/a	n/a	n/a	ITI	s497
224.847	2.472	-0.6443948158887187	draw_card	0.0	columbia_card_task_fmri	11.0	0.6875	89.0	-30.0	0.3125	16.0	1.0	5.0	-13.190978826109284	2.472	n/a	stim	s497
227.322	2.089	-1.4985614825553848	draw_card	0.0	columbia_card_task_fmri	11.0	0.6666666666666667	89.0	-30.0	0.3333333333333333	16.0	2.0	5.0	-12.868001446579555	2.089	n/a	stim	s497
229.415	2.107	-2.474751958745862	end_round	0.0	columbia_card_task_fmri	11.0	0.6428571428571428	71.0	-30.0	0.3571428571428571	16.0	3.0	5.0	-12.550702030218872	2.107	2.0	stim	s497
231.527	2.25	n/a	-1.0	n/a	columbia_card_task_fmri	n/a	n/a	-1.0	n/a	n/a	n/a	n/a	n/a	n/a	n/a	n/a	feedback	s497
233.777	0.34	n/a	-1.0	n/a	columbia_card_task_fmri	n/a	n/a	-1.0	n/a	n/a	n/a	n/a	n/a	n/a	n/a	n/a	ITI	s497
234.119	1.546	4.1681051841112815	draw_card	0.0	columbia_card_task_fmri	15.0	0.8666666666666667	89.0	-75.0	0.1333333333333333	15.0	1.0	2.0	-1.614444624423463	1.546	n/a	stim	s497
235.668	2.063	3.3109623269684256	draw_card	0.0	columbia_card_task_fmri	15.0	0.8571428571428572	89.0	-75.0	0.1428571428571428	15.0	2.0	2.0	-0.7157582630008825	2.063	n/a	stim	s497
237.734	1.291	2.321951337957435	draw_card	0.0	columbia_card_task_fmri	15.0	0.8461538461538461	89.0	-75.0	0.1538461538461538	15.0	3.0	2.0	0.262259057145954	1.291	n/a	stim	s497
239.029	1.0	1.1681051841112813	draw_card	1.0	columbia_card_task_fmri	15.0	0.8333333333333334	89.0	-75.0	0.1666666666666666	15.0	4.0	2.0	1.3305006833674329	1.0	4.0	stim	s497
240.033	2.25	n/a	-1.0	n/a	columbia_card_task_fmri	n/a	n/a	-1.0	n/a	n/a	n/a	n/a	n/a	n/a	n/a	n/a	feedback	s497
242.283	0.068	n/a	-1.0	n/a	columbia_card_task_fmri	n/a	n/a	-1.0	n/a	n/a	n/a	n/a	n/a	n/a	n/a	n/a	ITI	s497
242.353	1.191	5.901438517444616	draw_card	0.0	columbia_card_task_fmri	17.0	0.8666666666666667	89.0	-75.0	0.1333333333333333	15.0	1.0	2.0	-0.935059610680586	1.191	n/a	stim	s497
243.547	0.868	5.025248041254141	draw_card	0.0	columbia_card_task_fmri	17.0	0.8571428571428572	89.0	-75.0	0.1428571428571428	15.0	2.0	2.0	-0.0163745054942907	0.868	n/a	stim	s497
244.418	0.599	4.014259030265128	draw_card	1.0	columbia_card_task_fmri	17.0	0.8461538461538461	89.0	-75.0	0.1538461538461538	15.0	3.0	2.0	0.9834051786309814	0.599	3.0	stim	s497
245.022	2.25	n/a	-1.0	n/a	columbia_card_task_fmri	n/a	n/a	-1.0	n/a	n/a	n/a	n/a	n/a	n/a	n/a	n/a	feedback	s497
247.272	0.34	n/a	-1.0	n/a	columbia_card_task_fmri	n/a	n/a	-1.0	n/a	n/a	n/a	n/a	n/a	n/a	n/a	n/a	ITI	s497
247.614	0.619	1.4806051841112813	draw_card	0.0	columbia_card_task_fmri	2.0	0.9375	89.0	-25.0	0.0625	16.0	1.0	1.0	-25.59162776223431	0.619	n/a	stim	s497
248.236	0.545	1.3681051841112812	draw_card	0.0	columbia_card_task_fmri	2.0	0.9333333333333332	89.0	-25.0	0.0666666666666666	16.0	2.0	1.0	-25.395323177292383	0.545	n/a	stim	s497
248.785	0.745	1.239533755539853	draw_card	0.0	columbia_card_task_fmri	2.0	0.9285714285714286	89.0	-25.0	0.0714285714285714	16.0	3.0	1.0	-25.179859543908314	0.745	n/a	stim	s497
249.533	0.839	1.0911821071882044	draw_card	0.0	columbia_card_task_fmri	2.0	0.9230769230769232	89.0	-25.0	0.0769230769230769	16.0	4.0	1.0	-24.941972328072524	0.839	n/a	stim	s497
250.376	1.029	0.9181051841112816	draw_card	0.0	columbia_card_task_fmri	2.0	0.9166666666666666	89.0	-25.0	0.0833333333333333	16.0	5.0	1.0	-24.6775776990528	1.029	n/a	stim	s497
251.408	0.798	0.7135597295658265	end_round	0.0	columbia_card_task_fmri	2.0	0.9090909090909092	71.0	-25.0	0.0909090909090909	16.0	6.0	1.0	-24.3814962378323	0.798	5.0	stim	s497
252.21	2.25	n/a	-1.0	n/a	columbia_card_task_fmri	n/a	n/a	-1.0	n/a	n/a	n/a	n/a	n/a	n/a	n/a	n/a	feedback	s497
254.46	0.136	n/a	-1.0	n/a	columbia_card_task_fmri	n/a	n/a	-1.0	n/a	n/a	n/a	n/a	n/a	n/a	n/a	n/a	ITI	s497
254.6	1.814	3.6681051841112815	draw_card	0.0	columbia_card_task_fmri	9.0	0.9375	89.0	-95.0	0.0625	16.0	1.0	1.0	-7.029375598516445	1.814	n/a	stim	s497
256.417	0.676	3.234771850777949	draw_card	0.0	columbia_card_task_fmri	9.0	0.9333333333333332	89.0	-95.0	0.0666666666666666	16.0	2.0	1.0	-6.262410255485772	0.676	n/a	stim	s497
257.097	0.862	2.7395337555398536	draw_card	0.0	columbia_card_task_fmri	9.0	0.9285714285714286	89.0	-95.0	0.0714285714285714	16.0	3.0	1.0	-5.421298398990007	0.862	n/a	stim	s497
257.962	0.64	2.168105184111281	draw_card	0.0	columbia_card_task_fmri	9.0	0.9230769230769232	89.0	-95.0	0.0769230769230769	16.0	4.0	1.0	-4.493433102629517	0.64	n/a	stim	s497
258.606	0.878	1.5014385174446152	draw_card	0.0	columbia_card_task_fmri	9.0	0.9166666666666666	89.0	-95.0	0.0833333333333333	16.0	5.0	1.0	-3.4630466095336274	0.878	n/a	stim	s497
259.486	0.863	0.7135597295658263	end_round	0.0	columbia_card_task_fmri	9.0	0.9090909090909092	71.0	-95.0	0.0909090909090909	16.0	6.0	1.0	-2.3101451286900136	0.863	5.0	stim	s497
260.354	2.25	n/a	-1.0	n/a	columbia_card_task_fmri	n/a	n/a	-1.0	n/a	n/a	n/a	n/a	n/a	n/a	n/a	n/a	feedback	s497
262.604	0.068	n/a	-1.0	n/a	columbia_card_task_fmri	n/a	n/a	-1.0	n/a	n/a	n/a	n/a	n/a	n/a	n/a	n/a	ITI	s497
262.675	1.636	5.2306051841112815	draw_card	0.0	columbia_card_task_fmri	11.0	0.9375	89.0	-100.0	0.0625	16.0	1.0	1.0	-5.336651830776724	1.636	n/a	stim	s497
264.314	0.745	4.768105184111282	draw_card	0.0	columbia_card_task_fmri	11.0	0.9333333333333332	89.0	-100.0	0.0666666666666666	16.0	2.0	1.0	-4.517959564464015	0.745	n/a	stim	s497
265.062	1.234	4.239533755539855	draw_card	0.0	columbia_card_task_fmri	11.0	0.9285714285714286	89.0	-100.0	0.0714285714285714	16.0	3.0	1.0	-3.620126934219318	1.234	n/a	stim	s497
266.3	0.64	3.629643645649744	draw_card	1.0	columbia_card_task_fmri	11.0	0.9230769230769232	89.0	-100.0	0.0769230769230769	16.0	4.0	1.0	-2.629698167670906	0.64	4.0	stim	s497
266.945	2.25	n/a	-1.0	n/a	columbia_card_task_fmri	n/a	n/a	-1.0	n/a	n/a	n/a	n/a	n/a	n/a	n/a	n/a	feedback	s497
269.195	0.068	n/a	-1.0	n/a	columbia_card_task_fmri	n/a	n/a	-1.0	n/a	n/a	n/a	n/a	n/a	n/a	n/a	n/a	ITI	s497
269.266	0.566	5.7931051841112815	draw_card	0.0	columbia_card_task_fmri	16.0	0.875	89.0	-75.0	0.125	16.0	1.0	2.0	-2.112771438441758	0.566	n/a	stim	s497
269.835	0.44	5.034771850777949	draw_card	0.0	columbia_card_task_fmri	16.0	0.8666666666666667	89.0	-75.0	0.1333333333333333	16.0	2.0	2.0	-1.2747547754503508	0.44	n/a	stim	s497
270.278	0.43	4.168105184111283	draw_card	0.0	columbia_card_task_fmri	16.0	0.8571428571428572	89.0	-75.0	0.1428571428571428	16.0	3.0	2.0	-0.3660689665578651	0.43	n/a	stim	s497
270.711	0.81	3.168105184111281	draw_card	0.0	columbia_card_task_fmri	16.0	0.8461538461538461	89.0	-75.0	0.1538461538461538	16.0	4.0	2.0	0.622829613106056	0.81	n/a	stim	s497
271.525	0.752	2.0014385174446154	draw_card	1.0	columbia_card_task_fmri	16.0	0.8333333333333334	89.0	-75.0	0.1666666666666666	16.0	5.0	2.0	1.7029553605841627	0.752	5.0	stim	s497
272.282	2.25	n/a	-1.0	n/a	columbia_card_task_fmri	n/a	n/a	-1.0	n/a	n/a	n/a	n/a	n/a	n/a	n/a	n/a	feedback	s497
274.532	0.068	n/a	-1.0	n/a	columbia_card_task_fmri	n/a	n/a	-1.0	n/a	n/a	n/a	n/a	n/a	n/a	n/a	n/a	ITI	s497
274.602	0.566	6.0431051841112815	draw_card	1.0	columbia_card_task_fmri	17.0	0.875	89.0	-80.0	0.125	16.0	1.0	2.0	-0.1298586783757684	0.566	1.0	stim	s497
275.173	2.25	n/a	-1.0	n/a	columbia_card_task_fmri	n/a	n/a	-1.0	n/a	n/a	n/a	n/a	n/a	n/a	n/a	n/a	feedback	s497
277.423	0.136	n/a	-1.0	n/a	columbia_card_task_fmri	n/a	n/a	-1.0	n/a	n/a	n/a	n/a	n/a	n/a	n/a	n/a	ITI	s497
288.566	1.033	0.3347718507779491	draw_card	0.0	columbia_card_task_fmri	13.0	0.8333333333333334	89.0	-70.0	0.1666666666666666	6.0	1.0	1.0	-1.2765315361328824	1.033	n/a	stim	s497
289.602	0.627	-2.431894815888718	draw_card	0.0	columbia_card_task_fmri	13.0	0.8	89.0	-70.0	0.2	6.0	2.0	1.0	0.9896897581795088	0.627	n/a	stim	s497
290.232	1.056	-6.581894815888719	end_round	0.0	columbia_card_task_fmri	13.0	0.75	71.0	-70.0	0.25	6.0	3.0	1.0	3.7281786949903406	1.056	2.0	stim	s497
291.293	2.25	n/a	-1.0	n/a	columbia_card_task_fmri	n/a	n/a	-1.0	n/a	n/a	n/a	n/a	n/a	n/a	n/a	n/a	feedback	s497
293.543	0.0	n/a	-1.0	n/a	columbia_card_task_fmri	n/a	n/a	-1.0	n/a	n/a	n/a	n/a	n/a	n/a	n/a	n/a	ITI	s497
293.547	0.825	0.3347718507779491	draw_card	0.0	columbia_card_task_fmri	15.0	0.8333333333333334	89.0	-80.0	0.1666666666666666	6.0	1.0	1.0	3.1928210443689764	0.825	n/a	stim	s497
294.374	0.355	-2.8318948158887185	draw_card	0.0	columbia_card_task_fmri	15.0	0.8	89.0	-80.0	0.2	6.0	2.0	1.0	5.787096180748591	0.355	n/a	stim	s497
294.733	1.326	-7.5818948158887185	draw_card	0.0	columbia_card_task_fmri	15.0	0.75	89.0	-80.0	0.25	6.0	3.0	1.0	8.921934986975856	1.326	n/a	stim	s497
296.063	0.754	-15.498561482555385	end_round	0.0	columbia_card_task_fmri	15.0	0.6666666666666667	71.0	-80.0	0.3333333333333333	6.0	4.0	1.0	12.567807847347453	0.754	3.0	stim	s497
296.822	2.25	n/a	-1.0	n/a	columbia_card_task_fmri	n/a	n/a	-1.0	n/a	n/a	n/a	n/a	n/a	n/a	n/a	n/a	feedback	s497
299.072	0.136	n/a	-1.0	n/a	columbia_card_task_fmri	n/a	n/a	-1.0	n/a	n/a	n/a	n/a	n/a	n/a	n/a	n/a	ITI	s497
299.211	0.67	2.0014385174446154	draw_card	0.0	columbia_card_task_fmri	16.0	0.8333333333333334	89.0	-75.0	0.1666666666666666	6.0	1.0	1.0	1.7029553605841627	0.67	n/a	stim	s497
299.884	0.569	-1.031894815888718	draw_card	0.0	columbia_card_task_fmri	16.0	0.8	89.0	-75.0	0.2	6.0	2.0	1.0	4.187884763995683	0.569	n/a	stim	s497
300.456	0.601	-5.581894815888719	draw_card	0.0	columbia_card_task_fmri	16.0	0.75	89.0	-75.0	0.25	6.0	3.0	1.0	7.190612720439432	0.601	n/a	stim	s497
301.061	1.444	-13.16522814922205	end_round	0.0	columbia_card_task_fmri	16.0	0.6666666666666667	71.0	-75.0	0.3333333333333333	6.0	4.0	1.0	10.682859037864668	1.444	3.0	stim	s497
302.51	2.25	n/a	-1.0	n/a	columbia_card_task_fmri	n/a	n/a	-1.0	n/a	n/a	n/a	n/a	n/a	n/a	n/a	n/a	feedback	s497
304.76	0.34	n/a	-1.0	n/a	columbia_card_task_fmri	n/a	n/a	-1.0	n/a	n/a	n/a	n/a	n/a	n/a	n/a	n/a	ITI	s497
305.104	0.707	3.168105184111281	draw_card	0.0	columbia_card_task_fmri	21.0	0.75	89.0	-55.0	0.25	8.0	1.0	2.0	0.6988366618096293	0.707	n/a	stim	s497
305.814	1.764	0.4538194698255677	end_round	0.0	columbia_card_task_fmri	21.0	0.7142857142857143	71.0	-55.0	0.2857142857142857	8.0	2.0	2.0	2.122312371764828	1.764	1.0	stim	s497
307.584	2.25	n/a	-1.0	n/a	columbia_card_task_fmri	n/a	n/a	-1.0	n/a	n/a	n/a	n/a	n/a	n/a	n/a	n/a	feedback	s497
309.834	0.408	n/a	-1.0	n/a	columbia_card_task_fmri	n/a	n/a	-1.0	n/a	n/a	n/a	n/a	n/a	n/a	n/a	n/a	ITI	s497
310.246	0.74	4.4181051841112815	draw_card	1.0	columbia_card_task_fmri	26.0	0.75	89.0	-65.0	0.25	8.0	1.0	2.0	7.190612720439432	0.74	1.0	stim	s497
310.99	2.25	n/a	-1.0	n/a	columbia_card_task_fmri	n/a	n/a	-1.0	n/a	n/a	n/a	n/a	n/a	n/a	n/a	n/a	feedback	s497
313.24	0.136	n/a	-1.0	n/a	columbia_card_task_fmri	n/a	n/a	-1.0	n/a	n/a	n/a	n/a	n/a	n/a	n/a	n/a	ITI	s497
313.38	0.619	-0.4985614825553848	draw_card	1.0	columbia_card_task_fmri	15.0	0.7777777777777778	89.0	-60.0	0.2222222222222222	9.0	1.0	2.0	-1.0285023851651791	0.619	1.0	stim	s497
314.004	2.25	n/a	-1.0	n/a	columbia_card_task_fmri	n/a	n/a	-1.0	n/a	n/a	n/a	n/a	n/a	n/a	n/a	n/a	feedback	s497
316.254	0.136	n/a	-1.0	n/a	columbia_card_task_fmri	n/a	n/a	-1.0	n/a	n/a	n/a	n/a	n/a	n/a	n/a	n/a	ITI	s497
316.393	0.731	3.8681051841112826	draw_card	0.0	columbia_card_task_fmri	13.0	0.9	89.0	-90.0	0.1	10.0	1.0	1.0	-1.3087822132433011	0.731	n/a	stim	s497
317.128	0.827	2.723660739666837	draw_card	0.0	columbia_card_task_fmri	13.0	0.8888888888888888	89.0	-90.0	0.1111111111111111	10.0	2.0	1.0	0.1599933998388323	0.827	n/a	stim	s497
317.959	0.558	1.2931051841112813	draw_card	0.0	columbia_card_task_fmri	13.0	0.875	89.0	-90.0	0.125	10.0	3.0	1.0	1.853217119708198	0.558	n/a	stim	s497
318.521	0.495	-0.5461805301744305	draw_card	0.0	columbia_card_task_fmri	13.0	0.8571428571428572	89.0	-90.0	0.1428571428571428	10.0	4.0	1.0	3.830562458973517	0.495	n/a	stim	s497
319.02	1.006	-2.998561482555385	draw_card	0.0	columbia_card_task_fmri	13.0	0.8333333333333334	89.0	-90.0	0.1666666666666666	10.0	5.0	1.0	6.172749461652991	1.006	n/a	stim	s497
320.03	1.069	-6.431894815888718	end_round	0.0	columbia_card_task_fmri	13.0	0.8	71.0	-90.0	0.2	10.0	6.0	1.0	8.985702643145736	1.069	5.0	stim	s497
321.103	2.25	n/a	-1.0	n/a	columbia_card_task_fmri	n/a	n/a	-1.0	n/a	n/a	n/a	n/a	n/a	n/a	n/a	n/a	feedback	s497
323.353	0.0	n/a	-1.0	n/a	columbia_card_task_fmri	n/a	n/a	-1.0	n/a	n/a	n/a	n/a	n/a	n/a	n/a	n/a	ITI	s497
323.357	1.272	5.1681051841112815	draw_card	1.0	columbia_card_task_fmri	15.0	0.9	89.0	-95.0	0.1	10.0	1.0	1.0	0.7898141828358689	1.272	1.0	stim	s497
324.634	2.25	n/a	-1.0	n/a	columbia_card_task_fmri	n/a	n/a	-1.0	n/a	n/a	n/a	n/a	n/a	n/a	n/a	n/a	feedback	s497
326.884	0.068	n/a	-1.0	n/a	columbia_card_task_fmri	n/a	n/a	-1.0	n/a	n/a	n/a	n/a	n/a	n/a	n/a	n/a	ITI	s497
326.955	0.495	0.968105184111282	end_round	0.0	columbia_card_task_fmri	16.0	0.8	71.0	-65.0	0.2	10.0	1.0	2.0	0.190196664598389	0.495	0.0	stim	s497
327.455	2.25	n/a	-1.0	n/a	columbia_card_task_fmri	n/a	n/a	-1.0	n/a	n/a	n/a	n/a	n/a	n/a	n/a	n/a	feedback	s497
329.705	0.0	n/a	-1.0	n/a	columbia_card_task_fmri	n/a	n/a	-1.0	n/a	n/a	n/a	n/a	n/a	n/a	n/a	n/a	ITI	s497
329.708	0.585	-0.3318948158887187	draw_card	1.0	columbia_card_task_fmri	7.0	0.9166666666666666	89.0	-95.0	0.0833333333333333	12.0	1.0	1.0	-4.015352606782315	0.585	1.0	stim	s497
330.298	2.25	n/a	-1.0	n/a	columbia_card_task_fmri	n/a	n/a	-1.0	n/a	n/a	n/a	n/a	n/a	n/a	n/a	n/a	feedback	s497
332.548	0.0	n/a	-1.0	n/a	columbia_card_task_fmri	n/a	n/a	-1.0	n/a	n/a	n/a	n/a	n/a	n/a	n/a	n/a	ITI	s497
332.551	2.112	0.3347718507779491	draw_card	0.0	columbia_card_task_fmri	14.0	0.8333333333333334	89.0	-75.0	0.1666666666666666	12.0	1.0	2.0	0.9580510199444774	2.112	n/a	stim	s497
334.667	0.592	-1.0137129977069022	draw_card	0.0	columbia_card_task_fmri	14.0	0.8181818181818181	89.0	-75.0	0.1818181818181818	12.0	2.0	2.0	2.1158359142142587	0.592	n/a	stim	s497
335.264	0.535	-2.631894815888717	draw_card	0.0	columbia_card_task_fmri	14.0	0.8	89.0	-75.0	0.2	12.0	3.0	2.0	3.3883056162423277	0.535	n/a	stim	s497
335.803	0.503	-4.6096725936664935	draw_card	0.0	columbia_card_task_fmri	14.0	0.7777777777777778	89.0	-75.0	0.2222222222222222	12.0	4.0	2.0	4.788414801548562	0.503	n/a	stim	s497
336.31	0.532	-7.081894815888719	draw_card	0.0	columbia_card_task_fmri	14.0	0.75	89.0	-75.0	0.25	12.0	5.0	2.0	6.324976128306567	0.532	n/a	stim	s497
336.845	0.814	-10.260466244460146	draw_card	0.0	columbia_card_task_fmri	14.0	0.7142857142857143	89.0	-75.0	0.2857142857142857	12.0	6.0	2.0	7.992213412020511	0.814	n/a	stim	s497
337.664	0.994	-14.498561482555385	end_round	0.0	columbia_card_task_fmri	14.0	0.6666666666666667	71.0	-75.0	0.3333333333333333	12.0	7.0	2.0	9.74040718017551	0.994	6.0	stim	s497
338.662	2.25	n/a	-1.0	n/a	columbia_card_task_fmri	n/a	n/a	-1.0	n/a	n/a	n/a	n/a	n/a	n/a	n/a	n/a	feedback	s497
340.912	0.136	n/a	-1.0	n/a	columbia_card_task_fmri	n/a	n/a	-1.0	n/a	n/a	n/a	n/a	n/a	n/a	n/a	n/a	ITI	s497
341.052	2.407	2.0014385174446154	draw_card	1.0	columbia_card_task_fmri	15.0	0.8333333333333334	89.0	-70.0	0.1666666666666666	12.0	1.0	2.0	-0.5316939612672336	2.407	1.0	stim	s497
343.464	2.25	n/a	-1.0	n/a	columbia_card_task_fmri	n/a	n/a	-1.0	n/a	n/a	n/a	n/a	n/a	n/a	n/a	n/a	feedback	s497
345.714	0.136	n/a	-1.0	n/a	columbia_card_task_fmri	n/a	n/a	-1.0	n/a	n/a	n/a	n/a	n/a	n/a	n/a	n/a	ITI	s497
345.854	1.782	-0.031894815888718	draw_card	0.0	columbia_card_task_fmri	16.0	0.8	89.0	-70.0	0.2	15.0	1.0	3.0	2.188973566072896	1.782	n/a	stim	s497
347.64	0.779	-1.2604662444601475	draw_card	0.0	columbia_card_task_fmri	16.0	0.7857142857142857	89.0	-70.0	0.2142857142857142	15.0	2.0	3.0	3.076502587308994	0.779	n/a	stim	s497
348.424	0.411	-2.678048662042565	draw_card	0.0	columbia_card_task_fmri	16.0	0.7692307692307692	89.0	-70.0	0.2307692307692307	15.0	3.0	3.0	4.021924392215588	0.411	n/a	stim	s497
348.84	0.408	-4.331894815888719	draw_card	0.0	columbia_card_task_fmri	16.0	0.75	89.0	-70.0	0.25	15.0	4.0	3.0	5.0265551238383	0.408	n/a	stim	s497
349.251	0.743	-6.286440270434172	draw_card	0.0	columbia_card_task_fmri	16.0	0.7272727272727273	89.0	-70.0	0.2727272727272727	15.0	5.0	3.0	6.088067475972203	0.743	n/a	stim	s497
349.998	0.643	-8.63189481588872	draw_card	0.0	columbia_card_task_fmri	16.0	0.7	89.0	-70.0	0.3	15.0	6.0	3.0	7.19660519281576	0.643	n/a	stim	s497
350.644	2.172	-11.498561482555385	draw_card	1.0	columbia_card_task_fmri	16.0	0.6666666666666667	89.0	-70.0	0.3333333333333333	15.0	7.0	3.0	8.326760524591592	2.172	7.0	stim	s497
352.82	2.25	n/a	-1.0	n/a	columbia_card_task_fmri	n/a	n/a	-1.0	n/a	n/a	n/a	n/a	n/a	n/a	n/a	n/a	feedback	s497
355.07	0.476	n/a	-1.0	n/a	columbia_card_task_fmri	n/a	n/a	-1.0	n/a	n/a	n/a	n/a	n/a	n/a	n/a	n/a	ITI	s497
355.55	0.954	0.3556051841112813	draw_card	1.0	columbia_card_task_fmri	14.0	0.8125	89.0	-65.0	0.1875	16.0	1.0	3.0	-1.374057873026146	0.954	1.0	stim	s497
356.51	2.25	n/a	-1.0	n/a	columbia_card_task_fmri	n/a	n/a	-1.0	n/a	n/a	n/a	n/a	n/a	n/a	n/a	n/a	feedback	s497
358.76	0.204	n/a	-1.0	n/a	columbia_card_task_fmri	n/a	n/a	-1.0	n/a	n/a	n/a	n/a	n/a	n/a	n/a	n/a	ITI	s497
358.967	1.609	0.1056051841112812	draw_card	0.0	columbia_card_task_fmri	16.0	0.8125	89.0	-75.0	0.1875	16.0	1.0	3.0	3.30677570958148	1.609	n/a	stim	s497
360.58	0.735	-1.031894815888718	draw_card	1.0	columbia_card_task_fmri	16.0	0.8	89.0	-75.0	0.2	16.0	2.0	3.0	4.187884763995683	0.735	2.0	stim	s497
361.319	2.25	n/a	-1.0	n/a	columbia_card_task_fmri	n/a	n/a	-1.0	n/a	n/a	n/a	n/a	n/a	n/a	n/a	n/a	feedback	s497
363.569	0.068	n/a	-1.0	n/a	columbia_card_task_fmri	n/a	n/a	-1.0	n/a	n/a	n/a	n/a	n/a	n/a	n/a	n/a	ITI	s497
363.642	0.663	4.368105184111283	end_round	0.0	columbia_card_task_fmri	16.0	0.8666666666666667	71.0	-80.0	0.1333333333333333	15.0	1.0	2.0	0.4237708884185807	0.663	0.0	stim	s497
364.31	2.25	n/a	-1.0	n/a	columbia_card_task_fmri	n/a	n/a	-1.0	n/a	n/a	n/a	n/a	n/a	n/a	n/a	n/a	feedback	s497
366.56	0.068	n/a	-1.0	n/a	columbia_card_task_fmri	n/a	n/a	-1.0	n/a	n/a	n/a	n/a	n/a	n/a	n/a	n/a	ITI	s497
366.632	0.646	5.23477185077795	draw_card	1.0	columbia_card_task_fmri	17.0	0.8666666666666667	89.0	-80.0	0.1333333333333333	15.0	1.0	2.0	0.7634902034739781	0.646	1.0	stim	s497
367.284	2.25	n/a	-1.0	n/a	columbia_card_task_fmri	n/a	n/a	-1.0	n/a	n/a	n/a	n/a	n/a	n/a	n/a	n/a	feedback	s497
369.534	0.34	n/a	-1.0	n/a	columbia_card_task_fmri	n/a	n/a	-1.0	n/a	n/a	n/a	n/a	n/a	n/a	n/a	n/a	ITI	s497
369.879	0.945	1.1681051841112813	draw_card	1.0	columbia_card_task_fmri	1.0	0.9375	89.0	-15.0	0.0625	16.0	1.0	1.0	-28.185550949820065	0.945	1.0	stim	s497
370.829	2.25	n/a	-1.0	n/a	columbia_card_task_fmri	n/a	n/a	-1.0	n/a	n/a	n/a	n/a	n/a	n/a	n/a	n/a	feedback	s497
373.079	0.476	n/a	-1.0	n/a	columbia_card_task_fmri	n/a	n/a	-1.0	n/a	n/a	n/a	n/a	n/a	n/a	n/a	n/a	ITI	s497
373.56	0.593	4.2931051841112815	end_round	0.0	columbia_card_task_fmri	10.0	0.9375	71.0	-100.0	0.0625	16.0	1.0	1.0	-5.578482789396606	0.593	0.0	stim	s497
374.158	2.25	n/a	-1.0	n/a	columbia_card_task_fmri	n/a	n/a	-1.0	n/a	n/a	n/a	n/a	n/a	n/a	n/a	n/a	feedback	s497
376.408	0.272	n/a	-1.0	n/a	columbia_card_task_fmri	n/a	n/a	-1.0	n/a	n/a	n/a	n/a	n/a	n/a	n/a	n/a	ITI	s497
376.685	0.859	4.9181051841112815	draw_card	0.0	columbia_card_task_fmri	15.0	0.875	89.0	-75.0	0.125	16.0	1.0	2.0	-2.443238761294051	0.859	n/a	stim	s497
377.549	0.768	4.1681051841112815	draw_card	1.0	columbia_card_task_fmri	15.0	0.8666666666666667	89.0	-75.0	0.1333333333333333	16.0	2.0	2.0	-1.614444624423463	0.768	2.0	stim	s497
378.322	2.25	n/a	-1.0	n/a	columbia_card_task_fmri	n/a	n/a	-1.0	n/a	n/a	n/a	n/a	n/a	n/a	n/a	n/a	feedback	s497
380.572	0.884	n/a	-1.0	n/a	columbia_card_task_fmri	n/a	n/a	-1.0	n/a	n/a	n/a	n/a	n/a	n/a	n/a	n/a	ITI	s497
381.46	0.48	5.1681051841112815	draw_card	0.0	columbia_card_task_fmri	16.0	0.875	89.0	-80.0	0.125	16.0	1.0	2.0	-0.4603562849305085	0.48	n/a	stim	s497
381.945	0.75	4.368105184111283	draw_card	0.0	columbia_card_task_fmri	16.0	0.8666666666666667	89.0	-80.0	0.1333333333333333	16.0	2.0	2.0	0.4237708884185807	0.75	n/a	stim	s497
382.699	0.425	3.4538194698255698	draw_card	1.0	columbia_card_task_fmri	16.0	0.8571428571428572	89.0	-80.0	0.1428571428571428	16.0	3.0	2.0	1.382451761136494	0.425	3.0	stim	s497
383.129	2.25	n/a	-1.0	n/a	columbia_card_task_fmri	n/a	n/a	-1.0	n/a	n/a	n/a	n/a	n/a	n/a	n/a	n/a	feedback	s497
385.379	0.136	n/a	-1.0	n/a	columbia_card_task_fmri	n/a	n/a	-1.0	n/a	n/a	n/a	n/a	n/a	n/a	n/a	n/a	ITI	s497
385.52	0.824	2.355605184111281	draw_card	0.0	columbia_card_task_fmri	4.0	0.6875	89.0	-5.0	0.3125	16.0	1.0	5.0	-27.898785092731544	0.824	n/a	stim	s497
386.349	2.455	2.168105184111281	draw_card	1.0	columbia_card_task_fmri	4.0	0.6666666666666667	89.0	-5.0	0.3333333333333333	16.0	2.0	5.0	-27.830345235488814	2.455	2.0	stim	s497
388.809	2.25	n/a	-1.0	n/a	columbia_card_task_fmri	n/a	n/a	-1.0	n/a	n/a	n/a	n/a	n/a	n/a	n/a	n/a	feedback	s497
391.059	0.136	n/a	-1.0	n/a	columbia_card_task_fmri	n/a	n/a	-1.0	n/a	n/a	n/a	n/a	n/a	n/a	n/a	n/a	ITI	s497
391.199	0.788	-0.498561482555383	draw_card	1.0	columbia_card_task_fmri	14.0	0.8333333333333334	89.0	-80.0	0.1666666666666666	6.0	1.0	1.0	2.8203478766864194	0.788	1.0	stim	s497
391.992	2.25	n/a	-1.0	n/a	columbia_card_task_fmri	n/a	n/a	-1.0	n/a	n/a	n/a	n/a	n/a	n/a	n/a	n/a	feedback	s497
394.242	0.068	n/a	-1.0	n/a	columbia_card_task_fmri	n/a	n/a	-1.0	n/a	n/a	n/a	n/a	n/a	n/a	n/a	n/a	ITI	s497
394.313	0.554	1.1681051841112813	end_round	0.0	columbia_card_task_fmri	15.0	0.8333333333333334	71.0	-75.0	0.1666666666666666	6.0	1.0	1.0	1.3305006833674329	0.554	0.0	stim	s497
394.872	2.25	n/a	-1.0	n/a	columbia_card_task_fmri	n/a	n/a	-1.0	n/a	n/a	n/a	n/a	n/a	n/a	n/a	n/a	feedback	s497
397.122	0.068	n/a	-1.0	n/a	columbia_card_task_fmri	n/a	n/a	-1.0	n/a	n/a	n/a	n/a	n/a	n/a	n/a	n/a	ITI	s497
397.193	0.51	2.8347718507779494	end_round	0.0	columbia_card_task_fmri	16.0	0.8333333333333334	71.0	-70.0	0.1666666666666666	6.0	1.0	1.0	-0.1592661408069844	0.51	0.0	stim	s497
397.709	2.25	n/a	-1.0	n/a	columbia_card_task_fmri	n/a	n/a	-1.0	n/a	n/a	n/a	n/a	n/a	n/a	n/a	n/a	feedback	s497
399.959	0.612	n/a	-1.0	n/a	columbia_card_task_fmri	n/a	n/a	-1.0	n/a	n/a	n/a	n/a	n/a	n/a	n/a	n/a	ITI	s497
400.576	0.653	3.418105184111281	draw_card	0.0	columbia_card_task_fmri	23.0	0.75	89.0	-60.0	0.25	8.0	1.0	2.0	3.7281786949903406	0.653	n/a	stim	s497
401.233	0.849	0.4538194698255695	draw_card	0.0	columbia_card_task_fmri	23.0	0.7142857142857143	89.0	-60.0	0.2857142857142857	8.0	2.0	2.0	5.2829155042043325	0.849	n/a	stim	s497
402.086	0.713	-3.498561482555383	draw_card	0.0	columbia_card_task_fmri	23.0	0.6666666666666667	89.0	-60.0	0.3333333333333333	8.0	3.0	2.0	6.913154823781568	0.713	n/a	stim	s497
402.804	0.664	-9.03189481588872	end_round	0.0	columbia_card_task_fmri	23.0	0.6	71.0	-60.0	0.4	8.0	4.0	2.0	8.447451527394364	0.664	3.0	stim	s497
403.472	2.25	n/a	-1.0	n/a	columbia_card_task_fmri	n/a	n/a	-1.0	n/a	n/a	n/a	n/a	n/a	n/a	n/a	n/a	feedback	s497
405.722	0.476	n/a	-1.0	n/a	columbia_card_task_fmri	n/a	n/a	-1.0	n/a	n/a	n/a	n/a	n/a	n/a	n/a	n/a	ITI	s497
406.203	2.211	3.9181051841112815	end_round	0.0	columbia_card_task_fmri	27.0	0.75	71.0	-70.0	0.25	8.0	1.0	2.0	9.787618639001586	2.211	0.0	stim	s497
408.42	2.25	n/a	-1.0	n/a	columbia_card_task_fmri	n/a	n/a	-1.0	n/a	n/a	n/a	n/a	n/a	n/a	n/a	n/a	feedback	s497
410.67	0.0	n/a	-1.0	n/a	columbia_card_task_fmri	n/a	n/a	-1.0	n/a	n/a	n/a	n/a	n/a	n/a	n/a	n/a	ITI	s497
410.675	1.047	-0.8318948158887169	draw_card	0.0	columbia_card_task_fmri	16.0	0.7777777777777778	89.0	-65.0	0.2222222222222222	9.0	1.0	2.0	1.4643166987201326	1.047	n/a	stim	s497
411.726	0.813	-3.0818948158887185	draw_card	1.0	columbia_card_task_fmri	16.0	0.75	89.0	-65.0	0.25	9.0	2.0	2.0	2.862621616582089	0.813	2.0	stim	s497
412.545	2.25	n/a	-1.0	n/a	columbia_card_task_fmri	n/a	n/a	-1.0	n/a	n/a	n/a	n/a	n/a	n/a	n/a	n/a	feedback	s497
414.795	0.068	n/a	-1.0	n/a	columbia_card_task_fmri	n/a	n/a	-1.0	n/a	n/a	n/a	n/a	n/a	n/a	n/a	n/a	ITI	s497
414.866	0.55	4.368105184111283	draw_card	0.0	columbia_card_task_fmri	13.0	0.9	89.0	-85.0	0.1	10.0	1.0	1.0	-2.8076570123442472	0.55	n/a	stim	s497
415.42	0.708	3.279216295222392	draw_card	0.0	columbia_card_task_fmri	13.0	0.8888888888888888	89.0	-85.0	0.1111111111111111	10.0	2.0	1.0	-1.4102807852612145	0.708	n/a	stim	s497
416.132	0.682	1.9181051841112813	draw_card	0.0	columbia_card_task_fmri	13.0	0.875	89.0	-85.0	0.125	10.0	3.0	1.0	0.2006434402147121	0.682	n/a	stim	s497
416.819	0.898	0.168105184111283	draw_card	0.0	columbia_card_task_fmri	13.0	0.8571428571428572	89.0	-85.0	0.1428571428571428	10.0	4.0	1.0	2.0818918751360016	0.898	n/a	stim	s497
417.722	0.714	-2.16522814922205	end_round	0.0	columbia_card_task_fmri	13.0	0.8333333333333334	71.0	-85.0	0.1666666666666666	10.0	5.0	1.0	4.310265608767189	0.714	4.0	stim	s497
418.442	2.25	n/a	-1.0	n/a	columbia_card_task_fmri	n/a	n/a	-1.0	n/a	n/a	n/a	n/a	n/a	n/a	n/a	n/a	feedback	s497
420.692	0.204	n/a	-1.0	n/a	columbia_card_task_fmri	n/a	n/a	-1.0	n/a	n/a	n/a	n/a	n/a	n/a	n/a	n/a	ITI	s497
420.9	1.257	-0.6318948158887177	end_round	0.0	columbia_card_task_fmri	14.0	0.8	71.0	-65.0	0.2	10.0	1.0	2.0	-0.6092707884680877	1.257	0.0	stim	s497
422.162	2.25	n/a	-1.0	n/a	columbia_card_task_fmri	n/a	n/a	-1.0	n/a	n/a	n/a	n/a	n/a	n/a	n/a	n/a	feedback	s497
424.412	0.272	n/a	-1.0	n/a	columbia_card_task_fmri	n/a	n/a	-1.0	n/a	n/a	n/a	n/a	n/a	n/a	n/a	n/a	ITI	s497
424.688	1.764	0.7681051841112827	draw_card	1.0	columbia_card_task_fmri	17.0	0.8	89.0	-70.0	0.2	10.0	1.0	2.0	2.58874580204494	1.764	1.0	stim	s497
426.458	2.25	n/a	-1.0	n/a	columbia_card_task_fmri	n/a	n/a	-1.0	n/a	n/a	n/a	n/a	n/a	n/a	n/a	n/a	feedback	s497
428.708	0.068	n/a	-1.0	n/a	columbia_card_task_fmri	n/a	n/a	-1.0	n/a	n/a	n/a	n/a	n/a	n/a	n/a	n/a	ITI	s497
428.781	0.725	-0.4985614825553848	end_round	0.0	columbia_card_task_fmri	13.0	0.8333333333333334	71.0	-75.0	0.1666666666666666	12.0	1.0	2.0	0.5856065410271043	0.725	0.0	stim	s497
429.512	2.25	n/a	-1.0	n/a	columbia_card_task_fmri	n/a	n/a	-1.0	n/a	n/a	n/a	n/a	n/a	n/a	n/a	n/a	feedback	s497
431.762	0.272	n/a	-1.0	n/a	columbia_card_task_fmri	n/a	n/a	-1.0	n/a	n/a	n/a	n/a	n/a	n/a	n/a	n/a	ITI	s497
432.038	0.571	1.168105184111283	draw_card	0.0	columbia_card_task_fmri	14.0	0.8333333333333334	89.0	-70.0	0.1666666666666666	12.0	1.0	2.0	-0.9041158313007857	0.571	n/a	stim	s497
432.614	1.034	-0.1046220886159938	draw_card	0.0	columbia_card_task_fmri	14.0	0.8181818181818181	89.0	-70.0	0.1818181818181818	12.0	2.0	2.0	0.1885448031172742	1.034	n/a	stim	s497
433.652	0.827	-1.6318948158887177	draw_card	1.0	columbia_card_task_fmri	14.0	0.8	89.0	-70.0	0.2	12.0	3.0	2.0	1.3894453485404128	0.827	3.0	stim	s497
434.485	2.25	n/a	-1.0	n/a	columbia_card_task_fmri	n/a	n/a	-1.0	n/a	n/a	n/a	n/a	n/a	n/a	n/a	n/a	feedback	s497
436.735	0.748	n/a	-1.0	n/a	columbia_card_task_fmri	n/a	n/a	-1.0	n/a	n/a	n/a	n/a	n/a	n/a	n/a	n/a	ITI	s497
437.488	2.919	1.168105184111283	draw_card	0.0	columbia_card_task_fmri	16.0	0.8333333333333334	89.0	-80.0	0.1666666666666666	12.0	1.0	2.0	3.565298475868936	2.919	n/a	stim	s497
440.412	1.304	-0.2864402704341755	draw_card	1.0	columbia_card_task_fmri	16.0	0.8181818181818181	89.0	-80.0	0.1818181818181818	12.0	2.0	2.0	4.814250141611197	1.304	2.0	stim	s497
441.721	2.25	n/a	-1.0	n/a	columbia_card_task_fmri	n/a	n/a	-1.0	n/a	n/a	n/a	n/a	n/a	n/a	n/a	n/a	feedback	s497
443.971	0.068	n/a	-1.0	n/a	columbia_card_task_fmri	n/a	n/a	-1.0	n/a	n/a	n/a	n/a	n/a	n/a	n/a	n/a	ITI	s497
444.044	1.168	0.968105184111282	draw_card	1.0	columbia_card_task_fmri	16.0	0.8	89.0	-65.0	0.2	15.0	1.0	3.0	0.190196664598389	1.168	1.0	stim	s497
445.218	2.25	n/a	-1.0	n/a	columbia_card_task_fmri	n/a	n/a	-1.0	n/a	n/a	n/a	n/a	n/a	n/a	n/a	n/a	feedback	s497
447.468	0.0	n/a	-1.0	n/a	columbia_card_task_fmri	n/a	n/a	-1.0	n/a	n/a	n/a	n/a	n/a	n/a	n/a	n/a	ITI	s497
447.472	0.458	-0.7068948158887187	draw_card	0.0	columbia_card_task_fmri	15.0	0.8125	89.0	-75.0	0.1875	16.0	1.0	3.0	2.916676581049387	0.458	n/a	stim	s497
447.936	0.547	-1.8318948158887187	draw_card	0.0	columbia_card_task_fmri	15.0	0.8	89.0	-75.0	0.2	16.0	2.0	3.0	3.7880928538955416	0.547	n/a	stim	s497
448.488	0.462	-3.117609101603003	draw_card	0.0	columbia_card_task_fmri	15.0	0.7857142857142857	89.0	-75.0	0.2142857142857142	16.0	3.0	3.0	4.716947616413329	0.462	n/a	stim	s497
448.955	0.453	-4.601125585119492	draw_card	0.0	columbia_card_task_fmri	15.0	0.7692307692307692	89.0	-75.0	0.2307692307692307	16.0	4.0	3.0	5.706388365392101	0.453	n/a	stim	s497
449.413	0.528	-6.331894815888719	draw_card	0.0	columbia_card_task_fmri	15.0	0.75	89.0	-75.0	0.25	16.0	5.0	3.0	6.757792265762667	0.528	n/a	stim	s497
449.945	0.655	-8.377349361343262	end_round	0.0	columbia_card_task_fmri	15.0	0.7272727272727273	71.0	-75.0	0.2727272727272727	16.0	6.0	3.0	7.868723426948918	0.655	5.0	stim	s497
450.606	2.25	n/a	-1.0	n/a	columbia_card_task_fmri	n/a	n/a	-1.0	n/a	n/a	n/a	n/a	n/a	n/a	n/a	n/a	feedback	s497
452.856	0.204	n/a	-1.0	n/a	columbia_card_task_fmri	n/a	n/a	-1.0	n/a	n/a	n/a	n/a	n/a	n/a	n/a	n/a	ITI	s497
453.064	0.667	-0.1443948158887187	draw_card	0.0	columbia_card_task_fmri	14.0	0.6875	89.0	-35.0	0.3125	16.0	1.0	5.0	-9.488726722930764	0.667	n/a	stim	s497
453.736	0.694	-1.1652281492220509	draw_card	1.0	columbia_card_task_fmri	14.0	0.6666666666666667	89.0	-35.0	0.3333333333333333	16.0	2.0	5.0	-9.102514985606271	0.694	2.0	stim	s497
454.435	2.25	n/a	-1.0	n/a	columbia_card_task_fmri	n/a	n/a	-1.0	n/a	n/a	n/a	n/a	n/a	n/a	n/a	n/a	feedback	s497
456.685	0.068	n/a	-1.0	n/a	columbia_card_task_fmri	n/a	n/a	-1.0	n/a	n/a	n/a	n/a	n/a	n/a	n/a	n/a	ITI	s497
456.757	0.905	5.034771850777949	draw_card	0.0	columbia_card_task_fmri	16.0	0.8666666666666667	89.0	-75.0	0.1333333333333333	15.0	1.0	2.0	-1.2747547754503508	0.905	n/a	stim	s497
457.666	1.383	4.168105184111283	draw_card	0.0	columbia_card_task_fmri	16.0	0.8571428571428572	89.0	-75.0	0.1428571428571428	15.0	2.0	2.0	-0.3660689665578651	1.383	n/a	stim	s497
459.055	0.874	3.168105184111281	end_round	0.0	columbia_card_task_fmri	16.0	0.8461538461538461	71.0	-75.0	0.1538461538461538	15.0	3.0	2.0	0.622829613106056	0.874	2.0	stim	s497
459.934	2.25	n/a	-1.0	n/a	columbia_card_task_fmri	n/a	n/a	-1.0	n/a	n/a	n/a	n/a	n/a	n/a	n/a	n/a	feedback	s497
462.184	0.068	n/a	-1.0	n/a	columbia_card_task_fmri	n/a	n/a	-1.0	n/a	n/a	n/a	n/a	n/a	n/a	n/a	n/a	ITI	s497
462.258	1.071	5.701438517444615	draw_card	0.0	columbia_card_task_fmri	16.0	0.8666666666666667	89.0	-70.0	0.1333333333333333	15.0	1.0	2.0	-2.9731471593227816	1.071	n/a	stim	s497
463.333	0.88	4.882390898396997	draw_card	0.0	columbia_card_task_fmri	16.0	0.8571428571428572	89.0	-70.0	0.1428571428571428	15.0	2.0	2.0	-2.1144602045416647	0.88	n/a	stim	s497
464.218	0.875	3.9373359533420498	draw_card	1.0	columbia_card_task_fmri	16.0	0.8461538461538461	89.0	-70.0	0.1538461538461538	15.0	3.0	2.0	-1.1799695807438937	0.875	3.0	stim	s497
465.098	2.25	n/a	-1.0	n/a	columbia_card_task_fmri	n/a	n/a	-1.0	n/a	n/a	n/a	n/a	n/a	n/a	n/a	n/a	feedback	s497
467.348	0.34	n/a	-1.0	n/a	columbia_card_task_fmri	n/a	n/a	-1.0	n/a	n/a	n/a	n/a	n/a	n/a	n/a	n/a	ITI	s497
467.694	1.311	3.043105184111281	draw_card	0.0	columbia_card_task_fmri	8.0	0.9375	89.0	-90.0	0.0625	16.0	1.0	1.0	-8.480087989334201	1.311	n/a	stim	s497
469.01	0.899	2.6347718507779483	draw_card	0.0	columbia_card_task_fmri	8.0	0.9333333333333332	89.0	-90.0	0.0666666666666666	16.0	2.0	1.0	-7.757465706296571	0.899	n/a	stim	s497
469.914	0.878	2.1681051841112824	draw_card	0.0	columbia_card_task_fmri	8.0	0.9285714285714286	89.0	-90.0	0.0714285714285714	16.0	3.0	1.0	-6.964977531279999	0.878	n/a	stim	s497
470.798	0.996	1.629643645649743	draw_card	0.0	columbia_card_task_fmri	8.0	0.9230769230769232	89.0	-90.0	0.0769230769230769	16.0	4.0	1.0	-6.090744136844446	0.996	n/a	stim	s497
471.799	1.045	1.0014385174446143	draw_card	0.0	columbia_card_task_fmri	8.0	0.9166666666666666	89.0	-90.0	0.0833333333333333	16.0	5.0	1.0	-5.119907763553428	1.045	n/a	stim	s497
472.848	1.581	0.2590142750203721	draw_card	0.0	columbia_card_task_fmri	8.0	0.9090909090909092	89.0	-90.0	0.0909090909090909	16.0	6.0	1.0	-4.033628478624731	1.581	n/a	stim	s497
474.434	2.584	-0.6318948158887185	draw_card	0.0	columbia_card_task_fmri	8.0	0.9	89.0	-90.0	0.1	16.0	7.0	1.0	-2.8076570123442472	2.584	n/a	stim	s497
477.023	1.314	-1.720783704777608	end_round	0.0	columbia_card_task_fmri	8.0	0.8888888888888888	71.0	-90.0	0.1111111111111111	16.0	8.0	1.0	-1.4102807852612145	1.314	7.0	stim	s497
478.344	2.25	n/a	-1.0	n/a	columbia_card_task_fmri	n/a	n/a	-1.0	n/a	n/a	n/a	n/a	n/a	n/a	n/a	n/a	feedback	s497
480.594	0.0	n/a	-1.0	n/a	columbia_card_task_fmri	n/a	n/a	-1.0	n/a	n/a	n/a	n/a	n/a	n/a	n/a	n/a	ITI	s497
480.598	2.244	4.6056051841112815	draw_card	0.0	columbia_card_task_fmri	10.0	0.9375	89.0	-95.0	0.0625	16.0	1.0	1.0	-6.787571825884804	2.244	n/a	stim	s497
482.847	4.901	4.168105184111282	draw_card	0.0	columbia_card_task_fmri	10.0	0.9333333333333332	89.0	-95.0	0.0666666666666666	16.0	2.0	1.0	-6.013216513175912	4.901	n/a	stim	s497
487.752	0.782	3.6681051841112815	end_round	0.0	columbia_card_task_fmri	10.0	0.9285714285714286	71.0	-95.0	0.0714285714285714	16.0	3.0	1.0	-5.164001267002028	0.782	2.0	stim	s497
488.541	2.25	n/a	-1.0	n/a	columbia_card_task_fmri	n/a	n/a	-1.0	n/a	n/a	n/a	n/a	n/a	n/a	n/a	n/a	feedback	s497
490.791	0.0	n/a	-1.0	n/a	columbia_card_task_fmri	n/a	n/a	-1.0	n/a	n/a	n/a	n/a	n/a	n/a	n/a	n/a	ITI	s497
490.796	1.421	5.5431051841112815	draw_card	0.0	columbia_card_task_fmri	15.0	0.875	89.0	-70.0	0.125	16.0	1.0	2.0	-4.095486688889931	1.421	n/a	stim	s497
492.221	0.843	4.834771850777948	draw_card	0.0	columbia_card_task_fmri	15.0	0.8666666666666667	89.0	-70.0	0.1333333333333333	16.0	2.0	2.0	-3.3128075759528777	0.843	n/a	stim	s497
493.068	0.777	4.025248041254139	end_round	0.0	columbia_card_task_fmri	15.0	0.8571428571428572	71.0	-70.0	0.1428571428571428	16.0	3.0	2.0	-2.464120905422224	0.777	2.0	stim	s497
493.852	2.25	n/a	-1.0	n/a	columbia_card_task_fmri	n/a	n/a	-1.0	n/a	n/a	n/a	n/a	n/a	n/a	n/a	n/a	feedback	s497
496.102	0.272	n/a	-1.0	n/a	columbia_card_task_fmri	n/a	n/a	-1.0	n/a	n/a	n/a	n/a	n/a	n/a	n/a	n/a	ITI	s497
496.379	0.968	4.5431051841112815	draw_card	0.0	columbia_card_task_fmri	16.0	0.875	89.0	-85.0	0.125	16.0	1.0	2.0	1.1921755296796237	0.968	n/a	stim	s497
497.351	0.653	3.701438517444615	draw_card	0.0	columbia_card_task_fmri	16.0	0.8666666666666667	89.0	-85.0	0.1333333333333333	16.0	2.0	2.0	2.1224100630328597	0.653	n/a	stim	s497
498.009	0.958	2.7395337555398545	end_round	0.0	columbia_card_task_fmri	16.0	0.8571428571428572	71.0	-85.0	0.1428571428571428	16.0	3.0	2.0	3.1310827701432515	0.958	2.0	stim	s497
498.973	2.25	n/a	-1.0	n/a	columbia_card_task_fmri	n/a	n/a	-1.0	n/a	n/a	n/a	n/a	n/a	n/a	n/a	n/a	feedback	s497
501.223	0.204	n/a	-1.0	n/a	columbia_card_task_fmri	n/a	n/a	-1.0	n/a	n/a	n/a	n/a	n/a	n/a	n/a	n/a	ITI	s497
