onset	duration	planning	condition	current_position	exp_stage	experiment_exp_id	goal_state	key_press	problem_id	response_time	start_state	trial_id	worker_id
-59.742	0.0	0	n/a	n/a	n/a	ward_and_allport	n/a	32.0	n/a	25.36	n/a	instructions	s595
3.013	5.112	1	UA_with_intermediate	1,0,0,2,0,0,0,0,0	practice	ward_and_allport	1,2,3,0,0,0,0,0,0	71.0	0.0	5.112	1,0,0,2,3,0,0,0,0	to_hand	s595
8.127	0.604	0	UA_with_intermediate	1,0,0,2,0,0,3,0,0	practice	ward_and_allport	1,2,3,0,0,0,0,0,0	82.0	0.0	0.604	1,0,0,2,3,0,0,0,0	to_board	s595
8.734	0.902	0	UA_with_intermediate	1,0,0,0,0,0,3,0,0	practice	ward_and_allport	1,2,3,0,0,0,0,0,0	71.0	0.0	0.902	1,0,0,2,3,0,0,0,0	to_hand	s595
9.638	0.447	0	UA_with_intermediate	1,2,0,0,0,0,3,0,0	practice	ward_and_allport	1,2,3,0,0,0,0,0,0	89.0	0.0	0.447	1,0,0,2,3,0,0,0,0	to_board	s595
10.087	0.437	0	UA_with_intermediate	1,2,0,0,0,0,0,0,0	practice	ward_and_allport	1,2,3,0,0,0,0,0,0	82.0	0.0	0.437	1,0,0,2,3,0,0,0,0	to_hand	s595
10.525	0.454	0	UA_with_intermediate	1,2,3,0,0,0,0,0,0	practice	ward_and_allport	1,2,3,0,0,0,0,0,0	89.0	0.0	0.454	1,0,0,2,3,0,0,0,0	to_board	s595
10.986	1.0	0	UA_with_intermediate	n/a	practice	ward_and_allport	n/a	-1.0	0.0	n/a	n/a	feedback	s595
13.489	3.823	1	UA_with_intermediate	1,0,0,3,0,0,0,0,0	practice	ward_and_allport	1,3,2,0,0,0,0,0,0	89.0	1.0	3.823	1,2,0,3,0,0,0,0,0	to_hand	s595
17.312	0.435	0	UA_with_intermediate	1,0,0,3,0,0,2,0,0	practice	ward_and_allport	1,3,2,0,0,0,0,0,0	82.0	1.0	0.435	1,2,0,3,0,0,0,0,0	to_board	s595
17.749	0.406	0	UA_with_intermediate	1,0,0,0,0,0,2,0,0	practice	ward_and_allport	1,3,2,0,0,0,0,0,0	71.0	1.0	0.406	1,2,0,3,0,0,0,0,0	to_hand	s595
18.156	0.347	0	UA_with_intermediate	1,3,0,0,0,0,2,0,0	practice	ward_and_allport	1,3,2,0,0,0,0,0,0	89.0	1.0	0.347	1,2,0,3,0,0,0,0,0	to_board	s595
18.505	0.437	0	UA_with_intermediate	1,3,0,0,0,0,0,0,0	practice	ward_and_allport	1,3,2,0,0,0,0,0,0	82.0	1.0	0.437	1,2,0,3,0,0,0,0,0	to_hand	s595
18.943	0.331	0	UA_with_intermediate	1,3,2,0,0,0,0,0,0	practice	ward_and_allport	1,3,2,0,0,0,0,0,0	89.0	1.0	0.331	1,2,0,3,0,0,0,0,0	to_board	s595
19.28	1.0	0	UA_with_intermediate	n/a	practice	ward_and_allport	n/a	-1.0	1.0	n/a	n/a	feedback	s595
20.28	1.1	0	UA_with_intermediate	n/a	practice	ward_and_allport	n/a	-1.0	1.0	n/a	n/a	ITI	s595
21.382	2.685	1	UA_without_intermediate	0,0,0,1,2,0,0,0,0	practice	ward_and_allport	3,2,1,0,0,0,0,0,0	82.0	2.0	2.685	0,0,0,1,2,0,3,0,0	to_hand	s595
24.068	0.362	0	UA_without_intermediate	3,0,0,1,2,0,0,0,0	practice	ward_and_allport	3,2,1,0,0,0,0,0,0	89.0	2.0	0.362	0,0,0,1,2,0,3,0,0	to_board	s595
24.432	0.888	0	UA_without_intermediate	3,0,0,1,0,0,0,0,0	practice	ward_and_allport	3,2,1,0,0,0,0,0,0	71.0	2.0	0.888	0,0,0,1,2,0,3,0,0	to_hand	s595
25.321	0.31	0	UA_without_intermediate	3,2,0,1,0,0,0,0,0	practice	ward_and_allport	3,2,1,0,0,0,0,0,0	89.0	2.0	0.31	0,0,0,1,2,0,3,0,0	to_board	s595
25.634	0.488	0	UA_without_intermediate	3,2,0,0,0,0,0,0,0	practice	ward_and_allport	3,2,1,0,0,0,0,0,0	71.0	2.0	0.488	0,0,0,1,2,0,3,0,0	to_hand	s595
26.124	0.297	0	UA_without_intermediate	3,2,1,0,0,0,0,0,0	practice	ward_and_allport	3,2,1,0,0,0,0,0,0	89.0	2.0	0.297	0,0,0,1,2,0,3,0,0	to_board	s595
26.428	1.0	0	UA_without_intermediate	n/a	practice	ward_and_allport	n/a	-1.0	2.0	n/a	n/a	feedback	s595
27.428	1.2	0	UA_without_intermediate	n/a	practice	ward_and_allport	n/a	-1.0	2.0	n/a	n/a	ITI	s595
28.63	4.126	1	UA_without_intermediate	0,0,0,1,0,0,3,0,0	practice	ward_and_allport	2,3,1,0,0,0,0,0,0	71.0	3.0	4.126	0,0,0,1,2,0,3,0,0	to_hand	s595
32.758	0.311	0	UA_without_intermediate	2,0,0,1,0,0,3,0,0	practice	ward_and_allport	2,3,1,0,0,0,0,0,0	89.0	3.0	0.311	0,0,0,1,2,0,3,0,0	to_board	s595
33.071	0.492	0	UA_without_intermediate	2,0,0,1,0,0,0,0,0	practice	ward_and_allport	2,3,1,0,0,0,0,0,0	82.0	3.0	0.492	0,0,0,1,2,0,3,0,0	to_hand	s595
33.564	0.482	0	UA_without_intermediate	2,3,0,1,0,0,0,0,0	practice	ward_and_allport	2,3,1,0,0,0,0,0,0	89.0	3.0	0.482	0,0,0,1,2,0,3,0,0	to_board	s595
34.048	0.38	0	UA_without_intermediate	2,3,0,0,0,0,0,0,0	practice	ward_and_allport	2,3,1,0,0,0,0,0,0	71.0	3.0	0.38	0,0,0,1,2,0,3,0,0	to_hand	s595
34.429	0.368	0	UA_without_intermediate	2,3,1,0,0,0,0,0,0	practice	ward_and_allport	2,3,1,0,0,0,0,0,0	89.0	3.0	0.368	0,0,0,1,2,0,3,0,0	to_board	s595
34.804	1.0	0	UA_without_intermediate	n/a	practice	ward_and_allport	n/a	-1.0	3.0	n/a	n/a	feedback	s595
35.804	1.0	0	UA_without_intermediate	n/a	practice	ward_and_allport	n/a	-1.0	3.0	n/a	n/a	ITI	s595
38.81	5.155	1	PA_with_intermediate	0,0,0,1,2,0,0,0,0	test	ward_and_allport	0,0,0,1,0,0,2,3,0	71.0	0.0	5.155	0,0,0,1,2,3,0,0,0	to_hand	s595
43.966	0.298	0	PA_with_intermediate	3,0,0,1,2,0,0,0,0	test	ward_and_allport	0,0,0,1,0,0,2,3,0	89.0	0.0	0.298	0,0,0,1,2,3,0,0,0	to_board	s595
44.266	0.619	0	PA_with_intermediate	3,0,0,1,0,0,0,0,0	test	ward_and_allport	0,0,0,1,0,0,2,3,0	71.0	0.0	0.619	0,0,0,1,2,3,0,0,0	to_hand	s595
44.887	0.287	0	PA_with_intermediate	3,0,0,1,0,0,2,0,0	test	ward_and_allport	0,0,0,1,0,0,2,3,0	82.0	0.0	0.287	0,0,0,1,2,3,0,0,0	to_board	s595
45.176	0.401	0	PA_with_intermediate	0,0,0,1,0,0,2,0,0	test	ward_and_allport	0,0,0,1,0,0,2,3,0	89.0	0.0	0.401	0,0,0,1,2,3,0,0,0	to_hand	s595
45.578	0.401	0	PA_with_intermediate	0,0,0,1,0,0,2,3,0	test	ward_and_allport	0,0,0,1,0,0,2,3,0	82.0	0.0	0.401	0,0,0,1,2,3,0,0,0	to_board	s595
45.986	1.0	0	PA_with_intermediate	n/a	test	ward_and_allport	n/a	-1.0	0.0	n/a	n/a	feedback	s595
46.986	2.768	0	PA_with_intermediate	n/a	test	ward_and_allport	n/a	-1.0	0.0	n/a	n/a	ITI	s595
49.757	4.274	1	PA_with_intermediate	0,0,0,1,2,0,0,0,0	test	ward_and_allport	2,0,0,1,3,0,0,0,0	71.0	1.0	4.274	0,0,0,1,2,3,0,0,0	to_hand	s595
54.033	0.357	0	PA_with_intermediate	0,0,0,1,2,0,3,0,0	test	ward_and_allport	2,0,0,1,3,0,0,0,0	82.0	1.0	0.357	0,0,0,1,2,3,0,0,0	to_board	s595
54.393	0.382	0	PA_with_intermediate	0,0,0,1,0,0,3,0,0	test	ward_and_allport	2,0,0,1,3,0,0,0,0	71.0	1.0	0.382	0,0,0,1,2,3,0,0,0	to_hand	s595
54.776	0.331	0	PA_with_intermediate	2,0,0,1,0,0,3,0,0	test	ward_and_allport	2,0,0,1,3,0,0,0,0	89.0	1.0	0.331	0,0,0,1,2,3,0,0,0	to_board	s595
55.11	0.425	0	PA_with_intermediate	2,0,0,1,0,0,0,0,0	test	ward_and_allport	2,0,0,1,3,0,0,0,0	82.0	1.0	0.425	0,0,0,1,2,3,0,0,0	to_hand	s595
55.537	0.395	0	PA_with_intermediate	2,0,0,1,3,0,0,0,0	test	ward_and_allport	2,0,0,1,3,0,0,0,0	71.0	1.0	0.395	0,0,0,1,2,3,0,0,0	to_board	s595
55.938	1.0	0	PA_with_intermediate	n/a	test	ward_and_allport	n/a	-1.0	1.0	n/a	n/a	feedback	s595
56.938	1.68	0	PA_with_intermediate	n/a	test	ward_and_allport	n/a	-1.0	1.0	n/a	n/a	ITI	s595
58.621	4.084	1	PA_without_intermediate	0,0,0,1,2,0,0,0,0	test	ward_and_allport	2,0,0,0,0,0,3,1,0	71.0	2.0	4.084	0,0,0,1,2,3,0,0,0	to_hand	s595
62.707	0.318	0	PA_without_intermediate	0,0,0,1,2,0,3,0,0	test	ward_and_allport	2,0,0,0,0,0,3,1,0	82.0	2.0	0.318	0,0,0,1,2,3,0,0,0	to_board	s595
63.029	0.356	0	PA_without_intermediate	0,0,0,1,0,0,3,0,0	test	ward_and_allport	2,0,0,0,0,0,3,1,0	71.0	2.0	0.356	0,0,0,1,2,3,0,0,0	to_hand	s595
63.385	0.325	0	PA_without_intermediate	2,0,0,1,0,0,3,0,0	test	ward_and_allport	2,0,0,0,0,0,3,1,0	89.0	2.0	0.325	0,0,0,1,2,3,0,0,0	to_board	s595
63.714	0.411	0	PA_without_intermediate	2,0,0,0,0,0,3,0,0	test	ward_and_allport	2,0,0,0,0,0,3,1,0	71.0	2.0	0.411	0,0,0,1,2,3,0,0,0	to_hand	s595
64.126	0.392	0	PA_without_intermediate	2,0,0,0,0,0,3,1,0	test	ward_and_allport	2,0,0,0,0,0,3,1,0	82.0	2.0	0.392	0,0,0,1,2,3,0,0,0	to_board	s595
64.526	1.0	0	PA_without_intermediate	n/a	test	ward_and_allport	n/a	-1.0	2.0	n/a	n/a	feedback	s595
65.526	2.224	0	PA_without_intermediate	n/a	test	ward_and_allport	n/a	-1.0	2.0	n/a	n/a	ITI	s595
67.752	5.284	1	PA_without_intermediate	1,2,0,0,0,0,0,0,0	test	ward_and_allport	0,0,0,3,1,0,2,0,0	89.0	3.0	5.284	1,2,3,0,0,0,0,0,0	to_hand	s595
73.036	0.337	0	PA_without_intermediate	1,2,0,3,0,0,0,0,0	test	ward_and_allport	0,0,0,3,1,0,2,0,0	71.0	3.0	0.337	1,2,3,0,0,0,0,0,0	to_board	s595
73.376	1.215	0	PA_without_intermediate	1,0,0,3,0,0,0,0,0	test	ward_and_allport	0,0,0,3,1,0,2,0,0	89.0	3.0	1.215	1,2,3,0,0,0,0,0,0	to_hand	s595
74.592	0.388	0	PA_without_intermediate	1,0,0,3,0,0,2,0,0	test	ward_and_allport	0,0,0,3,1,0,2,0,0	82.0	3.0	0.388	1,2,3,0,0,0,0,0,0	to_board	s595
74.983	0.755	0	PA_without_intermediate	0,0,0,3,0,0,2,0,0	test	ward_and_allport	0,0,0,3,1,0,2,0,0	89.0	3.0	0.755	1,2,3,0,0,0,0,0,0	to_hand	s595
75.739	0.391	0	PA_without_intermediate	0,0,0,3,1,0,2,0,0	test	ward_and_allport	0,0,0,3,1,0,2,0,0	71.0	3.0	0.391	1,2,3,0,0,0,0,0,0	to_board	s595
76.134	1.0	0	PA_without_intermediate	n/a	test	ward_and_allport	n/a	-1.0	3.0	n/a	n/a	feedback	s595
77.134	2.36	0	PA_without_intermediate	n/a	test	ward_and_allport	n/a	-1.0	3.0	n/a	n/a	ITI	s595
79.497	3.905	1	PA_without_intermediate	1,2,0,0,0,0,0,0,0	test	ward_and_allport	0,0,0,1,0,0,3,2,0	89.0	4.0	3.905	1,2,3,0,0,0,0,0,0	to_hand	s595
83.404	0.334	0	PA_without_intermediate	1,2,0,0,0,0,3,0,0	test	ward_and_allport	0,0,0,1,0,0,3,2,0	82.0	4.0	0.334	1,2,3,0,0,0,0,0,0	to_board	s595
83.741	0.563	0	PA_without_intermediate	1,0,0,0,0,0,3,0,0	test	ward_and_allport	0,0,0,1,0,0,3,2,0	89.0	4.0	0.563	1,2,3,0,0,0,0,0,0	to_hand	s595
84.306	0.71	0	PA_without_intermediate	1,0,0,0,0,0,3,2,0	test	ward_and_allport	0,0,0,1,0,0,3,2,0	82.0	4.0	0.71	1,2,3,0,0,0,0,0,0	to_board	s595
85.019	0.786	0	PA_without_intermediate	0,0,0,0,0,0,3,2,0	test	ward_and_allport	0,0,0,1,0,0,3,2,0	89.0	4.0	0.786	1,2,3,0,0,0,0,0,0	to_hand	s595
85.807	0.435	0	PA_without_intermediate	0,0,0,1,0,0,3,2,0	test	ward_and_allport	0,0,0,1,0,0,3,2,0	71.0	4.0	0.435	1,2,3,0,0,0,0,0,0	to_board	s595
86.246	1.0	0	PA_without_intermediate	n/a	test	ward_and_allport	n/a	-1.0	4.0	n/a	n/a	feedback	s595
87.246	1.0	0	PA_without_intermediate	n/a	test	ward_and_allport	n/a	-1.0	4.0	n/a	n/a	ITI	s595
88.25	2.16	1	PA_without_intermediate	0,0,0,0,0,0,1,2,0	test	ward_and_allport	3,2,0,1,0,0,0,0,0	82.0	5.0	2.16	0,0,0,0,0,0,1,2,3	to_hand	s595
90.411	0.365	0	PA_without_intermediate	3,0,0,0,0,0,1,2,0	test	ward_and_allport	3,2,0,1,0,0,0,0,0	89.0	5.0	0.365	0,0,0,0,0,0,1,2,3	to_board	s595
90.78	0.958	0	PA_without_intermediate	3,0,0,0,0,0,1,0,0	test	ward_and_allport	3,2,0,1,0,0,0,0,0	82.0	5.0	0.958	0,0,0,0,0,0,1,2,3	to_hand	s595
91.739	0.417	0	PA_without_intermediate	3,2,0,0,0,0,1,0,0	test	ward_and_allport	3,2,0,1,0,0,0,0,0	89.0	5.0	0.417	0,0,0,0,0,0,1,2,3	to_board	s595
92.159	0.805	0	PA_without_intermediate	3,2,0,0,0,0,0,0,0	test	ward_and_allport	3,2,0,1,0,0,0,0,0	82.0	5.0	0.805	0,0,0,0,0,0,1,2,3	to_hand	s595
92.965	0.347	0	PA_without_intermediate	3,2,0,1,0,0,0,0,0	test	ward_and_allport	3,2,0,1,0,0,0,0,0	71.0	5.0	0.347	0,0,0,0,0,0,1,2,3	to_board	s595
93.317	1.0	0	PA_without_intermediate	n/a	test	ward_and_allport	n/a	-1.0	5.0	n/a	n/a	feedback	s595
94.317	1.408	0	PA_without_intermediate	n/a	test	ward_and_allport	n/a	-1.0	5.0	n/a	n/a	ITI	s595
95.728	3.679	1	PA_with_intermediate	0,0,0,1,2,0,0,0,0	test	ward_and_allport	0,0,0,1,3,0,2,0,0	71.0	6.0	3.679	0,0,0,1,2,3,0,0,0	to_hand	s595
99.408	0.405	0	PA_with_intermediate	3,0,0,1,2,0,0,0,0	test	ward_and_allport	0,0,0,1,3,0,2,0,0	89.0	6.0	0.405	0,0,0,1,2,3,0,0,0	to_board	s595
99.817	0.677	0	PA_with_intermediate	3,0,0,1,0,0,0,0,0	test	ward_and_allport	0,0,0,1,3,0,2,0,0	71.0	6.0	0.677	0,0,0,1,2,3,0,0,0	to_hand	s595
100.495	0.322	0	PA_with_intermediate	3,0,0,1,0,0,2,0,0	test	ward_and_allport	0,0,0,1,3,0,2,0,0	82.0	6.0	0.322	0,0,0,1,2,3,0,0,0	to_board	s595
100.82	2.191	0	PA_with_intermediate	0,0,0,1,0,0,2,0,0	test	ward_and_allport	0,0,0,1,3,0,2,0,0	89.0	6.0	2.191	0,0,0,1,2,3,0,0,0	to_hand	s595
103.013	0.431	0	PA_with_intermediate	0,0,0,1,3,0,2,0,0	test	ward_and_allport	0,0,0,1,3,0,2,0,0	71.0	6.0	0.431	0,0,0,1,2,3,0,0,0	to_board	s595
103.449	1.0	0	PA_with_intermediate	n/a	test	ward_and_allport	n/a	-1.0	6.0	n/a	n/a	feedback	s595
104.449	1.136	0	PA_with_intermediate	n/a	test	ward_and_allport	n/a	-1.0	6.0	n/a	n/a	ITI	s595
105.589	4.694	1	PA_without_intermediate	0,0,0,0,0,0,1,2,0	test	ward_and_allport	2,0,0,3,1,0,0,0,0	82.0	7.0	4.694	0,0,0,0,0,0,1,2,3	to_hand	s595
110.285	0.584	0	PA_without_intermediate	0,0,0,3,0,0,1,2,0	test	ward_and_allport	2,0,0,3,1,0,0,0,0	71.0	7.0	0.584	0,0,0,0,0,0,1,2,3	to_board	s595
110.873	1.511	0	PA_without_intermediate	0,0,0,3,0,0,1,0,0	test	ward_and_allport	2,0,0,3,1,0,0,0,0	82.0	7.0	1.511	0,0,0,0,0,0,1,2,3	to_hand	s595
112.386	0.426	0	PA_without_intermediate	2,0,0,3,0,0,1,0,0	test	ward_and_allport	2,0,0,3,1,0,0,0,0	89.0	7.0	0.426	0,0,0,0,0,0,1,2,3	to_board	s595
112.816	1.232	0	PA_without_intermediate	2,0,0,3,0,0,0,0,0	test	ward_and_allport	2,0,0,3,1,0,0,0,0	82.0	7.0	1.232	0,0,0,0,0,0,1,2,3	to_hand	s595
114.049	0.419	0	PA_without_intermediate	2,0,0,3,1,0,0,0,0	test	ward_and_allport	2,0,0,3,1,0,0,0,0	71.0	7.0	0.419	0,0,0,0,0,0,1,2,3	to_board	s595
114.474	1.0	0	PA_without_intermediate	n/a	test	ward_and_allport	n/a	-1.0	7.0	n/a	n/a	feedback	s595
115.474	4.128	0	PA_without_intermediate	n/a	test	ward_and_allport	n/a	-1.0	7.0	n/a	n/a	ITI	s595
119.606	3.699	1	PA_without_intermediate	1,2,0,0,0,0,0,0,0	test	ward_and_allport	0,0,0,2,0,0,3,1,0	89.0	8.0	3.699	1,2,3,0,0,0,0,0,0	to_hand	s595
123.306	0.438	0	PA_without_intermediate	1,2,0,0,0,0,3,0,0	test	ward_and_allport	0,0,0,2,0,0,3,1,0	82.0	8.0	0.438	1,2,3,0,0,0,0,0,0	to_board	s595
123.748	1.077	0	PA_without_intermediate	1,0,0,0,0,0,3,0,0	test	ward_and_allport	0,0,0,2,0,0,3,1,0	89.0	8.0	1.077	1,2,3,0,0,0,0,0,0	to_hand	s595
124.826	0.314	0	PA_without_intermediate	1,0,0,2,0,0,3,0,0	test	ward_and_allport	0,0,0,2,0,0,3,1,0	71.0	8.0	0.314	1,2,3,0,0,0,0,0,0	to_board	s595
125.144	0.612	0	PA_without_intermediate	0,0,0,2,0,0,3,0,0	test	ward_and_allport	0,0,0,2,0,0,3,1,0	89.0	8.0	0.612	1,2,3,0,0,0,0,0,0	to_hand	s595
125.758	0.392	0	PA_without_intermediate	0,0,0,2,0,0,3,1,0	test	ward_and_allport	0,0,0,2,0,0,3,1,0	82.0	8.0	0.392	1,2,3,0,0,0,0,0,0	to_board	s595
126.155	1.0	0	PA_without_intermediate	n/a	test	ward_and_allport	n/a	-1.0	8.0	n/a	n/a	feedback	s595
127.155	1.136	0	PA_without_intermediate	n/a	test	ward_and_allport	n/a	-1.0	8.0	n/a	n/a	ITI	s595
128.295	2.133	1	PA_without_intermediate	0,0,0,1,2,0,0,0,0	test	ward_and_allport	1,0,0,0,0,0,3,2,0	71.0	9.0	2.133	0,0,0,1,2,3,0,0,0	to_hand	s595
130.43	0.335	0	PA_without_intermediate	0,0,0,1,2,0,3,0,0	test	ward_and_allport	1,0,0,0,0,0,3,2,0	82.0	9.0	0.335	0,0,0,1,2,3,0,0,0	to_board	s595
130.769	0.96	0	PA_without_intermediate	0,0,0,1,0,0,3,0,0	test	ward_and_allport	1,0,0,0,0,0,3,2,0	71.0	9.0	0.96	0,0,0,1,2,3,0,0,0	to_hand	s595
131.73	0.354	0	PA_without_intermediate	0,0,0,1,0,0,3,2,0	test	ward_and_allport	1,0,0,0,0,0,3,2,0	82.0	9.0	0.354	0,0,0,1,2,3,0,0,0	to_board	s595
132.088	0.836	0	PA_without_intermediate	0,0,0,0,0,0,3,2,0	test	ward_and_allport	1,0,0,0,0,0,3,2,0	71.0	9.0	0.836	0,0,0,1,2,3,0,0,0	to_hand	s595
132.925	0.289	0	PA_without_intermediate	1,0,0,0,0,0,3,2,0	test	ward_and_allport	1,0,0,0,0,0,3,2,0	89.0	9.0	0.289	0,0,0,1,2,3,0,0,0	to_board	s595
133.219	1.0	0	PA_without_intermediate	n/a	test	ward_and_allport	n/a	-1.0	9.0	n/a	n/a	feedback	s595
134.219	4.264	0	PA_without_intermediate	n/a	test	ward_and_allport	n/a	-1.0	9.0	n/a	n/a	ITI	s595
138.486	3.547	1	PA_with_intermediate	0,0,0,0,0,0,1,2,0	test	ward_and_allport	2,0,0,0,0,0,1,3,0	82.0	10.0	3.547	0,0,0,0,0,0,1,2,3	to_hand	s595
142.034	0.366	0	PA_with_intermediate	0,0,0,3,0,0,1,2,0	test	ward_and_allport	2,0,0,0,0,0,1,3,0	71.0	10.0	0.366	0,0,0,0,0,0,1,2,3	to_board	s595
142.405	0.658	0	PA_with_intermediate	0,0,0,3,0,0,1,0,0	test	ward_and_allport	2,0,0,0,0,0,1,3,0	82.0	10.0	0.658	0,0,0,0,0,0,1,2,3	to_hand	s595
143.065	0.36	0	PA_with_intermediate	2,0,0,3,0,0,1,0,0	test	ward_and_allport	2,0,0,0,0,0,1,3,0	89.0	10.0	0.36	0,0,0,0,0,0,1,2,3	to_board	s595
143.429	0.972	0	PA_with_intermediate	2,0,0,0,0,0,1,0,0	test	ward_and_allport	2,0,0,0,0,0,1,3,0	71.0	10.0	0.972	0,0,0,0,0,0,1,2,3	to_hand	s595
144.402	0.328	0	PA_with_intermediate	2,0,0,0,0,0,1,3,0	test	ward_and_allport	2,0,0,0,0,0,1,3,0	82.0	10.0	0.328	0,0,0,0,0,0,1,2,3	to_board	s595
144.737	1.0	0	PA_with_intermediate	n/a	test	ward_and_allport	n/a	-1.0	10.0	n/a	n/a	feedback	s595
145.737	3.04	0	PA_with_intermediate	n/a	test	ward_and_allport	n/a	-1.0	10.0	n/a	n/a	ITI	s595
148.781	4.202	1	PA_with_intermediate	0,0,0,0,0,0,1,2,0	test	ward_and_allport	0,0,0,2,3,0,1,0,0	82.0	11.0	4.202	0,0,0,0,0,0,1,2,3	to_hand	s595
152.986	0.423	0	PA_with_intermediate	3,0,0,0,0,0,1,2,0	test	ward_and_allport	0,0,0,2,3,0,1,0,0	89.0	11.0	0.423	0,0,0,0,0,0,1,2,3	to_board	s595
153.416	0.861	0	PA_with_intermediate	3,0,0,0,0,0,1,0,0	test	ward_and_allport	0,0,0,2,3,0,1,0,0	82.0	11.0	0.861	0,0,0,0,0,0,1,2,3	to_hand	s595
154.278	0.386	0	PA_with_intermediate	3,0,0,2,0,0,1,0,0	test	ward_and_allport	0,0,0,2,3,0,1,0,0	71.0	11.0	0.386	0,0,0,0,0,0,1,2,3	to_board	s595
154.669	0.478	0	PA_with_intermediate	0,0,0,2,0,0,1,0,0	test	ward_and_allport	0,0,0,2,3,0,1,0,0	89.0	11.0	0.478	0,0,0,0,0,0,1,2,3	to_hand	s595
155.148	0.336	0	PA_with_intermediate	0,0,0,2,3,0,1,0,0	test	ward_and_allport	0,0,0,2,3,0,1,0,0	71.0	11.0	0.336	0,0,0,0,0,0,1,2,3	to_board	s595
155.49	1.0	0	PA_with_intermediate	n/a	test	ward_and_allport	n/a	-1.0	11.0	n/a	n/a	feedback	s595
156.49	1.136	0	PA_with_intermediate	n/a	test	ward_and_allport	n/a	-1.0	11.0	n/a	n/a	ITI	s595
157.631	2.901	1	PA_with_intermediate	0,0,0,0,0,0,1,2,0	test	ward_and_allport	0,0,0,2,3,0,1,0,0	82.0	12.0	2.901	0,0,0,0,0,0,1,2,3	to_hand	s595
160.533	0.289	0	PA_with_intermediate	3,0,0,0,0,0,1,2,0	test	ward_and_allport	0,0,0,2,3,0,1,0,0	89.0	12.0	0.289	0,0,0,0,0,0,1,2,3	to_board	s595
160.827	0.6	0	PA_with_intermediate	3,0,0,0,0,0,1,0,0	test	ward_and_allport	0,0,0,2,3,0,1,0,0	82.0	12.0	0.6	0,0,0,0,0,0,1,2,3	to_hand	s595
161.429	0.379	0	PA_with_intermediate	3,0,0,2,0,0,1,0,0	test	ward_and_allport	0,0,0,2,3,0,1,0,0	71.0	12.0	0.379	0,0,0,0,0,0,1,2,3	to_board	s595
161.814	0.37	0	PA_with_intermediate	0,0,0,2,0,0,1,0,0	test	ward_and_allport	0,0,0,2,3,0,1,0,0	89.0	12.0	0.37	0,0,0,0,0,0,1,2,3	to_hand	s595
162.186	0.403	0	PA_with_intermediate	0,0,0,2,3,0,1,0,0	test	ward_and_allport	0,0,0,2,3,0,1,0,0	71.0	12.0	0.403	0,0,0,0,0,0,1,2,3	to_board	s595
162.599	1.0	0	PA_with_intermediate	n/a	test	ward_and_allport	n/a	-1.0	12.0	n/a	n/a	feedback	s595
163.599	1.408	0	PA_with_intermediate	n/a	test	ward_and_allport	n/a	-1.0	12.0	n/a	n/a	ITI	s595
165.012	2.954	1	PA_without_intermediate	1,2,0,0,0,0,0,0,0	test	ward_and_allport	0,0,0,1,0,0,3,2,0	89.0	13.0	2.954	1,2,3,0,0,0,0,0,0	to_hand	s595
167.967	0.349	0	PA_without_intermediate	1,2,0,0,0,0,3,0,0	test	ward_and_allport	0,0,0,1,0,0,3,2,0	82.0	13.0	0.349	1,2,3,0,0,0,0,0,0	to_board	s595
168.321	0.99	0	PA_without_intermediate	1,0,0,0,0,0,3,0,0	test	ward_and_allport	0,0,0,1,0,0,3,2,0	89.0	13.0	0.99	1,2,3,0,0,0,0,0,0	to_hand	s595
169.313	0.654	0	PA_without_intermediate	1,0,0,0,0,0,3,2,0	test	ward_and_allport	0,0,0,1,0,0,3,2,0	82.0	13.0	0.654	1,2,3,0,0,0,0,0,0	to_board	s595
169.971	0.548	0	PA_without_intermediate	0,0,0,0,0,0,3,2,0	test	ward_and_allport	0,0,0,1,0,0,3,2,0	89.0	13.0	0.548	1,2,3,0,0,0,0,0,0	to_hand	s595
170.522	0.304	0	PA_without_intermediate	0,0,0,1,0,0,3,2,0	test	ward_and_allport	0,0,0,1,0,0,3,2,0	71.0	13.0	0.304	1,2,3,0,0,0,0,0,0	to_board	s595
170.834	1.0	0	PA_without_intermediate	n/a	test	ward_and_allport	n/a	-1.0	13.0	n/a	n/a	feedback	s595
171.834	1.68	0	PA_without_intermediate	n/a	test	ward_and_allport	n/a	-1.0	13.0	n/a	n/a	ITI	s595
173.519	3.811	1	PA_with_intermediate	0,0,0,1,2,0,0,0,0	test	ward_and_allport	2,3,0,1,0,0,0,0,0	71.0	14.0	3.811	0,0,0,1,2,3,0,0,0	to_hand	s595
177.332	0.297	0	PA_with_intermediate	0,0,0,1,2,0,3,0,0	test	ward_and_allport	2,3,0,1,0,0,0,0,0	82.0	14.0	0.297	0,0,0,1,2,3,0,0,0	to_board	s595
177.634	0.518	0	PA_with_intermediate	0,0,0,1,0,0,3,0,0	test	ward_and_allport	2,3,0,1,0,0,0,0,0	71.0	14.0	0.518	0,0,0,1,2,3,0,0,0	to_hand	s595
178.153	0.497	0	PA_with_intermediate	2,0,0,1,0,0,3,0,0	test	ward_and_allport	2,3,0,1,0,0,0,0,0	89.0	14.0	0.497	0,0,0,1,2,3,0,0,0	to_board	s595
178.655	0.554	0	PA_with_intermediate	2,0,0,1,0,0,0,0,0	test	ward_and_allport	2,3,0,1,0,0,0,0,0	82.0	14.0	0.554	0,0,0,1,2,3,0,0,0	to_hand	s595
179.21	0.404	0	PA_with_intermediate	2,3,0,1,0,0,0,0,0	test	ward_and_allport	2,3,0,1,0,0,0,0,0	89.0	14.0	0.404	0,0,0,1,2,3,0,0,0	to_board	s595
179.621	1.0	0	PA_with_intermediate	n/a	test	ward_and_allport	n/a	-1.0	14.0	n/a	n/a	feedback	s595
180.621	3.72	0	PA_with_intermediate	n/a	test	ward_and_allport	n/a	-1.0	14.0	n/a	n/a	ITI	s595
189.35	6.22	1	PA_without_intermediate	0,0,0,0,0,0,1,2,0	test	ward_and_allport	2,0,0,3,1,0,0,0,0	82.0	15.0	6.22	0,0,0,0,0,0,1,2,3	to_hand	s595
195.57	0.326	0	PA_without_intermediate	0,0,0,3,0,0,1,2,0	test	ward_and_allport	2,0,0,3,1,0,0,0,0	71.0	15.0	0.326	0,0,0,0,0,0,1,2,3	to_board	s595
195.902	0.364	0	PA_without_intermediate	0,0,0,3,0,0,1,0,0	test	ward_and_allport	2,0,0,3,1,0,0,0,0	82.0	15.0	0.364	0,0,0,0,0,0,1,2,3	to_hand	s595
196.268	0.415	0	PA_without_intermediate	2,0,0,3,0,0,1,0,0	test	ward_and_allport	2,0,0,3,1,0,0,0,0	89.0	15.0	0.415	0,0,0,0,0,0,1,2,3	to_board	s595
196.688	0.501	0	PA_without_intermediate	2,0,0,3,0,0,0,0,0	test	ward_and_allport	2,0,0,3,1,0,0,0,0	82.0	15.0	0.501	0,0,0,0,0,0,1,2,3	to_hand	s595
197.19	0.371	0	PA_without_intermediate	2,0,0,3,1,0,0,0,0	test	ward_and_allport	2,0,0,3,1,0,0,0,0	71.0	15.0	0.371	0,0,0,0,0,0,1,2,3	to_board	s595
197.568	1.0	0	PA_without_intermediate	n/a	test	ward_and_allport	n/a	-1.0	15.0	n/a	n/a	feedback	s595
198.568	2.224	0	PA_without_intermediate	n/a	test	ward_and_allport	n/a	-1.0	15.0	n/a	n/a	ITI	s595
200.798	4.049	1	PA_without_intermediate	0,0,0,0,0,0,1,2,0	test	ward_and_allport	1,0,0,3,2,0,0,0,0	82.0	16.0	4.049	0,0,0,0,0,0,1,2,3	to_hand	s595
204.848	0.313	0	PA_without_intermediate	0,0,0,3,0,0,1,2,0	test	ward_and_allport	1,0,0,3,2,0,0,0,0	71.0	16.0	0.313	0,0,0,0,0,0,1,2,3	to_board	s595
205.167	0.371	0	PA_without_intermediate	0,0,0,3,0,0,1,0,0	test	ward_and_allport	1,0,0,3,2,0,0,0,0	82.0	16.0	0.371	0,0,0,0,0,0,1,2,3	to_hand	s595
205.539	0.409	0	PA_without_intermediate	0,0,0,3,2,0,1,0,0	test	ward_and_allport	1,0,0,3,2,0,0,0,0	71.0	16.0	0.409	0,0,0,0,0,0,1,2,3	to_board	s595
205.953	0.612	0	PA_without_intermediate	0,0,0,3,2,0,0,0,0	test	ward_and_allport	1,0,0,3,2,0,0,0,0	82.0	16.0	0.612	0,0,0,0,0,0,1,2,3	to_hand	s595
206.567	0.28	0	PA_without_intermediate	1,0,0,3,2,0,0,0,0	test	ward_and_allport	1,0,0,3,2,0,0,0,0	89.0	16.0	0.28	0,0,0,0,0,0,1,2,3	to_board	s595
206.853	1.0	0	PA_without_intermediate	n/a	test	ward_and_allport	n/a	-1.0	16.0	n/a	n/a	feedback	s595
207.853	1.272	0	PA_without_intermediate	n/a	test	ward_and_allport	n/a	-1.0	16.0	n/a	n/a	ITI	s595
209.13	4.767	1	PA_with_intermediate	0,0,0,0,0,0,1,2,0	test	ward_and_allport	2,3,0,0,0,0,1,0,0	82.0	17.0	4.767	0,0,0,0,0,0,1,2,3	to_hand	s595
213.898	0.345	0	PA_with_intermediate	0,0,0,3,0,0,1,2,0	test	ward_and_allport	2,3,0,0,0,0,1,0,0	71.0	17.0	0.345	0,0,0,0,0,0,1,2,3	to_board	s595
214.249	0.342	0	PA_with_intermediate	0,0,0,3,0,0,1,0,0	test	ward_and_allport	2,3,0,0,0,0,1,0,0	82.0	17.0	0.342	0,0,0,0,0,0,1,2,3	to_hand	s595
214.593	0.36	0	PA_with_intermediate	2,0,0,3,0,0,1,0,0	test	ward_and_allport	2,3,0,0,0,0,1,0,0	89.0	17.0	0.36	0,0,0,0,0,0,1,2,3	to_board	s595
214.959	0.835	0	PA_with_intermediate	2,0,0,0,0,0,1,0,0	test	ward_and_allport	2,3,0,0,0,0,1,0,0	71.0	17.0	0.835	0,0,0,0,0,0,1,2,3	to_hand	s595
215.795	0.257	0	PA_with_intermediate	2,3,0,0,0,0,1,0,0	test	ward_and_allport	2,3,0,0,0,0,1,0,0	89.0	17.0	0.257	0,0,0,0,0,0,1,2,3	to_board	s595
216.06	1.0	0	PA_with_intermediate	n/a	test	ward_and_allport	n/a	-1.0	17.0	n/a	n/a	feedback	s595
217.06	2.632	0	PA_with_intermediate	n/a	test	ward_and_allport	n/a	-1.0	17.0	n/a	n/a	ITI	s595
219.697	3.942	1	PA_without_intermediate	0,0,0,1,2,0,0,0,0	test	ward_and_allport	3,2,0,0,0,0,1,0,0	71.0	18.0	3.942	0,0,0,1,2,3,0,0,0	to_hand	s595
223.64	0.299	0	PA_without_intermediate	3,0,0,1,2,0,0,0,0	test	ward_and_allport	3,2,0,0,0,0,1,0,0	89.0	18.0	0.299	0,0,0,1,2,3,0,0,0	to_board	s595
223.945	0.352	0	PA_without_intermediate	3,0,0,1,0,0,0,0,0	test	ward_and_allport	3,2,0,0,0,0,1,0,0	71.0	18.0	0.352	0,0,0,1,2,3,0,0,0	to_hand	s595
224.298	0.388	0	PA_without_intermediate	3,2,0,1,0,0,0,0,0	test	ward_and_allport	3,2,0,0,0,0,1,0,0	89.0	18.0	0.388	0,0,0,1,2,3,0,0,0	to_board	s595
224.691	0.574	0	PA_without_intermediate	3,2,0,0,0,0,0,0,0	test	ward_and_allport	3,2,0,0,0,0,1,0,0	71.0	18.0	0.574	0,0,0,1,2,3,0,0,0	to_hand	s595
225.266	0.297	0	PA_without_intermediate	3,2,0,0,0,0,1,0,0	test	ward_and_allport	3,2,0,0,0,0,1,0,0	82.0	18.0	0.297	0,0,0,1,2,3,0,0,0	to_board	s595
225.569	1.0	0	PA_without_intermediate	n/a	test	ward_and_allport	n/a	-1.0	18.0	n/a	n/a	feedback	s595
226.569	1.408	0	PA_without_intermediate	n/a	test	ward_and_allport	n/a	-1.0	18.0	n/a	n/a	ITI	s595
227.983	3.546	1	PA_without_intermediate	0,0,0,0,0,0,1,2,0	test	ward_and_allport	3,1,0,2,0,0,0,0,0	82.0	19.0	3.546	0,0,0,0,0,0,1,2,3	to_hand	s595
231.531	0.32	0	PA_without_intermediate	3,0,0,0,0,0,1,2,0	test	ward_and_allport	3,1,0,2,0,0,0,0,0	89.0	19.0	0.32	0,0,0,0,0,0,1,2,3	to_board	s595
231.858	0.443	0	PA_without_intermediate	3,0,0,0,0,0,1,0,0	test	ward_and_allport	3,1,0,2,0,0,0,0,0	82.0	19.0	0.443	0,0,0,0,0,0,1,2,3	to_hand	s595
232.303	0.291	0	PA_without_intermediate	3,0,0,2,0,0,1,0,0	test	ward_and_allport	3,1,0,2,0,0,0,0,0	71.0	19.0	0.291	0,0,0,0,0,0,1,2,3	to_board	s595
232.6	0.387	0	PA_without_intermediate	3,0,0,2,0,0,0,0,0	test	ward_and_allport	3,1,0,2,0,0,0,0,0	82.0	19.0	0.387	0,0,0,0,0,0,1,2,3	to_hand	s595
232.989	0.377	0	PA_without_intermediate	3,1,0,2,0,0,0,0,0	test	ward_and_allport	3,1,0,2,0,0,0,0,0	89.0	19.0	0.377	0,0,0,0,0,0,1,2,3	to_board	s595
233.373	1.0	0	PA_without_intermediate	n/a	test	ward_and_allport	n/a	-1.0	19.0	n/a	n/a	feedback	s595
234.373	1.0	0	PA_without_intermediate	n/a	test	ward_and_allport	n/a	-1.0	19.0	n/a	n/a	ITI	s595
235.378	3.1	1	PA_with_intermediate	1,2,0,0,0,0,0,0,0	test	ward_and_allport	1,0,0,2,3,0,0,0,0	89.0	20.0	3.1	1,2,3,0,0,0,0,0,0	to_hand	s595
238.479	0.354	0	PA_with_intermediate	1,2,0,0,0,0,3,0,0	test	ward_and_allport	1,0,0,2,3,0,0,0,0	82.0	20.0	0.354	1,2,3,0,0,0,0,0,0	to_board	s595
238.839	0.874	0	PA_with_intermediate	1,0,0,0,0,0,3,0,0	test	ward_and_allport	1,0,0,2,3,0,0,0,0	89.0	20.0	0.874	1,2,3,0,0,0,0,0,0	to_hand	s595
239.714	0.366	0	PA_with_intermediate	1,0,0,2,0,0,3,0,0	test	ward_and_allport	1,0,0,2,3,0,0,0,0	71.0	20.0	0.366	1,2,3,0,0,0,0,0,0	to_board	s595
240.086	1.295	0	PA_with_intermediate	1,0,0,2,0,0,0,0,0	test	ward_and_allport	1,0,0,2,3,0,0,0,0	82.0	20.0	1.295	1,2,3,0,0,0,0,0,0	to_hand	s595
241.382	0.359	0	PA_with_intermediate	1,0,0,2,3,0,0,0,0	test	ward_and_allport	1,0,0,2,3,0,0,0,0	71.0	20.0	0.359	1,2,3,0,0,0,0,0,0	to_board	s595
241.751	1.0	0	PA_with_intermediate	n/a	test	ward_and_allport	n/a	-1.0	20.0	n/a	n/a	feedback	s595
242.751	1.0	0	PA_with_intermediate	n/a	test	ward_and_allport	n/a	-1.0	20.0	n/a	n/a	ITI	s595
243.758	4.633	1	PA_with_intermediate	1,2,0,0,0,0,0,0,0	test	ward_and_allport	1,0,0,0,0,0,2,3,0	89.0	21.0	4.633	1,2,3,0,0,0,0,0,0	to_hand	s595
248.392	0.327	0	PA_with_intermediate	1,2,0,3,0,0,0,0,0	test	ward_and_allport	1,0,0,0,0,0,2,3,0	71.0	21.0	0.327	1,2,3,0,0,0,0,0,0	to_board	s595
248.725	0.406	0	PA_with_intermediate	1,0,0,3,0,0,0,0,0	test	ward_and_allport	1,0,0,0,0,0,2,3,0	89.0	21.0	0.406	1,2,3,0,0,0,0,0,0	to_hand	s595
249.132	0.4	0	PA_with_intermediate	1,0,0,3,0,0,2,0,0	test	ward_and_allport	1,0,0,0,0,0,2,3,0	82.0	21.0	0.4	1,2,3,0,0,0,0,0,0	to_board	s595
249.538	0.465	0	PA_with_intermediate	1,0,0,0,0,0,2,0,0	test	ward_and_allport	1,0,0,0,0,0,2,3,0	71.0	21.0	0.465	1,2,3,0,0,0,0,0,0	to_hand	s595
250.005	0.362	0	PA_with_intermediate	1,0,0,0,0,0,2,3,0	test	ward_and_allport	1,0,0,0,0,0,2,3,0	82.0	21.0	0.362	1,2,3,0,0,0,0,0,0	to_board	s595
250.375	1.0	0	PA_with_intermediate	n/a	test	ward_and_allport	n/a	-1.0	21.0	n/a	n/a	feedback	s595
251.375	1.0	0	PA_with_intermediate	n/a	test	ward_and_allport	n/a	-1.0	21.0	n/a	n/a	ITI	s595
252.382	3.669	1	PA_with_intermediate	0,0,0,0,0,0,1,2,0	test	ward_and_allport	2,0,0,0,0,0,1,3,0	82.0	22.0	3.669	0,0,0,0,0,0,1,2,3	to_hand	s595
256.053	0.326	0	PA_with_intermediate	0,0,0,3,0,0,1,2,0	test	ward_and_allport	2,0,0,0,0,0,1,3,0	71.0	22.0	0.326	0,0,0,0,0,0,1,2,3	to_board	s595
256.385	0.62	0	PA_with_intermediate	0,0,0,3,0,0,1,0,0	test	ward_and_allport	2,0,0,0,0,0,1,3,0	82.0	22.0	0.62	0,0,0,0,0,0,1,2,3	to_hand	s595
257.007	0.263	0	PA_with_intermediate	2,0,0,3,0,0,1,0,0	test	ward_and_allport	2,0,0,0,0,0,1,3,0	89.0	22.0	0.263	0,0,0,0,0,0,1,2,3	to_board	s595
257.278	0.483	0	PA_with_intermediate	2,0,0,0,0,0,1,0,0	test	ward_and_allport	2,0,0,0,0,0,1,3,0	71.0	22.0	0.483	0,0,0,0,0,0,1,2,3	to_hand	s595
257.762	0.263	0	PA_with_intermediate	2,0,0,0,0,0,1,3,0	test	ward_and_allport	2,0,0,0,0,0,1,3,0	82.0	22.0	0.263	0,0,0,0,0,0,1,2,3	to_board	s595
258.034	1.0	0	PA_with_intermediate	n/a	test	ward_and_allport	n/a	-1.0	22.0	n/a	n/a	feedback	s595
259.034	1.408	0	PA_with_intermediate	n/a	test	ward_and_allport	n/a	-1.0	22.0	n/a	n/a	ITI	s595
260.447	5.167	1	PA_without_intermediate	0,0,0,1,2,0,0,0,0	test	ward_and_allport	3,1,0,0,0,0,2,0,0	71.0	23.0	5.167	0,0,0,1,2,3,0,0,0	to_hand	s595
265.615	0.303	0	PA_without_intermediate	3,0,0,1,2,0,0,0,0	test	ward_and_allport	3,1,0,0,0,0,2,0,0	89.0	23.0	0.303	0,0,0,1,2,3,0,0,0	to_board	s595
265.925	0.463	0	PA_without_intermediate	3,0,0,1,0,0,0,0,0	test	ward_and_allport	3,1,0,0,0,0,2,0,0	71.0	23.0	0.463	0,0,0,1,2,3,0,0,0	to_hand	s595
266.389	0.308	0	PA_without_intermediate	3,0,0,1,0,0,2,0,0	test	ward_and_allport	3,1,0,0,0,0,2,0,0	82.0	23.0	0.308	0,0,0,1,2,3,0,0,0	to_board	s595
266.704	0.427	0	PA_without_intermediate	3,0,0,0,0,0,2,0,0	test	ward_and_allport	3,1,0,0,0,0,2,0,0	71.0	23.0	0.427	0,0,0,1,2,3,0,0,0	to_hand	s595
267.132	0.253	0	PA_without_intermediate	3,1,0,0,0,0,2,0,0	test	ward_and_allport	3,1,0,0,0,0,2,0,0	89.0	23.0	0.253	0,0,0,1,2,3,0,0,0	to_board	s595
267.393	1.0	0	PA_without_intermediate	n/a	test	ward_and_allport	n/a	-1.0	23.0	n/a	n/a	feedback	s595
268.393	1.816	0	PA_without_intermediate	n/a	test	ward_and_allport	n/a	-1.0	23.0	n/a	n/a	ITI	s595
270.217	4.599	1	PA_with_intermediate	1,2,0,0,0,0,0,0,0	test	ward_and_allport	1,3,0,0,0,0,2,0,0	89.0	24.0	4.599	1,2,3,0,0,0,0,0,0	to_hand	s595
274.817	0.254	0	PA_with_intermediate	1,2,0,3,0,0,0,0,0	test	ward_and_allport	1,3,0,0,0,0,2,0,0	71.0	24.0	0.254	1,2,3,0,0,0,0,0,0	to_board	s595
275.08	0.358	0	PA_with_intermediate	1,0,0,3,0,0,0,0,0	test	ward_and_allport	1,3,0,0,0,0,2,0,0	89.0	24.0	0.358	1,2,3,0,0,0,0,0,0	to_hand	s595
275.439	0.385	0	PA_with_intermediate	1,0,0,3,0,0,2,0,0	test	ward_and_allport	1,3,0,0,0,0,2,0,0	82.0	24.0	0.385	1,2,3,0,0,0,0,0,0	to_board	s595
275.832	0.621	0	PA_with_intermediate	1,0,0,0,0,0,2,0,0	test	ward_and_allport	1,3,0,0,0,0,2,0,0	71.0	24.0	0.621	1,2,3,0,0,0,0,0,0	to_hand	s595
276.454	0.315	0	PA_with_intermediate	1,3,0,0,0,0,2,0,0	test	ward_and_allport	1,3,0,0,0,0,2,0,0	89.0	24.0	0.315	1,2,3,0,0,0,0,0,0	to_board	s595
276.778	1.0	0	PA_with_intermediate	n/a	test	ward_and_allport	n/a	-1.0	24.0	n/a	n/a	feedback	s595
277.778	3.176	0	PA_with_intermediate	n/a	test	ward_and_allport	n/a	-1.0	24.0	n/a	n/a	ITI	s595
280.962	4.082	1	PA_with_intermediate	0,0,0,1,2,0,0,0,0	test	ward_and_allport	0,0,0,1,0,0,2,3,0	71.0	25.0	4.082	0,0,0,1,2,3,0,0,0	to_hand	s595
285.046	0.225	0	PA_with_intermediate	3,0,0,1,2,0,0,0,0	test	ward_and_allport	0,0,0,1,0,0,2,3,0	89.0	25.0	0.225	0,0,0,1,2,3,0,0,0	to_board	s595
285.28	0.302	0	PA_with_intermediate	3,0,0,1,0,0,0,0,0	test	ward_and_allport	0,0,0,1,0,0,2,3,0	71.0	25.0	0.302	0,0,0,1,2,3,0,0,0	to_hand	s595
285.583	0.263	0	PA_with_intermediate	3,0,0,1,0,0,2,0,0	test	ward_and_allport	0,0,0,1,0,0,2,3,0	82.0	25.0	0.263	0,0,0,1,2,3,0,0,0	to_board	s595
285.854	0.351	0	PA_with_intermediate	0,0,0,1,0,0,2,0,0	test	ward_and_allport	0,0,0,1,0,0,2,3,0	89.0	25.0	0.351	0,0,0,1,2,3,0,0,0	to_hand	s595
286.207	0.287	0	PA_with_intermediate	0,0,0,1,0,0,2,3,0	test	ward_and_allport	0,0,0,1,0,0,2,3,0	82.0	25.0	0.287	0,0,0,1,2,3,0,0,0	to_board	s595
286.505	1.0	0	PA_with_intermediate	n/a	test	ward_and_allport	n/a	-1.0	25.0	n/a	n/a	feedback	s595
287.505	2.36	0	PA_with_intermediate	n/a	test	ward_and_allport	n/a	-1.0	25.0	n/a	n/a	ITI	s595
289.875	2.929	1	PA_with_intermediate	0,0,0,1,2,0,0,0,0	test	ward_and_allport	2,3,0,1,0,0,0,0,0	71.0	26.0	2.929	0,0,0,1,2,3,0,0,0	to_hand	s595
292.805	0.277	0	PA_with_intermediate	0,0,0,1,2,0,3,0,0	test	ward_and_allport	2,3,0,1,0,0,0,0,0	82.0	26.0	0.277	0,0,0,1,2,3,0,0,0	to_board	s595
293.089	0.268	0	PA_with_intermediate	0,0,0,1,0,0,3,0,0	test	ward_and_allport	2,3,0,1,0,0,0,0,0	71.0	26.0	0.268	0,0,0,1,2,3,0,0,0	to_hand	s595
293.359	0.438	0	PA_with_intermediate	2,0,0,1,0,0,3,0,0	test	ward_and_allport	2,3,0,1,0,0,0,0,0	89.0	26.0	0.438	0,0,0,1,2,3,0,0,0	to_board	s595
293.805	0.55	0	PA_with_intermediate	2,0,0,1,0,0,0,0,0	test	ward_and_allport	2,3,0,1,0,0,0,0,0	82.0	26.0	0.55	0,0,0,1,2,3,0,0,0	to_hand	s595
294.355	0.302	0	PA_with_intermediate	2,3,0,1,0,0,0,0,0	test	ward_and_allport	2,3,0,1,0,0,0,0,0	89.0	26.0	0.302	0,0,0,1,2,3,0,0,0	to_board	s595
294.665	1.0	0	PA_with_intermediate	n/a	test	ward_and_allport	n/a	-1.0	26.0	n/a	n/a	feedback	s595
295.665	1.0	0	PA_with_intermediate	n/a	test	ward_and_allport	n/a	-1.0	26.0	n/a	n/a	ITI	s595
296.674	2.212	1	PA_without_intermediate	0,0,0,0,0,0,1,2,0	test	ward_and_allport	3,2,0,1,0,0,0,0,0	82.0	27.0	2.212	0,0,0,0,0,0,1,2,3	to_hand	s595
298.887	0.252	0	PA_without_intermediate	3,0,0,0,0,0,1,2,0	test	ward_and_allport	3,2,0,1,0,0,0,0,0	89.0	27.0	0.252	0,0,0,0,0,0,1,2,3	to_board	s595
299.147	1.139	0	PA_without_intermediate	3,0,0,0,0,0,1,0,0	test	ward_and_allport	3,2,0,1,0,0,0,0,0	82.0	27.0	1.139	0,0,0,0,0,0,1,2,3	to_hand	s595
300.287	0.296	0	PA_without_intermediate	3,2,0,0,0,0,1,0,0	test	ward_and_allport	3,2,0,1,0,0,0,0,0	89.0	27.0	0.296	0,0,0,0,0,0,1,2,3	to_board	s595
300.592	1.506	0	PA_without_intermediate	3,2,0,0,0,0,0,0,0	test	ward_and_allport	3,2,0,1,0,0,0,0,0	82.0	27.0	1.506	0,0,0,0,0,0,1,2,3	to_hand	s595
302.099	0.219	0	PA_without_intermediate	3,2,0,1,0,0,0,0,0	test	ward_and_allport	3,2,0,1,0,0,0,0,0	71.0	27.0	0.219	0,0,0,0,0,0,1,2,3	to_board	s595
302.327	1.0	0	PA_without_intermediate	n/a	test	ward_and_allport	n/a	-1.0	27.0	n/a	n/a	feedback	s595
303.327	1.408	0	PA_without_intermediate	n/a	test	ward_and_allport	n/a	-1.0	27.0	n/a	n/a	ITI	s595
304.744	5.446	1	PA_with_intermediate	0,0,0,0,0,0,1,2,0	test	ward_and_allport	2,3,0,0,0,0,1,0,0	82.0	28.0	5.446	0,0,0,0,0,0,1,2,3	to_hand	s595
310.191	0.294	0	PA_with_intermediate	0,0,0,3,0,0,1,2,0	test	ward_and_allport	2,3,0,0,0,0,1,0,0	71.0	28.0	0.294	0,0,0,0,0,0,1,2,3	to_board	s595
310.493	0.419	0	PA_with_intermediate	0,0,0,3,0,0,1,0,0	test	ward_and_allport	2,3,0,0,0,0,1,0,0	82.0	28.0	0.419	0,0,0,0,0,0,1,2,3	to_hand	s595
310.914	0.293	0	PA_with_intermediate	2,0,0,3,0,0,1,0,0	test	ward_and_allport	2,3,0,0,0,0,1,0,0	89.0	28.0	0.293	0,0,0,0,0,0,1,2,3	to_board	s595
311.215	0.664	0	PA_with_intermediate	2,0,0,0,0,0,1,0,0	test	ward_and_allport	2,3,0,0,0,0,1,0,0	71.0	28.0	0.664	0,0,0,0,0,0,1,2,3	to_hand	s595
311.881	0.278	0	PA_with_intermediate	2,3,0,0,0,0,1,0,0	test	ward_and_allport	2,3,0,0,0,0,1,0,0	89.0	28.0	0.278	0,0,0,0,0,0,1,2,3	to_board	s595
312.17	1.0	0	PA_with_intermediate	n/a	test	ward_and_allport	n/a	-1.0	28.0	n/a	n/a	feedback	s595
313.17	1.816	0	PA_with_intermediate	n/a	test	ward_and_allport	n/a	-1.0	28.0	n/a	n/a	ITI	s595
314.994	3.731	1	PA_without_intermediate	1,2,0,0,0,0,0,0,0	test	ward_and_allport	0,0,0,3,1,0,2,0,0	89.0	29.0	3.731	1,2,3,0,0,0,0,0,0	to_hand	s595
318.726	0.238	0	PA_without_intermediate	1,2,0,3,0,0,0,0,0	test	ward_and_allport	0,0,0,3,1,0,2,0,0	71.0	29.0	0.238	1,2,3,0,0,0,0,0,0	to_board	s595
318.974	0.611	0	PA_without_intermediate	1,0,0,3,0,0,0,0,0	test	ward_and_allport	0,0,0,3,1,0,2,0,0	89.0	29.0	0.611	1,2,3,0,0,0,0,0,0	to_hand	s595
319.586	0.329	0	PA_without_intermediate	1,0,0,3,0,0,2,0,0	test	ward_and_allport	0,0,0,3,1,0,2,0,0	82.0	29.0	0.329	1,2,3,0,0,0,0,0,0	to_board	s595
319.923	0.684	0	PA_without_intermediate	0,0,0,3,0,0,2,0,0	test	ward_and_allport	0,0,0,3,1,0,2,0,0	89.0	29.0	0.684	1,2,3,0,0,0,0,0,0	to_hand	s595
320.607	0.269	0	PA_without_intermediate	0,0,0,3,1,0,2,0,0	test	ward_and_allport	0,0,0,3,1,0,2,0,0	71.0	29.0	0.269	1,2,3,0,0,0,0,0,0	to_board	s595
320.885	1.0	0	PA_without_intermediate	n/a	test	ward_and_allport	n/a	-1.0	29.0	n/a	n/a	feedback	s595
321.885	2.088	0	PA_without_intermediate	n/a	test	ward_and_allport	n/a	-1.0	29.0	n/a	n/a	ITI	s595
328.985	2.518	1	PA_without_intermediate	1,2,0,0,0,0,0,0,0	test	ward_and_allport	0,0,0,3,2,0,1,0,0	89.0	30.0	2.518	1,2,3,0,0,0,0,0,0	to_hand	s595
331.505	0.233	0	PA_without_intermediate	1,2,0,3,0,0,0,0,0	test	ward_and_allport	0,0,0,3,2,0,1,0,0	71.0	30.0	0.233	1,2,3,0,0,0,0,0,0	to_board	s595
331.747	0.303	0	PA_without_intermediate	1,0,0,3,0,0,0,0,0	test	ward_and_allport	0,0,0,3,2,0,1,0,0	89.0	30.0	0.303	1,2,3,0,0,0,0,0,0	to_hand	s595
332.052	0.316	0	PA_without_intermediate	1,0,0,3,2,0,0,0,0	test	ward_and_allport	0,0,0,3,2,0,1,0,0	71.0	30.0	0.316	1,2,3,0,0,0,0,0,0	to_board	s595
332.377	0.311	0	PA_without_intermediate	0,0,0,3,2,0,0,0,0	test	ward_and_allport	0,0,0,3,2,0,1,0,0	89.0	30.0	0.311	1,2,3,0,0,0,0,0,0	to_hand	s595
332.69	0.235	0	PA_without_intermediate	0,0,0,3,2,0,1,0,0	test	ward_and_allport	0,0,0,3,2,0,1,0,0	82.0	30.0	0.235	1,2,3,0,0,0,0,0,0	to_board	s595
332.936	1.0	0	PA_without_intermediate	n/a	test	ward_and_allport	n/a	-1.0	30.0	n/a	n/a	feedback	s595
333.936	1.136	0	PA_without_intermediate	n/a	test	ward_and_allport	n/a	-1.0	30.0	n/a	n/a	ITI	s595
335.082	2.802	1	PA_without_intermediate	0,0,0,1,2,0,0,0,0	test	ward_and_allport	3,1,0,0,0,0,2,0,0	71.0	31.0	2.802	0,0,0,1,2,3,0,0,0	to_hand	s595
337.884	0.211	0	PA_without_intermediate	3,0,0,1,2,0,0,0,0	test	ward_and_allport	3,1,0,0,0,0,2,0,0	89.0	31.0	0.211	0,0,0,1,2,3,0,0,0	to_board	s595
338.104	0.258	0	PA_without_intermediate	3,0,0,1,0,0,0,0,0	test	ward_and_allport	3,1,0,0,0,0,2,0,0	71.0	31.0	0.258	0,0,0,1,2,3,0,0,0	to_hand	s595
338.363	0.235	0	PA_without_intermediate	3,0,0,1,0,0,2,0,0	test	ward_and_allport	3,1,0,0,0,0,2,0,0	82.0	31.0	0.235	0,0,0,1,2,3,0,0,0	to_board	s595
338.607	0.27	0	PA_without_intermediate	3,0,0,0,0,0,2,0,0	test	ward_and_allport	3,1,0,0,0,0,2,0,0	71.0	31.0	0.27	0,0,0,1,2,3,0,0,0	to_hand	s595
338.878	0.247	0	PA_without_intermediate	3,1,0,0,0,0,2,0,0	test	ward_and_allport	3,1,0,0,0,0,2,0,0	89.0	31.0	0.247	0,0,0,1,2,3,0,0,0	to_board	s595
339.136	1.0	0	PA_without_intermediate	n/a	test	ward_and_allport	n/a	-1.0	31.0	n/a	n/a	feedback	s595
340.136	6.168	0	PA_without_intermediate	n/a	test	ward_and_allport	n/a	-1.0	31.0	n/a	n/a	ITI	s595
346.313	4.543	1	PA_without_intermediate	1,2,0,0,0,0,0,0,0	test	ward_and_allport	0,0,0,2,0,0,3,1,0	89.0	32.0	4.543	1,2,3,0,0,0,0,0,0	to_hand	s595
350.857	0.319	0	PA_without_intermediate	1,2,0,0,0,0,3,0,0	test	ward_and_allport	0,0,0,2,0,0,3,1,0	82.0	32.0	0.319	1,2,3,0,0,0,0,0,0	to_board	s595
351.186	0.335	0	PA_without_intermediate	1,0,0,0,0,0,3,0,0	test	ward_and_allport	0,0,0,2,0,0,3,1,0	89.0	32.0	0.335	1,2,3,0,0,0,0,0,0	to_hand	s595
351.523	0.327	0	PA_without_intermediate	1,0,0,2,0,0,3,0,0	test	ward_and_allport	0,0,0,2,0,0,3,1,0	71.0	32.0	0.327	1,2,3,0,0,0,0,0,0	to_board	s595
351.861	0.327	0	PA_without_intermediate	0,0,0,2,0,0,3,0,0	test	ward_and_allport	0,0,0,2,0,0,3,1,0	89.0	32.0	0.327	1,2,3,0,0,0,0,0,0	to_hand	s595
352.189	0.287	0	PA_without_intermediate	0,0,0,2,0,0,3,1,0	test	ward_and_allport	0,0,0,2,0,0,3,1,0	82.0	32.0	0.287	1,2,3,0,0,0,0,0,0	to_board	s595
352.487	1.0	0	PA_without_intermediate	n/a	test	ward_and_allport	n/a	-1.0	32.0	n/a	n/a	feedback	s595
353.487	1.816	0	PA_without_intermediate	n/a	test	ward_and_allport	n/a	-1.0	32.0	n/a	n/a	ITI	s595
355.314	6.131	1	PA_with_intermediate	0,0,0,1,2,0,0,0,0	test	ward_and_allport	2,0,0,1,3,0,0,0,0	71.0	33.0	6.131	0,0,0,1,2,3,0,0,0	to_hand	s595
361.446	0.23	0	PA_with_intermediate	0,0,0,1,2,0,3,0,0	test	ward_and_allport	2,0,0,1,3,0,0,0,0	82.0	33.0	0.23	0,0,0,1,2,3,0,0,0	to_board	s595
361.687	0.549	0	PA_with_intermediate	0,0,0,1,0,0,3,0,0	test	ward_and_allport	2,0,0,1,3,0,0,0,0	71.0	33.0	0.549	0,0,0,1,2,3,0,0,0	to_hand	s595
362.238	0.299	0	PA_with_intermediate	2,0,0,1,0,0,3,0,0	test	ward_and_allport	2,0,0,1,3,0,0,0,0	89.0	33.0	0.299	0,0,0,1,2,3,0,0,0	to_board	s595
362.547	1.033	0	PA_with_intermediate	2,0,0,1,0,0,0,0,0	test	ward_and_allport	2,0,0,1,3,0,0,0,0	82.0	33.0	1.033	0,0,0,1,2,3,0,0,0	to_hand	s595
363.581	0.164	0	PA_with_intermediate	2,0,0,1,3,0,0,0,0	test	ward_and_allport	2,0,0,1,3,0,0,0,0	71.0	33.0	0.164	0,0,0,1,2,3,0,0,0	to_board	s595
363.759	1.0	0	PA_with_intermediate	n/a	test	ward_and_allport	n/a	-1.0	33.0	n/a	n/a	feedback	s595
364.759	1.952	0	PA_with_intermediate	n/a	test	ward_and_allport	n/a	-1.0	33.0	n/a	n/a	ITI	s595
366.722	3.983	1	PA_with_intermediate	0,0,0,0,0,0,1,2,0	test	ward_and_allport	0,0,0,2,0,0,1,3,0	82.0	34.0	3.983	0,0,0,0,0,0,1,2,3	to_hand	s595
370.706	0.273	0	PA_with_intermediate	3,0,0,0,0,0,1,2,0	test	ward_and_allport	0,0,0,2,0,0,1,3,0	89.0	34.0	0.273	0,0,0,0,0,0,1,2,3	to_board	s595
370.987	1.12	0	PA_with_intermediate	3,0,0,0,0,0,1,0,0	test	ward_and_allport	0,0,0,2,0,0,1,3,0	82.0	34.0	1.12	0,0,0,0,0,0,1,2,3	to_hand	s595
372.108	0.361	0	PA_with_intermediate	3,0,0,2,0,0,1,0,0	test	ward_and_allport	0,0,0,2,0,0,1,3,0	71.0	34.0	0.361	0,0,0,0,0,0,1,2,3	to_board	s595
372.478	0.539	0	PA_with_intermediate	0,0,0,2,0,0,1,0,0	test	ward_and_allport	0,0,0,2,0,0,1,3,0	89.0	34.0	0.539	0,0,0,0,0,0,1,2,3	to_hand	s595
373.018	0.296	0	PA_with_intermediate	0,0,0,2,0,0,1,3,0	test	ward_and_allport	0,0,0,2,0,0,1,3,0	82.0	34.0	0.296	0,0,0,0,0,0,1,2,3	to_board	s595
373.327	1.0	0	PA_with_intermediate	n/a	test	ward_and_allport	n/a	-1.0	34.0	n/a	n/a	feedback	s595
374.327	1.136	0	PA_with_intermediate	n/a	test	ward_and_allport	n/a	-1.0	34.0	n/a	n/a	ITI	s595
375.475	3.423	1	PA_without_intermediate	0,0,0,0,0,0,1,2,0	test	ward_and_allport	3,1,0,2,0,0,0,0,0	82.0	35.0	3.423	0,0,0,0,0,0,1,2,3	to_hand	s595
378.9	0.395	0	PA_without_intermediate	3,0,0,0,0,0,1,2,0	test	ward_and_allport	3,1,0,2,0,0,0,0,0	89.0	35.0	0.395	0,0,0,0,0,0,1,2,3	to_board	s595
379.304	1.17	0	PA_without_intermediate	3,0,0,0,0,0,1,0,0	test	ward_and_allport	3,1,0,2,0,0,0,0,0	82.0	35.0	1.17	0,0,0,0,0,0,1,2,3	to_hand	s595
380.476	0.276	0	PA_without_intermediate	3,0,0,2,0,0,1,0,0	test	ward_and_allport	3,1,0,2,0,0,0,0,0	71.0	35.0	0.276	0,0,0,0,0,0,1,2,3	to_board	s595
380.764	0.701	0	PA_without_intermediate	3,0,0,2,0,0,0,0,0	test	ward_and_allport	3,1,0,2,0,0,0,0,0	82.0	35.0	0.701	0,0,0,0,0,0,1,2,3	to_hand	s595
381.467	0.319	0	PA_without_intermediate	3,1,0,2,0,0,0,0,0	test	ward_and_allport	3,1,0,2,0,0,0,0,0	89.0	35.0	0.319	0,0,0,0,0,0,1,2,3	to_board	s595
381.798	1.0	0	PA_without_intermediate	n/a	test	ward_and_allport	n/a	-1.0	35.0	n/a	n/a	feedback	s595
382.798	1.68	0	PA_without_intermediate	n/a	test	ward_and_allport	n/a	-1.0	35.0	n/a	n/a	ITI	s595
384.489	5.183	1	PA_without_intermediate	0,0,0,0,0,0,1,2,0	test	ward_and_allport	1,0,0,3,2,0,0,0,0	82.0	36.0	5.183	0,0,0,0,0,0,1,2,3	to_hand	s595
389.674	0.249	0	PA_without_intermediate	0,0,0,3,0,0,1,2,0	test	ward_and_allport	1,0,0,3,2,0,0,0,0	71.0	36.0	0.249	0,0,0,0,0,0,1,2,3	to_board	s595
389.931	0.666	0	PA_without_intermediate	0,0,0,3,0,0,1,0,0	test	ward_and_allport	1,0,0,3,2,0,0,0,0	82.0	36.0	0.666	0,0,0,0,0,0,1,2,3	to_hand	s595
390.599	0.248	0	PA_without_intermediate	0,0,0,3,2,0,1,0,0	test	ward_and_allport	1,0,0,3,2,0,0,0,0	71.0	36.0	0.248	0,0,0,0,0,0,1,2,3	to_board	s595
390.859	0.529	0	PA_without_intermediate	0,0,0,3,2,0,0,0,0	test	ward_and_allport	1,0,0,3,2,0,0,0,0	82.0	36.0	0.529	0,0,0,0,0,0,1,2,3	to_hand	s595
391.388	0.265	0	PA_without_intermediate	1,0,0,3,2,0,0,0,0	test	ward_and_allport	1,0,0,3,2,0,0,0,0	89.0	36.0	0.265	0,0,0,0,0,0,1,2,3	to_board	s595
391.667	1.0	0	PA_without_intermediate	n/a	test	ward_and_allport	n/a	-1.0	36.0	n/a	n/a	feedback	s595
392.667	2.088	0	PA_without_intermediate	n/a	test	ward_and_allport	n/a	-1.0	36.0	n/a	n/a	ITI	s595
394.767	4.008	1	PA_with_intermediate	1,2,0,0,0,0,0,0,0	test	ward_and_allport	1,3,0,0,0,0,2,0,0	89.0	37.0	4.008	1,2,3,0,0,0,0,0,0	to_hand	s595
398.776	0.233	0	PA_with_intermediate	1,2,0,3,0,0,0,0,0	test	ward_and_allport	1,3,0,0,0,0,2,0,0	71.0	37.0	0.233	1,2,3,0,0,0,0,0,0	to_board	s595
399.021	0.385	0	PA_with_intermediate	1,0,0,3,0,0,0,0,0	test	ward_and_allport	1,3,0,0,0,0,2,0,0	89.0	37.0	0.385	1,2,3,0,0,0,0,0,0	to_hand	s595
399.408	0.252	0	PA_with_intermediate	1,0,0,3,0,0,2,0,0	test	ward_and_allport	1,3,0,0,0,0,2,0,0	82.0	37.0	0.252	1,2,3,0,0,0,0,0,0	to_board	s595
399.671	0.384	0	PA_with_intermediate	1,0,0,0,0,0,2,0,0	test	ward_and_allport	1,3,0,0,0,0,2,0,0	71.0	37.0	0.384	1,2,3,0,0,0,0,0,0	to_hand	s595
400.056	0.243	0	PA_with_intermediate	1,3,0,0,0,0,2,0,0	test	ward_and_allport	1,3,0,0,0,0,2,0,0	89.0	37.0	0.243	1,2,3,0,0,0,0,0,0	to_board	s595
400.312	1.0	0	PA_with_intermediate	n/a	test	ward_and_allport	n/a	-1.0	37.0	n/a	n/a	feedback	s595
401.312	1.0	0	PA_with_intermediate	n/a	test	ward_and_allport	n/a	-1.0	37.0	n/a	n/a	ITI	s595
402.321	6.422	1	PA_without_intermediate	0,0,0,1,2,0,0,0,0	test	ward_and_allport	1,0,0,0,0,0,3,2,0	71.0	38.0	6.422	0,0,0,1,2,3,0,0,0	to_hand	s595
408.744	0.294	0	PA_without_intermediate	0,0,0,1,2,0,3,0,0	test	ward_and_allport	1,0,0,0,0,0,3,2,0	82.0	38.0	0.294	0,0,0,1,2,3,0,0,0	to_board	s595
409.046	0.283	0	PA_without_intermediate	0,0,0,1,0,0,3,0,0	test	ward_and_allport	1,0,0,0,0,0,3,2,0	71.0	38.0	0.283	0,0,0,1,2,3,0,0,0	to_hand	s595
409.332	0.278	0	PA_without_intermediate	0,0,0,1,0,0,3,2,0	test	ward_and_allport	1,0,0,0,0,0,3,2,0	82.0	38.0	0.278	0,0,0,1,2,3,0,0,0	to_board	s595
409.621	0.279	0	PA_without_intermediate	0,0,0,0,0,0,3,2,0	test	ward_and_allport	1,0,0,0,0,0,3,2,0	71.0	38.0	0.279	0,0,0,1,2,3,0,0,0	to_hand	s595
409.901	0.263	0	PA_without_intermediate	1,0,0,0,0,0,3,2,0	test	ward_and_allport	1,0,0,0,0,0,3,2,0	89.0	38.0	0.263	0,0,0,1,2,3,0,0,0	to_board	s595
410.179	1.0	0	PA_without_intermediate	n/a	test	ward_and_allport	n/a	-1.0	38.0	n/a	n/a	feedback	s595
411.179	1.0	0	PA_without_intermediate	n/a	test	ward_and_allport	n/a	-1.0	38.0	n/a	n/a	ITI	s595
412.192	4.116	1	PA_without_intermediate	0,0,0,1,2,0,0,0,0	test	ward_and_allport	3,2,0,0,0,0,1,0,0	71.0	39.0	4.116	0,0,0,1,2,3,0,0,0	to_hand	s595
416.309	0.242	0	PA_without_intermediate	3,0,0,1,2,0,0,0,0	test	ward_and_allport	3,2,0,0,0,0,1,0,0	89.0	39.0	0.242	0,0,0,1,2,3,0,0,0	to_board	s595
416.563	0.294	0	PA_without_intermediate	3,0,0,1,0,0,0,0,0	test	ward_and_allport	3,2,0,0,0,0,1,0,0	71.0	39.0	0.294	0,0,0,1,2,3,0,0,0	to_hand	s595
416.857	0.308	0	PA_without_intermediate	3,2,0,1,0,0,0,0,0	test	ward_and_allport	3,2,0,0,0,0,1,0,0	89.0	39.0	0.308	0,0,0,1,2,3,0,0,0	to_board	s595
417.18	0.374	0	PA_without_intermediate	3,2,0,0,0,0,0,0,0	test	ward_and_allport	3,2,0,0,0,0,1,0,0	71.0	39.0	0.374	0,0,0,1,2,3,0,0,0	to_hand	s595
417.554	0.232	0	PA_without_intermediate	3,2,0,0,0,0,1,0,0	test	ward_and_allport	3,2,0,0,0,0,1,0,0	82.0	39.0	0.232	0,0,0,1,2,3,0,0,0	to_board	s595
417.796	1.0	0	PA_without_intermediate	n/a	test	ward_and_allport	n/a	-1.0	39.0	n/a	n/a	feedback	s595
418.796	1.0	0	PA_without_intermediate	n/a	test	ward_and_allport	n/a	-1.0	39.0	n/a	n/a	ITI	s595
419.804	3.983	1	PA_with_intermediate	0,0,0,0,0,0,1,2,0	test	ward_and_allport	0,0,0,2,0,0,1,3,0	82.0	40.0	3.983	0,0,0,0,0,0,1,2,3	to_hand	s595
423.788	0.281	0	PA_with_intermediate	3,0,0,0,0,0,1,2,0	test	ward_and_allport	0,0,0,2,0,0,1,3,0	89.0	40.0	0.281	0,0,0,0,0,0,1,2,3	to_board	s595
424.077	0.516	0	PA_with_intermediate	3,0,0,0,0,0,1,0,0	test	ward_and_allport	0,0,0,2,0,0,1,3,0	82.0	40.0	0.516	0,0,0,0,0,0,1,2,3	to_hand	s595
424.594	0.23	0	PA_with_intermediate	3,0,0,2,0,0,1,0,0	test	ward_and_allport	0,0,0,2,0,0,1,3,0	71.0	40.0	0.23	0,0,0,0,0,0,1,2,3	to_board	s595
424.835	0.472	0	PA_with_intermediate	0,0,0,2,0,0,1,0,0	test	ward_and_allport	0,0,0,2,0,0,1,3,0	89.0	40.0	0.472	0,0,0,0,0,0,1,2,3	to_hand	s595
425.308	0.247	0	PA_with_intermediate	0,0,0,2,0,0,1,3,0	test	ward_and_allport	0,0,0,2,0,0,1,3,0	82.0	40.0	0.247	0,0,0,0,0,0,1,2,3	to_board	s595
425.567	1.0	0	PA_with_intermediate	n/a	test	ward_and_allport	n/a	-1.0	40.0	n/a	n/a	feedback	s595
426.567	1.544	0	PA_with_intermediate	n/a	test	ward_and_allport	n/a	-1.0	40.0	n/a	n/a	ITI	s595
428.122	3.028	1	PA_without_intermediate	1,2,0,0,0,0,0,0,0	test	ward_and_allport	0,0,0,3,2,0,1,0,0	89.0	41.0	3.028	1,2,3,0,0,0,0,0,0	to_hand	s595
431.152	0.19	0	PA_without_intermediate	1,2,0,3,0,0,0,0,0	test	ward_and_allport	0,0,0,3,2,0,1,0,0	71.0	41.0	0.19	1,2,3,0,0,0,0,0,0	to_board	s595
431.354	0.258	0	PA_without_intermediate	1,0,0,3,0,0,0,0,0	test	ward_and_allport	0,0,0,3,2,0,1,0,0	89.0	41.0	0.258	1,2,3,0,0,0,0,0,0	to_hand	s595
431.614	0.263	0	PA_without_intermediate	1,0,0,3,2,0,0,0,0	test	ward_and_allport	0,0,0,3,2,0,1,0,0	71.0	41.0	0.263	1,2,3,0,0,0,0,0,0	to_board	s595
431.89	0.435	0	PA_without_intermediate	0,0,0,3,2,0,0,0,0	test	ward_and_allport	0,0,0,3,2,0,1,0,0	89.0	41.0	0.435	1,2,3,0,0,0,0,0,0	to_hand	s595
432.327	0.189	0	PA_without_intermediate	0,0,0,3,2,0,1,0,0	test	ward_and_allport	0,0,0,3,2,0,1,0,0	82.0	41.0	0.189	1,2,3,0,0,0,0,0,0	to_board	s595
432.527	1.0	0	PA_without_intermediate	n/a	test	ward_and_allport	n/a	-1.0	41.0	n/a	n/a	feedback	s595
433.527	1.272	0	PA_without_intermediate	n/a	test	ward_and_allport	n/a	-1.0	41.0	n/a	n/a	ITI	s595
434.807	3.507	1	PA_with_intermediate	1,2,0,0,0,0,0,0,0	test	ward_and_allport	1,0,0,0,0,0,2,3,0	89.0	42.0	3.507	1,2,3,0,0,0,0,0,0	to_hand	s595
438.315	0.215	0	PA_with_intermediate	1,2,0,3,0,0,0,0,0	test	ward_and_allport	1,0,0,0,0,0,2,3,0	71.0	42.0	0.215	1,2,3,0,0,0,0,0,0	to_board	s595
438.538	0.323	0	PA_with_intermediate	1,0,0,3,0,0,0,0,0	test	ward_and_allport	1,0,0,0,0,0,2,3,0	89.0	42.0	0.323	1,2,3,0,0,0,0,0,0	to_hand	s595
438.862	0.338	0	PA_with_intermediate	1,0,0,3,0,0,2,0,0	test	ward_and_allport	1,0,0,0,0,0,2,3,0	82.0	42.0	0.338	1,2,3,0,0,0,0,0,0	to_board	s595
439.211	0.544	0	PA_with_intermediate	1,0,0,0,0,0,2,0,0	test	ward_and_allport	1,0,0,0,0,0,2,3,0	71.0	42.0	0.544	1,2,3,0,0,0,0,0,0	to_hand	s595
439.757	0.216	0	PA_with_intermediate	1,0,0,0,0,0,2,3,0	test	ward_and_allport	1,0,0,0,0,0,2,3,0	82.0	42.0	0.216	1,2,3,0,0,0,0,0,0	to_board	s595
439.986	1.0	0	PA_with_intermediate	n/a	test	ward_and_allport	n/a	-1.0	42.0	n/a	n/a	feedback	s595
440.986	3.04	0	PA_with_intermediate	n/a	test	ward_and_allport	n/a	-1.0	42.0	n/a	n/a	ITI	s595
444.035	4.22	1	PA_with_intermediate	1,2,0,0,0,0,0,0,0	test	ward_and_allport	1,3,0,2,0,0,0,0,0	89.0	43.0	4.22	1,2,3,0,0,0,0,0,0	to_hand	s595
448.256	0.232	0	PA_with_intermediate	1,2,0,0,0,0,3,0,0	test	ward_and_allport	1,3,0,2,0,0,0,0,0	82.0	43.0	0.232	1,2,3,0,0,0,0,0,0	to_board	s595
448.497	0.327	0	PA_with_intermediate	1,0,0,0,0,0,3,0,0	test	ward_and_allport	1,3,0,2,0,0,0,0,0	89.0	43.0	0.327	1,2,3,0,0,0,0,0,0	to_hand	s595
448.825	0.26	0	PA_with_intermediate	1,0,0,2,0,0,3,0,0	test	ward_and_allport	1,3,0,2,0,0,0,0,0	71.0	43.0	0.26	1,2,3,0,0,0,0,0,0	to_board	s595
449.096	0.539	0	PA_with_intermediate	1,0,0,2,0,0,0,0,0	test	ward_and_allport	1,3,0,2,0,0,0,0,0	82.0	43.0	0.539	1,2,3,0,0,0,0,0,0	to_hand	s595
449.635	0.2	0	PA_with_intermediate	1,3,0,2,0,0,0,0,0	test	ward_and_allport	1,3,0,2,0,0,0,0,0	89.0	43.0	0.2	1,2,3,0,0,0,0,0,0	to_board	s595
449.856	1.0	0	PA_with_intermediate	n/a	test	ward_and_allport	n/a	-1.0	43.0	n/a	n/a	feedback	s595
450.856	1.272	0	PA_with_intermediate	n/a	test	ward_and_allport	n/a	-1.0	43.0	n/a	n/a	ITI	s595
452.137	3.72	1	PA_with_intermediate	1,2,0,0,0,0,0,0,0	test	ward_and_allport	1,3,0,2,0,0,0,0,0	89.0	44.0	3.72	1,2,3,0,0,0,0,0,0	to_hand	s595
455.859	0.205	0	PA_with_intermediate	1,2,0,0,0,0,3,0,0	test	ward_and_allport	1,3,0,2,0,0,0,0,0	82.0	44.0	0.205	1,2,3,0,0,0,0,0,0	to_board	s595
456.073	0.669	0	PA_with_intermediate	1,0,0,0,0,0,3,0,0	test	ward_and_allport	1,3,0,2,0,0,0,0,0	89.0	44.0	0.669	1,2,3,0,0,0,0,0,0	to_hand	s595
456.744	0.223	0	PA_with_intermediate	1,0,0,2,0,0,3,0,0	test	ward_and_allport	1,3,0,2,0,0,0,0,0	71.0	44.0	0.223	1,2,3,0,0,0,0,0,0	to_board	s595
456.977	0.597	0	PA_with_intermediate	1,0,0,2,0,0,0,0,0	test	ward_and_allport	1,3,0,2,0,0,0,0,0	82.0	44.0	0.597	1,2,3,0,0,0,0,0,0	to_hand	s595
457.576	0.192	0	PA_with_intermediate	1,3,0,2,0,0,0,0,0	test	ward_and_allport	1,3,0,2,0,0,0,0,0	89.0	44.0	0.192	1,2,3,0,0,0,0,0,0	to_board	s595
457.784	1.0	0	PA_with_intermediate	n/a	test	ward_and_allport	n/a	-1.0	44.0	n/a	n/a	feedback	s595
458.784	1.136	0	PA_with_intermediate	n/a	test	ward_and_allport	n/a	-1.0	44.0	n/a	n/a	ITI	s595
464.936	8.375	1	PA_with_intermediate	1,2,0,0,0,0,0,0,0	test	ward_and_allport	1,0,0,2,3,0,0,0,0	89.0	45.0	8.375	1,2,3,0,0,0,0,0,0	to_hand	s595
473.312	0.242	0	PA_with_intermediate	1,2,0,0,0,0,3,0,0	test	ward_and_allport	1,0,0,2,3,0,0,0,0	82.0	45.0	0.242	1,2,3,0,0,0,0,0,0	to_board	s595
473.567	0.287	0	PA_with_intermediate	1,0,0,0,0,0,3,0,0	test	ward_and_allport	1,0,0,2,3,0,0,0,0	89.0	45.0	0.287	1,2,3,0,0,0,0,0,0	to_hand	s595
473.855	0.284	0	PA_with_intermediate	1,0,0,2,0,0,3,0,0	test	ward_and_allport	1,0,0,2,3,0,0,0,0	71.0	45.0	0.284	1,2,3,0,0,0,0,0,0	to_board	s595
474.152	0.273	0	PA_with_intermediate	1,0,0,2,0,0,0,0,0	test	ward_and_allport	1,0,0,2,3,0,0,0,0	82.0	45.0	0.273	1,2,3,0,0,0,0,0,0	to_hand	s595
474.426	0.21	0	PA_with_intermediate	1,0,0,2,3,0,0,0,0	test	ward_and_allport	1,0,0,2,3,0,0,0,0	71.0	45.0	0.21	1,2,3,0,0,0,0,0,0	to_board	s595
474.651	1.0	0	PA_with_intermediate	n/a	test	ward_and_allport	n/a	-1.0	45.0	n/a	n/a	feedback	s595
475.651	1.0	0	PA_with_intermediate	n/a	test	ward_and_allport	n/a	-1.0	45.0	n/a	n/a	ITI	s595
476.664	4.802	1	PA_with_intermediate	0,0,0,1,2,0,0,0,0	test	ward_and_allport	0,0,0,1,3,0,2,0,0	71.0	46.0	4.802	0,0,0,1,2,3,0,0,0	to_hand	s595
481.468	0.264	0	PA_with_intermediate	3,0,0,1,2,0,0,0,0	test	ward_and_allport	0,0,0,1,3,0,2,0,0	89.0	46.0	0.264	0,0,0,1,2,3,0,0,0	to_board	s595
481.746	0.238	0	PA_with_intermediate	3,0,0,1,0,0,0,0,0	test	ward_and_allport	0,0,0,1,3,0,2,0,0	71.0	46.0	0.238	0,0,0,1,2,3,0,0,0	to_hand	s595
481.986	0.248	0	PA_with_intermediate	3,0,0,1,0,0,2,0,0	test	ward_and_allport	0,0,0,1,3,0,2,0,0	82.0	46.0	0.248	0,0,0,1,2,3,0,0,0	to_board	s595
482.248	0.331	0	PA_with_intermediate	0,0,0,1,0,0,2,0,0	test	ward_and_allport	0,0,0,1,3,0,2,0,0	89.0	46.0	0.331	0,0,0,1,2,3,0,0,0	to_hand	s595
482.581	0.185	0	PA_with_intermediate	0,0,0,1,3,0,2,0,0	test	ward_and_allport	0,0,0,1,3,0,2,0,0	71.0	46.0	0.185	0,0,0,1,2,3,0,0,0	to_board	s595
482.78	1.0	0	PA_with_intermediate	n/a	test	ward_and_allport	n/a	-1.0	46.0	n/a	n/a	feedback	s595
483.78	1.0	0	PA_with_intermediate	n/a	test	ward_and_allport	n/a	-1.0	46.0	n/a	n/a	ITI	s595
484.788	3.142	1	PA_without_intermediate	0,0,0,1,2,0,0,0,0	test	ward_and_allport	2,0,0,0,0,0,3,1,0	71.0	47.0	3.142	0,0,0,1,2,3,0,0,0	to_hand	s595
487.932	0.235	0	PA_without_intermediate	0,0,0,1,2,0,3,0,0	test	ward_and_allport	2,0,0,0,0,0,3,1,0	82.0	47.0	0.235	0,0,0,1,2,3,0,0,0	to_board	s595
488.176	0.285	0	PA_without_intermediate	0,0,0,1,0,0,3,0,0	test	ward_and_allport	2,0,0,0,0,0,3,1,0	71.0	47.0	0.285	0,0,0,1,2,3,0,0,0	to_hand	s595
488.463	0.276	0	PA_without_intermediate	2,0,0,1,0,0,3,0,0	test	ward_and_allport	2,0,0,0,0,0,3,1,0	89.0	47.0	0.276	0,0,0,1,2,3,0,0,0	to_board	s595
488.75	0.335	0	PA_without_intermediate	2,0,0,0,0,0,3,0,0	test	ward_and_allport	2,0,0,0,0,0,3,1,0	71.0	47.0	0.335	0,0,0,1,2,3,0,0,0	to_hand	s595
489.086	0.248	0	PA_without_intermediate	2,0,0,0,0,0,3,1,0	test	ward_and_allport	2,0,0,0,0,0,3,1,0	82.0	47.0	0.248	0,0,0,1,2,3,0,0,0	to_board	s595
489.348	1.0	0	PA_without_intermediate	n/a	test	ward_and_allport	n/a	-1.0	47.0	n/a	n/a	feedback	s595
490.348	1.408	0	PA_without_intermediate	n/a	test	ward_and_allport	n/a	-1.0	47.0	n/a	n/a	ITI	s595
n/a	n/a	0	n/a	n/a	n/a	n/a	n/a	n/a	n/a	n/a	n/a	ITI	n/a
