onset	duration	CTI	correct	correct_response	cue	cue_switch	experiment_exp_id	key_press	response_time	stim_color	stim_number	switch_type	task_type	task_switch	worker_id	first_trial_of_block
3.608	1.0	0.1	True	89.0	Orange-Blue	switch	twobytwo	89.0	1.152	blue	2.0	cue_switch	color	stay	s635	1
6.647	1.0	0.9	True	89.0	High-Low	n/a	twobytwo	89.0	0.505	blue	1.0	task_switch	magnitude	switch	s635	0
9.022	1.0	0.1	False	71.0	Orange-Blue	n/a	twobytwo	89.0	0.914	orange	2.0	task_switch	color	switch	s635	0
12.062	1.0	0.9	True	89.0	Orange-Blue	stay	twobytwo	89.0	0.614	blue	1.0	cue_stay	color	stay	s635	0
15.236	1.0	0.9	True	71.0	Magnitude	n/a	twobytwo	71.0	0.503	orange	8.0	task_switch	magnitude	switch	s635	0
18.139	1.0	0.9	True	71.0	Magnitude	stay	twobytwo	71.0	0.519	blue	7.0	cue_stay	magnitude	stay	s635	0
21.058	1.0	0.1	True	71.0	High-Low	switch	twobytwo	71.0	0.881	blue	8.0	cue_switch	magnitude	stay	s635	0
24.369	1.0	0.9	True	71.0	High-Low	stay	twobytwo	71.0	0.442	blue	9.0	cue_stay	magnitude	stay	s635	0
27.271	1.0	0.9	True	71.0	High-Low	stay	twobytwo	71.0	0.555	orange	6.0	cue_stay	magnitude	stay	s635	0
30.718	1.0	0.9	True	71.0	Orange-Blue	n/a	twobytwo	71.0	0.425	orange	8.0	task_switch	color	switch	s635	0
32.957	1.0	0.1	True	89.0	High-Low	n/a	twobytwo	89.0	0.919	blue	1.0	task_switch	magnitude	switch	s635	0
35.06	1.0	0.1	True	71.0	High-Low	stay	twobytwo	71.0	0.951	orange	6.0	cue_stay	magnitude	stay	s635	0
37.963	1.0	0.9	True	89.0	Magnitude	switch	twobytwo	89.0	1.127	orange	4.0	cue_switch	magnitude	stay	s635	0
41.002	1.0	0.9	True	71.0	Magnitude	stay	twobytwo	71.0	0.697	orange	9.0	cue_stay	magnitude	stay	s635	0
43.241	1.0	0.1	False	89.0	Orange-Blue	n/a	twobytwo	71.0	0.847	blue	6.0	task_switch	color	switch	s635	0
45.615	1.0	0.1	True	89.0	Color	switch	twobytwo	89.0	1.52	blue	9.0	cue_switch	color	stay	s635	0
48.942	1.0	0.1	True	89.0	Orange-Blue	switch	twobytwo	89.0	0.703	blue	8.0	cue_switch	color	stay	s635	0
51.844	1.0	0.9	True	71.0	High-Low	n/a	twobytwo	71.0	0.716	blue	9.0	task_switch	magnitude	switch	s635	0
54.746	1.0	0.9	False	89.0	Color	n/a	twobytwo	71.0	0.884	blue	9.0	task_switch	color	switch	s635	0
57.922	1.0	0.9	True	89.0	Magnitude	n/a	twobytwo	89.0	1.214	orange	3.0	task_switch	magnitude	switch	s635	0
60.96	1.0	0.9	True	71.0	High-Low	switch	twobytwo	71.0	0.649	orange	7.0	cue_switch	magnitude	stay	s635	0
63.063	1.0	0.1	True	89.0	High-Low	stay	twobytwo	89.0	1.049	orange	2.0	cue_stay	magnitude	stay	s635	0
65.965	1.0	0.9	True	89.0	High-Low	stay	twobytwo	89.0	0.744	blue	2.0	cue_stay	magnitude	stay	s635	0
68.068	1.0	0.1	True	89.0	High-Low	stay	twobytwo	89.0	0.867	blue	3.0	cue_stay	magnitude	stay	s635	0
71.65	1.0	0.9	True	89.0	Orange-Blue	n/a	twobytwo	89.0	0.757	blue	3.0	task_switch	color	switch	s635	0
74.552	1.0	0.9	True	89.0	High-Low	n/a	twobytwo	89.0	0.643	blue	2.0	task_switch	magnitude	switch	s635	0
77.727	1.0	0.9	True	89.0	Color	n/a	twobytwo	89.0	0.655	blue	2.0	task_switch	color	switch	s635	0
80.629	1.0	0.9	True	89.0	Orange-Blue	switch	twobytwo	89.0	0.668	blue	2.0	cue_switch	color	stay	s635	0
83.004	1.0	0.1	True	71.0	Color	switch	twobytwo	71.0	0.913	orange	7.0	cue_switch	color	stay	s635	0
86.858	1.0	0.9	True	89.0	Magnitude	n/a	twobytwo	89.0	0.749	blue	3.0	task_switch	magnitude	switch	s635	0
88.961	1.0	0.1	True	71.0	High-Low	switch	twobytwo	71.0	1.132	orange	8.0	cue_switch	magnitude	stay	s635	0
91.863	1.0	0.9	True	89.0	Orange-Blue	n/a	twobytwo	89.0	0.666	blue	8.0	task_switch	color	switch	s635	0
94.766	1.0	0.9	False	89.0	Orange-Blue	stay	twobytwo	-1.0	n/a	blue	4.0	cue_stay	color	stay	s635	0
96.868	1.0	0.1	True	71.0	Color	switch	twobytwo	71.0	0.997	orange	1.0	cue_switch	color	stay	s635	0
99.107	1.0	0.1	True	71.0	High-Low	n/a	twobytwo	71.0	0.875	blue	9.0	task_switch	magnitude	switch	s635	0
102.009	1.0	0.9	True	71.0	Color	n/a	twobytwo	71.0	0.831	orange	7.0	task_switch	color	switch	s635	0
104.912	1.0	0.9	True	71.0	Orange-Blue	switch	twobytwo	71.0	0.534	orange	6.0	cue_switch	color	stay	s635	0
107.015	1.0	0.1	True	89.0	High-Low	n/a	twobytwo	89.0	0.752	blue	2.0	task_switch	magnitude	switch	s635	0
110.189	1.0	0.9	True	89.0	Color	n/a	twobytwo	89.0	0.694	blue	3.0	task_switch	color	switch	s635	0
113.228	1.0	0.9	True	89.0	High-Low	n/a	twobytwo	89.0	0.53	blue	3.0	task_switch	magnitude	switch	s635	0
116.131	1.0	0.9	True	71.0	Orange-Blue	n/a	twobytwo	71.0	0.511	orange	8.0	task_switch	color	switch	s635	0
119.169	1.0	0.9	True	71.0	High-Low	n/a	twobytwo	71.0	1.073	orange	7.0	task_switch	magnitude	switch	s635	0
122.088	1.0	0.1	True	71.0	Magnitude	switch	twobytwo	71.0	0.757	orange	7.0	cue_switch	magnitude	stay	s635	0
124.599	1.0	0.1	False	89.0	Color	n/a	twobytwo	-1.0	n/a	blue	1.0	task_switch	color	switch	s635	0
126.701	1.0	0.1	False	89.0	Magnitude	n/a	twobytwo	-1.0	n/a	orange	2.0	task_switch	magnitude	switch	s635	0
128.942	1.0	0.1	False	71.0	Magnitude	stay	twobytwo	-1.0	n/a	blue	7.0	cue_stay	magnitude	stay	s635	0
131.18	1.0	0.1	True	71.0	High-Low	switch	twobytwo	71.0	0.889	blue	7.0	cue_switch	magnitude	stay	s635	0
134.219	1.0	0.9	False	89.0	Orange-Blue	n/a	twobytwo	71.0	0.659	blue	9.0	task_switch	color	switch	s635	0
136.866	1.0	0.1	True	89.0	Magnitude	n/a	twobytwo	89.0	0.824	blue	2.0	task_switch	magnitude	switch	s635	0
139.904	1.0	0.9	True	89.0	Color	n/a	twobytwo	89.0	1.071	blue	3.0	task_switch	color	switch	s635	0
142.006	1.0	0.1	False	89.0	High-Low	n/a	twobytwo	-1.0	n/a	blue	1.0	task_switch	magnitude	switch	s635	0
144.91	1.0	0.9	True	71.0	High-Low	stay	twobytwo	71.0	0.603	blue	8.0	cue_stay	magnitude	stay	s635	0
147.013	1.0	0.1	True	89.0	Orange-Blue	n/a	twobytwo	89.0	1.06	blue	8.0	task_switch	color	switch	s635	0
149.115	1.0	0.1	True	89.0	High-Low	n/a	twobytwo	89.0	1.184	orange	2.0	task_switch	magnitude	switch	s635	0
151.354	1.0	0.1	False	71.0	Magnitude	switch	twobytwo	-1.0	n/a	blue	8.0	cue_switch	magnitude	stay	s635	0
154.257	1.0	0.9	True	71.0	High-Low	switch	twobytwo	71.0	1.537	orange	9.0	cue_switch	magnitude	stay	s635	0
156.36	1.0	0.1	True	71.0	High-Low	stay	twobytwo	71.0	1.195	blue	7.0	cue_stay	magnitude	stay	s635	0
159.263	1.0	0.9	False	71.0	Color	n/a	twobytwo	-1.0	n/a	orange	2.0	task_switch	color	switch	s635	0
162.302	1.0	0.9	False	71.0	Magnitude	n/a	twobytwo	-1.0	n/a	orange	7.0	task_switch	magnitude	switch	s635	0
165.34	1.0	0.9	True	71.0	Magnitude	stay	twobytwo	71.0	0.586	orange	7.0	cue_stay	magnitude	stay	s635	0
167.579	1.0	0.1	False	89.0	Color	n/a	twobytwo	-1.0	n/a	blue	1.0	task_switch	color	switch	s635	0
170.618	1.0	0.9	False	89.0	Color	stay	twobytwo	71.0	0.609	blue	9.0	cue_stay	color	stay	s635	0
174.201	1.0	0.9	True	89.0	Orange-Blue	switch	twobytwo	89.0	0.855	blue	3.0	cue_switch	color	stay	s635	0
177.648	1.0	0.9	True	89.0	Color	switch	twobytwo	89.0	1.453	blue	1.0	cue_switch	color	stay	s635	0
180.823	1.0	0.9	True	89.0	Orange-Blue	switch	twobytwo	89.0	0.775	blue	7.0	cue_switch	color	stay	s635	0
183.197	1.0	0.1	False	89.0	Magnitude	n/a	twobytwo	-1.0	n/a	blue	4.0	task_switch	magnitude	switch	s635	0
186.508	1.0	0.9	False	89.0	Magnitude	stay	twobytwo	-1.0	n/a	orange	1.0	cue_stay	magnitude	stay	s635	0
188.748	1.0	0.1	False	89.0	Orange-Blue	n/a	twobytwo	-1.0	n/a	blue	3.0	task_switch	color	switch	s635	0
191.922	1.0	0.9	True	71.0	Color	switch	twobytwo	71.0	0.934	orange	6.0	cue_switch	color	stay	s635	0
194.825	1.0	0.9	False	89.0	Orange-Blue	switch	twobytwo	-1.0	n/a	blue	2.0	cue_switch	color	stay	s635	0
197.865	1.0	0.9	True	71.0	Orange-Blue	stay	twobytwo	71.0	0.875	orange	2.0	cue_stay	color	stay	s635	0
200.24	1.0	0.1	True	89.0	Magnitude	n/a	twobytwo	89.0	1.277	blue	4.0	task_switch	magnitude	switch	s635	0
203.143	1.0	0.9	True	71.0	Orange-Blue	n/a	twobytwo	71.0	1.582	orange	3.0	task_switch	color	switch	s635	0
206.726	1.0	0.9	False	89.0	Color	switch	twobytwo	-1.0	n/a	blue	7.0	cue_switch	color	stay	s635	0
208.828	1.0	0.1	False	71.0	Magnitude	n/a	twobytwo	-1.0	n/a	orange	9.0	task_switch	magnitude	switch	s635	0
210.931	1.0	0.1	True	71.0	Magnitude	stay	twobytwo	71.0	0.661	blue	9.0	cue_stay	magnitude	stay	s635	0
213.033	1.0	0.1	False	71.0	Orange-Blue	n/a	twobytwo	89.0	0.768	orange	2.0	task_switch	color	switch	s635	0
216.208	1.0	0.9	False	89.0	Magnitude	n/a	twobytwo	-1.0	n/a	blue	4.0	task_switch	magnitude	switch	s635	0
219.111	1.0	0.9	False	89.0	Orange-Blue	n/a	twobytwo	-1.0	n/a	blue	1.0	task_switch	color	switch	s635	0
222.014	1.0	0.9	True	89.0	Magnitude	n/a	twobytwo	89.0	0.622	blue	4.0	task_switch	magnitude	switch	s635	0
237.622	1.0	0.1	True	89.0	Orange-Blue	switch	twobytwo	89.0	1.369	blue	2.0	cue_switch	color	stay	s635	1
241.205	1.0	0.9	True	89.0	High-Low	n/a	twobytwo	89.0	0.476	blue	1.0	task_switch	magnitude	switch	s635	0
243.307	1.0	0.1	True	71.0	Orange-Blue	n/a	twobytwo	71.0	1.108	orange	2.0	task_switch	color	switch	s635	0
246.346	1.0	0.9	True	89.0	Orange-Blue	stay	twobytwo	89.0	0.555	blue	1.0	cue_stay	color	stay	s635	0
249.657	1.0	0.9	True	71.0	Magnitude	n/a	twobytwo	71.0	0.683	orange	8.0	task_switch	magnitude	switch	s635	0
252.695	1.0	0.9	True	71.0	Magnitude	stay	twobytwo	71.0	0.943	blue	7.0	cue_stay	magnitude	stay	s635	0
254.798	1.0	0.1	True	71.0	High-Low	switch	twobytwo	71.0	0.77	blue	8.0	cue_switch	magnitude	stay	s635	0
257.7	1.0	0.9	True	71.0	High-Low	stay	twobytwo	71.0	0.569	blue	9.0	cue_stay	magnitude	stay	s635	0
261.147	1.0	0.9	True	71.0	High-Low	stay	twobytwo	71.0	0.799	orange	6.0	cue_stay	magnitude	stay	s635	0
264.185	1.0	0.9	False	71.0	Orange-Blue	n/a	twobytwo	89.0	0.647	orange	8.0	task_switch	color	switch	s635	0
266.832	1.0	0.1	False	89.0	Magnitude	n/a	twobytwo	-1.0	n/a	blue	1.0	task_switch	magnitude	switch	s635	0
269.615	1.0	0.1	False	71.0	Magnitude	stay	twobytwo	-1.0	n/a	orange	6.0	cue_stay	magnitude	stay	s635	0
272.518	1.0	0.9	False	89.0	High-Low	switch	twobytwo	-1.0	n/a	orange	4.0	cue_switch	magnitude	stay	s635	0
275.692	1.0	0.9	True	71.0	High-Low	stay	twobytwo	71.0	0.463	orange	9.0	cue_stay	magnitude	stay	s635	0
278.883	1.0	0.1	False	89.0	Color	n/a	twobytwo	-1.0	n/a	blue	6.0	task_switch	color	switch	s635	0
280.986	1.0	0.1	False	89.0	Orange-Blue	switch	twobytwo	-1.0	n/a	blue	9.0	cue_switch	color	stay	s635	0
283.225	1.0	0.1	True	89.0	Color	switch	twobytwo	89.0	0.961	blue	8.0	cue_switch	color	stay	s635	0
286.264	1.0	0.9	False	71.0	High-Low	n/a	twobytwo	-1.0	n/a	blue	9.0	task_switch	magnitude	switch	s635	0
289.167	1.0	0.9	False	89.0	Orange-Blue	n/a	twobytwo	-1.0	n/a	blue	9.0	task_switch	color	switch	s635	0
292.342	1.0	0.9	True	89.0	Magnitude	n/a	twobytwo	89.0	0.837	orange	3.0	task_switch	magnitude	switch	s635	0
295.244	1.0	0.9	True	71.0	High-Low	switch	twobytwo	71.0	0.776	orange	7.0	cue_switch	magnitude	stay	s635	0
297.483	1.0	0.1	False	89.0	High-Low	stay	twobytwo	-1.0	n/a	orange	2.0	cue_stay	magnitude	stay	s635	0
300.521	1.0	0.9	False	89.0	High-Low	stay	twobytwo	-1.0	n/a	blue	2.0	cue_stay	magnitude	stay	s635	0
303.169	1.0	0.1	True	89.0	High-Low	stay	twobytwo	89.0	0.615	blue	3.0	cue_stay	magnitude	stay	s635	0
306.071	1.0	0.9	False	89.0	Orange-Blue	n/a	twobytwo	-1.0	n/a	blue	3.0	task_switch	color	switch	s635	0
309.11	1.0	0.9	False	89.0	High-Low	n/a	twobytwo	-1.0	n/a	blue	2.0	task_switch	magnitude	switch	s635	0
312.149	1.0	0.9	False	89.0	Orange-Blue	n/a	twobytwo	-1.0	n/a	blue	2.0	task_switch	color	switch	s635	0
315.187	1.0	0.9	True	89.0	Color	switch	twobytwo	89.0	0.746	blue	2.0	cue_switch	color	stay	s635	0
317.29	1.0	0.1	True	71.0	Orange-Blue	switch	twobytwo	71.0	1.115	orange	7.0	cue_switch	color	stay	s635	0
320.329	1.0	0.9	False	89.0	High-Low	n/a	twobytwo	-1.0	n/a	blue	3.0	task_switch	magnitude	switch	s635	0
322.432	1.0	0.1	False	71.0	Magnitude	switch	twobytwo	-1.0	n/a	orange	8.0	cue_switch	magnitude	stay	s635	0
325.47	1.0	0.9	True	89.0	Color	n/a	twobytwo	89.0	0.824	blue	8.0	task_switch	color	switch	s635	0
329.189	1.0	0.9	False	89.0	Color	stay	twobytwo	-1.0	n/a	blue	4.0	cue_stay	color	stay	s635	0
331.428	1.0	0.1	False	71.0	Orange-Blue	switch	twobytwo	-1.0	n/a	orange	1.0	cue_switch	color	stay	s635	0
333.531	1.0	0.1	False	71.0	High-Low	n/a	twobytwo	-1.0	n/a	blue	9.0	task_switch	magnitude	switch	s635	0
336.434	1.0	0.9	True	71.0	Orange-Blue	n/a	twobytwo	71.0	0.813	orange	7.0	task_switch	color	switch	s635	0
339.608	1.0	0.9	True	71.0	Color	switch	twobytwo	71.0	0.799	orange	6.0	cue_switch	color	stay	s635	0
341.711	1.0	0.1	True	89.0	High-Low	n/a	twobytwo	89.0	1.586	blue	2.0	task_switch	magnitude	switch	s635	0
344.614	1.0	0.9	False	89.0	Color	n/a	twobytwo	-1.0	n/a	blue	3.0	task_switch	color	switch	s635	0
347.516	1.0	0.9	False	89.0	Magnitude	n/a	twobytwo	-1.0	n/a	blue	3.0	task_switch	magnitude	switch	s635	0
350.827	1.0	0.9	False	71.0	Orange-Blue	n/a	twobytwo	-1.0	n/a	orange	8.0	task_switch	color	switch	s635	0
354.002	1.0	0.9	False	71.0	Magnitude	n/a	twobytwo	-1.0	n/a	orange	7.0	task_switch	magnitude	switch	s635	0
356.241	1.0	0.1	False	71.0	High-Low	switch	twobytwo	-1.0	n/a	orange	7.0	cue_switch	magnitude	stay	s635	0
358.344	1.0	0.1	False	89.0	Color	n/a	twobytwo	-1.0	n/a	blue	1.0	task_switch	color	switch	s635	0
360.446	1.0	0.1	False	89.0	Magnitude	n/a	twobytwo	-1.0	n/a	orange	2.0	task_switch	magnitude	switch	s635	0
362.685	1.0	0.1	False	71.0	Magnitude	stay	twobytwo	-1.0	n/a	blue	7.0	cue_stay	magnitude	stay	s635	0
364.788	1.0	0.1	False	71.0	High-Low	switch	twobytwo	-1.0	n/a	blue	7.0	cue_switch	magnitude	stay	s635	0
367.826	1.0	0.9	False	89.0	Orange-Blue	n/a	twobytwo	-1.0	n/a	blue	9.0	task_switch	color	switch	s635	0
370.337	1.0	0.1	False	89.0	Magnitude	n/a	twobytwo	-1.0	n/a	blue	2.0	task_switch	magnitude	switch	s635	0
373.376	1.0	0.9	False	89.0	Color	n/a	twobytwo	-1.0	n/a	blue	3.0	task_switch	color	switch	s635	0
375.478	1.0	0.1	False	89.0	Magnitude	n/a	twobytwo	-1.0	n/a	blue	1.0	task_switch	magnitude	switch	s635	0
378.517	1.0	0.9	False	71.0	Magnitude	stay	twobytwo	-1.0	n/a	blue	8.0	cue_stay	magnitude	stay	s635	0
380.892	1.0	0.1	False	89.0	Orange-Blue	n/a	twobytwo	-1.0	n/a	blue	8.0	task_switch	color	switch	s635	0
382.994	1.0	0.1	False	89.0	Magnitude	n/a	twobytwo	-1.0	n/a	orange	2.0	task_switch	magnitude	switch	s635	0
385.505	1.0	0.1	False	71.0	High-Low	switch	twobytwo	-1.0	n/a	blue	8.0	cue_switch	magnitude	stay	s635	0
388.408	1.0	0.9	False	71.0	Magnitude	switch	twobytwo	-1.0	n/a	orange	9.0	cue_switch	magnitude	stay	s635	0
390.647	1.0	0.1	False	71.0	Magnitude	stay	twobytwo	-1.0	n/a	blue	7.0	cue_stay	magnitude	stay	s635	0
393.958	1.0	0.9	False	71.0	Orange-Blue	n/a	twobytwo	-1.0	n/a	orange	2.0	task_switch	color	switch	s635	0
396.996	1.0	0.9	False	71.0	High-Low	n/a	twobytwo	-1.0	n/a	orange	7.0	task_switch	magnitude	switch	s635	0
400.307	1.0	0.9	False	71.0	High-Low	stay	twobytwo	-1.0	n/a	orange	7.0	cue_stay	magnitude	stay	s635	0
402.546	1.0	0.1	False	89.0	Color	n/a	twobytwo	-1.0	n/a	blue	1.0	task_switch	color	switch	s635	0
405.448	1.0	0.9	False	89.0	Color	stay	twobytwo	-1.0	n/a	blue	9.0	cue_stay	color	stay	s635	0
408.623	1.0	0.9	False	89.0	Orange-Blue	switch	twobytwo	-1.0	n/a	blue	3.0	cue_switch	color	stay	s635	0
411.526	1.0	0.9	False	89.0	Color	switch	twobytwo	-1.0	n/a	blue	1.0	cue_switch	color	stay	s635	0
414.701	1.0	0.9	False	89.0	Orange-Blue	switch	twobytwo	-1.0	n/a	blue	7.0	cue_switch	color	stay	s635	0
417.075	1.0	0.1	False	89.0	Magnitude	n/a	twobytwo	-1.0	n/a	blue	4.0	task_switch	magnitude	switch	s635	0
420.931	1.0	0.9	False	89.0	Magnitude	stay	twobytwo	-1.0	n/a	orange	1.0	cue_stay	magnitude	stay	s635	0
423.713	1.0	0.1	False	89.0	Orange-Blue	n/a	twobytwo	-1.0	n/a	blue	3.0	task_switch	color	switch	s635	0
426.752	1.0	0.9	False	71.0	Color	switch	twobytwo	-1.0	n/a	orange	6.0	cue_switch	color	stay	s635	0
429.927	1.0	0.9	False	89.0	Orange-Blue	switch	twobytwo	-1.0	n/a	blue	2.0	cue_switch	color	stay	s635	0
433.101	1.0	0.9	False	71.0	Orange-Blue	stay	twobytwo	-1.0	n/a	orange	2.0	cue_stay	color	stay	s635	0
435.34	1.0	0.1	False	89.0	Magnitude	n/a	twobytwo	-1.0	n/a	blue	4.0	task_switch	magnitude	switch	s635	0
438.651	1.0	0.9	False	71.0	Color	n/a	twobytwo	-1.0	n/a	orange	3.0	task_switch	color	switch	s635	0
441.69	1.0	0.9	False	89.0	Orange-Blue	switch	twobytwo	-1.0	n/a	blue	7.0	cue_switch	color	stay	s635	0
443.929	1.0	0.1	False	71.0	High-Low	n/a	twobytwo	-1.0	n/a	orange	9.0	task_switch	magnitude	switch	s635	0
446.032	1.0	0.1	False	71.0	High-Low	stay	twobytwo	-1.0	n/a	blue	9.0	cue_stay	magnitude	stay	s635	0
448.135	1.0	0.1	False	71.0	Orange-Blue	n/a	twobytwo	-1.0	n/a	orange	2.0	task_switch	color	switch	s635	0
451.038	1.0	0.9	False	89.0	Magnitude	n/a	twobytwo	-1.0	n/a	blue	4.0	task_switch	magnitude	switch	s635	0
453.942	1.0	0.9	False	89.0	Color	n/a	twobytwo	-1.0	n/a	blue	1.0	task_switch	color	switch	s635	0
456.845	1.0	0.9	False	89.0	Magnitude	n/a	twobytwo	-1.0	n/a	blue	4.0	task_switch	magnitude	switch	s635	0
472.724	1.0	0.1	False	89.0	Orange-Blue	switch	twobytwo	-1.0	n/a	blue	2.0	cue_switch	color	stay	s635	1
476.035	1.0	0.9	False	89.0	High-Low	n/a	twobytwo	-1.0	n/a	blue	1.0	task_switch	magnitude	switch	s635	0
478.138	1.0	0.1	False	71.0	Orange-Blue	n/a	twobytwo	-1.0	n/a	orange	2.0	task_switch	color	switch	s635	0
481.177	1.0	0.9	False	89.0	Orange-Blue	stay	twobytwo	-1.0	n/a	blue	1.0	cue_stay	color	stay	s635	0
484.079	1.0	0.9	False	71.0	High-Low	n/a	twobytwo	-1.0	n/a	orange	8.0	task_switch	magnitude	switch	s635	0
487.119	1.0	0.9	False	71.0	High-Low	stay	twobytwo	-1.0	n/a	blue	7.0	cue_stay	magnitude	stay	s635	0
489.765	1.0	0.1	False	71.0	Magnitude	switch	twobytwo	-1.0	n/a	blue	8.0	cue_switch	magnitude	stay	s635	0
493.349	1.0	0.9	False	71.0	Magnitude	stay	twobytwo	-1.0	n/a	blue	9.0	cue_stay	magnitude	stay	s635	0
497.34	1.0	0.9	False	71.0	Magnitude	stay	twobytwo	-1.0	n/a	orange	6.0	cue_stay	magnitude	stay	s635	0
500.378	1.0	0.9	True	71.0	Color	n/a	twobytwo	71.0	1.081	orange	8.0	task_switch	color	switch	s635	0
503.025	1.0	0.1	True	89.0	Magnitude	n/a	twobytwo	89.0	1.25	blue	1.0	task_switch	magnitude	switch	s635	0
505.128	1.0	0.1	True	71.0	Magnitude	stay	twobytwo	71.0	1.259	orange	6.0	cue_stay	magnitude	stay	s635	0
508.166	1.0	0.9	True	89.0	High-Low	switch	twobytwo	89.0	0.885	orange	4.0	cue_switch	magnitude	stay	s635	0
511.069	1.0	0.9	True	71.0	High-Low	stay	twobytwo	71.0	0.681	orange	9.0	cue_stay	magnitude	stay	s635	0
513.58	1.0	0.1	True	89.0	Orange-Blue	n/a	twobytwo	89.0	1.22	blue	6.0	task_switch	color	switch	s635	0
515.684	1.0	0.1	True	89.0	Color	switch	twobytwo	89.0	1.041	blue	9.0	cue_switch	color	stay	s635	0
517.787	1.0	0.1	True	89.0	Orange-Blue	switch	twobytwo	89.0	0.92	blue	8.0	cue_switch	color	stay	s635	0
520.69	1.0	0.9	True	71.0	High-Low	n/a	twobytwo	71.0	0.397	blue	9.0	task_switch	magnitude	switch	s635	0
524.273	1.0	0.9	False	89.0	Orange-Blue	n/a	twobytwo	71.0	0.647	blue	9.0	task_switch	color	switch	s635	0
527.447	1.0	0.9	False	89.0	High-Low	n/a	twobytwo	-1.0	n/a	orange	3.0	task_switch	magnitude	switch	s635	0
530.758	1.0	0.9	False	71.0	Magnitude	switch	twobytwo	-1.0	n/a	orange	7.0	cue_switch	magnitude	stay	s635	0
534.085	1.0	0.1	True	89.0	Magnitude	stay	twobytwo	89.0	0.716	orange	2.0	cue_stay	magnitude	stay	s635	0
537.396	1.0	0.9	True	89.0	Magnitude	stay	twobytwo	89.0	0.456	blue	2.0	cue_stay	magnitude	stay	s635	0
540.315	1.0	0.1	True	89.0	Magnitude	stay	twobytwo	89.0	0.595	blue	3.0	cue_stay	magnitude	stay	s635	0
543.625	1.0	0.9	True	89.0	Orange-Blue	n/a	twobytwo	89.0	0.538	blue	3.0	task_switch	color	switch	s635	0
546.664	1.0	0.9	True	89.0	Magnitude	n/a	twobytwo	89.0	1.168	blue	2.0	task_switch	magnitude	switch	s635	0
549.704	1.0	0.9	True	89.0	Orange-Blue	n/a	twobytwo	89.0	0.722	blue	2.0	task_switch	color	switch	s635	0
552.607	1.0	0.9	False	89.0	Color	switch	twobytwo	-1.0	n/a	blue	2.0	cue_switch	color	stay	s635	0
554.71	1.0	0.1	False	71.0	Orange-Blue	switch	twobytwo	-1.0	n/a	orange	7.0	cue_switch	color	stay	s635	0
557.885	1.0	0.9	False	89.0	Magnitude	n/a	twobytwo	-1.0	n/a	blue	3.0	task_switch	magnitude	switch	s635	0
560.396	1.0	0.1	False	71.0	High-Low	switch	twobytwo	-1.0	n/a	orange	8.0	cue_switch	magnitude	stay	s635	0
563.298	1.0	0.9	False	89.0	Color	n/a	twobytwo	-1.0	n/a	blue	8.0	task_switch	color	switch	s635	0
566.337	1.0	0.9	False	89.0	Color	stay	twobytwo	-1.0	n/a	blue	4.0	cue_stay	color	stay	s635	0
568.44	1.0	0.1	False	71.0	Orange-Blue	switch	twobytwo	-1.0	n/a	orange	1.0	cue_switch	color	stay	s635	0
570.951	1.0	0.1	False	71.0	Magnitude	n/a	twobytwo	-1.0	n/a	blue	9.0	task_switch	magnitude	switch	s635	0
574.127	1.0	0.9	True	71.0	Orange-Blue	n/a	twobytwo	71.0	1.286	orange	7.0	task_switch	color	switch	s635	0
577.029	1.0	0.9	True	71.0	Color	switch	twobytwo	71.0	0.929	orange	6.0	cue_switch	color	stay	s635	0
579.404	1.0	0.1	False	89.0	Magnitude	n/a	twobytwo	-1.0	n/a	blue	2.0	task_switch	magnitude	switch	s635	0
582.307	1.0	0.9	False	89.0	Orange-Blue	n/a	twobytwo	-1.0	n/a	blue	3.0	task_switch	color	switch	s635	0
585.21	1.0	0.9	False	89.0	Magnitude	n/a	twobytwo	-1.0	n/a	blue	3.0	task_switch	magnitude	switch	s635	0
588.386	1.0	0.9	True	71.0	Orange-Blue	n/a	twobytwo	71.0	0.817	orange	8.0	task_switch	color	switch	s635	0
591.426	1.0	0.9	True	71.0	High-Low	n/a	twobytwo	71.0	0.706	orange	7.0	task_switch	magnitude	switch	s635	0
593.529	1.0	0.1	False	71.0	Magnitude	switch	twobytwo	-1.0	n/a	orange	7.0	cue_switch	magnitude	stay	s635	0
595.631	1.0	0.1	False	89.0	Orange-Blue	n/a	twobytwo	-1.0	n/a	blue	1.0	task_switch	color	switch	s635	0
597.734	1.0	0.1	False	89.0	Magnitude	n/a	twobytwo	-1.0	n/a	orange	2.0	task_switch	magnitude	switch	s635	0
599.838	1.0	0.1	False	71.0	Magnitude	stay	twobytwo	-1.0	n/a	blue	7.0	cue_stay	magnitude	stay	s635	0
601.94	1.0	0.1	False	71.0	High-Low	switch	twobytwo	-1.0	n/a	blue	7.0	cue_switch	magnitude	stay	s635	0
604.979	1.0	0.9	False	89.0	Color	n/a	twobytwo	-1.0	n/a	blue	9.0	task_switch	color	switch	s635	0
607.082	1.0	0.1	False	89.0	High-Low	n/a	twobytwo	-1.0	n/a	blue	2.0	task_switch	magnitude	switch	s635	0
609.985	1.0	0.9	True	89.0	Orange-Blue	n/a	twobytwo	89.0	0.728	blue	3.0	task_switch	color	switch	s635	0
612.224	1.0	0.1	True	89.0	Magnitude	n/a	twobytwo	89.0	0.932	blue	1.0	task_switch	magnitude	switch	s635	0
615.127	1.0	0.9	True	71.0	Magnitude	stay	twobytwo	71.0	0.959	blue	8.0	cue_stay	magnitude	stay	s635	0
617.365	1.0	0.1	False	89.0	Color	n/a	twobytwo	-1.0	n/a	blue	8.0	task_switch	color	switch	s635	0
620.149	1.0	0.1	False	89.0	Magnitude	n/a	twobytwo	-1.0	n/a	orange	2.0	task_switch	magnitude	switch	s635	0
622.524	1.0	0.1	True	71.0	High-Low	switch	twobytwo	71.0	1.404	blue	8.0	cue_switch	magnitude	stay	s635	0
625.563	1.0	0.9	True	71.0	Magnitude	switch	twobytwo	71.0	0.641	orange	9.0	cue_switch	magnitude	stay	s635	0
627.665	1.0	0.1	False	71.0	Magnitude	stay	twobytwo	-1.0	n/a	blue	7.0	cue_stay	magnitude	stay	s635	0
630.704	1.0	0.9	True	71.0	Color	n/a	twobytwo	71.0	1.029	orange	2.0	task_switch	color	switch	s635	0
634.287	1.0	0.9	True	71.0	High-Low	n/a	twobytwo	71.0	1.312	orange	7.0	task_switch	magnitude	switch	s635	0
637.463	1.0	0.9	True	71.0	High-Low	stay	twobytwo	71.0	0.599	orange	7.0	cue_stay	magnitude	stay	s635	0
639.565	1.0	0.1	False	89.0	Color	n/a	twobytwo	-1.0	n/a	blue	1.0	task_switch	color	switch	s635	0
642.468	1.0	0.9	True	89.0	Color	stay	twobytwo	89.0	0.911	blue	9.0	cue_stay	color	stay	s635	0
645.507	1.0	0.9	False	89.0	Orange-Blue	switch	twobytwo	-1.0	n/a	blue	3.0	cue_switch	color	stay	s635	0
648.41	1.0	0.9	False	89.0	Color	switch	twobytwo	-1.0	n/a	blue	1.0	cue_switch	color	stay	s635	0
651.313	1.0	0.9	False	89.0	Orange-Blue	switch	twobytwo	-1.0	n/a	blue	7.0	cue_switch	color	stay	s635	0
653.415	1.0	0.1	False	89.0	Magnitude	n/a	twobytwo	-1.0	n/a	blue	4.0	task_switch	magnitude	switch	s635	0
656.591	1.0	0.9	True	89.0	Magnitude	stay	twobytwo	89.0	0.707	orange	1.0	cue_stay	magnitude	stay	s635	0
659.102	1.0	0.1	True	89.0	Orange-Blue	n/a	twobytwo	89.0	0.953	blue	3.0	task_switch	color	switch	s635	0
662.004	1.0	0.9	False	71.0	Color	switch	twobytwo	-1.0	n/a	orange	6.0	cue_switch	color	stay	s635	0
664.908	1.0	0.9	False	89.0	Orange-Blue	switch	twobytwo	-1.0	n/a	blue	2.0	cue_switch	color	stay	s635	0
667.811	1.0	0.9	False	71.0	Orange-Blue	stay	twobytwo	-1.0	n/a	orange	2.0	cue_stay	color	stay	s635	0
670.186	1.0	0.1	False	89.0	Magnitude	n/a	twobytwo	-1.0	n/a	blue	4.0	task_switch	magnitude	switch	s635	0
673.225	1.0	0.9	False	71.0	Orange-Blue	n/a	twobytwo	-1.0	n/a	orange	3.0	task_switch	color	switch	s635	0
676.128	1.0	0.9	False	89.0	Color	switch	twobytwo	-1.0	n/a	blue	7.0	cue_switch	color	stay	s635	0
678.775	1.0	0.1	False	71.0	Magnitude	n/a	twobytwo	-1.0	n/a	orange	9.0	task_switch	magnitude	switch	s635	0
681.151	1.0	0.1	False	71.0	Magnitude	stay	twobytwo	-1.0	n/a	blue	9.0	cue_stay	magnitude	stay	s635	0
683.527	1.0	0.1	True	71.0	Color	n/a	twobytwo	71.0	1.465	orange	2.0	task_switch	color	switch	s635	0
686.429	1.0	0.9	False	89.0	High-Low	n/a	twobytwo	-1.0	n/a	blue	4.0	task_switch	magnitude	switch	s635	0
689.333	1.0	0.9	False	89.0	Color	n/a	twobytwo	-1.0	n/a	blue	1.0	task_switch	color	switch	s635	0
692.372	1.0	0.9	False	89.0	High-Low	n/a	twobytwo	-1.0	n/a	blue	4.0	task_switch	magnitude	switch	s635	0
