onset	duration	planning	condition	current_position	exp_stage	experiment_exp_id	goal_state	key_press	problem_id	response_time	start_state	trial_id	worker_id
-53.742	0.0	0	n/a	n/a	n/a	ward_and_allport	n/a	32.0	n/a	17.42	n/a	instructions	s635
3.005	3.717	1	UA_with_intermediate	0,0,0,2,3,0,0,0,0	practice	ward_and_allport	1,2,3,0,0,0,0,0,0	89.0	0.0	3.717	1,0,0,2,3,0,0,0,0	to_hand	s635
6.723	2.127	0	UA_with_intermediate	1,0,0,2,3,0,0,0,0	practice	ward_and_allport	1,2,3,0,0,0,0,0,0	89.0	0.0	2.127	1,0,0,2,3,0,0,0,0	to_board	s635
8.852	0.51	0	UA_with_intermediate	1,0,0,2,0,0,0,0,0	practice	ward_and_allport	1,2,3,0,0,0,0,0,0	71.0	0.0	0.51	1,0,0,2,3,0,0,0,0	to_hand	s635
9.364	2.487	0	UA_with_intermediate	1,0,0,2,0,0,3,0,0	practice	ward_and_allport	1,2,3,0,0,0,0,0,0	82.0	0.0	2.487	1,0,0,2,3,0,0,0,0	to_board	s635
11.852	0.794	0	UA_with_intermediate	1,0,0,0,0,0,3,0,0	practice	ward_and_allport	1,2,3,0,0,0,0,0,0	71.0	0.0	0.794	1,0,0,2,3,0,0,0,0	to_hand	s635
12.648	0.561	0	UA_with_intermediate	1,2,0,0,0,0,3,0,0	practice	ward_and_allport	1,2,3,0,0,0,0,0,0	89.0	0.0	0.561	1,0,0,2,3,0,0,0,0	to_board	s635
13.213	0.68	0	UA_with_intermediate	1,2,0,0,0,0,0,0,0	practice	ward_and_allport	1,2,3,0,0,0,0,0,0	82.0	0.0	0.68	1,0,0,2,3,0,0,0,0	to_hand	s635
13.894	0.552	0	UA_with_intermediate	1,2,3,0,0,0,0,0,0	practice	ward_and_allport	1,2,3,0,0,0,0,0,0	89.0	0.0	0.552	1,0,0,2,3,0,0,0,0	to_board	s635
14.448	1.0	0	UA_with_intermediate	n/a	practice	ward_and_allport	n/a	-1.0	0.0	n/a	n/a	feedback	s635
16.949	2.748	1	UA_with_intermediate	1,0,0,3,0,0,0,0,0	practice	ward_and_allport	1,3,2,0,0,0,0,0,0	89.0	1.0	2.748	1,2,0,3,0,0,0,0,0	to_hand	s635
19.698	1.097	0	UA_with_intermediate	1,0,0,3,0,0,2,0,0	practice	ward_and_allport	1,3,2,0,0,0,0,0,0	82.0	1.0	1.097	1,2,0,3,0,0,0,0,0	to_board	s635
20.797	1.303	0	UA_with_intermediate	1,0,0,0,0,0,2,0,0	practice	ward_and_allport	1,3,2,0,0,0,0,0,0	71.0	1.0	1.303	1,2,0,3,0,0,0,0,0	to_hand	s635
22.101	0.417	0	UA_with_intermediate	1,3,0,0,0,0,2,0,0	practice	ward_and_allport	1,3,2,0,0,0,0,0,0	89.0	1.0	0.417	1,2,0,3,0,0,0,0,0	to_board	s635
22.519	0.821	0	UA_with_intermediate	1,3,0,0,0,0,0,0,0	practice	ward_and_allport	1,3,2,0,0,0,0,0,0	82.0	1.0	0.821	1,2,0,3,0,0,0,0,0	to_hand	s635
23.341	0.32	0	UA_with_intermediate	1,3,2,0,0,0,0,0,0	practice	ward_and_allport	1,3,2,0,0,0,0,0,0	89.0	1.0	0.32	1,2,0,3,0,0,0,0,0	to_board	s635
23.662	1.0	0	UA_with_intermediate	n/a	practice	ward_and_allport	n/a	-1.0	1.0	n/a	n/a	feedback	s635
24.662	1.1	0	UA_with_intermediate	n/a	practice	ward_and_allport	n/a	-1.0	1.0	n/a	n/a	ITI	s635
25.764	2.224	1	UA_without_intermediate	0,0,0,1,2,0,0,0,0	practice	ward_and_allport	3,2,1,0,0,0,0,0,0	82.0	2.0	2.224	0,0,0,1,2,0,3,0,0	to_hand	s635
27.989	0.362	0	UA_without_intermediate	3,0,0,1,2,0,0,0,0	practice	ward_and_allport	3,2,1,0,0,0,0,0,0	89.0	2.0	0.362	0,0,0,1,2,0,3,0,0	to_board	s635
28.353	1.207	0	UA_without_intermediate	3,0,0,1,0,0,0,0,0	practice	ward_and_allport	3,2,1,0,0,0,0,0,0	71.0	2.0	1.207	0,0,0,1,2,0,3,0,0	to_hand	s635
29.561	0.264	0	UA_without_intermediate	3,2,0,1,0,0,0,0,0	practice	ward_and_allport	3,2,1,0,0,0,0,0,0	89.0	2.0	0.264	0,0,0,1,2,0,3,0,0	to_board	s635
29.827	0.363	0	UA_without_intermediate	3,2,0,0,0,0,0,0,0	practice	ward_and_allport	3,2,1,0,0,0,0,0,0	71.0	2.0	0.363	0,0,0,1,2,0,3,0,0	to_hand	s635
30.191	0.216	0	UA_without_intermediate	3,2,1,0,0,0,0,0,0	practice	ward_and_allport	3,2,1,0,0,0,0,0,0	89.0	2.0	0.216	0,0,0,1,2,0,3,0,0	to_board	s635
30.409	1.0	0	UA_without_intermediate	n/a	practice	ward_and_allport	n/a	-1.0	2.0	n/a	n/a	feedback	s635
31.409	1.2	0	UA_without_intermediate	n/a	practice	ward_and_allport	n/a	-1.0	2.0	n/a	n/a	ITI	s635
32.61	2.131	1	UA_without_intermediate	0,0,0,1,0,0,3,0,0	practice	ward_and_allport	2,3,1,0,0,0,0,0,0	71.0	3.0	2.131	0,0,0,1,2,0,3,0,0	to_hand	s635
34.742	0.288	0	UA_without_intermediate	2,0,0,1,0,0,3,0,0	practice	ward_and_allport	2,3,1,0,0,0,0,0,0	89.0	3.0	0.288	0,0,0,1,2,0,3,0,0	to_board	s635
35.032	1.269	0	UA_without_intermediate	2,0,0,1,0,0,0,0,0	practice	ward_and_allport	2,3,1,0,0,0,0,0,0	82.0	3.0	1.269	0,0,0,1,2,0,3,0,0	to_hand	s635
36.302	0.285	0	UA_without_intermediate	2,3,0,1,0,0,0,0,0	practice	ward_and_allport	2,3,1,0,0,0,0,0,0	89.0	3.0	0.285	0,0,0,1,2,0,3,0,0	to_board	s635
36.589	0.4	0	UA_without_intermediate	2,3,0,0,0,0,0,0,0	practice	ward_and_allport	2,3,1,0,0,0,0,0,0	71.0	3.0	0.4	0,0,0,1,2,0,3,0,0	to_hand	s635
36.99	0.214	0	UA_without_intermediate	2,3,1,0,0,0,0,0,0	practice	ward_and_allport	2,3,1,0,0,0,0,0,0	89.0	3.0	0.214	0,0,0,1,2,0,3,0,0	to_board	s635
37.207	1.0	0	UA_without_intermediate	n/a	practice	ward_and_allport	n/a	-1.0	3.0	n/a	n/a	feedback	s635
38.207	1.0	0	UA_without_intermediate	n/a	practice	ward_and_allport	n/a	-1.0	3.0	n/a	n/a	ITI	s635
41.21	2.34	1	PA_with_intermediate	1,2,0,0,0,0,0,0,0	test	ward_and_allport	1,3,0,0,0,0,2,0,0	89.0	0.0	2.34	1,2,3,0,0,0,0,0,0	to_hand	s635
43.552	4.134	0	PA_with_intermediate	1,2,0,3,0,0,0,0,0	test	ward_and_allport	1,3,0,0,0,0,2,0,0	71.0	0.0	4.134	1,2,3,0,0,0,0,0,0	to_board	s635
47.688	0.424	0	PA_with_intermediate	1,0,0,3,0,0,0,0,0	test	ward_and_allport	1,3,0,0,0,0,2,0,0	89.0	0.0	0.424	1,2,3,0,0,0,0,0,0	to_hand	s635
48.113	0.697	0	PA_with_intermediate	1,0,0,3,0,0,2,0,0	test	ward_and_allport	1,3,0,0,0,0,2,0,0	82.0	0.0	0.697	1,2,3,0,0,0,0,0,0	to_board	s635
48.813	1.745	0	PA_with_intermediate	1,0,0,0,0,0,2,0,0	test	ward_and_allport	1,3,0,0,0,0,2,0,0	71.0	0.0	1.745	1,2,3,0,0,0,0,0,0	to_hand	s635
50.559	0.213	0	PA_with_intermediate	1,3,0,0,0,0,2,0,0	test	ward_and_allport	1,3,0,0,0,0,2,0,0	89.0	0.0	0.213	1,2,3,0,0,0,0,0,0	to_board	s635
50.775	1.0	0	PA_with_intermediate	n/a	test	ward_and_allport	n/a	-1.0	0.0	n/a	n/a	feedback	s635
51.775	2.768	0	PA_with_intermediate	n/a	test	ward_and_allport	n/a	-1.0	0.0	n/a	n/a	ITI	s635
54.544	3.556	1	PA_with_intermediate	0,0,0,1,2,0,0,0,0	test	ward_and_allport	0,0,0,1,3,0,2,0,0	71.0	1.0	3.556	0,0,0,1,2,3,0,0,0	to_hand	s635
58.101	0.756	0	PA_with_intermediate	3,0,0,1,2,0,0,0,0	test	ward_and_allport	0,0,0,1,3,0,2,0,0	89.0	1.0	0.756	0,0,0,1,2,3,0,0,0	to_board	s635
58.859	0.378	0	PA_with_intermediate	3,0,0,1,0,0,0,0,0	test	ward_and_allport	0,0,0,1,3,0,2,0,0	71.0	1.0	0.378	0,0,0,1,2,3,0,0,0	to_hand	s635
59.238	0.631	0	PA_with_intermediate	3,0,0,1,0,0,2,0,0	test	ward_and_allport	0,0,0,1,3,0,2,0,0	82.0	1.0	0.631	0,0,0,1,2,3,0,0,0	to_board	s635
59.872	0.485	0	PA_with_intermediate	0,0,0,1,0,0,2,0,0	test	ward_and_allport	0,0,0,1,3,0,2,0,0	89.0	1.0	0.485	0,0,0,1,2,3,0,0,0	to_hand	s635
60.358	0.392	0	PA_with_intermediate	0,0,0,1,3,0,2,0,0	test	ward_and_allport	0,0,0,1,3,0,2,0,0	71.0	1.0	0.392	0,0,0,1,2,3,0,0,0	to_board	s635
60.753	1.0	0	PA_with_intermediate	n/a	test	ward_and_allport	n/a	-1.0	1.0	n/a	n/a	feedback	s635
61.753	1.68	0	PA_with_intermediate	n/a	test	ward_and_allport	n/a	-1.0	1.0	n/a	n/a	ITI	s635
63.434	2.272	1	PA_without_intermediate	1,2,0,0,0,0,0,0,0	test	ward_and_allport	0,0,0,2,0,0,3,1,0	89.0	2.0	2.272	1,2,3,0,0,0,0,0,0	to_hand	s635
65.708	0.364	0	PA_without_intermediate	1,2,0,0,0,0,3,0,0	test	ward_and_allport	0,0,0,2,0,0,3,1,0	82.0	2.0	0.364	1,2,3,0,0,0,0,0,0	to_board	s635
66.074	0.697	0	PA_without_intermediate	1,0,0,0,0,0,3,0,0	test	ward_and_allport	0,0,0,2,0,0,3,1,0	89.0	2.0	0.697	1,2,3,0,0,0,0,0,0	to_hand	s635
66.773	0.66	0	PA_without_intermediate	1,0,0,2,0,0,3,0,0	test	ward_and_allport	0,0,0,2,0,0,3,1,0	71.0	2.0	0.66	1,2,3,0,0,0,0,0,0	to_board	s635
67.435	0.365	0	PA_without_intermediate	0,0,0,2,0,0,3,0,0	test	ward_and_allport	0,0,0,2,0,0,3,1,0	89.0	2.0	0.365	1,2,3,0,0,0,0,0,0	to_hand	s635
67.801	0.613	0	PA_without_intermediate	0,0,0,2,0,0,3,1,0	test	ward_and_allport	0,0,0,2,0,0,3,1,0	82.0	2.0	0.613	1,2,3,0,0,0,0,0,0	to_board	s635
68.416	1.0	0	PA_without_intermediate	n/a	test	ward_and_allport	n/a	-1.0	2.0	n/a	n/a	feedback	s635
69.416	2.224	0	PA_without_intermediate	n/a	test	ward_and_allport	n/a	-1.0	2.0	n/a	n/a	ITI	s635
71.643	2.289	1	PA_without_intermediate	0,0,0,1,2,0,0,0,0	test	ward_and_allport	2,0,0,0,0,0,3,1,0	71.0	3.0	2.289	0,0,0,1,2,3,0,0,0	to_hand	s635
73.933	0.543	0	PA_without_intermediate	0,0,0,1,2,0,3,0,0	test	ward_and_allport	2,0,0,0,0,0,3,1,0	82.0	3.0	0.543	0,0,0,1,2,3,0,0,0	to_board	s635
74.479	1.55	0	PA_without_intermediate	0,0,0,1,0,0,3,0,0	test	ward_and_allport	2,0,0,0,0,0,3,1,0	71.0	3.0	1.55	0,0,0,1,2,3,0,0,0	to_hand	s635
76.03	0.27	0	PA_without_intermediate	2,0,0,1,0,0,3,0,0	test	ward_and_allport	2,0,0,0,0,0,3,1,0	89.0	3.0	0.27	0,0,0,1,2,3,0,0,0	to_board	s635
76.303	0.62	0	PA_without_intermediate	2,0,0,0,0,0,3,0,0	test	ward_and_allport	2,0,0,0,0,0,3,1,0	71.0	3.0	0.62	0,0,0,1,2,3,0,0,0	to_hand	s635
76.924	0.357	0	PA_without_intermediate	2,0,0,0,0,0,3,1,0	test	ward_and_allport	2,0,0,0,0,0,3,1,0	82.0	3.0	0.357	0,0,0,1,2,3,0,0,0	to_board	s635
77.284	1.0	0	PA_without_intermediate	n/a	test	ward_and_allport	n/a	-1.0	3.0	n/a	n/a	feedback	s635
78.284	2.36	0	PA_without_intermediate	n/a	test	ward_and_allport	n/a	-1.0	3.0	n/a	n/a	ITI	s635
80.647	3.486	1	PA_without_intermediate	0,0,0,0,0,0,1,2,0	test	ward_and_allport	3,1,0,2,0,0,0,0,0	82.0	4.0	3.486	0,0,0,0,0,0,1,2,3	to_hand	s635
84.134	0.385	0	PA_without_intermediate	3,0,0,0,0,0,1,2,0	test	ward_and_allport	3,1,0,2,0,0,0,0,0	89.0	4.0	0.385	0,0,0,0,0,0,1,2,3	to_board	s635
84.522	1.556	0	PA_without_intermediate	3,0,0,0,0,0,1,0,0	test	ward_and_allport	3,1,0,2,0,0,0,0,0	82.0	4.0	1.556	0,0,0,0,0,0,1,2,3	to_hand	s635
86.079	1.175	0	PA_without_intermediate	3,0,0,2,0,0,1,0,0	test	ward_and_allport	3,1,0,2,0,0,0,0,0	71.0	4.0	1.175	0,0,0,0,0,0,1,2,3	to_board	s635
87.258	0.866	0	PA_without_intermediate	3,0,0,2,0,0,0,0,0	test	ward_and_allport	3,1,0,2,0,0,0,0,0	82.0	4.0	0.866	0,0,0,0,0,0,1,2,3	to_hand	s635
88.125	0.312	0	PA_without_intermediate	3,1,0,2,0,0,0,0,0	test	ward_and_allport	3,1,0,2,0,0,0,0,0	89.0	4.0	0.312	0,0,0,0,0,0,1,2,3	to_board	s635
88.44	1.0	0	PA_without_intermediate	n/a	test	ward_and_allport	n/a	-1.0	4.0	n/a	n/a	feedback	s635
89.44	1.0	0	PA_without_intermediate	n/a	test	ward_and_allport	n/a	-1.0	4.0	n/a	n/a	ITI	s635
90.444	2.643	1	PA_without_intermediate	1,2,0,0,0,0,0,0,0	test	ward_and_allport	0,0,0,3,2,0,1,0,0	89.0	5.0	2.643	1,2,3,0,0,0,0,0,0	to_hand	s635
93.088	0.715	0	PA_without_intermediate	1,2,0,3,0,0,0,0,0	test	ward_and_allport	0,0,0,3,2,0,1,0,0	71.0	5.0	0.715	1,2,3,0,0,0,0,0,0	to_board	s635
93.806	0.655	0	PA_without_intermediate	1,0,0,3,0,0,0,0,0	test	ward_and_allport	0,0,0,3,2,0,1,0,0	89.0	5.0	0.655	1,2,3,0,0,0,0,0,0	to_hand	s635
94.462	0.463	0	PA_without_intermediate	1,0,0,3,2,0,0,0,0	test	ward_and_allport	0,0,0,3,2,0,1,0,0	71.0	5.0	0.463	1,2,3,0,0,0,0,0,0	to_board	s635
94.929	0.33	0	PA_without_intermediate	0,0,0,3,2,0,0,0,0	test	ward_and_allport	0,0,0,3,2,0,1,0,0	89.0	5.0	0.33	1,2,3,0,0,0,0,0,0	to_hand	s635
95.26	0.423	0	PA_without_intermediate	0,0,0,3,2,0,1,0,0	test	ward_and_allport	0,0,0,3,2,0,1,0,0	82.0	5.0	0.423	1,2,3,0,0,0,0,0,0	to_board	s635
95.687	1.0	0	PA_without_intermediate	n/a	test	ward_and_allport	n/a	-1.0	5.0	n/a	n/a	feedback	s635
96.687	1.408	0	PA_without_intermediate	n/a	test	ward_and_allport	n/a	-1.0	5.0	n/a	n/a	ITI	s635
98.098	1.902	1	PA_with_intermediate	0,0,0,0,0,0,1,2,0	test	ward_and_allport	2,3,0,0,0,0,1,0,0	82.0	6.0	1.902	0,0,0,0,0,0,1,2,3	to_hand	s635
100.001	1.163	0	PA_with_intermediate	0,0,0,3,0,0,1,2,0	test	ward_and_allport	2,3,0,0,0,0,1,0,0	71.0	6.0	1.163	0,0,0,0,0,0,1,2,3	to_board	s635
101.167	1.401	0	PA_with_intermediate	0,0,0,3,0,0,1,0,0	test	ward_and_allport	2,3,0,0,0,0,1,0,0	82.0	6.0	1.401	0,0,0,0,0,0,1,2,3	to_hand	s635
102.569	0.453	0	PA_with_intermediate	2,0,0,3,0,0,1,0,0	test	ward_and_allport	2,3,0,0,0,0,1,0,0	89.0	6.0	0.453	0,0,0,0,0,0,1,2,3	to_board	s635
103.025	0.823	0	PA_with_intermediate	2,0,0,0,0,0,1,0,0	test	ward_and_allport	2,3,0,0,0,0,1,0,0	71.0	6.0	0.823	0,0,0,0,0,0,1,2,3	to_hand	s635
103.849	0.438	0	PA_with_intermediate	2,3,0,0,0,0,1,0,0	test	ward_and_allport	2,3,0,0,0,0,1,0,0	89.0	6.0	0.438	0,0,0,0,0,0,1,2,3	to_board	s635
104.291	1.0	0	PA_with_intermediate	n/a	test	ward_and_allport	n/a	-1.0	6.0	n/a	n/a	feedback	s635
105.291	1.136	0	PA_with_intermediate	n/a	test	ward_and_allport	n/a	-1.0	6.0	n/a	n/a	ITI	s635
106.429	1.878	1	PA_without_intermediate	1,2,0,0,0,0,0,0,0	test	ward_and_allport	0,0,0,2,0,0,3,1,0	89.0	7.0	1.878	1,2,3,0,0,0,0,0,0	to_hand	s635
108.308	0.564	0	PA_without_intermediate	1,2,0,0,0,0,3,0,0	test	ward_and_allport	0,0,0,2,0,0,3,1,0	82.0	7.0	0.564	1,2,3,0,0,0,0,0,0	to_board	s635
108.876	1.817	0	PA_without_intermediate	1,0,0,0,0,0,3,0,0	test	ward_and_allport	0,0,0,2,0,0,3,1,0	89.0	7.0	1.817	1,2,3,0,0,0,0,0,0	to_hand	s635
110.693	0.792	0	PA_without_intermediate	1,0,0,2,0,0,3,0,0	test	ward_and_allport	0,0,0,2,0,0,3,1,0	71.0	7.0	0.792	1,2,3,0,0,0,0,0,0	to_board	s635
111.489	0.297	0	PA_without_intermediate	0,0,0,2,0,0,3,0,0	test	ward_and_allport	0,0,0,2,0,0,3,1,0	89.0	7.0	0.297	1,2,3,0,0,0,0,0,0	to_hand	s635
111.787	0.613	0	PA_without_intermediate	0,0,0,2,0,0,3,1,0	test	ward_and_allport	0,0,0,2,0,0,3,1,0	82.0	7.0	0.613	1,2,3,0,0,0,0,0,0	to_board	s635
112.403	1.0	0	PA_without_intermediate	n/a	test	ward_and_allport	n/a	-1.0	7.0	n/a	n/a	feedback	s635
113.403	4.128	0	PA_without_intermediate	n/a	test	ward_and_allport	n/a	-1.0	7.0	n/a	n/a	ITI	s635
117.535	2.544	1	PA_without_intermediate	0,0,0,0,0,0,1,2,0	test	ward_and_allport	2,0,0,3,1,0,0,0,0	82.0	8.0	2.544	0,0,0,0,0,0,1,2,3	to_hand	s635
120.08	0.369	0	PA_without_intermediate	0,0,0,3,0,0,1,2,0	test	ward_and_allport	2,0,0,3,1,0,0,0,0	71.0	8.0	0.369	0,0,0,0,0,0,1,2,3	to_board	s635
120.453	1.235	0	PA_without_intermediate	0,0,0,3,0,0,1,0,0	test	ward_and_allport	2,0,0,3,1,0,0,0,0	82.0	8.0	1.235	0,0,0,0,0,0,1,2,3	to_hand	s635
121.689	0.254	0	PA_without_intermediate	2,0,0,3,0,0,1,0,0	test	ward_and_allport	2,0,0,3,1,0,0,0,0	89.0	8.0	0.254	0,0,0,0,0,0,1,2,3	to_board	s635
121.947	0.933	0	PA_without_intermediate	2,0,0,3,0,0,0,0,0	test	ward_and_allport	2,0,0,3,1,0,0,0,0	82.0	8.0	0.933	0,0,0,0,0,0,1,2,3	to_hand	s635
122.882	0.321	0	PA_without_intermediate	2,0,0,3,1,0,0,0,0	test	ward_and_allport	2,0,0,3,1,0,0,0,0	71.0	8.0	0.321	0,0,0,0,0,0,1,2,3	to_board	s635
123.207	1.0	0	PA_without_intermediate	n/a	test	ward_and_allport	n/a	-1.0	8.0	n/a	n/a	feedback	s635
124.207	1.136	0	PA_without_intermediate	n/a	test	ward_and_allport	n/a	-1.0	8.0	n/a	n/a	ITI	s635
125.346	1.403	1	PA_without_intermediate	0,0,0,0,0,0,1,2,0	test	ward_and_allport	3,2,0,1,0,0,0,0,0	82.0	9.0	1.403	0,0,0,0,0,0,1,2,3	to_hand	s635
126.75	0.365	0	PA_without_intermediate	3,0,0,0,0,0,1,2,0	test	ward_and_allport	3,2,0,1,0,0,0,0,0	89.0	9.0	0.365	0,0,0,0,0,0,1,2,3	to_board	s635
127.118	0.523	0	PA_without_intermediate	3,0,0,0,0,0,1,0,0	test	ward_and_allport	3,2,0,1,0,0,0,0,0	82.0	9.0	0.523	0,0,0,0,0,0,1,2,3	to_hand	s635
127.642	0.589	0	PA_without_intermediate	3,2,0,0,0,0,1,0,0	test	ward_and_allport	3,2,0,1,0,0,0,0,0	89.0	9.0	0.589	0,0,0,0,0,0,1,2,3	to_board	s635
128.235	0.408	0	PA_without_intermediate	3,2,0,0,0,0,0,0,0	test	ward_and_allport	3,2,0,1,0,0,0,0,0	82.0	9.0	0.408	0,0,0,0,0,0,1,2,3	to_hand	s635
128.644	0.372	0	PA_without_intermediate	3,2,0,1,0,0,0,0,0	test	ward_and_allport	3,2,0,1,0,0,0,0,0	71.0	9.0	0.372	0,0,0,0,0,0,1,2,3	to_board	s635
129.021	1.0	0	PA_without_intermediate	n/a	test	ward_and_allport	n/a	-1.0	9.0	n/a	n/a	feedback	s635
130.021	4.264	0	PA_without_intermediate	n/a	test	ward_and_allport	n/a	-1.0	9.0	n/a	n/a	ITI	s635
134.289	1.645	1	PA_with_intermediate	0,0,0,0,0,0,1,2,0	test	ward_and_allport	2,3,0,0,0,0,1,0,0	82.0	10.0	1.645	0,0,0,0,0,0,1,2,3	to_hand	s635
135.935	0.525	0	PA_with_intermediate	0,0,0,3,0,0,1,2,0	test	ward_and_allport	2,3,0,0,0,0,1,0,0	71.0	10.0	0.525	0,0,0,0,0,0,1,2,3	to_board	s635
136.465	1.263	0	PA_with_intermediate	0,0,0,3,0,0,1,0,0	test	ward_and_allport	2,3,0,0,0,0,1,0,0	82.0	10.0	1.263	0,0,0,0,0,0,1,2,3	to_hand	s635
137.73	0.346	0	PA_with_intermediate	2,0,0,3,0,0,1,0,0	test	ward_and_allport	2,3,0,0,0,0,1,0,0	89.0	10.0	0.346	0,0,0,0,0,0,1,2,3	to_board	s635
138.08	1.05	0	PA_with_intermediate	2,0,0,0,0,0,1,0,0	test	ward_and_allport	2,3,0,0,0,0,1,0,0	71.0	10.0	1.05	0,0,0,0,0,0,1,2,3	to_hand	s635
139.132	0.256	0	PA_with_intermediate	2,3,0,0,0,0,1,0,0	test	ward_and_allport	2,3,0,0,0,0,1,0,0	89.0	10.0	0.256	0,0,0,0,0,0,1,2,3	to_board	s635
139.392	1.0	0	PA_with_intermediate	n/a	test	ward_and_allport	n/a	-1.0	10.0	n/a	n/a	feedback	s635
140.392	3.04	0	PA_with_intermediate	n/a	test	ward_and_allport	n/a	-1.0	10.0	n/a	n/a	ITI	s635
143.436	1.904	1	PA_with_intermediate	1,2,0,0,0,0,0,0,0	test	ward_and_allport	1,0,0,2,3,0,0,0,0	89.0	11.0	1.904	1,2,3,0,0,0,0,0,0	to_hand	s635
145.342	0.476	0	PA_with_intermediate	1,2,0,0,0,0,3,0,0	test	ward_and_allport	1,0,0,2,3,0,0,0,0	82.0	11.0	0.476	1,2,3,0,0,0,0,0,0	to_board	s635
145.821	0.576	0	PA_with_intermediate	1,0,0,0,0,0,3,0,0	test	ward_and_allport	1,0,0,2,3,0,0,0,0	89.0	11.0	0.576	1,2,3,0,0,0,0,0,0	to_hand	s635
146.398	0.494	0	PA_with_intermediate	1,0,0,2,0,0,3,0,0	test	ward_and_allport	1,0,0,2,3,0,0,0,0	71.0	11.0	0.494	1,2,3,0,0,0,0,0,0	to_board	s635
146.896	0.395	0	PA_with_intermediate	1,0,0,2,0,0,0,0,0	test	ward_and_allport	1,0,0,2,3,0,0,0,0	82.0	11.0	0.395	1,2,3,0,0,0,0,0,0	to_hand	s635
147.292	0.424	0	PA_with_intermediate	1,0,0,2,3,0,0,0,0	test	ward_and_allport	1,0,0,2,3,0,0,0,0	71.0	11.0	0.424	1,2,3,0,0,0,0,0,0	to_board	s635
147.721	1.0	0	PA_with_intermediate	n/a	test	ward_and_allport	n/a	-1.0	11.0	n/a	n/a	feedback	s635
148.721	1.136	0	PA_with_intermediate	n/a	test	ward_and_allport	n/a	-1.0	11.0	n/a	n/a	ITI	s635
149.861	4.439	1	PA_with_intermediate	0,0,0,0,0,0,1,2,0	test	ward_and_allport	0,0,0,2,0,0,1,3,0	82.0	12.0	4.439	0,0,0,0,0,0,1,2,3	to_hand	s635
154.301	0.358	0	PA_with_intermediate	3,0,0,0,0,0,1,2,0	test	ward_and_allport	0,0,0,2,0,0,1,3,0	89.0	12.0	0.358	0,0,0,0,0,0,1,2,3	to_board	s635
154.664	1.401	0	PA_with_intermediate	3,0,0,0,0,0,1,0,0	test	ward_and_allport	0,0,0,2,0,0,1,3,0	82.0	12.0	1.401	0,0,0,0,0,0,1,2,3	to_hand	s635
156.066	0.438	0	PA_with_intermediate	3,0,0,2,0,0,1,0,0	test	ward_and_allport	0,0,0,2,0,0,1,3,0	71.0	12.0	0.438	0,0,0,0,0,0,1,2,3	to_board	s635
156.509	0.562	0	PA_with_intermediate	0,0,0,2,0,0,1,0,0	test	ward_and_allport	0,0,0,2,0,0,1,3,0	89.0	12.0	0.562	0,0,0,0,0,0,1,2,3	to_hand	s635
157.072	0.366	0	PA_with_intermediate	0,0,0,2,0,0,1,3,0	test	ward_and_allport	0,0,0,2,0,0,1,3,0	82.0	12.0	0.366	0,0,0,0,0,0,1,2,3	to_board	s635
157.443	1.0	0	PA_with_intermediate	n/a	test	ward_and_allport	n/a	-1.0	12.0	n/a	n/a	feedback	s635
158.443	1.408	0	PA_with_intermediate	n/a	test	ward_and_allport	n/a	-1.0	12.0	n/a	n/a	ITI	s635
159.856	2.028	1	PA_without_intermediate	1,2,0,0,0,0,0,0,0	test	ward_and_allport	0,0,0,3,1,0,2,0,0	89.0	13.0	2.028	1,2,3,0,0,0,0,0,0	to_hand	s635
161.885	0.433	0	PA_without_intermediate	1,2,0,3,0,0,0,0,0	test	ward_and_allport	0,0,0,3,1,0,2,0,0	71.0	13.0	0.433	1,2,3,0,0,0,0,0,0	to_board	s635
162.323	0.667	0	PA_without_intermediate	1,0,0,3,0,0,0,0,0	test	ward_and_allport	0,0,0,3,1,0,2,0,0	89.0	13.0	0.667	1,2,3,0,0,0,0,0,0	to_hand	s635
162.991	0.489	0	PA_without_intermediate	1,0,0,3,0,0,2,0,0	test	ward_and_allport	0,0,0,3,1,0,2,0,0	82.0	13.0	0.489	1,2,3,0,0,0,0,0,0	to_board	s635
163.485	0.436	0	PA_without_intermediate	0,0,0,3,0,0,2,0,0	test	ward_and_allport	0,0,0,3,1,0,2,0,0	89.0	13.0	0.436	1,2,3,0,0,0,0,0,0	to_hand	s635
163.922	0.4	0	PA_without_intermediate	0,0,0,3,1,0,2,0,0	test	ward_and_allport	0,0,0,3,1,0,2,0,0	71.0	13.0	0.4	1,2,3,0,0,0,0,0,0	to_board	s635
164.327	1.0	0	PA_without_intermediate	n/a	test	ward_and_allport	n/a	-1.0	13.0	n/a	n/a	feedback	s635
165.327	1.68	0	PA_without_intermediate	n/a	test	ward_and_allport	n/a	-1.0	13.0	n/a	n/a	ITI	s635
167.012	2.218	1	PA_with_intermediate	0,0,0,0,0,0,1,2,0	test	ward_and_allport	0,0,0,2,0,0,1,3,0	82.0	14.0	2.218	0,0,0,0,0,0,1,2,3	to_hand	s635
169.231	0.318	0	PA_with_intermediate	3,0,0,0,0,0,1,2,0	test	ward_and_allport	0,0,0,2,0,0,1,3,0	89.0	14.0	0.318	0,0,0,0,0,0,1,2,3	to_board	s635
169.553	0.89	0	PA_with_intermediate	3,0,0,0,0,0,1,0,0	test	ward_and_allport	0,0,0,2,0,0,1,3,0	82.0	14.0	0.89	0,0,0,0,0,0,1,2,3	to_hand	s635
170.444	0.452	0	PA_with_intermediate	3,0,0,2,0,0,1,0,0	test	ward_and_allport	0,0,0,2,0,0,1,3,0	71.0	14.0	0.452	0,0,0,0,0,0,1,2,3	to_board	s635
170.9	0.548	0	PA_with_intermediate	0,0,0,2,0,0,1,0,0	test	ward_and_allport	0,0,0,2,0,0,1,3,0	89.0	14.0	0.548	0,0,0,0,0,0,1,2,3	to_hand	s635
171.449	0.726	0	PA_with_intermediate	0,0,0,2,0,0,1,3,0	test	ward_and_allport	0,0,0,2,0,0,1,3,0	82.0	14.0	0.726	0,0,0,0,0,0,1,2,3	to_board	s635
172.18	1.0	0	PA_with_intermediate	n/a	test	ward_and_allport	n/a	-1.0	14.0	n/a	n/a	feedback	s635
173.18	3.72	0	PA_with_intermediate	n/a	test	ward_and_allport	n/a	-1.0	14.0	n/a	n/a	ITI	s635
181.909	1.328	1	PA_without_intermediate	0,0,0,0,0,0,1,2,0	test	ward_and_allport	1,0,0,3,2,0,0,0,0	82.0	15.0	1.328	0,0,0,0,0,0,1,2,3	to_hand	s635
183.238	0.379	0	PA_without_intermediate	0,0,0,3,0,0,1,2,0	test	ward_and_allport	1,0,0,3,2,0,0,0,0	71.0	15.0	0.379	0,0,0,0,0,0,1,2,3	to_board	s635
183.622	0.722	0	PA_without_intermediate	0,0,0,3,0,0,1,0,0	test	ward_and_allport	1,0,0,3,2,0,0,0,0	82.0	15.0	0.722	0,0,0,0,0,0,1,2,3	to_hand	s635
184.345	0.458	0	PA_without_intermediate	0,0,0,3,2,0,1,0,0	test	ward_and_allport	1,0,0,3,2,0,0,0,0	71.0	15.0	0.458	0,0,0,0,0,0,1,2,3	to_board	s635
184.808	0.359	0	PA_without_intermediate	0,0,0,3,2,0,0,0,0	test	ward_and_allport	1,0,0,3,2,0,0,0,0	82.0	15.0	0.359	0,0,0,0,0,0,1,2,3	to_hand	s635
185.168	0.315	0	PA_without_intermediate	1,0,0,3,2,0,0,0,0	test	ward_and_allport	1,0,0,3,2,0,0,0,0	89.0	15.0	0.315	0,0,0,0,0,0,1,2,3	to_board	s635
185.488	1.0	0	PA_without_intermediate	n/a	test	ward_and_allport	n/a	-1.0	15.0	n/a	n/a	feedback	s635
186.488	2.224	0	PA_without_intermediate	n/a	test	ward_and_allport	n/a	-1.0	15.0	n/a	n/a	ITI	s635
188.717	1.364	1	PA_without_intermediate	0,0,0,1,2,0,0,0,0	test	ward_and_allport	3,2,0,0,0,0,1,0,0	71.0	16.0	1.364	0,0,0,1,2,3,0,0,0	to_hand	s635
190.083	0.468	0	PA_without_intermediate	3,0,0,1,2,0,0,0,0	test	ward_and_allport	3,2,0,0,0,0,1,0,0	89.0	16.0	0.468	0,0,0,1,2,3,0,0,0	to_board	s635
190.556	0.654	0	PA_without_intermediate	3,0,0,1,0,0,0,0,0	test	ward_and_allport	3,2,0,0,0,0,1,0,0	71.0	16.0	0.654	0,0,0,1,2,3,0,0,0	to_hand	s635
191.212	0.368	0	PA_without_intermediate	3,2,0,1,0,0,0,0,0	test	ward_and_allport	3,2,0,0,0,0,1,0,0	89.0	16.0	0.368	0,0,0,1,2,3,0,0,0	to_board	s635
191.585	0.5	0	PA_without_intermediate	3,2,0,0,0,0,0,0,0	test	ward_and_allport	3,2,0,0,0,0,1,0,0	71.0	16.0	0.5	0,0,0,1,2,3,0,0,0	to_hand	s635
192.086	0.566	0	PA_without_intermediate	3,2,0,0,0,0,1,0,0	test	ward_and_allport	3,2,0,0,0,0,1,0,0	82.0	16.0	0.566	0,0,0,1,2,3,0,0,0	to_board	s635
192.657	1.0	0	PA_without_intermediate	n/a	test	ward_and_allport	n/a	-1.0	16.0	n/a	n/a	feedback	s635
193.657	1.272	0	PA_without_intermediate	n/a	test	ward_and_allport	n/a	-1.0	16.0	n/a	n/a	ITI	s635
194.933	1.31	1	PA_with_intermediate	0,0,0,1,2,0,0,0,0	test	ward_and_allport	0,0,0,1,3,0,2,0,0	71.0	17.0	1.31	0,0,0,1,2,3,0,0,0	to_hand	s635
196.244	0.789	0	PA_with_intermediate	0,0,0,1,2,0,3,0,0	test	ward_and_allport	0,0,0,1,3,0,2,0,0	82.0	17.0	0.789	0,0,0,1,2,3,0,0,0	to_board	s635
197.038	2.776	0	PA_with_intermediate	0,0,0,1,2,0,0,0,0	test	ward_and_allport	0,0,0,1,3,0,2,0,0	82.0	17.0	2.776	0,0,0,1,2,3,0,0,0	to_hand	s635
199.814	1.514	0	PA_with_intermediate	3,0,0,1,2,0,0,0,0	test	ward_and_allport	0,0,0,1,3,0,2,0,0	89.0	17.0	1.514	0,0,0,1,2,3,0,0,0	to_board	s635
201.333	1.454	0	PA_with_intermediate	3,0,0,1,0,0,0,0,0	test	ward_and_allport	0,0,0,1,3,0,2,0,0	71.0	17.0	1.454	0,0,0,1,2,3,0,0,0	to_hand	s635
202.788	0.349	0	PA_with_intermediate	3,0,0,1,0,0,2,0,0	test	ward_and_allport	0,0,0,1,3,0,2,0,0	82.0	17.0	0.349	0,0,0,1,2,3,0,0,0	to_board	s635
203.141	0.299	0	PA_with_intermediate	0,0,0,1,0,0,2,0,0	test	ward_and_allport	0,0,0,1,3,0,2,0,0	89.0	17.0	0.299	0,0,0,1,2,3,0,0,0	to_hand	s635
203.441	0.322	0	PA_with_intermediate	0,0,0,1,3,0,2,0,0	test	ward_and_allport	0,0,0,1,3,0,2,0,0	71.0	17.0	0.322	0,0,0,1,2,3,0,0,0	to_board	s635
203.768	1.0	0	PA_with_intermediate	n/a	test	ward_and_allport	n/a	-1.0	17.0	n/a	n/a	feedback	s635
204.768	2.632	0	PA_with_intermediate	n/a	test	ward_and_allport	n/a	-1.0	17.0	n/a	n/a	ITI	s635
207.405	1.311	1	PA_without_intermediate	0,0,0,1,2,0,0,0,0	test	ward_and_allport	3,2,0,0,0,0,1,0,0	71.0	18.0	1.311	0,0,0,1,2,3,0,0,0	to_hand	s635
208.717	0.301	0	PA_without_intermediate	3,0,0,1,2,0,0,0,0	test	ward_and_allport	3,2,0,0,0,0,1,0,0	89.0	18.0	0.301	0,0,0,1,2,3,0,0,0	to_board	s635
209.023	0.348	0	PA_without_intermediate	3,0,0,1,0,0,0,0,0	test	ward_and_allport	3,2,0,0,0,0,1,0,0	71.0	18.0	0.348	0,0,0,1,2,3,0,0,0	to_hand	s635
209.372	0.307	0	PA_without_intermediate	3,2,0,1,0,0,0,0,0	test	ward_and_allport	3,2,0,0,0,0,1,0,0	89.0	18.0	0.307	0,0,0,1,2,3,0,0,0	to_board	s635
209.684	0.343	0	PA_without_intermediate	3,2,0,0,0,0,0,0,0	test	ward_and_allport	3,2,0,0,0,0,1,0,0	71.0	18.0	0.343	0,0,0,1,2,3,0,0,0	to_hand	s635
210.028	0.404	0	PA_without_intermediate	3,2,0,0,0,0,1,0,0	test	ward_and_allport	3,2,0,0,0,0,1,0,0	82.0	18.0	0.404	0,0,0,1,2,3,0,0,0	to_board	s635
210.437	1.0	0	PA_without_intermediate	n/a	test	ward_and_allport	n/a	-1.0	18.0	n/a	n/a	feedback	s635
211.437	1.408	0	PA_without_intermediate	n/a	test	ward_and_allport	n/a	-1.0	18.0	n/a	n/a	ITI	s635
212.849	1.133	1	PA_without_intermediate	1,2,0,0,0,0,0,0,0	test	ward_and_allport	0,0,0,3,1,0,2,0,0	89.0	19.0	1.133	1,2,3,0,0,0,0,0,0	to_hand	s635
213.983	0.32	0	PA_without_intermediate	1,2,0,3,0,0,0,0,0	test	ward_and_allport	0,0,0,3,1,0,2,0,0	71.0	19.0	0.32	1,2,3,0,0,0,0,0,0	to_board	s635
214.307	0.831	0	PA_without_intermediate	1,0,0,3,0,0,0,0,0	test	ward_and_allport	0,0,0,3,1,0,2,0,0	89.0	19.0	0.831	1,2,3,0,0,0,0,0,0	to_hand	s635
215.139	0.323	0	PA_without_intermediate	1,0,0,3,0,0,2,0,0	test	ward_and_allport	0,0,0,3,1,0,2,0,0	82.0	19.0	0.323	1,2,3,0,0,0,0,0,0	to_board	s635
215.466	0.317	0	PA_without_intermediate	0,0,0,3,0,0,2,0,0	test	ward_and_allport	0,0,0,3,1,0,2,0,0	89.0	19.0	0.317	1,2,3,0,0,0,0,0,0	to_hand	s635
215.784	0.429	0	PA_without_intermediate	0,0,0,3,1,0,2,0,0	test	ward_and_allport	0,0,0,3,1,0,2,0,0	71.0	19.0	0.429	1,2,3,0,0,0,0,0,0	to_board	s635
216.219	1.0	0	PA_without_intermediate	n/a	test	ward_and_allport	n/a	-1.0	19.0	n/a	n/a	feedback	s635
217.219	1.0	0	PA_without_intermediate	n/a	test	ward_and_allport	n/a	-1.0	19.0	n/a	n/a	ITI	s635
218.225	1.883	1	PA_with_intermediate	1,2,0,0,0,0,0,0,0	test	ward_and_allport	1,3,0,0,0,0,2,0,0	89.0	20.0	1.883	1,2,3,0,0,0,0,0,0	to_hand	s635
220.109	0.311	0	PA_with_intermediate	1,2,0,3,0,0,0,0,0	test	ward_and_allport	1,3,0,0,0,0,2,0,0	71.0	20.0	0.311	1,2,3,0,0,0,0,0,0	to_board	s635
220.425	0.778	0	PA_with_intermediate	1,0,0,3,0,0,0,0,0	test	ward_and_allport	1,3,0,0,0,0,2,0,0	89.0	20.0	0.778	1,2,3,0,0,0,0,0,0	to_hand	s635
221.205	0.356	0	PA_with_intermediate	1,0,0,3,0,0,2,0,0	test	ward_and_allport	1,3,0,0,0,0,2,0,0	82.0	20.0	0.356	1,2,3,0,0,0,0,0,0	to_board	s635
221.566	0.681	0	PA_with_intermediate	1,0,0,0,0,0,2,0,0	test	ward_and_allport	1,3,0,0,0,0,2,0,0	71.0	20.0	0.681	1,2,3,0,0,0,0,0,0	to_hand	s635
222.248	0.25	0	PA_with_intermediate	1,3,0,0,0,0,2,0,0	test	ward_and_allport	1,3,0,0,0,0,2,0,0	89.0	20.0	0.25	1,2,3,0,0,0,0,0,0	to_board	s635
222.505	1.0	0	PA_with_intermediate	n/a	test	ward_and_allport	n/a	-1.0	20.0	n/a	n/a	feedback	s635
223.505	1.0	0	PA_with_intermediate	n/a	test	ward_and_allport	n/a	-1.0	20.0	n/a	n/a	ITI	s635
224.51	1.74	1	PA_with_intermediate	0,0,0,1,2,0,0,0,0	test	ward_and_allport	2,0,0,1,3,0,0,0,0	71.0	21.0	1.74	0,0,0,1,2,3,0,0,0	to_hand	s635
226.251	0.347	0	PA_with_intermediate	0,0,0,1,2,0,3,0,0	test	ward_and_allport	2,0,0,1,3,0,0,0,0	82.0	21.0	0.347	0,0,0,1,2,3,0,0,0	to_board	s635
226.604	1.022	0	PA_with_intermediate	0,0,0,1,0,0,3,0,0	test	ward_and_allport	2,0,0,1,3,0,0,0,0	71.0	21.0	1.022	0,0,0,1,2,3,0,0,0	to_hand	s635
227.627	0.222	0	PA_with_intermediate	2,0,0,1,0,0,3,0,0	test	ward_and_allport	2,0,0,1,3,0,0,0,0	89.0	21.0	0.222	0,0,0,1,2,3,0,0,0	to_board	s635
227.855	1.354	0	PA_with_intermediate	2,0,0,1,0,0,0,0,0	test	ward_and_allport	2,0,0,1,3,0,0,0,0	82.0	21.0	1.354	0,0,0,1,2,3,0,0,0	to_hand	s635
229.21	0.26	0	PA_with_intermediate	2,0,0,1,3,0,0,0,0	test	ward_and_allport	2,0,0,1,3,0,0,0,0	71.0	21.0	0.26	0,0,0,1,2,3,0,0,0	to_board	s635
229.476	1.0	0	PA_with_intermediate	n/a	test	ward_and_allport	n/a	-1.0	21.0	n/a	n/a	feedback	s635
230.476	1.0	0	PA_with_intermediate	n/a	test	ward_and_allport	n/a	-1.0	21.0	n/a	n/a	ITI	s635
231.483	1.199	1	PA_with_intermediate	1,2,0,0,0,0,0,0,0	test	ward_and_allport	1,0,0,0,0,0,2,3,0	89.0	22.0	1.199	1,2,3,0,0,0,0,0,0	to_hand	s635
232.683	1.184	0	PA_with_intermediate	1,2,0,3,0,0,0,0,0	test	ward_and_allport	1,0,0,0,0,0,2,3,0	71.0	22.0	1.184	1,2,3,0,0,0,0,0,0	to_board	s635
233.875	0.945	0	PA_with_intermediate	1,0,0,3,0,0,0,0,0	test	ward_and_allport	1,0,0,0,0,0,2,3,0	89.0	22.0	0.945	1,2,3,0,0,0,0,0,0	to_hand	s635
234.822	0.521	0	PA_with_intermediate	1,0,0,3,0,0,2,0,0	test	ward_and_allport	1,0,0,0,0,0,2,3,0	82.0	22.0	0.521	1,2,3,0,0,0,0,0,0	to_board	s635
235.349	1.186	0	PA_with_intermediate	1,0,0,0,0,0,2,0,0	test	ward_and_allport	1,0,0,0,0,0,2,3,0	71.0	22.0	1.186	1,2,3,0,0,0,0,0,0	to_hand	s635
236.536	0.38	0	PA_with_intermediate	1,0,0,0,0,0,2,3,0	test	ward_and_allport	1,0,0,0,0,0,2,3,0	82.0	22.0	0.38	1,2,3,0,0,0,0,0,0	to_board	s635
236.923	1.0	0	PA_with_intermediate	n/a	test	ward_and_allport	n/a	-1.0	22.0	n/a	n/a	feedback	s635
237.923	1.408	0	PA_with_intermediate	n/a	test	ward_and_allport	n/a	-1.0	22.0	n/a	n/a	ITI	s635
239.336	1.168	1	PA_without_intermediate	0,0,0,1,2,0,0,0,0	test	ward_and_allport	3,1,0,0,0,0,2,0,0	71.0	23.0	1.168	0,0,0,1,2,3,0,0,0	to_hand	s635
240.505	0.352	0	PA_without_intermediate	3,0,0,1,2,0,0,0,0	test	ward_and_allport	3,1,0,0,0,0,2,0,0	89.0	23.0	0.352	0,0,0,1,2,3,0,0,0	to_board	s635
240.863	0.502	0	PA_without_intermediate	3,0,0,1,0,0,0,0,0	test	ward_and_allport	3,1,0,0,0,0,2,0,0	71.0	23.0	0.502	0,0,0,1,2,3,0,0,0	to_hand	s635
241.366	0.478	0	PA_without_intermediate	3,0,0,1,0,0,2,0,0	test	ward_and_allport	3,1,0,0,0,0,2,0,0	82.0	23.0	0.478	0,0,0,1,2,3,0,0,0	to_board	s635
241.85	0.432	0	PA_without_intermediate	3,0,0,0,0,0,2,0,0	test	ward_and_allport	3,1,0,0,0,0,2,0,0	71.0	23.0	0.432	0,0,0,1,2,3,0,0,0	to_hand	s635
242.283	0.385	0	PA_without_intermediate	3,1,0,0,0,0,2,0,0	test	ward_and_allport	3,1,0,0,0,0,2,0,0	89.0	23.0	0.385	0,0,0,1,2,3,0,0,0	to_board	s635
242.676	1.0	0	PA_without_intermediate	n/a	test	ward_and_allport	n/a	-1.0	23.0	n/a	n/a	feedback	s635
243.676	1.816	0	PA_without_intermediate	n/a	test	ward_and_allport	n/a	-1.0	23.0	n/a	n/a	ITI	s635
245.498	1.067	1	PA_with_intermediate	1,2,0,0,0,0,0,0,0	test	ward_and_allport	1,0,0,2,3,0,0,0,0	89.0	24.0	1.067	1,2,3,0,0,0,0,0,0	to_hand	s635
246.566	1.803	0	PA_with_intermediate	1,2,0,0,0,0,3,0,0	test	ward_and_allport	1,0,0,2,3,0,0,0,0	82.0	24.0	1.803	1,2,3,0,0,0,0,0,0	to_board	s635
248.375	0.861	0	PA_with_intermediate	1,0,0,0,0,0,3,0,0	test	ward_and_allport	1,0,0,2,3,0,0,0,0	89.0	24.0	0.861	1,2,3,0,0,0,0,0,0	to_hand	s635
249.237	0.417	0	PA_with_intermediate	1,0,0,2,0,0,3,0,0	test	ward_and_allport	1,0,0,2,3,0,0,0,0	71.0	24.0	0.417	1,2,3,0,0,0,0,0,0	to_board	s635
249.661	0.442	0	PA_with_intermediate	1,0,0,2,0,0,0,0,0	test	ward_and_allport	1,0,0,2,3,0,0,0,0	82.0	24.0	0.442	1,2,3,0,0,0,0,0,0	to_hand	s635
250.104	0.349	0	PA_with_intermediate	1,0,0,2,3,0,0,0,0	test	ward_and_allport	1,0,0,2,3,0,0,0,0	71.0	24.0	0.349	1,2,3,0,0,0,0,0,0	to_board	s635
250.46	1.0	0	PA_with_intermediate	n/a	test	ward_and_allport	n/a	-1.0	24.0	n/a	n/a	feedback	s635
251.46	3.176	0	PA_with_intermediate	n/a	test	ward_and_allport	n/a	-1.0	24.0	n/a	n/a	ITI	s635
254.643	1.354	1	PA_with_intermediate	0,0,0,0,0,0,1,2,0	test	ward_and_allport	0,0,0,2,3,0,1,0,0	82.0	25.0	1.354	0,0,0,0,0,0,1,2,3	to_hand	s635
255.998	0.393	0	PA_with_intermediate	3,0,0,0,0,0,1,2,0	test	ward_and_allport	0,0,0,2,3,0,1,0,0	89.0	25.0	0.393	0,0,0,0,0,0,1,2,3	to_board	s635
256.398	1.257	0	PA_with_intermediate	3,0,0,0,0,0,1,0,0	test	ward_and_allport	0,0,0,2,3,0,1,0,0	82.0	25.0	1.257	0,0,0,0,0,0,1,2,3	to_hand	s635
257.657	0.795	0	PA_with_intermediate	3,0,0,2,0,0,1,0,0	test	ward_and_allport	0,0,0,2,3,0,1,0,0	71.0	25.0	0.795	0,0,0,0,0,0,1,2,3	to_board	s635
258.459	0.505	0	PA_with_intermediate	0,0,0,2,0,0,1,0,0	test	ward_and_allport	0,0,0,2,3,0,1,0,0	89.0	25.0	0.505	0,0,0,0,0,0,1,2,3	to_hand	s635
258.965	0.254	0	PA_with_intermediate	0,0,0,2,3,0,1,0,0	test	ward_and_allport	0,0,0,2,3,0,1,0,0	71.0	25.0	0.254	0,0,0,0,0,0,1,2,3	to_board	s635
259.226	1.0	0	PA_with_intermediate	n/a	test	ward_and_allport	n/a	-1.0	25.0	n/a	n/a	feedback	s635
260.226	2.36	0	PA_with_intermediate	n/a	test	ward_and_allport	n/a	-1.0	25.0	n/a	n/a	ITI	s635
262.593	1.071	1	PA_with_intermediate	0,0,0,0,0,0,1,2,0	test	ward_and_allport	0,0,0,2,3,0,1,0,0	82.0	26.0	1.071	0,0,0,0,0,0,1,2,3	to_hand	s635
263.665	0.376	0	PA_with_intermediate	3,0,0,0,0,0,1,2,0	test	ward_and_allport	0,0,0,2,3,0,1,0,0	89.0	26.0	0.376	0,0,0,0,0,0,1,2,3	to_board	s635
264.048	0.933	0	PA_with_intermediate	3,0,0,0,0,0,1,0,0	test	ward_and_allport	0,0,0,2,3,0,1,0,0	82.0	26.0	0.933	0,0,0,0,0,0,1,2,3	to_hand	s635
264.982	0.838	0	PA_with_intermediate	3,0,0,2,0,0,1,0,0	test	ward_and_allport	0,0,0,2,3,0,1,0,0	71.0	26.0	0.838	0,0,0,0,0,0,1,2,3	to_board	s635
265.828	0.326	0	PA_with_intermediate	0,0,0,2,0,0,1,0,0	test	ward_and_allport	0,0,0,2,3,0,1,0,0	89.0	26.0	0.326	0,0,0,0,0,0,1,2,3	to_hand	s635
266.155	0.621	0	PA_with_intermediate	0,0,0,2,3,0,1,0,0	test	ward_and_allport	0,0,0,2,3,0,1,0,0	71.0	26.0	0.621	0,0,0,0,0,0,1,2,3	to_board	s635
266.783	1.0	0	PA_with_intermediate	n/a	test	ward_and_allport	n/a	-1.0	26.0	n/a	n/a	feedback	s635
267.783	1.0	0	PA_with_intermediate	n/a	test	ward_and_allport	n/a	-1.0	26.0	n/a	n/a	ITI	s635
268.79	3.193	1	PA_without_intermediate	0,0,0,0,0,0,1,2,0	test	ward_and_allport	3,1,0,2,0,0,0,0,0	82.0	27.0	3.193	0,0,0,0,0,0,1,2,3	to_hand	s635
271.984	0.301	0	PA_without_intermediate	3,0,0,0,0,0,1,2,0	test	ward_and_allport	3,1,0,2,0,0,0,0,0	89.0	27.0	0.301	0,0,0,0,0,0,1,2,3	to_board	s635
272.292	1.04	0	PA_without_intermediate	3,0,0,0,0,0,1,0,0	test	ward_and_allport	3,1,0,2,0,0,0,0,0	82.0	27.0	1.04	0,0,0,0,0,0,1,2,3	to_hand	s635
273.333	0.492	0	PA_without_intermediate	3,0,0,2,0,0,1,0,0	test	ward_and_allport	3,1,0,2,0,0,0,0,0	71.0	27.0	0.492	0,0,0,0,0,0,1,2,3	to_board	s635
273.832	0.437	0	PA_without_intermediate	3,0,0,2,0,0,0,0,0	test	ward_and_allport	3,1,0,2,0,0,0,0,0	82.0	27.0	0.437	0,0,0,0,0,0,1,2,3	to_hand	s635
274.27	0.261	0	PA_without_intermediate	3,1,0,2,0,0,0,0,0	test	ward_and_allport	3,1,0,2,0,0,0,0,0	89.0	27.0	0.261	0,0,0,0,0,0,1,2,3	to_board	s635
274.538	1.0	0	PA_without_intermediate	n/a	test	ward_and_allport	n/a	-1.0	27.0	n/a	n/a	feedback	s635
275.538	1.408	0	PA_without_intermediate	n/a	test	ward_and_allport	n/a	-1.0	27.0	n/a	n/a	ITI	s635
276.953	2.057	1	PA_with_intermediate	0,0,0,1,2,0,0,0,0	test	ward_and_allport	0,0,0,1,0,0,2,3,0	71.0	28.0	2.057	0,0,0,1,2,3,0,0,0	to_hand	s635
279.012	0.26	0	PA_with_intermediate	3,0,0,1,2,0,0,0,0	test	ward_and_allport	0,0,0,1,0,0,2,3,0	89.0	28.0	0.26	0,0,0,1,2,3,0,0,0	to_board	s635
279.278	0.506	0	PA_with_intermediate	3,0,0,1,0,0,0,0,0	test	ward_and_allport	0,0,0,1,0,0,2,3,0	71.0	28.0	0.506	0,0,0,1,2,3,0,0,0	to_hand	s635
279.786	0.374	0	PA_with_intermediate	3,0,0,1,0,0,2,0,0	test	ward_and_allport	0,0,0,1,0,0,2,3,0	82.0	28.0	0.374	0,0,0,1,2,3,0,0,0	to_board	s635
280.168	0.352	0	PA_with_intermediate	0,0,0,1,0,0,2,0,0	test	ward_and_allport	0,0,0,1,0,0,2,3,0	89.0	28.0	0.352	0,0,0,1,2,3,0,0,0	to_hand	s635
280.522	0.375	0	PA_with_intermediate	0,0,0,1,0,0,2,3,0	test	ward_and_allport	0,0,0,1,0,0,2,3,0	82.0	28.0	0.375	0,0,0,1,2,3,0,0,0	to_board	s635
280.905	1.0	0	PA_with_intermediate	n/a	test	ward_and_allport	n/a	-1.0	28.0	n/a	n/a	feedback	s635
281.905	1.816	0	PA_with_intermediate	n/a	test	ward_and_allport	n/a	-1.0	28.0	n/a	n/a	ITI	s635
283.73	1.742	1	PA_without_intermediate	0,0,0,1,2,0,0,0,0	test	ward_and_allport	1,0,0,0,0,0,3,2,0	71.0	29.0	1.742	0,0,0,1,2,3,0,0,0	to_hand	s635
285.473	0.491	0	PA_without_intermediate	0,0,0,1,2,0,3,0,0	test	ward_and_allport	1,0,0,0,0,0,3,2,0	82.0	29.0	0.491	0,0,0,1,2,3,0,0,0	to_board	s635
285.971	0.369	0	PA_without_intermediate	0,0,0,1,0,0,3,0,0	test	ward_and_allport	1,0,0,0,0,0,3,2,0	71.0	29.0	0.369	0,0,0,1,2,3,0,0,0	to_hand	s635
286.341	0.293	0	PA_without_intermediate	0,0,0,1,0,0,3,2,0	test	ward_and_allport	1,0,0,0,0,0,3,2,0	82.0	29.0	0.293	0,0,0,1,2,3,0,0,0	to_board	s635
286.642	1.178	0	PA_without_intermediate	0,0,0,0,0,0,3,2,0	test	ward_and_allport	1,0,0,0,0,0,3,2,0	71.0	29.0	1.178	0,0,0,1,2,3,0,0,0	to_hand	s635
287.82	0.409	0	PA_without_intermediate	1,0,0,0,0,0,3,2,0	test	ward_and_allport	1,0,0,0,0,0,3,2,0	89.0	29.0	0.409	0,0,0,1,2,3,0,0,0	to_board	s635
288.237	1.0	0	PA_without_intermediate	n/a	test	ward_and_allport	n/a	-1.0	29.0	n/a	n/a	feedback	s635
289.237	2.088	0	PA_without_intermediate	n/a	test	ward_and_allport	n/a	-1.0	29.0	n/a	n/a	ITI	s635
296.334	2.088	1	PA_without_intermediate	0,0,0,1,2,0,0,0,0	test	ward_and_allport	3,1,0,0,0,0,2,0,0	71.0	30.0	2.088	0,0,0,1,2,3,0,0,0	to_hand	s635
298.423	0.265	0	PA_without_intermediate	3,0,0,1,2,0,0,0,0	test	ward_and_allport	3,1,0,0,0,0,2,0,0	89.0	30.0	0.265	0,0,0,1,2,3,0,0,0	to_board	s635
298.696	0.339	0	PA_without_intermediate	3,0,0,1,0,0,0,0,0	test	ward_and_allport	3,1,0,0,0,0,2,0,0	71.0	30.0	0.339	0,0,0,1,2,3,0,0,0	to_hand	s635
299.036	0.346	0	PA_without_intermediate	3,0,0,1,0,0,2,0,0	test	ward_and_allport	3,1,0,0,0,0,2,0,0	82.0	30.0	0.346	0,0,0,1,2,3,0,0,0	to_board	s635
299.39	0.532	0	PA_without_intermediate	3,0,0,0,0,0,2,0,0	test	ward_and_allport	3,1,0,0,0,0,2,0,0	71.0	30.0	0.532	0,0,0,1,2,3,0,0,0	to_hand	s635
299.924	0.215	0	PA_without_intermediate	3,1,0,0,0,0,2,0,0	test	ward_and_allport	3,1,0,0,0,0,2,0,0	89.0	30.0	0.215	0,0,0,1,2,3,0,0,0	to_board	s635
300.147	1.0	0	PA_without_intermediate	n/a	test	ward_and_allport	n/a	-1.0	30.0	n/a	n/a	feedback	s635
301.147	1.136	0	PA_without_intermediate	n/a	test	ward_and_allport	n/a	-1.0	30.0	n/a	n/a	ITI	s635
302.29	1.573	1	PA_without_intermediate	1,2,0,0,0,0,0,0,0	test	ward_and_allport	0,0,0,3,2,0,1,0,0	89.0	31.0	1.573	1,2,3,0,0,0,0,0,0	to_hand	s635
303.864	0.293	0	PA_without_intermediate	1,2,0,3,0,0,0,0,0	test	ward_and_allport	0,0,0,3,2,0,1,0,0	71.0	31.0	0.293	1,2,3,0,0,0,0,0,0	to_board	s635
304.164	0.805	0	PA_without_intermediate	1,0,0,3,0,0,0,0,0	test	ward_and_allport	0,0,0,3,2,0,1,0,0	89.0	31.0	0.805	1,2,3,0,0,0,0,0,0	to_hand	s635
304.97	0.291	0	PA_without_intermediate	1,0,0,3,2,0,0,0,0	test	ward_and_allport	0,0,0,3,2,0,1,0,0	71.0	31.0	0.291	1,2,3,0,0,0,0,0,0	to_board	s635
305.267	0.351	0	PA_without_intermediate	0,0,0,3,2,0,0,0,0	test	ward_and_allport	0,0,0,3,2,0,1,0,0	89.0	31.0	0.351	1,2,3,0,0,0,0,0,0	to_hand	s635
305.619	0.319	0	PA_without_intermediate	0,0,0,3,2,0,1,0,0	test	ward_and_allport	0,0,0,3,2,0,1,0,0	82.0	31.0	0.319	1,2,3,0,0,0,0,0,0	to_board	s635
305.947	1.0	0	PA_without_intermediate	n/a	test	ward_and_allport	n/a	-1.0	31.0	n/a	n/a	feedback	s635
306.947	6.168	0	PA_without_intermediate	n/a	test	ward_and_allport	n/a	-1.0	31.0	n/a	n/a	ITI	s635
313.123	0.98	1	PA_without_intermediate	0,0,0,1,2,0,0,0,0	test	ward_and_allport	2,0,0,0,0,0,3,1,0	71.0	32.0	0.98	0,0,0,1,2,3,0,0,0	to_hand	s635
314.104	0.358	0	PA_without_intermediate	0,0,0,1,2,0,3,0,0	test	ward_and_allport	2,0,0,0,0,0,3,1,0	82.0	32.0	0.358	0,0,0,1,2,3,0,0,0	to_board	s635
314.47	0.79	0	PA_without_intermediate	0,0,0,1,0,0,3,0,0	test	ward_and_allport	2,0,0,0,0,0,3,1,0	71.0	32.0	0.79	0,0,0,1,2,3,0,0,0	to_hand	s635
315.261	0.288	0	PA_without_intermediate	2,0,0,1,0,0,3,0,0	test	ward_and_allport	2,0,0,0,0,0,3,1,0	89.0	32.0	0.288	0,0,0,1,2,3,0,0,0	to_board	s635
315.558	0.38	0	PA_without_intermediate	2,0,0,0,0,0,3,0,0	test	ward_and_allport	2,0,0,0,0,0,3,1,0	71.0	32.0	0.38	0,0,0,1,2,3,0,0,0	to_hand	s635
315.939	0.297	0	PA_without_intermediate	2,0,0,0,0,0,3,1,0	test	ward_and_allport	2,0,0,0,0,0,3,1,0	82.0	32.0	0.297	0,0,0,1,2,3,0,0,0	to_board	s635
316.246	1.0	0	PA_without_intermediate	n/a	test	ward_and_allport	n/a	-1.0	32.0	n/a	n/a	feedback	s635
317.246	1.816	0	PA_without_intermediate	n/a	test	ward_and_allport	n/a	-1.0	32.0	n/a	n/a	ITI	s635
319.072	5.177	1	PA_with_intermediate	1,2,0,0,0,0,0,0,0	test	ward_and_allport	1,3,0,2,0,0,0,0,0	89.0	33.0	5.177	1,2,3,0,0,0,0,0,0	to_hand	s635
324.25	0.367	0	PA_with_intermediate	1,2,0,0,0,0,3,0,0	test	ward_and_allport	1,3,0,2,0,0,0,0,0	82.0	33.0	0.367	1,2,3,0,0,0,0,0,0	to_board	s635
324.625	0.642	0	PA_with_intermediate	1,0,0,0,0,0,3,0,0	test	ward_and_allport	1,3,0,2,0,0,0,0,0	89.0	33.0	0.642	1,2,3,0,0,0,0,0,0	to_hand	s635
325.268	0.387	0	PA_with_intermediate	1,0,0,2,0,0,3,0,0	test	ward_and_allport	1,3,0,2,0,0,0,0,0	71.0	33.0	0.387	1,2,3,0,0,0,0,0,0	to_board	s635
325.664	0.767	0	PA_with_intermediate	1,0,0,2,0,0,0,0,0	test	ward_and_allport	1,3,0,2,0,0,0,0,0	82.0	33.0	0.767	1,2,3,0,0,0,0,0,0	to_hand	s635
326.432	0.237	0	PA_with_intermediate	1,3,0,2,0,0,0,0,0	test	ward_and_allport	1,3,0,2,0,0,0,0,0	89.0	33.0	0.237	1,2,3,0,0,0,0,0,0	to_board	s635
326.681	1.0	0	PA_with_intermediate	n/a	test	ward_and_allport	n/a	-1.0	33.0	n/a	n/a	feedback	s635
327.681	1.952	0	PA_with_intermediate	n/a	test	ward_and_allport	n/a	-1.0	33.0	n/a	n/a	ITI	s635
329.64	1.116	1	PA_with_intermediate	1,2,0,0,0,0,0,0,0	test	ward_and_allport	1,3,0,2,0,0,0,0,0	89.0	34.0	1.116	1,2,3,0,0,0,0,0,0	to_hand	s635
330.757	0.349	0	PA_with_intermediate	1,2,0,0,0,0,3,0,0	test	ward_and_allport	1,3,0,2,0,0,0,0,0	82.0	34.0	0.349	1,2,3,0,0,0,0,0,0	to_board	s635
331.113	0.46	0	PA_with_intermediate	1,0,0,0,0,0,3,0,0	test	ward_and_allport	1,3,0,2,0,0,0,0,0	89.0	34.0	0.46	1,2,3,0,0,0,0,0,0	to_hand	s635
331.574	0.429	0	PA_with_intermediate	1,0,0,2,0,0,3,0,0	test	ward_and_allport	1,3,0,2,0,0,0,0,0	71.0	34.0	0.429	1,2,3,0,0,0,0,0,0	to_board	s635
332.009	0.749	0	PA_with_intermediate	1,0,0,2,0,0,0,0,0	test	ward_and_allport	1,3,0,2,0,0,0,0,0	82.0	34.0	0.749	1,2,3,0,0,0,0,0,0	to_hand	s635
332.759	0.225	0	PA_with_intermediate	1,3,0,2,0,0,0,0,0	test	ward_and_allport	1,3,0,2,0,0,0,0,0	89.0	34.0	0.225	1,2,3,0,0,0,0,0,0	to_board	s635
332.992	1.0	0	PA_with_intermediate	n/a	test	ward_and_allport	n/a	-1.0	34.0	n/a	n/a	feedback	s635
333.992	1.136	0	PA_with_intermediate	n/a	test	ward_and_allport	n/a	-1.0	34.0	n/a	n/a	ITI	s635
335.137	1.261	1	PA_without_intermediate	0,0,0,0,0,0,1,2,0	test	ward_and_allport	1,0,0,3,2,0,0,0,0	82.0	35.0	1.261	0,0,0,0,0,0,1,2,3	to_hand	s635
336.399	1.12	0	PA_without_intermediate	0,0,0,3,0,0,1,2,0	test	ward_and_allport	1,0,0,3,2,0,0,0,0	71.0	35.0	1.12	0,0,0,0,0,0,1,2,3	to_board	s635
337.526	0.513	0	PA_without_intermediate	0,0,0,3,0,0,1,0,0	test	ward_and_allport	1,0,0,3,2,0,0,0,0	82.0	35.0	0.513	0,0,0,0,0,0,1,2,3	to_hand	s635
338.04	0.468	0	PA_without_intermediate	0,0,0,3,2,0,1,0,0	test	ward_and_allport	1,0,0,3,2,0,0,0,0	71.0	35.0	0.468	0,0,0,0,0,0,1,2,3	to_board	s635
338.517	0.998	0	PA_without_intermediate	0,0,0,3,2,0,0,0,0	test	ward_and_allport	1,0,0,3,2,0,0,0,0	82.0	35.0	0.998	0,0,0,0,0,0,1,2,3	to_hand	s635
339.516	0.277	0	PA_without_intermediate	1,0,0,3,2,0,0,0,0	test	ward_and_allport	1,0,0,3,2,0,0,0,0	89.0	35.0	0.277	0,0,0,0,0,0,1,2,3	to_board	s635
339.803	1.0	0	PA_without_intermediate	n/a	test	ward_and_allport	n/a	-1.0	35.0	n/a	n/a	feedback	s635
340.803	1.68	0	PA_without_intermediate	n/a	test	ward_and_allport	n/a	-1.0	35.0	n/a	n/a	ITI	s635
342.49	1.893	1	PA_without_intermediate	1,2,0,0,0,0,0,0,0	test	ward_and_allport	0,0,0,1,0,0,3,2,0	89.0	36.0	1.893	1,2,3,0,0,0,0,0,0	to_hand	s635
344.384	0.321	0	PA_without_intermediate	1,2,0,0,0,0,3,0,0	test	ward_and_allport	0,0,0,1,0,0,3,2,0	82.0	36.0	0.321	1,2,3,0,0,0,0,0,0	to_board	s635
344.713	0.345	0	PA_without_intermediate	1,0,0,0,0,0,3,0,0	test	ward_and_allport	0,0,0,1,0,0,3,2,0	89.0	36.0	0.345	1,2,3,0,0,0,0,0,0	to_hand	s635
345.059	0.419	0	PA_without_intermediate	1,0,0,0,0,0,3,2,0	test	ward_and_allport	0,0,0,1,0,0,3,2,0	82.0	36.0	0.419	1,2,3,0,0,0,0,0,0	to_board	s635
345.483	5.116	0	PA_without_intermediate	0,0,0,0,0,0,3,2,0	test	ward_and_allport	0,0,0,1,0,0,3,2,0	89.0	36.0	5.116	1,2,3,0,0,0,0,0,0	to_hand	s635
350.6	0.281	0	PA_without_intermediate	0,0,0,1,0,0,3,2,0	test	ward_and_allport	0,0,0,1,0,0,3,2,0	71.0	36.0	0.281	1,2,3,0,0,0,0,0,0	to_board	s635
350.891	1.0	0	PA_without_intermediate	n/a	test	ward_and_allport	n/a	-1.0	36.0	n/a	n/a	feedback	s635
351.891	2.088	0	PA_without_intermediate	n/a	test	ward_and_allport	n/a	-1.0	36.0	n/a	n/a	ITI	s635
353.99	0.984	1	PA_with_intermediate	1,2,0,0,0,0,0,0,0	test	ward_and_allport	1,0,0,0,0,0,2,3,0	89.0	37.0	0.984	1,2,3,0,0,0,0,0,0	to_hand	s635
354.974	1.196	0	PA_with_intermediate	1,2,0,3,0,0,0,0,0	test	ward_and_allport	1,0,0,0,0,0,2,3,0	71.0	37.0	1.196	1,2,3,0,0,0,0,0,0	to_board	s635
356.18	0.414	0	PA_with_intermediate	1,0,0,3,0,0,0,0,0	test	ward_and_allport	1,0,0,0,0,0,2,3,0	89.0	37.0	0.414	1,2,3,0,0,0,0,0,0	to_hand	s635
356.596	0.426	0	PA_with_intermediate	1,0,0,3,0,0,2,0,0	test	ward_and_allport	1,0,0,0,0,0,2,3,0	82.0	37.0	0.426	1,2,3,0,0,0,0,0,0	to_board	s635
357.029	0.543	0	PA_with_intermediate	1,0,0,0,0,0,2,0,0	test	ward_and_allport	1,0,0,0,0,0,2,3,0	71.0	37.0	0.543	1,2,3,0,0,0,0,0,0	to_hand	s635
357.572	0.364	0	PA_with_intermediate	1,0,0,0,0,0,2,3,0	test	ward_and_allport	1,0,0,0,0,0,2,3,0	82.0	37.0	0.364	1,2,3,0,0,0,0,0,0	to_board	s635
357.944	1.0	0	PA_with_intermediate	n/a	test	ward_and_allport	n/a	-1.0	37.0	n/a	n/a	feedback	s635
358.944	1.0	0	PA_with_intermediate	n/a	test	ward_and_allport	n/a	-1.0	37.0	n/a	n/a	ITI	s635
359.952	1.346	1	PA_without_intermediate	0,0,0,1,2,0,0,0,0	test	ward_and_allport	1,0,0,0,0,0,3,2,0	71.0	38.0	1.346	0,0,0,1,2,3,0,0,0	to_hand	s635
361.299	0.374	0	PA_without_intermediate	0,0,0,1,2,0,3,0,0	test	ward_and_allport	1,0,0,0,0,0,3,2,0	82.0	38.0	0.374	0,0,0,1,2,3,0,0,0	to_board	s635
361.68	0.656	0	PA_without_intermediate	0,0,0,1,0,0,3,0,0	test	ward_and_allport	1,0,0,0,0,0,3,2,0	71.0	38.0	0.656	0,0,0,1,2,3,0,0,0	to_hand	s635
362.337	0.356	0	PA_without_intermediate	0,0,0,1,0,0,3,2,0	test	ward_and_allport	1,0,0,0,0,0,3,2,0	82.0	38.0	0.356	0,0,0,1,2,3,0,0,0	to_board	s635
362.702	0.369	0	PA_without_intermediate	0,0,0,0,0,0,3,2,0	test	ward_and_allport	1,0,0,0,0,0,3,2,0	71.0	38.0	0.369	0,0,0,1,2,3,0,0,0	to_hand	s635
363.072	0.301	0	PA_without_intermediate	1,0,0,0,0,0,3,2,0	test	ward_and_allport	1,0,0,0,0,0,3,2,0	89.0	38.0	0.301	0,0,0,1,2,3,0,0,0	to_board	s635
363.379	1.0	0	PA_without_intermediate	n/a	test	ward_and_allport	n/a	-1.0	38.0	n/a	n/a	feedback	s635
364.379	1.0	0	PA_without_intermediate	n/a	test	ward_and_allport	n/a	-1.0	38.0	n/a	n/a	ITI	s635
365.387	2.303	1	PA_without_intermediate	0,0,0,0,0,0,1,2,0	test	ward_and_allport	2,0,0,3,1,0,0,0,0	82.0	39.0	2.303	0,0,0,0,0,0,1,2,3	to_hand	s635
367.691	0.397	0	PA_without_intermediate	0,0,0,3,0,0,1,2,0	test	ward_and_allport	2,0,0,3,1,0,0,0,0	71.0	39.0	0.397	0,0,0,0,0,0,1,2,3	to_board	s635
368.095	1.161	0	PA_without_intermediate	0,0,0,3,0,0,1,0,0	test	ward_and_allport	2,0,0,3,1,0,0,0,0	82.0	39.0	1.161	0,0,0,0,0,0,1,2,3	to_hand	s635
369.258	0.365	0	PA_without_intermediate	2,0,0,3,0,0,1,0,0	test	ward_and_allport	2,0,0,3,1,0,0,0,0	89.0	39.0	0.365	0,0,0,0,0,0,1,2,3	to_board	s635
369.634	1.882	0	PA_without_intermediate	2,0,0,3,0,0,0,0,0	test	ward_and_allport	2,0,0,3,1,0,0,0,0	82.0	39.0	1.882	0,0,0,0,0,0,1,2,3	to_hand	s635
371.518	0.312	0	PA_without_intermediate	2,0,0,3,1,0,0,0,0	test	ward_and_allport	2,0,0,3,1,0,0,0,0	71.0	39.0	0.312	0,0,0,0,0,0,1,2,3	to_board	s635
371.841	1.0	0	PA_without_intermediate	n/a	test	ward_and_allport	n/a	-1.0	39.0	n/a	n/a	feedback	s635
372.841	1.0	0	PA_without_intermediate	n/a	test	ward_and_allport	n/a	-1.0	39.0	n/a	n/a	ITI	s635
373.848	1.432	1	PA_with_intermediate	0,0,0,0,0,0,1,2,0	test	ward_and_allport	2,0,0,0,0,0,1,3,0	82.0	40.0	1.432	0,0,0,0,0,0,1,2,3	to_hand	s635
375.281	2.413	0	PA_with_intermediate	0,0,0,3,0,0,1,2,0	test	ward_and_allport	2,0,0,0,0,0,1,3,0	71.0	40.0	2.413	0,0,0,0,0,0,1,2,3	to_board	s635
377.702	0.636	0	PA_with_intermediate	0,0,0,3,0,0,1,0,0	test	ward_and_allport	2,0,0,0,0,0,1,3,0	82.0	40.0	0.636	0,0,0,0,0,0,1,2,3	to_hand	s635
378.339	0.496	0	PA_with_intermediate	2,0,0,3,0,0,1,0,0	test	ward_and_allport	2,0,0,0,0,0,1,3,0	89.0	40.0	0.496	0,0,0,0,0,0,1,2,3	to_board	s635
378.844	0.702	0	PA_with_intermediate	2,0,0,0,0,0,1,0,0	test	ward_and_allport	2,0,0,0,0,0,1,3,0	71.0	40.0	0.702	0,0,0,0,0,0,1,2,3	to_hand	s635
379.547	0.637	0	PA_with_intermediate	2,0,0,0,0,0,1,3,0	test	ward_and_allport	2,0,0,0,0,0,1,3,0	82.0	40.0	0.637	0,0,0,0,0,0,1,2,3	to_board	s635
380.195	1.0	0	PA_with_intermediate	n/a	test	ward_and_allport	n/a	-1.0	40.0	n/a	n/a	feedback	s635
381.195	1.544	0	PA_with_intermediate	n/a	test	ward_and_allport	n/a	-1.0	40.0	n/a	n/a	ITI	s635
382.747	2.207	1	PA_without_intermediate	0,0,0,0,0,0,1,2,0	test	ward_and_allport	3,2,0,1,0,0,0,0,0	82.0	41.0	2.207	0,0,0,0,0,0,1,2,3	to_hand	s635
384.955	0.406	0	PA_without_intermediate	3,0,0,0,0,0,1,2,0	test	ward_and_allport	3,2,0,1,0,0,0,0,0	89.0	41.0	0.406	0,0,0,0,0,0,1,2,3	to_board	s635
385.368	0.461	0	PA_without_intermediate	3,0,0,0,0,0,1,0,0	test	ward_and_allport	3,2,0,1,0,0,0,0,0	82.0	41.0	0.461	0,0,0,0,0,0,1,2,3	to_hand	s635
385.83	0.38	0	PA_without_intermediate	3,2,0,0,0,0,1,0,0	test	ward_and_allport	3,2,0,1,0,0,0,0,0	89.0	41.0	0.38	0,0,0,0,0,0,1,2,3	to_board	s635
386.22	0.673	0	PA_without_intermediate	3,2,0,0,0,0,0,0,0	test	ward_and_allport	3,2,0,1,0,0,0,0,0	82.0	41.0	0.673	0,0,0,0,0,0,1,2,3	to_hand	s635
386.894	0.375	0	PA_without_intermediate	3,2,0,1,0,0,0,0,0	test	ward_and_allport	3,2,0,1,0,0,0,0,0	71.0	41.0	0.375	0,0,0,0,0,0,1,2,3	to_board	s635
387.278	1.0	0	PA_without_intermediate	n/a	test	ward_and_allport	n/a	-1.0	41.0	n/a	n/a	feedback	s635
388.278	1.272	0	PA_without_intermediate	n/a	test	ward_and_allport	n/a	-1.0	41.0	n/a	n/a	ITI	s635
389.557	2.506	1	PA_with_intermediate	0,0,0,1,2,0,0,0,0	test	ward_and_allport	2,3,0,1,0,0,0,0,0	71.0	42.0	2.506	0,0,0,1,2,3,0,0,0	to_hand	s635
392.064	0.708	0	PA_with_intermediate	0,0,0,1,2,0,3,0,0	test	ward_and_allport	2,3,0,1,0,0,0,0,0	82.0	42.0	0.708	0,0,0,1,2,3,0,0,0	to_board	s635
392.78	0.796	0	PA_with_intermediate	0,0,0,1,0,0,3,0,0	test	ward_and_allport	2,3,0,1,0,0,0,0,0	71.0	42.0	0.796	0,0,0,1,2,3,0,0,0	to_hand	s635
393.577	0.376	0	PA_with_intermediate	2,0,0,1,0,0,3,0,0	test	ward_and_allport	2,3,0,1,0,0,0,0,0	89.0	42.0	0.376	0,0,0,1,2,3,0,0,0	to_board	s635
393.964	0.465	0	PA_with_intermediate	2,0,0,1,0,0,0,0,0	test	ward_and_allport	2,3,0,1,0,0,0,0,0	82.0	42.0	0.465	0,0,0,1,2,3,0,0,0	to_hand	s635
394.431	0.262	0	PA_with_intermediate	2,3,0,1,0,0,0,0,0	test	ward_and_allport	2,3,0,1,0,0,0,0,0	89.0	42.0	0.262	0,0,0,1,2,3,0,0,0	to_board	s635
394.702	1.0	0	PA_with_intermediate	n/a	test	ward_and_allport	n/a	-1.0	42.0	n/a	n/a	feedback	s635
395.702	3.04	0	PA_with_intermediate	n/a	test	ward_and_allport	n/a	-1.0	42.0	n/a	n/a	ITI	s635
398.749	1.6	1	PA_with_intermediate	0,0,0,1,2,0,0,0,0	test	ward_and_allport	0,0,0,1,0,0,2,3,0	71.0	43.0	1.6	0,0,0,1,2,3,0,0,0	to_hand	s635
400.35	0.309	0	PA_with_intermediate	3,0,0,1,2,0,0,0,0	test	ward_and_allport	0,0,0,1,0,0,2,3,0	89.0	43.0	0.309	0,0,0,1,2,3,0,0,0	to_board	s635
400.666	1.061	0	PA_with_intermediate	3,0,0,1,0,0,0,0,0	test	ward_and_allport	0,0,0,1,0,0,2,3,0	71.0	43.0	1.061	0,0,0,1,2,3,0,0,0	to_hand	s635
401.728	0.504	0	PA_with_intermediate	3,0,0,1,0,0,2,0,0	test	ward_and_allport	0,0,0,1,0,0,2,3,0	82.0	43.0	0.504	0,0,0,1,2,3,0,0,0	to_board	s635
402.241	0.46	0	PA_with_intermediate	0,0,0,1,0,0,2,0,0	test	ward_and_allport	0,0,0,1,0,0,2,3,0	89.0	43.0	0.46	0,0,0,1,2,3,0,0,0	to_hand	s635
402.702	0.451	0	PA_with_intermediate	0,0,0,1,0,0,2,3,0	test	ward_and_allport	0,0,0,1,0,0,2,3,0	82.0	43.0	0.451	0,0,0,1,2,3,0,0,0	to_board	s635
403.165	1.0	0	PA_with_intermediate	n/a	test	ward_and_allport	n/a	-1.0	43.0	n/a	n/a	feedback	s635
404.165	1.272	0	PA_with_intermediate	n/a	test	ward_and_allport	n/a	-1.0	43.0	n/a	n/a	ITI	s635
405.451	1.638	1	PA_with_intermediate	0,0,0,1,2,0,0,0,0	test	ward_and_allport	2,0,0,1,3,0,0,0,0	71.0	44.0	1.638	0,0,0,1,2,3,0,0,0	to_hand	s635
407.09	3.155	0	PA_with_intermediate	0,0,0,1,2,0,3,0,0	test	ward_and_allport	2,0,0,1,3,0,0,0,0	82.0	44.0	3.155	0,0,0,1,2,3,0,0,0	to_board	s635
410.255	1.608	0	PA_with_intermediate	0,0,0,1,0,0,3,0,0	test	ward_and_allport	2,0,0,1,3,0,0,0,0	71.0	44.0	1.608	0,0,0,1,2,3,0,0,0	to_hand	s635
411.865	1.175	0	PA_with_intermediate	2,0,0,1,0,0,3,0,0	test	ward_and_allport	2,0,0,1,3,0,0,0,0	89.0	44.0	1.175	0,0,0,1,2,3,0,0,0	to_board	s635
413.051	1.382	0	PA_with_intermediate	2,0,0,1,0,0,0,0,0	test	ward_and_allport	2,0,0,1,3,0,0,0,0	82.0	44.0	1.382	0,0,0,1,2,3,0,0,0	to_hand	s635
414.434	0.404	0	PA_with_intermediate	2,0,0,1,3,0,0,0,0	test	ward_and_allport	2,0,0,1,3,0,0,0,0	71.0	44.0	0.404	0,0,0,1,2,3,0,0,0	to_board	s635
414.85	1.0	0	PA_with_intermediate	n/a	test	ward_and_allport	n/a	-1.0	44.0	n/a	n/a	feedback	s635
415.85	1.136	0	PA_with_intermediate	n/a	test	ward_and_allport	n/a	-1.0	44.0	n/a	n/a	ITI	s635
421.997	1.85	1	PA_with_intermediate	0,0,0,0,0,0,1,2,0	test	ward_and_allport	2,0,0,0,0,0,1,3,0	82.0	45.0	1.85	0,0,0,0,0,0,1,2,3	to_hand	s635
423.848	1.057	0	PA_with_intermediate	0,0,0,3,0,0,1,2,0	test	ward_and_allport	2,0,0,0,0,0,1,3,0	71.0	45.0	1.057	0,0,0,0,0,0,1,2,3	to_board	s635
424.916	0.578	0	PA_with_intermediate	0,0,0,3,0,0,1,0,0	test	ward_and_allport	2,0,0,0,0,0,1,3,0	82.0	45.0	0.578	0,0,0,0,0,0,1,2,3	to_hand	s635
425.495	0.486	0	PA_with_intermediate	2,0,0,3,0,0,1,0,0	test	ward_and_allport	2,0,0,0,0,0,1,3,0	89.0	45.0	0.486	0,0,0,0,0,0,1,2,3	to_board	s635
425.993	1.197	0	PA_with_intermediate	2,0,0,0,0,0,1,0,0	test	ward_and_allport	2,0,0,0,0,0,1,3,0	71.0	45.0	1.197	0,0,0,0,0,0,1,2,3	to_hand	s635
427.191	0.382	0	PA_with_intermediate	2,0,0,0,0,0,1,3,0	test	ward_and_allport	2,0,0,0,0,0,1,3,0	82.0	45.0	0.382	0,0,0,0,0,0,1,2,3	to_board	s635
427.585	1.0	0	PA_with_intermediate	n/a	test	ward_and_allport	n/a	-1.0	45.0	n/a	n/a	feedback	s635
428.585	1.0	0	PA_with_intermediate	n/a	test	ward_and_allport	n/a	-1.0	45.0	n/a	n/a	ITI	s635
429.596	3.906	1	PA_with_intermediate	0,0,0,1,2,0,0,0,0	test	ward_and_allport	2,3,0,1,0,0,0,0,0	71.0	46.0	3.906	0,0,0,1,2,3,0,0,0	to_hand	s635
433.503	0.377	0	PA_with_intermediate	0,0,0,1,2,0,3,0,0	test	ward_and_allport	2,3,0,1,0,0,0,0,0	82.0	46.0	0.377	0,0,0,1,2,3,0,0,0	to_board	s635
433.887	1.21	0	PA_with_intermediate	0,0,0,1,0,0,3,0,0	test	ward_and_allport	2,3,0,1,0,0,0,0,0	71.0	46.0	1.21	0,0,0,1,2,3,0,0,0	to_hand	s635
435.098	0.704	0	PA_with_intermediate	2,0,0,1,0,0,3,0,0	test	ward_and_allport	2,3,0,1,0,0,0,0,0	89.0	46.0	0.704	0,0,0,1,2,3,0,0,0	to_board	s635
435.813	0.641	0	PA_with_intermediate	2,0,0,0,0,0,3,0,0	test	ward_and_allport	2,3,0,1,0,0,0,0,0	71.0	46.0	0.641	0,0,0,1,2,3,0,0,0	to_hand	s635
436.455	0.539	0	PA_with_intermediate	2,1,0,0,0,0,3,0,0	test	ward_and_allport	2,3,0,1,0,0,0,0,0	89.0	46.0	0.539	0,0,0,1,2,3,0,0,0	to_board	s635
437.006	2.66	0	PA_with_intermediate	2,0,0,0,0,0,3,0,0	test	ward_and_allport	2,3,0,1,0,0,0,0,0	89.0	46.0	2.66	0,0,0,1,2,3,0,0,0	to_hand	s635
439.668	0.37	0	PA_with_intermediate	2,0,0,1,0,0,3,0,0	test	ward_and_allport	2,3,0,1,0,0,0,0,0	71.0	46.0	0.37	0,0,0,1,2,3,0,0,0	to_board	s635
440.048	0.666	0	PA_with_intermediate	2,0,0,1,0,0,0,0,0	test	ward_and_allport	2,3,0,1,0,0,0,0,0	82.0	46.0	0.666	0,0,0,1,2,3,0,0,0	to_hand	s635
440.715	0.311	0	PA_with_intermediate	2,3,0,1,0,0,0,0,0	test	ward_and_allport	2,3,0,1,0,0,0,0,0	89.0	46.0	0.311	0,0,0,1,2,3,0,0,0	to_board	s635
441.036	1.0	0	PA_with_intermediate	n/a	test	ward_and_allport	n/a	-1.0	46.0	n/a	n/a	feedback	s635
442.036	1.0	0	PA_with_intermediate	n/a	test	ward_and_allport	n/a	-1.0	46.0	n/a	n/a	ITI	s635
443.043	5.212	1	PA_without_intermediate	1,2,0,0,0,0,0,0,0	test	ward_and_allport	0,0,0,1,0,0,3,2,0	89.0	47.0	5.212	1,2,3,0,0,0,0,0,0	to_hand	s635
448.256	0.385	0	PA_without_intermediate	1,2,0,0,0,0,3,0,0	test	ward_and_allport	0,0,0,1,0,0,3,2,0	82.0	47.0	0.385	1,2,3,0,0,0,0,0,0	to_board	s635
448.65	0.48	0	PA_without_intermediate	1,0,0,0,0,0,3,0,0	test	ward_and_allport	0,0,0,1,0,0,3,2,0	89.0	47.0	0.48	1,2,3,0,0,0,0,0,0	to_hand	s635
449.131	0.392	0	PA_without_intermediate	1,0,0,0,0,0,3,2,0	test	ward_and_allport	0,0,0,1,0,0,3,2,0	82.0	47.0	0.392	1,2,3,0,0,0,0,0,0	to_board	s635
449.534	0.44	0	PA_without_intermediate	0,0,0,0,0,0,3,2,0	test	ward_and_allport	0,0,0,1,0,0,3,2,0	89.0	47.0	0.44	1,2,3,0,0,0,0,0,0	to_hand	s635
449.975	0.378	0	PA_without_intermediate	0,0,0,1,0,0,3,2,0	test	ward_and_allport	0,0,0,1,0,0,3,2,0	71.0	47.0	0.378	1,2,3,0,0,0,0,0,0	to_board	s635
450.367	1.0	0	PA_without_intermediate	n/a	test	ward_and_allport	n/a	-1.0	47.0	n/a	n/a	feedback	s635
451.367	1.408	0	PA_without_intermediate	n/a	test	ward_and_allport	n/a	-1.0	47.0	n/a	n/a	ITI	s635
n/a	n/a	0	n/a	n/a	n/a	n/a	n/a	n/a	n/a	n/a	n/a	ITI	n/a
