onset	duration	planning	condition	current_position	exp_stage	experiment_exp_id	goal_state	key_press	problem_id	response_time	start_state	trial_id	worker_id
-53.814	0.0	0	n/a	n/a	n/a	ward_and_allport	n/a	32.0	n/a	13.047	n/a	instructions	s524
3.007	3.855	1	UA_with_intermediate	1,0,0,2,0,0,0,0,0	practice	ward_and_allport	1,2,3,0,0,0,0,0,0	71.0	0.0	3.855	1,0,0,2,3,0,0,0,0	to_hand	s524
6.864	0.419	0	UA_with_intermediate	1,0,0,2,0,0,3,0,0	practice	ward_and_allport	1,2,3,0,0,0,0,0,0	82.0	0.0	0.419	1,0,0,2,3,0,0,0,0	to_board	s524
7.286	0.679	0	UA_with_intermediate	1,0,0,0,0,0,3,0,0	practice	ward_and_allport	1,2,3,0,0,0,0,0,0	71.0	0.0	0.679	1,0,0,2,3,0,0,0,0	to_hand	s524
7.967	0.337	0	UA_with_intermediate	1,2,0,0,0,0,3,0,0	practice	ward_and_allport	1,2,3,0,0,0,0,0,0	89.0	0.0	0.337	1,0,0,2,3,0,0,0,0	to_board	s524
8.306	0.706	0	UA_with_intermediate	1,2,0,0,0,0,0,0,0	practice	ward_and_allport	1,2,3,0,0,0,0,0,0	82.0	0.0	0.706	1,0,0,2,3,0,0,0,0	to_hand	s524
9.014	0.357	0	UA_with_intermediate	1,2,3,0,0,0,0,0,0	practice	ward_and_allport	1,2,3,0,0,0,0,0,0	89.0	0.0	0.357	1,0,0,2,3,0,0,0,0	to_board	s524
9.374	1.0	0	UA_with_intermediate	n/a	practice	ward_and_allport	n/a	-1.0	0.0	n/a	n/a	feedback	s524
11.877	2.788	1	UA_with_intermediate	1,0,0,3,0,0,0,0,0	practice	ward_and_allport	1,3,2,0,0,0,0,0,0	89.0	1.0	2.788	1,2,0,3,0,0,0,0,0	to_hand	s524
14.667	0.307	0	UA_with_intermediate	1,0,0,3,0,0,2,0,0	practice	ward_and_allport	1,3,2,0,0,0,0,0,0	82.0	1.0	0.307	1,2,0,3,0,0,0,0,0	to_board	s524
14.977	0.328	0	UA_with_intermediate	1,0,0,0,0,0,2,0,0	practice	ward_and_allport	1,3,2,0,0,0,0,0,0	71.0	1.0	0.328	1,2,0,3,0,0,0,0,0	to_hand	s524
15.306	0.31	0	UA_with_intermediate	1,3,0,0,0,0,2,0,0	practice	ward_and_allport	1,3,2,0,0,0,0,0,0	89.0	1.0	0.31	1,2,0,3,0,0,0,0,0	to_board	s524
15.617	0.519	0	UA_with_intermediate	1,3,0,0,0,0,0,0,0	practice	ward_and_allport	1,3,2,0,0,0,0,0,0	82.0	1.0	0.519	1,2,0,3,0,0,0,0,0	to_hand	s524
16.138	0.219	0	UA_with_intermediate	1,3,2,0,0,0,0,0,0	practice	ward_and_allport	1,3,2,0,0,0,0,0,0	89.0	1.0	0.219	1,2,0,3,0,0,0,0,0	to_board	s524
16.359	1.0	0	UA_with_intermediate	n/a	practice	ward_and_allport	n/a	-1.0	1.0	n/a	n/a	feedback	s524
17.359	1.1	0	UA_with_intermediate	n/a	practice	ward_and_allport	n/a	-1.0	1.0	n/a	n/a	ITI	s524
18.46	2.949	1	UA_without_intermediate	0,0,0,1,2,0,0,0,0	practice	ward_and_allport	3,2,1,0,0,0,0,0,0	82.0	2.0	2.949	0,0,0,1,2,0,3,0,0	to_hand	s524
21.411	0.308	0	UA_without_intermediate	3,0,0,1,2,0,0,0,0	practice	ward_and_allport	3,2,1,0,0,0,0,0,0	89.0	2.0	0.308	0,0,0,1,2,0,3,0,0	to_board	s524
21.724	0.311	0	UA_without_intermediate	3,0,0,1,0,0,0,0,0	practice	ward_and_allport	3,2,1,0,0,0,0,0,0	71.0	2.0	0.311	0,0,0,1,2,0,3,0,0	to_hand	s524
22.035	0.316	0	UA_without_intermediate	3,2,0,1,0,0,0,0,0	practice	ward_and_allport	3,2,1,0,0,0,0,0,0	89.0	2.0	0.316	0,0,0,1,2,0,3,0,0	to_board	s524
22.353	0.334	0	UA_without_intermediate	3,2,0,0,0,0,0,0,0	practice	ward_and_allport	3,2,1,0,0,0,0,0,0	71.0	2.0	0.334	0,0,0,1,2,0,3,0,0	to_hand	s524
22.688	0.326	0	UA_without_intermediate	3,2,1,0,0,0,0,0,0	practice	ward_and_allport	3,2,1,0,0,0,0,0,0	89.0	2.0	0.326	0,0,0,1,2,0,3,0,0	to_board	s524
23.017	1.0	0	UA_without_intermediate	n/a	practice	ward_and_allport	n/a	-1.0	2.0	n/a	n/a	feedback	s524
24.017	1.2	0	UA_without_intermediate	n/a	practice	ward_and_allport	n/a	-1.0	2.0	n/a	n/a	ITI	s524
25.219	3.156	1	UA_without_intermediate	0,0,0,1,0,0,3,0,0	practice	ward_and_allport	2,3,1,0,0,0,0,0,0	71.0	3.0	3.156	0,0,0,1,2,0,3,0,0	to_hand	s524
28.375	0.299	0	UA_without_intermediate	2,0,0,1,0,0,3,0,0	practice	ward_and_allport	2,3,1,0,0,0,0,0,0	89.0	3.0	0.299	0,0,0,1,2,0,3,0,0	to_board	s524
28.676	0.32	0	UA_without_intermediate	2,0,0,1,0,0,0,0,0	practice	ward_and_allport	2,3,1,0,0,0,0,0,0	82.0	3.0	0.32	0,0,0,1,2,0,3,0,0	to_hand	s524
28.997	0.269	0	UA_without_intermediate	2,3,0,1,0,0,0,0,0	practice	ward_and_allport	2,3,1,0,0,0,0,0,0	89.0	3.0	0.269	0,0,0,1,2,0,3,0,0	to_board	s524
29.268	0.255	0	UA_without_intermediate	2,3,0,0,0,0,0,0,0	practice	ward_and_allport	2,3,1,0,0,0,0,0,0	71.0	3.0	0.255	0,0,0,1,2,0,3,0,0	to_hand	s524
29.525	0.269	0	UA_without_intermediate	2,3,1,0,0,0,0,0,0	practice	ward_and_allport	2,3,1,0,0,0,0,0,0	89.0	3.0	0.269	0,0,0,1,2,0,3,0,0	to_board	s524
29.797	1.0	0	UA_without_intermediate	n/a	practice	ward_and_allport	n/a	-1.0	3.0	n/a	n/a	feedback	s524
30.797	1.0	0	UA_without_intermediate	n/a	practice	ward_and_allport	n/a	-1.0	3.0	n/a	n/a	ITI	s524
33.802	4.077	1	PA_with_intermediate	1,2,0,0,0,0,0,0,0	test	ward_and_allport	1,3,0,0,0,0,2,0,0	89.0	0.0	4.077	1,2,3,0,0,0,0,0,0	to_hand	s524
37.881	0.285	0	PA_with_intermediate	1,2,0,3,0,0,0,0,0	test	ward_and_allport	1,3,0,0,0,0,2,0,0	71.0	0.0	0.285	1,2,3,0,0,0,0,0,0	to_board	s524
38.168	1.09	0	PA_with_intermediate	1,0,0,3,0,0,0,0,0	test	ward_and_allport	1,3,0,0,0,0,2,0,0	89.0	0.0	1.09	1,2,3,0,0,0,0,0,0	to_hand	s524
39.259	0.275	0	PA_with_intermediate	1,0,0,3,0,0,2,0,0	test	ward_and_allport	1,3,0,0,0,0,2,0,0	82.0	0.0	0.275	1,2,3,0,0,0,0,0,0	to_board	s524
39.536	0.591	0	PA_with_intermediate	1,0,0,0,0,0,2,0,0	test	ward_and_allport	1,3,0,0,0,0,2,0,0	71.0	0.0	0.591	1,2,3,0,0,0,0,0,0	to_hand	s524
40.128	0.234	0	PA_with_intermediate	1,3,0,0,0,0,2,0,0	test	ward_and_allport	1,3,0,0,0,0,2,0,0	89.0	0.0	0.234	1,2,3,0,0,0,0,0,0	to_board	s524
40.365	1.0	0	PA_with_intermediate	n/a	test	ward_and_allport	n/a	-1.0	0.0	n/a	n/a	feedback	s524
41.365	3.176	0	PA_with_intermediate	n/a	test	ward_and_allport	n/a	-1.0	0.0	n/a	n/a	ITI	s524
44.544	3.13	1	PA_with_intermediate	0,0,0,1,2,0,0,0,0	test	ward_and_allport	0,0,0,1,3,0,2,0,0	71.0	1.0	3.13	0,0,0,1,2,3,0,0,0	to_hand	s524
47.676	0.332	0	PA_with_intermediate	3,0,0,1,2,0,0,0,0	test	ward_and_allport	0,0,0,1,3,0,2,0,0	89.0	1.0	0.332	0,0,0,1,2,3,0,0,0	to_board	s524
48.011	0.496	0	PA_with_intermediate	3,0,0,1,0,0,0,0,0	test	ward_and_allport	0,0,0,1,3,0,2,0,0	71.0	1.0	0.496	0,0,0,1,2,3,0,0,0	to_hand	s524
48.508	0.492	0	PA_with_intermediate	3,0,0,1,0,0,2,0,0	test	ward_and_allport	0,0,0,1,3,0,2,0,0	82.0	1.0	0.492	0,0,0,1,2,3,0,0,0	to_board	s524
49.003	0.293	0	PA_with_intermediate	0,0,0,1,0,0,2,0,0	test	ward_and_allport	0,0,0,1,3,0,2,0,0	89.0	1.0	0.293	0,0,0,1,2,3,0,0,0	to_hand	s524
49.297	0.273	0	PA_with_intermediate	0,0,0,1,3,0,2,0,0	test	ward_and_allport	0,0,0,1,3,0,2,0,0	71.0	1.0	0.273	0,0,0,1,2,3,0,0,0	to_board	s524
49.573	1.0	0	PA_with_intermediate	n/a	test	ward_and_allport	n/a	-1.0	1.0	n/a	n/a	feedback	s524
50.573	2.36	0	PA_with_intermediate	n/a	test	ward_and_allport	n/a	-1.0	1.0	n/a	n/a	ITI	s524
52.937	3.134	1	PA_with_intermediate	0,0,0,1,2,0,0,0,0	test	ward_and_allport	2,3,0,1,0,0,0,0,0	71.0	2.0	3.134	0,0,0,1,2,3,0,0,0	to_hand	s524
56.071	0.316	0	PA_with_intermediate	0,0,0,1,2,0,3,0,0	test	ward_and_allport	2,3,0,1,0,0,0,0,0	82.0	2.0	0.316	0,0,0,1,2,3,0,0,0	to_board	s524
56.39	0.314	0	PA_with_intermediate	0,0,0,1,0,0,3,0,0	test	ward_and_allport	2,3,0,1,0,0,0,0,0	71.0	2.0	0.314	0,0,0,1,2,3,0,0,0	to_hand	s524
56.706	0.286	0	PA_with_intermediate	2,0,0,1,0,0,3,0,0	test	ward_and_allport	2,3,0,1,0,0,0,0,0	89.0	2.0	0.286	0,0,0,1,2,3,0,0,0	to_board	s524
56.994	0.322	0	PA_with_intermediate	2,0,0,1,0,0,0,0,0	test	ward_and_allport	2,3,0,1,0,0,0,0,0	82.0	2.0	0.322	0,0,0,1,2,3,0,0,0	to_hand	s524
57.317	0.274	0	PA_with_intermediate	2,3,0,1,0,0,0,0,0	test	ward_and_allport	2,3,0,1,0,0,0,0,0	89.0	2.0	0.274	0,0,0,1,2,3,0,0,0	to_board	s524
57.595	1.0	0	PA_with_intermediate	n/a	test	ward_and_allport	n/a	-1.0	2.0	n/a	n/a	feedback	s524
58.595	1.0	0	PA_with_intermediate	n/a	test	ward_and_allport	n/a	-1.0	2.0	n/a	n/a	ITI	s524
59.598	3.032	1	PA_without_intermediate	1,2,0,0,0,0,0,0,0	test	ward_and_allport	0,0,0,1,0,0,3,2,0	89.0	3.0	3.032	1,2,3,0,0,0,0,0,0	to_hand	s524
62.631	0.317	0	PA_without_intermediate	1,2,0,0,0,0,3,0,0	test	ward_and_allport	0,0,0,1,0,0,3,2,0	82.0	3.0	0.317	1,2,3,0,0,0,0,0,0	to_board	s524
62.951	0.304	0	PA_without_intermediate	1,0,0,0,0,0,3,0,0	test	ward_and_allport	0,0,0,1,0,0,3,2,0	89.0	3.0	0.304	1,2,3,0,0,0,0,0,0	to_hand	s524
63.256	0.304	0	PA_without_intermediate	1,0,0,0,0,0,3,2,0	test	ward_and_allport	0,0,0,1,0,0,3,2,0	82.0	3.0	0.304	1,2,3,0,0,0,0,0,0	to_board	s524
63.563	0.307	0	PA_without_intermediate	0,0,0,0,0,0,3,2,0	test	ward_and_allport	0,0,0,1,0,0,3,2,0	89.0	3.0	0.307	1,2,3,0,0,0,0,0,0	to_hand	s524
63.871	0.295	0	PA_without_intermediate	0,0,0,1,0,0,3,2,0	test	ward_and_allport	0,0,0,1,0,0,3,2,0	71.0	3.0	0.295	1,2,3,0,0,0,0,0,0	to_board	s524
64.17	1.0	0	PA_without_intermediate	n/a	test	ward_and_allport	n/a	-1.0	3.0	n/a	n/a	feedback	s524
65.17	1.408	0	PA_without_intermediate	n/a	test	ward_and_allport	n/a	-1.0	3.0	n/a	n/a	ITI	s524
66.581	4.038	1	PA_with_intermediate	0,0,0,1,2,0,0,0,0	test	ward_and_allport	0,0,0,1,3,0,2,0,0	71.0	4.0	4.038	0,0,0,1,2,3,0,0,0	to_hand	s524
70.621	0.269	0	PA_with_intermediate	3,0,0,1,2,0,0,0,0	test	ward_and_allport	0,0,0,1,3,0,2,0,0	89.0	4.0	0.269	0,0,0,1,2,3,0,0,0	to_board	s524
70.893	0.326	0	PA_with_intermediate	3,0,0,1,0,0,0,0,0	test	ward_and_allport	0,0,0,1,3,0,2,0,0	71.0	4.0	0.326	0,0,0,1,2,3,0,0,0	to_hand	s524
71.22	0.316	0	PA_with_intermediate	3,0,0,1,0,0,2,0,0	test	ward_and_allport	0,0,0,1,3,0,2,0,0	82.0	4.0	0.316	0,0,0,1,2,3,0,0,0	to_board	s524
71.539	0.294	0	PA_with_intermediate	0,0,0,1,0,0,2,0,0	test	ward_and_allport	0,0,0,1,3,0,2,0,0	89.0	4.0	0.294	0,0,0,1,2,3,0,0,0	to_hand	s524
71.834	0.27	0	PA_with_intermediate	0,0,0,1,3,0,2,0,0	test	ward_and_allport	0,0,0,1,3,0,2,0,0	71.0	4.0	0.27	0,0,0,1,2,3,0,0,0	to_board	s524
72.109	1.0	0	PA_with_intermediate	n/a	test	ward_and_allport	n/a	-1.0	4.0	n/a	n/a	feedback	s524
73.109	1.816	0	PA_with_intermediate	n/a	test	ward_and_allport	n/a	-1.0	4.0	n/a	n/a	ITI	s524
74.927	3.114	1	PA_without_intermediate	1,2,0,0,0,0,0,0,0	test	ward_and_allport	0,0,0,3,2,0,1,0,0	89.0	5.0	3.114	1,2,3,0,0,0,0,0,0	to_hand	s524
78.043	0.277	0	PA_without_intermediate	1,2,0,3,0,0,0,0,0	test	ward_and_allport	0,0,0,3,2,0,1,0,0	71.0	5.0	0.277	1,2,3,0,0,0,0,0,0	to_board	s524
78.324	0.285	0	PA_without_intermediate	1,0,0,3,0,0,0,0,0	test	ward_and_allport	0,0,0,3,2,0,1,0,0	89.0	5.0	0.285	1,2,3,0,0,0,0,0,0	to_hand	s524
78.61	0.269	0	PA_without_intermediate	1,0,0,3,2,0,0,0,0	test	ward_and_allport	0,0,0,3,2,0,1,0,0	71.0	5.0	0.269	1,2,3,0,0,0,0,0,0	to_board	s524
78.882	0.283	0	PA_without_intermediate	0,0,0,3,2,0,0,0,0	test	ward_and_allport	0,0,0,3,2,0,1,0,0	89.0	5.0	0.283	1,2,3,0,0,0,0,0,0	to_hand	s524
79.167	0.435	0	PA_without_intermediate	0,0,0,3,2,0,1,0,0	test	ward_and_allport	0,0,0,3,2,0,1,0,0	82.0	5.0	0.435	1,2,3,0,0,0,0,0,0	to_board	s524
79.606	1.0	0	PA_without_intermediate	n/a	test	ward_and_allport	n/a	-1.0	5.0	n/a	n/a	feedback	s524
80.606	2.088	0	PA_without_intermediate	n/a	test	ward_and_allport	n/a	-1.0	5.0	n/a	n/a	ITI	s524
82.697	3.139	1	PA_without_intermediate	0,0,0,0,0,0,1,2,0	test	ward_and_allport	2,0,0,3,1,0,0,0,0	82.0	6.0	3.139	0,0,0,0,0,0,1,2,3	to_hand	s524
85.838	0.297	0	PA_without_intermediate	0,0,0,3,0,0,1,2,0	test	ward_and_allport	2,0,0,3,1,0,0,0,0	71.0	6.0	0.297	0,0,0,0,0,0,1,2,3	to_board	s524
86.138	0.295	0	PA_without_intermediate	0,0,0,3,0,0,1,0,0	test	ward_and_allport	2,0,0,3,1,0,0,0,0	82.0	6.0	0.295	0,0,0,0,0,0,1,2,3	to_hand	s524
86.434	0.281	0	PA_without_intermediate	2,0,0,3,0,0,1,0,0	test	ward_and_allport	2,0,0,3,1,0,0,0,0	89.0	6.0	0.281	0,0,0,0,0,0,1,2,3	to_board	s524
86.719	0.361	0	PA_without_intermediate	2,0,0,3,0,0,0,0,0	test	ward_and_allport	2,0,0,3,1,0,0,0,0	82.0	6.0	0.361	0,0,0,0,0,0,1,2,3	to_hand	s524
87.081	0.829	0	PA_without_intermediate	2,0,0,3,1,0,0,0,0	test	ward_and_allport	2,0,0,3,1,0,0,0,0	71.0	6.0	0.829	0,0,0,0,0,0,1,2,3	to_board	s524
87.914	1.0	0	PA_without_intermediate	n/a	test	ward_and_allport	n/a	-1.0	6.0	n/a	n/a	feedback	s524
88.914	1.136	0	PA_without_intermediate	n/a	test	ward_and_allport	n/a	-1.0	6.0	n/a	n/a	ITI	s524
90.054	2.603	1	PA_without_intermediate	0,0,0,1,2,0,0,0,0	test	ward_and_allport	3,2,0,0,0,0,1,0,0	71.0	7.0	2.603	0,0,0,1,2,3,0,0,0	to_hand	s524
92.659	0.246	0	PA_without_intermediate	3,0,0,1,2,0,0,0,0	test	ward_and_allport	3,2,0,0,0,0,1,0,0	89.0	7.0	0.246	0,0,0,1,2,3,0,0,0	to_board	s524
92.909	0.263	0	PA_without_intermediate	3,0,0,1,0,0,0,0,0	test	ward_and_allport	3,2,0,0,0,0,1,0,0	71.0	7.0	0.263	0,0,0,1,2,3,0,0,0	to_hand	s524
93.173	0.277	0	PA_without_intermediate	3,2,0,1,0,0,0,0,0	test	ward_and_allport	3,2,0,0,0,0,1,0,0	89.0	7.0	0.277	0,0,0,1,2,3,0,0,0	to_board	s524
93.454	0.28	0	PA_without_intermediate	3,2,0,0,0,0,0,0,0	test	ward_and_allport	3,2,0,0,0,0,1,0,0	71.0	7.0	0.28	0,0,0,1,2,3,0,0,0	to_hand	s524
93.735	0.254	0	PA_without_intermediate	3,2,0,0,0,0,1,0,0	test	ward_and_allport	3,2,0,0,0,0,1,0,0	82.0	7.0	0.254	0,0,0,1,2,3,0,0,0	to_board	s524
93.994	1.0	0	PA_without_intermediate	n/a	test	ward_and_allport	n/a	-1.0	7.0	n/a	n/a	feedback	s524
94.994	6.168	0	PA_without_intermediate	n/a	test	ward_and_allport	n/a	-1.0	7.0	n/a	n/a	ITI	s524
101.166	3.218	1	PA_without_intermediate	0,0,0,0,0,0,1,2,0	test	ward_and_allport	3,2,0,1,0,0,0,0,0	82.0	8.0	3.218	0,0,0,0,0,0,1,2,3	to_hand	s524
104.386	0.302	0	PA_without_intermediate	3,0,0,0,0,0,1,2,0	test	ward_and_allport	3,2,0,1,0,0,0,0,0	89.0	8.0	0.302	0,0,0,0,0,0,1,2,3	to_board	s524
104.692	0.259	0	PA_without_intermediate	3,0,0,0,0,0,1,0,0	test	ward_and_allport	3,2,0,1,0,0,0,0,0	82.0	8.0	0.259	0,0,0,0,0,0,1,2,3	to_hand	s524
104.952	0.267	0	PA_without_intermediate	3,2,0,0,0,0,1,0,0	test	ward_and_allport	3,2,0,1,0,0,0,0,0	89.0	8.0	0.267	0,0,0,0,0,0,1,2,3	to_board	s524
105.223	0.275	0	PA_without_intermediate	3,2,0,0,0,0,0,0,0	test	ward_and_allport	3,2,0,1,0,0,0,0,0	82.0	8.0	0.275	0,0,0,0,0,0,1,2,3	to_hand	s524
105.5	0.238	0	PA_without_intermediate	3,2,0,1,0,0,0,0,0	test	ward_and_allport	3,2,0,1,0,0,0,0,0	71.0	8.0	0.238	0,0,0,0,0,0,1,2,3	to_board	s524
105.742	1.0	0	PA_without_intermediate	n/a	test	ward_and_allport	n/a	-1.0	8.0	n/a	n/a	feedback	s524
106.742	1.816	0	PA_without_intermediate	n/a	test	ward_and_allport	n/a	-1.0	8.0	n/a	n/a	ITI	s524
108.562	2.889	1	PA_with_intermediate	0,0,0,1,2,0,0,0,0	test	ward_and_allport	0,0,0,1,0,0,2,3,0	71.0	9.0	2.889	0,0,0,1,2,3,0,0,0	to_hand	s524
111.452	0.253	0	PA_with_intermediate	3,0,0,1,2,0,0,0,0	test	ward_and_allport	0,0,0,1,0,0,2,3,0	89.0	9.0	0.253	0,0,0,1,2,3,0,0,0	to_board	s524
111.708	0.275	0	PA_with_intermediate	3,0,0,1,0,0,0,0,0	test	ward_and_allport	0,0,0,1,0,0,2,3,0	71.0	9.0	0.275	0,0,0,1,2,3,0,0,0	to_hand	s524
111.984	0.264	0	PA_with_intermediate	3,0,0,1,0,0,2,0,0	test	ward_and_allport	0,0,0,1,0,0,2,3,0	82.0	9.0	0.264	0,0,0,1,2,3,0,0,0	to_board	s524
112.252	0.235	0	PA_with_intermediate	0,0,0,1,0,0,2,0,0	test	ward_and_allport	0,0,0,1,0,0,2,3,0	89.0	9.0	0.235	0,0,0,1,2,3,0,0,0	to_hand	s524
112.488	0.256	0	PA_with_intermediate	0,0,0,1,0,0,2,3,0	test	ward_and_allport	0,0,0,1,0,0,2,3,0	82.0	9.0	0.256	0,0,0,1,2,3,0,0,0	to_board	s524
112.749	1.0	0	PA_with_intermediate	n/a	test	ward_and_allport	n/a	-1.0	9.0	n/a	n/a	feedback	s524
113.749	1.952	0	PA_with_intermediate	n/a	test	ward_and_allport	n/a	-1.0	9.0	n/a	n/a	ITI	s524
115.705	3.203	1	PA_with_intermediate	0,0,0,0,0,0,1,2,0	test	ward_and_allport	2,3,0,0,0,0,1,0,0	82.0	10.0	3.203	0,0,0,0,0,0,1,2,3	to_hand	s524
118.909	0.291	0	PA_with_intermediate	0,0,0,3,0,0,1,2,0	test	ward_and_allport	2,3,0,0,0,0,1,0,0	71.0	10.0	0.291	0,0,0,0,0,0,1,2,3	to_board	s524
119.206	0.274	0	PA_with_intermediate	0,0,0,3,0,0,1,0,0	test	ward_and_allport	2,3,0,0,0,0,1,0,0	82.0	10.0	0.274	0,0,0,0,0,0,1,2,3	to_hand	s524
119.481	0.27	0	PA_with_intermediate	2,0,0,3,0,0,1,0,0	test	ward_and_allport	2,3,0,0,0,0,1,0,0	89.0	10.0	0.27	0,0,0,0,0,0,1,2,3	to_board	s524
119.756	0.3	0	PA_with_intermediate	2,0,0,0,0,0,1,0,0	test	ward_and_allport	2,3,0,0,0,0,1,0,0	71.0	10.0	0.3	0,0,0,0,0,0,1,2,3	to_hand	s524
120.057	0.322	0	PA_with_intermediate	2,3,0,0,0,0,1,0,0	test	ward_and_allport	2,3,0,0,0,0,1,0,0	89.0	10.0	0.322	0,0,0,0,0,0,1,2,3	to_board	s524
120.384	1.0	0	PA_with_intermediate	n/a	test	ward_and_allport	n/a	-1.0	10.0	n/a	n/a	feedback	s524
121.384	1.136	0	PA_with_intermediate	n/a	test	ward_and_allport	n/a	-1.0	10.0	n/a	n/a	ITI	s524
122.525	3.849	1	PA_without_intermediate	0,0,0,1,2,0,0,0,0	test	ward_and_allport	3,1,0,0,0,0,2,0,0	71.0	11.0	3.849	0,0,0,1,2,3,0,0,0	to_hand	s524
126.376	0.266	0	PA_without_intermediate	3,0,0,1,2,0,0,0,0	test	ward_and_allport	3,1,0,0,0,0,2,0,0	89.0	11.0	0.266	0,0,0,1,2,3,0,0,0	to_board	s524
126.648	0.252	0	PA_without_intermediate	3,0,0,1,0,0,0,0,0	test	ward_and_allport	3,1,0,0,0,0,2,0,0	71.0	11.0	0.252	0,0,0,1,2,3,0,0,0	to_hand	s524
126.902	0.255	0	PA_without_intermediate	3,0,0,1,0,0,2,0,0	test	ward_and_allport	3,1,0,0,0,0,2,0,0	82.0	11.0	0.255	0,0,0,1,2,3,0,0,0	to_board	s524
127.163	0.262	0	PA_without_intermediate	3,0,0,0,0,0,2,0,0	test	ward_and_allport	3,1,0,0,0,0,2,0,0	71.0	11.0	0.262	0,0,0,1,2,3,0,0,0	to_hand	s524
127.427	0.239	0	PA_without_intermediate	3,1,0,0,0,0,2,0,0	test	ward_and_allport	3,1,0,0,0,0,2,0,0	89.0	11.0	0.239	0,0,0,1,2,3,0,0,0	to_board	s524
127.672	1.0	0	PA_without_intermediate	n/a	test	ward_and_allport	n/a	-1.0	11.0	n/a	n/a	feedback	s524
128.672	1.68	0	PA_without_intermediate	n/a	test	ward_and_allport	n/a	-1.0	11.0	n/a	n/a	ITI	s524
130.357	2.801	1	PA_without_intermediate	0,0,0,0,0,0,1,2,0	test	ward_and_allport	3,1,0,2,0,0,0,0,0	82.0	12.0	2.801	0,0,0,0,0,0,1,2,3	to_hand	s524
133.16	0.243	0	PA_without_intermediate	3,0,0,0,0,0,1,2,0	test	ward_and_allport	3,1,0,2,0,0,0,0,0	89.0	12.0	0.243	0,0,0,0,0,0,1,2,3	to_board	s524
133.409	0.304	0	PA_without_intermediate	3,0,0,0,0,0,1,0,0	test	ward_and_allport	3,1,0,2,0,0,0,0,0	82.0	12.0	0.304	0,0,0,0,0,0,1,2,3	to_hand	s524
133.714	0.252	0	PA_without_intermediate	3,0,0,2,0,0,1,0,0	test	ward_and_allport	3,1,0,2,0,0,0,0,0	71.0	12.0	0.252	0,0,0,0,0,0,1,2,3	to_board	s524
133.972	0.313	0	PA_without_intermediate	3,0,0,2,0,0,0,0,0	test	ward_and_allport	3,1,0,2,0,0,0,0,0	82.0	12.0	0.313	0,0,0,0,0,0,1,2,3	to_hand	s524
134.287	0.249	0	PA_without_intermediate	3,1,0,2,0,0,0,0,0	test	ward_and_allport	3,1,0,2,0,0,0,0,0	89.0	12.0	0.249	0,0,0,0,0,0,1,2,3	to_board	s524
134.542	1.0	0	PA_without_intermediate	n/a	test	ward_and_allport	n/a	-1.0	12.0	n/a	n/a	feedback	s524
135.542	2.088	0	PA_without_intermediate	n/a	test	ward_and_allport	n/a	-1.0	12.0	n/a	n/a	ITI	s524
137.635	3.05	1	PA_with_intermediate	0,0,0,1,2,0,0,0,0	test	ward_and_allport	2,0,0,1,3,0,0,0,0	71.0	13.0	3.05	0,0,0,1,2,3,0,0,0	to_hand	s524
140.686	0.476	0	PA_with_intermediate	0,0,0,1,2,0,3,0,0	test	ward_and_allport	2,0,0,1,3,0,0,0,0	82.0	13.0	0.476	0,0,0,1,2,3,0,0,0	to_board	s524
141.167	0.302	0	PA_with_intermediate	0,0,0,1,0,0,3,0,0	test	ward_and_allport	2,0,0,1,3,0,0,0,0	71.0	13.0	0.302	0,0,0,1,2,3,0,0,0	to_hand	s524
141.471	0.247	0	PA_with_intermediate	2,0,0,1,0,0,3,0,0	test	ward_and_allport	2,0,0,1,3,0,0,0,0	89.0	13.0	0.247	0,0,0,1,2,3,0,0,0	to_board	s524
141.724	0.256	0	PA_with_intermediate	2,0,0,1,0,0,0,0,0	test	ward_and_allport	2,0,0,1,3,0,0,0,0	82.0	13.0	0.256	0,0,0,1,2,3,0,0,0	to_hand	s524
141.983	0.225	0	PA_with_intermediate	2,0,0,1,3,0,0,0,0	test	ward_and_allport	2,0,0,1,3,0,0,0,0	71.0	13.0	0.225	0,0,0,1,2,3,0,0,0	to_board	s524
142.213	1.0	0	PA_with_intermediate	n/a	test	ward_and_allport	n/a	-1.0	13.0	n/a	n/a	feedback	s524
143.213	1.0	0	PA_with_intermediate	n/a	test	ward_and_allport	n/a	-1.0	13.0	n/a	n/a	ITI	s524
144.218	2.775	1	PA_without_intermediate	0,0,0,1,2,0,0,0,0	test	ward_and_allport	2,0,0,0,0,0,3,1,0	71.0	14.0	2.775	0,0,0,1,2,3,0,0,0	to_hand	s524
146.995	0.299	0	PA_without_intermediate	0,0,0,1,2,0,3,0,0	test	ward_and_allport	2,0,0,0,0,0,3,1,0	82.0	14.0	0.299	0,0,0,1,2,3,0,0,0	to_board	s524
147.299	0.266	0	PA_without_intermediate	0,0,0,1,0,0,3,0,0	test	ward_and_allport	2,0,0,0,0,0,3,1,0	71.0	14.0	0.266	0,0,0,1,2,3,0,0,0	to_hand	s524
147.566	0.276	0	PA_without_intermediate	2,0,0,1,0,0,3,0,0	test	ward_and_allport	2,0,0,0,0,0,3,1,0	89.0	14.0	0.276	0,0,0,1,2,3,0,0,0	to_board	s524
147.848	0.482	0	PA_without_intermediate	2,0,0,0,0,0,3,0,0	test	ward_and_allport	2,0,0,0,0,0,3,1,0	71.0	14.0	0.482	0,0,0,1,2,3,0,0,0	to_hand	s524
148.33	0.249	0	PA_without_intermediate	2,0,0,0,0,0,3,1,0	test	ward_and_allport	2,0,0,0,0,0,3,1,0	82.0	14.0	0.249	0,0,0,1,2,3,0,0,0	to_board	s524
148.585	1.0	0	PA_without_intermediate	n/a	test	ward_and_allport	n/a	-1.0	14.0	n/a	n/a	feedback	s524
149.585	1.0	0	PA_without_intermediate	n/a	test	ward_and_allport	n/a	-1.0	14.0	n/a	n/a	ITI	s524
155.591	3.315	1	PA_without_intermediate	1,2,0,0,0,0,0,0,0	test	ward_and_allport	0,0,0,3,1,0,2,0,0	89.0	15.0	3.315	1,2,3,0,0,0,0,0,0	to_hand	s524
158.908	0.298	0	PA_without_intermediate	1,2,0,3,0,0,0,0,0	test	ward_and_allport	0,0,0,3,1,0,2,0,0	71.0	15.0	0.298	1,2,3,0,0,0,0,0,0	to_board	s524
159.212	0.257	0	PA_without_intermediate	1,0,0,3,0,0,0,0,0	test	ward_and_allport	0,0,0,3,1,0,2,0,0	89.0	15.0	0.257	1,2,3,0,0,0,0,0,0	to_hand	s524
159.47	0.261	0	PA_without_intermediate	1,0,0,3,0,0,2,0,0	test	ward_and_allport	0,0,0,3,1,0,2,0,0	82.0	15.0	0.261	1,2,3,0,0,0,0,0,0	to_board	s524
159.736	0.234	0	PA_without_intermediate	0,0,0,3,0,0,2,0,0	test	ward_and_allport	0,0,0,3,1,0,2,0,0	89.0	15.0	0.234	1,2,3,0,0,0,0,0,0	to_hand	s524
159.972	0.224	0	PA_without_intermediate	0,0,0,3,1,0,2,0,0	test	ward_and_allport	0,0,0,3,1,0,2,0,0	71.0	15.0	0.224	1,2,3,0,0,0,0,0,0	to_board	s524
160.201	1.0	0	PA_without_intermediate	n/a	test	ward_and_allport	n/a	-1.0	15.0	n/a	n/a	feedback	s524
161.201	1.0	0	PA_without_intermediate	n/a	test	ward_and_allport	n/a	-1.0	15.0	n/a	n/a	ITI	s524
162.206	2.626	1	PA_with_intermediate	0,0,0,0,0,0,1,2,0	test	ward_and_allport	0,0,0,2,3,0,1,0,0	82.0	16.0	2.626	0,0,0,0,0,0,1,2,3	to_hand	s524
164.834	0.229	0	PA_with_intermediate	3,0,0,0,0,0,1,2,0	test	ward_and_allport	0,0,0,2,3,0,1,0,0	89.0	16.0	0.229	0,0,0,0,0,0,1,2,3	to_board	s524
165.069	0.27	0	PA_with_intermediate	3,0,0,0,0,0,1,0,0	test	ward_and_allport	0,0,0,2,3,0,1,0,0	82.0	16.0	0.27	0,0,0,0,0,0,1,2,3	to_hand	s524
165.34	0.252	0	PA_with_intermediate	3,0,0,2,0,0,1,0,0	test	ward_and_allport	0,0,0,2,3,0,1,0,0	71.0	16.0	0.252	0,0,0,0,0,0,1,2,3	to_board	s524
165.598	0.23	0	PA_with_intermediate	0,0,0,2,0,0,1,0,0	test	ward_and_allport	0,0,0,2,3,0,1,0,0	89.0	16.0	0.23	0,0,0,0,0,0,1,2,3	to_hand	s524
165.829	0.21	0	PA_with_intermediate	0,0,0,2,3,0,1,0,0	test	ward_and_allport	0,0,0,2,3,0,1,0,0	71.0	16.0	0.21	0,0,0,0,0,0,1,2,3	to_board	s524
166.045	1.0	0	PA_with_intermediate	n/a	test	ward_and_allport	n/a	-1.0	16.0	n/a	n/a	feedback	s524
167.045	1.544	0	PA_with_intermediate	n/a	test	ward_and_allport	n/a	-1.0	16.0	n/a	n/a	ITI	s524
168.594	2.38	1	PA_without_intermediate	0,0,0,1,2,0,0,0,0	test	ward_and_allport	3,1,0,0,0,0,2,0,0	71.0	17.0	2.38	0,0,0,1,2,3,0,0,0	to_hand	s524
170.976	0.268	0	PA_without_intermediate	3,0,0,1,2,0,0,0,0	test	ward_and_allport	3,1,0,0,0,0,2,0,0	89.0	17.0	0.268	0,0,0,1,2,3,0,0,0	to_board	s524
171.249	0.249	0	PA_without_intermediate	3,0,0,1,0,0,0,0,0	test	ward_and_allport	3,1,0,0,0,0,2,0,0	71.0	17.0	0.249	0,0,0,1,2,3,0,0,0	to_hand	s524
171.5	0.29	0	PA_without_intermediate	3,0,0,1,0,0,2,0,0	test	ward_and_allport	3,1,0,0,0,0,2,0,0	82.0	17.0	0.29	0,0,0,1,2,3,0,0,0	to_board	s524
171.796	0.227	0	PA_without_intermediate	3,0,0,0,0,0,2,0,0	test	ward_and_allport	3,1,0,0,0,0,2,0,0	71.0	17.0	0.227	0,0,0,1,2,3,0,0,0	to_hand	s524
172.025	0.221	0	PA_without_intermediate	3,1,0,0,0,0,2,0,0	test	ward_and_allport	3,1,0,0,0,0,2,0,0	89.0	17.0	0.221	0,0,0,1,2,3,0,0,0	to_board	s524
172.251	1.0	0	PA_without_intermediate	n/a	test	ward_and_allport	n/a	-1.0	17.0	n/a	n/a	feedback	s524
173.251	1.272	0	PA_without_intermediate	n/a	test	ward_and_allport	n/a	-1.0	17.0	n/a	n/a	ITI	s524
174.53	3.009	1	PA_with_intermediate	0,0,0,1,2,0,0,0,0	test	ward_and_allport	0,0,0,1,0,0,2,3,0	71.0	18.0	3.009	0,0,0,1,2,3,0,0,0	to_hand	s524
177.54	0.25	0	PA_with_intermediate	3,0,0,1,2,0,0,0,0	test	ward_and_allport	0,0,0,1,0,0,2,3,0	89.0	18.0	0.25	0,0,0,1,2,3,0,0,0	to_board	s524
177.8	0.237	0	PA_with_intermediate	3,0,0,1,0,0,0,0,0	test	ward_and_allport	0,0,0,1,0,0,2,3,0	71.0	18.0	0.237	0,0,0,1,2,3,0,0,0	to_hand	s524
178.038	0.26	0	PA_with_intermediate	3,0,0,1,0,0,2,0,0	test	ward_and_allport	0,0,0,1,0,0,2,3,0	82.0	18.0	0.26	0,0,0,1,2,3,0,0,0	to_board	s524
178.306	0.227	0	PA_with_intermediate	0,0,0,1,0,0,2,0,0	test	ward_and_allport	0,0,0,1,0,0,2,3,0	89.0	18.0	0.227	0,0,0,1,2,3,0,0,0	to_hand	s524
178.534	0.254	0	PA_with_intermediate	0,0,0,1,0,0,2,3,0	test	ward_and_allport	0,0,0,1,0,0,2,3,0	82.0	18.0	0.254	0,0,0,1,2,3,0,0,0	to_board	s524
178.794	1.0	0	PA_with_intermediate	n/a	test	ward_and_allport	n/a	-1.0	18.0	n/a	n/a	feedback	s524
179.794	3.04	0	PA_with_intermediate	n/a	test	ward_and_allport	n/a	-1.0	18.0	n/a	n/a	ITI	s524
182.84	2.349	1	PA_with_intermediate	1,2,0,0,0,0,0,0,0	test	ward_and_allport	1,3,0,2,0,0,0,0,0	89.0	19.0	2.349	1,2,3,0,0,0,0,0,0	to_hand	s524
185.19	0.3	0	PA_with_intermediate	1,2,0,0,0,0,3,0,0	test	ward_and_allport	1,3,0,2,0,0,0,0,0	82.0	19.0	0.3	1,2,3,0,0,0,0,0,0	to_board	s524
185.497	0.291	0	PA_with_intermediate	1,0,0,0,0,0,3,0,0	test	ward_and_allport	1,3,0,2,0,0,0,0,0	89.0	19.0	0.291	1,2,3,0,0,0,0,0,0	to_hand	s524
185.789	0.254	0	PA_with_intermediate	1,0,0,2,0,0,3,0,0	test	ward_and_allport	1,3,0,2,0,0,0,0,0	71.0	19.0	0.254	1,2,3,0,0,0,0,0,0	to_board	s524
186.051	0.271	0	PA_with_intermediate	1,0,0,2,0,0,0,0,0	test	ward_and_allport	1,3,0,2,0,0,0,0,0	82.0	19.0	0.271	1,2,3,0,0,0,0,0,0	to_hand	s524
186.324	0.212	0	PA_with_intermediate	1,3,0,2,0,0,0,0,0	test	ward_and_allport	1,3,0,2,0,0,0,0,0	89.0	19.0	0.212	1,2,3,0,0,0,0,0,0	to_board	s524
186.544	1.0	0	PA_with_intermediate	n/a	test	ward_and_allport	n/a	-1.0	19.0	n/a	n/a	feedback	s524
187.544	1.272	0	PA_with_intermediate	n/a	test	ward_and_allport	n/a	-1.0	19.0	n/a	n/a	ITI	s524
188.823	2.086	1	PA_with_intermediate	1,2,0,0,0,0,0,0,0	test	ward_and_allport	1,3,0,2,0,0,0,0,0	89.0	20.0	2.086	1,2,3,0,0,0,0,0,0	to_hand	s524
190.91	0.261	0	PA_with_intermediate	1,2,0,0,0,0,3,0,0	test	ward_and_allport	1,3,0,2,0,0,0,0,0	82.0	20.0	0.261	1,2,3,0,0,0,0,0,0	to_board	s524
191.18	0.23	0	PA_with_intermediate	1,0,0,0,0,0,3,0,0	test	ward_and_allport	1,3,0,2,0,0,0,0,0	89.0	20.0	0.23	1,2,3,0,0,0,0,0,0	to_hand	s524
191.412	0.259	0	PA_with_intermediate	1,0,0,2,0,0,3,0,0	test	ward_and_allport	1,3,0,2,0,0,0,0,0	71.0	20.0	0.259	1,2,3,0,0,0,0,0,0	to_board	s524
191.676	2.56	0	PA_with_intermediate	1,0,0,2,0,0,0,0,0	test	ward_and_allport	1,3,0,2,0,0,0,0,0	82.0	20.0	2.56	1,2,3,0,0,0,0,0,0	to_hand	s524
194.237	0.15	0	PA_with_intermediate	1,3,0,2,0,0,0,0,0	test	ward_and_allport	1,3,0,2,0,0,0,0,0	89.0	20.0	0.15	1,2,3,0,0,0,0,0,0	to_board	s524
194.394	1.0	0	PA_with_intermediate	n/a	test	ward_and_allport	n/a	-1.0	20.0	n/a	n/a	feedback	s524
195.394	1.136	0	PA_with_intermediate	n/a	test	ward_and_allport	n/a	-1.0	20.0	n/a	n/a	ITI	s524
196.535	3.18	1	PA_with_intermediate	0,0,0,1,2,0,0,0,0	test	ward_and_allport	2,3,0,1,0,0,0,0,0	71.0	21.0	3.18	0,0,0,1,2,3,0,0,0	to_hand	s524
199.716	0.263	0	PA_with_intermediate	0,0,0,1,2,0,3,0,0	test	ward_and_allport	2,3,0,1,0,0,0,0,0	82.0	21.0	0.263	0,0,0,1,2,3,0,0,0	to_board	s524
199.987	0.248	0	PA_with_intermediate	0,0,0,1,0,0,3,0,0	test	ward_and_allport	2,3,0,1,0,0,0,0,0	71.0	21.0	0.248	0,0,0,1,2,3,0,0,0	to_hand	s524
200.235	0.25	0	PA_with_intermediate	2,0,0,1,0,0,3,0,0	test	ward_and_allport	2,3,0,1,0,0,0,0,0	89.0	21.0	0.25	0,0,0,1,2,3,0,0,0	to_board	s524
200.49	0.39	0	PA_with_intermediate	2,0,0,1,0,0,0,0,0	test	ward_and_allport	2,3,0,1,0,0,0,0,0	82.0	21.0	0.39	0,0,0,1,2,3,0,0,0	to_hand	s524
200.881	0.174	0	PA_with_intermediate	2,3,0,1,0,0,0,0,0	test	ward_and_allport	2,3,0,1,0,0,0,0,0	89.0	21.0	0.174	0,0,0,1,2,3,0,0,0	to_board	s524
201.063	1.0	0	PA_with_intermediate	n/a	test	ward_and_allport	n/a	-1.0	21.0	n/a	n/a	feedback	s524
202.063	1.0	0	PA_with_intermediate	n/a	test	ward_and_allport	n/a	-1.0	21.0	n/a	n/a	ITI	s524
203.07	4.51	1	PA_with_intermediate	1,2,0,0,0,0,0,0,0	test	ward_and_allport	1,0,0,0,0,0,2,3,0	89.0	22.0	4.51	1,2,3,0,0,0,0,0,0	to_hand	s524
207.581	0.246	0	PA_with_intermediate	1,2,0,3,0,0,0,0,0	test	ward_and_allport	1,0,0,0,0,0,2,3,0	71.0	22.0	0.246	1,2,3,0,0,0,0,0,0	to_board	s524
207.833	0.777	0	PA_with_intermediate	1,0,0,3,0,0,0,0,0	test	ward_and_allport	1,0,0,0,0,0,2,3,0	89.0	22.0	0.777	1,2,3,0,0,0,0,0,0	to_hand	s524
208.611	0.288	0	PA_with_intermediate	1,0,0,3,0,0,2,0,0	test	ward_and_allport	1,0,0,0,0,0,2,3,0	82.0	22.0	0.288	1,2,3,0,0,0,0,0,0	to_board	s524
208.906	0.319	0	PA_with_intermediate	1,0,0,0,0,0,2,0,0	test	ward_and_allport	1,0,0,0,0,0,2,3,0	71.0	22.0	0.319	1,2,3,0,0,0,0,0,0	to_hand	s524
209.226	0.286	0	PA_with_intermediate	1,0,0,0,0,0,2,3,0	test	ward_and_allport	1,0,0,0,0,0,2,3,0	82.0	22.0	0.286	1,2,3,0,0,0,0,0,0	to_board	s524
209.52	1.0	0	PA_with_intermediate	n/a	test	ward_and_allport	n/a	-1.0	22.0	n/a	n/a	feedback	s524
210.52	1.0	0	PA_with_intermediate	n/a	test	ward_and_allport	n/a	-1.0	22.0	n/a	n/a	ITI	s524
211.527	2.747	1	PA_without_intermediate	0,0,0,0,0,0,1,2,0	test	ward_and_allport	1,0,0,3,2,0,0,0,0	82.0	23.0	2.747	0,0,0,0,0,0,1,2,3	to_hand	s524
214.276	0.221	0	PA_without_intermediate	0,0,0,3,0,0,1,2,0	test	ward_and_allport	1,0,0,3,2,0,0,0,0	71.0	23.0	0.221	0,0,0,0,0,0,1,2,3	to_board	s524
214.505	0.279	0	PA_without_intermediate	0,0,0,3,0,0,1,0,0	test	ward_and_allport	1,0,0,3,2,0,0,0,0	82.0	23.0	0.279	0,0,0,0,0,0,1,2,3	to_hand	s524
214.785	0.328	0	PA_without_intermediate	0,0,0,3,2,0,1,0,0	test	ward_and_allport	1,0,0,3,2,0,0,0,0	71.0	23.0	0.328	0,0,0,0,0,0,1,2,3	to_board	s524
215.121	0.607	0	PA_without_intermediate	0,0,0,3,2,0,0,0,0	test	ward_and_allport	1,0,0,3,2,0,0,0,0	82.0	23.0	0.607	0,0,0,0,0,0,1,2,3	to_hand	s524
215.73	0.268	0	PA_without_intermediate	1,0,0,3,2,0,0,0,0	test	ward_and_allport	1,0,0,3,2,0,0,0,0	89.0	23.0	0.268	0,0,0,0,0,0,1,2,3	to_board	s524
216.007	1.0	0	PA_without_intermediate	n/a	test	ward_and_allport	n/a	-1.0	23.0	n/a	n/a	feedback	s524
217.007	1.408	0	PA_without_intermediate	n/a	test	ward_and_allport	n/a	-1.0	23.0	n/a	n/a	ITI	s524
218.423	2.88	1	PA_with_intermediate	1,2,0,0,0,0,0,0,0	test	ward_and_allport	1,0,0,2,3,0,0,0,0	89.0	24.0	2.88	1,2,3,0,0,0,0,0,0	to_hand	s524
221.305	0.279	0	PA_with_intermediate	1,2,0,0,0,0,3,0,0	test	ward_and_allport	1,0,0,2,3,0,0,0,0	82.0	24.0	0.279	1,2,3,0,0,0,0,0,0	to_board	s524
221.592	0.684	0	PA_with_intermediate	1,0,0,0,0,0,3,0,0	test	ward_and_allport	1,0,0,2,3,0,0,0,0	89.0	24.0	0.684	1,2,3,0,0,0,0,0,0	to_hand	s524
222.277	0.246	0	PA_with_intermediate	1,0,0,2,0,0,3,0,0	test	ward_and_allport	1,0,0,2,3,0,0,0,0	71.0	24.0	0.246	1,2,3,0,0,0,0,0,0	to_board	s524
222.532	0.439	0	PA_with_intermediate	1,0,0,2,0,0,0,0,0	test	ward_and_allport	1,0,0,2,3,0,0,0,0	82.0	24.0	0.439	1,2,3,0,0,0,0,0,0	to_hand	s524
222.972	0.19	0	PA_with_intermediate	1,0,0,2,3,0,0,0,0	test	ward_and_allport	1,0,0,2,3,0,0,0,0	71.0	24.0	0.19	1,2,3,0,0,0,0,0,0	to_board	s524
223.17	1.0	0	PA_with_intermediate	n/a	test	ward_and_allport	n/a	-1.0	24.0	n/a	n/a	feedback	s524
224.17	2.768	0	PA_with_intermediate	n/a	test	ward_and_allport	n/a	-1.0	24.0	n/a	n/a	ITI	s524
226.947	3.589	1	PA_with_intermediate	1,2,0,0,0,0,0,0,0	test	ward_and_allport	1,0,0,2,3,0,0,0,0	89.0	25.0	3.589	1,2,3,0,0,0,0,0,0	to_hand	s524
230.537	0.245	0	PA_with_intermediate	1,2,0,0,0,0,3,0,0	test	ward_and_allport	1,0,0,2,3,0,0,0,0	82.0	25.0	0.245	1,2,3,0,0,0,0,0,0	to_board	s524
230.79	0.788	0	PA_with_intermediate	1,0,0,0,0,0,3,0,0	test	ward_and_allport	1,0,0,2,3,0,0,0,0	89.0	25.0	0.788	1,2,3,0,0,0,0,0,0	to_hand	s524
231.578	0.234	0	PA_with_intermediate	1,0,0,2,0,0,3,0,0	test	ward_and_allport	1,0,0,2,3,0,0,0,0	71.0	25.0	0.234	1,2,3,0,0,0,0,0,0	to_board	s524
231.821	0.31	0	PA_with_intermediate	1,0,0,2,0,0,0,0,0	test	ward_and_allport	1,0,0,2,3,0,0,0,0	82.0	25.0	0.31	1,2,3,0,0,0,0,0,0	to_hand	s524
232.132	0.214	0	PA_with_intermediate	1,0,0,2,3,0,0,0,0	test	ward_and_allport	1,0,0,2,3,0,0,0,0	71.0	25.0	0.214	1,2,3,0,0,0,0,0,0	to_board	s524
232.354	1.0	0	PA_with_intermediate	n/a	test	ward_and_allport	n/a	-1.0	25.0	n/a	n/a	feedback	s524
233.354	1.68	0	PA_with_intermediate	n/a	test	ward_and_allport	n/a	-1.0	25.0	n/a	n/a	ITI	s524
235.043	1.712	1	PA_without_intermediate	0,0,0,0,0,0,1,2,0	test	ward_and_allport	3,2,0,1,0,0,0,0,0	82.0	26.0	1.712	0,0,0,0,0,0,1,2,3	to_hand	s524
236.756	0.202	0	PA_without_intermediate	3,0,0,0,0,0,1,2,0	test	ward_and_allport	3,2,0,1,0,0,0,0,0	89.0	26.0	0.202	0,0,0,0,0,0,1,2,3	to_board	s524
236.966	0.245	0	PA_without_intermediate	3,0,0,0,0,0,1,0,0	test	ward_and_allport	3,2,0,1,0,0,0,0,0	82.0	26.0	0.245	0,0,0,0,0,0,1,2,3	to_hand	s524
237.212	0.217	0	PA_without_intermediate	3,2,0,0,0,0,1,0,0	test	ward_and_allport	3,2,0,1,0,0,0,0,0	89.0	26.0	0.217	0,0,0,0,0,0,1,2,3	to_board	s524
237.438	0.418	0	PA_without_intermediate	3,2,0,0,0,0,0,0,0	test	ward_and_allport	3,2,0,1,0,0,0,0,0	82.0	26.0	0.418	0,0,0,0,0,0,1,2,3	to_hand	s524
237.857	0.242	0	PA_without_intermediate	3,2,0,1,0,0,0,0,0	test	ward_and_allport	3,2,0,1,0,0,0,0,0	71.0	26.0	0.242	0,0,0,0,0,0,1,2,3	to_board	s524
238.108	1.0	0	PA_without_intermediate	n/a	test	ward_and_allport	n/a	-1.0	26.0	n/a	n/a	feedback	s524
239.108	2.224	0	PA_without_intermediate	n/a	test	ward_and_allport	n/a	-1.0	26.0	n/a	n/a	ITI	s524
241.34	3.432	1	PA_without_intermediate	1,2,0,0,0,0,0,0,0	test	ward_and_allport	0,0,0,3,1,0,2,0,0	89.0	27.0	3.432	1,2,3,0,0,0,0,0,0	to_hand	s524
244.774	0.263	0	PA_without_intermediate	1,2,0,3,0,0,0,0,0	test	ward_and_allport	0,0,0,3,1,0,2,0,0	71.0	27.0	0.263	1,2,3,0,0,0,0,0,0	to_board	s524
245.046	0.251	0	PA_without_intermediate	1,0,0,3,0,0,0,0,0	test	ward_and_allport	0,0,0,3,1,0,2,0,0	89.0	27.0	0.251	1,2,3,0,0,0,0,0,0	to_hand	s524
245.298	0.261	0	PA_without_intermediate	1,0,0,3,0,0,2,0,0	test	ward_and_allport	0,0,0,3,1,0,2,0,0	82.0	27.0	0.261	1,2,3,0,0,0,0,0,0	to_board	s524
245.571	0.231	0	PA_without_intermediate	0,0,0,3,0,0,2,0,0	test	ward_and_allport	0,0,0,3,1,0,2,0,0	89.0	27.0	0.231	1,2,3,0,0,0,0,0,0	to_hand	s524
245.803	0.229	0	PA_without_intermediate	0,0,0,3,1,0,2,0,0	test	ward_and_allport	0,0,0,3,1,0,2,0,0	71.0	27.0	0.229	1,2,3,0,0,0,0,0,0	to_board	s524
246.041	1.0	0	PA_without_intermediate	n/a	test	ward_and_allport	n/a	-1.0	27.0	n/a	n/a	feedback	s524
247.041	2.36	0	PA_without_intermediate	n/a	test	ward_and_allport	n/a	-1.0	27.0	n/a	n/a	ITI	s524
249.409	2.726	1	PA_without_intermediate	0,0,0,1,2,0,0,0,0	test	ward_and_allport	2,0,0,0,0,0,3,1,0	71.0	28.0	2.726	0,0,0,1,2,3,0,0,0	to_hand	s524
252.137	0.274	0	PA_without_intermediate	0,0,0,1,2,0,3,0,0	test	ward_and_allport	2,0,0,0,0,0,3,1,0	82.0	28.0	0.274	0,0,0,1,2,3,0,0,0	to_board	s524
252.42	0.571	0	PA_without_intermediate	0,0,0,1,0,0,3,0,0	test	ward_and_allport	2,0,0,0,0,0,3,1,0	71.0	28.0	0.571	0,0,0,1,2,3,0,0,0	to_hand	s524
252.992	0.223	0	PA_without_intermediate	2,0,0,1,0,0,3,0,0	test	ward_and_allport	2,0,0,0,0,0,3,1,0	89.0	28.0	0.223	0,0,0,1,2,3,0,0,0	to_board	s524
253.223	0.201	0	PA_without_intermediate	2,0,0,0,0,0,3,0,0	test	ward_and_allport	2,0,0,0,0,0,3,1,0	71.0	28.0	0.201	0,0,0,1,2,3,0,0,0	to_hand	s524
253.425	0.228	0	PA_without_intermediate	2,0,0,0,0,0,3,1,0	test	ward_and_allport	2,0,0,0,0,0,3,1,0	82.0	28.0	0.228	0,0,0,1,2,3,0,0,0	to_board	s524
253.662	1.0	0	PA_without_intermediate	n/a	test	ward_and_allport	n/a	-1.0	28.0	n/a	n/a	feedback	s524
254.662	1.0	0	PA_without_intermediate	n/a	test	ward_and_allport	n/a	-1.0	28.0	n/a	n/a	ITI	s524
255.671	2.063	1	PA_without_intermediate	1,2,0,0,0,0,0,0,0	test	ward_and_allport	0,0,0,2,0,0,3,1,0	89.0	29.0	2.063	1,2,3,0,0,0,0,0,0	to_hand	s524
257.734	0.19	0	PA_without_intermediate	1,2,0,0,0,0,3,0,0	test	ward_and_allport	0,0,0,2,0,0,3,1,0	82.0	29.0	0.19	1,2,3,0,0,0,0,0,0	to_board	s524
257.933	0.194	0	PA_without_intermediate	1,0,0,0,0,0,3,0,0	test	ward_and_allport	0,0,0,2,0,0,3,1,0	89.0	29.0	0.194	1,2,3,0,0,0,0,0,0	to_hand	s524
258.128	0.194	0	PA_without_intermediate	1,0,0,2,0,0,3,0,0	test	ward_and_allport	0,0,0,2,0,0,3,1,0	71.0	29.0	0.194	1,2,3,0,0,0,0,0,0	to_board	s524
258.331	0.219	0	PA_without_intermediate	0,0,0,2,0,0,3,0,0	test	ward_and_allport	0,0,0,2,0,0,3,1,0	89.0	29.0	0.219	1,2,3,0,0,0,0,0,0	to_hand	s524
258.552	0.211	0	PA_without_intermediate	0,0,0,2,0,0,3,1,0	test	ward_and_allport	0,0,0,2,0,0,3,1,0	82.0	29.0	0.211	1,2,3,0,0,0,0,0,0	to_board	s524
258.772	1.0	0	PA_without_intermediate	n/a	test	ward_and_allport	n/a	-1.0	29.0	n/a	n/a	feedback	s524
259.772	1.408	0	PA_without_intermediate	n/a	test	ward_and_allport	n/a	-1.0	29.0	n/a	n/a	ITI	s524
266.188	2.388	1	PA_with_intermediate	0,0,0,0,0,0,1,2,0	test	ward_and_allport	0,0,0,2,3,0,1,0,0	82.0	30.0	2.388	0,0,0,0,0,0,1,2,3	to_hand	s524
268.577	0.159	0	PA_with_intermediate	3,0,0,0,0,0,1,2,0	test	ward_and_allport	0,0,0,2,3,0,1,0,0	89.0	30.0	0.159	0,0,0,0,0,0,1,2,3	to_board	s524
268.744	0.182	0	PA_with_intermediate	3,0,0,0,0,0,1,0,0	test	ward_and_allport	0,0,0,2,3,0,1,0,0	82.0	30.0	0.182	0,0,0,0,0,0,1,2,3	to_hand	s524
268.927	0.206	0	PA_with_intermediate	3,0,0,2,0,0,1,0,0	test	ward_and_allport	0,0,0,2,3,0,1,0,0	71.0	30.0	0.206	0,0,0,0,0,0,1,2,3	to_board	s524
269.144	0.168	0	PA_with_intermediate	0,0,0,2,0,0,1,0,0	test	ward_and_allport	0,0,0,2,3,0,1,0,0	89.0	30.0	0.168	0,0,0,0,0,0,1,2,3	to_hand	s524
269.313	0.193	0	PA_with_intermediate	0,0,0,2,3,0,1,0,0	test	ward_and_allport	0,0,0,2,3,0,1,0,0	71.0	30.0	0.193	0,0,0,0,0,0,1,2,3	to_board	s524
269.516	1.0	0	PA_with_intermediate	n/a	test	ward_and_allport	n/a	-1.0	30.0	n/a	n/a	feedback	s524
270.516	1.136	0	PA_with_intermediate	n/a	test	ward_and_allport	n/a	-1.0	30.0	n/a	n/a	ITI	s524
271.663	2.571	1	PA_without_intermediate	0,0,0,1,2,0,0,0,0	test	ward_and_allport	1,0,0,0,0,0,3,2,0	71.0	31.0	2.571	0,0,0,1,2,3,0,0,0	to_hand	s524
274.235	0.162	0	PA_without_intermediate	0,0,0,1,2,0,3,0,0	test	ward_and_allport	1,0,0,0,0,0,3,2,0	82.0	31.0	0.162	0,0,0,1,2,3,0,0,0	to_board	s524
274.406	0.16	0	PA_without_intermediate	0,0,0,1,0,0,3,0,0	test	ward_and_allport	1,0,0,0,0,0,3,2,0	71.0	31.0	0.16	0,0,0,1,2,3,0,0,0	to_hand	s524
274.567	0.206	0	PA_without_intermediate	0,0,0,1,0,0,3,2,0	test	ward_and_allport	1,0,0,0,0,0,3,2,0	82.0	31.0	0.206	0,0,0,1,2,3,0,0,0	to_board	s524
274.782	0.154	0	PA_without_intermediate	0,0,0,0,0,0,3,2,0	test	ward_and_allport	1,0,0,0,0,0,3,2,0	71.0	31.0	0.154	0,0,0,1,2,3,0,0,0	to_hand	s524
274.938	0.426	0	PA_without_intermediate	1,0,0,0,0,0,3,2,0	test	ward_and_allport	1,0,0,0,0,0,3,2,0	89.0	31.0	0.426	0,0,0,1,2,3,0,0,0	to_board	s524
275.375	1.0	0	PA_without_intermediate	n/a	test	ward_and_allport	n/a	-1.0	31.0	n/a	n/a	feedback	s524
276.375	4.128	0	PA_without_intermediate	n/a	test	ward_and_allport	n/a	-1.0	31.0	n/a	n/a	ITI	s524
280.513	2.137	1	PA_without_intermediate	0,0,0,1,2,0,0,0,0	test	ward_and_allport	3,2,0,0,0,0,1,0,0	71.0	32.0	2.137	0,0,0,1,2,3,0,0,0	to_hand	s524
282.651	0.152	0	PA_without_intermediate	3,0,0,1,2,0,0,0,0	test	ward_and_allport	3,2,0,0,0,0,1,0,0	89.0	32.0	0.152	0,0,0,1,2,3,0,0,0	to_board	s524
282.814	0.173	0	PA_without_intermediate	3,0,0,1,0,0,0,0,0	test	ward_and_allport	3,2,0,0,0,0,1,0,0	71.0	32.0	0.173	0,0,0,1,2,3,0,0,0	to_hand	s524
282.987	0.174	0	PA_without_intermediate	3,2,0,1,0,0,0,0,0	test	ward_and_allport	3,2,0,0,0,0,1,0,0	89.0	32.0	0.174	0,0,0,1,2,3,0,0,0	to_board	s524
283.172	0.148	0	PA_without_intermediate	3,2,0,0,0,0,0,0,0	test	ward_and_allport	3,2,0,0,0,0,1,0,0	71.0	32.0	0.148	0,0,0,1,2,3,0,0,0	to_hand	s524
283.321	0.205	0	PA_without_intermediate	3,2,0,0,0,0,1,0,0	test	ward_and_allport	3,2,0,0,0,0,1,0,0	82.0	32.0	0.205	0,0,0,1,2,3,0,0,0	to_board	s524
283.538	1.0	0	PA_without_intermediate	n/a	test	ward_and_allport	n/a	-1.0	32.0	n/a	n/a	feedback	s524
284.538	1.136	0	PA_without_intermediate	n/a	test	ward_and_allport	n/a	-1.0	32.0	n/a	n/a	ITI	s524
285.684	3.327	1	PA_without_intermediate	1,2,0,0,0,0,0,0,0	test	ward_and_allport	0,0,0,1,0,0,3,2,0	89.0	33.0	3.327	1,2,3,0,0,0,0,0,0	to_hand	s524
289.012	0.219	0	PA_without_intermediate	1,2,0,0,0,0,3,0,0	test	ward_and_allport	0,0,0,1,0,0,3,2,0	82.0	33.0	0.219	1,2,3,0,0,0,0,0,0	to_board	s524
289.238	0.181	0	PA_without_intermediate	1,0,0,0,0,0,3,0,0	test	ward_and_allport	0,0,0,1,0,0,3,2,0	89.0	33.0	0.181	1,2,3,0,0,0,0,0,0	to_hand	s524
289.42	0.227	0	PA_without_intermediate	1,0,0,0,0,0,3,2,0	test	ward_and_allport	0,0,0,1,0,0,3,2,0	82.0	33.0	0.227	1,2,3,0,0,0,0,0,0	to_board	s524
289.657	0.142	0	PA_without_intermediate	0,0,0,0,0,0,3,2,0	test	ward_and_allport	0,0,0,1,0,0,3,2,0	89.0	33.0	0.142	1,2,3,0,0,0,0,0,0	to_hand	s524
289.8	0.196	0	PA_without_intermediate	0,0,0,1,0,0,3,2,0	test	ward_and_allport	0,0,0,1,0,0,3,2,0	71.0	33.0	0.196	1,2,3,0,0,0,0,0,0	to_board	s524
290.008	1.0	0	PA_without_intermediate	n/a	test	ward_and_allport	n/a	-1.0	33.0	n/a	n/a	feedback	s524
291.008	4.264	0	PA_without_intermediate	n/a	test	ward_and_allport	n/a	-1.0	33.0	n/a	n/a	ITI	s524
295.284	2.162	1	PA_with_intermediate	0,0,0,1,2,0,0,0,0	test	ward_and_allport	2,0,0,1,3,0,0,0,0	71.0	34.0	2.162	0,0,0,1,2,3,0,0,0	to_hand	s524
297.447	0.211	0	PA_with_intermediate	0,0,0,1,2,0,3,0,0	test	ward_and_allport	2,0,0,1,3,0,0,0,0	82.0	34.0	0.211	0,0,0,1,2,3,0,0,0	to_board	s524
297.669	0.19	0	PA_with_intermediate	0,0,0,1,0,0,3,0,0	test	ward_and_allport	2,0,0,1,3,0,0,0,0	71.0	34.0	0.19	0,0,0,1,2,3,0,0,0	to_hand	s524
297.86	0.287	0	PA_with_intermediate	2,0,0,1,0,0,3,0,0	test	ward_and_allport	2,0,0,1,3,0,0,0,0	89.0	34.0	0.287	0,0,0,1,2,3,0,0,0	to_board	s524
298.159	0.471	0	PA_with_intermediate	2,0,0,1,0,0,0,0,0	test	ward_and_allport	2,0,0,1,3,0,0,0,0	82.0	34.0	0.471	0,0,0,1,2,3,0,0,0	to_hand	s524
298.631	0.231	0	PA_with_intermediate	2,0,0,1,3,0,0,0,0	test	ward_and_allport	2,0,0,1,3,0,0,0,0	71.0	34.0	0.231	0,0,0,1,2,3,0,0,0	to_board	s524
298.871	1.0	0	PA_with_intermediate	n/a	test	ward_and_allport	n/a	-1.0	34.0	n/a	n/a	feedback	s524
299.871	3.04	0	PA_with_intermediate	n/a	test	ward_and_allport	n/a	-1.0	34.0	n/a	n/a	ITI	s524
302.918	2.925	1	PA_with_intermediate	1,2,0,0,0,0,0,0,0	test	ward_and_allport	1,3,0,0,0,0,2,0,0	89.0	35.0	2.925	1,2,3,0,0,0,0,0,0	to_hand	s524
305.844	0.204	0	PA_with_intermediate	1,2,0,3,0,0,0,0,0	test	ward_and_allport	1,3,0,0,0,0,2,0,0	71.0	35.0	0.204	1,2,3,0,0,0,0,0,0	to_board	s524
306.059	0.192	0	PA_with_intermediate	1,0,0,3,0,0,0,0,0	test	ward_and_allport	1,3,0,0,0,0,2,0,0	89.0	35.0	0.192	1,2,3,0,0,0,0,0,0	to_hand	s524
306.253	0.261	0	PA_with_intermediate	1,0,0,3,0,0,2,0,0	test	ward_and_allport	1,3,0,0,0,0,2,0,0	82.0	35.0	0.261	1,2,3,0,0,0,0,0,0	to_board	s524
306.525	0.701	0	PA_with_intermediate	1,0,0,0,0,0,2,0,0	test	ward_and_allport	1,3,0,0,0,0,2,0,0	71.0	35.0	0.701	1,2,3,0,0,0,0,0,0	to_hand	s524
307.228	0.17	0	PA_with_intermediate	1,3,0,0,0,0,2,0,0	test	ward_and_allport	1,3,0,0,0,0,2,0,0	89.0	35.0	0.17	1,2,3,0,0,0,0,0,0	to_board	s524
307.409	1.0	0	PA_with_intermediate	n/a	test	ward_and_allport	n/a	-1.0	35.0	n/a	n/a	feedback	s524
308.409	1.136	0	PA_with_intermediate	n/a	test	ward_and_allport	n/a	-1.0	35.0	n/a	n/a	ITI	s524
309.556	3.618	1	PA_with_intermediate	0,0,0,0,0,0,1,2,0	test	ward_and_allport	2,3,0,0,0,0,1,0,0	82.0	36.0	3.618	0,0,0,0,0,0,1,2,3	to_hand	s524
313.175	0.175	0	PA_with_intermediate	0,0,0,3,0,0,1,2,0	test	ward_and_allport	2,3,0,0,0,0,1,0,0	71.0	36.0	0.175	0,0,0,0,0,0,1,2,3	to_board	s524
313.358	0.276	0	PA_with_intermediate	0,0,0,3,0,0,1,0,0	test	ward_and_allport	2,3,0,0,0,0,1,0,0	82.0	36.0	0.276	0,0,0,0,0,0,1,2,3	to_hand	s524
313.635	0.242	0	PA_with_intermediate	2,0,0,3,0,0,1,0,0	test	ward_and_allport	2,3,0,0,0,0,1,0,0	89.0	36.0	0.242	0,0,0,0,0,0,1,2,3	to_board	s524
313.886	0.228	0	PA_with_intermediate	2,0,0,0,0,0,1,0,0	test	ward_and_allport	2,3,0,0,0,0,1,0,0	71.0	36.0	0.228	0,0,0,0,0,0,1,2,3	to_hand	s524
314.115	0.185	0	PA_with_intermediate	2,3,0,0,0,0,1,0,0	test	ward_and_allport	2,3,0,0,0,0,1,0,0	89.0	36.0	0.185	0,0,0,0,0,0,1,2,3	to_board	s524
314.312	1.0	0	PA_with_intermediate	n/a	test	ward_and_allport	n/a	-1.0	36.0	n/a	n/a	feedback	s524
315.312	1.408	0	PA_with_intermediate	n/a	test	ward_and_allport	n/a	-1.0	36.0	n/a	n/a	ITI	s524
316.728	2.042	1	PA_without_intermediate	0,0,0,0,0,0,1,2,0	test	ward_and_allport	1,0,0,3,2,0,0,0,0	82.0	37.0	2.042	0,0,0,0,0,0,1,2,3	to_hand	s524
318.772	0.196	0	PA_without_intermediate	0,0,0,3,0,0,1,2,0	test	ward_and_allport	1,0,0,3,2,0,0,0,0	71.0	37.0	0.196	0,0,0,0,0,0,1,2,3	to_board	s524
318.976	0.242	0	PA_without_intermediate	0,0,0,3,0,0,1,0,0	test	ward_and_allport	1,0,0,3,2,0,0,0,0	82.0	37.0	0.242	0,0,0,0,0,0,1,2,3	to_hand	s524
319.22	0.263	0	PA_without_intermediate	0,0,0,3,2,0,1,0,0	test	ward_and_allport	1,0,0,3,2,0,0,0,0	71.0	37.0	0.263	0,0,0,0,0,0,1,2,3	to_board	s524
319.491	0.28	0	PA_without_intermediate	0,0,0,3,2,0,0,0,0	test	ward_and_allport	1,0,0,3,2,0,0,0,0	82.0	37.0	0.28	0,0,0,0,0,0,1,2,3	to_hand	s524
319.771	0.215	0	PA_without_intermediate	1,0,0,3,2,0,0,0,0	test	ward_and_allport	1,0,0,3,2,0,0,0,0	89.0	37.0	0.215	0,0,0,0,0,0,1,2,3	to_board	s524
319.994	1.0	0	PA_without_intermediate	n/a	test	ward_and_allport	n/a	-1.0	37.0	n/a	n/a	feedback	s524
320.994	1.68	0	PA_without_intermediate	n/a	test	ward_and_allport	n/a	-1.0	37.0	n/a	n/a	ITI	s524
322.682	2.509	1	PA_with_intermediate	1,2,0,0,0,0,0,0,0	test	ward_and_allport	1,0,0,0,0,0,2,3,0	89.0	38.0	2.509	1,2,3,0,0,0,0,0,0	to_hand	s524
325.192	0.186	0	PA_with_intermediate	1,2,0,3,0,0,0,0,0	test	ward_and_allport	1,0,0,0,0,0,2,3,0	71.0	38.0	0.186	1,2,3,0,0,0,0,0,0	to_board	s524
325.386	0.275	0	PA_with_intermediate	1,0,0,3,0,0,0,0,0	test	ward_and_allport	1,0,0,0,0,0,2,3,0	89.0	38.0	0.275	1,2,3,0,0,0,0,0,0	to_hand	s524
325.662	0.286	0	PA_with_intermediate	1,0,0,3,0,0,2,0,0	test	ward_and_allport	1,0,0,0,0,0,2,3,0	82.0	38.0	0.286	1,2,3,0,0,0,0,0,0	to_board	s524
325.958	1.862	0	PA_with_intermediate	1,0,0,0,0,0,2,0,0	test	ward_and_allport	1,0,0,0,0,0,2,3,0	71.0	38.0	1.862	1,2,3,0,0,0,0,0,0	to_hand	s524
327.821	0.191	0	PA_with_intermediate	1,0,0,0,0,0,2,3,0	test	ward_and_allport	1,0,0,0,0,0,2,3,0	82.0	38.0	0.191	1,2,3,0,0,0,0,0,0	to_board	s524
328.027	1.0	0	PA_with_intermediate	n/a	test	ward_and_allport	n/a	-1.0	38.0	n/a	n/a	feedback	s524
329.027	3.72	0	PA_with_intermediate	n/a	test	ward_and_allport	n/a	-1.0	38.0	n/a	n/a	ITI	s524
332.759	1.726	1	PA_without_intermediate	1,2,0,0,0,0,0,0,0	test	ward_and_allport	0,0,0,3,2,0,1,0,0	89.0	39.0	1.726	1,2,3,0,0,0,0,0,0	to_hand	s524
334.487	0.207	0	PA_without_intermediate	1,2,0,3,0,0,0,0,0	test	ward_and_allport	0,0,0,3,2,0,1,0,0	71.0	39.0	0.207	1,2,3,0,0,0,0,0,0	to_board	s524
334.706	0.253	0	PA_without_intermediate	1,0,0,3,0,0,0,0,0	test	ward_and_allport	0,0,0,3,2,0,1,0,0	89.0	39.0	0.253	1,2,3,0,0,0,0,0,0	to_hand	s524
334.96	0.218	0	PA_without_intermediate	1,0,0,3,2,0,0,0,0	test	ward_and_allport	0,0,0,3,2,0,1,0,0	71.0	39.0	0.218	1,2,3,0,0,0,0,0,0	to_board	s524
335.189	0.625	0	PA_without_intermediate	0,0,0,3,2,0,0,0,0	test	ward_and_allport	0,0,0,3,2,0,1,0,0	89.0	39.0	0.625	1,2,3,0,0,0,0,0,0	to_hand	s524
335.815	0.25	0	PA_without_intermediate	0,0,0,3,2,0,1,0,0	test	ward_and_allport	0,0,0,3,2,0,1,0,0	82.0	39.0	0.25	1,2,3,0,0,0,0,0,0	to_board	s524
336.074	1.0	0	PA_without_intermediate	n/a	test	ward_and_allport	n/a	-1.0	39.0	n/a	n/a	feedback	s524
337.074	2.224	0	PA_without_intermediate	n/a	test	ward_and_allport	n/a	-1.0	39.0	n/a	n/a	ITI	s524
339.306	2.414	1	PA_without_intermediate	1,2,0,0,0,0,0,0,0	test	ward_and_allport	0,0,0,2,0,0,3,1,0	89.0	40.0	2.414	1,2,3,0,0,0,0,0,0	to_hand	s524
341.72	0.229	0	PA_without_intermediate	1,2,0,0,0,0,3,0,0	test	ward_and_allport	0,0,0,2,0,0,3,1,0	82.0	40.0	0.229	1,2,3,0,0,0,0,0,0	to_board	s524
341.957	0.364	0	PA_without_intermediate	1,0,0,0,0,0,3,0,0	test	ward_and_allport	0,0,0,2,0,0,3,1,0	89.0	40.0	0.364	1,2,3,0,0,0,0,0,0	to_hand	s524
342.322	0.229	0	PA_without_intermediate	1,0,0,2,0,0,3,0,0	test	ward_and_allport	0,0,0,2,0,0,3,1,0	71.0	40.0	0.229	1,2,3,0,0,0,0,0,0	to_board	s524
342.562	0.237	0	PA_without_intermediate	0,0,0,2,0,0,3,0,0	test	ward_and_allport	0,0,0,2,0,0,3,1,0	89.0	40.0	0.237	1,2,3,0,0,0,0,0,0	to_hand	s524
342.801	0.237	0	PA_without_intermediate	0,0,0,2,0,0,3,1,0	test	ward_and_allport	0,0,0,2,0,0,3,1,0	82.0	40.0	0.237	1,2,3,0,0,0,0,0,0	to_board	s524
343.05	1.0	0	PA_without_intermediate	n/a	test	ward_and_allport	n/a	-1.0	40.0	n/a	n/a	feedback	s524
344.05	1.272	0	PA_without_intermediate	n/a	test	ward_and_allport	n/a	-1.0	40.0	n/a	n/a	ITI	s524
345.334	3.42	1	PA_with_intermediate	0,0,0,0,0,0,1,2,0	test	ward_and_allport	0,0,0,2,0,0,1,3,0	82.0	41.0	3.42	0,0,0,0,0,0,1,2,3	to_hand	s524
348.755	0.193	0	PA_with_intermediate	3,0,0,0,0,0,1,2,0	test	ward_and_allport	0,0,0,2,0,0,1,3,0	89.0	41.0	0.193	0,0,0,0,0,0,1,2,3	to_board	s524
348.959	0.454	0	PA_with_intermediate	0,0,0,0,0,0,1,2,0	test	ward_and_allport	0,0,0,2,0,0,1,3,0	89.0	41.0	0.454	0,0,0,0,0,0,1,2,3	to_hand	s524
349.414	0.848	0	PA_with_intermediate	3,0,0,0,0,0,1,2,0	test	ward_and_allport	0,0,0,2,0,0,1,3,0	89.0	41.0	0.848	0,0,0,0,0,0,1,2,3	to_board	s524
350.274	0.673	0	PA_with_intermediate	3,0,0,0,0,0,1,0,0	test	ward_and_allport	0,0,0,2,0,0,1,3,0	82.0	41.0	0.673	0,0,0,0,0,0,1,2,3	to_hand	s524
350.948	0.207	0	PA_with_intermediate	3,2,0,0,0,0,1,0,0	test	ward_and_allport	0,0,0,2,0,0,1,3,0	89.0	41.0	0.207	0,0,0,0,0,0,1,2,3	to_board	s524
351.164	1.632	0	PA_with_intermediate	3,0,0,0,0,0,1,0,0	test	ward_and_allport	0,0,0,2,0,0,1,3,0	89.0	41.0	1.632	0,0,0,0,0,0,1,2,3	to_hand	s524
352.798	0.138	0	PA_with_intermediate	3,0,0,2,0,0,1,0,0	test	ward_and_allport	0,0,0,2,0,0,1,3,0	71.0	41.0	0.138	0,0,0,0,0,0,1,2,3	to_board	s524
352.945	0.254	0	PA_with_intermediate	0,0,0,2,0,0,1,0,0	test	ward_and_allport	0,0,0,2,0,0,1,3,0	89.0	41.0	0.254	0,0,0,0,0,0,1,2,3	to_hand	s524
353.2	0.291	0	PA_with_intermediate	0,0,0,2,0,0,1,3,0	test	ward_and_allport	0,0,0,2,0,0,1,3,0	82.0	41.0	0.291	0,0,0,0,0,0,1,2,3	to_board	s524
353.499	1.0	0	PA_with_intermediate	n/a	test	ward_and_allport	n/a	-1.0	41.0	n/a	n/a	feedback	s524
354.499	2.632	0	PA_with_intermediate	n/a	test	ward_and_allport	n/a	-1.0	41.0	n/a	n/a	ITI	s524
357.143	2.528	1	PA_without_intermediate	0,0,0,1,2,0,0,0,0	test	ward_and_allport	1,0,0,0,0,0,3,2,0	71.0	42.0	2.528	0,0,0,1,2,3,0,0,0	to_hand	s524
359.673	0.216	0	PA_without_intermediate	0,0,0,1,2,0,3,0,0	test	ward_and_allport	1,0,0,0,0,0,3,2,0	82.0	42.0	0.216	0,0,0,1,2,3,0,0,0	to_board	s524
359.905	0.188	0	PA_without_intermediate	0,0,0,1,0,0,3,0,0	test	ward_and_allport	1,0,0,0,0,0,3,2,0	71.0	42.0	0.188	0,0,0,1,2,3,0,0,0	to_hand	s524
360.095	0.23	0	PA_without_intermediate	0,0,0,1,0,0,3,2,0	test	ward_and_allport	1,0,0,0,0,0,3,2,0	82.0	42.0	0.23	0,0,0,1,2,3,0,0,0	to_board	s524
360.338	0.157	0	PA_without_intermediate	0,0,0,0,0,0,3,2,0	test	ward_and_allport	1,0,0,0,0,0,3,2,0	71.0	42.0	0.157	0,0,0,1,2,3,0,0,0	to_hand	s524
360.496	0.376	0	PA_without_intermediate	1,0,0,0,0,0,3,2,0	test	ward_and_allport	1,0,0,0,0,0,3,2,0	89.0	42.0	0.376	0,0,0,1,2,3,0,0,0	to_board	s524
360.884	1.0	0	PA_without_intermediate	n/a	test	ward_and_allport	n/a	-1.0	42.0	n/a	n/a	feedback	s524
361.884	1.408	0	PA_without_intermediate	n/a	test	ward_and_allport	n/a	-1.0	42.0	n/a	n/a	ITI	s524
363.301	2.506	1	PA_without_intermediate	0,0,0,0,0,0,1,2,0	test	ward_and_allport	2,0,0,3,1,0,0,0,0	82.0	43.0	2.506	0,0,0,0,0,0,1,2,3	to_hand	s524
365.809	0.228	0	PA_without_intermediate	0,0,0,3,0,0,1,2,0	test	ward_and_allport	2,0,0,3,1,0,0,0,0	71.0	43.0	0.228	0,0,0,0,0,0,1,2,3	to_board	s524
366.046	0.266	0	PA_without_intermediate	0,0,0,3,0,0,1,0,0	test	ward_and_allport	2,0,0,3,1,0,0,0,0	82.0	43.0	0.266	0,0,0,0,0,0,1,2,3	to_hand	s524
366.313	0.238	0	PA_without_intermediate	2,0,0,3,0,0,1,0,0	test	ward_and_allport	2,0,0,3,1,0,0,0,0	89.0	43.0	0.238	0,0,0,0,0,0,1,2,3	to_board	s524
366.566	0.286	0	PA_without_intermediate	2,0,0,3,0,0,0,0,0	test	ward_and_allport	2,0,0,3,1,0,0,0,0	82.0	43.0	0.286	0,0,0,0,0,0,1,2,3	to_hand	s524
366.853	0.226	0	PA_without_intermediate	2,0,0,3,1,0,0,0,0	test	ward_and_allport	2,0,0,3,1,0,0,0,0	71.0	43.0	0.226	0,0,0,0,0,0,1,2,3	to_board	s524
367.091	1.0	0	PA_without_intermediate	n/a	test	ward_and_allport	n/a	-1.0	43.0	n/a	n/a	feedback	s524
368.091	1.0	0	PA_without_intermediate	n/a	test	ward_and_allport	n/a	-1.0	43.0	n/a	n/a	ITI	s524
369.1	3.426	1	PA_with_intermediate	0,0,0,0,0,0,1,2,0	test	ward_and_allport	0,0,0,2,0,0,1,3,0	82.0	44.0	3.426	0,0,0,0,0,0,1,2,3	to_hand	s524
372.527	0.201	0	PA_with_intermediate	3,0,0,0,0,0,1,2,0	test	ward_and_allport	0,0,0,2,0,0,1,3,0	89.0	44.0	0.201	0,0,0,0,0,0,1,2,3	to_board	s524
372.737	0.252	0	PA_with_intermediate	3,0,0,0,0,0,1,0,0	test	ward_and_allport	0,0,0,2,0,0,1,3,0	82.0	44.0	0.252	0,0,0,0,0,0,1,2,3	to_hand	s524
372.99	0.227	0	PA_with_intermediate	3,0,0,2,0,0,1,0,0	test	ward_and_allport	0,0,0,2,0,0,1,3,0	71.0	44.0	0.227	0,0,0,0,0,0,1,2,3	to_board	s524
373.228	0.171	0	PA_with_intermediate	0,0,0,2,0,0,1,0,0	test	ward_and_allport	0,0,0,2,0,0,1,3,0	89.0	44.0	0.171	0,0,0,0,0,0,1,2,3	to_hand	s524
373.399	0.297	0	PA_with_intermediate	0,0,0,2,0,0,1,3,0	test	ward_and_allport	0,0,0,2,0,0,1,3,0	82.0	44.0	0.297	0,0,0,0,0,0,1,2,3	to_board	s524
373.709	1.0	0	PA_with_intermediate	n/a	test	ward_and_allport	n/a	-1.0	44.0	n/a	n/a	feedback	s524
374.709	1.0	0	PA_with_intermediate	n/a	test	ward_and_allport	n/a	-1.0	44.0	n/a	n/a	ITI	s524
380.722	2.985	1	PA_with_intermediate	0,0,0,0,0,0,1,2,0	test	ward_and_allport	2,0,0,0,0,0,1,3,0	82.0	45.0	2.985	0,0,0,0,0,0,1,2,3	to_hand	s524
383.708	0.216	0	PA_with_intermediate	0,0,0,3,0,0,1,2,0	test	ward_and_allport	2,0,0,0,0,0,1,3,0	71.0	45.0	0.216	0,0,0,0,0,0,1,2,3	to_board	s524
383.937	0.264	0	PA_with_intermediate	0,0,0,3,0,0,1,0,0	test	ward_and_allport	2,0,0,0,0,0,1,3,0	82.0	45.0	0.264	0,0,0,0,0,0,1,2,3	to_hand	s524
384.203	0.253	0	PA_with_intermediate	2,0,0,3,0,0,1,0,0	test	ward_and_allport	2,0,0,0,0,0,1,3,0	89.0	45.0	0.253	0,0,0,0,0,0,1,2,3	to_board	s524
384.47	0.236	0	PA_with_intermediate	2,0,0,0,0,0,1,0,0	test	ward_and_allport	2,0,0,0,0,0,1,3,0	71.0	45.0	0.236	0,0,0,0,0,0,1,2,3	to_hand	s524
384.708	0.247	0	PA_with_intermediate	2,0,0,0,0,0,1,3,0	test	ward_and_allport	2,0,0,0,0,0,1,3,0	82.0	45.0	0.247	0,0,0,0,0,0,1,2,3	to_board	s524
384.969	1.0	0	PA_with_intermediate	n/a	test	ward_and_allport	n/a	-1.0	45.0	n/a	n/a	feedback	s524
385.969	1.0	0	PA_with_intermediate	n/a	test	ward_and_allport	n/a	-1.0	45.0	n/a	n/a	ITI	s524
386.98	2.317	1	PA_with_intermediate	0,0,0,0,0,0,1,2,0	test	ward_and_allport	2,0,0,0,0,0,1,3,0	82.0	46.0	2.317	0,0,0,0,0,0,1,2,3	to_hand	s524
389.298	0.245	0	PA_with_intermediate	0,0,0,3,0,0,1,2,0	test	ward_and_allport	2,0,0,0,0,0,1,3,0	71.0	46.0	0.245	0,0,0,0,0,0,1,2,3	to_board	s524
389.552	0.265	0	PA_with_intermediate	0,0,0,3,0,0,1,0,0	test	ward_and_allport	2,0,0,0,0,0,1,3,0	82.0	46.0	0.265	0,0,0,0,0,0,1,2,3	to_hand	s524
389.819	0.379	0	PA_with_intermediate	2,0,0,3,0,0,1,0,0	test	ward_and_allport	2,0,0,0,0,0,1,3,0	89.0	46.0	0.379	0,0,0,0,0,0,1,2,3	to_board	s524
390.209	0.687	0	PA_with_intermediate	2,0,0,0,0,0,1,0,0	test	ward_and_allport	2,0,0,0,0,0,1,3,0	71.0	46.0	0.687	0,0,0,0,0,0,1,2,3	to_hand	s524
390.898	0.21	0	PA_with_intermediate	2,0,0,0,0,0,1,3,0	test	ward_and_allport	2,0,0,0,0,0,1,3,0	82.0	46.0	0.21	0,0,0,0,0,0,1,2,3	to_board	s524
391.118	1.0	0	PA_with_intermediate	n/a	test	ward_and_allport	n/a	-1.0	46.0	n/a	n/a	feedback	s524
392.118	1.408	0	PA_with_intermediate	n/a	test	ward_and_allport	n/a	-1.0	46.0	n/a	n/a	ITI	s524
393.538	1.299	1	PA_without_intermediate	0,0,0,0,0,0,1,2,0	test	ward_and_allport	3,1,0,2,0,0,0,0,0	82.0	47.0	1.299	0,0,0,0,0,0,1,2,3	to_hand	s524
394.838	0.232	0	PA_without_intermediate	3,0,0,0,0,0,1,2,0	test	ward_and_allport	3,1,0,2,0,0,0,0,0	89.0	47.0	0.232	0,0,0,0,0,0,1,2,3	to_board	s524
395.082	0.328	0	PA_without_intermediate	3,0,0,0,0,0,1,0,0	test	ward_and_allport	3,1,0,2,0,0,0,0,0	82.0	47.0	0.328	0,0,0,0,0,0,1,2,3	to_hand	s524
395.411	0.288	0	PA_without_intermediate	3,0,0,2,0,0,1,0,0	test	ward_and_allport	3,1,0,2,0,0,0,0,0	71.0	47.0	0.288	0,0,0,0,0,0,1,2,3	to_board	s524
395.709	0.396	0	PA_without_intermediate	3,0,0,2,0,0,0,0,0	test	ward_and_allport	3,1,0,2,0,0,0,0,0	82.0	47.0	0.396	0,0,0,0,0,0,1,2,3	to_hand	s524
396.105	0.26	0	PA_without_intermediate	3,1,0,2,0,0,0,0,0	test	ward_and_allport	3,1,0,2,0,0,0,0,0	89.0	47.0	0.26	0,0,0,0,0,0,1,2,3	to_board	s524
396.377	1.0	0	PA_without_intermediate	n/a	test	ward_and_allport	n/a	-1.0	47.0	n/a	n/a	feedback	s524
397.377	1.816	0	PA_without_intermediate	n/a	test	ward_and_allport	n/a	-1.0	47.0	n/a	n/a	ITI	s524
n/a	n/a	0	n/a	n/a	n/a	n/a	n/a	n/a	n/a	n/a	n/a	ITI	n/a
