onset	duration	planning	condition	current_position	exp_stage	experiment_exp_id	goal_state	key_press	problem_id	response_time	start_state	trial_id	worker_id
-53.59	0.0	0	n/a	n/a	n/a	ward_and_allport	n/a	32.0	n/a	19.722	n/a	instructions	s598
3.011	5.05	1	UA_with_intermediate	1,0,0,2,0,0,0,0,0	practice	ward_and_allport	1,2,3,0,0,0,0,0,0	71.0	0.0	5.05	1,0,0,2,3,0,0,0,0	to_hand	s598
8.063	0.986	0	UA_with_intermediate	1,0,0,2,0,0,3,0,0	practice	ward_and_allport	1,2,3,0,0,0,0,0,0	82.0	0.0	0.986	1,0,0,2,3,0,0,0,0	to_board	s598
9.051	0.673	0	UA_with_intermediate	1,0,0,0,0,0,3,0,0	practice	ward_and_allport	1,2,3,0,0,0,0,0,0	71.0	0.0	0.673	1,0,0,2,3,0,0,0,0	to_hand	s598
9.725	0.542	0	UA_with_intermediate	1,2,0,0,0,0,3,0,0	practice	ward_and_allport	1,2,3,0,0,0,0,0,0	89.0	0.0	0.542	1,0,0,2,3,0,0,0,0	to_board	s598
10.269	0.674	0	UA_with_intermediate	1,2,0,0,0,0,0,0,0	practice	ward_and_allport	1,2,3,0,0,0,0,0,0	82.0	0.0	0.674	1,0,0,2,3,0,0,0,0	to_hand	s598
10.944	0.548	0	UA_with_intermediate	1,2,3,0,0,0,0,0,0	practice	ward_and_allport	1,2,3,0,0,0,0,0,0	89.0	0.0	0.548	1,0,0,2,3,0,0,0,0	to_board	s598
11.496	1.0	0	UA_with_intermediate	n/a	practice	ward_and_allport	n/a	-1.0	0.0	n/a	n/a	feedback	s598
13.998	3.48	1	UA_with_intermediate	1,2,0,0,0,0,0,0,0	practice	ward_and_allport	1,3,2,0,0,0,0,0,0	71.0	1.0	3.48	1,2,0,3,0,0,0,0,0	to_hand	s598
17.479	3.369	0	UA_with_intermediate	1,2,0,3,0,0,0,0,0	practice	ward_and_allport	1,3,2,0,0,0,0,0,0	71.0	1.0	3.369	1,2,0,3,0,0,0,0,0	to_board	s598
20.849	0.364	0	UA_with_intermediate	1,0,0,3,0,0,0,0,0	practice	ward_and_allport	1,3,2,0,0,0,0,0,0	89.0	1.0	0.364	1,2,0,3,0,0,0,0,0	to_hand	s598
21.215	0.543	0	UA_with_intermediate	1,0,0,3,0,0,2,0,0	practice	ward_and_allport	1,3,2,0,0,0,0,0,0	82.0	1.0	0.543	1,2,0,3,0,0,0,0,0	to_board	s598
21.76	0.391	0	UA_with_intermediate	1,0,0,0,0,0,2,0,0	practice	ward_and_allport	1,3,2,0,0,0,0,0,0	71.0	1.0	0.391	1,2,0,3,0,0,0,0,0	to_hand	s598
22.152	0.365	0	UA_with_intermediate	1,3,0,0,0,0,2,0,0	practice	ward_and_allport	1,3,2,0,0,0,0,0,0	89.0	1.0	0.365	1,2,0,3,0,0,0,0,0	to_board	s598
22.519	0.747	0	UA_with_intermediate	1,3,0,0,0,0,0,0,0	practice	ward_and_allport	1,3,2,0,0,0,0,0,0	82.0	1.0	0.747	1,2,0,3,0,0,0,0,0	to_hand	s598
23.267	0.309	0	UA_with_intermediate	1,3,2,0,0,0,0,0,0	practice	ward_and_allport	1,3,2,0,0,0,0,0,0	89.0	1.0	0.309	1,2,0,3,0,0,0,0,0	to_board	s598
23.581	1.0	0	UA_with_intermediate	n/a	practice	ward_and_allport	n/a	-1.0	1.0	n/a	n/a	feedback	s598
24.581	1.1	0	UA_with_intermediate	n/a	practice	ward_and_allport	n/a	-1.0	1.0	n/a	n/a	ITI	s598
25.685	6.513	1	UA_without_intermediate	0,0,0,1,2,0,0,0,0	practice	ward_and_allport	3,2,1,0,0,0,0,0,0	82.0	2.0	6.513	0,0,0,1,2,0,3,0,0	to_hand	s598
32.199	0.601	0	UA_without_intermediate	3,0,0,1,2,0,0,0,0	practice	ward_and_allport	3,2,1,0,0,0,0,0,0	89.0	2.0	0.601	0,0,0,1,2,0,3,0,0	to_board	s598
32.802	0.976	0	UA_without_intermediate	3,0,0,1,0,0,0,0,0	practice	ward_and_allport	3,2,1,0,0,0,0,0,0	71.0	2.0	0.976	0,0,0,1,2,0,3,0,0	to_hand	s598
33.779	0.427	0	UA_without_intermediate	3,2,0,1,0,0,0,0,0	practice	ward_and_allport	3,2,1,0,0,0,0,0,0	89.0	2.0	0.427	0,0,0,1,2,0,3,0,0	to_board	s598
34.208	0.919	0	UA_without_intermediate	3,2,0,0,0,0,0,0,0	practice	ward_and_allport	3,2,1,0,0,0,0,0,0	71.0	2.0	0.919	0,0,0,1,2,0,3,0,0	to_hand	s598
35.128	0.294	0	UA_without_intermediate	3,2,1,0,0,0,0,0,0	practice	ward_and_allport	3,2,1,0,0,0,0,0,0	89.0	2.0	0.294	0,0,0,1,2,0,3,0,0	to_board	s598
35.428	1.0	0	UA_without_intermediate	n/a	practice	ward_and_allport	n/a	-1.0	2.0	n/a	n/a	feedback	s598
36.428	1.2	0	UA_without_intermediate	n/a	practice	ward_and_allport	n/a	-1.0	2.0	n/a	n/a	ITI	s598
37.63	2.438	1	UA_without_intermediate	0,0,0,1,0,0,3,0,0	practice	ward_and_allport	2,3,1,0,0,0,0,0,0	71.0	3.0	2.438	0,0,0,1,2,0,3,0,0	to_hand	s598
40.069	0.533	0	UA_without_intermediate	2,0,0,1,0,0,3,0,0	practice	ward_and_allport	2,3,1,0,0,0,0,0,0	89.0	3.0	0.533	0,0,0,1,2,0,3,0,0	to_board	s598
40.604	0.634	0	UA_without_intermediate	2,0,0,1,0,0,0,0,0	practice	ward_and_allport	2,3,1,0,0,0,0,0,0	82.0	3.0	0.634	0,0,0,1,2,0,3,0,0	to_hand	s598
41.239	0.61	0	UA_without_intermediate	2,3,0,1,0,0,0,0,0	practice	ward_and_allport	2,3,1,0,0,0,0,0,0	89.0	3.0	0.61	0,0,0,1,2,0,3,0,0	to_board	s598
41.851	0.845	0	UA_without_intermediate	2,3,0,0,0,0,0,0,0	practice	ward_and_allport	2,3,1,0,0,0,0,0,0	71.0	3.0	0.845	0,0,0,1,2,0,3,0,0	to_hand	s598
42.697	0.402	0	UA_without_intermediate	2,3,1,0,0,0,0,0,0	practice	ward_and_allport	2,3,1,0,0,0,0,0,0	89.0	3.0	0.402	0,0,0,1,2,0,3,0,0	to_board	s598
43.104	1.0	0	UA_without_intermediate	n/a	practice	ward_and_allport	n/a	-1.0	3.0	n/a	n/a	feedback	s598
44.104	1.0	0	UA_without_intermediate	n/a	practice	ward_and_allport	n/a	-1.0	3.0	n/a	n/a	ITI	s598
47.112	8.154	1	PA_with_intermediate	1,2,0,0,0,0,0,0,0	test	ward_and_allport	1,3,0,0,0,0,2,0,0	89.0	0.0	8.154	1,2,3,0,0,0,0,0,0	to_hand	s598
55.267	0.885	0	PA_with_intermediate	1,2,0,3,0,0,0,0,0	test	ward_and_allport	1,3,0,0,0,0,2,0,0	71.0	0.0	0.885	1,2,3,0,0,0,0,0,0	to_board	s598
56.154	2.24	0	PA_with_intermediate	1,0,0,3,0,0,0,0,0	test	ward_and_allport	1,3,0,0,0,0,2,0,0	89.0	0.0	2.24	1,2,3,0,0,0,0,0,0	to_hand	s598
58.395	0.458	0	PA_with_intermediate	1,0,0,3,0,0,2,0,0	test	ward_and_allport	1,3,0,0,0,0,2,0,0	82.0	0.0	0.458	1,2,3,0,0,0,0,0,0	to_board	s598
58.855	0.934	0	PA_with_intermediate	1,0,0,0,0,0,2,0,0	test	ward_and_allport	1,3,0,0,0,0,2,0,0	71.0	0.0	0.934	1,2,3,0,0,0,0,0,0	to_hand	s598
59.79	0.287	0	PA_with_intermediate	1,3,0,0,0,0,2,0,0	test	ward_and_allport	1,3,0,0,0,0,2,0,0	89.0	0.0	0.287	1,2,3,0,0,0,0,0,0	to_board	s598
60.084	1.0	0	PA_with_intermediate	n/a	test	ward_and_allport	n/a	-1.0	0.0	n/a	n/a	feedback	s598
61.084	1.408	0	PA_with_intermediate	n/a	test	ward_and_allport	n/a	-1.0	0.0	n/a	n/a	ITI	s598
62.494	3.748	1	PA_without_intermediate	0,0,0,0,0,0,1,2,0	test	ward_and_allport	2,0,0,3,1,0,0,0,0	82.0	1.0	3.748	0,0,0,0,0,0,1,2,3	to_hand	s598
66.243	0.608	0	PA_without_intermediate	0,0,0,3,0,0,1,2,0	test	ward_and_allport	2,0,0,3,1,0,0,0,0	71.0	1.0	0.608	0,0,0,0,0,0,1,2,3	to_board	s598
66.853	1.52	0	PA_without_intermediate	0,0,0,3,0,0,1,0,0	test	ward_and_allport	2,0,0,3,1,0,0,0,0	82.0	1.0	1.52	0,0,0,0,0,0,1,2,3	to_hand	s598
68.375	0.679	0	PA_without_intermediate	2,0,0,3,0,0,1,0,0	test	ward_and_allport	2,0,0,3,1,0,0,0,0	89.0	1.0	0.679	0,0,0,0,0,0,1,2,3	to_board	s598
69.057	1.132	0	PA_without_intermediate	2,0,0,3,0,0,0,0,0	test	ward_and_allport	2,0,0,3,1,0,0,0,0	82.0	1.0	1.132	0,0,0,0,0,0,1,2,3	to_hand	s598
70.19	0.462	0	PA_without_intermediate	2,0,0,3,1,0,0,0,0	test	ward_and_allport	2,0,0,3,1,0,0,0,0	71.0	1.0	0.462	0,0,0,0,0,0,1,2,3	to_board	s598
70.655	1.0	0	PA_without_intermediate	n/a	test	ward_and_allport	n/a	-1.0	1.0	n/a	n/a	feedback	s598
71.655	1.68	0	PA_without_intermediate	n/a	test	ward_and_allport	n/a	-1.0	1.0	n/a	n/a	ITI	s598
73.337	3.76	1	PA_with_intermediate	1,2,0,0,0,0,0,0,0	test	ward_and_allport	1,3,0,2,0,0,0,0,0	89.0	2.0	3.76	1,2,3,0,0,0,0,0,0	to_hand	s598
77.099	0.585	0	PA_with_intermediate	1,2,0,0,0,0,3,0,0	test	ward_and_allport	1,3,0,2,0,0,0,0,0	82.0	2.0	0.585	1,2,3,0,0,0,0,0,0	to_board	s598
77.687	0.778	0	PA_with_intermediate	1,0,0,0,0,0,3,0,0	test	ward_and_allport	1,3,0,2,0,0,0,0,0	89.0	2.0	0.778	1,2,3,0,0,0,0,0,0	to_hand	s598
78.466	0.564	0	PA_with_intermediate	1,0,0,2,0,0,3,0,0	test	ward_and_allport	1,3,0,2,0,0,0,0,0	71.0	2.0	0.564	1,2,3,0,0,0,0,0,0	to_board	s598
79.032	0.611	0	PA_with_intermediate	1,0,0,2,0,0,0,0,0	test	ward_and_allport	1,3,0,2,0,0,0,0,0	82.0	2.0	0.611	1,2,3,0,0,0,0,0,0	to_hand	s598
79.643	0.585	0	PA_with_intermediate	1,3,0,2,0,0,0,0,0	test	ward_and_allport	1,3,0,2,0,0,0,0,0	89.0	2.0	0.585	1,2,3,0,0,0,0,0,0	to_board	s598
80.236	1.0	0	PA_with_intermediate	n/a	test	ward_and_allport	n/a	-1.0	2.0	n/a	n/a	feedback	s598
81.236	3.72	0	PA_with_intermediate	n/a	test	ward_and_allport	n/a	-1.0	2.0	n/a	n/a	ITI	s598
84.959	2.254	1	PA_without_intermediate	1,2,0,0,0,0,0,0,0	test	ward_and_allport	0,0,0,3,2,0,1,0,0	89.0	3.0	2.254	1,2,3,0,0,0,0,0,0	to_hand	s598
87.214	0.453	0	PA_without_intermediate	1,2,0,3,0,0,0,0,0	test	ward_and_allport	0,0,0,3,2,0,1,0,0	71.0	3.0	0.453	1,2,3,0,0,0,0,0,0	to_board	s598
87.669	0.855	0	PA_without_intermediate	1,0,0,3,0,0,0,0,0	test	ward_and_allport	0,0,0,3,2,0,1,0,0	89.0	3.0	0.855	1,2,3,0,0,0,0,0,0	to_hand	s598
88.526	0.467	0	PA_without_intermediate	1,0,0,3,2,0,0,0,0	test	ward_and_allport	0,0,0,3,2,0,1,0,0	71.0	3.0	0.467	1,2,3,0,0,0,0,0,0	to_board	s598
88.996	0.705	0	PA_without_intermediate	0,0,0,3,2,0,0,0,0	test	ward_and_allport	0,0,0,3,2,0,1,0,0	89.0	3.0	0.705	1,2,3,0,0,0,0,0,0	to_hand	s598
89.703	0.47	0	PA_without_intermediate	0,0,0,3,2,0,1,0,0	test	ward_and_allport	0,0,0,3,2,0,1,0,0	82.0	3.0	0.47	1,2,3,0,0,0,0,0,0	to_board	s598
90.177	1.0	0	PA_without_intermediate	n/a	test	ward_and_allport	n/a	-1.0	3.0	n/a	n/a	feedback	s598
91.177	2.224	0	PA_without_intermediate	n/a	test	ward_and_allport	n/a	-1.0	3.0	n/a	n/a	ITI	s598
93.404	3.018	1	PA_without_intermediate	0,0,0,1,2,0,0,0,0	test	ward_and_allport	1,0,0,0,0,0,3,2,0	71.0	4.0	3.018	0,0,0,1,2,3,0,0,0	to_hand	s598
96.424	0.46	0	PA_without_intermediate	0,0,0,1,2,0,3,0,0	test	ward_and_allport	1,0,0,0,0,0,3,2,0	82.0	4.0	0.46	0,0,0,1,2,3,0,0,0	to_board	s598
96.887	1.043	0	PA_without_intermediate	0,0,0,1,0,0,3,0,0	test	ward_and_allport	1,0,0,0,0,0,3,2,0	71.0	4.0	1.043	0,0,0,1,2,3,0,0,0	to_hand	s598
97.931	0.407	0	PA_without_intermediate	0,0,0,1,0,0,3,2,0	test	ward_and_allport	1,0,0,0,0,0,3,2,0	82.0	4.0	0.407	0,0,0,1,2,3,0,0,0	to_board	s598
98.341	0.822	0	PA_without_intermediate	0,0,0,0,0,0,3,2,0	test	ward_and_allport	1,0,0,0,0,0,3,2,0	71.0	4.0	0.822	0,0,0,1,2,3,0,0,0	to_hand	s598
99.164	0.287	0	PA_without_intermediate	1,0,0,0,0,0,3,2,0	test	ward_and_allport	1,0,0,0,0,0,3,2,0	89.0	4.0	0.287	0,0,0,1,2,3,0,0,0	to_board	s598
99.457	1.0	0	PA_without_intermediate	n/a	test	ward_and_allport	n/a	-1.0	4.0	n/a	n/a	feedback	s598
100.457	1.272	0	PA_without_intermediate	n/a	test	ward_and_allport	n/a	-1.0	4.0	n/a	n/a	ITI	s598
101.732	2.805	1	PA_with_intermediate	1,2,0,0,0,0,0,0,0	test	ward_and_allport	1,0,0,0,0,0,2,3,0	89.0	5.0	2.805	1,2,3,0,0,0,0,0,0	to_hand	s598
104.538	0.516	0	PA_with_intermediate	1,2,0,3,0,0,0,0,0	test	ward_and_allport	1,0,0,0,0,0,2,3,0	71.0	5.0	0.516	1,2,3,0,0,0,0,0,0	to_board	s598
105.057	0.469	0	PA_with_intermediate	1,0,0,3,0,0,0,0,0	test	ward_and_allport	1,0,0,0,0,0,2,3,0	89.0	5.0	0.469	1,2,3,0,0,0,0,0,0	to_hand	s598
105.528	0.474	0	PA_with_intermediate	1,0,0,3,0,0,2,0,0	test	ward_and_allport	1,0,0,0,0,0,2,3,0	82.0	5.0	0.474	1,2,3,0,0,0,0,0,0	to_board	s598
106.005	0.528	0	PA_with_intermediate	1,0,0,0,0,0,2,0,0	test	ward_and_allport	1,0,0,0,0,0,2,3,0	71.0	5.0	0.528	1,2,3,0,0,0,0,0,0	to_hand	s598
106.535	0.407	0	PA_with_intermediate	1,0,0,0,0,0,2,3,0	test	ward_and_allport	1,0,0,0,0,0,2,3,0	82.0	5.0	0.407	1,2,3,0,0,0,0,0,0	to_board	s598
106.95	1.0	0	PA_with_intermediate	n/a	test	ward_and_allport	n/a	-1.0	5.0	n/a	n/a	feedback	s598
107.95	2.632	0	PA_with_intermediate	n/a	test	ward_and_allport	n/a	-1.0	5.0	n/a	n/a	ITI	s598
110.584	2.298	1	PA_without_intermediate	1,2,0,0,0,0,0,0,0	test	ward_and_allport	0,0,0,3,1,0,2,0,0	89.0	6.0	2.298	1,2,3,0,0,0,0,0,0	to_hand	s598
112.884	0.741	0	PA_without_intermediate	1,2,0,3,0,0,0,0,0	test	ward_and_allport	0,0,0,3,1,0,2,0,0	71.0	6.0	0.741	1,2,3,0,0,0,0,0,0	to_board	s598
113.628	0.561	0	PA_without_intermediate	1,0,0,3,0,0,0,0,0	test	ward_and_allport	0,0,0,3,1,0,2,0,0	89.0	6.0	0.561	1,2,3,0,0,0,0,0,0	to_hand	s598
114.19	0.52	0	PA_without_intermediate	1,0,0,3,0,0,2,0,0	test	ward_and_allport	0,0,0,3,1,0,2,0,0	82.0	6.0	0.52	1,2,3,0,0,0,0,0,0	to_board	s598
114.713	0.533	0	PA_without_intermediate	0,0,0,3,0,0,2,0,0	test	ward_and_allport	0,0,0,3,1,0,2,0,0	89.0	6.0	0.533	1,2,3,0,0,0,0,0,0	to_hand	s598
115.247	0.444	0	PA_without_intermediate	0,0,0,3,1,0,2,0,0	test	ward_and_allport	0,0,0,3,1,0,2,0,0	71.0	6.0	0.444	1,2,3,0,0,0,0,0,0	to_board	s598
115.694	1.0	0	PA_without_intermediate	n/a	test	ward_and_allport	n/a	-1.0	6.0	n/a	n/a	feedback	s598
116.694	1.408	0	PA_without_intermediate	n/a	test	ward_and_allport	n/a	-1.0	6.0	n/a	n/a	ITI	s598
118.105	2.348	1	PA_without_intermediate	0,0,0,1,2,0,0,0,0	test	ward_and_allport	3,1,0,0,0,0,2,0,0	71.0	7.0	2.348	0,0,0,1,2,3,0,0,0	to_hand	s598
120.453	0.419	0	PA_without_intermediate	3,0,0,1,2,0,0,0,0	test	ward_and_allport	3,1,0,0,0,0,2,0,0	89.0	7.0	0.419	0,0,0,1,2,3,0,0,0	to_board	s598
120.877	0.811	0	PA_without_intermediate	3,0,0,1,0,0,0,0,0	test	ward_and_allport	3,1,0,0,0,0,2,0,0	71.0	7.0	0.811	0,0,0,1,2,3,0,0,0	to_hand	s598
121.689	0.36	0	PA_without_intermediate	3,0,0,1,0,0,2,0,0	test	ward_and_allport	3,1,0,0,0,0,2,0,0	82.0	7.0	0.36	0,0,0,1,2,3,0,0,0	to_board	s598
122.052	0.444	0	PA_without_intermediate	3,0,0,0,0,0,2,0,0	test	ward_and_allport	3,1,0,0,0,0,2,0,0	71.0	7.0	0.444	0,0,0,1,2,3,0,0,0	to_hand	s598
122.497	0.278	0	PA_without_intermediate	3,1,0,0,0,0,2,0,0	test	ward_and_allport	3,1,0,0,0,0,2,0,0	89.0	7.0	0.278	0,0,0,1,2,3,0,0,0	to_board	s598
122.782	1.0	0	PA_without_intermediate	n/a	test	ward_and_allport	n/a	-1.0	7.0	n/a	n/a	feedback	s598
123.782	1.0	0	PA_without_intermediate	n/a	test	ward_and_allport	n/a	-1.0	7.0	n/a	n/a	ITI	s598
124.785	2.658	1	PA_with_intermediate	0,0,0,1,2,0,0,0,0	test	ward_and_allport	0,0,0,1,0,0,2,3,0	71.0	8.0	2.658	0,0,0,1,2,3,0,0,0	to_hand	s598
127.444	0.656	0	PA_with_intermediate	3,0,0,1,2,0,0,0,0	test	ward_and_allport	0,0,0,1,0,0,2,3,0	89.0	8.0	0.656	0,0,0,1,2,3,0,0,0	to_board	s598
128.105	0.617	0	PA_with_intermediate	3,0,0,1,0,0,0,0,0	test	ward_and_allport	0,0,0,1,0,0,2,3,0	71.0	8.0	0.617	0,0,0,1,2,3,0,0,0	to_hand	s598
128.723	0.539	0	PA_with_intermediate	3,0,0,1,0,0,2,0,0	test	ward_and_allport	0,0,0,1,0,0,2,3,0	82.0	8.0	0.539	0,0,0,1,2,3,0,0,0	to_board	s598
129.266	0.833	0	PA_with_intermediate	0,0,0,1,0,0,2,0,0	test	ward_and_allport	0,0,0,1,0,0,2,3,0	89.0	8.0	0.833	0,0,0,1,2,3,0,0,0	to_hand	s598
130.1	0.357	0	PA_with_intermediate	0,0,0,1,0,0,2,3,0	test	ward_and_allport	0,0,0,1,0,0,2,3,0	82.0	8.0	0.357	0,0,0,1,2,3,0,0,0	to_board	s598
130.46	1.0	0	PA_with_intermediate	n/a	test	ward_and_allport	n/a	-1.0	8.0	n/a	n/a	feedback	s598
131.46	1.0	0	PA_with_intermediate	n/a	test	ward_and_allport	n/a	-1.0	8.0	n/a	n/a	ITI	s598
132.463	2.673	1	PA_with_intermediate	0,0,0,1,2,0,0,0,0	test	ward_and_allport	0,0,0,1,0,0,2,3,0	71.0	9.0	2.673	0,0,0,1,2,3,0,0,0	to_hand	s598
135.138	0.847	0	PA_with_intermediate	3,0,0,1,2,0,0,0,0	test	ward_and_allport	0,0,0,1,0,0,2,3,0	89.0	9.0	0.847	0,0,0,1,2,3,0,0,0	to_board	s598
135.989	0.413	0	PA_with_intermediate	3,0,0,1,0,0,0,0,0	test	ward_and_allport	0,0,0,1,0,0,2,3,0	71.0	9.0	0.413	0,0,0,1,2,3,0,0,0	to_hand	s598
136.403	0.532	0	PA_with_intermediate	3,0,0,1,0,0,2,0,0	test	ward_and_allport	0,0,0,1,0,0,2,3,0	82.0	9.0	0.532	0,0,0,1,2,3,0,0,0	to_board	s598
136.938	0.395	0	PA_with_intermediate	0,0,0,1,0,0,2,0,0	test	ward_and_allport	0,0,0,1,0,0,2,3,0	89.0	9.0	0.395	0,0,0,1,2,3,0,0,0	to_hand	s598
137.334	0.403	0	PA_with_intermediate	0,0,0,1,0,0,2,3,0	test	ward_and_allport	0,0,0,1,0,0,2,3,0	82.0	9.0	0.403	0,0,0,1,2,3,0,0,0	to_board	s598
137.745	1.0	0	PA_with_intermediate	n/a	test	ward_and_allport	n/a	-1.0	9.0	n/a	n/a	feedback	s598
138.745	1.0	0	PA_with_intermediate	n/a	test	ward_and_allport	n/a	-1.0	9.0	n/a	n/a	ITI	s598
139.749	1.887	1	PA_with_intermediate	0,0,0,0,0,0,1,2,0	test	ward_and_allport	0,0,0,2,3,0,1,0,0	82.0	10.0	1.887	0,0,0,0,0,0,1,2,3	to_hand	s598
141.638	0.556	0	PA_with_intermediate	3,0,0,0,0,0,1,2,0	test	ward_and_allport	0,0,0,2,3,0,1,0,0	89.0	10.0	0.556	0,0,0,0,0,0,1,2,3	to_board	s598
142.198	1.582	0	PA_with_intermediate	3,0,0,0,0,0,1,0,0	test	ward_and_allport	0,0,0,2,3,0,1,0,0	82.0	10.0	1.582	0,0,0,0,0,0,1,2,3	to_hand	s598
143.781	0.489	0	PA_with_intermediate	3,0,0,2,0,0,1,0,0	test	ward_and_allport	0,0,0,2,3,0,1,0,0	71.0	10.0	0.489	0,0,0,0,0,0,1,2,3	to_board	s598
144.275	0.363	0	PA_with_intermediate	0,0,0,2,0,0,1,0,0	test	ward_and_allport	0,0,0,2,3,0,1,0,0	89.0	10.0	0.363	0,0,0,0,0,0,1,2,3	to_hand	s598
144.639	0.358	0	PA_with_intermediate	0,0,0,2,3,0,1,0,0	test	ward_and_allport	0,0,0,2,3,0,1,0,0	71.0	10.0	0.358	0,0,0,0,0,0,1,2,3	to_board	s598
145.005	1.0	0	PA_with_intermediate	n/a	test	ward_and_allport	n/a	-1.0	10.0	n/a	n/a	feedback	s598
146.005	1.408	0	PA_with_intermediate	n/a	test	ward_and_allport	n/a	-1.0	10.0	n/a	n/a	ITI	s598
147.417	1.811	1	PA_without_intermediate	0,0,0,1,2,0,0,0,0	test	ward_and_allport	1,0,0,0,0,0,3,2,0	71.0	11.0	1.811	0,0,0,1,2,3,0,0,0	to_hand	s598
149.23	0.537	0	PA_without_intermediate	0,0,0,1,2,0,3,0,0	test	ward_and_allport	1,0,0,0,0,0,3,2,0	82.0	11.0	0.537	0,0,0,1,2,3,0,0,0	to_board	s598
149.77	0.746	0	PA_without_intermediate	0,0,0,1,0,0,3,0,0	test	ward_and_allport	1,0,0,0,0,0,3,2,0	71.0	11.0	0.746	0,0,0,1,2,3,0,0,0	to_hand	s598
150.517	0.385	0	PA_without_intermediate	0,0,0,1,0,0,3,2,0	test	ward_and_allport	1,0,0,0,0,0,3,2,0	82.0	11.0	0.385	0,0,0,1,2,3,0,0,0	to_board	s598
150.906	0.53	0	PA_without_intermediate	0,0,0,0,0,0,3,2,0	test	ward_and_allport	1,0,0,0,0,0,3,2,0	71.0	11.0	0.53	0,0,0,1,2,3,0,0,0	to_hand	s598
151.437	0.339	0	PA_without_intermediate	1,0,0,0,0,0,3,2,0	test	ward_and_allport	1,0,0,0,0,0,3,2,0	89.0	11.0	0.339	0,0,0,1,2,3,0,0,0	to_board	s598
151.783	1.0	0	PA_without_intermediate	n/a	test	ward_and_allport	n/a	-1.0	11.0	n/a	n/a	feedback	s598
152.783	1.816	0	PA_without_intermediate	n/a	test	ward_and_allport	n/a	-1.0	11.0	n/a	n/a	ITI	s598
154.603	1.884	1	PA_with_intermediate	0,0,0,0,0,0,1,2,0	test	ward_and_allport	2,3,0,0,0,0,1,0,0	82.0	12.0	1.884	0,0,0,0,0,0,1,2,3	to_hand	s598
156.488	0.986	0	PA_with_intermediate	0,0,0,3,0,0,1,2,0	test	ward_and_allport	2,3,0,0,0,0,1,0,0	71.0	12.0	0.986	0,0,0,0,0,0,1,2,3	to_board	s598
157.478	0.643	0	PA_with_intermediate	0,0,0,3,0,0,1,0,0	test	ward_and_allport	2,3,0,0,0,0,1,0,0	82.0	12.0	0.643	0,0,0,0,0,0,1,2,3	to_hand	s598
158.122	0.613	0	PA_with_intermediate	2,0,0,3,0,0,1,0,0	test	ward_and_allport	2,3,0,0,0,0,1,0,0	89.0	12.0	0.613	0,0,0,0,0,0,1,2,3	to_board	s598
158.739	0.706	0	PA_with_intermediate	2,0,0,0,0,0,1,0,0	test	ward_and_allport	2,3,0,0,0,0,1,0,0	71.0	12.0	0.706	0,0,0,0,0,0,1,2,3	to_hand	s598
159.446	0.321	0	PA_with_intermediate	2,3,0,0,0,0,1,0,0	test	ward_and_allport	2,3,0,0,0,0,1,0,0	89.0	12.0	0.321	0,0,0,0,0,0,1,2,3	to_board	s598
159.771	1.0	0	PA_with_intermediate	n/a	test	ward_and_allport	n/a	-1.0	12.0	n/a	n/a	feedback	s598
160.771	3.176	0	PA_with_intermediate	n/a	test	ward_and_allport	n/a	-1.0	12.0	n/a	n/a	ITI	s598
163.952	3.048	1	PA_with_intermediate	0,0,0,1,2,0,0,0,0	test	ward_and_allport	0,0,0,1,3,0,2,0,0	71.0	13.0	3.048	0,0,0,1,2,3,0,0,0	to_hand	s598
167.002	0.44	0	PA_with_intermediate	3,0,0,1,2,0,0,0,0	test	ward_and_allport	0,0,0,1,3,0,2,0,0	89.0	13.0	0.44	0,0,0,1,2,3,0,0,0	to_board	s598
167.446	0.425	0	PA_with_intermediate	3,0,0,1,0,0,0,0,0	test	ward_and_allport	0,0,0,1,3,0,2,0,0	71.0	13.0	0.425	0,0,0,1,2,3,0,0,0	to_hand	s598
167.873	0.508	0	PA_with_intermediate	3,0,0,1,0,0,2,0,0	test	ward_and_allport	0,0,0,1,3,0,2,0,0	82.0	13.0	0.508	0,0,0,1,2,3,0,0,0	to_board	s598
168.384	0.491	0	PA_with_intermediate	0,0,0,1,0,0,2,0,0	test	ward_and_allport	0,0,0,1,3,0,2,0,0	89.0	13.0	0.491	0,0,0,1,2,3,0,0,0	to_hand	s598
168.877	0.334	0	PA_with_intermediate	0,0,0,1,3,0,2,0,0	test	ward_and_allport	0,0,0,1,3,0,2,0,0	71.0	13.0	0.334	0,0,0,1,2,3,0,0,0	to_board	s598
169.217	1.0	0	PA_with_intermediate	n/a	test	ward_and_allport	n/a	-1.0	13.0	n/a	n/a	feedback	s598
170.217	2.36	0	PA_with_intermediate	n/a	test	ward_and_allport	n/a	-1.0	13.0	n/a	n/a	ITI	s598
172.581	3.661	1	PA_with_intermediate	0,0,0,0,0,0,1,2,0	test	ward_and_allport	2,0,0,0,0,0,1,3,0	82.0	14.0	3.661	0,0,0,0,0,0,1,2,3	to_hand	s598
176.243	0.535	0	PA_with_intermediate	0,0,0,3,0,0,1,2,0	test	ward_and_allport	2,0,0,0,0,0,1,3,0	71.0	14.0	0.535	0,0,0,0,0,0,1,2,3	to_board	s598
176.782	0.855	0	PA_with_intermediate	0,0,0,3,0,0,1,0,0	test	ward_and_allport	2,0,0,0,0,0,1,3,0	82.0	14.0	0.855	0,0,0,0,0,0,1,2,3	to_hand	s598
177.638	0.76	0	PA_with_intermediate	2,0,0,3,0,0,1,0,0	test	ward_and_allport	2,0,0,0,0,0,1,3,0	89.0	14.0	0.76	0,0,0,0,0,0,1,2,3	to_board	s598
178.402	1.344	0	PA_with_intermediate	2,0,0,0,0,0,1,0,0	test	ward_and_allport	2,0,0,0,0,0,1,3,0	71.0	14.0	1.344	0,0,0,0,0,0,1,2,3	to_hand	s598
179.747	0.314	0	PA_with_intermediate	2,0,0,0,0,0,1,3,0	test	ward_and_allport	2,0,0,0,0,0,1,3,0	82.0	14.0	0.314	0,0,0,0,0,0,1,2,3	to_board	s598
180.065	1.0	0	PA_with_intermediate	n/a	test	ward_and_allport	n/a	-1.0	14.0	n/a	n/a	feedback	s598
181.065	1.0	0	PA_with_intermediate	n/a	test	ward_and_allport	n/a	-1.0	14.0	n/a	n/a	ITI	s598
187.074	2.451	1	PA_without_intermediate	0,0,0,0,0,0,1,2,0	test	ward_and_allport	3,1,0,2,0,0,0,0,0	82.0	15.0	2.451	0,0,0,0,0,0,1,2,3	to_hand	s598
189.526	0.527	0	PA_without_intermediate	3,0,0,0,0,0,1,2,0	test	ward_and_allport	3,1,0,2,0,0,0,0,0	89.0	15.0	0.527	0,0,0,0,0,0,1,2,3	to_board	s598
190.057	1.082	0	PA_without_intermediate	3,0,0,0,0,0,1,0,0	test	ward_and_allport	3,1,0,2,0,0,0,0,0	82.0	15.0	1.082	0,0,0,0,0,0,1,2,3	to_hand	s598
191.14	0.508	0	PA_without_intermediate	3,0,0,2,0,0,1,0,0	test	ward_and_allport	3,1,0,2,0,0,0,0,0	71.0	15.0	0.508	0,0,0,0,0,0,1,2,3	to_board	s598
191.653	1.065	0	PA_without_intermediate	3,0,0,2,0,0,0,0,0	test	ward_and_allport	3,1,0,2,0,0,0,0,0	82.0	15.0	1.065	0,0,0,0,0,0,1,2,3	to_hand	s598
192.719	0.355	0	PA_without_intermediate	3,1,0,2,0,0,0,0,0	test	ward_and_allport	3,1,0,2,0,0,0,0,0	89.0	15.0	0.355	0,0,0,0,0,0,1,2,3	to_board	s598
193.081	1.0	0	PA_without_intermediate	n/a	test	ward_and_allport	n/a	-1.0	15.0	n/a	n/a	feedback	s598
194.081	1.408	0	PA_without_intermediate	n/a	test	ward_and_allport	n/a	-1.0	15.0	n/a	n/a	ITI	s598
195.494	2.158	1	PA_with_intermediate	1,2,0,0,0,0,0,0,0	test	ward_and_allport	1,0,0,0,0,0,2,3,0	89.0	16.0	2.158	1,2,3,0,0,0,0,0,0	to_hand	s598
197.653	0.792	0	PA_with_intermediate	1,2,0,3,0,0,0,0,0	test	ward_and_allport	1,0,0,0,0,0,2,3,0	71.0	16.0	0.792	1,2,3,0,0,0,0,0,0	to_board	s598
198.449	0.609	0	PA_with_intermediate	1,0,0,3,0,0,0,0,0	test	ward_and_allport	1,0,0,0,0,0,2,3,0	89.0	16.0	0.609	1,2,3,0,0,0,0,0,0	to_hand	s598
199.059	0.467	0	PA_with_intermediate	1,0,0,3,0,0,2,0,0	test	ward_and_allport	1,0,0,0,0,0,2,3,0	82.0	16.0	0.467	1,2,3,0,0,0,0,0,0	to_board	s598
199.531	0.496	0	PA_with_intermediate	1,0,0,0,0,0,2,0,0	test	ward_and_allport	1,0,0,0,0,0,2,3,0	71.0	16.0	0.496	1,2,3,0,0,0,0,0,0	to_hand	s598
200.028	0.506	0	PA_with_intermediate	1,0,0,0,0,0,2,3,0	test	ward_and_allport	1,0,0,0,0,0,2,3,0	82.0	16.0	0.506	1,2,3,0,0,0,0,0,0	to_board	s598
200.54	1.0	0	PA_with_intermediate	n/a	test	ward_and_allport	n/a	-1.0	16.0	n/a	n/a	feedback	s598
201.54	1.816	0	PA_with_intermediate	n/a	test	ward_and_allport	n/a	-1.0	16.0	n/a	n/a	ITI	s598
203.36	1.566	1	PA_without_intermediate	0,0,0,1,2,0,0,0,0	test	ward_and_allport	2,0,0,0,0,0,3,1,0	71.0	17.0	1.566	0,0,0,1,2,3,0,0,0	to_hand	s598
204.927	0.519	0	PA_without_intermediate	0,0,0,1,2,0,3,0,0	test	ward_and_allport	2,0,0,0,0,0,3,1,0	82.0	17.0	0.519	0,0,0,1,2,3,0,0,0	to_board	s598
205.451	0.639	0	PA_without_intermediate	0,0,0,1,0,0,3,0,0	test	ward_and_allport	2,0,0,0,0,0,3,1,0	71.0	17.0	0.639	0,0,0,1,2,3,0,0,0	to_hand	s598
206.092	0.367	0	PA_without_intermediate	2,0,0,1,0,0,3,0,0	test	ward_and_allport	2,0,0,0,0,0,3,1,0	89.0	17.0	0.367	0,0,0,1,2,3,0,0,0	to_board	s598
206.464	0.604	0	PA_without_intermediate	2,0,0,0,0,0,3,0,0	test	ward_and_allport	2,0,0,0,0,0,3,1,0	71.0	17.0	0.604	0,0,0,1,2,3,0,0,0	to_hand	s598
207.069	0.341	0	PA_without_intermediate	2,0,0,0,0,0,3,1,0	test	ward_and_allport	2,0,0,0,0,0,3,1,0	82.0	17.0	0.341	0,0,0,1,2,3,0,0,0	to_board	s598
207.419	1.0	0	PA_without_intermediate	n/a	test	ward_and_allport	n/a	-1.0	17.0	n/a	n/a	feedback	s598
208.419	2.088	0	PA_without_intermediate	n/a	test	ward_and_allport	n/a	-1.0	17.0	n/a	n/a	ITI	s598
210.512	1.171	1	PA_without_intermediate	1,2,0,0,0,0,0,0,0	test	ward_and_allport	0,0,0,3,1,0,2,0,0	89.0	18.0	1.171	1,2,3,0,0,0,0,0,0	to_hand	s598
211.685	0.614	0	PA_without_intermediate	1,2,0,3,0,0,0,0,0	test	ward_and_allport	0,0,0,3,1,0,2,0,0	71.0	18.0	0.614	1,2,3,0,0,0,0,0,0	to_board	s598
212.303	0.99	0	PA_without_intermediate	1,0,0,3,0,0,0,0,0	test	ward_and_allport	0,0,0,3,1,0,2,0,0	89.0	18.0	0.99	1,2,3,0,0,0,0,0,0	to_hand	s598
213.294	0.482	0	PA_without_intermediate	1,0,0,3,0,0,2,0,0	test	ward_and_allport	0,0,0,3,1,0,2,0,0	82.0	18.0	0.482	1,2,3,0,0,0,0,0,0	to_board	s598
213.781	0.741	0	PA_without_intermediate	0,0,0,3,0,0,2,0,0	test	ward_and_allport	0,0,0,3,1,0,2,0,0	89.0	18.0	0.741	1,2,3,0,0,0,0,0,0	to_hand	s598
214.523	0.502	0	PA_without_intermediate	0,0,0,3,1,0,2,0,0	test	ward_and_allport	0,0,0,3,1,0,2,0,0	71.0	18.0	0.502	1,2,3,0,0,0,0,0,0	to_board	s598
215.033	1.0	0	PA_without_intermediate	n/a	test	ward_and_allport	n/a	-1.0	18.0	n/a	n/a	feedback	s598
216.033	1.136	0	PA_without_intermediate	n/a	test	ward_and_allport	n/a	-1.0	18.0	n/a	n/a	ITI	s598
217.174	1.307	1	PA_without_intermediate	1,2,0,0,0,0,0,0,0	test	ward_and_allport	0,0,0,3,2,0,1,0,0	89.0	19.0	1.307	1,2,3,0,0,0,0,0,0	to_hand	s598
218.482	0.452	0	PA_without_intermediate	1,2,0,3,0,0,0,0,0	test	ward_and_allport	0,0,0,3,2,0,1,0,0	71.0	19.0	0.452	1,2,3,0,0,0,0,0,0	to_board	s598
218.938	0.478	0	PA_without_intermediate	1,0,0,3,0,0,0,0,0	test	ward_and_allport	0,0,0,3,2,0,1,0,0	89.0	19.0	0.478	1,2,3,0,0,0,0,0,0	to_hand	s598
219.417	0.455	0	PA_without_intermediate	1,0,0,3,2,0,0,0,0	test	ward_and_allport	0,0,0,3,2,0,1,0,0	71.0	19.0	0.455	1,2,3,0,0,0,0,0,0	to_board	s598
219.877	0.553	0	PA_without_intermediate	0,0,0,3,2,0,0,0,0	test	ward_and_allport	0,0,0,3,2,0,1,0,0	89.0	19.0	0.553	1,2,3,0,0,0,0,0,0	to_hand	s598
220.431	0.363	0	PA_without_intermediate	0,0,0,3,2,0,1,0,0	test	ward_and_allport	0,0,0,3,2,0,1,0,0	82.0	19.0	0.363	1,2,3,0,0,0,0,0,0	to_board	s598
220.801	1.0	0	PA_without_intermediate	n/a	test	ward_and_allport	n/a	-1.0	19.0	n/a	n/a	feedback	s598
221.801	6.168	0	PA_without_intermediate	n/a	test	ward_and_allport	n/a	-1.0	19.0	n/a	n/a	ITI	s598
227.974	1.458	1	PA_without_intermediate	0,0,0,1,2,0,0,0,0	test	ward_and_allport	3,2,0,0,0,0,1,0,0	71.0	20.0	1.458	0,0,0,1,2,3,0,0,0	to_hand	s598
229.433	0.534	0	PA_without_intermediate	3,0,0,1,2,0,0,0,0	test	ward_and_allport	3,2,0,0,0,0,1,0,0	89.0	20.0	0.534	0,0,0,1,2,3,0,0,0	to_board	s598
229.972	0.394	0	PA_without_intermediate	3,0,0,1,0,0,0,0,0	test	ward_and_allport	3,2,0,0,0,0,1,0,0	71.0	20.0	0.394	0,0,0,1,2,3,0,0,0	to_hand	s598
230.368	0.469	0	PA_without_intermediate	3,2,0,1,0,0,0,0,0	test	ward_and_allport	3,2,0,0,0,0,1,0,0	89.0	20.0	0.469	0,0,0,1,2,3,0,0,0	to_board	s598
230.842	0.396	0	PA_without_intermediate	3,2,0,0,0,0,0,0,0	test	ward_and_allport	3,2,0,0,0,0,1,0,0	71.0	20.0	0.396	0,0,0,1,2,3,0,0,0	to_hand	s598
231.239	0.321	0	PA_without_intermediate	3,2,0,0,0,0,1,0,0	test	ward_and_allport	3,2,0,0,0,0,1,0,0	82.0	20.0	0.321	0,0,0,1,2,3,0,0,0	to_board	s598
231.569	1.0	0	PA_without_intermediate	n/a	test	ward_and_allport	n/a	-1.0	20.0	n/a	n/a	feedback	s598
232.569	1.816	0	PA_without_intermediate	n/a	test	ward_and_allport	n/a	-1.0	20.0	n/a	n/a	ITI	s598
234.39	1.943	1	PA_with_intermediate	0,0,0,0,0,0,1,2,0	test	ward_and_allport	2,0,0,0,0,0,1,3,0	82.0	21.0	1.943	0,0,0,0,0,0,1,2,3	to_hand	s598
236.334	0.445	0	PA_with_intermediate	0,0,0,3,0,0,1,2,0	test	ward_and_allport	2,0,0,0,0,0,1,3,0	71.0	21.0	0.445	0,0,0,0,0,0,1,2,3	to_board	s598
236.784	0.777	0	PA_with_intermediate	0,0,0,3,0,0,1,0,0	test	ward_and_allport	2,0,0,0,0,0,1,3,0	82.0	21.0	0.777	0,0,0,0,0,0,1,2,3	to_hand	s598
237.563	0.53	0	PA_with_intermediate	2,0,0,3,0,0,1,0,0	test	ward_and_allport	2,0,0,0,0,0,1,3,0	89.0	21.0	0.53	0,0,0,0,0,0,1,2,3	to_board	s598
238.097	1.645	0	PA_with_intermediate	2,0,0,0,0,0,1,0,0	test	ward_and_allport	2,0,0,0,0,0,1,3,0	71.0	21.0	1.645	0,0,0,0,0,0,1,2,3	to_hand	s598
239.744	0.338	0	PA_with_intermediate	2,0,0,0,0,0,1,3,0	test	ward_and_allport	2,0,0,0,0,0,1,3,0	82.0	21.0	0.338	0,0,0,0,0,0,1,2,3	to_board	s598
240.089	1.0	0	PA_with_intermediate	n/a	test	ward_and_allport	n/a	-1.0	21.0	n/a	n/a	feedback	s598
241.089	1.952	0	PA_with_intermediate	n/a	test	ward_and_allport	n/a	-1.0	21.0	n/a	n/a	ITI	s598
243.046	1.768	1	PA_with_intermediate	1,2,0,0,0,0,0,0,0	test	ward_and_allport	1,0,0,2,3,0,0,0,0	89.0	22.0	1.768	1,2,3,0,0,0,0,0,0	to_hand	s598
244.816	0.679	0	PA_with_intermediate	1,2,0,0,0,0,3,0,0	test	ward_and_allport	1,0,0,2,3,0,0,0,0	82.0	22.0	0.679	1,2,3,0,0,0,0,0,0	to_board	s598
245.499	0.626	0	PA_with_intermediate	1,0,0,0,0,0,3,0,0	test	ward_and_allport	1,0,0,2,3,0,0,0,0	89.0	22.0	0.626	1,2,3,0,0,0,0,0,0	to_hand	s598
246.127	0.81	0	PA_with_intermediate	1,0,0,2,0,0,3,0,0	test	ward_and_allport	1,0,0,2,3,0,0,0,0	71.0	22.0	0.81	1,2,3,0,0,0,0,0,0	to_board	s598
246.943	0.539	0	PA_with_intermediate	1,0,0,2,0,0,0,0,0	test	ward_and_allport	1,0,0,2,3,0,0,0,0	82.0	22.0	0.539	1,2,3,0,0,0,0,0,0	to_hand	s598
247.483	0.393	0	PA_with_intermediate	1,0,0,2,3,0,0,0,0	test	ward_and_allport	1,0,0,2,3,0,0,0,0	71.0	22.0	0.393	1,2,3,0,0,0,0,0,0	to_board	s598
247.882	1.0	0	PA_with_intermediate	n/a	test	ward_and_allport	n/a	-1.0	22.0	n/a	n/a	feedback	s598
248.882	1.136	0	PA_with_intermediate	n/a	test	ward_and_allport	n/a	-1.0	22.0	n/a	n/a	ITI	s598
250.023	2.233	1	PA_without_intermediate	0,0,0,0,0,0,1,2,0	test	ward_and_allport	1,0,0,3,2,0,0,0,0	82.0	23.0	2.233	0,0,0,0,0,0,1,2,3	to_hand	s598
252.257	0.452	0	PA_without_intermediate	0,0,0,3,0,0,1,2,0	test	ward_and_allport	1,0,0,3,2,0,0,0,0	71.0	23.0	0.452	0,0,0,0,0,0,1,2,3	to_board	s598
252.715	1.891	0	PA_without_intermediate	0,0,0,3,0,0,1,0,0	test	ward_and_allport	1,0,0,3,2,0,0,0,0	82.0	23.0	1.891	0,0,0,0,0,0,1,2,3	to_hand	s598
254.607	0.572	0	PA_without_intermediate	0,0,0,3,2,0,1,0,0	test	ward_and_allport	1,0,0,3,2,0,0,0,0	71.0	23.0	0.572	0,0,0,0,0,0,1,2,3	to_board	s598
255.185	1.09	0	PA_without_intermediate	0,0,0,3,2,0,0,0,0	test	ward_and_allport	1,0,0,3,2,0,0,0,0	82.0	23.0	1.09	0,0,0,0,0,0,1,2,3	to_hand	s598
256.277	0.378	0	PA_without_intermediate	1,0,0,3,2,0,0,0,0	test	ward_and_allport	1,0,0,3,2,0,0,0,0	89.0	23.0	0.378	0,0,0,0,0,0,1,2,3	to_board	s598
256.665	1.0	0	PA_without_intermediate	n/a	test	ward_and_allport	n/a	-1.0	23.0	n/a	n/a	feedback	s598
257.665	1.68	0	PA_without_intermediate	n/a	test	ward_and_allport	n/a	-1.0	23.0	n/a	n/a	ITI	s598
259.351	1.758	1	PA_without_intermediate	0,0,0,1,2,0,0,0,0	test	ward_and_allport	3,1,0,0,0,0,2,0,0	71.0	24.0	1.758	0,0,0,1,2,3,0,0,0	to_hand	s598
261.11	0.459	0	PA_without_intermediate	3,0,0,1,2,0,0,0,0	test	ward_and_allport	3,1,0,0,0,0,2,0,0	89.0	24.0	0.459	0,0,0,1,2,3,0,0,0	to_board	s598
261.575	0.468	0	PA_without_intermediate	3,0,0,1,0,0,0,0,0	test	ward_and_allport	3,1,0,0,0,0,2,0,0	71.0	24.0	0.468	0,0,0,1,2,3,0,0,0	to_hand	s598
262.044	0.782	0	PA_without_intermediate	3,0,0,1,0,0,2,0,0	test	ward_and_allport	3,1,0,0,0,0,2,0,0	82.0	24.0	0.782	0,0,0,1,2,3,0,0,0	to_board	s598
262.832	0.783	0	PA_without_intermediate	3,0,0,0,0,0,2,0,0	test	ward_and_allport	3,1,0,0,0,0,2,0,0	71.0	24.0	0.783	0,0,0,1,2,3,0,0,0	to_hand	s598
263.616	0.287	0	PA_without_intermediate	3,1,0,0,0,0,2,0,0	test	ward_and_allport	3,1,0,0,0,0,2,0,0	89.0	24.0	0.287	0,0,0,1,2,3,0,0,0	to_board	s598
263.911	1.0	0	PA_without_intermediate	n/a	test	ward_and_allport	n/a	-1.0	24.0	n/a	n/a	feedback	s598
264.911	2.088	0	PA_without_intermediate	n/a	test	ward_and_allport	n/a	-1.0	24.0	n/a	n/a	ITI	s598
267.005	2.324	1	PA_with_intermediate	0,0,0,0,0,0,1,2,0	test	ward_and_allport	0,0,0,2,0,0,1,3,0	82.0	25.0	2.324	0,0,0,0,0,0,1,2,3	to_hand	s598
269.33	0.43	0	PA_with_intermediate	3,0,0,0,0,0,1,2,0	test	ward_and_allport	0,0,0,2,0,0,1,3,0	89.0	25.0	0.43	0,0,0,0,0,0,1,2,3	to_board	s598
269.766	0.523	0	PA_with_intermediate	3,0,0,0,0,0,1,0,0	test	ward_and_allport	0,0,0,2,0,0,1,3,0	82.0	25.0	0.523	0,0,0,0,0,0,1,2,3	to_hand	s598
270.291	0.554	0	PA_with_intermediate	3,0,0,2,0,0,1,0,0	test	ward_and_allport	0,0,0,2,0,0,1,3,0	71.0	25.0	0.554	0,0,0,0,0,0,1,2,3	to_board	s598
270.851	0.583	0	PA_with_intermediate	0,0,0,2,0,0,1,0,0	test	ward_and_allport	0,0,0,2,0,0,1,3,0	89.0	25.0	0.583	0,0,0,0,0,0,1,2,3	to_hand	s598
271.435	0.386	0	PA_with_intermediate	0,0,0,2,0,0,1,3,0	test	ward_and_allport	0,0,0,2,0,0,1,3,0	82.0	25.0	0.386	0,0,0,0,0,0,1,2,3	to_board	s598
271.831	1.0	0	PA_with_intermediate	n/a	test	ward_and_allport	n/a	-1.0	25.0	n/a	n/a	feedback	s598
272.831	1.0	0	PA_with_intermediate	n/a	test	ward_and_allport	n/a	-1.0	25.0	n/a	n/a	ITI	s598
273.837	1.213	1	PA_without_intermediate	0,0,0,0,0,0,1,2,0	test	ward_and_allport	3,1,0,2,0,0,0,0,0	82.0	26.0	1.213	0,0,0,0,0,0,1,2,3	to_hand	s598
275.051	0.445	0	PA_without_intermediate	3,0,0,0,0,0,1,2,0	test	ward_and_allport	3,1,0,2,0,0,0,0,0	89.0	26.0	0.445	0,0,0,0,0,0,1,2,3	to_board	s598
275.502	0.893	0	PA_without_intermediate	3,0,0,0,0,0,1,0,0	test	ward_and_allport	3,1,0,2,0,0,0,0,0	82.0	26.0	0.893	0,0,0,0,0,0,1,2,3	to_hand	s598
276.397	0.355	0	PA_without_intermediate	3,0,0,2,0,0,1,0,0	test	ward_and_allport	3,1,0,2,0,0,0,0,0	71.0	26.0	0.355	0,0,0,0,0,0,1,2,3	to_board	s598
276.758	0.588	0	PA_without_intermediate	3,0,0,2,0,0,0,0,0	test	ward_and_allport	3,1,0,2,0,0,0,0,0	82.0	26.0	0.588	0,0,0,0,0,0,1,2,3	to_hand	s598
277.347	0.366	0	PA_without_intermediate	3,1,0,2,0,0,0,0,0	test	ward_and_allport	3,1,0,2,0,0,0,0,0	89.0	26.0	0.366	0,0,0,0,0,0,1,2,3	to_board	s598
277.721	1.0	0	PA_without_intermediate	n/a	test	ward_and_allport	n/a	-1.0	26.0	n/a	n/a	feedback	s598
278.721	1.0	0	PA_without_intermediate	n/a	test	ward_and_allport	n/a	-1.0	26.0	n/a	n/a	ITI	s598
279.727	1.014	1	PA_without_intermediate	0,0,0,1,2,0,0,0,0	test	ward_and_allport	2,0,0,0,0,0,3,1,0	71.0	27.0	1.014	0,0,0,1,2,3,0,0,0	to_hand	s598
280.742	0.471	0	PA_without_intermediate	0,0,0,1,2,0,3,0,0	test	ward_and_allport	2,0,0,0,0,0,3,1,0	82.0	27.0	0.471	0,0,0,1,2,3,0,0,0	to_board	s598
281.219	1.006	0	PA_without_intermediate	0,0,0,1,0,0,3,0,0	test	ward_and_allport	2,0,0,0,0,0,3,1,0	71.0	27.0	1.006	0,0,0,1,2,3,0,0,0	to_hand	s598
282.226	0.303	0	PA_without_intermediate	2,0,0,1,0,0,3,0,0	test	ward_and_allport	2,0,0,0,0,0,3,1,0	89.0	27.0	0.303	0,0,0,1,2,3,0,0,0	to_board	s598
282.535	0.411	0	PA_without_intermediate	2,0,0,0,0,0,3,0,0	test	ward_and_allport	2,0,0,0,0,0,3,1,0	71.0	27.0	0.411	0,0,0,1,2,3,0,0,0	to_hand	s598
282.948	0.332	0	PA_without_intermediate	2,0,0,0,0,0,3,1,0	test	ward_and_allport	2,0,0,0,0,0,3,1,0	82.0	27.0	0.332	0,0,0,1,2,3,0,0,0	to_board	s598
283.287	1.0	0	PA_without_intermediate	n/a	test	ward_and_allport	n/a	-1.0	27.0	n/a	n/a	feedback	s598
284.287	1.0	0	PA_without_intermediate	n/a	test	ward_and_allport	n/a	-1.0	27.0	n/a	n/a	ITI	s598
285.293	2.564	1	PA_with_intermediate	0,0,0,1,2,0,0,0,0	test	ward_and_allport	2,0,0,1,3,0,0,0,0	71.0	28.0	2.564	0,0,0,1,2,3,0,0,0	to_hand	s598
287.858	0.341	0	PA_with_intermediate	0,0,0,1,2,0,3,0,0	test	ward_and_allport	2,0,0,1,3,0,0,0,0	82.0	28.0	0.341	0,0,0,1,2,3,0,0,0	to_board	s598
288.206	0.367	0	PA_with_intermediate	0,0,0,1,0,0,3,0,0	test	ward_and_allport	2,0,0,1,3,0,0,0,0	71.0	28.0	0.367	0,0,0,1,2,3,0,0,0	to_hand	s598
288.574	0.37	0	PA_with_intermediate	2,0,0,1,0,0,3,0,0	test	ward_and_allport	2,0,0,1,3,0,0,0,0	89.0	28.0	0.37	0,0,0,1,2,3,0,0,0	to_board	s598
288.95	0.431	0	PA_with_intermediate	2,0,0,1,0,0,0,0,0	test	ward_and_allport	2,0,0,1,3,0,0,0,0	82.0	28.0	0.431	0,0,0,1,2,3,0,0,0	to_hand	s598
289.382	0.313	0	PA_with_intermediate	2,0,0,1,3,0,0,0,0	test	ward_and_allport	2,0,0,1,3,0,0,0,0	71.0	28.0	0.313	0,0,0,1,2,3,0,0,0	to_board	s598
289.706	1.0	0	PA_with_intermediate	n/a	test	ward_and_allport	n/a	-1.0	28.0	n/a	n/a	feedback	s598
290.706	1.544	0	PA_with_intermediate	n/a	test	ward_and_allport	n/a	-1.0	28.0	n/a	n/a	ITI	s598
292.257	1.37	1	PA_without_intermediate	0,0,0,1,2,0,0,0,0	test	ward_and_allport	3,2,0,0,0,0,1,0,0	71.0	29.0	1.37	0,0,0,1,2,3,0,0,0	to_hand	s598
293.628	0.313	0	PA_without_intermediate	3,0,0,1,2,0,0,0,0	test	ward_and_allport	3,2,0,0,0,0,1,0,0	89.0	29.0	0.313	0,0,0,1,2,3,0,0,0	to_board	s598
293.948	0.442	0	PA_without_intermediate	3,0,0,1,0,0,0,0,0	test	ward_and_allport	3,2,0,0,0,0,1,0,0	71.0	29.0	0.442	0,0,0,1,2,3,0,0,0	to_hand	s598
294.392	0.64	0	PA_without_intermediate	3,2,0,1,0,0,0,0,0	test	ward_and_allport	3,2,0,0,0,0,1,0,0	89.0	29.0	0.64	0,0,0,1,2,3,0,0,0	to_board	s598
295.039	0.996	0	PA_without_intermediate	3,2,0,0,0,0,0,0,0	test	ward_and_allport	3,2,0,0,0,0,1,0,0	71.0	29.0	0.996	0,0,0,1,2,3,0,0,0	to_hand	s598
296.036	0.247	0	PA_without_intermediate	3,2,0,0,0,0,1,0,0	test	ward_and_allport	3,2,0,0,0,0,1,0,0	82.0	29.0	0.247	0,0,0,1,2,3,0,0,0	to_board	s598
296.294	1.0	0	PA_without_intermediate	n/a	test	ward_and_allport	n/a	-1.0	29.0	n/a	n/a	feedback	s598
297.294	1.272	0	PA_without_intermediate	n/a	test	ward_and_allport	n/a	-1.0	29.0	n/a	n/a	ITI	s598
303.576	1.996	1	PA_with_intermediate	0,0,0,0,0,0,1,2,0	test	ward_and_allport	0,0,0,2,0,0,1,3,0	82.0	30.0	1.996	0,0,0,0,0,0,1,2,3	to_hand	s598
305.573	0.521	0	PA_with_intermediate	3,0,0,0,0,0,1,2,0	test	ward_and_allport	0,0,0,2,0,0,1,3,0	89.0	30.0	0.521	0,0,0,0,0,0,1,2,3	to_board	s598
306.101	0.403	0	PA_with_intermediate	3,0,0,0,0,0,1,0,0	test	ward_and_allport	0,0,0,2,0,0,1,3,0	82.0	30.0	0.403	0,0,0,0,0,0,1,2,3	to_hand	s598
306.506	0.478	0	PA_with_intermediate	3,0,0,2,0,0,1,0,0	test	ward_and_allport	0,0,0,2,0,0,1,3,0	71.0	30.0	0.478	0,0,0,0,0,0,1,2,3	to_board	s598
306.991	0.408	0	PA_with_intermediate	0,0,0,2,0,0,1,0,0	test	ward_and_allport	0,0,0,2,0,0,1,3,0	89.0	30.0	0.408	0,0,0,0,0,0,1,2,3	to_hand	s598
307.4	0.296	0	PA_with_intermediate	0,0,0,2,0,0,1,3,0	test	ward_and_allport	0,0,0,2,0,0,1,3,0	82.0	30.0	0.296	0,0,0,0,0,0,1,2,3	to_board	s598
307.705	1.0	0	PA_with_intermediate	n/a	test	ward_and_allport	n/a	-1.0	30.0	n/a	n/a	feedback	s598
308.705	3.04	0	PA_with_intermediate	n/a	test	ward_and_allport	n/a	-1.0	30.0	n/a	n/a	ITI	s598
311.752	1.192	1	PA_with_intermediate	0,0,0,0,0,0,1,2,0	test	ward_and_allport	0,0,0,2,3,0,1,0,0	82.0	31.0	1.192	0,0,0,0,0,0,1,2,3	to_hand	s598
312.945	0.639	0	PA_with_intermediate	3,0,0,0,0,0,1,2,0	test	ward_and_allport	0,0,0,2,3,0,1,0,0	89.0	31.0	0.639	0,0,0,0,0,0,1,2,3	to_board	s598
313.591	0.592	0	PA_with_intermediate	3,0,0,0,0,0,1,0,0	test	ward_and_allport	0,0,0,2,3,0,1,0,0	82.0	31.0	0.592	0,0,0,0,0,0,1,2,3	to_hand	s598
314.184	0.521	0	PA_with_intermediate	3,0,0,2,0,0,1,0,0	test	ward_and_allport	0,0,0,2,3,0,1,0,0	71.0	31.0	0.521	0,0,0,0,0,0,1,2,3	to_board	s598
314.713	0.484	0	PA_with_intermediate	0,0,0,2,0,0,1,0,0	test	ward_and_allport	0,0,0,2,3,0,1,0,0	89.0	31.0	0.484	0,0,0,0,0,0,1,2,3	to_hand	s598
315.198	0.369	0	PA_with_intermediate	0,0,0,2,3,0,1,0,0	test	ward_and_allport	0,0,0,2,3,0,1,0,0	71.0	31.0	0.369	0,0,0,0,0,0,1,2,3	to_board	s598
315.58	1.0	0	PA_with_intermediate	n/a	test	ward_and_allport	n/a	-1.0	31.0	n/a	n/a	feedback	s598
316.58	1.272	0	PA_with_intermediate	n/a	test	ward_and_allport	n/a	-1.0	31.0	n/a	n/a	ITI	s598
317.859	1.716	1	PA_with_intermediate	0,0,0,1,2,0,0,0,0	test	ward_and_allport	0,0,0,1,3,0,2,0,0	71.0	32.0	1.716	0,0,0,1,2,3,0,0,0	to_hand	s598
319.576	0.545	0	PA_with_intermediate	3,0,0,1,2,0,0,0,0	test	ward_and_allport	0,0,0,1,3,0,2,0,0	89.0	32.0	0.545	0,0,0,1,2,3,0,0,0	to_board	s598
320.128	0.462	0	PA_with_intermediate	3,0,0,1,0,0,0,0,0	test	ward_and_allport	0,0,0,1,3,0,2,0,0	71.0	32.0	0.462	0,0,0,1,2,3,0,0,0	to_hand	s598
320.591	0.668	0	PA_with_intermediate	3,0,0,1,0,0,2,0,0	test	ward_and_allport	0,0,0,1,3,0,2,0,0	82.0	32.0	0.668	0,0,0,1,2,3,0,0,0	to_board	s598
321.268	0.5	0	PA_with_intermediate	0,0,0,1,0,0,2,0,0	test	ward_and_allport	0,0,0,1,3,0,2,0,0	89.0	32.0	0.5	0,0,0,1,2,3,0,0,0	to_hand	s598
321.769	0.428	0	PA_with_intermediate	0,0,0,1,3,0,2,0,0	test	ward_and_allport	0,0,0,1,3,0,2,0,0	71.0	32.0	0.428	0,0,0,1,2,3,0,0,0	to_board	s598
322.207	1.0	0	PA_with_intermediate	n/a	test	ward_and_allport	n/a	-1.0	32.0	n/a	n/a	feedback	s598
323.207	1.136	0	PA_with_intermediate	n/a	test	ward_and_allport	n/a	-1.0	32.0	n/a	n/a	ITI	s598
324.351	2.75	1	PA_with_intermediate	1,2,0,0,0,0,0,0,0	test	ward_and_allport	1,3,0,0,0,0,2,0,0	89.0	33.0	2.75	1,2,3,0,0,0,0,0,0	to_hand	s598
327.102	0.66	0	PA_with_intermediate	1,2,0,3,0,0,0,0,0	test	ward_and_allport	1,3,0,0,0,0,2,0,0	71.0	33.0	0.66	1,2,3,0,0,0,0,0,0	to_board	s598
327.767	0.381	0	PA_with_intermediate	1,0,0,3,0,0,0,0,0	test	ward_and_allport	1,3,0,0,0,0,2,0,0	89.0	33.0	0.381	1,2,3,0,0,0,0,0,0	to_hand	s598
328.149	0.506	0	PA_with_intermediate	1,0,0,3,0,0,2,0,0	test	ward_and_allport	1,3,0,0,0,0,2,0,0	82.0	33.0	0.506	1,2,3,0,0,0,0,0,0	to_board	s598
328.661	0.531	0	PA_with_intermediate	1,0,0,0,0,0,2,0,0	test	ward_and_allport	1,3,0,0,0,0,2,0,0	71.0	33.0	0.531	1,2,3,0,0,0,0,0,0	to_hand	s598
329.193	0.327	0	PA_with_intermediate	1,3,0,0,0,0,2,0,0	test	ward_and_allport	1,3,0,0,0,0,2,0,0	89.0	33.0	0.327	1,2,3,0,0,0,0,0,0	to_board	s598
329.532	1.0	0	PA_with_intermediate	n/a	test	ward_and_allport	n/a	-1.0	33.0	n/a	n/a	feedback	s598
330.532	1.0	0	PA_with_intermediate	n/a	test	ward_and_allport	n/a	-1.0	33.0	n/a	n/a	ITI	s598
331.541	1.521	1	PA_with_intermediate	1,2,0,0,0,0,0,0,0	test	ward_and_allport	1,3,0,2,0,0,0,0,0	89.0	34.0	1.521	1,2,3,0,0,0,0,0,0	to_hand	s598
333.063	0.418	0	PA_with_intermediate	1,2,0,0,0,0,3,0,0	test	ward_and_allport	1,3,0,2,0,0,0,0,0	82.0	34.0	0.418	1,2,3,0,0,0,0,0,0	to_board	s598
333.487	0.556	0	PA_with_intermediate	1,0,0,0,0,0,3,0,0	test	ward_and_allport	1,3,0,2,0,0,0,0,0	89.0	34.0	0.556	1,2,3,0,0,0,0,0,0	to_hand	s598
334.044	0.471	0	PA_with_intermediate	1,0,0,2,0,0,3,0,0	test	ward_and_allport	1,3,0,2,0,0,0,0,0	71.0	34.0	0.471	1,2,3,0,0,0,0,0,0	to_board	s598
334.521	0.683	0	PA_with_intermediate	1,0,0,2,0,0,0,0,0	test	ward_and_allport	1,3,0,2,0,0,0,0,0	82.0	34.0	0.683	1,2,3,0,0,0,0,0,0	to_hand	s598
335.205	0.373	0	PA_with_intermediate	1,3,0,2,0,0,0,0,0	test	ward_and_allport	1,3,0,2,0,0,0,0,0	89.0	34.0	0.373	1,2,3,0,0,0,0,0,0	to_board	s598
335.585	1.0	0	PA_with_intermediate	n/a	test	ward_and_allport	n/a	-1.0	34.0	n/a	n/a	feedback	s598
336.585	1.0	0	PA_with_intermediate	n/a	test	ward_and_allport	n/a	-1.0	34.0	n/a	n/a	ITI	s598
337.593	2.435	1	PA_without_intermediate	0,0,0,0,0,0,1,2,0	test	ward_and_allport	1,0,0,3,2,0,0,0,0	82.0	35.0	2.435	0,0,0,0,0,0,1,2,3	to_hand	s598
340.029	0.433	0	PA_without_intermediate	0,0,0,3,0,0,1,2,0	test	ward_and_allport	1,0,0,3,2,0,0,0,0	71.0	35.0	0.433	0,0,0,0,0,0,1,2,3	to_board	s598
340.467	0.803	0	PA_without_intermediate	0,0,0,3,0,0,1,0,0	test	ward_and_allport	1,0,0,3,2,0,0,0,0	82.0	35.0	0.803	0,0,0,0,0,0,1,2,3	to_hand	s598
341.271	0.357	0	PA_without_intermediate	0,0,0,3,2,0,1,0,0	test	ward_and_allport	1,0,0,3,2,0,0,0,0	71.0	35.0	0.357	0,0,0,0,0,0,1,2,3	to_board	s598
341.636	0.768	0	PA_without_intermediate	0,0,0,3,2,0,0,0,0	test	ward_and_allport	1,0,0,3,2,0,0,0,0	82.0	35.0	0.768	0,0,0,0,0,0,1,2,3	to_hand	s598
342.405	0.446	0	PA_without_intermediate	1,0,0,3,2,0,0,0,0	test	ward_and_allport	1,0,0,3,2,0,0,0,0	89.0	35.0	0.446	0,0,0,0,0,0,1,2,3	to_board	s598
342.862	1.0	0	PA_without_intermediate	n/a	test	ward_and_allport	n/a	-1.0	35.0	n/a	n/a	feedback	s598
343.862	1.408	0	PA_without_intermediate	n/a	test	ward_and_allport	n/a	-1.0	35.0	n/a	n/a	ITI	s598
345.277	2.037	1	PA_with_intermediate	0,0,0,0,0,0,1,2,0	test	ward_and_allport	2,3,0,0,0,0,1,0,0	82.0	36.0	2.037	0,0,0,0,0,0,1,2,3	to_hand	s598
347.315	0.98	0	PA_with_intermediate	0,0,0,3,0,0,1,2,0	test	ward_and_allport	2,3,0,0,0,0,1,0,0	71.0	36.0	0.98	0,0,0,0,0,0,1,2,3	to_board	s598
348.302	1.717	0	PA_with_intermediate	0,0,0,3,0,0,1,0,0	test	ward_and_allport	2,3,0,0,0,0,1,0,0	82.0	36.0	1.717	0,0,0,0,0,0,1,2,3	to_hand	s598
350.02	0.541	0	PA_with_intermediate	2,0,0,3,0,0,1,0,0	test	ward_and_allport	2,3,0,0,0,0,1,0,0	89.0	36.0	0.541	0,0,0,0,0,0,1,2,3	to_board	s598
350.569	1.267	0	PA_with_intermediate	2,0,0,0,0,0,1,0,0	test	ward_and_allport	2,3,0,0,0,0,1,0,0	71.0	36.0	1.267	0,0,0,0,0,0,1,2,3	to_hand	s598
351.837	0.439	0	PA_with_intermediate	2,3,0,0,0,0,1,0,0	test	ward_and_allport	2,3,0,0,0,0,1,0,0	89.0	36.0	0.439	0,0,0,0,0,0,1,2,3	to_board	s598
352.289	1.0	0	PA_with_intermediate	n/a	test	ward_and_allport	n/a	-1.0	36.0	n/a	n/a	feedback	s598
353.289	2.768	0	PA_with_intermediate	n/a	test	ward_and_allport	n/a	-1.0	36.0	n/a	n/a	ITI	s598
356.066	1.998	1	PA_with_intermediate	1,2,0,0,0,0,0,0,0	test	ward_and_allport	1,0,0,2,3,0,0,0,0	89.0	37.0	1.998	1,2,3,0,0,0,0,0,0	to_hand	s598
358.066	0.495	0	PA_with_intermediate	1,2,0,0,0,0,3,0,0	test	ward_and_allport	1,0,0,2,3,0,0,0,0	82.0	37.0	0.495	1,2,3,0,0,0,0,0,0	to_board	s598
358.569	0.597	0	PA_with_intermediate	1,0,0,0,0,0,3,0,0	test	ward_and_allport	1,0,0,2,3,0,0,0,0	89.0	37.0	0.597	1,2,3,0,0,0,0,0,0	to_hand	s598
359.167	0.428	0	PA_with_intermediate	1,0,0,2,0,0,3,0,0	test	ward_and_allport	1,0,0,2,3,0,0,0,0	71.0	37.0	0.428	1,2,3,0,0,0,0,0,0	to_board	s598
359.604	0.45	0	PA_with_intermediate	1,0,0,2,0,0,0,0,0	test	ward_and_allport	1,0,0,2,3,0,0,0,0	82.0	37.0	0.45	1,2,3,0,0,0,0,0,0	to_hand	s598
360.055	0.446	0	PA_with_intermediate	1,0,0,2,3,0,0,0,0	test	ward_and_allport	1,0,0,2,3,0,0,0,0	71.0	37.0	0.446	1,2,3,0,0,0,0,0,0	to_board	s598
360.509	1.0	0	PA_with_intermediate	n/a	test	ward_and_allport	n/a	-1.0	37.0	n/a	n/a	feedback	s598
361.509	1.68	0	PA_with_intermediate	n/a	test	ward_and_allport	n/a	-1.0	37.0	n/a	n/a	ITI	s598
363.196	1.159	1	PA_without_intermediate	0,0,0,0,0,0,1,2,0	test	ward_and_allport	2,0,0,3,1,0,0,0,0	82.0	38.0	1.159	0,0,0,0,0,0,1,2,3	to_hand	s598
364.357	0.545	0	PA_without_intermediate	0,0,0,3,0,0,1,2,0	test	ward_and_allport	2,0,0,3,1,0,0,0,0	71.0	38.0	0.545	0,0,0,0,0,0,1,2,3	to_board	s598
364.908	0.916	0	PA_without_intermediate	0,0,0,3,0,0,1,0,0	test	ward_and_allport	2,0,0,3,1,0,0,0,0	82.0	38.0	0.916	0,0,0,0,0,0,1,2,3	to_hand	s598
365.825	0.369	0	PA_without_intermediate	2,0,0,3,0,0,1,0,0	test	ward_and_allport	2,0,0,3,1,0,0,0,0	89.0	38.0	0.369	0,0,0,0,0,0,1,2,3	to_board	s598
366.2	1.618	0	PA_without_intermediate	2,0,0,3,0,0,0,0,0	test	ward_and_allport	2,0,0,3,1,0,0,0,0	82.0	38.0	1.618	0,0,0,0,0,0,1,2,3	to_hand	s598
367.819	0.281	0	PA_without_intermediate	2,0,0,3,1,0,0,0,0	test	ward_and_allport	2,0,0,3,1,0,0,0,0	71.0	38.0	0.281	0,0,0,0,0,0,1,2,3	to_board	s598
368.111	1.0	0	PA_without_intermediate	n/a	test	ward_and_allport	n/a	-1.0	38.0	n/a	n/a	feedback	s598
369.111	2.224	0	PA_without_intermediate	n/a	test	ward_and_allport	n/a	-1.0	38.0	n/a	n/a	ITI	s598
371.343	1.151	1	PA_without_intermediate	1,2,0,0,0,0,0,0,0	test	ward_and_allport	0,0,0,1,0,0,3,2,0	89.0	39.0	1.151	1,2,3,0,0,0,0,0,0	to_hand	s598
372.495	0.563	0	PA_without_intermediate	1,2,0,0,0,0,3,0,0	test	ward_and_allport	0,0,0,1,0,0,3,2,0	82.0	39.0	0.563	1,2,3,0,0,0,0,0,0	to_board	s598
373.067	0.44	0	PA_without_intermediate	1,0,0,0,0,0,3,0,0	test	ward_and_allport	0,0,0,1,0,0,3,2,0	89.0	39.0	0.44	1,2,3,0,0,0,0,0,0	to_hand	s598
373.508	0.387	0	PA_without_intermediate	1,0,0,0,0,0,3,2,0	test	ward_and_allport	0,0,0,1,0,0,3,2,0	82.0	39.0	0.387	1,2,3,0,0,0,0,0,0	to_board	s598
373.902	0.439	0	PA_without_intermediate	0,0,0,0,0,0,3,2,0	test	ward_and_allport	0,0,0,1,0,0,3,2,0	89.0	39.0	0.439	1,2,3,0,0,0,0,0,0	to_hand	s598
374.342	0.315	0	PA_without_intermediate	0,0,0,1,0,0,3,2,0	test	ward_and_allport	0,0,0,1,0,0,3,2,0	71.0	39.0	0.315	1,2,3,0,0,0,0,0,0	to_board	s598
374.668	1.0	0	PA_without_intermediate	n/a	test	ward_and_allport	n/a	-1.0	39.0	n/a	n/a	feedback	s598
375.668	2.36	0	PA_without_intermediate	n/a	test	ward_and_allport	n/a	-1.0	39.0	n/a	n/a	ITI	s598
378.033	2.406	1	PA_without_intermediate	0,0,0,0,0,0,1,2,0	test	ward_and_allport	3,2,0,1,0,0,0,0,0	82.0	40.0	2.406	0,0,0,0,0,0,1,2,3	to_hand	s598
380.441	0.565	0	PA_without_intermediate	3,0,0,0,0,0,1,2,0	test	ward_and_allport	3,2,0,1,0,0,0,0,0	89.0	40.0	0.565	0,0,0,0,0,0,1,2,3	to_board	s598
381.012	0.633	0	PA_without_intermediate	3,0,0,0,0,0,1,0,0	test	ward_and_allport	3,2,0,1,0,0,0,0,0	82.0	40.0	0.633	0,0,0,0,0,0,1,2,3	to_hand	s598
381.646	0.587	0	PA_without_intermediate	3,2,0,0,0,0,1,0,0	test	ward_and_allport	3,2,0,1,0,0,0,0,0	89.0	40.0	0.587	0,0,0,0,0,0,1,2,3	to_board	s598
382.243	0.458	0	PA_without_intermediate	3,2,0,0,0,0,0,0,0	test	ward_and_allport	3,2,0,1,0,0,0,0,0	82.0	40.0	0.458	0,0,0,0,0,0,1,2,3	to_hand	s598
382.703	0.4	0	PA_without_intermediate	3,2,0,1,0,0,0,0,0	test	ward_and_allport	3,2,0,1,0,0,0,0,0	71.0	40.0	0.4	0,0,0,0,0,0,1,2,3	to_board	s598
383.116	1.0	0	PA_without_intermediate	n/a	test	ward_and_allport	n/a	-1.0	40.0	n/a	n/a	feedback	s598
384.116	1.0	0	PA_without_intermediate	n/a	test	ward_and_allport	n/a	-1.0	40.0	n/a	n/a	ITI	s598
385.123	1.235	1	PA_without_intermediate	0,0,0,0,0,0,1,2,0	test	ward_and_allport	3,2,0,1,0,0,0,0,0	82.0	41.0	1.235	0,0,0,0,0,0,1,2,3	to_hand	s598
386.359	0.477	0	PA_without_intermediate	3,0,0,0,0,0,1,2,0	test	ward_and_allport	3,2,0,1,0,0,0,0,0	89.0	41.0	0.477	0,0,0,0,0,0,1,2,3	to_board	s598
386.842	1.887	0	PA_without_intermediate	3,0,0,0,0,0,1,0,0	test	ward_and_allport	3,2,0,1,0,0,0,0,0	82.0	41.0	1.887	0,0,0,0,0,0,1,2,3	to_hand	s598
388.73	0.423	0	PA_without_intermediate	3,2,0,0,0,0,1,0,0	test	ward_and_allport	3,2,0,1,0,0,0,0,0	89.0	41.0	0.423	0,0,0,0,0,0,1,2,3	to_board	s598
389.159	0.599	0	PA_without_intermediate	3,2,0,0,0,0,0,0,0	test	ward_and_allport	3,2,0,1,0,0,0,0,0	82.0	41.0	0.599	0,0,0,0,0,0,1,2,3	to_hand	s598
389.759	0.344	0	PA_without_intermediate	3,2,0,1,0,0,0,0,0	test	ward_and_allport	3,2,0,1,0,0,0,0,0	71.0	41.0	0.344	0,0,0,0,0,0,1,2,3	to_board	s598
390.116	1.0	0	PA_without_intermediate	n/a	test	ward_and_allport	n/a	-1.0	41.0	n/a	n/a	feedback	s598
391.116	1.408	0	PA_without_intermediate	n/a	test	ward_and_allport	n/a	-1.0	41.0	n/a	n/a	ITI	s598
392.532	1.937	1	PA_with_intermediate	0,0,0,1,2,0,0,0,0	test	ward_and_allport	2,3,0,1,0,0,0,0,0	71.0	42.0	1.937	0,0,0,1,2,3,0,0,0	to_hand	s598
394.47	0.484	0	PA_with_intermediate	0,0,0,1,2,0,3,0,0	test	ward_and_allport	2,3,0,1,0,0,0,0,0	82.0	42.0	0.484	0,0,0,1,2,3,0,0,0	to_board	s598
394.962	0.486	0	PA_with_intermediate	0,0,0,1,0,0,3,0,0	test	ward_and_allport	2,3,0,1,0,0,0,0,0	71.0	42.0	0.486	0,0,0,1,2,3,0,0,0	to_hand	s598
395.449	0.452	0	PA_with_intermediate	2,0,0,1,0,0,3,0,0	test	ward_and_allport	2,3,0,1,0,0,0,0,0	89.0	42.0	0.452	0,0,0,1,2,3,0,0,0	to_board	s598
395.907	0.529	0	PA_with_intermediate	2,0,0,1,0,0,0,0,0	test	ward_and_allport	2,3,0,1,0,0,0,0,0	82.0	42.0	0.529	0,0,0,1,2,3,0,0,0	to_hand	s598
396.437	0.369	0	PA_with_intermediate	2,3,0,1,0,0,0,0,0	test	ward_and_allport	2,3,0,1,0,0,0,0,0	89.0	42.0	0.369	0,0,0,1,2,3,0,0,0	to_board	s598
396.819	1.0	0	PA_with_intermediate	n/a	test	ward_and_allport	n/a	-1.0	42.0	n/a	n/a	feedback	s598
397.819	1.136	0	PA_with_intermediate	n/a	test	ward_and_allport	n/a	-1.0	42.0	n/a	n/a	ITI	s598
398.964	1.682	1	PA_without_intermediate	1,2,0,0,0,0,0,0,0	test	ward_and_allport	0,0,0,2,0,0,3,1,0	89.0	43.0	1.682	1,2,3,0,0,0,0,0,0	to_hand	s598
400.647	0.508	0	PA_without_intermediate	1,2,0,0,0,0,3,0,0	test	ward_and_allport	0,0,0,2,0,0,3,1,0	82.0	43.0	0.508	1,2,3,0,0,0,0,0,0	to_board	s598
401.161	0.561	0	PA_without_intermediate	1,0,0,0,0,0,3,0,0	test	ward_and_allport	0,0,0,2,0,0,3,1,0	89.0	43.0	0.561	1,2,3,0,0,0,0,0,0	to_hand	s598
401.723	0.389	0	PA_without_intermediate	1,0,0,2,0,0,3,0,0	test	ward_and_allport	0,0,0,2,0,0,3,1,0	71.0	43.0	0.389	1,2,3,0,0,0,0,0,0	to_board	s598
402.118	0.441	0	PA_without_intermediate	0,0,0,2,0,0,3,0,0	test	ward_and_allport	0,0,0,2,0,0,3,1,0	89.0	43.0	0.441	1,2,3,0,0,0,0,0,0	to_hand	s598
402.56	0.384	0	PA_without_intermediate	0,0,0,2,0,0,3,1,0	test	ward_and_allport	0,0,0,2,0,0,3,1,0	82.0	43.0	0.384	1,2,3,0,0,0,0,0,0	to_board	s598
402.953	1.0	0	PA_without_intermediate	n/a	test	ward_and_allport	n/a	-1.0	43.0	n/a	n/a	feedback	s598
403.953	4.128	0	PA_without_intermediate	n/a	test	ward_and_allport	n/a	-1.0	43.0	n/a	n/a	ITI	s598
408.089	1.034	1	PA_without_intermediate	1,2,0,0,0,0,0,0,0	test	ward_and_allport	0,0,0,2,0,0,3,1,0	89.0	44.0	1.034	1,2,3,0,0,0,0,0,0	to_hand	s598
409.125	0.412	0	PA_without_intermediate	1,2,0,0,0,0,3,0,0	test	ward_and_allport	0,0,0,2,0,0,3,1,0	82.0	44.0	0.412	1,2,3,0,0,0,0,0,0	to_board	s598
409.545	0.376	0	PA_without_intermediate	1,0,0,0,0,0,3,0,0	test	ward_and_allport	0,0,0,2,0,0,3,1,0	89.0	44.0	0.376	1,2,3,0,0,0,0,0,0	to_hand	s598
409.922	0.314	0	PA_without_intermediate	1,0,0,2,0,0,3,0,0	test	ward_and_allport	0,0,0,2,0,0,3,1,0	71.0	44.0	0.314	1,2,3,0,0,0,0,0,0	to_board	s598
410.252	0.287	0	PA_without_intermediate	0,0,0,2,0,0,3,0,0	test	ward_and_allport	0,0,0,2,0,0,3,1,0	89.0	44.0	0.287	1,2,3,0,0,0,0,0,0	to_hand	s598
410.54	0.327	0	PA_without_intermediate	0,0,0,2,0,0,3,1,0	test	ward_and_allport	0,0,0,2,0,0,3,1,0	82.0	44.0	0.327	1,2,3,0,0,0,0,0,0	to_board	s598
410.879	1.0	0	PA_without_intermediate	n/a	test	ward_and_allport	n/a	-1.0	44.0	n/a	n/a	feedback	s598
411.879	1.136	0	PA_without_intermediate	n/a	test	ward_and_allport	n/a	-1.0	44.0	n/a	n/a	ITI	s598
418.025	1.291	1	PA_without_intermediate	1,2,0,0,0,0,0,0,0	test	ward_and_allport	0,0,0,1,0,0,3,2,0	89.0	45.0	1.291	1,2,3,0,0,0,0,0,0	to_hand	s598
419.317	0.33	0	PA_without_intermediate	1,2,0,0,0,0,3,0,0	test	ward_and_allport	0,0,0,1,0,0,3,2,0	82.0	45.0	0.33	1,2,3,0,0,0,0,0,0	to_board	s598
419.657	0.576	0	PA_without_intermediate	1,0,0,0,0,0,3,0,0	test	ward_and_allport	0,0,0,1,0,0,3,2,0	89.0	45.0	0.576	1,2,3,0,0,0,0,0,0	to_hand	s598
420.234	0.302	0	PA_without_intermediate	1,0,0,0,0,0,3,2,0	test	ward_and_allport	0,0,0,1,0,0,3,2,0	82.0	45.0	0.302	1,2,3,0,0,0,0,0,0	to_board	s598
420.546	0.381	0	PA_without_intermediate	0,0,0,0,0,0,3,2,0	test	ward_and_allport	0,0,0,1,0,0,3,2,0	89.0	45.0	0.381	1,2,3,0,0,0,0,0,0	to_hand	s598
420.928	0.227	0	PA_without_intermediate	0,0,0,1,0,0,3,2,0	test	ward_and_allport	0,0,0,1,0,0,3,2,0	71.0	45.0	0.227	1,2,3,0,0,0,0,0,0	to_board	s598
421.169	1.0	0	PA_without_intermediate	n/a	test	ward_and_allport	n/a	-1.0	45.0	n/a	n/a	feedback	s598
422.169	4.264	0	PA_without_intermediate	n/a	test	ward_and_allport	n/a	-1.0	45.0	n/a	n/a	ITI	s598
426.441	2.039	1	PA_with_intermediate	0,0,0,1,2,0,0,0,0	test	ward_and_allport	2,0,0,1,3,0,0,0,0	71.0	46.0	2.039	0,0,0,1,2,3,0,0,0	to_hand	s598
428.481	0.507	0	PA_with_intermediate	0,0,0,1,2,0,3,0,0	test	ward_and_allport	2,0,0,1,3,0,0,0,0	82.0	46.0	0.507	0,0,0,1,2,3,0,0,0	to_board	s598
428.997	0.408	0	PA_with_intermediate	0,0,0,1,0,0,3,0,0	test	ward_and_allport	2,0,0,1,3,0,0,0,0	71.0	46.0	0.408	0,0,0,1,2,3,0,0,0	to_hand	s598
429.406	0.401	0	PA_with_intermediate	2,0,0,1,0,0,3,0,0	test	ward_and_allport	2,0,0,1,3,0,0,0,0	89.0	46.0	0.401	0,0,0,1,2,3,0,0,0	to_board	s598
429.822	1.094	0	PA_with_intermediate	2,0,0,1,0,0,0,0,0	test	ward_and_allport	2,0,0,1,3,0,0,0,0	82.0	46.0	1.094	0,0,0,1,2,3,0,0,0	to_hand	s598
430.917	0.236	0	PA_with_intermediate	2,0,0,1,3,0,0,0,0	test	ward_and_allport	2,0,0,1,3,0,0,0,0	71.0	46.0	0.236	0,0,0,1,2,3,0,0,0	to_board	s598
431.163	1.0	0	PA_with_intermediate	n/a	test	ward_and_allport	n/a	-1.0	46.0	n/a	n/a	feedback	s598
432.163	3.04	0	PA_with_intermediate	n/a	test	ward_and_allport	n/a	-1.0	46.0	n/a	n/a	ITI	s598
435.211	1.908	1	PA_with_intermediate	0,0,0,1,2,0,0,0,0	test	ward_and_allport	2,3,0,1,0,0,0,0,0	71.0	47.0	1.908	0,0,0,1,2,3,0,0,0	to_hand	s598
437.121	0.587	0	PA_with_intermediate	0,0,0,1,2,0,3,0,0	test	ward_and_allport	2,3,0,1,0,0,0,0,0	82.0	47.0	0.587	0,0,0,1,2,3,0,0,0	to_board	s598
437.716	0.508	0	PA_with_intermediate	0,0,0,1,0,0,3,0,0	test	ward_and_allport	2,3,0,1,0,0,0,0,0	71.0	47.0	0.508	0,0,0,1,2,3,0,0,0	to_hand	s598
438.225	0.418	0	PA_with_intermediate	2,0,0,1,0,0,3,0,0	test	ward_and_allport	2,3,0,1,0,0,0,0,0	89.0	47.0	0.418	0,0,0,1,2,3,0,0,0	to_board	s598
438.652	0.427	0	PA_with_intermediate	2,0,0,1,0,0,0,0,0	test	ward_and_allport	2,3,0,1,0,0,0,0,0	82.0	47.0	0.427	0,0,0,1,2,3,0,0,0	to_hand	s598
439.08	0.414	0	PA_with_intermediate	2,3,0,1,0,0,0,0,0	test	ward_and_allport	2,3,0,1,0,0,0,0,0	89.0	47.0	0.414	0,0,0,1,2,3,0,0,0	to_board	s598
439.505	1.0	0	PA_with_intermediate	n/a	test	ward_and_allport	n/a	-1.0	47.0	n/a	n/a	feedback	s598
440.505	1.136	0	PA_with_intermediate	n/a	test	ward_and_allport	n/a	-1.0	47.0	n/a	n/a	ITI	s598
n/a	n/a	0	n/a	n/a	n/a	n/a	n/a	n/a	n/a	n/a	n/a	ITI	n/a
