onset	duration	condition	correct	correct_response	experiment_exp_id	key_press	response_time	trial_id	trial_type	worker_id
3.021	0.5	BY	n/a	n/a	dot_pattern_expectancy	-1.0	n/a	cue	BY	s637
5.533	0.5	BY	1.0	71.0	dot_pattern_expectancy	71.0	0.841	probe	BY	s637
7.174	0.5	AY	n/a	n/a	dot_pattern_expectancy	-1.0	n/a	cue	AY	s637
9.685	0.5	AY	1.0	71.0	dot_pattern_expectancy	71.0	0.872	probe	AY	s637
11.191	0.5	AX	n/a	n/a	dot_pattern_expectancy	-1.0	n/a	cue	AX	s637
13.703	0.5	AX	1.0	89.0	dot_pattern_expectancy	89.0	0.479	probe	AX	s637
15.753	0.5	BY	n/a	n/a	dot_pattern_expectancy	-1.0	n/a	cue	BY	s637
18.265	0.5	BY	1.0	71.0	dot_pattern_expectancy	71.0	0.366	probe	BY	s637
20.042	0.5	BX	n/a	n/a	dot_pattern_expectancy	-1.0	n/a	cue	BX	s637
22.555	0.5	BX	0.0	71.0	dot_pattern_expectancy	89.0	0.613	probe	BX	s637
24.197	0.5	AX	n/a	n/a	dot_pattern_expectancy	-1.0	n/a	cue	AX	s637
26.709	0.5	AX	1.0	89.0	dot_pattern_expectancy	89.0	0.362	probe	AX	s637
28.352	0.5	AX	n/a	n/a	dot_pattern_expectancy	-1.0	n/a	cue	AX	s637
30.862	0.5	AX	1.0	89.0	dot_pattern_expectancy	89.0	0.406	probe	AX	s637
32.367	0.5	AX	n/a	n/a	dot_pattern_expectancy	-1.0	n/a	cue	AX	s637
34.878	0.5	AX	1.0	89.0	dot_pattern_expectancy	89.0	0.791	probe	AX	s637
36.384	0.5	AY	n/a	n/a	dot_pattern_expectancy	-1.0	n/a	cue	AY	s637
38.896	0.5	AY	1.0	71.0	dot_pattern_expectancy	71.0	0.767	probe	AY	s637
40.946	0.5	AX	n/a	n/a	dot_pattern_expectancy	-1.0	n/a	cue	AX	s637
43.457	0.5	AX	1.0	89.0	dot_pattern_expectancy	89.0	0.577	probe	AX	s637
45.916	0.5	AX	n/a	n/a	dot_pattern_expectancy	-1.0	n/a	cue	AX	s637
48.423	0.5	AX	1.0	89.0	dot_pattern_expectancy	89.0	0.706	probe	AX	s637
50.337	0.5	AX	n/a	n/a	dot_pattern_expectancy	-1.0	n/a	cue	AX	s637
52.849	0.5	AX	1.0	89.0	dot_pattern_expectancy	89.0	0.724	probe	AX	s637
54.355	0.5	AX	n/a	n/a	dot_pattern_expectancy	-1.0	n/a	cue	AX	s637
56.866	0.5	AX	1.0	89.0	dot_pattern_expectancy	89.0	0.724	probe	AX	s637
58.78	0.5	BX	n/a	n/a	dot_pattern_expectancy	-1.0	n/a	cue	BX	s637
61.293	0.5	BX	1.0	71.0	dot_pattern_expectancy	71.0	0.458	probe	BX	s637
63.48	0.5	AX	n/a	n/a	dot_pattern_expectancy	-1.0	n/a	cue	AX	s637
65.987	0.5	AX	1.0	89.0	dot_pattern_expectancy	89.0	0.539	probe	AX	s637
67.492	0.5	BY	n/a	n/a	dot_pattern_expectancy	-1.0	n/a	cue	BY	s637
70.002	0.5	BY	1.0	71.0	dot_pattern_expectancy	71.0	0.519	probe	BY	s637
71.916	0.5	BX	n/a	n/a	dot_pattern_expectancy	-1.0	n/a	cue	BX	s637
74.428	0.5	BX	1.0	71.0	dot_pattern_expectancy	71.0	0.705	probe	BX	s637
76.75	0.5	AY	n/a	n/a	dot_pattern_expectancy	-1.0	n/a	cue	AY	s637
79.262	0.5	AY	1.0	71.0	dot_pattern_expectancy	71.0	0.967	probe	AY	s637
81.583	0.5	BX	n/a	n/a	dot_pattern_expectancy	-1.0	n/a	cue	BX	s637
84.097	0.5	BX	1.0	71.0	dot_pattern_expectancy	71.0	0.325	probe	BX	s637
85.739	0.5	AY	n/a	n/a	dot_pattern_expectancy	-1.0	n/a	cue	AY	s637
88.251	0.5	AY	1.0	71.0	dot_pattern_expectancy	71.0	0.591	probe	AY	s637
89.757	0.5	BY	n/a	n/a	dot_pattern_expectancy	-1.0	n/a	cue	BY	s637
92.267	0.5	BY	1.0	71.0	dot_pattern_expectancy	71.0	0.987	probe	BY	s637
94.181	0.5	AX	n/a	n/a	dot_pattern_expectancy	-1.0	n/a	cue	AX	s637
96.692	0.5	AX	1.0	89.0	dot_pattern_expectancy	89.0	0.835	probe	AX	s637
98.197	0.5	AY	n/a	n/a	dot_pattern_expectancy	-1.0	n/a	cue	AY	s637
100.707	0.5	AY	1.0	71.0	dot_pattern_expectancy	71.0	0.868	probe	AY	s637
103.029	0.5	AX	n/a	n/a	dot_pattern_expectancy	-1.0	n/a	cue	AX	s637
105.54	0.5	AX	0.0	89.0	dot_pattern_expectancy	71.0	0.907	probe	AX	s637
107.045	0.5	AY	n/a	n/a	dot_pattern_expectancy	-1.0	n/a	cue	AY	s637
109.557	0.5	AY	1.0	71.0	dot_pattern_expectancy	71.0	0.785	probe	AY	s637
112.288	0.5	AX	n/a	n/a	dot_pattern_expectancy	-1.0	n/a	cue	AX	s637
114.8	0.5	AX	1.0	89.0	dot_pattern_expectancy	89.0	0.566	probe	AX	s637
116.306	0.5	AX	n/a	n/a	dot_pattern_expectancy	-1.0	n/a	cue	AX	s637
118.818	0.5	AX	1.0	89.0	dot_pattern_expectancy	89.0	0.656	probe	AX	s637
120.459	0.5	AX	n/a	n/a	dot_pattern_expectancy	-1.0	n/a	cue	AX	s637
122.97	0.5	AX	1.0	89.0	dot_pattern_expectancy	89.0	0.544	probe	AX	s637
124.611	0.5	AX	n/a	n/a	dot_pattern_expectancy	-1.0	n/a	cue	AX	s637
127.123	0.5	AX	1.0	89.0	dot_pattern_expectancy	89.0	1.46	probe	AX	s637
128.901	0.5	BY	n/a	n/a	dot_pattern_expectancy	-1.0	n/a	cue	BY	s637
131.413	0.5	BY	1.0	71.0	dot_pattern_expectancy	71.0	0.276	probe	BY	s637
133.191	0.5	AX	n/a	n/a	dot_pattern_expectancy	-1.0	n/a	cue	AX	s637
135.702	0.5	AX	0.0	89.0	dot_pattern_expectancy	71.0	0.697	probe	AX	s637
137.207	0.5	BY	n/a	n/a	dot_pattern_expectancy	-1.0	n/a	cue	BY	s637
139.718	0.5	BY	1.0	71.0	dot_pattern_expectancy	71.0	0.59	probe	BY	s637
142.175	0.5	AX	n/a	n/a	dot_pattern_expectancy	-1.0	n/a	cue	AX	s637
144.687	0.5	AX	1.0	89.0	dot_pattern_expectancy	89.0	0.569	probe	AX	s637
146.328	0.5	AX	n/a	n/a	dot_pattern_expectancy	-1.0	n/a	cue	AX	s637
148.841	0.5	AX	0.0	89.0	dot_pattern_expectancy	-1.0	n/a	probe	AX	s637
150.482	0.5	BX	n/a	n/a	dot_pattern_expectancy	-1.0	n/a	cue	BX	s637
152.993	0.5	BX	0.0	71.0	dot_pattern_expectancy	89.0	1.019	probe	BX	s637
154.498	0.5	BX	n/a	n/a	dot_pattern_expectancy	-1.0	n/a	cue	BX	s637
157.009	0.5	BX	1.0	71.0	dot_pattern_expectancy	71.0	0.323	probe	BX	s637
158.515	0.5	AX	n/a	n/a	dot_pattern_expectancy	-1.0	n/a	cue	AX	s637
161.027	0.5	AX	1.0	89.0	dot_pattern_expectancy	89.0	0.688	probe	AX	s637
163.349	0.5	AY	n/a	n/a	dot_pattern_expectancy	-1.0	n/a	cue	AY	s637
165.861	0.5	AY	1.0	71.0	dot_pattern_expectancy	71.0	0.472	probe	AY	s637
167.912	0.5	AX	n/a	n/a	dot_pattern_expectancy	-1.0	n/a	cue	AX	s637
170.423	0.5	AX	1.0	89.0	dot_pattern_expectancy	89.0	0.622	probe	AX	s637
174.377	0.5	AX	n/a	n/a	dot_pattern_expectancy	-1.0	n/a	cue	AX	s637
176.887	0.5	AX	1.0	89.0	dot_pattern_expectancy	89.0	0.366	probe	AX	s637
189.044	0.5	AY	n/a	n/a	dot_pattern_expectancy	-1.0	n/a	cue	AY	s637
191.557	0.5	AY	1.0	71.0	dot_pattern_expectancy	71.0	1.13	probe	AY	s637
193.2	0.5	AX	n/a	n/a	dot_pattern_expectancy	-1.0	n/a	cue	AX	s637
195.71	0.5	AX	1.0	89.0	dot_pattern_expectancy	89.0	0.422	probe	AX	s637
197.352	0.5	AX	n/a	n/a	dot_pattern_expectancy	-1.0	n/a	cue	AX	s637
199.862	0.5	AX	1.0	89.0	dot_pattern_expectancy	89.0	0.719	probe	AX	s637
201.368	0.5	AX	n/a	n/a	dot_pattern_expectancy	-1.0	n/a	cue	AX	s637
203.876	0.5	AX	1.0	89.0	dot_pattern_expectancy	89.0	0.657	probe	AX	s637
205.383	0.5	AX	n/a	n/a	dot_pattern_expectancy	-1.0	n/a	cue	AX	s637
207.894	0.5	AX	1.0	89.0	dot_pattern_expectancy	89.0	0.882	probe	AX	s637
209.808	0.5	BX	n/a	n/a	dot_pattern_expectancy	-1.0	n/a	cue	BX	s637
212.321	0.5	BX	1.0	71.0	dot_pattern_expectancy	71.0	0.661	probe	BX	s637
213.963	0.5	AX	n/a	n/a	dot_pattern_expectancy	-1.0	n/a	cue	AX	s637
216.475	0.5	AX	1.0	89.0	dot_pattern_expectancy	89.0	1.322	probe	AX	s637
218.525	0.5	AX	n/a	n/a	dot_pattern_expectancy	-1.0	n/a	cue	AX	s637
221.031	0.5	AX	0.0	89.0	dot_pattern_expectancy	71.0	0.662	probe	AX	s637
222.809	0.5	AX	n/a	n/a	dot_pattern_expectancy	-1.0	n/a	cue	AX	s637
225.321	0.5	AX	1.0	89.0	dot_pattern_expectancy	89.0	0.647	probe	AX	s637
226.826	0.5	AX	n/a	n/a	dot_pattern_expectancy	-1.0	n/a	cue	AX	s637
229.339	0.5	AX	1.0	89.0	dot_pattern_expectancy	89.0	0.578	probe	AX	s637
231.526	0.5	AX	n/a	n/a	dot_pattern_expectancy	-1.0	n/a	cue	AX	s637
234.035	0.5	AX	1.0	89.0	dot_pattern_expectancy	89.0	0.439	probe	AX	s637
235.541	0.5	BX	n/a	n/a	dot_pattern_expectancy	-1.0	n/a	cue	BX	s637
238.052	0.5	BX	0.0	71.0	dot_pattern_expectancy	89.0	0.656	probe	BX	s637
241.735	0.5	BY	n/a	n/a	dot_pattern_expectancy	-1.0	n/a	cue	BY	s637
244.244	0.5	BY	1.0	71.0	dot_pattern_expectancy	71.0	0.373	probe	BY	s637
245.887	0.5	BY	n/a	n/a	dot_pattern_expectancy	-1.0	n/a	cue	BY	s637
248.398	0.5	BY	1.0	71.0	dot_pattern_expectancy	71.0	0.398	probe	BY	s637
250.041	0.5	BX	n/a	n/a	dot_pattern_expectancy	-1.0	n/a	cue	BX	s637
252.551	0.5	BX	0.0	71.0	dot_pattern_expectancy	89.0	0.906	probe	BX	s637
254.056	0.5	AX	n/a	n/a	dot_pattern_expectancy	-1.0	n/a	cue	AX	s637
256.568	0.5	AX	1.0	89.0	dot_pattern_expectancy	89.0	0.506	probe	AX	s637
258.483	0.5	AX	n/a	n/a	dot_pattern_expectancy	-1.0	n/a	cue	AX	s637
260.994	0.5	AX	1.0	89.0	dot_pattern_expectancy	89.0	0.847	probe	AX	s637
262.637	0.5	BX	n/a	n/a	dot_pattern_expectancy	-1.0	n/a	cue	BX	s637
265.146	0.5	BX	1.0	71.0	dot_pattern_expectancy	71.0	0.284	probe	BX	s637
266.653	0.5	AX	n/a	n/a	dot_pattern_expectancy	-1.0	n/a	cue	AX	s637
269.164	0.5	AX	0.0	89.0	dot_pattern_expectancy	71.0	0.815	probe	AX	s637
271.078	0.5	BY	n/a	n/a	dot_pattern_expectancy	-1.0	n/a	cue	BY	s637
273.591	0.5	BY	1.0	71.0	dot_pattern_expectancy	71.0	0.754	probe	BY	s637
275.776	0.5	AX	n/a	n/a	dot_pattern_expectancy	-1.0	n/a	cue	AX	s637
278.286	0.5	AX	1.0	89.0	dot_pattern_expectancy	89.0	0.665	probe	AX	s637
280.063	0.5	AX	n/a	n/a	dot_pattern_expectancy	-1.0	n/a	cue	AX	s637
282.574	0.5	AX	1.0	89.0	dot_pattern_expectancy	89.0	1.017	probe	AX	s637
284.078	0.5	AX	n/a	n/a	dot_pattern_expectancy	-1.0	n/a	cue	AX	s637
286.587	0.5	AX	1.0	89.0	dot_pattern_expectancy	89.0	0.608	probe	AX	s637
288.093	0.5	AX	n/a	n/a	dot_pattern_expectancy	-1.0	n/a	cue	AX	s637
290.603	0.5	AX	1.0	89.0	dot_pattern_expectancy	89.0	1.684	probe	AX	s637
292.652	0.5	AX	n/a	n/a	dot_pattern_expectancy	-1.0	n/a	cue	AX	s637
295.161	0.5	AX	1.0	89.0	dot_pattern_expectancy	89.0	0.753	probe	AX	s637
298.024	0.5	BX	n/a	n/a	dot_pattern_expectancy	-1.0	n/a	cue	BX	s637
300.535	0.5	BX	1.0	71.0	dot_pattern_expectancy	71.0	0.29	probe	BX	s637
302.04	0.5	BY	n/a	n/a	dot_pattern_expectancy	-1.0	n/a	cue	BY	s637
304.552	0.5	BY	1.0	71.0	dot_pattern_expectancy	71.0	0.601	probe	BY	s637
306.331	0.5	AX	n/a	n/a	dot_pattern_expectancy	-1.0	n/a	cue	AX	s637
308.842	0.5	AX	1.0	89.0	dot_pattern_expectancy	89.0	0.754	probe	AX	s637
310.621	0.5	AX	n/a	n/a	dot_pattern_expectancy	-1.0	n/a	cue	AX	s637
313.13	0.5	AX	1.0	89.0	dot_pattern_expectancy	89.0	1.062	probe	AX	s637
315.996	0.5	AX	n/a	n/a	dot_pattern_expectancy	-1.0	n/a	cue	AX	s637
318.507	0.5	AX	1.0	89.0	dot_pattern_expectancy	89.0	1.032	probe	AX	s637
320.286	0.5	BX	n/a	n/a	dot_pattern_expectancy	-1.0	n/a	cue	BX	s637
322.798	0.5	BX	1.0	71.0	dot_pattern_expectancy	71.0	0.331	probe	BX	s637
324.441	0.5	BX	n/a	n/a	dot_pattern_expectancy	-1.0	n/a	cue	BX	s637
326.951	0.5	BX	1.0	71.0	dot_pattern_expectancy	71.0	0.316	probe	BX	s637
329.409	0.5	AX	n/a	n/a	dot_pattern_expectancy	-1.0	n/a	cue	AX	s637
331.92	0.5	AX	1.0	89.0	dot_pattern_expectancy	89.0	0.563	probe	AX	s637
333.561	0.5	BX	n/a	n/a	dot_pattern_expectancy	-1.0	n/a	cue	BX	s637
336.072	0.5	BX	1.0	71.0	dot_pattern_expectancy	71.0	0.97	probe	BX	s637
337.578	0.5	AX	n/a	n/a	dot_pattern_expectancy	-1.0	n/a	cue	AX	s637
340.089	0.5	AX	1.0	89.0	dot_pattern_expectancy	89.0	0.565	probe	AX	s637
341.732	0.5	AX	n/a	n/a	dot_pattern_expectancy	-1.0	n/a	cue	AX	s637
344.242	0.5	AX	1.0	89.0	dot_pattern_expectancy	89.0	0.516	probe	AX	s637
345.883	0.5	BY	n/a	n/a	dot_pattern_expectancy	-1.0	n/a	cue	BY	s637
348.393	0.5	BY	1.0	71.0	dot_pattern_expectancy	71.0	1.806	probe	BY	s637
350.578	0.5	AX	n/a	n/a	dot_pattern_expectancy	-1.0	n/a	cue	AX	s637
353.09	0.5	AX	1.0	89.0	dot_pattern_expectancy	89.0	0.354	probe	AX	s637
354.596	0.5	AY	n/a	n/a	dot_pattern_expectancy	-1.0	n/a	cue	AY	s637
357.105	0.5	AY	0.0	71.0	dot_pattern_expectancy	-1.0	n/a	probe	AY	s637
358.746	0.5	AX	n/a	n/a	dot_pattern_expectancy	-1.0	n/a	cue	AX	s637
361.254	0.5	AX	1.0	89.0	dot_pattern_expectancy	89.0	0.973	probe	AX	s637
373.415	0.5	AX	n/a	n/a	dot_pattern_expectancy	-1.0	n/a	cue	AX	s637
375.925	0.5	AX	1.0	89.0	dot_pattern_expectancy	89.0	0.437	probe	AX	s637
378.111	0.5	AY	n/a	n/a	dot_pattern_expectancy	-1.0	n/a	cue	AY	s637
380.623	0.5	AY	1.0	71.0	dot_pattern_expectancy	71.0	0.737	probe	AY	s637
382.944	0.5	AY	n/a	n/a	dot_pattern_expectancy	-1.0	n/a	cue	AY	s637
385.457	0.5	AY	1.0	71.0	dot_pattern_expectancy	71.0	1.52	probe	AY	s637
387.098	0.5	BX	n/a	n/a	dot_pattern_expectancy	-1.0	n/a	cue	BX	s637
389.609	0.5	BX	1.0	71.0	dot_pattern_expectancy	71.0	0.698	probe	BX	s637
391.523	0.5	AX	n/a	n/a	dot_pattern_expectancy	-1.0	n/a	cue	AX	s637
394.035	0.5	AX	1.0	89.0	dot_pattern_expectancy	89.0	0.864	probe	AX	s637
397.581	0.5	BX	n/a	n/a	dot_pattern_expectancy	-1.0	n/a	cue	BX	s637
400.091	0.5	BX	1.0	71.0	dot_pattern_expectancy	71.0	0.114	probe	BX	s637
401.733	0.5	BY	n/a	n/a	dot_pattern_expectancy	-1.0	n/a	cue	BY	s637
404.244	0.5	BY	1.0	71.0	dot_pattern_expectancy	71.0	1.412	probe	BY	s637
405.749	0.5	AX	n/a	n/a	dot_pattern_expectancy	-1.0	n/a	cue	AX	s637
408.259	0.5	AX	1.0	89.0	dot_pattern_expectancy	89.0	0.604	probe	AX	s637
409.766	0.5	AX	n/a	n/a	dot_pattern_expectancy	-1.0	n/a	cue	AX	s637
412.278	0.5	AX	1.0	89.0	dot_pattern_expectancy	89.0	0.45	probe	AX	s637
414.056	0.5	BY	n/a	n/a	dot_pattern_expectancy	-1.0	n/a	cue	BY	s637
416.569	0.5	BY	1.0	71.0	dot_pattern_expectancy	71.0	1.306	probe	BY	s637
419.026	0.5	AX	n/a	n/a	dot_pattern_expectancy	-1.0	n/a	cue	AX	s637
421.535	0.5	AX	1.0	89.0	dot_pattern_expectancy	89.0	0.58	probe	AX	s637
423.448	0.5	BX	n/a	n/a	dot_pattern_expectancy	-1.0	n/a	cue	BX	s637
425.959	0.5	BX	1.0	71.0	dot_pattern_expectancy	71.0	0.526	probe	BX	s637
427.602	0.5	AX	n/a	n/a	dot_pattern_expectancy	-1.0	n/a	cue	AX	s637
430.112	0.5	AX	1.0	89.0	dot_pattern_expectancy	89.0	0.532	probe	AX	s637
431.619	0.5	AX	n/a	n/a	dot_pattern_expectancy	-1.0	n/a	cue	AX	s637
434.132	0.5	AX	0.0	89.0	dot_pattern_expectancy	-1.0	n/a	probe	AX	s637
435.774	0.5	AX	n/a	n/a	dot_pattern_expectancy	-1.0	n/a	cue	AX	s637
438.286	0.5	AX	1.0	89.0	dot_pattern_expectancy	89.0	0.442	probe	AX	s637
439.927	0.5	BY	n/a	n/a	dot_pattern_expectancy	-1.0	n/a	cue	BY	s637
442.438	0.5	BY	1.0	71.0	dot_pattern_expectancy	71.0	0.442	probe	BY	s637
444.897	0.5	AX	n/a	n/a	dot_pattern_expectancy	-1.0	n/a	cue	AX	s637
447.407	0.5	AX	0.0	89.0	dot_pattern_expectancy	71.0	1.043	probe	AX	s637
448.914	0.5	BY	n/a	n/a	dot_pattern_expectancy	-1.0	n/a	cue	BY	s637
451.421	0.5	BY	1.0	71.0	dot_pattern_expectancy	71.0	0.662	probe	BY	s637
452.926	0.5	AX	n/a	n/a	dot_pattern_expectancy	-1.0	n/a	cue	AX	s637
455.439	0.5	AX	1.0	89.0	dot_pattern_expectancy	89.0	0.982	probe	AX	s637
457.082	0.5	AX	n/a	n/a	dot_pattern_expectancy	-1.0	n/a	cue	AX	s637
459.593	0.5	AX	1.0	89.0	dot_pattern_expectancy	89.0	0.682	probe	AX	s637
461.232	0.5	AY	n/a	n/a	dot_pattern_expectancy	-1.0	n/a	cue	AY	s637
463.744	0.5	AY	0.0	71.0	dot_pattern_expectancy	-1.0	n/a	probe	AY	s637
465.386	0.5	AX	n/a	n/a	dot_pattern_expectancy	-1.0	n/a	cue	AX	s637
467.896	0.5	AX	1.0	89.0	dot_pattern_expectancy	89.0	0.357	probe	AX	s637
469.398	0.5	AX	n/a	n/a	dot_pattern_expectancy	-1.0	n/a	cue	AX	s637
471.909	0.5	AX	1.0	89.0	dot_pattern_expectancy	89.0	0.831	probe	AX	s637
473.415	0.5	AX	n/a	n/a	dot_pattern_expectancy	-1.0	n/a	cue	AX	s637
475.926	0.5	AX	1.0	89.0	dot_pattern_expectancy	89.0	0.761	probe	AX	s637
477.705	0.5	AX	n/a	n/a	dot_pattern_expectancy	-1.0	n/a	cue	AX	s637
480.218	0.5	AX	0.0	89.0	dot_pattern_expectancy	-1.0	n/a	probe	AX	s637
482.407	0.5	BX	n/a	n/a	dot_pattern_expectancy	-1.0	n/a	cue	BX	s637
484.918	0.5	BX	1.0	71.0	dot_pattern_expectancy	71.0	0.229	probe	BX	s637
486.696	0.5	BY	n/a	n/a	dot_pattern_expectancy	-1.0	n/a	cue	BY	s637
489.207	0.5	BY	1.0	71.0	dot_pattern_expectancy	71.0	0.233	probe	BY	s637
490.712	0.5	AX	n/a	n/a	dot_pattern_expectancy	-1.0	n/a	cue	AX	s637
493.224	0.5	AX	1.0	89.0	dot_pattern_expectancy	89.0	0.535	probe	AX	s637
494.729	0.5	AX	n/a	n/a	dot_pattern_expectancy	-1.0	n/a	cue	AX	s637
497.24	0.5	AX	1.0	89.0	dot_pattern_expectancy	89.0	0.63	probe	AX	s637
498.883	0.5	AY	n/a	n/a	dot_pattern_expectancy	-1.0	n/a	cue	AY	s637
501.393	0.5	AY	0.0	71.0	dot_pattern_expectancy	89.0	0.661	probe	AY	s637
503.579	0.5	AY	n/a	n/a	dot_pattern_expectancy	-1.0	n/a	cue	AY	s637
506.091	0.5	AY	1.0	71.0	dot_pattern_expectancy	71.0	0.596	probe	AY	s637
508.414	0.5	BX	n/a	n/a	dot_pattern_expectancy	-1.0	n/a	cue	BX	s637
510.923	0.5	BX	0.0	71.0	dot_pattern_expectancy	89.0	0.664	probe	BX	s637
512.565	0.5	BX	n/a	n/a	dot_pattern_expectancy	-1.0	n/a	cue	BX	s637
515.078	0.5	BX	1.0	71.0	dot_pattern_expectancy	71.0	1.035	probe	BX	s637
517.264	0.5	AY	n/a	n/a	dot_pattern_expectancy	-1.0	n/a	cue	AY	s637
519.774	0.5	AY	1.0	71.0	dot_pattern_expectancy	71.0	0.565	probe	AY	s637
521.823	0.5	AX	n/a	n/a	dot_pattern_expectancy	-1.0	n/a	cue	AX	s637
524.334	0.5	AX	1.0	89.0	dot_pattern_expectancy	89.0	0.709	probe	AX	s637
526.112	0.5	AX	n/a	n/a	dot_pattern_expectancy	-1.0	n/a	cue	AX	s637
528.623	0.5	AX	0.0	89.0	dot_pattern_expectancy	-1.0	n/a	probe	AX	s637
530.129	0.5	AX	n/a	n/a	dot_pattern_expectancy	-1.0	n/a	cue	AX	s637
532.642	0.5	AX	1.0	89.0	dot_pattern_expectancy	89.0	0.441	probe	AX	s637
534.828	0.5	AY	n/a	n/a	dot_pattern_expectancy	-1.0	n/a	cue	AY	s637
537.338	0.5	AY	1.0	71.0	dot_pattern_expectancy	71.0	0.698	probe	AY	s637
539.796	0.5	AX	n/a	n/a	dot_pattern_expectancy	-1.0	n/a	cue	AX	s637
542.307	0.5	AX	0.0	89.0	dot_pattern_expectancy	-1.0	n/a	probe	AX	s637
543.949	0.5	AX	n/a	n/a	dot_pattern_expectancy	-1.0	n/a	cue	AX	s637
546.459	0.5	AX	1.0	89.0	dot_pattern_expectancy	89.0	0.498	probe	AX	s637
558.889	0.5	AX	n/a	n/a	dot_pattern_expectancy	-1.0	n/a	cue	AX	s637
561.402	0.5	AX	1.0	89.0	dot_pattern_expectancy	89.0	0.525	probe	AX	s637
563.179	0.5	AX	n/a	n/a	dot_pattern_expectancy	-1.0	n/a	cue	AX	s637
565.69	0.5	AX	1.0	89.0	dot_pattern_expectancy	89.0	0.496	probe	AX	s637
567.195	0.5	AY	n/a	n/a	dot_pattern_expectancy	-1.0	n/a	cue	AY	s637
569.707	0.5	AY	1.0	71.0	dot_pattern_expectancy	71.0	0.785	probe	AY	s637
572.164	0.5	AY	n/a	n/a	dot_pattern_expectancy	-1.0	n/a	cue	AY	s637
574.675	0.5	AY	1.0	71.0	dot_pattern_expectancy	71.0	0.531	probe	AY	s637
576.453	0.5	AX	n/a	n/a	dot_pattern_expectancy	-1.0	n/a	cue	AX	s637
578.965	0.5	AX	1.0	89.0	dot_pattern_expectancy	89.0	0.542	probe	AX	s637
580.88	0.5	AX	n/a	n/a	dot_pattern_expectancy	-1.0	n/a	cue	AX	s637
583.391	0.5	AX	0.0	89.0	dot_pattern_expectancy	-1.0	n/a	probe	AX	s637
585.305	0.5	AX	n/a	n/a	dot_pattern_expectancy	-1.0	n/a	cue	AX	s637
587.816	0.5	AX	1.0	89.0	dot_pattern_expectancy	89.0	0.957	probe	AX	s637
590.411	0.5	AY	n/a	n/a	dot_pattern_expectancy	-1.0	n/a	cue	AY	s637
592.921	0.5	AY	0.0	71.0	dot_pattern_expectancy	89.0	0.463	probe	AY	s637
594.427	0.5	BY	n/a	n/a	dot_pattern_expectancy	-1.0	n/a	cue	BY	s637
596.937	0.5	BY	1.0	71.0	dot_pattern_expectancy	71.0	0.47	probe	BY	s637
598.444	0.5	BY	n/a	n/a	dot_pattern_expectancy	-1.0	n/a	cue	BY	s637
600.954	0.5	BY	0.0	71.0	dot_pattern_expectancy	-1.0	n/a	probe	BY	s637
602.46	0.5	AX	n/a	n/a	dot_pattern_expectancy	-1.0	n/a	cue	AX	s637
604.969	0.5	AX	1.0	89.0	dot_pattern_expectancy	89.0	0.48	probe	AX	s637
606.611	0.5	BX	n/a	n/a	dot_pattern_expectancy	-1.0	n/a	cue	BX	s637
609.123	0.5	BX	1.0	71.0	dot_pattern_expectancy	71.0	0.471	probe	BX	s637
611.174	0.5	AX	n/a	n/a	dot_pattern_expectancy	-1.0	n/a	cue	AX	s637
613.685	0.5	AX	0.0	89.0	dot_pattern_expectancy	71.0	0.664	probe	AX	s637
615.464	0.5	BX	n/a	n/a	dot_pattern_expectancy	-1.0	n/a	cue	BX	s637
617.977	0.5	BX	1.0	71.0	dot_pattern_expectancy	71.0	0.67	probe	BX	s637
620.571	0.5	AY	n/a	n/a	dot_pattern_expectancy	-1.0	n/a	cue	AY	s637
623.083	0.5	AY	0.0	71.0	dot_pattern_expectancy	-1.0	n/a	probe	AY	s637
624.588	0.5	AX	n/a	n/a	dot_pattern_expectancy	-1.0	n/a	cue	AX	s637
627.1	0.5	AX	1.0	89.0	dot_pattern_expectancy	89.0	0.648	probe	AX	s637
629.557	0.5	BY	n/a	n/a	dot_pattern_expectancy	-1.0	n/a	cue	BY	s637
632.065	0.5	BY	1.0	71.0	dot_pattern_expectancy	71.0	0.393	probe	BY	s637
633.706	0.5	AX	n/a	n/a	dot_pattern_expectancy	-1.0	n/a	cue	AX	s637
636.213	0.5	AX	1.0	89.0	dot_pattern_expectancy	89.0	0.391	probe	AX	s637
637.856	0.5	AX	n/a	n/a	dot_pattern_expectancy	-1.0	n/a	cue	AX	s637
640.367	0.5	AX	1.0	89.0	dot_pattern_expectancy	89.0	0.422	probe	AX	s637
641.873	0.5	BY	n/a	n/a	dot_pattern_expectancy	-1.0	n/a	cue	BY	s637
644.382	0.5	BY	0.0	71.0	dot_pattern_expectancy	-1.0	n/a	probe	BY	s637
646.023	0.5	AX	n/a	n/a	dot_pattern_expectancy	-1.0	n/a	cue	AX	s637
648.534	0.5	AX	0.0	89.0	dot_pattern_expectancy	-1.0	n/a	probe	AX	s637
650.039	0.5	AY	n/a	n/a	dot_pattern_expectancy	-1.0	n/a	cue	AY	s637
652.55	0.5	AY	1.0	71.0	dot_pattern_expectancy	71.0	0.631	probe	AY	s637
654.736	0.5	AX	n/a	n/a	dot_pattern_expectancy	-1.0	n/a	cue	AX	s637
657.247	0.5	AX	1.0	89.0	dot_pattern_expectancy	89.0	0.568	probe	AX	s637
658.752	0.5	AX	n/a	n/a	dot_pattern_expectancy	-1.0	n/a	cue	AX	s637
661.264	0.5	AX	1.0	89.0	dot_pattern_expectancy	89.0	0.735	probe	AX	s637
663.178	0.5	BY	n/a	n/a	dot_pattern_expectancy	-1.0	n/a	cue	BY	s637
665.689	0.5	BY	1.0	71.0	dot_pattern_expectancy	71.0	0.572	probe	BY	s637
667.331	0.5	BY	n/a	n/a	dot_pattern_expectancy	-1.0	n/a	cue	BY	s637
669.839	0.5	BY	1.0	71.0	dot_pattern_expectancy	71.0	1.002	probe	BY	s637
671.481	0.5	AX	n/a	n/a	dot_pattern_expectancy	-1.0	n/a	cue	AX	s637
673.992	0.5	AX	0.0	89.0	dot_pattern_expectancy	-1.0	n/a	probe	AX	s637
675.635	0.5	AX	n/a	n/a	dot_pattern_expectancy	-1.0	n/a	cue	AX	s637
678.145	0.5	AX	1.0	89.0	dot_pattern_expectancy	89.0	0.778	probe	AX	s637
679.65	0.5	BY	n/a	n/a	dot_pattern_expectancy	-1.0	n/a	cue	BY	s637
682.161	0.5	BY	1.0	71.0	dot_pattern_expectancy	71.0	0.762	probe	BY	s637
684.21	0.5	AY	n/a	n/a	dot_pattern_expectancy	-1.0	n/a	cue	AY	s637
686.72	0.5	AY	1.0	71.0	dot_pattern_expectancy	71.0	0.907	probe	AY	s637
688.906	0.5	AY	n/a	n/a	dot_pattern_expectancy	-1.0	n/a	cue	AY	s637
691.417	0.5	AY	0.0	71.0	dot_pattern_expectancy	-1.0	n/a	probe	AY	s637
693.06	0.5	AY	n/a	n/a	dot_pattern_expectancy	-1.0	n/a	cue	AY	s637
695.57	0.5	AY	1.0	71.0	dot_pattern_expectancy	71.0	0.626	probe	AY	s637
697.349	0.5	BY	n/a	n/a	dot_pattern_expectancy	-1.0	n/a	cue	BY	s637
699.859	0.5	BY	1.0	71.0	dot_pattern_expectancy	71.0	0.342	probe	BY	s637
701.365	0.5	BX	n/a	n/a	dot_pattern_expectancy	-1.0	n/a	cue	BX	s637
703.876	0.5	BX	1.0	71.0	dot_pattern_expectancy	71.0	0.824	probe	BX	s637
705.791	0.5	AX	n/a	n/a	dot_pattern_expectancy	-1.0	n/a	cue	AX	s637
708.302	0.5	AX	1.0	89.0	dot_pattern_expectancy	89.0	0.642	probe	AX	s637
710.352	0.5	AX	n/a	n/a	dot_pattern_expectancy	-1.0	n/a	cue	AX	s637
712.865	0.5	AX	1.0	89.0	dot_pattern_expectancy	89.0	0.654	probe	AX	s637
714.507	0.5	AX	n/a	n/a	dot_pattern_expectancy	-1.0	n/a	cue	AX	s637
717.015	0.5	AX	1.0	89.0	dot_pattern_expectancy	89.0	1.071	probe	AX	s637
718.794	0.5	AX	n/a	n/a	dot_pattern_expectancy	-1.0	n/a	cue	AX	s637
721.306	0.5	AX	1.0	89.0	dot_pattern_expectancy	89.0	0.777	probe	AX	s637
722.947	0.5	BX	n/a	n/a	dot_pattern_expectancy	-1.0	n/a	cue	BX	s637
725.459	0.5	BX	0.0	71.0	dot_pattern_expectancy	-1.0	n/a	probe	BX	s637
727.237	0.5	AX	n/a	n/a	dot_pattern_expectancy	-1.0	n/a	cue	AX	s637
729.749	0.5	AX	1.0	89.0	dot_pattern_expectancy	89.0	0.685	probe	AX	s637
