onset	duration	EV	action	clicked_on_loss_card	experiment_exp_id	gain_amount	gain_probability	key_press	loss_amount	loss_probability	num_cards	num_click_in_round	num_loss_cards	risk	response_time	total_cards	trial_id	worker_id
3.009	2.917	-0.6500971088373431	draw_card	0.0	columbia_card_task_fmri	12.0	0.8333333333333334	89.0	-70.0	0.1666666666666666	6.0	1.0	1.0	-1.9922408861137804	2.917	n/a	stim	s251
5.929	1.598	-3.383430442170676	draw_card	0.0	columbia_card_task_fmri	12.0	0.8	89.0	-70.0	0.2	6.0	2.0	1.0	0.2470094024368023	1.598	n/a	stim	s251
7.529	1.323	-7.483430442170677	draw_card	0.0	columbia_card_task_fmri	12.0	0.75	89.0	-70.0	0.25	6.0	3.0	1.0	2.9528507364225405	1.323	n/a	stim	s251
8.854	1.375	-14.31676377550401	end_round	0.0	columbia_card_task_fmri	12.0	0.6666666666666667	71.0	-70.0	0.3333333333333333	6.0	4.0	1.0	6.09979540290437	1.375	3.0	stim	s251
10.232	2.25	n/a	-1.0	n/a	columbia_card_task_fmri	n/a	n/a	-1.0	n/a	n/a	n/a	n/a	n/a	n/a	n/a	n/a	feedback	s251
12.482	0.0	n/a	-1.0	n/a	columbia_card_task_fmri	n/a	n/a	-1.0	n/a	n/a	n/a	n/a	n/a	n/a	n/a	n/a	ITI	s251
12.483	2.228	0.1832362244959908	draw_card	0.0	columbia_card_task_fmri	14.0	0.8333333333333334	89.0	-75.0	0.1666666666666666	6.0	1.0	1.0	0.6151762498689521	2.228	n/a	stim	s251
14.712	0.884	-2.783430442170676	draw_card	1.0	columbia_card_task_fmri	14.0	0.8	89.0	-75.0	0.2	6.0	2.0	1.0	3.0457712058588413	0.884	2.0	stim	s251
15.599	2.25	n/a	-1.0	n/a	columbia_card_task_fmri	n/a	n/a	-1.0	n/a	n/a	n/a	n/a	n/a	n/a	n/a	n/a	feedback	s251
17.849	0.136	n/a	-1.0	n/a	columbia_card_task_fmri	n/a	n/a	-1.0	n/a	n/a	n/a	n/a	n/a	n/a	n/a	n/a	ITI	s251
17.988	1.885	1.849902891162657	draw_card	0.0	columbia_card_task_fmri	15.0	0.8333333333333334	89.0	-70.0	0.1666666666666666	6.0	1.0	1.0	-0.874803178730744	1.885	n/a	stim	s251
19.875	0.593	-0.983430442170677	draw_card	0.0	columbia_card_task_fmri	15.0	0.8	89.0	-70.0	0.2	6.0	2.0	1.0	1.4464537914113509	0.593	n/a	stim	s251
20.469	0.918	-5.233430442170677	draw_card	0.0	columbia_card_task_fmri	15.0	0.75	89.0	-70.0	0.25	6.0	3.0	1.0	4.25137553831788	0.918	n/a	stim	s251
21.387	0.64	-12.316763775504008	end_round	0.0	columbia_card_task_fmri	15.0	0.6666666666666667	71.0	-70.0	0.3333333333333333	6.0	4.0	1.0	7.513537421963541	0.64	3.0	stim	s251
22.03	2.25	n/a	-1.0	n/a	columbia_card_task_fmri	n/a	n/a	-1.0	n/a	n/a	n/a	n/a	n/a	n/a	n/a	n/a	feedback	s251
24.28	0.34	n/a	-1.0	n/a	columbia_card_task_fmri	n/a	n/a	-1.0	n/a	n/a	n/a	n/a	n/a	n/a	n/a	n/a	ITI	s251
24.621	1.935	2.68323622449599	draw_card	0.0	columbia_card_task_fmri	17.0	0.8333333333333334	89.0	-75.0	0.1666666666666666	6.0	1.0	1.0	1.7327025962051863	1.935	n/a	stim	s251
26.558	0.735	-0.3834304421706755	draw_card	0.0	columbia_card_task_fmri	17.0	0.8	89.0	-75.0	0.2	6.0	2.0	1.0	4.245298195448896	0.735	n/a	stim	s251
27.293	0.611	-4.983430442170677	draw_card	1.0	columbia_card_task_fmri	17.0	0.75	89.0	-75.0	0.25	6.0	3.0	1.0	7.281396860615757	0.611	3.0	stim	s251
27.907	2.25	n/a	-1.0	n/a	columbia_card_task_fmri	n/a	n/a	-1.0	n/a	n/a	n/a	n/a	n/a	n/a	n/a	n/a	feedback	s251
30.157	0.408	n/a	-1.0	n/a	columbia_card_task_fmri	n/a	n/a	-1.0	n/a	n/a	n/a	n/a	n/a	n/a	n/a	n/a	ITI	s251
30.567	3.056	4.016569557829323	draw_card	0.0	columbia_card_task_fmri	24.0	0.75	89.0	-60.0	0.25	8.0	1.0	2.0	3.818529866241491	3.056	n/a	stim	s251
33.624	0.814	1.016569557829323	draw_card	0.0	columbia_card_task_fmri	24.0	0.7142857142857143	89.0	-60.0	0.2857142857142857	8.0	2.0	2.0	5.392205827092205	0.814	n/a	stim	s251
34.44	0.588	-2.983430442170677	draw_card	0.0	columbia_card_task_fmri	24.0	0.6666666666666667	89.0	-60.0	0.3333333333333333	8.0	3.0	2.0	7.042286341726424	0.588	n/a	stim	s251
35.03	0.666	-8.583430442170679	draw_card	1.0	columbia_card_task_fmri	24.0	0.6	89.0	-60.0	0.4	8.0	4.0	2.0	8.595241921295383	0.666	4.0	stim	s251
35.699	2.25	n/a	-1.0	n/a	columbia_card_task_fmri	n/a	n/a	-1.0	n/a	n/a	n/a	n/a	n/a	n/a	n/a	n/a	feedback	s251
37.949	0.136	n/a	-1.0	n/a	columbia_card_task_fmri	n/a	n/a	-1.0	n/a	n/a	n/a	n/a	n/a	n/a	n/a	n/a	ITI	s251
38.086	1.826	4.016569557829323	draw_card	0.0	columbia_card_task_fmri	29.0	0.75	89.0	-75.0	0.25	8.0	1.0	2.0	12.476053340034715	1.826	n/a	stim	s251
39.913	0.606	0.3022838435436112	draw_card	0.0	columbia_card_task_fmri	29.0	0.7142857142857143	89.0	-75.0	0.2857142857142857	8.0	2.0	2.0	14.424667468873665	0.606	n/a	stim	s251
40.52	0.509	-4.6500971088373415	draw_card	1.0	columbia_card_task_fmri	29.0	0.6666666666666667	89.0	-75.0	0.3333333333333333	8.0	3.0	2.0	16.467868386137205	0.509	3.0	stim	s251
41.033	2.25	n/a	-1.0	n/a	columbia_card_task_fmri	n/a	n/a	-1.0	n/a	n/a	n/a	n/a	n/a	n/a	n/a	n/a	feedback	s251
43.283	0.136	n/a	-1.0	n/a	columbia_card_task_fmri	n/a	n/a	-1.0	n/a	n/a	n/a	n/a	n/a	n/a	n/a	n/a	ITI	s251
43.419	1.806	-0.2056526643928966	draw_card	0.0	columbia_card_task_fmri	17.0	0.7777777777777778	89.0	-65.0	0.2222222222222222	9.0	1.0	2.0	1.5370695954358735	1.806	n/a	stim	s251
45.226	0.786	-2.483430442170677	draw_card	0.0	columbia_card_task_fmri	17.0	0.75	89.0	-65.0	0.25	9.0	2.0	2.0	2.9528507364225405	0.786	n/a	stim	s251
46.014	0.852	-5.412001870742104	draw_card	0.0	columbia_card_task_fmri	17.0	0.7142857142857143	89.0	-65.0	0.2857142857142857	9.0	3.0	2.0	4.489029848971441	0.852	n/a	stim	s251
46.868	1.484	-9.316763775504008	end_round	0.0	columbia_card_task_fmri	17.0	0.6666666666666667	71.0	-65.0	0.3333333333333333	9.0	4.0	2.0	6.09979540290437	1.484	3.0	stim	s251
48.355	2.25	n/a	-1.0	n/a	columbia_card_task_fmri	n/a	n/a	-1.0	n/a	n/a	n/a	n/a	n/a	n/a	n/a	n/a	feedback	s251
50.605	0.0	n/a	-1.0	n/a	columbia_card_task_fmri	n/a	n/a	-1.0	n/a	n/a	n/a	n/a	n/a	n/a	n/a	n/a	ITI	s251
50.607	1.965	4.116569557829322	draw_card	0.0	columbia_card_task_fmri	14.0	0.9	89.0	-95.0	0.1	10.0	1.0	1.0	0.1470575427501899	1.965	n/a	stim	s251
52.574	1.16	2.9054584467182103	draw_card	0.0	columbia_card_task_fmri	14.0	0.8888888888888888	89.0	-95.0	0.1111111111111111	10.0	2.0	1.0	1.7017357392596892	1.16	n/a	stim	s251
53.736	0.849	1.391569557829323	draw_card	0.0	columbia_card_task_fmri	14.0	0.875	89.0	-95.0	0.125	10.0	3.0	1.0	3.4939524031800886	0.849	n/a	stim	s251
54.587	0.55	-0.5548590135992482	end_round	0.0	columbia_card_task_fmri	14.0	0.8571428571428572	71.0	-95.0	0.1428571428571428	10.0	4.0	1.0	5.586858993980378	0.55	3.0	stim	s251
55.139	2.25	n/a	-1.0	n/a	columbia_card_task_fmri	n/a	n/a	-1.0	n/a	n/a	n/a	n/a	n/a	n/a	n/a	n/a	feedback	s251
57.389	0.068	n/a	-1.0	n/a	columbia_card_task_fmri	n/a	n/a	-1.0	n/a	n/a	n/a	n/a	n/a	n/a	n/a	n/a	ITI	s251
57.459	2.135	0.016569557829323	draw_card	1.0	columbia_card_task_fmri	15.0	0.8	89.0	-65.0	0.2	10.0	1.0	2.0	-0.5525970567746867	2.135	1.0	stim	s251
59.597	2.25	n/a	-1.0	n/a	columbia_card_task_fmri	n/a	n/a	-1.0	n/a	n/a	n/a	n/a	n/a	n/a	n/a	n/a	feedback	s251
61.847	0.0	n/a	-1.0	n/a	columbia_card_task_fmri	n/a	n/a	-1.0	n/a	n/a	n/a	n/a	n/a	n/a	n/a	n/a	ITI	s251
61.849	1.669	1.6165695578293244	draw_card	0.0	columbia_card_task_fmri	17.0	0.8	89.0	-65.0	0.2	10.0	1.0	2.0	0.2470094024368023	1.669	n/a	stim	s251
63.52	0.792	-0.2056526643928966	draw_card	0.0	columbia_card_task_fmri	17.0	0.7777777777777778	89.0	-65.0	0.2222222222222222	10.0	2.0	2.0	1.5370695954358735	0.792	n/a	stim	s251
64.314	0.59	-2.483430442170677	draw_card	0.0	columbia_card_task_fmri	17.0	0.75	89.0	-65.0	0.25	10.0	3.0	2.0	2.9528507364225405	0.59	n/a	stim	s251
64.905	0.862	-5.412001870742104	end_round	0.0	columbia_card_task_fmri	17.0	0.7142857142857143	71.0	-65.0	0.2857142857142857	10.0	4.0	2.0	4.489029848971441	0.862	3.0	stim	s251
65.77	2.25	n/a	-1.0	n/a	columbia_card_task_fmri	n/a	n/a	-1.0	n/a	n/a	n/a	n/a	n/a	n/a	n/a	n/a	feedback	s251
68.02	0.0	n/a	-1.0	n/a	columbia_card_task_fmri	n/a	n/a	-1.0	n/a	n/a	n/a	n/a	n/a	n/a	n/a	n/a	ITI	s251
68.022	1.862	0.1832362244959908	draw_card	0.0	columbia_card_task_fmri	13.0	0.8333333333333334	89.0	-70.0	0.1666666666666666	12.0	1.0	2.0	-1.6197664358668111	1.862	n/a	stim	s251
69.885	0.563	-1.0743395330797705	draw_card	0.0	columbia_card_task_fmri	13.0	0.8181818181818181	89.0	-70.0	0.1818181818181818	12.0	2.0	2.0	-0.5399509764582362	0.563	n/a	stim	s251
70.45	0.465	-2.583430442170677	draw_card	0.0	columbia_card_task_fmri	13.0	0.8	89.0	-70.0	0.2	12.0	3.0	2.0	0.646819739146018	0.465	n/a	stim	s251
70.916	0.618	-4.427874886615122	end_round	0.0	columbia_card_task_fmri	13.0	0.7777777777777778	71.0	-70.0	0.2222222222222222	12.0	4.0	2.0	1.95262681270858	0.618	3.0	stim	s251
71.538	2.25	n/a	-1.0	n/a	columbia_card_task_fmri	n/a	n/a	-1.0	n/a	n/a	n/a	n/a	n/a	n/a	n/a	n/a	feedback	s251
73.788	0.136	n/a	-1.0	n/a	columbia_card_task_fmri	n/a	n/a	-1.0	n/a	n/a	n/a	n/a	n/a	n/a	n/a	n/a	ITI	s251
73.927	2.749	0.1832362244959908	draw_card	0.0	columbia_card_task_fmri	15.0	0.8333333333333334	89.0	-80.0	0.1666666666666666	12.0	1.0	2.0	2.8502609836979644	2.749	n/a	stim	s251
76.678	0.503	-1.256157714897952	draw_card	0.0	columbia_card_task_fmri	15.0	0.8181818181818181	89.0	-80.0	0.1818181818181818	12.0	2.0	2.0	4.086346846853921	0.503	n/a	stim	s251
77.184	0.507	-2.983430442170677	draw_card	0.0	columbia_card_task_fmri	15.0	0.8	89.0	-80.0	0.2	12.0	3.0	2.0	5.444855042822404	0.507	n/a	stim	s251
77.693	0.559	-5.09454155328179	end_round	0.0	columbia_card_task_fmri	15.0	0.7777777777777778	71.0	-80.0	0.2222222222222222	12.0	4.0	2.0	6.939612927829195	0.559	3.0	stim	s251
78.256	2.25	n/a	-1.0	n/a	columbia_card_task_fmri	n/a	n/a	-1.0	n/a	n/a	n/a	n/a	n/a	n/a	n/a	n/a	feedback	s251
80.506	0.136	n/a	-1.0	n/a	columbia_card_task_fmri	n/a	n/a	-1.0	n/a	n/a	n/a	n/a	n/a	n/a	n/a	n/a	ITI	s251
80.644	3.894	-0.7834304421706759	draw_card	1.0	columbia_card_task_fmri	14.0	0.8	89.0	-65.0	0.2	15.0	1.0	3.0	-0.9523928197866098	3.894	1.0	stim	s251
84.54	2.25	n/a	-1.0	n/a	columbia_card_task_fmri	n/a	n/a	-1.0	n/a	n/a	n/a	n/a	n/a	n/a	n/a	n/a	feedback	s251
86.79	0.476	n/a	-1.0	n/a	columbia_card_task_fmri	n/a	n/a	-1.0	n/a	n/a	n/a	n/a	n/a	n/a	n/a	n/a	ITI	s251
87.267	4.4	-0.858430442170677	draw_card	0.0	columbia_card_task_fmri	1.0	0.9375	89.0	-45.0	0.0625	16.0	1.0	1.0	-21.387604680954645	4.4	n/a	stim	s251
91.669	0.713	-1.0500971088373434	end_round	0.0	columbia_card_task_fmri	1.0	0.9333333333333332	71.0	-45.0	0.0666666666666666	16.0	2.0	1.0	-21.04938089476664	0.713	1.0	stim	s251
92.386	2.25	n/a	-1.0	n/a	columbia_card_task_fmri	n/a	n/a	-1.0	n/a	n/a	n/a	n/a	n/a	n/a	n/a	n/a	feedback	s251
94.636	0.204	n/a	-1.0	n/a	columbia_card_task_fmri	n/a	n/a	-1.0	n/a	n/a	n/a	n/a	n/a	n/a	n/a	n/a	ITI	s251
94.841	3.968	0.079069557829323	draw_card	0.0	columbia_card_task_fmri	15.0	0.8125	89.0	-70.0	0.1875	16.0	1.0	3.0	0.6233825976619656	3.968	n/a	stim	s251
98.812	0.591	-0.983430442170677	draw_card	0.0	columbia_card_task_fmri	15.0	0.8	89.0	-70.0	0.2	16.0	2.0	3.0	1.4464537914113509	0.591	n/a	stim	s251
99.404	0.488	-2.1977161564563925	draw_card	1.0	columbia_card_task_fmri	15.0	0.7857142857142857	89.0	-70.0	0.2142857142857142	16.0	3.0	3.0	2.3237733828303817	0.488	3.0	stim	s251
99.896	2.25	n/a	-1.0	n/a	columbia_card_task_fmri	n/a	n/a	-1.0	n/a	n/a	n/a	n/a	n/a	n/a	n/a	n/a	feedback	s251
102.146	0.068	n/a	-1.0	n/a	columbia_card_task_fmri	n/a	n/a	-1.0	n/a	n/a	n/a	n/a	n/a	n/a	n/a	n/a	ITI	s251
102.216	1.557	7.016569557829323	draw_card	0.0	columbia_card_task_fmri	30.0	0.7	89.0	-50.0	0.3	10.0	1.0	3.0	4.1059571122659335	1.557	n/a	stim	s251
103.775	0.499	4.349902891162662	draw_card	0.0	columbia_card_task_fmri	30.0	0.6666666666666667	89.0	-50.0	0.3333333333333333	10.0	2.0	3.0	5.157320360766114	0.499	n/a	stim	s251
104.276	0.426	1.016569557829323	draw_card	0.0	columbia_card_task_fmri	30.0	0.625	89.0	-50.0	0.375	10.0	3.0	3.0	6.17443240459896	0.426	n/a	stim	s251
104.704	0.448	-3.269144727884962	end_round	0.0	columbia_card_task_fmri	30.0	0.5714285714285714	71.0	-50.0	0.4285714285714285	10.0	4.0	3.0	7.034042056588724	0.448	3.0	stim	s251
105.155	2.25	n/a	-1.0	n/a	columbia_card_task_fmri	n/a	n/a	-1.0	n/a	n/a	n/a	n/a	n/a	n/a	n/a	n/a	feedback	s251
107.405	0.068	n/a	-1.0	n/a	columbia_card_task_fmri	n/a	n/a	-1.0	n/a	n/a	n/a	n/a	n/a	n/a	n/a	n/a	ITI	s251
107.477	1.679	6.416569557829323	draw_card	0.0	columbia_card_task_fmri	17.0	0.8666666666666667	89.0	-70.0	0.1333333333333333	15.0	1.0	2.0	-2.976960578726544	1.679	n/a	stim	s251
109.158	0.485	5.587998129257896	draw_card	1.0	columbia_card_task_fmri	17.0	0.8571428571428572	89.0	-70.0	0.1428571428571428	15.0	2.0	2.0	-2.108114009711553	0.485	2.0	stim	s251
109.646	2.25	n/a	-1.0	n/a	columbia_card_task_fmri	n/a	n/a	-1.0	n/a	n/a	n/a	n/a	n/a	n/a	n/a	n/a	feedback	s251
111.896	0.34	n/a	-1.0	n/a	columbia_card_task_fmri	n/a	n/a	-1.0	n/a	n/a	n/a	n/a	n/a	n/a	n/a	n/a	ITI	s251
112.239	2.472	1.641569557829323	draw_card	0.0	columbia_card_task_fmri	7.0	0.9375	89.0	-95.0	0.0625	16.0	1.0	1.0	-7.857552553126442	2.472	n/a	stim	s251
114.713	0.878	1.2165695578293232	draw_card	1.0	columbia_card_task_fmri	7.0	0.9333333333333332	89.0	-95.0	0.0666666666666666	16.0	2.0	1.0	-7.105169749071788	0.878	2.0	stim	s251
115.594	2.25	n/a	-1.0	n/a	columbia_card_task_fmri	n/a	n/a	-1.0	n/a	n/a	n/a	n/a	n/a	n/a	n/a	n/a	feedback	s251
117.844	0.476	n/a	-1.0	n/a	columbia_card_task_fmri	n/a	n/a	-1.0	n/a	n/a	n/a	n/a	n/a	n/a	n/a	n/a	ITI	s251
118.321	3.183	3.204069557829323	draw_card	0.0	columbia_card_task_fmri	9.0	0.9375	89.0	-100.0	0.0625	16.0	1.0	1.0	-6.164464711029904	3.183	n/a	stim	s251
121.506	0.432	2.749902891162656	draw_card	0.0	columbia_card_task_fmri	9.0	0.9333333333333332	89.0	-100.0	0.0666666666666666	16.0	2.0	1.0	-5.360365702924213	0.432	n/a	stim	s251
121.94	0.475	2.230855272115038	draw_card	0.0	columbia_card_task_fmri	9.0	0.9285714285714286	89.0	-100.0	0.0714285714285714	16.0	3.0	1.0	-4.478547410022127	0.475	n/a	stim	s251
122.418	0.385	1.6319541732139389	end_round	0.0	columbia_card_task_fmri	9.0	0.9230769230769232	71.0	-100.0	0.0769230769230769	16.0	4.0	1.0	-3.5057960477751067	0.385	3.0	stim	s251
122.807	2.25	n/a	-1.0	n/a	columbia_card_task_fmri	n/a	n/a	-1.0	n/a	n/a	n/a	n/a	n/a	n/a	n/a	n/a	feedback	s251
125.057	0.272	n/a	-1.0	n/a	columbia_card_task_fmri	n/a	n/a	-1.0	n/a	n/a	n/a	n/a	n/a	n/a	n/a	n/a	ITI	s251
125.33	3.242	4.141569557829323	end_round	0.0	columbia_card_task_fmri	15.0	0.875	71.0	-80.0	0.125	16.0	1.0	2.0	-1.1340015082219104	3.242	0.0	stim	s251
128.576	2.25	n/a	-1.0	n/a	columbia_card_task_fmri	n/a	n/a	-1.0	n/a	n/a	n/a	n/a	n/a	n/a	n/a	n/a	feedback	s251
130.826	0.884	n/a	-1.0	n/a	columbia_card_task_fmri	n/a	n/a	-1.0	n/a	n/a	n/a	n/a	n/a	n/a	n/a	n/a	ITI	s251
131.712	3.177	6.266569557829323	draw_card	1.0	columbia_card_task_fmri	16.0	0.875	89.0	-70.0	0.125	16.0	1.0	2.0	-4.10875213135143	3.177	1.0	stim	s251
134.893	2.25	n/a	-1.0	n/a	columbia_card_task_fmri	n/a	n/a	-1.0	n/a	n/a	n/a	n/a	n/a	n/a	n/a	n/a	feedback	s251
137.143	0.136	n/a	-1.0	n/a	columbia_card_task_fmri	n/a	n/a	-1.0	n/a	n/a	n/a	n/a	n/a	n/a	n/a	n/a	ITI	s251
137.281	2.058	7.579069557829323	draw_card	0.0	columbia_card_task_fmri	30.0	0.6875	89.0	-45.0	0.3125	16.0	1.0	5.0	2.2095506754361622	2.058	n/a	stim	s251
139.341	0.655	6.016569557829326	draw_card	1.0	columbia_card_task_fmri	30.0	0.6666666666666667	89.0	-45.0	0.3333333333333333	16.0	2.0	5.0	2.8012106427162493	0.655	2.0	stim	s251
140.0	2.25	n/a	-1.0	n/a	columbia_card_task_fmri	n/a	n/a	-1.0	n/a	n/a	n/a	n/a	n/a	n/a	n/a	n/a	feedback	s251
142.25	0.136	n/a	-1.0	n/a	columbia_card_task_fmri	n/a	n/a	-1.0	n/a	n/a	n/a	n/a	n/a	n/a	n/a	n/a	ITI	s251
142.389	1.928	-0.6500971088373431	draw_card	0.0	columbia_card_task_fmri	13.0	0.8333333333333334	89.0	-75.0	0.1666666666666666	6.0	1.0	1.0	0.2426751538717368	1.928	n/a	stim	s251
144.319	1.77	-3.583430442170677	draw_card	1.0	columbia_card_task_fmri	13.0	0.8	89.0	-75.0	0.2	6.0	2.0	1.0	2.645936038421844	1.77	2.0	stim	s251
146.091	2.25	n/a	-1.0	n/a	columbia_card_task_fmri	n/a	n/a	-1.0	n/a	n/a	n/a	n/a	n/a	n/a	n/a	n/a	feedback	s251
148.341	0.068	n/a	-1.0	n/a	columbia_card_task_fmri	n/a	n/a	-1.0	n/a	n/a	n/a	n/a	n/a	n/a	n/a	n/a	ITI	s251
148.411	1.365	1.0165695578293248	draw_card	0.0	columbia_card_task_fmri	14.0	0.8333333333333334	89.0	-70.0	0.1666666666666666	6.0	1.0	1.0	-1.2472871431620405	1.365	n/a	stim	s251
149.778	0.377	-1.783430442170676	draw_card	0.0	columbia_card_task_fmri	14.0	0.8	89.0	-70.0	0.2	6.0	2.0	1.0	1.046634588512681	0.377	n/a	stim	s251
150.158	0.395	-5.983430442170677	end_round	0.0	columbia_card_task_fmri	14.0	0.75	71.0	-70.0	0.25	6.0	3.0	1.0	3.818529866241491	0.395	2.0	stim	s251
150.556	2.25	n/a	-1.0	n/a	columbia_card_task_fmri	n/a	n/a	-1.0	n/a	n/a	n/a	n/a	n/a	n/a	n/a	n/a	feedback	s251
152.806	0.068	n/a	-1.0	n/a	columbia_card_task_fmri	n/a	n/a	-1.0	n/a	n/a	n/a	n/a	n/a	n/a	n/a	n/a	ITI	s251
152.876	1.199	1.0165695578293248	draw_card	0.0	columbia_card_task_fmri	16.0	0.8333333333333334	89.0	-80.0	0.1666666666666666	6.0	1.0	1.0	3.2227870476998746	1.199	n/a	stim	s251
154.076	0.428	-2.1834304421706765	draw_card	0.0	columbia_card_task_fmri	16.0	0.8	89.0	-80.0	0.2	6.0	2.0	1.0	5.844713476886604	0.428	n/a	stim	s251
154.507	0.501	-6.983430442170677	end_round	0.0	columbia_card_task_fmri	16.0	0.75	71.0	-80.0	0.25	6.0	3.0	1.0	9.01290748486231	0.501	2.0	stim	s251
155.012	2.25	n/a	-1.0	n/a	columbia_card_task_fmri	n/a	n/a	-1.0	n/a	n/a	n/a	n/a	n/a	n/a	n/a	n/a	feedback	s251
157.262	0.612	n/a	-1.0	n/a	columbia_card_task_fmri	n/a	n/a	-1.0	n/a	n/a	n/a	n/a	n/a	n/a	n/a	n/a	ITI	s251
157.876	1.685	3.516569557829325	draw_card	0.0	columbia_card_task_fmri	17.0	0.8333333333333334	89.0	-70.0	0.1666666666666666	6.0	1.0	1.0	-0.1298218784148161	1.685	n/a	stim	s251
159.563	0.585	0.6165695578293244	draw_card	0.0	columbia_card_task_fmri	17.0	0.8	89.0	-70.0	0.2	6.0	2.0	1.0	2.2461046578432686	0.585	n/a	stim	s251
160.151	2.573	-3.733430442170677	end_round	0.0	columbia_card_task_fmri	17.0	0.75	71.0	-70.0	0.25	6.0	3.0	1.0	5.117078395357424	2.573	2.0	stim	s251
162.728	2.25	n/a	-1.0	n/a	columbia_card_task_fmri	n/a	n/a	-1.0	n/a	n/a	n/a	n/a	n/a	n/a	n/a	n/a	feedback	s251
164.978	0.476	n/a	-1.0	n/a	columbia_card_task_fmri	n/a	n/a	-1.0	n/a	n/a	n/a	n/a	n/a	n/a	n/a	n/a	ITI	s251
165.457	2.212	3.516569557829323	draw_card	0.0	columbia_card_task_fmri	25.0	0.75	89.0	-65.0	0.25	8.0	1.0	2.0	6.41565954567762	2.212	n/a	stim	s251
167.67	0.458	0.3022838435436112	draw_card	0.0	columbia_card_task_fmri	25.0	0.7142857142857143	89.0	-65.0	0.2857142857142857	8.0	2.0	2.0	8.101822230918792	0.458	n/a	stim	s251
168.131	0.544	-3.9834304421706737	draw_card	0.0	columbia_card_task_fmri	25.0	0.6666666666666667	89.0	-65.0	0.3333333333333333	8.0	3.0	2.0	9.8698439470337	0.544	n/a	stim	s251
168.677	0.392	-9.983430442170675	end_round	0.0	columbia_card_task_fmri	25.0	0.6	71.0	-65.0	0.4	8.0	4.0	2.0	11.533792888541718	0.392	3.0	stim	s251
169.074	2.25	n/a	-1.0	n/a	columbia_card_task_fmri	n/a	n/a	-1.0	n/a	n/a	n/a	n/a	n/a	n/a	n/a	n/a	feedback	s251
171.324	0.0	n/a	-1.0	n/a	columbia_card_task_fmri	n/a	n/a	-1.0	n/a	n/a	n/a	n/a	n/a	n/a	n/a	n/a	ITI	s251
171.326	1.812	3.516569557829323	draw_card	0.0	columbia_card_task_fmri	30.0	0.75	89.0	-80.0	0.25	8.0	1.0	2.0	15.073503929780776	1.812	n/a	stim	s251
173.141	0.395	-0.4120018707421005	draw_card	0.0	columbia_card_task_fmri	30.0	0.7142857142857143	89.0	-80.0	0.2857142857142857	8.0	2.0	2.0	17.134591492606113	0.395	n/a	stim	s251
173.538	0.275	-5.650097108837338	draw_card	0.0	columbia_card_task_fmri	30.0	0.6666666666666667	89.0	-80.0	0.3333333333333333	8.0	3.0	2.0	19.295720808275583	0.275	n/a	stim	s251
173.816	0.363	-12.983430442170675	end_round	0.0	columbia_card_task_fmri	30.0	0.6	71.0	-80.0	0.4	8.0	4.0	2.0	21.32962180947783	0.363	3.0	stim	s251
174.183	2.25	n/a	-1.0	n/a	columbia_card_task_fmri	n/a	n/a	-1.0	n/a	n/a	n/a	n/a	n/a	n/a	n/a	n/a	feedback	s251
176.433	0.068	n/a	-1.0	n/a	columbia_card_task_fmri	n/a	n/a	-1.0	n/a	n/a	n/a	n/a	n/a	n/a	n/a	n/a	ITI	s251
176.504	2.942	3.216569557829324	draw_card	1.0	columbia_card_task_fmri	13.0	0.9	89.0	-95.0	0.1	10.0	1.0	1.0	-0.1527962546409256	2.942	1.0	stim	s251
179.45	2.25	n/a	-1.0	n/a	columbia_card_task_fmri	n/a	n/a	-1.0	n/a	n/a	n/a	n/a	n/a	n/a	n/a	n/a	feedback	s251
181.7	0.204	n/a	-1.0	n/a	columbia_card_task_fmri	n/a	n/a	-1.0	n/a	n/a	n/a	n/a	n/a	n/a	n/a	n/a	ITI	s251
181.906	3.366	4.616569557829322	draw_card	0.0	columbia_card_task_fmri	14.0	0.9	89.0	-90.0	0.1	10.0	1.0	1.0	-1.3521833500660172	3.366	n/a	stim	s251
185.275	0.465	3.4610140022737657	draw_card	0.0	columbia_card_task_fmri	14.0	0.8888888888888888	89.0	-90.0	0.1111111111111111	10.0	2.0	1.0	0.1311120247540174	0.465	n/a	stim	s251
185.743	0.354	2.016569557829323	draw_card	0.0	columbia_card_task_fmri	14.0	0.875	89.0	-90.0	0.125	10.0	3.0	1.0	1.841046523738896	0.354	n/a	stim	s251
186.098	0.395	0.1594267006864671	end_round	0.0	columbia_card_task_fmri	14.0	0.8571428571428572	71.0	-90.0	0.1428571428571428	10.0	4.0	1.0	3.837874393282284	0.395	3.0	stim	s251
186.497	2.25	n/a	-1.0	n/a	columbia_card_task_fmri	n/a	n/a	-1.0	n/a	n/a	n/a	n/a	n/a	n/a	n/a	n/a	feedback	s251
188.747	0.272	n/a	-1.0	n/a	columbia_card_task_fmri	n/a	n/a	-1.0	n/a	n/a	n/a	n/a	n/a	n/a	n/a	n/a	ITI	s251
189.021	2.26	-0.1834304421706762	draw_card	0.0	columbia_card_task_fmri	16.0	0.8	89.0	-70.0	0.2	10.0	1.0	2.0	1.8462771961095183	2.26	n/a	stim	s251
191.284	0.631	-2.094541553281788	draw_card	0.0	columbia_card_task_fmri	16.0	0.7777777777777778	89.0	-70.0	0.2222222222222222	10.0	2.0	2.0	3.1993239127140995	0.631	n/a	stim	s251
191.918	1.057	-4.483430442170677	draw_card	0.0	columbia_card_task_fmri	16.0	0.75	89.0	-70.0	0.25	10.0	3.0	2.0	4.684225092613353	1.057	n/a	stim	s251
192.978	0.501	-7.554859013599248	end_round	0.0	columbia_card_task_fmri	16.0	0.7142857142857143	71.0	-70.0	0.2857142857142857	10.0	4.0	2.0	6.29539723546096	0.501	3.0	stim	s251
193.483	2.25	n/a	-1.0	n/a	columbia_card_task_fmri	n/a	n/a	-1.0	n/a	n/a	n/a	n/a	n/a	n/a	n/a	n/a	feedback	s251
195.733	0.068	n/a	-1.0	n/a	columbia_card_task_fmri	n/a	n/a	-1.0	n/a	n/a	n/a	n/a	n/a	n/a	n/a	n/a	ITI	s251
195.805	2.989	-0.9000971088373431	draw_card	0.0	columbia_card_task_fmri	7.0	0.9166666666666666	89.0	-100.0	0.0833333333333333	12.0	1.0	1.0	-2.978035408754621	2.989	n/a	stim	s251
198.798	1.422	-1.7107031694434054	draw_card	0.0	columbia_card_task_fmri	7.0	0.9090909090909092	89.0	-100.0	0.0909090909090909	12.0	2.0	1.0	-1.7916095903833416	1.422	n/a	stim	s251
200.222	1.404	-2.6834304421706774	end_round	0.0	columbia_card_task_fmri	7.0	0.9	71.0	-100.0	0.1	12.0	3.0	1.0	-0.4526473213077793	1.404	2.0	stim	s251
201.631	2.25	n/a	-1.0	n/a	columbia_card_task_fmri	n/a	n/a	-1.0	n/a	n/a	n/a	n/a	n/a	n/a	n/a	n/a	feedback	s251
203.881	0.272	n/a	-1.0	n/a	columbia_card_task_fmri	n/a	n/a	-1.0	n/a	n/a	n/a	n/a	n/a	n/a	n/a	n/a	ITI	s251
204.155	1.751	-0.6500971088373413	draw_card	0.0	columbia_card_task_fmri	14.0	0.8333333333333334	89.0	-80.0	0.1666666666666666	12.0	1.0	2.0	2.477738150278391	1.751	n/a	stim	s251
205.909	0.427	-2.0743395330797707	draw_card	0.0	columbia_card_task_fmri	14.0	0.8181818181818181	89.0	-80.0	0.1818181818181818	12.0	2.0	2.0	3.700802171465604	0.427	n/a	stim	s251
206.339	0.334	-3.783430442170676	draw_card	0.0	columbia_card_task_fmri	14.0	0.8	89.0	-80.0	0.2	12.0	3.0	2.0	5.044999619166454	0.334	n/a	stim	s251
206.676	0.36	-5.872319331059567	end_round	0.0	columbia_card_task_fmri	14.0	0.7777777777777778	71.0	-80.0	0.2222222222222222	12.0	4.0	2.0	6.524012326541502	0.36	3.0	stim	s251
207.04	2.25	n/a	-1.0	n/a	columbia_card_task_fmri	n/a	n/a	-1.0	n/a	n/a	n/a	n/a	n/a	n/a	n/a	n/a	feedback	s251
209.29	0.748	n/a	-1.0	n/a	columbia_card_task_fmri	n/a	n/a	-1.0	n/a	n/a	n/a	n/a	n/a	n/a	n/a	n/a	ITI	s251
210.042	2.674	1.016569557829323	end_round	0.0	columbia_card_task_fmri	15.0	0.8333333333333334	71.0	-75.0	0.1666666666666666	12.0	1.0	2.0	0.9876812742462632	2.674	0.0	stim	s251
212.72	2.25	n/a	-1.0	n/a	columbia_card_task_fmri	n/a	n/a	-1.0	n/a	n/a	n/a	n/a	n/a	n/a	n/a	n/a	feedback	s251
214.97	0.068	n/a	-1.0	n/a	columbia_card_task_fmri	n/a	n/a	-1.0	n/a	n/a	n/a	n/a	n/a	n/a	n/a	n/a	ITI	s251
215.042	2.229	0.016569557829323	draw_card	1.0	columbia_card_task_fmri	15.0	0.8	89.0	-65.0	0.2	15.0	1.0	3.0	-0.5525970567746867	2.229	1.0	stim	s251
217.275	2.25	n/a	-1.0	n/a	columbia_card_task_fmri	n/a	n/a	-1.0	n/a	n/a	n/a	n/a	n/a	n/a	n/a	n/a	feedback	s251
219.525	0.0	n/a	-1.0	n/a	columbia_card_task_fmri	n/a	n/a	-1.0	n/a	n/a	n/a	n/a	n/a	n/a	n/a	n/a	ITI	s251
219.528	3.87	-0.733430442170677	end_round	0.0	columbia_card_task_fmri	14.0	0.8125	71.0	-70.0	0.1875	16.0	1.0	3.0	0.2332555009684256	3.87	0.0	stim	s251
223.402	2.25	n/a	-1.0	n/a	columbia_card_task_fmri	n/a	n/a	-1.0	n/a	n/a	n/a	n/a	n/a	n/a	n/a	n/a	feedback	s251
225.652	0.204	n/a	-1.0	n/a	columbia_card_task_fmri	n/a	n/a	-1.0	n/a	n/a	n/a	n/a	n/a	n/a	n/a	n/a	ITI	s251
225.861	2.087	-0.795930442170677	draw_card	0.0	columbia_card_task_fmri	11.0	0.6875	89.0	-30.0	0.3125	16.0	1.0	5.0	-13.537561512601595	2.087	n/a	stim	s251
227.951	0.687	-1.650097108837343	draw_card	0.0	columbia_card_task_fmri	11.0	0.6666666666666667	89.0	-30.0	0.3333333333333333	16.0	2.0	5.0	-13.214439021217856	0.687	n/a	stim	s251
228.64	0.454	-2.6262875850278213	draw_card	0.0	columbia_card_task_fmri	11.0	0.6428571428571428	89.0	-30.0	0.3571428571428571	16.0	3.0	5.0	-12.897001685196605	0.454	n/a	stim	s251
229.096	1.15	-3.7526612114014455	draw_card	1.0	columbia_card_task_fmri	11.0	0.6153846153846154	89.0	-30.0	0.3846153846153846	16.0	4.0	5.0	-12.596177990681223	1.15	4.0	stim	s251
230.251	2.25	n/a	-1.0	n/a	columbia_card_task_fmri	n/a	n/a	-1.0	n/a	n/a	n/a	n/a	n/a	n/a	n/a	n/a	feedback	s251
232.501	0.068	n/a	-1.0	n/a	columbia_card_task_fmri	n/a	n/a	-1.0	n/a	n/a	n/a	n/a	n/a	n/a	n/a	n/a	ITI	s251
232.573	0.631	4.016569557829323	draw_card	1.0	columbia_card_task_fmri	15.0	0.8666666666666667	89.0	-75.0	0.1333333333333333	15.0	1.0	2.0	-1.9577385598718848	0.631	1.0	stim	s251
233.209	2.25	n/a	-1.0	n/a	columbia_card_task_fmri	n/a	n/a	-1.0	n/a	n/a	n/a	n/a	n/a	n/a	n/a	n/a	feedback	s251
235.459	0.068	n/a	-1.0	n/a	columbia_card_task_fmri	n/a	n/a	-1.0	n/a	n/a	n/a	n/a	n/a	n/a	n/a	n/a	ITI	s251
235.529	1.059	5.749902891162657	draw_card	0.0	columbia_card_task_fmri	17.0	0.8666666666666667	89.0	-75.0	0.1333333333333333	15.0	1.0	2.0	-1.2782361483536846	1.059	n/a	stim	s251
236.591	0.427	4.873712414972182	draw_card	0.0	columbia_card_task_fmri	17.0	0.8571428571428572	89.0	-75.0	0.1428571428571428	15.0	2.0	2.0	-0.3594001713423651	0.427	n/a	stim	s251
237.021	0.345	3.8627234039831695	draw_card	0.0	columbia_card_task_fmri	17.0	0.8461538461538461	89.0	-75.0	0.1538461538461538	15.0	3.0	2.0	0.6405342165920018	0.345	n/a	stim	s251
237.37	0.521	2.68323622449599	end_round	0.0	columbia_card_task_fmri	17.0	0.8333333333333334	71.0	-75.0	0.1666666666666666	15.0	4.0	2.0	1.7327025962051863	0.521	3.0	stim	s251
237.895	2.25	n/a	-1.0	n/a	columbia_card_task_fmri	n/a	n/a	-1.0	n/a	n/a	n/a	n/a	n/a	n/a	n/a	n/a	feedback	s251
240.145	0.34	n/a	-1.0	n/a	columbia_card_task_fmri	n/a	n/a	-1.0	n/a	n/a	n/a	n/a	n/a	n/a	n/a	n/a	ITI	s251
240.488	2.877	1.329069557829323	draw_card	0.0	columbia_card_task_fmri	2.0	0.9375	89.0	-25.0	0.0625	16.0	1.0	1.0	-25.95449352410256	2.877	n/a	stim	s251
243.369	0.638	1.216569557829323	draw_card	0.0	columbia_card_task_fmri	2.0	0.9333333333333332	89.0	-25.0	0.0666666666666666	16.0	2.0	1.0	-25.757468997832465	0.638	n/a	stim	s251
244.01	0.41	1.0879981292578946	draw_card	0.0	columbia_card_task_fmri	2.0	0.9285714285714286	89.0	-25.0	0.0714285714285714	16.0	3.0	1.0	-25.54126154400154	0.41	n/a	stim	s251
244.423	0.411	0.939646480906246	end_round	0.0	columbia_card_task_fmri	2.0	0.9230769230769232	71.0	-25.0	0.0769230769230769	16.0	4.0	1.0	-25.30260442408401	0.411	3.0	stim	s251
244.839	2.25	n/a	-1.0	n/a	columbia_card_task_fmri	n/a	n/a	-1.0	n/a	n/a	n/a	n/a	n/a	n/a	n/a	n/a	feedback	s251
247.089	0.0	n/a	-1.0	n/a	columbia_card_task_fmri	n/a	n/a	-1.0	n/a	n/a	n/a	n/a	n/a	n/a	n/a	n/a	ITI	s251
247.093	2.776	3.516569557829323	draw_card	0.0	columbia_card_task_fmri	9.0	0.9375	89.0	-95.0	0.0625	16.0	1.0	1.0	-7.373831586524133	2.776	n/a	stim	s251
249.873	0.42	3.08323622449599	draw_card	0.0	columbia_card_task_fmri	9.0	0.9333333333333332	89.0	-95.0	0.0666666666666666	16.0	2.0	1.0	-6.606672181618194	0.42	n/a	stim	s251
250.296	0.428	2.587998129257895	draw_card	0.0	columbia_card_task_fmri	9.0	0.9285714285714286	89.0	-95.0	0.0714285714285714	16.0	3.0	1.0	-5.765360272265887	0.428	n/a	stim	s251
250.727	1.571	2.016569557829323	end_round	0.0	columbia_card_task_fmri	9.0	0.9230769230769232	71.0	-95.0	0.0769230769230769	16.0	4.0	1.0	-4.837288368491702	1.571	3.0	stim	s251
252.302	2.25	n/a	-1.0	n/a	columbia_card_task_fmri	n/a	n/a	-1.0	n/a	n/a	n/a	n/a	n/a	n/a	n/a	n/a	feedback	s251
254.552	0.0	n/a	-1.0	n/a	columbia_card_task_fmri	n/a	n/a	-1.0	n/a	n/a	n/a	n/a	n/a	n/a	n/a	n/a	ITI	s251
254.556	2.718	5.079069557829323	draw_card	0.0	columbia_card_task_fmri	11.0	0.9375	89.0	-100.0	0.0625	16.0	1.0	1.0	-5.680694264680643	2.718	n/a	stim	s251
257.276	0.491	4.616569557829323	draw_card	0.0	columbia_card_task_fmri	11.0	0.9333333333333332	89.0	-100.0	0.0666666666666666	16.0	2.0	1.0	-4.86182011354764	0.491	n/a	stim	s251
257.77	0.536	4.087998129257896	draw_card	0.0	columbia_card_task_fmri	11.0	0.9285714285714286	89.0	-100.0	0.0714285714285714	16.0	3.0	1.0	-3.9637999872016536	0.536	n/a	stim	s251
258.31	0.596	3.4781080193677854	end_round	0.0	columbia_card_task_fmri	11.0	0.9230769230769232	71.0	-100.0	0.0769230769230769	16.0	4.0	1.0	-2.9731775853035813	0.596	3.0	stim	s251
258.911	2.25	n/a	-1.0	n/a	columbia_card_task_fmri	n/a	n/a	-1.0	n/a	n/a	n/a	n/a	n/a	n/a	n/a	n/a	feedback	s251
261.161	0.272	n/a	-1.0	n/a	columbia_card_task_fmri	n/a	n/a	-1.0	n/a	n/a	n/a	n/a	n/a	n/a	n/a	n/a	ITI	s251
261.436	2.644	5.641569557829323	draw_card	0.0	columbia_card_task_fmri	16.0	0.875	89.0	-75.0	0.125	16.0	1.0	2.0	-2.4561548529095987	2.644	n/a	stim	s251
264.083	0.436	4.88323622449599	draw_card	0.0	columbia_card_task_fmri	16.0	0.8666666666666667	89.0	-75.0	0.1333333333333333	16.0	2.0	2.0	-1.6179893681792272	0.436	n/a	stim	s251
264.522	0.297	4.016569557829325	draw_card	0.0	columbia_card_task_fmri	16.0	0.8571428571428572	89.0	-75.0	0.1428571428571428	16.0	3.0	2.0	-0.7091510355446999	0.297	n/a	stim	s251
264.822	0.422	3.016569557829323	end_round	0.0	columbia_card_task_fmri	16.0	0.8461538461538461	71.0	-75.0	0.1538461538461538	16.0	4.0	2.0	0.2799039421583629	0.422	3.0	stim	s251
265.249	2.25	n/a	-1.0	n/a	columbia_card_task_fmri	n/a	n/a	-1.0	n/a	n/a	n/a	n/a	n/a	n/a	n/a	n/a	feedback	s251
267.499	0.204	n/a	-1.0	n/a	columbia_card_task_fmri	n/a	n/a	-1.0	n/a	n/a	n/a	n/a	n/a	n/a	n/a	n/a	ITI	s251
267.707	1.939	5.891569557829323	draw_card	0.0	columbia_card_task_fmri	17.0	0.875	89.0	-80.0	0.125	16.0	1.0	2.0	-0.4729025136634845	1.939	n/a	stim	s251
269.648	0.358	5.083236224495991	draw_card	0.0	columbia_card_task_fmri	17.0	0.8666666666666667	89.0	-80.0	0.1333333333333333	16.0	2.0	2.0	0.4205860167625417	0.358	n/a	stim	s251
270.01	0.282	4.159426700686469	draw_card	0.0	columbia_card_task_fmri	17.0	0.8571428571428572	89.0	-80.0	0.1428571428571428	16.0	3.0	2.0	1.389408619370343	0.282	n/a	stim	s251
270.295	0.465	3.0934926347523994	end_round	0.0	columbia_card_task_fmri	17.0	0.8461538461538461	71.0	-80.0	0.1538461538461538	16.0	4.0	2.0	2.4437384213729345	0.465	3.0	stim	s251
270.765	2.25	n/a	-1.0	n/a	columbia_card_task_fmri	n/a	n/a	-1.0	n/a	n/a	n/a	n/a	n/a	n/a	n/a	n/a	feedback	s251
273.015	0.0	n/a	-1.0	n/a	columbia_card_task_fmri	n/a	n/a	-1.0	n/a	n/a	n/a	n/a	n/a	n/a	n/a	n/a	ITI	s251
284.023	4.796	0.1832362244959908	draw_card	0.0	columbia_card_task_fmri	13.0	0.8333333333333334	89.0	-70.0	0.1666666666666666	6.0	1.0	1.0	-1.6197664358668111	4.796	n/a	stim	s251
288.822	0.468	-2.583430442170677	draw_card	0.0	columbia_card_task_fmri	13.0	0.8	89.0	-70.0	0.2	6.0	2.0	1.0	0.646819739146018	0.468	n/a	stim	s251
289.293	0.454	-6.733430442170677	draw_card	0.0	columbia_card_task_fmri	13.0	0.75	89.0	-70.0	0.25	6.0	3.0	1.0	3.385688216595142	0.454	n/a	stim	s251
289.751	0.425	-13.650097108837342	end_round	0.0	columbia_card_task_fmri	13.0	0.6666666666666667	71.0	-70.0	0.3333333333333333	6.0	4.0	1.0	6.571038957003381	0.425	3.0	stim	s251
290.179	2.25	n/a	-1.0	n/a	columbia_card_task_fmri	n/a	n/a	-1.0	n/a	n/a	n/a	n/a	n/a	n/a	n/a	n/a	feedback	s251
292.429	0.204	n/a	-1.0	n/a	columbia_card_task_fmri	n/a	n/a	-1.0	n/a	n/a	n/a	n/a	n/a	n/a	n/a	n/a	ITI	s251
292.636	2.844	0.1832362244959908	draw_card	0.0	columbia_card_task_fmri	15.0	0.8333333333333334	89.0	-80.0	0.1666666666666666	6.0	1.0	1.0	2.8502609836979644	2.844	n/a	stim	s251
295.484	0.36	-2.983430442170677	draw_card	1.0	columbia_card_task_fmri	15.0	0.8	89.0	-80.0	0.2	6.0	2.0	1.0	5.444855042822404	0.36	2.0	stim	s251
295.848	2.25	n/a	-1.0	n/a	columbia_card_task_fmri	n/a	n/a	-1.0	n/a	n/a	n/a	n/a	n/a	n/a	n/a	n/a	feedback	s251
298.098	0.204	n/a	-1.0	n/a	columbia_card_task_fmri	n/a	n/a	-1.0	n/a	n/a	n/a	n/a	n/a	n/a	n/a	n/a	ITI	s251
298.306	2.361	1.849902891162657	draw_card	0.0	columbia_card_task_fmri	16.0	0.8333333333333334	89.0	-75.0	0.1666666666666666	6.0	1.0	1.0	1.360190097614847	2.361	n/a	stim	s251
300.669	0.405	-1.1834304421706765	draw_card	0.0	columbia_card_task_fmri	16.0	0.8	89.0	-75.0	0.2	6.0	2.0	1.0	3.845452402341273	0.405	n/a	stim	s251
301.077	0.294	-5.733430442170677	draw_card	0.0	columbia_card_task_fmri	16.0	0.75	89.0	-75.0	0.25	6.0	3.0	1.0	6.848526621030665	0.294	n/a	stim	s251
301.375	0.469	-13.31676377550401	end_round	0.0	columbia_card_task_fmri	16.0	0.6666666666666667	71.0	-75.0	0.3333333333333333	6.0	4.0	1.0	10.341114690762986	0.469	3.0	stim	s251
301.849	2.25	n/a	-1.0	n/a	columbia_card_task_fmri	n/a	n/a	-1.0	n/a	n/a	n/a	n/a	n/a	n/a	n/a	n/a	feedback	s251
304.099	0.272	n/a	-1.0	n/a	columbia_card_task_fmri	n/a	n/a	-1.0	n/a	n/a	n/a	n/a	n/a	n/a	n/a	n/a	ITI	s251
304.373	1.819	3.016569557829323	draw_card	1.0	columbia_card_task_fmri	21.0	0.75	89.0	-55.0	0.25	8.0	1.0	2.0	0.3559226228352727	1.819	1.0	stim	s251
306.197	2.25	n/a	-1.0	n/a	columbia_card_task_fmri	n/a	n/a	-1.0	n/a	n/a	n/a	n/a	n/a	n/a	n/a	n/a	feedback	s251
308.447	0.204	n/a	-1.0	n/a	columbia_card_task_fmri	n/a	n/a	-1.0	n/a	n/a	n/a	n/a	n/a	n/a	n/a	n/a	ITI	s251
308.654	3.148	4.266569557829323	draw_card	0.0	columbia_card_task_fmri	26.0	0.75	89.0	-65.0	0.25	8.0	1.0	2.0	6.848526621030665	3.148	n/a	stim	s251
311.806	0.872	1.0165695578293266	draw_card	0.0	columbia_card_task_fmri	26.0	0.7142857142857143	89.0	-65.0	0.2857142857142857	8.0	2.0	2.0	8.553436591504443	0.872	n/a	stim	s251
312.68	0.36	-3.316763775504006	draw_card	1.0	columbia_card_task_fmri	26.0	0.6666666666666667	89.0	-65.0	0.3333333333333333	8.0	3.0	2.0	10.341114690762986	0.36	3.0	stim	s251
313.044	2.25	n/a	-1.0	n/a	columbia_card_task_fmri	n/a	n/a	-1.0	n/a	n/a	n/a	n/a	n/a	n/a	n/a	n/a	feedback	s251
315.294	0.408	n/a	-1.0	n/a	columbia_card_task_fmri	n/a	n/a	-1.0	n/a	n/a	n/a	n/a	n/a	n/a	n/a	n/a	ITI	s251
315.705	1.627	-0.6500971088373431	draw_card	1.0	columbia_card_task_fmri	15.0	0.7777777777777778	89.0	-60.0	0.2222222222222222	9.0	1.0	2.0	-1.3716947664586208	1.627	1.0	stim	s251
317.337	2.25	n/a	-1.0	n/a	columbia_card_task_fmri	n/a	n/a	-1.0	n/a	n/a	n/a	n/a	n/a	n/a	n/a	n/a	feedback	s251
319.587	0.136	n/a	-1.0	n/a	columbia_card_task_fmri	n/a	n/a	-1.0	n/a	n/a	n/a	n/a	n/a	n/a	n/a	n/a	ITI	s251
319.727	2.242	3.716569557829324	draw_card	0.0	columbia_card_task_fmri	13.0	0.9	89.0	-90.0	0.1	10.0	1.0	1.0	-1.6520226916795693	2.242	n/a	stim	s251
321.972	0.402	2.572125113384878	draw_card	0.0	columbia_card_task_fmri	13.0	0.8888888888888888	89.0	-90.0	0.1111111111111111	10.0	2.0	1.0	-0.1830042812838712	0.402	n/a	stim	s251
322.377	0.696	1.141569557829323	draw_card	0.0	columbia_card_task_fmri	13.0	0.875	89.0	-90.0	0.125	10.0	3.0	1.0	1.5104733661835184	0.696	n/a	stim	s251
323.076	0.451	-0.6977161564563887	end_round	0.0	columbia_card_task_fmri	13.0	0.8571428571428572	71.0	-90.0	0.1428571428571428	10.0	4.0	1.0	3.488085052367559	0.451	3.0	stim	s251
323.533	2.25	n/a	-1.0	n/a	columbia_card_task_fmri	n/a	n/a	-1.0	n/a	n/a	n/a	n/a	n/a	n/a	n/a	n/a	feedback	s251
325.783	0.272	n/a	-1.0	n/a	columbia_card_task_fmri	n/a	n/a	-1.0	n/a	n/a	n/a	n/a	n/a	n/a	n/a	n/a	ITI	s251
326.061	3.602	5.016569557829323	draw_card	0.0	columbia_card_task_fmri	15.0	0.9	89.0	-95.0	0.1	10.0	1.0	1.0	0.4469139964628752	3.602	n/a	stim	s251
329.667	0.413	3.7943473356071	draw_card	0.0	columbia_card_task_fmri	15.0	0.8888888888888888	89.0	-95.0	0.1111111111111111	10.0	2.0	1.0	2.015868382612254	0.413	n/a	stim	s251
330.083	0.287	2.266569557829323	draw_card	0.0	columbia_card_task_fmri	15.0	0.875	89.0	-95.0	0.125	10.0	3.0	1.0	3.8245410875551897	0.287	n/a	stim	s251
330.373	0.385	0.3022838435436095	end_round	0.0	columbia_card_task_fmri	15.0	0.8571428571428572	71.0	-95.0	0.1428571428571428	10.0	4.0	1.0	5.936663011378073	0.385	3.0	stim	s251
330.764	2.25	n/a	-1.0	n/a	columbia_card_task_fmri	n/a	n/a	-1.0	n/a	n/a	n/a	n/a	n/a	n/a	n/a	n/a	feedback	s251
333.014	0.34	n/a	-1.0	n/a	columbia_card_task_fmri	n/a	n/a	-1.0	n/a	n/a	n/a	n/a	n/a	n/a	n/a	n/a	ITI	s251
333.358	2.86	0.8165695578293237	draw_card	0.0	columbia_card_task_fmri	16.0	0.8	89.0	-65.0	0.2	10.0	1.0	2.0	-0.1527962546409256	2.86	n/a	stim	s251
336.222	0.339	-0.9834304421706752	draw_card	0.0	columbia_card_task_fmri	16.0	0.7777777777777778	89.0	-65.0	0.2222222222222222	10.0	2.0	2.0	1.121516881107624	0.339	n/a	stim	s251
336.564	0.286	-3.233430442170677	draw_card	1.0	columbia_card_task_fmri	16.0	0.75	89.0	-65.0	0.25	10.0	3.0	2.0	2.520017580021353	0.286	3.0	stim	s251
336.856	2.25	n/a	-1.0	n/a	columbia_card_task_fmri	n/a	n/a	-1.0	n/a	n/a	n/a	n/a	n/a	n/a	n/a	n/a	feedback	s251
339.106	0.136	n/a	-1.0	n/a	columbia_card_task_fmri	n/a	n/a	-1.0	n/a	n/a	n/a	n/a	n/a	n/a	n/a	n/a	ITI	s251
339.246	2.008	-0.483430442170677	draw_card	0.0	columbia_card_task_fmri	7.0	0.9166666666666666	89.0	-95.0	0.0833333333333333	12.0	1.0	1.0	-4.359106724815188	2.008	n/a	stim	s251
341.257	0.381	-1.2561577148979504	draw_card	0.0	columbia_card_task_fmri	7.0	0.9090909090909092	89.0	-95.0	0.0909090909090909	12.0	2.0	1.0	-3.2281858113343844	0.381	n/a	stim	s251
341.642	0.257	-2.1834304421706774	draw_card	0.0	columbia_card_task_fmri	7.0	0.9	89.0	-95.0	0.1	12.0	3.0	1.0	-1.9518588857084644	0.257	n/a	stim	s251
341.904	0.393	-3.316763775504011	end_round	0.0	columbia_card_task_fmri	7.0	0.8888888888888888	71.0	-95.0	0.1111111111111111	12.0	4.0	1.0	-0.4971175822232752	0.393	3.0	stim	s251
342.301	2.25	n/a	-1.0	n/a	columbia_card_task_fmri	n/a	n/a	-1.0	n/a	n/a	n/a	n/a	n/a	n/a	n/a	n/a	feedback	s251
344.551	0.34	n/a	-1.0	n/a	columbia_card_task_fmri	n/a	n/a	-1.0	n/a	n/a	n/a	n/a	n/a	n/a	n/a	n/a	ITI	s251
344.895	2.096	0.1832362244959908	draw_card	0.0	columbia_card_task_fmri	14.0	0.8333333333333334	89.0	-75.0	0.1666666666666666	12.0	1.0	2.0	0.6151762498689521	2.096	n/a	stim	s251
346.994	0.394	-1.1652486239888604	draw_card	1.0	columbia_card_task_fmri	14.0	0.8181818181818181	89.0	-75.0	0.1818181818181818	12.0	2.0	2.0	1.7731293016507197	0.394	2.0	stim	s251
347.393	2.25	n/a	-1.0	n/a	columbia_card_task_fmri	n/a	n/a	-1.0	n/a	n/a	n/a	n/a	n/a	n/a	n/a	n/a	feedback	s251
349.643	0.068	n/a	-1.0	n/a	columbia_card_task_fmri	n/a	n/a	-1.0	n/a	n/a	n/a	n/a	n/a	n/a	n/a	n/a	ITI	s251
349.715	1.419	1.849902891162657	draw_card	0.0	columbia_card_task_fmri	15.0	0.8333333333333334	89.0	-70.0	0.1666666666666666	12.0	1.0	2.0	-0.874803178730744	1.419	n/a	stim	s251
351.137	0.448	0.5620241032838662	draw_card	0.0	columbia_card_task_fmri	15.0	0.8181818181818181	89.0	-70.0	0.1818181818181818	12.0	2.0	2.0	0.231058738340252	0.448	n/a	stim	s251
351.589	0.279	-0.983430442170677	draw_card	0.0	columbia_card_task_fmri	15.0	0.8	89.0	-70.0	0.2	12.0	3.0	2.0	1.4464537914113509	0.279	n/a	stim	s251
351.872	0.503	-2.8723193310595665	end_round	0.0	columbia_card_task_fmri	15.0	0.7777777777777778	71.0	-70.0	0.2222222222222222	12.0	4.0	2.0	2.7837541209176067	0.503	3.0	stim	s251
352.38	2.25	n/a	-1.0	n/a	columbia_card_task_fmri	n/a	n/a	-1.0	n/a	n/a	n/a	n/a	n/a	n/a	n/a	n/a	feedback	s251
354.63	0.0	n/a	-1.0	n/a	columbia_card_task_fmri	n/a	n/a	-1.0	n/a	n/a	n/a	n/a	n/a	n/a	n/a	n/a	ITI	s251
354.633	1.731	-0.1834304421706762	draw_card	0.0	columbia_card_task_fmri	16.0	0.8	89.0	-70.0	0.2	15.0	1.0	3.0	1.8462771961095183	1.731	n/a	stim	s251
356.368	0.413	-1.4120018707421058	draw_card	1.0	columbia_card_task_fmri	16.0	0.7857142857142857	89.0	-70.0	0.2142857142857142	15.0	2.0	3.0	2.733927129230544	0.413	2.0	stim	s251
356.786	2.25	n/a	-1.0	n/a	columbia_card_task_fmri	n/a	n/a	-1.0	n/a	n/a	n/a	n/a	n/a	n/a	n/a	n/a	feedback	s251
359.036	0.204	n/a	-1.0	n/a	columbia_card_task_fmri	n/a	n/a	-1.0	n/a	n/a	n/a	n/a	n/a	n/a	n/a	n/a	ITI	s251
359.243	2.114	0.204069557829323	draw_card	0.0	columbia_card_task_fmri	14.0	0.8125	89.0	-65.0	0.1875	16.0	1.0	3.0	-1.717309678502847	2.114	n/a	stim	s251
361.361	0.443	-0.7834304421706759	draw_card	0.0	columbia_card_task_fmri	14.0	0.8	89.0	-65.0	0.2	16.0	2.0	3.0	-0.9523928197866098	0.443	n/a	stim	s251
361.807	0.319	-1.912001870742104	draw_card	0.0	columbia_card_task_fmri	14.0	0.7857142857142857	89.0	-65.0	0.2142857142857142	16.0	3.0	3.0	-0.1370576331404436	0.319	n/a	stim	s251
362.13	0.45	-3.214199672939909	end_round	0.0	columbia_card_task_fmri	14.0	0.7692307692307692	71.0	-65.0	0.2307692307692307	16.0	4.0	3.0	0.73145866693811	0.45	3.0	stim	s251
362.586	2.25	n/a	-1.0	n/a	columbia_card_task_fmri	n/a	n/a	-1.0	n/a	n/a	n/a	n/a	n/a	n/a	n/a	n/a	feedback	s251
364.836	1.02	n/a	-1.0	n/a	columbia_card_task_fmri	n/a	n/a	-1.0	n/a	n/a	n/a	n/a	n/a	n/a	n/a	n/a	ITI	s251
365.861	1.86	-0.0459304421706769	draw_card	1.0	columbia_card_task_fmri	16.0	0.8125	89.0	-75.0	0.1875	16.0	1.0	3.0	2.964230635653692	1.86	1.0	stim	s251
367.725	2.25	n/a	-1.0	n/a	columbia_card_task_fmri	n/a	n/a	-1.0	n/a	n/a	n/a	n/a	n/a	n/a	n/a	n/a	feedback	s251
369.975	0.0	n/a	-1.0	n/a	columbia_card_task_fmri	n/a	n/a	-1.0	n/a	n/a	n/a	n/a	n/a	n/a	n/a	n/a	ITI	s251
369.979	1.278	4.216569557829324	draw_card	0.0	columbia_card_task_fmri	16.0	0.8666666666666667	89.0	-80.0	0.1333333333333333	15.0	1.0	2.0	0.0808144972355506	1.278	n/a	stim	s251
371.26	0.379	3.302283843543611	draw_card	1.0	columbia_card_task_fmri	16.0	0.8571428571428572	89.0	-80.0	0.1428571428571428	15.0	2.0	2.0	1.0396399765091149	0.379	2.0	stim	s251
371.645	2.25	n/a	-1.0	n/a	columbia_card_task_fmri	n/a	n/a	-1.0	n/a	n/a	n/a	n/a	n/a	n/a	n/a	n/a	feedback	s251
373.895	0.0	n/a	-1.0	n/a	columbia_card_task_fmri	n/a	n/a	-1.0	n/a	n/a	n/a	n/a	n/a	n/a	n/a	n/a	ITI	s251
373.899	0.736	5.083236224495991	draw_card	0.0	columbia_card_task_fmri	17.0	0.8666666666666667	89.0	-80.0	0.1333333333333333	15.0	1.0	2.0	0.4205860167625417	0.736	n/a	stim	s251
374.639	0.334	4.159426700686469	draw_card	0.0	columbia_card_task_fmri	17.0	0.8571428571428572	89.0	-80.0	0.1428571428571428	15.0	2.0	2.0	1.389408619370343	0.334	n/a	stim	s251
374.977	0.262	3.0934926347523994	draw_card	0.0	columbia_card_task_fmri	17.0	0.8461538461538461	89.0	-80.0	0.1538461538461538	15.0	3.0	2.0	2.4437384213729345	0.262	n/a	stim	s251
375.244	0.397	1.8499028911626587	end_round	0.0	columbia_card_task_fmri	17.0	0.8333333333333334	71.0	-80.0	0.1666666666666666	15.0	4.0	2.0	3.5953162424493854	0.397	3.0	stim	s251
375.646	2.25	n/a	-1.0	n/a	columbia_card_task_fmri	n/a	n/a	-1.0	n/a	n/a	n/a	n/a	n/a	n/a	n/a	n/a	feedback	s251
377.896	0.068	n/a	-1.0	n/a	columbia_card_task_fmri	n/a	n/a	-1.0	n/a	n/a	n/a	n/a	n/a	n/a	n/a	n/a	ITI	s251
377.968	5.606	1.016569557829323	end_round	0.0	columbia_card_task_fmri	1.0	0.9375	71.0	-15.0	0.0625	16.0	1.0	1.0	-28.56456554357584	5.606	0.0	stim	s251
383.579	2.25	n/a	-1.0	n/a	columbia_card_task_fmri	n/a	n/a	-1.0	n/a	n/a	n/a	n/a	n/a	n/a	n/a	n/a	feedback	s251
385.829	0.476	n/a	-1.0	n/a	columbia_card_task_fmri	n/a	n/a	-1.0	n/a	n/a	n/a	n/a	n/a	n/a	n/a	n/a	ITI	s251
386.311	2.055	4.141569557829323	draw_card	0.0	columbia_card_task_fmri	10.0	0.9375	89.0	-100.0	0.0625	16.0	1.0	1.0	-5.922581088251175	2.055	n/a	stim	s251
388.37	0.431	3.6832362244959898	draw_card	0.0	columbia_card_task_fmri	10.0	0.9333333333333332	89.0	-100.0	0.0666666666666666	16.0	2.0	1.0	-5.111094461465388	0.431	n/a	stim	s251
388.804	0.501	3.159426700686467	draw_card	0.0	columbia_card_task_fmri	10.0	0.9285714285714286	89.0	-100.0	0.0714285714285714	16.0	3.0	1.0	-4.221175203208233	0.501	n/a	stim	s251
389.309	2.273	2.555031096290862	end_round	0.0	columbia_card_task_fmri	10.0	0.9230769230769232	71.0	-100.0	0.0769230769230769	16.0	4.0	1.0	-3.239488270898235	2.273	3.0	stim	s251
391.588	2.25	n/a	-1.0	n/a	columbia_card_task_fmri	n/a	n/a	-1.0	n/a	n/a	n/a	n/a	n/a	n/a	n/a	n/a	feedback	s251
393.838	0.136	n/a	-1.0	n/a	columbia_card_task_fmri	n/a	n/a	-1.0	n/a	n/a	n/a	n/a	n/a	n/a	n/a	n/a	ITI	s251
393.979	1.877	4.766569557829323	draw_card	0.0	columbia_card_task_fmri	15.0	0.875	89.0	-75.0	0.125	16.0	1.0	2.0	-2.7866831655679363	1.877	n/a	stim	s251
395.86	0.295	4.016569557829323	draw_card	0.0	columbia_card_task_fmri	15.0	0.8666666666666667	89.0	-75.0	0.1333333333333333	16.0	2.0	2.0	-1.9577385598718848	0.295	n/a	stim	s251
396.159	0.272	3.159426700686467	draw_card	0.0	columbia_card_task_fmri	15.0	0.8571428571428572	89.0	-75.0	0.1428571428571428	16.0	3.0	2.0	-1.058897986284414	0.272	n/a	stim	s251
396.435	0.405	2.170415711675476	end_round	0.0	columbia_card_task_fmri	15.0	0.8461538461538461	71.0	-75.0	0.1538461538461538	16.0	4.0	2.0	-0.0807225364154007	0.405	3.0	stim	s251
396.844	2.25	n/a	-1.0	n/a	columbia_card_task_fmri	n/a	n/a	-1.0	n/a	n/a	n/a	n/a	n/a	n/a	n/a	n/a	feedback	s251
399.094	0.068	n/a	-1.0	n/a	columbia_card_task_fmri	n/a	n/a	-1.0	n/a	n/a	n/a	n/a	n/a	n/a	n/a	n/a	ITI	s251
399.167	2.11	5.016569557829323	draw_card	0.0	columbia_card_task_fmri	16.0	0.875	89.0	-80.0	0.125	16.0	1.0	2.0	-0.8034537743432253	2.11	n/a	stim	s251
401.281	0.474	4.216569557829324	draw_card	0.0	columbia_card_task_fmri	16.0	0.8666666666666667	89.0	-80.0	0.1333333333333333	16.0	2.0	2.0	0.0808144972355506	0.474	n/a	stim	s251
401.759	0.296	3.302283843543611	draw_card	0.0	columbia_card_task_fmri	16.0	0.8571428571428572	89.0	-80.0	0.1428571428571428	16.0	3.0	2.0	1.0396399765091149	0.296	n/a	stim	s251
402.059	0.599	2.2473387885985527	end_round	0.0	columbia_card_task_fmri	16.0	0.8461538461538461	71.0	-80.0	0.1538461538461538	16.0	4.0	2.0	2.083090902638816	0.599	3.0	stim	s251
402.664	2.25	n/a	-1.0	n/a	columbia_card_task_fmri	n/a	n/a	-1.0	n/a	n/a	n/a	n/a	n/a	n/a	n/a	n/a	feedback	s251
404.914	0.0	n/a	-1.0	n/a	columbia_card_task_fmri	n/a	n/a	-1.0	n/a	n/a	n/a	n/a	n/a	n/a	n/a	n/a	ITI	s251
404.92	1.991	2.204069557829323	draw_card	0.0	columbia_card_task_fmri	4.0	0.6875	89.0	-5.0	0.3125	16.0	1.0	5.0	-28.27505198327885	1.991	n/a	stim	s251
406.914	0.378	2.016569557829324	draw_card	0.0	columbia_card_task_fmri	4.0	0.6666666666666667	89.0	-5.0	0.3333333333333333	16.0	2.0	5.0	-28.20601000322173	0.378	n/a	stim	s251
407.296	0.316	1.8022838435436084	draw_card	0.0	columbia_card_task_fmri	4.0	0.6428571428571428	89.0	-5.0	0.3571428571428571	16.0	3.0	5.0	-28.138124716506844	0.316	n/a	stim	s251
407.617	2.855	1.5550310962908616	draw_card	0.0	columbia_card_task_fmri	4.0	0.6153846153846154	89.0	-5.0	0.3846153846153846	16.0	4.0	5.0	-28.07374159749887	2.855	n/a	stim	s251
410.476	4.552	1.2665695578293226	draw_card	1.0	columbia_card_task_fmri	4.0	0.5833333333333333	89.0	-5.0	0.4166666666666667	16.0	5.0	5.0	-28.01671704344852	4.552	5.0	stim	s251
415.034	2.25	n/a	-1.0	n/a	columbia_card_task_fmri	n/a	n/a	-1.0	n/a	n/a	n/a	n/a	n/a	n/a	n/a	n/a	feedback	s251
417.284	0.0	n/a	-1.0	n/a	columbia_card_task_fmri	n/a	n/a	-1.0	n/a	n/a	n/a	n/a	n/a	n/a	n/a	n/a	ITI	s251
417.289	5.556	-0.6500971088373413	draw_card	0.0	columbia_card_task_fmri	14.0	0.8333333333333334	89.0	-80.0	0.1666666666666666	6.0	1.0	1.0	2.477738150278391	5.556	n/a	stim	s251
422.849	0.401	-3.783430442170676	draw_card	0.0	columbia_card_task_fmri	14.0	0.8	89.0	-80.0	0.2	6.0	2.0	1.0	5.044999619166454	0.401	n/a	stim	s251
423.253	0.597	-8.483430442170677	end_round	0.0	columbia_card_task_fmri	14.0	0.75	71.0	-80.0	0.25	6.0	3.0	1.0	8.147146428795608	0.597	2.0	stim	s251
423.856	2.25	n/a	-1.0	n/a	columbia_card_task_fmri	n/a	n/a	-1.0	n/a	n/a	n/a	n/a	n/a	n/a	n/a	n/a	feedback	s251
426.106	0.204	n/a	-1.0	n/a	columbia_card_task_fmri	n/a	n/a	-1.0	n/a	n/a	n/a	n/a	n/a	n/a	n/a	n/a	ITI	s251
426.315	1.618	1.016569557829323	draw_card	0.0	columbia_card_task_fmri	15.0	0.8333333333333334	89.0	-75.0	0.1666666666666666	6.0	1.0	1.0	0.9876812742462632	1.618	n/a	stim	s251
427.937	0.401	-1.983430442170677	draw_card	1.0	columbia_card_task_fmri	15.0	0.8	89.0	-75.0	0.2	6.0	2.0	1.0	3.445610034027922	0.401	2.0	stim	s251
428.344	2.25	n/a	-1.0	n/a	columbia_card_task_fmri	n/a	n/a	-1.0	n/a	n/a	n/a	n/a	n/a	n/a	n/a	n/a	feedback	s251
430.594	0.204	n/a	-1.0	n/a	columbia_card_task_fmri	n/a	n/a	-1.0	n/a	n/a	n/a	n/a	n/a	n/a	n/a	n/a	ITI	s251
430.802	1.035	2.68323622449599	draw_card	0.0	columbia_card_task_fmri	16.0	0.8333333333333334	89.0	-70.0	0.1666666666666666	6.0	1.0	1.0	-0.5023147053733936	1.035	n/a	stim	s251
431.841	0.408	-0.1834304421706762	draw_card	0.0	columbia_card_task_fmri	16.0	0.8	89.0	-70.0	0.2	6.0	2.0	1.0	1.8462771961095183	0.408	n/a	stim	s251
432.253	0.704	-4.483430442170677	end_round	0.0	columbia_card_task_fmri	16.0	0.75	71.0	-70.0	0.25	6.0	3.0	1.0	4.684225092613353	0.704	2.0	stim	s251
432.963	2.25	n/a	-1.0	n/a	columbia_card_task_fmri	n/a	n/a	-1.0	n/a	n/a	n/a	n/a	n/a	n/a	n/a	n/a	feedback	s251
435.213	0.272	n/a	-1.0	n/a	columbia_card_task_fmri	n/a	n/a	-1.0	n/a	n/a	n/a	n/a	n/a	n/a	n/a	n/a	ITI	s251
435.49	3.277	3.266569557829323	draw_card	0.0	columbia_card_task_fmri	23.0	0.75	89.0	-60.0	0.25	8.0	1.0	2.0	3.385688216595142	3.277	n/a	stim	s251
438.771	0.511	0.3022838435436112	draw_card	0.0	columbia_card_task_fmri	23.0	0.7142857142857143	89.0	-60.0	0.2857142857142857	8.0	2.0	2.0	4.940615839586613	0.511	n/a	stim	s251
439.286	0.925	-3.6500971088373415	draw_card	0.0	columbia_card_task_fmri	23.0	0.6666666666666667	89.0	-60.0	0.3333333333333333	8.0	3.0	2.0	6.571038957003381	0.925	n/a	stim	s251
440.215	0.397	-9.183430442170678	end_round	0.0	columbia_card_task_fmri	23.0	0.6	71.0	-60.0	0.4	8.0	4.0	2.0	8.10549518259075	0.397	3.0	stim	s251
440.619	2.25	n/a	-1.0	n/a	columbia_card_task_fmri	n/a	n/a	-1.0	n/a	n/a	n/a	n/a	n/a	n/a	n/a	n/a	feedback	s251
442.869	0.136	n/a	-1.0	n/a	columbia_card_task_fmri	n/a	n/a	-1.0	n/a	n/a	n/a	n/a	n/a	n/a	n/a	n/a	ITI	s251
443.009	1.273	3.766569557829323	draw_card	1.0	columbia_card_task_fmri	27.0	0.75	89.0	-70.0	0.25	8.0	1.0	2.0	9.445792098926702	1.273	1.0	stim	s251
444.288	2.25	n/a	-1.0	n/a	columbia_card_task_fmri	n/a	n/a	-1.0	n/a	n/a	n/a	n/a	n/a	n/a	n/a	n/a	feedback	s251
446.538	0.204	n/a	-1.0	n/a	columbia_card_task_fmri	n/a	n/a	-1.0	n/a	n/a	n/a	n/a	n/a	n/a	n/a	n/a	ITI	s251
446.747	0.81	-0.9834304421706752	draw_card	0.0	columbia_card_task_fmri	16.0	0.7777777777777778	89.0	-65.0	0.2222222222222222	9.0	1.0	2.0	1.121516881107624	0.81	n/a	stim	s251
447.56	0.519	-3.233430442170677	draw_card	1.0	columbia_card_task_fmri	16.0	0.75	89.0	-65.0	0.25	9.0	2.0	2.0	2.520017580021353	0.519	2.0	stim	s251
448.084	2.25	n/a	-1.0	n/a	columbia_card_task_fmri	n/a	n/a	-1.0	n/a	n/a	n/a	n/a	n/a	n/a	n/a	n/a	feedback	s251
450.334	0.272	n/a	-1.0	n/a	columbia_card_task_fmri	n/a	n/a	-1.0	n/a	n/a	n/a	n/a	n/a	n/a	n/a	n/a	ITI	s251
450.611	0.403	4.216569557829324	draw_card	0.0	columbia_card_task_fmri	13.0	0.9	89.0	-85.0	0.1	10.0	1.0	1.0	-3.151170261102393	0.403	n/a	stim	s251
451.018	1.052	3.127680668940433	draw_card	0.0	columbia_card_task_fmri	13.0	0.8888888888888888	89.0	-85.0	0.1111111111111111	10.0	2.0	1.0	-1.7535388970693084	1.052	n/a	stim	s251
452.074	0.38	1.766569557829323	draw_card	0.0	columbia_card_task_fmri	13.0	0.875	89.0	-85.0	0.125	10.0	3.0	1.0	-0.1423478340382047	0.38	n/a	stim	s251
452.458	0.445	0.0165695578293247	end_round	0.0	columbia_card_task_fmri	13.0	0.8571428571428572	71.0	-85.0	0.1428571428571428	10.0	4.0	1.0	1.7391804940237137	0.445	3.0	stim	s251
452.909	2.25	n/a	-1.0	n/a	columbia_card_task_fmri	n/a	n/a	-1.0	n/a	n/a	n/a	n/a	n/a	n/a	n/a	n/a	feedback	s251
455.159	0.272	n/a	-1.0	n/a	columbia_card_task_fmri	n/a	n/a	-1.0	n/a	n/a	n/a	n/a	n/a	n/a	n/a	n/a	ITI	s251
455.436	1.448	-0.7834304421706759	draw_card	0.0	columbia_card_task_fmri	14.0	0.8	89.0	-65.0	0.2	10.0	1.0	2.0	-0.9523928197866098	1.448	n/a	stim	s251
456.889	0.5	-2.538985997726231	draw_card	0.0	columbia_card_task_fmri	14.0	0.7777777777777778	89.0	-65.0	0.2222222222222222	10.0	2.0	2.0	0.2904256446392779	0.5	n/a	stim	s251
457.393	0.349	-4.733430442170677	draw_card	0.0	columbia_card_task_fmri	14.0	0.75	89.0	-65.0	0.25	10.0	3.0	2.0	1.6543648947449512	0.349	n/a	stim	s251
457.747	0.405	-7.554859013599247	end_round	0.0	columbia_card_task_fmri	14.0	0.7142857142857143	71.0	-65.0	0.2857142857142857	10.0	4.0	2.0	3.1342973750888348	0.405	3.0	stim	s251
458.157	2.25	n/a	-1.0	n/a	columbia_card_task_fmri	n/a	n/a	-1.0	n/a	n/a	n/a	n/a	n/a	n/a	n/a	n/a	feedback	s251
460.407	0.34	n/a	-1.0	n/a	columbia_card_task_fmri	n/a	n/a	-1.0	n/a	n/a	n/a	n/a	n/a	n/a	n/a	n/a	ITI	s251
460.753	1.192	0.6165695578293244	draw_card	0.0	columbia_card_task_fmri	17.0	0.8	89.0	-70.0	0.2	10.0	1.0	2.0	2.2461046578432686	1.192	n/a	stim	s251
461.95	0.472	-1.3167637755040091	draw_card	0.0	columbia_card_task_fmri	17.0	0.7777777777777778	89.0	-70.0	0.2222222222222222	10.0	2.0	2.0	3.6148976083283273	0.472	n/a	stim	s251
462.427	0.891	-3.733430442170677	draw_card	0.0	columbia_card_task_fmri	17.0	0.75	89.0	-70.0	0.25	10.0	3.0	2.0	5.117078395357424	0.891	n/a	stim	s251
463.322	0.395	-6.840573299313535	end_round	0.0	columbia_card_task_fmri	17.0	0.7142857142857143	71.0	-70.0	0.2857142857142857	10.0	4.0	2.0	6.746998393668235	0.395	3.0	stim	s251
463.723	2.25	n/a	-1.0	n/a	columbia_card_task_fmri	n/a	n/a	-1.0	n/a	n/a	n/a	n/a	n/a	n/a	n/a	n/a	feedback	s251
465.973	0.204	n/a	-1.0	n/a	columbia_card_task_fmri	n/a	n/a	-1.0	n/a	n/a	n/a	n/a	n/a	n/a	n/a	n/a	ITI	s251
466.183	1.677	-0.6500971088373431	draw_card	0.0	columbia_card_task_fmri	13.0	0.8333333333333334	89.0	-75.0	0.1666666666666666	12.0	1.0	2.0	0.2426751538717368	1.677	n/a	stim	s251
467.865	0.382	-1.9834304421706788	draw_card	0.0	columbia_card_task_fmri	13.0	0.8181818181818181	89.0	-75.0	0.1818181818181818	12.0	2.0	2.0	1.387605631942158	0.382	n/a	stim	s251
468.252	0.291	-3.583430442170677	draw_card	0.0	columbia_card_task_fmri	13.0	0.8	89.0	-75.0	0.2	12.0	3.0	2.0	2.645936038421844	0.291	n/a	stim	s251
468.547	0.427	-5.538985997726231	end_round	0.0	columbia_card_task_fmri	13.0	0.7777777777777778	71.0	-75.0	0.2222222222222222	12.0	4.0	2.0	4.030475074780071	0.427	3.0	stim	s251
468.98	2.25	n/a	-1.0	n/a	columbia_card_task_fmri	n/a	n/a	-1.0	n/a	n/a	n/a	n/a	n/a	n/a	n/a	n/a	feedback	s251
471.23	0.068	n/a	-1.0	n/a	columbia_card_task_fmri	n/a	n/a	-1.0	n/a	n/a	n/a	n/a	n/a	n/a	n/a	n/a	ITI	s251
471.303	1.599	1.0165695578293248	draw_card	1.0	columbia_card_task_fmri	14.0	0.8333333333333334	89.0	-70.0	0.1666666666666666	12.0	1.0	2.0	-1.2472871431620405	1.599	1.0	stim	s251
472.907	2.25	n/a	-1.0	n/a	columbia_card_task_fmri	n/a	n/a	-1.0	n/a	n/a	n/a	n/a	n/a	n/a	n/a	n/a	feedback	s251
475.157	0.0	n/a	-1.0	n/a	columbia_card_task_fmri	n/a	n/a	-1.0	n/a	n/a	n/a	n/a	n/a	n/a	n/a	n/a	ITI	s251
475.161	0.951	1.0165695578293248	draw_card	0.0	columbia_card_task_fmri	16.0	0.8333333333333334	89.0	-80.0	0.1666666666666666	12.0	1.0	2.0	3.2227870476998746	0.951	n/a	stim	s251
476.116	0.468	-0.4379758967161338	draw_card	0.0	columbia_card_task_fmri	16.0	0.8181818181818181	89.0	-80.0	0.1818181818181818	12.0	2.0	2.0	4.4718946440533	0.468	n/a	stim	s251
476.591	0.347	-2.1834304421706765	draw_card	0.0	columbia_card_task_fmri	16.0	0.8	89.0	-80.0	0.2	12.0	3.0	2.0	5.844713476886604	0.347	n/a	stim	s251
476.942	0.349	-4.316763775504011	end_round	0.0	columbia_card_task_fmri	16.0	0.7777777777777778	71.0	-80.0	0.2222222222222222	12.0	4.0	2.0	7.355216425783347	0.349	3.0	stim	s251
477.298	2.25	n/a	-1.0	n/a	columbia_card_task_fmri	n/a	n/a	-1.0	n/a	n/a	n/a	n/a	n/a	n/a	n/a	n/a	feedback	s251
479.548	0.408	n/a	-1.0	n/a	columbia_card_task_fmri	n/a	n/a	-1.0	n/a	n/a	n/a	n/a	n/a	n/a	n/a	n/a	ITI	s251
479.96	1.775	0.8165695578293237	draw_card	0.0	columbia_card_task_fmri	16.0	0.8	89.0	-65.0	0.2	15.0	1.0	3.0	-0.1527962546409256	1.775	n/a	stim	s251
481.741	0.367	-0.3405732993135328	draw_card	0.0	columbia_card_task_fmri	16.0	0.7857142857142857	89.0	-65.0	0.2142857142857142	15.0	2.0	3.0	0.6832008763569419	0.367	n/a	stim	s251
482.113	0.389	-1.6757381344783704	draw_card	0.0	columbia_card_task_fmri	16.0	0.7692307692307692	89.0	-65.0	0.2307692307692307	15.0	3.0	3.0	1.5737257115092331	0.389	n/a	stim	s251
482.507	0.458	-3.233430442170677	end_round	0.0	columbia_card_task_fmri	16.0	0.75	71.0	-65.0	0.25	15.0	4.0	3.0	2.520017580021353	0.458	3.0	stim	s251
482.97	2.25	n/a	-1.0	n/a	columbia_card_task_fmri	n/a	n/a	-1.0	n/a	n/a	n/a	n/a	n/a	n/a	n/a	n/a	feedback	s251
485.22	0.204	n/a	-1.0	n/a	columbia_card_task_fmri	n/a	n/a	-1.0	n/a	n/a	n/a	n/a	n/a	n/a	n/a	n/a	ITI	s251
485.428	1.367	-0.858430442170677	draw_card	1.0	columbia_card_task_fmri	15.0	0.8125	89.0	-75.0	0.1875	16.0	1.0	3.0	2.5740798000894856	1.367	1.0	stim	s251
486.801	2.25	n/a	-1.0	n/a	columbia_card_task_fmri	n/a	n/a	-1.0	n/a	n/a	n/a	n/a	n/a	n/a	n/a	n/a	feedback	s251
489.051	0.136	n/a	-1.0	n/a	columbia_card_task_fmri	n/a	n/a	-1.0	n/a	n/a	n/a	n/a	n/a	n/a	n/a	n/a	ITI	s251
489.194	0.704	-0.295930442170677	draw_card	0.0	columbia_card_task_fmri	14.0	0.6875	89.0	-35.0	0.3125	16.0	1.0	5.0	-9.833893308743196	0.704	n/a	stim	s251
489.902	0.488	-1.3167637755040091	draw_card	0.0	columbia_card_task_fmri	14.0	0.6666666666666667	89.0	-35.0	0.3333333333333333	16.0	2.0	5.0	-9.44755997337218	0.488	n/a	stim	s251
490.395	0.335	-2.483430442170677	draw_card	1.0	columbia_card_task_fmri	14.0	0.6428571428571428	89.0	-35.0	0.3571428571428571	16.0	3.0	5.0	-9.068029155168	0.335	3.0	stim	s251
490.736	2.25	n/a	-1.0	n/a	columbia_card_task_fmri	n/a	n/a	-1.0	n/a	n/a	n/a	n/a	n/a	n/a	n/a	n/a	feedback	s251
492.986	0.34	n/a	-1.0	n/a	columbia_card_task_fmri	n/a	n/a	-1.0	n/a	n/a	n/a	n/a	n/a	n/a	n/a	n/a	ITI	s251
493.333	1.007	4.88323622449599	draw_card	1.0	columbia_card_task_fmri	16.0	0.8666666666666667	89.0	-75.0	0.1333333333333333	15.0	1.0	2.0	-1.6179893681792272	1.007	1.0	stim	s251
494.346	2.25	n/a	-1.0	n/a	columbia_card_task_fmri	n/a	n/a	-1.0	n/a	n/a	n/a	n/a	n/a	n/a	n/a	n/a	feedback	s251
496.596	0.068	n/a	-1.0	n/a	columbia_card_task_fmri	n/a	n/a	-1.0	n/a	n/a	n/a	n/a	n/a	n/a	n/a	n/a	ITI	s251
496.669	0.685	5.549902891162656	draw_card	1.0	columbia_card_task_fmri	16.0	0.8666666666666667	89.0	-70.0	0.1333333333333333	15.0	1.0	2.0	-3.316692238242929	0.685	1.0	stim	s251
497.361	2.25	n/a	-1.0	n/a	columbia_card_task_fmri	n/a	n/a	-1.0	n/a	n/a	n/a	n/a	n/a	n/a	n/a	n/a	feedback	s251
499.611	0.34	n/a	-1.0	n/a	columbia_card_task_fmri	n/a	n/a	-1.0	n/a	n/a	n/a	n/a	n/a	n/a	n/a	n/a	ITI	s251
499.957	0.826	2.891569557829323	draw_card	0.0	columbia_card_task_fmri	8.0	0.9375	89.0	-90.0	0.0625	16.0	1.0	1.0	-8.82494533325217	0.826	n/a	stim	s251
500.788	0.397	2.4832362244959896	draw_card	0.0	columbia_card_task_fmri	8.0	0.9333333333333332	89.0	-90.0	0.0666666666666666	16.0	2.0	1.0	-8.102117178435865	0.397	n/a	stim	s251
501.191	0.308	2.016569557829324	draw_card	0.0	columbia_card_task_fmri	8.0	0.9285714285714286	89.0	-90.0	0.0714285714285714	16.0	3.0	1.0	-7.3094167716557585	0.308	n/a	stim	s251
501.503	0.382	1.478108019367785	end_round	0.0	columbia_card_task_fmri	8.0	0.9230769230769232	71.0	-90.0	0.0769230769230769	16.0	4.0	1.0	-6.434964187312037	0.382	3.0	stim	s251
501.892	2.25	n/a	-1.0	n/a	columbia_card_task_fmri	n/a	n/a	-1.0	n/a	n/a	n/a	n/a	n/a	n/a	n/a	n/a	feedback	s251
504.142	0.136	n/a	-1.0	n/a	columbia_card_task_fmri	n/a	n/a	-1.0	n/a	n/a	n/a	n/a	n/a	n/a	n/a	n/a	ITI	s251
504.282	1.794	4.454069557829323	draw_card	0.0	columbia_card_task_fmri	10.0	0.9375	89.0	-95.0	0.0625	16.0	1.0	1.0	-7.131965368024858	1.794	n/a	stim	s251
506.08	0.355	4.016569557829324	draw_card	0.0	columbia_card_task_fmri	10.0	0.9333333333333332	89.0	-95.0	0.0666666666666666	16.0	2.0	1.0	-6.357417831630244	0.355	n/a	stim	s251
506.44	0.344	3.516569557829324	draw_card	0.0	columbia_card_task_fmri	10.0	0.9285714285714286	89.0	-95.0	0.0714285714285714	16.0	3.0	1.0	-5.50800442815628	0.344	n/a	stim	s251
506.789	0.585	2.939646480906246	draw_card	0.0	columbia_card_task_fmri	10.0	0.9230769230769232	89.0	-95.0	0.0769230769230769	16.0	4.0	1.0	-4.570996408097056	0.585	n/a	stim	s251
507.378	0.396	2.266569557829323	end_round	0.0	columbia_card_task_fmri	10.0	0.9166666666666666	71.0	-95.0	0.0833333333333333	16.0	5.0	1.0	-3.53047370535624	0.396	4.0	stim	s251
507.78	2.25	n/a	-1.0	n/a	columbia_card_task_fmri	n/a	n/a	-1.0	n/a	n/a	n/a	n/a	n/a	n/a	n/a	n/a	feedback	s251
510.03	0.068	n/a	-1.0	n/a	columbia_card_task_fmri	n/a	n/a	-1.0	n/a	n/a	n/a	n/a	n/a	n/a	n/a	n/a	ITI	s251
510.103	1.588	5.391569557829323	draw_card	0.0	columbia_card_task_fmri	15.0	0.875	89.0	-70.0	0.125	16.0	1.0	2.0	-4.439257521074218	1.588	n/a	stim	s251
511.696	0.434	4.683236224495989	draw_card	1.0	columbia_card_task_fmri	15.0	0.8666666666666667	89.0	-70.0	0.1333333333333333	16.0	2.0	2.0	-3.656419126261056	0.434	2.0	stim	s251
512.136	2.25	n/a	-1.0	n/a	columbia_card_task_fmri	n/a	n/a	-1.0	n/a	n/a	n/a	n/a	n/a	n/a	n/a	n/a	feedback	s251
514.386	0.068	n/a	-1.0	n/a	columbia_card_task_fmri	n/a	n/a	-1.0	n/a	n/a	n/a	n/a	n/a	n/a	n/a	n/a	ITI	s251
514.459	0.651	4.391569557829323	draw_card	0.0	columbia_card_task_fmri	16.0	0.875	89.0	-85.0	0.125	16.0	1.0	2.0	0.8493357039512617	0.651	n/a	stim	s251
515.115	0.335	3.549902891162656	draw_card	1.0	columbia_card_task_fmri	16.0	0.8666666666666667	89.0	-85.0	0.1333333333333333	16.0	2.0	2.0	1.7797043729336792	0.335	2.0	stim	s251
515.457	2.25	n/a	-1.0	n/a	columbia_card_task_fmri	n/a	n/a	-1.0	n/a	n/a	n/a	n/a	n/a	n/a	n/a	n/a	feedback	s251
517.707	0.068	n/a	-1.0	n/a	columbia_card_task_fmri	n/a	n/a	-1.0	n/a	n/a	n/a	n/a	n/a	n/a	n/a	n/a	ITI	s251
