onset	duration	planning	condition	current_position	exp_stage	experiment_exp_id	goal_state	key_press	problem_id	response_time	start_state	trial_id	worker_id
-70.302	0.0	0	n/a	n/a	n/a	ward_and_allport	n/a	32.0	n/a	29.57	n/a	instructions	s251
3.007	6.456	1	UA_with_intermediate	1,0,0,2,0,0,0,0,0	practice	ward_and_allport	1,2,3,0,0,0,0,0,0	71.0	0.0	6.456	1,0,0,2,3,0,0,0,0	to_hand	s251
9.465	1.362	0	UA_with_intermediate	1,0,0,2,0,0,3,0,0	practice	ward_and_allport	1,2,3,0,0,0,0,0,0	82.0	0.0	1.362	1,0,0,2,3,0,0,0,0	to_board	s251
10.829	1.251	0	UA_with_intermediate	1,0,0,0,0,0,3,0,0	practice	ward_and_allport	1,2,3,0,0,0,0,0,0	71.0	0.0	1.251	1,0,0,2,3,0,0,0,0	to_hand	s251
12.082	0.573	0	UA_with_intermediate	1,2,0,0,0,0,3,0,0	practice	ward_and_allport	1,2,3,0,0,0,0,0,0	89.0	0.0	0.573	1,0,0,2,3,0,0,0,0	to_board	s251
12.656	1.054	0	UA_with_intermediate	1,2,0,0,0,0,0,0,0	practice	ward_and_allport	1,2,3,0,0,0,0,0,0	82.0	0.0	1.054	1,0,0,2,3,0,0,0,0	to_hand	s251
13.711	0.805	0	UA_with_intermediate	1,2,3,0,0,0,0,0,0	practice	ward_and_allport	1,2,3,0,0,0,0,0,0	89.0	0.0	0.805	1,0,0,2,3,0,0,0,0	to_board	s251
14.519	1.0	0	UA_with_intermediate	n/a	practice	ward_and_allport	n/a	-1.0	0.0	n/a	n/a	feedback	s251
17.02	3.946	1	UA_with_intermediate	1,0,0,3,0,0,0,0,0	practice	ward_and_allport	1,3,2,0,0,0,0,0,0	89.0	1.0	3.946	1,2,0,3,0,0,0,0,0	to_hand	s251
20.967	0.871	0	UA_with_intermediate	1,0,0,3,0,0,2,0,0	practice	ward_and_allport	1,3,2,0,0,0,0,0,0	82.0	1.0	0.871	1,2,0,3,0,0,0,0,0	to_board	s251
21.841	0.782	0	UA_with_intermediate	1,0,0,0,0,0,2,0,0	practice	ward_and_allport	1,3,2,0,0,0,0,0,0	71.0	1.0	0.782	1,2,0,3,0,0,0,0,0	to_hand	s251
22.624	0.479	0	UA_with_intermediate	1,3,0,0,0,0,2,0,0	practice	ward_and_allport	1,3,2,0,0,0,0,0,0	89.0	1.0	0.479	1,2,0,3,0,0,0,0,0	to_board	s251
23.103	0.622	0	UA_with_intermediate	1,3,0,0,0,0,0,0,0	practice	ward_and_allport	1,3,2,0,0,0,0,0,0	82.0	1.0	0.622	1,2,0,3,0,0,0,0,0	to_hand	s251
23.726	0.537	0	UA_with_intermediate	1,3,2,0,0,0,0,0,0	practice	ward_and_allport	1,3,2,0,0,0,0,0,0	89.0	1.0	0.537	1,2,0,3,0,0,0,0,0	to_board	s251
24.266	1.0	0	UA_with_intermediate	n/a	practice	ward_and_allport	n/a	-1.0	1.0	n/a	n/a	feedback	s251
25.266	1.1	0	UA_with_intermediate	n/a	practice	ward_and_allport	n/a	-1.0	1.0	n/a	n/a	ITI	s251
26.367	3.351	1	UA_without_intermediate	0,0,0,1,2,0,0,0,0	practice	ward_and_allport	3,2,1,0,0,0,0,0,0	82.0	2.0	3.351	0,0,0,1,2,0,3,0,0	to_hand	s251
29.719	0.707	0	UA_without_intermediate	3,0,0,1,2,0,0,0,0	practice	ward_and_allport	3,2,1,0,0,0,0,0,0	89.0	2.0	0.707	0,0,0,1,2,0,3,0,0	to_board	s251
30.429	0.751	0	UA_without_intermediate	3,0,0,1,0,0,0,0,0	practice	ward_and_allport	3,2,1,0,0,0,0,0,0	71.0	2.0	0.751	0,0,0,1,2,0,3,0,0	to_hand	s251
31.182	0.443	0	UA_without_intermediate	3,2,0,1,0,0,0,0,0	practice	ward_and_allport	3,2,1,0,0,0,0,0,0	89.0	2.0	0.443	0,0,0,1,2,0,3,0,0	to_board	s251
31.627	0.905	0	UA_without_intermediate	3,2,0,0,0,0,0,0,0	practice	ward_and_allport	3,2,1,0,0,0,0,0,0	71.0	2.0	0.905	0,0,0,1,2,0,3,0,0	to_hand	s251
32.532	0.338	0	UA_without_intermediate	3,2,1,0,0,0,0,0,0	practice	ward_and_allport	3,2,1,0,0,0,0,0,0	89.0	2.0	0.338	0,0,0,1,2,0,3,0,0	to_board	s251
32.873	1.0	0	UA_without_intermediate	n/a	practice	ward_and_allport	n/a	-1.0	2.0	n/a	n/a	feedback	s251
33.873	1.2	0	UA_without_intermediate	n/a	practice	ward_and_allport	n/a	-1.0	2.0	n/a	n/a	ITI	s251
35.075	3.701	1	UA_without_intermediate	0,0,0,1,0,0,3,0,0	practice	ward_and_allport	2,3,1,0,0,0,0,0,0	71.0	3.0	3.701	0,0,0,1,2,0,3,0,0	to_hand	s251
38.777	0.506	0	UA_without_intermediate	2,0,0,1,0,0,3,0,0	practice	ward_and_allport	2,3,1,0,0,0,0,0,0	89.0	3.0	0.506	0,0,0,1,2,0,3,0,0	to_board	s251
39.284	1.241	0	UA_without_intermediate	2,0,0,1,0,0,0,0,0	practice	ward_and_allport	2,3,1,0,0,0,0,0,0	82.0	3.0	1.241	0,0,0,1,2,0,3,0,0	to_hand	s251
40.526	0.826	0	UA_without_intermediate	2,3,0,1,0,0,0,0,0	practice	ward_and_allport	2,3,1,0,0,0,0,0,0	89.0	3.0	0.826	0,0,0,1,2,0,3,0,0	to_board	s251
41.354	0.78	0	UA_without_intermediate	2,3,0,0,0,0,0,0,0	practice	ward_and_allport	2,3,1,0,0,0,0,0,0	71.0	3.0	0.78	0,0,0,1,2,0,3,0,0	to_hand	s251
42.135	0.441	0	UA_without_intermediate	2,3,1,0,0,0,0,0,0	practice	ward_and_allport	2,3,1,0,0,0,0,0,0	89.0	3.0	0.441	0,0,0,1,2,0,3,0,0	to_board	s251
42.58	1.0	0	UA_without_intermediate	n/a	practice	ward_and_allport	n/a	-1.0	3.0	n/a	n/a	feedback	s251
43.58	1.0	0	UA_without_intermediate	n/a	practice	ward_and_allport	n/a	-1.0	3.0	n/a	n/a	ITI	s251
46.584	3.914	1	PA_with_intermediate	0,0,0,0,0,0,1,2,0	test	ward_and_allport	0,0,0,2,0,0,1,3,0	82.0	0.0	3.914	0,0,0,0,0,0,1,2,3	to_hand	s251
50.499	0.541	0	PA_with_intermediate	3,0,0,0,0,0,1,2,0	test	ward_and_allport	0,0,0,2,0,0,1,3,0	89.0	0.0	0.541	0,0,0,0,0,0,1,2,3	to_board	s251
51.042	3.961	0	PA_with_intermediate	3,0,0,0,0,0,1,0,0	test	ward_and_allport	0,0,0,2,0,0,1,3,0	82.0	0.0	3.961	0,0,0,0,0,0,1,2,3	to_hand	s251
55.003	0.577	0	PA_with_intermediate	3,0,0,2,0,0,1,0,0	test	ward_and_allport	0,0,0,2,0,0,1,3,0	71.0	0.0	0.577	0,0,0,0,0,0,1,2,3	to_board	s251
55.582	0.801	0	PA_with_intermediate	3,0,0,2,0,0,0,0,0	test	ward_and_allport	0,0,0,2,0,0,1,3,0	82.0	0.0	0.801	0,0,0,0,0,0,1,2,3	to_hand	s251
56.385	4.357	0	PA_with_intermediate	3,0,0,2,0,0,1,0,0	test	ward_and_allport	0,0,0,2,0,0,1,3,0	82.0	0.0	4.357	0,0,0,0,0,0,1,2,3	to_board	s251
60.744	1.314	0	PA_with_intermediate	0,0,0,2,0,0,1,0,0	test	ward_and_allport	0,0,0,2,0,0,1,3,0	89.0	0.0	1.314	0,0,0,0,0,0,1,2,3	to_hand	s251
62.059	0.939	0	PA_with_intermediate	0,0,0,2,0,0,1,3,0	test	ward_and_allport	0,0,0,2,0,0,1,3,0	82.0	0.0	0.939	0,0,0,0,0,0,1,2,3	to_board	s251
63.001	1.0	0	PA_with_intermediate	n/a	test	ward_and_allport	n/a	-1.0	0.0	n/a	n/a	feedback	s251
64.001	1.408	0	PA_with_intermediate	n/a	test	ward_and_allport	n/a	-1.0	0.0	n/a	n/a	ITI	s251
65.411	3.257	1	PA_without_intermediate	0,0,0,1,2,0,0,0,0	test	ward_and_allport	3,2,0,0,0,0,1,0,0	71.0	1.0	3.257	0,0,0,1,2,3,0,0,0	to_hand	s251
68.669	0.499	0	PA_without_intermediate	3,0,0,1,2,0,0,0,0	test	ward_and_allport	3,2,0,0,0,0,1,0,0	89.0	1.0	0.499	0,0,0,1,2,3,0,0,0	to_board	s251
69.171	0.809	0	PA_without_intermediate	3,0,0,1,0,0,0,0,0	test	ward_and_allport	3,2,0,0,0,0,1,0,0	71.0	1.0	0.809	0,0,0,1,2,3,0,0,0	to_hand	s251
69.982	0.751	0	PA_without_intermediate	3,2,0,1,0,0,0,0,0	test	ward_and_allport	3,2,0,0,0,0,1,0,0	89.0	1.0	0.751	0,0,0,1,2,3,0,0,0	to_board	s251
70.735	1.204	0	PA_without_intermediate	3,2,0,0,0,0,0,0,0	test	ward_and_allport	3,2,0,0,0,0,1,0,0	71.0	1.0	1.204	0,0,0,1,2,3,0,0,0	to_hand	s251
71.94	0.419	0	PA_without_intermediate	3,2,0,0,0,0,1,0,0	test	ward_and_allport	3,2,0,0,0,0,1,0,0	82.0	1.0	0.419	0,0,0,1,2,3,0,0,0	to_board	s251
72.361	1.0	0	PA_without_intermediate	n/a	test	ward_and_allport	n/a	-1.0	1.0	n/a	n/a	feedback	s251
73.361	1.68	0	PA_without_intermediate	n/a	test	ward_and_allport	n/a	-1.0	1.0	n/a	n/a	ITI	s251
75.044	3.596	1	PA_with_intermediate	0,0,0,1,2,0,0,0,0	test	ward_and_allport	2,3,0,1,0,0,0,0,0	71.0	2.0	3.596	0,0,0,1,2,3,0,0,0	to_hand	s251
78.641	0.592	0	PA_with_intermediate	0,0,0,1,2,0,3,0,0	test	ward_and_allport	2,3,0,1,0,0,0,0,0	82.0	2.0	0.592	0,0,0,1,2,3,0,0,0	to_board	s251
79.235	0.596	0	PA_with_intermediate	0,0,0,1,0,0,3,0,0	test	ward_and_allport	2,3,0,1,0,0,0,0,0	71.0	2.0	0.596	0,0,0,1,2,3,0,0,0	to_hand	s251
79.832	0.546	0	PA_with_intermediate	2,0,0,1,0,0,3,0,0	test	ward_and_allport	2,3,0,1,0,0,0,0,0	89.0	2.0	0.546	0,0,0,1,2,3,0,0,0	to_board	s251
80.381	1.961	0	PA_with_intermediate	2,0,0,1,0,0,0,0,0	test	ward_and_allport	2,3,0,1,0,0,0,0,0	82.0	2.0	1.961	0,0,0,1,2,3,0,0,0	to_hand	s251
82.343	0.928	0	PA_with_intermediate	2,3,0,1,0,0,0,0,0	test	ward_and_allport	2,3,0,1,0,0,0,0,0	89.0	2.0	0.928	0,0,0,1,2,3,0,0,0	to_board	s251
83.275	1.0	0	PA_with_intermediate	n/a	test	ward_and_allport	n/a	-1.0	2.0	n/a	n/a	feedback	s251
84.275	3.72	0	PA_with_intermediate	n/a	test	ward_and_allport	n/a	-1.0	2.0	n/a	n/a	ITI	s251
87.997	3.023	1	PA_without_intermediate	0,0,0,0,0,0,1,2,0	test	ward_and_allport	2,0,0,3,1,0,0,0,0	82.0	3.0	3.023	0,0,0,0,0,0,1,2,3	to_hand	s251
91.022	0.555	0	PA_without_intermediate	0,0,0,3,0,0,1,2,0	test	ward_and_allport	2,0,0,3,1,0,0,0,0	71.0	3.0	0.555	0,0,0,0,0,0,1,2,3	to_board	s251
91.58	1.289	0	PA_without_intermediate	0,0,0,3,0,0,1,0,0	test	ward_and_allport	2,0,0,3,1,0,0,0,0	82.0	3.0	1.289	0,0,0,0,0,0,1,2,3	to_hand	s251
92.87	0.618	0	PA_without_intermediate	2,0,0,3,0,0,1,0,0	test	ward_and_allport	2,0,0,3,1,0,0,0,0	89.0	3.0	0.618	0,0,0,0,0,0,1,2,3	to_board	s251
93.49	0.934	0	PA_without_intermediate	2,0,0,3,0,0,0,0,0	test	ward_and_allport	2,0,0,3,1,0,0,0,0	82.0	3.0	0.934	0,0,0,0,0,0,1,2,3	to_hand	s251
94.425	0.707	0	PA_without_intermediate	2,0,0,3,1,0,0,0,0	test	ward_and_allport	2,0,0,3,1,0,0,0,0	71.0	3.0	0.707	0,0,0,0,0,0,1,2,3	to_board	s251
95.136	1.0	0	PA_without_intermediate	n/a	test	ward_and_allport	n/a	-1.0	3.0	n/a	n/a	feedback	s251
96.136	2.224	0	PA_without_intermediate	n/a	test	ward_and_allport	n/a	-1.0	3.0	n/a	n/a	ITI	s251
98.362	3.191	1	PA_without_intermediate	0,0,0,0,0,0,1,2,0	test	ward_and_allport	3,2,0,1,0,0,0,0,0	82.0	4.0	3.191	0,0,0,0,0,0,1,2,3	to_hand	s251
101.555	0.587	0	PA_without_intermediate	3,0,0,0,0,0,1,2,0	test	ward_and_allport	3,2,0,1,0,0,0,0,0	89.0	4.0	0.587	0,0,0,0,0,0,1,2,3	to_board	s251
102.145	0.932	0	PA_without_intermediate	3,0,0,0,0,0,1,0,0	test	ward_and_allport	3,2,0,1,0,0,0,0,0	82.0	4.0	0.932	0,0,0,0,0,0,1,2,3	to_hand	s251
103.078	0.943	0	PA_without_intermediate	3,2,0,0,0,0,1,0,0	test	ward_and_allport	3,2,0,1,0,0,0,0,0	89.0	4.0	0.943	0,0,0,0,0,0,1,2,3	to_board	s251
104.023	1.291	0	PA_without_intermediate	3,2,0,0,0,0,0,0,0	test	ward_and_allport	3,2,0,1,0,0,0,0,0	82.0	4.0	1.291	0,0,0,0,0,0,1,2,3	to_hand	s251
105.314	0.552	0	PA_without_intermediate	3,2,0,1,0,0,0,0,0	test	ward_and_allport	3,2,0,1,0,0,0,0,0	71.0	4.0	0.552	0,0,0,0,0,0,1,2,3	to_board	s251
105.869	1.0	0	PA_without_intermediate	n/a	test	ward_and_allport	n/a	-1.0	4.0	n/a	n/a	feedback	s251
106.869	1.272	0	PA_without_intermediate	n/a	test	ward_and_allport	n/a	-1.0	4.0	n/a	n/a	ITI	s251
108.144	3.581	1	PA_with_intermediate	0,0,0,0,0,0,1,2,0	test	ward_and_allport	2,3,0,0,0,0,1,0,0	82.0	5.0	3.581	0,0,0,0,0,0,1,2,3	to_hand	s251
111.726	0.553	0	PA_with_intermediate	0,0,0,3,0,0,1,2,0	test	ward_and_allport	2,3,0,0,0,0,1,0,0	71.0	5.0	0.553	0,0,0,0,0,0,1,2,3	to_board	s251
112.281	0.852	0	PA_with_intermediate	0,0,0,3,0,0,1,0,0	test	ward_and_allport	2,3,0,0,0,0,1,0,0	82.0	5.0	0.852	0,0,0,0,0,0,1,2,3	to_hand	s251
113.134	0.932	0	PA_with_intermediate	2,0,0,3,0,0,1,0,0	test	ward_and_allport	2,3,0,0,0,0,1,0,0	89.0	5.0	0.932	0,0,0,0,0,0,1,2,3	to_board	s251
114.069	0.543	0	PA_with_intermediate	2,0,0,0,0,0,1,0,0	test	ward_and_allport	2,3,0,0,0,0,1,0,0	71.0	5.0	0.543	0,0,0,0,0,0,1,2,3	to_hand	s251
114.613	0.59	0	PA_with_intermediate	2,3,0,0,0,0,1,0,0	test	ward_and_allport	2,3,0,0,0,0,1,0,0	89.0	5.0	0.59	0,0,0,0,0,0,1,2,3	to_board	s251
115.207	1.0	0	PA_with_intermediate	n/a	test	ward_and_allport	n/a	-1.0	5.0	n/a	n/a	feedback	s251
116.207	2.632	0	PA_with_intermediate	n/a	test	ward_and_allport	n/a	-1.0	5.0	n/a	n/a	ITI	s251
118.842	3.478	1	PA_without_intermediate	0,0,0,1,2,0,0,0,0	test	ward_and_allport	2,0,0,0,0,0,3,1,0	71.0	6.0	3.478	0,0,0,1,2,3,0,0,0	to_hand	s251
122.321	0.466	0	PA_without_intermediate	0,0,0,1,2,0,3,0,0	test	ward_and_allport	2,0,0,0,0,0,3,1,0	82.0	6.0	0.466	0,0,0,1,2,3,0,0,0	to_board	s251
122.79	1.822	0	PA_without_intermediate	0,0,0,1,0,0,3,0,0	test	ward_and_allport	2,0,0,0,0,0,3,1,0	71.0	6.0	1.822	0,0,0,1,2,3,0,0,0	to_hand	s251
124.613	0.48	0	PA_without_intermediate	2,0,0,1,0,0,3,0,0	test	ward_and_allport	2,0,0,0,0,0,3,1,0	89.0	6.0	0.48	0,0,0,1,2,3,0,0,0	to_board	s251
125.097	0.894	0	PA_without_intermediate	2,0,0,0,0,0,3,0,0	test	ward_and_allport	2,0,0,0,0,0,3,1,0	71.0	6.0	0.894	0,0,0,1,2,3,0,0,0	to_hand	s251
125.993	0.855	0	PA_without_intermediate	2,0,0,0,0,0,3,1,0	test	ward_and_allport	2,0,0,0,0,0,3,1,0	82.0	6.0	0.855	0,0,0,1,2,3,0,0,0	to_board	s251
126.852	1.0	0	PA_without_intermediate	n/a	test	ward_and_allport	n/a	-1.0	6.0	n/a	n/a	feedback	s251
127.852	1.408	0	PA_without_intermediate	n/a	test	ward_and_allport	n/a	-1.0	6.0	n/a	n/a	ITI	s251
129.264	3.441	1	PA_without_intermediate	1,2,0,0,0,0,0,0,0	test	ward_and_allport	0,0,0,2,0,0,3,1,0	89.0	7.0	3.441	1,2,3,0,0,0,0,0,0	to_hand	s251
132.705	0.517	0	PA_without_intermediate	1,2,0,0,0,0,3,0,0	test	ward_and_allport	0,0,0,2,0,0,3,1,0	82.0	7.0	0.517	1,2,3,0,0,0,0,0,0	to_board	s251
133.225	1.629	0	PA_without_intermediate	1,0,0,0,0,0,3,0,0	test	ward_and_allport	0,0,0,2,0,0,3,1,0	89.0	7.0	1.629	1,2,3,0,0,0,0,0,0	to_hand	s251
134.856	0.385	0	PA_without_intermediate	1,0,0,2,0,0,3,0,0	test	ward_and_allport	0,0,0,2,0,0,3,1,0	71.0	7.0	0.385	1,2,3,0,0,0,0,0,0	to_board	s251
135.243	0.455	0	PA_without_intermediate	0,0,0,2,0,0,3,0,0	test	ward_and_allport	0,0,0,2,0,0,3,1,0	89.0	7.0	0.455	1,2,3,0,0,0,0,0,0	to_hand	s251
135.699	0.536	0	PA_without_intermediate	0,0,0,2,0,0,3,1,0	test	ward_and_allport	0,0,0,2,0,0,3,1,0	82.0	7.0	0.536	1,2,3,0,0,0,0,0,0	to_board	s251
136.24	1.0	0	PA_without_intermediate	n/a	test	ward_and_allport	n/a	-1.0	7.0	n/a	n/a	feedback	s251
137.24	1.0	0	PA_without_intermediate	n/a	test	ward_and_allport	n/a	-1.0	7.0	n/a	n/a	ITI	s251
138.243	6.037	1	PA_with_intermediate	1,2,0,0,0,0,0,0,0	test	ward_and_allport	1,0,0,2,3,0,0,0,0	89.0	8.0	6.037	1,2,3,0,0,0,0,0,0	to_hand	s251
144.281	1.088	0	PA_with_intermediate	1,2,0,0,0,0,3,0,0	test	ward_and_allport	1,0,0,2,3,0,0,0,0	82.0	8.0	1.088	1,2,3,0,0,0,0,0,0	to_board	s251
145.373	1.539	0	PA_with_intermediate	1,0,0,0,0,0,3,0,0	test	ward_and_allport	1,0,0,2,3,0,0,0,0	89.0	8.0	1.539	1,2,3,0,0,0,0,0,0	to_hand	s251
146.913	0.591	0	PA_with_intermediate	1,0,0,2,0,0,3,0,0	test	ward_and_allport	1,0,0,2,3,0,0,0,0	71.0	8.0	0.591	1,2,3,0,0,0,0,0,0	to_board	s251
147.507	3.021	0	PA_with_intermediate	1,0,0,2,0,0,0,0,0	test	ward_and_allport	1,0,0,2,3,0,0,0,0	82.0	8.0	3.021	1,2,3,0,0,0,0,0,0	to_hand	s251
150.529	0.567	0	PA_with_intermediate	1,0,0,2,3,0,0,0,0	test	ward_and_allport	1,0,0,2,3,0,0,0,0	71.0	8.0	0.567	1,2,3,0,0,0,0,0,0	to_board	s251
151.101	1.0	0	PA_with_intermediate	n/a	test	ward_and_allport	n/a	-1.0	8.0	n/a	n/a	feedback	s251
152.101	1.0	0	PA_with_intermediate	n/a	test	ward_and_allport	n/a	-1.0	8.0	n/a	n/a	ITI	s251
153.106	6.008	1	PA_with_intermediate	1,2,0,0,0,0,0,0,0	test	ward_and_allport	1,3,0,0,0,0,2,0,0	89.0	9.0	6.008	1,2,3,0,0,0,0,0,0	to_hand	s251
159.114	0.546	0	PA_with_intermediate	1,2,0,3,0,0,0,0,0	test	ward_and_allport	1,3,0,0,0,0,2,0,0	71.0	9.0	0.546	1,2,3,0,0,0,0,0,0	to_board	s251
159.663	3.419	0	PA_with_intermediate	1,0,0,3,0,0,0,0,0	test	ward_and_allport	1,3,0,0,0,0,2,0,0	89.0	9.0	3.419	1,2,3,0,0,0,0,0,0	to_hand	s251
163.082	0.572	0	PA_with_intermediate	1,0,0,3,0,0,2,0,0	test	ward_and_allport	1,3,0,0,0,0,2,0,0	82.0	9.0	0.572	1,2,3,0,0,0,0,0,0	to_board	s251
163.658	3.237	0	PA_with_intermediate	1,0,0,0,0,0,2,0,0	test	ward_and_allport	1,3,0,0,0,0,2,0,0	71.0	9.0	3.237	1,2,3,0,0,0,0,0,0	to_hand	s251
166.895	0.648	0	PA_with_intermediate	1,3,0,0,0,0,2,0,0	test	ward_and_allport	1,3,0,0,0,0,2,0,0	89.0	9.0	0.648	1,2,3,0,0,0,0,0,0	to_board	s251
167.548	1.0	0	PA_with_intermediate	n/a	test	ward_and_allport	n/a	-1.0	9.0	n/a	n/a	feedback	s251
168.548	1.0	0	PA_with_intermediate	n/a	test	ward_and_allport	n/a	-1.0	9.0	n/a	n/a	ITI	s251
169.553	5.22	1	PA_with_intermediate	1,2,0,0,0,0,0,0,0	test	ward_and_allport	1,3,0,0,0,0,2,0,0	89.0	10.0	5.22	1,2,3,0,0,0,0,0,0	to_hand	s251
174.774	0.995	0	PA_with_intermediate	1,2,0,3,0,0,0,0,0	test	ward_and_allport	1,3,0,0,0,0,2,0,0	71.0	10.0	0.995	1,2,3,0,0,0,0,0,0	to_board	s251
175.775	0.565	0	PA_with_intermediate	1,0,0,3,0,0,0,0,0	test	ward_and_allport	1,3,0,0,0,0,2,0,0	89.0	10.0	0.565	1,2,3,0,0,0,0,0,0	to_hand	s251
176.34	0.49	0	PA_with_intermediate	1,0,0,3,0,0,2,0,0	test	ward_and_allport	1,3,0,0,0,0,2,0,0	82.0	10.0	0.49	1,2,3,0,0,0,0,0,0	to_board	s251
176.834	0.841	0	PA_with_intermediate	1,0,0,0,0,0,2,0,0	test	ward_and_allport	1,3,0,0,0,0,2,0,0	71.0	10.0	0.841	1,2,3,0,0,0,0,0,0	to_hand	s251
177.676	0.425	0	PA_with_intermediate	1,3,0,0,0,0,2,0,0	test	ward_and_allport	1,3,0,0,0,0,2,0,0	89.0	10.0	0.425	1,2,3,0,0,0,0,0,0	to_board	s251
178.107	1.0	0	PA_with_intermediate	n/a	test	ward_and_allport	n/a	-1.0	10.0	n/a	n/a	feedback	s251
179.107	1.408	0	PA_with_intermediate	n/a	test	ward_and_allport	n/a	-1.0	10.0	n/a	n/a	ITI	s251
180.52	3.25	1	PA_without_intermediate	0,0,0,0,0,0,1,2,0	test	ward_and_allport	1,0,0,3,2,0,0,0,0	82.0	11.0	3.25	0,0,0,0,0,0,1,2,3	to_hand	s251
183.772	0.822	0	PA_without_intermediate	0,0,0,3,0,0,1,2,0	test	ward_and_allport	1,0,0,3,2,0,0,0,0	71.0	11.0	0.822	0,0,0,0,0,0,1,2,3	to_board	s251
184.598	1.204	0	PA_without_intermediate	0,0,0,3,0,0,1,0,0	test	ward_and_allport	1,0,0,3,2,0,0,0,0	82.0	11.0	1.204	0,0,0,0,0,0,1,2,3	to_hand	s251
185.802	0.533	0	PA_without_intermediate	0,0,0,3,2,0,1,0,0	test	ward_and_allport	1,0,0,3,2,0,0,0,0	71.0	11.0	0.533	0,0,0,0,0,0,1,2,3	to_board	s251
186.34	0.458	0	PA_without_intermediate	0,0,0,3,2,0,0,0,0	test	ward_and_allport	1,0,0,3,2,0,0,0,0	82.0	11.0	0.458	0,0,0,0,0,0,1,2,3	to_hand	s251
186.799	0.459	0	PA_without_intermediate	1,0,0,3,2,0,0,0,0	test	ward_and_allport	1,0,0,3,2,0,0,0,0	89.0	11.0	0.459	0,0,0,0,0,0,1,2,3	to_board	s251
187.263	1.0	0	PA_without_intermediate	n/a	test	ward_and_allport	n/a	-1.0	11.0	n/a	n/a	feedback	s251
188.263	1.816	0	PA_without_intermediate	n/a	test	ward_and_allport	n/a	-1.0	11.0	n/a	n/a	ITI	s251
190.083	4.325	1	PA_with_intermediate	0,0,0,0,0,0,1,2,0	test	ward_and_allport	0,0,0,2,0,0,1,3,0	82.0	12.0	4.325	0,0,0,0,0,0,1,2,3	to_hand	s251
194.409	1.601	0	PA_with_intermediate	3,0,0,0,0,0,1,2,0	test	ward_and_allport	0,0,0,2,0,0,1,3,0	89.0	12.0	1.601	0,0,0,0,0,0,1,2,3	to_board	s251
196.014	0.574	0	PA_with_intermediate	3,0,0,0,0,0,1,0,0	test	ward_and_allport	0,0,0,2,0,0,1,3,0	82.0	12.0	0.574	0,0,0,0,0,0,1,2,3	to_hand	s251
196.59	0.498	0	PA_with_intermediate	3,0,0,2,0,0,1,0,0	test	ward_and_allport	0,0,0,2,0,0,1,3,0	71.0	12.0	0.498	0,0,0,0,0,0,1,2,3	to_board	s251
197.091	0.415	0	PA_with_intermediate	0,0,0,2,0,0,1,0,0	test	ward_and_allport	0,0,0,2,0,0,1,3,0	89.0	12.0	0.415	0,0,0,0,0,0,1,2,3	to_hand	s251
197.507	0.476	0	PA_with_intermediate	0,0,0,2,0,0,1,3,0	test	ward_and_allport	0,0,0,2,0,0,1,3,0	82.0	12.0	0.476	0,0,0,0,0,0,1,2,3	to_board	s251
197.988	1.0	0	PA_with_intermediate	n/a	test	ward_and_allport	n/a	-1.0	12.0	n/a	n/a	feedback	s251
198.988	3.176	0	PA_with_intermediate	n/a	test	ward_and_allport	n/a	-1.0	12.0	n/a	n/a	ITI	s251
202.169	6.926	1	PA_with_intermediate	0,0,0,1,2,0,0,0,0	test	ward_and_allport	0,0,0,1,3,0,2,0,0	71.0	13.0	6.926	0,0,0,1,2,3,0,0,0	to_hand	s251
209.096	0.502	0	PA_with_intermediate	3,0,0,1,2,0,0,0,0	test	ward_and_allport	0,0,0,1,3,0,2,0,0	89.0	13.0	0.502	0,0,0,1,2,3,0,0,0	to_board	s251
209.602	0.457	0	PA_with_intermediate	3,0,0,1,0,0,0,0,0	test	ward_and_allport	0,0,0,1,3,0,2,0,0	71.0	13.0	0.457	0,0,0,1,2,3,0,0,0	to_hand	s251
210.061	0.432	0	PA_with_intermediate	3,0,0,1,0,0,2,0,0	test	ward_and_allport	0,0,0,1,3,0,2,0,0	82.0	13.0	0.432	0,0,0,1,2,3,0,0,0	to_board	s251
210.496	1.317	0	PA_with_intermediate	0,0,0,1,0,0,2,0,0	test	ward_and_allport	0,0,0,1,3,0,2,0,0	89.0	13.0	1.317	0,0,0,1,2,3,0,0,0	to_hand	s251
211.815	0.577	0	PA_with_intermediate	0,0,0,1,3,0,2,0,0	test	ward_and_allport	0,0,0,1,3,0,2,0,0	71.0	13.0	0.577	0,0,0,1,2,3,0,0,0	to_board	s251
212.397	1.0	0	PA_with_intermediate	n/a	test	ward_and_allport	n/a	-1.0	13.0	n/a	n/a	feedback	s251
213.397	2.36	0	PA_with_intermediate	n/a	test	ward_and_allport	n/a	-1.0	13.0	n/a	n/a	ITI	s251
215.76	4.045	1	PA_with_intermediate	1,2,0,0,0,0,0,0,0	test	ward_and_allport	1,0,0,0,0,0,2,3,0	89.0	14.0	4.045	1,2,3,0,0,0,0,0,0	to_hand	s251
219.806	0.404	0	PA_with_intermediate	1,2,0,3,0,0,0,0,0	test	ward_and_allport	1,0,0,0,0,0,2,3,0	71.0	14.0	0.404	1,2,3,0,0,0,0,0,0	to_board	s251
220.214	0.63	0	PA_with_intermediate	1,0,0,3,0,0,0,0,0	test	ward_and_allport	1,0,0,0,0,0,2,3,0	89.0	14.0	0.63	1,2,3,0,0,0,0,0,0	to_hand	s251
220.844	0.445	0	PA_with_intermediate	1,0,0,3,0,0,2,0,0	test	ward_and_allport	1,0,0,0,0,0,2,3,0	82.0	14.0	0.445	1,2,3,0,0,0,0,0,0	to_board	s251
221.294	0.719	0	PA_with_intermediate	1,0,0,0,0,0,2,0,0	test	ward_and_allport	1,0,0,0,0,0,2,3,0	71.0	14.0	0.719	1,2,3,0,0,0,0,0,0	to_hand	s251
222.013	0.671	0	PA_with_intermediate	1,0,0,0,0,0,2,3,0	test	ward_and_allport	1,0,0,0,0,0,2,3,0	82.0	14.0	0.671	1,2,3,0,0,0,0,0,0	to_board	s251
222.689	1.0	0	PA_with_intermediate	n/a	test	ward_and_allport	n/a	-1.0	14.0	n/a	n/a	feedback	s251
223.689	1.0	0	PA_with_intermediate	n/a	test	ward_and_allport	n/a	-1.0	14.0	n/a	n/a	ITI	s251
229.695	4.387	1	PA_without_intermediate	1,2,0,0,0,0,0,0,0	test	ward_and_allport	0,0,0,2,0,0,3,1,0	89.0	15.0	4.387	1,2,3,0,0,0,0,0,0	to_hand	s251
234.083	0.504	0	PA_without_intermediate	1,2,0,0,0,0,3,0,0	test	ward_and_allport	0,0,0,2,0,0,3,1,0	82.0	15.0	0.504	1,2,3,0,0,0,0,0,0	to_board	s251
234.592	1.083	0	PA_without_intermediate	1,0,0,0,0,0,3,0,0	test	ward_and_allport	0,0,0,2,0,0,3,1,0	89.0	15.0	1.083	1,2,3,0,0,0,0,0,0	to_hand	s251
235.676	0.475	0	PA_without_intermediate	1,0,0,2,0,0,3,0,0	test	ward_and_allport	0,0,0,2,0,0,3,1,0	71.0	15.0	0.475	1,2,3,0,0,0,0,0,0	to_board	s251
236.155	0.399	0	PA_without_intermediate	0,0,0,2,0,0,3,0,0	test	ward_and_allport	0,0,0,2,0,0,3,1,0	89.0	15.0	0.399	1,2,3,0,0,0,0,0,0	to_hand	s251
236.556	0.368	0	PA_without_intermediate	0,0,0,2,0,0,3,1,0	test	ward_and_allport	0,0,0,2,0,0,3,1,0	82.0	15.0	0.368	1,2,3,0,0,0,0,0,0	to_board	s251
236.93	1.0	0	PA_without_intermediate	n/a	test	ward_and_allport	n/a	-1.0	15.0	n/a	n/a	feedback	s251
237.93	1.408	0	PA_without_intermediate	n/a	test	ward_and_allport	n/a	-1.0	15.0	n/a	n/a	ITI	s251
239.342	4.163	1	PA_with_intermediate	0,0,0,0,0,0,1,2,0	test	ward_and_allport	2,3,0,0,0,0,1,0,0	82.0	16.0	4.163	0,0,0,0,0,0,1,2,3	to_hand	s251
243.506	0.367	0	PA_with_intermediate	0,0,0,3,0,0,1,2,0	test	ward_and_allport	2,3,0,0,0,0,1,0,0	71.0	16.0	0.367	0,0,0,0,0,0,1,2,3	to_board	s251
243.877	0.374	0	PA_with_intermediate	0,0,0,3,0,0,1,0,0	test	ward_and_allport	2,3,0,0,0,0,1,0,0	82.0	16.0	0.374	0,0,0,0,0,0,1,2,3	to_hand	s251
244.253	0.459	0	PA_with_intermediate	2,0,0,3,0,0,1,0,0	test	ward_and_allport	2,3,0,0,0,0,1,0,0	89.0	16.0	0.459	0,0,0,0,0,0,1,2,3	to_board	s251
244.717	0.352	0	PA_with_intermediate	2,0,0,0,0,0,1,0,0	test	ward_and_allport	2,3,0,0,0,0,1,0,0	71.0	16.0	0.352	0,0,0,0,0,0,1,2,3	to_hand	s251
245.069	0.298	0	PA_with_intermediate	2,3,0,0,0,0,1,0,0	test	ward_and_allport	2,3,0,0,0,0,1,0,0	89.0	16.0	0.298	0,0,0,0,0,0,1,2,3	to_board	s251
245.373	1.0	0	PA_with_intermediate	n/a	test	ward_and_allport	n/a	-1.0	16.0	n/a	n/a	feedback	s251
246.373	1.816	0	PA_with_intermediate	n/a	test	ward_and_allport	n/a	-1.0	16.0	n/a	n/a	ITI	s251
248.194	3.045	1	PA_without_intermediate	0,0,0,0,0,0,1,2,0	test	ward_and_allport	3,1,0,2,0,0,0,0,0	82.0	17.0	3.045	0,0,0,0,0,0,1,2,3	to_hand	s251
251.24	0.446	0	PA_without_intermediate	3,0,0,0,0,0,1,2,0	test	ward_and_allport	3,1,0,2,0,0,0,0,0	89.0	17.0	0.446	0,0,0,0,0,0,1,2,3	to_board	s251
251.69	2.674	0	PA_without_intermediate	3,0,0,0,0,0,1,0,0	test	ward_and_allport	3,1,0,2,0,0,0,0,0	82.0	17.0	2.674	0,0,0,0,0,0,1,2,3	to_hand	s251
254.366	0.674	0	PA_without_intermediate	3,0,0,2,0,0,1,0,0	test	ward_and_allport	3,1,0,2,0,0,0,0,0	71.0	17.0	0.674	0,0,0,0,0,0,1,2,3	to_board	s251
255.044	0.325	0	PA_without_intermediate	3,0,0,2,0,0,0,0,0	test	ward_and_allport	3,1,0,2,0,0,0,0,0	82.0	17.0	0.325	0,0,0,0,0,0,1,2,3	to_hand	s251
255.371	0.309	0	PA_without_intermediate	3,1,0,2,0,0,0,0,0	test	ward_and_allport	3,1,0,2,0,0,0,0,0	89.0	17.0	0.309	0,0,0,0,0,0,1,2,3	to_board	s251
255.686	1.0	0	PA_without_intermediate	n/a	test	ward_and_allport	n/a	-1.0	17.0	n/a	n/a	feedback	s251
256.686	2.088	0	PA_without_intermediate	n/a	test	ward_and_allport	n/a	-1.0	17.0	n/a	n/a	ITI	s251
258.781	2.547	1	PA_without_intermediate	0,0,0,1,2,0,0,0,0	test	ward_and_allport	1,0,0,0,0,0,3,2,0	71.0	18.0	2.547	0,0,0,1,2,3,0,0,0	to_hand	s251
261.328	0.354	0	PA_without_intermediate	0,0,0,1,2,0,3,0,0	test	ward_and_allport	1,0,0,0,0,0,3,2,0	82.0	18.0	0.354	0,0,0,1,2,3,0,0,0	to_board	s251
261.687	1.514	0	PA_without_intermediate	0,0,0,1,0,0,3,0,0	test	ward_and_allport	1,0,0,0,0,0,3,2,0	71.0	18.0	1.514	0,0,0,1,2,3,0,0,0	to_hand	s251
263.202	0.303	0	PA_without_intermediate	0,0,0,1,0,0,3,2,0	test	ward_and_allport	1,0,0,0,0,0,3,2,0	82.0	18.0	0.303	0,0,0,1,2,3,0,0,0	to_board	s251
263.51	1.104	0	PA_without_intermediate	0,0,0,0,0,0,3,2,0	test	ward_and_allport	1,0,0,0,0,0,3,2,0	71.0	18.0	1.104	0,0,0,1,2,3,0,0,0	to_hand	s251
264.615	0.304	0	PA_without_intermediate	1,0,0,0,0,0,3,2,0	test	ward_and_allport	1,0,0,0,0,0,3,2,0	89.0	18.0	0.304	0,0,0,1,2,3,0,0,0	to_board	s251
264.925	1.0	0	PA_without_intermediate	n/a	test	ward_and_allport	n/a	-1.0	18.0	n/a	n/a	feedback	s251
265.925	1.136	0	PA_without_intermediate	n/a	test	ward_and_allport	n/a	-1.0	18.0	n/a	n/a	ITI	s251
267.067	3.855	1	PA_without_intermediate	1,2,0,0,0,0,0,0,0	test	ward_and_allport	0,0,0,3,1,0,2,0,0	89.0	19.0	3.855	1,2,3,0,0,0,0,0,0	to_hand	s251
270.923	0.414	0	PA_without_intermediate	1,2,0,3,0,0,0,0,0	test	ward_and_allport	0,0,0,3,1,0,2,0,0	71.0	19.0	0.414	1,2,3,0,0,0,0,0,0	to_board	s251
271.342	0.681	0	PA_without_intermediate	1,0,0,3,0,0,0,0,0	test	ward_and_allport	0,0,0,3,1,0,2,0,0	89.0	19.0	0.681	1,2,3,0,0,0,0,0,0	to_hand	s251
272.024	0.443	0	PA_without_intermediate	1,0,0,3,0,0,2,0,0	test	ward_and_allport	0,0,0,3,1,0,2,0,0	82.0	19.0	0.443	1,2,3,0,0,0,0,0,0	to_board	s251
272.472	0.5	0	PA_without_intermediate	0,0,0,3,0,0,2,0,0	test	ward_and_allport	0,0,0,3,1,0,2,0,0	89.0	19.0	0.5	1,2,3,0,0,0,0,0,0	to_hand	s251
272.972	0.355	0	PA_without_intermediate	0,0,0,3,1,0,2,0,0	test	ward_and_allport	0,0,0,3,1,0,2,0,0	71.0	19.0	0.355	1,2,3,0,0,0,0,0,0	to_board	s251
273.333	1.0	0	PA_without_intermediate	n/a	test	ward_and_allport	n/a	-1.0	19.0	n/a	n/a	feedback	s251
274.333	6.168	0	PA_without_intermediate	n/a	test	ward_and_allport	n/a	-1.0	19.0	n/a	n/a	ITI	s251
280.506	2.554	1	PA_without_intermediate	0,0,0,1,2,0,0,0,0	test	ward_and_allport	3,1,0,0,0,0,2,0,0	71.0	20.0	2.554	0,0,0,1,2,3,0,0,0	to_hand	s251
283.061	0.326	0	PA_without_intermediate	3,0,0,1,2,0,0,0,0	test	ward_and_allport	3,1,0,0,0,0,2,0,0	89.0	20.0	0.326	0,0,0,1,2,3,0,0,0	to_board	s251
283.392	0.708	0	PA_without_intermediate	3,0,0,1,0,0,0,0,0	test	ward_and_allport	3,1,0,0,0,0,2,0,0	71.0	20.0	0.708	0,0,0,1,2,3,0,0,0	to_hand	s251
284.101	0.334	0	PA_without_intermediate	3,0,0,1,0,0,2,0,0	test	ward_and_allport	3,1,0,0,0,0,2,0,0	82.0	20.0	0.334	0,0,0,1,2,3,0,0,0	to_board	s251
284.441	0.414	0	PA_without_intermediate	3,0,0,0,0,0,2,0,0	test	ward_and_allport	3,1,0,0,0,0,2,0,0	71.0	20.0	0.414	0,0,0,1,2,3,0,0,0	to_hand	s251
284.856	0.399	0	PA_without_intermediate	3,1,0,0,0,0,2,0,0	test	ward_and_allport	3,1,0,0,0,0,2,0,0	89.0	20.0	0.399	0,0,0,1,2,3,0,0,0	to_board	s251
285.262	1.0	0	PA_without_intermediate	n/a	test	ward_and_allport	n/a	-1.0	20.0	n/a	n/a	feedback	s251
286.262	1.816	0	PA_without_intermediate	n/a	test	ward_and_allport	n/a	-1.0	20.0	n/a	n/a	ITI	s251
288.083	4.755	1	PA_with_intermediate	0,0,0,0,0,0,1,2,0	test	ward_and_allport	0,0,0,2,3,0,1,0,0	82.0	21.0	4.755	0,0,0,0,0,0,1,2,3	to_hand	s251
292.838	0.365	0	PA_with_intermediate	3,0,0,0,0,0,1,2,0	test	ward_and_allport	0,0,0,2,3,0,1,0,0	89.0	21.0	0.365	0,0,0,0,0,0,1,2,3	to_board	s251
293.208	1.056	0	PA_with_intermediate	3,0,0,0,0,0,1,0,0	test	ward_and_allport	0,0,0,2,3,0,1,0,0	82.0	21.0	1.056	0,0,0,0,0,0,1,2,3	to_hand	s251
294.265	0.556	0	PA_with_intermediate	3,0,0,2,0,0,1,0,0	test	ward_and_allport	0,0,0,2,3,0,1,0,0	71.0	21.0	0.556	0,0,0,0,0,0,1,2,3	to_board	s251
294.825	0.313	0	PA_with_intermediate	0,0,0,2,0,0,1,0,0	test	ward_and_allport	0,0,0,2,3,0,1,0,0	89.0	21.0	0.313	0,0,0,0,0,0,1,2,3	to_hand	s251
295.14	0.311	0	PA_with_intermediate	0,0,0,2,3,0,1,0,0	test	ward_and_allport	0,0,0,2,3,0,1,0,0	71.0	21.0	0.311	0,0,0,0,0,0,1,2,3	to_board	s251
295.456	1.0	0	PA_with_intermediate	n/a	test	ward_and_allport	n/a	-1.0	21.0	n/a	n/a	feedback	s251
296.456	1.952	0	PA_with_intermediate	n/a	test	ward_and_allport	n/a	-1.0	21.0	n/a	n/a	ITI	s251
298.414	6.711	1	PA_with_intermediate	0,0,0,0,0,0,1,2,0	test	ward_and_allport	2,0,0,0,0,0,1,3,0	82.0	22.0	6.711	0,0,0,0,0,0,1,2,3	to_hand	s251
305.127	0.687	0	PA_with_intermediate	0,0,0,3,0,0,1,2,0	test	ward_and_allport	2,0,0,0,0,0,1,3,0	71.0	22.0	0.687	0,0,0,0,0,0,1,2,3	to_board	s251
305.818	0.403	0	PA_with_intermediate	0,0,0,3,0,0,1,0,0	test	ward_and_allport	2,0,0,0,0,0,1,3,0	82.0	22.0	0.403	0,0,0,0,0,0,1,2,3	to_hand	s251
306.222	0.496	0	PA_with_intermediate	2,0,0,3,0,0,1,0,0	test	ward_and_allport	2,0,0,0,0,0,1,3,0	89.0	22.0	0.496	0,0,0,0,0,0,1,2,3	to_board	s251
306.724	1.757	0	PA_with_intermediate	2,0,0,0,0,0,1,0,0	test	ward_and_allport	2,0,0,0,0,0,1,3,0	71.0	22.0	1.757	0,0,0,0,0,0,1,2,3	to_hand	s251
308.482	0.407	0	PA_with_intermediate	2,0,0,0,0,0,1,3,0	test	ward_and_allport	2,0,0,0,0,0,1,3,0	82.0	22.0	0.407	0,0,0,0,0,0,1,2,3	to_board	s251
308.896	1.0	0	PA_with_intermediate	n/a	test	ward_and_allport	n/a	-1.0	22.0	n/a	n/a	feedback	s251
309.896	1.136	0	PA_with_intermediate	n/a	test	ward_and_allport	n/a	-1.0	22.0	n/a	n/a	ITI	s251
311.038	3.904	1	PA_without_intermediate	0,0,0,1,2,0,0,0,0	test	ward_and_allport	1,0,0,0,0,0,3,2,0	71.0	23.0	3.904	0,0,0,1,2,3,0,0,0	to_hand	s251
314.942	0.36	0	PA_without_intermediate	0,0,0,1,2,0,3,0,0	test	ward_and_allport	1,0,0,0,0,0,3,2,0	82.0	23.0	0.36	0,0,0,1,2,3,0,0,0	to_board	s251
315.309	2.685	0	PA_without_intermediate	0,0,0,1,0,0,3,0,0	test	ward_and_allport	1,0,0,0,0,0,3,2,0	71.0	23.0	2.685	0,0,0,1,2,3,0,0,0	to_hand	s251
317.995	0.342	0	PA_without_intermediate	0,0,0,1,0,0,3,2,0	test	ward_and_allport	1,0,0,0,0,0,3,2,0	82.0	23.0	0.342	0,0,0,1,2,3,0,0,0	to_board	s251
318.342	0.706	0	PA_without_intermediate	0,0,0,0,0,0,3,2,0	test	ward_and_allport	1,0,0,0,0,0,3,2,0	71.0	23.0	0.706	0,0,0,1,2,3,0,0,0	to_hand	s251
319.049	0.335	0	PA_without_intermediate	1,0,0,0,0,0,3,2,0	test	ward_and_allport	1,0,0,0,0,0,3,2,0	89.0	23.0	0.335	0,0,0,1,2,3,0,0,0	to_board	s251
319.392	1.0	0	PA_without_intermediate	n/a	test	ward_and_allport	n/a	-1.0	23.0	n/a	n/a	feedback	s251
320.392	1.68	0	PA_without_intermediate	n/a	test	ward_and_allport	n/a	-1.0	23.0	n/a	n/a	ITI	s251
322.079	4.887	1	PA_without_intermediate	1,2,0,0,0,0,0,0,0	test	ward_and_allport	0,0,0,1,0,0,3,2,0	89.0	24.0	4.887	1,2,3,0,0,0,0,0,0	to_hand	s251
326.966	0.578	0	PA_without_intermediate	1,2,0,0,0,0,3,0,0	test	ward_and_allport	0,0,0,1,0,0,3,2,0	82.0	24.0	0.578	1,2,3,0,0,0,0,0,0	to_board	s251
327.551	0.758	0	PA_without_intermediate	1,0,0,0,0,0,3,0,0	test	ward_and_allport	0,0,0,1,0,0,3,2,0	89.0	24.0	0.758	1,2,3,0,0,0,0,0,0	to_hand	s251
328.31	0.656	0	PA_without_intermediate	1,0,0,0,0,0,3,2,0	test	ward_and_allport	0,0,0,1,0,0,3,2,0	82.0	24.0	0.656	1,2,3,0,0,0,0,0,0	to_board	s251
328.972	0.603	0	PA_without_intermediate	0,0,0,0,0,0,3,2,0	test	ward_and_allport	0,0,0,1,0,0,3,2,0	89.0	24.0	0.603	1,2,3,0,0,0,0,0,0	to_hand	s251
329.576	0.366	0	PA_without_intermediate	0,0,0,1,0,0,3,2,0	test	ward_and_allport	0,0,0,1,0,0,3,2,0	71.0	24.0	0.366	1,2,3,0,0,0,0,0,0	to_board	s251
329.95	1.0	0	PA_without_intermediate	n/a	test	ward_and_allport	n/a	-1.0	24.0	n/a	n/a	feedback	s251
330.95	2.088	0	PA_without_intermediate	n/a	test	ward_and_allport	n/a	-1.0	24.0	n/a	n/a	ITI	s251
333.045	4.339	1	PA_with_intermediate	1,2,0,0,0,0,0,0,0	test	ward_and_allport	1,0,0,0,0,0,2,3,0	89.0	25.0	4.339	1,2,3,0,0,0,0,0,0	to_hand	s251
337.385	0.44	0	PA_with_intermediate	1,2,0,3,0,0,0,0,0	test	ward_and_allport	1,0,0,0,0,0,2,3,0	71.0	25.0	0.44	1,2,3,0,0,0,0,0,0	to_board	s251
337.831	0.393	0	PA_with_intermediate	1,0,0,3,0,0,0,0,0	test	ward_and_allport	1,0,0,0,0,0,2,3,0	89.0	25.0	0.393	1,2,3,0,0,0,0,0,0	to_hand	s251
338.225	0.677	0	PA_with_intermediate	1,0,0,3,0,0,2,0,0	test	ward_and_allport	1,0,0,0,0,0,2,3,0	82.0	25.0	0.677	1,2,3,0,0,0,0,0,0	to_board	s251
338.908	0.75	0	PA_with_intermediate	1,0,0,0,0,0,2,0,0	test	ward_and_allport	1,0,0,0,0,0,2,3,0	71.0	25.0	0.75	1,2,3,0,0,0,0,0,0	to_hand	s251
339.659	0.39	0	PA_with_intermediate	1,0,0,0,0,0,2,3,0	test	ward_and_allport	1,0,0,0,0,0,2,3,0	82.0	25.0	0.39	1,2,3,0,0,0,0,0,0	to_board	s251
340.057	1.0	0	PA_with_intermediate	n/a	test	ward_and_allport	n/a	-1.0	25.0	n/a	n/a	feedback	s251
341.057	1.0	0	PA_with_intermediate	n/a	test	ward_and_allport	n/a	-1.0	25.0	n/a	n/a	ITI	s251
342.064	3.628	1	PA_without_intermediate	0,0,0,0,0,0,1,2,0	test	ward_and_allport	3,1,0,2,0,0,0,0,0	82.0	26.0	3.628	0,0,0,0,0,0,1,2,3	to_hand	s251
345.693	0.906	0	PA_without_intermediate	3,0,0,0,0,0,1,2,0	test	ward_and_allport	3,1,0,2,0,0,0,0,0	89.0	26.0	0.906	0,0,0,0,0,0,1,2,3	to_board	s251
346.607	1.037	0	PA_without_intermediate	3,0,0,0,0,0,1,0,0	test	ward_and_allport	3,1,0,2,0,0,0,0,0	82.0	26.0	1.037	0,0,0,0,0,0,1,2,3	to_hand	s251
347.645	0.651	0	PA_without_intermediate	3,0,0,2,0,0,1,0,0	test	ward_and_allport	3,1,0,2,0,0,0,0,0	71.0	26.0	0.651	0,0,0,0,0,0,1,2,3	to_board	s251
348.302	0.39	0	PA_without_intermediate	3,0,0,2,0,0,0,0,0	test	ward_and_allport	3,1,0,2,0,0,0,0,0	82.0	26.0	0.39	0,0,0,0,0,0,1,2,3	to_hand	s251
348.694	0.42	0	PA_without_intermediate	3,1,0,2,0,0,0,0,0	test	ward_and_allport	3,1,0,2,0,0,0,0,0	89.0	26.0	0.42	0,0,0,0,0,0,1,2,3	to_board	s251
349.122	1.0	0	PA_without_intermediate	n/a	test	ward_and_allport	n/a	-1.0	26.0	n/a	n/a	feedback	s251
350.122	1.0	0	PA_without_intermediate	n/a	test	ward_and_allport	n/a	-1.0	26.0	n/a	n/a	ITI	s251
351.13	2.574	1	PA_without_intermediate	0,0,0,0,0,0,1,2,0	test	ward_and_allport	2,0,0,3,1,0,0,0,0	82.0	27.0	2.574	0,0,0,0,0,0,1,2,3	to_hand	s251
353.705	0.373	0	PA_without_intermediate	0,0,0,3,0,0,1,2,0	test	ward_and_allport	2,0,0,3,1,0,0,0,0	71.0	27.0	0.373	0,0,0,0,0,0,1,2,3	to_board	s251
354.085	0.47	0	PA_without_intermediate	0,0,0,3,0,0,1,0,0	test	ward_and_allport	2,0,0,3,1,0,0,0,0	82.0	27.0	0.47	0,0,0,0,0,0,1,2,3	to_hand	s251
354.555	0.378	0	PA_without_intermediate	2,0,0,3,0,0,1,0,0	test	ward_and_allport	2,0,0,3,1,0,0,0,0	89.0	27.0	0.378	0,0,0,0,0,0,1,2,3	to_board	s251
354.94	0.808	0	PA_without_intermediate	2,0,0,3,0,0,0,0,0	test	ward_and_allport	2,0,0,3,1,0,0,0,0	82.0	27.0	0.808	0,0,0,0,0,0,1,2,3	to_hand	s251
355.749	0.501	0	PA_without_intermediate	2,0,0,3,1,0,0,0,0	test	ward_and_allport	2,0,0,3,1,0,0,0,0	71.0	27.0	0.501	0,0,0,0,0,0,1,2,3	to_board	s251
356.258	1.0	0	PA_without_intermediate	n/a	test	ward_and_allport	n/a	-1.0	27.0	n/a	n/a	feedback	s251
357.258	1.0	0	PA_without_intermediate	n/a	test	ward_and_allport	n/a	-1.0	27.0	n/a	n/a	ITI	s251
358.264	3.692	1	PA_with_intermediate	0,0,0,1,2,0,0,0,0	test	ward_and_allport	0,0,0,1,0,0,2,3,0	71.0	28.0	3.692	0,0,0,1,2,3,0,0,0	to_hand	s251
361.957	0.32	0	PA_with_intermediate	3,0,0,1,2,0,0,0,0	test	ward_and_allport	0,0,0,1,0,0,2,3,0	89.0	28.0	0.32	0,0,0,1,2,3,0,0,0	to_board	s251
362.284	0.475	0	PA_with_intermediate	3,0,0,1,0,0,0,0,0	test	ward_and_allport	0,0,0,1,0,0,2,3,0	71.0	28.0	0.475	0,0,0,1,2,3,0,0,0	to_hand	s251
362.76	1.266	0	PA_with_intermediate	3,0,0,1,0,0,2,0,0	test	ward_and_allport	0,0,0,1,0,0,2,3,0	82.0	28.0	1.266	0,0,0,1,2,3,0,0,0	to_board	s251
364.032	0.662	0	PA_with_intermediate	0,0,0,1,0,0,2,0,0	test	ward_and_allport	0,0,0,1,0,0,2,3,0	89.0	28.0	0.662	0,0,0,1,2,3,0,0,0	to_hand	s251
364.695	0.671	0	PA_with_intermediate	0,0,0,1,0,0,2,3,0	test	ward_and_allport	0,0,0,1,0,0,2,3,0	82.0	28.0	0.671	0,0,0,1,2,3,0,0,0	to_board	s251
365.374	1.0	0	PA_with_intermediate	n/a	test	ward_and_allport	n/a	-1.0	28.0	n/a	n/a	feedback	s251
366.374	1.544	0	PA_with_intermediate	n/a	test	ward_and_allport	n/a	-1.0	28.0	n/a	n/a	ITI	s251
367.925	3.473	1	PA_without_intermediate	1,2,0,0,0,0,0,0,0	test	ward_and_allport	0,0,0,1,0,0,3,2,0	89.0	29.0	3.473	1,2,3,0,0,0,0,0,0	to_hand	s251
371.399	0.44	0	PA_without_intermediate	1,2,0,0,0,0,3,0,0	test	ward_and_allport	0,0,0,1,0,0,3,2,0	82.0	29.0	0.44	1,2,3,0,0,0,0,0,0	to_board	s251
371.846	1.007	0	PA_without_intermediate	1,0,0,0,0,0,3,0,0	test	ward_and_allport	0,0,0,1,0,0,3,2,0	89.0	29.0	1.007	1,2,3,0,0,0,0,0,0	to_hand	s251
372.854	0.507	0	PA_without_intermediate	1,0,0,0,0,0,3,2,0	test	ward_and_allport	0,0,0,1,0,0,3,2,0	82.0	29.0	0.507	1,2,3,0,0,0,0,0,0	to_board	s251
373.367	0.819	0	PA_without_intermediate	0,0,0,0,0,0,3,2,0	test	ward_and_allport	0,0,0,1,0,0,3,2,0	89.0	29.0	0.819	1,2,3,0,0,0,0,0,0	to_hand	s251
374.187	0.308	0	PA_without_intermediate	0,0,0,1,0,0,3,2,0	test	ward_and_allport	0,0,0,1,0,0,3,2,0	71.0	29.0	0.308	1,2,3,0,0,0,0,0,0	to_board	s251
374.504	1.0	0	PA_without_intermediate	n/a	test	ward_and_allport	n/a	-1.0	29.0	n/a	n/a	feedback	s251
375.504	1.272	0	PA_without_intermediate	n/a	test	ward_and_allport	n/a	-1.0	29.0	n/a	n/a	ITI	s251
381.787	4.348	1	PA_with_intermediate	0,0,0,1,2,0,0,0,0	test	ward_and_allport	2,0,0,1,3,0,0,0,0	71.0	30.0	4.348	0,0,0,1,2,3,0,0,0	to_hand	s251
386.135	0.388	0	PA_with_intermediate	0,0,0,1,2,0,3,0,0	test	ward_and_allport	2,0,0,1,3,0,0,0,0	82.0	30.0	0.388	0,0,0,1,2,3,0,0,0	to_board	s251
386.531	0.584	0	PA_with_intermediate	0,0,0,1,0,0,3,0,0	test	ward_and_allport	2,0,0,1,3,0,0,0,0	71.0	30.0	0.584	0,0,0,1,2,3,0,0,0	to_hand	s251
387.115	0.465	0	PA_with_intermediate	2,0,0,1,0,0,3,0,0	test	ward_and_allport	2,0,0,1,3,0,0,0,0	89.0	30.0	0.465	0,0,0,1,2,3,0,0,0	to_board	s251
387.587	0.661	0	PA_with_intermediate	2,0,0,1,0,0,0,0,0	test	ward_and_allport	2,0,0,1,3,0,0,0,0	82.0	30.0	0.661	0,0,0,1,2,3,0,0,0	to_hand	s251
388.249	0.285	0	PA_with_intermediate	2,0,0,1,3,0,0,0,0	test	ward_and_allport	2,0,0,1,3,0,0,0,0	71.0	30.0	0.285	0,0,0,1,2,3,0,0,0	to_board	s251
388.544	1.0	0	PA_with_intermediate	n/a	test	ward_and_allport	n/a	-1.0	30.0	n/a	n/a	feedback	s251
389.544	3.04	0	PA_with_intermediate	n/a	test	ward_and_allport	n/a	-1.0	30.0	n/a	n/a	ITI	s251
392.59	3.834	1	PA_with_intermediate	0,0,0,0,0,0,1,2,0	test	ward_and_allport	0,0,0,2,3,0,1,0,0	82.0	31.0	3.834	0,0,0,0,0,0,1,2,3	to_hand	s251
396.425	0.431	0	PA_with_intermediate	3,0,0,0,0,0,1,2,0	test	ward_and_allport	0,0,0,2,3,0,1,0,0	89.0	31.0	0.431	0,0,0,0,0,0,1,2,3	to_board	s251
396.863	0.453	0	PA_with_intermediate	3,0,0,0,0,0,1,0,0	test	ward_and_allport	0,0,0,2,3,0,1,0,0	82.0	31.0	0.453	0,0,0,0,0,0,1,2,3	to_hand	s251
397.317	0.415	0	PA_with_intermediate	3,0,0,2,0,0,1,0,0	test	ward_and_allport	0,0,0,2,3,0,1,0,0	71.0	31.0	0.415	0,0,0,0,0,0,1,2,3	to_board	s251
397.741	0.33	0	PA_with_intermediate	0,0,0,2,0,0,1,0,0	test	ward_and_allport	0,0,0,2,3,0,1,0,0	89.0	31.0	0.33	0,0,0,0,0,0,1,2,3	to_hand	s251
398.071	0.359	0	PA_with_intermediate	0,0,0,2,3,0,1,0,0	test	ward_and_allport	0,0,0,2,3,0,1,0,0	71.0	31.0	0.359	0,0,0,0,0,0,1,2,3	to_board	s251
398.44	1.0	0	PA_with_intermediate	n/a	test	ward_and_allport	n/a	-1.0	31.0	n/a	n/a	feedback	s251
399.44	1.272	0	PA_with_intermediate	n/a	test	ward_and_allport	n/a	-1.0	31.0	n/a	n/a	ITI	s251
400.721	3.71	1	PA_with_intermediate	1,2,0,0,0,0,0,0,0	test	ward_and_allport	1,0,0,2,3,0,0,0,0	89.0	32.0	3.71	1,2,3,0,0,0,0,0,0	to_hand	s251
404.432	0.423	0	PA_with_intermediate	1,2,0,0,0,0,3,0,0	test	ward_and_allport	1,0,0,2,3,0,0,0,0	82.0	32.0	0.423	1,2,3,0,0,0,0,0,0	to_board	s251
404.864	0.552	0	PA_with_intermediate	1,0,0,0,0,0,3,0,0	test	ward_and_allport	1,0,0,2,3,0,0,0,0	89.0	32.0	0.552	1,2,3,0,0,0,0,0,0	to_hand	s251
405.417	0.437	0	PA_with_intermediate	1,0,0,2,0,0,3,0,0	test	ward_and_allport	1,0,0,2,3,0,0,0,0	71.0	32.0	0.437	1,2,3,0,0,0,0,0,0	to_board	s251
405.86	0.401	0	PA_with_intermediate	1,0,0,2,0,0,0,0,0	test	ward_and_allport	1,0,0,2,3,0,0,0,0	82.0	32.0	0.401	1,2,3,0,0,0,0,0,0	to_hand	s251
406.263	0.324	0	PA_with_intermediate	1,0,0,2,3,0,0,0,0	test	ward_and_allport	1,0,0,2,3,0,0,0,0	71.0	32.0	0.324	1,2,3,0,0,0,0,0,0	to_board	s251
406.597	1.0	0	PA_with_intermediate	n/a	test	ward_and_allport	n/a	-1.0	32.0	n/a	n/a	feedback	s251
407.597	1.136	0	PA_with_intermediate	n/a	test	ward_and_allport	n/a	-1.0	32.0	n/a	n/a	ITI	s251
408.741	4.366	1	PA_with_intermediate	0,0,0,1,2,0,0,0,0	test	ward_and_allport	2,0,0,1,3,0,0,0,0	71.0	33.0	4.366	0,0,0,1,2,3,0,0,0	to_hand	s251
413.109	0.388	0	PA_with_intermediate	0,0,0,1,2,0,3,0,0	test	ward_and_allport	2,0,0,1,3,0,0,0,0	82.0	33.0	0.388	0,0,0,1,2,3,0,0,0	to_board	s251
413.502	0.521	0	PA_with_intermediate	0,0,0,1,0,0,3,0,0	test	ward_and_allport	2,0,0,1,3,0,0,0,0	71.0	33.0	0.521	0,0,0,1,2,3,0,0,0	to_hand	s251
414.025	0.32	0	PA_with_intermediate	2,0,0,1,0,0,3,0,0	test	ward_and_allport	2,0,0,1,3,0,0,0,0	89.0	33.0	0.32	0,0,0,1,2,3,0,0,0	to_board	s251
414.351	1.128	0	PA_with_intermediate	2,0,0,1,0,0,0,0,0	test	ward_and_allport	2,0,0,1,3,0,0,0,0	82.0	33.0	1.128	0,0,0,1,2,3,0,0,0	to_hand	s251
415.48	0.429	0	PA_with_intermediate	2,0,0,1,3,0,0,0,0	test	ward_and_allport	2,0,0,1,3,0,0,0,0	71.0	33.0	0.429	0,0,0,1,2,3,0,0,0	to_board	s251
415.92	1.0	0	PA_with_intermediate	n/a	test	ward_and_allport	n/a	-1.0	33.0	n/a	n/a	feedback	s251
416.92	1.0	0	PA_with_intermediate	n/a	test	ward_and_allport	n/a	-1.0	33.0	n/a	n/a	ITI	s251
417.929	5.655	1	PA_with_intermediate	1,2,0,0,0,0,0,0,0	test	ward_and_allport	1,3,0,2,0,0,0,0,0	89.0	34.0	5.655	1,2,3,0,0,0,0,0,0	to_hand	s251
423.586	0.394	0	PA_with_intermediate	1,2,0,0,0,0,3,0,0	test	ward_and_allport	1,3,0,2,0,0,0,0,0	82.0	34.0	0.394	1,2,3,0,0,0,0,0,0	to_board	s251
423.988	0.44	0	PA_with_intermediate	1,0,0,0,0,0,3,0,0	test	ward_and_allport	1,3,0,2,0,0,0,0,0	89.0	34.0	0.44	1,2,3,0,0,0,0,0,0	to_hand	s251
424.429	0.384	0	PA_with_intermediate	1,0,0,2,0,0,3,0,0	test	ward_and_allport	1,3,0,2,0,0,0,0,0	71.0	34.0	0.384	1,2,3,0,0,0,0,0,0	to_board	s251
424.821	0.406	0	PA_with_intermediate	1,0,0,2,0,0,0,0,0	test	ward_and_allport	1,3,0,2,0,0,0,0,0	82.0	34.0	0.406	1,2,3,0,0,0,0,0,0	to_hand	s251
425.228	0.474	0	PA_with_intermediate	1,3,0,2,0,0,0,0,0	test	ward_and_allport	1,3,0,2,0,0,0,0,0	89.0	34.0	0.474	1,2,3,0,0,0,0,0,0	to_board	s251
425.713	1.0	0	PA_with_intermediate	n/a	test	ward_and_allport	n/a	-1.0	34.0	n/a	n/a	feedback	s251
426.713	1.0	0	PA_with_intermediate	n/a	test	ward_and_allport	n/a	-1.0	34.0	n/a	n/a	ITI	s251
427.722	5.3	1	PA_without_intermediate	0,0,0,1,2,0,0,0,0	test	ward_and_allport	3,1,0,0,0,0,2,0,0	71.0	35.0	5.3	0,0,0,1,2,3,0,0,0	to_hand	s251
433.023	0.335	0	PA_without_intermediate	3,0,0,1,2,0,0,0,0	test	ward_and_allport	3,1,0,0,0,0,2,0,0	89.0	35.0	0.335	0,0,0,1,2,3,0,0,0	to_board	s251
433.367	0.543	0	PA_without_intermediate	3,0,0,1,0,0,0,0,0	test	ward_and_allport	3,1,0,0,0,0,2,0,0	71.0	35.0	0.543	0,0,0,1,2,3,0,0,0	to_hand	s251
433.91	0.364	0	PA_without_intermediate	3,0,0,1,0,0,2,0,0	test	ward_and_allport	3,1,0,0,0,0,2,0,0	82.0	35.0	0.364	0,0,0,1,2,3,0,0,0	to_board	s251
434.284	0.691	0	PA_without_intermediate	3,0,0,0,0,0,2,0,0	test	ward_and_allport	3,1,0,0,0,0,2,0,0	71.0	35.0	0.691	0,0,0,1,2,3,0,0,0	to_hand	s251
434.976	0.297	0	PA_without_intermediate	3,1,0,0,0,0,2,0,0	test	ward_and_allport	3,1,0,0,0,0,2,0,0	89.0	35.0	0.297	0,0,0,1,2,3,0,0,0	to_board	s251
435.282	1.0	0	PA_without_intermediate	n/a	test	ward_and_allport	n/a	-1.0	35.0	n/a	n/a	feedback	s251
436.282	1.408	0	PA_without_intermediate	n/a	test	ward_and_allport	n/a	-1.0	35.0	n/a	n/a	ITI	s251
437.7	4.796	1	PA_with_intermediate	0,0,0,1,2,0,0,0,0	test	ward_and_allport	0,0,0,1,3,0,2,0,0	71.0	36.0	4.796	0,0,0,1,2,3,0,0,0	to_hand	s251
442.498	0.328	0	PA_with_intermediate	3,0,0,1,2,0,0,0,0	test	ward_and_allport	0,0,0,1,3,0,2,0,0	89.0	36.0	0.328	0,0,0,1,2,3,0,0,0	to_board	s251
442.835	0.354	0	PA_with_intermediate	3,0,0,1,0,0,0,0,0	test	ward_and_allport	0,0,0,1,3,0,2,0,0	71.0	36.0	0.354	0,0,0,1,2,3,0,0,0	to_hand	s251
443.189	0.393	0	PA_with_intermediate	3,0,0,1,0,0,2,0,0	test	ward_and_allport	0,0,0,1,3,0,2,0,0	82.0	36.0	0.393	0,0,0,1,2,3,0,0,0	to_board	s251
443.592	0.754	0	PA_with_intermediate	0,0,0,1,0,0,2,0,0	test	ward_and_allport	0,0,0,1,3,0,2,0,0	89.0	36.0	0.754	0,0,0,1,2,3,0,0,0	to_hand	s251
444.346	0.274	0	PA_with_intermediate	0,0,0,1,3,0,2,0,0	test	ward_and_allport	0,0,0,1,3,0,2,0,0	71.0	36.0	0.274	0,0,0,1,2,3,0,0,0	to_board	s251
444.632	1.0	0	PA_with_intermediate	n/a	test	ward_and_allport	n/a	-1.0	36.0	n/a	n/a	feedback	s251
445.632	2.768	0	PA_with_intermediate	n/a	test	ward_and_allport	n/a	-1.0	36.0	n/a	n/a	ITI	s251
448.409	5.032	1	PA_with_intermediate	0,0,0,0,0,0,1,2,0	test	ward_and_allport	2,0,0,0,0,0,1,3,0	82.0	37.0	5.032	0,0,0,0,0,0,1,2,3	to_hand	s251
453.442	0.337	0	PA_with_intermediate	0,0,0,3,0,0,1,2,0	test	ward_and_allport	2,0,0,0,0,0,1,3,0	71.0	37.0	0.337	0,0,0,0,0,0,1,2,3	to_board	s251
453.787	0.366	0	PA_with_intermediate	0,0,0,3,0,0,1,0,0	test	ward_and_allport	2,0,0,0,0,0,1,3,0	82.0	37.0	0.366	0,0,0,0,0,0,1,2,3	to_hand	s251
454.154	0.318	0	PA_with_intermediate	2,0,0,3,0,0,1,0,0	test	ward_and_allport	2,0,0,0,0,0,1,3,0	89.0	37.0	0.318	0,0,0,0,0,0,1,2,3	to_board	s251
454.479	0.394	0	PA_with_intermediate	2,0,0,0,0,0,1,0,0	test	ward_and_allport	2,0,0,0,0,0,1,3,0	71.0	37.0	0.394	0,0,0,0,0,0,1,2,3	to_hand	s251
454.874	0.461	0	PA_with_intermediate	2,0,0,0,0,0,1,3,0	test	ward_and_allport	2,0,0,0,0,0,1,3,0	82.0	37.0	0.461	0,0,0,0,0,0,1,2,3	to_board	s251
455.344	1.0	0	PA_with_intermediate	n/a	test	ward_and_allport	n/a	-1.0	37.0	n/a	n/a	feedback	s251
456.344	1.68	0	PA_with_intermediate	n/a	test	ward_and_allport	n/a	-1.0	37.0	n/a	n/a	ITI	s251
458.035	2.59	1	PA_without_intermediate	0,0,0,1,2,0,0,0,0	test	ward_and_allport	2,0,0,0,0,0,3,1,0	71.0	38.0	2.59	0,0,0,1,2,3,0,0,0	to_hand	s251
460.625	0.394	0	PA_without_intermediate	0,0,0,1,2,0,3,0,0	test	ward_and_allport	2,0,0,0,0,0,3,1,0	82.0	38.0	0.394	0,0,0,1,2,3,0,0,0	to_board	s251
461.028	0.651	0	PA_without_intermediate	0,0,0,1,0,0,3,0,0	test	ward_and_allport	2,0,0,0,0,0,3,1,0	71.0	38.0	0.651	0,0,0,1,2,3,0,0,0	to_hand	s251
461.681	0.261	0	PA_without_intermediate	2,0,0,1,0,0,3,0,0	test	ward_and_allport	2,0,0,0,0,0,3,1,0	89.0	38.0	0.261	0,0,0,1,2,3,0,0,0	to_board	s251
461.95	0.398	0	PA_without_intermediate	2,0,0,0,0,0,3,0,0	test	ward_and_allport	2,0,0,0,0,0,3,1,0	71.0	38.0	0.398	0,0,0,1,2,3,0,0,0	to_hand	s251
462.349	0.319	0	PA_without_intermediate	2,0,0,0,0,0,3,1,0	test	ward_and_allport	2,0,0,0,0,0,3,1,0	82.0	38.0	0.319	0,0,0,1,2,3,0,0,0	to_board	s251
462.676	1.0	0	PA_without_intermediate	n/a	test	ward_and_allport	n/a	-1.0	38.0	n/a	n/a	feedback	s251
463.676	2.224	0	PA_without_intermediate	n/a	test	ward_and_allport	n/a	-1.0	38.0	n/a	n/a	ITI	s251
465.907	3.214	1	PA_without_intermediate	0,0,0,0,0,0,1,2,0	test	ward_and_allport	3,2,0,1,0,0,0,0,0	82.0	39.0	3.214	0,0,0,0,0,0,1,2,3	to_hand	s251
469.122	0.349	0	PA_without_intermediate	3,0,0,0,0,0,1,2,0	test	ward_and_allport	3,2,0,1,0,0,0,0,0	89.0	39.0	0.349	0,0,0,0,0,0,1,2,3	to_board	s251
469.478	0.555	0	PA_without_intermediate	3,0,0,0,0,0,1,0,0	test	ward_and_allport	3,2,0,1,0,0,0,0,0	82.0	39.0	0.555	0,0,0,0,0,0,1,2,3	to_hand	s251
470.034	0.412	0	PA_without_intermediate	3,2,0,0,0,0,1,0,0	test	ward_and_allport	3,2,0,1,0,0,0,0,0	89.0	39.0	0.412	0,0,0,0,0,0,1,2,3	to_board	s251
470.456	0.474	0	PA_without_intermediate	3,2,0,0,0,0,0,0,0	test	ward_and_allport	3,2,0,1,0,0,0,0,0	82.0	39.0	0.474	0,0,0,0,0,0,1,2,3	to_hand	s251
470.932	0.427	0	PA_without_intermediate	3,2,0,1,0,0,0,0,0	test	ward_and_allport	3,2,0,1,0,0,0,0,0	71.0	39.0	0.427	0,0,0,0,0,0,1,2,3	to_board	s251
471.37	1.0	0	PA_without_intermediate	n/a	test	ward_and_allport	n/a	-1.0	39.0	n/a	n/a	feedback	s251
472.37	2.36	0	PA_without_intermediate	n/a	test	ward_and_allport	n/a	-1.0	39.0	n/a	n/a	ITI	s251
474.738	3.926	1	PA_without_intermediate	1,2,0,0,0,0,0,0,0	test	ward_and_allport	0,0,0,3,1,0,2,0,0	89.0	40.0	3.926	1,2,3,0,0,0,0,0,0	to_hand	s251
478.665	0.314	0	PA_without_intermediate	1,2,0,3,0,0,0,0,0	test	ward_and_allport	0,0,0,3,1,0,2,0,0	71.0	40.0	0.314	1,2,3,0,0,0,0,0,0	to_board	s251
478.985	0.747	0	PA_without_intermediate	1,0,0,3,0,0,0,0,0	test	ward_and_allport	0,0,0,3,1,0,2,0,0	89.0	40.0	0.747	1,2,3,0,0,0,0,0,0	to_hand	s251
479.733	0.685	0	PA_without_intermediate	1,0,0,3,0,0,2,0,0	test	ward_and_allport	0,0,0,3,1,0,2,0,0	82.0	40.0	0.685	1,2,3,0,0,0,0,0,0	to_board	s251
480.427	0.472	0	PA_without_intermediate	0,0,0,3,0,0,2,0,0	test	ward_and_allport	0,0,0,3,1,0,2,0,0	89.0	40.0	0.472	1,2,3,0,0,0,0,0,0	to_hand	s251
480.9	0.342	0	PA_without_intermediate	0,0,0,3,1,0,2,0,0	test	ward_and_allport	0,0,0,3,1,0,2,0,0	71.0	40.0	0.342	1,2,3,0,0,0,0,0,0	to_board	s251
481.252	1.0	0	PA_without_intermediate	n/a	test	ward_and_allport	n/a	-1.0	40.0	n/a	n/a	feedback	s251
482.252	1.0	0	PA_without_intermediate	n/a	test	ward_and_allport	n/a	-1.0	40.0	n/a	n/a	ITI	s251
483.262	1.653	1	PA_without_intermediate	1,2,0,0,0,0,0,0,0	test	ward_and_allport	0,0,0,3,2,0,1,0,0	89.0	41.0	1.653	1,2,3,0,0,0,0,0,0	to_hand	s251
484.915	0.334	0	PA_without_intermediate	1,2,0,3,0,0,0,0,0	test	ward_and_allport	0,0,0,3,2,0,1,0,0	71.0	41.0	0.334	1,2,3,0,0,0,0,0,0	to_board	s251
485.259	0.452	0	PA_without_intermediate	1,0,0,3,0,0,0,0,0	test	ward_and_allport	0,0,0,3,2,0,1,0,0	89.0	41.0	0.452	1,2,3,0,0,0,0,0,0	to_hand	s251
485.713	0.431	0	PA_without_intermediate	1,0,0,3,2,0,0,0,0	test	ward_and_allport	0,0,0,3,2,0,1,0,0	71.0	41.0	0.431	1,2,3,0,0,0,0,0,0	to_board	s251
486.151	0.424	0	PA_without_intermediate	0,0,0,3,2,0,0,0,0	test	ward_and_allport	0,0,0,3,2,0,1,0,0	89.0	41.0	0.424	1,2,3,0,0,0,0,0,0	to_hand	s251
486.575	0.482	0	PA_without_intermediate	0,0,0,3,2,0,1,0,0	test	ward_and_allport	0,0,0,3,2,0,1,0,0	82.0	41.0	0.482	1,2,3,0,0,0,0,0,0	to_board	s251
487.066	1.0	0	PA_without_intermediate	n/a	test	ward_and_allport	n/a	-1.0	41.0	n/a	n/a	feedback	s251
488.066	1.408	0	PA_without_intermediate	n/a	test	ward_and_allport	n/a	-1.0	41.0	n/a	n/a	ITI	s251
489.481	3.792	1	PA_with_intermediate	1,2,0,0,0,0,0,0,0	test	ward_and_allport	1,3,0,2,0,0,0,0,0	89.0	42.0	3.792	1,2,3,0,0,0,0,0,0	to_hand	s251
493.275	0.387	0	PA_with_intermediate	1,2,0,0,0,0,3,0,0	test	ward_and_allport	1,3,0,2,0,0,0,0,0	82.0	42.0	0.387	1,2,3,0,0,0,0,0,0	to_board	s251
493.669	0.856	0	PA_with_intermediate	1,0,0,0,0,0,3,0,0	test	ward_and_allport	1,3,0,2,0,0,0,0,0	89.0	42.0	0.856	1,2,3,0,0,0,0,0,0	to_hand	s251
494.526	0.407	0	PA_with_intermediate	1,0,0,2,0,0,3,0,0	test	ward_and_allport	1,3,0,2,0,0,0,0,0	71.0	42.0	0.407	1,2,3,0,0,0,0,0,0	to_board	s251
494.942	0.552	0	PA_with_intermediate	1,0,0,2,0,0,0,0,0	test	ward_and_allport	1,3,0,2,0,0,0,0,0	82.0	42.0	0.552	1,2,3,0,0,0,0,0,0	to_hand	s251
495.495	0.58	0	PA_with_intermediate	1,3,0,2,0,0,0,0,0	test	ward_and_allport	1,3,0,2,0,0,0,0,0	89.0	42.0	0.58	1,2,3,0,0,0,0,0,0	to_board	s251
496.087	1.0	0	PA_with_intermediate	n/a	test	ward_and_allport	n/a	-1.0	42.0	n/a	n/a	feedback	s251
497.087	1.136	0	PA_with_intermediate	n/a	test	ward_and_allport	n/a	-1.0	42.0	n/a	n/a	ITI	s251
498.233	3.509	1	PA_without_intermediate	0,0,0,0,0,0,1,2,0	test	ward_and_allport	1,0,0,3,2,0,0,0,0	82.0	43.0	3.509	0,0,0,0,0,0,1,2,3	to_hand	s251
501.743	0.452	0	PA_without_intermediate	0,0,0,3,0,0,1,2,0	test	ward_and_allport	1,0,0,3,2,0,0,0,0	71.0	43.0	0.452	0,0,0,0,0,0,1,2,3	to_board	s251
502.203	0.506	0	PA_without_intermediate	0,0,0,3,0,0,1,0,0	test	ward_and_allport	1,0,0,3,2,0,0,0,0	82.0	43.0	0.506	0,0,0,0,0,0,1,2,3	to_hand	s251
502.711	0.48	0	PA_without_intermediate	0,0,0,3,2,0,1,0,0	test	ward_and_allport	1,0,0,3,2,0,0,0,0	71.0	43.0	0.48	0,0,0,0,0,0,1,2,3	to_board	s251
503.198	1.473	0	PA_without_intermediate	0,0,0,3,2,0,0,0,0	test	ward_and_allport	1,0,0,3,2,0,0,0,0	82.0	43.0	1.473	0,0,0,0,0,0,1,2,3	to_hand	s251
504.673	0.395	0	PA_without_intermediate	1,0,0,3,2,0,0,0,0	test	ward_and_allport	1,0,0,3,2,0,0,0,0	89.0	43.0	0.395	0,0,0,0,0,0,1,2,3	to_board	s251
505.079	1.0	0	PA_without_intermediate	n/a	test	ward_and_allport	n/a	-1.0	43.0	n/a	n/a	feedback	s251
506.079	4.128	0	PA_without_intermediate	n/a	test	ward_and_allport	n/a	-1.0	43.0	n/a	n/a	ITI	s251
510.217	2.45	1	PA_without_intermediate	1,2,0,0,0,0,0,0,0	test	ward_and_allport	0,0,0,3,2,0,1,0,0	89.0	44.0	2.45	1,2,3,0,0,0,0,0,0	to_hand	s251
512.669	0.317	0	PA_without_intermediate	1,2,0,3,0,0,0,0,0	test	ward_and_allport	0,0,0,3,2,0,1,0,0	71.0	44.0	0.317	1,2,3,0,0,0,0,0,0	to_board	s251
512.996	0.621	0	PA_without_intermediate	1,0,0,3,0,0,0,0,0	test	ward_and_allport	0,0,0,3,2,0,1,0,0	89.0	44.0	0.621	1,2,3,0,0,0,0,0,0	to_hand	s251
513.619	0.342	0	PA_without_intermediate	1,0,0,3,2,0,0,0,0	test	ward_and_allport	0,0,0,3,2,0,1,0,0	71.0	44.0	0.342	1,2,3,0,0,0,0,0,0	to_board	s251
513.97	0.357	0	PA_without_intermediate	0,0,0,3,2,0,0,0,0	test	ward_and_allport	0,0,0,3,2,0,1,0,0	89.0	44.0	0.357	1,2,3,0,0,0,0,0,0	to_hand	s251
514.328	0.382	0	PA_without_intermediate	0,0,0,3,2,0,1,0,0	test	ward_and_allport	0,0,0,3,2,0,1,0,0	82.0	44.0	0.382	1,2,3,0,0,0,0,0,0	to_board	s251
514.721	1.0	0	PA_without_intermediate	n/a	test	ward_and_allport	n/a	-1.0	44.0	n/a	n/a	feedback	s251
515.721	1.136	0	PA_without_intermediate	n/a	test	ward_and_allport	n/a	-1.0	44.0	n/a	n/a	ITI	s251
521.868	4.094	1	PA_without_intermediate	0,0,0,1,2,0,0,0,0	test	ward_and_allport	3,2,0,0,0,0,1,0,0	71.0	45.0	4.094	0,0,0,1,2,3,0,0,0	to_hand	s251
525.962	0.262	0	PA_without_intermediate	3,0,0,1,2,0,0,0,0	test	ward_and_allport	3,2,0,0,0,0,1,0,0	89.0	45.0	0.262	0,0,0,1,2,3,0,0,0	to_board	s251
526.233	0.348	0	PA_without_intermediate	3,0,0,1,0,0,0,0,0	test	ward_and_allport	3,2,0,0,0,0,1,0,0	71.0	45.0	0.348	0,0,0,1,2,3,0,0,0	to_hand	s251
526.582	0.474	0	PA_without_intermediate	3,2,0,1,0,0,0,0,0	test	ward_and_allport	3,2,0,0,0,0,1,0,0	89.0	45.0	0.474	0,0,0,1,2,3,0,0,0	to_board	s251
527.066	0.377	0	PA_without_intermediate	3,2,0,0,0,0,0,0,0	test	ward_and_allport	3,2,0,0,0,0,1,0,0	71.0	45.0	0.377	0,0,0,1,2,3,0,0,0	to_hand	s251
527.444	0.3	0	PA_without_intermediate	3,2,0,0,0,0,1,0,0	test	ward_and_allport	3,2,0,0,0,0,1,0,0	82.0	45.0	0.3	0,0,0,1,2,3,0,0,0	to_board	s251
527.758	1.0	0	PA_without_intermediate	n/a	test	ward_and_allport	n/a	-1.0	45.0	n/a	n/a	feedback	s251
528.758	4.264	0	PA_without_intermediate	n/a	test	ward_and_allport	n/a	-1.0	45.0	n/a	n/a	ITI	s251
533.035	3.835	1	PA_with_intermediate	0,0,0,1,2,0,0,0,0	test	ward_and_allport	2,3,0,1,0,0,0,0,0	71.0	46.0	3.835	0,0,0,1,2,3,0,0,0	to_hand	s251
536.87	0.284	0	PA_with_intermediate	0,0,0,1,2,0,3,0,0	test	ward_and_allport	2,3,0,1,0,0,0,0,0	82.0	46.0	0.284	0,0,0,1,2,3,0,0,0	to_board	s251
537.165	0.316	0	PA_with_intermediate	0,0,0,1,0,0,3,0,0	test	ward_and_allport	2,3,0,1,0,0,0,0,0	71.0	46.0	0.316	0,0,0,1,2,3,0,0,0	to_hand	s251
537.482	0.306	0	PA_with_intermediate	2,0,0,1,0,0,3,0,0	test	ward_and_allport	2,3,0,1,0,0,0,0,0	89.0	46.0	0.306	0,0,0,1,2,3,0,0,0	to_board	s251
537.798	0.69	0	PA_with_intermediate	2,0,0,1,0,0,0,0,0	test	ward_and_allport	2,3,0,1,0,0,0,0,0	82.0	46.0	0.69	0,0,0,1,2,3,0,0,0	to_hand	s251
538.488	0.393	0	PA_with_intermediate	2,3,0,1,0,0,0,0,0	test	ward_and_allport	2,3,0,1,0,0,0,0,0	89.0	46.0	0.393	0,0,0,1,2,3,0,0,0	to_board	s251
538.894	1.0	0	PA_with_intermediate	n/a	test	ward_and_allport	n/a	-1.0	46.0	n/a	n/a	feedback	s251
539.894	3.04	0	PA_with_intermediate	n/a	test	ward_and_allport	n/a	-1.0	46.0	n/a	n/a	ITI	s251
542.944	3.324	1	PA_with_intermediate	0,0,0,1,2,0,0,0,0	test	ward_and_allport	0,0,0,1,0,0,2,3,0	71.0	47.0	3.324	0,0,0,1,2,3,0,0,0	to_hand	s251
546.269	0.264	0	PA_with_intermediate	3,0,0,1,2,0,0,0,0	test	ward_and_allport	0,0,0,1,0,0,2,3,0	89.0	47.0	0.264	0,0,0,1,2,3,0,0,0	to_board	s251
546.545	0.299	0	PA_with_intermediate	3,0,0,1,0,0,0,0,0	test	ward_and_allport	0,0,0,1,0,0,2,3,0	71.0	47.0	0.299	0,0,0,1,2,3,0,0,0	to_hand	s251
546.845	0.339	0	PA_with_intermediate	3,0,0,1,0,0,2,0,0	test	ward_and_allport	0,0,0,1,0,0,2,3,0	82.0	47.0	0.339	0,0,0,1,2,3,0,0,0	to_board	s251
547.195	0.489	0	PA_with_intermediate	0,0,0,1,0,0,2,0,0	test	ward_and_allport	0,0,0,1,0,0,2,3,0	89.0	47.0	0.489	0,0,0,1,2,3,0,0,0	to_hand	s251
547.685	0.495	0	PA_with_intermediate	0,0,0,1,0,0,2,3,0	test	ward_and_allport	0,0,0,1,0,0,2,3,0	82.0	47.0	0.495	0,0,0,1,2,3,0,0,0	to_board	s251
548.193	1.0	0	PA_with_intermediate	n/a	test	ward_and_allport	n/a	-1.0	47.0	n/a	n/a	feedback	s251
549.193	1.136	0	PA_with_intermediate	n/a	test	ward_and_allport	n/a	-1.0	47.0	n/a	n/a	ITI	s251
n/a	n/a	0	n/a	n/a	n/a	n/a	n/a	n/a	n/a	n/a	n/a	ITI	n/a
