onset	duration	planning	condition	current_position	exp_stage	experiment_exp_id	goal_state	key_press	problem_id	response_time	start_state	trial_id	worker_id
-59.411	0.0	0	n/a	n/a	n/a	ward_and_allport	n/a	32.0	n/a	16.482	n/a	instructions	s471
3.01	3.293	1	UA_with_intermediate	0,0,0,2,3,0,0,0,0	practice	ward_and_allport	1,2,3,0,0,0,0,0,0	89.0	0.0	3.293	1,0,0,2,3,0,0,0,0	to_hand	s471
6.305	1.162	0	UA_with_intermediate	1,0,0,2,3,0,0,0,0	practice	ward_and_allport	1,2,3,0,0,0,0,0,0	89.0	0.0	1.162	1,0,0,2,3,0,0,0,0	to_board	s471
7.471	0.461	0	UA_with_intermediate	1,0,0,2,0,0,0,0,0	practice	ward_and_allport	1,2,3,0,0,0,0,0,0	71.0	0.0	0.461	1,0,0,2,3,0,0,0,0	to_hand	s471
7.933	0.303	0	UA_with_intermediate	1,3,0,2,0,0,0,0,0	practice	ward_and_allport	1,2,3,0,0,0,0,0,0	89.0	0.0	0.303	1,0,0,2,3,0,0,0,0	to_board	s471
8.238	1.184	0	UA_with_intermediate	1,3,0,0,0,0,0,0,0	practice	ward_and_allport	1,2,3,0,0,0,0,0,0	71.0	0.0	1.184	1,0,0,2,3,0,0,0,0	to_hand	s471
9.424	0.333	0	UA_with_intermediate	1,3,2,0,0,0,0,0,0	practice	ward_and_allport	1,2,3,0,0,0,0,0,0	89.0	0.0	0.333	1,0,0,2,3,0,0,0,0	to_board	s471
9.76	2.59	0	UA_with_intermediate	1,3,0,0,0,0,0,0,0	practice	ward_and_allport	1,2,3,0,0,0,0,0,0	89.0	0.0	2.59	1,0,0,2,3,0,0,0,0	to_hand	s471
12.352	0.327	0	UA_with_intermediate	1,3,0,2,0,0,0,0,0	practice	ward_and_allport	1,2,3,0,0,0,0,0,0	71.0	0.0	0.327	1,0,0,2,3,0,0,0,0	to_board	s471
12.682	1.955	0	UA_with_intermediate	1,0,0,2,0,0,0,0,0	practice	ward_and_allport	1,2,3,0,0,0,0,0,0	89.0	0.0	1.955	1,0,0,2,3,0,0,0,0	to_hand	s471
14.639	0.722	0	UA_with_intermediate	1,0,0,2,0,0,3,0,0	practice	ward_and_allport	1,2,3,0,0,0,0,0,0	82.0	0.0	0.722	1,0,0,2,3,0,0,0,0	to_board	s471
15.365	0.808	0	UA_with_intermediate	1,0,0,0,0,0,3,0,0	practice	ward_and_allport	1,2,3,0,0,0,0,0,0	71.0	0.0	0.808	1,0,0,2,3,0,0,0,0	to_hand	s471
16.174	0.269	0	UA_with_intermediate	1,2,0,0,0,0,3,0,0	practice	ward_and_allport	1,2,3,0,0,0,0,0,0	89.0	0.0	0.269	1,0,0,2,3,0,0,0,0	to_board	s471
16.446	0.503	0	UA_with_intermediate	1,2,0,0,0,0,0,0,0	practice	ward_and_allport	1,2,3,0,0,0,0,0,0	82.0	0.0	0.503	1,0,0,2,3,0,0,0,0	to_hand	s471
16.951	0.285	0	UA_with_intermediate	1,2,3,0,0,0,0,0,0	practice	ward_and_allport	1,2,3,0,0,0,0,0,0	89.0	0.0	0.285	1,0,0,2,3,0,0,0,0	to_board	s471
17.24	1.0	0	UA_with_intermediate	n/a	practice	ward_and_allport	n/a	-1.0	0.0	n/a	n/a	feedback	s471
19.742	2.933	1	UA_with_intermediate	1,0,0,3,0,0,0,0,0	practice	ward_and_allport	1,3,2,0,0,0,0,0,0	89.0	1.0	2.933	1,2,0,3,0,0,0,0,0	to_hand	s471
22.676	0.399	0	UA_with_intermediate	1,0,0,3,0,0,2,0,0	practice	ward_and_allport	1,3,2,0,0,0,0,0,0	82.0	1.0	0.399	1,2,0,3,0,0,0,0,0	to_board	s471
23.079	0.745	0	UA_with_intermediate	1,0,0,0,0,0,2,0,0	practice	ward_and_allport	1,3,2,0,0,0,0,0,0	71.0	1.0	0.745	1,2,0,3,0,0,0,0,0	to_hand	s471
23.825	0.649	0	UA_with_intermediate	1,3,0,0,0,0,2,0,0	practice	ward_and_allport	1,3,2,0,0,0,0,0,0	89.0	1.0	0.649	1,2,0,3,0,0,0,0,0	to_board	s471
24.477	0.859	0	UA_with_intermediate	1,3,0,0,0,0,0,0,0	practice	ward_and_allport	1,3,2,0,0,0,0,0,0	82.0	1.0	0.859	1,2,0,3,0,0,0,0,0	to_hand	s471
25.337	0.415	0	UA_with_intermediate	1,3,2,0,0,0,0,0,0	practice	ward_and_allport	1,3,2,0,0,0,0,0,0	89.0	1.0	0.415	1,2,0,3,0,0,0,0,0	to_board	s471
25.756	1.0	0	UA_with_intermediate	n/a	practice	ward_and_allport	n/a	-1.0	1.0	n/a	n/a	feedback	s471
26.756	1.1	0	UA_with_intermediate	n/a	practice	ward_and_allport	n/a	-1.0	1.0	n/a	n/a	ITI	s471
27.859	2.624	1	UA_without_intermediate	0,0,0,1,2,0,0,0,0	practice	ward_and_allport	3,2,1,0,0,0,0,0,0	82.0	2.0	2.624	0,0,0,1,2,0,3,0,0	to_hand	s471
30.484	0.314	0	UA_without_intermediate	3,0,0,1,2,0,0,0,0	practice	ward_and_allport	3,2,1,0,0,0,0,0,0	89.0	2.0	0.314	0,0,0,1,2,0,3,0,0	to_board	s471
30.801	1.315	0	UA_without_intermediate	3,0,0,1,0,0,0,0,0	practice	ward_and_allport	3,2,1,0,0,0,0,0,0	71.0	2.0	1.315	0,0,0,1,2,0,3,0,0	to_hand	s471
32.118	0.369	0	UA_without_intermediate	3,2,0,1,0,0,0,0,0	practice	ward_and_allport	3,2,1,0,0,0,0,0,0	89.0	2.0	0.369	0,0,0,1,2,0,3,0,0	to_board	s471
32.49	0.865	0	UA_without_intermediate	3,2,0,0,0,0,0,0,0	practice	ward_and_allport	3,2,1,0,0,0,0,0,0	71.0	2.0	0.865	0,0,0,1,2,0,3,0,0	to_hand	s471
33.355	0.252	0	UA_without_intermediate	3,2,1,0,0,0,0,0,0	practice	ward_and_allport	3,2,1,0,0,0,0,0,0	89.0	2.0	0.252	0,0,0,1,2,0,3,0,0	to_board	s471
33.612	1.0	0	UA_without_intermediate	n/a	practice	ward_and_allport	n/a	-1.0	2.0	n/a	n/a	feedback	s471
34.612	1.2	0	UA_without_intermediate	n/a	practice	ward_and_allport	n/a	-1.0	2.0	n/a	n/a	ITI	s471
35.815	1.776	1	UA_without_intermediate	0,0,0,1,0,0,3,0,0	practice	ward_and_allport	2,3,1,0,0,0,0,0,0	71.0	3.0	1.776	0,0,0,1,2,0,3,0,0	to_hand	s471
37.592	0.337	0	UA_without_intermediate	2,0,0,1,0,0,3,0,0	practice	ward_and_allport	2,3,1,0,0,0,0,0,0	89.0	3.0	0.337	0,0,0,1,2,0,3,0,0	to_board	s471
37.932	0.423	0	UA_without_intermediate	2,0,0,1,0,0,0,0,0	practice	ward_and_allport	2,3,1,0,0,0,0,0,0	82.0	3.0	0.423	0,0,0,1,2,0,3,0,0	to_hand	s471
38.356	0.371	0	UA_without_intermediate	2,3,0,1,0,0,0,0,0	practice	ward_and_allport	2,3,1,0,0,0,0,0,0	89.0	3.0	0.371	0,0,0,1,2,0,3,0,0	to_board	s471
38.73	0.502	0	UA_without_intermediate	2,3,0,0,0,0,0,0,0	practice	ward_and_allport	2,3,1,0,0,0,0,0,0	71.0	3.0	0.502	0,0,0,1,2,0,3,0,0	to_hand	s471
39.233	0.262	0	UA_without_intermediate	2,3,1,0,0,0,0,0,0	practice	ward_and_allport	2,3,1,0,0,0,0,0,0	89.0	3.0	0.262	0,0,0,1,2,0,3,0,0	to_board	s471
39.499	1.0	0	UA_without_intermediate	n/a	practice	ward_and_allport	n/a	-1.0	3.0	n/a	n/a	feedback	s471
40.499	1.0	0	UA_without_intermediate	n/a	practice	ward_and_allport	n/a	-1.0	3.0	n/a	n/a	ITI	s471
43.505	4.527	1	PA_with_intermediate	1,2,0,0,0,0,0,0,0	test	ward_and_allport	1,0,0,0,0,0,2,3,0	89.0	0.0	4.527	1,2,3,0,0,0,0,0,0	to_hand	s471
48.034	0.351	0	PA_with_intermediate	1,2,0,3,0,0,0,0,0	test	ward_and_allport	1,0,0,0,0,0,2,3,0	71.0	0.0	0.351	1,2,3,0,0,0,0,0,0	to_board	s471
48.388	0.976	0	PA_with_intermediate	1,0,0,3,0,0,0,0,0	test	ward_and_allport	1,0,0,0,0,0,2,3,0	89.0	0.0	0.976	1,2,3,0,0,0,0,0,0	to_hand	s471
49.366	0.368	0	PA_with_intermediate	1,0,0,3,0,0,2,0,0	test	ward_and_allport	1,0,0,0,0,0,2,3,0	82.0	0.0	0.368	1,2,3,0,0,0,0,0,0	to_board	s471
49.738	0.501	0	PA_with_intermediate	0,0,0,3,0,0,2,0,0	test	ward_and_allport	1,0,0,0,0,0,2,3,0	89.0	0.0	0.501	1,2,3,0,0,0,0,0,0	to_hand	s471
50.241	1.241	0	PA_with_intermediate	1,0,0,3,0,0,2,0,0	test	ward_and_allport	1,0,0,0,0,0,2,3,0	89.0	0.0	1.241	1,2,3,0,0,0,0,0,0	to_board	s471
51.485	0.897	0	PA_with_intermediate	1,0,0,0,0,0,2,0,0	test	ward_and_allport	1,0,0,0,0,0,2,3,0	71.0	0.0	0.897	1,2,3,0,0,0,0,0,0	to_hand	s471
52.383	0.39	0	PA_with_intermediate	1,0,0,0,0,0,2,3,0	test	ward_and_allport	1,0,0,0,0,0,2,3,0	82.0	0.0	0.39	1,2,3,0,0,0,0,0,0	to_board	s471
52.778	1.0	0	PA_with_intermediate	n/a	test	ward_and_allport	n/a	-1.0	0.0	n/a	n/a	feedback	s471
53.778	3.176	0	PA_with_intermediate	n/a	test	ward_and_allport	n/a	-1.0	0.0	n/a	n/a	ITI	s471
56.958	3.836	1	PA_with_intermediate	0,0,0,0,0,0,1,2,0	test	ward_and_allport	0,0,0,2,3,0,1,0,0	82.0	1.0	3.836	0,0,0,0,0,0,1,2,3	to_hand	s471
60.795	0.212	0	PA_with_intermediate	3,0,0,0,0,0,1,2,0	test	ward_and_allport	0,0,0,2,3,0,1,0,0	89.0	1.0	0.212	0,0,0,0,0,0,1,2,3	to_board	s471
61.01	1.506	0	PA_with_intermediate	3,0,0,0,0,0,1,0,0	test	ward_and_allport	0,0,0,2,3,0,1,0,0	82.0	1.0	1.506	0,0,0,0,0,0,1,2,3	to_hand	s471
62.517	0.314	0	PA_with_intermediate	3,0,0,2,0,0,1,0,0	test	ward_and_allport	0,0,0,2,3,0,1,0,0	71.0	1.0	0.314	0,0,0,0,0,0,1,2,3	to_board	s471
62.834	0.752	0	PA_with_intermediate	0,0,0,2,0,0,1,0,0	test	ward_and_allport	0,0,0,2,3,0,1,0,0	89.0	1.0	0.752	0,0,0,0,0,0,1,2,3	to_hand	s471
63.586	0.363	0	PA_with_intermediate	0,0,0,2,3,0,1,0,0	test	ward_and_allport	0,0,0,2,3,0,1,0,0	71.0	1.0	0.363	0,0,0,0,0,0,1,2,3	to_board	s471
63.953	1.0	0	PA_with_intermediate	n/a	test	ward_and_allport	n/a	-1.0	1.0	n/a	n/a	feedback	s471
64.953	2.36	0	PA_with_intermediate	n/a	test	ward_and_allport	n/a	-1.0	1.0	n/a	n/a	ITI	s471
67.318	3.736	1	PA_with_intermediate	0,0,0,1,2,0,0,0,0	test	ward_and_allport	2,0,0,1,3,0,0,0,0	71.0	2.0	3.736	0,0,0,1,2,3,0,0,0	to_hand	s471
71.055	1.362	0	PA_with_intermediate	0,0,0,1,2,0,3,0,0	test	ward_and_allport	2,0,0,1,3,0,0,0,0	82.0	2.0	1.362	0,0,0,1,2,3,0,0,0	to_board	s471
72.419	0.565	0	PA_with_intermediate	0,0,0,1,0,0,3,0,0	test	ward_and_allport	2,0,0,1,3,0,0,0,0	71.0	2.0	0.565	0,0,0,1,2,3,0,0,0	to_hand	s471
72.987	0.287	0	PA_with_intermediate	2,0,0,1,0,0,3,0,0	test	ward_and_allport	2,0,0,1,3,0,0,0,0	89.0	2.0	0.287	0,0,0,1,2,3,0,0,0	to_board	s471
73.278	0.376	0	PA_with_intermediate	2,0,0,1,0,0,0,0,0	test	ward_and_allport	2,0,0,1,3,0,0,0,0	82.0	2.0	0.376	0,0,0,1,2,3,0,0,0	to_hand	s471
73.656	0.318	0	PA_with_intermediate	2,0,0,1,3,0,0,0,0	test	ward_and_allport	2,0,0,1,3,0,0,0,0	71.0	2.0	0.318	0,0,0,1,2,3,0,0,0	to_board	s471
73.979	1.0	0	PA_with_intermediate	n/a	test	ward_and_allport	n/a	-1.0	2.0	n/a	n/a	feedback	s471
74.979	1.0	0	PA_with_intermediate	n/a	test	ward_and_allport	n/a	-1.0	2.0	n/a	n/a	ITI	s471
75.984	3.97	1	PA_without_intermediate	1,2,0,0,0,0,0,0,0	test	ward_and_allport	0,0,0,1,0,0,3,2,0	89.0	3.0	3.97	1,2,3,0,0,0,0,0,0	to_hand	s471
79.956	0.194	0	PA_without_intermediate	1,2,0,0,0,0,3,0,0	test	ward_and_allport	0,0,0,1,0,0,3,2,0	82.0	3.0	0.194	1,2,3,0,0,0,0,0,0	to_board	s471
80.154	0.793	0	PA_without_intermediate	1,2,0,0,0,0,0,0,0	test	ward_and_allport	0,0,0,1,0,0,3,2,0	82.0	3.0	0.793	1,2,3,0,0,0,0,0,0	to_hand	s471
80.949	0.995	0	PA_without_intermediate	1,2,0,0,0,0,3,0,0	test	ward_and_allport	0,0,0,1,0,0,3,2,0	82.0	3.0	0.995	1,2,3,0,0,0,0,0,0	to_board	s471
81.948	0.648	0	PA_without_intermediate	1,0,0,0,0,0,3,0,0	test	ward_and_allport	0,0,0,1,0,0,3,2,0	89.0	3.0	0.648	1,2,3,0,0,0,0,0,0	to_hand	s471
82.598	0.291	0	PA_without_intermediate	1,0,0,0,0,0,3,2,0	test	ward_and_allport	0,0,0,1,0,0,3,2,0	82.0	3.0	0.291	1,2,3,0,0,0,0,0,0	to_board	s471
82.892	0.621	0	PA_without_intermediate	0,0,0,0,0,0,3,2,0	test	ward_and_allport	0,0,0,1,0,0,3,2,0	89.0	3.0	0.621	1,2,3,0,0,0,0,0,0	to_hand	s471
83.515	0.267	0	PA_without_intermediate	0,0,0,1,0,0,3,2,0	test	ward_and_allport	0,0,0,1,0,0,3,2,0	71.0	3.0	0.267	1,2,3,0,0,0,0,0,0	to_board	s471
83.787	1.0	0	PA_without_intermediate	n/a	test	ward_and_allport	n/a	-1.0	3.0	n/a	n/a	feedback	s471
84.787	1.408	0	PA_without_intermediate	n/a	test	ward_and_allport	n/a	-1.0	3.0	n/a	n/a	ITI	s471
86.2	3.955	1	PA_with_intermediate	0,0,0,1,2,0,0,0,0	test	ward_and_allport	0,0,0,1,0,0,2,3,0	71.0	4.0	3.955	0,0,0,1,2,3,0,0,0	to_hand	s471
90.157	0.304	0	PA_with_intermediate	3,0,0,1,2,0,0,0,0	test	ward_and_allport	0,0,0,1,0,0,2,3,0	89.0	4.0	0.304	0,0,0,1,2,3,0,0,0	to_board	s471
90.464	0.521	0	PA_with_intermediate	3,0,0,1,0,0,0,0,0	test	ward_and_allport	0,0,0,1,0,0,2,3,0	71.0	4.0	0.521	0,0,0,1,2,3,0,0,0	to_hand	s471
90.986	0.266	0	PA_with_intermediate	3,0,0,1,0,0,2,0,0	test	ward_and_allport	0,0,0,1,0,0,2,3,0	82.0	4.0	0.266	0,0,0,1,2,3,0,0,0	to_board	s471
91.257	0.769	0	PA_with_intermediate	0,0,0,1,0,0,2,0,0	test	ward_and_allport	0,0,0,1,0,0,2,3,0	89.0	4.0	0.769	0,0,0,1,2,3,0,0,0	to_hand	s471
92.027	0.318	0	PA_with_intermediate	0,0,0,1,0,0,2,3,0	test	ward_and_allport	0,0,0,1,0,0,2,3,0	82.0	4.0	0.318	0,0,0,1,2,3,0,0,0	to_board	s471
92.35	1.0	0	PA_with_intermediate	n/a	test	ward_and_allport	n/a	-1.0	4.0	n/a	n/a	feedback	s471
93.35	1.816	0	PA_with_intermediate	n/a	test	ward_and_allport	n/a	-1.0	4.0	n/a	n/a	ITI	s471
95.171	2.59	1	PA_without_intermediate	1,2,0,0,0,0,0,0,0	test	ward_and_allport	0,0,0,3,1,0,2,0,0	89.0	5.0	2.59	1,2,3,0,0,0,0,0,0	to_hand	s471
97.762	0.401	0	PA_without_intermediate	1,2,0,3,0,0,0,0,0	test	ward_and_allport	0,0,0,3,1,0,2,0,0	71.0	5.0	0.401	1,2,3,0,0,0,0,0,0	to_board	s471
98.168	0.569	0	PA_without_intermediate	1,0,0,3,0,0,0,0,0	test	ward_and_allport	0,0,0,3,1,0,2,0,0	89.0	5.0	0.569	1,2,3,0,0,0,0,0,0	to_hand	s471
98.738	0.328	0	PA_without_intermediate	1,0,0,3,0,0,2,0,0	test	ward_and_allport	0,0,0,3,1,0,2,0,0	82.0	5.0	0.328	1,2,3,0,0,0,0,0,0	to_board	s471
99.07	0.378	0	PA_without_intermediate	0,0,0,3,0,0,2,0,0	test	ward_and_allport	0,0,0,3,1,0,2,0,0	89.0	5.0	0.378	1,2,3,0,0,0,0,0,0	to_hand	s471
99.449	0.289	0	PA_without_intermediate	0,0,0,3,1,0,2,0,0	test	ward_and_allport	0,0,0,3,1,0,2,0,0	71.0	5.0	0.289	1,2,3,0,0,0,0,0,0	to_board	s471
99.743	1.0	0	PA_without_intermediate	n/a	test	ward_and_allport	n/a	-1.0	5.0	n/a	n/a	feedback	s471
100.743	2.088	0	PA_without_intermediate	n/a	test	ward_and_allport	n/a	-1.0	5.0	n/a	n/a	ITI	s471
102.836	2.374	1	PA_without_intermediate	0,0,0,1,2,0,0,0,0	test	ward_and_allport	3,1,0,0,0,0,2,0,0	71.0	6.0	2.374	0,0,0,1,2,3,0,0,0	to_hand	s471
105.212	0.293	0	PA_without_intermediate	3,0,0,1,2,0,0,0,0	test	ward_and_allport	3,1,0,0,0,0,2,0,0	89.0	6.0	0.293	0,0,0,1,2,3,0,0,0	to_board	s471
105.51	0.554	0	PA_without_intermediate	3,0,0,1,0,0,0,0,0	test	ward_and_allport	3,1,0,0,0,0,2,0,0	71.0	6.0	0.554	0,0,0,1,2,3,0,0,0	to_hand	s471
106.066	0.266	0	PA_without_intermediate	3,0,0,1,0,0,2,0,0	test	ward_and_allport	3,1,0,0,0,0,2,0,0	82.0	6.0	0.266	0,0,0,1,2,3,0,0,0	to_board	s471
106.336	0.326	0	PA_without_intermediate	3,0,0,0,0,0,2,0,0	test	ward_and_allport	3,1,0,0,0,0,2,0,0	71.0	6.0	0.326	0,0,0,1,2,3,0,0,0	to_hand	s471
106.664	0.255	0	PA_without_intermediate	3,1,0,0,0,0,2,0,0	test	ward_and_allport	3,1,0,0,0,0,2,0,0	89.0	6.0	0.255	0,0,0,1,2,3,0,0,0	to_board	s471
106.924	1.0	0	PA_without_intermediate	n/a	test	ward_and_allport	n/a	-1.0	6.0	n/a	n/a	feedback	s471
107.924	1.136	0	PA_without_intermediate	n/a	test	ward_and_allport	n/a	-1.0	6.0	n/a	n/a	ITI	s471
109.066	2.703	1	PA_without_intermediate	0,0,0,1,2,0,0,0,0	test	ward_and_allport	2,0,0,0,0,0,3,1,0	71.0	7.0	2.703	0,0,0,1,2,3,0,0,0	to_hand	s471
111.771	0.405	0	PA_without_intermediate	0,0,0,1,2,0,3,0,0	test	ward_and_allport	2,0,0,0,0,0,3,1,0	82.0	7.0	0.405	0,0,0,1,2,3,0,0,0	to_board	s471
112.181	0.323	0	PA_without_intermediate	0,0,0,1,0,0,3,0,0	test	ward_and_allport	2,0,0,0,0,0,3,1,0	71.0	7.0	0.323	0,0,0,1,2,3,0,0,0	to_hand	s471
112.505	0.257	0	PA_without_intermediate	2,0,0,1,0,0,3,0,0	test	ward_and_allport	2,0,0,0,0,0,3,1,0	89.0	7.0	0.257	0,0,0,1,2,3,0,0,0	to_board	s471
112.766	0.287	0	PA_without_intermediate	2,0,0,0,0,0,3,0,0	test	ward_and_allport	2,0,0,0,0,0,3,1,0	71.0	7.0	0.287	0,0,0,1,2,3,0,0,0	to_hand	s471
113.055	0.209	0	PA_without_intermediate	2,0,0,0,0,0,3,1,0	test	ward_and_allport	2,0,0,0,0,0,3,1,0	82.0	7.0	0.209	0,0,0,1,2,3,0,0,0	to_board	s471
113.269	1.0	0	PA_without_intermediate	n/a	test	ward_and_allport	n/a	-1.0	7.0	n/a	n/a	feedback	s471
114.269	6.168	0	PA_without_intermediate	n/a	test	ward_and_allport	n/a	-1.0	7.0	n/a	n/a	ITI	s471
120.441	2.989	1	PA_without_intermediate	0,0,0,0,0,0,1,2,0	test	ward_and_allport	2,0,0,3,1,0,0,0,0	82.0	8.0	2.989	0,0,0,0,0,0,1,2,3	to_hand	s471
123.432	0.221	0	PA_without_intermediate	0,0,0,3,0,0,1,2,0	test	ward_and_allport	2,0,0,3,1,0,0,0,0	71.0	8.0	0.221	0,0,0,0,0,0,1,2,3	to_board	s471
123.658	0.928	0	PA_without_intermediate	0,0,0,3,0,0,1,0,0	test	ward_and_allport	2,0,0,3,1,0,0,0,0	82.0	8.0	0.928	0,0,0,0,0,0,1,2,3	to_hand	s471
124.586	0.281	0	PA_without_intermediate	2,0,0,3,0,0,1,0,0	test	ward_and_allport	2,0,0,3,1,0,0,0,0	89.0	8.0	0.281	0,0,0,0,0,0,1,2,3	to_board	s471
124.872	0.4	0	PA_without_intermediate	2,0,0,3,0,0,0,0,0	test	ward_and_allport	2,0,0,3,1,0,0,0,0	82.0	8.0	0.4	0,0,0,0,0,0,1,2,3	to_hand	s471
125.273	0.238	0	PA_without_intermediate	2,0,0,3,1,0,0,0,0	test	ward_and_allport	2,0,0,3,1,0,0,0,0	71.0	8.0	0.238	0,0,0,0,0,0,1,2,3	to_board	s471
125.517	1.0	0	PA_without_intermediate	n/a	test	ward_and_allport	n/a	-1.0	8.0	n/a	n/a	feedback	s471
126.517	1.816	0	PA_without_intermediate	n/a	test	ward_and_allport	n/a	-1.0	8.0	n/a	n/a	ITI	s471
128.339	3.705	1	PA_with_intermediate	1,2,0,0,0,0,0,0,0	test	ward_and_allport	1,3,0,0,0,0,2,0,0	89.0	9.0	3.705	1,2,3,0,0,0,0,0,0	to_hand	s471
132.046	1.32	0	PA_with_intermediate	1,2,0,3,0,0,0,0,0	test	ward_and_allport	1,3,0,0,0,0,2,0,0	71.0	9.0	1.32	1,2,3,0,0,0,0,0,0	to_board	s471
133.371	0.414	0	PA_with_intermediate	1,0,0,3,0,0,0,0,0	test	ward_and_allport	1,3,0,0,0,0,2,0,0	89.0	9.0	0.414	1,2,3,0,0,0,0,0,0	to_hand	s471
133.786	0.282	0	PA_with_intermediate	1,0,0,3,0,0,2,0,0	test	ward_and_allport	1,3,0,0,0,0,2,0,0	82.0	9.0	0.282	1,2,3,0,0,0,0,0,0	to_board	s471
134.074	0.418	0	PA_with_intermediate	1,0,0,0,0,0,2,0,0	test	ward_and_allport	1,3,0,0,0,0,2,0,0	71.0	9.0	0.418	1,2,3,0,0,0,0,0,0	to_hand	s471
134.493	0.275	0	PA_with_intermediate	1,3,0,0,0,0,2,0,0	test	ward_and_allport	1,3,0,0,0,0,2,0,0	89.0	9.0	0.275	1,2,3,0,0,0,0,0,0	to_board	s471
134.775	1.0	0	PA_with_intermediate	n/a	test	ward_and_allport	n/a	-1.0	9.0	n/a	n/a	feedback	s471
135.775	1.952	0	PA_with_intermediate	n/a	test	ward_and_allport	n/a	-1.0	9.0	n/a	n/a	ITI	s471
137.733	2.382	1	PA_with_intermediate	0,0,0,0,0,0,1,2,0	test	ward_and_allport	2,3,0,0,0,0,1,0,0	82.0	10.0	2.382	0,0,0,0,0,0,1,2,3	to_hand	s471
140.117	0.287	0	PA_with_intermediate	0,0,0,3,0,0,1,2,0	test	ward_and_allport	2,3,0,0,0,0,1,0,0	71.0	10.0	0.287	0,0,0,0,0,0,1,2,3	to_board	s471
140.409	0.549	0	PA_with_intermediate	0,0,0,3,0,0,1,0,0	test	ward_and_allport	2,3,0,0,0,0,1,0,0	82.0	10.0	0.549	0,0,0,0,0,0,1,2,3	to_hand	s471
140.96	0.335	0	PA_with_intermediate	2,0,0,3,0,0,1,0,0	test	ward_and_allport	2,3,0,0,0,0,1,0,0	89.0	10.0	0.335	0,0,0,0,0,0,1,2,3	to_board	s471
141.3	0.414	0	PA_with_intermediate	2,0,0,0,0,0,1,0,0	test	ward_and_allport	2,3,0,0,0,0,1,0,0	71.0	10.0	0.414	0,0,0,0,0,0,1,2,3	to_hand	s471
141.716	0.287	0	PA_with_intermediate	2,3,0,0,0,0,1,0,0	test	ward_and_allport	2,3,0,0,0,0,1,0,0	89.0	10.0	0.287	0,0,0,0,0,0,1,2,3	to_board	s471
142.01	1.0	0	PA_with_intermediate	n/a	test	ward_and_allport	n/a	-1.0	10.0	n/a	n/a	feedback	s471
143.01	1.136	0	PA_with_intermediate	n/a	test	ward_and_allport	n/a	-1.0	10.0	n/a	n/a	ITI	s471
144.151	2.926	1	PA_without_intermediate	1,2,0,0,0,0,0,0,0	test	ward_and_allport	0,0,0,2,0,0,3,1,0	89.0	11.0	2.926	1,2,3,0,0,0,0,0,0	to_hand	s471
147.079	0.205	0	PA_without_intermediate	1,2,0,0,0,0,3,0,0	test	ward_and_allport	0,0,0,2,0,0,3,1,0	82.0	11.0	0.205	1,2,3,0,0,0,0,0,0	to_board	s471
147.29	1.158	0	PA_without_intermediate	1,0,0,0,0,0,3,0,0	test	ward_and_allport	0,0,0,2,0,0,3,1,0	89.0	11.0	1.158	1,2,3,0,0,0,0,0,0	to_hand	s471
148.45	0.245	0	PA_without_intermediate	1,0,0,2,0,0,3,0,0	test	ward_and_allport	0,0,0,2,0,0,3,1,0	71.0	11.0	0.245	1,2,3,0,0,0,0,0,0	to_board	s471
148.701	0.404	0	PA_without_intermediate	0,0,0,2,0,0,3,0,0	test	ward_and_allport	0,0,0,2,0,0,3,1,0	89.0	11.0	0.404	1,2,3,0,0,0,0,0,0	to_hand	s471
149.107	0.278	0	PA_without_intermediate	0,0,0,2,0,0,3,1,0	test	ward_and_allport	0,0,0,2,0,0,3,1,0	82.0	11.0	0.278	1,2,3,0,0,0,0,0,0	to_board	s471
149.391	1.0	0	PA_without_intermediate	n/a	test	ward_and_allport	n/a	-1.0	11.0	n/a	n/a	feedback	s471
150.391	1.68	0	PA_without_intermediate	n/a	test	ward_and_allport	n/a	-1.0	11.0	n/a	n/a	ITI	s471
152.076	1.461	1	PA_without_intermediate	0,0,0,0,0,0,1,2,0	test	ward_and_allport	3,2,0,1,0,0,0,0,0	82.0	12.0	1.461	0,0,0,0,0,0,1,2,3	to_hand	s471
153.539	0.293	0	PA_without_intermediate	3,0,0,0,0,0,1,2,0	test	ward_and_allport	3,2,0,1,0,0,0,0,0	89.0	12.0	0.293	0,0,0,0,0,0,1,2,3	to_board	s471
153.837	0.549	0	PA_without_intermediate	3,0,0,0,0,0,1,0,0	test	ward_and_allport	3,2,0,1,0,0,0,0,0	82.0	12.0	0.549	0,0,0,0,0,0,1,2,3	to_hand	s471
154.388	0.265	0	PA_without_intermediate	3,2,0,0,0,0,1,0,0	test	ward_and_allport	3,2,0,1,0,0,0,0,0	89.0	12.0	0.265	0,0,0,0,0,0,1,2,3	to_board	s471
154.659	0.91	0	PA_without_intermediate	3,2,0,0,0,0,0,0,0	test	ward_and_allport	3,2,0,1,0,0,0,0,0	82.0	12.0	0.91	0,0,0,0,0,0,1,2,3	to_hand	s471
155.57	0.538	0	PA_without_intermediate	3,2,0,1,0,0,0,0,0	test	ward_and_allport	3,2,0,1,0,0,0,0,0	71.0	12.0	0.538	0,0,0,0,0,0,1,2,3	to_board	s471
156.115	1.0	0	PA_without_intermediate	n/a	test	ward_and_allport	n/a	-1.0	12.0	n/a	n/a	feedback	s471
157.115	2.088	0	PA_without_intermediate	n/a	test	ward_and_allport	n/a	-1.0	12.0	n/a	n/a	ITI	s471
159.209	2.423	1	PA_with_intermediate	0,0,0,1,2,0,0,0,0	test	ward_and_allport	2,3,0,1,0,0,0,0,0	71.0	13.0	2.423	0,0,0,1,2,3,0,0,0	to_hand	s471
161.633	1.519	0	PA_with_intermediate	0,0,0,1,2,0,3,0,0	test	ward_and_allport	2,3,0,1,0,0,0,0,0	82.0	13.0	1.519	0,0,0,1,2,3,0,0,0	to_board	s471
163.158	0.331	0	PA_with_intermediate	0,0,0,1,0,0,3,0,0	test	ward_and_allport	2,3,0,1,0,0,0,0,0	71.0	13.0	0.331	0,0,0,1,2,3,0,0,0	to_hand	s471
163.49	0.253	0	PA_with_intermediate	2,0,0,1,0,0,3,0,0	test	ward_and_allport	2,3,0,1,0,0,0,0,0	89.0	13.0	0.253	0,0,0,1,2,3,0,0,0	to_board	s471
163.748	0.5	0	PA_with_intermediate	2,0,0,1,0,0,0,0,0	test	ward_and_allport	2,3,0,1,0,0,0,0,0	82.0	13.0	0.5	0,0,0,1,2,3,0,0,0	to_hand	s471
164.249	0.393	0	PA_with_intermediate	2,3,0,1,0,0,0,0,0	test	ward_and_allport	2,3,0,1,0,0,0,0,0	89.0	13.0	0.393	0,0,0,1,2,3,0,0,0	to_board	s471
164.649	1.0	0	PA_with_intermediate	n/a	test	ward_and_allport	n/a	-1.0	13.0	n/a	n/a	feedback	s471
165.649	1.0	0	PA_with_intermediate	n/a	test	ward_and_allport	n/a	-1.0	13.0	n/a	n/a	ITI	s471
166.655	2.834	1	PA_without_intermediate	1,2,0,0,0,0,0,0,0	test	ward_and_allport	0,0,0,3,2,0,1,0,0	89.0	14.0	2.834	1,2,3,0,0,0,0,0,0	to_hand	s471
169.49	0.243	0	PA_without_intermediate	1,2,0,3,0,0,0,0,0	test	ward_and_allport	0,0,0,3,2,0,1,0,0	71.0	14.0	0.243	1,2,3,0,0,0,0,0,0	to_board	s471
169.738	0.815	0	PA_without_intermediate	1,0,0,3,0,0,0,0,0	test	ward_and_allport	0,0,0,3,2,0,1,0,0	89.0	14.0	0.815	1,2,3,0,0,0,0,0,0	to_hand	s471
170.555	0.186	0	PA_without_intermediate	1,0,0,3,2,0,0,0,0	test	ward_and_allport	0,0,0,3,2,0,1,0,0	71.0	14.0	0.186	1,2,3,0,0,0,0,0,0	to_board	s471
170.745	0.387	0	PA_without_intermediate	0,0,0,3,2,0,0,0,0	test	ward_and_allport	0,0,0,3,2,0,1,0,0	89.0	14.0	0.387	1,2,3,0,0,0,0,0,0	to_hand	s471
171.133	0.328	0	PA_without_intermediate	0,0,0,3,2,0,1,0,0	test	ward_and_allport	0,0,0,3,2,0,1,0,0	82.0	14.0	0.328	1,2,3,0,0,0,0,0,0	to_board	s471
171.468	1.0	0	PA_without_intermediate	n/a	test	ward_and_allport	n/a	-1.0	14.0	n/a	n/a	feedback	s471
172.468	1.0	0	PA_without_intermediate	n/a	test	ward_and_allport	n/a	-1.0	14.0	n/a	n/a	ITI	s471
178.477	1.681	1	PA_without_intermediate	0,0,0,1,2,0,0,0,0	test	ward_and_allport	2,0,0,0,0,0,3,1,0	71.0	15.0	1.681	0,0,0,1,2,3,0,0,0	to_hand	s471
180.159	0.348	0	PA_without_intermediate	0,0,0,1,2,0,3,0,0	test	ward_and_allport	2,0,0,0,0,0,3,1,0	82.0	15.0	0.348	0,0,0,1,2,3,0,0,0	to_board	s471
180.513	0.447	0	PA_without_intermediate	0,0,0,1,0,0,3,0,0	test	ward_and_allport	2,0,0,0,0,0,3,1,0	71.0	15.0	0.447	0,0,0,1,2,3,0,0,0	to_hand	s471
180.961	0.33	0	PA_without_intermediate	2,0,0,1,0,0,3,0,0	test	ward_and_allport	2,0,0,0,0,0,3,1,0	89.0	15.0	0.33	0,0,0,1,2,3,0,0,0	to_board	s471
181.298	0.44	0	PA_without_intermediate	2,0,0,0,0,0,3,0,0	test	ward_and_allport	2,0,0,0,0,0,3,1,0	71.0	15.0	0.44	0,0,0,1,2,3,0,0,0	to_hand	s471
181.741	0.564	0	PA_without_intermediate	2,0,0,0,0,0,3,1,0	test	ward_and_allport	2,0,0,0,0,0,3,1,0	82.0	15.0	0.564	0,0,0,1,2,3,0,0,0	to_board	s471
182.313	1.0	0	PA_without_intermediate	n/a	test	ward_and_allport	n/a	-1.0	15.0	n/a	n/a	feedback	s471
183.313	1.0	0	PA_without_intermediate	n/a	test	ward_and_allport	n/a	-1.0	15.0	n/a	n/a	ITI	s471
184.319	2.473	1	PA_with_intermediate	1,2,0,0,0,0,0,0,0	test	ward_and_allport	1,3,0,2,0,0,0,0,0	89.0	16.0	2.473	1,2,3,0,0,0,0,0,0	to_hand	s471
186.794	0.308	0	PA_with_intermediate	1,2,0,0,0,0,3,0,0	test	ward_and_allport	1,3,0,2,0,0,0,0,0	82.0	16.0	0.308	1,2,3,0,0,0,0,0,0	to_board	s471
187.107	0.422	0	PA_with_intermediate	1,0,0,0,0,0,3,0,0	test	ward_and_allport	1,3,0,2,0,0,0,0,0	89.0	16.0	0.422	1,2,3,0,0,0,0,0,0	to_hand	s471
187.53	0.645	0	PA_with_intermediate	1,0,0,2,0,0,3,0,0	test	ward_and_allport	1,3,0,2,0,0,0,0,0	71.0	16.0	0.645	1,2,3,0,0,0,0,0,0	to_board	s471
188.181	0.568	0	PA_with_intermediate	1,0,0,2,0,0,0,0,0	test	ward_and_allport	1,3,0,2,0,0,0,0,0	82.0	16.0	0.568	1,2,3,0,0,0,0,0,0	to_hand	s471
188.75	0.224	0	PA_with_intermediate	1,3,0,2,0,0,0,0,0	test	ward_and_allport	1,3,0,2,0,0,0,0,0	89.0	16.0	0.224	1,2,3,0,0,0,0,0,0	to_board	s471
188.982	1.0	0	PA_with_intermediate	n/a	test	ward_and_allport	n/a	-1.0	16.0	n/a	n/a	feedback	s471
189.982	1.544	0	PA_with_intermediate	n/a	test	ward_and_allport	n/a	-1.0	16.0	n/a	n/a	ITI	s471
191.532	1.862	1	PA_without_intermediate	0,0,0,0,0,0,1,2,0	test	ward_and_allport	3,2,0,1,0,0,0,0,0	82.0	17.0	1.862	0,0,0,0,0,0,1,2,3	to_hand	s471
193.396	0.444	0	PA_without_intermediate	3,0,0,0,0,0,1,2,0	test	ward_and_allport	3,2,0,1,0,0,0,0,0	89.0	17.0	0.444	0,0,0,0,0,0,1,2,3	to_board	s471
193.846	0.291	0	PA_without_intermediate	3,0,0,0,0,0,1,0,0	test	ward_and_allport	3,2,0,1,0,0,0,0,0	82.0	17.0	0.291	0,0,0,0,0,0,1,2,3	to_hand	s471
194.138	0.331	0	PA_without_intermediate	3,2,0,0,0,0,1,0,0	test	ward_and_allport	3,2,0,1,0,0,0,0,0	89.0	17.0	0.331	0,0,0,0,0,0,1,2,3	to_board	s471
194.474	1.658	0	PA_without_intermediate	3,2,0,0,0,0,0,0,0	test	ward_and_allport	3,2,0,1,0,0,0,0,0	82.0	17.0	1.658	0,0,0,0,0,0,1,2,3	to_hand	s471
196.133	0.271	0	PA_without_intermediate	3,2,0,1,0,0,0,0,0	test	ward_and_allport	3,2,0,1,0,0,0,0,0	71.0	17.0	0.271	0,0,0,0,0,0,1,2,3	to_board	s471
196.411	1.0	0	PA_without_intermediate	n/a	test	ward_and_allport	n/a	-1.0	17.0	n/a	n/a	feedback	s471
197.411	1.272	0	PA_without_intermediate	n/a	test	ward_and_allport	n/a	-1.0	17.0	n/a	n/a	ITI	s471
198.69	3.731	1	PA_with_intermediate	1,2,0,0,0,0,0,0,0	test	ward_and_allport	1,0,0,2,3,0,0,0,0	89.0	18.0	3.731	1,2,3,0,0,0,0,0,0	to_hand	s471
202.422	0.262	0	PA_with_intermediate	1,2,0,0,0,0,3,0,0	test	ward_and_allport	1,0,0,2,3,0,0,0,0	82.0	18.0	0.262	1,2,3,0,0,0,0,0,0	to_board	s471
202.689	0.364	0	PA_with_intermediate	1,0,0,0,0,0,3,0,0	test	ward_and_allport	1,0,0,2,3,0,0,0,0	89.0	18.0	0.364	1,2,3,0,0,0,0,0,0	to_hand	s471
203.054	0.352	0	PA_with_intermediate	1,0,0,2,0,0,3,0,0	test	ward_and_allport	1,0,0,2,3,0,0,0,0	71.0	18.0	0.352	1,2,3,0,0,0,0,0,0	to_board	s471
203.412	0.542	0	PA_with_intermediate	0,0,0,2,0,0,3,0,0	test	ward_and_allport	1,0,0,2,3,0,0,0,0	89.0	18.0	0.542	1,2,3,0,0,0,0,0,0	to_hand	s471
203.955	0.665	0	PA_with_intermediate	1,0,0,2,0,0,3,0,0	test	ward_and_allport	1,0,0,2,3,0,0,0,0	89.0	18.0	0.665	1,2,3,0,0,0,0,0,0	to_board	s471
204.626	0.24	0	PA_with_intermediate	1,0,0,2,0,0,0,0,0	test	ward_and_allport	1,0,0,2,3,0,0,0,0	82.0	18.0	0.24	1,2,3,0,0,0,0,0,0	to_hand	s471
204.867	0.303	0	PA_with_intermediate	1,0,0,2,3,0,0,0,0	test	ward_and_allport	1,0,0,2,3,0,0,0,0	71.0	18.0	0.303	1,2,3,0,0,0,0,0,0	to_board	s471
205.177	1.0	0	PA_with_intermediate	n/a	test	ward_and_allport	n/a	-1.0	18.0	n/a	n/a	feedback	s471
206.177	3.04	0	PA_with_intermediate	n/a	test	ward_and_allport	n/a	-1.0	18.0	n/a	n/a	ITI	s471
209.224	1.658	1	PA_with_intermediate	0,0,0,0,0,0,1,2,0	test	ward_and_allport	2,0,0,0,0,0,1,3,0	82.0	19.0	1.658	0,0,0,0,0,0,1,2,3	to_hand	s471
210.884	0.432	0	PA_with_intermediate	0,0,0,3,0,0,1,2,0	test	ward_and_allport	2,0,0,0,0,0,1,3,0	71.0	19.0	0.432	0,0,0,0,0,0,1,2,3	to_board	s471
211.322	0.442	0	PA_with_intermediate	0,0,0,3,0,0,1,0,0	test	ward_and_allport	2,0,0,0,0,0,1,3,0	82.0	19.0	0.442	0,0,0,0,0,0,1,2,3	to_hand	s471
211.766	0.331	0	PA_with_intermediate	2,0,0,3,0,0,1,0,0	test	ward_and_allport	2,0,0,0,0,0,1,3,0	89.0	19.0	0.331	0,0,0,0,0,0,1,2,3	to_board	s471
212.104	0.655	0	PA_with_intermediate	2,0,0,0,0,0,1,0,0	test	ward_and_allport	2,0,0,0,0,0,1,3,0	71.0	19.0	0.655	0,0,0,0,0,0,1,2,3	to_hand	s471
212.761	0.247	0	PA_with_intermediate	2,0,0,0,0,0,1,3,0	test	ward_and_allport	2,0,0,0,0,0,1,3,0	82.0	19.0	0.247	0,0,0,0,0,0,1,2,3	to_board	s471
213.016	1.0	0	PA_with_intermediate	n/a	test	ward_and_allport	n/a	-1.0	19.0	n/a	n/a	feedback	s471
214.016	1.272	0	PA_with_intermediate	n/a	test	ward_and_allport	n/a	-1.0	19.0	n/a	n/a	ITI	s471
215.295	1.805	1	PA_with_intermediate	0,0,0,0,0,0,1,2,0	test	ward_and_allport	2,0,0,0,0,0,1,3,0	82.0	20.0	1.805	0,0,0,0,0,0,1,2,3	to_hand	s471
217.102	0.278	0	PA_with_intermediate	0,0,0,3,0,0,1,2,0	test	ward_and_allport	2,0,0,0,0,0,1,3,0	71.0	20.0	0.278	0,0,0,0,0,0,1,2,3	to_board	s471
217.388	0.643	0	PA_with_intermediate	0,0,0,3,0,0,1,0,0	test	ward_and_allport	2,0,0,0,0,0,1,3,0	82.0	20.0	0.643	0,0,0,0,0,0,1,2,3	to_hand	s471
218.033	0.319	0	PA_with_intermediate	2,0,0,3,0,0,1,0,0	test	ward_and_allport	2,0,0,0,0,0,1,3,0	89.0	20.0	0.319	0,0,0,0,0,0,1,2,3	to_board	s471
218.36	0.595	0	PA_with_intermediate	2,0,0,0,0,0,1,0,0	test	ward_and_allport	2,0,0,0,0,0,1,3,0	71.0	20.0	0.595	0,0,0,0,0,0,1,2,3	to_hand	s471
218.956	0.403	0	PA_with_intermediate	2,0,0,0,0,0,1,3,0	test	ward_and_allport	2,0,0,0,0,0,1,3,0	82.0	20.0	0.403	0,0,0,0,0,0,1,2,3	to_board	s471
219.368	1.0	0	PA_with_intermediate	n/a	test	ward_and_allport	n/a	-1.0	20.0	n/a	n/a	feedback	s471
220.368	1.136	0	PA_with_intermediate	n/a	test	ward_and_allport	n/a	-1.0	20.0	n/a	n/a	ITI	s471
221.51	3.384	1	PA_with_intermediate	1,2,0,0,0,0,0,0,0	test	ward_and_allport	1,3,0,2,0,0,0,0,0	89.0	21.0	3.384	1,2,3,0,0,0,0,0,0	to_hand	s471
224.896	0.177	0	PA_with_intermediate	1,2,0,0,0,0,3,0,0	test	ward_and_allport	1,3,0,2,0,0,0,0,0	82.0	21.0	0.177	1,2,3,0,0,0,0,0,0	to_board	s471
225.081	0.934	0	PA_with_intermediate	1,0,0,0,0,0,3,0,0	test	ward_and_allport	1,3,0,2,0,0,0,0,0	89.0	21.0	0.934	1,2,3,0,0,0,0,0,0	to_hand	s471
226.017	0.224	0	PA_with_intermediate	1,0,0,2,0,0,3,0,0	test	ward_and_allport	1,3,0,2,0,0,0,0,0	71.0	21.0	0.224	1,2,3,0,0,0,0,0,0	to_board	s471
226.247	0.414	0	PA_with_intermediate	1,0,0,2,0,0,0,0,0	test	ward_and_allport	1,3,0,2,0,0,0,0,0	82.0	21.0	0.414	1,2,3,0,0,0,0,0,0	to_hand	s471
226.662	0.302	0	PA_with_intermediate	1,3,0,2,0,0,0,0,0	test	ward_and_allport	1,3,0,2,0,0,0,0,0	89.0	21.0	0.302	1,2,3,0,0,0,0,0,0	to_board	s471
226.973	1.0	0	PA_with_intermediate	n/a	test	ward_and_allport	n/a	-1.0	21.0	n/a	n/a	feedback	s471
227.973	1.0	0	PA_with_intermediate	n/a	test	ward_and_allport	n/a	-1.0	21.0	n/a	n/a	ITI	s471
228.981	2.225	1	PA_with_intermediate	0,0,0,1,2,0,0,0,0	test	ward_and_allport	2,3,0,1,0,0,0,0,0	71.0	22.0	2.225	0,0,0,1,2,3,0,0,0	to_hand	s471
231.207	0.222	0	PA_with_intermediate	0,0,0,1,2,0,3,0,0	test	ward_and_allport	2,3,0,1,0,0,0,0,0	82.0	22.0	0.222	0,0,0,1,2,3,0,0,0	to_board	s471
231.436	0.401	0	PA_with_intermediate	0,0,0,1,0,0,3,0,0	test	ward_and_allport	2,3,0,1,0,0,0,0,0	71.0	22.0	0.401	0,0,0,1,2,3,0,0,0	to_hand	s471
231.838	0.295	0	PA_with_intermediate	2,0,0,1,0,0,3,0,0	test	ward_and_allport	2,3,0,1,0,0,0,0,0	89.0	22.0	0.295	0,0,0,1,2,3,0,0,0	to_board	s471
232.141	0.91	0	PA_with_intermediate	2,0,0,1,0,0,0,0,0	test	ward_and_allport	2,3,0,1,0,0,0,0,0	82.0	22.0	0.91	0,0,0,1,2,3,0,0,0	to_hand	s471
233.052	0.271	0	PA_with_intermediate	2,3,0,1,0,0,0,0,0	test	ward_and_allport	2,3,0,1,0,0,0,0,0	89.0	22.0	0.271	0,0,0,1,2,3,0,0,0	to_board	s471
233.331	1.0	0	PA_with_intermediate	n/a	test	ward_and_allport	n/a	-1.0	22.0	n/a	n/a	feedback	s471
234.331	1.0	0	PA_with_intermediate	n/a	test	ward_and_allport	n/a	-1.0	22.0	n/a	n/a	ITI	s471
235.34	2.541	1	PA_without_intermediate	1,2,0,0,0,0,0,0,0	test	ward_and_allport	0,0,0,2,0,0,3,1,0	89.0	23.0	2.541	1,2,3,0,0,0,0,0,0	to_hand	s471
237.883	0.21	0	PA_without_intermediate	1,2,0,0,0,0,3,0,0	test	ward_and_allport	0,0,0,2,0,0,3,1,0	82.0	23.0	0.21	1,2,3,0,0,0,0,0,0	to_board	s471
238.101	0.65	0	PA_without_intermediate	1,0,0,0,0,0,3,0,0	test	ward_and_allport	0,0,0,2,0,0,3,1,0	89.0	23.0	0.65	1,2,3,0,0,0,0,0,0	to_hand	s471
238.751	0.212	0	PA_without_intermediate	1,0,0,2,0,0,3,0,0	test	ward_and_allport	0,0,0,2,0,0,3,1,0	71.0	23.0	0.212	1,2,3,0,0,0,0,0,0	to_board	s471
238.972	0.593	0	PA_without_intermediate	0,0,0,2,0,0,3,0,0	test	ward_and_allport	0,0,0,2,0,0,3,1,0	89.0	23.0	0.593	1,2,3,0,0,0,0,0,0	to_hand	s471
239.566	0.252	0	PA_without_intermediate	0,0,0,2,0,0,3,1,0	test	ward_and_allport	0,0,0,2,0,0,3,1,0	82.0	23.0	0.252	1,2,3,0,0,0,0,0,0	to_board	s471
239.827	1.0	0	PA_without_intermediate	n/a	test	ward_and_allport	n/a	-1.0	23.0	n/a	n/a	feedback	s471
240.827	1.408	0	PA_without_intermediate	n/a	test	ward_and_allport	n/a	-1.0	23.0	n/a	n/a	ITI	s471
242.244	2.429	1	PA_with_intermediate	0,0,0,0,0,0,1,2,0	test	ward_and_allport	0,0,0,2,3,0,1,0,0	82.0	24.0	2.429	0,0,0,0,0,0,1,2,3	to_hand	s471
244.675	0.298	0	PA_with_intermediate	3,0,0,0,0,0,1,2,0	test	ward_and_allport	0,0,0,2,3,0,1,0,0	89.0	24.0	0.298	0,0,0,0,0,0,1,2,3	to_board	s471
244.98	0.331	0	PA_with_intermediate	3,0,0,0,0,0,1,0,0	test	ward_and_allport	0,0,0,2,3,0,1,0,0	82.0	24.0	0.331	0,0,0,0,0,0,1,2,3	to_hand	s471
245.313	0.303	0	PA_with_intermediate	3,0,0,2,0,0,1,0,0	test	ward_and_allport	0,0,0,2,3,0,1,0,0	71.0	24.0	0.303	0,0,0,0,0,0,1,2,3	to_board	s471
245.624	0.366	0	PA_with_intermediate	0,0,0,2,0,0,1,0,0	test	ward_and_allport	0,0,0,2,3,0,1,0,0	89.0	24.0	0.366	0,0,0,0,0,0,1,2,3	to_hand	s471
245.992	0.337	0	PA_with_intermediate	0,0,0,2,3,0,1,0,0	test	ward_and_allport	0,0,0,2,3,0,1,0,0	71.0	24.0	0.337	0,0,0,0,0,0,1,2,3	to_board	s471
246.339	1.0	0	PA_with_intermediate	n/a	test	ward_and_allport	n/a	-1.0	24.0	n/a	n/a	feedback	s471
247.339	2.768	0	PA_with_intermediate	n/a	test	ward_and_allport	n/a	-1.0	24.0	n/a	n/a	ITI	s471
250.115	1.8	1	PA_with_intermediate	0,0,0,0,0,0,1,2,0	test	ward_and_allport	2,3,0,0,0,0,1,0,0	82.0	25.0	1.8	0,0,0,0,0,0,1,2,3	to_hand	s471
251.917	0.286	0	PA_with_intermediate	3,0,0,0,0,0,1,2,0	test	ward_and_allport	2,3,0,0,0,0,1,0,0	89.0	25.0	0.286	0,0,0,0,0,0,1,2,3	to_board	s471
252.211	1.219	0	PA_with_intermediate	0,0,0,0,0,0,1,2,0	test	ward_and_allport	2,3,0,0,0,0,1,0,0	89.0	25.0	1.219	0,0,0,0,0,0,1,2,3	to_hand	s471
253.431	0.193	0	PA_with_intermediate	0,0,0,3,0,0,1,2,0	test	ward_and_allport	2,3,0,0,0,0,1,0,0	71.0	25.0	0.193	0,0,0,0,0,0,1,2,3	to_board	s471
253.631	0.505	0	PA_with_intermediate	0,0,0,3,0,0,1,0,0	test	ward_and_allport	2,3,0,0,0,0,1,0,0	82.0	25.0	0.505	0,0,0,0,0,0,1,2,3	to_hand	s471
254.137	0.303	0	PA_with_intermediate	2,0,0,3,0,0,1,0,0	test	ward_and_allport	2,3,0,0,0,0,1,0,0	89.0	25.0	0.303	0,0,0,0,0,0,1,2,3	to_board	s471
254.449	0.919	0	PA_with_intermediate	2,0,0,0,0,0,1,0,0	test	ward_and_allport	2,3,0,0,0,0,1,0,0	71.0	25.0	0.919	0,0,0,0,0,0,1,2,3	to_hand	s471
255.369	0.198	0	PA_with_intermediate	2,3,0,0,0,0,1,0,0	test	ward_and_allport	2,3,0,0,0,0,1,0,0	89.0	25.0	0.198	0,0,0,0,0,0,1,2,3	to_board	s471
255.577	1.0	0	PA_with_intermediate	n/a	test	ward_and_allport	n/a	-1.0	25.0	n/a	n/a	feedback	s471
256.577	1.68	0	PA_with_intermediate	n/a	test	ward_and_allport	n/a	-1.0	25.0	n/a	n/a	ITI	s471
258.265	3.067	1	PA_without_intermediate	1,2,0,0,0,0,0,0,0	test	ward_and_allport	0,0,0,3,2,0,1,0,0	89.0	26.0	3.067	1,2,3,0,0,0,0,0,0	to_hand	s471
261.333	0.307	0	PA_without_intermediate	1,2,0,3,0,0,0,0,0	test	ward_and_allport	0,0,0,3,2,0,1,0,0	71.0	26.0	0.307	1,2,3,0,0,0,0,0,0	to_board	s471
261.649	0.426	0	PA_without_intermediate	1,0,0,3,0,0,0,0,0	test	ward_and_allport	0,0,0,3,2,0,1,0,0	89.0	26.0	0.426	1,2,3,0,0,0,0,0,0	to_hand	s471
262.075	0.23	0	PA_without_intermediate	1,0,0,3,2,0,0,0,0	test	ward_and_allport	0,0,0,3,2,0,1,0,0	71.0	26.0	0.23	1,2,3,0,0,0,0,0,0	to_board	s471
262.314	0.429	0	PA_without_intermediate	0,0,0,3,2,0,0,0,0	test	ward_and_allport	0,0,0,3,2,0,1,0,0	89.0	26.0	0.429	1,2,3,0,0,0,0,0,0	to_hand	s471
262.743	0.221	0	PA_without_intermediate	0,0,0,3,2,0,1,0,0	test	ward_and_allport	0,0,0,3,2,0,1,0,0	82.0	26.0	0.221	1,2,3,0,0,0,0,0,0	to_board	s471
262.974	1.0	0	PA_without_intermediate	n/a	test	ward_and_allport	n/a	-1.0	26.0	n/a	n/a	feedback	s471
263.974	2.224	0	PA_without_intermediate	n/a	test	ward_and_allport	n/a	-1.0	26.0	n/a	n/a	ITI	s471
266.207	1.724	1	PA_without_intermediate	0,0,0,1,2,0,0,0,0	test	ward_and_allport	3,2,0,0,0,0,1,0,0	71.0	27.0	1.724	0,0,0,1,2,3,0,0,0	to_hand	s471
267.932	0.362	0	PA_without_intermediate	3,0,0,1,2,0,0,0,0	test	ward_and_allport	3,2,0,0,0,0,1,0,0	89.0	27.0	0.362	0,0,0,1,2,3,0,0,0	to_board	s471
268.303	0.354	0	PA_without_intermediate	3,0,0,1,0,0,0,0,0	test	ward_and_allport	3,2,0,0,0,0,1,0,0	71.0	27.0	0.354	0,0,0,1,2,3,0,0,0	to_hand	s471
268.659	0.278	0	PA_without_intermediate	3,2,0,1,0,0,0,0,0	test	ward_and_allport	3,2,0,0,0,0,1,0,0	89.0	27.0	0.278	0,0,0,1,2,3,0,0,0	to_board	s471
268.945	0.464	0	PA_without_intermediate	3,2,0,0,0,0,0,0,0	test	ward_and_allport	3,2,0,0,0,0,1,0,0	71.0	27.0	0.464	0,0,0,1,2,3,0,0,0	to_hand	s471
269.41	0.233	0	PA_without_intermediate	3,2,0,0,0,0,1,0,0	test	ward_and_allport	3,2,0,0,0,0,1,0,0	82.0	27.0	0.233	0,0,0,1,2,3,0,0,0	to_board	s471
269.652	1.0	0	PA_without_intermediate	n/a	test	ward_and_allport	n/a	-1.0	27.0	n/a	n/a	feedback	s471
270.652	2.36	0	PA_without_intermediate	n/a	test	ward_and_allport	n/a	-1.0	27.0	n/a	n/a	ITI	s471
273.019	3.569	1	PA_without_intermediate	0,0,0,0,0,0,1,2,0	test	ward_and_allport	1,0,0,3,2,0,0,0,0	82.0	28.0	3.569	0,0,0,0,0,0,1,2,3	to_hand	s471
276.59	0.459	0	PA_without_intermediate	0,0,0,3,0,0,1,2,0	test	ward_and_allport	1,0,0,3,2,0,0,0,0	71.0	28.0	0.459	0,0,0,0,0,0,1,2,3	to_board	s471
277.057	0.314	0	PA_without_intermediate	0,0,0,3,0,0,1,0,0	test	ward_and_allport	1,0,0,3,2,0,0,0,0	82.0	28.0	0.314	0,0,0,0,0,0,1,2,3	to_hand	s471
277.373	0.262	0	PA_without_intermediate	0,0,0,3,2,0,1,0,0	test	ward_and_allport	1,0,0,3,2,0,0,0,0	71.0	28.0	0.262	0,0,0,0,0,0,1,2,3	to_board	s471
277.644	0.563	0	PA_without_intermediate	0,0,0,3,2,0,0,0,0	test	ward_and_allport	1,0,0,3,2,0,0,0,0	82.0	28.0	0.563	0,0,0,0,0,0,1,2,3	to_hand	s471
278.209	0.269	0	PA_without_intermediate	1,0,0,3,2,0,0,0,0	test	ward_and_allport	1,0,0,3,2,0,0,0,0	89.0	28.0	0.269	0,0,0,0,0,0,1,2,3	to_board	s471
278.488	1.0	0	PA_without_intermediate	n/a	test	ward_and_allport	n/a	-1.0	28.0	n/a	n/a	feedback	s471
279.488	1.0	0	PA_without_intermediate	n/a	test	ward_and_allport	n/a	-1.0	28.0	n/a	n/a	ITI	s471
280.497	1.855	1	PA_without_intermediate	0,0,0,0,0,0,1,2,0	test	ward_and_allport	2,0,0,3,1,0,0,0,0	82.0	29.0	1.855	0,0,0,0,0,0,1,2,3	to_hand	s471
282.354	0.302	0	PA_without_intermediate	0,0,0,3,0,0,1,2,0	test	ward_and_allport	2,0,0,3,1,0,0,0,0	71.0	29.0	0.302	0,0,0,0,0,0,1,2,3	to_board	s471
282.665	0.494	0	PA_without_intermediate	0,0,0,3,0,0,1,0,0	test	ward_and_allport	2,0,0,3,1,0,0,0,0	82.0	29.0	0.494	0,0,0,0,0,0,1,2,3	to_hand	s471
283.161	0.273	0	PA_without_intermediate	2,0,0,3,0,0,1,0,0	test	ward_and_allport	2,0,0,3,1,0,0,0,0	89.0	29.0	0.273	0,0,0,0,0,0,1,2,3	to_board	s471
283.444	0.772	0	PA_without_intermediate	2,0,0,3,0,0,0,0,0	test	ward_and_allport	2,0,0,3,1,0,0,0,0	82.0	29.0	0.772	0,0,0,0,0,0,1,2,3	to_hand	s471
284.218	0.694	0	PA_without_intermediate	2,0,0,3,1,0,0,0,0	test	ward_and_allport	2,0,0,3,1,0,0,0,0	71.0	29.0	0.694	0,0,0,0,0,0,1,2,3	to_board	s471
284.922	1.0	0	PA_without_intermediate	n/a	test	ward_and_allport	n/a	-1.0	29.0	n/a	n/a	feedback	s471
285.922	1.408	0	PA_without_intermediate	n/a	test	ward_and_allport	n/a	-1.0	29.0	n/a	n/a	ITI	s471
292.341	3.551	1	PA_with_intermediate	0,0,0,1,2,0,0,0,0	test	ward_and_allport	2,0,0,1,3,0,0,0,0	71.0	30.0	3.551	0,0,0,1,2,3,0,0,0	to_hand	s471
295.893	0.214	0	PA_with_intermediate	0,0,0,1,2,0,3,0,0	test	ward_and_allport	2,0,0,1,3,0,0,0,0	82.0	30.0	0.214	0,0,0,1,2,3,0,0,0	to_board	s471
296.116	0.383	0	PA_with_intermediate	0,0,0,1,0,0,3,0,0	test	ward_and_allport	2,0,0,1,3,0,0,0,0	71.0	30.0	0.383	0,0,0,1,2,3,0,0,0	to_hand	s471
296.501	0.275	0	PA_with_intermediate	2,0,0,1,0,0,3,0,0	test	ward_and_allport	2,0,0,1,3,0,0,0,0	89.0	30.0	0.275	0,0,0,1,2,3,0,0,0	to_board	s471
296.785	0.471	0	PA_with_intermediate	2,0,0,1,0,0,0,0,0	test	ward_and_allport	2,0,0,1,3,0,0,0,0	82.0	30.0	0.471	0,0,0,1,2,3,0,0,0	to_hand	s471
297.258	0.204	0	PA_with_intermediate	2,0,0,1,3,0,0,0,0	test	ward_and_allport	2,0,0,1,3,0,0,0,0	71.0	30.0	0.204	0,0,0,1,2,3,0,0,0	to_board	s471
297.471	1.0	0	PA_with_intermediate	n/a	test	ward_and_allport	n/a	-1.0	30.0	n/a	n/a	feedback	s471
298.471	1.136	0	PA_with_intermediate	n/a	test	ward_and_allport	n/a	-1.0	30.0	n/a	n/a	ITI	s471
299.615	1.976	1	PA_without_intermediate	0,0,0,1,2,0,0,0,0	test	ward_and_allport	3,2,0,0,0,0,1,0,0	71.0	31.0	1.976	0,0,0,1,2,3,0,0,0	to_hand	s471
301.593	0.372	0	PA_without_intermediate	3,0,0,1,2,0,0,0,0	test	ward_and_allport	3,2,0,0,0,0,1,0,0	89.0	31.0	0.372	0,0,0,1,2,3,0,0,0	to_board	s471
301.972	0.963	0	PA_without_intermediate	3,0,0,1,0,0,0,0,0	test	ward_and_allport	3,2,0,0,0,0,1,0,0	71.0	31.0	0.963	0,0,0,1,2,3,0,0,0	to_hand	s471
302.935	0.227	0	PA_without_intermediate	3,2,0,1,0,0,0,0,0	test	ward_and_allport	3,2,0,0,0,0,1,0,0	89.0	31.0	0.227	0,0,0,1,2,3,0,0,0	to_board	s471
303.171	0.497	0	PA_without_intermediate	3,2,0,0,0,0,0,0,0	test	ward_and_allport	3,2,0,0,0,0,1,0,0	71.0	31.0	0.497	0,0,0,1,2,3,0,0,0	to_hand	s471
303.67	0.243	0	PA_without_intermediate	3,2,0,0,0,0,1,0,0	test	ward_and_allport	3,2,0,0,0,0,1,0,0	82.0	31.0	0.243	0,0,0,1,2,3,0,0,0	to_board	s471
303.924	1.0	0	PA_without_intermediate	n/a	test	ward_and_allport	n/a	-1.0	31.0	n/a	n/a	feedback	s471
304.924	4.128	0	PA_without_intermediate	n/a	test	ward_and_allport	n/a	-1.0	31.0	n/a	n/a	ITI	s471
309.062	2.299	1	PA_without_intermediate	0,0,0,0,0,0,1,2,0	test	ward_and_allport	1,0,0,3,2,0,0,0,0	82.0	32.0	2.299	0,0,0,0,0,0,1,2,3	to_hand	s471
311.362	0.259	0	PA_without_intermediate	0,0,0,3,0,0,1,2,0	test	ward_and_allport	1,0,0,3,2,0,0,0,0	71.0	32.0	0.259	0,0,0,0,0,0,1,2,3	to_board	s471
311.63	0.227	0	PA_without_intermediate	0,0,0,3,0,0,1,0,0	test	ward_and_allport	1,0,0,3,2,0,0,0,0	82.0	32.0	0.227	0,0,0,0,0,0,1,2,3	to_hand	s471
311.859	0.248	0	PA_without_intermediate	0,0,0,3,2,0,1,0,0	test	ward_and_allport	1,0,0,3,2,0,0,0,0	71.0	32.0	0.248	0,0,0,0,0,0,1,2,3	to_board	s471
312.118	0.386	0	PA_without_intermediate	0,0,0,3,2,0,0,0,0	test	ward_and_allport	1,0,0,3,2,0,0,0,0	82.0	32.0	0.386	0,0,0,0,0,0,1,2,3	to_hand	s471
312.506	0.295	0	PA_without_intermediate	1,0,0,3,2,0,0,0,0	test	ward_and_allport	1,0,0,3,2,0,0,0,0	89.0	32.0	0.295	0,0,0,0,0,0,1,2,3	to_board	s471
312.811	1.0	0	PA_without_intermediate	n/a	test	ward_and_allport	n/a	-1.0	32.0	n/a	n/a	feedback	s471
313.811	1.136	0	PA_without_intermediate	n/a	test	ward_and_allport	n/a	-1.0	32.0	n/a	n/a	ITI	s471
314.957	2.115	1	PA_without_intermediate	0,0,0,0,0,0,1,2,0	test	ward_and_allport	3,1,0,2,0,0,0,0,0	82.0	33.0	2.115	0,0,0,0,0,0,1,2,3	to_hand	s471
317.074	0.347	0	PA_without_intermediate	3,0,0,0,0,0,1,2,0	test	ward_and_allport	3,1,0,2,0,0,0,0,0	89.0	33.0	0.347	0,0,0,0,0,0,1,2,3	to_board	s471
317.429	0.398	0	PA_without_intermediate	3,0,0,0,0,0,1,0,0	test	ward_and_allport	3,1,0,2,0,0,0,0,0	82.0	33.0	0.398	0,0,0,0,0,0,1,2,3	to_hand	s471
317.829	0.218	0	PA_without_intermediate	3,0,0,2,0,0,1,0,0	test	ward_and_allport	3,1,0,2,0,0,0,0,0	71.0	33.0	0.218	0,0,0,0,0,0,1,2,3	to_board	s471
318.055	0.557	0	PA_without_intermediate	3,0,0,2,0,0,0,0,0	test	ward_and_allport	3,1,0,2,0,0,0,0,0	82.0	33.0	0.557	0,0,0,0,0,0,1,2,3	to_hand	s471
318.614	0.411	0	PA_without_intermediate	3,1,0,2,0,0,0,0,0	test	ward_and_allport	3,1,0,2,0,0,0,0,0	89.0	33.0	0.411	0,0,0,0,0,0,1,2,3	to_board	s471
319.036	1.0	0	PA_without_intermediate	n/a	test	ward_and_allport	n/a	-1.0	33.0	n/a	n/a	feedback	s471
320.036	4.264	0	PA_without_intermediate	n/a	test	ward_and_allport	n/a	-1.0	33.0	n/a	n/a	ITI	s471
324.308	3.063	1	PA_with_intermediate	0,0,0,0,0,0,1,2,0	test	ward_and_allport	0,0,0,2,0,0,1,3,0	82.0	34.0	3.063	0,0,0,0,0,0,1,2,3	to_hand	s471
327.373	0.265	0	PA_with_intermediate	0,0,0,3,0,0,1,2,0	test	ward_and_allport	0,0,0,2,0,0,1,3,0	71.0	34.0	0.265	0,0,0,0,0,0,1,2,3	to_board	s471
327.647	1.767	0	PA_with_intermediate	0,0,0,0,0,0,1,2,0	test	ward_and_allport	0,0,0,2,0,0,1,3,0	71.0	34.0	1.767	0,0,0,0,0,0,1,2,3	to_hand	s471
329.414	0.269	0	PA_with_intermediate	3,0,0,0,0,0,1,2,0	test	ward_and_allport	0,0,0,2,0,0,1,3,0	89.0	34.0	0.269	0,0,0,0,0,0,1,2,3	to_board	s471
329.695	0.313	0	PA_with_intermediate	3,0,0,0,0,0,1,0,0	test	ward_and_allport	0,0,0,2,0,0,1,3,0	82.0	34.0	0.313	0,0,0,0,0,0,1,2,3	to_hand	s471
330.009	0.262	0	PA_with_intermediate	3,0,0,2,0,0,1,0,0	test	ward_and_allport	0,0,0,2,0,0,1,3,0	71.0	34.0	0.262	0,0,0,0,0,0,1,2,3	to_board	s471
330.282	0.633	0	PA_with_intermediate	0,0,0,2,0,0,1,0,0	test	ward_and_allport	0,0,0,2,0,0,1,3,0	89.0	34.0	0.633	0,0,0,0,0,0,1,2,3	to_hand	s471
330.917	0.197	0	PA_with_intermediate	0,0,0,2,3,0,1,0,0	test	ward_and_allport	0,0,0,2,0,0,1,3,0	71.0	34.0	0.197	0,0,0,0,0,0,1,2,3	to_board	s471
331.124	0.933	0	PA_with_intermediate	0,0,0,2,0,0,1,0,0	test	ward_and_allport	0,0,0,2,0,0,1,3,0	71.0	34.0	0.933	0,0,0,0,0,0,1,2,3	to_hand	s471
332.058	0.22	0	PA_with_intermediate	0,0,0,2,0,0,1,3,0	test	ward_and_allport	0,0,0,2,0,0,1,3,0	82.0	34.0	0.22	0,0,0,0,0,0,1,2,3	to_board	s471
332.289	1.0	0	PA_with_intermediate	n/a	test	ward_and_allport	n/a	-1.0	34.0	n/a	n/a	feedback	s471
333.289	3.04	0	PA_with_intermediate	n/a	test	ward_and_allport	n/a	-1.0	34.0	n/a	n/a	ITI	s471
336.337	2.24	1	PA_with_intermediate	0,0,0,1,2,0,0,0,0	test	ward_and_allport	0,0,0,1,3,0,2,0,0	71.0	35.0	2.24	0,0,0,1,2,3,0,0,0	to_hand	s471
338.579	0.276	0	PA_with_intermediate	3,0,0,1,2,0,0,0,0	test	ward_and_allport	0,0,0,1,3,0,2,0,0	89.0	35.0	0.276	0,0,0,1,2,3,0,0,0	to_board	s471
338.865	0.295	0	PA_with_intermediate	3,0,0,1,0,0,0,0,0	test	ward_and_allport	0,0,0,1,3,0,2,0,0	71.0	35.0	0.295	0,0,0,1,2,3,0,0,0	to_hand	s471
339.162	0.215	0	PA_with_intermediate	3,0,0,1,0,0,2,0,0	test	ward_and_allport	0,0,0,1,3,0,2,0,0	82.0	35.0	0.215	0,0,0,1,2,3,0,0,0	to_board	s471
339.388	0.649	0	PA_with_intermediate	0,0,0,1,0,0,2,0,0	test	ward_and_allport	0,0,0,1,3,0,2,0,0	89.0	35.0	0.649	0,0,0,1,2,3,0,0,0	to_hand	s471
340.038	0.152	0	PA_with_intermediate	0,0,0,1,3,0,2,0,0	test	ward_and_allport	0,0,0,1,3,0,2,0,0	71.0	35.0	0.152	0,0,0,1,2,3,0,0,0	to_board	s471
340.202	1.0	0	PA_with_intermediate	n/a	test	ward_and_allport	n/a	-1.0	35.0	n/a	n/a	feedback	s471
341.202	1.136	0	PA_with_intermediate	n/a	test	ward_and_allport	n/a	-1.0	35.0	n/a	n/a	ITI	s471
342.347	2.79	1	PA_with_intermediate	1,2,0,0,0,0,0,0,0	test	ward_and_allport	1,0,0,2,3,0,0,0,0	89.0	36.0	2.79	1,2,3,0,0,0,0,0,0	to_hand	s471
345.139	0.193	0	PA_with_intermediate	1,2,0,0,0,0,3,0,0	test	ward_and_allport	1,0,0,2,3,0,0,0,0	82.0	36.0	0.193	1,2,3,0,0,0,0,0,0	to_board	s471
345.339	0.817	0	PA_with_intermediate	1,0,0,0,0,0,3,0,0	test	ward_and_allport	1,0,0,2,3,0,0,0,0	89.0	36.0	0.817	1,2,3,0,0,0,0,0,0	to_hand	s471
346.158	0.185	0	PA_with_intermediate	1,0,0,2,0,0,3,0,0	test	ward_and_allport	1,0,0,2,3,0,0,0,0	71.0	36.0	0.185	1,2,3,0,0,0,0,0,0	to_board	s471
346.352	0.435	0	PA_with_intermediate	1,0,0,2,0,0,0,0,0	test	ward_and_allport	1,0,0,2,3,0,0,0,0	82.0	36.0	0.435	1,2,3,0,0,0,0,0,0	to_hand	s471
346.789	0.614	0	PA_with_intermediate	1,0,0,2,3,0,0,0,0	test	ward_and_allport	1,0,0,2,3,0,0,0,0	71.0	36.0	0.614	1,2,3,0,0,0,0,0,0	to_board	s471
347.416	1.0	0	PA_with_intermediate	n/a	test	ward_and_allport	n/a	-1.0	36.0	n/a	n/a	feedback	s471
348.416	1.408	0	PA_with_intermediate	n/a	test	ward_and_allport	n/a	-1.0	36.0	n/a	n/a	ITI	s471
349.834	2.123	1	PA_without_intermediate	0,0,0,1,2,0,0,0,0	test	ward_and_allport	1,0,0,0,0,0,3,2,0	71.0	37.0	2.123	0,0,0,1,2,3,0,0,0	to_hand	s471
351.958	0.387	0	PA_without_intermediate	0,0,0,1,2,0,3,0,0	test	ward_and_allport	1,0,0,0,0,0,3,2,0	82.0	37.0	0.387	0,0,0,1,2,3,0,0,0	to_board	s471
352.353	0.24	0	PA_without_intermediate	0,0,0,1,0,0,3,0,0	test	ward_and_allport	1,0,0,0,0,0,3,2,0	71.0	37.0	0.24	0,0,0,1,2,3,0,0,0	to_hand	s471
352.594	0.244	0	PA_without_intermediate	0,0,0,1,0,0,3,2,0	test	ward_and_allport	1,0,0,0,0,0,3,2,0	82.0	37.0	0.244	0,0,0,1,2,3,0,0,0	to_board	s471
352.846	0.315	0	PA_without_intermediate	0,0,0,0,0,0,3,2,0	test	ward_and_allport	1,0,0,0,0,0,3,2,0	71.0	37.0	0.315	0,0,0,1,2,3,0,0,0	to_hand	s471
353.163	0.23	0	PA_without_intermediate	1,0,0,0,0,0,3,2,0	test	ward_and_allport	1,0,0,0,0,0,3,2,0	89.0	37.0	0.23	0,0,0,1,2,3,0,0,0	to_board	s471
353.403	1.0	0	PA_without_intermediate	n/a	test	ward_and_allport	n/a	-1.0	37.0	n/a	n/a	feedback	s471
354.403	1.68	0	PA_without_intermediate	n/a	test	ward_and_allport	n/a	-1.0	37.0	n/a	n/a	ITI	s471
356.092	2.5	1	PA_with_intermediate	0,0,0,0,0,0,1,2,0	test	ward_and_allport	0,0,0,2,0,0,1,3,0	82.0	38.0	2.5	0,0,0,0,0,0,1,2,3	to_hand	s471
358.593	0.299	0	PA_with_intermediate	3,0,0,0,0,0,1,2,0	test	ward_and_allport	0,0,0,2,0,0,1,3,0	89.0	38.0	0.299	0,0,0,0,0,0,1,2,3	to_board	s471
358.901	0.285	0	PA_with_intermediate	3,0,0,0,0,0,1,0,0	test	ward_and_allport	0,0,0,2,0,0,1,3,0	82.0	38.0	0.285	0,0,0,0,0,0,1,2,3	to_hand	s471
359.187	0.25	0	PA_with_intermediate	3,0,0,2,0,0,1,0,0	test	ward_and_allport	0,0,0,2,0,0,1,3,0	71.0	38.0	0.25	0,0,0,0,0,0,1,2,3	to_board	s471
359.444	0.408	0	PA_with_intermediate	0,0,0,2,0,0,1,0,0	test	ward_and_allport	0,0,0,2,0,0,1,3,0	89.0	38.0	0.408	0,0,0,0,0,0,1,2,3	to_hand	s471
359.853	0.24	0	PA_with_intermediate	0,0,0,2,0,0,1,3,0	test	ward_and_allport	0,0,0,2,0,0,1,3,0	82.0	38.0	0.24	0,0,0,0,0,0,1,2,3	to_board	s471
360.103	1.0	0	PA_with_intermediate	n/a	test	ward_and_allport	n/a	-1.0	38.0	n/a	n/a	feedback	s471
361.103	3.72	0	PA_with_intermediate	n/a	test	ward_and_allport	n/a	-1.0	38.0	n/a	n/a	ITI	s471
364.833	2.171	1	PA_without_intermediate	1,2,0,0,0,0,0,0,0	test	ward_and_allport	0,0,0,3,1,0,2,0,0	89.0	39.0	2.171	1,2,3,0,0,0,0,0,0	to_hand	s471
367.005	0.325	0	PA_without_intermediate	1,2,0,3,0,0,0,0,0	test	ward_and_allport	0,0,0,3,1,0,2,0,0	71.0	39.0	0.325	1,2,3,0,0,0,0,0,0	to_board	s471
367.341	0.552	0	PA_without_intermediate	1,0,0,3,0,0,0,0,0	test	ward_and_allport	0,0,0,3,1,0,2,0,0	89.0	39.0	0.552	1,2,3,0,0,0,0,0,0	to_hand	s471
367.894	0.347	0	PA_without_intermediate	1,0,0,3,0,0,2,0,0	test	ward_and_allport	0,0,0,3,1,0,2,0,0	82.0	39.0	0.347	1,2,3,0,0,0,0,0,0	to_board	s471
368.252	1.183	0	PA_without_intermediate	0,0,0,3,0,0,2,0,0	test	ward_and_allport	0,0,0,3,1,0,2,0,0	89.0	39.0	1.183	1,2,3,0,0,0,0,0,0	to_hand	s471
369.436	0.245	0	PA_without_intermediate	0,0,0,3,1,0,2,0,0	test	ward_and_allport	0,0,0,3,1,0,2,0,0	71.0	39.0	0.245	1,2,3,0,0,0,0,0,0	to_board	s471
369.692	1.0	0	PA_without_intermediate	n/a	test	ward_and_allport	n/a	-1.0	39.0	n/a	n/a	feedback	s471
370.692	2.224	0	PA_without_intermediate	n/a	test	ward_and_allport	n/a	-1.0	39.0	n/a	n/a	ITI	s471
372.927	2.085	1	PA_without_intermediate	0,0,0,0,0,0,1,2,0	test	ward_and_allport	3,1,0,2,0,0,0,0,0	82.0	40.0	2.085	0,0,0,0,0,0,1,2,3	to_hand	s471
375.014	0.336	0	PA_without_intermediate	0,0,0,3,0,0,1,2,0	test	ward_and_allport	3,1,0,2,0,0,0,0,0	71.0	40.0	0.336	0,0,0,0,0,0,1,2,3	to_board	s471
375.359	2.905	0	PA_without_intermediate	0,0,0,0,0,0,1,2,0	test	ward_and_allport	3,1,0,2,0,0,0,0,0	71.0	40.0	2.905	0,0,0,0,0,0,1,2,3	to_hand	s471
378.265	0.515	0	PA_without_intermediate	3,0,0,0,0,0,1,2,0	test	ward_and_allport	3,1,0,2,0,0,0,0,0	89.0	40.0	0.515	0,0,0,0,0,0,1,2,3	to_board	s471
378.79	0.725	0	PA_without_intermediate	3,0,0,0,0,0,1,0,0	test	ward_and_allport	3,1,0,2,0,0,0,0,0	82.0	40.0	0.725	0,0,0,0,0,0,1,2,3	to_hand	s471
379.517	0.288	0	PA_without_intermediate	3,0,0,2,0,0,1,0,0	test	ward_and_allport	3,1,0,2,0,0,0,0,0	71.0	40.0	0.288	0,0,0,0,0,0,1,2,3	to_board	s471
379.816	0.306	0	PA_without_intermediate	3,0,0,2,0,0,0,0,0	test	ward_and_allport	3,1,0,2,0,0,0,0,0	82.0	40.0	0.306	0,0,0,0,0,0,1,2,3	to_hand	s471
380.123	0.297	0	PA_without_intermediate	3,1,0,2,0,0,0,0,0	test	ward_and_allport	3,1,0,2,0,0,0,0,0	89.0	40.0	0.297	0,0,0,0,0,0,1,2,3	to_board	s471
380.433	1.0	0	PA_without_intermediate	n/a	test	ward_and_allport	n/a	-1.0	40.0	n/a	n/a	feedback	s471
381.433	1.272	0	PA_without_intermediate	n/a	test	ward_and_allport	n/a	-1.0	40.0	n/a	n/a	ITI	s471
382.717	2.123	1	PA_with_intermediate	1,2,0,0,0,0,0,0,0	test	ward_and_allport	1,3,0,0,0,0,2,0,0	89.0	41.0	2.123	1,2,3,0,0,0,0,0,0	to_hand	s471
384.842	0.196	0	PA_with_intermediate	1,2,0,3,0,0,0,0,0	test	ward_and_allport	1,3,0,0,0,0,2,0,0	71.0	41.0	0.196	1,2,3,0,0,0,0,0,0	to_board	s471
385.048	0.533	0	PA_with_intermediate	1,0,0,3,0,0,0,0,0	test	ward_and_allport	1,3,0,0,0,0,2,0,0	89.0	41.0	0.533	1,2,3,0,0,0,0,0,0	to_hand	s471
385.581	0.346	0	PA_with_intermediate	1,0,0,3,0,0,2,0,0	test	ward_and_allport	1,3,0,0,0,0,2,0,0	82.0	41.0	0.346	1,2,3,0,0,0,0,0,0	to_board	s471
385.936	0.781	0	PA_with_intermediate	1,0,0,0,0,0,2,0,0	test	ward_and_allport	1,3,0,0,0,0,2,0,0	71.0	41.0	0.781	1,2,3,0,0,0,0,0,0	to_hand	s471
386.719	0.205	0	PA_with_intermediate	1,3,0,0,0,0,2,0,0	test	ward_and_allport	1,3,0,0,0,0,2,0,0	89.0	41.0	0.205	1,2,3,0,0,0,0,0,0	to_board	s471
386.935	1.0	0	PA_with_intermediate	n/a	test	ward_and_allport	n/a	-1.0	41.0	n/a	n/a	feedback	s471
387.935	2.632	0	PA_with_intermediate	n/a	test	ward_and_allport	n/a	-1.0	41.0	n/a	n/a	ITI	s471
390.575	1.857	1	PA_without_intermediate	0,0,0,1,2,0,0,0,0	test	ward_and_allport	1,0,0,0,0,0,3,2,0	71.0	42.0	1.857	0,0,0,1,2,3,0,0,0	to_hand	s471
392.433	0.218	0	PA_without_intermediate	0,0,0,1,2,0,3,0,0	test	ward_and_allport	1,0,0,0,0,0,3,2,0	82.0	42.0	0.218	0,0,0,1,2,3,0,0,0	to_board	s471
392.66	0.345	0	PA_without_intermediate	0,0,0,1,0,0,3,0,0	test	ward_and_allport	1,0,0,0,0,0,3,2,0	71.0	42.0	0.345	0,0,0,1,2,3,0,0,0	to_hand	s471
393.006	0.192	0	PA_without_intermediate	0,0,0,1,0,0,3,2,0	test	ward_and_allport	1,0,0,0,0,0,3,2,0	82.0	42.0	0.192	0,0,0,1,2,3,0,0,0	to_board	s471
393.209	0.366	0	PA_without_intermediate	0,0,0,0,0,0,3,2,0	test	ward_and_allport	1,0,0,0,0,0,3,2,0	71.0	42.0	0.366	0,0,0,1,2,3,0,0,0	to_hand	s471
393.577	0.187	0	PA_without_intermediate	1,0,0,0,0,0,3,2,0	test	ward_and_allport	1,0,0,0,0,0,3,2,0	89.0	42.0	0.187	0,0,0,1,2,3,0,0,0	to_board	s471
393.775	1.0	0	PA_without_intermediate	n/a	test	ward_and_allport	n/a	-1.0	42.0	n/a	n/a	feedback	s471
394.775	1.408	0	PA_without_intermediate	n/a	test	ward_and_allport	n/a	-1.0	42.0	n/a	n/a	ITI	s471
396.193	1.201	1	PA_without_intermediate	1,2,0,0,0,0,0,0,0	test	ward_and_allport	0,0,0,1,0,0,3,2,0	89.0	43.0	1.201	1,2,3,0,0,0,0,0,0	to_hand	s471
397.395	0.4	0	PA_without_intermediate	1,2,0,0,0,0,3,0,0	test	ward_and_allport	0,0,0,1,0,0,3,2,0	82.0	43.0	0.4	1,2,3,0,0,0,0,0,0	to_board	s471
397.803	1.537	0	PA_without_intermediate	1,0,0,0,0,0,3,0,0	test	ward_and_allport	0,0,0,1,0,0,3,2,0	89.0	43.0	1.537	1,2,3,0,0,0,0,0,0	to_hand	s471
399.341	0.251	0	PA_without_intermediate	1,0,0,0,0,0,3,2,0	test	ward_and_allport	0,0,0,1,0,0,3,2,0	82.0	43.0	0.251	1,2,3,0,0,0,0,0,0	to_board	s471
399.601	0.381	0	PA_without_intermediate	0,0,0,0,0,0,3,2,0	test	ward_and_allport	0,0,0,1,0,0,3,2,0	89.0	43.0	0.381	1,2,3,0,0,0,0,0,0	to_hand	s471
399.983	0.229	0	PA_without_intermediate	0,0,0,1,0,0,3,2,0	test	ward_and_allport	0,0,0,1,0,0,3,2,0	71.0	43.0	0.229	1,2,3,0,0,0,0,0,0	to_board	s471
400.224	1.0	0	PA_without_intermediate	n/a	test	ward_and_allport	n/a	-1.0	43.0	n/a	n/a	feedback	s471
401.224	1.0	0	PA_without_intermediate	n/a	test	ward_and_allport	n/a	-1.0	43.0	n/a	n/a	ITI	s471
402.235	2.476	1	PA_with_intermediate	0,0,0,1,2,0,0,0,0	test	ward_and_allport	0,0,0,1,3,0,2,0,0	71.0	44.0	2.476	0,0,0,1,2,3,0,0,0	to_hand	s471
404.712	0.193	0	PA_with_intermediate	3,0,0,1,2,0,0,0,0	test	ward_and_allport	0,0,0,1,3,0,2,0,0	89.0	44.0	0.193	0,0,0,1,2,3,0,0,0	to_board	s471
404.914	0.206	0	PA_with_intermediate	3,0,0,1,0,0,0,0,0	test	ward_and_allport	0,0,0,1,3,0,2,0,0	71.0	44.0	0.206	0,0,0,1,2,3,0,0,0	to_hand	s471
405.121	0.199	0	PA_with_intermediate	3,0,0,1,0,0,2,0,0	test	ward_and_allport	0,0,0,1,3,0,2,0,0	82.0	44.0	0.199	0,0,0,1,2,3,0,0,0	to_board	s471
405.328	0.406	0	PA_with_intermediate	0,0,0,1,0,0,2,0,0	test	ward_and_allport	0,0,0,1,3,0,2,0,0	89.0	44.0	0.406	0,0,0,1,2,3,0,0,0	to_hand	s471
405.735	0.207	0	PA_with_intermediate	0,0,0,1,3,0,2,0,0	test	ward_and_allport	0,0,0,1,3,0,2,0,0	71.0	44.0	0.207	0,0,0,1,2,3,0,0,0	to_board	s471
405.951	1.0	0	PA_with_intermediate	n/a	test	ward_and_allport	n/a	-1.0	44.0	n/a	n/a	feedback	s471
406.951	1.0	0	PA_with_intermediate	n/a	test	ward_and_allport	n/a	-1.0	44.0	n/a	n/a	ITI	s471
412.966	1.309	1	PA_with_intermediate	0,0,0,1,2,0,0,0,0	test	ward_and_allport	0,0,0,1,0,0,2,3,0	71.0	45.0	1.309	0,0,0,1,2,3,0,0,0	to_hand	s471
414.276	0.372	0	PA_with_intermediate	0,0,0,1,2,0,3,0,0	test	ward_and_allport	0,0,0,1,0,0,2,3,0	82.0	45.0	0.372	0,0,0,1,2,3,0,0,0	to_board	s471
414.66	0.285	0	PA_with_intermediate	0,0,0,1,0,0,3,0,0	test	ward_and_allport	0,0,0,1,0,0,2,3,0	71.0	45.0	0.285	0,0,0,1,2,3,0,0,0	to_hand	s471
414.947	1.059	0	PA_with_intermediate	0,0,0,1,2,0,3,0,0	test	ward_and_allport	0,0,0,1,0,0,2,3,0	71.0	45.0	1.059	0,0,0,1,2,3,0,0,0	to_board	s471
416.018	0.52	0	PA_with_intermediate	0,0,0,1,2,0,0,0,0	test	ward_and_allport	0,0,0,1,0,0,2,3,0	82.0	45.0	0.52	0,0,0,1,2,3,0,0,0	to_hand	s471
416.539	0.319	0	PA_with_intermediate	3,0,0,1,2,0,0,0,0	test	ward_and_allport	0,0,0,1,0,0,2,3,0	89.0	45.0	0.319	0,0,0,1,2,3,0,0,0	to_board	s471
416.869	0.387	0	PA_with_intermediate	3,0,0,1,0,0,0,0,0	test	ward_and_allport	0,0,0,1,0,0,2,3,0	71.0	45.0	0.387	0,0,0,1,2,3,0,0,0	to_hand	s471
417.257	0.506	0	PA_with_intermediate	3,0,0,1,0,0,2,0,0	test	ward_and_allport	0,0,0,1,0,0,2,3,0	82.0	45.0	0.506	0,0,0,1,2,3,0,0,0	to_board	s471
417.773	0.327	0	PA_with_intermediate	0,0,0,1,0,0,2,0,0	test	ward_and_allport	0,0,0,1,0,0,2,3,0	89.0	45.0	0.327	0,0,0,1,2,3,0,0,0	to_hand	s471
418.102	0.217	0	PA_with_intermediate	0,0,0,1,0,0,2,3,0	test	ward_and_allport	0,0,0,1,0,0,2,3,0	82.0	45.0	0.217	0,0,0,1,2,3,0,0,0	to_board	s471
418.329	1.0	0	PA_with_intermediate	n/a	test	ward_and_allport	n/a	-1.0	45.0	n/a	n/a	feedback	s471
419.329	1.0	0	PA_with_intermediate	n/a	test	ward_and_allport	n/a	-1.0	45.0	n/a	n/a	ITI	s471
420.337	2.321	1	PA_with_intermediate	1,2,0,0,0,0,0,0,0	test	ward_and_allport	1,0,0,0,0,0,2,3,0	89.0	46.0	2.321	1,2,3,0,0,0,0,0,0	to_hand	s471
422.659	0.211	0	PA_with_intermediate	1,2,0,3,0,0,0,0,0	test	ward_and_allport	1,0,0,0,0,0,2,3,0	71.0	46.0	0.211	1,2,3,0,0,0,0,0,0	to_board	s471
422.877	0.309	0	PA_with_intermediate	1,0,0,3,0,0,0,0,0	test	ward_and_allport	1,0,0,0,0,0,2,3,0	89.0	46.0	0.309	1,2,3,0,0,0,0,0,0	to_hand	s471
423.187	0.27	0	PA_with_intermediate	1,0,0,3,0,0,2,0,0	test	ward_and_allport	1,0,0,0,0,0,2,3,0	82.0	46.0	0.27	1,2,3,0,0,0,0,0,0	to_board	s471
423.467	0.469	0	PA_with_intermediate	1,0,0,0,0,0,2,0,0	test	ward_and_allport	1,0,0,0,0,0,2,3,0	71.0	46.0	0.469	1,2,3,0,0,0,0,0,0	to_hand	s471
423.939	0.198	0	PA_with_intermediate	1,0,0,0,0,0,2,3,0	test	ward_and_allport	1,0,0,0,0,0,2,3,0	82.0	46.0	0.198	1,2,3,0,0,0,0,0,0	to_board	s471
424.148	1.0	0	PA_with_intermediate	n/a	test	ward_and_allport	n/a	-1.0	46.0	n/a	n/a	feedback	s471
425.148	1.408	0	PA_with_intermediate	n/a	test	ward_and_allport	n/a	-1.0	46.0	n/a	n/a	ITI	s471
426.569	1.474	1	PA_without_intermediate	0,0,0,1,2,0,0,0,0	test	ward_and_allport	3,1,0,0,0,0,2,0,0	71.0	47.0	1.474	0,0,0,1,2,3,0,0,0	to_hand	s471
428.044	0.216	0	PA_without_intermediate	3,0,0,1,2,0,0,0,0	test	ward_and_allport	3,1,0,0,0,0,2,0,0	89.0	47.0	0.216	0,0,0,1,2,3,0,0,0	to_board	s471
428.271	0.273	0	PA_without_intermediate	3,0,0,1,0,0,0,0,0	test	ward_and_allport	3,1,0,0,0,0,2,0,0	71.0	47.0	0.273	0,0,0,1,2,3,0,0,0	to_hand	s471
428.546	0.255	0	PA_without_intermediate	3,0,0,1,0,0,2,0,0	test	ward_and_allport	3,1,0,0,0,0,2,0,0	82.0	47.0	0.255	0,0,0,1,2,3,0,0,0	to_board	s471
428.809	0.434	0	PA_without_intermediate	0,0,0,1,0,0,2,0,0	test	ward_and_allport	3,1,0,0,0,0,2,0,0	89.0	47.0	0.434	0,0,0,1,2,3,0,0,0	to_hand	s471
429.244	0.226	0	PA_without_intermediate	0,0,0,1,3,0,2,0,0	test	ward_and_allport	3,1,0,0,0,0,2,0,0	71.0	47.0	0.226	0,0,0,1,2,3,0,0,0	to_board	s471
429.482	1.797	0	PA_without_intermediate	0,0,0,1,0,0,2,0,0	test	ward_and_allport	3,1,0,0,0,0,2,0,0	71.0	47.0	1.797	0,0,0,1,2,3,0,0,0	to_hand	s471
431.28	0.219	0	PA_without_intermediate	3,0,0,1,0,0,2,0,0	test	ward_and_allport	3,1,0,0,0,0,2,0,0	89.0	47.0	0.219	0,0,0,1,2,3,0,0,0	to_board	s471
431.509	0.309	0	PA_without_intermediate	3,0,0,0,0,0,2,0,0	test	ward_and_allport	3,1,0,0,0,0,2,0,0	71.0	47.0	0.309	0,0,0,1,2,3,0,0,0	to_hand	s471
431.82	0.186	0	PA_without_intermediate	3,1,0,0,0,0,2,0,0	test	ward_and_allport	3,1,0,0,0,0,2,0,0	89.0	47.0	0.186	0,0,0,1,2,3,0,0,0	to_board	s471
432.016	1.0	0	PA_without_intermediate	n/a	test	ward_and_allport	n/a	-1.0	47.0	n/a	n/a	feedback	s471
433.016	1.816	0	PA_without_intermediate	n/a	test	ward_and_allport	n/a	-1.0	47.0	n/a	n/a	ITI	s471
n/a	n/a	0	n/a	n/a	n/a	n/a	n/a	n/a	n/a	n/a	n/a	ITI	n/a
