onset	duration	condition	correct	correct_response	experiment_exp_id	key_press	response_time	trial_id	trial_type	worker_id
3.014	0.5	AY	n/a	n/a	dot_pattern_expectancy	-1.0	n/a	cue	AY	s614
5.518	0.5	AY	1.0	71.0	dot_pattern_expectancy	71.0	0.641	probe	AY	s614
7.156	0.5	AX	n/a	n/a	dot_pattern_expectancy	-1.0	n/a	cue	AX	s614
9.662	0.5	AX	1.0	89.0	dot_pattern_expectancy	89.0	0.419	probe	AX	s614
11.3	0.5	AX	n/a	n/a	dot_pattern_expectancy	-1.0	n/a	cue	AX	s614
13.811	0.5	AX	1.0	89.0	dot_pattern_expectancy	89.0	0.689	probe	AX	s614
15.316	0.5	AX	n/a	n/a	dot_pattern_expectancy	-1.0	n/a	cue	AX	s614
17.825	0.5	AX	1.0	89.0	dot_pattern_expectancy	89.0	0.642	probe	AX	s614
19.326	0.5	AX	n/a	n/a	dot_pattern_expectancy	-1.0	n/a	cue	AX	s614
21.833	0.5	AX	1.0	89.0	dot_pattern_expectancy	89.0	0.549	probe	AX	s614
23.748	0.5	BX	n/a	n/a	dot_pattern_expectancy	-1.0	n/a	cue	BX	s614
26.254	0.5	BX	1.0	71.0	dot_pattern_expectancy	71.0	0.474	probe	BX	s614
27.892	0.5	AX	n/a	n/a	dot_pattern_expectancy	-1.0	n/a	cue	AX	s614
30.401	0.5	AX	1.0	89.0	dot_pattern_expectancy	89.0	0.887	probe	AX	s614
32.446	0.5	AX	n/a	n/a	dot_pattern_expectancy	-1.0	n/a	cue	AX	s614
34.954	0.5	AX	1.0	89.0	dot_pattern_expectancy	89.0	0.701	probe	AX	s614
36.729	0.5	AX	n/a	n/a	dot_pattern_expectancy	-1.0	n/a	cue	AX	s614
39.238	0.5	AX	1.0	89.0	dot_pattern_expectancy	89.0	0.745	probe	AX	s614
40.74	0.5	AX	n/a	n/a	dot_pattern_expectancy	-1.0	n/a	cue	AX	s614
43.246	0.5	AX	1.0	89.0	dot_pattern_expectancy	89.0	0.593	probe	AX	s614
45.429	0.5	AX	n/a	n/a	dot_pattern_expectancy	-1.0	n/a	cue	AX	s614
47.932	0.5	AX	1.0	89.0	dot_pattern_expectancy	89.0	0.514	probe	AX	s614
49.439	0.5	BX	n/a	n/a	dot_pattern_expectancy	-1.0	n/a	cue	BX	s614
51.948	0.5	BX	1.0	71.0	dot_pattern_expectancy	71.0	0.379	probe	BX	s614
55.625	0.5	BY	n/a	n/a	dot_pattern_expectancy	-1.0	n/a	cue	BY	s614
58.132	0.5	BY	1.0	71.0	dot_pattern_expectancy	71.0	0.592	probe	BY	s614
59.77	0.5	BY	n/a	n/a	dot_pattern_expectancy	-1.0	n/a	cue	BY	s614
62.276	0.5	BY	1.0	71.0	dot_pattern_expectancy	71.0	0.716	probe	BY	s614
63.915	0.5	BX	n/a	n/a	dot_pattern_expectancy	-1.0	n/a	cue	BX	s614
66.425	0.5	BX	1.0	71.0	dot_pattern_expectancy	71.0	0.467	probe	BX	s614
67.929	0.5	AX	n/a	n/a	dot_pattern_expectancy	-1.0	n/a	cue	AX	s614
70.441	0.5	AX	1.0	89.0	dot_pattern_expectancy	89.0	0.435	probe	AX	s614
72.35	0.5	AX	n/a	n/a	dot_pattern_expectancy	-1.0	n/a	cue	AX	s614
74.857	0.5	AX	1.0	89.0	dot_pattern_expectancy	89.0	0.608	probe	AX	s614
76.494	0.5	BX	n/a	n/a	dot_pattern_expectancy	-1.0	n/a	cue	BX	s614
78.998	0.5	BX	1.0	71.0	dot_pattern_expectancy	71.0	0.625	probe	BX	s614
80.5	0.5	AX	n/a	n/a	dot_pattern_expectancy	-1.0	n/a	cue	AX	s614
83.008	0.5	AX	1.0	89.0	dot_pattern_expectancy	89.0	0.517	probe	AX	s614
84.921	0.5	BY	n/a	n/a	dot_pattern_expectancy	-1.0	n/a	cue	BY	s614
87.428	0.5	BY	1.0	71.0	dot_pattern_expectancy	71.0	0.676	probe	BY	s614
89.609	0.5	AX	n/a	n/a	dot_pattern_expectancy	-1.0	n/a	cue	AX	s614
92.118	0.5	AX	0.0	89.0	dot_pattern_expectancy	71.0	0.672	probe	AX	s614
93.892	0.5	AX	n/a	n/a	dot_pattern_expectancy	-1.0	n/a	cue	AX	s614
96.401	0.5	AX	1.0	89.0	dot_pattern_expectancy	89.0	0.844	probe	AX	s614
97.902	0.5	AX	n/a	n/a	dot_pattern_expectancy	-1.0	n/a	cue	AX	s614
100.414	0.5	AX	1.0	89.0	dot_pattern_expectancy	89.0	0.628	probe	AX	s614
101.918	0.5	AX	n/a	n/a	dot_pattern_expectancy	-1.0	n/a	cue	AX	s614
104.427	0.5	AX	1.0	89.0	dot_pattern_expectancy	89.0	0.57	probe	AX	s614
106.473	0.5	AX	n/a	n/a	dot_pattern_expectancy	-1.0	n/a	cue	AX	s614
108.982	0.5	AX	1.0	89.0	dot_pattern_expectancy	89.0	0.513	probe	AX	s614
111.844	0.5	BX	n/a	n/a	dot_pattern_expectancy	-1.0	n/a	cue	BX	s614
114.353	0.5	BX	1.0	71.0	dot_pattern_expectancy	71.0	0.541	probe	BX	s614
115.854	0.5	BY	n/a	n/a	dot_pattern_expectancy	-1.0	n/a	cue	BY	s614
118.364	0.5	BY	1.0	71.0	dot_pattern_expectancy	71.0	0.731	probe	BY	s614
120.137	0.5	AX	n/a	n/a	dot_pattern_expectancy	-1.0	n/a	cue	AX	s614
122.646	0.5	AX	0.0	89.0	dot_pattern_expectancy	71.0	0.809	probe	AX	s614
124.42	0.5	AX	n/a	n/a	dot_pattern_expectancy	-1.0	n/a	cue	AX	s614
126.929	0.5	AX	1.0	89.0	dot_pattern_expectancy	89.0	0.566	probe	AX	s614
129.79	0.5	AX	n/a	n/a	dot_pattern_expectancy	-1.0	n/a	cue	AX	s614
132.3	0.5	AX	1.0	89.0	dot_pattern_expectancy	89.0	0.78	probe	AX	s614
134.073	0.5	BX	n/a	n/a	dot_pattern_expectancy	-1.0	n/a	cue	BX	s614
136.58	0.5	BX	0.0	71.0	dot_pattern_expectancy	89.0	1.041	probe	BX	s614
138.217	0.5	BX	n/a	n/a	dot_pattern_expectancy	-1.0	n/a	cue	BX	s614
140.724	0.5	BX	1.0	71.0	dot_pattern_expectancy	71.0	0.873	probe	BX	s614
143.177	0.5	AX	n/a	n/a	dot_pattern_expectancy	-1.0	n/a	cue	AX	s614
145.684	0.5	AX	1.0	89.0	dot_pattern_expectancy	89.0	0.701	probe	AX	s614
147.321	0.5	BX	n/a	n/a	dot_pattern_expectancy	-1.0	n/a	cue	BX	s614
149.831	0.5	BX	1.0	71.0	dot_pattern_expectancy	71.0	0.806	probe	BX	s614
151.336	0.5	AX	n/a	n/a	dot_pattern_expectancy	-1.0	n/a	cue	AX	s614
153.844	0.5	AX	0.0	89.0	dot_pattern_expectancy	71.0	1.107	probe	AX	s614
155.481	0.5	AX	n/a	n/a	dot_pattern_expectancy	-1.0	n/a	cue	AX	s614
157.988	0.5	AX	1.0	89.0	dot_pattern_expectancy	89.0	0.775	probe	AX	s614
159.625	0.5	BY	n/a	n/a	dot_pattern_expectancy	-1.0	n/a	cue	BY	s614
162.132	0.5	BY	1.0	71.0	dot_pattern_expectancy	71.0	0.294	probe	BY	s614
164.313	0.5	AX	n/a	n/a	dot_pattern_expectancy	-1.0	n/a	cue	AX	s614
166.822	0.5	AX	1.0	89.0	dot_pattern_expectancy	89.0	0.438	probe	AX	s614
168.324	0.5	AY	n/a	n/a	dot_pattern_expectancy	-1.0	n/a	cue	AY	s614
170.831	0.5	AY	1.0	71.0	dot_pattern_expectancy	71.0	0.644	probe	AY	s614
172.471	0.5	AX	n/a	n/a	dot_pattern_expectancy	-1.0	n/a	cue	AX	s614
174.974	0.5	AX	1.0	89.0	dot_pattern_expectancy	89.0	0.76	probe	AX	s614
187.125	0.5	AX	n/a	n/a	dot_pattern_expectancy	-1.0	n/a	cue	AX	s614
189.63	0.5	AX	1.0	89.0	dot_pattern_expectancy	89.0	0.517	probe	AX	s614
191.817	0.5	AY	n/a	n/a	dot_pattern_expectancy	-1.0	n/a	cue	AY	s614
194.326	0.5	AY	1.0	71.0	dot_pattern_expectancy	71.0	0.709	probe	AY	s614
196.644	0.5	AY	n/a	n/a	dot_pattern_expectancy	-1.0	n/a	cue	AY	s614
199.152	0.5	AY	1.0	71.0	dot_pattern_expectancy	71.0	0.765	probe	AY	s614
200.792	0.5	BX	n/a	n/a	dot_pattern_expectancy	-1.0	n/a	cue	BX	s614
203.299	0.5	BX	1.0	71.0	dot_pattern_expectancy	71.0	0.337	probe	BX	s614
205.209	0.5	AX	n/a	n/a	dot_pattern_expectancy	-1.0	n/a	cue	AX	s614
207.716	0.5	AX	0.0	89.0	dot_pattern_expectancy	71.0	0.664	probe	AX	s614
211.257	0.5	BX	n/a	n/a	dot_pattern_expectancy	-1.0	n/a	cue	BX	s614
213.766	0.5	BX	1.0	71.0	dot_pattern_expectancy	71.0	0.397	probe	BX	s614
215.406	0.5	BY	n/a	n/a	dot_pattern_expectancy	-1.0	n/a	cue	BY	s614
217.915	0.5	BY	1.0	71.0	dot_pattern_expectancy	71.0	0.49	probe	BY	s614
219.417	0.5	AX	n/a	n/a	dot_pattern_expectancy	-1.0	n/a	cue	AX	s614
221.926	0.5	AX	1.0	89.0	dot_pattern_expectancy	89.0	0.332	probe	AX	s614
223.429	0.5	AX	n/a	n/a	dot_pattern_expectancy	-1.0	n/a	cue	AX	s614
225.937	0.5	AX	1.0	89.0	dot_pattern_expectancy	89.0	0.472	probe	AX	s614
227.71	0.5	BY	n/a	n/a	dot_pattern_expectancy	-1.0	n/a	cue	BY	s614
230.217	0.5	BY	1.0	71.0	dot_pattern_expectancy	71.0	0.928	probe	BY	s614
232.67	0.5	AX	n/a	n/a	dot_pattern_expectancy	-1.0	n/a	cue	AX	s614
235.177	0.5	AX	1.0	89.0	dot_pattern_expectancy	89.0	1.01	probe	AX	s614
237.091	0.5	BX	n/a	n/a	dot_pattern_expectancy	-1.0	n/a	cue	BX	s614
239.598	0.5	BX	1.0	71.0	dot_pattern_expectancy	71.0	0.639	probe	BX	s614
241.236	0.5	AX	n/a	n/a	dot_pattern_expectancy	-1.0	n/a	cue	AX	s614
243.745	0.5	AX	1.0	89.0	dot_pattern_expectancy	89.0	0.697	probe	AX	s614
245.251	0.5	AX	n/a	n/a	dot_pattern_expectancy	-1.0	n/a	cue	AX	s614
247.76	0.5	AX	1.0	89.0	dot_pattern_expectancy	89.0	1.175	probe	AX	s614
249.401	0.5	AX	n/a	n/a	dot_pattern_expectancy	-1.0	n/a	cue	AX	s614
251.908	0.5	AX	1.0	89.0	dot_pattern_expectancy	89.0	1.006	probe	AX	s614
253.545	0.5	BY	n/a	n/a	dot_pattern_expectancy	-1.0	n/a	cue	BY	s614
256.052	0.5	BY	1.0	71.0	dot_pattern_expectancy	71.0	0.752	probe	BY	s614
258.505	0.5	AX	n/a	n/a	dot_pattern_expectancy	-1.0	n/a	cue	AX	s614
261.016	0.5	AX	0.0	89.0	dot_pattern_expectancy	71.0	0.478	probe	AX	s614
262.521	0.5	BY	n/a	n/a	dot_pattern_expectancy	-1.0	n/a	cue	BY	s614
265.028	0.5	BY	1.0	71.0	dot_pattern_expectancy	71.0	0.525	probe	BY	s614
266.532	0.5	AX	n/a	n/a	dot_pattern_expectancy	-1.0	n/a	cue	AX	s614
269.039	0.5	AX	0.0	89.0	dot_pattern_expectancy	71.0	0.604	probe	AX	s614
270.676	0.5	AX	n/a	n/a	dot_pattern_expectancy	-1.0	n/a	cue	AX	s614
273.182	0.5	AX	1.0	89.0	dot_pattern_expectancy	89.0	0.466	probe	AX	s614
274.82	0.5	AY	n/a	n/a	dot_pattern_expectancy	-1.0	n/a	cue	AY	s614
277.326	0.5	AY	1.0	71.0	dot_pattern_expectancy	71.0	0.743	probe	AY	s614
278.964	0.5	AX	n/a	n/a	dot_pattern_expectancy	-1.0	n/a	cue	AX	s614
281.473	0.5	AX	0.0	89.0	dot_pattern_expectancy	71.0	0.545	probe	AX	s614
282.974	0.5	AX	n/a	n/a	dot_pattern_expectancy	-1.0	n/a	cue	AX	s614
285.478	0.5	AX	1.0	89.0	dot_pattern_expectancy	89.0	0.498	probe	AX	s614
286.98	0.5	AX	n/a	n/a	dot_pattern_expectancy	-1.0	n/a	cue	AX	s614
289.487	0.5	AX	1.0	89.0	dot_pattern_expectancy	89.0	0.333	probe	AX	s614
291.263	0.5	AX	n/a	n/a	dot_pattern_expectancy	-1.0	n/a	cue	AX	s614
293.769	0.5	AX	1.0	89.0	dot_pattern_expectancy	89.0	0.596	probe	AX	s614
295.951	0.5	BX	n/a	n/a	dot_pattern_expectancy	-1.0	n/a	cue	BX	s614
298.46	0.5	BX	1.0	71.0	dot_pattern_expectancy	71.0	0.564	probe	BX	s614
300.233	0.5	BY	n/a	n/a	dot_pattern_expectancy	-1.0	n/a	cue	BY	s614
302.742	0.5	BY	1.0	71.0	dot_pattern_expectancy	71.0	0.597	probe	BY	s614
304.244	0.5	AX	n/a	n/a	dot_pattern_expectancy	-1.0	n/a	cue	AX	s614
306.753	0.5	AX	1.0	89.0	dot_pattern_expectancy	89.0	0.353	probe	AX	s614
308.255	0.5	AX	n/a	n/a	dot_pattern_expectancy	-1.0	n/a	cue	AX	s614
310.761	0.5	AX	0.0	89.0	dot_pattern_expectancy	71.0	0.707	probe	AX	s614
312.398	0.5	AY	n/a	n/a	dot_pattern_expectancy	-1.0	n/a	cue	AY	s614
314.905	0.5	AY	1.0	71.0	dot_pattern_expectancy	71.0	0.662	probe	AY	s614
317.089	0.5	AY	n/a	n/a	dot_pattern_expectancy	-1.0	n/a	cue	AY	s614
319.596	0.5	AY	1.0	71.0	dot_pattern_expectancy	71.0	0.668	probe	AY	s614
321.913	0.5	BX	n/a	n/a	dot_pattern_expectancy	-1.0	n/a	cue	BX	s614
324.42	0.5	BX	1.0	71.0	dot_pattern_expectancy	71.0	0.513	probe	BX	s614
326.062	0.5	BX	n/a	n/a	dot_pattern_expectancy	-1.0	n/a	cue	BX	s614
328.569	0.5	BX	1.0	71.0	dot_pattern_expectancy	71.0	0.642	probe	BX	s614
330.75	0.5	AY	n/a	n/a	dot_pattern_expectancy	-1.0	n/a	cue	AY	s614
333.262	0.5	AY	1.0	71.0	dot_pattern_expectancy	71.0	0.704	probe	AY	s614
335.31	0.5	AX	n/a	n/a	dot_pattern_expectancy	-1.0	n/a	cue	AX	s614
337.82	0.5	AX	0.0	89.0	dot_pattern_expectancy	71.0	0.588	probe	AX	s614
339.593	0.5	AX	n/a	n/a	dot_pattern_expectancy	-1.0	n/a	cue	AX	s614
342.102	0.5	AX	1.0	89.0	dot_pattern_expectancy	89.0	0.746	probe	AX	s614
343.604	0.5	AX	n/a	n/a	dot_pattern_expectancy	-1.0	n/a	cue	AX	s614
346.109	0.5	AX	1.0	89.0	dot_pattern_expectancy	89.0	0.759	probe	AX	s614
348.292	0.5	AY	n/a	n/a	dot_pattern_expectancy	-1.0	n/a	cue	AY	s614
350.798	0.5	AY	1.0	71.0	dot_pattern_expectancy	71.0	0.703	probe	AY	s614
353.252	0.5	AX	n/a	n/a	dot_pattern_expectancy	-1.0	n/a	cue	AX	s614
355.758	0.5	AX	1.0	89.0	dot_pattern_expectancy	89.0	0.799	probe	AX	s614
357.396	0.5	AX	n/a	n/a	dot_pattern_expectancy	-1.0	n/a	cue	AX	s614
359.902	0.5	AX	1.0	89.0	dot_pattern_expectancy	89.0	0.855	probe	AX	s614
372.327	0.5	AX	n/a	n/a	dot_pattern_expectancy	-1.0	n/a	cue	AX	s614
374.834	0.5	AX	1.0	89.0	dot_pattern_expectancy	89.0	0.498	probe	AX	s614
376.612	0.5	AX	n/a	n/a	dot_pattern_expectancy	-1.0	n/a	cue	AX	s614
379.121	0.5	AX	1.0	89.0	dot_pattern_expectancy	89.0	0.551	probe	AX	s614
380.622	0.5	AY	n/a	n/a	dot_pattern_expectancy	-1.0	n/a	cue	AY	s614
383.134	0.5	AY	1.0	71.0	dot_pattern_expectancy	71.0	0.769	probe	AY	s614
385.588	0.5	AY	n/a	n/a	dot_pattern_expectancy	-1.0	n/a	cue	AY	s614
388.097	0.5	AY	1.0	71.0	dot_pattern_expectancy	71.0	0.713	probe	AY	s614
389.872	0.5	AX	n/a	n/a	dot_pattern_expectancy	-1.0	n/a	cue	AX	s614
392.377	0.5	AX	1.0	89.0	dot_pattern_expectancy	89.0	0.701	probe	AX	s614
394.287	0.5	AX	n/a	n/a	dot_pattern_expectancy	-1.0	n/a	cue	AX	s614
396.793	0.5	AX	1.0	89.0	dot_pattern_expectancy	89.0	0.726	probe	AX	s614
398.705	0.5	AX	n/a	n/a	dot_pattern_expectancy	-1.0	n/a	cue	AX	s614
401.212	0.5	AX	1.0	89.0	dot_pattern_expectancy	89.0	0.623	probe	AX	s614
403.806	0.5	AY	n/a	n/a	dot_pattern_expectancy	-1.0	n/a	cue	AY	s614
406.315	0.5	AY	1.0	71.0	dot_pattern_expectancy	71.0	0.834	probe	AY	s614
407.817	0.5	BY	n/a	n/a	dot_pattern_expectancy	-1.0	n/a	cue	BY	s614
410.328	0.5	BY	1.0	71.0	dot_pattern_expectancy	71.0	0.585	probe	BY	s614
411.833	0.5	BY	n/a	n/a	dot_pattern_expectancy	-1.0	n/a	cue	BY	s614
414.343	0.5	BY	1.0	71.0	dot_pattern_expectancy	71.0	0.502	probe	BY	s614
415.845	0.5	AX	n/a	n/a	dot_pattern_expectancy	-1.0	n/a	cue	AX	s614
418.35	0.5	AX	0.0	89.0	dot_pattern_expectancy	71.0	0.64	probe	AX	s614
419.988	0.5	BX	n/a	n/a	dot_pattern_expectancy	-1.0	n/a	cue	BX	s614
422.499	0.5	BX	1.0	71.0	dot_pattern_expectancy	71.0	0.695	probe	BX	s614
424.548	0.5	AX	n/a	n/a	dot_pattern_expectancy	-1.0	n/a	cue	AX	s614
427.052	0.5	AX	0.0	89.0	dot_pattern_expectancy	71.0	0.694	probe	AX	s614
428.827	0.5	BX	n/a	n/a	dot_pattern_expectancy	-1.0	n/a	cue	BX	s614
431.333	0.5	BX	1.0	71.0	dot_pattern_expectancy	71.0	0.851	probe	BX	s614
433.924	0.5	AY	n/a	n/a	dot_pattern_expectancy	-1.0	n/a	cue	AY	s614
436.432	0.5	AY	1.0	71.0	dot_pattern_expectancy	71.0	0.803	probe	AY	s614
437.934	0.5	AX	n/a	n/a	dot_pattern_expectancy	-1.0	n/a	cue	AX	s614
440.441	0.5	AX	0.0	89.0	dot_pattern_expectancy	71.0	0.689	probe	AX	s614
442.895	0.5	BY	n/a	n/a	dot_pattern_expectancy	-1.0	n/a	cue	BY	s614
445.401	0.5	BY	1.0	71.0	dot_pattern_expectancy	71.0	0.802	probe	BY	s614
447.04	0.5	AX	n/a	n/a	dot_pattern_expectancy	-1.0	n/a	cue	AX	s614
449.549	0.5	AX	1.0	89.0	dot_pattern_expectancy	89.0	0.598	probe	AX	s614
451.188	0.5	AX	n/a	n/a	dot_pattern_expectancy	-1.0	n/a	cue	AX	s614
453.697	0.5	AX	1.0	89.0	dot_pattern_expectancy	89.0	0.612	probe	AX	s614
455.2	0.5	BY	n/a	n/a	dot_pattern_expectancy	-1.0	n/a	cue	BY	s614
457.705	0.5	BY	1.0	71.0	dot_pattern_expectancy	71.0	0.361	probe	BY	s614
459.343	0.5	AX	n/a	n/a	dot_pattern_expectancy	-1.0	n/a	cue	AX	s614
461.851	0.5	AX	1.0	89.0	dot_pattern_expectancy	89.0	0.366	probe	AX	s614
463.355	0.5	AY	n/a	n/a	dot_pattern_expectancy	-1.0	n/a	cue	AY	s614
465.86	0.5	AY	0.0	71.0	dot_pattern_expectancy	89.0	0.39	probe	AY	s614
468.041	0.5	AX	n/a	n/a	dot_pattern_expectancy	-1.0	n/a	cue	AX	s614
470.545	0.5	AX	1.0	89.0	dot_pattern_expectancy	89.0	0.492	probe	AX	s614
472.046	0.5	AX	n/a	n/a	dot_pattern_expectancy	-1.0	n/a	cue	AX	s614
474.553	0.5	AX	0.0	89.0	dot_pattern_expectancy	71.0	0.402	probe	AX	s614
476.462	0.5	BY	n/a	n/a	dot_pattern_expectancy	-1.0	n/a	cue	BY	s614
478.969	0.5	BY	1.0	71.0	dot_pattern_expectancy	71.0	0.44	probe	BY	s614
480.606	0.5	BY	n/a	n/a	dot_pattern_expectancy	-1.0	n/a	cue	BY	s614
483.113	0.5	BY	1.0	71.0	dot_pattern_expectancy	71.0	0.301	probe	BY	s614
484.75	0.5	AX	n/a	n/a	dot_pattern_expectancy	-1.0	n/a	cue	AX	s614
487.257	0.5	AX	1.0	89.0	dot_pattern_expectancy	89.0	0.522	probe	AX	s614
488.894	0.5	AX	n/a	n/a	dot_pattern_expectancy	-1.0	n/a	cue	AX	s614
491.404	0.5	AX	1.0	89.0	dot_pattern_expectancy	89.0	0.793	probe	AX	s614
492.909	0.5	BY	n/a	n/a	dot_pattern_expectancy	-1.0	n/a	cue	BY	s614
495.414	0.5	BY	1.0	71.0	dot_pattern_expectancy	71.0	0.502	probe	BY	s614
497.46	0.5	AY	n/a	n/a	dot_pattern_expectancy	-1.0	n/a	cue	AY	s614
499.966	0.5	AY	1.0	71.0	dot_pattern_expectancy	71.0	1.253	probe	AY	s614
502.148	0.5	AY	n/a	n/a	dot_pattern_expectancy	-1.0	n/a	cue	AY	s614
504.654	0.5	AY	1.0	71.0	dot_pattern_expectancy	71.0	0.767	probe	AY	s614
506.292	0.5	AY	n/a	n/a	dot_pattern_expectancy	-1.0	n/a	cue	AY	s614
508.801	0.5	AY	1.0	71.0	dot_pattern_expectancy	71.0	1.335	probe	AY	s614
510.574	0.5	BY	n/a	n/a	dot_pattern_expectancy	-1.0	n/a	cue	BY	s614
513.086	0.5	BY	1.0	71.0	dot_pattern_expectancy	71.0	0.612	probe	BY	s614
514.591	0.5	BX	n/a	n/a	dot_pattern_expectancy	-1.0	n/a	cue	BX	s614
517.097	0.5	BX	1.0	71.0	dot_pattern_expectancy	71.0	0.492	probe	BX	s614
519.006	0.5	AX	n/a	n/a	dot_pattern_expectancy	-1.0	n/a	cue	AX	s614
521.516	0.5	AX	0.0	89.0	dot_pattern_expectancy	71.0	0.772	probe	AX	s614
523.561	0.5	AX	n/a	n/a	dot_pattern_expectancy	-1.0	n/a	cue	AX	s614
526.068	0.5	AX	0.0	89.0	dot_pattern_expectancy	71.0	0.604	probe	AX	s614
527.705	0.5	AX	n/a	n/a	dot_pattern_expectancy	-1.0	n/a	cue	AX	s614
530.214	0.5	AX	1.0	89.0	dot_pattern_expectancy	89.0	1.181	probe	AX	s614
531.988	0.5	AX	n/a	n/a	dot_pattern_expectancy	-1.0	n/a	cue	AX	s614
534.494	0.5	AX	1.0	89.0	dot_pattern_expectancy	89.0	0.957	probe	AX	s614
536.133	0.5	BX	n/a	n/a	dot_pattern_expectancy	-1.0	n/a	cue	BX	s614
538.639	0.5	BX	1.0	71.0	dot_pattern_expectancy	71.0	0.542	probe	BX	s614
540.414	0.5	AX	n/a	n/a	dot_pattern_expectancy	-1.0	n/a	cue	AX	s614
542.924	0.5	AX	1.0	89.0	dot_pattern_expectancy	89.0	0.676	probe	AX	s614
554.939	0.5	BY	n/a	n/a	dot_pattern_expectancy	-1.0	n/a	cue	BY	s614
557.447	0.5	BY	1.0	71.0	dot_pattern_expectancy	71.0	0.262	probe	BY	s614
559.088	0.5	AY	n/a	n/a	dot_pattern_expectancy	-1.0	n/a	cue	AY	s614
561.596	0.5	AY	1.0	71.0	dot_pattern_expectancy	71.0	0.621	probe	AY	s614
563.097	0.5	AX	n/a	n/a	dot_pattern_expectancy	-1.0	n/a	cue	AX	s614
565.606	0.5	AX	0.0	89.0	dot_pattern_expectancy	71.0	0.732	probe	AX	s614
567.655	0.5	BY	n/a	n/a	dot_pattern_expectancy	-1.0	n/a	cue	BY	s614
570.161	0.5	BY	1.0	71.0	dot_pattern_expectancy	71.0	0.79	probe	BY	s614
571.934	0.5	BX	n/a	n/a	dot_pattern_expectancy	-1.0	n/a	cue	BX	s614
574.441	0.5	BX	1.0	71.0	dot_pattern_expectancy	71.0	0.307	probe	BX	s614
576.078	0.5	AX	n/a	n/a	dot_pattern_expectancy	-1.0	n/a	cue	AX	s614
578.585	0.5	AX	1.0	89.0	dot_pattern_expectancy	89.0	0.715	probe	AX	s614
580.222	0.5	AX	n/a	n/a	dot_pattern_expectancy	-1.0	n/a	cue	AX	s614
582.732	0.5	AX	1.0	89.0	dot_pattern_expectancy	89.0	0.753	probe	AX	s614
584.233	0.5	AX	n/a	n/a	dot_pattern_expectancy	-1.0	n/a	cue	AX	s614
586.742	0.5	AX	1.0	89.0	dot_pattern_expectancy	89.0	0.579	probe	AX	s614
588.244	0.5	AY	n/a	n/a	dot_pattern_expectancy	-1.0	n/a	cue	AY	s614
590.753	0.5	AY	1.0	71.0	dot_pattern_expectancy	71.0	0.986	probe	AY	s614
592.798	0.5	AX	n/a	n/a	dot_pattern_expectancy	-1.0	n/a	cue	AX	s614
595.305	0.5	AX	1.0	89.0	dot_pattern_expectancy	89.0	0.623	probe	AX	s614
597.758	0.5	AX	n/a	n/a	dot_pattern_expectancy	-1.0	n/a	cue	AX	s614
600.265	0.5	AX	1.0	89.0	dot_pattern_expectancy	89.0	0.632	probe	AX	s614
602.174	0.5	AX	n/a	n/a	dot_pattern_expectancy	-1.0	n/a	cue	AX	s614
604.686	0.5	AX	1.0	89.0	dot_pattern_expectancy	89.0	0.56	probe	AX	s614
606.191	0.5	AX	n/a	n/a	dot_pattern_expectancy	-1.0	n/a	cue	AX	s614
608.697	0.5	AX	1.0	89.0	dot_pattern_expectancy	89.0	0.468	probe	AX	s614
610.606	0.5	BX	n/a	n/a	dot_pattern_expectancy	-1.0	n/a	cue	BX	s614
613.113	0.5	BX	1.0	71.0	dot_pattern_expectancy	71.0	0.405	probe	BX	s614
615.295	0.5	AX	n/a	n/a	dot_pattern_expectancy	-1.0	n/a	cue	AX	s614
617.806	0.5	AX	1.0	89.0	dot_pattern_expectancy	89.0	1.012	probe	AX	s614
619.307	0.5	BY	n/a	n/a	dot_pattern_expectancy	-1.0	n/a	cue	BY	s614
621.813	0.5	BY	1.0	71.0	dot_pattern_expectancy	71.0	1.269	probe	BY	s614
623.724	0.5	BX	n/a	n/a	dot_pattern_expectancy	-1.0	n/a	cue	BX	s614
626.23	0.5	BX	1.0	71.0	dot_pattern_expectancy	71.0	0.492	probe	BX	s614
628.548	0.5	AY	n/a	n/a	dot_pattern_expectancy	-1.0	n/a	cue	AY	s614
631.052	0.5	AY	0.0	71.0	dot_pattern_expectancy	89.0	0.589	probe	AY	s614
633.374	0.5	BX	n/a	n/a	dot_pattern_expectancy	-1.0	n/a	cue	BX	s614
635.881	0.5	BX	1.0	71.0	dot_pattern_expectancy	71.0	0.462	probe	BX	s614
637.518	0.5	AY	n/a	n/a	dot_pattern_expectancy	-1.0	n/a	cue	AY	s614
640.027	0.5	AY	1.0	71.0	dot_pattern_expectancy	71.0	0.78	probe	AY	s614
641.529	0.5	BY	n/a	n/a	dot_pattern_expectancy	-1.0	n/a	cue	BY	s614
644.036	0.5	BY	1.0	71.0	dot_pattern_expectancy	71.0	0.489	probe	BY	s614
645.947	0.5	AX	n/a	n/a	dot_pattern_expectancy	-1.0	n/a	cue	AX	s614
648.456	0.5	AX	0.0	89.0	dot_pattern_expectancy	71.0	0.549	probe	AX	s614
649.961	0.5	AY	n/a	n/a	dot_pattern_expectancy	-1.0	n/a	cue	AY	s614
652.47	0.5	AY	1.0	71.0	dot_pattern_expectancy	71.0	0.6	probe	AY	s614
654.788	0.5	AX	n/a	n/a	dot_pattern_expectancy	-1.0	n/a	cue	AX	s614
657.297	0.5	AX	1.0	89.0	dot_pattern_expectancy	89.0	0.655	probe	AX	s614
658.798	0.5	AY	n/a	n/a	dot_pattern_expectancy	-1.0	n/a	cue	AY	s614
661.305	0.5	AY	1.0	71.0	dot_pattern_expectancy	71.0	0.776	probe	AY	s614
664.03	0.5	AX	n/a	n/a	dot_pattern_expectancy	-1.0	n/a	cue	AX	s614
666.538	0.5	AX	1.0	89.0	dot_pattern_expectancy	89.0	0.692	probe	AX	s614
668.04	0.5	AX	n/a	n/a	dot_pattern_expectancy	-1.0	n/a	cue	AX	s614
670.542	0.5	AX	1.0	89.0	dot_pattern_expectancy	89.0	0.543	probe	AX	s614
672.18	0.5	AX	n/a	n/a	dot_pattern_expectancy	-1.0	n/a	cue	AX	s614
674.686	0.5	AX	1.0	89.0	dot_pattern_expectancy	89.0	0.615	probe	AX	s614
676.324	0.5	AX	n/a	n/a	dot_pattern_expectancy	-1.0	n/a	cue	AX	s614
678.833	0.5	AX	1.0	89.0	dot_pattern_expectancy	89.0	0.656	probe	AX	s614
680.607	0.5	BY	n/a	n/a	dot_pattern_expectancy	-1.0	n/a	cue	BY	s614
683.113	0.5	BY	1.0	71.0	dot_pattern_expectancy	71.0	1.294	probe	BY	s614
684.889	0.5	AX	n/a	n/a	dot_pattern_expectancy	-1.0	n/a	cue	AX	s614
687.398	0.5	AX	1.0	89.0	dot_pattern_expectancy	89.0	0.679	probe	AX	s614
688.902	0.5	BY	n/a	n/a	dot_pattern_expectancy	-1.0	n/a	cue	BY	s614
691.406	0.5	BY	1.0	71.0	dot_pattern_expectancy	71.0	0.769	probe	BY	s614
693.86	0.5	AX	n/a	n/a	dot_pattern_expectancy	-1.0	n/a	cue	AX	s614
696.366	0.5	AX	1.0	89.0	dot_pattern_expectancy	89.0	0.597	probe	AX	s614
698.004	0.5	AX	n/a	n/a	dot_pattern_expectancy	-1.0	n/a	cue	AX	s614
700.51	0.5	AX	1.0	89.0	dot_pattern_expectancy	89.0	0.797	probe	AX	s614
702.148	0.5	BX	n/a	n/a	dot_pattern_expectancy	-1.0	n/a	cue	BX	s614
704.659	0.5	BX	1.0	71.0	dot_pattern_expectancy	71.0	0.626	probe	BX	s614
706.164	0.5	BX	n/a	n/a	dot_pattern_expectancy	-1.0	n/a	cue	BX	s614
708.673	0.5	BX	1.0	71.0	dot_pattern_expectancy	71.0	0.578	probe	BX	s614
710.175	0.5	AX	n/a	n/a	dot_pattern_expectancy	-1.0	n/a	cue	AX	s614
712.678	0.5	AX	1.0	89.0	dot_pattern_expectancy	89.0	0.452	probe	AX	s614
715.001	0.5	AY	n/a	n/a	dot_pattern_expectancy	-1.0	n/a	cue	AY	s614
717.51	0.5	AY	1.0	71.0	dot_pattern_expectancy	71.0	1.362	probe	AY	s614
719.556	0.5	AX	n/a	n/a	dot_pattern_expectancy	-1.0	n/a	cue	AX	s614
722.064	0.5	AX	1.0	89.0	dot_pattern_expectancy	89.0	0.568	probe	AX	s614
726.014	0.5	AX	n/a	n/a	dot_pattern_expectancy	-1.0	n/a	cue	AX	s614
728.521	0.5	AX	1.0	89.0	dot_pattern_expectancy	89.0	0.718	probe	AX	s614
