onset	duration	correct	correct_response	cue	experiment_exp_id	flanker_location	flanker_middle_direction	flanker_type	key_press	response_time	trial_id	worker_id
3.01	0.1	n/a	n/a	spatial	attention_network_task	n/a	n/a	n/a	-1	n/a	spatialcue	s574
3.521048	1.7	1.0	89.0	n/a	attention_network_task	down	left	incongruent	89	0.649	stim	s574
5.626	0.1	n/a	n/a	double	attention_network_task	n/a	n/a	n/a	-1	n/a	doublecue	s574
6.1298639999999995	1.7	1.0	71.0	n/a	attention_network_task	down	right	incongruent	71	0.56	stim	s574
8.234	0.1	n/a	n/a	double	attention_network_task	n/a	n/a	n/a	-1	n/a	doublecue	s574
8.737727999999999	1.7	1.0	71.0	n/a	attention_network_task	up	right	incongruent	71	0.509	stim	s574
10.842	0.1	n/a	n/a	double	attention_network_task	n/a	n/a	n/a	-1	n/a	doublecue	s574
11.351728	1.7	1.0	71.0	n/a	attention_network_task	up	right	incongruent	71	0.546	stim	s574
13.455	0.1	n/a	n/a	double	attention_network_task	n/a	n/a	n/a	-1	n/a	doublecue	s574
13.96	1.7	1.0	71.0	n/a	attention_network_task	up	right	congruent	71	0.513	stim	s574
16.063	0.1	n/a	n/a	spatial	attention_network_task	n/a	n/a	n/a	-1	n/a	spatialcue	s574
16.568	1.7	1.0	71.0	n/a	attention_network_task	up	right	incongruent	71	0.596	stim	s574
18.672	0.1	n/a	n/a	spatial	attention_network_task	n/a	n/a	n/a	-1	n/a	spatialcue	s574
19.175728	1.7	1.0	71.0	n/a	attention_network_task	up	right	congruent	71	0.393	stim	s574
21.28	0.1	n/a	n/a	spatial	attention_network_task	n/a	n/a	n/a	-1	n/a	spatialcue	s574
21.784	1.7	1.0	89.0	n/a	attention_network_task	up	left	congruent	89	0.548	stim	s574
23.888	0.1	n/a	n/a	spatial	attention_network_task	n/a	n/a	n/a	-1	n/a	spatialcue	s574
24.392	1.7	1.0	89.0	n/a	attention_network_task	up	left	incongruent	89	0.43	stim	s574
26.496	0.1	n/a	n/a	double	attention_network_task	n/a	n/a	n/a	-1	n/a	doublecue	s574
26.999727999999998	1.7	1.0	89.0	n/a	attention_network_task	down	left	congruent	89	0.562	stim	s574
29.104	0.1	n/a	n/a	spatial	attention_network_task	n/a	n/a	n/a	-1	n/a	spatialcue	s574
29.614	1.7	1.0	71.0	n/a	attention_network_task	up	right	incongruent	71	0.575	stim	s574
31.717	0.1	n/a	n/a	spatial	attention_network_task	n/a	n/a	n/a	-1	n/a	spatialcue	s574
32.223864	1.7	1.0	71.0	n/a	attention_network_task	up	right	congruent	71	0.398	stim	s574
34.328	0.1	n/a	n/a	spatial	attention_network_task	n/a	n/a	n/a	-1	n/a	spatialcue	s574
34.834728000000005	1.7	1.0	89.0	n/a	attention_network_task	down	left	congruent	89	0.486	stim	s574
36.939	0.1	n/a	n/a	spatial	attention_network_task	n/a	n/a	n/a	-1	n/a	spatialcue	s574
37.448	1.7	1.0	89.0	n/a	attention_network_task	up	left	congruent	89	0.457	stim	s574
39.553	0.1	n/a	n/a	double	attention_network_task	n/a	n/a	n/a	-1	n/a	doublecue	s574
40.057	1.7	1.0	89.0	n/a	attention_network_task	down	left	incongruent	89	0.479	stim	s574
42.163	0.1	n/a	n/a	double	attention_network_task	n/a	n/a	n/a	-1	n/a	doublecue	s574
42.674	1.7	1.0	89.0	n/a	attention_network_task	up	left	congruent	89	0.425	stim	s574
44.777	0.1	n/a	n/a	spatial	attention_network_task	n/a	n/a	n/a	-1	n/a	spatialcue	s574
45.283	1.7	1.0	71.0	n/a	attention_network_task	down	right	incongruent	71	0.606	stim	s574
47.387	0.1	n/a	n/a	double	attention_network_task	n/a	n/a	n/a	-1	n/a	doublecue	s574
47.897	1.7	1.0	89.0	n/a	attention_network_task	up	left	congruent	89	0.369	stim	s574
50.001	0.1	n/a	n/a	spatial	attention_network_task	n/a	n/a	n/a	-1	n/a	spatialcue	s574
50.51	1.7	1.0	89.0	n/a	attention_network_task	up	left	incongruent	89	0.445	stim	s574
52.614	0.1	n/a	n/a	double	attention_network_task	n/a	n/a	n/a	-1	n/a	doublecue	s574
53.123728	1.7	1.0	89.0	n/a	attention_network_task	up	left	congruent	89	0.389	stim	s574
55.228	0.1	n/a	n/a	double	attention_network_task	n/a	n/a	n/a	-1	n/a	doublecue	s574
55.736864000000004	1.7	1.0	89.0	n/a	attention_network_task	down	left	incongruent	89	0.567	stim	s574
57.841	0.1	n/a	n/a	double	attention_network_task	n/a	n/a	n/a	-1	n/a	doublecue	s574
58.349911999999996	1.7	1.0	71.0	n/a	attention_network_task	down	right	incongruent	71	0.371	stim	s574
60.455	0.1	n/a	n/a	spatial	attention_network_task	n/a	n/a	n/a	-1	n/a	spatialcue	s574
60.958728	1.7	1.0	71.0	n/a	attention_network_task	down	right	congruent	71	0.416	stim	s574
63.063	0.1	n/a	n/a	spatial	attention_network_task	n/a	n/a	n/a	-1	n/a	spatialcue	s574
63.568864000000005	1.7	1.0	89.0	n/a	attention_network_task	down	left	congruent	89	0.414	stim	s574
65.674	0.1	n/a	n/a	double	attention_network_task	n/a	n/a	n/a	-1	n/a	doublecue	s574
66.180864	1.7	1.0	71.0	n/a	attention_network_task	down	right	congruent	71	0.373	stim	s574
68.284	0.1	n/a	n/a	double	attention_network_task	n/a	n/a	n/a	-1	n/a	doublecue	s574
68.793	1.7	1.0	71.0	n/a	attention_network_task	up	right	congruent	71	0.633	stim	s574
70.895	0.1	n/a	n/a	spatial	attention_network_task	n/a	n/a	n/a	-1	n/a	spatialcue	s574
71.402	1.7	1.0	89.0	n/a	attention_network_task	up	left	incongruent	89	0.43	stim	s574
73.506	0.1	n/a	n/a	spatial	attention_network_task	n/a	n/a	n/a	-1	n/a	spatialcue	s574
74.01	1.7	1.0	71.0	n/a	attention_network_task	down	right	congruent	71	0.389	stim	s574
76.114	0.1	n/a	n/a	double	attention_network_task	n/a	n/a	n/a	-1	n/a	doublecue	s574
76.618	1.7	1.0	89.0	n/a	attention_network_task	up	left	incongruent	89	0.451	stim	s574
78.722	0.1	n/a	n/a	spatial	attention_network_task	n/a	n/a	n/a	-1	n/a	spatialcue	s574
79.225864	1.7	1.0	71.0	n/a	attention_network_task	down	right	incongruent	71	0.343	stim	s574
81.33	0.1	n/a	n/a	double	attention_network_task	n/a	n/a	n/a	-1	n/a	doublecue	s574
81.83372800000001	1.7	1.0	89.0	n/a	attention_network_task	up	left	incongruent	89	0.398	stim	s574
83.939	0.1	n/a	n/a	spatial	attention_network_task	n/a	n/a	n/a	-1	n/a	spatialcue	s574
84.443864	1.7	1.0	89.0	n/a	attention_network_task	down	left	congruent	89	0.494	stim	s574
86.547	0.1	n/a	n/a	double	attention_network_task	n/a	n/a	n/a	-1	n/a	doublecue	s574
87.054864	1.7	1.0	71.0	n/a	attention_network_task	up	right	congruent	71	0.557	stim	s574
89.16	0.1	n/a	n/a	double	attention_network_task	n/a	n/a	n/a	-1	n/a	doublecue	s574
89.669	1.7	1.0	89.0	n/a	attention_network_task	up	left	incongruent	89	0.497	stim	s574
91.773	0.1	n/a	n/a	spatial	attention_network_task	n/a	n/a	n/a	-1	n/a	spatialcue	s574
92.277	1.7	1.0	89.0	n/a	attention_network_task	down	left	congruent	89	0.512	stim	s574
94.381	0.1	n/a	n/a	double	attention_network_task	n/a	n/a	n/a	-1	n/a	doublecue	s574
94.890592	1.7	1.0	89.0	n/a	attention_network_task	up	left	congruent	89	0.397	stim	s574
96.994	0.1	n/a	n/a	double	attention_network_task	n/a	n/a	n/a	-1	n/a	doublecue	s574
97.500456	1.7	1.0	71.0	n/a	attention_network_task	down	right	congruent	71	0.537	stim	s574
99.605	0.1	n/a	n/a	spatial	attention_network_task	n/a	n/a	n/a	-1	n/a	spatialcue	s574
100.111592	1.7	1.0	89.0	n/a	attention_network_task	down	left	incongruent	89	0.46	stim	s574
102.214	0.1	n/a	n/a	spatial	attention_network_task	n/a	n/a	n/a	-1	n/a	spatialcue	s574
102.72	1.7	1.0	89.0	n/a	attention_network_task	down	left	congruent	89	0.427	stim	s574
104.824	0.1	n/a	n/a	double	attention_network_task	n/a	n/a	n/a	-1	n/a	doublecue	s574
105.328592	1.7	1.0	71.0	n/a	attention_network_task	down	right	congruent	71	0.556	stim	s574
107.433	0.1	n/a	n/a	spatial	attention_network_task	n/a	n/a	n/a	-1	n/a	spatialcue	s574
107.942	1.7	1.0	71.0	n/a	attention_network_task	down	right	congruent	71	0.459	stim	s574
110.047	0.1	n/a	n/a	spatial	attention_network_task	n/a	n/a	n/a	-1	n/a	spatialcue	s574
110.549592	1.7	1.0	71.0	n/a	attention_network_task	down	right	congruent	71	0.363	stim	s574
112.654	0.1	n/a	n/a	spatial	attention_network_task	n/a	n/a	n/a	-1	n/a	spatialcue	s574
113.158	1.7	1.0	89.0	n/a	attention_network_task	down	left	incongruent	89	0.5	stim	s574
115.262	0.1	n/a	n/a	spatial	attention_network_task	n/a	n/a	n/a	-1	n/a	spatialcue	s574
115.772	1.7	1.0	71.0	n/a	attention_network_task	up	right	incongruent	71	0.528	stim	s574
117.876	0.1	n/a	n/a	spatial	attention_network_task	n/a	n/a	n/a	-1	n/a	spatialcue	s574
118.379592	1.7	1.0	71.0	n/a	attention_network_task	up	right	incongruent	71	0.466	stim	s574
120.484	0.1	n/a	n/a	spatial	attention_network_task	n/a	n/a	n/a	-1	n/a	spatialcue	s574
120.987864	1.7	1.0	89.0	n/a	attention_network_task	down	left	incongruent	89	0.467	stim	s574
123.092	0.1	n/a	n/a	double	attention_network_task	n/a	n/a	n/a	-1	n/a	doublecue	s574
123.59572800000001	1.7	1.0	71.0	n/a	attention_network_task	up	right	incongruent	71	0.572	stim	s574
125.699	0.1	n/a	n/a	double	attention_network_task	n/a	n/a	n/a	-1	n/a	doublecue	s574
126.203456	1.7	1.0	71.0	n/a	attention_network_task	down	right	incongruent	71	0.535	stim	s574
128.308	0.1	n/a	n/a	spatial	attention_network_task	n/a	n/a	n/a	-1	n/a	spatialcue	s574
128.81172800000002	1.7	1.0	89.0	n/a	attention_network_task	up	left	incongruent	89	0.434	stim	s574
130.916	0.1	n/a	n/a	spatial	attention_network_task	n/a	n/a	n/a	-1	n/a	spatialcue	s574
131.423	1.7	1.0	71.0	n/a	attention_network_task	down	right	incongruent	71	0.397	stim	s574
133.527	0.1	n/a	n/a	spatial	attention_network_task	n/a	n/a	n/a	-1	n/a	spatialcue	s574
134.033592	1.7	1.0	71.0	n/a	attention_network_task	up	right	incongruent	71	0.473	stim	s574
136.138	0.1	n/a	n/a	spatial	attention_network_task	n/a	n/a	n/a	-1	n/a	spatialcue	s574
136.642	1.7	1.0	71.0	n/a	attention_network_task	down	right	congruent	71	0.539	stim	s574
138.746	0.1	n/a	n/a	double	attention_network_task	n/a	n/a	n/a	-1	n/a	doublecue	s574
139.251	1.7	1.0	71.0	n/a	attention_network_task	up	right	congruent	71	0.479	stim	s574
141.355	0.1	n/a	n/a	double	attention_network_task	n/a	n/a	n/a	-1	n/a	doublecue	s574
141.857456	1.7	1.0	89.0	n/a	attention_network_task	up	left	incongruent	89	0.561	stim	s574
143.962	0.1	n/a	n/a	spatial	attention_network_task	n/a	n/a	n/a	-1	n/a	spatialcue	s574
144.468592	1.7	1.0	89.0	n/a	attention_network_task	down	left	congruent	89	0.632	stim	s574
146.573	0.1	n/a	n/a	spatial	attention_network_task	n/a	n/a	n/a	-1	n/a	spatialcue	s574
147.084	1.7	1.0	71.0	n/a	attention_network_task	up	right	congruent	71	0.525	stim	s574
149.187	0.1	n/a	n/a	spatial	attention_network_task	n/a	n/a	n/a	-1	n/a	spatialcue	s574
149.690864	1.7	1.0	89.0	n/a	attention_network_task	up	left	congruent	89	0.478	stim	s574
151.795	0.1	n/a	n/a	spatial	attention_network_task	n/a	n/a	n/a	-1	n/a	spatialcue	s574
152.300184	1.7	1.0	71.0	n/a	attention_network_task	down	right	incongruent	71	0.462	stim	s574
154.405	0.1	n/a	n/a	double	attention_network_task	n/a	n/a	n/a	-1	n/a	doublecue	s574
154.908864	1.7	1.0	89.0	n/a	attention_network_task	up	left	congruent	89	0.499	stim	s574
157.013	0.1	n/a	n/a	spatial	attention_network_task	n/a	n/a	n/a	-1	n/a	spatialcue	s574
157.517	1.7	1.0	89.0	n/a	attention_network_task	up	left	congruent	89	0.517	stim	s574
159.622	0.1	n/a	n/a	double	attention_network_task	n/a	n/a	n/a	-1	n/a	doublecue	s574
160.130864	1.7	1.0	71.0	n/a	attention_network_task	down	right	incongruent	71	0.484	stim	s574
162.232	0.1	n/a	n/a	spatial	attention_network_task	n/a	n/a	n/a	-1	n/a	spatialcue	s574
162.740864	1.7	1.0	89.0	n/a	attention_network_task	down	left	incongruent	89	0.55	stim	s574
164.845	0.1	n/a	n/a	double	attention_network_task	n/a	n/a	n/a	-1	n/a	doublecue	s574
165.351864	1.7	1.0	89.0	n/a	attention_network_task	down	left	incongruent	89	0.461	stim	s574
167.456	0.1	n/a	n/a	spatial	attention_network_task	n/a	n/a	n/a	-1	n/a	spatialcue	s574
167.960456	1.7	1.0	71.0	n/a	attention_network_task	up	right	congruent	71	0.445	stim	s574
180.574	0.1	n/a	n/a	spatial	attention_network_task	n/a	n/a	n/a	-1	n/a	spatialcue	s574
181.081	1.7	1.0	89.0	n/a	attention_network_task	down	left	congruent	89	0.421	stim	s574
183.185	0.1	n/a	n/a	double	attention_network_task	n/a	n/a	n/a	-1	n/a	doublecue	s574
183.688728	1.7	1.0	71.0	n/a	attention_network_task	up	right	incongruent	71	0.513	stim	s574
185.793	0.1	n/a	n/a	spatial	attention_network_task	n/a	n/a	n/a	-1	n/a	spatialcue	s574
186.297	1.7	1.0	89.0	n/a	attention_network_task	up	left	congruent	89	0.464	stim	s574
188.401	0.1	n/a	n/a	spatial	attention_network_task	n/a	n/a	n/a	-1	n/a	spatialcue	s574
188.904864	1.7	1.0	71.0	n/a	attention_network_task	down	right	congruent	71	0.524	stim	s574
191.007	0.1	n/a	n/a	double	attention_network_task	n/a	n/a	n/a	-1	n/a	doublecue	s574
191.51359200000002	1.7	1.0	71.0	n/a	attention_network_task	down	right	incongruent	71	0.411	stim	s574
193.617	0.1	n/a	n/a	double	attention_network_task	n/a	n/a	n/a	-1	n/a	doublecue	s574
194.121456	1.7	1.0	89.0	n/a	attention_network_task	up	left	congruent	89	0.546	stim	s574
196.226	0.1	n/a	n/a	double	attention_network_task	n/a	n/a	n/a	-1	n/a	doublecue	s574
196.731	1.7	1.0	71.0	n/a	attention_network_task	up	right	incongruent	71	0.47	stim	s574
198.836	0.1	n/a	n/a	spatial	attention_network_task	n/a	n/a	n/a	-1	n/a	spatialcue	s574
199.342864	1.7	1.0	89.0	n/a	attention_network_task	up	left	incongruent	89	0.433	stim	s574
201.449	0.1	n/a	n/a	double	attention_network_task	n/a	n/a	n/a	-1	n/a	doublecue	s574
201.956864	1.7	1.0	71.0	n/a	attention_network_task	down	right	incongruent	71	0.586	stim	s574
204.061	0.1	n/a	n/a	spatial	attention_network_task	n/a	n/a	n/a	-1	n/a	spatialcue	s574
204.564864	1.7	1.0	71.0	n/a	attention_network_task	up	right	incongruent	71	0.487	stim	s574
206.67	0.1	n/a	n/a	double	attention_network_task	n/a	n/a	n/a	-1	n/a	doublecue	s574
207.177864	1.7	1.0	89.0	n/a	attention_network_task	down	left	congruent	89	0.693	stim	s574
209.283	0.1	n/a	n/a	spatial	attention_network_task	n/a	n/a	n/a	-1	n/a	spatialcue	s574
209.792728	1.7	1.0	71.0	n/a	attention_network_task	down	right	incongruent	71	0.574	stim	s574
211.897	0.1	n/a	n/a	spatial	attention_network_task	n/a	n/a	n/a	-1	n/a	spatialcue	s574
212.408864	1.7	1.0	71.0	n/a	attention_network_task	up	right	incongruent	71	0.518	stim	s574
214.512	0.1	n/a	n/a	spatial	attention_network_task	n/a	n/a	n/a	-1	n/a	spatialcue	s574
215.017592	1.7	1.0	71.0	n/a	attention_network_task	down	right	incongruent	71	0.425	stim	s574
217.123	0.1	n/a	n/a	double	attention_network_task	n/a	n/a	n/a	-1	n/a	doublecue	s574
217.627	1.7	1.0	89.0	n/a	attention_network_task	up	left	incongruent	89	0.478	stim	s574
219.731	0.1	n/a	n/a	double	attention_network_task	n/a	n/a	n/a	-1	n/a	doublecue	s574
220.234864	1.7	1.0	71.0	n/a	attention_network_task	down	right	congruent	71	0.397	stim	s574
222.336	0.1	n/a	n/a	spatial	attention_network_task	n/a	n/a	n/a	-1	n/a	spatialcue	s574
222.843	1.7	1.0	71.0	n/a	attention_network_task	down	right	congruent	71	0.369	stim	s574
224.946	0.1	n/a	n/a	double	attention_network_task	n/a	n/a	n/a	-1	n/a	doublecue	s574
225.450864	1.7	1.0	89.0	n/a	attention_network_task	down	left	incongruent	89	0.501	stim	s574
227.555	0.1	n/a	n/a	spatial	attention_network_task	n/a	n/a	n/a	-1	n/a	spatialcue	s574
228.058048	1.7	1.0	71.0	n/a	attention_network_task	up	right	congruent	71	0.49	stim	s574
230.163	0.1	n/a	n/a	double	attention_network_task	n/a	n/a	n/a	-1	n/a	doublecue	s574
230.666728	1.7	1.0	89.0	n/a	attention_network_task	down	left	congruent	89	0.503	stim	s574
232.771	0.1	n/a	n/a	double	attention_network_task	n/a	n/a	n/a	-1	n/a	doublecue	s574
233.274864	1.7	1.0	89.0	n/a	attention_network_task	up	left	congruent	89	0.475	stim	s574
235.379	0.1	n/a	n/a	double	attention_network_task	n/a	n/a	n/a	-1	n/a	doublecue	s574
235.883	1.7	0.0	89.0	n/a	attention_network_task	down	left	incongruent	71	0.457	stim	s574
237.987	0.1	n/a	n/a	spatial	attention_network_task	n/a	n/a	n/a	-1	n/a	spatialcue	s574
238.490864	1.7	1.0	89.0	n/a	attention_network_task	up	left	incongruent	89	0.451	stim	s574
240.595	0.1	n/a	n/a	double	attention_network_task	n/a	n/a	n/a	-1	n/a	doublecue	s574
241.099	1.7	1.0	89.0	n/a	attention_network_task	down	left	congruent	89	0.429	stim	s574
243.204	0.1	n/a	n/a	spatial	attention_network_task	n/a	n/a	n/a	-1	n/a	spatialcue	s574
243.709864	1.7	1.0	89.0	n/a	attention_network_task	down	left	incongruent	89	0.405	stim	s574
245.814	0.1	n/a	n/a	double	attention_network_task	n/a	n/a	n/a	-1	n/a	doublecue	s574
246.320728	1.7	1.0	89.0	n/a	attention_network_task	down	left	incongruent	89	0.442	stim	s574
248.425	0.1	n/a	n/a	spatial	attention_network_task	n/a	n/a	n/a	-1	n/a	spatialcue	s574
248.928728	1.7	1.0	89.0	n/a	attention_network_task	up	left	incongruent	89	0.595	stim	s574
251.035	0.1	n/a	n/a	double	attention_network_task	n/a	n/a	n/a	-1	n/a	doublecue	s574
251.541864	1.7	1.0	89.0	n/a	attention_network_task	down	left	congruent	89	0.494	stim	s574
253.647	0.1	n/a	n/a	double	attention_network_task	n/a	n/a	n/a	-1	n/a	doublecue	s574
254.151	1.7	1.0	71.0	n/a	attention_network_task	down	right	incongruent	71	0.454	stim	s574
256.255	0.1	n/a	n/a	double	attention_network_task	n/a	n/a	n/a	-1	n/a	doublecue	s574
256.758864	1.7	1.0	71.0	n/a	attention_network_task	down	right	incongruent	71	0.475	stim	s574
258.862	0.1	n/a	n/a	spatial	attention_network_task	n/a	n/a	n/a	-1	n/a	spatialcue	s574
259.371	1.7	1.0	71.0	n/a	attention_network_task	up	right	congruent	71	0.665	stim	s574
261.475	0.1	n/a	n/a	double	attention_network_task	n/a	n/a	n/a	-1	n/a	doublecue	s574
261.979728	1.7	1.0	71.0	n/a	attention_network_task	down	right	congruent	71	0.591	stim	s574
264.086	0.1	n/a	n/a	spatial	attention_network_task	n/a	n/a	n/a	-1	n/a	spatialcue	s574
264.594	1.7	1.0	71.0	n/a	attention_network_task	down	right	incongruent	71	0.591	stim	s574
266.698	0.1	n/a	n/a	spatial	attention_network_task	n/a	n/a	n/a	-1	n/a	spatialcue	s574
267.202	1.7	1.0	89.0	n/a	attention_network_task	down	left	incongruent	89	0.487	stim	s574
269.305	0.1	n/a	n/a	spatial	attention_network_task	n/a	n/a	n/a	-1	n/a	spatialcue	s574
269.809864	1.7	1.0	71.0	n/a	attention_network_task	up	right	congruent	71	0.538	stim	s574
271.914	0.1	n/a	n/a	spatial	attention_network_task	n/a	n/a	n/a	-1	n/a	spatialcue	s574
272.42172800000003	1.7	1.0	89.0	n/a	attention_network_task	up	left	congruent	89	0.461	stim	s574
274.525	0.1	n/a	n/a	double	attention_network_task	n/a	n/a	n/a	-1	n/a	doublecue	s574
275.036592	1.7	1.0	71.0	n/a	attention_network_task	up	right	incongruent	71	0.522	stim	s574
277.141	0.1	n/a	n/a	double	attention_network_task	n/a	n/a	n/a	-1	n/a	doublecue	s574
277.645	1.7	1.0	71.0	n/a	attention_network_task	up	right	congruent	71	0.486	stim	s574
279.749	0.1	n/a	n/a	double	attention_network_task	n/a	n/a	n/a	-1	n/a	doublecue	s574
280.256864	1.7	1.0	71.0	n/a	attention_network_task	up	right	congruent	71	0.491	stim	s574
282.36	0.1	n/a	n/a	spatial	attention_network_task	n/a	n/a	n/a	-1	n/a	spatialcue	s574
282.865864	1.7	1.0	89.0	n/a	attention_network_task	up	left	congruent	89	0.501	stim	s574
284.97	0.1	n/a	n/a	double	attention_network_task	n/a	n/a	n/a	-1	n/a	doublecue	s574
285.477	1.7	1.0	71.0	n/a	attention_network_task	down	right	congruent	71	0.698	stim	s574
287.581	0.1	n/a	n/a	double	attention_network_task	n/a	n/a	n/a	-1	n/a	doublecue	s574
288.08759200000003	1.7	1.0	71.0	n/a	attention_network_task	up	right	incongruent	71	0.72	stim	s574
290.192	0.1	n/a	n/a	spatial	attention_network_task	n/a	n/a	n/a	-1	n/a	spatialcue	s574
290.695456	1.7	1.0	71.0	n/a	attention_network_task	down	right	congruent	71	0.48	stim	s574
292.8	0.1	n/a	n/a	spatial	attention_network_task	n/a	n/a	n/a	-1	n/a	spatialcue	s574
293.303864	1.7	1.0	89.0	n/a	attention_network_task	up	left	congruent	89	0.51	stim	s574
295.408	0.1	n/a	n/a	spatial	attention_network_task	n/a	n/a	n/a	-1	n/a	spatialcue	s574
295.911864	1.7	1.0	71.0	n/a	attention_network_task	up	right	congruent	71	0.423	stim	s574
298.016	0.1	n/a	n/a	spatial	attention_network_task	n/a	n/a	n/a	-1	n/a	spatialcue	s574
298.526	1.7	1.0	89.0	n/a	attention_network_task	up	left	incongruent	89	0.434	stim	s574
300.63	0.1	n/a	n/a	double	attention_network_task	n/a	n/a	n/a	-1	n/a	doublecue	s574
301.139	1.7	1.0	89.0	n/a	attention_network_task	down	left	congruent	89	0.589	stim	s574
303.243	0.1	n/a	n/a	double	attention_network_task	n/a	n/a	n/a	-1	n/a	doublecue	s574
303.746864	1.7	1.0	71.0	n/a	attention_network_task	up	right	congruent	71	0.811	stim	s574
305.852	0.1	n/a	n/a	double	attention_network_task	n/a	n/a	n/a	-1	n/a	doublecue	s574
306.356	1.7	1.0	89.0	n/a	attention_network_task	down	left	congruent	89	0.496	stim	s574
308.46	0.1	n/a	n/a	double	attention_network_task	n/a	n/a	n/a	-1	n/a	doublecue	s574
308.963864	1.7	1.0	71.0	n/a	attention_network_task	down	right	congruent	71	0.467	stim	s574
311.068	0.1	n/a	n/a	double	attention_network_task	n/a	n/a	n/a	-1	n/a	doublecue	s574
311.572	1.7	1.0	71.0	n/a	attention_network_task	up	right	congruent	71	0.416	stim	s574
313.676	0.1	n/a	n/a	spatial	attention_network_task	n/a	n/a	n/a	-1	n/a	spatialcue	s574
314.179592	1.7	1.0	89.0	n/a	attention_network_task	down	left	congruent	89	0.816	stim	s574
316.284	0.1	n/a	n/a	spatial	attention_network_task	n/a	n/a	n/a	-1	n/a	spatialcue	s574
316.793	1.7	1.0	89.0	n/a	attention_network_task	down	left	incongruent	89	0.509	stim	s574
318.897	0.1	n/a	n/a	double	attention_network_task	n/a	n/a	n/a	-1	n/a	doublecue	s574
319.400184	1.7	1.0	89.0	n/a	attention_network_task	up	left	incongruent	89	1.17	stim	s574
321.505	0.1	n/a	n/a	spatial	attention_network_task	n/a	n/a	n/a	-1	n/a	spatialcue	s574
322.00832	1.7	1.0	89.0	n/a	attention_network_task	up	left	congruent	89	0.568	stim	s574
324.113	0.1	n/a	n/a	spatial	attention_network_task	n/a	n/a	n/a	-1	n/a	spatialcue	s574
324.623	1.7	1.0	89.0	n/a	attention_network_task	up	left	congruent	89	1.035	stim	s574
326.727	0.1	n/a	n/a	spatial	attention_network_task	n/a	n/a	n/a	-1	n/a	spatialcue	s574
327.230864	1.7	1.0	89.0	n/a	attention_network_task	down	left	congruent	89	0.446	stim	s574
329.336	0.1	n/a	n/a	double	attention_network_task	n/a	n/a	n/a	-1	n/a	doublecue	s574
329.838864	1.7	1.0	89.0	n/a	attention_network_task	down	left	incongruent	89	0.614	stim	s574
331.943	0.1	n/a	n/a	double	attention_network_task	n/a	n/a	n/a	-1	n/a	doublecue	s574
332.446864	1.7	1.0	71.0	n/a	attention_network_task	up	right	incongruent	71	0.513	stim	s574
334.551	0.1	n/a	n/a	double	attention_network_task	n/a	n/a	n/a	-1	n/a	doublecue	s574
335.061	1.7	1.0	89.0	n/a	attention_network_task	up	left	incongruent	89	0.571	stim	s574
337.164	0.1	n/a	n/a	spatial	attention_network_task	n/a	n/a	n/a	-1	n/a	spatialcue	s574
337.668864	1.7	1.0	71.0	n/a	attention_network_task	up	right	incongruent	71	0.886	stim	s574
339.773	0.1	n/a	n/a	spatial	attention_network_task	n/a	n/a	n/a	-1	n/a	spatialcue	s574
340.276048	1.7	1.0	71.0	n/a	attention_network_task	down	right	incongruent	71	0.534	stim	s574
342.378	0.1	n/a	n/a	double	attention_network_task	n/a	n/a	n/a	-1	n/a	doublecue	s574
342.884864	1.7	0.0	89.0	n/a	attention_network_task	down	left	incongruent	71	0.425	stim	s574
344.989	0.1	n/a	n/a	double	attention_network_task	n/a	n/a	n/a	-1	n/a	doublecue	s574
345.492592	1.7	1.0	89.0	n/a	attention_network_task	up	left	incongruent	89	0.521	stim	s574
