onset	duration	EV	action	clicked_on_loss_card	experiment_exp_id	gain_amount	gain_probability	key_press	loss_amount	loss_probability	num_cards	num_click_in_round	num_loss_cards	risk	response_time	total_cards	trial_id	worker_id
3.013	1.253	-0.3689653155774648	draw_card	1.0	columbia_card_task_fmri	12.0	0.8333333333333334	89.0	-70.0	0.1666666666666666	6.0	1.0	1.0	-1.4355104246319286	1.253	1.0	stim	s574
4.271	2.25	n/a	-1.0	n/a	columbia_card_task_fmri	n/a	n/a	-1.0	n/a	n/a	n/a	n/a	n/a	n/a	n/a	n/a	feedback	s574
6.521	0.0	n/a	-1.0	n/a	columbia_card_task_fmri	n/a	n/a	-1.0	n/a	n/a	n/a	n/a	n/a	n/a	n/a	n/a	ITI	s574
6.523	1.735	0.4643680177558691	draw_card	0.0	columbia_card_task_fmri	14.0	0.8333333333333334	89.0	-75.0	0.1666666666666666	6.0	1.0	1.0	1.1710711467837598	1.735	n/a	stim	s574
8.261	1.534	-2.5022986489107977	draw_card	0.0	columbia_card_task_fmri	14.0	0.8	89.0	-75.0	0.2	6.0	2.0	1.0	3.6009973392777823	1.534	n/a	stim	s574
9.797	2.718	-6.952298648910799	draw_card	0.0	columbia_card_task_fmri	14.0	0.75	89.0	-75.0	0.25	6.0	3.0	1.0	6.537326244363676	2.718	n/a	stim	s574
12.517	0.822	-14.368965315577466	end_round	0.0	columbia_card_task_fmri	14.0	0.6666666666666667	71.0	-75.0	0.3333333333333333	6.0	4.0	1.0	9.95242011751528	0.822	3.0	stim	s574
13.346	2.25	n/a	-1.0	n/a	columbia_card_task_fmri	n/a	n/a	-1.0	n/a	n/a	n/a	n/a	n/a	n/a	n/a	n/a	feedback	s574
15.596	0.136	n/a	-1.0	n/a	columbia_card_task_fmri	n/a	n/a	-1.0	n/a	n/a	n/a	n/a	n/a	n/a	n/a	n/a	ITI	s574
15.734	0.945	2.131034684422535	draw_card	0.0	columbia_card_task_fmri	15.0	0.8333333333333334	89.0	-70.0	0.1666666666666666	6.0	1.0	1.0	-0.3184476339887609	0.945	n/a	stim	s574
16.681	0.728	-0.7022986489107987	draw_card	0.0	columbia_card_task_fmri	15.0	0.8	89.0	-70.0	0.2	6.0	2.0	1.0	2.0021092179002267	0.728	n/a	stim	s574
17.411	0.83	-4.952298648910799	draw_card	0.0	columbia_card_task_fmri	15.0	0.75	89.0	-70.0	0.25	6.0	3.0	1.0	4.806302703398607	0.83	n/a	stim	s574
18.242	2.64	-12.03563198224413	draw_card	0.0	columbia_card_task_fmri	15.0	0.6666666666666667	89.0	-70.0	0.3333333333333333	6.0	4.0	1.0	8.067745770232982	2.64	n/a	stim	s574
20.884	0.526	-26.2022986489108	end_round	0.0	columbia_card_task_fmri	15.0	0.5	71.0	-70.0	0.5	6.0	5.0	1.0	10.49716058902861	0.526	4.0	stim	s574
21.414	2.25	n/a	-1.0	n/a	columbia_card_task_fmri	n/a	n/a	-1.0	n/a	n/a	n/a	n/a	n/a	n/a	n/a	n/a	feedback	s574
23.664	0.34	n/a	-1.0	n/a	columbia_card_task_fmri	n/a	n/a	-1.0	n/a	n/a	n/a	n/a	n/a	n/a	n/a	n/a	ITI	s574
24.005	0.584	2.964368017755869	draw_card	0.0	columbia_card_task_fmri	17.0	0.8333333333333334	89.0	-75.0	0.1666666666666666	6.0	1.0	1.0	2.2882782469392424	0.584	n/a	stim	s574
24.591	0.652	-0.1022986489107973	draw_card	0.0	columbia_card_task_fmri	17.0	0.8	89.0	-75.0	0.2	6.0	2.0	1.0	4.800226818514403	0.652	n/a	stim	s574
25.243	0.952	-4.702298648910799	draw_card	1.0	columbia_card_task_fmri	17.0	0.75	89.0	-75.0	0.25	6.0	3.0	1.0	7.835652472869995	0.952	3.0	stim	s574
26.2	2.25	n/a	-1.0	n/a	columbia_card_task_fmri	n/a	n/a	-1.0	n/a	n/a	n/a	n/a	n/a	n/a	n/a	n/a	feedback	s574
28.45	0.408	n/a	-1.0	n/a	columbia_card_task_fmri	n/a	n/a	-1.0	n/a	n/a	n/a	n/a	n/a	n/a	n/a	n/a	ITI	s574
28.86	0.467	4.297701351089201	draw_card	1.0	columbia_card_task_fmri	24.0	0.75	89.0	-60.0	0.25	8.0	1.0	2.0	4.373562090615778	0.467	1.0	stim	s574
29.333	2.25	n/a	-1.0	n/a	columbia_card_task_fmri	n/a	n/a	-1.0	n/a	n/a	n/a	n/a	n/a	n/a	n/a	n/a	feedback	s574
31.583	0.136	n/a	-1.0	n/a	columbia_card_task_fmri	n/a	n/a	-1.0	n/a	n/a	n/a	n/a	n/a	n/a	n/a	n/a	ITI	s574
31.721	0.505	4.297701351089201	draw_card	1.0	columbia_card_task_fmri	29.0	0.75	89.0	-75.0	0.25	8.0	1.0	2.0	13.029367804233274	0.505	1.0	stim	s574
32.232	2.25	n/a	-1.0	n/a	columbia_card_task_fmri	n/a	n/a	-1.0	n/a	n/a	n/a	n/a	n/a	n/a	n/a	n/a	feedback	s574
34.482	0.136	n/a	-1.0	n/a	columbia_card_task_fmri	n/a	n/a	-1.0	n/a	n/a	n/a	n/a	n/a	n/a	n/a	n/a	ITI	s574
34.62	0.829	0.0754791288669816	draw_card	0.0	columbia_card_task_fmri	17.0	0.7777777777777778	89.0	-65.0	0.2222222222222222	9.0	1.0	2.0	2.0926996230677446	0.829	n/a	stim	s574
35.451	0.466	-2.2022986489107987	draw_card	0.0	columbia_card_task_fmri	17.0	0.75	89.0	-65.0	0.25	9.0	2.0	2.0	3.5081007544808145	0.466	n/a	stim	s574
35.919	0.659	-5.130870077482226	draw_card	0.0	columbia_card_task_fmri	17.0	0.7142857142857143	89.0	-65.0	0.2857142857142857	9.0	3.0	2.0	5.043900374455681	0.659	n/a	stim	s574
36.58	0.93	-9.03563198224413	draw_card	0.0	columbia_card_task_fmri	17.0	0.6666666666666667	89.0	-65.0	0.3333333333333333	9.0	4.0	2.0	6.654300382800976	0.93	n/a	stim	s574
37.512	1.815	-14.5022986489108	end_round	0.0	columbia_card_task_fmri	17.0	0.6	71.0	-65.0	0.4	9.0	5.0	2.0	8.169939840569128	1.815	4.0	stim	s574
39.334	2.25	n/a	-1.0	n/a	columbia_card_task_fmri	n/a	n/a	-1.0	n/a	n/a	n/a	n/a	n/a	n/a	n/a	n/a	feedback	s574
41.584	0.0	n/a	-1.0	n/a	columbia_card_task_fmri	n/a	n/a	-1.0	n/a	n/a	n/a	n/a	n/a	n/a	n/a	n/a	ITI	s574
41.586	0.659	4.397701351089201	draw_card	0.0	columbia_card_task_fmri	14.0	0.9	89.0	-95.0	0.1	10.0	1.0	1.0	0.7030926467131735	0.659	n/a	stim	s574
42.246	0.447	3.1865902399780888	draw_card	0.0	columbia_card_task_fmri	14.0	0.8888888888888888	89.0	-95.0	0.1111111111111111	10.0	2.0	1.0	2.2573199560030237	0.447	n/a	stim	s574
42.694	0.399	1.6727013510892013	draw_card	0.0	columbia_card_task_fmri	14.0	0.875	89.0	-95.0	0.125	10.0	3.0	1.0	4.049065062253206	0.399	n/a	stim	s574
43.094	0.527	-0.2737272203393699	draw_card	0.0	columbia_card_task_fmri	14.0	0.8571428571428572	89.0	-95.0	0.1428571428571428	10.0	4.0	1.0	6.141477031038427	0.527	n/a	stim	s574
43.622	0.41	-2.868965315577463	draw_card	1.0	columbia_card_task_fmri	14.0	0.8333333333333334	89.0	-95.0	0.1666666666666666	10.0	5.0	1.0	8.619977495924523	0.41	5.0	stim	s574
44.039	2.25	n/a	-1.0	n/a	columbia_card_task_fmri	n/a	n/a	-1.0	n/a	n/a	n/a	n/a	n/a	n/a	n/a	n/a	feedback	s574
46.289	0.068	n/a	-1.0	n/a	columbia_card_task_fmri	n/a	n/a	-1.0	n/a	n/a	n/a	n/a	n/a	n/a	n/a	n/a	ITI	s574
46.358	0.528	0.2977013510892012	draw_card	0.0	columbia_card_task_fmri	15.0	0.8	89.0	-65.0	0.2	10.0	1.0	2.0	0.0036552417949451	0.528	n/a	stim	s574
46.888	0.396	-1.4800764266885755	draw_card	0.0	columbia_card_task_fmri	15.0	0.7777777777777778	89.0	-65.0	0.2222222222222222	10.0	2.0	2.0	1.2618369984607227	0.396	n/a	stim	s574
47.287	0.772	-3.702298648910799	draw_card	1.0	columbia_card_task_fmri	15.0	0.75	89.0	-65.0	0.25	10.0	3.0	2.0	2.6426675927924634	0.772	3.0	stim	s574
48.064	2.25	n/a	-1.0	n/a	columbia_card_task_fmri	n/a	n/a	-1.0	n/a	n/a	n/a	n/a	n/a	n/a	n/a	n/a	feedback	s574
50.314	0.0	n/a	-1.0	n/a	columbia_card_task_fmri	n/a	n/a	-1.0	n/a	n/a	n/a	n/a	n/a	n/a	n/a	n/a	ITI	s574
50.316	0.362	1.897701351089203	draw_card	0.0	columbia_card_task_fmri	17.0	0.8	89.0	-65.0	0.2	10.0	1.0	2.0	0.8030142339293391	0.362	n/a	stim	s574
50.679	0.358	0.0754791288669816	draw_card	1.0	columbia_card_task_fmri	17.0	0.7777777777777778	89.0	-65.0	0.2222222222222222	10.0	2.0	2.0	2.0926996230677446	0.358	2.0	stim	s574
51.041	2.25	n/a	-1.0	n/a	columbia_card_task_fmri	n/a	n/a	-1.0	n/a	n/a	n/a	n/a	n/a	n/a	n/a	n/a	feedback	s574
53.291	0.0	n/a	-1.0	n/a	columbia_card_task_fmri	n/a	n/a	-1.0	n/a	n/a	n/a	n/a	n/a	n/a	n/a	n/a	ITI	s574
53.293	0.36	0.4643680177558691	draw_card	0.0	columbia_card_task_fmri	13.0	0.8333333333333334	89.0	-70.0	0.1666666666666666	12.0	1.0	2.0	-1.0631639516302158	0.36	n/a	stim	s574
53.655	1.638	-0.7932077398198922	draw_card	0.0	columbia_card_task_fmri	13.0	0.8181818181818181	89.0	-70.0	0.1818181818181818	12.0	2.0	2.0	0.0162973122074845	1.638	n/a	stim	s574
55.295	0.759	-2.3022986489107984	draw_card	0.0	columbia_card_task_fmri	13.0	0.8	89.0	-70.0	0.2	12.0	3.0	2.0	1.2027053010011102	0.759	n/a	stim	s574
56.055	0.479	-4.146743093355243	draw_card	0.0	columbia_card_task_fmri	13.0	0.7777777777777778	89.0	-70.0	0.2222222222222222	12.0	4.0	2.0	2.5081420702589767	0.479	n/a	stim	s574
56.535	0.478	-6.452298648910799	draw_card	0.0	columbia_card_task_fmri	13.0	0.75	89.0	-70.0	0.25	12.0	5.0	2.0	3.940828027869351	0.478	n/a	stim	s574
57.015	1.172	-9.416584363196511	draw_card	1.0	columbia_card_task_fmri	13.0	0.7142857142857143	89.0	-70.0	0.2857142857142857	12.0	6.0	2.0	5.495380716578595	1.172	6.0	stim	s574
58.191	2.25	n/a	-1.0	n/a	columbia_card_task_fmri	n/a	n/a	-1.0	n/a	n/a	n/a	n/a	n/a	n/a	n/a	n/a	feedback	s574
60.441	0.136	n/a	-1.0	n/a	columbia_card_task_fmri	n/a	n/a	-1.0	n/a	n/a	n/a	n/a	n/a	n/a	n/a	n/a	ITI	s574
60.579	0.18	0.4643680177558691	draw_card	0.0	columbia_card_task_fmri	15.0	0.8333333333333334	89.0	-80.0	0.1666666666666666	12.0	1.0	2.0	3.405537517330181	0.18	n/a	stim	s574
60.761	0.342	-0.975025921638074	draw_card	0.0	columbia_card_task_fmri	15.0	0.8181818181818181	89.0	-80.0	0.1818181818181818	12.0	2.0	2.0	4.64131377475978	0.342	n/a	stim	s574
61.105	0.391	-2.7022986489107987	draw_card	0.0	columbia_card_task_fmri	15.0	0.8	89.0	-80.0	0.2	12.0	3.0	2.0	5.999504918284679	0.391	n/a	stim	s574
61.498	0.395	-4.813409760021911	draw_card	0.0	columbia_card_task_fmri	15.0	0.7777777777777778	89.0	-80.0	0.2222222222222222	12.0	4.0	2.0	7.493939138097239	0.395	n/a	stim	s574
61.895	2.112	-7.452298648910799	draw_card	0.0	columbia_card_task_fmri	15.0	0.75	89.0	-80.0	0.25	12.0	5.0	2.0	9.134023627395791	2.112	n/a	stim	s574
64.009	0.508	-10.845155791767937	end_round	0.0	columbia_card_task_fmri	15.0	0.7142857142857143	71.0	-80.0	0.2857142857142857	12.0	6.0	2.0	10.913593778463955	0.508	5.0	stim	s574
64.524	2.25	n/a	-1.0	n/a	columbia_card_task_fmri	n/a	n/a	-1.0	n/a	n/a	n/a	n/a	n/a	n/a	n/a	n/a	feedback	s574
66.774	0.136	n/a	-1.0	n/a	columbia_card_task_fmri	n/a	n/a	-1.0	n/a	n/a	n/a	n/a	n/a	n/a	n/a	n/a	ITI	s574
66.911	0.701	-0.5022986489107977	draw_card	1.0	columbia_card_task_fmri	14.0	0.8	89.0	-65.0	0.2	15.0	1.0	3.0	-0.3960120983564685	0.701	1.0	stim	s574
67.618	2.25	n/a	-1.0	n/a	columbia_card_task_fmri	n/a	n/a	-1.0	n/a	n/a	n/a	n/a	n/a	n/a	n/a	n/a	feedback	s574
69.868	0.476	n/a	-1.0	n/a	columbia_card_task_fmri	n/a	n/a	-1.0	n/a	n/a	n/a	n/a	n/a	n/a	n/a	n/a	ITI	s574
70.346	0.356	-0.5772986489107987	draw_card	0.0	columbia_card_task_fmri	1.0	0.9375	89.0	-45.0	0.0625	16.0	1.0	1.0	-20.812454937997583	0.356	n/a	stim	s574
70.705	0.451	-0.7689653155774652	draw_card	0.0	columbia_card_task_fmri	1.0	0.9333333333333332	89.0	-45.0	0.0666666666666666	16.0	2.0	1.0	-20.475082176300976	0.451	n/a	stim	s574
71.157	0.408	-0.9880129346250844	draw_card	0.0	columbia_card_task_fmri	1.0	0.9285714285714286	89.0	-45.0	0.0714285714285714	16.0	3.0	1.0	-20.10497231129599	0.408	n/a	stim	s574
71.567	2.82	-1.240760187372337	draw_card	0.0	columbia_card_task_fmri	1.0	0.9230769230769232	89.0	-45.0	0.0769230769230769	16.0	4.0	1.0	-19.696554675056117	2.82	n/a	stim	s574
74.389	1.126	-1.5356319822441322	draw_card	0.0	columbia_card_task_fmri	1.0	0.9166666666666666	89.0	-45.0	0.0833333333333333	16.0	5.0	1.0	-19.242861388584004	1.126	n/a	stim	s574
75.518	1.191	-1.8841168307289804	draw_card	0.0	columbia_card_task_fmri	1.0	0.9090909090909092	89.0	-45.0	0.0909090909090909	16.0	6.0	1.0	-18.73505637771028	1.191	n/a	stim	s574
76.711	0.619	-2.302298648910799	draw_card	1.0	columbia_card_task_fmri	1.0	0.9	89.0	-45.0	0.1	16.0	7.0	1.0	-18.161765657032763	0.619	7.0	stim	s574
77.336	2.25	n/a	-1.0	n/a	columbia_card_task_fmri	n/a	n/a	-1.0	n/a	n/a	n/a	n/a	n/a	n/a	n/a	n/a	feedback	s574
79.586	0.204	n/a	-1.0	n/a	columbia_card_task_fmri	n/a	n/a	-1.0	n/a	n/a	n/a	n/a	n/a	n/a	n/a	n/a	ITI	s574
79.793	0.384	0.3602013510892012	draw_card	0.0	columbia_card_task_fmri	15.0	0.8125	89.0	-70.0	0.1875	16.0	1.0	3.0	1.1792750719357483	0.384	n/a	stim	s574
80.18	0.204	-0.7022986489107987	draw_card	0.0	columbia_card_task_fmri	15.0	0.8	89.0	-70.0	0.2	16.0	2.0	3.0	2.0021092179002267	0.204	n/a	stim	s574
80.386	0.214	-1.916584363196514	draw_card	0.0	columbia_card_task_fmri	15.0	0.7857142857142857	89.0	-70.0	0.2142857142857142	16.0	3.0	3.0	2.879188445973682	0.214	n/a	stim	s574
80.602	0.238	-3.3176832642954155	draw_card	1.0	columbia_card_task_fmri	15.0	0.7692307692307692	89.0	-70.0	0.2307692307692307	16.0	4.0	3.0	3.813485809674333	0.238	4.0	stim	s574
80.846	2.25	n/a	-1.0	n/a	columbia_card_task_fmri	n/a	n/a	-1.0	n/a	n/a	n/a	n/a	n/a	n/a	n/a	n/a	feedback	s574
83.096	0.068	n/a	-1.0	n/a	columbia_card_task_fmri	n/a	n/a	-1.0	n/a	n/a	n/a	n/a	n/a	n/a	n/a	n/a	ITI	s574
83.167	2.235	7.297701351089201	draw_card	0.0	columbia_card_task_fmri	30.0	0.7	89.0	-50.0	0.3	10.0	1.0	3.0	4.660919296449691	2.235	n/a	stim	s574
85.404	1.691	4.6310346844225405	draw_card	0.0	columbia_card_task_fmri	30.0	0.6666666666666667	89.0	-50.0	0.3333333333333333	10.0	2.0	3.0	5.712035437528492	1.691	n/a	stim	s574
87.097	1.029	1.2977013510892013	draw_card	1.0	columbia_card_task_fmri	30.0	0.625	89.0	-50.0	0.375	10.0	3.0	3.0	6.728921183040619	1.029	3.0	stim	s574
88.13	2.25	n/a	-1.0	n/a	columbia_card_task_fmri	n/a	n/a	-1.0	n/a	n/a	n/a	n/a	n/a	n/a	n/a	n/a	feedback	s574
90.38	0.068	n/a	-1.0	n/a	columbia_card_task_fmri	n/a	n/a	-1.0	n/a	n/a	n/a	n/a	n/a	n/a	n/a	n/a	ITI	s574
90.45	0.481	6.697701351089202	draw_card	0.0	columbia_card_task_fmri	17.0	0.8666666666666667	89.0	-70.0	0.1333333333333333	15.0	1.0	2.0	-2.4198762717054905	0.481	n/a	stim	s574
90.934	0.361	5.869129922517774	draw_card	0.0	columbia_card_task_fmri	17.0	0.8571428571428572	89.0	-70.0	0.1428571428571428	15.0	2.0	2.0	-1.5513430978286458	0.361	n/a	stim	s574
91.296	0.441	4.913085966473816	draw_card	0.0	columbia_card_task_fmri	17.0	0.8461538461538461	89.0	-70.0	0.1538461538461538	15.0	3.0	2.0	-0.6061283413905123	0.441	n/a	stim	s574
91.74	0.434	3.797701351089203	draw_card	0.0	columbia_card_task_fmri	17.0	0.8333333333333334	89.0	-70.0	0.1666666666666666	15.0	4.0	2.0	0.4262980578658428	0.434	n/a	stim	s574
92.177	0.563	2.479519532907381	draw_card	0.0	columbia_card_task_fmri	17.0	0.8181818181818181	89.0	-70.0	0.1818181818181818	15.0	5.0	2.0	1.5578678523117375	0.563	n/a	stim	s574
92.743	1.465	0.8977013510892027	end_round	0.0	columbia_card_task_fmri	17.0	0.8	71.0	-70.0	0.2	15.0	6.0	2.0	2.8015405116914422	1.465	5.0	stim	s574
94.212	2.25	n/a	-1.0	n/a	columbia_card_task_fmri	n/a	n/a	-1.0	n/a	n/a	n/a	n/a	n/a	n/a	n/a	n/a	feedback	s574
96.462	0.34	n/a	-1.0	n/a	columbia_card_task_fmri	n/a	n/a	-1.0	n/a	n/a	n/a	n/a	n/a	n/a	n/a	n/a	ITI	s574
96.804	0.652	1.9227013510892013	draw_card	0.0	columbia_card_task_fmri	7.0	0.9375	89.0	-95.0	0.0625	16.0	1.0	1.0	-7.298298498897704	0.652	n/a	stim	s574
97.458	0.43	1.4977013510892014	draw_card	0.0	columbia_card_task_fmri	7.0	0.9333333333333332	89.0	-95.0	0.0666666666666666	16.0	2.0	1.0	-6.54630436695594	0.43	n/a	stim	s574
97.89	1.367	1.0119870653749157	draw_card	0.0	columbia_card_task_fmri	7.0	0.9285714285714286	89.0	-95.0	0.0714285714285714	16.0	3.0	1.0	-5.7215964770060666	1.367	n/a	stim	s574
99.259	1.177	0.4515475049353545	draw_card	0.0	columbia_card_task_fmri	7.0	0.9230769230769232	89.0	-95.0	0.0769230769230769	16.0	4.0	1.0	-4.811810988629148	1.177	n/a	stim	s574
100.438	1.991	-0.2022986489107987	draw_card	0.0	columbia_card_task_fmri	7.0	0.9166666666666666	89.0	-95.0	0.0833333333333333	16.0	5.0	1.0	-3.8014841162321247	1.991	n/a	stim	s574
102.431	1.707	-0.975025921638072	draw_card	1.0	columbia_card_task_fmri	7.0	0.9090909090909092	89.0	-95.0	0.0909090909090909	16.0	6.0	1.0	-2.671007429357431	1.707	6.0	stim	s574
104.146	2.25	n/a	-1.0	n/a	columbia_card_task_fmri	n/a	n/a	-1.0	n/a	n/a	n/a	n/a	n/a	n/a	n/a	n/a	feedback	s574
106.396	0.476	n/a	-1.0	n/a	columbia_card_task_fmri	n/a	n/a	-1.0	n/a	n/a	n/a	n/a	n/a	n/a	n/a	n/a	ITI	s574
106.875	0.904	3.4852013510892013	draw_card	0.0	columbia_card_task_fmri	9.0	0.9375	89.0	-100.0	0.0625	16.0	1.0	1.0	-5.606054148220572	0.904	n/a	stim	s574
107.781	0.43	3.0310346844225347	draw_card	0.0	columbia_card_task_fmri	9.0	0.9333333333333332	89.0	-100.0	0.0666666666666666	16.0	2.0	1.0	-4.802318998087824	0.43	n/a	stim	s574
108.213	0.569	2.511987065374917	draw_card	0.0	columbia_card_task_fmri	9.0	0.9285714285714286	89.0	-100.0	0.0714285714285714	16.0	3.0	1.0	-3.9208757979554743	0.569	n/a	stim	s574
108.785	0.748	1.913085966473817	draw_card	0.0	columbia_card_task_fmri	9.0	0.9230769230769232	89.0	-100.0	0.0769230769230769	16.0	4.0	1.0	-2.948511820083553	0.748	n/a	stim	s574
109.536	0.16	1.2143680177558691	end_round	0.0	columbia_card_task_fmri	9.0	0.9166666666666666	71.0	-100.0	0.0833333333333333	16.0	5.0	1.0	-1.8687015899465005	0.16	4.0	stim	s574
109.699	2.25	n/a	-1.0	n/a	columbia_card_task_fmri	n/a	n/a	-1.0	n/a	n/a	n/a	n/a	n/a	n/a	n/a	n/a	feedback	s574
111.949	0.272	n/a	-1.0	n/a	columbia_card_task_fmri	n/a	n/a	-1.0	n/a	n/a	n/a	n/a	n/a	n/a	n/a	n/a	ITI	s574
112.225	0.88	4.422701351089201	draw_card	0.0	columbia_card_task_fmri	15.0	0.875	89.0	-80.0	0.125	16.0	1.0	2.0	-0.5775613717959018	0.88	n/a	stim	s574
113.107	0.55	3.631034684422535	draw_card	0.0	columbia_card_task_fmri	15.0	0.8666666666666667	89.0	-80.0	0.1333333333333333	16.0	2.0	2.0	0.2972064067087103	0.55	n/a	stim	s574
113.66	0.414	2.726272779660632	draw_card	0.0	columbia_card_task_fmri	15.0	0.8571428571428572	89.0	-80.0	0.1428571428571428	16.0	3.0	2.0	1.245747556255388	0.414	n/a	stim	s574
114.077	1.261	1.6823167357045845	draw_card	0.0	columbia_card_task_fmri	15.0	0.8461538461538461	89.0	-80.0	0.1538461538461538	16.0	4.0	2.0	2.2780251034637686	1.261	n/a	stim	s574
115.34	0.908	0.4643680177558691	draw_card	0.0	columbia_card_task_fmri	15.0	0.8333333333333334	89.0	-80.0	0.1666666666666666	16.0	5.0	2.0	3.405537517330181	0.908	n/a	stim	s574
116.25	1.295	-0.975025921638074	draw_card	0.0	columbia_card_task_fmri	15.0	0.8181818181818181	89.0	-80.0	0.1818181818181818	16.0	6.0	2.0	4.64131377475978	1.295	n/a	stim	s574
117.548	0.398	-2.7022986489107987	end_round	0.0	columbia_card_task_fmri	15.0	0.8	71.0	-80.0	0.2	16.0	7.0	2.0	5.999504918284679	0.398	6.0	stim	s574
117.952	2.25	n/a	-1.0	n/a	columbia_card_task_fmri	n/a	n/a	-1.0	n/a	n/a	n/a	n/a	n/a	n/a	n/a	n/a	feedback	s574
120.202	0.884	n/a	-1.0	n/a	columbia_card_task_fmri	n/a	n/a	-1.0	n/a	n/a	n/a	n/a	n/a	n/a	n/a	n/a	ITI	s574
121.087	0.838	6.547701351089201	draw_card	1.0	columbia_card_task_fmri	16.0	0.875	89.0	-70.0	0.125	16.0	1.0	2.0	-3.551230903099576	0.838	1.0	stim	s574
121.933	2.25	n/a	-1.0	n/a	columbia_card_task_fmri	n/a	n/a	-1.0	n/a	n/a	n/a	n/a	n/a	n/a	n/a	n/a	feedback	s574
124.183	0.136	n/a	-1.0	n/a	columbia_card_task_fmri	n/a	n/a	-1.0	n/a	n/a	n/a	n/a	n/a	n/a	n/a	n/a	ITI	s574
124.322	0.135	7.860201351089201	draw_card	0.0	columbia_card_task_fmri	30.0	0.6875	89.0	-45.0	0.3125	16.0	1.0	5.0	2.7649963463384424	0.135	n/a	stim	s574
124.46	0.312	6.297701351089205	draw_card	1.0	columbia_card_task_fmri	30.0	0.6666666666666667	89.0	-45.0	0.3333333333333333	16.0	2.0	5.0	3.356499908339103	0.312	2.0	stim	s574
124.775	2.25	n/a	-1.0	n/a	columbia_card_task_fmri	n/a	n/a	-1.0	n/a	n/a	n/a	n/a	n/a	n/a	n/a	n/a	feedback	s574
127.025	0.136	n/a	-1.0	n/a	columbia_card_task_fmri	n/a	n/a	-1.0	n/a	n/a	n/a	n/a	n/a	n/a	n/a	n/a	ITI	s574
127.163	1.387	-0.3689653155774648	draw_card	1.0	columbia_card_task_fmri	13.0	0.8333333333333334	89.0	-75.0	0.1666666666666666	6.0	1.0	1.0	0.7986812942566104	1.387	1.0	stim	s574
128.558	2.25	n/a	-1.0	n/a	columbia_card_task_fmri	n/a	n/a	-1.0	n/a	n/a	n/a	n/a	n/a	n/a	n/a	n/a	feedback	s574
130.808	0.068	n/a	-1.0	n/a	columbia_card_task_fmri	n/a	n/a	-1.0	n/a	n/a	n/a	n/a	n/a	n/a	n/a	n/a	ITI	s574
130.881	0.601	1.297701351089203	draw_card	0.0	columbia_card_task_fmri	14.0	0.8333333333333334	89.0	-70.0	0.1666666666666666	6.0	1.0	1.0	-0.6908095954979778	0.601	n/a	stim	s574
131.485	0.463	-1.5022986489107977	draw_card	0.0	columbia_card_task_fmri	14.0	0.8	89.0	-70.0	0.2	6.0	2.0	1.0	1.6024037153013708	0.463	n/a	stim	s574
131.949	0.381	-5.702298648910799	draw_card	0.0	columbia_card_task_fmri	14.0	0.75	89.0	-70.0	0.25	6.0	3.0	1.0	4.373562090615778	0.381	n/a	stim	s574
132.334	0.389	-12.702298648910798	end_round	0.0	columbia_card_task_fmri	14.0	0.6666666666666667	71.0	-70.0	0.3333333333333333	6.0	4.0	1.0	7.596591216055742	0.389	3.0	stim	s574
132.729	2.25	n/a	-1.0	n/a	columbia_card_task_fmri	n/a	n/a	-1.0	n/a	n/a	n/a	n/a	n/a	n/a	n/a	n/a	feedback	s574
134.979	0.068	n/a	-1.0	n/a	columbia_card_task_fmri	n/a	n/a	-1.0	n/a	n/a	n/a	n/a	n/a	n/a	n/a	n/a	ITI	s574
135.05	0.419	1.297701351089203	draw_card	1.0	columbia_card_task_fmri	16.0	0.8333333333333334	89.0	-80.0	0.1666666666666666	6.0	1.0	1.0	3.777968023309292	0.419	1.0	stim	s574
135.472	2.25	n/a	-1.0	n/a	columbia_card_task_fmri	n/a	n/a	-1.0	n/a	n/a	n/a	n/a	n/a	n/a	n/a	n/a	feedback	s574
137.722	0.612	n/a	-1.0	n/a	columbia_card_task_fmri	n/a	n/a	-1.0	n/a	n/a	n/a	n/a	n/a	n/a	n/a	n/a	ITI	s574
138.337	3.661	3.797701351089203	end_round	0.0	columbia_card_task_fmri	17.0	0.8333333333333334	71.0	-70.0	0.1666666666666666	6.0	1.0	1.0	0.4262980578658428	3.661	0.0	stim	s574
142.003	2.25	n/a	-1.0	n/a	columbia_card_task_fmri	n/a	n/a	-1.0	n/a	n/a	n/a	n/a	n/a	n/a	n/a	n/a	feedback	s574
144.253	0.476	n/a	-1.0	n/a	columbia_card_task_fmri	n/a	n/a	-1.0	n/a	n/a	n/a	n/a	n/a	n/a	n/a	n/a	ITI	s574
144.732	1.216	3.797701351089201	draw_card	1.0	columbia_card_task_fmri	25.0	0.75	89.0	-65.0	0.25	8.0	1.0	2.0	6.970096385067052	1.216	1.0	stim	s574
145.952	2.25	n/a	-1.0	n/a	columbia_card_task_fmri	n/a	n/a	-1.0	n/a	n/a	n/a	n/a	n/a	n/a	n/a	n/a	feedback	s574
148.202	0.0	n/a	-1.0	n/a	columbia_card_task_fmri	n/a	n/a	-1.0	n/a	n/a	n/a	n/a	n/a	n/a	n/a	n/a	ITI	s574
148.205	1.762	3.797701351089201	end_round	0.0	columbia_card_task_fmri	30.0	0.75	71.0	-80.0	0.25	8.0	1.0	2.0	15.62642474800814	1.762	0.0	stim	s574
149.974	2.25	n/a	-1.0	n/a	columbia_card_task_fmri	n/a	n/a	-1.0	n/a	n/a	n/a	n/a	n/a	n/a	n/a	n/a	feedback	s574
152.224	0.068	n/a	-1.0	n/a	columbia_card_task_fmri	n/a	n/a	-1.0	n/a	n/a	n/a	n/a	n/a	n/a	n/a	n/a	ITI	s574
152.295	0.954	3.4977013510892023	draw_card	0.0	columbia_card_task_fmri	13.0	0.9	89.0	-95.0	0.1	10.0	1.0	1.0	0.4033307857776407	0.954	n/a	stim	s574
153.252	0.538	2.2977013510892013	draw_card	0.0	columbia_card_task_fmri	13.0	0.8888888888888888	89.0	-95.0	0.1111111111111111	10.0	2.0	1.0	1.94327762565424	0.538	n/a	stim	s574
153.794	0.579	0.7977013510892013	draw_card	0.0	columbia_card_task_fmri	13.0	0.875	89.0	-95.0	0.125	10.0	3.0	1.0	3.718562213387948	0.579	n/a	stim	s574
154.375	0.739	-1.1308700774822258	draw_card	0.0	columbia_card_task_fmri	13.0	0.8571428571428572	89.0	-95.0	0.1428571428571428	10.0	4.0	1.0	5.791754151072425	0.739	n/a	stim	s574
155.117	0.563	-3.702298648910797	draw_card	0.0	columbia_card_task_fmri	13.0	0.8333333333333334	89.0	-95.0	0.1666666666666666	10.0	5.0	1.0	8.247491278287505	0.563	n/a	stim	s574
155.683	0.549	-7.302298648910798	end_round	0.0	columbia_card_task_fmri	13.0	0.8	71.0	-95.0	0.2	10.0	6.0	1.0	11.196839780267515	0.549	5.0	stim	s574
156.236	2.25	n/a	-1.0	n/a	columbia_card_task_fmri	n/a	n/a	-1.0	n/a	n/a	n/a	n/a	n/a	n/a	n/a	n/a	feedback	s574
158.486	0.204	n/a	-1.0	n/a	columbia_card_task_fmri	n/a	n/a	-1.0	n/a	n/a	n/a	n/a	n/a	n/a	n/a	n/a	ITI	s574
158.693	0.438	4.897701351089201	draw_card	0.0	columbia_card_task_fmri	14.0	0.9	89.0	-90.0	0.1	10.0	1.0	1.0	-0.7956709196793987	0.438	n/a	stim	s574
159.134	0.302	3.742145795533644	draw_card	0.0	columbia_card_task_fmri	14.0	0.8888888888888888	89.0	-90.0	0.1111111111111111	10.0	2.0	1.0	0.6871519752531654	0.302	n/a	stim	s574
159.439	0.174	2.2977013510892013	draw_card	0.0	columbia_card_task_fmri	14.0	0.875	89.0	-90.0	0.125	10.0	3.0	1.0	2.396592325810694	0.174	n/a	stim	s574
159.616	0.353	0.4405584939463454	draw_card	0.0	columbia_card_task_fmri	14.0	0.8571428571428572	89.0	-90.0	0.1428571428571428	10.0	4.0	1.0	4.392901869089499	0.353	n/a	stim	s574
159.972	0.344	-2.035631982244131	draw_card	1.0	columbia_card_task_fmri	14.0	0.8333333333333334	89.0	-90.0	0.1666666666666666	10.0	5.0	1.0	6.75758325812086	0.344	5.0	stim	s574
160.32	2.25	n/a	-1.0	n/a	columbia_card_task_fmri	n/a	n/a	-1.0	n/a	n/a	n/a	n/a	n/a	n/a	n/a	n/a	feedback	s574
162.57	0.272	n/a	-1.0	n/a	columbia_card_task_fmri	n/a	n/a	-1.0	n/a	n/a	n/a	n/a	n/a	n/a	n/a	n/a	ITI	s574
162.846	0.398	0.0977013510892019	draw_card	0.0	columbia_card_task_fmri	16.0	0.8	89.0	-70.0	0.2	10.0	1.0	2.0	2.401821561889122	0.398	n/a	stim	s574
163.247	0.199	-1.8134097600219092	draw_card	0.0	columbia_card_task_fmri	16.0	0.7777777777777778	89.0	-70.0	0.2222222222222222	10.0	2.0	2.0	3.754510848224463	0.199	n/a	stim	s574
163.448	0.238	-4.202298648910799	draw_card	0.0	columbia_card_task_fmri	16.0	0.75	89.0	-70.0	0.25	10.0	3.0	2.0	5.239049638010286	0.238	n/a	stim	s574
163.689	0.389	-7.27372722033937	end_round	0.0	columbia_card_task_fmri	16.0	0.7142857142857143	71.0	-70.0	0.2857142857142857	10.0	4.0	2.0	6.84985988817715	0.389	3.0	stim	s574
164.086	2.25	n/a	-1.0	n/a	columbia_card_task_fmri	n/a	n/a	-1.0	n/a	n/a	n/a	n/a	n/a	n/a	n/a	n/a	feedback	s574
166.336	0.068	n/a	-1.0	n/a	columbia_card_task_fmri	n/a	n/a	-1.0	n/a	n/a	n/a	n/a	n/a	n/a	n/a	n/a	ITI	s574
166.406	1.537	-0.6189653155774648	draw_card	0.0	columbia_card_task_fmri	7.0	0.9166666666666666	89.0	-100.0	0.0833333333333333	12.0	1.0	1.0	-2.420950702648369	1.537	n/a	stim	s574
167.946	0.206	-1.4295713761835271	draw_card	0.0	columbia_card_task_fmri	7.0	0.9090909090909092	89.0	-100.0	0.0909090909090909	12.0	2.0	1.0	-1.2349484478284296	0.206	n/a	stim	s574
168.155	0.504	-2.402298648910799	draw_card	0.0	columbia_card_task_fmri	7.0	0.9	89.0	-100.0	0.1	12.0	3.0	1.0	0.1035733706417332	0.504	n/a	stim	s574
168.663	0.149	-3.591187537799688	draw_card	0.0	columbia_card_task_fmri	7.0	0.8888888888888888	89.0	-100.0	0.1111111111111111	12.0	4.0	1.0	1.6292395401449582	0.149	n/a	stim	s574
168.816	0.404	-5.077298648910799	draw_card	0.0	columbia_card_task_fmri	7.0	0.875	89.0	-100.0	0.125	12.0	5.0	1.0	3.3880633990901714	0.404	n/a	stim	s574
169.223	1.027	-6.988012934625083	end_round	0.0	columbia_card_task_fmri	7.0	0.8571428571428572	71.0	-100.0	0.1428571428571428	12.0	6.0	1.0	5.442035085013821	1.027	5.0	stim	s574
170.257	2.25	n/a	-1.0	n/a	columbia_card_task_fmri	n/a	n/a	-1.0	n/a	n/a	n/a	n/a	n/a	n/a	n/a	n/a	feedback	s574
172.507	0.272	n/a	-1.0	n/a	columbia_card_task_fmri	n/a	n/a	-1.0	n/a	n/a	n/a	n/a	n/a	n/a	n/a	n/a	ITI	s574
172.782	1.975	-0.368965315577463	draw_card	0.0	columbia_card_task_fmri	14.0	0.8333333333333334	89.0	-80.0	0.1666666666666666	12.0	1.0	2.0	3.033112271745459	1.975	n/a	stim	s574
174.759	0.239	-1.7932077398198922	draw_card	0.0	columbia_card_task_fmri	14.0	0.8181818181818181	89.0	-80.0	0.1818181818181818	12.0	2.0	2.0	4.255863404035623	0.239	n/a	stim	s574
175.001	0.42	-3.5022986489107977	draw_card	0.0	columbia_card_task_fmri	14.0	0.8	89.0	-80.0	0.2	12.0	3.0	2.0	5.599740436420838	0.42	n/a	stim	s574
175.424	0.514	-5.591187537799688	end_round	0.0	columbia_card_task_fmri	14.0	0.7777777777777778	71.0	-80.0	0.2222222222222222	12.0	4.0	2.0	7.078426044851845	0.514	3.0	stim	s574
175.946	2.25	n/a	-1.0	n/a	columbia_card_task_fmri	n/a	n/a	-1.0	n/a	n/a	n/a	n/a	n/a	n/a	n/a	n/a	feedback	s574
178.196	0.748	n/a	-1.0	n/a	columbia_card_task_fmri	n/a	n/a	-1.0	n/a	n/a	n/a	n/a	n/a	n/a	n/a	n/a	ITI	s574
178.947	1.22	1.2977013510892013	draw_card	0.0	columbia_card_task_fmri	15.0	0.8333333333333334	89.0	-75.0	0.1666666666666666	12.0	1.0	2.0	1.54346739524469	1.22	n/a	stim	s574
180.17	0.767	-0.0659350125471638	draw_card	0.0	columbia_card_task_fmri	15.0	0.8181818181818181	89.0	-75.0	0.1818181818181818	12.0	2.0	2.0	2.714116141054049	0.767	n/a	stim	s574
180.94	0.408	-1.7022986489107987	draw_card	0.0	columbia_card_task_fmri	15.0	0.8	89.0	-75.0	0.2	12.0	3.0	2.0	4.000734796998394	0.408	n/a	stim	s574
181.351	2.315	-3.702298648910797	draw_card	1.0	columbia_card_task_fmri	15.0	0.7777777777777778	89.0	-75.0	0.2222222222222222	12.0	4.0	2.0	5.416423987125604	2.315	4.0	stim	s574
183.672	2.25	n/a	-1.0	n/a	columbia_card_task_fmri	n/a	n/a	-1.0	n/a	n/a	n/a	n/a	n/a	n/a	n/a	n/a	feedback	s574
185.922	0.068	n/a	-1.0	n/a	columbia_card_task_fmri	n/a	n/a	-1.0	n/a	n/a	n/a	n/a	n/a	n/a	n/a	n/a	ITI	s574
185.993	0.411	0.2977013510892012	draw_card	0.0	columbia_card_task_fmri	15.0	0.8	89.0	-65.0	0.2	15.0	1.0	3.0	0.0036552417949451	0.411	n/a	stim	s574
186.407	0.432	-0.8451557917679411	draw_card	0.0	columbia_card_task_fmri	15.0	0.7857142857142857	89.0	-65.0	0.2142857142857142	15.0	2.0	3.0	0.8290661342968306	0.432	n/a	stim	s574
186.843	0.193	-2.163837110449262	draw_card	0.0	columbia_card_task_fmri	15.0	0.7692307692307692	89.0	-65.0	0.2307692307692307	15.0	3.0	3.0	1.7083285296856872	0.193	n/a	stim	s574
187.039	0.193	-3.702298648910799	draw_card	1.0	columbia_card_task_fmri	15.0	0.75	89.0	-65.0	0.25	15.0	4.0	3.0	2.6426675927924634	0.193	4.0	stim	s574
187.239	2.25	n/a	-1.0	n/a	columbia_card_task_fmri	n/a	n/a	-1.0	n/a	n/a	n/a	n/a	n/a	n/a	n/a	n/a	feedback	s574
189.489	0.0	n/a	-1.0	n/a	columbia_card_task_fmri	n/a	n/a	-1.0	n/a	n/a	n/a	n/a	n/a	n/a	n/a	n/a	ITI	s574
189.491	4.463	-0.4522986489107987	draw_card	1.0	columbia_card_task_fmri	14.0	0.8125	89.0	-70.0	0.1875	16.0	1.0	3.0	0.7892644871704277	4.463	1.0	stim	s574
193.961	2.25	n/a	-1.0	n/a	columbia_card_task_fmri	n/a	n/a	-1.0	n/a	n/a	n/a	n/a	n/a	n/a	n/a	n/a	feedback	s574
196.211	0.204	n/a	-1.0	n/a	columbia_card_task_fmri	n/a	n/a	-1.0	n/a	n/a	n/a	n/a	n/a	n/a	n/a	n/a	ITI	s574
196.419	1.359	-0.5147986489107987	draw_card	1.0	columbia_card_task_fmri	11.0	0.6875	89.0	-30.0	0.3125	16.0	1.0	5.0	-12.974382606507326	1.359	1.0	stim	s574
197.784	2.25	n/a	-1.0	n/a	columbia_card_task_fmri	n/a	n/a	-1.0	n/a	n/a	n/a	n/a	n/a	n/a	n/a	n/a	feedback	s574
200.034	0.068	n/a	-1.0	n/a	columbia_card_task_fmri	n/a	n/a	-1.0	n/a	n/a	n/a	n/a	n/a	n/a	n/a	n/a	ITI	s574
200.106	1.829	4.297701351089201	draw_card	0.0	columbia_card_task_fmri	15.0	0.8666666666666667	89.0	-75.0	0.1333333333333333	15.0	1.0	2.0	-1.4010200837449531	1.829	n/a	stim	s574
201.938	0.93	3.4405584939463454	draw_card	0.0	columbia_card_task_fmri	15.0	0.8571428571428572	89.0	-75.0	0.1428571428571428	15.0	2.0	2.0	-0.5024825036942921	0.93	n/a	stim	s574
202.87	1.06	2.4515475049353546	draw_card	0.0	columbia_card_task_fmri	15.0	0.8461538461538461	89.0	-75.0	0.1538461538461538	15.0	3.0	2.0	0.475382251030318	1.06	n/a	stim	s574
203.934	0.458	1.2977013510892013	draw_card	0.0	columbia_card_task_fmri	15.0	0.8333333333333334	89.0	-75.0	0.1666666666666666	15.0	4.0	2.0	1.54346739524469	0.458	n/a	stim	s574
204.396	0.949	-0.0659350125471638	draw_card	0.0	columbia_card_task_fmri	15.0	0.8181818181818181	89.0	-75.0	0.1818181818181818	15.0	5.0	2.0	2.714116141054049	0.949	n/a	stim	s574
205.349	1.367	-1.7022986489107987	draw_card	0.0	columbia_card_task_fmri	15.0	0.8	89.0	-75.0	0.2	15.0	6.0	2.0	4.000734796998394	1.367	n/a	stim	s574
206.719	0.495	-3.702298648910797	end_round	0.0	columbia_card_task_fmri	15.0	0.7777777777777778	71.0	-75.0	0.2222222222222222	15.0	7.0	2.0	5.416423987125604	0.495	6.0	stim	s574
207.219	2.25	n/a	-1.0	n/a	columbia_card_task_fmri	n/a	n/a	-1.0	n/a	n/a	n/a	n/a	n/a	n/a	n/a	n/a	feedback	s574
209.469	0.068	n/a	-1.0	n/a	columbia_card_task_fmri	n/a	n/a	-1.0	n/a	n/a	n/a	n/a	n/a	n/a	n/a	n/a	ITI	s574
209.541	0.552	6.031034684422536	draw_card	0.0	columbia_card_task_fmri	17.0	0.8666666666666667	89.0	-75.0	0.1333333333333333	15.0	1.0	2.0	-0.7217483330590078	0.552	n/a	stim	s574
210.097	0.279	5.154844208232061	draw_card	0.0	columbia_card_task_fmri	17.0	0.8571428571428572	89.0	-75.0	0.1428571428571428	15.0	2.0	2.0	0.1967912102981586	0.279	n/a	stim	s574
210.38	0.269	4.143855197243048	draw_card	0.0	columbia_card_task_fmri	17.0	0.8461538461538461	89.0	-75.0	0.1538461538461538	15.0	3.0	2.0	1.196421631306734	0.269	n/a	stim	s574
210.652	1.608	2.964368017755869	draw_card	1.0	columbia_card_task_fmri	17.0	0.8333333333333334	89.0	-75.0	0.1666666666666666	15.0	4.0	2.0	2.2882782469392424	1.608	4.0	stim	s574
212.265	2.25	n/a	-1.0	n/a	columbia_card_task_fmri	n/a	n/a	-1.0	n/a	n/a	n/a	n/a	n/a	n/a	n/a	n/a	feedback	s574
214.515	0.34	n/a	-1.0	n/a	columbia_card_task_fmri	n/a	n/a	-1.0	n/a	n/a	n/a	n/a	n/a	n/a	n/a	n/a	ITI	s574
214.858	0.778	1.6102013510892013	draw_card	0.0	columbia_card_task_fmri	2.0	0.9375	89.0	-25.0	0.0625	16.0	1.0	1.0	-25.35939900100549	0.778	n/a	stim	s574
215.64	0.592	1.4977013510892012	draw_card	0.0	columbia_card_task_fmri	2.0	0.9333333333333332	89.0	-25.0	0.0666666666666666	16.0	2.0	1.0	-25.16378191999427	0.592	n/a	stim	s574
216.235	0.238	1.3691299225177729	draw_card	0.0	columbia_card_task_fmri	2.0	0.9285714285714286	89.0	-25.0	0.0714285714285714	16.0	3.0	1.0	-24.949029039893468	0.238	n/a	stim	s574
216.476	0.188	1.2207782741661244	draw_card	0.0	columbia_card_task_fmri	2.0	0.9230769230769232	89.0	-25.0	0.0769230769230769	16.0	4.0	1.0	-24.711877964753977	0.188	n/a	stim	s574
216.668	0.182	1.0477013510892017	draw_card	0.0	columbia_card_task_fmri	2.0	0.9166666666666666	89.0	-25.0	0.0833333333333333	16.0	5.0	1.0	-24.448247331997468	0.182	n/a	stim	s574
216.852	0.252	0.8431558965437465	draw_card	1.0	columbia_card_task_fmri	2.0	0.9090909090909092	89.0	-25.0	0.0909090909090909	16.0	6.0	1.0	-24.152960584726657	0.252	6.0	stim	s574
217.112	2.25	n/a	-1.0	n/a	columbia_card_task_fmri	n/a	n/a	-1.0	n/a	n/a	n/a	n/a	n/a	n/a	n/a	n/a	feedback	s574
219.362	0.0	n/a	-1.0	n/a	columbia_card_task_fmri	n/a	n/a	-1.0	n/a	n/a	n/a	n/a	n/a	n/a	n/a	n/a	ITI	s574
219.364	2.426	3.797701351089201	draw_card	0.0	columbia_card_task_fmri	9.0	0.9375	89.0	-95.0	0.0625	16.0	1.0	1.0	-6.814830079412161	2.426	n/a	stim	s574
221.793	0.216	3.3643680177558686	draw_card	1.0	columbia_card_task_fmri	9.0	0.9333333333333332	89.0	-95.0	0.0666666666666666	16.0	2.0	1.0	-6.048051919176835	0.216	2.0	stim	s574
222.014	2.25	n/a	-1.0	n/a	columbia_card_task_fmri	n/a	n/a	-1.0	n/a	n/a	n/a	n/a	n/a	n/a	n/a	n/a	feedback	s574
224.264	0.0	n/a	-1.0	n/a	columbia_card_task_fmri	n/a	n/a	-1.0	n/a	n/a	n/a	n/a	n/a	n/a	n/a	n/a	ITI	s574
224.266	0.991	5.360201351089201	draw_card	0.0	columbia_card_task_fmri	11.0	0.9375	89.0	-100.0	0.0625	16.0	1.0	1.0	-5.12250521608712	0.991	n/a	stim	s574
225.261	2.059	4.897701351089202	draw_card	0.0	columbia_card_task_fmri	11.0	0.9333333333333332	89.0	-100.0	0.0666666666666666	16.0	2.0	1.0	-4.303988403120048	2.059	n/a	stim	s574
227.324	2.295	4.369129922517774	draw_card	0.0	columbia_card_task_fmri	11.0	0.9285714285714286	89.0	-100.0	0.0714285714285714	16.0	3.0	1.0	-3.406336646188578	2.295	n/a	stim	s574
229.623	1.149	3.759239812627664	draw_card	0.0	columbia_card_task_fmri	11.0	0.9230769230769232	89.0	-100.0	0.0769230769230769	16.0	4.0	1.0	-2.4160946826804484	1.149	n/a	stim	s574
230.775	0.955	3.0477013510892013	draw_card	0.0	columbia_card_task_fmri	11.0	0.9166666666666666	89.0	-100.0	0.0833333333333333	16.0	5.0	1.0	-1.3164337034138072	0.955	n/a	stim	s574
231.733	0.68	2.206792260180109	draw_card	1.0	columbia_card_task_fmri	11.0	0.9090909090909092	89.0	-100.0	0.0909090909090909	16.0	6.0	1.0	-0.0860144587542528	0.68	6.0	stim	s574
232.419	2.25	n/a	-1.0	n/a	columbia_card_task_fmri	n/a	n/a	-1.0	n/a	n/a	n/a	n/a	n/a	n/a	n/a	n/a	feedback	s574
234.669	0.272	n/a	-1.0	n/a	columbia_card_task_fmri	n/a	n/a	-1.0	n/a	n/a	n/a	n/a	n/a	n/a	n/a	n/a	ITI	s574
234.944	0.755	5.922701351089201	draw_card	0.0	columbia_card_task_fmri	16.0	0.875	89.0	-75.0	0.125	16.0	1.0	2.0	-1.899260571887229	0.755	n/a	stim	s574
235.703	0.232	5.164368017755868	draw_card	0.0	columbia_card_task_fmri	16.0	0.8666666666666667	89.0	-75.0	0.1333333333333333	16.0	2.0	2.0	-1.0613874871401308	0.232	n/a	stim	s574
235.938	0.234	4.297701351089203	draw_card	0.0	columbia_card_task_fmri	16.0	0.8571428571428572	89.0	-75.0	0.1428571428571428	16.0	3.0	2.0	-0.1528488322816557	0.234	n/a	stim	s574
236.177	0.164	3.2977013510892013	draw_card	0.0	columbia_card_task_fmri	16.0	0.8461538461538461	89.0	-75.0	0.1538461538461538	16.0	4.0	2.0	0.8358988511382037	0.164	n/a	stim	s574
236.344	1.121	2.131034684422535	draw_card	1.0	columbia_card_task_fmri	16.0	0.8333333333333334	89.0	-75.0	0.1666666666666666	16.0	5.0	2.0	1.9158698290979288	1.121	5.0	stim	s574
237.471	2.25	n/a	-1.0	n/a	columbia_card_task_fmri	n/a	n/a	-1.0	n/a	n/a	n/a	n/a	n/a	n/a	n/a	n/a	feedback	s574
239.721	0.204	n/a	-1.0	n/a	columbia_card_task_fmri	n/a	n/a	-1.0	n/a	n/a	n/a	n/a	n/a	n/a	n/a	n/a	ITI	s574
239.928	0.877	6.172701351089201	draw_card	0.0	columbia_card_task_fmri	17.0	0.875	89.0	-80.0	0.125	16.0	1.0	2.0	0.0833245675905871	0.877	n/a	stim	s574
240.808	0.19	5.3643680177558695	draw_card	0.0	columbia_card_task_fmri	17.0	0.8666666666666667	89.0	-80.0	0.1333333333333333	16.0	2.0	2.0	0.9765387127120136	0.19	n/a	stim	s574
241.002	0.188	4.440558493946347	draw_card	0.0	columbia_card_task_fmri	17.0	0.8571428571428572	89.0	-80.0	0.1428571428571428	16.0	3.0	2.0	1.9450801046442263	0.188	n/a	stim	s574
241.193	0.181	3.374624428012278	draw_card	0.0	columbia_card_task_fmri	17.0	0.8461538461538461	89.0	-80.0	0.1538461538461538	16.0	4.0	2.0	2.9991215529422206	0.181	n/a	stim	s574
241.377	0.366	2.131034684422537	end_round	0.0	columbia_card_task_fmri	17.0	0.8333333333333334	71.0	-80.0	0.1666666666666666	16.0	5.0	2.0	4.150403627202877	0.366	4.0	stim	s574
241.748	2.25	n/a	-1.0	n/a	columbia_card_task_fmri	n/a	n/a	-1.0	n/a	n/a	n/a	n/a	n/a	n/a	n/a	n/a	feedback	s574
243.998	0.0	n/a	-1.0	n/a	columbia_card_task_fmri	n/a	n/a	-1.0	n/a	n/a	n/a	n/a	n/a	n/a	n/a	n/a	ITI	s574
255.009	1.614	0.4643680177558691	draw_card	0.0	columbia_card_task_fmri	13.0	0.8333333333333334	89.0	-70.0	0.1666666666666666	6.0	1.0	1.0	-1.0631639516302158	1.614	n/a	stim	s574
256.626	1.115	-2.3022986489107984	draw_card	0.0	columbia_card_task_fmri	13.0	0.8	89.0	-70.0	0.2	6.0	2.0	1.0	1.2027053010011102	1.115	n/a	stim	s574
257.746	1.386	-6.452298648910799	end_round	0.0	columbia_card_task_fmri	13.0	0.75	71.0	-70.0	0.25	6.0	3.0	1.0	3.940828027869351	1.386	2.0	stim	s574
259.138	2.25	n/a	-1.0	n/a	columbia_card_task_fmri	n/a	n/a	-1.0	n/a	n/a	n/a	n/a	n/a	n/a	n/a	n/a	feedback	s574
261.388	0.204	n/a	-1.0	n/a	columbia_card_task_fmri	n/a	n/a	-1.0	n/a	n/a	n/a	n/a	n/a	n/a	n/a	n/a	ITI	s574
261.597	1.289	0.4643680177558691	draw_card	0.0	columbia_card_task_fmri	15.0	0.8333333333333334	89.0	-80.0	0.1666666666666666	6.0	1.0	1.0	3.405537517330181	1.289	n/a	stim	s574
262.89	0.369	-2.7022986489107987	draw_card	0.0	columbia_card_task_fmri	15.0	0.8	89.0	-80.0	0.2	6.0	2.0	1.0	5.999504918284679	0.369	n/a	stim	s574
263.262	0.752	-7.452298648910799	draw_card	1.0	columbia_card_task_fmri	15.0	0.75	89.0	-80.0	0.25	6.0	3.0	1.0	9.134023627395791	0.752	3.0	stim	s574
264.023	2.25	n/a	-1.0	n/a	columbia_card_task_fmri	n/a	n/a	-1.0	n/a	n/a	n/a	n/a	n/a	n/a	n/a	n/a	feedback	s574
266.273	0.204	n/a	-1.0	n/a	columbia_card_task_fmri	n/a	n/a	-1.0	n/a	n/a	n/a	n/a	n/a	n/a	n/a	n/a	ITI	s574
266.481	0.382	2.131034684422535	draw_card	0.0	columbia_card_task_fmri	16.0	0.8333333333333334	89.0	-75.0	0.1666666666666666	6.0	1.0	1.0	1.9158698290979288	0.382	n/a	stim	s574
266.867	0.21	-0.902298648910798	draw_card	0.0	columbia_card_task_fmri	16.0	0.8	89.0	-75.0	0.2	6.0	2.0	1.0	4.4004780193235575	0.21	n/a	stim	s574
267.08	0.427	-5.452298648910799	end_round	0.0	columbia_card_task_fmri	16.0	0.75	71.0	-75.0	0.25	6.0	3.0	1.0	7.402871852404957	0.427	2.0	stim	s574
267.511	2.25	n/a	-1.0	n/a	columbia_card_task_fmri	n/a	n/a	-1.0	n/a	n/a	n/a	n/a	n/a	n/a	n/a	n/a	feedback	s574
269.761	0.272	n/a	-1.0	n/a	columbia_card_task_fmri	n/a	n/a	-1.0	n/a	n/a	n/a	n/a	n/a	n/a	n/a	n/a	ITI	s574
270.037	0.782	3.2977013510892013	draw_card	0.0	columbia_card_task_fmri	21.0	0.75	89.0	-55.0	0.25	8.0	1.0	2.0	0.9118946768890624	0.782	n/a	stim	s574
270.823	0.198	0.5834156368034877	draw_card	0.0	columbia_card_task_fmri	21.0	0.7142857142857143	89.0	-55.0	0.2857142857142857	8.0	2.0	2.0	2.3351693735572	0.198	n/a	stim	s574
271.025	1.112	-3.035631982244129	draw_card	0.0	columbia_card_task_fmri	21.0	0.6666666666666667	89.0	-55.0	0.3333333333333333	8.0	3.0	2.0	3.827591375955116	1.112	n/a	stim	s574
272.14	0.425	-8.1022986489108	end_round	0.0	columbia_card_task_fmri	21.0	0.6	71.0	-55.0	0.4	8.0	4.0	2.0	5.232205520735079	0.425	3.0	stim	s574
272.574	2.25	n/a	-1.0	n/a	columbia_card_task_fmri	n/a	n/a	-1.0	n/a	n/a	n/a	n/a	n/a	n/a	n/a	n/a	feedback	s574
274.824	0.204	n/a	-1.0	n/a	columbia_card_task_fmri	n/a	n/a	-1.0	n/a	n/a	n/a	n/a	n/a	n/a	n/a	n/a	ITI	s574
275.033	0.786	4.547701351089201	draw_card	0.0	columbia_card_task_fmri	26.0	0.75	89.0	-65.0	0.25	8.0	1.0	2.0	7.402871852404957	0.786	n/a	stim	s574
275.822	0.213	1.2977013510892048	draw_card	0.0	columbia_card_task_fmri	26.0	0.7142857142857143	89.0	-65.0	0.2857142857142857	8.0	2.0	2.0	9.107439762934971	0.213	n/a	stim	s574
276.039	0.186	-3.035631982244128	draw_card	0.0	columbia_card_task_fmri	26.0	0.6666666666666667	89.0	-65.0	0.3333333333333333	8.0	3.0	2.0	10.89478838133153	0.186	n/a	stim	s574
276.229	0.358	-9.1022986489108	end_round	0.0	columbia_card_task_fmri	26.0	0.6	71.0	-65.0	0.4	8.0	4.0	2.0	12.576949834828312	0.358	3.0	stim	s574
276.596	2.25	n/a	-1.0	n/a	columbia_card_task_fmri	n/a	n/a	-1.0	n/a	n/a	n/a	n/a	n/a	n/a	n/a	n/a	feedback	s574
278.846	0.408	n/a	-1.0	n/a	columbia_card_task_fmri	n/a	n/a	-1.0	n/a	n/a	n/a	n/a	n/a	n/a	n/a	n/a	ITI	s574
279.258	0.597	-0.3689653155774648	draw_card	0.0	columbia_card_task_fmri	15.0	0.7777777777777778	89.0	-60.0	0.2222222222222222	9.0	1.0	2.0	-0.815175821783928	0.597	n/a	stim	s574
279.859	0.185	-2.4522986489107987	draw_card	0.0	columbia_card_task_fmri	15.0	0.75	89.0	-60.0	0.25	9.0	2.0	2.0	0.4792227212808839	0.185	n/a	stim	s574
280.048	0.295	-5.130870077482226	draw_card	0.0	columbia_card_task_fmri	15.0	0.7142857142857143	89.0	-60.0	0.2857142857142857	9.0	3.0	2.0	1.8837420636711213	0.295	n/a	stim	s574
280.346	0.486	-8.702298648910798	draw_card	1.0	columbia_card_task_fmri	15.0	0.6666666666666667	89.0	-60.0	0.3333333333333333	9.0	4.0	2.0	3.356499908339103	0.486	4.0	stim	s574
280.84	2.25	n/a	-1.0	n/a	columbia_card_task_fmri	n/a	n/a	-1.0	n/a	n/a	n/a	n/a	n/a	n/a	n/a	n/a	feedback	s574
283.09	0.136	n/a	-1.0	n/a	columbia_card_task_fmri	n/a	n/a	-1.0	n/a	n/a	n/a	n/a	n/a	n/a	n/a	n/a	ITI	s574
283.229	0.412	3.9977013510892014	draw_card	0.0	columbia_card_task_fmri	13.0	0.9	89.0	-90.0	0.1	10.0	1.0	1.0	-1.0954092465211076	0.412	n/a	stim	s574
283.645	0.206	2.8532569066447566	draw_card	0.0	columbia_card_task_fmri	13.0	0.8888888888888888	89.0	-90.0	0.1111111111111111	10.0	2.0	1.0	0.3731321153945117	0.206	n/a	stim	s574
283.855	0.177	1.4227013510892013	draw_card	0.0	columbia_card_task_fmri	13.0	0.875	89.0	-90.0	0.125	10.0	3.0	1.0	2.0661108345193213	0.177	n/a	stim	s574
284.035	0.252	-0.4165843631965105	end_round	0.0	columbia_card_task_fmri	13.0	0.8571428571428572	71.0	-90.0	0.1428571428571428	10.0	4.0	1.0	4.043199178770173	0.252	3.0	stim	s574
284.293	2.25	n/a	-1.0	n/a	columbia_card_task_fmri	n/a	n/a	-1.0	n/a	n/a	n/a	n/a	n/a	n/a	n/a	n/a	feedback	s574
286.543	0.272	n/a	-1.0	n/a	columbia_card_task_fmri	n/a	n/a	-1.0	n/a	n/a	n/a	n/a	n/a	n/a	n/a	n/a	ITI	s574
286.818	0.658	5.297701351089201	draw_card	0.0	columbia_card_task_fmri	15.0	0.9	89.0	-95.0	0.1	10.0	1.0	1.0	1.00285883238908	0.658	n/a	stim	s574
287.481	0.216	4.075479128866978	draw_card	0.0	columbia_card_task_fmri	15.0	0.8888888888888888	89.0	-95.0	0.1111111111111111	10.0	2.0	1.0	2.5713664155881304	0.216	n/a	stim	s574
287.7	0.171	2.5477013510892013	draw_card	0.0	columbia_card_task_fmri	15.0	0.875	89.0	-95.0	0.125	10.0	3.0	1.0	4.37957183579406	0.171	n/a	stim	s574
287.875	0.153	0.5834156368034877	draw_card	0.0	columbia_card_task_fmri	15.0	0.8571428571428572	89.0	-95.0	0.1428571428571428	10.0	4.0	1.0	6.491203621015892	0.153	n/a	stim	s574
288.032	0.343	-2.035631982244131	end_round	0.0	columbia_card_task_fmri	15.0	0.8333333333333334	71.0	-95.0	0.1666666666666666	10.0	5.0	1.0	8.992467197803109	0.343	4.0	stim	s574
288.38	2.25	n/a	-1.0	n/a	columbia_card_task_fmri	n/a	n/a	-1.0	n/a	n/a	n/a	n/a	n/a	n/a	n/a	n/a	feedback	s574
290.63	0.34	n/a	-1.0	n/a	columbia_card_task_fmri	n/a	n/a	-1.0	n/a	n/a	n/a	n/a	n/a	n/a	n/a	n/a	ITI	s574
290.974	0.486	1.097701351089202	draw_card	0.0	columbia_card_task_fmri	16.0	0.8	89.0	-65.0	0.2	10.0	1.0	2.0	0.4033307857776407	0.486	n/a	stim	s574
291.463	0.196	-0.702298648910797	draw_card	0.0	columbia_card_task_fmri	16.0	0.7777777777777778	89.0	-65.0	0.2222222222222222	10.0	2.0	2.0	1.677264507624919	0.196	n/a	stim	s574
291.663	0.171	-2.9522986489107987	draw_card	0.0	columbia_card_task_fmri	16.0	0.75	89.0	-65.0	0.25	10.0	3.0	2.0	3.0753805215703025	0.171	n/a	stim	s574
291.838	0.136	-5.845155791767939	draw_card	0.0	columbia_card_task_fmri	16.0	0.7142857142857143	89.0	-65.0	0.2857142857142857	10.0	4.0	2.0	4.59242678183039	0.136	n/a	stim	s574
291.978	0.31	-9.702298648910794	end_round	0.0	columbia_card_task_fmri	16.0	0.6666666666666667	71.0	-65.0	0.3333333333333333	10.0	5.0	2.0	6.183164554452233	0.31	4.0	stim	s574
292.296	2.25	n/a	-1.0	n/a	columbia_card_task_fmri	n/a	n/a	-1.0	n/a	n/a	n/a	n/a	n/a	n/a	n/a	n/a	feedback	s574
294.546	0.136	n/a	-1.0	n/a	columbia_card_task_fmri	n/a	n/a	-1.0	n/a	n/a	n/a	n/a	n/a	n/a	n/a	n/a	ITI	s574
294.685	1.226	-0.2022986489107987	draw_card	0.0	columbia_card_task_fmri	7.0	0.9166666666666666	89.0	-95.0	0.0833333333333333	12.0	1.0	1.0	-3.8014841162321247	1.226	n/a	stim	s574
295.915	0.338	-0.975025921638072	draw_card	0.0	columbia_card_task_fmri	7.0	0.9090909090909092	89.0	-95.0	0.0909090909090909	12.0	2.0	1.0	-2.671007429357431	0.338	n/a	stim	s574
296.257	0.788	-1.902298648910799	draw_card	0.0	columbia_card_task_fmri	7.0	0.9	89.0	-95.0	0.1	12.0	3.0	1.0	-1.3951424493594755	0.788	n/a	stim	s574
297.049	0.189	-3.0356319822441327	draw_card	0.0	columbia_card_task_fmri	7.0	0.8888888888888888	89.0	-95.0	0.1111111111111111	12.0	4.0	1.0	0.0591171480263383	0.189	n/a	stim	s574
297.243	0.473	-4.452298648910799	draw_card	0.0	columbia_card_task_fmri	7.0	0.875	89.0	-95.0	0.125	12.0	5.0	1.0	1.735633993462507	0.473	n/a	stim	s574
297.719	1.408	-6.27372722033937	draw_card	0.0	columbia_card_task_fmri	7.0	0.8571428571428572	89.0	-95.0	0.1428571428571428	12.0	6.0	1.0	3.693500884445229	1.408	n/a	stim	s574
299.132	0.459	-8.702298648910798	end_round	0.0	columbia_card_task_fmri	7.0	0.8333333333333334	71.0	-95.0	0.1666666666666666	12.0	7.0	1.0	6.012652873930037	0.459	6.0	stim	s574
299.597	2.25	n/a	-1.0	n/a	columbia_card_task_fmri	n/a	n/a	-1.0	n/a	n/a	n/a	n/a	n/a	n/a	n/a	n/a	feedback	s574
301.847	0.34	n/a	-1.0	n/a	columbia_card_task_fmri	n/a	n/a	-1.0	n/a	n/a	n/a	n/a	n/a	n/a	n/a	n/a	ITI	s574
302.191	0.49	0.4643680177558691	draw_card	1.0	columbia_card_task_fmri	14.0	0.8333333333333334	89.0	-75.0	0.1666666666666666	12.0	1.0	2.0	1.1710711467837598	0.49	1.0	stim	s574
302.69	2.25	n/a	-1.0	n/a	columbia_card_task_fmri	n/a	n/a	-1.0	n/a	n/a	n/a	n/a	n/a	n/a	n/a	n/a	feedback	s574
304.94	0.068	n/a	-1.0	n/a	columbia_card_task_fmri	n/a	n/a	-1.0	n/a	n/a	n/a	n/a	n/a	n/a	n/a	n/a	ITI	s574
305.013	0.5	2.131034684422535	draw_card	0.0	columbia_card_task_fmri	15.0	0.8333333333333334	89.0	-70.0	0.1666666666666666	12.0	1.0	2.0	-0.3184476339887609	0.5	n/a	stim	s574
305.516	0.261	0.8431558965437445	draw_card	1.0	columbia_card_task_fmri	15.0	0.8181818181818181	89.0	-70.0	0.1818181818181818	12.0	2.0	2.0	0.7870683884518499	0.261	2.0	stim	s574
305.786	2.25	n/a	-1.0	n/a	columbia_card_task_fmri	n/a	n/a	-1.0	n/a	n/a	n/a	n/a	n/a	n/a	n/a	n/a	feedback	s574
308.036	0.0	n/a	-1.0	n/a	columbia_card_task_fmri	n/a	n/a	-1.0	n/a	n/a	n/a	n/a	n/a	n/a	n/a	n/a	ITI	s574
308.041	0.541	0.0977013510892019	draw_card	0.0	columbia_card_task_fmri	16.0	0.8	89.0	-70.0	0.2	15.0	1.0	3.0	2.401821561889122	0.541	n/a	stim	s574
308.587	0.216	-1.1308700774822276	draw_card	0.0	columbia_card_task_fmri	16.0	0.7857142857142857	89.0	-70.0	0.2142857142857142	15.0	2.0	3.0	3.2892339171559257	0.216	n/a	stim	s574
308.807	0.181	-2.548452495064645	draw_card	0.0	columbia_card_task_fmri	16.0	0.7692307692307692	89.0	-70.0	0.2307692307692307	15.0	3.0	3.0	4.23453772832233	0.181	n/a	stim	s574
308.993	0.182	-4.202298648910799	draw_card	0.0	columbia_card_task_fmri	16.0	0.75	89.0	-70.0	0.25	15.0	4.0	3.0	5.239049638010286	0.182	n/a	stim	s574
309.179	0.736	-6.156844103456252	draw_card	0.0	columbia_card_task_fmri	16.0	0.7272727272727273	89.0	-70.0	0.2727272727272727	15.0	5.0	3.0	6.30044320903243	0.736	n/a	stim	s574
309.919	0.496	-8.502298648910799	draw_card	1.0	columbia_card_task_fmri	16.0	0.7	89.0	-70.0	0.3	15.0	6.0	3.0	7.408863708855073	0.496	6.0	stim	s574
310.421	2.25	n/a	-1.0	n/a	columbia_card_task_fmri	n/a	n/a	-1.0	n/a	n/a	n/a	n/a	n/a	n/a	n/a	n/a	feedback	s574
312.671	0.204	n/a	-1.0	n/a	columbia_card_task_fmri	n/a	n/a	-1.0	n/a	n/a	n/a	n/a	n/a	n/a	n/a	n/a	ITI	s574
312.879	0.481	0.4852013510892012	draw_card	0.0	columbia_card_task_fmri	14.0	0.8125	89.0	-65.0	0.1875	16.0	1.0	3.0	-1.160673978221368	0.481	n/a	stim	s574
313.364	0.243	-0.5022986489107977	draw_card	0.0	columbia_card_task_fmri	14.0	0.8	89.0	-65.0	0.2	16.0	2.0	3.0	-0.3960120983564685	0.243	n/a	stim	s574
313.613	0.232	-1.6308700774822258	draw_card	0.0	columbia_card_task_fmri	14.0	0.7857142857142857	89.0	-65.0	0.2142857142857142	16.0	3.0	3.0	0.4190645394954018	0.232	n/a	stim	s574
313.848	0.692	-2.9330678796800305	draw_card	0.0	columbia_card_task_fmri	14.0	0.7692307692307692	89.0	-65.0	0.2307692307692307	16.0	4.0	3.0	1.2873193468455495	0.692	n/a	stim	s574
314.543	0.402	-4.452298648910799	end_round	0.0	columbia_card_task_fmri	14.0	0.75	71.0	-65.0	0.25	16.0	5.0	3.0	2.209962245128189	0.402	4.0	stim	s574
314.949	2.25	n/a	-1.0	n/a	columbia_card_task_fmri	n/a	n/a	-1.0	n/a	n/a	n/a	n/a	n/a	n/a	n/a	n/a	feedback	s574
317.199	1.02	n/a	-1.0	n/a	columbia_card_task_fmri	n/a	n/a	-1.0	n/a	n/a	n/a	n/a	n/a	n/a	n/a	n/a	ITI	s574
318.223	0.837	0.2352013510892012	draw_card	0.0	columbia_card_task_fmri	16.0	0.8125	89.0	-75.0	0.1875	16.0	1.0	3.0	3.519477721868384	0.837	n/a	stim	s574
319.064	0.178	-0.902298648910798	draw_card	0.0	columbia_card_task_fmri	16.0	0.8	89.0	-75.0	0.2	16.0	2.0	3.0	4.4004780193235575	0.178	n/a	stim	s574
319.248	0.176	-2.202298648910797	draw_card	0.0	columbia_card_task_fmri	16.0	0.7857142857142857	89.0	-75.0	0.2142857142857142	16.0	3.0	3.0	5.339553635983172	0.176	n/a	stim	s574
319.427	0.184	-3.7022986489108014	draw_card	1.0	columbia_card_task_fmri	16.0	0.7692307692307692	89.0	-75.0	0.2307692307692307	16.0	4.0	3.0	6.3398872823705545	0.184	4.0	stim	s574
319.618	2.25	n/a	-1.0	n/a	columbia_card_task_fmri	n/a	n/a	-1.0	n/a	n/a	n/a	n/a	n/a	n/a	n/a	n/a	feedback	s574
321.868	0.0	n/a	-1.0	n/a	columbia_card_task_fmri	n/a	n/a	-1.0	n/a	n/a	n/a	n/a	n/a	n/a	n/a	n/a	ITI	s574
321.873	0.424	4.497701351089202	draw_card	0.0	columbia_card_task_fmri	16.0	0.8666666666666667	89.0	-80.0	0.1333333333333333	15.0	1.0	2.0	0.6368697663430467	0.424	n/a	stim	s574
322.301	0.176	3.583415636803489	draw_card	0.0	columbia_card_task_fmri	16.0	0.8571428571428572	89.0	-80.0	0.1428571428571428	15.0	2.0	2.0	1.5954111164876323	0.176	n/a	stim	s574
322.481	0.2	2.528470581858431	draw_card	0.0	columbia_card_task_fmri	16.0	0.8461538461538461	89.0	-80.0	0.1538461538461538	15.0	3.0	2.0	2.638570695686944	0.2	n/a	stim	s574
322.686	0.164	1.297701351089203	draw_card	0.0	columbia_card_task_fmri	16.0	0.8333333333333334	89.0	-80.0	0.1666666666666666	15.0	4.0	2.0	3.777968023309292	0.164	n/a	stim	s574
322.853	0.512	-0.1568441034562555	end_round	0.0	columbia_card_task_fmri	16.0	0.8181818181818181	71.0	-80.0	0.1818181818181818	15.0	5.0	2.0	5.02676922902694	0.512	4.0	stim	s574
323.372	2.25	n/a	-1.0	n/a	columbia_card_task_fmri	n/a	n/a	-1.0	n/a	n/a	n/a	n/a	n/a	n/a	n/a	n/a	feedback	s574
325.622	0.0	n/a	-1.0	n/a	columbia_card_task_fmri	n/a	n/a	-1.0	n/a	n/a	n/a	n/a	n/a	n/a	n/a	n/a	ITI	s574
325.625	0.571	5.3643680177558695	draw_card	0.0	columbia_card_task_fmri	17.0	0.8666666666666667	89.0	-80.0	0.1333333333333333	15.0	1.0	2.0	0.9765387127120136	0.571	n/a	stim	s574
326.2	0.187	4.440558493946347	draw_card	0.0	columbia_card_task_fmri	17.0	0.8571428571428572	89.0	-80.0	0.1428571428571428	15.0	2.0	2.0	1.9450801046442263	0.187	n/a	stim	s574
326.393	0.188	3.374624428012278	draw_card	0.0	columbia_card_task_fmri	17.0	0.8461538461538461	89.0	-80.0	0.1538461538461538	15.0	3.0	2.0	2.9991215529422206	0.188	n/a	stim	s574
326.585	0.175	2.131034684422537	draw_card	0.0	columbia_card_task_fmri	17.0	0.8333333333333334	89.0	-80.0	0.1666666666666666	15.0	4.0	2.0	4.150403627202877	0.175	n/a	stim	s574
326.764	0.608	0.6613377147255628	draw_card	0.0	columbia_card_task_fmri	17.0	0.8181818181818181	89.0	-80.0	0.1818181818181818	15.0	5.0	2.0	5.412229609806047	0.608	n/a	stim	s574
327.376	0.375	-1.102298648910797	end_round	0.0	columbia_card_task_fmri	17.0	0.8	71.0	-80.0	0.2	15.0	6.0	2.0	6.79904843771947	0.375	5.0	stim	s574
327.758	2.25	n/a	-1.0	n/a	columbia_card_task_fmri	n/a	n/a	-1.0	n/a	n/a	n/a	n/a	n/a	n/a	n/a	n/a	feedback	s574
330.008	0.068	n/a	-1.0	n/a	columbia_card_task_fmri	n/a	n/a	-1.0	n/a	n/a	n/a	n/a	n/a	n/a	n/a	n/a	ITI	s574
330.081	0.378	1.2977013510892013	draw_card	0.0	columbia_card_task_fmri	1.0	0.9375	89.0	-15.0	0.0625	16.0	1.0	1.0	-27.938038129635416	0.378	n/a	stim	s574
330.463	0.232	1.2310346844225346	draw_card	0.0	columbia_card_task_fmri	1.0	0.9333333333333332	89.0	-15.0	0.0666666666666666	16.0	2.0	1.0	-27.825872222213302	0.232	n/a	stim	s574
330.7	0.183	1.1548442082320585	draw_card	0.0	columbia_card_task_fmri	1.0	0.9285714285714286	89.0	-15.0	0.0714285714285714	16.0	3.0	1.0	-27.70250562403817	0.183	n/a	stim	s574
330.886	0.145	1.0669321203199704	draw_card	0.0	columbia_card_task_fmri	1.0	0.9230769230769232	89.0	-15.0	0.0769230769230769	16.0	4.0	1.0	-27.56601772530096	0.145	n/a	stim	s574
331.035	0.443	0.964368017755868	draw_card	0.0	columbia_card_task_fmri	1.0	0.9166666666666666	89.0	-15.0	0.0833333333333333	16.0	5.0	1.0	-27.41400454418425	0.443	n/a	stim	s574
331.482	0.338	0.8431558965437466	end_round	0.0	columbia_card_task_fmri	1.0	0.9090909090909092	71.0	-15.0	0.0909090909090909	16.0	6.0	1.0	-27.24341541344457	0.338	5.0	stim	s574
331.825	2.25	n/a	-1.0	n/a	columbia_card_task_fmri	n/a	n/a	-1.0	n/a	n/a	n/a	n/a	n/a	n/a	n/a	n/a	feedback	s574
334.075	0.476	n/a	-1.0	n/a	columbia_card_task_fmri	n/a	n/a	-1.0	n/a	n/a	n/a	n/a	n/a	n/a	n/a	n/a	ITI	s574
334.555	0.465	4.422701351089201	draw_card	0.0	columbia_card_task_fmri	10.0	0.9375	89.0	-100.0	0.0625	16.0	1.0	1.0	-5.364282286543752	0.465	n/a	stim	s574
335.023	0.237	3.964368017755868	draw_card	0.0	columbia_card_task_fmri	10.0	0.9333333333333332	89.0	-100.0	0.0666666666666666	16.0	2.0	1.0	-4.553156228440134	0.237	n/a	stim	s574
335.264	0.214	3.4405584939463454	draw_card	0.0	columbia_card_task_fmri	10.0	0.9285714285714286	89.0	-100.0	0.0714285714285714	16.0	3.0	1.0	-3.6636086709549858	0.214	n/a	stim	s574
335.483	0.237	2.8361628895507405	draw_card	0.0	columbia_card_task_fmri	10.0	0.9230769230769232	89.0	-100.0	0.0769230769230769	16.0	4.0	1.0	-2.6823056186875256	0.237	n/a	stim	s574
335.724	0.226	2.131034684422535	draw_card	0.0	columbia_card_task_fmri	10.0	0.9166666666666666	89.0	-100.0	0.0833333333333333	16.0	5.0	1.0	-1.5925699295245297	0.226	n/a	stim	s574
335.954	0.204	1.2977013510891997	draw_card	0.0	columbia_card_task_fmri	10.0	0.9090909090909092	89.0	-100.0	0.0909090909090909	16.0	6.0	1.0	-0.3732546644990613	0.204	n/a	stim	s574
336.162	0.506	0.2977013510892012	draw_card	0.0	columbia_card_task_fmri	10.0	0.9	89.0	-100.0	0.1	16.0	7.0	1.0	1.00285883238908	0.506	n/a	stim	s574
336.672	0.306	-0.9245208711330202	end_round	0.0	columbia_card_task_fmri	10.0	0.8888888888888888	71.0	-100.0	0.1111111111111111	16.0	8.0	1.0	2.5713664155881304	0.306	7.0	stim	s574
336.986	2.25	n/a	-1.0	n/a	columbia_card_task_fmri	n/a	n/a	-1.0	n/a	n/a	n/a	n/a	n/a	n/a	n/a	n/a	feedback	s574
339.236	0.136	n/a	-1.0	n/a	columbia_card_task_fmri	n/a	n/a	-1.0	n/a	n/a	n/a	n/a	n/a	n/a	n/a	n/a	ITI	s574
339.376	0.612	5.047701351089201	draw_card	0.0	columbia_card_task_fmri	15.0	0.875	89.0	-75.0	0.125	16.0	1.0	2.0	-2.2296690550128275	0.612	n/a	stim	s574
339.992	0.262	4.297701351089201	draw_card	0.0	columbia_card_task_fmri	15.0	0.8666666666666667	89.0	-75.0	0.1333333333333333	16.0	2.0	2.0	-1.4010200837449531	0.262	n/a	stim	s574
340.258	0.222	3.4405584939463454	draw_card	1.0	columbia_card_task_fmri	15.0	0.8571428571428572	89.0	-75.0	0.1428571428571428	16.0	3.0	2.0	-0.5024825036942921	0.222	3.0	stim	s574
340.489	2.25	n/a	-1.0	n/a	columbia_card_task_fmri	n/a	n/a	-1.0	n/a	n/a	n/a	n/a	n/a	n/a	n/a	n/a	feedback	s574
342.739	0.068	n/a	-1.0	n/a	columbia_card_task_fmri	n/a	n/a	-1.0	n/a	n/a	n/a	n/a	n/a	n/a	n/a	n/a	ITI	s574
342.81	0.319	5.297701351089201	draw_card	0.0	columbia_card_task_fmri	16.0	0.875	89.0	-80.0	0.125	16.0	1.0	2.0	-0.247121272924911	0.319	n/a	stim	s574
343.133	0.151	4.497701351089202	draw_card	0.0	columbia_card_task_fmri	16.0	0.8666666666666667	89.0	-80.0	0.1333333333333333	16.0	2.0	2.0	0.6368697663430467	0.151	n/a	stim	s574
343.289	0.215	3.583415636803489	draw_card	1.0	columbia_card_task_fmri	16.0	0.8571428571428572	89.0	-80.0	0.1428571428571428	16.0	3.0	2.0	1.5954111164876323	0.215	3.0	stim	s574
343.514	2.25	n/a	-1.0	n/a	columbia_card_task_fmri	n/a	n/a	-1.0	n/a	n/a	n/a	n/a	n/a	n/a	n/a	n/a	feedback	s574
345.764	0.0	n/a	-1.0	n/a	columbia_card_task_fmri	n/a	n/a	-1.0	n/a	n/a	n/a	n/a	n/a	n/a	n/a	n/a	ITI	s574
345.768	0.284	2.4852013510892013	draw_card	0.0	columbia_card_task_fmri	4.0	0.6875	89.0	-5.0	0.3125	16.0	1.0	5.0	-27.653851578900905	0.284	n/a	stim	s574
346.056	0.161	2.2977013510892017	draw_card	0.0	columbia_card_task_fmri	4.0	0.6666666666666667	89.0	-5.0	0.3333333333333333	16.0	2.0	5.0	-27.585978238962888	0.161	n/a	stim	s574
346.222	0.173	2.083415636803487	draw_card	0.0	columbia_card_task_fmri	4.0	0.6428571428571428	89.0	-5.0	0.3571428571428571	16.0	3.0	5.0	-27.519207371871776	0.173	n/a	stim	s574
346.4	0.308	1.83616288955074	draw_card	0.0	columbia_card_task_fmri	4.0	0.6153846153846154	89.0	-5.0	0.3846153846153846	16.0	4.0	5.0	-27.455850819453627	0.308	n/a	stim	s574
346.713	1.469	1.5477013510892008	end_round	0.0	columbia_card_task_fmri	4.0	0.5833333333333333	71.0	-5.0	0.4166666666666667	16.0	5.0	5.0	-27.399711814115765	1.469	4.0	stim	s574
348.189	2.25	n/a	-1.0	n/a	columbia_card_task_fmri	n/a	n/a	-1.0	n/a	n/a	n/a	n/a	n/a	n/a	n/a	n/a	feedback	s574
350.439	0.0	n/a	-1.0	n/a	columbia_card_task_fmri	n/a	n/a	-1.0	n/a	n/a	n/a	n/a	n/a	n/a	n/a	n/a	ITI	s574
350.444	1.552	-0.368965315577463	draw_card	0.0	columbia_card_task_fmri	14.0	0.8333333333333334	89.0	-80.0	0.1666666666666666	6.0	1.0	1.0	3.033112271745459	1.552	n/a	stim	s574
352.001	0.579	-3.5022986489107977	draw_card	0.0	columbia_card_task_fmri	14.0	0.8	89.0	-80.0	0.2	6.0	2.0	1.0	5.599740436420838	0.579	n/a	stim	s574
352.584	1.501	-8.202298648910798	draw_card	0.0	columbia_card_task_fmri	14.0	0.75	89.0	-80.0	0.25	6.0	3.0	1.0	8.701228516019967	1.501	n/a	stim	s574
354.089	0.542	-16.035631982244126	end_round	0.0	columbia_card_task_fmri	14.0	0.6666666666666667	71.0	-80.0	0.3333333333333333	6.0	4.0	1.0	12.308375922219945	0.542	3.0	stim	s574
354.641	2.25	n/a	-1.0	n/a	columbia_card_task_fmri	n/a	n/a	-1.0	n/a	n/a	n/a	n/a	n/a	n/a	n/a	n/a	feedback	s574
356.891	0.204	n/a	-1.0	n/a	columbia_card_task_fmri	n/a	n/a	-1.0	n/a	n/a	n/a	n/a	n/a	n/a	n/a	n/a	ITI	s574
357.1	0.363	1.2977013510892013	draw_card	0.0	columbia_card_task_fmri	15.0	0.8333333333333334	89.0	-75.0	0.1666666666666666	6.0	1.0	1.0	1.54346739524469	0.363	n/a	stim	s574
357.467	0.164	-1.7022986489107987	draw_card	1.0	columbia_card_task_fmri	15.0	0.8	89.0	-75.0	0.2	6.0	2.0	1.0	4.000734796998394	0.164	2.0	stim	s574
357.639	2.25	n/a	-1.0	n/a	columbia_card_task_fmri	n/a	n/a	-1.0	n/a	n/a	n/a	n/a	n/a	n/a	n/a	n/a	feedback	s574
359.889	0.204	n/a	-1.0	n/a	columbia_card_task_fmri	n/a	n/a	-1.0	n/a	n/a	n/a	n/a	n/a	n/a	n/a	n/a	ITI	s574
360.098	0.33	2.964368017755869	draw_card	1.0	columbia_card_task_fmri	16.0	0.8333333333333334	89.0	-70.0	0.1666666666666666	6.0	1.0	1.0	0.0539216680355849	0.33	1.0	stim	s574
360.435	2.25	n/a	-1.0	n/a	columbia_card_task_fmri	n/a	n/a	-1.0	n/a	n/a	n/a	n/a	n/a	n/a	n/a	n/a	feedback	s574
362.685	0.272	n/a	-1.0	n/a	columbia_card_task_fmri	n/a	n/a	-1.0	n/a	n/a	n/a	n/a	n/a	n/a	n/a	n/a	ITI	s574
362.961	2.231	3.5477013510892013	draw_card	0.0	columbia_card_task_fmri	23.0	0.75	89.0	-60.0	0.25	8.0	1.0	2.0	3.940828027869351	2.231	n/a	stim	s574
365.198	1.535	0.5834156368034895	draw_card	1.0	columbia_card_task_fmri	23.0	0.7142857142857143	89.0	-60.0	0.2857142857142857	8.0	2.0	2.0	5.495380716578588	1.535	2.0	stim	s574
366.742	2.25	n/a	-1.0	n/a	columbia_card_task_fmri	n/a	n/a	-1.0	n/a	n/a	n/a	n/a	n/a	n/a	n/a	n/a	feedback	s574
368.992	0.136	n/a	-1.0	n/a	columbia_card_task_fmri	n/a	n/a	-1.0	n/a	n/a	n/a	n/a	n/a	n/a	n/a	n/a	ITI	s574
369.133	0.631	4.047701351089201	draw_card	0.0	columbia_card_task_fmri	27.0	0.75	89.0	-70.0	0.25	8.0	1.0	2.0	9.999627299557504	0.631	n/a	stim	s574
369.769	0.208	0.583415636803486	draw_card	0.0	columbia_card_task_fmri	27.0	0.7142857142857143	89.0	-70.0	0.2857142857142857	8.0	2.0	2.0	11.81669742151147	0.208	n/a	stim	s574
369.982	1.399	-4.035631982244127	end_round	0.0	columbia_card_task_fmri	27.0	0.6666666666666667	71.0	-70.0	0.3333333333333333	8.0	3.0	2.0	13.722002161951387	1.399	2.0	stim	s574
371.389	2.25	n/a	-1.0	n/a	columbia_card_task_fmri	n/a	n/a	-1.0	n/a	n/a	n/a	n/a	n/a	n/a	n/a	n/a	feedback	s574
373.639	0.204	n/a	-1.0	n/a	columbia_card_task_fmri	n/a	n/a	-1.0	n/a	n/a	n/a	n/a	n/a	n/a	n/a	n/a	ITI	s574
373.847	0.302	-0.702298648910797	draw_card	1.0	columbia_card_task_fmri	16.0	0.7777777777777778	89.0	-65.0	0.2222222222222222	9.0	1.0	2.0	1.677264507624919	0.302	1.0	stim	s574
374.156	2.25	n/a	-1.0	n/a	columbia_card_task_fmri	n/a	n/a	-1.0	n/a	n/a	n/a	n/a	n/a	n/a	n/a	n/a	feedback	s574
376.406	0.272	n/a	-1.0	n/a	columbia_card_task_fmri	n/a	n/a	-1.0	n/a	n/a	n/a	n/a	n/a	n/a	n/a	n/a	ITI	s574
376.682	0.026	4.497701351089202	draw_card	0.0	columbia_card_task_fmri	13.0	0.9	89.0	-85.0	0.1	10.0	1.0	1.0	-2.5940208894133683	0.026	n/a	stim	s574
376.714	0.189	3.408812462200312	draw_card	0.0	columbia_card_task_fmri	13.0	0.8888888888888888	89.0	-85.0	0.1111111111111111	10.0	2.0	1.0	-1.1968908062551264	0.189	n/a	stim	s574
376.908	1.057	2.0477013510892013	draw_card	0.0	columbia_card_task_fmri	13.0	0.875	89.0	-85.0	0.125	10.0	3.0	1.0	0.4137759742716866	1.057	n/a	stim	s574
377.97	0.341	0.297701351089203	end_round	0.0	columbia_card_task_fmri	13.0	0.8571428571428572	71.0	-85.0	0.1428571428571428	10.0	4.0	1.0	2.2947543548055336	0.341	3.0	stim	s574
378.318	2.25	n/a	-1.0	n/a	columbia_card_task_fmri	n/a	n/a	-1.0	n/a	n/a	n/a	n/a	n/a	n/a	n/a	n/a	feedback	s574
380.568	0.272	n/a	-1.0	n/a	columbia_card_task_fmri	n/a	n/a	-1.0	n/a	n/a	n/a	n/a	n/a	n/a	n/a	n/a	ITI	s574
380.846	0.362	-0.5022986489107977	draw_card	0.0	columbia_card_task_fmri	14.0	0.8	89.0	-65.0	0.2	10.0	1.0	2.0	-0.3960120983564685	0.362	n/a	stim	s574
381.213	0.232	-2.2578542044663523	draw_card	0.0	columbia_card_task_fmri	14.0	0.7777777777777778	89.0	-65.0	0.2222222222222222	10.0	2.0	2.0	0.8464173839792437	0.232	n/a	stim	s574
381.45	0.69	-4.452298648910799	draw_card	1.0	columbia_card_task_fmri	14.0	0.75	89.0	-65.0	0.25	10.0	3.0	2.0	2.209962245128189	0.69	3.0	stim	s574
382.149	2.25	n/a	-1.0	n/a	columbia_card_task_fmri	n/a	n/a	-1.0	n/a	n/a	n/a	n/a	n/a	n/a	n/a	n/a	feedback	s574
384.399	0.34	n/a	-1.0	n/a	columbia_card_task_fmri	n/a	n/a	-1.0	n/a	n/a	n/a	n/a	n/a	n/a	n/a	n/a	ITI	s574
384.744	0.328	0.8977013510892027	draw_card	1.0	columbia_card_task_fmri	17.0	0.8	89.0	-70.0	0.2	10.0	1.0	2.0	2.8015405116914422	0.328	1.0	stim	s574
385.08	2.25	n/a	-1.0	n/a	columbia_card_task_fmri	n/a	n/a	-1.0	n/a	n/a	n/a	n/a	n/a	n/a	n/a	n/a	feedback	s574
387.33	0.204	n/a	-1.0	n/a	columbia_card_task_fmri	n/a	n/a	-1.0	n/a	n/a	n/a	n/a	n/a	n/a	n/a	n/a	ITI	s574
387.539	0.238	-0.3689653155774648	draw_card	0.0	columbia_card_task_fmri	13.0	0.8333333333333334	89.0	-75.0	0.1666666666666666	12.0	1.0	2.0	0.7986812942566104	0.238	n/a	stim	s574
387.782	0.842	-1.7022986489108003	draw_card	1.0	columbia_card_task_fmri	13.0	0.8181818181818181	89.0	-75.0	0.1818181818181818	12.0	2.0	2.0	1.94327762565424	0.842	2.0	stim	s574
388.635	2.25	n/a	-1.0	n/a	columbia_card_task_fmri	n/a	n/a	-1.0	n/a	n/a	n/a	n/a	n/a	n/a	n/a	n/a	feedback	s574
390.885	0.068	n/a	-1.0	n/a	columbia_card_task_fmri	n/a	n/a	-1.0	n/a	n/a	n/a	n/a	n/a	n/a	n/a	n/a	ITI	s574
390.958	0.379	1.297701351089203	draw_card	0.0	columbia_card_task_fmri	14.0	0.8333333333333334	89.0	-70.0	0.1666666666666666	12.0	1.0	2.0	-0.6908095954979778	0.379	n/a	stim	s574
391.342	1.296	0.0249740783619261	end_round	0.0	columbia_card_task_fmri	14.0	0.8181818181818181	71.0	-70.0	0.1818181818181818	12.0	2.0	2.0	0.4016791753485549	1.296	1.0	stim	s574
392.644	2.25	n/a	-1.0	n/a	columbia_card_task_fmri	n/a	n/a	-1.0	n/a	n/a	n/a	n/a	n/a	n/a	n/a	n/a	feedback	s574
394.894	0.0	n/a	-1.0	n/a	columbia_card_task_fmri	n/a	n/a	-1.0	n/a	n/a	n/a	n/a	n/a	n/a	n/a	n/a	ITI	s574
394.9	0.433	1.297701351089203	draw_card	0.0	columbia_card_task_fmri	16.0	0.8333333333333334	89.0	-80.0	0.1666666666666666	12.0	1.0	2.0	3.777968023309292	0.433	n/a	stim	s574
395.337	0.738	-0.1568441034562555	draw_card	0.0	columbia_card_task_fmri	16.0	0.8181818181818181	89.0	-80.0	0.1818181818181818	12.0	2.0	2.0	5.02676922902694	0.738	n/a	stim	s574
396.08	0.652	-1.902298648910798	end_round	0.0	columbia_card_task_fmri	16.0	0.8	71.0	-80.0	0.2	12.0	3.0	2.0	6.399274302533577	0.652	2.0	stim	s574
396.743	2.25	n/a	-1.0	n/a	columbia_card_task_fmri	n/a	n/a	-1.0	n/a	n/a	n/a	n/a	n/a	n/a	n/a	n/a	feedback	s574
398.993	0.408	n/a	-1.0	n/a	columbia_card_task_fmri	n/a	n/a	-1.0	n/a	n/a	n/a	n/a	n/a	n/a	n/a	n/a	ITI	s574
399.407	0.349	1.097701351089202	draw_card	0.0	columbia_card_task_fmri	16.0	0.8	89.0	-65.0	0.2	15.0	1.0	3.0	0.4033307857776407	0.349	n/a	stim	s574
399.762	0.56	-0.0594415060536546	draw_card	0.0	columbia_card_task_fmri	16.0	0.7857142857142857	89.0	-65.0	0.2142857142857142	15.0	2.0	3.0	1.2390757274582356	0.56	n/a	stim	s574
400.327	0.411	-1.394606341218492	draw_card	0.0	columbia_card_task_fmri	16.0	0.7692307692307692	89.0	-65.0	0.2307692307692307	15.0	3.0	3.0	2.129345503019892	0.411	n/a	stim	s574
400.743	0.424	-2.9522986489107987	draw_card	0.0	columbia_card_task_fmri	16.0	0.75	89.0	-65.0	0.25	15.0	4.0	3.0	3.0753805215703025	0.424	n/a	stim	s574
401.174	1.009	-4.793207739819889	end_round	0.0	columbia_card_task_fmri	16.0	0.7272727272727273	71.0	-65.0	0.2727272727272727	15.0	5.0	3.0	4.074990152702668	1.009	4.0	stim	s574
402.19	2.25	n/a	-1.0	n/a	columbia_card_task_fmri	n/a	n/a	-1.0	n/a	n/a	n/a	n/a	n/a	n/a	n/a	n/a	feedback	s574
404.44	0.204	n/a	-1.0	n/a	columbia_card_task_fmri	n/a	n/a	-1.0	n/a	n/a	n/a	n/a	n/a	n/a	n/a	n/a	ITI	s574
404.649	0.321	-0.5772986489107987	draw_card	0.0	columbia_card_task_fmri	15.0	0.8125	89.0	-75.0	0.1875	16.0	1.0	3.0	3.1294284851808456	0.321	n/a	stim	s574
404.975	0.444	-1.7022986489107987	draw_card	0.0	columbia_card_task_fmri	15.0	0.8	89.0	-75.0	0.2	16.0	2.0	3.0	4.000734796998394	0.444	n/a	stim	s574
405.425	0.41	-2.9880129346250834	draw_card	0.0	columbia_card_task_fmri	15.0	0.7857142857142857	89.0	-75.0	0.2142857142857142	16.0	3.0	3.0	4.929478060468334	0.41	n/a	stim	s574
405.839	0.769	-4.471529418141572	draw_card	1.0	columbia_card_task_fmri	15.0	0.7692307692307692	89.0	-75.0	0.2307692307692307	16.0	4.0	3.0	5.918806042364928	0.769	4.0	stim	s574
406.616	2.25	n/a	-1.0	n/a	columbia_card_task_fmri	n/a	n/a	-1.0	n/a	n/a	n/a	n/a	n/a	n/a	n/a	n/a	feedback	s574
408.866	0.136	n/a	-1.0	n/a	columbia_card_task_fmri	n/a	n/a	-1.0	n/a	n/a	n/a	n/a	n/a	n/a	n/a	n/a	ITI	s574
409.007	0.097	-0.0147986489107987	draw_card	1.0	columbia_card_task_fmri	14.0	0.6875	89.0	-35.0	0.3125	16.0	1.0	5.0	-9.273495869596712	0.097	1.0	stim	s574
409.111	2.25	n/a	-1.0	n/a	columbia_card_task_fmri	n/a	n/a	-1.0	n/a	n/a	n/a	n/a	n/a	n/a	n/a	n/a	feedback	s574
411.361	0.34	n/a	-1.0	n/a	columbia_card_task_fmri	n/a	n/a	-1.0	n/a	n/a	n/a	n/a	n/a	n/a	n/a	n/a	ITI	s574
411.706	2.396	5.164368017755868	draw_card	0.0	columbia_card_task_fmri	16.0	0.8666666666666667	89.0	-75.0	0.1333333333333333	15.0	1.0	2.0	-1.0613874871401308	2.396	n/a	stim	s574
414.106	0.631	4.297701351089203	draw_card	0.0	columbia_card_task_fmri	16.0	0.8571428571428572	89.0	-75.0	0.1428571428571428	15.0	2.0	2.0	-0.1528488322816557	0.631	n/a	stim	s574
414.742	2.059	3.2977013510892013	draw_card	0.0	columbia_card_task_fmri	16.0	0.8461538461538461	89.0	-75.0	0.1538461538461538	15.0	3.0	2.0	0.8358988511382037	2.059	n/a	stim	s574
416.807	0.44	2.131034684422535	draw_card	1.0	columbia_card_task_fmri	16.0	0.8333333333333334	89.0	-75.0	0.1666666666666666	15.0	4.0	2.0	1.9158698290979288	0.44	4.0	stim	s574
417.255	2.25	n/a	-1.0	n/a	columbia_card_task_fmri	n/a	n/a	-1.0	n/a	n/a	n/a	n/a	n/a	n/a	n/a	n/a	feedback	s574
419.505	0.068	n/a	-1.0	n/a	columbia_card_task_fmri	n/a	n/a	-1.0	n/a	n/a	n/a	n/a	n/a	n/a	n/a	n/a	ITI	s574
419.579	0.156	5.831034684422535	draw_card	1.0	columbia_card_task_fmri	16.0	0.8666666666666667	89.0	-70.0	0.1333333333333333	15.0	1.0	2.0	-2.7594803290451964	0.156	1.0	stim	s574
419.745	2.25	n/a	-1.0	n/a	columbia_card_task_fmri	n/a	n/a	-1.0	n/a	n/a	n/a	n/a	n/a	n/a	n/a	n/a	feedback	s574
421.995	0.34	n/a	-1.0	n/a	columbia_card_task_fmri	n/a	n/a	-1.0	n/a	n/a	n/a	n/a	n/a	n/a	n/a	n/a	ITI	s574
422.342	0.615	3.1727013510892013	draw_card	0.0	columbia_card_task_fmri	8.0	0.9375	89.0	-90.0	0.0625	16.0	1.0	1.0	-8.26515536876618	0.615	n/a	stim	s574
422.964	0.263	2.764368017755868	draw_card	0.0	columbia_card_task_fmri	8.0	0.9333333333333332	89.0	-90.0	0.0666666666666666	16.0	2.0	1.0	-7.542731641145565	0.263	n/a	stim	s574
423.234	0.243	2.297701351089202	draw_card	0.0	columbia_card_task_fmri	8.0	0.9285714285714286	89.0	-90.0	0.0714285714285714	16.0	3.0	1.0	-6.750448165808432	0.243	n/a	stim	s574
423.484	0.213	1.759239812627663	draw_card	0.0	columbia_card_task_fmri	8.0	0.9230769230769232	89.0	-90.0	0.0769230769230769	16.0	4.0	1.0	-5.876426192887298	0.213	n/a	stim	s574
423.704	0.502	1.1310346844225343	end_round	0.0	columbia_card_task_fmri	8.0	0.9166666666666666	71.0	-90.0	0.0833333333333333	16.0	5.0	1.0	-4.905808630134846	0.502	4.0	stim	s574
424.216	2.25	n/a	-1.0	n/a	columbia_card_task_fmri	n/a	n/a	-1.0	n/a	n/a	n/a	n/a	n/a	n/a	n/a	n/a	feedback	s574
426.466	0.136	n/a	-1.0	n/a	columbia_card_task_fmri	n/a	n/a	-1.0	n/a	n/a	n/a	n/a	n/a	n/a	n/a	n/a	ITI	s574
426.609	0.694	4.735201351089201	draw_card	0.0	columbia_card_task_fmri	10.0	0.9375	89.0	-95.0	0.0625	16.0	1.0	1.0	-6.573086538160307	0.694	n/a	stim	s574
427.308	0.332	4.297701351089202	draw_card	0.0	columbia_card_task_fmri	10.0	0.9333333333333332	89.0	-95.0	0.0666666666666666	16.0	2.0	1.0	-5.79891663783329	0.332	n/a	stim	s574
427.644	0.196	3.797701351089202	draw_card	0.0	columbia_card_task_fmri	10.0	0.9285714285714286	89.0	-95.0	0.0714285714285714	16.0	3.0	1.0	-4.94989253578683	0.196	n/a	stim	s574
427.846	0.187	3.2207782741661246	draw_card	0.0	columbia_card_task_fmri	10.0	0.9230769230769232	89.0	-95.0	0.0769230769230769	16.0	4.0	1.0	-4.013286579675292	0.187	n/a	stim	s574
428.038	0.181	2.5477013510892013	draw_card	1.0	columbia_card_task_fmri	10.0	0.9166666666666666	89.0	-95.0	0.0833333333333333	16.0	5.0	1.0	-2.973179970811476	0.181	5.0	stim	s574
428.226	2.25	n/a	-1.0	n/a	columbia_card_task_fmri	n/a	n/a	-1.0	n/a	n/a	n/a	n/a	n/a	n/a	n/a	n/a	feedback	s574
430.476	0.068	n/a	-1.0	n/a	columbia_card_task_fmri	n/a	n/a	-1.0	n/a	n/a	n/a	n/a	n/a	n/a	n/a	n/a	ITI	s574
430.549	0.213	5.672701351089201	draw_card	0.0	columbia_card_task_fmri	15.0	0.875	89.0	-70.0	0.125	16.0	1.0	2.0	-3.881602074554685	0.213	n/a	stim	s574
430.767	0.187	4.964368017755867	draw_card	0.0	columbia_card_task_fmri	15.0	0.8666666666666667	89.0	-70.0	0.1333333333333333	16.0	2.0	2.0	-3.099076619714946	0.187	n/a	stim	s574
430.958	0.369	4.154844208232059	draw_card	0.0	columbia_card_task_fmri	15.0	0.8571428571428572	89.0	-70.0	0.1428571428571428	16.0	3.0	2.0	-2.250547437199863	0.369	n/a	stim	s574
431.334	0.184	3.220778274166123	draw_card	0.0	columbia_card_task_fmri	15.0	0.8461538461538461	89.0	-70.0	0.1538461538461538	16.0	4.0	2.0	-1.327100427378351	0.184	n/a	stim	s574
431.523	0.357	2.131034684422535	draw_card	0.0	columbia_card_task_fmri	15.0	0.8333333333333334	89.0	-70.0	0.1666666666666666	16.0	5.0	2.0	-0.3184476339887609	0.357	n/a	stim	s574
431.885	0.179	0.8431558965437445	end_round	0.0	columbia_card_task_fmri	15.0	0.8181818181818181	71.0	-70.0	0.1818181818181818	16.0	6.0	2.0	0.7870683884518499	0.179	5.0	stim	s574
432.071	2.25	n/a	-1.0	n/a	columbia_card_task_fmri	n/a	n/a	-1.0	n/a	n/a	n/a	n/a	n/a	n/a	n/a	n/a	feedback	s574
434.321	0.068	n/a	-1.0	n/a	columbia_card_task_fmri	n/a	n/a	-1.0	n/a	n/a	n/a	n/a	n/a	n/a	n/a	n/a	ITI	s574
434.393	0.274	4.672701351089201	draw_card	0.0	columbia_card_task_fmri	16.0	0.875	89.0	-85.0	0.125	16.0	1.0	2.0	1.4051619405608875	0.274	n/a	stim	s574
434.673	0.193	3.8310346844225354	draw_card	0.0	columbia_card_task_fmri	16.0	0.8666666666666667	89.0	-85.0	0.1333333333333333	16.0	2.0	2.0	2.335267051601498	0.193	n/a	stim	s574
434.871	0.154	2.869129922517774	draw_card	1.0	columbia_card_task_fmri	16.0	0.8571428571428572	89.0	-85.0	0.1428571428571428	16.0	3.0	2.0	3.3438071165154994	0.154	3.0	stim	s574
435.034	2.25	n/a	-1.0	n/a	columbia_card_task_fmri	n/a	n/a	-1.0	n/a	n/a	n/a	n/a	n/a	n/a	n/a	n/a	feedback	s574
437.284	0.068	n/a	-1.0	n/a	columbia_card_task_fmri	n/a	n/a	-1.0	n/a	n/a	n/a	n/a	n/a	n/a	n/a	n/a	ITI	s574
