onset	duration	SS_delay	correct_response	experiment_exp_id	key_press	response_time	stopped	trial_type	worker_id
3.02	0.85	0.1	89.0	stop_signal	-1.0	n/a	True	stop_success	s574
6.092	0.85	0.15	89.0	stop_signal	89.0	0.474	False	stop_failure	s574
8.345	0.85	0.1	89.0	stop_signal	89.0	0.52	False	go	s574
10.735	0.85	0.1	71.0	stop_signal	71.0	0.448	False	stop_failure	s574
13.122	0.85	0.05	89.0	stop_signal	89.0	0.397	False	go	s574
15.647	0.85	0.05	71.0	stop_signal	71.0	0.579	False	go	s574
18.034	0.85	0.05	71.0	stop_signal	71.0	0.411	False	go	s574
20.423	0.85	0.05	71.0	stop_signal	-1.0	n/a	True	stop_success	s574
23.221	0.85	0.1	89.0	stop_signal	71.0	0.423	False	go	s574
25.613	0.85	0.1	71.0	stop_signal	-1.0	n/a	True	stop_success	s574
27.869	0.85	0.15	71.0	stop_signal	-1.0	n/a	True	stop_success	s574
30.394	0.85	0.2	71.0	stop_signal	-1.0	n/a	True	stop_success	s574
32.782	0.85	0.25	71.0	stop_signal	71.0	0.614	False	go	s574
35.17	0.85	0.25	89.0	stop_signal	-1.0	n/a	True	stop_success	s574
37.423	0.85	0.3	89.0	stop_signal	89.0	0.468	False	go	s574
39.814	0.85	0.3	71.0	stop_signal	71.0	0.572	False	go	s574
42.067	0.85	0.3	71.0	stop_signal	71.0	0.455	False	stop_failure	s574
44.323	0.85	0.25	89.0	stop_signal	89.0	0.561	False	go	s574
46.574	0.85	0.25	71.0	stop_signal	71.0	0.568	False	go	s574
48.963	0.85	0.25	71.0	stop_signal	71.0	0.443	False	stop_failure	s574
51.219	0.85	0.2	89.0	stop_signal	-1.0	n/a	True	stop_success	s574
53.472	0.85	0.25	71.0	stop_signal	71.0	0.588	False	stop_failure	s574
55.862	0.85	0.2	89.0	stop_signal	-1.0	n/a	True	stop_success	s574
58.25	0.85	0.25	89.0	stop_signal	89.0	0.492	False	go	s574
60.505	0.85	0.25	89.0	stop_signal	-1.0	n/a	True	stop_success	s574
63.03	0.85	0.3	71.0	stop_signal	71.0	0.545	False	go	s574
65.286	0.85	0.3	89.0	stop_signal	89.0	0.541	False	go	s574
67.678	0.85	0.3	89.0	stop_signal	89.0	0.584	False	go	s574
69.935	0.85	0.3	89.0	stop_signal	-1.0	n/a	True	stop_success	s574
72.188	0.85	0.35	89.0	stop_signal	89.0	0.418	False	go	s574
74.58	0.85	0.35	89.0	stop_signal	89.0	0.398	False	go	s574
77.105	0.85	0.35	71.0	stop_signal	71.0	0.573	False	go	s574
79.497	0.85	0.35	71.0	stop_signal	71.0	0.488	False	go	s574
82.023	0.85	0.35	89.0	stop_signal	89.0	0.565	False	stop_failure	s574
84.959	0.85	0.3	89.0	stop_signal	89.0	0.401	False	go	s574
87.487	0.85	0.3	71.0	stop_signal	71.0	0.646	False	go	s574
90.015	0.85	0.3	71.0	stop_signal	71.0	0.46	False	go	s574
92.271	0.85	0.3	89.0	stop_signal	89.0	0.613	False	stop_failure	s574
94.797	0.85	0.25	71.0	stop_signal	71.0	0.542	False	go	s574
97.189	0.85	0.25	89.0	stop_signal	89.0	0.519	False	go	s574
99.442	0.85	0.25	71.0	stop_signal	71.0	0.568	False	go	s574
112.347	0.85	0.25	89.0	stop_signal	89.0	0.523	False	go	s574
114.6	0.85	0.25	71.0	stop_signal	-1.0	n/a	True	stop_success	s574
116.992	0.85	0.3	71.0	stop_signal	71.0	0.498	False	go	s574
119.521	0.85	0.3	71.0	stop_signal	-1.0	n/a	True	stop_success	s574
121.774	0.85	0.35	89.0	stop_signal	89.0	0.442	False	stop_failure	s574
124.163	0.85	0.3	71.0	stop_signal	71.0	0.512	False	go	s574
126.827	0.85	0.3	89.0	stop_signal	-1.0	n/a	True	stop_success	s574
129.081	0.85	0.35	89.0	stop_signal	89.0	0.503	False	go	s574
132.286	0.85	0.35	71.0	stop_signal	71.0	0.796	False	go	s574
134.676	0.85	0.35	71.0	stop_signal	71.0	0.389	False	go	s574
137.068	0.85	0.35	89.0	stop_signal	89.0	0.391	False	stop_failure	s574
139.596	0.85	0.3	89.0	stop_signal	89.0	0.543	False	go	s574
141.852	0.85	0.3	71.0	stop_signal	-1.0	n/a	True	stop_success	s574
144.108	0.85	0.35	71.0	stop_signal	71.0	0.542	False	stop_failure	s574
146.361	0.85	0.3	71.0	stop_signal	71.0	0.59	False	go	s574
149.296	0.85	0.3	71.0	stop_signal	71.0	0.573	False	go	s574
151.82	0.85	0.3	71.0	stop_signal	71.0	0.485	False	go	s574
154.348	0.85	0.3	89.0	stop_signal	89.0	0.481	False	go	s574
156.6	0.85	0.3	71.0	stop_signal	71.0	0.488	False	stop_failure	s574
159.128	0.85	0.25	89.0	stop_signal	-1.0	n/a	True	stop_success	s574
161.379	0.85	0.3	89.0	stop_signal	71.0	0.636	False	go	s574
163.767	0.85	0.3	89.0	stop_signal	89.0	0.497	False	stop_failure	s574
166.021	0.85	0.25	71.0	stop_signal	71.0	0.743	False	go	s574
168.682	0.85	0.25	71.0	stop_signal	71.0	0.4	False	go	s574
171.346	0.85	0.25	71.0	stop_signal	71.0	0.578	False	go	s574
173.602	0.85	0.25	71.0	stop_signal	71.0	0.644	False	go	s574
175.856	0.85	0.25	89.0	stop_signal	89.0	0.59	False	go	s574
178.248	0.85	0.25	71.0	stop_signal	71.0	0.394	False	stop_failure	s574
181.046	0.85	0.2	71.0	stop_signal	-1.0	n/a	True	stop_success	s574
183.438	0.85	0.25	89.0	stop_signal	-1.0	n/a	True	stop_success	s574
185.694	0.85	0.3	89.0	stop_signal	89.0	0.447	False	stop_failure	s574
187.95	0.85	0.25	71.0	stop_signal	-1.0	n/a	True	stop_success	s574
190.203	0.85	0.3	71.0	stop_signal	71.0	0.576	False	go	s574
192.867	0.85	0.3	71.0	stop_signal	71.0	0.613	False	go	s574
195.529	0.85	0.3	89.0	stop_signal	89.0	0.47	False	go	s574
197.785	0.85	0.3	89.0	stop_signal	89.0	0.572	False	go	s574
200.313	0.85	0.3	89.0	stop_signal	89.0	0.416	False	go	s574
202.569	0.85	0.3	71.0	stop_signal	-1.0	n/a	True	stop_success	s574
205.097	0.85	0.35	71.0	stop_signal	89.0	0.551	False	go	s574
207.621	0.85	0.35	89.0	stop_signal	-1.0	n/a	True	stop_success	s574
210.145	0.85	0.4	71.0	stop_signal	-1.0	n/a	True	stop_success	s574
212.537	0.85	0.45	89.0	stop_signal	89.0	0.507	False	stop_failure	s574
225.573	0.85	0.4	89.0	stop_signal	89.0	0.653	False	go	s574
228.098	0.85	0.4	89.0	stop_signal	89.0	0.512	False	go	s574
230.49	0.85	0.4	89.0	stop_signal	89.0	0.508	False	go	s574
232.746	0.85	0.4	71.0	stop_signal	89.0	0.387	False	go	s574
235.274	0.85	0.4	89.0	stop_signal	89.0	0.501	False	go	s574
238.074	0.85	0.4	71.0	stop_signal	71.0	0.545	False	stop_failure	s574
240.6	0.85	0.35	71.0	stop_signal	-1.0	n/a	True	stop_success	s574
242.989	0.85	0.4	89.0	stop_signal	89.0	0.645	False	go	s574
245.243	0.85	0.4	89.0	stop_signal	89.0	0.456	False	stop_failure	s574
247.499	0.85	0.35	71.0	stop_signal	-1.0	n/a	True	stop_success	s574
249.752	0.85	0.4	71.0	stop_signal	-1.0	n/a	True	stop_success	s574
252.006	0.85	0.45	71.0	stop_signal	71.0	0.745	False	go	s574
254.533	0.85	0.45	89.0	stop_signal	89.0	0.428	False	go	s574
256.785	0.85	0.45	89.0	stop_signal	89.0	0.54	False	stop_failure	s574
259.04	0.85	0.4	89.0	stop_signal	89.0	0.449	False	go	s574
261.295	0.85	0.4	89.0	stop_signal	89.0	0.624	False	go	s574
263.548	0.85	0.4	71.0	stop_signal	89.0	0.412	False	go	s574
265.937	0.85	0.4	89.0	stop_signal	89.0	0.72	False	go	s574
268.193	0.85	0.4	89.0	stop_signal	89.0	0.54	False	stop_failure	s574
270.447	0.85	0.35	89.0	stop_signal	89.0	0.65	False	go	s574
272.699	0.85	0.35	71.0	stop_signal	71.0	0.34	False	stop_failure	s574
274.953	0.85	0.3	89.0	stop_signal	89.0	0.433	False	stop_failure	s574
277.481	0.85	0.25	89.0	stop_signal	89.0	0.618	False	go	s574
279.873	0.85	0.25	71.0	stop_signal	71.0	0.71	False	go	s574
282.402	0.85	0.25	71.0	stop_signal	-1.0	n/a	True	stop_success	s574
284.655	0.85	0.3	89.0	stop_signal	89.0	0.628	False	go	s574
287.044	0.85	0.3	89.0	stop_signal	89.0	0.678	False	go	s574
289.436	0.85	0.3	71.0	stop_signal	71.0	0.389	False	go	s574
291.69	0.85	0.3	71.0	stop_signal	71.0	0.545	False	go	s574
294.079	0.85	0.3	89.0	stop_signal	89.0	0.54	False	go	s574
296.469	0.85	0.3	89.0	stop_signal	89.0	0.44	False	stop_failure	s574
298.858	0.85	0.25	89.0	stop_signal	89.0	0.457	False	go	s574
301.522	0.85	0.25	71.0	stop_signal	71.0	0.623	False	go	s574
304.05	0.85	0.25	71.0	stop_signal	89.0	0.39	False	stop_failure	s574
306.304	0.85	0.2	71.0	stop_signal	-1.0	n/a	True	stop_success	s574
309.24	0.85	0.25	71.0	stop_signal	71.0	0.594	False	go	s574
311.494	0.85	0.25	89.0	stop_signal	89.0	0.461	False	go	s574
314.019	0.85	0.25	89.0	stop_signal	89.0	0.426	False	stop_failure	s574
316.275	0.85	0.2	71.0	stop_signal	71.0	0.74	False	go	s574
318.531	0.85	0.2	71.0	stop_signal	71.0	0.524	False	go	s574
320.785	0.85	0.2	89.0	stop_signal	71.0	0.366	False	go	s574
323.038	0.85	0.2	71.0	stop_signal	71.0	0.517	False	go	s574
