onset	duration	planning	condition	current_position	exp_stage	experiment_exp_id	goal_state	key_press	problem_id	response_time	start_state	trial_id	worker_id
-58.358	0.0	0	n/a	n/a	n/a	ward_and_allport	n/a	32.0	n/a	23.551	n/a	instructions	s574
3.014	5.541	1	UA_with_intermediate	1,0,0,2,0,0,0,0,0	practice	ward_and_allport	1,2,3,0,0,0,0,0,0	71.0	0.0	5.541	1,0,0,2,3,0,0,0,0	to_hand	s574
8.557	1.052	0	UA_with_intermediate	1,0,0,2,0,0,3,0,0	practice	ward_and_allport	1,2,3,0,0,0,0,0,0	82.0	0.0	1.052	1,0,0,2,3,0,0,0,0	to_board	s574
9.612	0.404	0	UA_with_intermediate	1,0,0,0,0,0,3,0,0	practice	ward_and_allport	1,2,3,0,0,0,0,0,0	71.0	0.0	0.404	1,0,0,2,3,0,0,0,0	to_hand	s574
10.018	0.279	0	UA_with_intermediate	1,2,0,0,0,0,3,0,0	practice	ward_and_allport	1,2,3,0,0,0,0,0,0	89.0	0.0	0.279	1,0,0,2,3,0,0,0,0	to_board	s574
10.299	0.47	0	UA_with_intermediate	1,2,0,0,0,0,0,0,0	practice	ward_and_allport	1,2,3,0,0,0,0,0,0	82.0	0.0	0.47	1,0,0,2,3,0,0,0,0	to_hand	s574
10.77	0.247	0	UA_with_intermediate	1,2,3,0,0,0,0,0,0	practice	ward_and_allport	1,2,3,0,0,0,0,0,0	89.0	0.0	0.247	1,0,0,2,3,0,0,0,0	to_board	s574
11.02	1.0	0	UA_with_intermediate	n/a	practice	ward_and_allport	n/a	-1.0	0.0	n/a	n/a	feedback	s574
13.523	3.796	1	UA_with_intermediate	1,2,0,0,0,0,0,0,0	practice	ward_and_allport	1,3,2,0,0,0,0,0,0	71.0	1.0	3.796	1,2,0,3,0,0,0,0,0	to_hand	s574
17.32	0.264	0	UA_with_intermediate	1,2,0,0,0,0,3,0,0	practice	ward_and_allport	1,3,2,0,0,0,0,0,0	82.0	1.0	0.264	1,2,0,3,0,0,0,0,0	to_board	s574
17.585	1.487	0	UA_with_intermediate	1,0,0,0,0,0,3,0,0	practice	ward_and_allport	1,3,2,0,0,0,0,0,0	89.0	1.0	1.487	1,2,0,3,0,0,0,0,0	to_hand	s574
19.074	0.262	0	UA_with_intermediate	1,0,0,2,0,0,3,0,0	practice	ward_and_allport	1,3,2,0,0,0,0,0,0	71.0	1.0	0.262	1,2,0,3,0,0,0,0,0	to_board	s574
19.339	0.338	0	UA_with_intermediate	1,0,0,2,0,0,0,0,0	practice	ward_and_allport	1,3,2,0,0,0,0,0,0	82.0	1.0	0.338	1,2,0,3,0,0,0,0,0	to_hand	s574
19.679	0.221	0	UA_with_intermediate	1,3,0,2,0,0,0,0,0	practice	ward_and_allport	1,3,2,0,0,0,0,0,0	89.0	1.0	0.221	1,2,0,3,0,0,0,0,0	to_board	s574
19.902	0.649	0	UA_with_intermediate	1,3,0,0,0,0,0,0,0	practice	ward_and_allport	1,3,2,0,0,0,0,0,0	71.0	1.0	0.649	1,2,0,3,0,0,0,0,0	to_hand	s574
20.553	0.13	0	UA_with_intermediate	1,3,2,0,0,0,0,0,0	practice	ward_and_allport	1,3,2,0,0,0,0,0,0	89.0	1.0	0.13	1,2,0,3,0,0,0,0,0	to_board	s574
20.686	1.0	0	UA_with_intermediate	n/a	practice	ward_and_allport	n/a	-1.0	1.0	n/a	n/a	feedback	s574
21.686	1.1	0	UA_with_intermediate	n/a	practice	ward_and_allport	n/a	-1.0	1.0	n/a	n/a	ITI	s574
22.79	3.606	1	UA_without_intermediate	0,0,0,1,2,0,0,0,0	practice	ward_and_allport	3,2,1,0,0,0,0,0,0	82.0	2.0	3.606	0,0,0,1,2,0,3,0,0	to_hand	s574
26.398	0.297	0	UA_without_intermediate	3,0,0,1,2,0,0,0,0	practice	ward_and_allport	3,2,1,0,0,0,0,0,0	89.0	2.0	0.297	0,0,0,1,2,0,3,0,0	to_board	s574
26.697	1.507	0	UA_without_intermediate	3,0,0,1,0,0,0,0,0	practice	ward_and_allport	3,2,1,0,0,0,0,0,0	71.0	2.0	1.507	0,0,0,1,2,0,3,0,0	to_hand	s574
28.204	0.244	0	UA_without_intermediate	3,2,0,1,0,0,0,0,0	practice	ward_and_allport	3,2,1,0,0,0,0,0,0	89.0	2.0	0.244	0,0,0,1,2,0,3,0,0	to_board	s574
28.45	0.335	0	UA_without_intermediate	3,2,0,0,0,0,0,0,0	practice	ward_and_allport	3,2,1,0,0,0,0,0,0	71.0	2.0	0.335	0,0,0,1,2,0,3,0,0	to_hand	s574
28.787	0.136	0	UA_without_intermediate	3,2,1,0,0,0,0,0,0	practice	ward_and_allport	3,2,1,0,0,0,0,0,0	89.0	2.0	0.136	0,0,0,1,2,0,3,0,0	to_board	s574
28.926	1.0	0	UA_without_intermediate	n/a	practice	ward_and_allport	n/a	-1.0	2.0	n/a	n/a	feedback	s574
29.926	1.2	0	UA_without_intermediate	n/a	practice	ward_and_allport	n/a	-1.0	2.0	n/a	n/a	ITI	s574
31.128	2.777	1	UA_without_intermediate	0,0,0,1,0,0,3,0,0	practice	ward_and_allport	2,3,1,0,0,0,0,0,0	71.0	3.0	2.777	0,0,0,1,2,0,3,0,0	to_hand	s574
33.907	1.469	0	UA_without_intermediate	2,0,0,1,0,0,3,0,0	practice	ward_and_allport	2,3,1,0,0,0,0,0,0	89.0	3.0	1.469	0,0,0,1,2,0,3,0,0	to_board	s574
35.379	0.445	0	UA_without_intermediate	2,0,0,1,0,0,0,0,0	practice	ward_and_allport	2,3,1,0,0,0,0,0,0	82.0	3.0	0.445	0,0,0,1,2,0,3,0,0	to_hand	s574
35.825	0.229	0	UA_without_intermediate	2,3,0,1,0,0,0,0,0	practice	ward_and_allport	2,3,1,0,0,0,0,0,0	89.0	3.0	0.229	0,0,0,1,2,0,3,0,0	to_board	s574
36.057	0.257	0	UA_without_intermediate	2,3,0,0,0,0,0,0,0	practice	ward_and_allport	2,3,1,0,0,0,0,0,0	71.0	3.0	0.257	0,0,0,1,2,0,3,0,0	to_hand	s574
36.315	0.16	0	UA_without_intermediate	2,3,1,0,0,0,0,0,0	practice	ward_and_allport	2,3,1,0,0,0,0,0,0	89.0	3.0	0.16	0,0,0,1,2,0,3,0,0	to_board	s574
36.481	1.0	0	UA_without_intermediate	n/a	practice	ward_and_allport	n/a	-1.0	3.0	n/a	n/a	feedback	s574
37.481	1.0	0	UA_without_intermediate	n/a	practice	ward_and_allport	n/a	-1.0	3.0	n/a	n/a	ITI	s574
40.486	3.375	1	PA_with_intermediate	0,0,0,0,0,0,1,2,0	test	ward_and_allport	0,0,0,2,3,0,1,0,0	82.0	0.0	3.375	0,0,0,0,0,0,1,2,3	to_hand	s574
43.862	0.996	0	PA_with_intermediate	3,0,0,0,0,0,1,2,0	test	ward_and_allport	0,0,0,2,3,0,1,0,0	89.0	0.0	0.996	0,0,0,0,0,0,1,2,3	to_board	s574
44.861	1.435	0	PA_with_intermediate	3,0,0,0,0,0,1,0,0	test	ward_and_allport	0,0,0,2,3,0,1,0,0	82.0	0.0	1.435	0,0,0,0,0,0,1,2,3	to_hand	s574
46.296	0.763	0	PA_with_intermediate	3,0,0,2,0,0,1,0,0	test	ward_and_allport	0,0,0,2,3,0,1,0,0	71.0	0.0	0.763	0,0,0,0,0,0,1,2,3	to_board	s574
47.061	1.866	0	PA_with_intermediate	0,0,0,2,0,0,1,0,0	test	ward_and_allport	0,0,0,2,3,0,1,0,0	89.0	0.0	1.866	0,0,0,0,0,0,1,2,3	to_hand	s574
48.928	0.48	0	PA_with_intermediate	0,0,0,2,3,0,1,0,0	test	ward_and_allport	0,0,0,2,3,0,1,0,0	71.0	0.0	0.48	0,0,0,0,0,0,1,2,3	to_board	s574
49.414	1.0	0	PA_with_intermediate	n/a	test	ward_and_allport	n/a	-1.0	0.0	n/a	n/a	feedback	s574
50.414	1.408	0	PA_with_intermediate	n/a	test	ward_and_allport	n/a	-1.0	0.0	n/a	n/a	ITI	s574
51.823	2.49	1	PA_without_intermediate	0,0,0,0,0,0,1,2,0	test	ward_and_allport	3,1,0,2,0,0,0,0,0	82.0	1.0	2.49	0,0,0,0,0,0,1,2,3	to_hand	s574
54.315	1.56	0	PA_without_intermediate	3,0,0,0,0,0,1,2,0	test	ward_and_allport	3,1,0,2,0,0,0,0,0	89.0	1.0	1.56	0,0,0,0,0,0,1,2,3	to_board	s574
55.877	1.34	0	PA_without_intermediate	3,0,0,0,0,0,1,0,0	test	ward_and_allport	3,1,0,2,0,0,0,0,0	82.0	1.0	1.34	0,0,0,0,0,0,1,2,3	to_hand	s574
57.218	0.419	0	PA_without_intermediate	3,0,0,2,0,0,1,0,0	test	ward_and_allport	3,1,0,2,0,0,0,0,0	71.0	1.0	0.419	0,0,0,0,0,0,1,2,3	to_board	s574
57.639	0.513	0	PA_without_intermediate	3,0,0,2,0,0,0,0,0	test	ward_and_allport	3,1,0,2,0,0,0,0,0	82.0	1.0	0.513	0,0,0,0,0,0,1,2,3	to_hand	s574
58.154	0.185	0	PA_without_intermediate	3,1,0,2,0,0,0,0,0	test	ward_and_allport	3,1,0,2,0,0,0,0,0	89.0	1.0	0.185	0,0,0,0,0,0,1,2,3	to_board	s574
58.345	1.0	0	PA_without_intermediate	n/a	test	ward_and_allport	n/a	-1.0	1.0	n/a	n/a	feedback	s574
59.345	1.68	0	PA_without_intermediate	n/a	test	ward_and_allport	n/a	-1.0	1.0	n/a	n/a	ITI	s574
61.028	2.659	1	PA_with_intermediate	0,0,0,0,0,0,1,2,0	test	ward_and_allport	2,0,0,0,0,0,1,3,0	82.0	2.0	2.659	0,0,0,0,0,0,1,2,3	to_hand	s574
63.688	0.599	0	PA_with_intermediate	0,0,0,3,0,0,1,2,0	test	ward_and_allport	2,0,0,0,0,0,1,3,0	71.0	2.0	0.599	0,0,0,0,0,0,1,2,3	to_board	s574
64.29	0.492	0	PA_with_intermediate	0,0,0,3,0,0,1,0,0	test	ward_and_allport	2,0,0,0,0,0,1,3,0	82.0	2.0	0.492	0,0,0,0,0,0,1,2,3	to_hand	s574
64.783	0.29	0	PA_with_intermediate	2,0,0,3,0,0,1,0,0	test	ward_and_allport	2,0,0,0,0,0,1,3,0	89.0	2.0	0.29	0,0,0,0,0,0,1,2,3	to_board	s574
65.076	0.369	0	PA_with_intermediate	2,0,0,0,0,0,1,0,0	test	ward_and_allport	2,0,0,0,0,0,1,3,0	71.0	2.0	0.369	0,0,0,0,0,0,1,2,3	to_hand	s574
65.446	0.559	0	PA_with_intermediate	2,0,0,0,0,0,1,3,0	test	ward_and_allport	2,0,0,0,0,0,1,3,0	82.0	2.0	0.559	0,0,0,0,0,0,1,2,3	to_board	s574
66.012	1.0	0	PA_with_intermediate	n/a	test	ward_and_allport	n/a	-1.0	2.0	n/a	n/a	feedback	s574
67.012	3.72	0	PA_with_intermediate	n/a	test	ward_and_allport	n/a	-1.0	2.0	n/a	n/a	ITI	s574
70.735	2.186	1	PA_without_intermediate	1,2,0,0,0,0,0,0,0	test	ward_and_allport	0,0,0,3,2,0,1,0,0	89.0	3.0	2.186	1,2,3,0,0,0,0,0,0	to_hand	s574
72.921	1.156	0	PA_without_intermediate	1,2,0,3,0,0,0,0,0	test	ward_and_allport	0,0,0,3,2,0,1,0,0	71.0	3.0	1.156	1,2,3,0,0,0,0,0,0	to_board	s574
74.079	0.59	0	PA_without_intermediate	1,0,0,3,0,0,0,0,0	test	ward_and_allport	0,0,0,3,2,0,1,0,0	89.0	3.0	0.59	1,2,3,0,0,0,0,0,0	to_hand	s574
74.671	0.693	0	PA_without_intermediate	1,0,0,3,2,0,0,0,0	test	ward_and_allport	0,0,0,3,2,0,1,0,0	71.0	3.0	0.693	1,2,3,0,0,0,0,0,0	to_board	s574
75.368	0.453	0	PA_without_intermediate	0,0,0,3,2,0,0,0,0	test	ward_and_allport	0,0,0,3,2,0,1,0,0	89.0	3.0	0.453	1,2,3,0,0,0,0,0,0	to_hand	s574
75.823	0.325	0	PA_without_intermediate	0,0,0,3,2,0,1,0,0	test	ward_and_allport	0,0,0,3,2,0,1,0,0	82.0	3.0	0.325	1,2,3,0,0,0,0,0,0	to_board	s574
76.153	1.0	0	PA_without_intermediate	n/a	test	ward_and_allport	n/a	-1.0	3.0	n/a	n/a	feedback	s574
77.153	2.224	0	PA_without_intermediate	n/a	test	ward_and_allport	n/a	-1.0	3.0	n/a	n/a	ITI	s574
79.379	2.666	1	PA_without_intermediate	1,2,0,0,0,0,0,0,0	test	ward_and_allport	0,0,0,1,0,0,3,2,0	89.0	4.0	2.666	1,2,3,0,0,0,0,0,0	to_hand	s574
82.047	0.711	0	PA_without_intermediate	1,2,0,0,0,0,3,0,0	test	ward_and_allport	0,0,0,1,0,0,3,2,0	82.0	4.0	0.711	1,2,3,0,0,0,0,0,0	to_board	s574
82.761	0.718	0	PA_without_intermediate	1,0,0,0,0,0,3,0,0	test	ward_and_allport	0,0,0,1,0,0,3,2,0	89.0	4.0	0.718	1,2,3,0,0,0,0,0,0	to_hand	s574
83.48	0.281	0	PA_without_intermediate	1,0,0,0,0,0,3,2,0	test	ward_and_allport	0,0,0,1,0,0,3,2,0	82.0	4.0	0.281	1,2,3,0,0,0,0,0,0	to_board	s574
83.763	0.289	0	PA_without_intermediate	0,0,0,0,0,0,3,2,0	test	ward_and_allport	0,0,0,1,0,0,3,2,0	89.0	4.0	0.289	1,2,3,0,0,0,0,0,0	to_hand	s574
84.054	0.203	0	PA_without_intermediate	0,0,0,1,0,0,3,2,0	test	ward_and_allport	0,0,0,1,0,0,3,2,0	71.0	4.0	0.203	1,2,3,0,0,0,0,0,0	to_board	s574
84.263	1.0	0	PA_without_intermediate	n/a	test	ward_and_allport	n/a	-1.0	4.0	n/a	n/a	feedback	s574
85.263	1.272	0	PA_without_intermediate	n/a	test	ward_and_allport	n/a	-1.0	4.0	n/a	n/a	ITI	s574
86.537	3.152	1	PA_with_intermediate	0,0,0,1,2,0,0,0,0	test	ward_and_allport	0,0,0,1,0,0,2,3,0	71.0	5.0	3.152	0,0,0,1,2,3,0,0,0	to_hand	s574
89.691	0.877	0	PA_with_intermediate	3,0,0,1,2,0,0,0,0	test	ward_and_allport	0,0,0,1,0,0,2,3,0	89.0	5.0	0.877	0,0,0,1,2,3,0,0,0	to_board	s574
90.572	0.333	0	PA_with_intermediate	3,0,0,1,0,0,0,0,0	test	ward_and_allport	0,0,0,1,0,0,2,3,0	71.0	5.0	0.333	0,0,0,1,2,3,0,0,0	to_hand	s574
90.906	0.336	0	PA_with_intermediate	3,0,0,1,0,0,2,0,0	test	ward_and_allport	0,0,0,1,0,0,2,3,0	82.0	5.0	0.336	0,0,0,1,2,3,0,0,0	to_board	s574
91.245	0.417	0	PA_with_intermediate	0,0,0,1,0,0,2,0,0	test	ward_and_allport	0,0,0,1,0,0,2,3,0	89.0	5.0	0.417	0,0,0,1,2,3,0,0,0	to_hand	s574
91.663	0.251	0	PA_with_intermediate	0,0,0,1,0,0,2,3,0	test	ward_and_allport	0,0,0,1,0,0,2,3,0	82.0	5.0	0.251	0,0,0,1,2,3,0,0,0	to_board	s574
91.922	1.0	0	PA_with_intermediate	n/a	test	ward_and_allport	n/a	-1.0	5.0	n/a	n/a	feedback	s574
92.922	2.632	0	PA_with_intermediate	n/a	test	ward_and_allport	n/a	-1.0	5.0	n/a	n/a	ITI	s574
95.557	2.308	1	PA_without_intermediate	1,2,0,0,0,0,0,0,0	test	ward_and_allport	0,0,0,2,0,0,3,1,0	89.0	6.0	2.308	1,2,3,0,0,0,0,0,0	to_hand	s574
97.867	0.368	0	PA_without_intermediate	1,2,0,0,0,0,3,0,0	test	ward_and_allport	0,0,0,2,0,0,3,1,0	82.0	6.0	0.368	1,2,3,0,0,0,0,0,0	to_board	s574
98.239	2.176	0	PA_without_intermediate	1,0,0,0,0,0,3,0,0	test	ward_and_allport	0,0,0,2,0,0,3,1,0	89.0	6.0	2.176	1,2,3,0,0,0,0,0,0	to_hand	s574
100.415	0.144	0	PA_without_intermediate	1,0,0,2,0,0,3,0,0	test	ward_and_allport	0,0,0,2,0,0,3,1,0	71.0	6.0	0.144	1,2,3,0,0,0,0,0,0	to_board	s574
100.562	0.522	0	PA_without_intermediate	0,0,0,2,0,0,3,0,0	test	ward_and_allport	0,0,0,2,0,0,3,1,0	89.0	6.0	0.522	1,2,3,0,0,0,0,0,0	to_hand	s574
101.086	0.132	0	PA_without_intermediate	0,0,0,2,0,0,3,1,0	test	ward_and_allport	0,0,0,2,0,0,3,1,0	82.0	6.0	0.132	1,2,3,0,0,0,0,0,0	to_board	s574
101.222	1.0	0	PA_without_intermediate	n/a	test	ward_and_allport	n/a	-1.0	6.0	n/a	n/a	feedback	s574
102.222	1.408	0	PA_without_intermediate	n/a	test	ward_and_allport	n/a	-1.0	6.0	n/a	n/a	ITI	s574
103.633	2.579	1	PA_without_intermediate	0,0,0,0,0,0,1,2,0	test	ward_and_allport	2,0,0,3,1,0,0,0,0	82.0	7.0	2.579	0,0,0,0,0,0,1,2,3	to_hand	s574
106.213	0.13	0	PA_without_intermediate	0,0,0,3,0,0,1,2,0	test	ward_and_allport	2,0,0,3,1,0,0,0,0	71.0	7.0	0.13	0,0,0,0,0,0,1,2,3	to_board	s574
106.346	0.719	0	PA_without_intermediate	0,0,0,3,0,0,1,0,0	test	ward_and_allport	2,0,0,3,1,0,0,0,0	82.0	7.0	0.719	0,0,0,0,0,0,1,2,3	to_hand	s574
107.067	0.12	0	PA_without_intermediate	2,0,0,3,0,0,1,0,0	test	ward_and_allport	2,0,0,3,1,0,0,0,0	89.0	7.0	0.12	0,0,0,0,0,0,1,2,3	to_board	s574
107.19	2.418	0	PA_without_intermediate	2,0,0,3,0,0,0,0,0	test	ward_and_allport	2,0,0,3,1,0,0,0,0	82.0	7.0	2.418	0,0,0,0,0,0,1,2,3	to_hand	s574
109.609	0.095	0	PA_without_intermediate	2,0,0,3,1,0,0,0,0	test	ward_and_allport	2,0,0,3,1,0,0,0,0	71.0	7.0	0.095	0,0,0,0,0,0,1,2,3	to_board	s574
109.71	1.0	0	PA_without_intermediate	n/a	test	ward_and_allport	n/a	-1.0	7.0	n/a	n/a	feedback	s574
110.71	1.0	0	PA_without_intermediate	n/a	test	ward_and_allport	n/a	-1.0	7.0	n/a	n/a	ITI	s574
111.714	3.61	1	PA_with_intermediate	0,0,0,1,2,0,0,0,0	test	ward_and_allport	2,3,0,1,0,0,0,0,0	71.0	8.0	3.61	0,0,0,1,2,3,0,0,0	to_hand	s574
115.325	0.18	0	PA_with_intermediate	0,0,0,1,2,0,3,0,0	test	ward_and_allport	2,3,0,1,0,0,0,0,0	82.0	8.0	0.18	0,0,0,1,2,3,0,0,0	to_board	s574
115.508	0.544	0	PA_with_intermediate	0,0,0,1,0,0,3,0,0	test	ward_and_allport	2,3,0,1,0,0,0,0,0	71.0	8.0	0.544	0,0,0,1,2,3,0,0,0	to_hand	s574
116.053	0.079	0	PA_with_intermediate	2,0,0,1,0,0,3,0,0	test	ward_and_allport	2,3,0,1,0,0,0,0,0	89.0	8.0	0.079	0,0,0,1,2,3,0,0,0	to_board	s574
116.136	0.464	0	PA_with_intermediate	2,0,0,1,0,0,0,0,0	test	ward_and_allport	2,3,0,1,0,0,0,0,0	82.0	8.0	0.464	0,0,0,1,2,3,0,0,0	to_hand	s574
116.602	0.091	0	PA_with_intermediate	2,3,0,1,0,0,0,0,0	test	ward_and_allport	2,3,0,1,0,0,0,0,0	89.0	8.0	0.091	0,0,0,1,2,3,0,0,0	to_board	s574
116.699	1.0	0	PA_with_intermediate	n/a	test	ward_and_allport	n/a	-1.0	8.0	n/a	n/a	feedback	s574
117.699	1.0	0	PA_with_intermediate	n/a	test	ward_and_allport	n/a	-1.0	8.0	n/a	n/a	ITI	s574
118.704	3.99	1	PA_with_intermediate	1,2,0,0,0,0,0,0,0	test	ward_and_allport	1,0,0,0,0,0,2,3,0	89.0	9.0	3.99	1,2,3,0,0,0,0,0,0	to_hand	s574
122.695	0.119	0	PA_with_intermediate	1,2,0,3,0,0,0,0,0	test	ward_and_allport	1,0,0,0,0,0,2,3,0	71.0	9.0	0.119	1,2,3,0,0,0,0,0,0	to_board	s574
122.819	0.283	0	PA_with_intermediate	1,0,0,3,0,0,0,0,0	test	ward_and_allport	1,0,0,0,0,0,2,3,0	89.0	9.0	0.283	1,2,3,0,0,0,0,0,0	to_hand	s574
123.103	0.156	0	PA_with_intermediate	1,0,0,3,0,0,2,0,0	test	ward_and_allport	1,0,0,0,0,0,2,3,0	82.0	9.0	0.156	1,2,3,0,0,0,0,0,0	to_board	s574
123.263	0.418	0	PA_with_intermediate	1,0,0,0,0,0,2,0,0	test	ward_and_allport	1,0,0,0,0,0,2,3,0	71.0	9.0	0.418	1,2,3,0,0,0,0,0,0	to_hand	s574
123.683	0.209	0	PA_with_intermediate	1,0,0,0,0,0,2,3,0	test	ward_and_allport	1,0,0,0,0,0,2,3,0	82.0	9.0	0.209	1,2,3,0,0,0,0,0,0	to_board	s574
123.897	1.0	0	PA_with_intermediate	n/a	test	ward_and_allport	n/a	-1.0	9.0	n/a	n/a	feedback	s574
124.897	1.0	0	PA_with_intermediate	n/a	test	ward_and_allport	n/a	-1.0	9.0	n/a	n/a	ITI	s574
125.9	2.592	1	PA_with_intermediate	0,0,0,1,2,0,0,0,0	test	ward_and_allport	2,0,0,1,3,0,0,0,0	71.0	10.0	2.592	0,0,0,1,2,3,0,0,0	to_hand	s574
128.494	0.243	0	PA_with_intermediate	0,0,0,1,2,0,3,0,0	test	ward_and_allport	2,0,0,1,3,0,0,0,0	82.0	10.0	0.243	0,0,0,1,2,3,0,0,0	to_board	s574
128.742	1.358	0	PA_with_intermediate	0,0,0,1,0,0,3,0,0	test	ward_and_allport	2,0,0,1,3,0,0,0,0	71.0	10.0	1.358	0,0,0,1,2,3,0,0,0	to_hand	s574
130.101	0.096	0	PA_with_intermediate	2,0,0,1,0,0,3,0,0	test	ward_and_allport	2,0,0,1,3,0,0,0,0	89.0	10.0	0.096	0,0,0,1,2,3,0,0,0	to_board	s574
130.202	0.438	0	PA_with_intermediate	2,0,0,1,0,0,0,0,0	test	ward_and_allport	2,0,0,1,3,0,0,0,0	82.0	10.0	0.438	0,0,0,1,2,3,0,0,0	to_hand	s574
130.641	0.067	0	PA_with_intermediate	2,0,0,1,3,0,0,0,0	test	ward_and_allport	2,0,0,1,3,0,0,0,0	71.0	10.0	0.067	0,0,0,1,2,3,0,0,0	to_board	s574
130.716	1.0	0	PA_with_intermediate	n/a	test	ward_and_allport	n/a	-1.0	10.0	n/a	n/a	feedback	s574
131.716	1.408	0	PA_with_intermediate	n/a	test	ward_and_allport	n/a	-1.0	10.0	n/a	n/a	ITI	s574
133.127	1.642	1	PA_without_intermediate	0,0,0,1,2,0,0,0,0	test	ward_and_allport	3,2,0,0,0,0,1,0,0	71.0	11.0	1.642	0,0,0,1,2,3,0,0,0	to_hand	s574
134.771	0.712	0	PA_without_intermediate	3,0,0,1,2,0,0,0,0	test	ward_and_allport	3,2,0,0,0,0,1,0,0	89.0	11.0	0.712	0,0,0,1,2,3,0,0,0	to_board	s574
135.487	0.485	0	PA_without_intermediate	3,0,0,1,0,0,0,0,0	test	ward_and_allport	3,2,0,0,0,0,1,0,0	71.0	11.0	0.485	0,0,0,1,2,3,0,0,0	to_hand	s574
135.973	0.096	0	PA_without_intermediate	3,2,0,1,0,0,0,0,0	test	ward_and_allport	3,2,0,0,0,0,1,0,0	89.0	11.0	0.096	0,0,0,1,2,3,0,0,0	to_board	s574
136.073	1.223	0	PA_without_intermediate	3,2,0,0,0,0,0,0,0	test	ward_and_allport	3,2,0,0,0,0,1,0,0	71.0	11.0	1.223	0,0,0,1,2,3,0,0,0	to_hand	s574
137.297	0.081	0	PA_without_intermediate	3,2,0,0,0,0,1,0,0	test	ward_and_allport	3,2,0,0,0,0,1,0,0	82.0	11.0	0.081	0,0,0,1,2,3,0,0,0	to_board	s574
137.385	1.0	0	PA_without_intermediate	n/a	test	ward_and_allport	n/a	-1.0	11.0	n/a	n/a	feedback	s574
138.385	1.816	0	PA_without_intermediate	n/a	test	ward_and_allport	n/a	-1.0	11.0	n/a	n/a	ITI	s574
140.204	2.889	1	PA_with_intermediate	0,0,0,1,2,0,0,0,0	test	ward_and_allport	0,0,0,1,0,0,2,3,0	71.0	12.0	2.889	0,0,0,1,2,3,0,0,0	to_hand	s574
143.095	0.543	0	PA_with_intermediate	3,0,0,1,2,0,0,0,0	test	ward_and_allport	0,0,0,1,0,0,2,3,0	89.0	12.0	0.543	0,0,0,1,2,3,0,0,0	to_board	s574
143.64	0.316	0	PA_with_intermediate	3,0,0,1,0,0,0,0,0	test	ward_and_allport	0,0,0,1,0,0,2,3,0	71.0	12.0	0.316	0,0,0,1,2,3,0,0,0	to_hand	s574
143.957	0.165	0	PA_with_intermediate	3,0,0,1,0,0,2,0,0	test	ward_and_allport	0,0,0,1,0,0,2,3,0	82.0	12.0	0.165	0,0,0,1,2,3,0,0,0	to_board	s574
144.127	0.232	0	PA_with_intermediate	0,0,0,1,0,0,2,0,0	test	ward_and_allport	0,0,0,1,0,0,2,3,0	89.0	12.0	0.232	0,0,0,1,2,3,0,0,0	to_hand	s574
144.359	0.174	0	PA_with_intermediate	0,0,0,1,0,0,2,3,0	test	ward_and_allport	0,0,0,1,0,0,2,3,0	82.0	12.0	0.174	0,0,0,1,2,3,0,0,0	to_board	s574
144.538	1.0	0	PA_with_intermediate	n/a	test	ward_and_allport	n/a	-1.0	12.0	n/a	n/a	feedback	s574
145.538	3.176	0	PA_with_intermediate	n/a	test	ward_and_allport	n/a	-1.0	12.0	n/a	n/a	ITI	s574
148.717	1.483	1	PA_with_intermediate	0,0,0,1,2,0,0,0,0	test	ward_and_allport	0,0,0,1,3,0,2,0,0	71.0	13.0	1.483	0,0,0,1,2,3,0,0,0	to_hand	s574
150.202	1.463	0	PA_with_intermediate	3,0,0,1,2,0,0,0,0	test	ward_and_allport	0,0,0,1,3,0,2,0,0	89.0	13.0	1.463	0,0,0,1,2,3,0,0,0	to_board	s574
151.67	0.362	0	PA_with_intermediate	3,0,0,1,0,0,0,0,0	test	ward_and_allport	0,0,0,1,3,0,2,0,0	71.0	13.0	0.362	0,0,0,1,2,3,0,0,0	to_hand	s574
152.033	0.147	0	PA_with_intermediate	3,0,0,1,0,0,2,0,0	test	ward_and_allport	0,0,0,1,3,0,2,0,0	82.0	13.0	0.147	0,0,0,1,2,3,0,0,0	to_board	s574
152.183	0.784	0	PA_with_intermediate	0,0,0,1,0,0,2,0,0	test	ward_and_allport	0,0,0,1,3,0,2,0,0	89.0	13.0	0.784	0,0,0,1,2,3,0,0,0	to_hand	s574
152.969	0.21	0	PA_with_intermediate	0,0,0,1,3,0,2,0,0	test	ward_and_allport	0,0,0,1,3,0,2,0,0	71.0	13.0	0.21	0,0,0,1,2,3,0,0,0	to_board	s574
153.183	1.0	0	PA_with_intermediate	n/a	test	ward_and_allport	n/a	-1.0	13.0	n/a	n/a	feedback	s574
154.183	2.36	0	PA_with_intermediate	n/a	test	ward_and_allport	n/a	-1.0	13.0	n/a	n/a	ITI	s574
156.549	3.745	1	PA_with_intermediate	1,2,0,0,0,0,0,0,0	test	ward_and_allport	1,0,0,2,3,0,0,0,0	89.0	14.0	3.745	1,2,3,0,0,0,0,0,0	to_hand	s574
160.295	0.909	0	PA_with_intermediate	1,2,0,0,0,0,3,0,0	test	ward_and_allport	1,0,0,2,3,0,0,0,0	82.0	14.0	0.909	1,2,3,0,0,0,0,0,0	to_board	s574
161.208	0.252	0	PA_with_intermediate	1,0,0,0,0,0,3,0,0	test	ward_and_allport	1,0,0,2,3,0,0,0,0	89.0	14.0	0.252	1,2,3,0,0,0,0,0,0	to_hand	s574
161.461	0.191	0	PA_with_intermediate	1,0,0,2,0,0,3,0,0	test	ward_and_allport	1,0,0,2,3,0,0,0,0	71.0	14.0	0.191	1,2,3,0,0,0,0,0,0	to_board	s574
161.655	0.281	0	PA_with_intermediate	1,0,0,2,0,0,0,0,0	test	ward_and_allport	1,0,0,2,3,0,0,0,0	82.0	14.0	0.281	1,2,3,0,0,0,0,0,0	to_hand	s574
161.938	0.899	0	PA_with_intermediate	1,0,0,2,3,0,0,0,0	test	ward_and_allport	1,0,0,2,3,0,0,0,0	71.0	14.0	0.899	1,2,3,0,0,0,0,0,0	to_board	s574
162.842	1.0	0	PA_with_intermediate	n/a	test	ward_and_allport	n/a	-1.0	14.0	n/a	n/a	feedback	s574
163.842	1.0	0	PA_with_intermediate	n/a	test	ward_and_allport	n/a	-1.0	14.0	n/a	n/a	ITI	s574
169.849	1.518	1	PA_without_intermediate	0,0,0,0,0,0,1,2,0	test	ward_and_allport	1,0,0,3,2,0,0,0,0	82.0	15.0	1.518	0,0,0,0,0,0,1,2,3	to_hand	s574
171.368	0.922	0	PA_without_intermediate	0,0,0,3,0,0,1,2,0	test	ward_and_allport	1,0,0,3,2,0,0,0,0	71.0	15.0	0.922	0,0,0,0,0,0,1,2,3	to_board	s574
172.295	0.221	0	PA_without_intermediate	0,0,0,3,0,0,1,0,0	test	ward_and_allport	1,0,0,3,2,0,0,0,0	82.0	15.0	0.221	0,0,0,0,0,0,1,2,3	to_hand	s574
172.517	0.19	0	PA_without_intermediate	0,0,0,3,2,0,1,0,0	test	ward_and_allport	1,0,0,3,2,0,0,0,0	71.0	15.0	0.19	0,0,0,0,0,0,1,2,3	to_board	s574
172.712	0.789	0	PA_without_intermediate	0,0,0,3,2,0,0,0,0	test	ward_and_allport	1,0,0,3,2,0,0,0,0	82.0	15.0	0.789	0,0,0,0,0,0,1,2,3	to_hand	s574
173.502	0.144	0	PA_without_intermediate	1,0,0,3,2,0,0,0,0	test	ward_and_allport	1,0,0,3,2,0,0,0,0	89.0	15.0	0.144	0,0,0,0,0,0,1,2,3	to_board	s574
173.656	1.0	0	PA_without_intermediate	n/a	test	ward_and_allport	n/a	-1.0	15.0	n/a	n/a	feedback	s574
174.656	1.408	0	PA_without_intermediate	n/a	test	ward_and_allport	n/a	-1.0	15.0	n/a	n/a	ITI	s574
176.069	3.756	1	PA_with_intermediate	0,0,0,1,2,0,0,0,0	test	ward_and_allport	0,0,0,1,3,0,2,0,0	71.0	16.0	3.756	0,0,0,1,2,3,0,0,0	to_hand	s574
179.825	0.252	0	PA_with_intermediate	3,0,0,1,2,0,0,0,0	test	ward_and_allport	0,0,0,1,3,0,2,0,0	89.0	16.0	0.252	0,0,0,1,2,3,0,0,0	to_board	s574
180.081	0.234	0	PA_with_intermediate	3,0,0,1,0,0,0,0,0	test	ward_and_allport	0,0,0,1,3,0,2,0,0	71.0	16.0	0.234	0,0,0,1,2,3,0,0,0	to_hand	s574
180.316	0.24	0	PA_with_intermediate	3,0,0,1,0,0,2,0,0	test	ward_and_allport	0,0,0,1,3,0,2,0,0	82.0	16.0	0.24	0,0,0,1,2,3,0,0,0	to_board	s574
180.561	0.208	0	PA_with_intermediate	0,0,0,1,0,0,2,0,0	test	ward_and_allport	0,0,0,1,3,0,2,0,0	89.0	16.0	0.208	0,0,0,1,2,3,0,0,0	to_hand	s574
180.769	0.172	0	PA_with_intermediate	0,0,0,1,3,0,2,0,0	test	ward_and_allport	0,0,0,1,3,0,2,0,0	71.0	16.0	0.172	0,0,0,1,2,3,0,0,0	to_board	s574
180.951	1.0	0	PA_with_intermediate	n/a	test	ward_and_allport	n/a	-1.0	16.0	n/a	n/a	feedback	s574
181.951	1.816	0	PA_with_intermediate	n/a	test	ward_and_allport	n/a	-1.0	16.0	n/a	n/a	ITI	s574
183.772	1.651	1	PA_without_intermediate	0,0,0,0,0,0,1,2,0	test	ward_and_allport	1,0,0,3,2,0,0,0,0	82.0	17.0	1.651	0,0,0,0,0,0,1,2,3	to_hand	s574
185.424	0.853	0	PA_without_intermediate	0,0,0,3,0,0,1,2,0	test	ward_and_allport	1,0,0,3,2,0,0,0,0	71.0	17.0	0.853	0,0,0,0,0,0,1,2,3	to_board	s574
186.283	0.516	0	PA_without_intermediate	0,0,0,3,0,0,1,0,0	test	ward_and_allport	1,0,0,3,2,0,0,0,0	82.0	17.0	0.516	0,0,0,0,0,0,1,2,3	to_hand	s574
186.8	0.867	0	PA_without_intermediate	0,0,0,3,2,0,1,0,0	test	ward_and_allport	1,0,0,3,2,0,0,0,0	71.0	17.0	0.867	0,0,0,0,0,0,1,2,3	to_board	s574
187.671	0.412	0	PA_without_intermediate	0,0,0,3,2,0,0,0,0	test	ward_and_allport	1,0,0,3,2,0,0,0,0	82.0	17.0	0.412	0,0,0,0,0,0,1,2,3	to_hand	s574
188.084	0.144	0	PA_without_intermediate	1,0,0,3,2,0,0,0,0	test	ward_and_allport	1,0,0,3,2,0,0,0,0	89.0	17.0	0.144	0,0,0,0,0,0,1,2,3	to_board	s574
188.235	1.0	0	PA_without_intermediate	n/a	test	ward_and_allport	n/a	-1.0	17.0	n/a	n/a	feedback	s574
189.235	2.088	0	PA_without_intermediate	n/a	test	ward_and_allport	n/a	-1.0	17.0	n/a	n/a	ITI	s574
191.328	1.393	1	PA_without_intermediate	1,2,0,0,0,0,0,0,0	test	ward_and_allport	0,0,0,2,0,0,3,1,0	89.0	18.0	1.393	1,2,3,0,0,0,0,0,0	to_hand	s574
192.723	0.945	0	PA_without_intermediate	1,2,0,0,0,0,3,0,0	test	ward_and_allport	0,0,0,2,0,0,3,1,0	82.0	18.0	0.945	1,2,3,0,0,0,0,0,0	to_board	s574
193.673	0.934	0	PA_without_intermediate	1,0,0,0,0,0,3,0,0	test	ward_and_allport	0,0,0,2,0,0,3,1,0	89.0	18.0	0.934	1,2,3,0,0,0,0,0,0	to_hand	s574
194.609	0.228	0	PA_without_intermediate	1,0,0,2,0,0,3,0,0	test	ward_and_allport	0,0,0,2,0,0,3,1,0	71.0	18.0	0.228	1,2,3,0,0,0,0,0,0	to_board	s574
194.842	0.34	0	PA_without_intermediate	0,0,0,2,0,0,3,0,0	test	ward_and_allport	0,0,0,2,0,0,3,1,0	89.0	18.0	0.34	1,2,3,0,0,0,0,0,0	to_hand	s574
195.183	0.211	0	PA_without_intermediate	0,0,0,2,0,0,3,1,0	test	ward_and_allport	0,0,0,2,0,0,3,1,0	82.0	18.0	0.211	1,2,3,0,0,0,0,0,0	to_board	s574
195.401	1.0	0	PA_without_intermediate	n/a	test	ward_and_allport	n/a	-1.0	18.0	n/a	n/a	feedback	s574
196.401	1.136	0	PA_without_intermediate	n/a	test	ward_and_allport	n/a	-1.0	18.0	n/a	n/a	ITI	s574
197.541	1.505	1	PA_without_intermediate	0,0,0,1,2,0,0,0,0	test	ward_and_allport	3,2,0,0,0,0,1,0,0	71.0	19.0	1.505	0,0,0,1,2,3,0,0,0	to_hand	s574
199.047	0.098	0	PA_without_intermediate	3,0,0,1,2,0,0,0,0	test	ward_and_allport	3,2,0,0,0,0,1,0,0	89.0	19.0	0.098	0,0,0,1,2,3,0,0,0	to_board	s574
199.15	0.849	0	PA_without_intermediate	3,0,0,1,0,0,0,0,0	test	ward_and_allport	3,2,0,0,0,0,1,0,0	71.0	19.0	0.849	0,0,0,1,2,3,0,0,0	to_hand	s574
200.0	0.052	0	PA_without_intermediate	3,2,0,1,0,0,0,0,0	test	ward_and_allport	3,2,0,0,0,0,1,0,0	89.0	19.0	0.052	0,0,0,1,2,3,0,0,0	to_board	s574
200.056	0.778	0	PA_without_intermediate	3,2,0,0,0,0,0,0,0	test	ward_and_allport	3,2,0,0,0,0,1,0,0	71.0	19.0	0.778	0,0,0,1,2,3,0,0,0	to_hand	s574
200.836	0.12	0	PA_without_intermediate	3,2,0,0,0,0,1,0,0	test	ward_and_allport	3,2,0,0,0,0,1,0,0	82.0	19.0	0.12	0,0,0,1,2,3,0,0,0	to_board	s574
200.962	1.0	0	PA_without_intermediate	n/a	test	ward_and_allport	n/a	-1.0	19.0	n/a	n/a	feedback	s574
201.962	6.168	0	PA_without_intermediate	n/a	test	ward_and_allport	n/a	-1.0	19.0	n/a	n/a	ITI	s574
208.135	1.966	1	PA_without_intermediate	0,0,0,1,2,0,0,0,0	test	ward_and_allport	3,1,0,0,0,0,2,0,0	71.0	20.0	1.966	0,0,0,1,2,3,0,0,0	to_hand	s574
210.102	0.137	0	PA_without_intermediate	3,0,0,1,2,0,0,0,0	test	ward_and_allport	3,1,0,0,0,0,2,0,0	89.0	20.0	0.137	0,0,0,1,2,3,0,0,0	to_board	s574
210.244	0.682	0	PA_without_intermediate	3,0,0,1,0,0,0,0,0	test	ward_and_allport	3,1,0,0,0,0,2,0,0	71.0	20.0	0.682	0,0,0,1,2,3,0,0,0	to_hand	s574
210.927	0.141	0	PA_without_intermediate	3,0,0,1,0,0,2,0,0	test	ward_and_allport	3,1,0,0,0,0,2,0,0	82.0	20.0	0.141	0,0,0,1,2,3,0,0,0	to_board	s574
211.073	0.624	0	PA_without_intermediate	3,0,0,0,0,0,2,0,0	test	ward_and_allport	3,1,0,0,0,0,2,0,0	71.0	20.0	0.624	0,0,0,1,2,3,0,0,0	to_hand	s574
211.698	0.043	0	PA_without_intermediate	3,1,0,0,0,0,2,0,0	test	ward_and_allport	3,1,0,0,0,0,2,0,0	89.0	20.0	0.043	0,0,0,1,2,3,0,0,0	to_board	s574
211.751	1.0	0	PA_without_intermediate	n/a	test	ward_and_allport	n/a	-1.0	20.0	n/a	n/a	feedback	s574
212.751	1.816	0	PA_without_intermediate	n/a	test	ward_and_allport	n/a	-1.0	20.0	n/a	n/a	ITI	s574
214.572	2.571	1	PA_with_intermediate	0,0,0,0,0,0,1,2,0	test	ward_and_allport	0,0,0,2,0,0,1,3,0	82.0	21.0	2.571	0,0,0,0,0,0,1,2,3	to_hand	s574
217.144	0.091	0	PA_with_intermediate	3,0,0,0,0,0,1,2,0	test	ward_and_allport	0,0,0,2,0,0,1,3,0	89.0	21.0	0.091	0,0,0,0,0,0,1,2,3	to_board	s574
217.241	0.914	0	PA_with_intermediate	3,0,0,0,0,0,1,0,0	test	ward_and_allport	0,0,0,2,0,0,1,3,0	82.0	21.0	0.914	0,0,0,0,0,0,1,2,3	to_hand	s574
218.156	0.107	0	PA_with_intermediate	3,0,0,2,0,0,1,0,0	test	ward_and_allport	0,0,0,2,0,0,1,3,0	71.0	21.0	0.107	0,0,0,0,0,0,1,2,3	to_board	s574
218.269	0.769	0	PA_with_intermediate	0,0,0,2,0,0,1,0,0	test	ward_and_allport	0,0,0,2,0,0,1,3,0	89.0	21.0	0.769	0,0,0,0,0,0,1,2,3	to_hand	s574
219.039	0.09	0	PA_with_intermediate	0,0,0,2,0,0,1,3,0	test	ward_and_allport	0,0,0,2,0,0,1,3,0	82.0	21.0	0.09	0,0,0,0,0,0,1,2,3	to_board	s574
219.135	1.0	0	PA_with_intermediate	n/a	test	ward_and_allport	n/a	-1.0	21.0	n/a	n/a	feedback	s574
220.135	1.952	0	PA_with_intermediate	n/a	test	ward_and_allport	n/a	-1.0	21.0	n/a	n/a	ITI	s574
222.092	2.863	1	PA_with_intermediate	0,0,0,0,0,0,1,2,0	test	ward_and_allport	2,0,0,0,0,0,1,3,0	82.0	22.0	2.863	0,0,0,0,0,0,1,2,3	to_hand	s574
224.957	0.076	0	PA_with_intermediate	0,0,0,3,0,0,1,2,0	test	ward_and_allport	2,0,0,0,0,0,1,3,0	71.0	22.0	0.076	0,0,0,0,0,0,1,2,3	to_board	s574
225.04	0.759	0	PA_with_intermediate	0,0,0,3,0,0,1,0,0	test	ward_and_allport	2,0,0,0,0,0,1,3,0	82.0	22.0	0.759	0,0,0,0,0,0,1,2,3	to_hand	s574
225.799	0.098	0	PA_with_intermediate	2,0,0,3,0,0,1,0,0	test	ward_and_allport	2,0,0,0,0,0,1,3,0	89.0	22.0	0.098	0,0,0,0,0,0,1,2,3	to_board	s574
225.904	1.518	0	PA_with_intermediate	2,0,0,0,0,0,1,0,0	test	ward_and_allport	2,0,0,0,0,0,1,3,0	71.0	22.0	1.518	0,0,0,0,0,0,1,2,3	to_hand	s574
227.422	0.087	0	PA_with_intermediate	2,0,0,0,0,0,1,3,0	test	ward_and_allport	2,0,0,0,0,0,1,3,0	82.0	22.0	0.087	0,0,0,0,0,0,1,2,3	to_board	s574
227.52	1.0	0	PA_with_intermediate	n/a	test	ward_and_allport	n/a	-1.0	22.0	n/a	n/a	feedback	s574
228.52	1.136	0	PA_with_intermediate	n/a	test	ward_and_allport	n/a	-1.0	22.0	n/a	n/a	ITI	s574
229.662	1.777	1	PA_without_intermediate	1,2,0,0,0,0,0,0,0	test	ward_and_allport	0,0,0,3,1,0,2,0,0	89.0	23.0	1.777	1,2,3,0,0,0,0,0,0	to_hand	s574
231.44	0.15	0	PA_without_intermediate	1,2,0,3,0,0,0,0,0	test	ward_and_allport	0,0,0,3,1,0,2,0,0	71.0	23.0	0.15	1,2,3,0,0,0,0,0,0	to_board	s574
231.596	1.198	0	PA_without_intermediate	1,0,0,3,0,0,0,0,0	test	ward_and_allport	0,0,0,3,1,0,2,0,0	89.0	23.0	1.198	1,2,3,0,0,0,0,0,0	to_hand	s574
232.795	0.098	0	PA_without_intermediate	1,0,0,3,0,0,2,0,0	test	ward_and_allport	0,0,0,3,1,0,2,0,0	82.0	23.0	0.098	1,2,3,0,0,0,0,0,0	to_board	s574
232.899	0.301	0	PA_without_intermediate	0,0,0,3,0,0,2,0,0	test	ward_and_allport	0,0,0,3,1,0,2,0,0	89.0	23.0	0.301	1,2,3,0,0,0,0,0,0	to_hand	s574
233.201	0.104	0	PA_without_intermediate	0,0,0,3,1,0,2,0,0	test	ward_and_allport	0,0,0,3,1,0,2,0,0	71.0	23.0	0.104	1,2,3,0,0,0,0,0,0	to_board	s574
233.312	1.0	0	PA_without_intermediate	n/a	test	ward_and_allport	n/a	-1.0	23.0	n/a	n/a	feedback	s574
234.312	1.68	0	PA_without_intermediate	n/a	test	ward_and_allport	n/a	-1.0	23.0	n/a	n/a	ITI	s574
235.999	1.756	1	PA_without_intermediate	1,2,0,0,0,0,0,0,0	test	ward_and_allport	0,0,0,3,1,0,2,0,0	89.0	24.0	1.756	1,2,3,0,0,0,0,0,0	to_hand	s574
237.756	0.068	0	PA_without_intermediate	1,2,0,3,0,0,0,0,0	test	ward_and_allport	0,0,0,3,1,0,2,0,0	71.0	24.0	0.068	1,2,3,0,0,0,0,0,0	to_board	s574
237.83	1.037	0	PA_without_intermediate	1,0,0,3,0,0,0,0,0	test	ward_and_allport	0,0,0,3,1,0,2,0,0	89.0	24.0	1.037	1,2,3,0,0,0,0,0,0	to_hand	s574
238.868	0.1	0	PA_without_intermediate	1,0,0,3,0,0,2,0,0	test	ward_and_allport	0,0,0,3,1,0,2,0,0	82.0	24.0	0.1	1,2,3,0,0,0,0,0,0	to_board	s574
238.975	0.292	0	PA_without_intermediate	0,0,0,3,0,0,2,0,0	test	ward_and_allport	0,0,0,3,1,0,2,0,0	89.0	24.0	0.292	1,2,3,0,0,0,0,0,0	to_hand	s574
239.268	0.075	0	PA_without_intermediate	0,0,0,3,1,0,2,0,0	test	ward_and_allport	0,0,0,3,1,0,2,0,0	71.0	24.0	0.075	1,2,3,0,0,0,0,0,0	to_board	s574
239.352	1.0	0	PA_without_intermediate	n/a	test	ward_and_allport	n/a	-1.0	24.0	n/a	n/a	feedback	s574
240.352	2.088	0	PA_without_intermediate	n/a	test	ward_and_allport	n/a	-1.0	24.0	n/a	n/a	ITI	s574
242.446	1.387	1	PA_with_intermediate	0,0,0,0,0,0,1,2,0	test	ward_and_allport	0,0,0,2,3,0,1,0,0	82.0	25.0	1.387	0,0,0,0,0,0,1,2,3	to_hand	s574
243.834	0.074	0	PA_with_intermediate	3,0,0,0,0,0,1,2,0	test	ward_and_allport	0,0,0,2,3,0,1,0,0	89.0	25.0	0.074	0,0,0,0,0,0,1,2,3	to_board	s574
243.915	1.509	0	PA_with_intermediate	3,0,0,0,0,0,1,0,0	test	ward_and_allport	0,0,0,2,3,0,1,0,0	82.0	25.0	1.509	0,0,0,0,0,0,1,2,3	to_hand	s574
245.425	0.14	0	PA_with_intermediate	3,0,0,2,0,0,1,0,0	test	ward_and_allport	0,0,0,2,3,0,1,0,0	71.0	25.0	0.14	0,0,0,0,0,0,1,2,3	to_board	s574
245.572	0.504	0	PA_with_intermediate	0,0,0,2,0,0,1,0,0	test	ward_and_allport	0,0,0,2,3,0,1,0,0	89.0	25.0	0.504	0,0,0,0,0,0,1,2,3	to_hand	s574
246.078	0.074	0	PA_with_intermediate	0,0,0,2,3,0,1,0,0	test	ward_and_allport	0,0,0,2,3,0,1,0,0	71.0	25.0	0.074	0,0,0,0,0,0,1,2,3	to_board	s574
246.163	1.0	0	PA_with_intermediate	n/a	test	ward_and_allport	n/a	-1.0	25.0	n/a	n/a	feedback	s574
247.163	1.0	0	PA_with_intermediate	n/a	test	ward_and_allport	n/a	-1.0	25.0	n/a	n/a	ITI	s574
248.169	1.094	1	PA_without_intermediate	0,0,0,0,0,0,1,2,0	test	ward_and_allport	2,0,0,3,1,0,0,0,0	82.0	26.0	1.094	0,0,0,0,0,0,1,2,3	to_hand	s574
249.264	0.043	0	PA_without_intermediate	0,0,0,3,0,0,1,2,0	test	ward_and_allport	2,0,0,3,1,0,0,0,0	71.0	26.0	0.043	0,0,0,0,0,0,1,2,3	to_board	s574
249.318	1.01	0	PA_without_intermediate	0,0,0,3,0,0,1,0,0	test	ward_and_allport	2,0,0,3,1,0,0,0,0	82.0	26.0	1.01	0,0,0,0,0,0,1,2,3	to_hand	s574
250.328	0.031	0	PA_without_intermediate	2,0,0,3,0,0,1,0,0	test	ward_and_allport	2,0,0,3,1,0,0,0,0	89.0	26.0	0.031	0,0,0,0,0,0,1,2,3	to_board	s574
250.369	0.818	0	PA_without_intermediate	2,0,0,3,0,0,0,0,0	test	ward_and_allport	2,0,0,3,1,0,0,0,0	82.0	26.0	0.818	0,0,0,0,0,0,1,2,3	to_hand	s574
251.187	0.073	0	PA_without_intermediate	2,0,0,3,1,0,0,0,0	test	ward_and_allport	2,0,0,3,1,0,0,0,0	71.0	26.0	0.073	0,0,0,0,0,0,1,2,3	to_board	s574
251.273	1.0	0	PA_without_intermediate	n/a	test	ward_and_allport	n/a	-1.0	26.0	n/a	n/a	feedback	s574
252.273	1.0	0	PA_without_intermediate	n/a	test	ward_and_allport	n/a	-1.0	26.0	n/a	n/a	ITI	s574
253.28	3.123	1	PA_without_intermediate	0,0,0,1,2,0,0,0,0	test	ward_and_allport	2,0,0,0,0,0,3,1,0	71.0	27.0	3.123	0,0,0,1,2,3,0,0,0	to_hand	s574
256.404	0.112	0	PA_without_intermediate	0,0,0,1,2,0,3,0,0	test	ward_and_allport	2,0,0,0,0,0,3,1,0	82.0	27.0	0.112	0,0,0,1,2,3,0,0,0	to_board	s574
256.523	0.514	0	PA_without_intermediate	0,0,0,1,0,0,3,0,0	test	ward_and_allport	2,0,0,0,0,0,3,1,0	71.0	27.0	0.514	0,0,0,1,2,3,0,0,0	to_hand	s574
257.039	0.08	0	PA_without_intermediate	2,0,0,1,0,0,3,0,0	test	ward_and_allport	2,0,0,0,0,0,3,1,0	89.0	27.0	0.08	0,0,0,1,2,3,0,0,0	to_board	s574
257.126	0.386	0	PA_without_intermediate	2,0,0,0,0,0,3,0,0	test	ward_and_allport	2,0,0,0,0,0,3,1,0	71.0	27.0	0.386	0,0,0,1,2,3,0,0,0	to_hand	s574
257.514	0.082	0	PA_without_intermediate	2,0,0,0,0,0,3,1,0	test	ward_and_allport	2,0,0,0,0,0,3,1,0	82.0	27.0	0.082	0,0,0,1,2,3,0,0,0	to_board	s574
257.604	1.0	0	PA_without_intermediate	n/a	test	ward_and_allport	n/a	-1.0	27.0	n/a	n/a	feedback	s574
258.604	1.0	0	PA_without_intermediate	n/a	test	ward_and_allport	n/a	-1.0	27.0	n/a	n/a	ITI	s574
259.61	1.823	1	PA_with_intermediate	1,2,0,0,0,0,0,0,0	test	ward_and_allport	1,0,0,2,3,0,0,0,0	89.0	28.0	1.823	1,2,3,0,0,0,0,0,0	to_hand	s574
261.435	0.12	0	PA_with_intermediate	1,2,0,0,0,0,3,0,0	test	ward_and_allport	1,0,0,2,3,0,0,0,0	82.0	28.0	0.12	1,2,3,0,0,0,0,0,0	to_board	s574
261.563	1.334	0	PA_with_intermediate	1,0,0,0,0,0,3,0,0	test	ward_and_allport	1,0,0,2,3,0,0,0,0	89.0	28.0	1.334	1,2,3,0,0,0,0,0,0	to_hand	s574
262.898	0.065	0	PA_with_intermediate	1,0,0,2,0,0,3,0,0	test	ward_and_allport	1,0,0,2,3,0,0,0,0	71.0	28.0	0.065	1,2,3,0,0,0,0,0,0	to_board	s574
262.97	0.839	0	PA_with_intermediate	1,0,0,0,0,0,3,0,0	test	ward_and_allport	1,0,0,2,3,0,0,0,0	71.0	28.0	0.839	1,2,3,0,0,0,0,0,0	to_hand	s574
263.809	0.007	0	PA_with_intermediate	1,0,0,0,0,0,3,2,0	test	ward_and_allport	1,0,0,2,3,0,0,0,0	82.0	28.0	0.007	1,2,3,0,0,0,0,0,0	to_board	s574
263.826	1.249	0	PA_with_intermediate	1,0,0,0,0,0,3,0,0	test	ward_and_allport	1,0,0,2,3,0,0,0,0	82.0	28.0	1.249	1,2,3,0,0,0,0,0,0	to_hand	s574
265.077	0.054	0	PA_with_intermediate	1,0,0,2,0,0,3,0,0	test	ward_and_allport	1,0,0,2,3,0,0,0,0	71.0	28.0	0.054	1,2,3,0,0,0,0,0,0	to_board	s574
265.138	0.506	0	PA_with_intermediate	1,0,0,2,0,0,0,0,0	test	ward_and_allport	1,0,0,2,3,0,0,0,0	82.0	28.0	0.506	1,2,3,0,0,0,0,0,0	to_hand	s574
265.646	0.038	0	PA_with_intermediate	1,0,0,2,3,0,0,0,0	test	ward_and_allport	1,0,0,2,3,0,0,0,0	71.0	28.0	0.038	1,2,3,0,0,0,0,0,0	to_board	s574
265.695	1.0	0	PA_with_intermediate	n/a	test	ward_and_allport	n/a	-1.0	28.0	n/a	n/a	feedback	s574
266.695	1.544	0	PA_with_intermediate	n/a	test	ward_and_allport	n/a	-1.0	28.0	n/a	n/a	ITI	s574
268.245	1.77	1	PA_without_intermediate	0,0,0,1,2,0,0,0,0	test	ward_and_allport	2,0,0,0,0,0,3,1,0	71.0	29.0	1.77	0,0,0,1,2,3,0,0,0	to_hand	s574
270.015	0.203	0	PA_without_intermediate	0,0,0,1,2,0,3,0,0	test	ward_and_allport	2,0,0,0,0,0,3,1,0	82.0	29.0	0.203	0,0,0,1,2,3,0,0,0	to_board	s574
270.225	0.649	0	PA_without_intermediate	0,0,0,1,0,0,3,0,0	test	ward_and_allport	2,0,0,0,0,0,3,1,0	71.0	29.0	0.649	0,0,0,1,2,3,0,0,0	to_hand	s574
270.875	0.116	0	PA_without_intermediate	2,0,0,1,0,0,3,0,0	test	ward_and_allport	2,0,0,0,0,0,3,1,0	89.0	29.0	0.116	0,0,0,1,2,3,0,0,0	to_board	s574
270.999	0.429	0	PA_without_intermediate	2,0,0,0,0,0,3,0,0	test	ward_and_allport	2,0,0,0,0,0,3,1,0	71.0	29.0	0.429	0,0,0,1,2,3,0,0,0	to_hand	s574
271.428	0.18	0	PA_without_intermediate	2,0,0,0,0,0,3,1,0	test	ward_and_allport	2,0,0,0,0,0,3,1,0	82.0	29.0	0.18	0,0,0,1,2,3,0,0,0	to_board	s574
271.62	1.0	0	PA_without_intermediate	n/a	test	ward_and_allport	n/a	-1.0	29.0	n/a	n/a	feedback	s574
272.62	1.272	0	PA_without_intermediate	n/a	test	ward_and_allport	n/a	-1.0	29.0	n/a	n/a	ITI	s574
278.903	1.506	1	PA_with_intermediate	0,0,0,0,0,0,1,2,0	test	ward_and_allport	2,3,0,0,0,0,1,0,0	82.0	30.0	1.506	0,0,0,0,0,0,1,2,3	to_hand	s574
280.411	0.26	0	PA_with_intermediate	0,0,0,3,0,0,1,2,0	test	ward_and_allport	2,3,0,0,0,0,1,0,0	71.0	30.0	0.26	0,0,0,0,0,0,1,2,3	to_board	s574
280.678	0.287	0	PA_with_intermediate	0,0,0,3,0,0,1,0,0	test	ward_and_allport	2,3,0,0,0,0,1,0,0	82.0	30.0	0.287	0,0,0,0,0,0,1,2,3	to_hand	s574
280.965	0.289	0	PA_with_intermediate	2,0,0,3,0,0,1,0,0	test	ward_and_allport	2,3,0,0,0,0,1,0,0	89.0	30.0	0.289	0,0,0,0,0,0,1,2,3	to_board	s574
281.262	0.597	0	PA_with_intermediate	2,0,0,0,0,0,1,0,0	test	ward_and_allport	2,3,0,0,0,0,1,0,0	71.0	30.0	0.597	0,0,0,0,0,0,1,2,3	to_hand	s574
281.86	0.231	0	PA_with_intermediate	2,3,0,0,0,0,1,0,0	test	ward_and_allport	2,3,0,0,0,0,1,0,0	89.0	30.0	0.231	0,0,0,0,0,0,1,2,3	to_board	s574
282.103	1.0	0	PA_with_intermediate	n/a	test	ward_and_allport	n/a	-1.0	30.0	n/a	n/a	feedback	s574
283.103	3.04	0	PA_with_intermediate	n/a	test	ward_and_allport	n/a	-1.0	30.0	n/a	n/a	ITI	s574
286.151	1.422	1	PA_with_intermediate	1,2,0,0,0,0,0,0,0	test	ward_and_allport	1,3,0,0,0,0,2,0,0	89.0	31.0	1.422	1,2,3,0,0,0,0,0,0	to_hand	s574
287.574	0.45	0	PA_with_intermediate	1,2,0,0,0,0,3,0,0	test	ward_and_allport	1,3,0,0,0,0,2,0,0	82.0	31.0	0.45	1,2,3,0,0,0,0,0,0	to_board	s574
288.032	1.92	0	PA_with_intermediate	1,2,0,0,0,0,0,0,0	test	ward_and_allport	1,3,0,0,0,0,2,0,0	82.0	31.0	1.92	1,2,3,0,0,0,0,0,0	to_hand	s574
289.954	0.102	0	PA_with_intermediate	1,2,0,3,0,0,0,0,0	test	ward_and_allport	1,3,0,0,0,0,2,0,0	71.0	31.0	0.102	1,2,3,0,0,0,0,0,0	to_board	s574
290.065	0.706	0	PA_with_intermediate	1,0,0,3,0,0,0,0,0	test	ward_and_allport	1,3,0,0,0,0,2,0,0	89.0	31.0	0.706	1,2,3,0,0,0,0,0,0	to_hand	s574
290.772	0.116	0	PA_with_intermediate	1,0,0,3,0,0,2,0,0	test	ward_and_allport	1,3,0,0,0,0,2,0,0	82.0	31.0	0.116	1,2,3,0,0,0,0,0,0	to_board	s574
290.896	0.878	0	PA_with_intermediate	1,0,0,0,0,0,2,0,0	test	ward_and_allport	1,3,0,0,0,0,2,0,0	71.0	31.0	0.878	1,2,3,0,0,0,0,0,0	to_hand	s574
291.775	0.074	0	PA_with_intermediate	1,3,0,0,0,0,2,0,0	test	ward_and_allport	1,3,0,0,0,0,2,0,0	89.0	31.0	0.074	1,2,3,0,0,0,0,0,0	to_board	s574
291.861	1.0	0	PA_with_intermediate	n/a	test	ward_and_allport	n/a	-1.0	31.0	n/a	n/a	feedback	s574
292.861	1.272	0	PA_with_intermediate	n/a	test	ward_and_allport	n/a	-1.0	31.0	n/a	n/a	ITI	s574
294.14	2.56	1	PA_with_intermediate	1,2,0,0,0,0,0,0,0	test	ward_and_allport	1,3,0,2,0,0,0,0,0	89.0	32.0	2.56	1,2,3,0,0,0,0,0,0	to_hand	s574
296.701	1.35	0	PA_with_intermediate	1,2,0,0,0,0,3,0,0	test	ward_and_allport	1,3,0,2,0,0,0,0,0	82.0	32.0	1.35	1,2,3,0,0,0,0,0,0	to_board	s574
298.058	0.79	0	PA_with_intermediate	1,0,0,0,0,0,3,0,0	test	ward_and_allport	1,3,0,2,0,0,0,0,0	89.0	32.0	0.79	1,2,3,0,0,0,0,0,0	to_hand	s574
298.849	0.296	0	PA_with_intermediate	1,0,0,2,0,0,3,0,0	test	ward_and_allport	1,3,0,2,0,0,0,0,0	71.0	32.0	0.296	1,2,3,0,0,0,0,0,0	to_board	s574
299.152	0.36	0	PA_with_intermediate	1,0,0,2,0,0,0,0,0	test	ward_and_allport	1,3,0,2,0,0,0,0,0	82.0	32.0	0.36	1,2,3,0,0,0,0,0,0	to_hand	s574
299.514	0.203	0	PA_with_intermediate	1,3,0,2,0,0,0,0,0	test	ward_and_allport	1,3,0,2,0,0,0,0,0	89.0	32.0	0.203	1,2,3,0,0,0,0,0,0	to_board	s574
299.731	1.0	0	PA_with_intermediate	n/a	test	ward_and_allport	n/a	-1.0	32.0	n/a	n/a	feedback	s574
300.731	1.136	0	PA_with_intermediate	n/a	test	ward_and_allport	n/a	-1.0	32.0	n/a	n/a	ITI	s574
301.876	2.729	1	PA_with_intermediate	0,0,0,1,2,0,0,0,0	test	ward_and_allport	2,3,0,1,0,0,0,0,0	71.0	33.0	2.729	0,0,0,1,2,3,0,0,0	to_hand	s574
304.606	0.213	0	PA_with_intermediate	0,0,0,1,2,0,3,0,0	test	ward_and_allport	2,3,0,1,0,0,0,0,0	82.0	33.0	0.213	0,0,0,1,2,3,0,0,0	to_board	s574
304.828	0.412	0	PA_with_intermediate	0,0,0,1,0,0,3,0,0	test	ward_and_allport	2,3,0,1,0,0,0,0,0	71.0	33.0	0.412	0,0,0,1,2,3,0,0,0	to_hand	s574
305.241	0.123	0	PA_with_intermediate	2,0,0,1,0,0,3,0,0	test	ward_and_allport	2,3,0,1,0,0,0,0,0	89.0	33.0	0.123	0,0,0,1,2,3,0,0,0	to_board	s574
305.372	0.312	0	PA_with_intermediate	2,0,0,1,0,0,0,0,0	test	ward_and_allport	2,3,0,1,0,0,0,0,0	82.0	33.0	0.312	0,0,0,1,2,3,0,0,0	to_hand	s574
305.685	0.141	0	PA_with_intermediate	2,3,0,1,0,0,0,0,0	test	ward_and_allport	2,3,0,1,0,0,0,0,0	89.0	33.0	0.141	0,0,0,1,2,3,0,0,0	to_board	s574
305.835	1.0	0	PA_with_intermediate	n/a	test	ward_and_allport	n/a	-1.0	33.0	n/a	n/a	feedback	s574
306.835	1.0	0	PA_with_intermediate	n/a	test	ward_and_allport	n/a	-1.0	33.0	n/a	n/a	ITI	s574
307.841	3.473	1	PA_with_intermediate	1,2,0,0,0,0,0,0,0	test	ward_and_allport	1,3,0,0,0,0,2,0,0	89.0	34.0	3.473	1,2,3,0,0,0,0,0,0	to_hand	s574
311.316	0.181	0	PA_with_intermediate	1,2,0,3,0,0,0,0,0	test	ward_and_allport	1,3,0,0,0,0,2,0,0	71.0	34.0	0.181	1,2,3,0,0,0,0,0,0	to_board	s574
311.504	0.462	0	PA_with_intermediate	1,0,0,3,0,0,0,0,0	test	ward_and_allport	1,3,0,0,0,0,2,0,0	89.0	34.0	0.462	1,2,3,0,0,0,0,0,0	to_hand	s574
311.967	0.227	0	PA_with_intermediate	1,0,0,3,0,0,2,0,0	test	ward_and_allport	1,3,0,0,0,0,2,0,0	82.0	34.0	0.227	1,2,3,0,0,0,0,0,0	to_board	s574
312.203	0.321	0	PA_with_intermediate	1,0,0,0,0,0,2,0,0	test	ward_and_allport	1,3,0,0,0,0,2,0,0	71.0	34.0	0.321	1,2,3,0,0,0,0,0,0	to_hand	s574
312.525	0.154	0	PA_with_intermediate	1,3,0,0,0,0,2,0,0	test	ward_and_allport	1,3,0,0,0,0,2,0,0	89.0	34.0	0.154	1,2,3,0,0,0,0,0,0	to_board	s574
312.688	1.0	0	PA_with_intermediate	n/a	test	ward_and_allport	n/a	-1.0	34.0	n/a	n/a	feedback	s574
313.688	1.0	0	PA_with_intermediate	n/a	test	ward_and_allport	n/a	-1.0	34.0	n/a	n/a	ITI	s574
314.696	1.404	1	PA_without_intermediate	0,0,0,0,0,0,1,2,0	test	ward_and_allport	3,2,0,1,0,0,0,0,0	82.0	35.0	1.404	0,0,0,0,0,0,1,2,3	to_hand	s574
316.101	0.562	0	PA_without_intermediate	3,0,0,0,0,0,1,2,0	test	ward_and_allport	3,2,0,1,0,0,0,0,0	89.0	35.0	0.562	0,0,0,0,0,0,1,2,3	to_board	s574
316.67	0.374	0	PA_without_intermediate	3,0,0,0,0,0,1,0,0	test	ward_and_allport	3,2,0,1,0,0,0,0,0	82.0	35.0	0.374	0,0,0,0,0,0,1,2,3	to_hand	s574
317.044	0.145	0	PA_without_intermediate	3,2,0,0,0,0,1,0,0	test	ward_and_allport	3,2,0,1,0,0,0,0,0	89.0	35.0	0.145	0,0,0,0,0,0,1,2,3	to_board	s574
317.196	0.839	0	PA_without_intermediate	3,2,0,0,0,0,0,0,0	test	ward_and_allport	3,2,0,1,0,0,0,0,0	82.0	35.0	0.839	0,0,0,0,0,0,1,2,3	to_hand	s574
318.036	0.232	0	PA_without_intermediate	3,2,0,1,0,0,0,0,0	test	ward_and_allport	3,2,0,1,0,0,0,0,0	71.0	35.0	0.232	0,0,0,0,0,0,1,2,3	to_board	s574
318.275	1.0	0	PA_without_intermediate	n/a	test	ward_and_allport	n/a	-1.0	35.0	n/a	n/a	feedback	s574
319.275	1.408	0	PA_without_intermediate	n/a	test	ward_and_allport	n/a	-1.0	35.0	n/a	n/a	ITI	s574
320.691	1.588	1	PA_with_intermediate	1,2,0,0,0,0,0,0,0	test	ward_and_allport	1,0,0,0,0,0,2,3,0	89.0	36.0	1.588	1,2,3,0,0,0,0,0,0	to_hand	s574
322.279	0.401	0	PA_with_intermediate	1,2,0,0,0,0,3,0,0	test	ward_and_allport	1,0,0,0,0,0,2,3,0	82.0	36.0	0.401	1,2,3,0,0,0,0,0,0	to_board	s574
322.686	1.081	0	PA_with_intermediate	1,2,0,0,0,0,0,0,0	test	ward_and_allport	1,0,0,0,0,0,2,3,0	82.0	36.0	1.081	1,2,3,0,0,0,0,0,0	to_hand	s574
323.769	0.2	0	PA_with_intermediate	1,2,0,3,0,0,0,0,0	test	ward_and_allport	1,0,0,0,0,0,2,3,0	71.0	36.0	0.2	1,2,3,0,0,0,0,0,0	to_board	s574
323.978	0.739	0	PA_with_intermediate	1,0,0,3,0,0,0,0,0	test	ward_and_allport	1,0,0,0,0,0,2,3,0	89.0	36.0	0.739	1,2,3,0,0,0,0,0,0	to_hand	s574
324.718	0.114	0	PA_with_intermediate	1,0,0,3,0,0,2,0,0	test	ward_and_allport	1,0,0,0,0,0,2,3,0	82.0	36.0	0.114	1,2,3,0,0,0,0,0,0	to_board	s574
324.842	0.3	0	PA_with_intermediate	1,0,0,0,0,0,2,0,0	test	ward_and_allport	1,0,0,0,0,0,2,3,0	71.0	36.0	0.3	1,2,3,0,0,0,0,0,0	to_hand	s574
325.143	0.171	0	PA_with_intermediate	1,0,0,0,0,0,2,3,0	test	ward_and_allport	1,0,0,0,0,0,2,3,0	82.0	36.0	0.171	1,2,3,0,0,0,0,0,0	to_board	s574
325.327	1.0	0	PA_with_intermediate	n/a	test	ward_and_allport	n/a	-1.0	36.0	n/a	n/a	feedback	s574
326.327	2.768	0	PA_with_intermediate	n/a	test	ward_and_allport	n/a	-1.0	36.0	n/a	n/a	ITI	s574
329.102	3.556	1	PA_with_intermediate	0,0,0,0,0,0,1,2,0	test	ward_and_allport	0,0,0,2,0,0,1,3,0	82.0	37.0	3.556	0,0,0,0,0,0,1,2,3	to_hand	s574
332.658	0.24	0	PA_with_intermediate	3,0,0,0,0,0,1,2,0	test	ward_and_allport	0,0,0,2,0,0,1,3,0	89.0	37.0	0.24	0,0,0,0,0,0,1,2,3	to_board	s574
332.906	1.103	0	PA_with_intermediate	3,0,0,0,0,0,1,0,0	test	ward_and_allport	0,0,0,2,0,0,1,3,0	82.0	37.0	1.103	0,0,0,0,0,0,1,2,3	to_hand	s574
334.01	0.252	0	PA_with_intermediate	3,0,0,2,0,0,1,0,0	test	ward_and_allport	0,0,0,2,0,0,1,3,0	71.0	37.0	0.252	0,0,0,0,0,0,1,2,3	to_board	s574
334.27	0.26	0	PA_with_intermediate	0,0,0,2,0,0,1,0,0	test	ward_and_allport	0,0,0,2,0,0,1,3,0	89.0	37.0	0.26	0,0,0,0,0,0,1,2,3	to_hand	s574
334.532	0.17	0	PA_with_intermediate	0,0,0,2,0,0,1,3,0	test	ward_and_allport	0,0,0,2,0,0,1,3,0	82.0	37.0	0.17	0,0,0,0,0,0,1,2,3	to_board	s574
334.713	1.0	0	PA_with_intermediate	n/a	test	ward_and_allport	n/a	-1.0	37.0	n/a	n/a	feedback	s574
335.713	1.68	0	PA_with_intermediate	n/a	test	ward_and_allport	n/a	-1.0	37.0	n/a	n/a	ITI	s574
337.403	2.164	1	PA_without_intermediate	0,0,0,1,2,0,0,0,0	test	ward_and_allport	1,0,0,0,0,0,3,2,0	71.0	38.0	2.164	0,0,0,1,2,3,0,0,0	to_hand	s574
339.568	0.281	0	PA_without_intermediate	0,0,0,1,2,0,3,0,0	test	ward_and_allport	1,0,0,0,0,0,3,2,0	82.0	38.0	0.281	0,0,0,1,2,3,0,0,0	to_board	s574
339.858	0.256	0	PA_without_intermediate	0,0,0,1,0,0,3,0,0	test	ward_and_allport	1,0,0,0,0,0,3,2,0	71.0	38.0	0.256	0,0,0,1,2,3,0,0,0	to_hand	s574
340.115	1.107	0	PA_without_intermediate	0,0,0,1,0,0,3,2,0	test	ward_and_allport	1,0,0,0,0,0,3,2,0	82.0	38.0	1.107	0,0,0,1,2,3,0,0,0	to_board	s574
341.231	0.6	0	PA_without_intermediate	0,0,0,0,0,0,3,2,0	test	ward_and_allport	1,0,0,0,0,0,3,2,0	71.0	38.0	0.6	0,0,0,1,2,3,0,0,0	to_hand	s574
341.832	0.099	0	PA_without_intermediate	1,0,0,0,0,0,3,2,0	test	ward_and_allport	1,0,0,0,0,0,3,2,0	89.0	38.0	0.099	0,0,0,1,2,3,0,0,0	to_board	s574
341.94	1.0	0	PA_without_intermediate	n/a	test	ward_and_allport	n/a	-1.0	38.0	n/a	n/a	feedback	s574
342.94	2.224	0	PA_without_intermediate	n/a	test	ward_and_allport	n/a	-1.0	38.0	n/a	n/a	ITI	s574
345.171	1.163	1	PA_without_intermediate	0,0,0,0,0,0,1,2,0	test	ward_and_allport	3,1,0,2,0,0,0,0,0	82.0	39.0	1.163	0,0,0,0,0,0,1,2,3	to_hand	s574
346.335	0.19	0	PA_without_intermediate	3,0,0,0,0,0,1,2,0	test	ward_and_allport	3,1,0,2,0,0,0,0,0	89.0	39.0	0.19	0,0,0,0,0,0,1,2,3	to_board	s574
346.532	1.361	0	PA_without_intermediate	3,0,0,0,0,0,1,0,0	test	ward_and_allport	3,1,0,2,0,0,0,0,0	82.0	39.0	1.361	0,0,0,0,0,0,1,2,3	to_hand	s574
347.894	0.174	0	PA_without_intermediate	3,0,0,2,0,0,1,0,0	test	ward_and_allport	3,1,0,2,0,0,0,0,0	71.0	39.0	0.174	0,0,0,0,0,0,1,2,3	to_board	s574
348.075	0.348	0	PA_without_intermediate	3,0,0,2,0,0,0,0,0	test	ward_and_allport	3,1,0,2,0,0,0,0,0	82.0	39.0	0.348	0,0,0,0,0,0,1,2,3	to_hand	s574
348.424	0.134	0	PA_without_intermediate	3,1,0,2,0,0,0,0,0	test	ward_and_allport	3,1,0,2,0,0,0,0,0	89.0	39.0	0.134	0,0,0,0,0,0,1,2,3	to_board	s574
348.567	1.0	0	PA_without_intermediate	n/a	test	ward_and_allport	n/a	-1.0	39.0	n/a	n/a	feedback	s574
349.567	2.36	0	PA_without_intermediate	n/a	test	ward_and_allport	n/a	-1.0	39.0	n/a	n/a	ITI	s574
351.937	2.219	1	PA_without_intermediate	1,2,0,0,0,0,0,0,0	test	ward_and_allport	0,0,0,1,0,0,3,2,0	89.0	40.0	2.219	1,2,3,0,0,0,0,0,0	to_hand	s574
354.156	0.326	0	PA_without_intermediate	1,2,0,0,0,0,3,0,0	test	ward_and_allport	0,0,0,1,0,0,3,2,0	82.0	40.0	0.326	1,2,3,0,0,0,0,0,0	to_board	s574
354.492	0.564	0	PA_without_intermediate	1,0,0,0,0,0,3,0,0	test	ward_and_allport	0,0,0,1,0,0,3,2,0	89.0	40.0	0.564	1,2,3,0,0,0,0,0,0	to_hand	s574
355.057	0.209	0	PA_without_intermediate	1,0,0,0,0,0,3,2,0	test	ward_and_allport	0,0,0,1,0,0,3,2,0	82.0	40.0	0.209	1,2,3,0,0,0,0,0,0	to_board	s574
355.276	1.113	0	PA_without_intermediate	0,0,0,0,0,0,3,2,0	test	ward_and_allport	0,0,0,1,0,0,3,2,0	89.0	40.0	1.113	1,2,3,0,0,0,0,0,0	to_hand	s574
356.39	0.328	0	PA_without_intermediate	0,0,0,1,0,0,3,2,0	test	ward_and_allport	0,0,0,1,0,0,3,2,0	71.0	40.0	0.328	1,2,3,0,0,0,0,0,0	to_board	s574
356.733	1.0	0	PA_without_intermediate	n/a	test	ward_and_allport	n/a	-1.0	40.0	n/a	n/a	feedback	s574
357.733	1.0	0	PA_without_intermediate	n/a	test	ward_and_allport	n/a	-1.0	40.0	n/a	n/a	ITI	s574
358.742	1.185	1	PA_without_intermediate	0,0,0,1,2,0,0,0,0	test	ward_and_allport	3,1,0,0,0,0,2,0,0	71.0	41.0	1.185	0,0,0,1,2,3,0,0,0	to_hand	s574
359.928	0.325	0	PA_without_intermediate	3,0,0,1,2,0,0,0,0	test	ward_and_allport	3,1,0,0,0,0,2,0,0	89.0	41.0	0.325	0,0,0,1,2,3,0,0,0	to_board	s574
360.26	0.878	0	PA_without_intermediate	3,0,0,1,0,0,0,0,0	test	ward_and_allport	3,1,0,0,0,0,2,0,0	71.0	41.0	0.878	0,0,0,1,2,3,0,0,0	to_hand	s574
361.14	0.347	0	PA_without_intermediate	3,0,0,1,0,0,2,0,0	test	ward_and_allport	3,1,0,0,0,0,2,0,0	82.0	41.0	0.347	0,0,0,1,2,3,0,0,0	to_board	s574
361.494	0.357	0	PA_without_intermediate	3,0,0,0,0,0,2,0,0	test	ward_and_allport	3,1,0,0,0,0,2,0,0	71.0	41.0	0.357	0,0,0,1,2,3,0,0,0	to_hand	s574
361.852	0.182	0	PA_without_intermediate	3,1,0,0,0,0,2,0,0	test	ward_and_allport	3,1,0,0,0,0,2,0,0	89.0	41.0	0.182	0,0,0,1,2,3,0,0,0	to_board	s574
362.042	1.0	0	PA_without_intermediate	n/a	test	ward_and_allport	n/a	-1.0	41.0	n/a	n/a	feedback	s574
363.042	1.408	0	PA_without_intermediate	n/a	test	ward_and_allport	n/a	-1.0	41.0	n/a	n/a	ITI	s574
364.458	2.564	1	PA_with_intermediate	1,2,0,0,0,0,0,0,0	test	ward_and_allport	1,3,0,2,0,0,0,0,0	89.0	42.0	2.564	1,2,3,0,0,0,0,0,0	to_hand	s574
367.023	1.583	0	PA_with_intermediate	1,2,0,0,0,0,3,0,0	test	ward_and_allport	1,3,0,2,0,0,0,0,0	82.0	42.0	1.583	1,2,3,0,0,0,0,0,0	to_board	s574
368.617	0.438	0	PA_with_intermediate	1,0,0,0,0,0,3,0,0	test	ward_and_allport	1,3,0,2,0,0,0,0,0	89.0	42.0	0.438	1,2,3,0,0,0,0,0,0	to_hand	s574
369.057	0.194	0	PA_with_intermediate	1,0,0,2,0,0,3,0,0	test	ward_and_allport	1,3,0,2,0,0,0,0,0	71.0	42.0	0.194	1,2,3,0,0,0,0,0,0	to_board	s574
369.262	0.316	0	PA_with_intermediate	1,0,0,2,0,0,0,0,0	test	ward_and_allport	1,3,0,2,0,0,0,0,0	82.0	42.0	0.316	1,2,3,0,0,0,0,0,0	to_hand	s574
369.578	0.215	0	PA_with_intermediate	1,3,0,2,0,0,0,0,0	test	ward_and_allport	1,3,0,2,0,0,0,0,0	89.0	42.0	0.215	1,2,3,0,0,0,0,0,0	to_board	s574
369.806	1.0	0	PA_with_intermediate	n/a	test	ward_and_allport	n/a	-1.0	42.0	n/a	n/a	feedback	s574
370.806	1.136	0	PA_with_intermediate	n/a	test	ward_and_allport	n/a	-1.0	42.0	n/a	n/a	ITI	s574
371.949	0.974	1	PA_without_intermediate	0,0,0,1,2,0,0,0,0	test	ward_and_allport	1,0,0,0,0,0,3,2,0	71.0	43.0	0.974	0,0,0,1,2,3,0,0,0	to_hand	s574
372.925	0.876	0	PA_without_intermediate	0,0,0,1,2,0,3,0,0	test	ward_and_allport	1,0,0,0,0,0,3,2,0	82.0	43.0	0.876	0,0,0,1,2,3,0,0,0	to_board	s574
373.81	0.195	0	PA_without_intermediate	0,0,0,1,0,0,3,0,0	test	ward_and_allport	1,0,0,0,0,0,3,2,0	71.0	43.0	0.195	0,0,0,1,2,3,0,0,0	to_hand	s574
374.005	0.23	0	PA_without_intermediate	0,0,0,1,0,0,3,2,0	test	ward_and_allport	1,0,0,0,0,0,3,2,0	82.0	43.0	0.23	0,0,0,1,2,3,0,0,0	to_board	s574
374.243	0.341	0	PA_without_intermediate	0,0,0,0,0,0,3,2,0	test	ward_and_allport	1,0,0,0,0,0,3,2,0	71.0	43.0	0.341	0,0,0,1,2,3,0,0,0	to_hand	s574
374.586	0.318	0	PA_without_intermediate	1,0,0,0,0,0,3,2,0	test	ward_and_allport	1,0,0,0,0,0,3,2,0	89.0	43.0	0.318	0,0,0,1,2,3,0,0,0	to_board	s574
374.918	1.0	0	PA_without_intermediate	n/a	test	ward_and_allport	n/a	-1.0	43.0	n/a	n/a	feedback	s574
375.918	4.128	0	PA_without_intermediate	n/a	test	ward_and_allport	n/a	-1.0	43.0	n/a	n/a	ITI	s574
380.054	1.168	1	PA_without_intermediate	0,0,0,0,0,0,1,2,0	test	ward_and_allport	3,2,0,1,0,0,0,0,0	82.0	44.0	1.168	0,0,0,0,0,0,1,2,3	to_hand	s574
381.223	0.224	0	PA_without_intermediate	3,0,0,0,0,0,1,2,0	test	ward_and_allport	3,2,0,1,0,0,0,0,0	89.0	44.0	0.224	0,0,0,0,0,0,1,2,3	to_board	s574
381.454	0.495	0	PA_without_intermediate	3,0,0,0,0,0,1,0,0	test	ward_and_allport	3,2,0,1,0,0,0,0,0	82.0	44.0	0.495	0,0,0,0,0,0,1,2,3	to_hand	s574
381.951	0.294	0	PA_without_intermediate	3,2,0,0,0,0,1,0,0	test	ward_and_allport	3,2,0,1,0,0,0,0,0	89.0	44.0	0.294	0,0,0,0,0,0,1,2,3	to_board	s574
382.254	0.422	0	PA_without_intermediate	3,2,0,0,0,0,0,0,0	test	ward_and_allport	3,2,0,1,0,0,0,0,0	82.0	44.0	0.422	0,0,0,0,0,0,1,2,3	to_hand	s574
382.678	0.22	0	PA_without_intermediate	3,2,0,1,0,0,0,0,0	test	ward_and_allport	3,2,0,1,0,0,0,0,0	71.0	44.0	0.22	0,0,0,0,0,0,1,2,3	to_board	s574
382.913	1.0	0	PA_without_intermediate	n/a	test	ward_and_allport	n/a	-1.0	44.0	n/a	n/a	feedback	s574
383.913	1.136	0	PA_without_intermediate	n/a	test	ward_and_allport	n/a	-1.0	44.0	n/a	n/a	ITI	s574
390.061	1.528	1	PA_without_intermediate	1,2,0,0,0,0,0,0,0	test	ward_and_allport	0,0,0,3,2,0,1,0,0	89.0	45.0	1.528	1,2,3,0,0,0,0,0,0	to_hand	s574
391.59	0.404	0	PA_without_intermediate	1,2,0,3,0,0,0,0,0	test	ward_and_allport	0,0,0,3,2,0,1,0,0	71.0	45.0	0.404	1,2,3,0,0,0,0,0,0	to_board	s574
392.004	0.355	0	PA_without_intermediate	1,0,0,3,0,0,0,0,0	test	ward_and_allport	0,0,0,3,2,0,1,0,0	89.0	45.0	0.355	1,2,3,0,0,0,0,0,0	to_hand	s574
392.361	0.288	0	PA_without_intermediate	1,0,0,3,2,0,0,0,0	test	ward_and_allport	0,0,0,3,2,0,1,0,0	71.0	45.0	0.288	1,2,3,0,0,0,0,0,0	to_board	s574
392.66	0.281	0	PA_without_intermediate	0,0,0,3,2,0,0,0,0	test	ward_and_allport	0,0,0,3,2,0,1,0,0	89.0	45.0	0.281	1,2,3,0,0,0,0,0,0	to_hand	s574
392.943	0.287	0	PA_without_intermediate	0,0,0,3,2,0,1,0,0	test	ward_and_allport	0,0,0,3,2,0,1,0,0	82.0	45.0	0.287	1,2,3,0,0,0,0,0,0	to_board	s574
393.241	1.0	0	PA_without_intermediate	n/a	test	ward_and_allport	n/a	-1.0	45.0	n/a	n/a	feedback	s574
394.241	4.264	0	PA_without_intermediate	n/a	test	ward_and_allport	n/a	-1.0	45.0	n/a	n/a	ITI	s574
398.514	1.921	1	PA_with_intermediate	0,0,0,1,2,0,0,0,0	test	ward_and_allport	2,0,0,1,3,0,0,0,0	71.0	46.0	1.921	0,0,0,1,2,3,0,0,0	to_hand	s574
400.436	0.891	0	PA_with_intermediate	0,0,0,1,2,0,3,0,0	test	ward_and_allport	2,0,0,1,3,0,0,0,0	82.0	46.0	0.891	0,0,0,1,2,3,0,0,0	to_board	s574
401.337	0.256	0	PA_with_intermediate	0,0,0,1,0,0,3,0,0	test	ward_and_allport	2,0,0,1,3,0,0,0,0	71.0	46.0	0.256	0,0,0,1,2,3,0,0,0	to_hand	s574
401.594	0.198	0	PA_with_intermediate	2,0,0,1,0,0,3,0,0	test	ward_and_allport	2,0,0,1,3,0,0,0,0	89.0	46.0	0.198	0,0,0,1,2,3,0,0,0	to_board	s574
401.804	0.243	0	PA_with_intermediate	2,0,0,1,0,0,0,0,0	test	ward_and_allport	2,0,0,1,3,0,0,0,0	82.0	46.0	0.243	0,0,0,1,2,3,0,0,0	to_hand	s574
402.049	0.195	0	PA_with_intermediate	2,0,0,1,3,0,0,0,0	test	ward_and_allport	2,0,0,1,3,0,0,0,0	71.0	46.0	0.195	0,0,0,1,2,3,0,0,0	to_board	s574
402.258	1.0	0	PA_with_intermediate	n/a	test	ward_and_allport	n/a	-1.0	46.0	n/a	n/a	feedback	s574
403.258	3.04	0	PA_with_intermediate	n/a	test	ward_and_allport	n/a	-1.0	46.0	n/a	n/a	ITI	s574
406.306	1.683	1	PA_with_intermediate	0,0,0,0,0,0,1,2,0	test	ward_and_allport	2,3,0,0,0,0,1,0,0	82.0	47.0	1.683	0,0,0,0,0,0,1,2,3	to_hand	s574
407.991	1.348	0	PA_with_intermediate	0,0,0,3,0,0,1,2,0	test	ward_and_allport	2,3,0,0,0,0,1,0,0	71.0	47.0	1.348	0,0,0,0,0,0,1,2,3	to_board	s574
409.347	0.229	0	PA_with_intermediate	0,0,0,3,0,0,1,0,0	test	ward_and_allport	2,3,0,0,0,0,1,0,0	82.0	47.0	0.229	0,0,0,0,0,0,1,2,3	to_hand	s574
409.577	0.265	0	PA_with_intermediate	2,0,0,3,0,0,1,0,0	test	ward_and_allport	2,3,0,0,0,0,1,0,0	89.0	47.0	0.265	0,0,0,0,0,0,1,2,3	to_board	s574
409.853	0.189	0	PA_with_intermediate	2,0,0,0,0,0,1,0,0	test	ward_and_allport	2,3,0,0,0,0,1,0,0	71.0	47.0	0.189	0,0,0,0,0,0,1,2,3	to_hand	s574
410.043	0.223	0	PA_with_intermediate	2,3,0,0,0,0,1,0,0	test	ward_and_allport	2,3,0,0,0,0,1,0,0	89.0	47.0	0.223	0,0,0,0,0,0,1,2,3	to_board	s574
410.279	1.0	0	PA_with_intermediate	n/a	test	ward_and_allport	n/a	-1.0	47.0	n/a	n/a	feedback	s574
411.279	1.136	0	PA_with_intermediate	n/a	test	ward_and_allport	n/a	-1.0	47.0	n/a	n/a	ITI	s574
n/a	n/a	0	n/a	n/a	n/a	n/a	n/a	n/a	n/a	n/a	n/a	ITI	n/a
