onset	duration	planning	condition	current_position	exp_stage	experiment_exp_id	goal_state	key_press	problem_id	response_time	start_state	trial_id	worker_id
-62.173	0.0	0	n/a	n/a	n/a	ward_and_allport	n/a	32.0	n/a	22.719	n/a	instructions	s618
3.007	4.354	1	UA_with_intermediate	1,0,0,2,0,0,0,0,0	practice	ward_and_allport	1,2,3,0,0,0,0,0,0	71.0	0.0	4.354	1,0,0,2,3,0,0,0,0	to_hand	s618
7.363	1.429	0	UA_with_intermediate	1,3,0,2,0,0,0,0,0	practice	ward_and_allport	1,2,3,0,0,0,0,0,0	89.0	0.0	1.429	1,0,0,2,3,0,0,0,0	to_board	s618
8.793	0.485	0	UA_with_intermediate	1,3,0,0,0,0,0,0,0	practice	ward_and_allport	1,2,3,0,0,0,0,0,0	71.0	0.0	0.485	1,0,0,2,3,0,0,0,0	to_hand	s618
9.279	0.319	0	UA_with_intermediate	1,3,2,0,0,0,0,0,0	practice	ward_and_allport	1,2,3,0,0,0,0,0,0	89.0	0.0	0.319	1,0,0,2,3,0,0,0,0	to_board	s618
9.6	5.493	0	UA_with_intermediate	1,3,0,0,0,0,0,0,0	practice	ward_and_allport	1,2,3,0,0,0,0,0,0	89.0	0.0	5.493	1,0,0,2,3,0,0,0,0	to_hand	s618
15.094	0.559	0	UA_with_intermediate	1,3,0,2,0,0,0,0,0	practice	ward_and_allport	1,2,3,0,0,0,0,0,0	71.0	0.0	0.559	1,0,0,2,3,0,0,0,0	to_board	s618
15.657	2.235	0	UA_with_intermediate	1,0,0,2,0,0,0,0,0	practice	ward_and_allport	1,2,3,0,0,0,0,0,0	89.0	0.0	2.235	1,0,0,2,3,0,0,0,0	to_hand	s618
17.893	0.379	0	UA_with_intermediate	1,0,0,2,0,0,3,0,0	practice	ward_and_allport	1,2,3,0,0,0,0,0,0	82.0	0.0	0.379	1,0,0,2,3,0,0,0,0	to_board	s618
18.273	0.618	0	UA_with_intermediate	1,0,0,0,0,0,3,0,0	practice	ward_and_allport	1,2,3,0,0,0,0,0,0	71.0	0.0	0.618	1,0,0,2,3,0,0,0,0	to_hand	s618
18.892	0.404	0	UA_with_intermediate	1,2,0,0,0,0,3,0,0	practice	ward_and_allport	1,2,3,0,0,0,0,0,0	89.0	0.0	0.404	1,0,0,2,3,0,0,0,0	to_board	s618
19.297	0.519	0	UA_with_intermediate	1,2,0,0,0,0,0,0,0	practice	ward_and_allport	1,2,3,0,0,0,0,0,0	82.0	0.0	0.519	1,0,0,2,3,0,0,0,0	to_hand	s618
19.818	0.364	0	UA_with_intermediate	1,2,3,0,0,0,0,0,0	practice	ward_and_allport	1,2,3,0,0,0,0,0,0	89.0	0.0	0.364	1,0,0,2,3,0,0,0,0	to_board	s618
20.187	1.0	0	UA_with_intermediate	n/a	practice	ward_and_allport	n/a	-1.0	0.0	n/a	n/a	feedback	s618
22.689	2.833	1	UA_with_intermediate	1,0,0,3,0,0,0,0,0	practice	ward_and_allport	1,3,2,0,0,0,0,0,0	89.0	1.0	2.833	1,2,0,3,0,0,0,0,0	to_hand	s618
25.524	0.366	0	UA_with_intermediate	1,0,0,3,0,0,2,0,0	practice	ward_and_allport	1,3,2,0,0,0,0,0,0	82.0	1.0	0.366	1,2,0,3,0,0,0,0,0	to_board	s618
25.891	0.386	0	UA_with_intermediate	1,0,0,0,0,0,2,0,0	practice	ward_and_allport	1,3,2,0,0,0,0,0,0	71.0	1.0	0.386	1,2,0,3,0,0,0,0,0	to_hand	s618
26.279	0.344	0	UA_with_intermediate	1,3,0,0,0,0,2,0,0	practice	ward_and_allport	1,3,2,0,0,0,0,0,0	89.0	1.0	0.344	1,2,0,3,0,0,0,0,0	to_board	s618
26.625	0.421	0	UA_with_intermediate	1,3,0,0,0,0,0,0,0	practice	ward_and_allport	1,3,2,0,0,0,0,0,0	82.0	1.0	0.421	1,2,0,3,0,0,0,0,0	to_hand	s618
27.047	0.314	0	UA_with_intermediate	1,3,2,0,0,0,0,0,0	practice	ward_and_allport	1,3,2,0,0,0,0,0,0	89.0	1.0	0.314	1,2,0,3,0,0,0,0,0	to_board	s618
27.366	1.0	0	UA_with_intermediate	n/a	practice	ward_and_allport	n/a	-1.0	1.0	n/a	n/a	feedback	s618
28.366	1.1	0	UA_with_intermediate	n/a	practice	ward_and_allport	n/a	-1.0	1.0	n/a	n/a	ITI	s618
29.469	2.591	1	UA_without_intermediate	0,0,0,1,2,0,0,0,0	practice	ward_and_allport	3,2,1,0,0,0,0,0,0	82.0	2.0	2.591	0,0,0,1,2,0,3,0,0	to_hand	s618
32.061	0.67	0	UA_without_intermediate	3,0,0,1,2,0,0,0,0	practice	ward_and_allport	3,2,1,0,0,0,0,0,0	89.0	2.0	0.67	0,0,0,1,2,0,3,0,0	to_board	s618
32.732	0.495	0	UA_without_intermediate	3,0,0,1,0,0,0,0,0	practice	ward_and_allport	3,2,1,0,0,0,0,0,0	71.0	2.0	0.495	0,0,0,1,2,0,3,0,0	to_hand	s618
33.228	0.538	0	UA_without_intermediate	3,2,0,1,0,0,0,0,0	practice	ward_and_allport	3,2,1,0,0,0,0,0,0	89.0	2.0	0.538	0,0,0,1,2,0,3,0,0	to_board	s618
33.768	0.392	0	UA_without_intermediate	3,2,0,0,0,0,0,0,0	practice	ward_and_allport	3,2,1,0,0,0,0,0,0	71.0	2.0	0.392	0,0,0,1,2,0,3,0,0	to_hand	s618
34.161	0.393	0	UA_without_intermediate	3,2,1,0,0,0,0,0,0	practice	ward_and_allport	3,2,1,0,0,0,0,0,0	89.0	2.0	0.393	0,0,0,1,2,0,3,0,0	to_board	s618
34.556	1.0	0	UA_without_intermediate	n/a	practice	ward_and_allport	n/a	-1.0	2.0	n/a	n/a	feedback	s618
35.556	1.2	0	UA_without_intermediate	n/a	practice	ward_and_allport	n/a	-1.0	2.0	n/a	n/a	ITI	s618
36.758	2.207	1	UA_without_intermediate	0,0,0,1,0,0,3,0,0	practice	ward_and_allport	2,3,1,0,0,0,0,0,0	71.0	3.0	2.207	0,0,0,1,2,0,3,0,0	to_hand	s618
38.967	0.681	0	UA_without_intermediate	2,0,0,1,0,0,3,0,0	practice	ward_and_allport	2,3,1,0,0,0,0,0,0	89.0	3.0	0.681	0,0,0,1,2,0,3,0,0	to_board	s618
39.65	0.681	0	UA_without_intermediate	2,0,0,1,0,0,0,0,0	practice	ward_and_allport	2,3,1,0,0,0,0,0,0	82.0	3.0	0.681	0,0,0,1,2,0,3,0,0	to_hand	s618
40.332	0.394	0	UA_without_intermediate	2,3,0,1,0,0,0,0,0	practice	ward_and_allport	2,3,1,0,0,0,0,0,0	89.0	3.0	0.394	0,0,0,1,2,0,3,0,0	to_board	s618
40.727	0.399	0	UA_without_intermediate	2,3,0,0,0,0,0,0,0	practice	ward_and_allport	2,3,1,0,0,0,0,0,0	71.0	3.0	0.399	0,0,0,1,2,0,3,0,0	to_hand	s618
41.127	0.367	0	UA_without_intermediate	2,3,1,0,0,0,0,0,0	practice	ward_and_allport	2,3,1,0,0,0,0,0,0	89.0	3.0	0.367	0,0,0,1,2,0,3,0,0	to_board	s618
41.498	1.0	0	UA_without_intermediate	n/a	practice	ward_and_allport	n/a	-1.0	3.0	n/a	n/a	feedback	s618
42.498	1.0	0	UA_without_intermediate	n/a	practice	ward_and_allport	n/a	-1.0	3.0	n/a	n/a	ITI	s618
45.509	4.072	1	PA_with_intermediate	0,0,0,0,0,0,1,2,0	test	ward_and_allport	0,0,0,2,3,0,1,0,0	82.0	0.0	4.072	0,0,0,0,0,0,1,2,3	to_hand	s618
49.582	0.671	0	PA_with_intermediate	3,0,0,0,0,0,1,2,0	test	ward_and_allport	0,0,0,2,3,0,1,0,0	89.0	0.0	0.671	0,0,0,0,0,0,1,2,3	to_board	s618
50.255	1.864	0	PA_with_intermediate	3,0,0,0,0,0,1,0,0	test	ward_and_allport	0,0,0,2,3,0,1,0,0	82.0	0.0	1.864	0,0,0,0,0,0,1,2,3	to_hand	s618
52.12	0.496	0	PA_with_intermediate	3,0,0,2,0,0,1,0,0	test	ward_and_allport	0,0,0,2,3,0,1,0,0	71.0	0.0	0.496	0,0,0,0,0,0,1,2,3	to_board	s618
52.618	1.331	0	PA_with_intermediate	0,0,0,2,0,0,1,0,0	test	ward_and_allport	0,0,0,2,3,0,1,0,0	89.0	0.0	1.331	0,0,0,0,0,0,1,2,3	to_hand	s618
53.95	0.457	0	PA_with_intermediate	0,0,0,2,3,0,1,0,0	test	ward_and_allport	0,0,0,2,3,0,1,0,0	71.0	0.0	0.457	0,0,0,0,0,0,1,2,3	to_board	s618
54.413	1.0	0	PA_with_intermediate	n/a	test	ward_and_allport	n/a	-1.0	0.0	n/a	n/a	feedback	s618
55.413	2.768	0	PA_with_intermediate	n/a	test	ward_and_allport	n/a	-1.0	0.0	n/a	n/a	ITI	s618
58.184	3.346	1	PA_with_intermediate	0,0,0,1,2,0,0,0,0	test	ward_and_allport	0,0,0,1,3,0,2,0,0	71.0	1.0	3.346	0,0,0,1,2,3,0,0,0	to_hand	s618
61.531	0.512	0	PA_with_intermediate	3,0,0,1,2,0,0,0,0	test	ward_and_allport	0,0,0,1,3,0,2,0,0	89.0	1.0	0.512	0,0,0,1,2,3,0,0,0	to_board	s618
62.045	0.41	0	PA_with_intermediate	3,0,0,1,0,0,0,0,0	test	ward_and_allport	0,0,0,1,3,0,2,0,0	71.0	1.0	0.41	0,0,0,1,2,3,0,0,0	to_hand	s618
62.456	0.664	0	PA_with_intermediate	3,0,0,1,0,0,2,0,0	test	ward_and_allport	0,0,0,1,3,0,2,0,0	82.0	1.0	0.664	0,0,0,1,2,3,0,0,0	to_board	s618
63.122	1.3	0	PA_with_intermediate	0,0,0,1,0,0,2,0,0	test	ward_and_allport	0,0,0,1,3,0,2,0,0	89.0	1.0	1.3	0,0,0,1,2,3,0,0,0	to_hand	s618
64.423	0.259	0	PA_with_intermediate	0,0,0,1,3,0,2,0,0	test	ward_and_allport	0,0,0,1,3,0,2,0,0	71.0	1.0	0.259	0,0,0,1,2,3,0,0,0	to_board	s618
64.688	1.0	0	PA_with_intermediate	n/a	test	ward_and_allport	n/a	-1.0	1.0	n/a	n/a	feedback	s618
65.688	1.68	0	PA_with_intermediate	n/a	test	ward_and_allport	n/a	-1.0	1.0	n/a	n/a	ITI	s618
67.37	2.423	1	PA_without_intermediate	0,0,0,1,2,0,0,0,0	test	ward_and_allport	3,1,0,0,0,0,2,0,0	71.0	2.0	2.423	0,0,0,1,2,3,0,0,0	to_hand	s618
69.794	0.848	0	PA_without_intermediate	0,0,0,1,2,0,3,0,0	test	ward_and_allport	3,1,0,0,0,0,2,0,0	82.0	2.0	0.848	0,0,0,1,2,3,0,0,0	to_board	s618
70.644	1.242	0	PA_without_intermediate	0,0,0,1,0,0,3,0,0	test	ward_and_allport	3,1,0,0,0,0,2,0,0	71.0	2.0	1.242	0,0,0,1,2,3,0,0,0	to_hand	s618
71.887	2.046	0	PA_without_intermediate	2,0,0,1,0,0,3,0,0	test	ward_and_allport	3,1,0,0,0,0,2,0,0	89.0	2.0	2.046	0,0,0,1,2,3,0,0,0	to_board	s618
73.936	0.438	0	PA_without_intermediate	2,0,0,1,0,0,0,0,0	test	ward_and_allport	3,1,0,0,0,0,2,0,0	82.0	2.0	0.438	0,0,0,1,2,3,0,0,0	to_hand	s618
74.375	0.421	0	PA_without_intermediate	2,3,0,1,0,0,0,0,0	test	ward_and_allport	3,1,0,0,0,0,2,0,0	89.0	2.0	0.421	0,0,0,1,2,3,0,0,0	to_board	s618
74.797	1.274	0	PA_without_intermediate	2,3,0,0,0,0,0,0,0	test	ward_and_allport	3,1,0,0,0,0,2,0,0	71.0	2.0	1.274	0,0,0,1,2,3,0,0,0	to_hand	s618
76.073	0.328	0	PA_without_intermediate	2,3,0,0,0,0,1,0,0	test	ward_and_allport	3,1,0,0,0,0,2,0,0	82.0	2.0	0.328	0,0,0,1,2,3,0,0,0	to_board	s618
76.404	1.489	0	PA_without_intermediate	2,0,0,0,0,0,1,0,0	test	ward_and_allport	3,1,0,0,0,0,2,0,0	89.0	2.0	1.489	0,0,0,1,2,3,0,0,0	to_hand	s618
77.895	0.447	0	PA_without_intermediate	2,0,0,0,0,0,1,3,0	test	ward_and_allport	3,1,0,0,0,0,2,0,0	82.0	2.0	0.447	0,0,0,1,2,3,0,0,0	to_board	s618
78.344	1.926	0	PA_without_intermediate	0,0,0,0,0,0,1,3,0	test	ward_and_allport	3,1,0,0,0,0,2,0,0	89.0	2.0	1.926	0,0,0,1,2,3,0,0,0	to_hand	s618
80.272	1.202	0	PA_without_intermediate	0,0,0,2,0,0,1,3,0	test	ward_and_allport	3,1,0,0,0,0,2,0,0	71.0	2.0	1.202	0,0,0,1,2,3,0,0,0	to_board	s618
81.476	0.694	0	PA_without_intermediate	0,0,0,2,0,0,1,0,0	test	ward_and_allport	3,1,0,0,0,0,2,0,0	82.0	2.0	0.694	0,0,0,1,2,3,0,0,0	to_hand	s618
82.172	0.403	0	PA_without_intermediate	0,0,0,2,3,0,1,0,0	test	ward_and_allport	3,1,0,0,0,0,2,0,0	71.0	2.0	0.403	0,0,0,1,2,3,0,0,0	to_board	s618
82.578	0.343	0	PA_without_intermediate	0,0,0,2,3,0,0,0,0	test	ward_and_allport	3,1,0,0,0,0,2,0,0	82.0	2.0	0.343	0,0,0,1,2,3,0,0,0	to_hand	s618
82.921	1.757	0	PA_without_intermediate	0,0,0,2,3,0,1,0,0	test	ward_and_allport	3,1,0,0,0,0,2,0,0	82.0	2.0	1.757	0,0,0,1,2,3,0,0,0	to_board	s618
84.681	0.386	0	PA_without_intermediate	0,0,0,2,0,0,1,0,0	test	ward_and_allport	3,1,0,0,0,0,2,0,0	71.0	2.0	0.386	0,0,0,1,2,3,0,0,0	to_hand	s618
85.069	0.248	0	PA_without_intermediate	3,0,0,2,0,0,1,0,0	test	ward_and_allport	3,1,0,0,0,0,2,0,0	89.0	2.0	0.248	0,0,0,1,2,3,0,0,0	to_board	s618
85.32	0.771	0	PA_without_intermediate	3,0,0,2,0,0,0,0,0	test	ward_and_allport	3,1,0,0,0,0,2,0,0	82.0	2.0	0.771	0,0,0,1,2,3,0,0,0	to_hand	s618
86.092	0.283	0	PA_without_intermediate	3,1,0,2,0,0,0,0,0	test	ward_and_allport	3,1,0,0,0,0,2,0,0	89.0	2.0	0.283	0,0,0,1,2,3,0,0,0	to_board	s618
86.378	0.909	0	PA_without_intermediate	3,1,0,0,0,0,0,0,0	test	ward_and_allport	3,1,0,0,0,0,2,0,0	71.0	2.0	0.909	0,0,0,1,2,3,0,0,0	to_hand	s618
87.288	0.156	0	PA_without_intermediate	3,1,0,0,0,0,2,0,0	test	ward_and_allport	3,1,0,0,0,0,2,0,0	82.0	2.0	0.156	0,0,0,1,2,3,0,0,0	to_board	s618
87.449	1.0	0	PA_without_intermediate	n/a	test	ward_and_allport	n/a	-1.0	2.0	n/a	n/a	feedback	s618
88.449	2.224	0	PA_without_intermediate	n/a	test	ward_and_allport	n/a	-1.0	2.0	n/a	n/a	ITI	s618
90.676	3.923	1	PA_without_intermediate	0,0,0,1,2,0,0,0,0	test	ward_and_allport	3,2,0,0,0,0,1,0,0	71.0	3.0	3.923	0,0,0,1,2,3,0,0,0	to_hand	s618
94.6	1.302	0	PA_without_intermediate	3,0,0,1,2,0,0,0,0	test	ward_and_allport	3,2,0,0,0,0,1,0,0	89.0	3.0	1.302	0,0,0,1,2,3,0,0,0	to_board	s618
95.905	1.196	0	PA_without_intermediate	3,0,0,1,0,0,0,0,0	test	ward_and_allport	3,2,0,0,0,0,1,0,0	71.0	3.0	1.196	0,0,0,1,2,3,0,0,0	to_hand	s618
97.101	0.838	0	PA_without_intermediate	3,0,0,1,0,0,2,0,0	test	ward_and_allport	3,2,0,0,0,0,1,0,0	82.0	3.0	0.838	0,0,0,1,2,3,0,0,0	to_board	s618
97.942	0.513	0	PA_without_intermediate	0,0,0,1,0,0,2,0,0	test	ward_and_allport	3,2,0,0,0,0,1,0,0	89.0	3.0	0.513	0,0,0,1,2,3,0,0,0	to_hand	s618
98.457	0.554	0	PA_without_intermediate	0,0,0,1,3,0,2,0,0	test	ward_and_allport	3,2,0,0,0,0,1,0,0	71.0	3.0	0.554	0,0,0,1,2,3,0,0,0	to_board	s618
99.014	0.929	0	PA_without_intermediate	0,0,0,1,0,0,2,0,0	test	ward_and_allport	3,2,0,0,0,0,1,0,0	71.0	3.0	0.929	0,0,0,1,2,3,0,0,0	to_hand	s618
99.944	0.238	0	PA_without_intermediate	3,0,0,1,0,0,2,0,0	test	ward_and_allport	3,2,0,0,0,0,1,0,0	89.0	3.0	0.238	0,0,0,1,2,3,0,0,0	to_board	s618
100.184	0.609	0	PA_without_intermediate	3,0,0,1,0,0,0,0,0	test	ward_and_allport	3,2,0,0,0,0,1,0,0	82.0	3.0	0.609	0,0,0,1,2,3,0,0,0	to_hand	s618
100.794	0.244	0	PA_without_intermediate	3,2,0,1,0,0,0,0,0	test	ward_and_allport	3,2,0,0,0,0,1,0,0	89.0	3.0	0.244	0,0,0,1,2,3,0,0,0	to_board	s618
101.042	0.742	0	PA_without_intermediate	3,2,0,0,0,0,0,0,0	test	ward_and_allport	3,2,0,0,0,0,1,0,0	71.0	3.0	0.742	0,0,0,1,2,3,0,0,0	to_hand	s618
101.784	0.207	0	PA_without_intermediate	3,2,0,0,0,0,1,0,0	test	ward_and_allport	3,2,0,0,0,0,1,0,0	82.0	3.0	0.207	0,0,0,1,2,3,0,0,0	to_board	s618
101.996	1.0	0	PA_without_intermediate	n/a	test	ward_and_allport	n/a	-1.0	3.0	n/a	n/a	feedback	s618
102.996	2.36	0	PA_without_intermediate	n/a	test	ward_and_allport	n/a	-1.0	3.0	n/a	n/a	ITI	s618
105.361	4.231	1	PA_without_intermediate	0,0,0,0,0,0,1,2,0	test	ward_and_allport	1,0,0,3,2,0,0,0,0	82.0	4.0	4.231	0,0,0,0,0,0,1,2,3	to_hand	s618
109.593	0.469	0	PA_without_intermediate	0,0,0,3,0,0,1,2,0	test	ward_and_allport	1,0,0,3,2,0,0,0,0	71.0	4.0	0.469	0,0,0,0,0,0,1,2,3	to_board	s618
110.065	1.383	0	PA_without_intermediate	0,0,0,3,0,0,1,0,0	test	ward_and_allport	1,0,0,3,2,0,0,0,0	82.0	4.0	1.383	0,0,0,0,0,0,1,2,3	to_hand	s618
111.449	0.306	0	PA_without_intermediate	0,0,0,3,2,0,1,0,0	test	ward_and_allport	1,0,0,3,2,0,0,0,0	71.0	4.0	0.306	0,0,0,0,0,0,1,2,3	to_board	s618
111.759	0.801	0	PA_without_intermediate	0,0,0,3,2,0,0,0,0	test	ward_and_allport	1,0,0,3,2,0,0,0,0	82.0	4.0	0.801	0,0,0,0,0,0,1,2,3	to_hand	s618
112.56	0.296	0	PA_without_intermediate	1,0,0,3,2,0,0,0,0	test	ward_and_allport	1,0,0,3,2,0,0,0,0	89.0	4.0	0.296	0,0,0,0,0,0,1,2,3	to_board	s618
112.865	1.0	0	PA_without_intermediate	n/a	test	ward_and_allport	n/a	-1.0	4.0	n/a	n/a	feedback	s618
113.865	1.0	0	PA_without_intermediate	n/a	test	ward_and_allport	n/a	-1.0	4.0	n/a	n/a	ITI	s618
114.869	2.379	1	PA_without_intermediate	0,0,0,0,0,0,1,2,0	test	ward_and_allport	3,2,0,1,0,0,0,0,0	82.0	5.0	2.379	0,0,0,0,0,0,1,2,3	to_hand	s618
117.248	0.635	0	PA_without_intermediate	3,0,0,0,0,0,1,2,0	test	ward_and_allport	3,2,0,1,0,0,0,0,0	89.0	5.0	0.635	0,0,0,0,0,0,1,2,3	to_board	s618
117.887	0.584	0	PA_without_intermediate	3,0,0,0,0,0,1,0,0	test	ward_and_allport	3,2,0,1,0,0,0,0,0	82.0	5.0	0.584	0,0,0,0,0,0,1,2,3	to_hand	s618
118.472	0.523	0	PA_without_intermediate	3,2,0,0,0,0,1,0,0	test	ward_and_allport	3,2,0,1,0,0,0,0,0	89.0	5.0	0.523	0,0,0,0,0,0,1,2,3	to_board	s618
118.999	0.546	0	PA_without_intermediate	3,2,0,0,0,0,0,0,0	test	ward_and_allport	3,2,0,1,0,0,0,0,0	82.0	5.0	0.546	0,0,0,0,0,0,1,2,3	to_hand	s618
119.546	0.312	0	PA_without_intermediate	3,2,0,1,0,0,0,0,0	test	ward_and_allport	3,2,0,1,0,0,0,0,0	71.0	5.0	0.312	0,0,0,0,0,0,1,2,3	to_board	s618
119.861	1.0	0	PA_without_intermediate	n/a	test	ward_and_allport	n/a	-1.0	5.0	n/a	n/a	feedback	s618
120.861	1.408	0	PA_without_intermediate	n/a	test	ward_and_allport	n/a	-1.0	5.0	n/a	n/a	ITI	s618
122.273	1.7	1	PA_with_intermediate	0,0,0,1,2,0,0,0,0	test	ward_and_allport	2,0,0,1,3,0,0,0,0	71.0	6.0	1.7	0,0,0,1,2,3,0,0,0	to_hand	s618
123.974	0.43	0	PA_with_intermediate	0,0,0,1,2,0,3,0,0	test	ward_and_allport	2,0,0,1,3,0,0,0,0	82.0	6.0	0.43	0,0,0,1,2,3,0,0,0	to_board	s618
124.407	0.358	0	PA_with_intermediate	0,0,0,1,0,0,3,0,0	test	ward_and_allport	2,0,0,1,3,0,0,0,0	71.0	6.0	0.358	0,0,0,1,2,3,0,0,0	to_hand	s618
124.766	0.506	0	PA_with_intermediate	2,0,0,1,0,0,3,0,0	test	ward_and_allport	2,0,0,1,3,0,0,0,0	89.0	6.0	0.506	0,0,0,1,2,3,0,0,0	to_board	s618
125.275	2.127	0	PA_with_intermediate	2,0,0,1,0,0,0,0,0	test	ward_and_allport	2,0,0,1,3,0,0,0,0	82.0	6.0	2.127	0,0,0,1,2,3,0,0,0	to_hand	s618
127.404	0.193	0	PA_with_intermediate	2,0,0,1,3,0,0,0,0	test	ward_and_allport	2,0,0,1,3,0,0,0,0	71.0	6.0	0.193	0,0,0,1,2,3,0,0,0	to_board	s618
127.603	1.0	0	PA_with_intermediate	n/a	test	ward_and_allport	n/a	-1.0	6.0	n/a	n/a	feedback	s618
128.603	1.136	0	PA_with_intermediate	n/a	test	ward_and_allport	n/a	-1.0	6.0	n/a	n/a	ITI	s618
129.743	3.369	1	PA_without_intermediate	1,2,0,0,0,0,0,0,0	test	ward_and_allport	0,0,0,3,2,0,1,0,0	89.0	7.0	3.369	1,2,3,0,0,0,0,0,0	to_hand	s618
133.112	0.248	0	PA_without_intermediate	1,2,0,3,0,0,0,0,0	test	ward_and_allport	0,0,0,3,2,0,1,0,0	71.0	7.0	0.248	1,2,3,0,0,0,0,0,0	to_board	s618
133.364	2.545	0	PA_without_intermediate	1,0,0,3,0,0,0,0,0	test	ward_and_allport	0,0,0,3,2,0,1,0,0	89.0	7.0	2.545	1,2,3,0,0,0,0,0,0	to_hand	s618
135.911	0.342	0	PA_without_intermediate	1,0,0,3,2,0,0,0,0	test	ward_and_allport	0,0,0,3,2,0,1,0,0	71.0	7.0	0.342	1,2,3,0,0,0,0,0,0	to_board	s618
136.256	0.357	0	PA_without_intermediate	0,0,0,3,2,0,0,0,0	test	ward_and_allport	0,0,0,3,2,0,1,0,0	89.0	7.0	0.357	1,2,3,0,0,0,0,0,0	to_hand	s618
136.615	0.447	0	PA_without_intermediate	0,0,0,3,2,0,1,0,0	test	ward_and_allport	0,0,0,3,2,0,1,0,0	82.0	7.0	0.447	1,2,3,0,0,0,0,0,0	to_board	s618
137.072	1.0	0	PA_without_intermediate	n/a	test	ward_and_allport	n/a	-1.0	7.0	n/a	n/a	feedback	s618
138.072	4.128	0	PA_without_intermediate	n/a	test	ward_and_allport	n/a	-1.0	7.0	n/a	n/a	ITI	s618
142.203	4.617	1	PA_without_intermediate	1,2,0,0,0,0,0,0,0	test	ward_and_allport	0,0,0,3,1,0,2,0,0	89.0	8.0	4.617	1,2,3,0,0,0,0,0,0	to_hand	s618
146.821	0.387	0	PA_without_intermediate	1,2,0,3,0,0,0,0,0	test	ward_and_allport	0,0,0,3,1,0,2,0,0	71.0	8.0	0.387	1,2,3,0,0,0,0,0,0	to_board	s618
147.213	0.323	0	PA_without_intermediate	1,0,0,3,0,0,0,0,0	test	ward_and_allport	0,0,0,3,1,0,2,0,0	89.0	8.0	0.323	1,2,3,0,0,0,0,0,0	to_hand	s618
147.536	0.508	0	PA_without_intermediate	1,0,0,3,0,0,2,0,0	test	ward_and_allport	0,0,0,3,1,0,2,0,0	82.0	8.0	0.508	1,2,3,0,0,0,0,0,0	to_board	s618
148.049	1.172	0	PA_without_intermediate	0,0,0,3,0,0,2,0,0	test	ward_and_allport	0,0,0,3,1,0,2,0,0	89.0	8.0	1.172	1,2,3,0,0,0,0,0,0	to_hand	s618
149.222	0.158	0	PA_without_intermediate	0,0,0,3,1,0,2,0,0	test	ward_and_allport	0,0,0,3,1,0,2,0,0	71.0	8.0	0.158	1,2,3,0,0,0,0,0,0	to_board	s618
149.386	1.0	0	PA_without_intermediate	n/a	test	ward_and_allport	n/a	-1.0	8.0	n/a	n/a	feedback	s618
150.386	1.136	0	PA_without_intermediate	n/a	test	ward_and_allport	n/a	-1.0	8.0	n/a	n/a	ITI	s618
151.526	2.318	1	PA_without_intermediate	0,0,0,1,2,0,0,0,0	test	ward_and_allport	1,0,0,0,0,0,3,2,0	71.0	9.0	2.318	0,0,0,1,2,3,0,0,0	to_hand	s618
153.845	0.332	0	PA_without_intermediate	0,0,0,1,2,0,3,0,0	test	ward_and_allport	1,0,0,0,0,0,3,2,0	82.0	9.0	0.332	0,0,0,1,2,3,0,0,0	to_board	s618
154.182	3.68	0	PA_without_intermediate	0,0,0,1,2,0,0,0,0	test	ward_and_allport	1,0,0,0,0,0,3,2,0	82.0	9.0	3.68	0,0,0,1,2,3,0,0,0	to_hand	s618
157.863	0.236	0	PA_without_intermediate	3,0,0,1,2,0,0,0,0	test	ward_and_allport	1,0,0,0,0,0,3,2,0	89.0	9.0	0.236	0,0,0,1,2,3,0,0,0	to_board	s618
158.104	1.704	0	PA_without_intermediate	0,0,0,1,2,0,0,0,0	test	ward_and_allport	1,0,0,0,0,0,3,2,0	89.0	9.0	1.704	0,0,0,1,2,3,0,0,0	to_hand	s618
159.809	0.2	0	PA_without_intermediate	0,0,0,1,2,0,3,0,0	test	ward_and_allport	1,0,0,0,0,0,3,2,0	82.0	9.0	0.2	0,0,0,1,2,3,0,0,0	to_board	s618
160.014	1.085	0	PA_without_intermediate	0,0,0,1,0,0,3,0,0	test	ward_and_allport	1,0,0,0,0,0,3,2,0	71.0	9.0	1.085	0,0,0,1,2,3,0,0,0	to_hand	s618
161.099	0.314	0	PA_without_intermediate	0,0,0,1,0,0,3,2,0	test	ward_and_allport	1,0,0,0,0,0,3,2,0	82.0	9.0	0.314	0,0,0,1,2,3,0,0,0	to_board	s618
161.417	1.248	0	PA_without_intermediate	0,0,0,0,0,0,3,2,0	test	ward_and_allport	1,0,0,0,0,0,3,2,0	71.0	9.0	1.248	0,0,0,1,2,3,0,0,0	to_hand	s618
162.667	0.139	0	PA_without_intermediate	1,0,0,0,0,0,3,2,0	test	ward_and_allport	1,0,0,0,0,0,3,2,0	89.0	9.0	0.139	0,0,0,1,2,3,0,0,0	to_board	s618
162.814	1.0	0	PA_without_intermediate	n/a	test	ward_and_allport	n/a	-1.0	9.0	n/a	n/a	feedback	s618
163.814	4.264	0	PA_without_intermediate	n/a	test	ward_and_allport	n/a	-1.0	9.0	n/a	n/a	ITI	s618
168.082	3.148	1	PA_with_intermediate	1,2,0,0,0,0,0,0,0	test	ward_and_allport	1,3,0,0,0,0,2,0,0	89.0	10.0	3.148	1,2,3,0,0,0,0,0,0	to_hand	s618
171.23	1.126	0	PA_with_intermediate	1,2,0,3,0,0,0,0,0	test	ward_and_allport	1,3,0,0,0,0,2,0,0	71.0	10.0	1.126	1,2,3,0,0,0,0,0,0	to_board	s618
172.359	0.26	0	PA_with_intermediate	1,0,0,3,0,0,0,0,0	test	ward_and_allport	1,3,0,0,0,0,2,0,0	89.0	10.0	0.26	1,2,3,0,0,0,0,0,0	to_hand	s618
172.621	0.448	0	PA_with_intermediate	1,0,0,3,0,0,2,0,0	test	ward_and_allport	1,3,0,0,0,0,2,0,0	82.0	10.0	0.448	1,2,3,0,0,0,0,0,0	to_board	s618
173.073	0.714	0	PA_with_intermediate	1,0,0,0,0,0,2,0,0	test	ward_and_allport	1,3,0,0,0,0,2,0,0	71.0	10.0	0.714	1,2,3,0,0,0,0,0,0	to_hand	s618
173.789	0.176	0	PA_with_intermediate	1,3,0,0,0,0,2,0,0	test	ward_and_allport	1,3,0,0,0,0,2,0,0	89.0	10.0	0.176	1,2,3,0,0,0,0,0,0	to_board	s618
173.973	1.0	0	PA_with_intermediate	n/a	test	ward_and_allport	n/a	-1.0	10.0	n/a	n/a	feedback	s618
174.973	3.04	0	PA_with_intermediate	n/a	test	ward_and_allport	n/a	-1.0	10.0	n/a	n/a	ITI	s618
178.018	6.695	1	PA_with_intermediate	0,0,0,0,0,0,1,2,0	test	ward_and_allport	0,0,0,2,0,0,1,3,0	82.0	11.0	6.695	0,0,0,0,0,0,1,2,3	to_hand	s618
184.715	0.428	0	PA_with_intermediate	3,0,0,0,0,0,1,2,0	test	ward_and_allport	0,0,0,2,0,0,1,3,0	89.0	11.0	0.428	0,0,0,0,0,0,1,2,3	to_board	s618
185.147	1.477	0	PA_with_intermediate	3,0,0,0,0,0,1,0,0	test	ward_and_allport	0,0,0,2,0,0,1,3,0	82.0	11.0	1.477	0,0,0,0,0,0,1,2,3	to_hand	s618
186.625	0.2	0	PA_with_intermediate	3,0,0,2,0,0,1,0,0	test	ward_and_allport	0,0,0,2,0,0,1,3,0	71.0	11.0	0.2	0,0,0,0,0,0,1,2,3	to_board	s618
186.828	0.385	0	PA_with_intermediate	0,0,0,2,0,0,1,0,0	test	ward_and_allport	0,0,0,2,0,0,1,3,0	89.0	11.0	0.385	0,0,0,0,0,0,1,2,3	to_hand	s618
187.215	0.167	0	PA_with_intermediate	0,0,0,2,0,0,1,3,0	test	ward_and_allport	0,0,0,2,0,0,1,3,0	82.0	11.0	0.167	0,0,0,0,0,0,1,2,3	to_board	s618
187.387	1.0	0	PA_with_intermediate	n/a	test	ward_and_allport	n/a	-1.0	11.0	n/a	n/a	feedback	s618
188.387	1.136	0	PA_with_intermediate	n/a	test	ward_and_allport	n/a	-1.0	11.0	n/a	n/a	ITI	s618
189.527	2.365	1	PA_with_intermediate	0,0,0,0,0,0,1,2,0	test	ward_and_allport	0,0,0,2,0,0,1,3,0	82.0	12.0	2.365	0,0,0,0,0,0,1,2,3	to_hand	s618
191.894	0.291	0	PA_with_intermediate	3,0,0,0,0,0,1,2,0	test	ward_and_allport	0,0,0,2,0,0,1,3,0	89.0	12.0	0.291	0,0,0,0,0,0,1,2,3	to_board	s618
192.189	0.386	0	PA_with_intermediate	3,0,0,0,0,0,1,0,0	test	ward_and_allport	0,0,0,2,0,0,1,3,0	82.0	12.0	0.386	0,0,0,0,0,0,1,2,3	to_hand	s618
192.575	0.302	0	PA_with_intermediate	3,0,0,2,0,0,1,0,0	test	ward_and_allport	0,0,0,2,0,0,1,3,0	71.0	12.0	0.302	0,0,0,0,0,0,1,2,3	to_board	s618
192.882	0.302	0	PA_with_intermediate	0,0,0,2,0,0,1,0,0	test	ward_and_allport	0,0,0,2,0,0,1,3,0	89.0	12.0	0.302	0,0,0,0,0,0,1,2,3	to_hand	s618
193.185	0.255	0	PA_with_intermediate	0,0,0,2,0,0,1,3,0	test	ward_and_allport	0,0,0,2,0,0,1,3,0	82.0	12.0	0.255	0,0,0,0,0,0,1,2,3	to_board	s618
193.446	1.0	0	PA_with_intermediate	n/a	test	ward_and_allport	n/a	-1.0	12.0	n/a	n/a	feedback	s618
194.446	1.408	0	PA_with_intermediate	n/a	test	ward_and_allport	n/a	-1.0	12.0	n/a	n/a	ITI	s618
195.859	3.138	1	PA_without_intermediate	1,2,0,0,0,0,0,0,0	test	ward_and_allport	0,0,0,2,0,0,3,1,0	89.0	13.0	3.138	1,2,3,0,0,0,0,0,0	to_hand	s618
198.997	0.33	0	PA_without_intermediate	1,2,0,0,0,0,3,0,0	test	ward_and_allport	0,0,0,2,0,0,3,1,0	82.0	13.0	0.33	1,2,3,0,0,0,0,0,0	to_board	s618
199.331	0.963	0	PA_without_intermediate	1,0,0,0,0,0,3,0,0	test	ward_and_allport	0,0,0,2,0,0,3,1,0	89.0	13.0	0.963	1,2,3,0,0,0,0,0,0	to_hand	s618
200.296	0.233	0	PA_without_intermediate	1,0,0,2,0,0,3,0,0	test	ward_and_allport	0,0,0,2,0,0,3,1,0	71.0	13.0	0.233	1,2,3,0,0,0,0,0,0	to_board	s618
200.533	0.369	0	PA_without_intermediate	0,0,0,2,0,0,3,0,0	test	ward_and_allport	0,0,0,2,0,0,3,1,0	89.0	13.0	0.369	1,2,3,0,0,0,0,0,0	to_hand	s618
200.904	0.243	0	PA_without_intermediate	0,0,0,2,0,0,3,1,0	test	ward_and_allport	0,0,0,2,0,0,3,1,0	82.0	13.0	0.243	1,2,3,0,0,0,0,0,0	to_board	s618
201.153	1.0	0	PA_without_intermediate	n/a	test	ward_and_allport	n/a	-1.0	13.0	n/a	n/a	feedback	s618
202.153	1.68	0	PA_without_intermediate	n/a	test	ward_and_allport	n/a	-1.0	13.0	n/a	n/a	ITI	s618
203.837	2.756	1	PA_with_intermediate	0,0,0,0,0,0,1,2,0	test	ward_and_allport	2,3,0,0,0,0,1,0,0	82.0	14.0	2.756	0,0,0,0,0,0,1,2,3	to_hand	s618
206.595	0.392	0	PA_with_intermediate	0,0,0,3,0,0,1,2,0	test	ward_and_allport	2,3,0,0,0,0,1,0,0	71.0	14.0	0.392	0,0,0,0,0,0,1,2,3	to_board	s618
206.991	0.886	0	PA_with_intermediate	0,0,0,3,0,0,1,0,0	test	ward_and_allport	2,3,0,0,0,0,1,0,0	82.0	14.0	0.886	0,0,0,0,0,0,1,2,3	to_hand	s618
207.878	0.338	0	PA_with_intermediate	2,0,0,3,0,0,1,0,0	test	ward_and_allport	2,3,0,0,0,0,1,0,0	89.0	14.0	0.338	0,0,0,0,0,0,1,2,3	to_board	s618
208.22	0.889	0	PA_with_intermediate	2,0,0,0,0,0,1,0,0	test	ward_and_allport	2,3,0,0,0,0,1,0,0	71.0	14.0	0.889	0,0,0,0,0,0,1,2,3	to_hand	s618
209.11	0.204	0	PA_with_intermediate	2,3,0,0,0,0,1,0,0	test	ward_and_allport	2,3,0,0,0,0,1,0,0	89.0	14.0	0.204	0,0,0,0,0,0,1,2,3	to_board	s618
209.322	1.0	0	PA_with_intermediate	n/a	test	ward_and_allport	n/a	-1.0	14.0	n/a	n/a	feedback	s618
210.322	3.72	0	PA_with_intermediate	n/a	test	ward_and_allport	n/a	-1.0	14.0	n/a	n/a	ITI	s618
219.05	5.488	1	PA_without_intermediate	1,2,0,0,0,0,0,0,0	test	ward_and_allport	0,0,0,3,1,0,2,0,0	89.0	15.0	5.488	1,2,3,0,0,0,0,0,0	to_hand	s618
224.539	0.179	0	PA_without_intermediate	1,2,0,3,0,0,0,0,0	test	ward_and_allport	0,0,0,3,1,0,2,0,0	71.0	15.0	0.179	1,2,3,0,0,0,0,0,0	to_board	s618
224.723	1.111	0	PA_without_intermediate	1,0,0,3,0,0,0,0,0	test	ward_and_allport	0,0,0,3,1,0,2,0,0	89.0	15.0	1.111	1,2,3,0,0,0,0,0,0	to_hand	s618
225.835	0.203	0	PA_without_intermediate	1,0,0,3,0,0,2,0,0	test	ward_and_allport	0,0,0,3,1,0,2,0,0	82.0	15.0	0.203	1,2,3,0,0,0,0,0,0	to_board	s618
226.043	0.597	0	PA_without_intermediate	0,0,0,3,0,0,2,0,0	test	ward_and_allport	0,0,0,3,1,0,2,0,0	89.0	15.0	0.597	1,2,3,0,0,0,0,0,0	to_hand	s618
226.641	0.154	0	PA_without_intermediate	0,0,0,3,1,0,2,0,0	test	ward_and_allport	0,0,0,3,1,0,2,0,0	71.0	15.0	0.154	1,2,3,0,0,0,0,0,0	to_board	s618
226.802	1.0	0	PA_without_intermediate	n/a	test	ward_and_allport	n/a	-1.0	15.0	n/a	n/a	feedback	s618
227.802	2.224	0	PA_without_intermediate	n/a	test	ward_and_allport	n/a	-1.0	15.0	n/a	n/a	ITI	s618
230.03	2.056	1	PA_without_intermediate	0,0,0,0,0,0,1,2,0	test	ward_and_allport	3,2,0,1,0,0,0,0,0	82.0	16.0	2.056	0,0,0,0,0,0,1,2,3	to_hand	s618
232.087	0.373	0	PA_without_intermediate	3,0,0,0,0,0,1,2,0	test	ward_and_allport	3,2,0,1,0,0,0,0,0	89.0	16.0	0.373	0,0,0,0,0,0,1,2,3	to_board	s618
232.467	0.245	0	PA_without_intermediate	3,0,0,0,0,0,1,0,0	test	ward_and_allport	3,2,0,1,0,0,0,0,0	82.0	16.0	0.245	0,0,0,0,0,0,1,2,3	to_hand	s618
232.712	0.265	0	PA_without_intermediate	3,2,0,0,0,0,1,0,0	test	ward_and_allport	3,2,0,1,0,0,0,0,0	89.0	16.0	0.265	0,0,0,0,0,0,1,2,3	to_board	s618
232.983	0.654	0	PA_without_intermediate	3,2,0,0,0,0,0,0,0	test	ward_and_allport	3,2,0,1,0,0,0,0,0	82.0	16.0	0.654	0,0,0,0,0,0,1,2,3	to_hand	s618
233.638	0.122	0	PA_without_intermediate	3,2,0,1,0,0,0,0,0	test	ward_and_allport	3,2,0,1,0,0,0,0,0	71.0	16.0	0.122	0,0,0,0,0,0,1,2,3	to_board	s618
233.766	1.0	0	PA_without_intermediate	n/a	test	ward_and_allport	n/a	-1.0	16.0	n/a	n/a	feedback	s618
234.766	1.272	0	PA_without_intermediate	n/a	test	ward_and_allport	n/a	-1.0	16.0	n/a	n/a	ITI	s618
236.045	3.088	1	PA_with_intermediate	0,0,0,1,2,0,0,0,0	test	ward_and_allport	2,3,0,1,0,0,0,0,0	71.0	17.0	3.088	0,0,0,1,2,3,0,0,0	to_hand	s618
239.135	0.315	0	PA_with_intermediate	0,0,0,1,2,0,3,0,0	test	ward_and_allport	2,3,0,1,0,0,0,0,0	82.0	17.0	0.315	0,0,0,1,2,3,0,0,0	to_board	s618
239.456	0.315	0	PA_with_intermediate	0,0,0,1,0,0,3,0,0	test	ward_and_allport	2,3,0,1,0,0,0,0,0	71.0	17.0	0.315	0,0,0,1,2,3,0,0,0	to_hand	s618
239.771	0.326	0	PA_with_intermediate	2,0,0,1,0,0,3,0,0	test	ward_and_allport	2,3,0,1,0,0,0,0,0	89.0	17.0	0.326	0,0,0,1,2,3,0,0,0	to_board	s618
240.102	0.337	0	PA_with_intermediate	2,0,0,1,0,0,0,0,0	test	ward_and_allport	2,3,0,1,0,0,0,0,0	82.0	17.0	0.337	0,0,0,1,2,3,0,0,0	to_hand	s618
240.44	0.192	0	PA_with_intermediate	2,3,0,1,0,0,0,0,0	test	ward_and_allport	2,3,0,1,0,0,0,0,0	89.0	17.0	0.192	0,0,0,1,2,3,0,0,0	to_board	s618
240.64	1.0	0	PA_with_intermediate	n/a	test	ward_and_allport	n/a	-1.0	17.0	n/a	n/a	feedback	s618
241.64	2.632	0	PA_with_intermediate	n/a	test	ward_and_allport	n/a	-1.0	17.0	n/a	n/a	ITI	s618
244.278	3.101	1	PA_without_intermediate	0,0,0,0,0,0,1,2,0	test	ward_and_allport	1,0,0,3,2,0,0,0,0	82.0	18.0	3.101	0,0,0,0,0,0,1,2,3	to_hand	s618
247.379	0.285	0	PA_without_intermediate	0,0,0,3,0,0,1,2,0	test	ward_and_allport	1,0,0,3,2,0,0,0,0	71.0	18.0	0.285	0,0,0,0,0,0,1,2,3	to_board	s618
247.67	0.232	0	PA_without_intermediate	0,0,0,3,0,0,1,0,0	test	ward_and_allport	1,0,0,3,2,0,0,0,0	82.0	18.0	0.232	0,0,0,0,0,0,1,2,3	to_hand	s618
247.903	0.209	0	PA_without_intermediate	0,0,0,3,2,0,1,0,0	test	ward_and_allport	1,0,0,3,2,0,0,0,0	71.0	18.0	0.209	0,0,0,0,0,0,1,2,3	to_board	s618
248.118	0.705	0	PA_without_intermediate	0,0,0,3,2,0,0,0,0	test	ward_and_allport	1,0,0,3,2,0,0,0,0	82.0	18.0	0.705	0,0,0,0,0,0,1,2,3	to_hand	s618
248.824	0.157	0	PA_without_intermediate	1,0,0,3,2,0,0,0,0	test	ward_and_allport	1,0,0,3,2,0,0,0,0	89.0	18.0	0.157	0,0,0,0,0,0,1,2,3	to_board	s618
248.99	1.0	0	PA_without_intermediate	n/a	test	ward_and_allport	n/a	-1.0	18.0	n/a	n/a	feedback	s618
249.99	1.408	0	PA_without_intermediate	n/a	test	ward_and_allport	n/a	-1.0	18.0	n/a	n/a	ITI	s618
251.404	2.1	1	PA_without_intermediate	0,0,0,0,0,0,1,2,0	test	ward_and_allport	2,0,0,3,1,0,0,0,0	82.0	19.0	2.1	0,0,0,0,0,0,1,2,3	to_hand	s618
253.505	0.293	0	PA_without_intermediate	0,0,0,3,0,0,1,2,0	test	ward_and_allport	2,0,0,3,1,0,0,0,0	71.0	19.0	0.293	0,0,0,0,0,0,1,2,3	to_board	s618
253.804	0.337	0	PA_without_intermediate	0,0,0,3,0,0,1,0,0	test	ward_and_allport	2,0,0,3,1,0,0,0,0	82.0	19.0	0.337	0,0,0,0,0,0,1,2,3	to_hand	s618
254.142	0.416	0	PA_without_intermediate	2,0,0,3,0,0,1,0,0	test	ward_and_allport	2,0,0,3,1,0,0,0,0	89.0	19.0	0.416	0,0,0,0,0,0,1,2,3	to_board	s618
254.564	0.87	0	PA_without_intermediate	2,0,0,3,0,0,0,0,0	test	ward_and_allport	2,0,0,3,1,0,0,0,0	82.0	19.0	0.87	0,0,0,0,0,0,1,2,3	to_hand	s618
255.435	0.182	0	PA_without_intermediate	2,0,0,3,1,0,0,0,0	test	ward_and_allport	2,0,0,3,1,0,0,0,0	71.0	19.0	0.182	0,0,0,0,0,0,1,2,3	to_board	s618
255.627	1.0	0	PA_without_intermediate	n/a	test	ward_and_allport	n/a	-1.0	19.0	n/a	n/a	feedback	s618
256.627	1.0	0	PA_without_intermediate	n/a	test	ward_and_allport	n/a	-1.0	19.0	n/a	n/a	ITI	s618
257.633	2.453	1	PA_with_intermediate	1,2,0,0,0,0,0,0,0	test	ward_and_allport	1,0,0,2,3,0,0,0,0	89.0	20.0	2.453	1,2,3,0,0,0,0,0,0	to_hand	s618
260.088	0.284	0	PA_with_intermediate	1,2,0,0,0,0,3,0,0	test	ward_and_allport	1,0,0,2,3,0,0,0,0	82.0	20.0	0.284	1,2,3,0,0,0,0,0,0	to_board	s618
260.378	0.324	0	PA_with_intermediate	1,0,0,0,0,0,3,0,0	test	ward_and_allport	1,0,0,2,3,0,0,0,0	89.0	20.0	0.324	1,2,3,0,0,0,0,0,0	to_hand	s618
260.703	0.325	0	PA_with_intermediate	1,0,0,2,0,0,3,0,0	test	ward_and_allport	1,0,0,2,3,0,0,0,0	71.0	20.0	0.325	1,2,3,0,0,0,0,0,0	to_board	s618
261.034	0.415	0	PA_with_intermediate	1,0,0,2,0,0,0,0,0	test	ward_and_allport	1,0,0,2,3,0,0,0,0	82.0	20.0	0.415	1,2,3,0,0,0,0,0,0	to_hand	s618
261.45	0.174	0	PA_with_intermediate	1,0,0,2,3,0,0,0,0	test	ward_and_allport	1,0,0,2,3,0,0,0,0	71.0	20.0	0.174	1,2,3,0,0,0,0,0,0	to_board	s618
261.633	1.0	0	PA_with_intermediate	n/a	test	ward_and_allport	n/a	-1.0	20.0	n/a	n/a	feedback	s618
262.633	1.0	0	PA_with_intermediate	n/a	test	ward_and_allport	n/a	-1.0	20.0	n/a	n/a	ITI	s618
263.639	2.4	1	PA_with_intermediate	1,2,0,0,0,0,0,0,0	test	ward_and_allport	1,0,0,2,3,0,0,0,0	89.0	21.0	2.4	1,2,3,0,0,0,0,0,0	to_hand	s618
266.04	0.62	0	PA_with_intermediate	1,2,0,0,0,0,3,0,0	test	ward_and_allport	1,0,0,2,3,0,0,0,0	82.0	21.0	0.62	1,2,3,0,0,0,0,0,0	to_board	s618
266.667	0.662	0	PA_with_intermediate	1,0,0,0,0,0,3,0,0	test	ward_and_allport	1,0,0,2,3,0,0,0,0	89.0	21.0	0.662	1,2,3,0,0,0,0,0,0	to_hand	s618
267.329	0.24	0	PA_with_intermediate	1,0,0,2,0,0,3,0,0	test	ward_and_allport	1,0,0,2,3,0,0,0,0	71.0	21.0	0.24	1,2,3,0,0,0,0,0,0	to_board	s618
267.575	0.266	0	PA_with_intermediate	1,0,0,2,0,0,0,0,0	test	ward_and_allport	1,0,0,2,3,0,0,0,0	82.0	21.0	0.266	1,2,3,0,0,0,0,0,0	to_hand	s618
267.841	0.214	0	PA_with_intermediate	1,0,0,2,3,0,0,0,0	test	ward_and_allport	1,0,0,2,3,0,0,0,0	71.0	21.0	0.214	1,2,3,0,0,0,0,0,0	to_board	s618
268.062	1.0	0	PA_with_intermediate	n/a	test	ward_and_allport	n/a	-1.0	21.0	n/a	n/a	feedback	s618
269.062	1.0	0	PA_with_intermediate	n/a	test	ward_and_allport	n/a	-1.0	21.0	n/a	n/a	ITI	s618
270.068	2.603	1	PA_with_intermediate	0,0,0,1,2,0,0,0,0	test	ward_and_allport	0,0,0,1,0,0,2,3,0	71.0	22.0	2.603	0,0,0,1,2,3,0,0,0	to_hand	s618
272.672	0.206	0	PA_with_intermediate	3,0,0,1,2,0,0,0,0	test	ward_and_allport	0,0,0,1,0,0,2,3,0	89.0	22.0	0.206	0,0,0,1,2,3,0,0,0	to_board	s618
272.884	1.204	0	PA_with_intermediate	3,0,0,1,0,0,0,0,0	test	ward_and_allport	0,0,0,1,0,0,2,3,0	71.0	22.0	1.204	0,0,0,1,2,3,0,0,0	to_hand	s618
274.089	0.174	0	PA_with_intermediate	3,0,0,1,0,0,2,0,0	test	ward_and_allport	0,0,0,1,0,0,2,3,0	82.0	22.0	0.174	0,0,0,1,2,3,0,0,0	to_board	s618
274.269	1.354	0	PA_with_intermediate	0,0,0,1,0,0,2,0,0	test	ward_and_allport	0,0,0,1,0,0,2,3,0	89.0	22.0	1.354	0,0,0,1,2,3,0,0,0	to_hand	s618
275.625	0.126	0	PA_with_intermediate	0,0,0,1,0,0,2,3,0	test	ward_and_allport	0,0,0,1,0,0,2,3,0	82.0	22.0	0.126	0,0,0,1,2,3,0,0,0	to_board	s618
275.758	1.0	0	PA_with_intermediate	n/a	test	ward_and_allport	n/a	-1.0	22.0	n/a	n/a	feedback	s618
276.758	1.408	0	PA_with_intermediate	n/a	test	ward_and_allport	n/a	-1.0	22.0	n/a	n/a	ITI	s618
278.173	2.442	1	PA_without_intermediate	1,2,0,0,0,0,0,0,0	test	ward_and_allport	0,0,0,1,0,0,3,2,0	89.0	23.0	2.442	1,2,3,0,0,0,0,0,0	to_hand	s618
280.616	0.289	0	PA_without_intermediate	1,2,0,0,0,0,3,0,0	test	ward_and_allport	0,0,0,1,0,0,3,2,0	82.0	23.0	0.289	1,2,3,0,0,0,0,0,0	to_board	s618
280.911	0.228	0	PA_without_intermediate	1,0,0,0,0,0,3,0,0	test	ward_and_allport	0,0,0,1,0,0,3,2,0	89.0	23.0	0.228	1,2,3,0,0,0,0,0,0	to_hand	s618
281.139	0.296	0	PA_without_intermediate	1,0,0,0,0,0,3,2,0	test	ward_and_allport	0,0,0,1,0,0,3,2,0	82.0	23.0	0.296	1,2,3,0,0,0,0,0,0	to_board	s618
281.442	0.32	0	PA_without_intermediate	0,0,0,0,0,0,3,2,0	test	ward_and_allport	0,0,0,1,0,0,3,2,0	89.0	23.0	0.32	1,2,3,0,0,0,0,0,0	to_hand	s618
281.763	0.169	0	PA_without_intermediate	0,0,0,1,0,0,3,2,0	test	ward_and_allport	0,0,0,1,0,0,3,2,0	71.0	23.0	0.169	1,2,3,0,0,0,0,0,0	to_board	s618
281.942	1.0	0	PA_without_intermediate	n/a	test	ward_and_allport	n/a	-1.0	23.0	n/a	n/a	feedback	s618
282.942	1.816	0	PA_without_intermediate	n/a	test	ward_and_allport	n/a	-1.0	23.0	n/a	n/a	ITI	s618
284.765	1.741	1	PA_with_intermediate	0,0,0,1,2,0,0,0,0	test	ward_and_allport	2,0,0,1,3,0,0,0,0	71.0	24.0	1.741	0,0,0,1,2,3,0,0,0	to_hand	s618
286.507	0.334	0	PA_with_intermediate	0,0,0,1,2,0,3,0,0	test	ward_and_allport	2,0,0,1,3,0,0,0,0	82.0	24.0	0.334	0,0,0,1,2,3,0,0,0	to_board	s618
286.847	0.542	0	PA_with_intermediate	0,0,0,1,0,0,3,0,0	test	ward_and_allport	2,0,0,1,3,0,0,0,0	71.0	24.0	0.542	0,0,0,1,2,3,0,0,0	to_hand	s618
287.39	0.279	0	PA_with_intermediate	2,0,0,1,0,0,3,0,0	test	ward_and_allport	2,0,0,1,3,0,0,0,0	89.0	24.0	0.279	0,0,0,1,2,3,0,0,0	to_board	s618
287.675	1.525	0	PA_with_intermediate	2,0,0,1,0,0,0,0,0	test	ward_and_allport	2,0,0,1,3,0,0,0,0	82.0	24.0	1.525	0,0,0,1,2,3,0,0,0	to_hand	s618
289.202	0.191	0	PA_with_intermediate	2,0,0,1,3,0,0,0,0	test	ward_and_allport	2,0,0,1,3,0,0,0,0	71.0	24.0	0.191	0,0,0,1,2,3,0,0,0	to_board	s618
289.404	1.0	0	PA_with_intermediate	n/a	test	ward_and_allport	n/a	-1.0	24.0	n/a	n/a	feedback	s618
290.404	3.176	0	PA_with_intermediate	n/a	test	ward_and_allport	n/a	-1.0	24.0	n/a	n/a	ITI	s618
293.586	2.375	1	PA_with_intermediate	1,2,0,0,0,0,0,0,0	test	ward_and_allport	1,3,0,2,0,0,0,0,0	89.0	25.0	2.375	1,2,3,0,0,0,0,0,0	to_hand	s618
295.961	0.311	0	PA_with_intermediate	1,2,0,0,0,0,3,0,0	test	ward_and_allport	1,3,0,2,0,0,0,0,0	82.0	25.0	0.311	1,2,3,0,0,0,0,0,0	to_board	s618
296.28	2.245	0	PA_with_intermediate	1,0,0,0,0,0,3,0,0	test	ward_and_allport	1,3,0,2,0,0,0,0,0	89.0	25.0	2.245	1,2,3,0,0,0,0,0,0	to_hand	s618
298.525	0.25	0	PA_with_intermediate	1,0,0,2,0,0,3,0,0	test	ward_and_allport	1,3,0,2,0,0,0,0,0	71.0	25.0	0.25	1,2,3,0,0,0,0,0,0	to_board	s618
298.781	0.347	0	PA_with_intermediate	1,0,0,2,0,0,0,0,0	test	ward_and_allport	1,3,0,2,0,0,0,0,0	82.0	25.0	0.347	1,2,3,0,0,0,0,0,0	to_hand	s618
299.13	0.237	0	PA_with_intermediate	1,3,0,2,0,0,0,0,0	test	ward_and_allport	1,3,0,2,0,0,0,0,0	89.0	25.0	0.237	1,2,3,0,0,0,0,0,0	to_board	s618
299.377	1.0	0	PA_with_intermediate	n/a	test	ward_and_allport	n/a	-1.0	25.0	n/a	n/a	feedback	s618
300.377	2.36	0	PA_with_intermediate	n/a	test	ward_and_allport	n/a	-1.0	25.0	n/a	n/a	ITI	s618
302.744	2.681	1	PA_with_intermediate	1,2,0,0,0,0,0,0,0	test	ward_and_allport	1,0,0,0,0,0,2,3,0	89.0	26.0	2.681	1,2,3,0,0,0,0,0,0	to_hand	s618
305.425	0.21	0	PA_with_intermediate	1,2,0,3,0,0,0,0,0	test	ward_and_allport	1,0,0,0,0,0,2,3,0	71.0	26.0	0.21	1,2,3,0,0,0,0,0,0	to_board	s618
305.642	0.507	0	PA_with_intermediate	1,0,0,3,0,0,0,0,0	test	ward_and_allport	1,0,0,0,0,0,2,3,0	89.0	26.0	0.507	1,2,3,0,0,0,0,0,0	to_hand	s618
306.15	0.948	0	PA_with_intermediate	1,0,0,3,0,0,2,0,0	test	ward_and_allport	1,0,0,0,0,0,2,3,0	82.0	26.0	0.948	1,2,3,0,0,0,0,0,0	to_board	s618
307.104	1.171	0	PA_with_intermediate	1,0,0,0,0,0,2,0,0	test	ward_and_allport	1,0,0,0,0,0,2,3,0	71.0	26.0	1.171	1,2,3,0,0,0,0,0,0	to_hand	s618
308.277	0.231	0	PA_with_intermediate	1,0,0,0,0,0,2,3,0	test	ward_and_allport	1,0,0,0,0,0,2,3,0	82.0	26.0	0.231	1,2,3,0,0,0,0,0,0	to_board	s618
308.519	1.0	0	PA_with_intermediate	n/a	test	ward_and_allport	n/a	-1.0	26.0	n/a	n/a	feedback	s618
309.519	1.0	0	PA_with_intermediate	n/a	test	ward_and_allport	n/a	-1.0	26.0	n/a	n/a	ITI	s618
310.525	2.086	1	PA_without_intermediate	1,2,0,0,0,0,0,0,0	test	ward_and_allport	0,0,0,1,0,0,3,2,0	89.0	27.0	2.086	1,2,3,0,0,0,0,0,0	to_hand	s618
312.613	0.324	0	PA_without_intermediate	1,2,0,0,0,0,3,0,0	test	ward_and_allport	0,0,0,1,0,0,3,2,0	82.0	27.0	0.324	1,2,3,0,0,0,0,0,0	to_board	s618
312.944	0.212	0	PA_without_intermediate	1,0,0,0,0,0,3,0,0	test	ward_and_allport	0,0,0,1,0,0,3,2,0	89.0	27.0	0.212	1,2,3,0,0,0,0,0,0	to_hand	s618
313.157	0.336	0	PA_without_intermediate	1,0,0,0,0,0,3,2,0	test	ward_and_allport	0,0,0,1,0,0,3,2,0	82.0	27.0	0.336	1,2,3,0,0,0,0,0,0	to_board	s618
313.499	0.339	0	PA_without_intermediate	0,0,0,0,0,0,3,2,0	test	ward_and_allport	0,0,0,1,0,0,3,2,0	89.0	27.0	0.339	1,2,3,0,0,0,0,0,0	to_hand	s618
313.839	0.221	0	PA_without_intermediate	0,0,0,1,0,0,3,2,0	test	ward_and_allport	0,0,0,1,0,0,3,2,0	71.0	27.0	0.221	1,2,3,0,0,0,0,0,0	to_board	s618
314.069	1.0	0	PA_without_intermediate	n/a	test	ward_and_allport	n/a	-1.0	27.0	n/a	n/a	feedback	s618
315.069	1.408	0	PA_without_intermediate	n/a	test	ward_and_allport	n/a	-1.0	27.0	n/a	n/a	ITI	s618
316.482	1.771	1	PA_with_intermediate	1,2,0,0,0,0,0,0,0	test	ward_and_allport	1,0,0,0,0,0,2,3,0	89.0	28.0	1.771	1,2,3,0,0,0,0,0,0	to_hand	s618
318.254	0.302	0	PA_with_intermediate	1,2,0,3,0,0,0,0,0	test	ward_and_allport	1,0,0,0,0,0,2,3,0	71.0	28.0	0.302	1,2,3,0,0,0,0,0,0	to_board	s618
318.562	0.332	0	PA_with_intermediate	1,0,0,3,0,0,0,0,0	test	ward_and_allport	1,0,0,0,0,0,2,3,0	89.0	28.0	0.332	1,2,3,0,0,0,0,0,0	to_hand	s618
318.894	0.404	0	PA_with_intermediate	1,0,0,3,0,0,2,0,0	test	ward_and_allport	1,0,0,0,0,0,2,3,0	82.0	28.0	0.404	1,2,3,0,0,0,0,0,0	to_board	s618
319.304	0.394	0	PA_with_intermediate	1,0,0,0,0,0,2,0,0	test	ward_and_allport	1,0,0,0,0,0,2,3,0	71.0	28.0	0.394	1,2,3,0,0,0,0,0,0	to_hand	s618
319.7	0.255	0	PA_with_intermediate	1,0,0,0,0,0,2,3,0	test	ward_and_allport	1,0,0,0,0,0,2,3,0	82.0	28.0	0.255	1,2,3,0,0,0,0,0,0	to_board	s618
319.965	1.0	0	PA_with_intermediate	n/a	test	ward_and_allport	n/a	-1.0	28.0	n/a	n/a	feedback	s618
320.965	1.816	0	PA_with_intermediate	n/a	test	ward_and_allport	n/a	-1.0	28.0	n/a	n/a	ITI	s618
322.788	2.534	1	PA_without_intermediate	0,0,0,0,0,0,1,2,0	test	ward_and_allport	3,1,0,2,0,0,0,0,0	82.0	29.0	2.534	0,0,0,0,0,0,1,2,3	to_hand	s618
325.322	0.281	0	PA_without_intermediate	3,0,0,0,0,0,1,2,0	test	ward_and_allport	3,1,0,2,0,0,0,0,0	89.0	29.0	0.281	0,0,0,0,0,0,1,2,3	to_board	s618
325.609	0.554	0	PA_without_intermediate	3,0,0,0,0,0,1,0,0	test	ward_and_allport	3,1,0,2,0,0,0,0,0	82.0	29.0	0.554	0,0,0,0,0,0,1,2,3	to_hand	s618
326.164	0.271	0	PA_without_intermediate	3,0,0,2,0,0,1,0,0	test	ward_and_allport	3,1,0,2,0,0,0,0,0	71.0	29.0	0.271	0,0,0,0,0,0,1,2,3	to_board	s618
326.442	0.298	0	PA_without_intermediate	3,0,0,2,0,0,0,0,0	test	ward_and_allport	3,1,0,2,0,0,0,0,0	82.0	29.0	0.298	0,0,0,0,0,0,1,2,3	to_hand	s618
326.74	0.228	0	PA_without_intermediate	3,1,0,2,0,0,0,0,0	test	ward_and_allport	3,1,0,2,0,0,0,0,0	89.0	29.0	0.228	0,0,0,0,0,0,1,2,3	to_board	s618
326.979	1.0	0	PA_without_intermediate	n/a	test	ward_and_allport	n/a	-1.0	29.0	n/a	n/a	feedback	s618
327.979	2.088	0	PA_without_intermediate	n/a	test	ward_and_allport	n/a	-1.0	29.0	n/a	n/a	ITI	s618
335.076	4.09	1	PA_without_intermediate	1,2,0,0,0,0,0,0,0	test	ward_and_allport	0,0,0,2,0,0,3,1,0	89.0	30.0	4.09	1,2,3,0,0,0,0,0,0	to_hand	s618
339.167	0.33	0	PA_without_intermediate	1,2,0,0,0,0,3,0,0	test	ward_and_allport	0,0,0,2,0,0,3,1,0	82.0	30.0	0.33	1,2,3,0,0,0,0,0,0	to_board	s618
339.506	0.931	0	PA_without_intermediate	1,0,0,0,0,0,3,0,0	test	ward_and_allport	0,0,0,2,0,0,3,1,0	89.0	30.0	0.931	1,2,3,0,0,0,0,0,0	to_hand	s618
340.437	0.286	0	PA_without_intermediate	1,0,0,2,0,0,3,0,0	test	ward_and_allport	0,0,0,2,0,0,3,1,0	71.0	30.0	0.286	1,2,3,0,0,0,0,0,0	to_board	s618
340.732	0.419	0	PA_without_intermediate	0,0,0,2,0,0,3,0,0	test	ward_and_allport	0,0,0,2,0,0,3,1,0	89.0	30.0	0.419	1,2,3,0,0,0,0,0,0	to_hand	s618
341.152	0.253	0	PA_without_intermediate	0,0,0,2,0,0,3,1,0	test	ward_and_allport	0,0,0,2,0,0,3,1,0	82.0	30.0	0.253	1,2,3,0,0,0,0,0,0	to_board	s618
341.419	1.0	0	PA_without_intermediate	n/a	test	ward_and_allport	n/a	-1.0	30.0	n/a	n/a	feedback	s618
342.419	1.136	0	PA_without_intermediate	n/a	test	ward_and_allport	n/a	-1.0	30.0	n/a	n/a	ITI	s618
343.562	2.485	1	PA_without_intermediate	0,0,0,1,2,0,0,0,0	test	ward_and_allport	2,0,0,0,0,0,3,1,0	71.0	31.0	2.485	0,0,0,1,2,3,0,0,0	to_hand	s618
346.047	0.314	0	PA_without_intermediate	0,0,0,1,2,0,3,0,0	test	ward_and_allport	2,0,0,0,0,0,3,1,0	82.0	31.0	0.314	0,0,0,1,2,3,0,0,0	to_board	s618
346.367	0.721	0	PA_without_intermediate	0,0,0,1,0,0,3,0,0	test	ward_and_allport	2,0,0,0,0,0,3,1,0	71.0	31.0	0.721	0,0,0,1,2,3,0,0,0	to_hand	s618
347.09	0.573	0	PA_without_intermediate	2,0,0,1,0,0,3,0,0	test	ward_and_allport	2,0,0,0,0,0,3,1,0	89.0	31.0	0.573	0,0,0,1,2,3,0,0,0	to_board	s618
347.669	0.696	0	PA_without_intermediate	2,0,0,0,0,0,3,0,0	test	ward_and_allport	2,0,0,0,0,0,3,1,0	71.0	31.0	0.696	0,0,0,1,2,3,0,0,0	to_hand	s618
348.366	0.226	0	PA_without_intermediate	2,0,0,0,0,0,3,1,0	test	ward_and_allport	2,0,0,0,0,0,3,1,0	82.0	31.0	0.226	0,0,0,1,2,3,0,0,0	to_board	s618
348.601	1.0	0	PA_without_intermediate	n/a	test	ward_and_allport	n/a	-1.0	31.0	n/a	n/a	feedback	s618
349.601	6.168	0	PA_without_intermediate	n/a	test	ward_and_allport	n/a	-1.0	31.0	n/a	n/a	ITI	s618
355.776	2.628	1	PA_without_intermediate	0,0,0,1,2,0,0,0,0	test	ward_and_allport	3,1,0,0,0,0,2,0,0	71.0	32.0	2.628	0,0,0,1,2,3,0,0,0	to_hand	s618
358.405	0.241	0	PA_without_intermediate	3,0,0,1,2,0,0,0,0	test	ward_and_allport	3,1,0,0,0,0,2,0,0	89.0	32.0	0.241	0,0,0,1,2,3,0,0,0	to_board	s618
358.654	0.231	0	PA_without_intermediate	3,0,0,1,0,0,0,0,0	test	ward_and_allport	3,1,0,0,0,0,2,0,0	71.0	32.0	0.231	0,0,0,1,2,3,0,0,0	to_hand	s618
358.886	0.278	0	PA_without_intermediate	3,0,0,1,0,0,2,0,0	test	ward_and_allport	3,1,0,0,0,0,2,0,0	82.0	32.0	0.278	0,0,0,1,2,3,0,0,0	to_board	s618
359.173	0.709	0	PA_without_intermediate	3,0,0,0,0,0,2,0,0	test	ward_and_allport	3,1,0,0,0,0,2,0,0	71.0	32.0	0.709	0,0,0,1,2,3,0,0,0	to_hand	s618
359.882	0.175	0	PA_without_intermediate	3,1,0,0,0,0,2,0,0	test	ward_and_allport	3,1,0,0,0,0,2,0,0	89.0	32.0	0.175	0,0,0,1,2,3,0,0,0	to_board	s618
360.067	1.0	0	PA_without_intermediate	n/a	test	ward_and_allport	n/a	-1.0	32.0	n/a	n/a	feedback	s618
361.067	1.816	0	PA_without_intermediate	n/a	test	ward_and_allport	n/a	-1.0	32.0	n/a	n/a	ITI	s618
362.89	2.543	1	PA_with_intermediate	0,0,0,0,0,0,1,2,0	test	ward_and_allport	2,3,0,0,0,0,1,0,0	82.0	33.0	2.543	0,0,0,0,0,0,1,2,3	to_hand	s618
365.435	0.405	0	PA_with_intermediate	0,0,0,3,0,0,1,2,0	test	ward_and_allport	2,3,0,0,0,0,1,0,0	71.0	33.0	0.405	0,0,0,0,0,0,1,2,3	to_board	s618
365.846	0.365	0	PA_with_intermediate	0,0,0,3,0,0,1,0,0	test	ward_and_allport	2,3,0,0,0,0,1,0,0	82.0	33.0	0.365	0,0,0,0,0,0,1,2,3	to_hand	s618
366.212	1.315	0	PA_with_intermediate	2,0,0,3,0,0,1,0,0	test	ward_and_allport	2,3,0,0,0,0,1,0,0	89.0	33.0	1.315	0,0,0,0,0,0,1,2,3	to_board	s618
367.536	0.591	0	PA_with_intermediate	2,0,0,0,0,0,1,0,0	test	ward_and_allport	2,3,0,0,0,0,1,0,0	71.0	33.0	0.591	0,0,0,0,0,0,1,2,3	to_hand	s618
368.128	0.256	0	PA_with_intermediate	2,3,0,0,0,0,1,0,0	test	ward_and_allport	2,3,0,0,0,0,1,0,0	89.0	33.0	0.256	0,0,0,0,0,0,1,2,3	to_board	s618
368.396	1.0	0	PA_with_intermediate	n/a	test	ward_and_allport	n/a	-1.0	33.0	n/a	n/a	feedback	s618
369.396	1.952	0	PA_with_intermediate	n/a	test	ward_and_allport	n/a	-1.0	33.0	n/a	n/a	ITI	s618
371.355	2.372	1	PA_with_intermediate	0,0,0,0,0,0,1,2,0	test	ward_and_allport	2,0,0,0,0,0,1,3,0	82.0	34.0	2.372	0,0,0,0,0,0,1,2,3	to_hand	s618
373.727	1.064	0	PA_with_intermediate	0,0,0,3,0,0,1,2,0	test	ward_and_allport	2,0,0,0,0,0,1,3,0	71.0	34.0	1.064	0,0,0,0,0,0,1,2,3	to_board	s618
374.797	0.392	0	PA_with_intermediate	0,0,0,3,0,0,1,0,0	test	ward_and_allport	2,0,0,0,0,0,1,3,0	82.0	34.0	0.392	0,0,0,0,0,0,1,2,3	to_hand	s618
375.191	0.423	0	PA_with_intermediate	2,0,0,3,0,0,1,0,0	test	ward_and_allport	2,0,0,0,0,0,1,3,0	89.0	34.0	0.423	0,0,0,0,0,0,1,2,3	to_board	s618
375.622	0.467	0	PA_with_intermediate	2,0,0,0,0,0,1,0,0	test	ward_and_allport	2,0,0,0,0,0,1,3,0	71.0	34.0	0.467	0,0,0,0,0,0,1,2,3	to_hand	s618
376.09	0.306	0	PA_with_intermediate	2,0,0,0,0,0,1,3,0	test	ward_and_allport	2,0,0,0,0,0,1,3,0	82.0	34.0	0.306	0,0,0,0,0,0,1,2,3	to_board	s618
376.407	1.0	0	PA_with_intermediate	n/a	test	ward_and_allport	n/a	-1.0	34.0	n/a	n/a	feedback	s618
377.407	1.136	0	PA_with_intermediate	n/a	test	ward_and_allport	n/a	-1.0	34.0	n/a	n/a	ITI	s618
378.55	1.627	1	PA_without_intermediate	0,0,0,0,0,0,1,2,0	test	ward_and_allport	3,1,0,2,0,0,0,0,0	82.0	35.0	1.627	0,0,0,0,0,0,1,2,3	to_hand	s618
380.178	0.27	0	PA_without_intermediate	3,0,0,0,0,0,1,2,0	test	ward_and_allport	3,1,0,2,0,0,0,0,0	89.0	35.0	0.27	0,0,0,0,0,0,1,2,3	to_board	s618
380.454	1.257	0	PA_without_intermediate	3,0,0,0,0,0,1,0,0	test	ward_and_allport	3,1,0,2,0,0,0,0,0	82.0	35.0	1.257	0,0,0,0,0,0,1,2,3	to_hand	s618
381.712	0.196	0	PA_without_intermediate	3,0,0,2,0,0,1,0,0	test	ward_and_allport	3,1,0,2,0,0,0,0,0	71.0	35.0	0.196	0,0,0,0,0,0,1,2,3	to_board	s618
381.915	0.281	0	PA_without_intermediate	3,0,0,2,0,0,0,0,0	test	ward_and_allport	3,1,0,2,0,0,0,0,0	82.0	35.0	0.281	0,0,0,0,0,0,1,2,3	to_hand	s618
382.197	0.411	0	PA_without_intermediate	3,1,0,2,0,0,0,0,0	test	ward_and_allport	3,1,0,2,0,0,0,0,0	89.0	35.0	0.411	0,0,0,0,0,0,1,2,3	to_board	s618
382.616	1.0	0	PA_without_intermediate	n/a	test	ward_and_allport	n/a	-1.0	35.0	n/a	n/a	feedback	s618
383.616	1.68	0	PA_without_intermediate	n/a	test	ward_and_allport	n/a	-1.0	35.0	n/a	n/a	ITI	s618
385.304	1.776	1	PA_without_intermediate	0,0,0,0,0,0,1,2,0	test	ward_and_allport	2,0,0,3,1,0,0,0,0	82.0	36.0	1.776	0,0,0,0,0,0,1,2,3	to_hand	s618
387.081	1.672	0	PA_without_intermediate	0,0,0,3,0,0,1,2,0	test	ward_and_allport	2,0,0,3,1,0,0,0,0	71.0	36.0	1.672	0,0,0,0,0,0,1,2,3	to_board	s618
388.758	1.08	0	PA_without_intermediate	0,0,0,3,0,0,1,0,0	test	ward_and_allport	2,0,0,3,1,0,0,0,0	82.0	36.0	1.08	0,0,0,0,0,0,1,2,3	to_hand	s618
389.84	0.184	0	PA_without_intermediate	2,0,0,3,0,0,1,0,0	test	ward_and_allport	2,0,0,3,1,0,0,0,0	89.0	36.0	0.184	0,0,0,0,0,0,1,2,3	to_board	s618
390.03	0.512	0	PA_without_intermediate	2,0,0,3,0,0,0,0,0	test	ward_and_allport	2,0,0,3,1,0,0,0,0	82.0	36.0	0.512	0,0,0,0,0,0,1,2,3	to_hand	s618
390.543	0.179	0	PA_without_intermediate	2,0,0,3,1,0,0,0,0	test	ward_and_allport	2,0,0,3,1,0,0,0,0	71.0	36.0	0.179	0,0,0,0,0,0,1,2,3	to_board	s618
390.735	1.0	0	PA_without_intermediate	n/a	test	ward_and_allport	n/a	-1.0	36.0	n/a	n/a	feedback	s618
391.735	2.088	0	PA_without_intermediate	n/a	test	ward_and_allport	n/a	-1.0	36.0	n/a	n/a	ITI	s618
393.831	3.744	1	PA_with_intermediate	1,2,0,0,0,0,0,0,0	test	ward_and_allport	1,3,0,0,0,0,2,0,0	89.0	37.0	3.744	1,2,3,0,0,0,0,0,0	to_hand	s618
397.576	0.202	0	PA_with_intermediate	1,2,0,3,0,0,0,0,0	test	ward_and_allport	1,3,0,0,0,0,2,0,0	71.0	37.0	0.202	1,2,3,0,0,0,0,0,0	to_board	s618
397.788	0.208	0	PA_with_intermediate	1,0,0,3,0,0,0,0,0	test	ward_and_allport	1,3,0,0,0,0,2,0,0	89.0	37.0	0.208	1,2,3,0,0,0,0,0,0	to_hand	s618
397.996	0.212	0	PA_with_intermediate	1,0,0,3,0,0,2,0,0	test	ward_and_allport	1,3,0,0,0,0,2,0,0	82.0	37.0	0.212	1,2,3,0,0,0,0,0,0	to_board	s618
398.218	0.293	0	PA_with_intermediate	1,0,0,3,0,0,0,0,0	test	ward_and_allport	1,3,0,0,0,0,2,0,0	82.0	37.0	0.293	1,2,3,0,0,0,0,0,0	to_hand	s618
398.512	0.253	0	PA_with_intermediate	1,0,0,3,2,0,0,0,0	test	ward_and_allport	1,3,0,0,0,0,2,0,0	71.0	37.0	0.253	1,2,3,0,0,0,0,0,0	to_board	s618
398.774	0.764	0	PA_with_intermediate	1,0,0,3,0,0,0,0,0	test	ward_and_allport	1,3,0,0,0,0,2,0,0	71.0	37.0	0.764	1,2,3,0,0,0,0,0,0	to_hand	s618
399.539	0.14	0	PA_with_intermediate	1,0,0,3,0,0,2,0,0	test	ward_and_allport	1,3,0,0,0,0,2,0,0	82.0	37.0	0.14	1,2,3,0,0,0,0,0,0	to_board	s618
399.688	0.335	0	PA_with_intermediate	1,0,0,0,0,0,2,0,0	test	ward_and_allport	1,3,0,0,0,0,2,0,0	71.0	37.0	0.335	1,2,3,0,0,0,0,0,0	to_hand	s618
400.024	0.133	0	PA_with_intermediate	1,3,0,0,0,0,2,0,0	test	ward_and_allport	1,3,0,0,0,0,2,0,0	89.0	37.0	0.133	1,2,3,0,0,0,0,0,0	to_board	s618
400.168	1.0	0	PA_with_intermediate	n/a	test	ward_and_allport	n/a	-1.0	37.0	n/a	n/a	feedback	s618
401.168	1.0	0	PA_with_intermediate	n/a	test	ward_and_allport	n/a	-1.0	37.0	n/a	n/a	ITI	s618
402.174	2.888	1	PA_without_intermediate	0,0,0,1,2,0,0,0,0	test	ward_and_allport	1,0,0,0,0,0,3,2,0	71.0	38.0	2.888	0,0,0,1,2,3,0,0,0	to_hand	s618
405.063	1.021	0	PA_without_intermediate	0,0,0,1,2,0,3,0,0	test	ward_and_allport	1,0,0,0,0,0,3,2,0	82.0	38.0	1.021	0,0,0,1,2,3,0,0,0	to_board	s618
406.091	0.437	0	PA_without_intermediate	0,0,0,1,0,0,3,0,0	test	ward_and_allport	1,0,0,0,0,0,3,2,0	71.0	38.0	0.437	0,0,0,1,2,3,0,0,0	to_hand	s618
406.529	0.357	0	PA_without_intermediate	0,0,0,1,0,0,3,2,0	test	ward_and_allport	1,0,0,0,0,0,3,2,0	82.0	38.0	0.357	0,0,0,1,2,3,0,0,0	to_board	s618
406.895	2.775	0	PA_without_intermediate	0,0,0,0,0,0,3,2,0	test	ward_and_allport	1,0,0,0,0,0,3,2,0	71.0	38.0	2.775	0,0,0,1,2,3,0,0,0	to_hand	s618
409.67	0.138	0	PA_without_intermediate	1,0,0,0,0,0,3,2,0	test	ward_and_allport	1,0,0,0,0,0,3,2,0	89.0	38.0	0.138	0,0,0,1,2,3,0,0,0	to_board	s618
409.818	1.0	0	PA_without_intermediate	n/a	test	ward_and_allport	n/a	-1.0	38.0	n/a	n/a	feedback	s618
410.818	1.0	0	PA_without_intermediate	n/a	test	ward_and_allport	n/a	-1.0	38.0	n/a	n/a	ITI	s618
411.827	1.66	1	PA_without_intermediate	0,0,0,1,2,0,0,0,0	test	ward_and_allport	2,0,0,0,0,0,3,1,0	71.0	39.0	1.66	0,0,0,1,2,3,0,0,0	to_hand	s618
413.488	0.333	0	PA_without_intermediate	0,0,0,1,2,0,3,0,0	test	ward_and_allport	2,0,0,0,0,0,3,1,0	82.0	39.0	0.333	0,0,0,1,2,3,0,0,0	to_board	s618
413.828	0.453	0	PA_without_intermediate	0,0,0,1,0,0,3,0,0	test	ward_and_allport	2,0,0,0,0,0,3,1,0	71.0	39.0	0.453	0,0,0,1,2,3,0,0,0	to_hand	s618
414.282	0.232	0	PA_without_intermediate	2,0,0,1,0,0,3,0,0	test	ward_and_allport	2,0,0,0,0,0,3,1,0	89.0	39.0	0.232	0,0,0,1,2,3,0,0,0	to_board	s618
414.521	0.355	0	PA_without_intermediate	2,0,0,0,0,0,3,0,0	test	ward_and_allport	2,0,0,0,0,0,3,1,0	71.0	39.0	0.355	0,0,0,1,2,3,0,0,0	to_hand	s618
414.877	0.35	0	PA_without_intermediate	2,0,0,0,0,0,3,1,0	test	ward_and_allport	2,0,0,0,0,0,3,1,0	82.0	39.0	0.35	0,0,0,1,2,3,0,0,0	to_board	s618
415.237	1.0	0	PA_without_intermediate	n/a	test	ward_and_allport	n/a	-1.0	39.0	n/a	n/a	feedback	s618
416.237	1.0	0	PA_without_intermediate	n/a	test	ward_and_allport	n/a	-1.0	39.0	n/a	n/a	ITI	s618
417.244	2.205	1	PA_with_intermediate	0,0,0,1,2,0,0,0,0	test	ward_and_allport	0,0,0,1,0,0,2,3,0	71.0	40.0	2.205	0,0,0,1,2,3,0,0,0	to_hand	s618
419.449	0.284	0	PA_with_intermediate	3,0,0,1,2,0,0,0,0	test	ward_and_allport	0,0,0,1,0,0,2,3,0	89.0	40.0	0.284	0,0,0,1,2,3,0,0,0	to_board	s618
419.741	0.262	0	PA_with_intermediate	3,0,0,1,0,0,0,0,0	test	ward_and_allport	0,0,0,1,0,0,2,3,0	71.0	40.0	0.262	0,0,0,1,2,3,0,0,0	to_hand	s618
420.004	0.362	0	PA_with_intermediate	3,0,0,1,0,0,2,0,0	test	ward_and_allport	0,0,0,1,0,0,2,3,0	82.0	40.0	0.362	0,0,0,1,2,3,0,0,0	to_board	s618
420.372	0.33	0	PA_with_intermediate	0,0,0,1,0,0,2,0,0	test	ward_and_allport	0,0,0,1,0,0,2,3,0	89.0	40.0	0.33	0,0,0,1,2,3,0,0,0	to_hand	s618
420.703	0.277	0	PA_with_intermediate	0,0,0,1,0,0,2,3,0	test	ward_and_allport	0,0,0,1,0,0,2,3,0	82.0	40.0	0.277	0,0,0,1,2,3,0,0,0	to_board	s618
420.992	1.0	0	PA_with_intermediate	n/a	test	ward_and_allport	n/a	-1.0	40.0	n/a	n/a	feedback	s618
421.992	1.544	0	PA_with_intermediate	n/a	test	ward_and_allport	n/a	-1.0	40.0	n/a	n/a	ITI	s618
423.543	1.109	1	PA_without_intermediate	0,0,0,1,2,0,0,0,0	test	ward_and_allport	3,2,0,0,0,0,1,0,0	71.0	41.0	1.109	0,0,0,1,2,3,0,0,0	to_hand	s618
424.652	0.255	0	PA_without_intermediate	3,0,0,1,2,0,0,0,0	test	ward_and_allport	3,2,0,0,0,0,1,0,0	89.0	41.0	0.255	0,0,0,1,2,3,0,0,0	to_board	s618
424.914	0.278	0	PA_without_intermediate	3,0,0,1,0,0,0,0,0	test	ward_and_allport	3,2,0,0,0,0,1,0,0	71.0	41.0	0.278	0,0,0,1,2,3,0,0,0	to_hand	s618
425.193	0.256	0	PA_without_intermediate	3,2,0,1,0,0,0,0,0	test	ward_and_allport	3,2,0,0,0,0,1,0,0	89.0	41.0	0.256	0,0,0,1,2,3,0,0,0	to_board	s618
425.457	0.774	0	PA_without_intermediate	3,2,0,0,0,0,0,0,0	test	ward_and_allport	3,2,0,0,0,0,1,0,0	71.0	41.0	0.774	0,0,0,1,2,3,0,0,0	to_hand	s618
426.231	0.202	0	PA_without_intermediate	3,2,0,0,0,0,1,0,0	test	ward_and_allport	3,2,0,0,0,0,1,0,0	82.0	41.0	0.202	0,0,0,1,2,3,0,0,0	to_board	s618
426.443	1.0	0	PA_without_intermediate	n/a	test	ward_and_allport	n/a	-1.0	41.0	n/a	n/a	feedback	s618
427.443	1.272	0	PA_without_intermediate	n/a	test	ward_and_allport	n/a	-1.0	41.0	n/a	n/a	ITI	s618
428.722	2.268	1	PA_with_intermediate	0,0,0,1,2,0,0,0,0	test	ward_and_allport	0,0,0,1,3,0,2,0,0	71.0	42.0	2.268	0,0,0,1,2,3,0,0,0	to_hand	s618
430.991	0.252	0	PA_with_intermediate	3,0,0,1,2,0,0,0,0	test	ward_and_allport	0,0,0,1,3,0,2,0,0	89.0	42.0	0.252	0,0,0,1,2,3,0,0,0	to_board	s618
431.252	0.204	0	PA_with_intermediate	3,0,0,1,0,0,0,0,0	test	ward_and_allport	0,0,0,1,3,0,2,0,0	71.0	42.0	0.204	0,0,0,1,2,3,0,0,0	to_hand	s618
431.457	0.524	0	PA_with_intermediate	3,2,0,1,0,0,0,0,0	test	ward_and_allport	0,0,0,1,3,0,2,0,0	89.0	42.0	0.524	0,0,0,1,2,3,0,0,0	to_board	s618
431.989	1.46	0	PA_with_intermediate	3,0,0,1,0,0,0,0,0	test	ward_and_allport	0,0,0,1,3,0,2,0,0	89.0	42.0	1.46	0,0,0,1,2,3,0,0,0	to_hand	s618
433.45	0.35	0	PA_with_intermediate	3,0,0,1,0,0,2,0,0	test	ward_and_allport	0,0,0,1,3,0,2,0,0	82.0	42.0	0.35	0,0,0,1,2,3,0,0,0	to_board	s618
433.807	0.285	0	PA_with_intermediate	0,0,0,1,0,0,2,0,0	test	ward_and_allport	0,0,0,1,3,0,2,0,0	89.0	42.0	0.285	0,0,0,1,2,3,0,0,0	to_hand	s618
434.093	0.257	0	PA_with_intermediate	0,0,0,1,3,0,2,0,0	test	ward_and_allport	0,0,0,1,3,0,2,0,0	71.0	42.0	0.257	0,0,0,1,2,3,0,0,0	to_board	s618
434.36	1.0	0	PA_with_intermediate	n/a	test	ward_and_allport	n/a	-1.0	42.0	n/a	n/a	feedback	s618
435.36	3.04	0	PA_with_intermediate	n/a	test	ward_and_allport	n/a	-1.0	42.0	n/a	n/a	ITI	s618
438.407	2.125	1	PA_with_intermediate	1,2,0,0,0,0,0,0,0	test	ward_and_allport	1,3,0,2,0,0,0,0,0	89.0	43.0	2.125	1,2,3,0,0,0,0,0,0	to_hand	s618
440.534	1.75	0	PA_with_intermediate	1,2,0,0,0,0,3,0,0	test	ward_and_allport	1,3,0,2,0,0,0,0,0	82.0	43.0	1.75	1,2,3,0,0,0,0,0,0	to_board	s618
442.293	0.541	0	PA_with_intermediate	1,0,0,0,0,0,3,0,0	test	ward_and_allport	1,3,0,2,0,0,0,0,0	89.0	43.0	0.541	1,2,3,0,0,0,0,0,0	to_hand	s618
442.834	0.401	0	PA_with_intermediate	1,0,0,2,0,0,3,0,0	test	ward_and_allport	1,3,0,2,0,0,0,0,0	71.0	43.0	0.401	1,2,3,0,0,0,0,0,0	to_board	s618
443.247	1.026	0	PA_with_intermediate	1,0,0,2,0,0,0,0,0	test	ward_and_allport	1,3,0,2,0,0,0,0,0	82.0	43.0	1.026	1,2,3,0,0,0,0,0,0	to_hand	s618
444.274	0.272	0	PA_with_intermediate	1,3,0,2,0,0,0,0,0	test	ward_and_allport	1,3,0,2,0,0,0,0,0	89.0	43.0	0.272	1,2,3,0,0,0,0,0,0	to_board	s618
444.555	1.0	0	PA_with_intermediate	n/a	test	ward_and_allport	n/a	-1.0	43.0	n/a	n/a	feedback	s618
445.555	1.272	0	PA_with_intermediate	n/a	test	ward_and_allport	n/a	-1.0	43.0	n/a	n/a	ITI	s618
446.835	3.86	1	PA_with_intermediate	0,0,0,0,0,0,1,2,0	test	ward_and_allport	0,0,0,2,3,0,1,0,0	82.0	44.0	3.86	0,0,0,0,0,0,1,2,3	to_hand	s618
450.696	0.474	0	PA_with_intermediate	3,0,0,0,0,0,1,2,0	test	ward_and_allport	0,0,0,2,3,0,1,0,0	89.0	44.0	0.474	0,0,0,0,0,0,1,2,3	to_board	s618
451.179	0.933	0	PA_with_intermediate	3,0,0,0,0,0,1,0,0	test	ward_and_allport	0,0,0,2,3,0,1,0,0	82.0	44.0	0.933	0,0,0,0,0,0,1,2,3	to_hand	s618
452.113	0.309	0	PA_with_intermediate	3,0,0,2,0,0,1,0,0	test	ward_and_allport	0,0,0,2,3,0,1,0,0	71.0	44.0	0.309	0,0,0,0,0,0,1,2,3	to_board	s618
452.436	0.782	0	PA_with_intermediate	0,0,0,2,0,0,1,0,0	test	ward_and_allport	0,0,0,2,3,0,1,0,0	89.0	44.0	0.782	0,0,0,0,0,0,1,2,3	to_hand	s618
453.218	1.2	0	PA_with_intermediate	0,0,0,2,3,0,1,0,0	test	ward_and_allport	0,0,0,2,3,0,1,0,0	71.0	44.0	1.2	0,0,0,0,0,0,1,2,3	to_board	s618
454.43	1.0	0	PA_with_intermediate	n/a	test	ward_and_allport	n/a	-1.0	44.0	n/a	n/a	feedback	s618
455.43	1.136	0	PA_with_intermediate	n/a	test	ward_and_allport	n/a	-1.0	44.0	n/a	n/a	ITI	s618
461.578	5.125	1	PA_with_intermediate	0,0,0,0,0,0,1,2,0	test	ward_and_allport	2,0,0,0,0,0,1,3,0	82.0	45.0	5.125	0,0,0,0,0,0,1,2,3	to_hand	s618
466.704	0.504	0	PA_with_intermediate	3,0,0,0,0,0,1,2,0	test	ward_and_allport	2,0,0,0,0,0,1,3,0	89.0	45.0	0.504	0,0,0,0,0,0,1,2,3	to_board	s618
467.218	1.246	0	PA_with_intermediate	0,0,0,0,0,0,1,2,0	test	ward_and_allport	2,0,0,0,0,0,1,3,0	89.0	45.0	1.246	0,0,0,0,0,0,1,2,3	to_hand	s618
468.466	0.155	0	PA_with_intermediate	0,0,0,3,0,0,1,2,0	test	ward_and_allport	2,0,0,0,0,0,1,3,0	71.0	45.0	0.155	0,0,0,0,0,0,1,2,3	to_board	s618
468.632	0.96	0	PA_with_intermediate	0,0,0,3,0,0,1,0,0	test	ward_and_allport	2,0,0,0,0,0,1,3,0	82.0	45.0	0.96	0,0,0,0,0,0,1,2,3	to_hand	s618
469.593	0.595	0	PA_with_intermediate	2,0,0,3,0,0,1,0,0	test	ward_and_allport	2,0,0,0,0,0,1,3,0	89.0	45.0	0.595	0,0,0,0,0,0,1,2,3	to_board	s618
470.2	0.681	0	PA_with_intermediate	2,0,0,0,0,0,1,0,0	test	ward_and_allport	2,0,0,0,0,0,1,3,0	71.0	45.0	0.681	0,0,0,0,0,0,1,2,3	to_hand	s618
470.882	0.186	0	PA_with_intermediate	2,0,0,0,0,0,1,3,0	test	ward_and_allport	2,0,0,0,0,0,1,3,0	82.0	45.0	0.186	0,0,0,0,0,0,1,2,3	to_board	s618
471.079	1.0	0	PA_with_intermediate	n/a	test	ward_and_allport	n/a	-1.0	45.0	n/a	n/a	feedback	s618
472.079	1.0	0	PA_with_intermediate	n/a	test	ward_and_allport	n/a	-1.0	45.0	n/a	n/a	ITI	s618
473.088	4.119	1	PA_with_intermediate	0,0,0,1,2,0,0,0,0	test	ward_and_allport	2,3,0,1,0,0,0,0,0	71.0	46.0	4.119	0,0,0,1,2,3,0,0,0	to_hand	s618
477.208	0.502	0	PA_with_intermediate	0,0,0,1,2,0,3,0,0	test	ward_and_allport	2,3,0,1,0,0,0,0,0	82.0	46.0	0.502	0,0,0,1,2,3,0,0,0	to_board	s618
477.717	1.4	0	PA_with_intermediate	0,0,0,1,0,0,3,0,0	test	ward_and_allport	2,3,0,1,0,0,0,0,0	71.0	46.0	1.4	0,0,0,1,2,3,0,0,0	to_hand	s618
479.119	0.228	0	PA_with_intermediate	2,0,0,1,0,0,3,0,0	test	ward_and_allport	2,3,0,1,0,0,0,0,0	89.0	46.0	0.228	0,0,0,1,2,3,0,0,0	to_board	s618
479.356	1.161	0	PA_with_intermediate	2,0,0,1,0,0,0,0,0	test	ward_and_allport	2,3,0,1,0,0,0,0,0	82.0	46.0	1.161	0,0,0,1,2,3,0,0,0	to_hand	s618
480.519	0.218	0	PA_with_intermediate	2,3,0,1,0,0,0,0,0	test	ward_and_allport	2,3,0,1,0,0,0,0,0	89.0	46.0	0.218	0,0,0,1,2,3,0,0,0	to_board	s618
480.753	1.0	0	PA_with_intermediate	n/a	test	ward_and_allport	n/a	-1.0	46.0	n/a	n/a	feedback	s618
481.753	1.0	0	PA_with_intermediate	n/a	test	ward_and_allport	n/a	-1.0	46.0	n/a	n/a	ITI	s618
482.764	2.673	1	PA_without_intermediate	1,2,0,0,0,0,0,0,0	test	ward_and_allport	0,0,0,3,2,0,1,0,0	89.0	47.0	2.673	1,2,3,0,0,0,0,0,0	to_hand	s618
485.439	0.319	0	PA_without_intermediate	1,2,0,3,0,0,0,0,0	test	ward_and_allport	0,0,0,3,2,0,1,0,0	71.0	47.0	0.319	1,2,3,0,0,0,0,0,0	to_board	s618
485.768	0.336	0	PA_without_intermediate	1,0,0,3,0,0,0,0,0	test	ward_and_allport	0,0,0,3,2,0,1,0,0	89.0	47.0	0.336	1,2,3,0,0,0,0,0,0	to_hand	s618
486.104	0.726	0	PA_without_intermediate	1,0,0,3,2,0,0,0,0	test	ward_and_allport	0,0,0,3,2,0,1,0,0	71.0	47.0	0.726	1,2,3,0,0,0,0,0,0	to_board	s618
486.839	0.812	0	PA_without_intermediate	0,0,0,3,2,0,0,0,0	test	ward_and_allport	0,0,0,3,2,0,1,0,0	89.0	47.0	0.812	1,2,3,0,0,0,0,0,0	to_hand	s618
487.652	0.405	0	PA_without_intermediate	0,0,0,3,2,0,1,0,0	test	ward_and_allport	0,0,0,3,2,0,1,0,0	82.0	47.0	0.405	1,2,3,0,0,0,0,0,0	to_board	s618
488.068	1.0	0	PA_without_intermediate	n/a	test	ward_and_allport	n/a	-1.0	47.0	n/a	n/a	feedback	s618
489.068	1.408	0	PA_without_intermediate	n/a	test	ward_and_allport	n/a	-1.0	47.0	n/a	n/a	ITI	s618
n/a	n/a	0	n/a	n/a	n/a	n/a	n/a	n/a	n/a	n/a	n/a	ITI	n/a
