onset	duration	planning	condition	current_position	exp_stage	experiment_exp_id	goal_state	key_press	problem_id	response_time	start_state	trial_id	worker_id
-59.573	0.0	0	n/a	n/a	n/a	ward_and_allport	n/a	32.0	n/a	24.929	n/a	instructions	s541
3.009	4.285	1	UA_with_intermediate	1,0,0,2,0,0,0,0,0	practice	ward_and_allport	1,2,3,0,0,0,0,0,0	71.0	0.0	4.285	1,0,0,2,3,0,0,0,0	to_hand	s541
7.295	0.731	0	UA_with_intermediate	1,0,0,2,0,0,3,0,0	practice	ward_and_allport	1,2,3,0,0,0,0,0,0	82.0	0.0	0.731	1,0,0,2,3,0,0,0,0	to_board	s541
8.028	1.493	0	UA_with_intermediate	1,0,0,0,0,0,3,0,0	practice	ward_and_allport	1,2,3,0,0,0,0,0,0	71.0	0.0	1.493	1,0,0,2,3,0,0,0,0	to_hand	s541
9.522	0.439	0	UA_with_intermediate	1,2,0,0,0,0,3,0,0	practice	ward_and_allport	1,2,3,0,0,0,0,0,0	89.0	0.0	0.439	1,0,0,2,3,0,0,0,0	to_board	s541
9.962	1.188	0	UA_with_intermediate	1,2,0,0,0,0,0,0,0	practice	ward_and_allport	1,2,3,0,0,0,0,0,0	82.0	0.0	1.188	1,0,0,2,3,0,0,0,0	to_hand	s541
11.152	0.528	0	UA_with_intermediate	1,2,3,0,0,0,0,0,0	practice	ward_and_allport	1,2,3,0,0,0,0,0,0	89.0	0.0	0.528	1,0,0,2,3,0,0,0,0	to_board	s541
11.684	1.0	0	UA_with_intermediate	n/a	practice	ward_and_allport	n/a	-1.0	0.0	n/a	n/a	feedback	s541
14.187	3.989	1	UA_with_intermediate	1,0,0,3,0,0,0,0,0	practice	ward_and_allport	1,3,2,0,0,0,0,0,0	89.0	1.0	3.989	1,2,0,3,0,0,0,0,0	to_hand	s541
18.177	1.505	0	UA_with_intermediate	1,0,0,3,0,0,2,0,0	practice	ward_and_allport	1,3,2,0,0,0,0,0,0	82.0	1.0	1.505	1,2,0,3,0,0,0,0,0	to_board	s541
19.685	0.542	0	UA_with_intermediate	1,0,0,0,0,0,2,0,0	practice	ward_and_allport	1,3,2,0,0,0,0,0,0	71.0	1.0	0.542	1,2,0,3,0,0,0,0,0	to_hand	s541
20.227	0.495	0	UA_with_intermediate	1,3,0,0,0,0,2,0,0	practice	ward_and_allport	1,3,2,0,0,0,0,0,0	89.0	1.0	0.495	1,2,0,3,0,0,0,0,0	to_board	s541
20.723	1.016	0	UA_with_intermediate	1,3,0,0,0,0,0,0,0	practice	ward_and_allport	1,3,2,0,0,0,0,0,0	82.0	1.0	1.016	1,2,0,3,0,0,0,0,0	to_hand	s541
21.741	0.39	0	UA_with_intermediate	1,3,2,0,0,0,0,0,0	practice	ward_and_allport	1,3,2,0,0,0,0,0,0	89.0	1.0	0.39	1,2,0,3,0,0,0,0,0	to_board	s541
22.136	1.0	0	UA_with_intermediate	n/a	practice	ward_and_allport	n/a	-1.0	1.0	n/a	n/a	feedback	s541
23.136	1.1	0	UA_with_intermediate	n/a	practice	ward_and_allport	n/a	-1.0	1.0	n/a	n/a	ITI	s541
24.238	2.869	1	UA_without_intermediate	0,0,0,1,2,0,0,0,0	practice	ward_and_allport	3,2,1,0,0,0,0,0,0	82.0	2.0	2.869	0,0,0,1,2,0,3,0,0	to_hand	s541
27.108	1.152	0	UA_without_intermediate	3,0,0,1,2,0,0,0,0	practice	ward_and_allport	3,2,1,0,0,0,0,0,0	89.0	2.0	1.152	0,0,0,1,2,0,3,0,0	to_board	s541
28.262	2.684	0	UA_without_intermediate	3,0,0,1,0,0,0,0,0	practice	ward_and_allport	3,2,1,0,0,0,0,0,0	71.0	2.0	2.684	0,0,0,1,2,0,3,0,0	to_hand	s541
30.948	0.352	0	UA_without_intermediate	3,2,0,1,0,0,0,0,0	practice	ward_and_allport	3,2,1,0,0,0,0,0,0	89.0	2.0	0.352	0,0,0,1,2,0,3,0,0	to_board	s541
31.302	1.711	0	UA_without_intermediate	3,2,0,0,0,0,0,0,0	practice	ward_and_allport	3,2,1,0,0,0,0,0,0	71.0	2.0	1.711	0,0,0,1,2,0,3,0,0	to_hand	s541
33.014	0.472	0	UA_without_intermediate	3,2,1,0,0,0,0,0,0	practice	ward_and_allport	3,2,1,0,0,0,0,0,0	89.0	2.0	0.472	0,0,0,1,2,0,3,0,0	to_board	s541
33.493	1.0	0	UA_without_intermediate	n/a	practice	ward_and_allport	n/a	-1.0	2.0	n/a	n/a	feedback	s541
34.493	1.2	0	UA_without_intermediate	n/a	practice	ward_and_allport	n/a	-1.0	2.0	n/a	n/a	ITI	s541
35.695	3.658	1	UA_without_intermediate	0,0,0,1,0,0,3,0,0	practice	ward_and_allport	2,3,1,0,0,0,0,0,0	71.0	3.0	3.658	0,0,0,1,2,0,3,0,0	to_hand	s541
39.354	0.313	0	UA_without_intermediate	2,0,0,1,0,0,3,0,0	practice	ward_and_allport	2,3,1,0,0,0,0,0,0	89.0	3.0	0.313	0,0,0,1,2,0,3,0,0	to_board	s541
39.669	2.39	0	UA_without_intermediate	2,0,0,1,0,0,0,0,0	practice	ward_and_allport	2,3,1,0,0,0,0,0,0	82.0	3.0	2.39	0,0,0,1,2,0,3,0,0	to_hand	s541
42.059	0.329	0	UA_without_intermediate	2,3,0,1,0,0,0,0,0	practice	ward_and_allport	2,3,1,0,0,0,0,0,0	89.0	3.0	0.329	0,0,0,1,2,0,3,0,0	to_board	s541
42.389	1.133	0	UA_without_intermediate	2,3,0,0,0,0,0,0,0	practice	ward_and_allport	2,3,1,0,0,0,0,0,0	71.0	3.0	1.133	0,0,0,1,2,0,3,0,0	to_hand	s541
43.524	2.791	0	UA_without_intermediate	2,3,1,0,0,0,0,0,0	practice	ward_and_allport	2,3,1,0,0,0,0,0,0	89.0	3.0	2.791	0,0,0,1,2,0,3,0,0	to_board	s541
46.317	1.0	0	UA_without_intermediate	n/a	practice	ward_and_allport	n/a	-1.0	3.0	n/a	n/a	feedback	s541
47.317	1.0	0	UA_without_intermediate	n/a	practice	ward_and_allport	n/a	-1.0	3.0	n/a	n/a	ITI	s541
50.323	4.997	1	PA_with_intermediate	1,2,0,0,0,0,0,0,0	test	ward_and_allport	1,3,0,2,0,0,0,0,0	89.0	0.0	4.997	1,2,3,0,0,0,0,0,0	to_hand	s541
55.321	0.688	0	PA_with_intermediate	1,2,0,0,0,0,3,0,0	test	ward_and_allport	1,3,0,2,0,0,0,0,0	82.0	0.0	0.688	1,2,3,0,0,0,0,0,0	to_board	s541
56.011	1.862	0	PA_with_intermediate	1,0,0,0,0,0,3,0,0	test	ward_and_allport	1,3,0,2,0,0,0,0,0	89.0	0.0	1.862	1,2,3,0,0,0,0,0,0	to_hand	s541
57.874	0.949	0	PA_with_intermediate	1,0,0,2,0,0,3,0,0	test	ward_and_allport	1,3,0,2,0,0,0,0,0	71.0	0.0	0.949	1,2,3,0,0,0,0,0,0	to_board	s541
58.824	6.853	0	PA_with_intermediate	1,0,0,2,0,0,0,0,0	test	ward_and_allport	1,3,0,2,0,0,0,0,0	82.0	0.0	6.853	1,2,3,0,0,0,0,0,0	to_hand	s541
65.678	0.353	0	PA_with_intermediate	1,3,0,2,0,0,0,0,0	test	ward_and_allport	1,3,0,2,0,0,0,0,0	89.0	0.0	0.353	1,2,3,0,0,0,0,0,0	to_board	s541
66.035	1.0	0	PA_with_intermediate	n/a	test	ward_and_allport	n/a	-1.0	0.0	n/a	n/a	feedback	s541
67.035	3.176	0	PA_with_intermediate	n/a	test	ward_and_allport	n/a	-1.0	0.0	n/a	n/a	ITI	s541
70.214	5.565	1	PA_with_intermediate	0,0,0,1,2,0,0,0,0	test	ward_and_allport	0,0,0,1,0,0,2,3,0	71.0	1.0	5.565	0,0,0,1,2,3,0,0,0	to_hand	s541
75.779	0.391	0	PA_with_intermediate	3,0,0,1,2,0,0,0,0	test	ward_and_allport	0,0,0,1,0,0,2,3,0	89.0	1.0	0.391	0,0,0,1,2,3,0,0,0	to_board	s541
76.172	0.823	0	PA_with_intermediate	3,0,0,1,0,0,0,0,0	test	ward_and_allport	0,0,0,1,0,0,2,3,0	71.0	1.0	0.823	0,0,0,1,2,3,0,0,0	to_hand	s541
76.996	0.396	0	PA_with_intermediate	3,0,0,1,0,0,2,0,0	test	ward_and_allport	0,0,0,1,0,0,2,3,0	82.0	1.0	0.396	0,0,0,1,2,3,0,0,0	to_board	s541
77.393	0.776	0	PA_with_intermediate	0,0,0,1,0,0,2,0,0	test	ward_and_allport	0,0,0,1,0,0,2,3,0	89.0	1.0	0.776	0,0,0,1,2,3,0,0,0	to_hand	s541
78.171	0.348	0	PA_with_intermediate	0,0,0,1,0,0,2,3,0	test	ward_and_allport	0,0,0,1,0,0,2,3,0	82.0	1.0	0.348	0,0,0,1,2,3,0,0,0	to_board	s541
78.526	1.0	0	PA_with_intermediate	n/a	test	ward_and_allport	n/a	-1.0	1.0	n/a	n/a	feedback	s541
79.526	2.36	0	PA_with_intermediate	n/a	test	ward_and_allport	n/a	-1.0	1.0	n/a	n/a	ITI	s541
81.889	4.327	1	PA_with_intermediate	1,2,0,0,0,0,0,0,0	test	ward_and_allport	1,3,0,2,0,0,0,0,0	89.0	2.0	4.327	1,2,3,0,0,0,0,0,0	to_hand	s541
86.216	0.453	0	PA_with_intermediate	1,2,0,0,0,0,3,0,0	test	ward_and_allport	1,3,0,2,0,0,0,0,0	82.0	2.0	0.453	1,2,3,0,0,0,0,0,0	to_board	s541
86.672	1.227	0	PA_with_intermediate	1,0,0,0,0,0,3,0,0	test	ward_and_allport	1,3,0,2,0,0,0,0,0	89.0	2.0	1.227	1,2,3,0,0,0,0,0,0	to_hand	s541
87.899	0.388	0	PA_with_intermediate	1,0,0,2,0,0,3,0,0	test	ward_and_allport	1,3,0,2,0,0,0,0,0	71.0	2.0	0.388	1,2,3,0,0,0,0,0,0	to_board	s541
88.29	1.016	0	PA_with_intermediate	1,0,0,2,0,0,0,0,0	test	ward_and_allport	1,3,0,2,0,0,0,0,0	82.0	2.0	1.016	1,2,3,0,0,0,0,0,0	to_hand	s541
89.307	0.293	0	PA_with_intermediate	1,3,0,2,0,0,0,0,0	test	ward_and_allport	1,3,0,2,0,0,0,0,0	89.0	2.0	0.293	1,2,3,0,0,0,0,0,0	to_board	s541
89.603	1.0	0	PA_with_intermediate	n/a	test	ward_and_allport	n/a	-1.0	2.0	n/a	n/a	feedback	s541
90.603	1.0	0	PA_with_intermediate	n/a	test	ward_and_allport	n/a	-1.0	2.0	n/a	n/a	ITI	s541
91.606	4.935	1	PA_without_intermediate	0,0,0,1,2,0,0,0,0	test	ward_and_allport	3,2,0,0,0,0,1,0,0	71.0	3.0	4.935	0,0,0,1,2,3,0,0,0	to_hand	s541
96.542	0.337	0	PA_without_intermediate	3,0,0,1,2,0,0,0,0	test	ward_and_allport	3,2,0,0,0,0,1,0,0	89.0	3.0	0.337	0,0,0,1,2,3,0,0,0	to_board	s541
96.88	0.522	0	PA_without_intermediate	3,0,0,1,0,0,0,0,0	test	ward_and_allport	3,2,0,0,0,0,1,0,0	71.0	3.0	0.522	0,0,0,1,2,3,0,0,0	to_hand	s541
97.404	0.416	0	PA_without_intermediate	3,2,0,1,0,0,0,0,0	test	ward_and_allport	3,2,0,0,0,0,1,0,0	89.0	3.0	0.416	0,0,0,1,2,3,0,0,0	to_board	s541
97.823	1.11	0	PA_without_intermediate	3,2,0,0,0,0,0,0,0	test	ward_and_allport	3,2,0,0,0,0,1,0,0	71.0	3.0	1.11	0,0,0,1,2,3,0,0,0	to_hand	s541
98.934	0.318	0	PA_without_intermediate	3,2,0,0,0,0,1,0,0	test	ward_and_allport	3,2,0,0,0,0,1,0,0	82.0	3.0	0.318	0,0,0,1,2,3,0,0,0	to_board	s541
99.255	1.0	0	PA_without_intermediate	n/a	test	ward_and_allport	n/a	-1.0	3.0	n/a	n/a	feedback	s541
100.255	1.408	0	PA_without_intermediate	n/a	test	ward_and_allport	n/a	-1.0	3.0	n/a	n/a	ITI	s541
101.666	5.213	1	PA_with_intermediate	1,2,0,0,0,0,0,0,0	test	ward_and_allport	1,0,0,0,0,0,2,3,0	89.0	4.0	5.213	1,2,3,0,0,0,0,0,0	to_hand	s541
106.881	0.31	0	PA_with_intermediate	1,2,0,3,0,0,0,0,0	test	ward_and_allport	1,0,0,0,0,0,2,3,0	71.0	4.0	0.31	1,2,3,0,0,0,0,0,0	to_board	s541
107.194	0.961	0	PA_with_intermediate	1,0,0,3,0,0,0,0,0	test	ward_and_allport	1,0,0,0,0,0,2,3,0	89.0	4.0	0.961	1,2,3,0,0,0,0,0,0	to_hand	s541
108.155	0.34	0	PA_with_intermediate	1,0,0,3,0,0,2,0,0	test	ward_and_allport	1,0,0,0,0,0,2,3,0	82.0	4.0	0.34	1,2,3,0,0,0,0,0,0	to_board	s541
108.497	0.959	0	PA_with_intermediate	1,0,0,0,0,0,2,0,0	test	ward_and_allport	1,0,0,0,0,0,2,3,0	71.0	4.0	0.959	1,2,3,0,0,0,0,0,0	to_hand	s541
109.456	0.292	0	PA_with_intermediate	1,0,0,0,0,0,2,3,0	test	ward_and_allport	1,0,0,0,0,0,2,3,0	82.0	4.0	0.292	1,2,3,0,0,0,0,0,0	to_board	s541
109.754	1.0	0	PA_with_intermediate	n/a	test	ward_and_allport	n/a	-1.0	4.0	n/a	n/a	feedback	s541
110.754	1.816	0	PA_with_intermediate	n/a	test	ward_and_allport	n/a	-1.0	4.0	n/a	n/a	ITI	s541
112.572	4.526	1	PA_without_intermediate	0,0,0,1,2,0,0,0,0	test	ward_and_allport	3,2,0,0,0,0,1,0,0	71.0	5.0	4.526	0,0,0,1,2,3,0,0,0	to_hand	s541
117.099	0.313	0	PA_without_intermediate	3,0,0,1,2,0,0,0,0	test	ward_and_allport	3,2,0,0,0,0,1,0,0	89.0	5.0	0.313	0,0,0,1,2,3,0,0,0	to_board	s541
117.415	0.506	0	PA_without_intermediate	3,0,0,1,0,0,0,0,0	test	ward_and_allport	3,2,0,0,0,0,1,0,0	71.0	5.0	0.506	0,0,0,1,2,3,0,0,0	to_hand	s541
117.921	0.316	0	PA_without_intermediate	3,2,0,1,0,0,0,0,0	test	ward_and_allport	3,2,0,0,0,0,1,0,0	89.0	5.0	0.316	0,0,0,1,2,3,0,0,0	to_board	s541
118.239	0.59	0	PA_without_intermediate	3,2,0,0,0,0,0,0,0	test	ward_and_allport	3,2,0,0,0,0,1,0,0	71.0	5.0	0.59	0,0,0,1,2,3,0,0,0	to_hand	s541
118.831	0.322	0	PA_without_intermediate	3,2,0,0,0,0,1,0,0	test	ward_and_allport	3,2,0,0,0,0,1,0,0	82.0	5.0	0.322	0,0,0,1,2,3,0,0,0	to_board	s541
119.157	1.0	0	PA_without_intermediate	n/a	test	ward_and_allport	n/a	-1.0	5.0	n/a	n/a	feedback	s541
120.157	2.088	0	PA_without_intermediate	n/a	test	ward_and_allport	n/a	-1.0	5.0	n/a	n/a	ITI	s541
122.248	3.64	1	PA_without_intermediate	0,0,0,1,2,0,0,0,0	test	ward_and_allport	2,0,0,0,0,0,3,1,0	71.0	6.0	3.64	0,0,0,1,2,3,0,0,0	to_hand	s541
125.889	0.372	0	PA_without_intermediate	0,0,0,1,2,0,3,0,0	test	ward_and_allport	2,0,0,0,0,0,3,1,0	82.0	6.0	0.372	0,0,0,1,2,3,0,0,0	to_board	s541
126.264	0.441	0	PA_without_intermediate	0,0,0,1,0,0,3,0,0	test	ward_and_allport	2,0,0,0,0,0,3,1,0	71.0	6.0	0.441	0,0,0,1,2,3,0,0,0	to_hand	s541
126.705	0.327	0	PA_without_intermediate	2,0,0,1,0,0,3,0,0	test	ward_and_allport	2,0,0,0,0,0,3,1,0	89.0	6.0	0.327	0,0,0,1,2,3,0,0,0	to_board	s541
127.036	0.615	0	PA_without_intermediate	2,0,0,0,0,0,3,0,0	test	ward_and_allport	2,0,0,0,0,0,3,1,0	71.0	6.0	0.615	0,0,0,1,2,3,0,0,0	to_hand	s541
127.651	0.298	0	PA_without_intermediate	2,0,0,0,0,0,3,1,0	test	ward_and_allport	2,0,0,0,0,0,3,1,0	82.0	6.0	0.298	0,0,0,1,2,3,0,0,0	to_board	s541
127.956	1.0	0	PA_without_intermediate	n/a	test	ward_and_allport	n/a	-1.0	6.0	n/a	n/a	feedback	s541
128.956	1.136	0	PA_without_intermediate	n/a	test	ward_and_allport	n/a	-1.0	6.0	n/a	n/a	ITI	s541
130.095	3.768	1	PA_without_intermediate	0,0,0,1,2,0,0,0,0	test	ward_and_allport	1,0,0,0,0,0,3,2,0	71.0	7.0	3.768	0,0,0,1,2,3,0,0,0	to_hand	s541
133.863	0.303	0	PA_without_intermediate	0,0,0,1,2,0,3,0,0	test	ward_and_allport	1,0,0,0,0,0,3,2,0	82.0	7.0	0.303	0,0,0,1,2,3,0,0,0	to_board	s541
134.17	0.354	0	PA_without_intermediate	0,0,0,1,0,0,3,0,0	test	ward_and_allport	1,0,0,0,0,0,3,2,0	71.0	7.0	0.354	0,0,0,1,2,3,0,0,0	to_hand	s541
134.525	0.314	0	PA_without_intermediate	0,0,0,1,0,0,3,2,0	test	ward_and_allport	1,0,0,0,0,0,3,2,0	82.0	7.0	0.314	0,0,0,1,2,3,0,0,0	to_board	s541
134.841	0.673	0	PA_without_intermediate	0,0,0,0,0,0,3,2,0	test	ward_and_allport	1,0,0,0,0,0,3,2,0	71.0	7.0	0.673	0,0,0,1,2,3,0,0,0	to_hand	s541
135.516	0.259	0	PA_without_intermediate	1,0,0,0,0,0,3,2,0	test	ward_and_allport	1,0,0,0,0,0,3,2,0	89.0	7.0	0.259	0,0,0,1,2,3,0,0,0	to_board	s541
135.784	1.0	0	PA_without_intermediate	n/a	test	ward_and_allport	n/a	-1.0	7.0	n/a	n/a	feedback	s541
136.784	6.168	0	PA_without_intermediate	n/a	test	ward_and_allport	n/a	-1.0	7.0	n/a	n/a	ITI	s541
142.956	3.688	1	PA_without_intermediate	0,0,0,1,2,0,0,0,0	test	ward_and_allport	3,1,0,0,0,0,2,0,0	71.0	8.0	3.688	0,0,0,1,2,3,0,0,0	to_hand	s541
146.645	0.306	0	PA_without_intermediate	3,0,0,1,2,0,0,0,0	test	ward_and_allport	3,1,0,0,0,0,2,0,0	89.0	8.0	0.306	0,0,0,1,2,3,0,0,0	to_board	s541
146.954	0.483	0	PA_without_intermediate	3,0,0,1,0,0,0,0,0	test	ward_and_allport	3,1,0,0,0,0,2,0,0	71.0	8.0	0.483	0,0,0,1,2,3,0,0,0	to_hand	s541
147.439	0.364	0	PA_without_intermediate	3,0,0,1,0,0,2,0,0	test	ward_and_allport	3,1,0,0,0,0,2,0,0	82.0	8.0	0.364	0,0,0,1,2,3,0,0,0	to_board	s541
147.805	0.429	0	PA_without_intermediate	3,0,0,0,0,0,2,0,0	test	ward_and_allport	3,1,0,0,0,0,2,0,0	71.0	8.0	0.429	0,0,0,1,2,3,0,0,0	to_hand	s541
148.235	0.308	0	PA_without_intermediate	3,1,0,0,0,0,2,0,0	test	ward_and_allport	3,1,0,0,0,0,2,0,0	89.0	8.0	0.308	0,0,0,1,2,3,0,0,0	to_board	s541
148.552	1.0	0	PA_without_intermediate	n/a	test	ward_and_allport	n/a	-1.0	8.0	n/a	n/a	feedback	s541
149.552	1.816	0	PA_without_intermediate	n/a	test	ward_and_allport	n/a	-1.0	8.0	n/a	n/a	ITI	s541
151.372	5.372	1	PA_with_intermediate	0,0,0,0,0,0,1,2,0	test	ward_and_allport	0,0,0,2,0,0,1,3,0	82.0	9.0	5.372	0,0,0,0,0,0,1,2,3	to_hand	s541
156.745	0.46	0	PA_with_intermediate	3,0,0,0,0,0,1,2,0	test	ward_and_allport	0,0,0,2,0,0,1,3,0	89.0	9.0	0.46	0,0,0,0,0,0,1,2,3	to_board	s541
157.208	2.175	0	PA_with_intermediate	3,0,0,0,0,0,1,0,0	test	ward_and_allport	0,0,0,2,0,0,1,3,0	82.0	9.0	2.175	0,0,0,0,0,0,1,2,3	to_hand	s541
159.384	0.723	0	PA_with_intermediate	3,0,0,2,0,0,1,0,0	test	ward_and_allport	0,0,0,2,0,0,1,3,0	71.0	9.0	0.723	0,0,0,0,0,0,1,2,3	to_board	s541
160.111	1.128	0	PA_with_intermediate	0,0,0,2,0,0,1,0,0	test	ward_and_allport	0,0,0,2,0,0,1,3,0	89.0	9.0	1.128	0,0,0,0,0,0,1,2,3	to_hand	s541
161.24	0.363	0	PA_with_intermediate	0,0,0,2,0,0,1,3,0	test	ward_and_allport	0,0,0,2,0,0,1,3,0	82.0	9.0	0.363	0,0,0,0,0,0,1,2,3	to_board	s541
161.608	1.0	0	PA_with_intermediate	n/a	test	ward_and_allport	n/a	-1.0	9.0	n/a	n/a	feedback	s541
162.608	1.952	0	PA_with_intermediate	n/a	test	ward_and_allport	n/a	-1.0	9.0	n/a	n/a	ITI	s541
164.564	4.421	1	PA_with_intermediate	1,2,0,0,0,0,0,0,0	test	ward_and_allport	1,3,0,0,0,0,2,0,0	89.0	10.0	4.421	1,2,3,0,0,0,0,0,0	to_hand	s541
168.986	0.339	0	PA_with_intermediate	1,2,0,3,0,0,0,0,0	test	ward_and_allport	1,3,0,0,0,0,2,0,0	71.0	10.0	0.339	1,2,3,0,0,0,0,0,0	to_board	s541
169.328	1.004	0	PA_with_intermediate	1,0,0,3,0,0,0,0,0	test	ward_and_allport	1,3,0,0,0,0,2,0,0	89.0	10.0	1.004	1,2,3,0,0,0,0,0,0	to_hand	s541
170.333	0.397	0	PA_with_intermediate	1,0,0,3,0,0,2,0,0	test	ward_and_allport	1,3,0,0,0,0,2,0,0	82.0	10.0	0.397	1,2,3,0,0,0,0,0,0	to_board	s541
170.733	0.891	0	PA_with_intermediate	1,0,0,0,0,0,2,0,0	test	ward_and_allport	1,3,0,0,0,0,2,0,0	71.0	10.0	0.891	1,2,3,0,0,0,0,0,0	to_hand	s541
171.626	0.251	0	PA_with_intermediate	1,3,0,0,0,0,2,0,0	test	ward_and_allport	1,3,0,0,0,0,2,0,0	89.0	10.0	0.251	1,2,3,0,0,0,0,0,0	to_board	s541
171.881	1.0	0	PA_with_intermediate	n/a	test	ward_and_allport	n/a	-1.0	10.0	n/a	n/a	feedback	s541
172.881	1.136	0	PA_with_intermediate	n/a	test	ward_and_allport	n/a	-1.0	10.0	n/a	n/a	ITI	s541
174.021	3.712	1	PA_without_intermediate	0,0,0,1,2,0,0,0,0	test	ward_and_allport	3,1,0,0,0,0,2,0,0	71.0	11.0	3.712	0,0,0,1,2,3,0,0,0	to_hand	s541
177.733	0.351	0	PA_without_intermediate	3,0,0,1,2,0,0,0,0	test	ward_and_allport	3,1,0,0,0,0,2,0,0	89.0	11.0	0.351	0,0,0,1,2,3,0,0,0	to_board	s541
178.088	0.487	0	PA_without_intermediate	3,0,0,1,0,0,0,0,0	test	ward_and_allport	3,1,0,0,0,0,2,0,0	71.0	11.0	0.487	0,0,0,1,2,3,0,0,0	to_hand	s541
178.577	0.386	0	PA_without_intermediate	3,0,0,1,0,0,2,0,0	test	ward_and_allport	3,1,0,0,0,0,2,0,0	82.0	11.0	0.386	0,0,0,1,2,3,0,0,0	to_board	s541
178.966	0.485	0	PA_without_intermediate	3,0,0,0,0,0,2,0,0	test	ward_and_allport	3,1,0,0,0,0,2,0,0	71.0	11.0	0.485	0,0,0,1,2,3,0,0,0	to_hand	s541
179.453	0.281	0	PA_without_intermediate	3,1,0,0,0,0,2,0,0	test	ward_and_allport	3,1,0,0,0,0,2,0,0	89.0	11.0	0.281	0,0,0,1,2,3,0,0,0	to_board	s541
179.743	1.0	0	PA_without_intermediate	n/a	test	ward_and_allport	n/a	-1.0	11.0	n/a	n/a	feedback	s541
180.743	1.68	0	PA_without_intermediate	n/a	test	ward_and_allport	n/a	-1.0	11.0	n/a	n/a	ITI	s541
182.427	2.634	1	PA_without_intermediate	1,2,0,0,0,0,0,0,0	test	ward_and_allport	0,0,0,1,0,0,3,2,0	89.0	12.0	2.634	1,2,3,0,0,0,0,0,0	to_hand	s541
185.062	0.375	0	PA_without_intermediate	1,2,0,0,0,0,3,0,0	test	ward_and_allport	0,0,0,1,0,0,3,2,0	82.0	12.0	0.375	1,2,3,0,0,0,0,0,0	to_board	s541
185.442	1.735	0	PA_without_intermediate	1,0,0,0,0,0,3,0,0	test	ward_and_allport	0,0,0,1,0,0,3,2,0	89.0	12.0	1.735	1,2,3,0,0,0,0,0,0	to_hand	s541
187.177	0.372	0	PA_without_intermediate	1,0,0,0,0,0,3,2,0	test	ward_and_allport	0,0,0,1,0,0,3,2,0	82.0	12.0	0.372	1,2,3,0,0,0,0,0,0	to_board	s541
187.554	1.488	0	PA_without_intermediate	0,0,0,0,0,0,3,2,0	test	ward_and_allport	0,0,0,1,0,0,3,2,0	89.0	12.0	1.488	1,2,3,0,0,0,0,0,0	to_hand	s541
189.042	0.261	0	PA_without_intermediate	0,0,0,1,0,0,3,2,0	test	ward_and_allport	0,0,0,1,0,0,3,2,0	71.0	12.0	0.261	1,2,3,0,0,0,0,0,0	to_board	s541
189.312	1.0	0	PA_without_intermediate	n/a	test	ward_and_allport	n/a	-1.0	12.0	n/a	n/a	feedback	s541
190.312	2.088	0	PA_without_intermediate	n/a	test	ward_and_allport	n/a	-1.0	12.0	n/a	n/a	ITI	s541
192.404	3.247	1	PA_with_intermediate	1,2,0,0,0,0,0,0,0	test	ward_and_allport	1,3,0,0,0,0,2,0,0	89.0	13.0	3.247	1,2,3,0,0,0,0,0,0	to_hand	s541
195.653	0.336	0	PA_with_intermediate	1,2,0,3,0,0,0,0,0	test	ward_and_allport	1,3,0,0,0,0,2,0,0	71.0	13.0	0.336	1,2,3,0,0,0,0,0,0	to_board	s541
195.994	0.799	0	PA_with_intermediate	1,0,0,3,0,0,0,0,0	test	ward_and_allport	1,3,0,0,0,0,2,0,0	89.0	13.0	0.799	1,2,3,0,0,0,0,0,0	to_hand	s541
196.794	0.313	0	PA_with_intermediate	1,0,0,3,0,0,2,0,0	test	ward_and_allport	1,3,0,0,0,0,2,0,0	82.0	13.0	0.313	1,2,3,0,0,0,0,0,0	to_board	s541
197.112	0.892	0	PA_with_intermediate	1,0,0,0,0,0,2,0,0	test	ward_and_allport	1,3,0,0,0,0,2,0,0	71.0	13.0	0.892	1,2,3,0,0,0,0,0,0	to_hand	s541
198.004	0.247	0	PA_with_intermediate	1,3,0,0,0,0,2,0,0	test	ward_and_allport	1,3,0,0,0,0,2,0,0	89.0	13.0	0.247	1,2,3,0,0,0,0,0,0	to_board	s541
198.258	1.0	0	PA_with_intermediate	n/a	test	ward_and_allport	n/a	-1.0	13.0	n/a	n/a	feedback	s541
199.258	1.0	0	PA_with_intermediate	n/a	test	ward_and_allport	n/a	-1.0	13.0	n/a	n/a	ITI	s541
200.262	4.746	1	PA_without_intermediate	0,0,0,1,2,0,0,0,0	test	ward_and_allport	2,0,0,0,0,0,3,1,0	71.0	14.0	4.746	0,0,0,1,2,3,0,0,0	to_hand	s541
205.01	0.368	0	PA_without_intermediate	0,0,0,1,2,0,3,0,0	test	ward_and_allport	2,0,0,0,0,0,3,1,0	82.0	14.0	0.368	0,0,0,1,2,3,0,0,0	to_board	s541
205.381	0.634	0	PA_without_intermediate	0,0,0,1,0,0,3,0,0	test	ward_and_allport	2,0,0,0,0,0,3,1,0	71.0	14.0	0.634	0,0,0,1,2,3,0,0,0	to_hand	s541
206.016	0.289	0	PA_without_intermediate	2,0,0,1,0,0,3,0,0	test	ward_and_allport	2,0,0,0,0,0,3,1,0	89.0	14.0	0.289	0,0,0,1,2,3,0,0,0	to_board	s541
206.309	0.804	0	PA_without_intermediate	2,0,0,0,0,0,3,0,0	test	ward_and_allport	2,0,0,0,0,0,3,1,0	71.0	14.0	0.804	0,0,0,1,2,3,0,0,0	to_hand	s541
207.114	0.441	0	PA_without_intermediate	2,0,0,0,0,0,3,1,0	test	ward_and_allport	2,0,0,0,0,0,3,1,0	82.0	14.0	0.441	0,0,0,1,2,3,0,0,0	to_board	s541
207.563	1.0	0	PA_without_intermediate	n/a	test	ward_and_allport	n/a	-1.0	14.0	n/a	n/a	feedback	s541
208.563	1.0	0	PA_without_intermediate	n/a	test	ward_and_allport	n/a	-1.0	14.0	n/a	n/a	ITI	s541
214.57	4.583	1	PA_without_intermediate	1,2,0,0,0,0,0,0,0	test	ward_and_allport	0,0,0,1,0,0,3,2,0	89.0	15.0	4.583	1,2,3,0,0,0,0,0,0	to_hand	s541
219.154	0.532	0	PA_without_intermediate	1,2,0,0,0,0,3,0,0	test	ward_and_allport	0,0,0,1,0,0,3,2,0	82.0	15.0	0.532	1,2,3,0,0,0,0,0,0	to_board	s541
219.69	0.771	0	PA_without_intermediate	1,0,0,0,0,0,3,0,0	test	ward_and_allport	0,0,0,1,0,0,3,2,0	89.0	15.0	0.771	1,2,3,0,0,0,0,0,0	to_hand	s541
220.463	0.369	0	PA_without_intermediate	1,0,0,0,0,0,3,2,0	test	ward_and_allport	0,0,0,1,0,0,3,2,0	82.0	15.0	0.369	1,2,3,0,0,0,0,0,0	to_board	s541
220.835	0.795	0	PA_without_intermediate	0,0,0,0,0,0,3,2,0	test	ward_and_allport	0,0,0,1,0,0,3,2,0	89.0	15.0	0.795	1,2,3,0,0,0,0,0,0	to_hand	s541
221.632	0.231	0	PA_without_intermediate	0,0,0,1,0,0,3,2,0	test	ward_and_allport	0,0,0,1,0,0,3,2,0	71.0	15.0	0.231	1,2,3,0,0,0,0,0,0	to_board	s541
221.87	1.0	0	PA_without_intermediate	n/a	test	ward_and_allport	n/a	-1.0	15.0	n/a	n/a	feedback	s541
222.87	1.0	0	PA_without_intermediate	n/a	test	ward_and_allport	n/a	-1.0	15.0	n/a	n/a	ITI	s541
223.873	5.364	1	PA_with_intermediate	1,2,0,0,0,0,0,0,0	test	ward_and_allport	1,0,0,0,0,0,2,3,0	89.0	16.0	5.364	1,2,3,0,0,0,0,0,0	to_hand	s541
229.239	0.28	0	PA_with_intermediate	1,2,0,3,0,0,0,0,0	test	ward_and_allport	1,0,0,0,0,0,2,3,0	71.0	16.0	0.28	1,2,3,0,0,0,0,0,0	to_board	s541
229.523	0.564	0	PA_with_intermediate	1,0,0,3,0,0,0,0,0	test	ward_and_allport	1,0,0,0,0,0,2,3,0	89.0	16.0	0.564	1,2,3,0,0,0,0,0,0	to_hand	s541
230.089	0.639	0	PA_with_intermediate	1,0,0,3,0,0,2,0,0	test	ward_and_allport	1,0,0,0,0,0,2,3,0	82.0	16.0	0.639	1,2,3,0,0,0,0,0,0	to_board	s541
230.731	0.433	0	PA_with_intermediate	1,0,0,0,0,0,2,0,0	test	ward_and_allport	1,0,0,0,0,0,2,3,0	71.0	16.0	0.433	1,2,3,0,0,0,0,0,0	to_hand	s541
231.165	0.326	0	PA_with_intermediate	1,0,0,0,0,0,2,3,0	test	ward_and_allport	1,0,0,0,0,0,2,3,0	82.0	16.0	0.326	1,2,3,0,0,0,0,0,0	to_board	s541
231.497	1.0	0	PA_with_intermediate	n/a	test	ward_and_allport	n/a	-1.0	16.0	n/a	n/a	feedback	s541
232.497	1.544	0	PA_with_intermediate	n/a	test	ward_and_allport	n/a	-1.0	16.0	n/a	n/a	ITI	s541
234.044	3.957	1	PA_without_intermediate	1,2,0,0,0,0,0,0,0	test	ward_and_allport	0,0,0,2,0,0,3,1,0	89.0	17.0	3.957	1,2,3,0,0,0,0,0,0	to_hand	s541
238.003	0.35	0	PA_without_intermediate	1,2,0,0,0,0,3,0,0	test	ward_and_allport	0,0,0,2,0,0,3,1,0	82.0	17.0	0.35	1,2,3,0,0,0,0,0,0	to_board	s541
238.358	0.578	0	PA_without_intermediate	1,0,0,0,0,0,3,0,0	test	ward_and_allport	0,0,0,2,0,0,3,1,0	89.0	17.0	0.578	1,2,3,0,0,0,0,0,0	to_hand	s541
238.937	0.243	0	PA_without_intermediate	1,0,0,2,0,0,3,0,0	test	ward_and_allport	0,0,0,2,0,0,3,1,0	71.0	17.0	0.243	1,2,3,0,0,0,0,0,0	to_board	s541
239.186	0.51	0	PA_without_intermediate	0,0,0,2,0,0,3,0,0	test	ward_and_allport	0,0,0,2,0,0,3,1,0	89.0	17.0	0.51	1,2,3,0,0,0,0,0,0	to_hand	s541
239.696	0.277	0	PA_without_intermediate	0,0,0,2,0,0,3,1,0	test	ward_and_allport	0,0,0,2,0,0,3,1,0	82.0	17.0	0.277	1,2,3,0,0,0,0,0,0	to_board	s541
239.982	1.0	0	PA_without_intermediate	n/a	test	ward_and_allport	n/a	-1.0	17.0	n/a	n/a	feedback	s541
240.982	1.272	0	PA_without_intermediate	n/a	test	ward_and_allport	n/a	-1.0	17.0	n/a	n/a	ITI	s541
242.259	7.342	1	PA_with_intermediate	0,0,0,1,2,0,0,0,0	test	ward_and_allport	2,0,0,1,3,0,0,0,0	71.0	18.0	7.342	0,0,0,1,2,3,0,0,0	to_hand	s541
249.602	0.327	0	PA_with_intermediate	0,0,0,1,2,0,3,0,0	test	ward_and_allport	2,0,0,1,3,0,0,0,0	82.0	18.0	0.327	0,0,0,1,2,3,0,0,0	to_board	s541
249.935	0.582	0	PA_with_intermediate	0,0,0,1,0,0,3,0,0	test	ward_and_allport	2,0,0,1,3,0,0,0,0	71.0	18.0	0.582	0,0,0,1,2,3,0,0,0	to_hand	s541
250.518	0.23	0	PA_with_intermediate	2,0,0,1,0,0,3,0,0	test	ward_and_allport	2,0,0,1,3,0,0,0,0	89.0	18.0	0.23	0,0,0,1,2,3,0,0,0	to_board	s541
250.752	0.746	0	PA_with_intermediate	2,0,0,1,0,0,0,0,0	test	ward_and_allport	2,0,0,1,3,0,0,0,0	82.0	18.0	0.746	0,0,0,1,2,3,0,0,0	to_hand	s541
251.5	0.338	0	PA_with_intermediate	2,0,0,1,3,0,0,0,0	test	ward_and_allport	2,0,0,1,3,0,0,0,0	71.0	18.0	0.338	0,0,0,1,2,3,0,0,0	to_board	s541
251.847	1.0	0	PA_with_intermediate	n/a	test	ward_and_allport	n/a	-1.0	18.0	n/a	n/a	feedback	s541
252.847	3.04	0	PA_with_intermediate	n/a	test	ward_and_allport	n/a	-1.0	18.0	n/a	n/a	ITI	s541
255.891	4.954	1	PA_with_intermediate	0,0,0,0,0,0,1,2,0	test	ward_and_allport	2,0,0,0,0,0,1,3,0	82.0	19.0	4.954	0,0,0,0,0,0,1,2,3	to_hand	s541
260.846	0.275	0	PA_with_intermediate	0,0,0,3,0,0,1,2,0	test	ward_and_allport	2,0,0,0,0,0,1,3,0	71.0	19.0	0.275	0,0,0,0,0,0,1,2,3	to_board	s541
261.126	1.168	0	PA_with_intermediate	0,0,0,3,0,0,1,0,0	test	ward_and_allport	2,0,0,0,0,0,1,3,0	82.0	19.0	1.168	0,0,0,0,0,0,1,2,3	to_hand	s541
262.295	0.261	0	PA_with_intermediate	2,0,0,3,0,0,1,0,0	test	ward_and_allport	2,0,0,0,0,0,1,3,0	89.0	19.0	0.261	0,0,0,0,0,0,1,2,3	to_board	s541
262.561	0.697	0	PA_with_intermediate	2,0,0,0,0,0,1,0,0	test	ward_and_allport	2,0,0,0,0,0,1,3,0	71.0	19.0	0.697	0,0,0,0,0,0,1,2,3	to_hand	s541
263.258	0.236	0	PA_with_intermediate	2,0,0,0,0,0,1,3,0	test	ward_and_allport	2,0,0,0,0,0,1,3,0	82.0	19.0	0.236	0,0,0,0,0,0,1,2,3	to_board	s541
263.503	1.0	0	PA_with_intermediate	n/a	test	ward_and_allport	n/a	-1.0	19.0	n/a	n/a	feedback	s541
264.503	1.272	0	PA_with_intermediate	n/a	test	ward_and_allport	n/a	-1.0	19.0	n/a	n/a	ITI	s541
265.78	4.526	1	PA_with_intermediate	0,0,0,1,2,0,0,0,0	test	ward_and_allport	0,0,0,1,3,0,2,0,0	71.0	20.0	4.526	0,0,0,1,2,3,0,0,0	to_hand	s541
270.306	0.238	0	PA_with_intermediate	3,0,0,1,2,0,0,0,0	test	ward_and_allport	0,0,0,1,3,0,2,0,0	89.0	20.0	0.238	0,0,0,1,2,3,0,0,0	to_board	s541
270.55	0.519	0	PA_with_intermediate	3,0,0,1,0,0,0,0,0	test	ward_and_allport	0,0,0,1,3,0,2,0,0	71.0	20.0	0.519	0,0,0,1,2,3,0,0,0	to_hand	s541
271.07	0.343	0	PA_with_intermediate	3,0,0,1,0,0,2,0,0	test	ward_and_allport	0,0,0,1,3,0,2,0,0	82.0	20.0	0.343	0,0,0,1,2,3,0,0,0	to_board	s541
271.417	0.529	0	PA_with_intermediate	0,0,0,1,0,0,2,0,0	test	ward_and_allport	0,0,0,1,3,0,2,0,0	89.0	20.0	0.529	0,0,0,1,2,3,0,0,0	to_hand	s541
271.948	0.209	0	PA_with_intermediate	0,0,0,1,3,0,2,0,0	test	ward_and_allport	0,0,0,1,3,0,2,0,0	71.0	20.0	0.209	0,0,0,1,2,3,0,0,0	to_board	s541
272.162	1.0	0	PA_with_intermediate	n/a	test	ward_and_allport	n/a	-1.0	20.0	n/a	n/a	feedback	s541
273.162	1.136	0	PA_with_intermediate	n/a	test	ward_and_allport	n/a	-1.0	20.0	n/a	n/a	ITI	s541
274.303	5.833	1	PA_with_intermediate	0,0,0,0,0,0,1,2,0	test	ward_and_allport	0,0,0,2,3,0,1,0,0	82.0	21.0	5.833	0,0,0,0,0,0,1,2,3	to_hand	s541
280.136	0.307	0	PA_with_intermediate	3,0,0,0,0,0,1,2,0	test	ward_and_allport	0,0,0,2,3,0,1,0,0	89.0	21.0	0.307	0,0,0,0,0,0,1,2,3	to_board	s541
280.449	0.875	0	PA_with_intermediate	3,0,0,0,0,0,1,0,0	test	ward_and_allport	0,0,0,2,3,0,1,0,0	82.0	21.0	0.875	0,0,0,0,0,0,1,2,3	to_hand	s541
281.325	0.308	0	PA_with_intermediate	3,0,0,2,0,0,1,0,0	test	ward_and_allport	0,0,0,2,3,0,1,0,0	71.0	21.0	0.308	0,0,0,0,0,0,1,2,3	to_board	s541
281.637	1.116	0	PA_with_intermediate	0,0,0,2,0,0,1,0,0	test	ward_and_allport	0,0,0,2,3,0,1,0,0	89.0	21.0	1.116	0,0,0,0,0,0,1,2,3	to_hand	s541
282.755	0.3	0	PA_with_intermediate	0,0,0,2,3,0,1,0,0	test	ward_and_allport	0,0,0,2,3,0,1,0,0	71.0	21.0	0.3	0,0,0,0,0,0,1,2,3	to_board	s541
283.061	1.0	0	PA_with_intermediate	n/a	test	ward_and_allport	n/a	-1.0	21.0	n/a	n/a	feedback	s541
284.061	1.0	0	PA_with_intermediate	n/a	test	ward_and_allport	n/a	-1.0	21.0	n/a	n/a	ITI	s541
285.066	5.169	1	PA_with_intermediate	0,0,0,1,2,0,0,0,0	test	ward_and_allport	0,0,0,1,0,0,2,3,0	71.0	22.0	5.169	0,0,0,1,2,3,0,0,0	to_hand	s541
290.236	0.289	0	PA_with_intermediate	3,0,0,1,2,0,0,0,0	test	ward_and_allport	0,0,0,1,0,0,2,3,0	89.0	22.0	0.289	0,0,0,1,2,3,0,0,0	to_board	s541
290.531	0.808	0	PA_with_intermediate	3,0,0,1,0,0,0,0,0	test	ward_and_allport	0,0,0,1,0,0,2,3,0	71.0	22.0	0.808	0,0,0,1,2,3,0,0,0	to_hand	s541
291.34	0.275	0	PA_with_intermediate	3,0,0,1,0,0,2,0,0	test	ward_and_allport	0,0,0,1,0,0,2,3,0	82.0	22.0	0.275	0,0,0,1,2,3,0,0,0	to_board	s541
291.62	0.756	0	PA_with_intermediate	0,0,0,1,0,0,2,0,0	test	ward_and_allport	0,0,0,1,0,0,2,3,0	89.0	22.0	0.756	0,0,0,1,2,3,0,0,0	to_hand	s541
292.378	0.241	0	PA_with_intermediate	0,0,0,1,0,0,2,3,0	test	ward_and_allport	0,0,0,1,0,0,2,3,0	82.0	22.0	0.241	0,0,0,1,2,3,0,0,0	to_board	s541
292.63	1.0	0	PA_with_intermediate	n/a	test	ward_and_allport	n/a	-1.0	22.0	n/a	n/a	feedback	s541
293.63	1.0	0	PA_with_intermediate	n/a	test	ward_and_allport	n/a	-1.0	22.0	n/a	n/a	ITI	s541
294.636	6.998	1	PA_without_intermediate	0,0,0,0,0,0,1,2,0	test	ward_and_allport	3,1,0,2,0,0,0,0,0	82.0	23.0	6.998	0,0,0,0,0,0,1,2,3	to_hand	s541
301.635	4.903	0	PA_without_intermediate	3,0,0,0,0,0,1,2,0	test	ward_and_allport	3,1,0,2,0,0,0,0,0	89.0	23.0	4.903	0,0,0,0,0,0,1,2,3	to_board	s541
306.544	1.424	0	PA_without_intermediate	3,0,0,0,0,0,1,0,0	test	ward_and_allport	3,1,0,2,0,0,0,0,0	82.0	23.0	1.424	0,0,0,0,0,0,1,2,3	to_hand	s541
307.969	0.413	0	PA_without_intermediate	3,0,0,2,0,0,1,0,0	test	ward_and_allport	3,1,0,2,0,0,0,0,0	71.0	23.0	0.413	0,0,0,0,0,0,1,2,3	to_board	s541
308.39	1.754	0	PA_without_intermediate	3,0,0,2,0,0,0,0,0	test	ward_and_allport	3,1,0,2,0,0,0,0,0	82.0	23.0	1.754	0,0,0,0,0,0,1,2,3	to_hand	s541
310.146	0.285	0	PA_without_intermediate	3,1,0,2,0,0,0,0,0	test	ward_and_allport	3,1,0,2,0,0,0,0,0	89.0	23.0	0.285	0,0,0,0,0,0,1,2,3	to_board	s541
310.44	1.0	0	PA_without_intermediate	n/a	test	ward_and_allport	n/a	-1.0	23.0	n/a	n/a	feedback	s541
311.44	1.408	0	PA_without_intermediate	n/a	test	ward_and_allport	n/a	-1.0	23.0	n/a	n/a	ITI	s541
312.854	5.031	1	PA_with_intermediate	0,0,0,0,0,0,1,2,0	test	ward_and_allport	2,0,0,0,0,0,1,3,0	82.0	24.0	5.031	0,0,0,0,0,0,1,2,3	to_hand	s541
317.886	0.303	0	PA_with_intermediate	0,0,0,3,0,0,1,2,0	test	ward_and_allport	2,0,0,0,0,0,1,3,0	71.0	24.0	0.303	0,0,0,0,0,0,1,2,3	to_board	s541
318.196	0.943	0	PA_with_intermediate	0,0,0,3,0,0,1,0,0	test	ward_and_allport	2,0,0,0,0,0,1,3,0	82.0	24.0	0.943	0,0,0,0,0,0,1,2,3	to_hand	s541
319.14	0.31	0	PA_with_intermediate	2,0,0,3,0,0,1,0,0	test	ward_and_allport	2,0,0,0,0,0,1,3,0	89.0	24.0	0.31	0,0,0,0,0,0,1,2,3	to_board	s541
319.456	1.068	0	PA_with_intermediate	2,0,0,0,0,0,1,0,0	test	ward_and_allport	2,0,0,0,0,0,1,3,0	71.0	24.0	1.068	0,0,0,0,0,0,1,2,3	to_hand	s541
320.525	0.242	0	PA_with_intermediate	2,0,0,0,0,0,1,3,0	test	ward_and_allport	2,0,0,0,0,0,1,3,0	82.0	24.0	0.242	0,0,0,0,0,0,1,2,3	to_board	s541
320.777	1.0	0	PA_with_intermediate	n/a	test	ward_and_allport	n/a	-1.0	24.0	n/a	n/a	feedback	s541
321.777	2.768	0	PA_with_intermediate	n/a	test	ward_and_allport	n/a	-1.0	24.0	n/a	n/a	ITI	s541
324.552	3.771	1	PA_with_intermediate	1,2,0,0,0,0,0,0,0	test	ward_and_allport	1,0,0,2,3,0,0,0,0	89.0	25.0	3.771	1,2,3,0,0,0,0,0,0	to_hand	s541
328.323	0.351	0	PA_with_intermediate	1,2,0,0,0,0,3,0,0	test	ward_and_allport	1,0,0,2,3,0,0,0,0	82.0	25.0	0.351	1,2,3,0,0,0,0,0,0	to_board	s541
328.681	1.386	0	PA_with_intermediate	1,0,0,0,0,0,3,0,0	test	ward_and_allport	1,0,0,2,3,0,0,0,0	89.0	25.0	1.386	1,2,3,0,0,0,0,0,0	to_hand	s541
330.067	0.228	0	PA_with_intermediate	1,0,0,2,0,0,3,0,0	test	ward_and_allport	1,0,0,2,3,0,0,0,0	71.0	25.0	0.228	1,2,3,0,0,0,0,0,0	to_board	s541
330.302	0.832	0	PA_with_intermediate	1,0,0,2,0,0,0,0,0	test	ward_and_allport	1,0,0,2,3,0,0,0,0	82.0	25.0	0.832	1,2,3,0,0,0,0,0,0	to_hand	s541
331.135	0.198	0	PA_with_intermediate	1,0,0,2,3,0,0,0,0	test	ward_and_allport	1,0,0,2,3,0,0,0,0	71.0	25.0	0.198	1,2,3,0,0,0,0,0,0	to_board	s541
331.343	1.0	0	PA_with_intermediate	n/a	test	ward_and_allport	n/a	-1.0	25.0	n/a	n/a	feedback	s541
332.343	1.68	0	PA_with_intermediate	n/a	test	ward_and_allport	n/a	-1.0	25.0	n/a	n/a	ITI	s541
334.029	4.042	1	PA_without_intermediate	0,0,0,0,0,0,1,2,0	test	ward_and_allport	1,0,0,3,2,0,0,0,0	82.0	26.0	4.042	0,0,0,0,0,0,1,2,3	to_hand	s541
338.072	0.312	0	PA_without_intermediate	0,0,0,3,0,0,1,2,0	test	ward_and_allport	1,0,0,3,2,0,0,0,0	71.0	26.0	0.312	0,0,0,0,0,0,1,2,3	to_board	s541
338.39	0.321	0	PA_without_intermediate	0,0,0,3,0,0,1,0,0	test	ward_and_allport	1,0,0,3,2,0,0,0,0	82.0	26.0	0.321	0,0,0,0,0,0,1,2,3	to_hand	s541
338.713	0.312	0	PA_without_intermediate	0,0,0,3,2,0,1,0,0	test	ward_and_allport	1,0,0,3,2,0,0,0,0	71.0	26.0	0.312	0,0,0,0,0,0,1,2,3	to_board	s541
339.031	0.753	0	PA_without_intermediate	0,0,0,3,2,0,0,0,0	test	ward_and_allport	1,0,0,3,2,0,0,0,0	82.0	26.0	0.753	0,0,0,0,0,0,1,2,3	to_hand	s541
339.785	0.267	0	PA_without_intermediate	1,0,0,3,2,0,0,0,0	test	ward_and_allport	1,0,0,3,2,0,0,0,0	89.0	26.0	0.267	0,0,0,0,0,0,1,2,3	to_board	s541
340.063	1.0	0	PA_without_intermediate	n/a	test	ward_and_allport	n/a	-1.0	26.0	n/a	n/a	feedback	s541
341.063	2.224	0	PA_without_intermediate	n/a	test	ward_and_allport	n/a	-1.0	26.0	n/a	n/a	ITI	s541
343.296	3.702	1	PA_without_intermediate	0,0,0,0,0,0,1,2,0	test	ward_and_allport	2,0,0,3,1,0,0,0,0	82.0	27.0	3.702	0,0,0,0,0,0,1,2,3	to_hand	s541
346.998	0.307	0	PA_without_intermediate	0,0,0,3,0,0,1,2,0	test	ward_and_allport	2,0,0,3,1,0,0,0,0	71.0	27.0	0.307	0,0,0,0,0,0,1,2,3	to_board	s541
347.312	0.336	0	PA_without_intermediate	0,0,0,3,0,0,1,0,0	test	ward_and_allport	2,0,0,3,1,0,0,0,0	82.0	27.0	0.336	0,0,0,0,0,0,1,2,3	to_hand	s541
347.649	0.336	0	PA_without_intermediate	2,0,0,3,0,0,1,0,0	test	ward_and_allport	2,0,0,3,1,0,0,0,0	89.0	27.0	0.336	0,0,0,0,0,0,1,2,3	to_board	s541
347.992	0.501	0	PA_without_intermediate	2,0,0,3,0,0,0,0,0	test	ward_and_allport	2,0,0,3,1,0,0,0,0	82.0	27.0	0.501	0,0,0,0,0,0,1,2,3	to_hand	s541
348.494	0.365	0	PA_without_intermediate	2,0,0,3,1,0,0,0,0	test	ward_and_allport	2,0,0,3,1,0,0,0,0	71.0	27.0	0.365	0,0,0,0,0,0,1,2,3	to_board	s541
348.866	1.0	0	PA_without_intermediate	n/a	test	ward_and_allport	n/a	-1.0	27.0	n/a	n/a	feedback	s541
349.866	2.36	0	PA_without_intermediate	n/a	test	ward_and_allport	n/a	-1.0	27.0	n/a	n/a	ITI	s541
352.234	5.541	1	PA_without_intermediate	1,2,0,0,0,0,0,0,0	test	ward_and_allport	0,0,0,3,2,0,1,0,0	89.0	28.0	5.541	1,2,3,0,0,0,0,0,0	to_hand	s541
357.775	0.292	0	PA_without_intermediate	1,2,0,3,0,0,0,0,0	test	ward_and_allport	0,0,0,3,2,0,1,0,0	71.0	28.0	0.292	1,2,3,0,0,0,0,0,0	to_board	s541
358.075	0.324	0	PA_without_intermediate	1,0,0,3,0,0,0,0,0	test	ward_and_allport	0,0,0,3,2,0,1,0,0	89.0	28.0	0.324	1,2,3,0,0,0,0,0,0	to_hand	s541
358.4	0.31	0	PA_without_intermediate	1,0,0,3,2,0,0,0,0	test	ward_and_allport	0,0,0,3,2,0,1,0,0	71.0	28.0	0.31	1,2,3,0,0,0,0,0,0	to_board	s541
358.717	0.361	0	PA_without_intermediate	0,0,0,3,2,0,0,0,0	test	ward_and_allport	0,0,0,3,2,0,1,0,0	89.0	28.0	0.361	1,2,3,0,0,0,0,0,0	to_hand	s541
359.078	0.27	0	PA_without_intermediate	0,0,0,3,2,0,1,0,0	test	ward_and_allport	0,0,0,3,2,0,1,0,0	82.0	28.0	0.27	1,2,3,0,0,0,0,0,0	to_board	s541
359.36	1.0	0	PA_without_intermediate	n/a	test	ward_and_allport	n/a	-1.0	28.0	n/a	n/a	feedback	s541
360.36	1.0	0	PA_without_intermediate	n/a	test	ward_and_allport	n/a	-1.0	28.0	n/a	n/a	ITI	s541
361.367	5.45	1	PA_without_intermediate	0,0,0,0,0,0,1,2,0	test	ward_and_allport	1,0,0,3,2,0,0,0,0	82.0	29.0	5.45	0,0,0,0,0,0,1,2,3	to_hand	s541
366.818	0.274	0	PA_without_intermediate	0,0,0,3,0,0,1,2,0	test	ward_and_allport	1,0,0,3,2,0,0,0,0	71.0	29.0	0.274	0,0,0,0,0,0,1,2,3	to_board	s541
367.1	0.35	0	PA_without_intermediate	0,0,0,3,0,0,1,0,0	test	ward_and_allport	1,0,0,3,2,0,0,0,0	82.0	29.0	0.35	0,0,0,0,0,0,1,2,3	to_hand	s541
367.452	0.295	0	PA_without_intermediate	0,0,0,3,2,0,1,0,0	test	ward_and_allport	1,0,0,3,2,0,0,0,0	71.0	29.0	0.295	0,0,0,0,0,0,1,2,3	to_board	s541
367.753	0.321	0	PA_without_intermediate	0,0,0,3,2,0,0,0,0	test	ward_and_allport	1,0,0,3,2,0,0,0,0	82.0	29.0	0.321	0,0,0,0,0,0,1,2,3	to_hand	s541
368.076	0.27	0	PA_without_intermediate	1,0,0,3,2,0,0,0,0	test	ward_and_allport	1,0,0,3,2,0,0,0,0	89.0	29.0	0.27	0,0,0,0,0,0,1,2,3	to_board	s541
368.358	1.0	0	PA_without_intermediate	n/a	test	ward_and_allport	n/a	-1.0	29.0	n/a	n/a	feedback	s541
369.358	1.408	0	PA_without_intermediate	n/a	test	ward_and_allport	n/a	-1.0	29.0	n/a	n/a	ITI	s541
375.779	6.149	1	PA_with_intermediate	0,0,0,0,0,0,1,2,0	test	ward_and_allport	2,3,0,0,0,0,1,0,0	82.0	30.0	6.149	0,0,0,0,0,0,1,2,3	to_hand	s541
381.93	0.337	0	PA_with_intermediate	3,0,0,0,0,0,1,2,0	test	ward_and_allport	2,3,0,0,0,0,1,0,0	89.0	30.0	0.337	0,0,0,0,0,0,1,2,3	to_board	s541
382.274	0.305	0	PA_with_intermediate	3,0,0,0,0,0,1,0,0	test	ward_and_allport	2,3,0,0,0,0,1,0,0	82.0	30.0	0.305	0,0,0,0,0,0,1,2,3	to_hand	s541
382.579	0.412	0	PA_with_intermediate	3,2,0,0,0,0,1,0,0	test	ward_and_allport	2,3,0,0,0,0,1,0,0	89.0	30.0	0.412	0,0,0,0,0,0,1,2,3	to_board	s541
382.998	2.343	0	PA_with_intermediate	3,0,0,0,0,0,1,0,0	test	ward_and_allport	2,3,0,0,0,0,1,0,0	89.0	30.0	2.343	0,0,0,0,0,0,1,2,3	to_hand	s541
385.343	0.684	0	PA_with_intermediate	3,0,0,2,0,0,1,0,0	test	ward_and_allport	2,3,0,0,0,0,1,0,0	71.0	30.0	0.684	0,0,0,0,0,0,1,2,3	to_board	s541
386.035	2.5	0	PA_with_intermediate	0,0,0,2,0,0,1,0,0	test	ward_and_allport	2,3,0,0,0,0,1,0,0	89.0	30.0	2.5	0,0,0,0,0,0,1,2,3	to_hand	s541
388.536	0.315	0	PA_with_intermediate	0,0,0,2,0,0,1,3,0	test	ward_and_allport	2,3,0,0,0,0,1,0,0	82.0	30.0	0.315	0,0,0,0,0,0,1,2,3	to_board	s541
388.859	0.961	0	PA_with_intermediate	0,0,0,0,0,0,1,3,0	test	ward_and_allport	2,3,0,0,0,0,1,0,0	71.0	30.0	0.961	0,0,0,0,0,0,1,2,3	to_hand	s541
389.822	0.245	0	PA_with_intermediate	2,0,0,0,0,0,1,3,0	test	ward_and_allport	2,3,0,0,0,0,1,0,0	89.0	30.0	0.245	0,0,0,0,0,0,1,2,3	to_board	s541
390.076	0.774	0	PA_with_intermediate	2,0,0,0,0,0,1,0,0	test	ward_and_allport	2,3,0,0,0,0,1,0,0	82.0	30.0	0.774	0,0,0,0,0,0,1,2,3	to_hand	s541
390.85	0.214	0	PA_with_intermediate	2,3,0,0,0,0,1,0,0	test	ward_and_allport	2,3,0,0,0,0,1,0,0	89.0	30.0	0.214	0,0,0,0,0,0,1,2,3	to_board	s541
391.073	1.0	0	PA_with_intermediate	n/a	test	ward_and_allport	n/a	-1.0	30.0	n/a	n/a	feedback	s541
392.073	1.136	0	PA_with_intermediate	n/a	test	ward_and_allport	n/a	-1.0	30.0	n/a	n/a	ITI	s541
393.216	4.503	1	PA_without_intermediate	0,0,0,0,0,0,1,2,0	test	ward_and_allport	3,1,0,2,0,0,0,0,0	82.0	31.0	4.503	0,0,0,0,0,0,1,2,3	to_hand	s541
397.72	0.312	0	PA_without_intermediate	3,0,0,0,0,0,1,2,0	test	ward_and_allport	3,1,0,2,0,0,0,0,0	89.0	31.0	0.312	0,0,0,0,0,0,1,2,3	to_board	s541
398.041	0.579	0	PA_without_intermediate	3,0,0,0,0,0,1,0,0	test	ward_and_allport	3,1,0,2,0,0,0,0,0	82.0	31.0	0.579	0,0,0,0,0,0,1,2,3	to_hand	s541
398.62	0.26	0	PA_without_intermediate	3,0,0,2,0,0,1,0,0	test	ward_and_allport	3,1,0,2,0,0,0,0,0	71.0	31.0	0.26	0,0,0,0,0,0,1,2,3	to_board	s541
398.888	0.666	0	PA_without_intermediate	3,0,0,2,0,0,0,0,0	test	ward_and_allport	3,1,0,2,0,0,0,0,0	82.0	31.0	0.666	0,0,0,0,0,0,1,2,3	to_hand	s541
399.555	0.236	0	PA_without_intermediate	3,1,0,2,0,0,0,0,0	test	ward_and_allport	3,1,0,2,0,0,0,0,0	89.0	31.0	0.236	0,0,0,0,0,0,1,2,3	to_board	s541
399.803	1.0	0	PA_without_intermediate	n/a	test	ward_and_allport	n/a	-1.0	31.0	n/a	n/a	feedback	s541
400.803	4.128	0	PA_without_intermediate	n/a	test	ward_and_allport	n/a	-1.0	31.0	n/a	n/a	ITI	s541
404.94	6.446	1	PA_without_intermediate	0,0,0,1,2,0,0,0,0	test	ward_and_allport	1,0,0,0,0,0,3,2,0	71.0	32.0	6.446	0,0,0,1,2,3,0,0,0	to_hand	s541
411.387	0.306	0	PA_without_intermediate	0,0,0,1,2,0,3,0,0	test	ward_and_allport	1,0,0,0,0,0,3,2,0	82.0	32.0	0.306	0,0,0,1,2,3,0,0,0	to_board	s541
411.701	1.026	0	PA_without_intermediate	0,0,0,1,0,0,3,0,0	test	ward_and_allport	1,0,0,0,0,0,3,2,0	71.0	32.0	1.026	0,0,0,1,2,3,0,0,0	to_hand	s541
412.728	0.272	0	PA_without_intermediate	0,0,0,1,0,0,3,2,0	test	ward_and_allport	1,0,0,0,0,0,3,2,0	82.0	32.0	0.272	0,0,0,1,2,3,0,0,0	to_board	s541
413.009	0.674	0	PA_without_intermediate	0,0,0,0,0,0,3,2,0	test	ward_and_allport	1,0,0,0,0,0,3,2,0	71.0	32.0	0.674	0,0,0,1,2,3,0,0,0	to_hand	s541
413.683	0.205	0	PA_without_intermediate	1,0,0,0,0,0,3,2,0	test	ward_and_allport	1,0,0,0,0,0,3,2,0	89.0	32.0	0.205	0,0,0,1,2,3,0,0,0	to_board	s541
413.901	1.0	0	PA_without_intermediate	n/a	test	ward_and_allport	n/a	-1.0	32.0	n/a	n/a	feedback	s541
414.901	1.136	0	PA_without_intermediate	n/a	test	ward_and_allport	n/a	-1.0	32.0	n/a	n/a	ITI	s541
416.044	4.239	1	PA_without_intermediate	0,0,0,0,0,0,1,2,0	test	ward_and_allport	3,2,0,1,0,0,0,0,0	82.0	33.0	4.239	0,0,0,0,0,0,1,2,3	to_hand	s541
420.285	0.301	0	PA_without_intermediate	3,0,0,0,0,0,1,2,0	test	ward_and_allport	3,2,0,1,0,0,0,0,0	89.0	33.0	0.301	0,0,0,0,0,0,1,2,3	to_board	s541
420.594	0.319	0	PA_without_intermediate	3,0,0,0,0,0,1,0,0	test	ward_and_allport	3,2,0,1,0,0,0,0,0	82.0	33.0	0.319	0,0,0,0,0,0,1,2,3	to_hand	s541
420.913	0.379	0	PA_without_intermediate	3,2,0,0,0,0,1,0,0	test	ward_and_allport	3,2,0,1,0,0,0,0,0	89.0	33.0	0.379	0,0,0,0,0,0,1,2,3	to_board	s541
421.302	0.373	0	PA_without_intermediate	3,2,0,0,0,0,0,0,0	test	ward_and_allport	3,2,0,1,0,0,0,0,0	82.0	33.0	0.373	0,0,0,0,0,0,1,2,3	to_hand	s541
421.676	0.307	0	PA_without_intermediate	3,2,0,1,0,0,0,0,0	test	ward_and_allport	3,2,0,1,0,0,0,0,0	71.0	33.0	0.307	0,0,0,0,0,0,1,2,3	to_board	s541
421.994	1.0	0	PA_without_intermediate	n/a	test	ward_and_allport	n/a	-1.0	33.0	n/a	n/a	feedback	s541
422.994	4.264	0	PA_without_intermediate	n/a	test	ward_and_allport	n/a	-1.0	33.0	n/a	n/a	ITI	s541
427.266	4.697	1	PA_with_intermediate	0,0,0,0,0,0,1,2,0	test	ward_and_allport	0,0,0,2,0,0,1,3,0	82.0	34.0	4.697	0,0,0,0,0,0,1,2,3	to_hand	s541
431.964	0.317	0	PA_with_intermediate	3,0,0,0,0,0,1,2,0	test	ward_and_allport	0,0,0,2,0,0,1,3,0	89.0	34.0	0.317	0,0,0,0,0,0,1,2,3	to_board	s541
432.29	0.917	0	PA_with_intermediate	3,0,0,0,0,0,1,0,0	test	ward_and_allport	0,0,0,2,0,0,1,3,0	82.0	34.0	0.917	0,0,0,0,0,0,1,2,3	to_hand	s541
433.208	0.271	0	PA_with_intermediate	3,0,0,2,0,0,1,0,0	test	ward_and_allport	0,0,0,2,0,0,1,3,0	71.0	34.0	0.271	0,0,0,0,0,0,1,2,3	to_board	s541
433.488	0.287	0	PA_with_intermediate	0,0,0,2,0,0,1,0,0	test	ward_and_allport	0,0,0,2,0,0,1,3,0	89.0	34.0	0.287	0,0,0,0,0,0,1,2,3	to_hand	s541
433.777	0.305	0	PA_with_intermediate	0,0,0,2,0,0,1,3,0	test	ward_and_allport	0,0,0,2,0,0,1,3,0	82.0	34.0	0.305	0,0,0,0,0,0,1,2,3	to_board	s541
434.094	1.0	0	PA_with_intermediate	n/a	test	ward_and_allport	n/a	-1.0	34.0	n/a	n/a	feedback	s541
435.094	3.04	0	PA_with_intermediate	n/a	test	ward_and_allport	n/a	-1.0	34.0	n/a	n/a	ITI	s541
438.142	6.003	1	PA_with_intermediate	0,0,0,1,2,0,0,0,0	test	ward_and_allport	2,3,0,1,0,0,0,0,0	71.0	35.0	6.003	0,0,0,1,2,3,0,0,0	to_hand	s541
444.147	0.33	0	PA_with_intermediate	0,0,0,1,2,0,3,0,0	test	ward_and_allport	2,3,0,1,0,0,0,0,0	82.0	35.0	0.33	0,0,0,1,2,3,0,0,0	to_board	s541
444.486	0.314	0	PA_with_intermediate	0,0,0,1,0,0,3,0,0	test	ward_and_allport	2,3,0,1,0,0,0,0,0	71.0	35.0	0.314	0,0,0,1,2,3,0,0,0	to_hand	s541
444.801	0.352	0	PA_with_intermediate	2,0,0,1,0,0,3,0,0	test	ward_and_allport	2,3,0,1,0,0,0,0,0	89.0	35.0	0.352	0,0,0,1,2,3,0,0,0	to_board	s541
445.163	0.3	0	PA_with_intermediate	2,0,0,1,0,0,0,0,0	test	ward_and_allport	2,3,0,1,0,0,0,0,0	82.0	35.0	0.3	0,0,0,1,2,3,0,0,0	to_hand	s541
445.464	0.317	0	PA_with_intermediate	2,3,0,1,0,0,0,0,0	test	ward_and_allport	2,3,0,1,0,0,0,0,0	89.0	35.0	0.317	0,0,0,1,2,3,0,0,0	to_board	s541
445.795	1.0	0	PA_with_intermediate	n/a	test	ward_and_allport	n/a	-1.0	35.0	n/a	n/a	feedback	s541
446.795	1.136	0	PA_with_intermediate	n/a	test	ward_and_allport	n/a	-1.0	35.0	n/a	n/a	ITI	s541
447.94	3.948	1	PA_with_intermediate	0,0,0,1,2,0,0,0,0	test	ward_and_allport	2,3,0,1,0,0,0,0,0	71.0	36.0	3.948	0,0,0,1,2,3,0,0,0	to_hand	s541
451.888	0.319	0	PA_with_intermediate	0,0,0,1,2,0,3,0,0	test	ward_and_allport	2,3,0,1,0,0,0,0,0	82.0	36.0	0.319	0,0,0,1,2,3,0,0,0	to_board	s541
452.217	0.315	0	PA_with_intermediate	0,0,0,1,0,0,3,0,0	test	ward_and_allport	2,3,0,1,0,0,0,0,0	71.0	36.0	0.315	0,0,0,1,2,3,0,0,0	to_hand	s541
452.532	0.324	0	PA_with_intermediate	2,0,0,1,0,0,3,0,0	test	ward_and_allport	2,3,0,1,0,0,0,0,0	89.0	36.0	0.324	0,0,0,1,2,3,0,0,0	to_board	s541
452.866	0.319	0	PA_with_intermediate	2,0,0,1,0,0,0,0,0	test	ward_and_allport	2,3,0,1,0,0,0,0,0	82.0	36.0	0.319	0,0,0,1,2,3,0,0,0	to_hand	s541
453.186	0.315	0	PA_with_intermediate	2,3,0,1,0,0,0,0,0	test	ward_and_allport	2,3,0,1,0,0,0,0,0	89.0	36.0	0.315	0,0,0,1,2,3,0,0,0	to_board	s541
453.511	1.0	0	PA_with_intermediate	n/a	test	ward_and_allport	n/a	-1.0	36.0	n/a	n/a	feedback	s541
454.511	1.408	0	PA_with_intermediate	n/a	test	ward_and_allport	n/a	-1.0	36.0	n/a	n/a	ITI	s541
455.926	6.79	1	PA_without_intermediate	1,2,0,0,0,0,0,0,0	test	ward_and_allport	0,0,0,3,1,0,2,0,0	89.0	37.0	6.79	1,2,3,0,0,0,0,0,0	to_hand	s541
462.717	0.257	0	PA_without_intermediate	1,2,0,3,0,0,0,0,0	test	ward_and_allport	0,0,0,3,1,0,2,0,0	71.0	37.0	0.257	1,2,3,0,0,0,0,0,0	to_board	s541
462.98	0.974	0	PA_without_intermediate	1,0,0,3,0,0,0,0,0	test	ward_and_allport	0,0,0,3,1,0,2,0,0	89.0	37.0	0.974	1,2,3,0,0,0,0,0,0	to_hand	s541
463.955	0.252	0	PA_without_intermediate	1,0,0,3,0,0,2,0,0	test	ward_and_allport	0,0,0,3,1,0,2,0,0	82.0	37.0	0.252	1,2,3,0,0,0,0,0,0	to_board	s541
464.216	1.144	0	PA_without_intermediate	0,0,0,3,0,0,2,0,0	test	ward_and_allport	0,0,0,3,1,0,2,0,0	89.0	37.0	1.144	1,2,3,0,0,0,0,0,0	to_hand	s541
465.361	0.201	0	PA_without_intermediate	0,0,0,3,1,0,2,0,0	test	ward_and_allport	0,0,0,3,1,0,2,0,0	71.0	37.0	0.201	1,2,3,0,0,0,0,0,0	to_board	s541
465.572	1.0	0	PA_without_intermediate	n/a	test	ward_and_allport	n/a	-1.0	37.0	n/a	n/a	feedback	s541
466.572	1.68	0	PA_without_intermediate	n/a	test	ward_and_allport	n/a	-1.0	37.0	n/a	n/a	ITI	s541
468.261	3.933	1	PA_with_intermediate	0,0,0,1,2,0,0,0,0	test	ward_and_allport	2,0,0,1,3,0,0,0,0	71.0	38.0	3.933	0,0,0,1,2,3,0,0,0	to_hand	s541
472.195	0.373	0	PA_with_intermediate	0,0,0,1,2,0,3,0,0	test	ward_and_allport	2,0,0,1,3,0,0,0,0	82.0	38.0	0.373	0,0,0,1,2,3,0,0,0	to_board	s541
472.575	0.289	0	PA_with_intermediate	0,0,0,1,0,0,3,0,0	test	ward_and_allport	2,0,0,1,3,0,0,0,0	71.0	38.0	0.289	0,0,0,1,2,3,0,0,0	to_hand	s541
472.864	0.317	0	PA_with_intermediate	2,0,0,1,0,0,3,0,0	test	ward_and_allport	2,0,0,1,3,0,0,0,0	89.0	38.0	0.317	0,0,0,1,2,3,0,0,0	to_board	s541
473.19	0.328	0	PA_with_intermediate	2,0,0,1,0,0,0,0,0	test	ward_and_allport	2,0,0,1,3,0,0,0,0	82.0	38.0	0.328	0,0,0,1,2,3,0,0,0	to_hand	s541
473.519	0.251	0	PA_with_intermediate	2,0,0,1,3,0,0,0,0	test	ward_and_allport	2,0,0,1,3,0,0,0,0	71.0	38.0	0.251	0,0,0,1,2,3,0,0,0	to_board	s541
473.783	1.0	0	PA_with_intermediate	n/a	test	ward_and_allport	n/a	-1.0	38.0	n/a	n/a	feedback	s541
474.783	3.72	0	PA_with_intermediate	n/a	test	ward_and_allport	n/a	-1.0	38.0	n/a	n/a	ITI	s541
478.511	7.505	1	PA_without_intermediate	1,2,0,0,0,0,0,0,0	test	ward_and_allport	0,0,0,3,2,0,1,0,0	89.0	39.0	7.505	1,2,3,0,0,0,0,0,0	to_hand	s541
486.018	0.303	0	PA_without_intermediate	1,2,0,3,0,0,0,0,0	test	ward_and_allport	0,0,0,3,2,0,1,0,0	71.0	39.0	0.303	1,2,3,0,0,0,0,0,0	to_board	s541
486.33	0.287	0	PA_without_intermediate	1,0,0,3,0,0,0,0,0	test	ward_and_allport	0,0,0,3,2,0,1,0,0	89.0	39.0	0.287	1,2,3,0,0,0,0,0,0	to_hand	s541
486.619	0.302	0	PA_without_intermediate	1,0,0,3,2,0,0,0,0	test	ward_and_allport	0,0,0,3,2,0,1,0,0	71.0	39.0	0.302	1,2,3,0,0,0,0,0,0	to_board	s541
486.93	0.336	0	PA_without_intermediate	0,0,0,3,2,0,0,0,0	test	ward_and_allport	0,0,0,3,2,0,1,0,0	89.0	39.0	0.336	1,2,3,0,0,0,0,0,0	to_hand	s541
487.267	0.293	0	PA_without_intermediate	0,0,0,3,2,0,1,0,0	test	ward_and_allport	0,0,0,3,2,0,1,0,0	82.0	39.0	0.293	1,2,3,0,0,0,0,0,0	to_board	s541
487.573	1.0	0	PA_without_intermediate	n/a	test	ward_and_allport	n/a	-1.0	39.0	n/a	n/a	feedback	s541
488.573	2.224	0	PA_without_intermediate	n/a	test	ward_and_allport	n/a	-1.0	39.0	n/a	n/a	ITI	s541
490.807	6.099	1	PA_without_intermediate	0,0,0,0,0,0,1,2,0	test	ward_and_allport	2,0,0,3,1,0,0,0,0	82.0	40.0	6.099	0,0,0,0,0,0,1,2,3	to_hand	s541
496.908	0.346	0	PA_without_intermediate	0,0,0,3,0,0,1,2,0	test	ward_and_allport	2,0,0,3,1,0,0,0,0	71.0	40.0	0.346	0,0,0,0,0,0,1,2,3	to_board	s541
497.262	0.345	0	PA_without_intermediate	0,0,0,3,0,0,1,0,0	test	ward_and_allport	2,0,0,3,1,0,0,0,0	82.0	40.0	0.345	0,0,0,0,0,0,1,2,3	to_hand	s541
497.609	0.328	0	PA_without_intermediate	2,0,0,3,0,0,1,0,0	test	ward_and_allport	2,0,0,3,1,0,0,0,0	89.0	40.0	0.328	0,0,0,0,0,0,1,2,3	to_board	s541
497.947	0.338	0	PA_without_intermediate	2,0,0,3,0,0,0,0,0	test	ward_and_allport	2,0,0,3,1,0,0,0,0	82.0	40.0	0.338	0,0,0,0,0,0,1,2,3	to_hand	s541
498.285	0.321	0	PA_without_intermediate	2,0,0,3,1,0,0,0,0	test	ward_and_allport	2,0,0,3,1,0,0,0,0	71.0	40.0	0.321	0,0,0,0,0,0,1,2,3	to_board	s541
498.621	1.0	0	PA_without_intermediate	n/a	test	ward_and_allport	n/a	-1.0	40.0	n/a	n/a	feedback	s541
499.621	1.272	0	PA_without_intermediate	n/a	test	ward_and_allport	n/a	-1.0	40.0	n/a	n/a	ITI	s541
500.901	5.109	1	PA_with_intermediate	0,0,0,1,2,0,0,0,0	test	ward_and_allport	0,0,0,1,3,0,2,0,0	71.0	41.0	5.109	0,0,0,1,2,3,0,0,0	to_hand	s541
506.012	0.295	0	PA_with_intermediate	3,0,0,1,2,0,0,0,0	test	ward_and_allport	0,0,0,1,3,0,2,0,0	89.0	41.0	0.295	0,0,0,1,2,3,0,0,0	to_board	s541
506.314	0.304	0	PA_with_intermediate	3,0,0,1,0,0,0,0,0	test	ward_and_allport	0,0,0,1,3,0,2,0,0	71.0	41.0	0.304	0,0,0,1,2,3,0,0,0	to_hand	s541
506.619	0.343	0	PA_with_intermediate	3,0,0,1,0,0,2,0,0	test	ward_and_allport	0,0,0,1,3,0,2,0,0	82.0	41.0	0.343	0,0,0,1,2,3,0,0,0	to_board	s541
506.971	0.38	0	PA_with_intermediate	0,0,0,1,0,0,2,0,0	test	ward_and_allport	0,0,0,1,3,0,2,0,0	89.0	41.0	0.38	0,0,0,1,2,3,0,0,0	to_hand	s541
507.351	0.349	0	PA_with_intermediate	0,0,0,1,3,0,2,0,0	test	ward_and_allport	0,0,0,1,3,0,2,0,0	71.0	41.0	0.349	0,0,0,1,2,3,0,0,0	to_board	s541
507.715	1.0	0	PA_with_intermediate	n/a	test	ward_and_allport	n/a	-1.0	41.0	n/a	n/a	feedback	s541
508.715	2.632	0	PA_with_intermediate	n/a	test	ward_and_allport	n/a	-1.0	41.0	n/a	n/a	ITI	s541
511.357	5.49	1	PA_without_intermediate	0,0,0,0,0,0,1,2,0	test	ward_and_allport	3,2,0,1,0,0,0,0,0	82.0	42.0	5.49	0,0,0,0,0,0,1,2,3	to_hand	s541
516.848	0.365	0	PA_without_intermediate	3,0,0,0,0,0,1,2,0	test	ward_and_allport	3,2,0,1,0,0,0,0,0	89.0	42.0	0.365	0,0,0,0,0,0,1,2,3	to_board	s541
517.221	0.386	0	PA_without_intermediate	3,0,0,0,0,0,1,0,0	test	ward_and_allport	3,2,0,1,0,0,0,0,0	82.0	42.0	0.386	0,0,0,0,0,0,1,2,3	to_hand	s541
517.608	0.426	0	PA_without_intermediate	3,2,0,0,0,0,1,0,0	test	ward_and_allport	3,2,0,1,0,0,0,0,0	89.0	42.0	0.426	0,0,0,0,0,0,1,2,3	to_board	s541
518.042	0.367	0	PA_without_intermediate	3,2,0,0,0,0,0,0,0	test	ward_and_allport	3,2,0,1,0,0,0,0,0	82.0	42.0	0.367	0,0,0,0,0,0,1,2,3	to_hand	s541
518.41	0.338	0	PA_without_intermediate	3,2,0,1,0,0,0,0,0	test	ward_and_allport	3,2,0,1,0,0,0,0,0	71.0	42.0	0.338	0,0,0,0,0,0,1,2,3	to_board	s541
518.763	1.0	0	PA_without_intermediate	n/a	test	ward_and_allport	n/a	-1.0	42.0	n/a	n/a	feedback	s541
519.763	1.408	0	PA_without_intermediate	n/a	test	ward_and_allport	n/a	-1.0	42.0	n/a	n/a	ITI	s541
521.181	4.266	1	PA_without_intermediate	1,2,0,0,0,0,0,0,0	test	ward_and_allport	0,0,0,2,0,0,3,1,0	89.0	43.0	4.266	1,2,3,0,0,0,0,0,0	to_hand	s541
525.448	0.36	0	PA_without_intermediate	1,2,0,0,0,0,3,0,0	test	ward_and_allport	0,0,0,2,0,0,3,1,0	82.0	43.0	0.36	1,2,3,0,0,0,0,0,0	to_board	s541
525.816	0.369	0	PA_without_intermediate	1,0,0,0,0,0,3,0,0	test	ward_and_allport	0,0,0,2,0,0,3,1,0	89.0	43.0	0.369	1,2,3,0,0,0,0,0,0	to_hand	s541
526.186	0.36	0	PA_without_intermediate	1,0,0,2,0,0,3,0,0	test	ward_and_allport	0,0,0,2,0,0,3,1,0	71.0	43.0	0.36	1,2,3,0,0,0,0,0,0	to_board	s541
526.556	1.355	0	PA_without_intermediate	0,0,0,2,0,0,3,0,0	test	ward_and_allport	0,0,0,2,0,0,3,1,0	89.0	43.0	1.355	1,2,3,0,0,0,0,0,0	to_hand	s541
527.912	0.624	0	PA_without_intermediate	0,0,0,2,0,0,3,1,0	test	ward_and_allport	0,0,0,2,0,0,3,1,0	82.0	43.0	0.624	1,2,3,0,0,0,0,0,0	to_board	s541
528.548	1.0	0	PA_without_intermediate	n/a	test	ward_and_allport	n/a	-1.0	43.0	n/a	n/a	feedback	s541
529.548	1.0	0	PA_without_intermediate	n/a	test	ward_and_allport	n/a	-1.0	43.0	n/a	n/a	ITI	s541
530.555	3.839	1	PA_with_intermediate	0,0,0,0,0,0,1,2,0	test	ward_and_allport	0,0,0,2,3,0,1,0,0	82.0	44.0	3.839	0,0,0,0,0,0,1,2,3	to_hand	s541
534.396	0.303	0	PA_with_intermediate	0,0,0,3,0,0,1,2,0	test	ward_and_allport	0,0,0,2,3,0,1,0,0	71.0	44.0	0.303	0,0,0,0,0,0,1,2,3	to_board	s541
534.707	0.284	0	PA_with_intermediate	0,0,0,3,0,0,1,0,0	test	ward_and_allport	0,0,0,2,3,0,1,0,0	82.0	44.0	0.284	0,0,0,0,0,0,1,2,3	to_hand	s541
534.991	0.252	0	PA_with_intermediate	0,0,0,3,2,0,1,0,0	test	ward_and_allport	0,0,0,2,3,0,1,0,0	71.0	44.0	0.252	0,0,0,0,0,0,1,2,3	to_board	s541
535.253	4.817	0	PA_with_intermediate	0,0,0,3,0,0,1,0,0	test	ward_and_allport	0,0,0,2,3,0,1,0,0	71.0	44.0	4.817	0,0,0,0,0,0,1,2,3	to_hand	s541
540.072	0.274	0	PA_with_intermediate	2,0,0,3,0,0,1,0,0	test	ward_and_allport	0,0,0,2,3,0,1,0,0	89.0	44.0	0.274	0,0,0,0,0,0,1,2,3	to_board	s541
540.356	2.106	0	PA_with_intermediate	2,0,0,0,0,0,1,0,0	test	ward_and_allport	0,0,0,2,3,0,1,0,0	71.0	44.0	2.106	0,0,0,0,0,0,1,2,3	to_hand	s541
542.463	0.396	0	PA_with_intermediate	2,0,0,0,0,0,1,3,0	test	ward_and_allport	0,0,0,2,3,0,1,0,0	82.0	44.0	0.396	0,0,0,0,0,0,1,2,3	to_board	s541
542.871	1.069	0	PA_with_intermediate	0,0,0,0,0,0,1,3,0	test	ward_and_allport	0,0,0,2,3,0,1,0,0	89.0	44.0	1.069	0,0,0,0,0,0,1,2,3	to_hand	s541
543.941	0.25	0	PA_with_intermediate	0,0,0,2,0,0,1,3,0	test	ward_and_allport	0,0,0,2,3,0,1,0,0	71.0	44.0	0.25	0,0,0,0,0,0,1,2,3	to_board	s541
544.202	0.678	0	PA_with_intermediate	0,0,0,2,0,0,1,0,0	test	ward_and_allport	0,0,0,2,3,0,1,0,0	82.0	44.0	0.678	0,0,0,0,0,0,1,2,3	to_hand	s541
544.881	0.27	0	PA_with_intermediate	0,0,0,2,3,0,1,0,0	test	ward_and_allport	0,0,0,2,3,0,1,0,0	71.0	44.0	0.27	0,0,0,0,0,0,1,2,3	to_board	s541
545.161	1.0	0	PA_with_intermediate	n/a	test	ward_and_allport	n/a	-1.0	44.0	n/a	n/a	feedback	s541
546.161	1.0	0	PA_with_intermediate	n/a	test	ward_and_allport	n/a	-1.0	44.0	n/a	n/a	ITI	s541
552.17	6.003	1	PA_with_intermediate	0,0,0,0,0,0,1,2,0	test	ward_and_allport	2,3,0,0,0,0,1,0,0	82.0	45.0	6.003	0,0,0,0,0,0,1,2,3	to_hand	s541
558.174	0.346	0	PA_with_intermediate	0,0,0,3,0,0,1,2,0	test	ward_and_allport	2,3,0,0,0,0,1,0,0	71.0	45.0	0.346	0,0,0,0,0,0,1,2,3	to_board	s541
558.529	0.402	0	PA_with_intermediate	0,0,0,3,0,0,1,0,0	test	ward_and_allport	2,3,0,0,0,0,1,0,0	82.0	45.0	0.402	0,0,0,0,0,0,1,2,3	to_hand	s541
558.932	0.325	0	PA_with_intermediate	2,0,0,3,0,0,1,0,0	test	ward_and_allport	2,3,0,0,0,0,1,0,0	89.0	45.0	0.325	0,0,0,0,0,0,1,2,3	to_board	s541
559.268	0.724	0	PA_with_intermediate	2,0,0,0,0,0,1,0,0	test	ward_and_allport	2,3,0,0,0,0,1,0,0	71.0	45.0	0.724	0,0,0,0,0,0,1,2,3	to_hand	s541
559.993	0.315	0	PA_with_intermediate	2,3,0,0,0,0,1,0,0	test	ward_and_allport	2,3,0,0,0,0,1,0,0	89.0	45.0	0.315	0,0,0,0,0,0,1,2,3	to_board	s541
560.325	1.0	0	PA_with_intermediate	n/a	test	ward_and_allport	n/a	-1.0	45.0	n/a	n/a	feedback	s541
561.325	1.0	0	PA_with_intermediate	n/a	test	ward_and_allport	n/a	-1.0	45.0	n/a	n/a	ITI	s541
562.332	3.75	1	PA_with_intermediate	1,2,0,0,0,0,0,0,0	test	ward_and_allport	1,0,0,2,3,0,0,0,0	89.0	46.0	3.75	1,2,3,0,0,0,0,0,0	to_hand	s541
566.083	0.419	0	PA_with_intermediate	1,2,0,0,0,0,3,0,0	test	ward_and_allport	1,0,0,2,3,0,0,0,0	82.0	46.0	0.419	1,2,3,0,0,0,0,0,0	to_board	s541
566.511	0.898	0	PA_with_intermediate	1,0,0,0,0,0,3,0,0	test	ward_and_allport	1,0,0,2,3,0,0,0,0	89.0	46.0	0.898	1,2,3,0,0,0,0,0,0	to_hand	s541
567.411	0.203	0	PA_with_intermediate	1,0,0,2,0,0,3,0,0	test	ward_and_allport	1,0,0,2,3,0,0,0,0	71.0	46.0	0.203	1,2,3,0,0,0,0,0,0	to_board	s541
567.625	0.313	0	PA_with_intermediate	1,0,0,2,0,0,0,0,0	test	ward_and_allport	1,0,0,2,3,0,0,0,0	82.0	46.0	0.313	1,2,3,0,0,0,0,0,0	to_hand	s541
567.939	0.27	0	PA_with_intermediate	1,0,0,2,3,0,0,0,0	test	ward_and_allport	1,0,0,2,3,0,0,0,0	71.0	46.0	0.27	1,2,3,0,0,0,0,0,0	to_board	s541
568.221	1.0	0	PA_with_intermediate	n/a	test	ward_and_allport	n/a	-1.0	46.0	n/a	n/a	feedback	s541
569.221	1.408	0	PA_with_intermediate	n/a	test	ward_and_allport	n/a	-1.0	46.0	n/a	n/a	ITI	s541
n/a	n/a	0	n/a	n/a	n/a	n/a	n/a	n/a	n/a	n/a	n/a	ITI	n/a
