onset	duration	CTI	correct	correct_response	cue	cue_switch	experiment_exp_id	key_press	response_time	stim_color	stim_number	switch_type	task_type	task_switch	worker_id	first_trial_of_block
4.411	1.0	0.9	True	71.0	Color	stay	twobytwo	71.0	0.372	orange	1.0	cue_stay	color	stay	s192	1
7.74	1.0	0.1	False	89.0	Magnitude	n/a	twobytwo	71.0	0.842	orange	7.0	task_switch	magnitude	switch	s192	0
10.26	1.0	0.1	True	89.0	Color	n/a	twobytwo	89.0	0.619	blue	1.0	task_switch	color	switch	s192	0
13.18	1.0	0.1	True	71.0	High-Low	n/a	twobytwo	71.0	1.1	blue	2.0	task_switch	magnitude	switch	s192	0
15.697	1.0	0.1	True	89.0	Color	n/a	twobytwo	89.0	0.703	blue	6.0	task_switch	color	switch	s192	0
18.743	1.0	0.9	True	89.0	Color	stay	twobytwo	89.0	0.574	blue	6.0	cue_stay	color	stay	s192	0
21.787	1.0	0.9	True	89.0	Orange-Blue	switch	twobytwo	89.0	0.517	blue	1.0	cue_switch	color	stay	s192	0
24.694	1.0	0.9	True	71.0	Color	switch	twobytwo	71.0	0.336	orange	6.0	cue_switch	color	stay	s192	0
27.601	1.0	0.9	True	89.0	High-Low	n/a	twobytwo	89.0	0.407	orange	8.0	task_switch	magnitude	switch	s192	0
29.979	1.0	0.1	True	89.0	Orange-Blue	n/a	twobytwo	89.0	0.791	blue	1.0	task_switch	color	switch	s192	0
33.295	1.0	0.9	True	89.0	Magnitude	n/a	twobytwo	89.0	0.553	blue	6.0	task_switch	magnitude	switch	s192	0
35.399	1.0	0.1	True	89.0	High-Low	switch	twobytwo	89.0	0.983	blue	8.0	cue_switch	magnitude	stay	s192	0
38.446	1.0	0.9	True	71.0	Orange-Blue	n/a	twobytwo	71.0	0.515	orange	2.0	task_switch	color	switch	s192	0
40.551	1.0	0.1	True	71.0	High-Low	n/a	twobytwo	71.0	0.85	blue	4.0	task_switch	magnitude	switch	s192	0
43.071	1.0	0.1	True	71.0	Magnitude	switch	twobytwo	71.0	0.651	orange	2.0	cue_switch	magnitude	stay	s192	0
46.25	1.0	0.9	True	71.0	Color	n/a	twobytwo	71.0	0.364	orange	7.0	task_switch	color	switch	s192	0
48.357	1.0	0.1	True	89.0	Orange-Blue	switch	twobytwo	89.0	1.081	blue	3.0	cue_switch	color	stay	s192	0
51.536	1.0	0.9	True	71.0	High-Low	n/a	twobytwo	71.0	0.426	orange	3.0	task_switch	magnitude	switch	s192	0
54.444	1.0	0.9	True	89.0	Color	n/a	twobytwo	89.0	0.416	blue	6.0	task_switch	color	switch	s192	0
56.55	1.0	0.1	True	89.0	Color	stay	twobytwo	89.0	0.573	blue	3.0	cue_stay	color	stay	s192	0
58.929	1.0	0.1	True	71.0	Magnitude	n/a	twobytwo	71.0	0.932	blue	1.0	task_switch	magnitude	switch	s192	0
61.973	1.0	0.9	True	89.0	Orange-Blue	n/a	twobytwo	89.0	0.613	blue	4.0	task_switch	color	switch	s192	0
64.08	1.0	0.1	True	89.0	Orange-Blue	stay	twobytwo	89.0	0.519	blue	6.0	cue_stay	color	stay	s192	0
66.19	1.0	0.1	True	71.0	High-Low	n/a	twobytwo	71.0	0.682	orange	2.0	task_switch	magnitude	switch	s192	0
69.099	1.0	0.9	True	89.0	Magnitude	switch	twobytwo	89.0	0.685	orange	8.0	cue_switch	magnitude	stay	s192	0
72.004	1.0	0.9	True	71.0	Magnitude	stay	twobytwo	71.0	0.415	blue	2.0	cue_stay	magnitude	stay	s192	0
74.91	1.0	0.9	True	71.0	Color	n/a	twobytwo	71.0	0.513	orange	4.0	task_switch	color	switch	s192	0
77.953	1.0	0.9	True	71.0	Color	stay	twobytwo	71.0	0.814	orange	2.0	cue_stay	color	stay	s192	0
80.065	1.0	0.1	True	89.0	High-Low	n/a	twobytwo	89.0	0.864	orange	9.0	task_switch	magnitude	switch	s192	0
82.174	1.0	0.1	True	89.0	Magnitude	switch	twobytwo	89.0	0.667	blue	7.0	cue_switch	magnitude	stay	s192	0
85.22	1.0	0.9	True	71.0	High-Low	switch	twobytwo	71.0	0.466	orange	4.0	cue_switch	magnitude	stay	s192	0
87.326	1.0	0.1	True	89.0	Orange-Blue	n/a	twobytwo	89.0	1.063	blue	3.0	task_switch	color	switch	s192	0
90.372	1.0	0.9	True	71.0	Magnitude	n/a	twobytwo	71.0	0.777	blue	3.0	task_switch	magnitude	switch	s192	0
93.957	1.0	0.9	True	71.0	Magnitude	stay	twobytwo	71.0	0.485	blue	4.0	cue_stay	magnitude	stay	s192	0
97.135	1.0	0.9	True	71.0	Magnitude	stay	twobytwo	71.0	0.414	blue	3.0	cue_stay	magnitude	stay	s192	0
99.377	1.0	0.1	False	71.0	Orange-Blue	n/a	twobytwo	89.0	0.521	orange	7.0	task_switch	color	switch	s192	0
101.485	1.0	0.1	True	71.0	Magnitude	n/a	twobytwo	71.0	1.4	orange	2.0	task_switch	magnitude	switch	s192	0
103.727	1.0	0.1	True	89.0	Color	n/a	twobytwo	89.0	0.926	blue	8.0	task_switch	color	switch	s192	0
107.315	1.0	0.9	True	71.0	Magnitude	n/a	twobytwo	71.0	0.693	blue	1.0	task_switch	magnitude	switch	s192	0
109.695	1.0	0.1	True	71.0	High-Low	switch	twobytwo	71.0	1.645	orange	2.0	cue_switch	magnitude	stay	s192	0
111.799	1.0	0.1	True	71.0	Color	n/a	twobytwo	71.0	1.038	orange	8.0	task_switch	color	switch	s192	0
114.705	1.0	0.9	True	71.0	Color	stay	twobytwo	71.0	0.44	orange	9.0	cue_stay	color	stay	s192	0
117.751	1.0	0.9	False	71.0	Color	stay	twobytwo	89.0	0.468	orange	1.0	cue_stay	color	stay	s192	0
120.66	1.0	0.9	True	71.0	Color	stay	twobytwo	71.0	0.934	orange	9.0	cue_stay	color	stay	s192	0
122.766	1.0	0.1	True	71.0	Orange-Blue	switch	twobytwo	71.0	0.627	orange	2.0	cue_switch	color	stay	s192	0
125.673	1.0	0.9	True	71.0	Magnitude	n/a	twobytwo	71.0	0.396	blue	1.0	task_switch	magnitude	switch	s192	0
128.852	1.0	0.9	True	89.0	Color	n/a	twobytwo	89.0	0.98	blue	9.0	task_switch	color	switch	s192	0
131.365	1.0	0.1	True	71.0	Color	stay	twobytwo	71.0	0.834	orange	4.0	cue_stay	color	stay	s192	0
133.474	1.0	0.1	True	71.0	Color	stay	twobytwo	71.0	0.592	orange	4.0	cue_stay	color	stay	s192	0
135.581	1.0	0.1	True	89.0	High-Low	n/a	twobytwo	89.0	0.781	orange	9.0	task_switch	magnitude	switch	s192	0
137.693	1.0	0.1	True	71.0	Orange-Blue	n/a	twobytwo	71.0	0.664	orange	4.0	task_switch	color	switch	s192	0
140.869	1.0	0.9	True	89.0	Orange-Blue	stay	twobytwo	89.0	0.42	blue	8.0	cue_stay	color	stay	s192	0
143.115	1.0	0.1	True	71.0	High-Low	n/a	twobytwo	71.0	0.743	orange	2.0	task_switch	magnitude	switch	s192	0
145.224	1.0	0.1	True	89.0	Magnitude	switch	twobytwo	89.0	0.76	blue	9.0	cue_switch	magnitude	stay	s192	0
148.675	1.0	0.9	True	89.0	Color	n/a	twobytwo	89.0	0.841	blue	3.0	task_switch	color	switch	s192	0
151.054	1.0	0.1	True	89.0	Color	stay	twobytwo	89.0	0.486	blue	3.0	cue_stay	color	stay	s192	0
153.431	1.0	0.1	True	89.0	Orange-Blue	switch	twobytwo	89.0	0.666	blue	6.0	cue_switch	color	stay	s192	0
156.34	1.0	0.9	True	89.0	Orange-Blue	stay	twobytwo	89.0	0.432	blue	3.0	cue_stay	color	stay	s192	0
159.249	1.0	0.9	True	71.0	High-Low	n/a	twobytwo	71.0	0.47	blue	1.0	task_switch	magnitude	switch	s192	0
162.294	1.0	0.9	True	71.0	Color	n/a	twobytwo	71.0	0.718	orange	9.0	task_switch	color	switch	s192	0
165.201	1.0	0.9	True	71.0	Orange-Blue	switch	twobytwo	71.0	0.421	orange	9.0	cue_switch	color	stay	s192	0
167.444	1.0	0.1	True	71.0	Magnitude	n/a	twobytwo	71.0	0.728	orange	3.0	task_switch	magnitude	switch	s192	0
170.62	1.0	0.9	True	89.0	Orange-Blue	n/a	twobytwo	89.0	0.466	blue	7.0	task_switch	color	switch	s192	0
172.868	1.0	0.1	True	89.0	Orange-Blue	stay	twobytwo	89.0	0.509	blue	7.0	cue_stay	color	stay	s192	0
175.245	1.0	0.1	True	71.0	High-Low	n/a	twobytwo	71.0	0.655	orange	1.0	task_switch	magnitude	switch	s192	0
178.149	1.0	0.9	True	71.0	High-Low	stay	twobytwo	71.0	0.4	orange	2.0	cue_stay	magnitude	stay	s192	0
181.872	1.0	0.9	True	89.0	Magnitude	switch	twobytwo	89.0	0.465	blue	7.0	cue_switch	magnitude	stay	s192	0
184.388	1.0	0.1	True	89.0	Magnitude	stay	twobytwo	89.0	0.64	blue	7.0	cue_stay	magnitude	stay	s192	0
186.495	1.0	0.1	True	89.0	Magnitude	stay	twobytwo	89.0	0.664	blue	6.0	cue_stay	magnitude	stay	s192	0
189.148	1.0	0.1	True	71.0	Orange-Blue	n/a	twobytwo	71.0	0.595	orange	1.0	task_switch	color	switch	s192	0
192.191	1.0	0.9	True	89.0	Magnitude	n/a	twobytwo	89.0	0.662	blue	9.0	task_switch	magnitude	switch	s192	0
195.1	1.0	0.9	True	89.0	Magnitude	stay	twobytwo	89.0	0.545	blue	9.0	cue_stay	magnitude	stay	s192	0
197.208	1.0	0.1	True	89.0	High-Low	switch	twobytwo	89.0	0.561	orange	9.0	cue_switch	magnitude	stay	s192	0
200.252	1.0	0.9	True	71.0	High-Low	stay	twobytwo	71.0	0.471	orange	4.0	cue_stay	magnitude	stay	s192	0
202.493	1.0	0.1	True	71.0	Color	n/a	twobytwo	71.0	0.688	orange	7.0	task_switch	color	switch	s192	0
205.672	1.0	0.9	True	89.0	Orange-Blue	switch	twobytwo	89.0	0.721	blue	6.0	cue_switch	color	stay	s192	0
209.007	1.0	0.1	True	89.0	Color	switch	twobytwo	89.0	0.48	blue	8.0	cue_switch	color	stay	s192	0
211.115	1.0	0.1	True	71.0	Magnitude	n/a	twobytwo	71.0	0.569	orange	4.0	task_switch	magnitude	switch	s192	0
214.027	1.0	0.9	True	89.0	Color	n/a	twobytwo	89.0	0.502	blue	8.0	task_switch	color	switch	s192	0
217.204	1.0	0.9	True	89.0	High-Low	n/a	twobytwo	89.0	0.481	orange	8.0	task_switch	magnitude	switch	s192	0
233.766	1.0	0.9	True	71.0	High-Low	stay	twobytwo	71.0	0.647	orange	1.0	cue_stay	magnitude	stay	s192	1
235.873	1.0	0.1	True	71.0	Color	n/a	twobytwo	71.0	1.41	orange	7.0	task_switch	color	switch	s192	0
237.982	1.0	0.1	True	71.0	Magnitude	n/a	twobytwo	71.0	0.64	blue	1.0	task_switch	magnitude	switch	s192	0
240.089	1.0	0.1	False	89.0	Color	n/a	twobytwo	71.0	0.598	blue	2.0	task_switch	color	switch	s192	0
242.878	1.0	0.1	True	89.0	Magnitude	n/a	twobytwo	89.0	0.89	blue	6.0	task_switch	magnitude	switch	s192	0
245.786	1.0	0.9	True	89.0	Magnitude	stay	twobytwo	89.0	0.636	blue	6.0	cue_stay	magnitude	stay	s192	0
248.967	1.0	0.9	True	71.0	High-Low	switch	twobytwo	71.0	0.469	blue	1.0	cue_switch	magnitude	stay	s192	0
251.873	1.0	0.9	True	89.0	Magnitude	switch	twobytwo	89.0	0.41	orange	6.0	cue_switch	magnitude	stay	s192	0
255.052	1.0	0.9	True	71.0	Orange-Blue	n/a	twobytwo	71.0	0.442	orange	8.0	task_switch	color	switch	s192	0
258.112	1.0	0.1	True	71.0	High-Low	n/a	twobytwo	71.0	0.659	blue	1.0	task_switch	magnitude	switch	s192	0
261.017	1.0	0.9	True	89.0	Orange-Blue	n/a	twobytwo	89.0	0.466	blue	6.0	task_switch	color	switch	s192	0
263.125	1.0	0.1	True	89.0	Color	switch	twobytwo	89.0	0.582	blue	8.0	cue_switch	color	stay	s192	0
266.03	1.0	0.9	True	71.0	Magnitude	n/a	twobytwo	71.0	0.446	orange	2.0	task_switch	magnitude	switch	s192	0
268.138	1.0	0.1	True	89.0	Color	n/a	twobytwo	89.0	0.703	blue	4.0	task_switch	color	switch	s192	0
270.386	1.0	0.1	True	71.0	Orange-Blue	switch	twobytwo	71.0	0.692	orange	2.0	cue_switch	color	stay	s192	0
273.298	1.0	0.9	True	89.0	Magnitude	n/a	twobytwo	89.0	0.497	orange	7.0	task_switch	magnitude	switch	s192	0
275.405	1.0	0.1	True	71.0	High-Low	switch	twobytwo	71.0	0.653	blue	3.0	cue_switch	magnitude	stay	s192	0
278.313	1.0	0.9	True	71.0	Color	n/a	twobytwo	71.0	0.361	orange	3.0	task_switch	color	switch	s192	0
281.493	1.0	0.9	False	89.0	Magnitude	n/a	twobytwo	71.0	0.449	blue	6.0	task_switch	magnitude	switch	s192	0
283.732	1.0	0.1	True	71.0	Magnitude	stay	twobytwo	71.0	0.628	blue	3.0	cue_stay	magnitude	stay	s192	0
285.84	1.0	0.1	True	89.0	Color	n/a	twobytwo	89.0	1.359	blue	1.0	task_switch	color	switch	s192	0
288.888	1.0	0.9	True	71.0	High-Low	n/a	twobytwo	71.0	1.476	blue	4.0	task_switch	magnitude	switch	s192	0
291.808	1.0	0.1	True	89.0	High-Low	stay	twobytwo	89.0	0.65	blue	6.0	cue_stay	magnitude	stay	s192	0
294.328	1.0	0.1	True	71.0	Orange-Blue	n/a	twobytwo	71.0	0.465	orange	2.0	task_switch	color	switch	s192	0
297.237	1.0	0.9	True	71.0	Color	switch	twobytwo	71.0	0.388	orange	8.0	cue_switch	color	stay	s192	0
300.278	1.0	0.9	True	89.0	Color	stay	twobytwo	89.0	0.658	blue	2.0	cue_stay	color	stay	s192	0
303.323	1.0	0.9	True	71.0	Magnitude	n/a	twobytwo	71.0	0.552	orange	4.0	task_switch	magnitude	switch	s192	0
306.366	1.0	0.9	True	71.0	Magnitude	stay	twobytwo	71.0	0.355	orange	2.0	cue_stay	magnitude	stay	s192	0
309.019	1.0	0.1	True	71.0	Orange-Blue	n/a	twobytwo	71.0	0.633	orange	9.0	task_switch	color	switch	s192	0
311.267	1.0	0.1	True	89.0	Color	switch	twobytwo	89.0	0.59	blue	7.0	cue_switch	color	stay	s192	0
314.174	1.0	0.9	True	71.0	Orange-Blue	switch	twobytwo	71.0	0.36	orange	4.0	cue_switch	color	stay	s192	0
316.281	1.0	0.1	True	71.0	Magnitude	n/a	twobytwo	71.0	0.716	blue	3.0	task_switch	magnitude	switch	s192	0
319.188	1.0	0.9	True	89.0	Color	n/a	twobytwo	89.0	0.323	blue	3.0	task_switch	color	switch	s192	0
322.092	1.0	0.9	True	89.0	Color	stay	twobytwo	89.0	0.373	blue	4.0	cue_stay	color	stay	s192	0
325.135	1.0	0.9	True	89.0	Color	stay	twobytwo	89.0	0.426	blue	3.0	cue_stay	color	stay	s192	0
327.247	1.0	0.1	False	89.0	High-Low	n/a	twobytwo	71.0	0.57	orange	7.0	task_switch	magnitude	switch	s192	0
329.356	1.0	0.1	True	71.0	Orange-Blue	n/a	twobytwo	71.0	0.748	orange	2.0	task_switch	color	switch	s192	0
331.463	1.0	0.1	True	89.0	High-Low	n/a	twobytwo	89.0	0.54	blue	8.0	task_switch	magnitude	switch	s192	0
334.508	1.0	0.9	True	89.0	Orange-Blue	n/a	twobytwo	89.0	0.466	blue	1.0	task_switch	color	switch	s192	0
336.754	1.0	0.1	True	71.0	Color	switch	twobytwo	71.0	0.723	orange	2.0	cue_switch	color	stay	s192	0
338.997	1.0	0.1	True	89.0	Magnitude	n/a	twobytwo	89.0	0.679	orange	8.0	task_switch	magnitude	switch	s192	0
342.039	1.0	0.9	True	89.0	Magnitude	stay	twobytwo	89.0	0.425	orange	9.0	cue_stay	magnitude	stay	s192	0
345.626	1.0	0.9	True	71.0	Magnitude	stay	twobytwo	71.0	0.395	orange	1.0	cue_stay	magnitude	stay	s192	0
349.077	1.0	0.9	True	89.0	Magnitude	stay	twobytwo	89.0	0.439	orange	9.0	cue_stay	magnitude	stay	s192	0
351.461	1.0	0.1	True	71.0	High-Low	switch	twobytwo	71.0	0.593	orange	2.0	cue_switch	magnitude	stay	s192	0
354.642	1.0	0.9	True	89.0	Color	n/a	twobytwo	89.0	0.361	blue	1.0	task_switch	color	switch	s192	0
357.959	1.0	0.9	True	89.0	Magnitude	n/a	twobytwo	89.0	0.406	blue	9.0	task_switch	magnitude	switch	s192	0
360.201	1.0	0.1	True	71.0	Magnitude	stay	twobytwo	71.0	0.701	orange	4.0	cue_stay	magnitude	stay	s192	0
362.58	1.0	0.1	True	71.0	Magnitude	stay	twobytwo	71.0	0.566	orange	4.0	cue_stay	magnitude	stay	s192	0
364.691	1.0	0.1	True	71.0	Orange-Blue	n/a	twobytwo	71.0	1.022	orange	9.0	task_switch	color	switch	s192	0
366.939	1.0	0.1	True	71.0	High-Low	n/a	twobytwo	71.0	0.567	orange	4.0	task_switch	magnitude	switch	s192	0
370.117	1.0	0.9	True	89.0	High-Low	stay	twobytwo	89.0	0.491	blue	8.0	cue_stay	magnitude	stay	s192	0
372.222	1.0	0.1	True	71.0	Color	n/a	twobytwo	71.0	0.543	orange	2.0	task_switch	color	switch	s192	0
375.014	1.0	0.1	True	89.0	Orange-Blue	switch	twobytwo	89.0	0.685	blue	9.0	cue_switch	color	stay	s192	0
377.919	1.0	0.9	True	71.0	High-Low	n/a	twobytwo	71.0	0.389	blue	3.0	task_switch	magnitude	switch	s192	0
380.023	1.0	0.1	True	71.0	High-Low	stay	twobytwo	71.0	0.528	blue	3.0	cue_stay	magnitude	stay	s192	0
382.133	1.0	0.1	True	89.0	Magnitude	switch	twobytwo	89.0	0.881	blue	6.0	cue_switch	magnitude	stay	s192	0
385.313	1.0	0.9	True	71.0	Magnitude	stay	twobytwo	71.0	0.464	blue	3.0	cue_stay	magnitude	stay	s192	0
388.219	1.0	0.9	True	89.0	Orange-Blue	n/a	twobytwo	89.0	0.426	blue	1.0	task_switch	color	switch	s192	0
391.127	1.0	0.9	True	89.0	Magnitude	n/a	twobytwo	89.0	0.525	orange	9.0	task_switch	magnitude	switch	s192	0
394.035	1.0	0.9	False	89.0	High-Low	switch	twobytwo	71.0	0.372	orange	9.0	cue_switch	magnitude	stay	s192	0
396.82	1.0	0.1	True	71.0	Orange-Blue	n/a	twobytwo	71.0	0.579	orange	3.0	task_switch	color	switch	s192	0
399.727	1.0	0.9	True	89.0	High-Low	n/a	twobytwo	89.0	0.593	blue	7.0	task_switch	magnitude	switch	s192	0
401.967	1.0	0.1	True	89.0	High-Low	stay	twobytwo	89.0	0.512	blue	7.0	cue_stay	magnitude	stay	s192	0
404.484	1.0	0.1	True	71.0	Orange-Blue	n/a	twobytwo	71.0	0.78	orange	1.0	task_switch	color	switch	s192	0
407.527	1.0	0.9	True	71.0	Orange-Blue	stay	twobytwo	71.0	0.54	orange	2.0	cue_stay	color	stay	s192	0
410.436	1.0	0.9	True	89.0	Color	switch	twobytwo	89.0	0.432	blue	7.0	cue_switch	color	stay	s192	0
412.542	1.0	0.1	True	89.0	Color	stay	twobytwo	89.0	0.494	blue	7.0	cue_stay	color	stay	s192	0
415.194	1.0	0.1	True	89.0	Color	stay	twobytwo	89.0	0.539	blue	6.0	cue_stay	color	stay	s192	0
417.437	1.0	0.1	True	71.0	Magnitude	n/a	twobytwo	71.0	0.679	orange	1.0	task_switch	magnitude	switch	s192	0
420.89	1.0	0.9	True	89.0	Color	n/a	twobytwo	89.0	0.416	blue	9.0	task_switch	color	switch	s192	0
424.477	1.0	0.9	True	89.0	Color	stay	twobytwo	89.0	0.584	blue	9.0	cue_stay	color	stay	s192	0
426.583	1.0	0.1	True	71.0	Orange-Blue	switch	twobytwo	71.0	0.657	orange	9.0	cue_switch	color	stay	s192	0
429.762	1.0	0.9	True	71.0	Orange-Blue	stay	twobytwo	71.0	0.377	orange	4.0	cue_stay	color	stay	s192	0
432.962	1.0	0.1	False	89.0	High-Low	n/a	twobytwo	71.0	0.752	orange	7.0	task_switch	magnitude	switch	s192	0
435.866	1.0	0.9	True	89.0	Magnitude	switch	twobytwo	89.0	0.458	blue	6.0	cue_switch	magnitude	stay	s192	0
438.113	1.0	0.1	True	89.0	High-Low	switch	twobytwo	89.0	0.567	blue	8.0	cue_switch	magnitude	stay	s192	0
440.359	1.0	0.1	True	71.0	Color	n/a	twobytwo	71.0	0.597	orange	4.0	task_switch	color	switch	s192	0
443.267	1.0	0.9	True	89.0	Magnitude	n/a	twobytwo	89.0	0.694	blue	8.0	task_switch	magnitude	switch	s192	0
446.445	1.0	0.9	True	71.0	Color	n/a	twobytwo	71.0	0.4	orange	8.0	task_switch	color	switch	s192	0
462.865	1.0	0.9	True	71.0	Color	stay	twobytwo	71.0	0.399	orange	1.0	cue_stay	color	stay	s192	1
465.109	1.0	0.1	True	89.0	Magnitude	n/a	twobytwo	89.0	0.706	orange	7.0	task_switch	magnitude	switch	s192	0
467.351	1.0	0.1	False	89.0	Color	n/a	twobytwo	71.0	0.855	blue	1.0	task_switch	color	switch	s192	0
470.004	1.0	0.1	True	71.0	Magnitude	n/a	twobytwo	71.0	0.496	blue	2.0	task_switch	magnitude	switch	s192	0
472.112	1.0	0.1	True	89.0	Color	n/a	twobytwo	89.0	0.561	blue	6.0	task_switch	color	switch	s192	0
475.153	1.0	0.9	True	89.0	Color	stay	twobytwo	89.0	0.344	blue	6.0	cue_stay	color	stay	s192	0
478.198	1.0	0.9	True	89.0	Orange-Blue	switch	twobytwo	89.0	0.489	blue	1.0	cue_switch	color	stay	s192	0
481.241	1.0	0.9	True	71.0	Color	switch	twobytwo	71.0	0.387	orange	6.0	cue_switch	color	stay	s192	0
484.15	1.0	0.9	True	89.0	High-Low	n/a	twobytwo	89.0	0.603	orange	8.0	task_switch	magnitude	switch	s192	0
486.392	1.0	0.1	False	89.0	Orange-Blue	n/a	twobytwo	71.0	0.773	blue	1.0	task_switch	color	switch	s192	0
489.298	1.0	0.9	True	89.0	High-Low	n/a	twobytwo	89.0	0.691	blue	6.0	task_switch	magnitude	switch	s192	0
491.543	1.0	0.1	True	89.0	Magnitude	switch	twobytwo	89.0	0.599	blue	8.0	cue_switch	magnitude	stay	s192	0
495.266	1.0	0.9	True	71.0	Orange-Blue	n/a	twobytwo	71.0	0.779	orange	2.0	task_switch	color	switch	s192	0
497.509	1.0	0.1	False	71.0	Magnitude	n/a	twobytwo	89.0	0.838	blue	4.0	task_switch	magnitude	switch	s192	0
499.615	1.0	0.1	False	71.0	High-Low	switch	twobytwo	-1.0	n/a	orange	2.0	cue_switch	magnitude	stay	s192	0
502.522	1.0	0.9	True	71.0	Color	n/a	twobytwo	71.0	0.77	orange	7.0	task_switch	color	switch	s192	0
504.901	1.0	0.1	True	89.0	Orange-Blue	switch	twobytwo	89.0	0.893	blue	3.0	cue_switch	color	stay	s192	0
507.813	1.0	0.9	True	71.0	High-Low	n/a	twobytwo	71.0	0.582	orange	3.0	task_switch	magnitude	switch	s192	0
510.719	1.0	0.9	True	89.0	Color	n/a	twobytwo	89.0	0.389	blue	6.0	task_switch	color	switch	s192	0
512.829	1.0	0.1	True	89.0	Color	stay	twobytwo	89.0	0.514	blue	3.0	cue_stay	color	stay	s192	0
515.349	1.0	0.1	True	71.0	Magnitude	n/a	twobytwo	71.0	0.575	blue	1.0	task_switch	magnitude	switch	s192	0
518.53	1.0	0.9	False	89.0	Orange-Blue	n/a	twobytwo	71.0	0.73	blue	4.0	task_switch	color	switch	s192	0
520.776	1.0	0.1	True	89.0	Orange-Blue	stay	twobytwo	89.0	0.742	blue	6.0	cue_stay	color	stay	s192	0
522.886	1.0	0.1	True	71.0	High-Low	n/a	twobytwo	71.0	0.619	orange	2.0	task_switch	magnitude	switch	s192	0
525.795	1.0	0.9	True	89.0	Magnitude	switch	twobytwo	89.0	0.547	orange	8.0	cue_switch	magnitude	stay	s192	0
528.838	1.0	0.9	True	71.0	Magnitude	stay	twobytwo	71.0	0.544	blue	2.0	cue_stay	magnitude	stay	s192	0
531.747	1.0	0.9	True	71.0	Orange-Blue	n/a	twobytwo	71.0	0.396	orange	4.0	task_switch	color	switch	s192	0
534.792	1.0	0.9	True	71.0	Orange-Blue	stay	twobytwo	71.0	0.41	orange	2.0	cue_stay	color	stay	s192	0
537.305	1.0	0.1	True	89.0	High-Low	n/a	twobytwo	89.0	0.679	orange	9.0	task_switch	magnitude	switch	s192	0
539.553	1.0	0.1	False	89.0	Magnitude	switch	twobytwo	71.0	0.72	blue	7.0	cue_switch	magnitude	stay	s192	0
542.461	1.0	0.9	True	71.0	High-Low	switch	twobytwo	71.0	0.742	orange	4.0	cue_switch	magnitude	stay	s192	0
544.702	1.0	0.1	True	89.0	Orange-Blue	n/a	twobytwo	89.0	0.866	blue	3.0	task_switch	color	switch	s192	0
547.883	1.0	0.9	True	71.0	Magnitude	n/a	twobytwo	71.0	0.972	blue	3.0	task_switch	magnitude	switch	s192	0
550.792	1.0	0.9	True	71.0	Magnitude	stay	twobytwo	71.0	0.594	blue	4.0	cue_stay	magnitude	stay	s192	0
554.108	1.0	0.9	True	71.0	Magnitude	stay	twobytwo	71.0	0.468	blue	3.0	cue_stay	magnitude	stay	s192	0
556.217	1.0	0.1	True	71.0	Orange-Blue	n/a	twobytwo	71.0	1.172	orange	7.0	task_switch	color	switch	s192	0
558.457	1.0	0.1	True	71.0	Magnitude	n/a	twobytwo	71.0	0.489	orange	2.0	task_switch	magnitude	switch	s192	0
560.97	1.0	0.1	True	89.0	Orange-Blue	n/a	twobytwo	89.0	0.73	blue	8.0	task_switch	color	switch	s192	0
564.015	1.0	0.9	True	71.0	Magnitude	n/a	twobytwo	71.0	0.474	blue	1.0	task_switch	magnitude	switch	s192	0
566.527	1.0	0.1	True	71.0	High-Low	switch	twobytwo	71.0	0.554	orange	2.0	cue_switch	magnitude	stay	s192	0
568.775	1.0	0.1	True	71.0	Color	n/a	twobytwo	71.0	0.796	orange	8.0	task_switch	color	switch	s192	0
571.684	1.0	0.9	True	71.0	Color	stay	twobytwo	71.0	0.361	orange	9.0	cue_stay	color	stay	s192	0
574.866	1.0	0.9	True	71.0	Color	stay	twobytwo	71.0	0.389	orange	1.0	cue_stay	color	stay	s192	0
577.771	1.0	0.9	True	71.0	Color	stay	twobytwo	71.0	0.431	orange	9.0	cue_stay	color	stay	s192	0
580.146	1.0	0.1	True	71.0	Orange-Blue	switch	twobytwo	71.0	0.531	orange	2.0	cue_switch	color	stay	s192	0
583.329	1.0	0.9	True	71.0	High-Low	n/a	twobytwo	71.0	0.447	blue	1.0	task_switch	magnitude	switch	s192	0
587.188	1.0	0.9	True	89.0	Color	n/a	twobytwo	89.0	0.539	blue	9.0	task_switch	color	switch	s192	0
589.973	1.0	0.1	True	71.0	Color	stay	twobytwo	71.0	0.887	orange	4.0	cue_stay	color	stay	s192	0
592.216	1.0	0.1	True	71.0	Color	stay	twobytwo	71.0	0.463	orange	4.0	cue_stay	color	stay	s192	0
594.595	1.0	0.1	True	89.0	Magnitude	n/a	twobytwo	89.0	0.582	orange	9.0	task_switch	magnitude	switch	s192	0
596.976	1.0	0.1	True	71.0	Color	n/a	twobytwo	71.0	0.627	orange	4.0	task_switch	color	switch	s192	0
600.016	1.0	0.9	True	89.0	Color	stay	twobytwo	89.0	0.302	blue	8.0	cue_stay	color	stay	s192	0
602.534	1.0	0.1	True	71.0	High-Low	n/a	twobytwo	71.0	0.547	orange	2.0	task_switch	magnitude	switch	s192	0
604.778	1.0	0.1	True	89.0	Magnitude	switch	twobytwo	89.0	0.784	blue	9.0	cue_switch	magnitude	stay	s192	0
607.826	1.0	0.9	False	89.0	Orange-Blue	n/a	twobytwo	71.0	0.593	blue	3.0	task_switch	color	switch	s192	0
609.934	1.0	0.1	True	89.0	Orange-Blue	stay	twobytwo	89.0	0.526	blue	3.0	cue_stay	color	stay	s192	0
612.04	1.0	0.1	True	89.0	Color	switch	twobytwo	89.0	0.56	blue	6.0	cue_switch	color	stay	s192	0
614.947	1.0	0.9	True	89.0	Color	stay	twobytwo	89.0	0.512	blue	3.0	cue_stay	color	stay	s192	0
617.86	1.0	0.9	True	71.0	High-Low	n/a	twobytwo	71.0	0.379	blue	1.0	task_switch	magnitude	switch	s192	0
620.766	1.0	0.9	True	71.0	Color	n/a	twobytwo	71.0	1.498	orange	9.0	task_switch	color	switch	s192	0
623.948	1.0	0.9	True	71.0	Orange-Blue	switch	twobytwo	71.0	0.355	orange	9.0	cue_switch	color	stay	s192	0
626.462	1.0	0.1	True	71.0	High-Low	n/a	twobytwo	71.0	0.583	orange	3.0	task_switch	magnitude	switch	s192	0
629.367	1.0	0.9	True	89.0	Color	n/a	twobytwo	89.0	0.809	blue	7.0	task_switch	color	switch	s192	0
631.61	1.0	0.1	True	89.0	Color	stay	twobytwo	89.0	0.495	blue	7.0	cue_stay	color	stay	s192	0
633.719	1.0	0.1	True	71.0	High-Low	n/a	twobytwo	71.0	0.768	orange	1.0	task_switch	magnitude	switch	s192	0
636.76	1.0	0.9	True	71.0	High-Low	stay	twobytwo	71.0	0.427	orange	2.0	cue_stay	magnitude	stay	s192	0
640.21	1.0	0.9	True	89.0	Magnitude	switch	twobytwo	89.0	1.463	blue	7.0	cue_switch	magnitude	stay	s192	0
642.998	1.0	0.1	True	89.0	Magnitude	stay	twobytwo	89.0	0.461	blue	7.0	cue_stay	magnitude	stay	s192	0
646.193	1.0	0.1	True	89.0	Magnitude	stay	twobytwo	89.0	0.508	blue	6.0	cue_stay	magnitude	stay	s192	0
648.437	1.0	0.1	True	71.0	Color	n/a	twobytwo	71.0	0.704	orange	1.0	task_switch	color	switch	s192	0
651.891	1.0	0.9	True	89.0	Magnitude	n/a	twobytwo	89.0	0.857	blue	9.0	task_switch	magnitude	switch	s192	0
654.797	1.0	0.9	True	89.0	Magnitude	stay	twobytwo	89.0	0.392	blue	9.0	cue_stay	magnitude	stay	s192	0
657.039	1.0	0.1	False	89.0	High-Low	switch	twobytwo	71.0	0.745	orange	9.0	cue_switch	magnitude	stay	s192	0
659.944	1.0	0.9	True	71.0	High-Low	stay	twobytwo	71.0	0.503	orange	4.0	cue_stay	magnitude	stay	s192	0
662.464	1.0	0.1	True	71.0	Color	n/a	twobytwo	71.0	0.389	orange	7.0	task_switch	color	switch	s192	0
665.37	1.0	0.9	True	89.0	Orange-Blue	switch	twobytwo	89.0	0.44	blue	6.0	cue_switch	color	stay	s192	0
667.477	1.0	0.1	True	89.0	Color	switch	twobytwo	89.0	0.514	blue	8.0	cue_switch	color	stay	s192	0
669.585	1.0	0.1	True	71.0	Magnitude	n/a	twobytwo	71.0	0.6	orange	4.0	task_switch	magnitude	switch	s192	0
673.173	1.0	0.9	True	89.0	Color	n/a	twobytwo	89.0	0.416	blue	8.0	task_switch	color	switch	s192	0
676.35	1.0	0.9	False	89.0	Magnitude	n/a	twobytwo	71.0	0.716	orange	8.0	task_switch	magnitude	switch	s192	0
