onset	duration	planning	condition	current_position	exp_stage	experiment_exp_id	goal_state	key_press	problem_id	response_time	start_state	trial_id	worker_id
-63.371	0.0	0	n/a	n/a	n/a	ward_and_allport	n/a	32.0	n/a	25.494	n/a	instructions	s192
3.01	4.159	1	UA_with_intermediate	1,0,0,2,0,0,0,0,0	practice	ward_and_allport	1,2,3,0,0,0,0,0,0	71.0	0.0	4.159	1,0,0,2,3,0,0,0,0	to_hand	s192
7.171	0.64	0	UA_with_intermediate	1,0,0,2,0,0,3,0,0	practice	ward_and_allport	1,2,3,0,0,0,0,0,0	82.0	0.0	0.64	1,0,0,2,3,0,0,0,0	to_board	s192
7.814	0.711	0	UA_with_intermediate	1,0,0,0,0,0,3,0,0	practice	ward_and_allport	1,2,3,0,0,0,0,0,0	71.0	0.0	0.711	1,0,0,2,3,0,0,0,0	to_hand	s192
8.526	0.505	0	UA_with_intermediate	1,2,0,0,0,0,3,0,0	practice	ward_and_allport	1,2,3,0,0,0,0,0,0	89.0	0.0	0.505	1,0,0,2,3,0,0,0,0	to_board	s192
9.033	0.727	0	UA_with_intermediate	1,2,0,0,0,0,0,0,0	practice	ward_and_allport	1,2,3,0,0,0,0,0,0	82.0	0.0	0.727	1,0,0,2,3,0,0,0,0	to_hand	s192
9.762	0.618	0	UA_with_intermediate	1,2,3,0,0,0,0,0,0	practice	ward_and_allport	1,2,3,0,0,0,0,0,0	89.0	0.0	0.618	1,0,0,2,3,0,0,0,0	to_board	s192
10.384	1.0	0	UA_with_intermediate	n/a	practice	ward_and_allport	n/a	-1.0	0.0	n/a	n/a	feedback	s192
12.886	4.327	1	UA_with_intermediate	1,2,0,0,0,0,0,0,0	practice	ward_and_allport	1,3,2,0,0,0,0,0,0	71.0	1.0	4.327	1,2,0,3,0,0,0,0,0	to_hand	s192
17.214	2.193	0	UA_with_intermediate	1,2,0,3,0,0,0,0,0	practice	ward_and_allport	1,3,2,0,0,0,0,0,0	71.0	1.0	2.193	1,2,0,3,0,0,0,0,0	to_board	s192
19.409	0.45	0	UA_with_intermediate	1,0,0,3,0,0,0,0,0	practice	ward_and_allport	1,3,2,0,0,0,0,0,0	89.0	1.0	0.45	1,2,0,3,0,0,0,0,0	to_hand	s192
19.86	0.78	0	UA_with_intermediate	1,0,0,3,0,0,2,0,0	practice	ward_and_allport	1,3,2,0,0,0,0,0,0	82.0	1.0	0.78	1,2,0,3,0,0,0,0,0	to_board	s192
20.642	0.948	0	UA_with_intermediate	1,0,0,0,0,0,2,0,0	practice	ward_and_allport	1,3,2,0,0,0,0,0,0	71.0	1.0	0.948	1,2,0,3,0,0,0,0,0	to_hand	s192
21.59	0.582	0	UA_with_intermediate	1,3,0,0,0,0,2,0,0	practice	ward_and_allport	1,3,2,0,0,0,0,0,0	89.0	1.0	0.582	1,2,0,3,0,0,0,0,0	to_board	s192
22.174	0.514	0	UA_with_intermediate	1,3,0,0,0,0,0,0,0	practice	ward_and_allport	1,3,2,0,0,0,0,0,0	82.0	1.0	0.514	1,2,0,3,0,0,0,0,0	to_hand	s192
22.689	0.454	0	UA_with_intermediate	1,3,2,0,0,0,0,0,0	practice	ward_and_allport	1,3,2,0,0,0,0,0,0	89.0	1.0	0.454	1,2,0,3,0,0,0,0,0	to_board	s192
23.145	1.0	0	UA_with_intermediate	n/a	practice	ward_and_allport	n/a	-1.0	1.0	n/a	n/a	feedback	s192
24.145	1.1	0	UA_with_intermediate	n/a	practice	ward_and_allport	n/a	-1.0	1.0	n/a	n/a	ITI	s192
25.248	3.213	1	UA_without_intermediate	0,0,0,1,2,0,0,0,0	practice	ward_and_allport	3,2,1,0,0,0,0,0,0	82.0	2.0	3.213	0,0,0,1,2,0,3,0,0	to_hand	s192
28.461	0.656	0	UA_without_intermediate	3,0,0,1,2,0,0,0,0	practice	ward_and_allport	3,2,1,0,0,0,0,0,0	89.0	2.0	0.656	0,0,0,1,2,0,3,0,0	to_board	s192
29.119	0.917	0	UA_without_intermediate	3,0,0,1,0,0,0,0,0	practice	ward_and_allport	3,2,1,0,0,0,0,0,0	71.0	2.0	0.917	0,0,0,1,2,0,3,0,0	to_hand	s192
30.037	1.636	0	UA_without_intermediate	3,2,0,1,0,0,0,0,0	practice	ward_and_allport	3,2,1,0,0,0,0,0,0	89.0	2.0	1.636	0,0,0,1,2,0,3,0,0	to_board	s192
31.676	0.613	0	UA_without_intermediate	3,2,0,0,0,0,0,0,0	practice	ward_and_allport	3,2,1,0,0,0,0,0,0	71.0	2.0	0.613	0,0,0,1,2,0,3,0,0	to_hand	s192
32.289	0.527	0	UA_without_intermediate	3,2,1,0,0,0,0,0,0	practice	ward_and_allport	3,2,1,0,0,0,0,0,0	89.0	2.0	0.527	0,0,0,1,2,0,3,0,0	to_board	s192
32.82	1.0	0	UA_without_intermediate	n/a	practice	ward_and_allport	n/a	-1.0	2.0	n/a	n/a	feedback	s192
33.82	1.2	0	UA_without_intermediate	n/a	practice	ward_and_allport	n/a	-1.0	2.0	n/a	n/a	ITI	s192
35.023	4.346	1	UA_without_intermediate	0,0,0,1,0,0,3,0,0	practice	ward_and_allport	2,3,1,0,0,0,0,0,0	71.0	3.0	4.346	0,0,0,1,2,0,3,0,0	to_hand	s192
39.37	0.503	0	UA_without_intermediate	2,0,0,1,0,0,3,0,0	practice	ward_and_allport	2,3,1,0,0,0,0,0,0	89.0	3.0	0.503	0,0,0,1,2,0,3,0,0	to_board	s192
39.876	0.664	0	UA_without_intermediate	2,0,0,1,0,0,0,0,0	practice	ward_and_allport	2,3,1,0,0,0,0,0,0	82.0	3.0	0.664	0,0,0,1,2,0,3,0,0	to_hand	s192
40.541	0.531	0	UA_without_intermediate	2,3,0,1,0,0,0,0,0	practice	ward_and_allport	2,3,1,0,0,0,0,0,0	89.0	3.0	0.531	0,0,0,1,2,0,3,0,0	to_board	s192
41.074	0.763	0	UA_without_intermediate	2,3,0,0,0,0,0,0,0	practice	ward_and_allport	2,3,1,0,0,0,0,0,0	71.0	3.0	0.763	0,0,0,1,2,0,3,0,0	to_hand	s192
41.839	0.492	0	UA_without_intermediate	2,3,1,0,0,0,0,0,0	practice	ward_and_allport	2,3,1,0,0,0,0,0,0	89.0	3.0	0.492	0,0,0,1,2,0,3,0,0	to_board	s192
42.338	1.0	0	UA_without_intermediate	n/a	practice	ward_and_allport	n/a	-1.0	3.0	n/a	n/a	feedback	s192
43.338	1.0	0	UA_without_intermediate	n/a	practice	ward_and_allport	n/a	-1.0	3.0	n/a	n/a	ITI	s192
46.345	4.336	1	PA_without_intermediate	0,0,0,1,2,0,0,0,0	test	ward_and_allport	3,2,0,0,0,0,1,0,0	71.0	0.0	4.336	0,0,0,1,2,3,0,0,0	to_hand	s192
50.683	0.739	0	PA_without_intermediate	3,0,0,1,2,0,0,0,0	test	ward_and_allport	3,2,0,0,0,0,1,0,0	89.0	0.0	0.739	0,0,0,1,2,3,0,0,0	to_board	s192
51.424	0.609	0	PA_without_intermediate	3,0,0,1,0,0,0,0,0	test	ward_and_allport	3,2,0,0,0,0,1,0,0	71.0	0.0	0.609	0,0,0,1,2,3,0,0,0	to_hand	s192
52.034	0.89	0	PA_without_intermediate	3,2,0,1,0,0,0,0,0	test	ward_and_allport	3,2,0,0,0,0,1,0,0	89.0	0.0	0.89	0,0,0,1,2,3,0,0,0	to_board	s192
52.926	0.55	0	PA_without_intermediate	3,2,0,0,0,0,0,0,0	test	ward_and_allport	3,2,0,0,0,0,1,0,0	71.0	0.0	0.55	0,0,0,1,2,3,0,0,0	to_hand	s192
53.478	0.476	0	PA_without_intermediate	3,2,0,0,0,0,1,0,0	test	ward_and_allport	3,2,0,0,0,0,1,0,0	82.0	0.0	0.476	0,0,0,1,2,3,0,0,0	to_board	s192
53.959	1.0	0	PA_without_intermediate	n/a	test	ward_and_allport	n/a	-1.0	0.0	n/a	n/a	feedback	s192
54.959	2.088	0	PA_without_intermediate	n/a	test	ward_and_allport	n/a	-1.0	0.0	n/a	n/a	ITI	s192
57.049	4.693	1	PA_with_intermediate	1,2,0,0,0,0,0,0,0	test	ward_and_allport	1,3,0,2,0,0,0,0,0	89.0	1.0	4.693	1,2,3,0,0,0,0,0,0	to_hand	s192
61.744	0.621	0	PA_with_intermediate	1,2,0,3,0,0,0,0,0	test	ward_and_allport	1,3,0,2,0,0,0,0,0	71.0	1.0	0.621	1,2,3,0,0,0,0,0,0	to_board	s192
62.367	2.789	0	PA_with_intermediate	1,2,0,0,0,0,0,0,0	test	ward_and_allport	1,3,0,2,0,0,0,0,0	71.0	1.0	2.789	1,2,3,0,0,0,0,0,0	to_hand	s192
65.157	0.841	0	PA_with_intermediate	1,2,0,0,0,0,3,0,0	test	ward_and_allport	1,3,0,2,0,0,0,0,0	82.0	1.0	0.841	1,2,3,0,0,0,0,0,0	to_board	s192
66.001	0.509	0	PA_with_intermediate	1,0,0,0,0,0,3,0,0	test	ward_and_allport	1,3,0,2,0,0,0,0,0	89.0	1.0	0.509	1,2,3,0,0,0,0,0,0	to_hand	s192
66.511	0.466	0	PA_with_intermediate	1,0,0,2,0,0,3,0,0	test	ward_and_allport	1,3,0,2,0,0,0,0,0	71.0	1.0	0.466	1,2,3,0,0,0,0,0,0	to_board	s192
66.98	0.483	0	PA_with_intermediate	1,0,0,2,0,0,0,0,0	test	ward_and_allport	1,3,0,2,0,0,0,0,0	82.0	1.0	0.483	1,2,3,0,0,0,0,0,0	to_hand	s192
67.464	0.37	0	PA_with_intermediate	1,3,0,2,0,0,0,0,0	test	ward_and_allport	1,3,0,2,0,0,0,0,0	89.0	1.0	0.37	1,2,3,0,0,0,0,0,0	to_board	s192
67.837	1.0	0	PA_with_intermediate	n/a	test	ward_and_allport	n/a	-1.0	1.0	n/a	n/a	feedback	s192
68.837	1.0	0	PA_with_intermediate	n/a	test	ward_and_allport	n/a	-1.0	1.0	n/a	n/a	ITI	s192
69.84	4.036	1	PA_without_intermediate	0,0,0,0,0,0,1,2,0	test	ward_and_allport	2,0,0,3,1,0,0,0,0	82.0	2.0	4.036	0,0,0,0,0,0,1,2,3	to_hand	s192
73.877	0.522	0	PA_without_intermediate	0,0,0,3,0,0,1,2,0	test	ward_and_allport	2,0,0,3,1,0,0,0,0	71.0	2.0	0.522	0,0,0,0,0,0,1,2,3	to_board	s192
74.402	1.062	0	PA_without_intermediate	0,0,0,3,0,0,1,0,0	test	ward_and_allport	2,0,0,3,1,0,0,0,0	82.0	2.0	1.062	0,0,0,0,0,0,1,2,3	to_hand	s192
75.465	0.729	0	PA_without_intermediate	2,0,0,3,0,0,1,0,0	test	ward_and_allport	2,0,0,3,1,0,0,0,0	89.0	2.0	0.729	0,0,0,0,0,0,1,2,3	to_board	s192
76.198	1.153	0	PA_without_intermediate	2,0,0,3,0,0,0,0,0	test	ward_and_allport	2,0,0,3,1,0,0,0,0	82.0	2.0	1.153	0,0,0,0,0,0,1,2,3	to_hand	s192
77.352	0.492	0	PA_without_intermediate	2,0,0,3,1,0,0,0,0	test	ward_and_allport	2,0,0,3,1,0,0,0,0	71.0	2.0	0.492	0,0,0,0,0,0,1,2,3	to_board	s192
77.848	1.0	0	PA_without_intermediate	n/a	test	ward_and_allport	n/a	-1.0	2.0	n/a	n/a	feedback	s192
78.848	1.0	0	PA_without_intermediate	n/a	test	ward_and_allport	n/a	-1.0	2.0	n/a	n/a	ITI	s192
79.852	3.438	1	PA_without_intermediate	0,0,0,1,2,0,0,0,0	test	ward_and_allport	2,0,0,0,0,0,3,1,0	71.0	3.0	3.438	0,0,0,1,2,3,0,0,0	to_hand	s192
83.29	0.46	0	PA_without_intermediate	0,0,0,1,2,0,3,0,0	test	ward_and_allport	2,0,0,0,0,0,3,1,0	82.0	3.0	0.46	0,0,0,1,2,3,0,0,0	to_board	s192
83.753	0.477	0	PA_without_intermediate	0,0,0,1,0,0,3,0,0	test	ward_and_allport	2,0,0,0,0,0,3,1,0	71.0	3.0	0.477	0,0,0,1,2,3,0,0,0	to_hand	s192
84.231	0.556	0	PA_without_intermediate	2,0,0,1,0,0,3,0,0	test	ward_and_allport	2,0,0,0,0,0,3,1,0	89.0	3.0	0.556	0,0,0,1,2,3,0,0,0	to_board	s192
84.79	0.475	0	PA_without_intermediate	2,0,0,0,0,0,3,0,0	test	ward_and_allport	2,0,0,0,0,0,3,1,0	71.0	3.0	0.475	0,0,0,1,2,3,0,0,0	to_hand	s192
85.266	0.542	0	PA_without_intermediate	2,0,0,0,0,0,3,1,0	test	ward_and_allport	2,0,0,0,0,0,3,1,0	82.0	3.0	0.542	0,0,0,1,2,3,0,0,0	to_board	s192
85.812	1.0	0	PA_without_intermediate	n/a	test	ward_and_allport	n/a	-1.0	3.0	n/a	n/a	feedback	s192
86.812	1.0	0	PA_without_intermediate	n/a	test	ward_and_allport	n/a	-1.0	3.0	n/a	n/a	ITI	s192
87.814	3.386	1	PA_with_intermediate	1,2,0,0,0,0,0,0,0	test	ward_and_allport	1,0,0,0,0,0,2,3,0	89.0	4.0	3.386	1,2,3,0,0,0,0,0,0	to_hand	s192
91.202	0.455	0	PA_with_intermediate	1,2,0,3,0,0,0,0,0	test	ward_and_allport	1,0,0,0,0,0,2,3,0	71.0	4.0	0.455	1,2,3,0,0,0,0,0,0	to_board	s192
91.66	1.477	0	PA_with_intermediate	1,0,0,3,0,0,0,0,0	test	ward_and_allport	1,0,0,0,0,0,2,3,0	89.0	4.0	1.477	1,2,3,0,0,0,0,0,0	to_hand	s192
93.138	0.668	0	PA_with_intermediate	1,0,0,3,0,0,2,0,0	test	ward_and_allport	1,0,0,0,0,0,2,3,0	82.0	4.0	0.668	1,2,3,0,0,0,0,0,0	to_board	s192
93.809	0.464	0	PA_with_intermediate	1,0,0,0,0,0,2,0,0	test	ward_and_allport	1,0,0,0,0,0,2,3,0	71.0	4.0	0.464	1,2,3,0,0,0,0,0,0	to_hand	s192
94.274	0.396	0	PA_with_intermediate	1,0,0,0,0,0,2,3,0	test	ward_and_allport	1,0,0,0,0,0,2,3,0	82.0	4.0	0.396	1,2,3,0,0,0,0,0,0	to_board	s192
94.676	1.0	0	PA_with_intermediate	n/a	test	ward_and_allport	n/a	-1.0	4.0	n/a	n/a	feedback	s192
95.676	1.544	0	PA_with_intermediate	n/a	test	ward_and_allport	n/a	-1.0	4.0	n/a	n/a	ITI	s192
97.224	3.472	1	PA_without_intermediate	0,0,0,1,2,0,0,0,0	test	ward_and_allport	3,1,0,0,0,0,2,0,0	71.0	5.0	3.472	0,0,0,1,2,3,0,0,0	to_hand	s192
100.697	0.42	0	PA_without_intermediate	3,0,0,1,2,0,0,0,0	test	ward_and_allport	3,1,0,0,0,0,2,0,0	89.0	5.0	0.42	0,0,0,1,2,3,0,0,0	to_board	s192
101.12	0.555	0	PA_without_intermediate	3,0,0,1,0,0,0,0,0	test	ward_and_allport	3,1,0,0,0,0,2,0,0	71.0	5.0	0.555	0,0,0,1,2,3,0,0,0	to_hand	s192
101.676	0.455	0	PA_without_intermediate	3,0,0,1,0,0,2,0,0	test	ward_and_allport	3,1,0,0,0,0,2,0,0	82.0	5.0	0.455	0,0,0,1,2,3,0,0,0	to_board	s192
102.135	0.455	0	PA_without_intermediate	3,0,0,0,0,0,2,0,0	test	ward_and_allport	3,1,0,0,0,0,2,0,0	71.0	5.0	0.455	0,0,0,1,2,3,0,0,0	to_hand	s192
102.59	0.434	0	PA_without_intermediate	3,1,0,0,0,0,2,0,0	test	ward_and_allport	3,1,0,0,0,0,2,0,0	89.0	5.0	0.434	0,0,0,1,2,3,0,0,0	to_board	s192
103.028	1.0	0	PA_without_intermediate	n/a	test	ward_and_allport	n/a	-1.0	5.0	n/a	n/a	feedback	s192
104.028	1.272	0	PA_without_intermediate	n/a	test	ward_and_allport	n/a	-1.0	5.0	n/a	n/a	ITI	s192
105.304	3.077	1	PA_with_intermediate	0,0,0,1,2,0,0,0,0	test	ward_and_allport	0,0,0,1,0,0,2,3,0	71.0	6.0	3.077	0,0,0,1,2,3,0,0,0	to_hand	s192
108.381	0.767	0	PA_with_intermediate	3,0,0,1,2,0,0,0,0	test	ward_and_allport	0,0,0,1,0,0,2,3,0	89.0	6.0	0.767	0,0,0,1,2,3,0,0,0	to_board	s192
109.151	0.51	0	PA_with_intermediate	3,0,0,1,0,0,0,0,0	test	ward_and_allport	0,0,0,1,0,0,2,3,0	71.0	6.0	0.51	0,0,0,1,2,3,0,0,0	to_hand	s192
109.662	0.459	0	PA_with_intermediate	3,0,0,1,0,0,2,0,0	test	ward_and_allport	0,0,0,1,0,0,2,3,0	82.0	6.0	0.459	0,0,0,1,2,3,0,0,0	to_board	s192
110.124	0.418	0	PA_with_intermediate	0,0,0,1,0,0,2,0,0	test	ward_and_allport	0,0,0,1,0,0,2,3,0	89.0	6.0	0.418	0,0,0,1,2,3,0,0,0	to_hand	s192
110.544	0.491	0	PA_with_intermediate	0,0,0,1,0,0,2,3,0	test	ward_and_allport	0,0,0,1,0,0,2,3,0	82.0	6.0	0.491	0,0,0,1,2,3,0,0,0	to_board	s192
111.042	1.0	0	PA_with_intermediate	n/a	test	ward_and_allport	n/a	-1.0	6.0	n/a	n/a	feedback	s192
112.042	3.04	0	PA_with_intermediate	n/a	test	ward_and_allport	n/a	-1.0	6.0	n/a	n/a	ITI	s192
115.085	3.936	1	PA_with_intermediate	1,2,0,0,0,0,0,0,0	test	ward_and_allport	1,3,0,2,0,0,0,0,0	89.0	7.0	3.936	1,2,3,0,0,0,0,0,0	to_hand	s192
119.022	0.419	0	PA_with_intermediate	1,2,0,0,0,0,3,0,0	test	ward_and_allport	1,3,0,2,0,0,0,0,0	82.0	7.0	0.419	1,2,3,0,0,0,0,0,0	to_board	s192
119.445	0.868	0	PA_with_intermediate	1,0,0,0,0,0,3,0,0	test	ward_and_allport	1,3,0,2,0,0,0,0,0	89.0	7.0	0.868	1,2,3,0,0,0,0,0,0	to_hand	s192
120.314	0.394	0	PA_with_intermediate	1,0,0,2,0,0,3,0,0	test	ward_and_allport	1,3,0,2,0,0,0,0,0	71.0	7.0	0.394	1,2,3,0,0,0,0,0,0	to_board	s192
120.712	0.595	0	PA_with_intermediate	1,0,0,2,0,0,0,0,0	test	ward_and_allport	1,3,0,2,0,0,0,0,0	82.0	7.0	0.595	1,2,3,0,0,0,0,0,0	to_hand	s192
121.307	0.375	0	PA_with_intermediate	1,3,0,2,0,0,0,0,0	test	ward_and_allport	1,3,0,2,0,0,0,0,0	89.0	7.0	0.375	1,2,3,0,0,0,0,0,0	to_board	s192
121.69	1.0	0	PA_with_intermediate	n/a	test	ward_and_allport	n/a	-1.0	7.0	n/a	n/a	feedback	s192
122.69	1.272	0	PA_with_intermediate	n/a	test	ward_and_allport	n/a	-1.0	7.0	n/a	n/a	ITI	s192
123.965	3.519	1	PA_with_intermediate	0,0,0,1,2,0,0,0,0	test	ward_and_allport	2,0,0,1,3,0,0,0,0	71.0	8.0	3.519	0,0,0,1,2,3,0,0,0	to_hand	s192
127.485	0.428	0	PA_with_intermediate	0,0,0,1,2,0,3,0,0	test	ward_and_allport	2,0,0,1,3,0,0,0,0	82.0	8.0	0.428	0,0,0,1,2,3,0,0,0	to_board	s192
127.917	0.456	0	PA_with_intermediate	0,0,0,1,0,0,3,0,0	test	ward_and_allport	2,0,0,1,3,0,0,0,0	71.0	8.0	0.456	0,0,0,1,2,3,0,0,0	to_hand	s192
128.375	0.396	0	PA_with_intermediate	2,0,0,1,0,0,3,0,0	test	ward_and_allport	2,0,0,1,3,0,0,0,0	89.0	8.0	0.396	0,0,0,1,2,3,0,0,0	to_board	s192
128.776	0.441	0	PA_with_intermediate	2,0,0,1,0,0,0,0,0	test	ward_and_allport	2,0,0,1,3,0,0,0,0	82.0	8.0	0.441	0,0,0,1,2,3,0,0,0	to_hand	s192
129.218	0.405	0	PA_with_intermediate	2,0,0,1,3,0,0,0,0	test	ward_and_allport	2,0,0,1,3,0,0,0,0	71.0	8.0	0.405	0,0,0,1,2,3,0,0,0	to_board	s192
129.629	1.0	0	PA_with_intermediate	n/a	test	ward_and_allport	n/a	-1.0	8.0	n/a	n/a	feedback	s192
130.629	1.136	0	PA_with_intermediate	n/a	test	ward_and_allport	n/a	-1.0	8.0	n/a	n/a	ITI	s192
131.77	3.453	1	PA_with_intermediate	0,0,0,0,0,0,1,2,0	test	ward_and_allport	2,3,0,0,0,0,1,0,0	82.0	9.0	3.453	0,0,0,0,0,0,1,2,3	to_hand	s192
135.224	0.428	0	PA_with_intermediate	0,0,0,3,0,0,1,2,0	test	ward_and_allport	2,3,0,0,0,0,1,0,0	71.0	9.0	0.428	0,0,0,0,0,0,1,2,3	to_board	s192
135.656	0.747	0	PA_with_intermediate	0,0,0,3,0,0,1,0,0	test	ward_and_allport	2,3,0,0,0,0,1,0,0	82.0	9.0	0.747	0,0,0,0,0,0,1,2,3	to_hand	s192
136.403	0.366	0	PA_with_intermediate	2,0,0,3,0,0,1,0,0	test	ward_and_allport	2,3,0,0,0,0,1,0,0	89.0	9.0	0.366	0,0,0,0,0,0,1,2,3	to_board	s192
136.774	0.381	0	PA_with_intermediate	2,0,0,0,0,0,1,0,0	test	ward_and_allport	2,3,0,0,0,0,1,0,0	71.0	9.0	0.381	0,0,0,0,0,0,1,2,3	to_hand	s192
137.155	0.343	0	PA_with_intermediate	2,3,0,0,0,0,1,0,0	test	ward_and_allport	2,3,0,0,0,0,1,0,0	89.0	9.0	0.343	0,0,0,0,0,0,1,2,3	to_board	s192
137.504	1.0	0	PA_with_intermediate	n/a	test	ward_and_allport	n/a	-1.0	9.0	n/a	n/a	feedback	s192
138.504	1.0	0	PA_with_intermediate	n/a	test	ward_and_allport	n/a	-1.0	9.0	n/a	n/a	ITI	s192
139.507	3.152	1	PA_with_intermediate	0,0,0,0,0,0,1,2,0	test	ward_and_allport	0,0,0,2,0,0,1,3,0	82.0	10.0	3.152	0,0,0,0,0,0,1,2,3	to_hand	s192
142.66	0.417	0	PA_with_intermediate	3,0,0,0,0,0,1,2,0	test	ward_and_allport	0,0,0,2,0,0,1,3,0	89.0	10.0	0.417	0,0,0,0,0,0,1,2,3	to_board	s192
143.082	0.758	0	PA_with_intermediate	3,0,0,0,0,0,1,0,0	test	ward_and_allport	0,0,0,2,0,0,1,3,0	82.0	10.0	0.758	0,0,0,0,0,0,1,2,3	to_hand	s192
143.841	0.399	0	PA_with_intermediate	3,0,0,2,0,0,1,0,0	test	ward_and_allport	0,0,0,2,0,0,1,3,0	71.0	10.0	0.399	0,0,0,0,0,0,1,2,3	to_board	s192
144.244	0.448	0	PA_with_intermediate	0,0,0,2,0,0,1,0,0	test	ward_and_allport	0,0,0,2,0,0,1,3,0	89.0	10.0	0.448	0,0,0,0,0,0,1,2,3	to_hand	s192
144.694	0.49	0	PA_with_intermediate	0,0,0,2,0,0,1,3,0	test	ward_and_allport	0,0,0,2,0,0,1,3,0	82.0	10.0	0.49	0,0,0,0,0,0,1,2,3	to_board	s192
145.19	1.0	0	PA_with_intermediate	n/a	test	ward_and_allport	n/a	-1.0	10.0	n/a	n/a	feedback	s192
146.19	1.0	0	PA_with_intermediate	n/a	test	ward_and_allport	n/a	-1.0	10.0	n/a	n/a	ITI	s192
147.194	3.224	1	PA_without_intermediate	1,2,0,0,0,0,0,0,0	test	ward_and_allport	0,0,0,2,0,0,3,1,0	89.0	11.0	3.224	1,2,3,0,0,0,0,0,0	to_hand	s192
150.418	0.565	0	PA_without_intermediate	1,2,0,0,0,0,3,0,0	test	ward_and_allport	0,0,0,2,0,0,3,1,0	82.0	11.0	0.565	1,2,3,0,0,0,0,0,0	to_board	s192
150.988	0.476	0	PA_without_intermediate	1,0,0,0,0,0,3,0,0	test	ward_and_allport	0,0,0,2,0,0,3,1,0	89.0	11.0	0.476	1,2,3,0,0,0,0,0,0	to_hand	s192
151.464	0.432	0	PA_without_intermediate	1,0,0,2,0,0,3,0,0	test	ward_and_allport	0,0,0,2,0,0,3,1,0	71.0	11.0	0.432	1,2,3,0,0,0,0,0,0	to_board	s192
151.901	0.423	0	PA_without_intermediate	0,0,0,2,0,0,3,0,0	test	ward_and_allport	0,0,0,2,0,0,3,1,0	89.0	11.0	0.423	1,2,3,0,0,0,0,0,0	to_hand	s192
152.324	0.696	0	PA_without_intermediate	0,0,0,2,0,0,3,1,0	test	ward_and_allport	0,0,0,2,0,0,3,1,0	82.0	11.0	0.696	1,2,3,0,0,0,0,0,0	to_board	s192
153.028	1.0	0	PA_without_intermediate	n/a	test	ward_and_allport	n/a	-1.0	11.0	n/a	n/a	feedback	s192
154.028	1.408	0	PA_without_intermediate	n/a	test	ward_and_allport	n/a	-1.0	11.0	n/a	n/a	ITI	s192
155.44	2.502	1	PA_with_intermediate	0,0,0,0,0,0,1,2,0	test	ward_and_allport	0,0,0,2,0,0,1,3,0	82.0	12.0	2.502	0,0,0,0,0,0,1,2,3	to_hand	s192
157.943	0.536	0	PA_with_intermediate	3,0,0,0,0,0,1,2,0	test	ward_and_allport	0,0,0,2,0,0,1,3,0	89.0	12.0	0.536	0,0,0,0,0,0,1,2,3	to_board	s192
158.484	0.478	0	PA_with_intermediate	3,0,0,0,0,0,1,0,0	test	ward_and_allport	0,0,0,2,0,0,1,3,0	82.0	12.0	0.478	0,0,0,0,0,0,1,2,3	to_hand	s192
158.964	0.729	0	PA_with_intermediate	3,0,0,2,0,0,1,0,0	test	ward_and_allport	0,0,0,2,0,0,1,3,0	71.0	12.0	0.729	0,0,0,0,0,0,1,2,3	to_board	s192
159.698	0.442	0	PA_with_intermediate	0,0,0,2,0,0,1,0,0	test	ward_and_allport	0,0,0,2,0,0,1,3,0	89.0	12.0	0.442	0,0,0,0,0,0,1,2,3	to_hand	s192
160.141	0.494	0	PA_with_intermediate	0,0,0,2,0,0,1,3,0	test	ward_and_allport	0,0,0,2,0,0,1,3,0	82.0	12.0	0.494	0,0,0,0,0,0,1,2,3	to_board	s192
160.641	1.0	0	PA_with_intermediate	n/a	test	ward_and_allport	n/a	-1.0	12.0	n/a	n/a	feedback	s192
161.641	2.768	0	PA_with_intermediate	n/a	test	ward_and_allport	n/a	-1.0	12.0	n/a	n/a	ITI	s192
164.414	2.735	1	PA_with_intermediate	0,0,0,1,2,0,0,0,0	test	ward_and_allport	0,0,0,1,3,0,2,0,0	71.0	13.0	2.735	0,0,0,1,2,3,0,0,0	to_hand	s192
167.151	0.423	0	PA_with_intermediate	3,0,0,1,2,0,0,0,0	test	ward_and_allport	0,0,0,1,3,0,2,0,0	89.0	13.0	0.423	0,0,0,1,2,3,0,0,0	to_board	s192
167.577	0.476	0	PA_with_intermediate	3,0,0,1,0,0,0,0,0	test	ward_and_allport	0,0,0,1,3,0,2,0,0	71.0	13.0	0.476	0,0,0,1,2,3,0,0,0	to_hand	s192
168.055	0.426	0	PA_with_intermediate	3,0,0,1,0,0,2,0,0	test	ward_and_allport	0,0,0,1,3,0,2,0,0	82.0	13.0	0.426	0,0,0,1,2,3,0,0,0	to_board	s192
168.485	0.383	0	PA_with_intermediate	0,0,0,1,0,0,2,0,0	test	ward_and_allport	0,0,0,1,3,0,2,0,0	89.0	13.0	0.383	0,0,0,1,2,3,0,0,0	to_hand	s192
168.87	0.365	0	PA_with_intermediate	0,0,0,1,3,0,2,0,0	test	ward_and_allport	0,0,0,1,3,0,2,0,0	71.0	13.0	0.365	0,0,0,1,2,3,0,0,0	to_board	s192
169.241	1.0	0	PA_with_intermediate	n/a	test	ward_and_allport	n/a	-1.0	13.0	n/a	n/a	feedback	s192
170.241	1.68	0	PA_with_intermediate	n/a	test	ward_and_allport	n/a	-1.0	13.0	n/a	n/a	ITI	s192
171.925	3.062	1	PA_without_intermediate	0,0,0,0,0,0,1,2,0	test	ward_and_allport	3,2,0,1,0,0,0,0,0	82.0	14.0	3.062	0,0,0,0,0,0,1,2,3	to_hand	s192
174.988	0.391	0	PA_without_intermediate	3,0,0,0,0,0,1,2,0	test	ward_and_allport	3,2,0,1,0,0,0,0,0	89.0	14.0	0.391	0,0,0,0,0,0,1,2,3	to_board	s192
175.383	0.466	0	PA_without_intermediate	3,0,0,0,0,0,1,0,0	test	ward_and_allport	3,2,0,1,0,0,0,0,0	82.0	14.0	0.466	0,0,0,0,0,0,1,2,3	to_hand	s192
175.85	0.376	0	PA_without_intermediate	3,2,0,0,0,0,1,0,0	test	ward_and_allport	3,2,0,1,0,0,0,0,0	89.0	14.0	0.376	0,0,0,0,0,0,1,2,3	to_board	s192
176.23	0.745	0	PA_without_intermediate	3,2,0,0,0,0,0,0,0	test	ward_and_allport	3,2,0,1,0,0,0,0,0	82.0	14.0	0.745	0,0,0,0,0,0,1,2,3	to_hand	s192
176.976	0.382	0	PA_without_intermediate	3,2,0,1,0,0,0,0,0	test	ward_and_allport	3,2,0,1,0,0,0,0,0	71.0	14.0	0.382	0,0,0,0,0,0,1,2,3	to_board	s192
177.364	1.0	0	PA_without_intermediate	n/a	test	ward_and_allport	n/a	-1.0	14.0	n/a	n/a	feedback	s192
178.364	2.224	0	PA_without_intermediate	n/a	test	ward_and_allport	n/a	-1.0	14.0	n/a	n/a	ITI	s192
185.595	3.785	1	PA_without_intermediate	1,2,0,0,0,0,0,0,0	test	ward_and_allport	0,0,0,3,1,0,2,0,0	89.0	15.0	3.785	1,2,3,0,0,0,0,0,0	to_hand	s192
189.382	0.434	0	PA_without_intermediate	1,2,0,3,0,0,0,0,0	test	ward_and_allport	0,0,0,3,1,0,2,0,0	71.0	15.0	0.434	1,2,3,0,0,0,0,0,0	to_board	s192
189.821	0.469	0	PA_without_intermediate	1,0,0,3,0,0,0,0,0	test	ward_and_allport	0,0,0,3,1,0,2,0,0	89.0	15.0	0.469	1,2,3,0,0,0,0,0,0	to_hand	s192
190.29	0.416	0	PA_without_intermediate	1,0,0,3,0,0,2,0,0	test	ward_and_allport	0,0,0,3,1,0,2,0,0	82.0	15.0	0.416	1,2,3,0,0,0,0,0,0	to_board	s192
190.711	0.4	0	PA_without_intermediate	0,0,0,3,0,0,2,0,0	test	ward_and_allport	0,0,0,3,1,0,2,0,0	89.0	15.0	0.4	1,2,3,0,0,0,0,0,0	to_hand	s192
191.112	0.379	0	PA_without_intermediate	0,0,0,3,1,0,2,0,0	test	ward_and_allport	0,0,0,3,1,0,2,0,0	71.0	15.0	0.379	1,2,3,0,0,0,0,0,0	to_board	s192
191.5	1.0	0	PA_without_intermediate	n/a	test	ward_and_allport	n/a	-1.0	15.0	n/a	n/a	feedback	s192
192.5	2.36	0	PA_without_intermediate	n/a	test	ward_and_allport	n/a	-1.0	15.0	n/a	n/a	ITI	s192
194.865	2.797	1	PA_without_intermediate	1,2,0,0,0,0,0,0,0	test	ward_and_allport	0,0,0,1,0,0,3,2,0	89.0	16.0	2.797	1,2,3,0,0,0,0,0,0	to_hand	s192
197.662	0.545	0	PA_without_intermediate	1,2,0,0,0,0,3,0,0	test	ward_and_allport	0,0,0,1,0,0,3,2,0	82.0	16.0	0.545	1,2,3,0,0,0,0,0,0	to_board	s192
198.211	0.385	0	PA_without_intermediate	1,0,0,0,0,0,3,0,0	test	ward_and_allport	0,0,0,1,0,0,3,2,0	89.0	16.0	0.385	1,2,3,0,0,0,0,0,0	to_hand	s192
198.597	0.43	0	PA_without_intermediate	1,0,0,0,0,0,3,2,0	test	ward_and_allport	0,0,0,1,0,0,3,2,0	82.0	16.0	0.43	1,2,3,0,0,0,0,0,0	to_board	s192
199.031	0.382	0	PA_without_intermediate	0,0,0,0,0,0,3,2,0	test	ward_and_allport	0,0,0,1,0,0,3,2,0	89.0	16.0	0.382	1,2,3,0,0,0,0,0,0	to_hand	s192
199.415	0.392	0	PA_without_intermediate	0,0,0,1,0,0,3,2,0	test	ward_and_allport	0,0,0,1,0,0,3,2,0	71.0	16.0	0.392	1,2,3,0,0,0,0,0,0	to_board	s192
199.812	1.0	0	PA_without_intermediate	n/a	test	ward_and_allport	n/a	-1.0	16.0	n/a	n/a	feedback	s192
200.812	1.0	0	PA_without_intermediate	n/a	test	ward_and_allport	n/a	-1.0	16.0	n/a	n/a	ITI	s192
201.817	2.476	1	PA_without_intermediate	0,0,0,0,0,0,1,2,0	test	ward_and_allport	1,0,0,3,2,0,0,0,0	82.0	17.0	2.476	0,0,0,0,0,0,1,2,3	to_hand	s192
204.294	0.377	0	PA_without_intermediate	0,0,0,3,0,0,1,2,0	test	ward_and_allport	1,0,0,3,2,0,0,0,0	71.0	17.0	0.377	0,0,0,0,0,0,1,2,3	to_board	s192
204.676	0.373	0	PA_without_intermediate	0,0,0,3,0,0,1,0,0	test	ward_and_allport	1,0,0,3,2,0,0,0,0	82.0	17.0	0.373	0,0,0,0,0,0,1,2,3	to_hand	s192
205.05	0.405	0	PA_without_intermediate	0,0,0,3,2,0,1,0,0	test	ward_and_allport	1,0,0,3,2,0,0,0,0	71.0	17.0	0.405	0,0,0,0,0,0,1,2,3	to_board	s192
205.461	0.344	0	PA_without_intermediate	0,0,0,3,2,0,0,0,0	test	ward_and_allport	1,0,0,3,2,0,0,0,0	82.0	17.0	0.344	0,0,0,0,0,0,1,2,3	to_hand	s192
205.806	0.37	0	PA_without_intermediate	1,0,0,3,2,0,0,0,0	test	ward_and_allport	1,0,0,3,2,0,0,0,0	89.0	17.0	0.37	0,0,0,0,0,0,1,2,3	to_board	s192
206.181	1.0	0	PA_without_intermediate	n/a	test	ward_and_allport	n/a	-1.0	17.0	n/a	n/a	feedback	s192
207.181	1.408	0	PA_without_intermediate	n/a	test	ward_and_allport	n/a	-1.0	17.0	n/a	n/a	ITI	s192
208.594	3.359	1	PA_with_intermediate	0,0,0,0,0,0,1,2,0	test	ward_and_allport	0,0,0,2,3,0,1,0,0	82.0	18.0	3.359	0,0,0,0,0,0,1,2,3	to_hand	s192
211.954	0.892	0	PA_with_intermediate	3,0,0,0,0,0,1,2,0	test	ward_and_allport	0,0,0,2,3,0,1,0,0	89.0	18.0	0.892	0,0,0,0,0,0,1,2,3	to_board	s192
212.851	0.417	0	PA_with_intermediate	3,0,0,0,0,0,1,0,0	test	ward_and_allport	0,0,0,2,3,0,1,0,0	82.0	18.0	0.417	0,0,0,0,0,0,1,2,3	to_hand	s192
213.269	0.329	0	PA_with_intermediate	3,0,0,2,0,0,1,0,0	test	ward_and_allport	0,0,0,2,3,0,1,0,0	71.0	18.0	0.329	0,0,0,0,0,0,1,2,3	to_board	s192
213.606	0.48	0	PA_with_intermediate	0,0,0,2,0,0,1,0,0	test	ward_and_allport	0,0,0,2,3,0,1,0,0	89.0	18.0	0.48	0,0,0,0,0,0,1,2,3	to_hand	s192
214.087	0.382	0	PA_with_intermediate	0,0,0,2,3,0,1,0,0	test	ward_and_allport	0,0,0,2,3,0,1,0,0	71.0	18.0	0.382	0,0,0,0,0,0,1,2,3	to_board	s192
214.475	1.0	0	PA_with_intermediate	n/a	test	ward_and_allport	n/a	-1.0	18.0	n/a	n/a	feedback	s192
215.475	1.136	0	PA_with_intermediate	n/a	test	ward_and_allport	n/a	-1.0	18.0	n/a	n/a	ITI	s192
216.615	2.375	1	PA_without_intermediate	0,0,0,0,0,0,1,2,0	test	ward_and_allport	2,0,0,3,1,0,0,0,0	82.0	19.0	2.375	0,0,0,0,0,0,1,2,3	to_hand	s192
218.992	0.651	0	PA_without_intermediate	0,0,0,3,0,0,1,2,0	test	ward_and_allport	2,0,0,3,1,0,0,0,0	71.0	19.0	0.651	0,0,0,0,0,0,1,2,3	to_board	s192
219.649	0.945	0	PA_without_intermediate	0,0,0,3,0,0,1,0,0	test	ward_and_allport	2,0,0,3,1,0,0,0,0	82.0	19.0	0.945	0,0,0,0,0,0,1,2,3	to_hand	s192
220.596	0.37	0	PA_without_intermediate	2,0,0,3,0,0,1,0,0	test	ward_and_allport	2,0,0,3,1,0,0,0,0	89.0	19.0	0.37	0,0,0,0,0,0,1,2,3	to_board	s192
220.972	0.538	0	PA_without_intermediate	2,0,0,3,0,0,0,0,0	test	ward_and_allport	2,0,0,3,1,0,0,0,0	82.0	19.0	0.538	0,0,0,0,0,0,1,2,3	to_hand	s192
221.511	0.398	0	PA_without_intermediate	2,0,0,3,1,0,0,0,0	test	ward_and_allport	2,0,0,3,1,0,0,0,0	71.0	19.0	0.398	0,0,0,0,0,0,1,2,3	to_board	s192
221.915	1.0	0	PA_without_intermediate	n/a	test	ward_and_allport	n/a	-1.0	19.0	n/a	n/a	feedback	s192
222.915	4.128	0	PA_without_intermediate	n/a	test	ward_and_allport	n/a	-1.0	19.0	n/a	n/a	ITI	s192
227.049	3.539	1	PA_without_intermediate	1,2,0,0,0,0,0,0,0	test	ward_and_allport	0,0,0,3,1,0,2,0,0	89.0	20.0	3.539	1,2,3,0,0,0,0,0,0	to_hand	s192
230.589	0.397	0	PA_without_intermediate	1,2,0,3,0,0,0,0,0	test	ward_and_allport	0,0,0,3,1,0,2,0,0	71.0	20.0	0.397	1,2,3,0,0,0,0,0,0	to_board	s192
230.992	0.516	0	PA_without_intermediate	1,0,0,3,0,0,0,0,0	test	ward_and_allport	0,0,0,3,1,0,2,0,0	89.0	20.0	0.516	1,2,3,0,0,0,0,0,0	to_hand	s192
231.51	0.491	0	PA_without_intermediate	1,0,0,3,0,0,2,0,0	test	ward_and_allport	0,0,0,3,1,0,2,0,0	82.0	20.0	0.491	1,2,3,0,0,0,0,0,0	to_board	s192
232.007	0.395	0	PA_without_intermediate	0,0,0,3,0,0,2,0,0	test	ward_and_allport	0,0,0,3,1,0,2,0,0	89.0	20.0	0.395	1,2,3,0,0,0,0,0,0	to_hand	s192
232.403	0.33	0	PA_without_intermediate	0,0,0,3,1,0,2,0,0	test	ward_and_allport	0,0,0,3,1,0,2,0,0	71.0	20.0	0.33	1,2,3,0,0,0,0,0,0	to_board	s192
232.739	1.0	0	PA_without_intermediate	n/a	test	ward_and_allport	n/a	-1.0	20.0	n/a	n/a	feedback	s192
233.739	1.136	0	PA_without_intermediate	n/a	test	ward_and_allport	n/a	-1.0	20.0	n/a	n/a	ITI	s192
234.882	2.637	1	PA_without_intermediate	0,0,0,1,2,0,0,0,0	test	ward_and_allport	1,0,0,0,0,0,3,2,0	71.0	21.0	2.637	0,0,0,1,2,3,0,0,0	to_hand	s192
237.52	0.612	0	PA_without_intermediate	0,0,0,1,2,0,3,0,0	test	ward_and_allport	1,0,0,0,0,0,3,2,0	82.0	21.0	0.612	0,0,0,1,2,3,0,0,0	to_board	s192
238.138	0.325	0	PA_without_intermediate	0,0,0,1,0,0,3,0,0	test	ward_and_allport	1,0,0,0,0,0,3,2,0	71.0	21.0	0.325	0,0,0,1,2,3,0,0,0	to_hand	s192
238.464	0.392	0	PA_without_intermediate	0,0,0,1,0,0,3,2,0	test	ward_and_allport	1,0,0,0,0,0,3,2,0	82.0	21.0	0.392	0,0,0,1,2,3,0,0,0	to_board	s192
238.863	0.5	0	PA_without_intermediate	0,0,0,0,0,0,3,2,0	test	ward_and_allport	1,0,0,0,0,0,3,2,0	71.0	21.0	0.5	0,0,0,1,2,3,0,0,0	to_hand	s192
239.363	0.353	0	PA_without_intermediate	1,0,0,0,0,0,3,2,0	test	ward_and_allport	1,0,0,0,0,0,3,2,0	89.0	21.0	0.353	0,0,0,1,2,3,0,0,0	to_board	s192
239.725	1.0	0	PA_without_intermediate	n/a	test	ward_and_allport	n/a	-1.0	21.0	n/a	n/a	feedback	s192
240.725	4.264	0	PA_without_intermediate	n/a	test	ward_and_allport	n/a	-1.0	21.0	n/a	n/a	ITI	s192
244.995	2.938	1	PA_with_intermediate	1,2,0,0,0,0,0,0,0	test	ward_and_allport	1,3,0,0,0,0,2,0,0	89.0	22.0	2.938	1,2,3,0,0,0,0,0,0	to_hand	s192
247.935	0.407	0	PA_with_intermediate	1,2,0,3,0,0,0,0,0	test	ward_and_allport	1,3,0,0,0,0,2,0,0	71.0	22.0	0.407	1,2,3,0,0,0,0,0,0	to_board	s192
248.348	0.379	0	PA_with_intermediate	1,0,0,3,0,0,0,0,0	test	ward_and_allport	1,3,0,0,0,0,2,0,0	89.0	22.0	0.379	1,2,3,0,0,0,0,0,0	to_hand	s192
248.729	0.394	0	PA_with_intermediate	1,0,0,3,0,0,2,0,0	test	ward_and_allport	1,3,0,0,0,0,2,0,0	82.0	22.0	0.394	1,2,3,0,0,0,0,0,0	to_board	s192
249.13	0.539	0	PA_with_intermediate	1,0,0,0,0,0,2,0,0	test	ward_and_allport	1,3,0,0,0,0,2,0,0	71.0	22.0	0.539	1,2,3,0,0,0,0,0,0	to_hand	s192
249.669	0.405	0	PA_with_intermediate	1,3,0,0,0,0,2,0,0	test	ward_and_allport	1,3,0,0,0,0,2,0,0	89.0	22.0	0.405	1,2,3,0,0,0,0,0,0	to_board	s192
250.081	1.0	0	PA_with_intermediate	n/a	test	ward_and_allport	n/a	-1.0	22.0	n/a	n/a	feedback	s192
251.081	3.04	0	PA_with_intermediate	n/a	test	ward_and_allport	n/a	-1.0	22.0	n/a	n/a	ITI	s192
254.127	3.709	1	PA_with_intermediate	0,0,0,0,0,0,1,2,0	test	ward_and_allport	0,0,0,2,3,0,1,0,0	82.0	23.0	3.709	0,0,0,0,0,0,1,2,3	to_hand	s192
257.838	0.379	0	PA_with_intermediate	3,0,0,0,0,0,1,2,0	test	ward_and_allport	0,0,0,2,3,0,1,0,0	89.0	23.0	0.379	0,0,0,0,0,0,1,2,3	to_board	s192
258.224	0.473	0	PA_with_intermediate	3,0,0,0,0,0,1,0,0	test	ward_and_allport	0,0,0,2,3,0,1,0,0	82.0	23.0	0.473	0,0,0,0,0,0,1,2,3	to_hand	s192
258.699	0.425	0	PA_with_intermediate	3,0,0,2,0,0,1,0,0	test	ward_and_allport	0,0,0,2,3,0,1,0,0	71.0	23.0	0.425	0,0,0,0,0,0,1,2,3	to_board	s192
259.132	0.366	0	PA_with_intermediate	0,0,0,2,0,0,1,0,0	test	ward_and_allport	0,0,0,2,3,0,1,0,0	89.0	23.0	0.366	0,0,0,0,0,0,1,2,3	to_hand	s192
259.498	0.319	0	PA_with_intermediate	0,0,0,2,3,0,1,0,0	test	ward_and_allport	0,0,0,2,3,0,1,0,0	71.0	23.0	0.319	0,0,0,0,0,0,1,2,3	to_board	s192
259.825	1.0	0	PA_with_intermediate	n/a	test	ward_and_allport	n/a	-1.0	23.0	n/a	n/a	feedback	s192
260.825	1.136	0	PA_with_intermediate	n/a	test	ward_and_allport	n/a	-1.0	23.0	n/a	n/a	ITI	s192
261.969	2.613	1	PA_with_intermediate	0,0,0,1,2,0,0,0,0	test	ward_and_allport	2,3,0,1,0,0,0,0,0	71.0	24.0	2.613	0,0,0,1,2,3,0,0,0	to_hand	s192
264.583	0.404	0	PA_with_intermediate	0,0,0,1,2,0,3,0,0	test	ward_and_allport	2,3,0,1,0,0,0,0,0	82.0	24.0	0.404	0,0,0,1,2,3,0,0,0	to_board	s192
264.994	0.38	0	PA_with_intermediate	0,0,0,1,0,0,3,0,0	test	ward_and_allport	2,3,0,1,0,0,0,0,0	71.0	24.0	0.38	0,0,0,1,2,3,0,0,0	to_hand	s192
265.375	0.387	0	PA_with_intermediate	2,0,0,1,0,0,3,0,0	test	ward_and_allport	2,3,0,1,0,0,0,0,0	89.0	24.0	0.387	0,0,0,1,2,3,0,0,0	to_board	s192
265.769	0.389	0	PA_with_intermediate	2,0,0,1,0,0,0,0,0	test	ward_and_allport	2,3,0,1,0,0,0,0,0	82.0	24.0	0.389	0,0,0,1,2,3,0,0,0	to_hand	s192
266.159	0.427	0	PA_with_intermediate	2,3,0,1,0,0,0,0,0	test	ward_and_allport	2,3,0,1,0,0,0,0,0	89.0	24.0	0.427	0,0,0,1,2,3,0,0,0	to_board	s192
266.594	1.0	0	PA_with_intermediate	n/a	test	ward_and_allport	n/a	-1.0	24.0	n/a	n/a	feedback	s192
267.594	1.408	0	PA_with_intermediate	n/a	test	ward_and_allport	n/a	-1.0	24.0	n/a	n/a	ITI	s192
269.008	2.292	1	PA_without_intermediate	0,0,0,1,2,0,0,0,0	test	ward_and_allport	1,0,0,0,0,0,3,2,0	71.0	25.0	2.292	0,0,0,1,2,3,0,0,0	to_hand	s192
271.302	0.405	0	PA_without_intermediate	0,0,0,1,2,0,3,0,0	test	ward_and_allport	1,0,0,0,0,0,3,2,0	82.0	25.0	0.405	0,0,0,1,2,3,0,0,0	to_board	s192
271.714	0.416	0	PA_without_intermediate	0,0,0,1,0,0,3,0,0	test	ward_and_allport	1,0,0,0,0,0,3,2,0	71.0	25.0	0.416	0,0,0,1,2,3,0,0,0	to_hand	s192
272.131	0.353	0	PA_without_intermediate	0,0,0,1,0,0,3,2,0	test	ward_and_allport	1,0,0,0,0,0,3,2,0	82.0	25.0	0.353	0,0,0,1,2,3,0,0,0	to_board	s192
272.491	0.351	0	PA_without_intermediate	0,0,0,0,0,0,3,2,0	test	ward_and_allport	1,0,0,0,0,0,3,2,0	71.0	25.0	0.351	0,0,0,1,2,3,0,0,0	to_hand	s192
272.844	0.373	0	PA_without_intermediate	1,0,0,0,0,0,3,2,0	test	ward_and_allport	1,0,0,0,0,0,3,2,0	89.0	25.0	0.373	0,0,0,1,2,3,0,0,0	to_board	s192
273.228	1.0	0	PA_without_intermediate	n/a	test	ward_and_allport	n/a	-1.0	25.0	n/a	n/a	feedback	s192
274.228	1.68	0	PA_without_intermediate	n/a	test	ward_and_allport	n/a	-1.0	25.0	n/a	n/a	ITI	s192
275.915	2.652	1	PA_with_intermediate	1,2,0,0,0,0,0,0,0	test	ward_and_allport	1,0,0,2,3,0,0,0,0	89.0	26.0	2.652	1,2,3,0,0,0,0,0,0	to_hand	s192
278.568	0.391	0	PA_with_intermediate	1,2,0,0,0,0,3,0,0	test	ward_and_allport	1,0,0,2,3,0,0,0,0	82.0	26.0	0.391	1,2,3,0,0,0,0,0,0	to_board	s192
278.967	0.409	0	PA_with_intermediate	1,0,0,0,0,0,3,0,0	test	ward_and_allport	1,0,0,2,3,0,0,0,0	89.0	26.0	0.409	1,2,3,0,0,0,0,0,0	to_hand	s192
279.377	0.354	0	PA_with_intermediate	1,0,0,2,0,0,3,0,0	test	ward_and_allport	1,0,0,2,3,0,0,0,0	71.0	26.0	0.354	1,2,3,0,0,0,0,0,0	to_board	s192
279.738	0.404	0	PA_with_intermediate	1,0,0,2,0,0,0,0,0	test	ward_and_allport	1,0,0,2,3,0,0,0,0	82.0	26.0	0.404	1,2,3,0,0,0,0,0,0	to_hand	s192
280.143	0.359	0	PA_with_intermediate	1,0,0,2,3,0,0,0,0	test	ward_and_allport	1,0,0,2,3,0,0,0,0	71.0	26.0	0.359	1,2,3,0,0,0,0,0,0	to_board	s192
280.514	1.0	0	PA_with_intermediate	n/a	test	ward_and_allport	n/a	-1.0	26.0	n/a	n/a	feedback	s192
281.514	3.72	0	PA_with_intermediate	n/a	test	ward_and_allport	n/a	-1.0	26.0	n/a	n/a	ITI	s192
285.241	2.246	1	PA_without_intermediate	0,0,0,0,0,0,1,2,0	test	ward_and_allport	3,2,0,1,0,0,0,0,0	82.0	27.0	2.246	0,0,0,0,0,0,1,2,3	to_hand	s192
287.487	0.365	0	PA_without_intermediate	3,0,0,0,0,0,1,2,0	test	ward_and_allport	3,2,0,1,0,0,0,0,0	89.0	27.0	0.365	0,0,0,0,0,0,1,2,3	to_board	s192
287.859	0.405	0	PA_without_intermediate	3,0,0,0,0,0,1,0,0	test	ward_and_allport	3,2,0,1,0,0,0,0,0	82.0	27.0	0.405	0,0,0,0,0,0,1,2,3	to_hand	s192
288.265	0.379	0	PA_without_intermediate	3,2,0,0,0,0,1,0,0	test	ward_and_allport	3,2,0,1,0,0,0,0,0	89.0	27.0	0.379	0,0,0,0,0,0,1,2,3	to_board	s192
288.651	0.398	0	PA_without_intermediate	3,2,0,0,0,0,0,0,0	test	ward_and_allport	3,2,0,1,0,0,0,0,0	82.0	27.0	0.398	0,0,0,0,0,0,1,2,3	to_hand	s192
289.051	0.368	0	PA_without_intermediate	3,2,0,1,0,0,0,0,0	test	ward_and_allport	3,2,0,1,0,0,0,0,0	71.0	27.0	0.368	0,0,0,0,0,0,1,2,3	to_board	s192
289.427	1.0	0	PA_without_intermediate	n/a	test	ward_and_allport	n/a	-1.0	27.0	n/a	n/a	feedback	s192
290.427	2.224	0	PA_without_intermediate	n/a	test	ward_and_allport	n/a	-1.0	27.0	n/a	n/a	ITI	s192
292.658	1.76	1	PA_without_intermediate	0,0,0,0,0,0,1,2,0	test	ward_and_allport	3,1,0,2,0,0,0,0,0	82.0	28.0	1.76	0,0,0,0,0,0,1,2,3	to_hand	s192
294.42	0.376	0	PA_without_intermediate	3,0,0,0,0,0,1,2,0	test	ward_and_allport	3,1,0,2,0,0,0,0,0	89.0	28.0	0.376	0,0,0,0,0,0,1,2,3	to_board	s192
294.803	0.651	0	PA_without_intermediate	3,0,0,0,0,0,1,0,0	test	ward_and_allport	3,1,0,2,0,0,0,0,0	82.0	28.0	0.651	0,0,0,0,0,0,1,2,3	to_hand	s192
295.455	0.609	0	PA_without_intermediate	3,0,0,2,0,0,1,0,0	test	ward_and_allport	3,1,0,2,0,0,0,0,0	71.0	28.0	0.609	0,0,0,0,0,0,1,2,3	to_board	s192
296.072	0.436	0	PA_without_intermediate	3,0,0,2,0,0,0,0,0	test	ward_and_allport	3,1,0,2,0,0,0,0,0	82.0	28.0	0.436	0,0,0,0,0,0,1,2,3	to_hand	s192
296.509	0.322	0	PA_without_intermediate	3,1,0,2,0,0,0,0,0	test	ward_and_allport	3,1,0,2,0,0,0,0,0	89.0	28.0	0.322	0,0,0,0,0,0,1,2,3	to_board	s192
296.842	1.0	0	PA_without_intermediate	n/a	test	ward_and_allport	n/a	-1.0	28.0	n/a	n/a	feedback	s192
297.842	1.272	0	PA_without_intermediate	n/a	test	ward_and_allport	n/a	-1.0	28.0	n/a	n/a	ITI	s192
299.12	2.192	1	PA_with_intermediate	0,0,0,0,0,0,1,2,0	test	ward_and_allport	2,3,0,0,0,0,1,0,0	82.0	29.0	2.192	0,0,0,0,0,0,1,2,3	to_hand	s192
301.314	0.343	0	PA_with_intermediate	0,0,0,3,0,0,1,2,0	test	ward_and_allport	2,3,0,0,0,0,1,0,0	71.0	29.0	0.343	0,0,0,0,0,0,1,2,3	to_board	s192
301.664	0.358	0	PA_with_intermediate	0,0,0,3,0,0,1,0,0	test	ward_and_allport	2,3,0,0,0,0,1,0,0	82.0	29.0	0.358	0,0,0,0,0,0,1,2,3	to_hand	s192
302.024	0.359	0	PA_with_intermediate	2,0,0,3,0,0,1,0,0	test	ward_and_allport	2,3,0,0,0,0,1,0,0	89.0	29.0	0.359	0,0,0,0,0,0,1,2,3	to_board	s192
302.39	0.424	0	PA_with_intermediate	2,0,0,0,0,0,1,0,0	test	ward_and_allport	2,3,0,0,0,0,1,0,0	71.0	29.0	0.424	0,0,0,0,0,0,1,2,3	to_hand	s192
302.815	0.377	0	PA_with_intermediate	2,3,0,0,0,0,1,0,0	test	ward_and_allport	2,3,0,0,0,0,1,0,0	89.0	29.0	0.377	0,0,0,0,0,0,1,2,3	to_board	s192
303.2	1.0	0	PA_with_intermediate	n/a	test	ward_and_allport	n/a	-1.0	29.0	n/a	n/a	feedback	s192
304.2	2.632	0	PA_with_intermediate	n/a	test	ward_and_allport	n/a	-1.0	29.0	n/a	n/a	ITI	s192
311.843	2.959	1	PA_without_intermediate	0,0,0,0,0,0,1,2,0	test	ward_and_allport	1,0,0,3,2,0,0,0,0	82.0	30.0	2.959	0,0,0,0,0,0,1,2,3	to_hand	s192
314.804	0.332	0	PA_without_intermediate	0,0,0,3,0,0,1,2,0	test	ward_and_allport	1,0,0,3,2,0,0,0,0	71.0	30.0	0.332	0,0,0,0,0,0,1,2,3	to_board	s192
315.144	0.347	0	PA_without_intermediate	0,0,0,3,0,0,1,0,0	test	ward_and_allport	1,0,0,3,2,0,0,0,0	82.0	30.0	0.347	0,0,0,0,0,0,1,2,3	to_hand	s192
315.492	0.383	0	PA_without_intermediate	0,0,0,3,2,0,1,0,0	test	ward_and_allport	1,0,0,3,2,0,0,0,0	71.0	30.0	0.383	0,0,0,0,0,0,1,2,3	to_board	s192
315.884	0.376	0	PA_without_intermediate	0,0,0,3,2,0,0,0,0	test	ward_and_allport	1,0,0,3,2,0,0,0,0	82.0	30.0	0.376	0,0,0,0,0,0,1,2,3	to_hand	s192
316.262	0.348	0	PA_without_intermediate	1,0,0,3,2,0,0,0,0	test	ward_and_allport	1,0,0,3,2,0,0,0,0	89.0	30.0	0.348	0,0,0,0,0,0,1,2,3	to_board	s192
316.62	1.0	0	PA_without_intermediate	n/a	test	ward_and_allport	n/a	-1.0	30.0	n/a	n/a	feedback	s192
317.62	1.408	0	PA_without_intermediate	n/a	test	ward_and_allport	n/a	-1.0	30.0	n/a	n/a	ITI	s192
319.035	2.116	1	PA_without_intermediate	0,0,0,1,2,0,0,0,0	test	ward_and_allport	2,0,0,0,0,0,3,1,0	71.0	31.0	2.116	0,0,0,1,2,3,0,0,0	to_hand	s192
321.152	0.366	0	PA_without_intermediate	0,0,0,1,2,0,3,0,0	test	ward_and_allport	2,0,0,0,0,0,3,1,0	82.0	31.0	0.366	0,0,0,1,2,3,0,0,0	to_board	s192
321.525	0.291	0	PA_without_intermediate	0,0,0,1,0,0,3,0,0	test	ward_and_allport	2,0,0,0,0,0,3,1,0	71.0	31.0	0.291	0,0,0,1,2,3,0,0,0	to_hand	s192
321.817	0.334	0	PA_without_intermediate	2,0,0,1,0,0,3,0,0	test	ward_and_allport	2,0,0,0,0,0,3,1,0	89.0	31.0	0.334	0,0,0,1,2,3,0,0,0	to_board	s192
322.158	0.343	0	PA_without_intermediate	2,0,0,0,0,0,3,0,0	test	ward_and_allport	2,0,0,0,0,0,3,1,0	71.0	31.0	0.343	0,0,0,1,2,3,0,0,0	to_hand	s192
322.502	0.377	0	PA_without_intermediate	2,0,0,0,0,0,3,1,0	test	ward_and_allport	2,0,0,0,0,0,3,1,0	82.0	31.0	0.377	0,0,0,1,2,3,0,0,0	to_board	s192
322.888	1.0	0	PA_without_intermediate	n/a	test	ward_and_allport	n/a	-1.0	31.0	n/a	n/a	feedback	s192
323.888	1.0	0	PA_without_intermediate	n/a	test	ward_and_allport	n/a	-1.0	31.0	n/a	n/a	ITI	s192
324.896	2.128	1	PA_with_intermediate	0,0,0,1,2,0,0,0,0	test	ward_and_allport	0,0,0,1,3,0,2,0,0	71.0	32.0	2.128	0,0,0,1,2,3,0,0,0	to_hand	s192
327.025	0.308	0	PA_with_intermediate	3,0,0,1,2,0,0,0,0	test	ward_and_allport	0,0,0,1,3,0,2,0,0	89.0	32.0	0.308	0,0,0,1,2,3,0,0,0	to_board	s192
327.339	0.332	0	PA_with_intermediate	3,0,0,1,0,0,0,0,0	test	ward_and_allport	0,0,0,1,3,0,2,0,0	71.0	32.0	0.332	0,0,0,1,2,3,0,0,0	to_hand	s192
327.673	0.422	0	PA_with_intermediate	3,0,0,1,0,0,2,0,0	test	ward_and_allport	0,0,0,1,3,0,2,0,0	82.0	32.0	0.422	0,0,0,1,2,3,0,0,0	to_board	s192
328.102	0.353	0	PA_with_intermediate	0,0,0,1,0,0,2,0,0	test	ward_and_allport	0,0,0,1,3,0,2,0,0	89.0	32.0	0.353	0,0,0,1,2,3,0,0,0	to_hand	s192
328.456	0.29	0	PA_with_intermediate	0,0,0,1,3,0,2,0,0	test	ward_and_allport	0,0,0,1,3,0,2,0,0	71.0	32.0	0.29	0,0,0,1,2,3,0,0,0	to_board	s192
328.753	1.0	0	PA_with_intermediate	n/a	test	ward_and_allport	n/a	-1.0	32.0	n/a	n/a	feedback	s192
329.753	1.0	0	PA_with_intermediate	n/a	test	ward_and_allport	n/a	-1.0	32.0	n/a	n/a	ITI	s192
330.759	2.041	1	PA_with_intermediate	0,0,0,1,2,0,0,0,0	test	ward_and_allport	2,3,0,1,0,0,0,0,0	71.0	33.0	2.041	0,0,0,1,2,3,0,0,0	to_hand	s192
332.801	0.424	0	PA_with_intermediate	0,0,0,1,2,0,3,0,0	test	ward_and_allport	2,3,0,1,0,0,0,0,0	82.0	33.0	0.424	0,0,0,1,2,3,0,0,0	to_board	s192
333.231	0.392	0	PA_with_intermediate	0,0,0,1,0,0,3,0,0	test	ward_and_allport	2,3,0,1,0,0,0,0,0	71.0	33.0	0.392	0,0,0,1,2,3,0,0,0	to_hand	s192
333.624	0.349	0	PA_with_intermediate	2,0,0,1,0,0,3,0,0	test	ward_and_allport	2,3,0,1,0,0,0,0,0	89.0	33.0	0.349	0,0,0,1,2,3,0,0,0	to_board	s192
333.982	0.389	0	PA_with_intermediate	2,0,0,1,0,0,0,0,0	test	ward_and_allport	2,3,0,1,0,0,0,0,0	82.0	33.0	0.389	0,0,0,1,2,3,0,0,0	to_hand	s192
334.372	0.271	0	PA_with_intermediate	2,3,0,1,0,0,0,0,0	test	ward_and_allport	2,3,0,1,0,0,0,0,0	89.0	33.0	0.271	0,0,0,1,2,3,0,0,0	to_board	s192
334.654	1.0	0	PA_with_intermediate	n/a	test	ward_and_allport	n/a	-1.0	33.0	n/a	n/a	feedback	s192
335.654	1.0	0	PA_with_intermediate	n/a	test	ward_and_allport	n/a	-1.0	33.0	n/a	n/a	ITI	s192
336.662	1.932	1	PA_with_intermediate	0,0,0,1,2,0,0,0,0	test	ward_and_allport	2,0,0,1,3,0,0,0,0	71.0	34.0	1.932	0,0,0,1,2,3,0,0,0	to_hand	s192
338.595	0.264	0	PA_with_intermediate	0,0,0,1,2,0,3,0,0	test	ward_and_allport	2,0,0,1,3,0,0,0,0	82.0	34.0	0.264	0,0,0,1,2,3,0,0,0	to_board	s192
338.865	0.352	0	PA_with_intermediate	0,0,0,1,0,0,3,0,0	test	ward_and_allport	2,0,0,1,3,0,0,0,0	71.0	34.0	0.352	0,0,0,1,2,3,0,0,0	to_hand	s192
339.218	0.375	0	PA_with_intermediate	2,0,0,1,0,0,3,0,0	test	ward_and_allport	2,0,0,1,3,0,0,0,0	89.0	34.0	0.375	0,0,0,1,2,3,0,0,0	to_board	s192
339.599	0.41	0	PA_with_intermediate	2,0,0,1,0,0,0,0,0	test	ward_and_allport	2,0,0,1,3,0,0,0,0	82.0	34.0	0.41	0,0,0,1,2,3,0,0,0	to_hand	s192
340.01	0.335	0	PA_with_intermediate	2,0,0,1,3,0,0,0,0	test	ward_and_allport	2,0,0,1,3,0,0,0,0	71.0	34.0	0.335	0,0,0,1,2,3,0,0,0	to_board	s192
340.356	1.0	0	PA_with_intermediate	n/a	test	ward_and_allport	n/a	-1.0	34.0	n/a	n/a	feedback	s192
341.356	1.408	0	PA_with_intermediate	n/a	test	ward_and_allport	n/a	-1.0	34.0	n/a	n/a	ITI	s192
342.771	1.762	1	PA_without_intermediate	1,2,0,0,0,0,0,0,0	test	ward_and_allport	0,0,0,1,0,0,3,2,0	89.0	35.0	1.762	1,2,3,0,0,0,0,0,0	to_hand	s192
344.535	0.525	0	PA_without_intermediate	1,2,0,0,0,0,3,0,0	test	ward_and_allport	0,0,0,1,0,0,3,2,0	82.0	35.0	0.525	1,2,3,0,0,0,0,0,0	to_board	s192
345.065	0.421	0	PA_without_intermediate	1,0,0,0,0,0,3,0,0	test	ward_and_allport	0,0,0,1,0,0,3,2,0	89.0	35.0	0.421	1,2,3,0,0,0,0,0,0	to_hand	s192
345.487	0.378	0	PA_without_intermediate	1,0,0,0,0,0,3,2,0	test	ward_and_allport	0,0,0,1,0,0,3,2,0	82.0	35.0	0.378	1,2,3,0,0,0,0,0,0	to_board	s192
345.872	0.339	0	PA_without_intermediate	0,0,0,0,0,0,3,2,0	test	ward_and_allport	0,0,0,1,0,0,3,2,0	89.0	35.0	0.339	1,2,3,0,0,0,0,0,0	to_hand	s192
346.212	0.345	0	PA_without_intermediate	0,0,0,1,0,0,3,2,0	test	ward_and_allport	0,0,0,1,0,0,3,2,0	71.0	35.0	0.345	1,2,3,0,0,0,0,0,0	to_board	s192
346.566	1.0	0	PA_without_intermediate	n/a	test	ward_and_allport	n/a	-1.0	35.0	n/a	n/a	feedback	s192
347.566	1.816	0	PA_without_intermediate	n/a	test	ward_and_allport	n/a	-1.0	35.0	n/a	n/a	ITI	s192
349.389	2.539	1	PA_with_intermediate	1,2,0,0,0,0,0,0,0	test	ward_and_allport	1,3,0,0,0,0,2,0,0	89.0	36.0	2.539	1,2,3,0,0,0,0,0,0	to_hand	s192
351.928	0.263	0	PA_with_intermediate	1,2,0,3,0,0,0,0,0	test	ward_and_allport	1,3,0,0,0,0,2,0,0	71.0	36.0	0.263	1,2,3,0,0,0,0,0,0	to_board	s192
352.201	0.318	0	PA_with_intermediate	1,0,0,3,0,0,0,0,0	test	ward_and_allport	1,3,0,0,0,0,2,0,0	89.0	36.0	0.318	1,2,3,0,0,0,0,0,0	to_hand	s192
352.52	0.338	0	PA_with_intermediate	1,0,0,3,0,0,2,0,0	test	ward_and_allport	1,3,0,0,0,0,2,0,0	82.0	36.0	0.338	1,2,3,0,0,0,0,0,0	to_board	s192
352.868	0.374	0	PA_with_intermediate	1,0,0,0,0,0,2,0,0	test	ward_and_allport	1,3,0,0,0,0,2,0,0	71.0	36.0	0.374	1,2,3,0,0,0,0,0,0	to_hand	s192
353.243	0.331	0	PA_with_intermediate	1,3,0,0,0,0,2,0,0	test	ward_and_allport	1,3,0,0,0,0,2,0,0	89.0	36.0	0.331	1,2,3,0,0,0,0,0,0	to_board	s192
353.586	1.0	0	PA_with_intermediate	n/a	test	ward_and_allport	n/a	-1.0	36.0	n/a	n/a	feedback	s192
354.586	3.176	0	PA_with_intermediate	n/a	test	ward_and_allport	n/a	-1.0	36.0	n/a	n/a	ITI	s192
357.769	2.648	1	PA_with_intermediate	0,0,0,0,0,0,1,2,0	test	ward_and_allport	2,0,0,0,0,0,1,3,0	82.0	37.0	2.648	0,0,0,0,0,0,1,2,3	to_hand	s192
360.418	0.355	0	PA_with_intermediate	0,0,0,3,0,0,1,2,0	test	ward_and_allport	2,0,0,0,0,0,1,3,0	71.0	37.0	0.355	0,0,0,0,0,0,1,2,3	to_board	s192
360.78	0.353	0	PA_with_intermediate	0,0,0,3,0,0,1,0,0	test	ward_and_allport	2,0,0,0,0,0,1,3,0	82.0	37.0	0.353	0,0,0,0,0,0,1,2,3	to_hand	s192
361.135	0.347	0	PA_with_intermediate	2,0,0,3,0,0,1,0,0	test	ward_and_allport	2,0,0,0,0,0,1,3,0	89.0	37.0	0.347	0,0,0,0,0,0,1,2,3	to_board	s192
361.494	0.51	0	PA_with_intermediate	2,0,0,0,0,0,1,0,0	test	ward_and_allport	2,0,0,0,0,0,1,3,0	71.0	37.0	0.51	0,0,0,0,0,0,1,2,3	to_hand	s192
362.004	0.381	0	PA_with_intermediate	2,0,0,0,0,0,1,3,0	test	ward_and_allport	2,0,0,0,0,0,1,3,0	82.0	37.0	0.381	0,0,0,0,0,0,1,2,3	to_board	s192
362.396	1.0	0	PA_with_intermediate	n/a	test	ward_and_allport	n/a	-1.0	37.0	n/a	n/a	feedback	s192
363.396	2.36	0	PA_with_intermediate	n/a	test	ward_and_allport	n/a	-1.0	37.0	n/a	n/a	ITI	s192
365.766	2.146	1	PA_with_intermediate	0,0,0,0,0,0,1,2,0	test	ward_and_allport	2,0,0,0,0,0,1,3,0	82.0	38.0	2.146	0,0,0,0,0,0,1,2,3	to_hand	s192
367.912	0.366	0	PA_with_intermediate	0,0,0,3,0,0,1,2,0	test	ward_and_allport	2,0,0,0,0,0,1,3,0	71.0	38.0	0.366	0,0,0,0,0,0,1,2,3	to_board	s192
368.287	0.356	0	PA_with_intermediate	0,0,0,3,0,0,1,0,0	test	ward_and_allport	2,0,0,0,0,0,1,3,0	82.0	38.0	0.356	0,0,0,0,0,0,1,2,3	to_hand	s192
368.645	0.336	0	PA_with_intermediate	2,0,0,3,0,0,1,0,0	test	ward_and_allport	2,0,0,0,0,0,1,3,0	89.0	38.0	0.336	0,0,0,0,0,0,1,2,3	to_board	s192
368.991	0.394	0	PA_with_intermediate	2,0,0,0,0,0,1,0,0	test	ward_and_allport	2,0,0,0,0,0,1,3,0	71.0	38.0	0.394	0,0,0,0,0,0,1,2,3	to_hand	s192
369.386	0.384	0	PA_with_intermediate	2,0,0,0,0,0,1,3,0	test	ward_and_allport	2,0,0,0,0,0,1,3,0	82.0	38.0	0.384	0,0,0,0,0,0,1,2,3	to_board	s192
369.784	1.0	0	PA_with_intermediate	n/a	test	ward_and_allport	n/a	-1.0	38.0	n/a	n/a	feedback	s192
370.784	1.0	0	PA_with_intermediate	n/a	test	ward_and_allport	n/a	-1.0	38.0	n/a	n/a	ITI	s192
371.792	2.243	1	PA_without_intermediate	1,2,0,0,0,0,0,0,0	test	ward_and_allport	0,0,0,2,0,0,3,1,0	89.0	39.0	2.243	1,2,3,0,0,0,0,0,0	to_hand	s192
374.036	0.308	0	PA_without_intermediate	1,2,0,0,0,0,3,0,0	test	ward_and_allport	0,0,0,2,0,0,3,1,0	82.0	39.0	0.308	1,2,3,0,0,0,0,0,0	to_board	s192
374.351	0.368	0	PA_without_intermediate	1,0,0,0,0,0,3,0,0	test	ward_and_allport	0,0,0,2,0,0,3,1,0	89.0	39.0	0.368	1,2,3,0,0,0,0,0,0	to_hand	s192
374.719	0.335	0	PA_without_intermediate	1,0,0,2,0,0,3,0,0	test	ward_and_allport	0,0,0,2,0,0,3,1,0	71.0	39.0	0.335	1,2,3,0,0,0,0,0,0	to_board	s192
375.061	0.303	0	PA_without_intermediate	0,0,0,2,0,0,3,0,0	test	ward_and_allport	0,0,0,2,0,0,3,1,0	89.0	39.0	0.303	1,2,3,0,0,0,0,0,0	to_hand	s192
375.365	0.415	0	PA_without_intermediate	0,0,0,2,0,0,3,1,0	test	ward_and_allport	0,0,0,2,0,0,3,1,0	82.0	39.0	0.415	1,2,3,0,0,0,0,0,0	to_board	s192
375.791	1.0	0	PA_without_intermediate	n/a	test	ward_and_allport	n/a	-1.0	39.0	n/a	n/a	feedback	s192
376.791	1.408	0	PA_without_intermediate	n/a	test	ward_and_allport	n/a	-1.0	39.0	n/a	n/a	ITI	s192
378.207	1.936	1	PA_with_intermediate	1,2,0,0,0,0,0,0,0	test	ward_and_allport	1,0,0,0,0,0,2,3,0	89.0	40.0	1.936	1,2,3,0,0,0,0,0,0	to_hand	s192
380.144	0.329	0	PA_with_intermediate	1,2,0,3,0,0,0,0,0	test	ward_and_allport	1,0,0,0,0,0,2,3,0	71.0	40.0	0.329	1,2,3,0,0,0,0,0,0	to_board	s192
380.48	0.317	0	PA_with_intermediate	1,0,0,3,0,0,0,0,0	test	ward_and_allport	1,0,0,0,0,0,2,3,0	89.0	40.0	0.317	1,2,3,0,0,0,0,0,0	to_hand	s192
380.798	0.367	0	PA_with_intermediate	1,0,0,3,0,0,2,0,0	test	ward_and_allport	1,0,0,0,0,0,2,3,0	82.0	40.0	0.367	1,2,3,0,0,0,0,0,0	to_board	s192
381.172	0.35	0	PA_with_intermediate	1,0,0,0,0,0,2,0,0	test	ward_and_allport	1,0,0,0,0,0,2,3,0	71.0	40.0	0.35	1,2,3,0,0,0,0,0,0	to_hand	s192
381.523	0.285	0	PA_with_intermediate	1,0,0,0,0,0,2,3,0	test	ward_and_allport	1,0,0,0,0,0,2,3,0	82.0	40.0	0.285	1,2,3,0,0,0,0,0,0	to_board	s192
381.816	1.0	0	PA_with_intermediate	n/a	test	ward_and_allport	n/a	-1.0	40.0	n/a	n/a	feedback	s192
382.816	1.816	0	PA_with_intermediate	n/a	test	ward_and_allport	n/a	-1.0	40.0	n/a	n/a	ITI	s192
384.64	1.916	1	PA_without_intermediate	0,0,0,1,2,0,0,0,0	test	ward_and_allport	3,1,0,0,0,0,2,0,0	71.0	41.0	1.916	0,0,0,1,2,3,0,0,0	to_hand	s192
386.557	0.288	0	PA_without_intermediate	3,0,0,1,2,0,0,0,0	test	ward_and_allport	3,1,0,0,0,0,2,0,0	89.0	41.0	0.288	0,0,0,1,2,3,0,0,0	to_board	s192
386.852	0.333	0	PA_without_intermediate	3,0,0,1,0,0,0,0,0	test	ward_and_allport	3,1,0,0,0,0,2,0,0	71.0	41.0	0.333	0,0,0,1,2,3,0,0,0	to_hand	s192
387.186	0.385	0	PA_without_intermediate	3,0,0,1,0,0,2,0,0	test	ward_and_allport	3,1,0,0,0,0,2,0,0	82.0	41.0	0.385	0,0,0,1,2,3,0,0,0	to_board	s192
387.581	0.297	0	PA_without_intermediate	3,0,0,0,0,0,2,0,0	test	ward_and_allport	3,1,0,0,0,0,2,0,0	71.0	41.0	0.297	0,0,0,1,2,3,0,0,0	to_hand	s192
387.878	0.35	0	PA_without_intermediate	3,1,0,0,0,0,2,0,0	test	ward_and_allport	3,1,0,0,0,0,2,0,0	89.0	41.0	0.35	0,0,0,1,2,3,0,0,0	to_board	s192
388.241	1.0	0	PA_without_intermediate	n/a	test	ward_and_allport	n/a	-1.0	41.0	n/a	n/a	feedback	s192
389.241	2.088	0	PA_without_intermediate	n/a	test	ward_and_allport	n/a	-1.0	41.0	n/a	n/a	ITI	s192
391.339	1.665	1	PA_without_intermediate	0,0,0,1,2,0,0,0,0	test	ward_and_allport	3,2,0,0,0,0,1,0,0	71.0	42.0	1.665	0,0,0,1,2,3,0,0,0	to_hand	s192
393.004	0.339	0	PA_without_intermediate	3,0,0,1,2,0,0,0,0	test	ward_and_allport	3,2,0,0,0,0,1,0,0	89.0	42.0	0.339	0,0,0,1,2,3,0,0,0	to_board	s192
393.351	0.33	0	PA_without_intermediate	3,0,0,1,0,0,0,0,0	test	ward_and_allport	3,2,0,0,0,0,1,0,0	71.0	42.0	0.33	0,0,0,1,2,3,0,0,0	to_hand	s192
393.682	0.331	0	PA_without_intermediate	3,2,0,1,0,0,0,0,0	test	ward_and_allport	3,2,0,0,0,0,1,0,0	89.0	42.0	0.331	0,0,0,1,2,3,0,0,0	to_board	s192
394.022	0.304	0	PA_without_intermediate	3,2,0,0,0,0,0,0,0	test	ward_and_allport	3,2,0,0,0,0,1,0,0	71.0	42.0	0.304	0,0,0,1,2,3,0,0,0	to_hand	s192
394.328	0.526	0	PA_without_intermediate	3,2,0,0,0,0,1,0,0	test	ward_and_allport	3,2,0,0,0,0,1,0,0	82.0	42.0	0.526	0,0,0,1,2,3,0,0,0	to_board	s192
394.865	1.0	0	PA_without_intermediate	n/a	test	ward_and_allport	n/a	-1.0	42.0	n/a	n/a	feedback	s192
395.865	1.136	0	PA_without_intermediate	n/a	test	ward_and_allport	n/a	-1.0	42.0	n/a	n/a	ITI	s192
397.008	1.902	1	PA_without_intermediate	1,2,0,0,0,0,0,0,0	test	ward_and_allport	0,0,0,3,2,0,1,0,0	89.0	43.0	1.902	1,2,3,0,0,0,0,0,0	to_hand	s192
398.912	0.341	0	PA_without_intermediate	1,2,0,3,0,0,0,0,0	test	ward_and_allport	0,0,0,3,2,0,1,0,0	71.0	43.0	0.341	1,2,3,0,0,0,0,0,0	to_board	s192
399.26	0.355	0	PA_without_intermediate	1,0,0,3,0,0,0,0,0	test	ward_and_allport	0,0,0,3,2,0,1,0,0	89.0	43.0	0.355	1,2,3,0,0,0,0,0,0	to_hand	s192
399.616	0.336	0	PA_without_intermediate	1,0,0,3,2,0,0,0,0	test	ward_and_allport	0,0,0,3,2,0,1,0,0	71.0	43.0	0.336	1,2,3,0,0,0,0,0,0	to_board	s192
399.959	0.319	0	PA_without_intermediate	0,0,0,3,2,0,0,0,0	test	ward_and_allport	0,0,0,3,2,0,1,0,0	89.0	43.0	0.319	1,2,3,0,0,0,0,0,0	to_hand	s192
400.28	0.337	0	PA_without_intermediate	0,0,0,3,2,0,1,0,0	test	ward_and_allport	0,0,0,3,2,0,1,0,0	82.0	43.0	0.337	1,2,3,0,0,0,0,0,0	to_board	s192
400.626	1.0	0	PA_without_intermediate	n/a	test	ward_and_allport	n/a	-1.0	43.0	n/a	n/a	feedback	s192
401.626	6.168	0	PA_without_intermediate	n/a	test	ward_and_allport	n/a	-1.0	43.0	n/a	n/a	ITI	s192
407.803	2.333	1	PA_without_intermediate	0,0,0,0,0,0,1,2,0	test	ward_and_allport	3,1,0,2,0,0,0,0,0	82.0	44.0	2.333	0,0,0,0,0,0,1,2,3	to_hand	s192
410.137	0.333	0	PA_without_intermediate	3,0,0,0,0,0,1,2,0	test	ward_and_allport	3,1,0,2,0,0,0,0,0	89.0	44.0	0.333	0,0,0,0,0,0,1,2,3	to_board	s192
410.48	0.854	0	PA_without_intermediate	3,0,0,0,0,0,1,0,0	test	ward_and_allport	3,1,0,2,0,0,0,0,0	82.0	44.0	0.854	0,0,0,0,0,0,1,2,3	to_hand	s192
411.335	0.297	0	PA_without_intermediate	3,0,0,2,0,0,1,0,0	test	ward_and_allport	3,1,0,2,0,0,0,0,0	71.0	44.0	0.297	0,0,0,0,0,0,1,2,3	to_board	s192
411.644	0.294	0	PA_without_intermediate	3,0,0,2,0,0,0,0,0	test	ward_and_allport	3,1,0,2,0,0,0,0,0	82.0	44.0	0.294	0,0,0,0,0,0,1,2,3	to_hand	s192
411.939	0.275	0	PA_without_intermediate	3,1,0,2,0,0,0,0,0	test	ward_and_allport	3,1,0,2,0,0,0,0,0	89.0	44.0	0.275	0,0,0,0,0,0,1,2,3	to_board	s192
412.228	1.0	0	PA_without_intermediate	n/a	test	ward_and_allport	n/a	-1.0	44.0	n/a	n/a	feedback	s192
413.228	1.816	0	PA_without_intermediate	n/a	test	ward_and_allport	n/a	-1.0	44.0	n/a	n/a	ITI	s192
420.059	2.08	1	PA_with_intermediate	1,2,0,0,0,0,0,0,0	test	ward_and_allport	1,0,0,2,3,0,0,0,0	89.0	45.0	2.08	1,2,3,0,0,0,0,0,0	to_hand	s192
422.141	0.323	0	PA_with_intermediate	1,2,0,0,0,0,3,0,0	test	ward_and_allport	1,0,0,2,3,0,0,0,0	82.0	45.0	0.323	1,2,3,0,0,0,0,0,0	to_board	s192
422.475	0.343	0	PA_with_intermediate	1,0,0,0,0,0,3,0,0	test	ward_and_allport	1,0,0,2,3,0,0,0,0	89.0	45.0	0.343	1,2,3,0,0,0,0,0,0	to_hand	s192
422.819	0.355	0	PA_with_intermediate	1,0,0,2,0,0,3,0,0	test	ward_and_allport	1,0,0,2,3,0,0,0,0	71.0	45.0	0.355	1,2,3,0,0,0,0,0,0	to_board	s192
423.185	0.454	0	PA_with_intermediate	1,0,0,2,0,0,0,0,0	test	ward_and_allport	1,0,0,2,3,0,0,0,0	82.0	45.0	0.454	1,2,3,0,0,0,0,0,0	to_hand	s192
423.641	0.317	0	PA_with_intermediate	1,0,0,2,3,0,0,0,0	test	ward_and_allport	1,0,0,2,3,0,0,0,0	71.0	45.0	0.317	1,2,3,0,0,0,0,0,0	to_board	s192
423.97	1.0	0	PA_with_intermediate	n/a	test	ward_and_allport	n/a	-1.0	45.0	n/a	n/a	feedback	s192
424.97	1.952	0	PA_with_intermediate	n/a	test	ward_and_allport	n/a	-1.0	45.0	n/a	n/a	ITI	s192
426.933	2.018	1	PA_with_intermediate	0,0,0,1,2,0,0,0,0	test	ward_and_allport	0,0,0,1,0,0,2,3,0	71.0	46.0	2.018	0,0,0,1,2,3,0,0,0	to_hand	s192
428.953	0.264	0	PA_with_intermediate	3,0,0,1,2,0,0,0,0	test	ward_and_allport	0,0,0,1,0,0,2,3,0	89.0	46.0	0.264	0,0,0,1,2,3,0,0,0	to_board	s192
429.225	0.337	0	PA_with_intermediate	3,0,0,1,0,0,0,0,0	test	ward_and_allport	0,0,0,1,0,0,2,3,0	71.0	46.0	0.337	0,0,0,1,2,3,0,0,0	to_hand	s192
429.562	0.323	0	PA_with_intermediate	3,0,0,1,0,0,2,0,0	test	ward_and_allport	0,0,0,1,0,0,2,3,0	82.0	46.0	0.323	0,0,0,1,2,3,0,0,0	to_board	s192
429.895	0.347	0	PA_with_intermediate	3,0,0,0,0,0,2,0,0	test	ward_and_allport	0,0,0,1,0,0,2,3,0	71.0	46.0	0.347	0,0,0,1,2,3,0,0,0	to_hand	s192
430.243	0.878	0	PA_with_intermediate	3,0,0,1,0,0,2,0,0	test	ward_and_allport	0,0,0,1,0,0,2,3,0	71.0	46.0	0.878	0,0,0,1,2,3,0,0,0	to_board	s192
431.131	0.345	0	PA_with_intermediate	0,0,0,1,0,0,2,0,0	test	ward_and_allport	0,0,0,1,0,0,2,3,0	89.0	46.0	0.345	0,0,0,1,2,3,0,0,0	to_hand	s192
431.477	0.492	0	PA_with_intermediate	0,0,0,1,0,0,2,3,0	test	ward_and_allport	0,0,0,1,0,0,2,3,0	82.0	46.0	0.492	0,0,0,1,2,3,0,0,0	to_board	s192
431.981	1.0	0	PA_with_intermediate	n/a	test	ward_and_allport	n/a	-1.0	46.0	n/a	n/a	feedback	s192
432.981	1.136	0	PA_with_intermediate	n/a	test	ward_and_allport	n/a	-1.0	46.0	n/a	n/a	ITI	s192
434.126	2.392	1	PA_without_intermediate	1,2,0,0,0,0,0,0,0	test	ward_and_allport	0,0,0,3,2,0,1,0,0	89.0	47.0	2.392	1,2,3,0,0,0,0,0,0	to_hand	s192
436.519	0.307	0	PA_without_intermediate	1,2,0,3,0,0,0,0,0	test	ward_and_allport	0,0,0,3,2,0,1,0,0	71.0	47.0	0.307	1,2,3,0,0,0,0,0,0	to_board	s192
436.834	0.356	0	PA_without_intermediate	1,0,0,3,0,0,0,0,0	test	ward_and_allport	0,0,0,3,2,0,1,0,0	89.0	47.0	0.356	1,2,3,0,0,0,0,0,0	to_hand	s192
437.192	0.304	0	PA_without_intermediate	1,0,0,3,2,0,0,0,0	test	ward_and_allport	0,0,0,3,2,0,1,0,0	71.0	47.0	0.304	1,2,3,0,0,0,0,0,0	to_board	s192
437.507	0.305	0	PA_without_intermediate	0,0,0,3,2,0,0,0,0	test	ward_and_allport	0,0,0,3,2,0,1,0,0	89.0	47.0	0.305	1,2,3,0,0,0,0,0,0	to_hand	s192
437.813	0.413	0	PA_without_intermediate	0,0,0,3,2,0,1,0,0	test	ward_and_allport	0,0,0,3,2,0,1,0,0	82.0	47.0	0.413	1,2,3,0,0,0,0,0,0	to_board	s192
438.234	1.0	0	PA_without_intermediate	n/a	test	ward_and_allport	n/a	-1.0	47.0	n/a	n/a	feedback	s192
439.234	1.68	0	PA_without_intermediate	n/a	test	ward_and_allport	n/a	-1.0	47.0	n/a	n/a	ITI	s192
n/a	n/a	0	n/a	n/a	n/a	n/a	n/a	n/a	n/a	n/a	n/a	ITI	n/a
