onset	duration	SS_delay	correct_response	experiment_exp_id	key_press	response_time	stopped	trial_type	worker_id
3.017	0.85	0.3	71.0	stop_signal	71.0	0.424	False	stop_failure	s192
5.269	0.85	0.25	71.0	stop_signal	71.0	0.48	False	go	s192
7.931	0.85	0.25	89.0	stop_signal	89.0	0.42	False	go	s192
10.593	0.85	0.25	71.0	stop_signal	89.0	0.31	False	go	s192
12.846	0.85	0.25	89.0	stop_signal	89.0	0.416	False	go	s192
15.099	0.85	0.25	89.0	stop_signal	89.0	0.415	False	go	s192
17.492	0.85	0.25	71.0	stop_signal	71.0	0.398	False	stop_failure	s192
20.287	0.85	0.2	89.0	stop_signal	89.0	0.522	False	stop_failure	s192
22.676	0.85	0.15	89.0	stop_signal	-1.0	n/a	True	stop_success	s192
24.932	0.85	0.2	89.0	stop_signal	-1.0	n/a	True	stop_success	s192
27.185	0.85	0.25	71.0	stop_signal	71.0	0.444	False	stop_failure	s192
29.441	0.85	0.2	71.0	stop_signal	71.0	0.456	False	go	s192
32.103	0.85	0.2	71.0	stop_signal	71.0	0.356	False	go	s192
34.765	0.85	0.2	71.0	stop_signal	71.0	0.5	False	go	s192
37.018	0.85	0.2	71.0	stop_signal	71.0	0.392	False	go	s192
39.543	0.85	0.2	71.0	stop_signal	71.0	0.608	False	go	s192
41.796	0.85	0.2	89.0	stop_signal	89.0	0.437	False	stop_failure	s192
44.322	0.85	0.15	89.0	stop_signal	89.0	0.341	False	go	s192
46.847	0.85	0.15	71.0	stop_signal	71.0	0.575	False	stop_failure	s192
49.373	0.85	0.1	89.0	stop_signal	-1.0	n/a	True	stop_success	s192
51.765	0.85	0.15	71.0	stop_signal	-1.0	n/a	True	stop_success	s192
54.29	0.85	0.2	71.0	stop_signal	71.0	0.592	False	go	s192
56.818	0.85	0.2	89.0	stop_signal	89.0	0.531	False	go	s192
59.206	0.85	0.2	71.0	stop_signal	71.0	0.541	False	go	s192
61.461	0.85	0.2	71.0	stop_signal	71.0	0.392	False	go	s192
63.989	0.85	0.2	89.0	stop_signal	89.0	0.472	False	go	s192
66.788	0.85	0.2	89.0	stop_signal	89.0	0.367	False	stop_failure	s192
69.315	0.85	0.15	71.0	stop_signal	-1.0	n/a	True	stop_success	s192
71.703	0.85	0.2	71.0	stop_signal	71.0	0.588	False	go	s192
73.957	0.85	0.2	89.0	stop_signal	89.0	0.457	False	stop_failure	s192
76.21	0.85	0.15	89.0	stop_signal	89.0	0.429	False	stop_failure	s192
78.464	0.85	0.1	71.0	stop_signal	-1.0	n/a	True	stop_success	s192
80.717	0.85	0.15	71.0	stop_signal	71.0	0.732	False	go	s192
83.243	0.85	0.15	89.0	stop_signal	89.0	0.466	False	go	s192
85.496	0.85	0.15	71.0	stop_signal	-1.0	n/a	True	stop_success	s192
87.75	0.85	0.2	71.0	stop_signal	71.0	0.46	False	go	s192
90.003	0.85	0.2	89.0	stop_signal	89.0	0.397	False	go	s192
92.259	0.85	0.2	71.0	stop_signal	71.0	0.408	False	go	s192
94.65	0.85	0.2	71.0	stop_signal	71.0	0.41	False	go	s192
96.902	0.85	0.2	71.0	stop_signal	-1.0	n/a	True	stop_success	s192
99.155	0.85	0.25	89.0	stop_signal	89.0	0.491	False	go	s192
111.921	0.85	0.25	89.0	stop_signal	89.0	0.508	False	stop_failure	s192
114.178	0.85	0.2	71.0	stop_signal	-1.0	n/a	True	stop_success	s192
116.702	0.85	0.25	71.0	stop_signal	71.0	0.612	False	go	s192
119.095	0.85	0.25	71.0	stop_signal	71.0	0.355	False	go	s192
121.62	0.85	0.25	71.0	stop_signal	71.0	0.431	False	stop_failure	s192
123.873	0.85	0.2	89.0	stop_signal	89.0	0.499	False	go	s192
126.261	0.85	0.2	89.0	stop_signal	89.0	0.473	False	go	s192
128.65	0.85	0.2	89.0	stop_signal	89.0	0.436	False	go	s192
130.903	0.85	0.2	71.0	stop_signal	71.0	0.482	False	go	s192
133.294	0.85	0.2	89.0	stop_signal	89.0	0.591	False	go	s192
135.682	0.85	0.2	89.0	stop_signal	-1.0	n/a	True	stop_success	s192
138.074	0.85	0.25	71.0	stop_signal	71.0	0.448	False	go	s192
140.738	0.85	0.25	89.0	stop_signal	89.0	0.533	False	go	s192
143.267	0.85	0.25	89.0	stop_signal	89.0	0.379	False	stop_failure	s192
145.52	0.85	0.2	89.0	stop_signal	-1.0	n/a	True	stop_success	s192
148.454	0.85	0.25	89.0	stop_signal	89.0	0.4	False	go	s192
150.707	0.85	0.25	71.0	stop_signal	71.0	0.412	False	go	s192
153.232	0.85	0.25	89.0	stop_signal	-1.0	n/a	True	stop_success	s192
155.486	0.85	0.3	71.0	stop_signal	71.0	0.583	False	go	s192
157.739	0.85	0.3	89.0	stop_signal	89.0	0.588	False	go	s192
159.993	0.85	0.3	89.0	stop_signal	89.0	0.43	False	go	s192
162.248	0.85	0.3	89.0	stop_signal	89.0	0.389	False	go	s192
164.777	0.85	0.3	89.0	stop_signal	89.0	0.553	False	stop_failure	s192
167.847	0.85	0.25	71.0	stop_signal	-1.0	n/a	True	stop_success	s192
170.099	0.85	0.3	71.0	stop_signal	71.0	0.564	False	go	s192
172.489	0.85	0.3	71.0	stop_signal	71.0	0.449	False	stop_failure	s192
174.878	0.85	0.25	71.0	stop_signal	71.0	0.62	False	go	s192
177.404	0.85	0.25	71.0	stop_signal	71.0	0.436	False	go	s192
179.793	0.85	0.25	89.0	stop_signal	89.0	0.526	False	go	s192
182.185	0.85	0.25	71.0	stop_signal	-1.0	n/a	True	stop_success	s192
184.983	0.85	0.3	71.0	stop_signal	71.0	0.662	False	go	s192
187.375	0.85	0.3	71.0	stop_signal	71.0	0.481	False	stop_failure	s192
189.631	0.85	0.25	71.0	stop_signal	71.0	0.46	False	stop_failure	s192
192.156	0.85	0.2	71.0	stop_signal	-1.0	n/a	True	stop_success	s192
194.546	0.85	0.25	71.0	stop_signal	71.0	0.566	False	go	s192
196.936	0.85	0.25	89.0	stop_signal	-1.0	n/a	True	stop_success	s192
199.191	0.85	0.3	71.0	stop_signal	71.0	0.459	False	go	s192
201.579	0.85	0.3	89.0	stop_signal	89.0	0.676	False	go	s192
203.834	0.85	0.3	89.0	stop_signal	89.0	0.525	False	stop_failure	s192
206.086	0.85	0.25	71.0	stop_signal	71.0	0.495	False	go	s192
208.338	0.85	0.25	71.0	stop_signal	71.0	0.463	False	go	s192
210.73	0.85	0.25	71.0	stop_signal	71.0	0.442	False	stop_failure	s192
223.499	0.85	0.2	71.0	stop_signal	71.0	0.557	False	stop_failure	s192
225.752	0.85	0.15	71.0	stop_signal	-1.0	n/a	True	stop_success	s192
228.141	0.85	0.2	89.0	stop_signal	89.0	0.411	False	stop_failure	s192
230.534	0.85	0.15	89.0	stop_signal	89.0	0.492	False	go	s192
232.787	0.85	0.15	89.0	stop_signal	-1.0	n/a	True	stop_success	s192
235.312	0.85	0.2	71.0	stop_signal	71.0	0.42	False	go	s192
237.566	0.85	0.2	89.0	stop_signal	89.0	0.449	False	go	s192
239.958	0.85	0.2	89.0	stop_signal	89.0	0.366	False	go	s192
242.21	0.85	0.2	71.0	stop_signal	-1.0	n/a	True	stop_success	s192
244.462	0.85	0.25	71.0	stop_signal	71.0	0.628	False	go	s192
246.854	0.85	0.25	71.0	stop_signal	71.0	0.417	False	go	s192
249.38	0.85	0.25	89.0	stop_signal	89.0	0.538	False	go	s192
251.772	0.85	0.25	89.0	stop_signal	89.0	0.362	False	go	s192
254.297	0.85	0.25	89.0	stop_signal	89.0	0.455	False	stop_failure	s192
257.233	0.85	0.2	89.0	stop_signal	89.0	0.728	False	go	s192
259.761	0.85	0.2	89.0	stop_signal	89.0	0.429	False	go	s192
262.288	0.85	0.2	89.0	stop_signal	89.0	0.382	False	go	s192
264.54	0.85	0.2	89.0	stop_signal	-1.0	n/a	True	stop_success	s192
267.064	0.85	0.25	89.0	stop_signal	89.0	0.523	False	go	s192
269.452	0.85	0.25	89.0	stop_signal	89.0	0.439	False	go	s192
271.706	0.85	0.25	71.0	stop_signal	71.0	0.54	False	go	s192
274.096	0.85	0.25	89.0	stop_signal	89.0	0.651	False	go	s192
276.349	0.85	0.25	89.0	stop_signal	89.0	0.48	False	stop_failure	s192
278.738	0.85	0.2	71.0	stop_signal	71.0	0.651	False	go	s192
281.265	0.85	0.2	71.0	stop_signal	71.0	0.602	False	stop_failure	s192
283.519	0.85	0.15	71.0	stop_signal	71.0	0.562	False	stop_failure	s192
285.909	0.85	0.1	89.0	stop_signal	89.0	0.563	False	go	s192
288.57	0.85	0.1	89.0	stop_signal	-1.0	n/a	True	stop_success	s192
290.824	0.85	0.15	71.0	stop_signal	71.0	0.837	False	go	s192
294.028	0.85	0.15	71.0	stop_signal	71.0	0.708	False	go	s192
296.416	0.85	0.15	71.0	stop_signal	71.0	0.571	False	go	s192
298.804	0.85	0.15	89.0	stop_signal	89.0	0.55	False	stop_failure	s192
301.331	0.85	0.1	71.0	stop_signal	71.0	0.492	False	go	s192
303.583	0.85	0.1	71.0	stop_signal	-1.0	n/a	True	stop_success	s192
305.838	0.85	0.15	89.0	stop_signal	-1.0	n/a	True	stop_success	s192
308.089	0.85	0.2	89.0	stop_signal	89.0	0.622	False	go	s192
311.022	0.85	0.2	89.0	stop_signal	89.0	0.431	False	go	s192
313.55	0.85	0.2	89.0	stop_signal	89.0	0.45	False	go	s192
316.074	0.85	0.2	89.0	stop_signal	89.0	0.385	False	go	s192
318.329	0.85	0.2	89.0	stop_signal	89.0	0.527	False	stop_failure	s192
320.853	0.85	0.15	89.0	stop_signal	-1.0	n/a	True	stop_success	s192
323.107	0.85	0.2	89.0	stop_signal	89.0	0.831	False	go	s192
