onset	duration	EV	action	clicked_on_loss_card	experiment_exp_id	gain_amount	gain_probability	key_press	loss_amount	loss_probability	num_cards	num_click_in_round	num_loss_cards	risk	response_time	total_cards	trial_id	worker_id
3.011	3.14	0.4502058318539212	draw_card	0.0	columbia_card_task_fmri	12.0	0.8333333333333334	89.0	-70.0	0.1666666666666666	6.0	1.0	1.0	-3.622443551123961	3.14	n/a	stim	s192
6.154	1.167	-2.2831275014794112	draw_card	0.0	columbia_card_task_fmri	12.0	0.8	89.0	-70.0	0.2	6.0	2.0	1.0	-1.3870304869842442	1.167	n/a	stim	s192
7.324	1.409	-6.383127501479413	draw_card	0.0	columbia_card_task_fmri	12.0	0.75	89.0	-70.0	0.25	6.0	3.0	1.0	1.3148181400192414	1.409	n/a	stim	s192
8.735	1.806	-13.216460834812745	draw_card	0.0	columbia_card_task_fmri	12.0	0.6666666666666667	89.0	-70.0	0.3333333333333333	6.0	4.0	1.0	4.457820736553025	1.806	n/a	stim	s192
10.543	0.906	-26.88312750147941	end_round	0.0	columbia_card_task_fmri	12.0	0.5	71.0	-70.0	0.5	6.0	5.0	1.0	6.799342086149949	0.906	4.0	stim	s192
11.451	2.25	n/a	-1.0	n/a	columbia_card_task_fmri	n/a	n/a	-1.0	n/a	n/a	n/a	n/a	n/a	n/a	n/a	n/a	feedback	s192
13.701	0.204	n/a	-1.0	n/a	columbia_card_task_fmri	n/a	n/a	-1.0	n/a	n/a	n/a	n/a	n/a	n/a	n/a	n/a	ITI	s192
13.908	2.999	1.2835391651872552	draw_card	0.0	columbia_card_task_fmri	14.0	0.8333333333333334	89.0	-75.0	0.1666666666666666	6.0	1.0	1.0	-1.0194450848267491	2.999	n/a	stim	s192
16.909	0.908	-1.6831275014794116	draw_card	0.0	columbia_card_task_fmri	14.0	0.8	89.0	-75.0	0.2	6.0	2.0	1.0	1.40761224952967	0.908	n/a	stim	s192
17.819	1.44	-6.133127501479413	draw_card	0.0	columbia_card_task_fmri	14.0	0.75	89.0	-75.0	0.25	6.0	3.0	1.0	4.3409561378622	1.44	n/a	stim	s192
19.261	1.765	-13.54979416814608	draw_card	1.0	columbia_card_task_fmri	14.0	0.6666666666666667	89.0	-75.0	0.3333333333333333	6.0	4.0	1.0	7.753102931269382	1.765	4.0	stim	s192
21.028	2.25	n/a	-1.0	n/a	columbia_card_task_fmri	n/a	n/a	-1.0	n/a	n/a	n/a	n/a	n/a	n/a	n/a	n/a	feedback	s192
23.278	0.204	n/a	-1.0	n/a	columbia_card_task_fmri	n/a	n/a	-1.0	n/a	n/a	n/a	n/a	n/a	n/a	n/a	n/a	ITI	s192
23.484	2.554	2.9502058318539213	draw_card	0.0	columbia_card_task_fmri	15.0	0.8333333333333334	89.0	-70.0	0.1666666666666666	6.0	1.0	1.0	-2.506988310396604	2.554	n/a	stim	s192
26.041	1.239	0.1168724985205873	draw_card	0.0	columbia_card_task_fmri	15.0	0.8	89.0	-70.0	0.2	6.0	2.0	1.0	-0.1894341905582877	1.239	n/a	stim	s192
27.281	1.292	-4.133127501479413	draw_card	0.0	columbia_card_task_fmri	15.0	0.75	89.0	-70.0	0.25	6.0	3.0	1.0	2.6116348206993365	1.292	n/a	stim	s192
28.574	1.901	-11.216460834812745	draw_card	0.0	columbia_card_task_fmri	15.0	0.6666666666666667	89.0	-70.0	0.3333333333333333	6.0	4.0	1.0	5.869992971701009	1.901	n/a	stim	s192
30.477	0.889	-25.38312750147941	end_round	0.0	columbia_card_task_fmri	15.0	0.5	71.0	-70.0	0.5	6.0	5.0	1.0	8.297417041284227	0.889	4.0	stim	s192
31.369	2.25	n/a	-1.0	n/a	columbia_card_task_fmri	n/a	n/a	-1.0	n/a	n/a	n/a	n/a	n/a	n/a	n/a	n/a	feedback	s192
33.619	0.272	n/a	-1.0	n/a	columbia_card_task_fmri	n/a	n/a	-1.0	n/a	n/a	n/a	n/a	n/a	n/a	n/a	n/a	ITI	s192
33.893	2.416	3.783539165187255	draw_card	0.0	columbia_card_task_fmri	17.0	0.8333333333333334	89.0	-75.0	0.1666666666666666	6.0	1.0	1.0	0.0963926252799893	2.416	n/a	stim	s192
36.31	1.236	0.7168724985205888	draw_card	0.0	columbia_card_task_fmri	17.0	0.8	89.0	-75.0	0.2	6.0	2.0	1.0	2.6055651920422638	1.236	n/a	stim	s192
37.547	2.487	-3.8831275014794127	end_round	0.0	columbia_card_task_fmri	17.0	0.75	71.0	-75.0	0.25	6.0	3.0	1.0	5.638102543004671	2.487	2.0	stim	s192
40.039	2.25	n/a	-1.0	n/a	columbia_card_task_fmri	n/a	n/a	-1.0	n/a	n/a	n/a	n/a	n/a	n/a	n/a	n/a	feedback	s192
42.289	0.204	n/a	-1.0	n/a	columbia_card_task_fmri	n/a	n/a	-1.0	n/a	n/a	n/a	n/a	n/a	n/a	n/a	n/a	ITI	s192
42.495	2.765	5.116872498520587	draw_card	0.0	columbia_card_task_fmri	24.0	0.75	89.0	-60.0	0.25	8.0	1.0	2.0	2.1793450082844217	2.765	n/a	stim	s192
45.261	1.782	2.116872498520588	draw_card	0.0	columbia_card_task_fmri	24.0	0.7142857142857143	89.0	-60.0	0.2857142857142857	8.0	2.0	2.0	3.751060679701844	1.782	n/a	stim	s192
47.045	1.385	-1.8831275014794129	draw_card	1.0	columbia_card_task_fmri	24.0	0.6666666666666667	89.0	-60.0	0.3333333333333333	8.0	3.0	2.0	5.399252727088545	1.385	3.0	stim	s192
48.433	2.25	n/a	-1.0	n/a	columbia_card_task_fmri	n/a	n/a	-1.0	n/a	n/a	n/a	n/a	n/a	n/a	n/a	n/a	feedback	s192
50.683	0.408	n/a	-1.0	n/a	columbia_card_task_fmri	n/a	n/a	-1.0	n/a	n/a	n/a	n/a	n/a	n/a	n/a	n/a	ITI	s192
51.092	2.165	5.116872498520587	draw_card	0.0	columbia_card_task_fmri	29.0	0.75	89.0	-75.0	0.25	8.0	1.0	2.0	10.827777544897115	2.165	n/a	stim	s192
53.258	1.062	1.4025867842348756	draw_card	0.0	columbia_card_task_fmri	29.0	0.7142857142857143	89.0	-75.0	0.2857142857142857	8.0	2.0	2.0	12.774806715509236	1.062	n/a	stim	s192
54.321	2.466	-3.549794168146077	draw_card	0.0	columbia_card_task_fmri	29.0	0.6666666666666667	89.0	-75.0	0.3333333333333333	8.0	3.0	2.0	14.816480874190638	2.466	n/a	stim	s192
56.789	3.604	-10.483127501479414	draw_card	0.0	columbia_card_task_fmri	29.0	0.6	89.0	-75.0	0.4	8.0	4.0	2.0	16.73807446223052	3.604	n/a	stim	s192
60.394	1.409	-20.88312750147941	end_round	0.0	columbia_card_task_fmri	29.0	0.5	71.0	-75.0	0.5	8.0	5.0	2.0	17.78780043273671	1.409	4.0	stim	s192
61.808	2.25	n/a	-1.0	n/a	columbia_card_task_fmri	n/a	n/a	-1.0	n/a	n/a	n/a	n/a	n/a	n/a	n/a	n/a	feedback	s192
64.058	0.136	n/a	-1.0	n/a	columbia_card_task_fmri	n/a	n/a	-1.0	n/a	n/a	n/a	n/a	n/a	n/a	n/a	n/a	ITI	s192
64.197	2.37	0.8946502762983677	draw_card	0.0	columbia_card_task_fmri	17.0	0.7777777777777778	89.0	-65.0	0.2222222222222222	9.0	1.0	2.0	-0.0989527372194345	2.37	n/a	stim	s192
66.569	1.133	-1.3831275014794129	draw_card	1.0	columbia_card_task_fmri	17.0	0.75	89.0	-65.0	0.25	9.0	2.0	2.0	1.3148181400192414	1.133	2.0	stim	s192
67.706	2.25	n/a	-1.0	n/a	columbia_card_task_fmri	n/a	n/a	-1.0	n/a	n/a	n/a	n/a	n/a	n/a	n/a	n/a	feedback	s192
69.956	0.272	n/a	-1.0	n/a	columbia_card_task_fmri	n/a	n/a	-1.0	n/a	n/a	n/a	n/a	n/a	n/a	n/a	n/a	ITI	s192
70.231	3.53	5.216872498520587	end_round	0.0	columbia_card_task_fmri	14.0	0.9	71.0	-95.0	0.1	10.0	1.0	1.0	-1.4868222396050044	3.53	0.0	stim	s192
73.765	2.25	n/a	-1.0	n/a	columbia_card_task_fmri	n/a	n/a	-1.0	n/a	n/a	n/a	n/a	n/a	n/a	n/a	n/a	feedback	s192
76.015	0.34	n/a	-1.0	n/a	columbia_card_task_fmri	n/a	n/a	-1.0	n/a	n/a	n/a	n/a	n/a	n/a	n/a	n/a	ITI	s192
76.358	1.831	1.1168724985205871	draw_card	1.0	columbia_card_task_fmri	15.0	0.8	89.0	-65.0	0.2	10.0	1.0	2.0	-2.185328181981127	1.831	1.0	stim	s192
78.194	2.25	n/a	-1.0	n/a	columbia_card_task_fmri	n/a	n/a	-1.0	n/a	n/a	n/a	n/a	n/a	n/a	n/a	n/a	feedback	s192
80.444	0.136	n/a	-1.0	n/a	columbia_card_task_fmri	n/a	n/a	-1.0	n/a	n/a	n/a	n/a	n/a	n/a	n/a	n/a	ITI	s192
80.582	1.771	2.7168724985205888	draw_card	0.0	columbia_card_task_fmri	17.0	0.8	89.0	-65.0	0.2	10.0	1.0	2.0	-1.3870304869842442	1.771	n/a	stim	s192
82.355	0.674	0.8946502762983677	draw_card	0.0	columbia_card_task_fmri	17.0	0.7777777777777778	89.0	-65.0	0.2222222222222222	10.0	2.0	2.0	-0.0989527372194345	0.674	n/a	stim	s192
83.03	1.615	-1.3831275014794129	draw_card	0.0	columbia_card_task_fmri	17.0	0.75	89.0	-65.0	0.25	10.0	3.0	2.0	1.3148181400192414	1.615	n/a	stim	s192
84.648	2.503	-4.31169893005084	draw_card	0.0	columbia_card_task_fmri	17.0	0.7142857142857143	89.0	-65.0	0.2857142857142857	10.0	4.0	2.0	2.848989447650702	2.503	n/a	stim	s192
87.153	1.129	-8.216460834812743	end_round	0.0	columbia_card_task_fmri	17.0	0.6666666666666667	71.0	-65.0	0.3333333333333333	10.0	5.0	2.0	4.457820736553025	1.129	4.0	stim	s192
88.284	2.25	n/a	-1.0	n/a	columbia_card_task_fmri	n/a	n/a	-1.0	n/a	n/a	n/a	n/a	n/a	n/a	n/a	n/a	feedback	s192
90.534	0.34	n/a	-1.0	n/a	columbia_card_task_fmri	n/a	n/a	-1.0	n/a	n/a	n/a	n/a	n/a	n/a	n/a	n/a	ITI	s192
90.876	2.021	1.2835391651872552	draw_card	0.0	columbia_card_task_fmri	13.0	0.8333333333333334	89.0	-70.0	0.1666666666666666	12.0	1.0	2.0	-3.250645778211439	2.021	n/a	stim	s192
92.899	1.583	0.0259634076114938	draw_card	1.0	columbia_card_task_fmri	13.0	0.8181818181818181	89.0	-70.0	0.1818181818181818	12.0	2.0	2.0	-2.1727033075736983	1.583	2.0	stim	s192
94.487	2.25	n/a	-1.0	n/a	columbia_card_task_fmri	n/a	n/a	-1.0	n/a	n/a	n/a	n/a	n/a	n/a	n/a	n/a	feedback	s192
96.737	0.068	n/a	-1.0	n/a	columbia_card_task_fmri	n/a	n/a	-1.0	n/a	n/a	n/a	n/a	n/a	n/a	n/a	n/a	ITI	s192
96.807	1.935	1.2835391651872552	draw_card	1.0	columbia_card_task_fmri	15.0	0.8333333333333334	89.0	-80.0	0.1666666666666666	12.0	1.0	2.0	1.2123686647059913	1.935	1.0	stim	s192
98.747	2.25	n/a	-1.0	n/a	columbia_card_task_fmri	n/a	n/a	-1.0	n/a	n/a	n/a	n/a	n/a	n/a	n/a	n/a	feedback	s192
100.997	0.0	n/a	-1.0	n/a	columbia_card_task_fmri	n/a	n/a	-1.0	n/a	n/a	n/a	n/a	n/a	n/a	n/a	n/a	ITI	s192
100.999	2.397	0.3168724985205884	draw_card	0.0	columbia_card_task_fmri	14.0	0.8	89.0	-65.0	0.2	15.0	1.0	3.0	-2.5844448138099985	2.397	n/a	stim	s192
103.398	1.178	-0.8116989300508397	draw_card	0.0	columbia_card_task_fmri	14.0	0.7857142857142857	89.0	-65.0	0.2142857142857142	15.0	2.0	3.0	-1.7704769315154607	1.178	n/a	stim	s192
104.578	1.177	-2.1138967322486444	draw_card	0.0	columbia_card_task_fmri	14.0	0.7692307692307692	89.0	-65.0	0.2307692307692307	15.0	3.0	3.0	-0.9033436469797778	1.177	n/a	stim	s192
105.757	1.735	-3.6331275014794127	draw_card	1.0	columbia_card_task_fmri	14.0	0.75	89.0	-65.0	0.25	15.0	4.0	3.0	0.018169709475778	1.735	4.0	stim	s192
107.498	2.25	n/a	-1.0	n/a	columbia_card_task_fmri	n/a	n/a	-1.0	n/a	n/a	n/a	n/a	n/a	n/a	n/a	n/a	feedback	s192
109.748	0.204	n/a	-1.0	n/a	columbia_card_task_fmri	n/a	n/a	-1.0	n/a	n/a	n/a	n/a	n/a	n/a	n/a	n/a	ITI	s192
109.954	3.982	0.2418724985205873	end_round	0.0	columbia_card_task_fmri	1.0	0.9375	71.0	-45.0	0.0625	16.0	1.0	1.0	-22.92100641991676	3.982	0.0	stim	s192
113.941	2.25	n/a	-1.0	n/a	columbia_card_task_fmri	n/a	n/a	-1.0	n/a	n/a	n/a	n/a	n/a	n/a	n/a	n/a	feedback	s192
116.191	1.02	n/a	-1.0	n/a	columbia_card_task_fmri	n/a	n/a	-1.0	n/a	n/a	n/a	n/a	n/a	n/a	n/a	n/a	ITI	s192
117.214	2.174	1.1793724985205871	draw_card	0.0	columbia_card_task_fmri	15.0	0.8125	89.0	-70.0	0.1875	16.0	1.0	3.0	-1.0112515506905737	2.174	n/a	stim	s192
119.391	1.287	0.1168724985205873	draw_card	0.0	columbia_card_task_fmri	15.0	0.8	89.0	-70.0	0.2	16.0	2.0	3.0	-0.1894341905582877	1.287	n/a	stim	s192
120.679	1.25	-1.097413215765128	draw_card	0.0	columbia_card_task_fmri	15.0	0.7857142857142857	89.0	-70.0	0.2142857142857142	16.0	3.0	3.0	0.6866139152742292	1.25	n/a	stim	s192
121.931	1.173	-2.4985121168640294	draw_card	0.0	columbia_card_task_fmri	15.0	0.7692307692307692	89.0	-70.0	0.2307692307692307	16.0	4.0	3.0	1.6198683156641491	1.173	n/a	stim	s192
123.107	1.528	-4.133127501479413	end_round	0.0	columbia_card_task_fmri	15.0	0.75	71.0	-70.0	0.25	16.0	5.0	3.0	2.6116348206993365	1.528	4.0	stim	s192
124.641	2.25	n/a	-1.0	n/a	columbia_card_task_fmri	n/a	n/a	-1.0	n/a	n/a	n/a	n/a	n/a	n/a	n/a	n/a	feedback	s192
126.891	0.0	n/a	-1.0	n/a	columbia_card_task_fmri	n/a	n/a	-1.0	n/a	n/a	n/a	n/a	n/a	n/a	n/a	n/a	ITI	s192
126.893	3.446	8.116872498520587	draw_card	1.0	columbia_card_task_fmri	30.0	0.7	89.0	-50.0	0.3	10.0	1.0	3.0	2.466401679980692	3.446	1.0	stim	s192
130.343	2.25	n/a	-1.0	n/a	columbia_card_task_fmri	n/a	n/a	-1.0	n/a	n/a	n/a	n/a	n/a	n/a	n/a	n/a	feedback	s192
132.593	0.0	n/a	-1.0	n/a	columbia_card_task_fmri	n/a	n/a	-1.0	n/a	n/a	n/a	n/a	n/a	n/a	n/a	n/a	ITI	s192
132.596	1.667	7.516872498520588	draw_card	0.0	columbia_card_task_fmri	17.0	0.8666666666666667	89.0	-70.0	0.1333333333333333	15.0	1.0	2.0	-4.605292482729105	1.667	n/a	stim	s192
134.266	0.634	6.68830106994916	draw_card	0.0	columbia_card_task_fmri	17.0	0.8571428571428572	89.0	-70.0	0.1428571428571428	15.0	2.0	2.0	-3.7381028015192506	0.634	n/a	stim	s192
134.901	1.057	5.732257113905202	draw_card	1.0	columbia_card_task_fmri	17.0	0.8461538461538461	89.0	-70.0	0.1538461538461538	15.0	3.0	2.0	-2.7942659264311303	1.057	3.0	stim	s192
135.966	2.25	n/a	-1.0	n/a	columbia_card_task_fmri	n/a	n/a	-1.0	n/a	n/a	n/a	n/a	n/a	n/a	n/a	n/a	feedback	s192
138.216	0.068	n/a	-1.0	n/a	columbia_card_task_fmri	n/a	n/a	-1.0	n/a	n/a	n/a	n/a	n/a	n/a	n/a	n/a	ITI	s192
138.287	2.92	2.741872498520588	end_round	0.0	columbia_card_task_fmri	7.0	0.9375	71.0	-95.0	0.0625	16.0	1.0	1.0	-9.474419754609992	2.92	0.0	stim	s192
141.211	2.25	n/a	-1.0	n/a	columbia_card_task_fmri	n/a	n/a	-1.0	n/a	n/a	n/a	n/a	n/a	n/a	n/a	n/a	feedback	s192
143.461	0.476	n/a	-1.0	n/a	columbia_card_task_fmri	n/a	n/a	-1.0	n/a	n/a	n/a	n/a	n/a	n/a	n/a	n/a	ITI	s192
143.939	2.917	4.304372498520587	draw_card	0.0	columbia_card_task_fmri	9.0	0.9375	89.0	-100.0	0.0625	16.0	1.0	1.0	-7.785787408971011	2.917	n/a	stim	s192
146.858	1.118	3.8502058318539207	end_round	0.0	columbia_card_task_fmri	9.0	0.9333333333333332	71.0	-100.0	0.0666666666666666	16.0	2.0	1.0	-6.98361094549497	1.118	1.0	stim	s192
147.979	2.25	n/a	-1.0	n/a	columbia_card_task_fmri	n/a	n/a	-1.0	n/a	n/a	n/a	n/a	n/a	n/a	n/a	n/a	feedback	s192
150.229	0.136	n/a	-1.0	n/a	columbia_card_task_fmri	n/a	n/a	-1.0	n/a	n/a	n/a	n/a	n/a	n/a	n/a	n/a	ITI	s192
150.367	1.97	5.241872498520587	draw_card	0.0	columbia_card_task_fmri	15.0	0.875	89.0	-80.0	0.125	16.0	1.0	2.0	-2.76573931333218	1.97	n/a	stim	s192
152.341	0.758	4.450205831853921	draw_card	0.0	columbia_card_task_fmri	15.0	0.8666666666666667	89.0	-80.0	0.1333333333333333	16.0	2.0	2.0	-1.892172847934724	0.758	n/a	stim	s192
153.101	1.014	3.545443927092018	draw_card	0.0	columbia_card_task_fmri	15.0	0.8571428571428572	89.0	-80.0	0.1428571428571428	16.0	3.0	2.0	-0.944863071177302	1.014	n/a	stim	s192
154.118	0.781	2.5014878831359706	draw_card	0.0	columbia_card_task_fmri	15.0	0.8461538461538461	89.0	-80.0	0.1538461538461538	16.0	4.0	2.0	0.0861516445001129	0.781	n/a	stim	s192
154.902	1.273	1.2835391651872552	draw_card	0.0	columbia_card_task_fmri	15.0	0.8333333333333334	89.0	-80.0	0.1666666666666666	16.0	5.0	2.0	1.2123686647059913	1.273	n/a	stim	s192
156.177	0.583	-0.1558547742066878	draw_card	0.0	columbia_card_task_fmri	15.0	0.8181818181818181	89.0	-80.0	0.1818181818181818	16.0	6.0	2.0	2.446816513327072	0.583	n/a	stim	s192
156.763	1.466	-1.8831275014794129	draw_card	1.0	columbia_card_task_fmri	15.0	0.8	89.0	-80.0	0.2	16.0	7.0	2.0	3.803647112367507	1.466	7.0	stim	s192
158.233	2.25	n/a	-1.0	n/a	columbia_card_task_fmri	n/a	n/a	-1.0	n/a	n/a	n/a	n/a	n/a	n/a	n/a	n/a	feedback	s192
160.483	0.068	n/a	-1.0	n/a	columbia_card_task_fmri	n/a	n/a	-1.0	n/a	n/a	n/a	n/a	n/a	n/a	n/a	n/a	ITI	s192
160.554	2.433	7.366872498520587	draw_card	0.0	columbia_card_task_fmri	16.0	0.875	89.0	-70.0	0.125	16.0	1.0	2.0	-5.734774455493238	2.433	n/a	stim	s192
162.99	1.024	6.650205831853921	draw_card	0.0	columbia_card_task_fmri	16.0	0.8666666666666667	89.0	-70.0	0.1333333333333333	16.0	2.0	2.0	-4.9443495869133365	1.024	n/a	stim	s192
164.017	0.825	5.831158212806303	draw_card	0.0	columbia_card_task_fmri	16.0	0.8571428571428572	89.0	-70.0	0.1428571428571428	16.0	3.0	2.0	-4.087177250483375	0.825	n/a	stim	s192
164.844	1.334	4.886103267751356	draw_card	0.0	columbia_card_task_fmri	16.0	0.8461538461538461	89.0	-70.0	0.1538461538461538	16.0	4.0	2.0	-3.1542400002673325	1.334	n/a	stim	s192
166.181	1.687	3.783539165187255	draw_card	0.0	columbia_card_task_fmri	16.0	0.8333333333333334	89.0	-70.0	0.1666666666666666	16.0	5.0	2.0	-2.135130049135306	1.687	n/a	stim	s192
167.871	1.862	2.480508862156949	draw_card	0.0	columbia_card_task_fmri	16.0	0.8181818181818181	89.0	-70.0	0.1818181818181818	16.0	6.0	2.0	-1.0180533015057378	1.862	n/a	stim	s192
169.736	1.205	0.916872498520588	draw_card	0.0	columbia_card_task_fmri	16.0	0.8	89.0	-70.0	0.2	16.0	7.0	2.0	0.2098017340443121	1.205	n/a	stim	s192
170.943	2.348	-0.9942386125905234	end_round	0.0	columbia_card_task_fmri	16.0	0.7777777777777778	71.0	-70.0	0.2222222222222222	16.0	8.0	2.0	1.5609575803742644	2.348	7.0	stim	s192
173.294	2.25	n/a	-1.0	n/a	columbia_card_task_fmri	n/a	n/a	-1.0	n/a	n/a	n/a	n/a	n/a	n/a	n/a	n/a	feedback	s192
175.544	0.0	n/a	-1.0	n/a	columbia_card_task_fmri	n/a	n/a	-1.0	n/a	n/a	n/a	n/a	n/a	n/a	n/a	n/a	ITI	s192
175.547	1.741	8.679372498520587	draw_card	0.0	columbia_card_task_fmri	30.0	0.6875	89.0	-45.0	0.3125	16.0	1.0	5.0	0.5725531245959843	1.741	n/a	stim	s192
177.29	1.041	7.116872498520591	draw_card	0.0	columbia_card_task_fmri	30.0	0.6666666666666667	89.0	-45.0	0.3333333333333333	16.0	2.0	5.0	1.1633856802887408	1.041	n/a	stim	s192
178.335	2.355	5.331158212806299	draw_card	0.0	columbia_card_task_fmri	30.0	0.6428571428571428	89.0	-45.0	0.3571428571428571	16.0	3.0	5.0	1.7438307134351092	2.355	n/a	stim	s192
180.692	2.363	3.2707186523667406	draw_card	0.0	columbia_card_task_fmri	30.0	0.6153846153846154	89.0	-45.0	0.3846153846153846	16.0	4.0	5.0	2.293903966253559	2.363	n/a	stim	s192
183.057	1.109	0.8668724985205838	draw_card	0.0	columbia_card_task_fmri	30.0	0.5833333333333333	89.0	-45.0	0.4166666666666667	16.0	5.0	5.0	2.780775565893002	1.109	n/a	stim	s192
184.169	1.004	-1.9740365923885024	draw_card	0.0	columbia_card_task_fmri	30.0	0.5454545454545454	89.0	-45.0	0.4545454545454545	16.0	6.0	5.0	3.149399100945999	1.004	n/a	stim	s192
185.177	1.225	-5.383127501479413	draw_card	1.0	columbia_card_task_fmri	30.0	0.5	89.0	-45.0	0.5	16.0	7.0	5.0	3.304431429454084	1.225	7.0	stim	s192
186.409	2.25	n/a	-1.0	n/a	columbia_card_task_fmri	n/a	n/a	-1.0	n/a	n/a	n/a	n/a	n/a	n/a	n/a	n/a	feedback	s192
188.659	0.0	n/a	-1.0	n/a	columbia_card_task_fmri	n/a	n/a	-1.0	n/a	n/a	n/a	n/a	n/a	n/a	n/a	n/a	ITI	s192
188.662	3.112	0.4502058318539212	draw_card	1.0	columbia_card_task_fmri	13.0	0.8333333333333334	89.0	-75.0	0.1666666666666666	6.0	1.0	1.0	-1.391357812952684	3.112	1.0	stim	s192
191.777	2.25	n/a	-1.0	n/a	columbia_card_task_fmri	n/a	n/a	-1.0	n/a	n/a	n/a	n/a	n/a	n/a	n/a	n/a	feedback	s192
194.027	0.204	n/a	-1.0	n/a	columbia_card_task_fmri	n/a	n/a	-1.0	n/a	n/a	n/a	n/a	n/a	n/a	n/a	n/a	ITI	s192
194.234	1.422	2.116872498520589	draw_card	1.0	columbia_card_task_fmri	14.0	0.8333333333333334	89.0	-70.0	0.1666666666666666	6.0	1.0	1.0	-2.8788271200388067	1.422	1.0	stim	s192
195.661	2.25	n/a	-1.0	n/a	columbia_card_task_fmri	n/a	n/a	-1.0	n/a	n/a	n/a	n/a	n/a	n/a	n/a	n/a	feedback	s192
197.911	0.204	n/a	-1.0	n/a	columbia_card_task_fmri	n/a	n/a	-1.0	n/a	n/a	n/a	n/a	n/a	n/a	n/a	n/a	ITI	s192
198.117	1.539	2.116872498520589	draw_card	0.0	columbia_card_task_fmri	16.0	0.8333333333333334	89.0	-80.0	0.1666666666666666	6.0	1.0	1.0	1.5843891843274849	1.539	n/a	stim	s192
199.659	1.047	-1.083127501479412	end_round	0.0	columbia_card_task_fmri	16.0	0.8	71.0	-80.0	0.2	6.0	2.0	1.0	4.203034330835088	1.047	1.0	stim	s192
200.713	2.25	n/a	-1.0	n/a	columbia_card_task_fmri	n/a	n/a	-1.0	n/a	n/a	n/a	n/a	n/a	n/a	n/a	n/a	feedback	s192
202.963	0.272	n/a	-1.0	n/a	columbia_card_task_fmri	n/a	n/a	-1.0	n/a	n/a	n/a	n/a	n/a	n/a	n/a	n/a	ITI	s192
203.238	1.45	4.616872498520589	draw_card	0.0	columbia_card_task_fmri	17.0	0.8333333333333334	89.0	-70.0	0.1666666666666666	6.0	1.0	1.0	-1.7632530041031202	1.45	n/a	stim	s192
204.69	1.182	1.7168724985205888	draw_card	0.0	columbia_card_task_fmri	17.0	0.8	89.0	-70.0	0.2	6.0	2.0	1.0	0.6090551744503045	1.182	n/a	stim	s192
205.875	0.681	-2.6331275014794127	end_round	0.0	columbia_card_task_fmri	17.0	0.75	71.0	-70.0	0.25	6.0	3.0	1.0	3.476264179936706	0.681	2.0	stim	s192
206.561	2.25	n/a	-1.0	n/a	columbia_card_task_fmri	n/a	n/a	-1.0	n/a	n/a	n/a	n/a	n/a	n/a	n/a	n/a	feedback	s192
208.811	0.136	n/a	-1.0	n/a	columbia_card_task_fmri	n/a	n/a	-1.0	n/a	n/a	n/a	n/a	n/a	n/a	n/a	n/a	ITI	s192
208.951	1.609	4.616872498520587	draw_card	0.0	columbia_card_task_fmri	25.0	0.75	89.0	-65.0	0.25	8.0	1.0	2.0	4.773324291130223	1.609	n/a	stim	s192
210.563	0.617	1.4025867842348756	draw_card	0.0	columbia_card_task_fmri	25.0	0.7142857142857143	89.0	-65.0	0.2857142857142857	8.0	2.0	2.0	6.457656667475362	0.617	n/a	stim	s192
211.184	1.401	-2.883127501479409	draw_card	0.0	columbia_card_task_fmri	25.0	0.6666666666666667	89.0	-65.0	0.3333333333333333	8.0	3.0	2.0	8.223915189806185	1.401	n/a	stim	s192
212.587	1.546	-8.883127501479413	draw_card	0.0	columbia_card_task_fmri	25.0	0.6	89.0	-65.0	0.4	8.0	4.0	2.0	9.886333679257396	1.546	n/a	stim	s192
214.136	0.96	-17.883127501479414	end_round	0.0	columbia_card_task_fmri	25.0	0.5	71.0	-65.0	0.5	8.0	5.0	2.0	10.7944933280764	0.96	4.0	stim	s192
215.102	2.25	n/a	-1.0	n/a	columbia_card_task_fmri	n/a	n/a	-1.0	n/a	n/a	n/a	n/a	n/a	n/a	n/a	n/a	feedback	s192
217.352	0.204	n/a	-1.0	n/a	columbia_card_task_fmri	n/a	n/a	-1.0	n/a	n/a	n/a	n/a	n/a	n/a	n/a	n/a	ITI	s192
217.559	1.77	4.616872498520587	draw_card	0.0	columbia_card_task_fmri	30.0	0.75	89.0	-80.0	0.25	8.0	1.0	2.0	13.42314416695836	1.77	n/a	stim	s192
219.332	0.545	0.6883010699491638	draw_card	0.0	columbia_card_task_fmri	30.0	0.7142857142857143	89.0	-80.0	0.2857142857142857	8.0	2.0	2.0	15.482732913271356	0.545	n/a	stim	s192
219.88	1.909	-4.549794168146073	end_round	0.0	columbia_card_task_fmri	30.0	0.6666666666666667	71.0	-80.0	0.3333333333333333	8.0	3.0	2.0	17.64241847327775	1.909	2.0	stim	s192
221.793	2.25	n/a	-1.0	n/a	columbia_card_task_fmri	n/a	n/a	-1.0	n/a	n/a	n/a	n/a	n/a	n/a	n/a	n/a	feedback	s192
224.043	0.272	n/a	-1.0	n/a	columbia_card_task_fmri	n/a	n/a	-1.0	n/a	n/a	n/a	n/a	n/a	n/a	n/a	n/a	ITI	s192
224.318	1.819	4.316872498520588	draw_card	0.0	columbia_card_task_fmri	13.0	0.9	89.0	-95.0	0.1	10.0	1.0	1.0	-1.7861898090238952	1.819	n/a	stim	s192
226.141	0.961	3.116872498520588	end_round	0.0	columbia_card_task_fmri	13.0	0.8888888888888888	71.0	-95.0	0.1111111111111111	10.0	2.0	1.0	-0.2481947161570517	0.961	1.0	stim	s192
227.107	2.25	n/a	-1.0	n/a	columbia_card_task_fmri	n/a	n/a	-1.0	n/a	n/a	n/a	n/a	n/a	n/a	n/a	n/a	feedback	s192
229.357	0.272	n/a	-1.0	n/a	columbia_card_task_fmri	n/a	n/a	-1.0	n/a	n/a	n/a	n/a	n/a	n/a	n/a	n/a	ITI	s192
229.633	1.924	5.716872498520587	draw_card	0.0	columbia_card_task_fmri	14.0	0.9	89.0	-90.0	0.1	10.0	1.0	1.0	-2.983538872073737	1.924	n/a	stim	s192
231.56	0.75	4.56131694296503	draw_card	0.0	columbia_card_task_fmri	14.0	0.8888888888888888	89.0	-90.0	0.1111111111111111	10.0	2.0	1.0	-1.5027421250934123	0.75	n/a	stim	s192
232.314	1.032	3.116872498520588	end_round	0.0	columbia_card_task_fmri	14.0	0.875	71.0	-90.0	0.125	10.0	3.0	1.0	0.2045786594140466	1.032	2.0	stim	s192
233.353	2.25	n/a	-1.0	n/a	columbia_card_task_fmri	n/a	n/a	-1.0	n/a	n/a	n/a	n/a	n/a	n/a	n/a	n/a	feedback	s192
235.603	0.34	n/a	-1.0	n/a	columbia_card_task_fmri	n/a	n/a	-1.0	n/a	n/a	n/a	n/a	n/a	n/a	n/a	n/a	ITI	s192
235.946	1.911	0.916872498520588	draw_card	0.0	columbia_card_task_fmri	16.0	0.8	89.0	-70.0	0.2	10.0	1.0	2.0	0.2098017340443121	1.911	n/a	stim	s192
237.86	0.414	-0.9942386125905234	draw_card	0.0	columbia_card_task_fmri	16.0	0.7777777777777778	89.0	-70.0	0.2222222222222222	10.0	2.0	2.0	1.5609575803742644	0.414	n/a	stim	s192
238.278	0.613	-3.3831275014794127	draw_card	0.0	columbia_card_task_fmri	16.0	0.75	89.0	-70.0	0.25	10.0	3.0	2.0	3.0439414033944843	0.613	n/a	stim	s192
238.893	0.955	-6.454556072907984	draw_card	0.0	columbia_card_task_fmri	16.0	0.7142857142857143	89.0	-70.0	0.2857142857142857	10.0	4.0	2.0	4.653198581690269	0.955	n/a	stim	s192
239.852	2.136	-10.549794168146075	draw_card	0.0	columbia_card_task_fmri	16.0	0.6666666666666667	89.0	-70.0	0.3333333333333333	10.0	5.0	2.0	6.340748632713137	2.136	n/a	stim	s192
241.991	3.219	-16.283127501479413	end_round	0.0	columbia_card_task_fmri	16.0	0.6	71.0	-70.0	0.4	10.0	6.0	2.0	7.929101208006088	3.219	5.0	stim	s192
245.22	2.25	n/a	-1.0	n/a	columbia_card_task_fmri	n/a	n/a	-1.0	n/a	n/a	n/a	n/a	n/a	n/a	n/a	n/a	feedback	s192
247.47	0.204	n/a	-1.0	n/a	columbia_card_task_fmri	n/a	n/a	-1.0	n/a	n/a	n/a	n/a	n/a	n/a	n/a	n/a	ITI	s192
247.677	2.286	0.2002058318539212	draw_card	0.0	columbia_card_task_fmri	7.0	0.9166666666666666	89.0	-100.0	0.0833333333333333	12.0	1.0	1.0	-4.606365202977198	2.286	n/a	stim	s192
249.967	0.626	-0.6104002287521411	end_round	0.0	columbia_card_task_fmri	7.0	0.9090909090909092	71.0	-100.0	0.0909090909090909	12.0	2.0	1.0	-3.422178773456043	0.626	1.0	stim	s192
250.599	2.25	n/a	-1.0	n/a	columbia_card_task_fmri	n/a	n/a	-1.0	n/a	n/a	n/a	n/a	n/a	n/a	n/a	n/a	feedback	s192
252.849	0.068	n/a	-1.0	n/a	columbia_card_task_fmri	n/a	n/a	-1.0	n/a	n/a	n/a	n/a	n/a	n/a	n/a	n/a	ITI	s192
252.921	1.573	0.450205831853923	draw_card	1.0	columbia_card_task_fmri	14.0	0.8333333333333334	89.0	-80.0	0.1666666666666666	12.0	1.0	2.0	0.8403620961644904	1.573	1.0	stim	s192
254.502	2.25	n/a	-1.0	n/a	columbia_card_task_fmri	n/a	n/a	-1.0	n/a	n/a	n/a	n/a	n/a	n/a	n/a	n/a	feedback	s192
256.752	0.0	n/a	-1.0	n/a	columbia_card_task_fmri	n/a	n/a	-1.0	n/a	n/a	n/a	n/a	n/a	n/a	n/a	n/a	ITI	s192
256.756	1.979	2.116872498520588	draw_card	0.0	columbia_card_task_fmri	15.0	0.8333333333333334	89.0	-75.0	0.1666666666666666	12.0	1.0	2.0	-0.6475154019324165	1.979	n/a	stim	s192
258.737	0.484	0.7532361348842223	draw_card	0.0	columbia_card_task_fmri	15.0	0.8181818181818181	89.0	-75.0	0.1818181818181818	12.0	2.0	2.0	0.52173170376863	0.484	n/a	stim	s192
259.225	0.998	-0.8831275014794127	draw_card	0.0	columbia_card_task_fmri	15.0	0.8	89.0	-75.0	0.2	12.0	3.0	2.0	1.8069147727066688	0.998	n/a	stim	s192
260.227	0.64	-2.883127501479411	draw_card	0.0	columbia_card_task_fmri	15.0	0.7777777777777778	89.0	-75.0	0.2222222222222222	12.0	4.0	2.0	3.2211381979622686	0.64	n/a	stim	s192
260.87	3.149	-5.383127501479413	draw_card	0.0	columbia_card_task_fmri	15.0	0.75	89.0	-75.0	0.25	12.0	5.0	2.0	4.773324291130223	3.149	n/a	stim	s192
264.023	1.451	-8.597413215765124	end_round	0.0	columbia_card_task_fmri	15.0	0.7142857142857143	71.0	-75.0	0.2857142857142857	12.0	6.0	2.0	6.457656667475362	1.451	5.0	stim	s192
265.481	2.25	n/a	-1.0	n/a	columbia_card_task_fmri	n/a	n/a	-1.0	n/a	n/a	n/a	n/a	n/a	n/a	n/a	n/a	feedback	s192
267.731	0.408	n/a	-1.0	n/a	columbia_card_task_fmri	n/a	n/a	-1.0	n/a	n/a	n/a	n/a	n/a	n/a	n/a	n/a	ITI	s192
268.142	2.256	1.1168724985205871	draw_card	0.0	columbia_card_task_fmri	15.0	0.8	89.0	-65.0	0.2	15.0	1.0	3.0	-2.185328181981127	2.256	n/a	stim	s192
270.401	1.071	-0.025984644336555	draw_card	0.0	columbia_card_task_fmri	15.0	0.7857142857142857	89.0	-65.0	0.2142857142857142	15.0	2.0	3.0	-1.3610123079866838	1.071	n/a	stim	s192
271.475	0.627	-1.344665963017876	draw_card	0.0	columbia_card_task_fmri	15.0	0.7692307692307692	89.0	-65.0	0.2307692307692307	15.0	3.0	3.0	-0.4828575339370644	0.627	n/a	stim	s192
272.105	1.198	-2.8831275014794127	draw_card	1.0	columbia_card_task_fmri	15.0	0.75	89.0	-65.0	0.25	15.0	4.0	3.0	0.4503659943974298	1.198	4.0	stim	s192
273.306	2.25	n/a	-1.0	n/a	columbia_card_task_fmri	n/a	n/a	-1.0	n/a	n/a	n/a	n/a	n/a	n/a	n/a	n/a	feedback	s192
275.556	0.204	n/a	-1.0	n/a	columbia_card_task_fmri	n/a	n/a	-1.0	n/a	n/a	n/a	n/a	n/a	n/a	n/a	n/a	ITI	s192
275.764	2.045	0.3668724985205873	draw_card	0.0	columbia_card_task_fmri	14.0	0.8125	89.0	-70.0	0.1875	16.0	1.0	3.0	-1.400762414634805	2.045	n/a	stim	s192
277.813	0.498	-0.6831275014794116	draw_card	0.0	columbia_card_task_fmri	14.0	0.8	89.0	-70.0	0.2	16.0	2.0	3.0	-0.5886519762235025	0.498	n/a	stim	s192
278.314	0.467	-1.8831275014794129	draw_card	0.0	columbia_card_task_fmri	14.0	0.7857142857142857	89.0	-70.0	0.2142857142857142	16.0	3.0	3.0	0.2770506528715373	0.467	n/a	stim	s192
278.785	0.527	-3.2677428860947977	draw_card	0.0	columbia_card_task_fmri	14.0	0.7692307692307692	89.0	-70.0	0.2307692307692307	16.0	4.0	3.0	1.1992861094534746	0.527	n/a	stim	s192
279.314	1.782	-4.883127501479413	draw_card	0.0	columbia_card_task_fmri	14.0	0.75	89.0	-70.0	0.25	16.0	5.0	3.0	2.1793450082844217	1.782	n/a	stim	s192
281.099	0.485	-6.792218410570321	draw_card	0.0	columbia_card_task_fmri	14.0	0.7272727272727273	89.0	-70.0	0.2727272727272727	16.0	6.0	3.0	3.2149630056709526	0.485	n/a	stim	s192
281.587	1.524	-9.083127501479414	draw_card	0.0	columbia_card_task_fmri	14.0	0.7	89.0	-70.0	0.3	16.0	7.0	3.0	4.296528558026125	1.524	n/a	stim	s192
283.115	1.165	-11.88312750147941	draw_card	0.0	columbia_card_task_fmri	14.0	0.6666666666666667	89.0	-70.0	0.3333333333333333	16.0	8.0	3.0	5.399252727088545	1.165	n/a	stim	s192
284.284	0.881	-15.383127501479413	end_round	0.0	columbia_card_task_fmri	14.0	0.625	71.0	-70.0	0.375	16.0	9.0	3.0	6.466114717939682	0.881	8.0	stim	s192
285.169	2.25	n/a	-1.0	n/a	columbia_card_task_fmri	n/a	n/a	-1.0	n/a	n/a	n/a	n/a	n/a	n/a	n/a	n/a	feedback	s192
287.419	0.136	n/a	-1.0	n/a	columbia_card_task_fmri	n/a	n/a	-1.0	n/a	n/a	n/a	n/a	n/a	n/a	n/a	n/a	ITI	s192
287.559	2.688	0.3043724985205873	draw_card	1.0	columbia_card_task_fmri	11.0	0.6875	89.0	-30.0	0.3125	16.0	1.0	5.0	-15.13372444857588	2.688	1.0	stim	s192
290.254	2.25	n/a	-1.0	n/a	columbia_card_task_fmri	n/a	n/a	-1.0	n/a	n/a	n/a	n/a	n/a	n/a	n/a	n/a	feedback	s192
292.504	0.34	n/a	-1.0	n/a	columbia_card_task_fmri	n/a	n/a	-1.0	n/a	n/a	n/a	n/a	n/a	n/a	n/a	n/a	ITI	s192
292.848	1.605	5.116872498520587	draw_card	0.0	columbia_card_task_fmri	15.0	0.8666666666666667	89.0	-75.0	0.1333333333333333	15.0	1.0	2.0	-3.5880045956879805	1.605	n/a	stim	s192
294.457	0.419	4.259729641377732	draw_card	0.0	columbia_card_task_fmri	15.0	0.8571428571428572	89.0	-75.0	0.1428571428571428	15.0	2.0	2.0	-2.690766160956777	0.419	n/a	stim	s192
294.879	0.445	3.2707186523667406	draw_card	0.0	columbia_card_task_fmri	15.0	0.8461538461538461	89.0	-75.0	0.1538461538461538	15.0	3.0	2.0	-1.7142337793564837	0.445	n/a	stim	s192
295.327	0.903	2.116872498520588	draw_card	0.0	columbia_card_task_fmri	15.0	0.8333333333333334	89.0	-75.0	0.1666666666666666	15.0	4.0	2.0	-0.6475154019324165	0.903	n/a	stim	s192
296.233	0.455	0.7532361348842223	draw_card	1.0	columbia_card_task_fmri	15.0	0.8181818181818181	89.0	-75.0	0.1818181818181818	15.0	5.0	2.0	0.52173170376863	0.455	5.0	stim	s192
296.694	2.25	n/a	-1.0	n/a	columbia_card_task_fmri	n/a	n/a	-1.0	n/a	n/a	n/a	n/a	n/a	n/a	n/a	n/a	feedback	s192
298.944	0.068	n/a	-1.0	n/a	columbia_card_task_fmri	n/a	n/a	-1.0	n/a	n/a	n/a	n/a	n/a	n/a	n/a	n/a	ITI	s192
299.016	1.712	6.850205831853922	draw_card	0.0	columbia_card_task_fmri	17.0	0.8666666666666667	89.0	-75.0	0.1333333333333333	15.0	1.0	2.0	-2.9097218311873974	1.712	n/a	stim	s192
300.732	0.511	5.974015355663447	draw_card	0.0	columbia_card_task_fmri	17.0	0.8571428571428572	89.0	-75.0	0.1428571428571428	15.0	2.0	2.0	-1.9924534522943704	0.511	n/a	stim	s192
301.248	0.513	4.963026344674434	draw_card	0.0	columbia_card_task_fmri	17.0	0.8461538461538461	89.0	-75.0	0.1538461538461538	15.0	3.0	2.0	-0.99412669245131	0.513	n/a	stim	s192
301.764	0.881	3.783539165187255	draw_card	0.0	columbia_card_task_fmri	17.0	0.8333333333333334	89.0	-75.0	0.1666666666666666	15.0	4.0	2.0	0.0963926252799893	0.881	n/a	stim	s192
302.649	1.227	2.389599771247859	draw_card	0.0	columbia_card_task_fmri	17.0	0.8181818181818181	89.0	-75.0	0.1818181818181818	15.0	5.0	2.0	1.2917215505033468	1.227	n/a	stim	s192
303.88	1.464	0.7168724985205888	draw_card	0.0	columbia_card_task_fmri	17.0	0.8	89.0	-75.0	0.2	15.0	6.0	2.0	2.6055651920422638	1.464	n/a	stim	s192
305.348	0.761	-1.3275719459238535	draw_card	0.0	columbia_card_task_fmri	17.0	0.7777777777777778	89.0	-75.0	0.2222222222222222	15.0	7.0	2.0	4.051318887030739	0.761	n/a	stim	s192
306.113	1.042	-3.8831275014794127	draw_card	0.0	columbia_card_task_fmri	17.0	0.75	89.0	-75.0	0.25	15.0	8.0	2.0	5.638102543004671	1.042	n/a	stim	s192
307.159	2.025	-7.168841787193697	end_round	0.0	columbia_card_task_fmri	17.0	0.7142857142857143	71.0	-75.0	0.2857142857142857	15.0	9.0	2.0	7.359968947440116	2.025	8.0	stim	s192
309.19	2.25	n/a	-1.0	n/a	columbia_card_task_fmri	n/a	n/a	-1.0	n/a	n/a	n/a	n/a	n/a	n/a	n/a	n/a	feedback	s192
311.44	0.34	n/a	-1.0	n/a	columbia_card_task_fmri	n/a	n/a	-1.0	n/a	n/a	n/a	n/a	n/a	n/a	n/a	n/a	ITI	s192
311.783	2.433	2.429372498520588	draw_card	0.0	columbia_card_task_fmri	2.0	0.9375	89.0	-25.0	0.0625	16.0	1.0	1.0	-27.385335720630344	2.433	n/a	stim	s192
314.22	0.645	2.3168724985205875	end_round	0.0	columbia_card_task_fmri	2.0	0.9333333333333332	71.0	-25.0	0.0666666666666666	16.0	2.0	1.0	-27.195443276519107	0.645	1.0	stim	s192
314.869	2.25	n/a	-1.0	n/a	columbia_card_task_fmri	n/a	n/a	-1.0	n/a	n/a	n/a	n/a	n/a	n/a	n/a	n/a	feedback	s192
317.119	0.136	n/a	-1.0	n/a	columbia_card_task_fmri	n/a	n/a	-1.0	n/a	n/a	n/a	n/a	n/a	n/a	n/a	n/a	ITI	s192
317.259	2.517	4.616872498520587	draw_card	0.0	columbia_card_task_fmri	9.0	0.9375	89.0	-95.0	0.0625	16.0	1.0	1.0	-8.99203259520997	2.517	n/a	stim	s192
319.781	0.658	4.183539165187255	end_round	0.0	columbia_card_task_fmri	9.0	0.9333333333333332	71.0	-95.0	0.0666666666666666	16.0	2.0	1.0	-8.226887027166022	0.658	1.0	stim	s192
320.442	2.25	n/a	-1.0	n/a	columbia_card_task_fmri	n/a	n/a	-1.0	n/a	n/a	n/a	n/a	n/a	n/a	n/a	n/a	feedback	s192
322.692	0.068	n/a	-1.0	n/a	columbia_card_task_fmri	n/a	n/a	-1.0	n/a	n/a	n/a	n/a	n/a	n/a	n/a	n/a	ITI	s192
322.765	1.528	6.179372498520587	draw_card	0.0	columbia_card_task_fmri	11.0	0.9375	89.0	-100.0	0.0625	16.0	1.0	1.0	-7.303187354622683	1.528	n/a	stim	s192
324.297	0.428	5.716872498520588	draw_card	0.0	columbia_card_task_fmri	11.0	0.9333333333333332	89.0	-100.0	0.0666666666666666	16.0	2.0	1.0	-6.486201494589224	0.428	n/a	stim	s192
324.727	0.382	5.18830106994916	draw_card	0.0	columbia_card_task_fmri	11.0	0.9285714285714286	89.0	-100.0	0.0714285714285714	16.0	3.0	1.0	-5.590128279374255	0.382	n/a	stim	s192
325.113	0.657	4.57841096005905	draw_card	0.0	columbia_card_task_fmri	11.0	0.9230769230769232	89.0	-100.0	0.0769230769230769	16.0	4.0	1.0	-4.601516913715045	0.657	n/a	stim	s192
325.774	0.848	3.8668724985205873	end_round	0.0	columbia_card_task_fmri	11.0	0.9166666666666666	71.0	-100.0	0.0833333333333333	16.0	5.0	1.0	-3.5035437488015617	0.848	4.0	stim	s192
326.628	2.25	n/a	-1.0	n/a	columbia_card_task_fmri	n/a	n/a	-1.0	n/a	n/a	n/a	n/a	n/a	n/a	n/a	n/a	feedback	s192
328.878	0.068	n/a	-1.0	n/a	columbia_card_task_fmri	n/a	n/a	-1.0	n/a	n/a	n/a	n/a	n/a	n/a	n/a	n/a	ITI	s192
328.951	1.865	6.741872498520587	draw_card	1.0	columbia_card_task_fmri	16.0	0.875	89.0	-75.0	0.125	16.0	1.0	2.0	-4.085491378286285	1.865	1.0	stim	s192
330.822	2.25	n/a	-1.0	n/a	columbia_card_task_fmri	n/a	n/a	-1.0	n/a	n/a	n/a	n/a	n/a	n/a	n/a	n/a	feedback	s192
333.072	0.068	n/a	-1.0	n/a	columbia_card_task_fmri	n/a	n/a	-1.0	n/a	n/a	n/a	n/a	n/a	n/a	n/a	n/a	ITI	s192
333.144	1.815	6.991872498520587	draw_card	0.0	columbia_card_task_fmri	17.0	0.875	89.0	-80.0	0.125	16.0	1.0	2.0	-2.105766998268521	1.815	n/a	stim	s192
334.962	0.449	6.183539165187256	draw_card	0.0	columbia_card_task_fmri	17.0	0.8666666666666667	89.0	-80.0	0.1333333333333333	16.0	2.0	2.0	-1.213729615053346	0.449	n/a	stim	s192
335.416	0.839	5.259729641377733	draw_card	0.0	columbia_card_task_fmri	17.0	0.8571428571428572	89.0	-80.0	0.1428571428571428	16.0	3.0	2.0	-0.2463944181519224	0.839	n/a	stim	s192
336.26	0.479	4.193795575443664	draw_card	0.0	columbia_card_task_fmri	17.0	0.8461538461538461	89.0	-80.0	0.1538461538461538	16.0	4.0	2.0	0.8064100320998051	0.479	n/a	stim	s192
336.742	0.429	2.950205831853923	draw_card	0.0	columbia_card_task_fmri	17.0	0.8333333333333334	89.0	-80.0	0.1666666666666666	16.0	5.0	2.0	1.9564232250500808	0.429	n/a	stim	s192
337.175	0.944	1.4805088621569489	draw_card	0.0	columbia_card_task_fmri	17.0	0.8181818181818181	89.0	-80.0	0.1818181818181818	16.0	6.0	2.0	3.2169479998866564	0.944	n/a	stim	s192
338.123	1.625	-0.2831275014794112	draw_card	0.0	columbia_card_task_fmri	17.0	0.8	89.0	-80.0	0.2	16.0	7.0	2.0	4.60243415554946	1.625	n/a	stim	s192
339.753	0.895	-2.438683057034968	end_round	0.0	columbia_card_task_fmri	17.0	0.7777777777777778	71.0	-80.0	0.2222222222222222	16.0	8.0	2.0	6.127004412487082	0.895	7.0	stim	s192
340.657	2.25	n/a	-1.0	n/a	columbia_card_task_fmri	n/a	n/a	-1.0	n/a	n/a	n/a	n/a	n/a	n/a	n/a	n/a	feedback	s192
342.907	0.136	n/a	-1.0	n/a	columbia_card_task_fmri	n/a	n/a	-1.0	n/a	n/a	n/a	n/a	n/a	n/a	n/a	n/a	ITI	s192
354.054	1.544	1.2835391651872552	draw_card	0.0	columbia_card_task_fmri	13.0	0.8333333333333334	89.0	-70.0	0.1666666666666666	6.0	1.0	1.0	-3.250645778211439	1.544	n/a	stim	s192
355.603	0.913	-1.4831275014794123	draw_card	1.0	columbia_card_task_fmri	13.0	0.8	89.0	-70.0	0.2	6.0	2.0	1.0	-0.9878509699352236	0.913	2.0	stim	s192
356.521	2.25	n/a	-1.0	n/a	columbia_card_task_fmri	n/a	n/a	-1.0	n/a	n/a	n/a	n/a	n/a	n/a	n/a	n/a	feedback	s192
358.771	0.0	n/a	-1.0	n/a	columbia_card_task_fmri	n/a	n/a	-1.0	n/a	n/a	n/a	n/a	n/a	n/a	n/a	n/a	ITI	s192
358.775	1.04	1.2835391651872552	draw_card	0.0	columbia_card_task_fmri	15.0	0.8333333333333334	89.0	-80.0	0.1666666666666666	6.0	1.0	1.0	1.2123686647059913	1.04	n/a	stim	s192
359.82	0.5	-1.8831275014794129	draw_card	0.0	columbia_card_task_fmri	15.0	0.8	89.0	-80.0	0.2	6.0	2.0	1.0	3.803647112367507	0.5	n/a	stim	s192
360.324	0.525	-6.633127501479413	draw_card	0.0	columbia_card_task_fmri	15.0	0.75	89.0	-80.0	0.25	6.0	3.0	1.0	6.935368179384788	0.525	n/a	stim	s192
360.854	0.863	-14.549794168146075	end_round	0.0	columbia_card_task_fmri	15.0	0.6666666666666667	71.0	-80.0	0.3333333333333333	6.0	4.0	1.0	10.578163187107611	0.863	3.0	stim	s192
361.724	2.25	n/a	-1.0	n/a	columbia_card_task_fmri	n/a	n/a	-1.0	n/a	n/a	n/a	n/a	n/a	n/a	n/a	n/a	feedback	s192
363.974	0.136	n/a	-1.0	n/a	columbia_card_task_fmri	n/a	n/a	-1.0	n/a	n/a	n/a	n/a	n/a	n/a	n/a	n/a	ITI	s192
364.114	1.211	2.9502058318539213	draw_card	0.0	columbia_card_task_fmri	16.0	0.8333333333333334	89.0	-75.0	0.1666666666666666	6.0	1.0	1.0	-0.2755693210122345	1.211	n/a	stim	s192
365.33	0.403	-0.0831275014794119	draw_card	0.0	columbia_card_task_fmri	16.0	0.8	89.0	-75.0	0.2	6.0	2.0	1.0	2.2062325858488805	0.403	n/a	stim	s192
365.737	0.585	-4.633127501479413	end_round	0.0	columbia_card_task_fmri	16.0	0.75	71.0	-75.0	0.25	6.0	3.0	1.0	5.20570657937899	0.585	2.0	stim	s192
366.329	2.25	n/a	-1.0	n/a	columbia_card_task_fmri	n/a	n/a	-1.0	n/a	n/a	n/a	n/a	n/a	n/a	n/a	n/a	feedback	s192
368.579	0.34	n/a	-1.0	n/a	columbia_card_task_fmri	n/a	n/a	-1.0	n/a	n/a	n/a	n/a	n/a	n/a	n/a	n/a	ITI	s192
368.924	1.557	4.116872498520587	draw_card	0.0	columbia_card_task_fmri	21.0	0.75	89.0	-55.0	0.25	8.0	1.0	2.0	-1.278290624236725	1.557	n/a	stim	s192
370.486	0.443	1.4025867842348738	draw_card	1.0	columbia_card_task_fmri	21.0	0.7142857142857143	89.0	-55.0	0.2857142857142857	8.0	2.0	2.0	0.1432282200878205	0.443	2.0	stim	s192
370.935	2.25	n/a	-1.0	n/a	columbia_card_task_fmri	n/a	n/a	-1.0	n/a	n/a	n/a	n/a	n/a	n/a	n/a	n/a	feedback	s192
373.185	0.408	n/a	-1.0	n/a	columbia_card_task_fmri	n/a	n/a	-1.0	n/a	n/a	n/a	n/a	n/a	n/a	n/a	n/a	ITI	s192
373.597	1.789	5.366872498520587	draw_card	1.0	columbia_card_task_fmri	26.0	0.75	89.0	-65.0	0.25	8.0	1.0	2.0	5.20570657937899	1.789	1.0	stim	s192
375.394	2.25	n/a	-1.0	n/a	columbia_card_task_fmri	n/a	n/a	-1.0	n/a	n/a	n/a	n/a	n/a	n/a	n/a	n/a	feedback	s192
377.644	0.136	n/a	-1.0	n/a	columbia_card_task_fmri	n/a	n/a	-1.0	n/a	n/a	n/a	n/a	n/a	n/a	n/a	n/a	ITI	s192
377.784	2.562	0.4502058318539212	draw_card	0.0	columbia_card_task_fmri	15.0	0.7777777777777778	89.0	-60.0	0.2222222222222222	9.0	1.0	2.0	-3.0030158421320685	2.562	n/a	stim	s192
380.35	0.389	-1.6331275014794129	draw_card	0.0	columbia_card_task_fmri	15.0	0.75	89.0	-60.0	0.25	9.0	2.0	2.0	-1.7103983841366954	0.389	n/a	stim	s192
380.743	0.436	-4.31169893005084	draw_card	0.0	columbia_card_task_fmri	15.0	0.7142857142857143	89.0	-60.0	0.2857142857142857	9.0	3.0	2.0	-0.3076581105145379	0.436	n/a	stim	s192
381.184	0.806	-7.883127501479411	end_round	0.0	columbia_card_task_fmri	15.0	0.6666666666666667	71.0	-60.0	0.3333333333333333	9.0	4.0	2.0	1.1633856802887408	0.806	3.0	stim	s192
381.997	2.25	n/a	-1.0	n/a	columbia_card_task_fmri	n/a	n/a	-1.0	n/a	n/a	n/a	n/a	n/a	n/a	n/a	n/a	feedback	s192
384.247	0.136	n/a	-1.0	n/a	columbia_card_task_fmri	n/a	n/a	-1.0	n/a	n/a	n/a	n/a	n/a	n/a	n/a	n/a	ITI	s192
384.387	1.66	4.816872498520588	draw_card	0.0	columbia_card_task_fmri	13.0	0.9	89.0	-90.0	0.1	10.0	1.0	1.0	-3.282844076936591	1.66	n/a	stim	s192
386.052	0.377	3.672428054076143	draw_card	0.0	columbia_card_task_fmri	13.0	0.8888888888888888	89.0	-90.0	0.1111111111111111	10.0	2.0	1.0	-1.81634835383646	0.377	n/a	stim	s192
386.434	0.417	2.241872498520588	draw_card	0.0	columbia_card_task_fmri	13.0	0.875	89.0	-90.0	0.125	10.0	3.0	1.0	-0.1255096077296542	0.417	n/a	stim	s192
386.855	0.525	0.4025867842348756	draw_card	0.0	columbia_card_task_fmri	13.0	0.8571428571428572	89.0	-90.0	0.1428571428571428	10.0	4.0	1.0	1.8493335166682243	0.525	n/a	stim	s192
387.385	0.663	-2.0497941681460787	draw_card	0.0	columbia_card_task_fmri	13.0	0.8333333333333334	89.0	-90.0	0.1666666666666666	10.0	5.0	1.0	4.188889429189693	0.663	n/a	stim	s192
388.052	1.065	-5.483127501479412	end_round	0.0	columbia_card_task_fmri	13.0	0.8	71.0	-90.0	0.2	10.0	6.0	1.0	6.9990773304669816	1.065	5.0	stim	s192
389.125	2.25	n/a	-1.0	n/a	columbia_card_task_fmri	n/a	n/a	-1.0	n/a	n/a	n/a	n/a	n/a	n/a	n/a	n/a	feedback	s192
391.375	0.0	n/a	-1.0	n/a	columbia_card_task_fmri	n/a	n/a	-1.0	n/a	n/a	n/a	n/a	n/a	n/a	n/a	n/a	ITI	s192
391.379	2.257	6.116872498520587	draw_card	1.0	columbia_card_task_fmri	15.0	0.9	89.0	-95.0	0.1	10.0	1.0	1.0	-1.1874432071271173	2.257	1.0	stim	s192
393.644	2.25	n/a	-1.0	n/a	columbia_card_task_fmri	n/a	n/a	-1.0	n/a	n/a	n/a	n/a	n/a	n/a	n/a	n/a	feedback	s192
395.894	0.068	n/a	-1.0	n/a	columbia_card_task_fmri	n/a	n/a	-1.0	n/a	n/a	n/a	n/a	n/a	n/a	n/a	n/a	ITI	s192
395.967	1.631	1.916872498520588	draw_card	0.0	columbia_card_task_fmri	16.0	0.8	89.0	-65.0	0.2	10.0	1.0	2.0	-1.7861898090238952	1.631	n/a	stim	s192
397.602	0.398	0.1168724985205891	draw_card	0.0	columbia_card_task_fmri	16.0	0.7777777777777778	89.0	-65.0	0.2222222222222222	10.0	2.0	2.0	-0.5138834072226643	0.398	n/a	stim	s192
398.004	0.477	-2.1331275014794127	draw_card	1.0	columbia_card_task_fmri	16.0	0.75	89.0	-65.0	0.25	10.0	3.0	2.0	0.882582382184232	0.477	3.0	stim	s192
398.491	2.25	n/a	-1.0	n/a	columbia_card_task_fmri	n/a	n/a	-1.0	n/a	n/a	n/a	n/a	n/a	n/a	n/a	n/a	feedback	s192
400.741	0.0	n/a	-1.0	n/a	columbia_card_task_fmri	n/a	n/a	-1.0	n/a	n/a	n/a	n/a	n/a	n/a	n/a	n/a	ITI	s192
400.745	1.973	0.6168724985205873	draw_card	0.0	columbia_card_task_fmri	7.0	0.9166666666666666	89.0	-95.0	0.0833333333333333	12.0	1.0	1.0	-5.984593213691149	1.973	n/a	stim	s192
402.723	0.423	-0.155854774206686	draw_card	1.0	columbia_card_task_fmri	7.0	0.9090909090909092	89.0	-95.0	0.0909090909090909	12.0	2.0	1.0	-4.8560203944464	0.423	2.0	stim	s192
403.152	2.25	n/a	-1.0	n/a	columbia_card_task_fmri	n/a	n/a	-1.0	n/a	n/a	n/a	n/a	n/a	n/a	n/a	n/a	feedback	s192
405.402	0.0	n/a	-1.0	n/a	columbia_card_task_fmri	n/a	n/a	-1.0	n/a	n/a	n/a	n/a	n/a	n/a	n/a	n/a	ITI	s192
405.407	1.679	1.2835391651872552	draw_card	0.0	columbia_card_task_fmri	14.0	0.8333333333333334	89.0	-75.0	0.1666666666666666	12.0	1.0	2.0	-1.0194450848267491	1.679	n/a	stim	s192
407.089	0.428	-0.064945683297596	draw_card	0.0	columbia_card_task_fmri	14.0	0.8181818181818181	89.0	-75.0	0.1818181818181818	12.0	2.0	2.0	0.1367602992111969	0.428	n/a	stim	s192
407.522	0.43	-1.6831275014794116	draw_card	0.0	columbia_card_task_fmri	14.0	0.8	89.0	-75.0	0.2	12.0	3.0	2.0	1.40761224952967	0.43	n/a	stim	s192
407.956	0.508	-3.660905279257188	draw_card	0.0	columbia_card_task_fmri	14.0	0.7777777777777778	89.0	-75.0	0.2222222222222222	12.0	4.0	2.0	2.8060696893444472	0.508	n/a	stim	s192
408.467	0.424	-6.133127501479413	draw_card	1.0	columbia_card_task_fmri	14.0	0.75	89.0	-75.0	0.25	12.0	5.0	2.0	4.3409561378622	0.424	5.0	stim	s192
408.899	2.25	n/a	-1.0	n/a	columbia_card_task_fmri	n/a	n/a	-1.0	n/a	n/a	n/a	n/a	n/a	n/a	n/a	n/a	feedback	s192
411.149	0.136	n/a	-1.0	n/a	columbia_card_task_fmri	n/a	n/a	-1.0	n/a	n/a	n/a	n/a	n/a	n/a	n/a	n/a	ITI	s192
411.29	1.543	2.9502058318539213	draw_card	0.0	columbia_card_task_fmri	15.0	0.8333333333333334	89.0	-70.0	0.1666666666666666	12.0	1.0	2.0	-2.506988310396604	1.543	n/a	stim	s192
412.837	0.413	1.6623270439751303	draw_card	0.0	columbia_card_task_fmri	15.0	0.8181818181818181	89.0	-70.0	0.1818181818181818	12.0	2.0	2.0	-1.4029556659189168	0.413	n/a	stim	s192
413.254	0.475	0.1168724985205873	draw_card	0.0	columbia_card_task_fmri	15.0	0.8	89.0	-70.0	0.2	12.0	3.0	2.0	-0.1894341905582877	0.475	n/a	stim	s192
413.734	0.733	-1.772016390368302	draw_card	1.0	columbia_card_task_fmri	15.0	0.7777777777777778	89.0	-70.0	0.2222222222222222	12.0	4.0	2.0	1.145953175015677	0.733	4.0	stim	s192
414.473	2.25	n/a	-1.0	n/a	columbia_card_task_fmri	n/a	n/a	-1.0	n/a	n/a	n/a	n/a	n/a	n/a	n/a	n/a	feedback	s192
416.723	0.136	n/a	-1.0	n/a	columbia_card_task_fmri	n/a	n/a	-1.0	n/a	n/a	n/a	n/a	n/a	n/a	n/a	n/a	ITI	s192
416.864	1.769	0.916872498520588	draw_card	0.0	columbia_card_task_fmri	16.0	0.8	89.0	-70.0	0.2	15.0	1.0	3.0	0.2098017340443121	1.769	n/a	stim	s192
418.637	0.392	-0.3116989300508415	draw_card	0.0	columbia_card_task_fmri	16.0	0.7857142857142857	89.0	-70.0	0.2142857142857142	15.0	2.0	3.0	1.096194865237912	0.392	n/a	stim	s192
419.034	0.444	-1.7292813476332594	draw_card	1.0	columbia_card_task_fmri	16.0	0.7692307692307692	89.0	-70.0	0.2307692307692307	15.0	3.0	3.0	2.0404677525721766	0.444	3.0	stim	s192
419.488	2.25	n/a	-1.0	n/a	columbia_card_task_fmri	n/a	n/a	-1.0	n/a	n/a	n/a	n/a	n/a	n/a	n/a	n/a	feedback	s192
421.738	0.476	n/a	-1.0	n/a	columbia_card_task_fmri	n/a	n/a	-1.0	n/a	n/a	n/a	n/a	n/a	n/a	n/a	n/a	ITI	s192
422.218	1.659	1.3043724985205871	draw_card	1.0	columbia_card_task_fmri	14.0	0.8125	89.0	-65.0	0.1875	16.0	1.0	3.0	-3.348013388146416	1.659	1.0	stim	s192
423.882	2.25	n/a	-1.0	n/a	columbia_card_task_fmri	n/a	n/a	-1.0	n/a	n/a	n/a	n/a	n/a	n/a	n/a	n/a	feedback	s192
426.132	0.204	n/a	-1.0	n/a	columbia_card_task_fmri	n/a	n/a	-1.0	n/a	n/a	n/a	n/a	n/a	n/a	n/a	n/a	ITI	s192
426.341	1.576	1.0543724985205871	draw_card	0.0	columbia_card_task_fmri	16.0	0.8125	89.0	-75.0	0.1875	16.0	1.0	3.0	1.326182528606573	1.576	n/a	stim	s192
427.922	0.48	-0.0831275014794119	draw_card	0.0	columbia_card_task_fmri	16.0	0.8	89.0	-75.0	0.2	16.0	2.0	3.0	2.2062325858488805	0.48	n/a	stim	s192
428.407	0.427	-1.3831275014794109	draw_card	0.0	columbia_card_task_fmri	16.0	0.7857142857142857	89.0	-75.0	0.2142857142857142	16.0	3.0	3.0	3.1443445885851418	0.427	n/a	stim	s192
428.838	1.28	-2.883127501479416	draw_card	0.0	columbia_card_task_fmri	16.0	0.7692307692307692	89.0	-75.0	0.2307692307692307	16.0	4.0	3.0	4.143703579614225	1.28	n/a	stim	s192
430.123	0.797	-4.633127501479413	draw_card	0.0	columbia_card_task_fmri	16.0	0.75	89.0	-75.0	0.25	16.0	5.0	3.0	5.20570657937899	0.797	n/a	stim	s192
430.924	1.222	-6.701309319661229	draw_card	0.0	columbia_card_task_fmri	16.0	0.7272727272727273	89.0	-75.0	0.2727272727272727	16.0	6.0	3.0	6.327898554939416	1.222	n/a	stim	s192
432.151	1.801	-9.183127501479412	end_round	0.0	columbia_card_task_fmri	16.0	0.7	71.0	-75.0	0.3	16.0	7.0	3.0	7.499863504277833	1.801	6.0	stim	s192
433.96	2.25	n/a	-1.0	n/a	columbia_card_task_fmri	n/a	n/a	-1.0	n/a	n/a	n/a	n/a	n/a	n/a	n/a	n/a	feedback	s192
436.21	0.068	n/a	-1.0	n/a	columbia_card_task_fmri	n/a	n/a	-1.0	n/a	n/a	n/a	n/a	n/a	n/a	n/a	n/a	ITI	s192
436.282	1.507	5.316872498520588	draw_card	0.0	columbia_card_task_fmri	16.0	0.8666666666666667	89.0	-80.0	0.1333333333333333	15.0	1.0	2.0	-1.5529586354117413	1.507	n/a	stim	s192
437.794	0.465	4.402586784234876	draw_card	0.0	columbia_card_task_fmri	16.0	0.8571428571428572	89.0	-80.0	0.1428571428571428	15.0	2.0	2.0	-0.5956359397031648	0.465	n/a	stim	s192
438.263	0.603	3.3476417292898173	draw_card	0.0	columbia_card_task_fmri	16.0	0.8461538461538461	89.0	-80.0	0.1538461538461538	15.0	3.0	2.0	0.4462738576520237	0.603	n/a	stim	s192
438.871	0.489	2.116872498520589	draw_card	1.0	columbia_card_task_fmri	16.0	0.8333333333333334	89.0	-80.0	0.1666666666666666	15.0	4.0	2.0	1.5843891843274849	0.489	4.0	stim	s192
439.366	2.25	n/a	-1.0	n/a	columbia_card_task_fmri	n/a	n/a	-1.0	n/a	n/a	n/a	n/a	n/a	n/a	n/a	n/a	feedback	s192
441.616	0.068	n/a	-1.0	n/a	columbia_card_task_fmri	n/a	n/a	-1.0	n/a	n/a	n/a	n/a	n/a	n/a	n/a	n/a	ITI	s192
441.69	1.522	6.183539165187256	draw_card	0.0	columbia_card_task_fmri	17.0	0.8666666666666667	89.0	-80.0	0.1333333333333333	15.0	1.0	2.0	-1.213729615053346	1.522	n/a	stim	s192
443.215	0.42	5.259729641377733	draw_card	0.0	columbia_card_task_fmri	17.0	0.8571428571428572	89.0	-80.0	0.1428571428571428	15.0	2.0	2.0	-0.2463944181519224	0.42	n/a	stim	s192
443.639	0.395	4.193795575443664	draw_card	0.0	columbia_card_task_fmri	17.0	0.8461538461538461	89.0	-80.0	0.1538461538461538	15.0	3.0	2.0	0.8064100320998051	0.395	n/a	stim	s192
444.04	0.611	2.950205831853923	draw_card	0.0	columbia_card_task_fmri	17.0	0.8333333333333334	89.0	-80.0	0.1666666666666666	15.0	4.0	2.0	1.9564232250500808	0.611	n/a	stim	s192
444.656	0.621	1.4805088621569489	draw_card	0.0	columbia_card_task_fmri	17.0	0.8181818181818181	89.0	-80.0	0.1818181818181818	15.0	5.0	2.0	3.2169479998866564	0.621	n/a	stim	s192
445.282	0.98	-0.2831275014794112	draw_card	0.0	columbia_card_task_fmri	17.0	0.8	89.0	-80.0	0.2	15.0	6.0	2.0	4.60243415554946	0.98	n/a	stim	s192
446.267	1.019	-2.438683057034968	draw_card	0.0	columbia_card_task_fmri	17.0	0.7777777777777778	89.0	-80.0	0.2222222222222222	15.0	7.0	2.0	6.127004412487082	1.019	n/a	stim	s192
447.29	1.001	-5.133127501479413	draw_card	0.0	columbia_card_task_fmri	17.0	0.75	89.0	-80.0	0.25	15.0	8.0	2.0	7.8002727279019055	1.001	n/a	stim	s192
448.297	1.263	-8.597413215765124	draw_card	0.0	columbia_card_task_fmri	17.0	0.7142857142857143	89.0	-80.0	0.2857142857142857	15.0	9.0	2.0	9.615964959239491	1.263	n/a	stim	s192
449.565	1.035	-13.216460834812745	end_round	0.0	columbia_card_task_fmri	17.0	0.6666666666666667	71.0	-80.0	0.3333333333333333	15.0	10.0	2.0	11.519942345058524	1.035	9.0	stim	s192
450.606	2.25	n/a	-1.0	n/a	columbia_card_task_fmri	n/a	n/a	-1.0	n/a	n/a	n/a	n/a	n/a	n/a	n/a	n/a	feedback	s192
452.856	0.34	n/a	-1.0	n/a	columbia_card_task_fmri	n/a	n/a	-1.0	n/a	n/a	n/a	n/a	n/a	n/a	n/a	n/a	ITI	s192
453.201	1.666	2.116872498520588	draw_card	0.0	columbia_card_task_fmri	1.0	0.9375	89.0	-15.0	0.0625	16.0	1.0	1.0	-29.841524221762388	1.666	n/a	stim	s192
454.872	0.859	2.050205831853921	end_round	0.0	columbia_card_task_fmri	1.0	0.9333333333333332	71.0	-15.0	0.0666666666666666	16.0	2.0	1.0	-29.737522691270502	0.859	1.0	stim	s192
455.74	2.25	n/a	-1.0	n/a	columbia_card_task_fmri	n/a	n/a	-1.0	n/a	n/a	n/a	n/a	n/a	n/a	n/a	n/a	feedback	s192
457.99	0.476	n/a	-1.0	n/a	columbia_card_task_fmri	n/a	n/a	-1.0	n/a	n/a	n/a	n/a	n/a	n/a	n/a	n/a	ITI	s192
458.471	2.919	5.241872498520587	draw_card	0.0	columbia_card_task_fmri	10.0	0.9375	89.0	-100.0	0.0625	16.0	1.0	1.0	-7.544494271279319	2.919	n/a	stim	s192
461.394	0.47	4.783539165187254	draw_card	0.0	columbia_card_task_fmri	10.0	0.9333333333333332	89.0	-100.0	0.0666666666666666	16.0	2.0	1.0	-6.734912909303393	0.47	n/a	stim	s192
461.869	0.598	4.259729641377732	end_round	0.0	columbia_card_task_fmri	10.0	0.9285714285714286	71.0	-100.0	0.0714285714285714	16.0	3.0	1.0	-5.84695807468837	0.598	2.0	stim	s192
462.477	2.25	n/a	-1.0	n/a	columbia_card_task_fmri	n/a	n/a	-1.0	n/a	n/a	n/a	n/a	n/a	n/a	n/a	n/a	feedback	s192
464.727	0.272	n/a	-1.0	n/a	columbia_card_task_fmri	n/a	n/a	-1.0	n/a	n/a	n/a	n/a	n/a	n/a	n/a	n/a	ITI	s192
465.005	1.549	5.866872498520587	draw_card	0.0	columbia_card_task_fmri	15.0	0.875	89.0	-75.0	0.125	16.0	1.0	2.0	-4.4153861716840055	1.549	n/a	stim	s192
466.558	0.427	5.116872498520587	draw_card	0.0	columbia_card_task_fmri	15.0	0.8666666666666667	89.0	-75.0	0.1333333333333333	16.0	2.0	2.0	-3.5880045956879805	0.427	n/a	stim	s192
466.99	1.137	4.259729641377732	draw_card	0.0	columbia_card_task_fmri	15.0	0.8571428571428572	89.0	-75.0	0.1428571428571428	16.0	3.0	2.0	-2.690766160956777	1.137	n/a	stim	s192
468.133	0.434	3.2707186523667406	draw_card	0.0	columbia_card_task_fmri	15.0	0.8461538461538461	89.0	-75.0	0.1538461538461538	16.0	4.0	2.0	-1.7142337793564837	0.434	n/a	stim	s192
468.572	0.733	2.116872498520588	draw_card	0.0	columbia_card_task_fmri	15.0	0.8333333333333334	89.0	-75.0	0.1666666666666666	16.0	5.0	2.0	-0.6475154019324165	0.733	n/a	stim	s192
469.311	0.849	0.7532361348842223	end_round	0.0	columbia_card_task_fmri	15.0	0.8181818181818181	71.0	-75.0	0.1818181818181818	16.0	6.0	2.0	0.52173170376863	0.849	5.0	stim	s192
470.165	2.25	n/a	-1.0	n/a	columbia_card_task_fmri	n/a	n/a	-1.0	n/a	n/a	n/a	n/a	n/a	n/a	n/a	n/a	feedback	s192
472.415	0.884	n/a	-1.0	n/a	columbia_card_task_fmri	n/a	n/a	-1.0	n/a	n/a	n/a	n/a	n/a	n/a	n/a	n/a	ITI	s192
473.304	1.771	6.116872498520587	draw_card	0.0	columbia_card_task_fmri	16.0	0.875	89.0	-80.0	0.125	16.0	1.0	2.0	-2.4357607633310074	1.771	n/a	stim	s192
475.08	0.728	5.316872498520588	draw_card	1.0	columbia_card_task_fmri	16.0	0.8666666666666667	89.0	-80.0	0.1333333333333333	16.0	2.0	2.0	-1.5529586354117413	0.728	2.0	stim	s192
475.813	2.25	n/a	-1.0	n/a	columbia_card_task_fmri	n/a	n/a	-1.0	n/a	n/a	n/a	n/a	n/a	n/a	n/a	n/a	feedback	s192
478.063	0.136	n/a	-1.0	n/a	columbia_card_task_fmri	n/a	n/a	-1.0	n/a	n/a	n/a	n/a	n/a	n/a	n/a	n/a	ITI	s192
478.205	1.969	3.304372498520588	draw_card	1.0	columbia_card_task_fmri	4.0	0.6875	89.0	-5.0	0.3125	16.0	1.0	5.0	-29.57729012597801	1.969	1.0	stim	s192
480.179	2.25	n/a	-1.0	n/a	columbia_card_task_fmri	n/a	n/a	-1.0	n/a	n/a	n/a	n/a	n/a	n/a	n/a	n/a	feedback	s192
482.429	0.136	n/a	-1.0	n/a	columbia_card_task_fmri	n/a	n/a	-1.0	n/a	n/a	n/a	n/a	n/a	n/a	n/a	n/a	ITI	s192
482.57	2.052	0.450205831853923	draw_card	1.0	columbia_card_task_fmri	14.0	0.8333333333333334	89.0	-80.0	0.1666666666666666	6.0	1.0	1.0	0.8403620961644904	2.052	1.0	stim	s192
484.631	2.25	n/a	-1.0	n/a	columbia_card_task_fmri	n/a	n/a	-1.0	n/a	n/a	n/a	n/a	n/a	n/a	n/a	n/a	feedback	s192
486.881	0.068	n/a	-1.0	n/a	columbia_card_task_fmri	n/a	n/a	-1.0	n/a	n/a	n/a	n/a	n/a	n/a	n/a	n/a	ITI	s192
486.954	1.621	2.116872498520588	draw_card	0.0	columbia_card_task_fmri	15.0	0.8333333333333334	89.0	-75.0	0.1666666666666666	6.0	1.0	1.0	-0.6475154019324165	1.621	n/a	stim	s192
488.58	0.573	-0.8831275014794127	draw_card	0.0	columbia_card_task_fmri	15.0	0.8	89.0	-75.0	0.2	6.0	2.0	1.0	1.8069147727066688	0.573	n/a	stim	s192
489.158	0.457	-5.383127501479413	draw_card	0.0	columbia_card_task_fmri	15.0	0.75	89.0	-75.0	0.25	6.0	3.0	1.0	4.773324291130223	0.457	n/a	stim	s192
489.619	0.736	-12.88312750147941	end_round	0.0	columbia_card_task_fmri	15.0	0.6666666666666667	71.0	-75.0	0.3333333333333333	6.0	4.0	1.0	8.223915189806185	0.736	3.0	stim	s192
490.361	2.25	n/a	-1.0	n/a	columbia_card_task_fmri	n/a	n/a	-1.0	n/a	n/a	n/a	n/a	n/a	n/a	n/a	n/a	feedback	s192
492.611	0.068	n/a	-1.0	n/a	columbia_card_task_fmri	n/a	n/a	-1.0	n/a	n/a	n/a	n/a	n/a	n/a	n/a	n/a	ITI	s192
492.683	0.992	3.783539165187255	draw_card	0.0	columbia_card_task_fmri	16.0	0.8333333333333334	89.0	-70.0	0.1666666666666666	6.0	1.0	1.0	-2.135130049135306	0.992	n/a	stim	s192
493.68	0.412	0.916872498520588	draw_card	0.0	columbia_card_task_fmri	16.0	0.8	89.0	-70.0	0.2	6.0	2.0	1.0	0.2098017340443121	0.412	n/a	stim	s192
494.098	0.651	-3.3831275014794127	draw_card	1.0	columbia_card_task_fmri	16.0	0.75	89.0	-70.0	0.25	6.0	3.0	1.0	3.0439414033944843	0.651	3.0	stim	s192
494.755	2.25	n/a	-1.0	n/a	columbia_card_task_fmri	n/a	n/a	-1.0	n/a	n/a	n/a	n/a	n/a	n/a	n/a	n/a	feedback	s192
497.005	0.612	n/a	-1.0	n/a	columbia_card_task_fmri	n/a	n/a	-1.0	n/a	n/a	n/a	n/a	n/a	n/a	n/a	n/a	ITI	s192
497.623	1.565	4.366872498520587	draw_card	1.0	columbia_card_task_fmri	23.0	0.75	89.0	-60.0	0.25	8.0	1.0	2.0	1.7470725702455567	1.565	1.0	stim	s192
499.197	2.25	n/a	-1.0	n/a	columbia_card_task_fmri	n/a	n/a	-1.0	n/a	n/a	n/a	n/a	n/a	n/a	n/a	n/a	feedback	s192
501.447	0.476	n/a	-1.0	n/a	columbia_card_task_fmri	n/a	n/a	-1.0	n/a	n/a	n/a	n/a	n/a	n/a	n/a	n/a	ITI	s192
501.928	1.422	4.866872498520587	draw_card	1.0	columbia_card_task_fmri	27.0	0.75	89.0	-70.0	0.25	8.0	1.0	2.0	7.8002727279019055	1.422	1.0	stim	s192
503.356	2.25	n/a	-1.0	n/a	columbia_card_task_fmri	n/a	n/a	-1.0	n/a	n/a	n/a	n/a	n/a	n/a	n/a	n/a	feedback	s192
505.606	0.0	n/a	-1.0	n/a	columbia_card_task_fmri	n/a	n/a	-1.0	n/a	n/a	n/a	n/a	n/a	n/a	n/a	n/a	ITI	s192
505.612	1.532	0.1168724985205891	draw_card	0.0	columbia_card_task_fmri	16.0	0.7777777777777778	89.0	-65.0	0.2222222222222222	9.0	1.0	2.0	-0.5138834072226643	1.532	n/a	stim	s192
507.149	0.425	-2.1331275014794127	draw_card	0.0	columbia_card_task_fmri	16.0	0.75	89.0	-65.0	0.25	9.0	2.0	2.0	0.882582382184232	0.425	n/a	stim	s192
507.578	0.628	-5.025984644336553	draw_card	0.0	columbia_card_task_fmri	16.0	0.7142857142857143	89.0	-65.0	0.2857142857142857	9.0	3.0	2.0	2.39798037112557	0.628	n/a	stim	s192
508.212	0.633	-8.883127501479409	end_round	0.0	columbia_card_task_fmri	16.0	0.6666666666666667	71.0	-65.0	0.3333333333333333	9.0	4.0	2.0	3.9871301845461113	0.633	3.0	stim	s192
508.852	2.25	n/a	-1.0	n/a	columbia_card_task_fmri	n/a	n/a	-1.0	n/a	n/a	n/a	n/a	n/a	n/a	n/a	n/a	feedback	s192
511.102	0.068	n/a	-1.0	n/a	columbia_card_task_fmri	n/a	n/a	-1.0	n/a	n/a	n/a	n/a	n/a	n/a	n/a	n/a	ITI	s192
511.176	1.663	5.316872498520588	draw_card	0.0	columbia_card_task_fmri	13.0	0.9	89.0	-85.0	0.1	10.0	1.0	1.0	-4.779158202962286	1.663	n/a	stim	s192
512.844	0.605	4.227983609631698	draw_card	0.0	columbia_card_task_fmri	13.0	0.8888888888888888	89.0	-85.0	0.1111111111111111	10.0	2.0	1.0	-3.3841770913249967	0.605	n/a	stim	s192
513.454	0.635	2.866872498520588	end_round	0.0	columbia_card_task_fmri	13.0	0.875	71.0	-85.0	0.125	10.0	3.0	1.0	-1.7757584819024927	0.635	2.0	stim	s192
514.096	2.25	n/a	-1.0	n/a	columbia_card_task_fmri	n/a	n/a	-1.0	n/a	n/a	n/a	n/a	n/a	n/a	n/a	n/a	feedback	s192
516.346	0.204	n/a	-1.0	n/a	columbia_card_task_fmri	n/a	n/a	-1.0	n/a	n/a	n/a	n/a	n/a	n/a	n/a	n/a	ITI	s192
516.556	1.46	0.3168724985205884	draw_card	0.0	columbia_card_task_fmri	14.0	0.8	89.0	-65.0	0.2	10.0	1.0	2.0	-2.5844448138099985	1.46	n/a	stim	s192
518.021	0.416	-1.4386830570349662	draw_card	0.0	columbia_card_task_fmri	14.0	0.7777777777777778	89.0	-65.0	0.2222222222222222	10.0	2.0	2.0	-1.3436834880223143	0.416	n/a	stim	s192
518.442	0.428	-3.6331275014794127	draw_card	0.0	columbia_card_task_fmri	14.0	0.75	89.0	-65.0	0.25	10.0	3.0	2.0	0.018169709475778	0.428	n/a	stim	s192
518.874	0.413	-6.454556072907982	draw_card	0.0	columbia_card_task_fmri	14.0	0.7142857142857143	89.0	-65.0	0.2857142857142857	10.0	4.0	2.0	1.496018645083126	0.413	n/a	stim	s192
519.292	0.548	-10.216460834812745	end_round	0.0	columbia_card_task_fmri	14.0	0.6666666666666667	71.0	-65.0	0.3333333333333333	10.0	5.0	2.0	3.0458031776594723	0.548	4.0	stim	s192
519.848	2.25	n/a	-1.0	n/a	columbia_card_task_fmri	n/a	n/a	-1.0	n/a	n/a	n/a	n/a	n/a	n/a	n/a	n/a	feedback	s192
522.098	0.272	n/a	-1.0	n/a	columbia_card_task_fmri	n/a	n/a	-1.0	n/a	n/a	n/a	n/a	n/a	n/a	n/a	n/a	ITI	s192
522.375	1.258	1.7168724985205888	draw_card	0.0	columbia_card_task_fmri	17.0	0.8	89.0	-70.0	0.2	10.0	1.0	2.0	0.6090551744503045	1.258	n/a	stim	s192
523.638	0.39	-0.2164608348127448	draw_card	0.0	columbia_card_task_fmri	17.0	0.7777777777777778	89.0	-70.0	0.2222222222222222	10.0	2.0	2.0	1.975978845484363	0.39	n/a	stim	s192
524.033	0.447	-2.6331275014794127	draw_card	0.0	columbia_card_task_fmri	17.0	0.75	89.0	-70.0	0.25	10.0	3.0	2.0	3.476264179936706	0.447	n/a	stim	s192
524.485	0.522	-5.74027035862227	end_round	0.0	columbia_card_task_fmri	17.0	0.7142857142857143	71.0	-70.0	0.2857142857142857	10.0	4.0	2.0	5.10429110132732	0.522	3.0	stim	s192
525.014	2.25	n/a	-1.0	n/a	columbia_card_task_fmri	n/a	n/a	-1.0	n/a	n/a	n/a	n/a	n/a	n/a	n/a	n/a	feedback	s192
527.264	0.068	n/a	-1.0	n/a	columbia_card_task_fmri	n/a	n/a	-1.0	n/a	n/a	n/a	n/a	n/a	n/a	n/a	n/a	ITI	s192
527.338	1.422	0.4502058318539212	draw_card	0.0	columbia_card_task_fmri	13.0	0.8333333333333334	89.0	-75.0	0.1666666666666666	12.0	1.0	2.0	-1.391357812952684	1.422	n/a	stim	s192
528.765	0.357	-0.8831275014794144	draw_card	1.0	columbia_card_task_fmri	13.0	0.8181818181818181	89.0	-75.0	0.1818181818181818	12.0	2.0	2.0	-0.2481947161570517	0.357	2.0	stim	s192
529.13	2.25	n/a	-1.0	n/a	columbia_card_task_fmri	n/a	n/a	-1.0	n/a	n/a	n/a	n/a	n/a	n/a	n/a	n/a	feedback	s192
531.38	0.272	n/a	-1.0	n/a	columbia_card_task_fmri	n/a	n/a	-1.0	n/a	n/a	n/a	n/a	n/a	n/a	n/a	n/a	ITI	s192
531.656	1.511	2.116872498520589	draw_card	0.0	columbia_card_task_fmri	14.0	0.8333333333333334	89.0	-70.0	0.1666666666666666	12.0	1.0	2.0	-2.8788271200388067	1.511	n/a	stim	s192
533.173	0.38	0.8441452257933122	draw_card	0.0	columbia_card_task_fmri	14.0	0.8181818181818181	89.0	-70.0	0.1818181818181818	12.0	2.0	2.0	-1.787839226853798	0.38	n/a	stim	s192
533.558	0.44	-0.6831275014794116	draw_card	0.0	columbia_card_task_fmri	14.0	0.8	89.0	-70.0	0.2	12.0	3.0	2.0	-0.5886519762235025	0.44	n/a	stim	s192
534.003	0.706	-2.5497941681460787	draw_card	0.0	columbia_card_task_fmri	14.0	0.7777777777777778	89.0	-70.0	0.2222222222222222	12.0	4.0	2.0	0.7309662293763921	0.706	n/a	stim	s192
534.715	0.379	-4.883127501479413	draw_card	0.0	columbia_card_task_fmri	14.0	0.75	89.0	-70.0	0.25	12.0	5.0	2.0	2.1793450082844217	0.379	n/a	stim	s192
535.1	0.494	-7.883127501479413	draw_card	0.0	columbia_card_task_fmri	14.0	0.7142857142857143	89.0	-70.0	0.2857142857142857	12.0	6.0	2.0	3.751060679701844	0.494	n/a	stim	s192
535.598	0.553	-11.88312750147941	end_round	0.0	columbia_card_task_fmri	14.0	0.6666666666666667	71.0	-70.0	0.3333333333333333	12.0	7.0	2.0	5.399252727088545	0.553	6.0	stim	s192
536.156	2.25	n/a	-1.0	n/a	columbia_card_task_fmri	n/a	n/a	-1.0	n/a	n/a	n/a	n/a	n/a	n/a	n/a	n/a	feedback	s192
538.406	0.748	n/a	-1.0	n/a	columbia_card_task_fmri	n/a	n/a	-1.0	n/a	n/a	n/a	n/a	n/a	n/a	n/a	n/a	ITI	s192
539.158	1.748	2.116872498520589	draw_card	0.0	columbia_card_task_fmri	16.0	0.8333333333333334	89.0	-80.0	0.1666666666666666	12.0	1.0	2.0	1.5843891843274849	1.748	n/a	stim	s192
540.912	0.438	0.6623270439751305	draw_card	0.0	columbia_card_task_fmri	16.0	0.8181818181818181	89.0	-80.0	0.1818181818181818	12.0	2.0	2.0	2.831875721945295	0.438	n/a	stim	s192
541.355	0.39	-1.083127501479412	draw_card	0.0	columbia_card_task_fmri	16.0	0.8	89.0	-80.0	0.2	12.0	3.0	2.0	4.203034330835088	0.39	n/a	stim	s192
541.751	0.369	-3.2164608348127466	draw_card	1.0	columbia_card_task_fmri	16.0	0.7777777777777778	89.0	-80.0	0.2222222222222222	12.0	4.0	2.0	5.71184225229586	0.369	4.0	stim	s192
542.126	2.25	n/a	-1.0	n/a	columbia_card_task_fmri	n/a	n/a	-1.0	n/a	n/a	n/a	n/a	n/a	n/a	n/a	n/a	feedback	s192
544.376	0.068	n/a	-1.0	n/a	columbia_card_task_fmri	n/a	n/a	-1.0	n/a	n/a	n/a	n/a	n/a	n/a	n/a	n/a	ITI	s192
544.45	1.519	1.916872498520588	draw_card	0.0	columbia_card_task_fmri	16.0	0.8	89.0	-65.0	0.2	15.0	1.0	3.0	-1.7861898090238952	1.519	n/a	stim	s192
545.975	0.402	0.7597296413777315	draw_card	0.0	columbia_card_task_fmri	16.0	0.7857142857142857	89.0	-65.0	0.2142857142857142	15.0	2.0	3.0	-0.951526483560542	0.402	n/a	stim	s192
546.383	0.898	-0.5754351937871061	draw_card	0.0	columbia_card_task_fmri	16.0	0.7692307692307692	89.0	-65.0	0.2307692307692307	15.0	3.0	3.0	-0.0623507668562268	0.898	n/a	stim	s192
547.287	0.416	-2.1331275014794127	draw_card	0.0	columbia_card_task_fmri	16.0	0.75	89.0	-65.0	0.25	15.0	4.0	3.0	0.882582382184232	0.416	n/a	stim	s192
547.709	0.41	-3.974036592388503	draw_card	1.0	columbia_card_task_fmri	16.0	0.7272727272727273	89.0	-65.0	0.2727272727272727	15.0	5.0	3.0	1.881090394008865	0.41	5.0	stim	s192
548.125	2.25	n/a	-1.0	n/a	columbia_card_task_fmri	n/a	n/a	-1.0	n/a	n/a	n/a	n/a	n/a	n/a	n/a	n/a	feedback	s192
550.375	0.0	n/a	-1.0	n/a	columbia_card_task_fmri	n/a	n/a	-1.0	n/a	n/a	n/a	n/a	n/a	n/a	n/a	n/a	ITI	s192
550.381	2.196	0.2418724985205873	draw_card	0.0	columbia_card_task_fmri	15.0	0.8125	89.0	-75.0	0.1875	16.0	1.0	3.0	0.9365691827454228	2.196	n/a	stim	s192
552.582	0.412	-0.8831275014794127	draw_card	0.0	columbia_card_task_fmri	15.0	0.8	89.0	-75.0	0.2	16.0	2.0	3.0	1.8069147727066688	0.412	n/a	stim	s192
553.001	0.95	-2.1688417871936974	draw_card	1.0	columbia_card_task_fmri	15.0	0.7857142857142857	89.0	-75.0	0.2142857142857142	16.0	3.0	3.0	2.7346837893145377	0.95	3.0	stim	s192
553.957	2.25	n/a	-1.0	n/a	columbia_card_task_fmri	n/a	n/a	-1.0	n/a	n/a	n/a	n/a	n/a	n/a	n/a	n/a	feedback	s192
556.207	0.204	n/a	-1.0	n/a	columbia_card_task_fmri	n/a	n/a	-1.0	n/a	n/a	n/a	n/a	n/a	n/a	n/a	n/a	ITI	s192
556.418	1.538	0.8043724985205873	draw_card	1.0	columbia_card_task_fmri	14.0	0.6875	89.0	-35.0	0.3125	16.0	1.0	5.0	-11.444724051581542	1.538	1.0	stim	s192
557.967	2.25	n/a	-1.0	n/a	columbia_card_task_fmri	n/a	n/a	-1.0	n/a	n/a	n/a	n/a	n/a	n/a	n/a	n/a	feedback	s192
560.217	0.068	n/a	-1.0	n/a	columbia_card_task_fmri	n/a	n/a	-1.0	n/a	n/a	n/a	n/a	n/a	n/a	n/a	n/a	ITI	s192
560.292	1.594	5.983539165187255	draw_card	0.0	columbia_card_task_fmri	16.0	0.8666666666666667	89.0	-75.0	0.1333333333333333	15.0	1.0	2.0	-3.248871900005039	1.594	n/a	stim	s192
561.892	0.391	5.116872498520589	draw_card	0.0	columbia_card_task_fmri	16.0	0.8571428571428572	89.0	-75.0	0.1428571428571428	15.0	2.0	2.0	-2.341618248463565	0.391	n/a	stim	s192
562.288	0.363	4.116872498520587	draw_card	1.0	columbia_card_task_fmri	16.0	0.8461538461538461	89.0	-75.0	0.1538461538461538	15.0	3.0	2.0	-1.354188426524864	0.363	3.0	stim	s192
562.658	2.25	n/a	-1.0	n/a	columbia_card_task_fmri	n/a	n/a	-1.0	n/a	n/a	n/a	n/a	n/a	n/a	n/a	n/a	feedback	s192
564.908	0.068	n/a	-1.0	n/a	columbia_card_task_fmri	n/a	n/a	-1.0	n/a	n/a	n/a	n/a	n/a	n/a	n/a	n/a	ITI	s192
564.982	1.333	6.650205831853921	draw_card	0.0	columbia_card_task_fmri	16.0	0.8666666666666667	89.0	-70.0	0.1333333333333333	15.0	1.0	2.0	-4.9443495869133365	1.333	n/a	stim	s192
566.321	0.405	5.831158212806303	draw_card	0.0	columbia_card_task_fmri	16.0	0.8571428571428572	89.0	-70.0	0.1428571428571428	15.0	2.0	2.0	-4.087177250483375	0.405	n/a	stim	s192
566.733	0.367	4.886103267751356	draw_card	0.0	columbia_card_task_fmri	16.0	0.8461538461538461	89.0	-70.0	0.1538461538461538	15.0	3.0	2.0	-3.1542400002673325	0.367	n/a	stim	s192
567.106	0.901	3.783539165187255	draw_card	0.0	columbia_card_task_fmri	16.0	0.8333333333333334	89.0	-70.0	0.1666666666666666	15.0	4.0	2.0	-2.135130049135306	0.901	n/a	stim	s192
568.014	0.595	2.480508862156949	draw_card	0.0	columbia_card_task_fmri	16.0	0.8181818181818181	89.0	-70.0	0.1818181818181818	15.0	5.0	2.0	-1.0180533015057378	0.595	n/a	stim	s192
568.614	0.448	0.916872498520588	draw_card	0.0	columbia_card_task_fmri	16.0	0.8	89.0	-70.0	0.2	15.0	6.0	2.0	0.2098017340443121	0.448	n/a	stim	s192
569.068	1.265	-0.9942386125905234	draw_card	0.0	columbia_card_task_fmri	16.0	0.7777777777777778	89.0	-70.0	0.2222222222222222	15.0	7.0	2.0	1.5609575803742644	1.265	n/a	stim	s192
570.338	0.66	-3.3831275014794127	draw_card	1.0	columbia_card_task_fmri	16.0	0.75	89.0	-70.0	0.25	15.0	8.0	2.0	3.0439414033944843	0.66	8.0	stim	s192
571.005	2.25	n/a	-1.0	n/a	columbia_card_task_fmri	n/a	n/a	-1.0	n/a	n/a	n/a	n/a	n/a	n/a	n/a	n/a	feedback	s192
573.255	0.34	n/a	-1.0	n/a	columbia_card_task_fmri	n/a	n/a	-1.0	n/a	n/a	n/a	n/a	n/a	n/a	n/a	n/a	ITI	s192
573.601	1.565	3.9918724985205873	draw_card	0.0	columbia_card_task_fmri	8.0	0.9375	89.0	-90.0	0.0625	16.0	1.0	1.0	-10.438982751314503	1.565	n/a	stim	s192
575.17	0.634	3.583539165187254	draw_card	0.0	columbia_card_task_fmri	8.0	0.9333333333333332	89.0	-90.0	0.0666666666666666	16.0	2.0	1.0	-9.718290031757956	0.634	n/a	stim	s192
575.811	0.399	3.116872498520588	draw_card	0.0	columbia_card_task_fmri	8.0	0.9285714285714286	89.0	-90.0	0.0714285714285714	16.0	3.0	1.0	-8.927791558415763	0.399	n/a	stim	s192
576.217	0.413	2.578410960059049	draw_card	0.0	columbia_card_task_fmri	8.0	0.9230769230769232	89.0	-90.0	0.0769230769230769	16.0	4.0	1.0	-8.055613644830192	0.413	n/a	stim	s192
576.637	0.392	1.9502058318539204	draw_card	0.0	columbia_card_task_fmri	8.0	0.9166666666666666	89.0	-90.0	0.0833333333333333	16.0	5.0	1.0	-7.086905047531491	0.392	n/a	stim	s192
577.034	0.699	1.2077815894296782	draw_card	0.0	columbia_card_task_fmri	8.0	0.9090909090909092	89.0	-90.0	0.0909090909090909	16.0	6.0	1.0	-6.002833393406615	0.699	n/a	stim	s192
577.739	0.528	0.3168724985205875	draw_card	0.0	columbia_card_task_fmri	8.0	0.9	89.0	-90.0	0.1	16.0	7.0	1.0	-4.779158202962286	0.528	n/a	stim	s192
578.271	0.48	-0.7720163903683019	draw_card	0.0	columbia_card_task_fmri	8.0	0.8888888888888888	89.0	-90.0	0.1111111111111111	16.0	8.0	1.0	-3.3841770913249967	0.48	n/a	stim	s192
578.757	0.807	-2.1331275014794127	draw_card	0.0	columbia_card_task_fmri	8.0	0.875	89.0	-90.0	0.125	16.0	9.0	1.0	-1.7757584819024927	0.807	n/a	stim	s192
579.568	0.747	-3.883127501479411	end_round	0.0	columbia_card_task_fmri	8.0	0.8571428571428572	71.0	-90.0	0.1428571428571428	16.0	10.0	1.0	0.1028610546621848	0.747	9.0	stim	s192
580.321	2.25	n/a	-1.0	n/a	columbia_card_task_fmri	n/a	n/a	-1.0	n/a	n/a	n/a	n/a	n/a	n/a	n/a	n/a	feedback	s192
582.571	0.0	n/a	-1.0	n/a	columbia_card_task_fmri	n/a	n/a	-1.0	n/a	n/a	n/a	n/a	n/a	n/a	n/a	n/a	ITI	s192
582.578	2.185	5.554372498520587	draw_card	0.0	columbia_card_task_fmri	10.0	0.9375	89.0	-95.0	0.0625	16.0	1.0	1.0	-8.750814348801235	2.185	n/a	stim	s192
584.769	0.524	5.116872498520588	draw_card	0.0	columbia_card_task_fmri	10.0	0.9333333333333332	89.0	-95.0	0.0666666666666666	16.0	2.0	1.0	-7.978261708100835	0.524	n/a	stim	s192
585.299	0.412	4.616872498520588	draw_card	0.0	columbia_card_task_fmri	10.0	0.9285714285714286	89.0	-95.0	0.0714285714285714	16.0	3.0	1.0	-7.130905209732326	0.412	n/a	stim	s192
585.717	0.521	4.039949421597511	end_round	0.0	columbia_card_task_fmri	10.0	0.9230769230769232	71.0	-95.0	0.0769230769230769	16.0	4.0	1.0	-6.196021925312884	0.521	3.0	stim	s192
586.251	2.25	n/a	-1.0	n/a	columbia_card_task_fmri	n/a	n/a	-1.0	n/a	n/a	n/a	n/a	n/a	n/a	n/a	n/a	feedback	s192
588.501	0.0	n/a	-1.0	n/a	columbia_card_task_fmri	n/a	n/a	-1.0	n/a	n/a	n/a	n/a	n/a	n/a	n/a	n/a	ITI	s192
588.507	1.691	6.491872498520587	draw_card	0.0	columbia_card_task_fmri	15.0	0.875	89.0	-70.0	0.125	16.0	1.0	2.0	-6.064570453722876	1.691	n/a	stim	s192
590.205	0.375	5.783539165187253	draw_card	0.0	columbia_card_task_fmri	15.0	0.8666666666666667	89.0	-70.0	0.1333333333333333	16.0	2.0	2.0	-5.28338612509372	0.375	n/a	stim	s192
590.585	0.417	4.974015355663445	draw_card	0.0	columbia_card_task_fmri	15.0	0.8571428571428572	89.0	-70.0	0.1428571428571428	16.0	3.0	2.0	-4.4362317119189925	0.417	n/a	stim	s192
591.008	0.39	4.039949421597509	draw_card	1.0	columbia_card_task_fmri	15.0	0.8461538461538461	89.0	-70.0	0.1538461538461538	16.0	4.0	2.0	-3.5141946804698883	0.39	4.0	stim	s192
591.404	2.25	n/a	-1.0	n/a	columbia_card_task_fmri	n/a	n/a	-1.0	n/a	n/a	n/a	n/a	n/a	n/a	n/a	n/a	feedback	s192
593.654	0.272	n/a	-1.0	n/a	columbia_card_task_fmri	n/a	n/a	-1.0	n/a	n/a	n/a	n/a	n/a	n/a	n/a	n/a	ITI	s192
593.932	1.792	5.491872498520587	draw_card	0.0	columbia_card_task_fmri	16.0	0.875	89.0	-85.0	0.125	16.0	1.0	2.0	-0.7856487884903132	1.792	n/a	stim	s192
595.729	1.038	4.650205831853921	draw_card	0.0	columbia_card_task_fmri	16.0	0.8666666666666667	89.0	-85.0	0.1333333333333333	16.0	2.0	2.0	0.1433257826127487	1.038	n/a	stim	s192
596.773	0.366	3.68830106994916	draw_card	0.0	columbia_card_task_fmri	16.0	0.8571428571428572	89.0	-85.0	0.1428571428571428	16.0	3.0	2.0	1.150707052012713	0.366	n/a	stim	s192
597.146	0.389	2.5784109600590472	draw_card	1.0	columbia_card_task_fmri	16.0	0.8461538461538461	89.0	-85.0	0.1538461538461538	16.0	4.0	2.0	2.247086077991476	0.389	4.0	stim	s192
597.547	2.25	n/a	-1.0	n/a	columbia_card_task_fmri	n/a	n/a	-1.0	n/a	n/a	n/a	n/a	n/a	n/a	n/a	n/a	feedback	s192
599.797	0.204	n/a	-1.0	n/a	columbia_card_task_fmri	n/a	n/a	-1.0	n/a	n/a	n/a	n/a	n/a	n/a	n/a	n/a	ITI	s192
