onset	duration	planning	condition	current_position	exp_stage	experiment_exp_id	goal_state	key_press	problem_id	response_time	start_state	trial_id	worker_id
-105.726	0.0	0	n/a	n/a	n/a	ward_and_allport	n/a	32.0	n/a	10.934	n/a	instructions	s491
3.014	2.901	1	UA_with_intermediate	1,0,0,2,0,0,0,0,0	practice	ward_and_allport	1,2,3,0,0,0,0,0,0	71.0	0.0	2.901	1,0,0,2,3,0,0,0,0	to_hand	s491
5.919	0.44	0	UA_with_intermediate	1,0,0,2,0,0,3,0,0	practice	ward_and_allport	1,2,3,0,0,0,0,0,0	82.0	0.0	0.44	1,0,0,2,3,0,0,0,0	to_board	s491
6.363	0.986	0	UA_with_intermediate	1,0,0,0,0,0,3,0,0	practice	ward_and_allport	1,2,3,0,0,0,0,0,0	71.0	0.0	0.986	1,0,0,2,3,0,0,0,0	to_hand	s491
7.351	0.326	0	UA_with_intermediate	1,2,0,0,0,0,3,0,0	practice	ward_and_allport	1,2,3,0,0,0,0,0,0	89.0	0.0	0.326	1,0,0,2,3,0,0,0,0	to_board	s491
7.68	0.957	0	UA_with_intermediate	1,2,0,0,0,0,0,0,0	practice	ward_and_allport	1,2,3,0,0,0,0,0,0	82.0	0.0	0.957	1,0,0,2,3,0,0,0,0	to_hand	s491
8.639	0.291	0	UA_with_intermediate	1,2,3,0,0,0,0,0,0	practice	ward_and_allport	1,2,3,0,0,0,0,0,0	89.0	0.0	0.291	1,0,0,2,3,0,0,0,0	to_board	s491
8.935	1.0	0	UA_with_intermediate	n/a	practice	ward_and_allport	n/a	-1.0	0.0	n/a	n/a	feedback	s491
11.44	2.419	1	UA_with_intermediate	1,2,0,0,0,0,0,0,0	practice	ward_and_allport	1,3,2,0,0,0,0,0,0	71.0	1.0	2.419	1,2,0,3,0,0,0,0,0	to_hand	s491
13.862	0.269	0	UA_with_intermediate	1,2,3,0,0,0,0,0,0	practice	ward_and_allport	1,3,2,0,0,0,0,0,0	89.0	1.0	0.269	1,2,0,3,0,0,0,0,0	to_board	s491
14.136	1.793	0	UA_with_intermediate	1,2,0,0,0,0,0,0,0	practice	ward_and_allport	1,3,2,0,0,0,0,0,0	89.0	1.0	1.793	1,2,0,3,0,0,0,0,0	to_hand	s491
15.931	0.423	0	UA_with_intermediate	1,2,0,0,0,0,3,0,0	practice	ward_and_allport	1,3,2,0,0,0,0,0,0	82.0	1.0	0.423	1,2,0,3,0,0,0,0,0	to_board	s491
16.358	1.25	0	UA_with_intermediate	1,0,0,0,0,0,3,0,0	practice	ward_and_allport	1,3,2,0,0,0,0,0,0	89.0	1.0	1.25	1,2,0,3,0,0,0,0,0	to_hand	s491
17.61	0.276	0	UA_with_intermediate	1,0,0,2,0,0,3,0,0	practice	ward_and_allport	1,3,2,0,0,0,0,0,0	71.0	1.0	0.276	1,2,0,3,0,0,0,0,0	to_board	s491
17.89	0.734	0	UA_with_intermediate	0,0,0,2,0,0,3,0,0	practice	ward_and_allport	1,3,2,0,0,0,0,0,0	89.0	1.0	0.734	1,2,0,3,0,0,0,0,0	to_hand	s491
18.626	0.82	0	UA_with_intermediate	1,0,0,2,0,0,3,0,0	practice	ward_and_allport	1,3,2,0,0,0,0,0,0	89.0	1.0	0.82	1,2,0,3,0,0,0,0,0	to_board	s491
19.452	0.802	0	UA_with_intermediate	1,0,0,0,0,0,3,0,0	practice	ward_and_allport	1,3,2,0,0,0,0,0,0	71.0	1.0	0.802	1,2,0,3,0,0,0,0,0	to_hand	s491
20.256	0.676	0	UA_with_intermediate	1,0,0,2,0,0,3,0,0	practice	ward_and_allport	1,3,2,0,0,0,0,0,0	71.0	1.0	0.676	1,2,0,3,0,0,0,0,0	to_board	s491
20.936	0.431	0	UA_with_intermediate	1,0,0,2,0,0,0,0,0	practice	ward_and_allport	1,3,2,0,0,0,0,0,0	82.0	1.0	0.431	1,2,0,3,0,0,0,0,0	to_hand	s491
21.369	0.362	0	UA_with_intermediate	1,3,0,2,0,0,0,0,0	practice	ward_and_allport	1,3,2,0,0,0,0,0,0	89.0	1.0	0.362	1,2,0,3,0,0,0,0,0	to_board	s491
21.738	0.58	0	UA_with_intermediate	1,3,0,0,0,0,0,0,0	practice	ward_and_allport	1,3,2,0,0,0,0,0,0	71.0	1.0	0.58	1,2,0,3,0,0,0,0,0	to_hand	s491
22.321	0.332	0	UA_with_intermediate	1,3,2,0,0,0,0,0,0	practice	ward_and_allport	1,3,2,0,0,0,0,0,0	89.0	1.0	0.332	1,2,0,3,0,0,0,0,0	to_board	s491
22.658	1.0	0	UA_with_intermediate	n/a	practice	ward_and_allport	n/a	-1.0	1.0	n/a	n/a	feedback	s491
23.658	1.1	0	UA_with_intermediate	n/a	practice	ward_and_allport	n/a	-1.0	1.0	n/a	n/a	ITI	s491
24.762	3.213	1	UA_without_intermediate	0,0,0,1,0,0,3,0,0	practice	ward_and_allport	3,2,1,0,0,0,0,0,0	71.0	2.0	3.213	0,0,0,1,2,0,3,0,0	to_hand	s491
27.977	0.322	0	UA_without_intermediate	0,0,0,1,0,0,3,2,0	practice	ward_and_allport	3,2,1,0,0,0,0,0,0	82.0	2.0	0.322	0,0,0,1,2,0,3,0,0	to_board	s491
28.303	0.416	0	UA_without_intermediate	0,0,0,0,0,0,3,2,0	practice	ward_and_allport	3,2,1,0,0,0,0,0,0	71.0	2.0	0.416	0,0,0,1,2,0,3,0,0	to_hand	s491
28.722	0.287	0	UA_without_intermediate	0,0,0,0,0,0,3,2,1	practice	ward_and_allport	3,2,1,0,0,0,0,0,0	82.0	2.0	0.287	0,0,0,1,2,0,3,0,0	to_board	s491
29.014	3.74	0	UA_without_intermediate	0,0,0,0,0,0,3,2,0	practice	ward_and_allport	3,2,1,0,0,0,0,0,0	82.0	2.0	3.74	0,0,0,1,2,0,3,0,0	to_hand	s491
32.756	0.249	0	UA_without_intermediate	1,0,0,0,0,0,3,2,0	practice	ward_and_allport	3,2,1,0,0,0,0,0,0	89.0	2.0	0.249	0,0,0,1,2,0,3,0,0	to_board	s491
33.011	1.416	0	UA_without_intermediate	0,0,0,0,0,0,3,2,0	practice	ward_and_allport	3,2,1,0,0,0,0,0,0	89.0	2.0	1.416	0,0,0,1,2,0,3,0,0	to_hand	s491
34.43	0.213	0	UA_without_intermediate	0,0,0,1,0,0,3,2,0	practice	ward_and_allport	3,2,1,0,0,0,0,0,0	71.0	2.0	0.213	0,0,0,1,2,0,3,0,0	to_board	s491
34.648	1.314	0	UA_without_intermediate	0,0,0,0,0,0,3,2,0	practice	ward_and_allport	3,2,1,0,0,0,0,0,0	71.0	2.0	1.314	0,0,0,1,2,0,3,0,0	to_hand	s491
35.965	1.736	0	UA_without_intermediate	0,0,0,1,0,0,3,2,0	practice	ward_and_allport	3,2,1,0,0,0,0,0,0	71.0	2.0	1.736	0,0,0,1,2,0,3,0,0	to_board	s491
37.705	1.114	0	UA_without_intermediate	0,0,0,0,0,0,3,2,0	practice	ward_and_allport	3,2,1,0,0,0,0,0,0	71.0	2.0	1.114	0,0,0,1,2,0,3,0,0	to_hand	s491
38.821	0.523	0	UA_without_intermediate	0,0,0,1,0,0,3,2,0	practice	ward_and_allport	3,2,1,0,0,0,0,0,0	71.0	2.0	0.523	0,0,0,1,2,0,3,0,0	to_board	s491
39.349	0.301	0	UA_without_intermediate	0,0,0,1,0,0,3,0,0	practice	ward_and_allport	3,2,1,0,0,0,0,0,0	82.0	2.0	0.301	0,0,0,1,2,0,3,0,0	to_hand	s491
39.652	0.135	0	UA_without_intermediate	0,0,0,1,2,0,3,0,0	practice	ward_and_allport	3,2,1,0,0,0,0,0,0	71.0	2.0	0.135	0,0,0,1,2,0,3,0,0	to_board	s491
39.792	0.76	0	UA_without_intermediate	0,0,0,1,2,0,0,0,0	practice	ward_and_allport	3,2,1,0,0,0,0,0,0	82.0	2.0	0.76	0,0,0,1,2,0,3,0,0	to_hand	s491
40.554	0.304	0	UA_without_intermediate	3,0,0,1,2,0,0,0,0	practice	ward_and_allport	3,2,1,0,0,0,0,0,0	89.0	2.0	0.304	0,0,0,1,2,0,3,0,0	to_board	s491
40.864	1.038	0	UA_without_intermediate	3,0,0,1,0,0,0,0,0	practice	ward_and_allport	3,2,1,0,0,0,0,0,0	71.0	2.0	1.038	0,0,0,1,2,0,3,0,0	to_hand	s491
41.904	0.295	0	UA_without_intermediate	3,2,0,1,0,0,0,0,0	practice	ward_and_allport	3,2,1,0,0,0,0,0,0	89.0	2.0	0.295	0,0,0,1,2,0,3,0,0	to_board	s491
42.205	0.325	0	UA_without_intermediate	3,2,0,0,0,0,0,0,0	practice	ward_and_allport	3,2,1,0,0,0,0,0,0	71.0	2.0	0.325	0,0,0,1,2,0,3,0,0	to_hand	s491
42.533	0.223	0	UA_without_intermediate	3,2,1,0,0,0,0,0,0	practice	ward_and_allport	3,2,1,0,0,0,0,0,0	89.0	2.0	0.223	0,0,0,1,2,0,3,0,0	to_board	s491
42.763	1.0	0	UA_without_intermediate	n/a	practice	ward_and_allport	n/a	-1.0	2.0	n/a	n/a	feedback	s491
43.763	1.2	0	UA_without_intermediate	n/a	practice	ward_and_allport	n/a	-1.0	2.0	n/a	n/a	ITI	s491
44.97	2.186	1	UA_without_intermediate	0,0,0,1,0,0,3,0,0	practice	ward_and_allport	2,3,1,0,0,0,0,0,0	71.0	3.0	2.186	0,0,0,1,2,0,3,0,0	to_hand	s491
47.159	0.326	0	UA_without_intermediate	2,0,0,1,0,0,3,0,0	practice	ward_and_allport	2,3,1,0,0,0,0,0,0	89.0	3.0	0.326	0,0,0,1,2,0,3,0,0	to_board	s491
47.492	0.882	0	UA_without_intermediate	2,0,0,1,0,0,0,0,0	practice	ward_and_allport	2,3,1,0,0,0,0,0,0	82.0	3.0	0.882	0,0,0,1,2,0,3,0,0	to_hand	s491
48.377	0.39	0	UA_without_intermediate	2,3,0,1,0,0,0,0,0	practice	ward_and_allport	2,3,1,0,0,0,0,0,0	89.0	3.0	0.39	0,0,0,1,2,0,3,0,0	to_board	s491
48.773	0.384	0	UA_without_intermediate	2,3,0,0,0,0,0,0,0	practice	ward_and_allport	2,3,1,0,0,0,0,0,0	71.0	3.0	0.384	0,0,0,1,2,0,3,0,0	to_hand	s491
49.16	0.256	0	UA_without_intermediate	2,3,1,0,0,0,0,0,0	practice	ward_and_allport	2,3,1,0,0,0,0,0,0	89.0	3.0	0.256	0,0,0,1,2,0,3,0,0	to_board	s491
49.423	1.0	0	UA_without_intermediate	n/a	practice	ward_and_allport	n/a	-1.0	3.0	n/a	n/a	feedback	s491
50.423	1.0	0	UA_without_intermediate	n/a	practice	ward_and_allport	n/a	-1.0	3.0	n/a	n/a	ITI	s491
53.433	4.79	1	PA_without_intermediate	1,2,0,0,0,0,0,0,0	test	ward_and_allport	0,0,0,3,2,0,1,0,0	89.0	0.0	4.79	1,2,3,0,0,0,0,0,0	to_hand	s491
58.225	0.425	0	PA_without_intermediate	1,2,0,3,0,0,0,0,0	test	ward_and_allport	0,0,0,3,2,0,1,0,0	71.0	0.0	0.425	1,2,3,0,0,0,0,0,0	to_board	s491
58.655	1.416	0	PA_without_intermediate	1,0,0,3,0,0,0,0,0	test	ward_and_allport	0,0,0,3,2,0,1,0,0	89.0	0.0	1.416	1,2,3,0,0,0,0,0,0	to_hand	s491
60.074	0.576	0	PA_without_intermediate	1,0,0,3,2,0,0,0,0	test	ward_and_allport	0,0,0,3,2,0,1,0,0	71.0	0.0	0.576	1,2,3,0,0,0,0,0,0	to_board	s491
60.655	0.537	0	PA_without_intermediate	0,0,0,3,2,0,0,0,0	test	ward_and_allport	0,0,0,3,2,0,1,0,0	89.0	0.0	0.537	1,2,3,0,0,0,0,0,0	to_hand	s491
61.195	0.299	0	PA_without_intermediate	0,0,0,3,2,0,1,0,0	test	ward_and_allport	0,0,0,3,2,0,1,0,0	82.0	0.0	0.299	1,2,3,0,0,0,0,0,0	to_board	s491
61.502	1.0	0	PA_without_intermediate	n/a	test	ward_and_allport	n/a	-1.0	0.0	n/a	n/a	feedback	s491
62.502	2.088	0	PA_without_intermediate	n/a	test	ward_and_allport	n/a	-1.0	0.0	n/a	n/a	ITI	s491
64.596	3.559	1	PA_with_intermediate	0,0,0,0,0,0,1,2,0	test	ward_and_allport	2,0,0,0,0,0,1,3,0	82.0	1.0	3.559	0,0,0,0,0,0,1,2,3	to_hand	s491
68.158	0.54	0	PA_with_intermediate	0,0,0,3,0,0,1,2,0	test	ward_and_allport	2,0,0,0,0,0,1,3,0	71.0	1.0	0.54	0,0,0,0,0,0,1,2,3	to_board	s491
68.705	1.31	0	PA_with_intermediate	0,0,0,3,0,0,1,0,0	test	ward_and_allport	2,0,0,0,0,0,1,3,0	82.0	1.0	1.31	0,0,0,0,0,0,1,2,3	to_hand	s491
70.017	0.51	0	PA_with_intermediate	2,0,0,3,0,0,1,0,0	test	ward_and_allport	2,0,0,0,0,0,1,3,0	89.0	1.0	0.51	0,0,0,0,0,0,1,2,3	to_board	s491
70.534	1.279	0	PA_with_intermediate	2,0,0,0,0,0,1,0,0	test	ward_and_allport	2,0,0,0,0,0,1,3,0	71.0	1.0	1.279	0,0,0,0,0,0,1,2,3	to_hand	s491
71.815	0.495	0	PA_with_intermediate	2,0,0,0,0,0,1,3,0	test	ward_and_allport	2,0,0,0,0,0,1,3,0	82.0	1.0	0.495	0,0,0,0,0,0,1,2,3	to_board	s491
72.317	1.0	0	PA_with_intermediate	n/a	test	ward_and_allport	n/a	-1.0	1.0	n/a	n/a	feedback	s491
73.317	1.0	0	PA_with_intermediate	n/a	test	ward_and_allport	n/a	-1.0	1.0	n/a	n/a	ITI	s491
74.322	2.802	1	PA_without_intermediate	1,2,0,0,0,0,0,0,0	test	ward_and_allport	0,0,0,1,0,0,3,2,0	89.0	2.0	2.802	1,2,3,0,0,0,0,0,0	to_hand	s491
77.127	0.6	0	PA_without_intermediate	1,2,0,0,0,0,3,0,0	test	ward_and_allport	0,0,0,1,0,0,3,2,0	82.0	2.0	0.6	1,2,3,0,0,0,0,0,0	to_board	s491
77.736	1.022	0	PA_without_intermediate	1,0,0,0,0,0,3,0,0	test	ward_and_allport	0,0,0,1,0,0,3,2,0	89.0	2.0	1.022	1,2,3,0,0,0,0,0,0	to_hand	s491
78.76	0.629	0	PA_without_intermediate	1,0,0,0,0,0,3,2,0	test	ward_and_allport	0,0,0,1,0,0,3,2,0	82.0	2.0	0.629	1,2,3,0,0,0,0,0,0	to_board	s491
79.396	0.608	0	PA_without_intermediate	0,0,0,0,0,0,3,2,0	test	ward_and_allport	0,0,0,1,0,0,3,2,0	89.0	2.0	0.608	1,2,3,0,0,0,0,0,0	to_hand	s491
80.007	0.275	0	PA_without_intermediate	0,0,0,1,0,0,3,2,0	test	ward_and_allport	0,0,0,1,0,0,3,2,0	71.0	2.0	0.275	1,2,3,0,0,0,0,0,0	to_board	s491
80.291	1.0	0	PA_without_intermediate	n/a	test	ward_and_allport	n/a	-1.0	2.0	n/a	n/a	feedback	s491
81.291	1.0	0	PA_without_intermediate	n/a	test	ward_and_allport	n/a	-1.0	2.0	n/a	n/a	ITI	s491
82.299	4.101	1	PA_without_intermediate	0,0,0,1,2,0,0,0,0	test	ward_and_allport	2,0,0,0,0,0,3,1,0	71.0	3.0	4.101	0,0,0,1,2,3,0,0,0	to_hand	s491
86.403	0.648	0	PA_without_intermediate	0,0,0,1,2,0,3,0,0	test	ward_and_allport	2,0,0,0,0,0,3,1,0	82.0	3.0	0.648	0,0,0,1,2,3,0,0,0	to_board	s491
87.058	0.832	0	PA_without_intermediate	0,0,0,1,0,0,3,0,0	test	ward_and_allport	2,0,0,0,0,0,3,1,0	71.0	3.0	0.832	0,0,0,1,2,3,0,0,0	to_hand	s491
87.892	0.308	0	PA_without_intermediate	2,0,0,1,0,0,3,0,0	test	ward_and_allport	2,0,0,0,0,0,3,1,0	89.0	3.0	0.308	0,0,0,1,2,3,0,0,0	to_board	s491
88.208	0.794	0	PA_without_intermediate	2,0,0,0,0,0,3,0,0	test	ward_and_allport	2,0,0,0,0,0,3,1,0	71.0	3.0	0.794	0,0,0,1,2,3,0,0,0	to_hand	s491
89.005	0.363	0	PA_without_intermediate	2,0,0,0,0,0,3,1,0	test	ward_and_allport	2,0,0,0,0,0,3,1,0	82.0	3.0	0.363	0,0,0,1,2,3,0,0,0	to_board	s491
89.379	1.0	0	PA_without_intermediate	n/a	test	ward_and_allport	n/a	-1.0	3.0	n/a	n/a	feedback	s491
90.379	1.0	0	PA_without_intermediate	n/a	test	ward_and_allport	n/a	-1.0	3.0	n/a	n/a	ITI	s491
91.386	3.722	1	PA_with_intermediate	0,0,0,0,0,0,1,2,0	test	ward_and_allport	0,0,0,2,0,0,1,3,0	82.0	4.0	3.722	0,0,0,0,0,0,1,2,3	to_hand	s491
95.11	0.673	0	PA_with_intermediate	3,0,0,0,0,0,1,2,0	test	ward_and_allport	0,0,0,2,0,0,1,3,0	89.0	4.0	0.673	0,0,0,0,0,0,1,2,3	to_board	s491
95.79	0.913	0	PA_with_intermediate	3,0,0,0,0,0,1,0,0	test	ward_and_allport	0,0,0,2,0,0,1,3,0	82.0	4.0	0.913	0,0,0,0,0,0,1,2,3	to_hand	s491
96.705	0.337	0	PA_with_intermediate	3,0,0,2,0,0,1,0,0	test	ward_and_allport	0,0,0,2,0,0,1,3,0	71.0	4.0	0.337	0,0,0,0,0,0,1,2,3	to_board	s491
97.049	0.829	0	PA_with_intermediate	0,0,0,2,0,0,1,0,0	test	ward_and_allport	0,0,0,2,0,0,1,3,0	89.0	4.0	0.829	0,0,0,0,0,0,1,2,3	to_hand	s491
97.881	0.421	0	PA_with_intermediate	0,0,0,2,0,0,1,3,0	test	ward_and_allport	0,0,0,2,0,0,1,3,0	82.0	4.0	0.421	0,0,0,0,0,0,1,2,3	to_board	s491
98.311	1.0	0	PA_with_intermediate	n/a	test	ward_and_allport	n/a	-1.0	4.0	n/a	n/a	feedback	s491
99.311	1.544	0	PA_with_intermediate	n/a	test	ward_and_allport	n/a	-1.0	4.0	n/a	n/a	ITI	s491
100.863	4.902	1	PA_without_intermediate	0,0,0,1,2,0,0,0,0	test	ward_and_allport	3,2,0,0,0,0,1,0,0	71.0	5.0	4.902	0,0,0,1,2,3,0,0,0	to_hand	s491
105.767	0.375	0	PA_without_intermediate	3,0,0,1,2,0,0,0,0	test	ward_and_allport	3,2,0,0,0,0,1,0,0	89.0	5.0	0.375	0,0,0,1,2,3,0,0,0	to_board	s491
106.152	0.303	0	PA_without_intermediate	3,0,0,1,0,0,0,0,0	test	ward_and_allport	3,2,0,0,0,0,1,0,0	71.0	5.0	0.303	0,0,0,1,2,3,0,0,0	to_hand	s491
106.458	0.316	0	PA_without_intermediate	3,2,0,1,0,0,0,0,0	test	ward_and_allport	3,2,0,0,0,0,1,0,0	89.0	5.0	0.316	0,0,0,1,2,3,0,0,0	to_board	s491
106.784	0.373	0	PA_without_intermediate	3,2,0,0,0,0,0,0,0	test	ward_and_allport	3,2,0,0,0,0,1,0,0	71.0	5.0	0.373	0,0,0,1,2,3,0,0,0	to_hand	s491
107.159	0.278	0	PA_without_intermediate	3,2,0,0,0,0,1,0,0	test	ward_and_allport	3,2,0,0,0,0,1,0,0	82.0	5.0	0.278	0,0,0,1,2,3,0,0,0	to_board	s491
107.448	1.0	0	PA_without_intermediate	n/a	test	ward_and_allport	n/a	-1.0	5.0	n/a	n/a	feedback	s491
108.448	1.272	0	PA_without_intermediate	n/a	test	ward_and_allport	n/a	-1.0	5.0	n/a	n/a	ITI	s491
109.728	6.442	1	PA_with_intermediate	1,2,0,0,0,0,0,0,0	test	ward_and_allport	1,3,0,0,0,0,2,0,0	89.0	6.0	6.442	1,2,3,0,0,0,0,0,0	to_hand	s491
116.172	0.392	0	PA_with_intermediate	1,2,0,3,0,0,0,0,0	test	ward_and_allport	1,3,0,0,0,0,2,0,0	71.0	6.0	0.392	1,2,3,0,0,0,0,0,0	to_board	s491
116.573	0.451	0	PA_with_intermediate	1,0,0,3,0,0,0,0,0	test	ward_and_allport	1,3,0,0,0,0,2,0,0	89.0	6.0	0.451	1,2,3,0,0,0,0,0,0	to_hand	s491
117.027	0.354	0	PA_with_intermediate	1,0,0,3,0,0,2,0,0	test	ward_and_allport	1,3,0,0,0,0,2,0,0	82.0	6.0	0.354	1,2,3,0,0,0,0,0,0	to_board	s491
117.389	0.816	0	PA_with_intermediate	1,0,0,0,0,0,2,0,0	test	ward_and_allport	1,3,0,0,0,0,2,0,0	71.0	6.0	0.816	1,2,3,0,0,0,0,0,0	to_hand	s491
118.207	0.197	0	PA_with_intermediate	1,3,0,0,0,0,2,0,0	test	ward_and_allport	1,3,0,0,0,0,2,0,0	89.0	6.0	0.197	1,2,3,0,0,0,0,0,0	to_board	s491
118.417	1.0	0	PA_with_intermediate	n/a	test	ward_and_allport	n/a	-1.0	6.0	n/a	n/a	feedback	s491
119.417	3.04	0	PA_with_intermediate	n/a	test	ward_and_allport	n/a	-1.0	6.0	n/a	n/a	ITI	s491
122.465	5.129	1	PA_with_intermediate	1,2,0,0,0,0,0,0,0	test	ward_and_allport	1,3,0,2,0,0,0,0,0	89.0	7.0	5.129	1,2,3,0,0,0,0,0,0	to_hand	s491
127.598	0.347	0	PA_with_intermediate	1,2,0,0,0,0,3,0,0	test	ward_and_allport	1,3,0,2,0,0,0,0,0	82.0	7.0	0.347	1,2,3,0,0,0,0,0,0	to_board	s491
127.954	0.407	0	PA_with_intermediate	1,0,0,0,0,0,3,0,0	test	ward_and_allport	1,3,0,2,0,0,0,0,0	89.0	7.0	0.407	1,2,3,0,0,0,0,0,0	to_hand	s491
128.364	0.3	0	PA_with_intermediate	1,0,0,2,0,0,3,0,0	test	ward_and_allport	1,3,0,2,0,0,0,0,0	71.0	7.0	0.3	1,2,3,0,0,0,0,0,0	to_board	s491
128.673	0.724	0	PA_with_intermediate	1,0,0,2,0,0,0,0,0	test	ward_and_allport	1,3,0,2,0,0,0,0,0	82.0	7.0	0.724	1,2,3,0,0,0,0,0,0	to_hand	s491
129.4	0.219	0	PA_with_intermediate	1,3,0,2,0,0,0,0,0	test	ward_and_allport	1,3,0,2,0,0,0,0,0	89.0	7.0	0.219	1,2,3,0,0,0,0,0,0	to_board	s491
129.632	1.0	0	PA_with_intermediate	n/a	test	ward_and_allport	n/a	-1.0	7.0	n/a	n/a	feedback	s491
130.632	1.272	0	PA_with_intermediate	n/a	test	ward_and_allport	n/a	-1.0	7.0	n/a	n/a	ITI	s491
131.916	4.782	1	PA_with_intermediate	1,2,0,0,0,0,0,0,0	test	ward_and_allport	1,0,0,0,0,0,2,3,0	89.0	8.0	4.782	1,2,3,0,0,0,0,0,0	to_hand	s491
136.703	0.469	0	PA_with_intermediate	1,2,0,3,0,0,0,0,0	test	ward_and_allport	1,0,0,0,0,0,2,3,0	71.0	8.0	0.469	1,2,3,0,0,0,0,0,0	to_board	s491
137.182	0.474	0	PA_with_intermediate	1,0,0,3,0,0,0,0,0	test	ward_and_allport	1,0,0,0,0,0,2,3,0	89.0	8.0	0.474	1,2,3,0,0,0,0,0,0	to_hand	s491
137.658	0.837	0	PA_with_intermediate	1,0,0,3,0,0,2,0,0	test	ward_and_allport	1,0,0,0,0,0,2,3,0	82.0	8.0	0.837	1,2,3,0,0,0,0,0,0	to_board	s491
138.506	0.572	0	PA_with_intermediate	1,0,0,0,0,0,2,0,0	test	ward_and_allport	1,0,0,0,0,0,2,3,0	71.0	8.0	0.572	1,2,3,0,0,0,0,0,0	to_hand	s491
139.079	0.327	0	PA_with_intermediate	1,0,0,0,0,0,2,3,0	test	ward_and_allport	1,0,0,0,0,0,2,3,0	82.0	8.0	0.327	1,2,3,0,0,0,0,0,0	to_board	s491
139.418	1.0	0	PA_with_intermediate	n/a	test	ward_and_allport	n/a	-1.0	8.0	n/a	n/a	feedback	s491
140.418	1.136	0	PA_with_intermediate	n/a	test	ward_and_allport	n/a	-1.0	8.0	n/a	n/a	ITI	s491
141.565	3.943	1	PA_with_intermediate	0,0,0,1,2,0,0,0,0	test	ward_and_allport	0,0,0,1,3,0,2,0,0	71.0	9.0	3.943	0,0,0,1,2,3,0,0,0	to_hand	s491
145.51	0.406	0	PA_with_intermediate	3,0,0,1,2,0,0,0,0	test	ward_and_allport	0,0,0,1,3,0,2,0,0	89.0	9.0	0.406	0,0,0,1,2,3,0,0,0	to_board	s491
145.926	0.711	0	PA_with_intermediate	3,0,0,1,0,0,0,0,0	test	ward_and_allport	0,0,0,1,3,0,2,0,0	71.0	9.0	0.711	0,0,0,1,2,3,0,0,0	to_hand	s491
146.639	0.364	0	PA_with_intermediate	3,0,0,1,0,0,2,0,0	test	ward_and_allport	0,0,0,1,3,0,2,0,0	82.0	9.0	0.364	0,0,0,1,2,3,0,0,0	to_board	s491
147.012	0.984	0	PA_with_intermediate	0,0,0,1,0,0,2,0,0	test	ward_and_allport	0,0,0,1,3,0,2,0,0	89.0	9.0	0.984	0,0,0,1,2,3,0,0,0	to_hand	s491
147.998	0.249	0	PA_with_intermediate	0,0,0,1,3,0,2,0,0	test	ward_and_allport	0,0,0,1,3,0,2,0,0	71.0	9.0	0.249	0,0,0,1,2,3,0,0,0	to_board	s491
148.256	1.0	0	PA_with_intermediate	n/a	test	ward_and_allport	n/a	-1.0	9.0	n/a	n/a	feedback	s491
149.256	1.0	0	PA_with_intermediate	n/a	test	ward_and_allport	n/a	-1.0	9.0	n/a	n/a	ITI	s491
150.267	4.655	1	PA_with_intermediate	0,0,0,1,2,0,0,0,0	test	ward_and_allport	0,0,0,1,0,0,2,3,0	71.0	10.0	4.655	0,0,0,1,2,3,0,0,0	to_hand	s491
154.925	0.539	0	PA_with_intermediate	3,0,0,1,2,0,0,0,0	test	ward_and_allport	0,0,0,1,0,0,2,3,0	89.0	10.0	0.539	0,0,0,1,2,3,0,0,0	to_board	s491
155.475	0.565	0	PA_with_intermediate	3,0,0,1,0,0,0,0,0	test	ward_and_allport	0,0,0,1,0,0,2,3,0	71.0	10.0	0.565	0,0,0,1,2,3,0,0,0	to_hand	s491
156.043	0.341	0	PA_with_intermediate	3,0,0,1,0,0,2,0,0	test	ward_and_allport	0,0,0,1,0,0,2,3,0	82.0	10.0	0.341	0,0,0,1,2,3,0,0,0	to_board	s491
156.396	0.637	0	PA_with_intermediate	0,0,0,1,0,0,2,0,0	test	ward_and_allport	0,0,0,1,0,0,2,3,0	89.0	10.0	0.637	0,0,0,1,2,3,0,0,0	to_hand	s491
157.036	0.276	0	PA_with_intermediate	0,0,0,1,0,0,2,3,0	test	ward_and_allport	0,0,0,1,0,0,2,3,0	82.0	10.0	0.276	0,0,0,1,2,3,0,0,0	to_board	s491
157.322	1.0	0	PA_with_intermediate	n/a	test	ward_and_allport	n/a	-1.0	10.0	n/a	n/a	feedback	s491
158.322	1.0	0	PA_with_intermediate	n/a	test	ward_and_allport	n/a	-1.0	10.0	n/a	n/a	ITI	s491
159.331	3.32	1	PA_without_intermediate	1,2,0,0,0,0,0,0,0	test	ward_and_allport	0,0,0,3,2,0,1,0,0	89.0	11.0	3.32	1,2,3,0,0,0,0,0,0	to_hand	s491
162.653	0.387	0	PA_without_intermediate	1,2,0,3,0,0,0,0,0	test	ward_and_allport	0,0,0,3,2,0,1,0,0	71.0	11.0	0.387	1,2,3,0,0,0,0,0,0	to_board	s491
163.052	0.368	0	PA_without_intermediate	1,0,0,3,0,0,0,0,0	test	ward_and_allport	0,0,0,3,2,0,1,0,0	89.0	11.0	0.368	1,2,3,0,0,0,0,0,0	to_hand	s491
163.422	0.364	0	PA_without_intermediate	1,0,0,3,2,0,0,0,0	test	ward_and_allport	0,0,0,3,2,0,1,0,0	71.0	11.0	0.364	1,2,3,0,0,0,0,0,0	to_board	s491
163.797	0.349	0	PA_without_intermediate	0,0,0,3,2,0,0,0,0	test	ward_and_allport	0,0,0,3,2,0,1,0,0	89.0	11.0	0.349	1,2,3,0,0,0,0,0,0	to_hand	s491
164.149	0.235	0	PA_without_intermediate	0,0,0,3,2,0,1,0,0	test	ward_and_allport	0,0,0,3,2,0,1,0,0	82.0	11.0	0.235	1,2,3,0,0,0,0,0,0	to_board	s491
164.397	1.0	0	PA_without_intermediate	n/a	test	ward_and_allport	n/a	-1.0	11.0	n/a	n/a	feedback	s491
165.397	1.408	0	PA_without_intermediate	n/a	test	ward_and_allport	n/a	-1.0	11.0	n/a	n/a	ITI	s491
166.814	2.721	1	PA_with_intermediate	1,2,0,0,0,0,0,0,0	test	ward_and_allport	1,0,0,2,3,0,0,0,0	89.0	12.0	2.721	1,2,3,0,0,0,0,0,0	to_hand	s491
169.537	0.596	0	PA_with_intermediate	1,2,0,0,0,0,3,0,0	test	ward_and_allport	1,0,0,2,3,0,0,0,0	82.0	12.0	0.596	1,2,3,0,0,0,0,0,0	to_board	s491
170.146	0.401	0	PA_with_intermediate	1,0,0,0,0,0,3,0,0	test	ward_and_allport	1,0,0,2,3,0,0,0,0	89.0	12.0	0.401	1,2,3,0,0,0,0,0,0	to_hand	s491
170.55	0.308	0	PA_with_intermediate	1,0,0,2,0,0,3,0,0	test	ward_and_allport	1,0,0,2,3,0,0,0,0	71.0	12.0	0.308	1,2,3,0,0,0,0,0,0	to_board	s491
170.867	1.316	0	PA_with_intermediate	1,0,0,2,0,0,0,0,0	test	ward_and_allport	1,0,0,2,3,0,0,0,0	82.0	12.0	1.316	1,2,3,0,0,0,0,0,0	to_hand	s491
172.186	0.238	0	PA_with_intermediate	1,0,0,2,3,0,0,0,0	test	ward_and_allport	1,0,0,2,3,0,0,0,0	71.0	12.0	0.238	1,2,3,0,0,0,0,0,0	to_board	s491
172.437	1.0	0	PA_with_intermediate	n/a	test	ward_and_allport	n/a	-1.0	12.0	n/a	n/a	feedback	s491
173.437	2.768	0	PA_with_intermediate	n/a	test	ward_and_allport	n/a	-1.0	12.0	n/a	n/a	ITI	s491
176.216	3.449	1	PA_with_intermediate	0,0,0,0,0,0,1,2,0	test	ward_and_allport	0,0,0,2,3,0,1,0,0	82.0	13.0	3.449	0,0,0,0,0,0,1,2,3	to_hand	s491
179.667	0.458	0	PA_with_intermediate	3,0,0,0,0,0,1,2,0	test	ward_and_allport	0,0,0,2,3,0,1,0,0	89.0	13.0	0.458	0,0,0,0,0,0,1,2,3	to_board	s491
180.137	0.577	0	PA_with_intermediate	3,0,0,0,0,0,1,0,0	test	ward_and_allport	0,0,0,2,3,0,1,0,0	82.0	13.0	0.577	0,0,0,0,0,0,1,2,3	to_hand	s491
180.716	0.441	0	PA_with_intermediate	3,0,0,2,0,0,1,0,0	test	ward_and_allport	0,0,0,2,3,0,1,0,0	71.0	13.0	0.441	0,0,0,0,0,0,1,2,3	to_board	s491
181.169	0.413	0	PA_with_intermediate	0,0,0,2,0,0,1,0,0	test	ward_and_allport	0,0,0,2,3,0,1,0,0	89.0	13.0	0.413	0,0,0,0,0,0,1,2,3	to_hand	s491
181.584	0.445	0	PA_with_intermediate	0,0,0,2,3,0,1,0,0	test	ward_and_allport	0,0,0,2,3,0,1,0,0	71.0	13.0	0.445	0,0,0,0,0,0,1,2,3	to_board	s491
182.042	1.0	0	PA_with_intermediate	n/a	test	ward_and_allport	n/a	-1.0	13.0	n/a	n/a	feedback	s491
183.042	1.68	0	PA_with_intermediate	n/a	test	ward_and_allport	n/a	-1.0	13.0	n/a	n/a	ITI	s491
184.733	5.007	1	PA_without_intermediate	0,0,0,0,0,0,1,2,0	test	ward_and_allport	1,0,0,3,2,0,0,0,0	82.0	14.0	5.007	0,0,0,0,0,0,1,2,3	to_hand	s491
189.744	0.679	0	PA_without_intermediate	0,0,0,3,0,0,1,2,0	test	ward_and_allport	1,0,0,3,2,0,0,0,0	71.0	14.0	0.679	0,0,0,0,0,0,1,2,3	to_board	s491
190.437	0.363	0	PA_without_intermediate	0,0,0,3,0,0,1,0,0	test	ward_and_allport	1,0,0,3,2,0,0,0,0	82.0	14.0	0.363	0,0,0,0,0,0,1,2,3	to_hand	s491
190.802	0.384	0	PA_without_intermediate	0,0,0,3,2,0,1,0,0	test	ward_and_allport	1,0,0,3,2,0,0,0,0	71.0	14.0	0.384	0,0,0,0,0,0,1,2,3	to_board	s491
191.199	0.365	0	PA_without_intermediate	0,0,0,3,2,0,0,0,0	test	ward_and_allport	1,0,0,3,2,0,0,0,0	82.0	14.0	0.365	0,0,0,0,0,0,1,2,3	to_hand	s491
191.567	0.256	0	PA_without_intermediate	1,0,0,3,2,0,0,0,0	test	ward_and_allport	1,0,0,3,2,0,0,0,0	89.0	14.0	0.256	0,0,0,0,0,0,1,2,3	to_board	s491
191.837	1.0	0	PA_without_intermediate	n/a	test	ward_and_allport	n/a	-1.0	14.0	n/a	n/a	feedback	s491
192.837	2.224	0	PA_without_intermediate	n/a	test	ward_and_allport	n/a	-1.0	14.0	n/a	n/a	ITI	s491
200.079	4.49	1	PA_without_intermediate	0,0,0,0,0,0,1,2,0	test	ward_and_allport	1,0,0,3,2,0,0,0,0	82.0	15.0	4.49	0,0,0,0,0,0,1,2,3	to_hand	s491
204.571	0.337	0	PA_without_intermediate	0,0,0,3,0,0,1,2,0	test	ward_and_allport	1,0,0,3,2,0,0,0,0	71.0	15.0	0.337	0,0,0,0,0,0,1,2,3	to_board	s491
204.922	0.43	0	PA_without_intermediate	0,0,0,3,0,0,1,0,0	test	ward_and_allport	1,0,0,3,2,0,0,0,0	82.0	15.0	0.43	0,0,0,0,0,0,1,2,3	to_hand	s491
205.354	0.363	0	PA_without_intermediate	0,0,0,3,2,0,1,0,0	test	ward_and_allport	1,0,0,3,2,0,0,0,0	71.0	15.0	0.363	0,0,0,0,0,0,1,2,3	to_board	s491
205.729	0.426	0	PA_without_intermediate	0,0,0,3,2,0,0,0,0	test	ward_and_allport	1,0,0,3,2,0,0,0,0	82.0	15.0	0.426	0,0,0,0,0,0,1,2,3	to_hand	s491
206.157	0.321	0	PA_without_intermediate	1,0,0,3,2,0,0,0,0	test	ward_and_allport	1,0,0,3,2,0,0,0,0	89.0	15.0	0.321	0,0,0,0,0,0,1,2,3	to_board	s491
206.494	1.0	0	PA_without_intermediate	n/a	test	ward_and_allport	n/a	-1.0	15.0	n/a	n/a	feedback	s491
207.494	2.36	0	PA_without_intermediate	n/a	test	ward_and_allport	n/a	-1.0	15.0	n/a	n/a	ITI	s491
209.867	3.298	1	PA_without_intermediate	1,2,0,0,0,0,0,0,0	test	ward_and_allport	0,0,0,3,1,0,2,0,0	89.0	16.0	3.298	1,2,3,0,0,0,0,0,0	to_hand	s491
213.168	0.392	0	PA_without_intermediate	1,2,0,3,0,0,0,0,0	test	ward_and_allport	0,0,0,3,1,0,2,0,0	71.0	16.0	0.392	1,2,3,0,0,0,0,0,0	to_board	s491
213.571	0.294	0	PA_without_intermediate	1,0,0,3,0,0,0,0,0	test	ward_and_allport	0,0,0,3,1,0,2,0,0	89.0	16.0	0.294	1,2,3,0,0,0,0,0,0	to_hand	s491
213.867	0.267	0	PA_without_intermediate	1,0,0,3,0,0,2,0,0	test	ward_and_allport	0,0,0,3,1,0,2,0,0	82.0	16.0	0.267	1,2,3,0,0,0,0,0,0	to_board	s491
214.145	0.28	0	PA_without_intermediate	0,0,0,3,0,0,2,0,0	test	ward_and_allport	0,0,0,3,1,0,2,0,0	89.0	16.0	0.28	1,2,3,0,0,0,0,0,0	to_hand	s491
214.427	0.219	0	PA_without_intermediate	0,0,0,3,1,0,2,0,0	test	ward_and_allport	0,0,0,3,1,0,2,0,0	71.0	16.0	0.219	1,2,3,0,0,0,0,0,0	to_board	s491
214.661	1.0	0	PA_without_intermediate	n/a	test	ward_and_allport	n/a	-1.0	16.0	n/a	n/a	feedback	s491
215.661	1.0	0	PA_without_intermediate	n/a	test	ward_and_allport	n/a	-1.0	16.0	n/a	n/a	ITI	s491
216.674	3.198	1	PA_without_intermediate	0,0,0,1,2,0,0,0,0	test	ward_and_allport	1,0,0,0,0,0,3,2,0	71.0	17.0	3.198	0,0,0,1,2,3,0,0,0	to_hand	s491
219.874	0.588	0	PA_without_intermediate	0,0,0,1,2,0,3,0,0	test	ward_and_allport	1,0,0,0,0,0,3,2,0	82.0	17.0	0.588	0,0,0,1,2,3,0,0,0	to_board	s491
220.476	0.432	0	PA_without_intermediate	0,0,0,1,0,0,3,0,0	test	ward_and_allport	1,0,0,0,0,0,3,2,0	71.0	17.0	0.432	0,0,0,1,2,3,0,0,0	to_hand	s491
220.91	0.44	0	PA_without_intermediate	0,0,0,1,0,0,3,2,0	test	ward_and_allport	1,0,0,0,0,0,3,2,0	82.0	17.0	0.44	0,0,0,1,2,3,0,0,0	to_board	s491
221.364	0.397	0	PA_without_intermediate	0,0,0,0,0,0,3,2,0	test	ward_and_allport	1,0,0,0,0,0,3,2,0	71.0	17.0	0.397	0,0,0,1,2,3,0,0,0	to_hand	s491
221.763	0.295	0	PA_without_intermediate	1,0,0,0,0,0,3,2,0	test	ward_and_allport	1,0,0,0,0,0,3,2,0	89.0	17.0	0.295	0,0,0,1,2,3,0,0,0	to_board	s491
222.071	1.0	0	PA_without_intermediate	n/a	test	ward_and_allport	n/a	-1.0	17.0	n/a	n/a	feedback	s491
223.071	1.408	0	PA_without_intermediate	n/a	test	ward_and_allport	n/a	-1.0	17.0	n/a	n/a	ITI	s491
224.495	3.258	1	PA_with_intermediate	1,2,0,0,0,0,0,0,0	test	ward_and_allport	1,0,0,0,0,0,2,3,0	89.0	18.0	3.258	1,2,3,0,0,0,0,0,0	to_hand	s491
227.756	0.404	0	PA_with_intermediate	1,2,0,3,0,0,0,0,0	test	ward_and_allport	1,0,0,0,0,0,2,3,0	71.0	18.0	0.404	1,2,3,0,0,0,0,0,0	to_board	s491
228.171	0.367	0	PA_with_intermediate	1,0,0,3,0,0,0,0,0	test	ward_and_allport	1,0,0,0,0,0,2,3,0	89.0	18.0	0.367	1,2,3,0,0,0,0,0,0	to_hand	s491
228.541	0.427	0	PA_with_intermediate	1,0,0,3,0,0,2,0,0	test	ward_and_allport	1,0,0,0,0,0,2,3,0	82.0	18.0	0.427	1,2,3,0,0,0,0,0,0	to_board	s491
228.981	1.628	0	PA_with_intermediate	1,0,0,0,0,0,2,0,0	test	ward_and_allport	1,0,0,0,0,0,2,3,0	71.0	18.0	1.628	1,2,3,0,0,0,0,0,0	to_hand	s491
230.611	0.233	0	PA_with_intermediate	1,0,0,0,0,0,2,3,0	test	ward_and_allport	1,0,0,0,0,0,2,3,0	82.0	18.0	0.233	1,2,3,0,0,0,0,0,0	to_board	s491
230.861	1.0	0	PA_with_intermediate	n/a	test	ward_and_allport	n/a	-1.0	18.0	n/a	n/a	feedback	s491
231.861	1.136	0	PA_with_intermediate	n/a	test	ward_and_allport	n/a	-1.0	18.0	n/a	n/a	ITI	s491
233.008	4.206	1	PA_without_intermediate	0,0,0,0,0,0,1,2,0	test	ward_and_allport	3,2,0,1,0,0,0,0,0	82.0	19.0	4.206	0,0,0,0,0,0,1,2,3	to_hand	s491
237.216	0.495	0	PA_without_intermediate	3,0,0,0,0,0,1,2,0	test	ward_and_allport	3,2,0,1,0,0,0,0,0	89.0	19.0	0.495	0,0,0,0,0,0,1,2,3	to_board	s491
237.728	1.972	0	PA_without_intermediate	3,0,0,0,0,0,1,0,0	test	ward_and_allport	3,2,0,1,0,0,0,0,0	82.0	19.0	1.972	0,0,0,0,0,0,1,2,3	to_hand	s491
239.702	0.696	0	PA_without_intermediate	3,2,0,0,0,0,1,0,0	test	ward_and_allport	3,2,0,1,0,0,0,0,0	89.0	19.0	0.696	0,0,0,0,0,0,1,2,3	to_board	s491
240.414	0.422	0	PA_without_intermediate	3,2,0,0,0,0,0,0,0	test	ward_and_allport	3,2,0,1,0,0,0,0,0	82.0	19.0	0.422	0,0,0,0,0,0,1,2,3	to_hand	s491
240.838	0.185	0	PA_without_intermediate	3,2,0,1,0,0,0,0,0	test	ward_and_allport	3,2,0,1,0,0,0,0,0	71.0	19.0	0.185	0,0,0,0,0,0,1,2,3	to_board	s491
241.038	1.0	0	PA_without_intermediate	n/a	test	ward_and_allport	n/a	-1.0	19.0	n/a	n/a	feedback	s491
242.038	4.128	0	PA_without_intermediate	n/a	test	ward_and_allport	n/a	-1.0	19.0	n/a	n/a	ITI	s491
246.181	4.783	1	PA_without_intermediate	0,0,0,0,0,0,1,2,0	test	ward_and_allport	2,0,0,3,1,0,0,0,0	82.0	20.0	4.783	0,0,0,0,0,0,1,2,3	to_hand	s491
250.966	0.559	0	PA_without_intermediate	0,0,0,3,0,0,1,2,0	test	ward_and_allport	2,0,0,3,1,0,0,0,0	71.0	20.0	0.559	0,0,0,0,0,0,1,2,3	to_board	s491
251.542	1.256	0	PA_without_intermediate	0,0,0,3,0,0,1,0,0	test	ward_and_allport	2,0,0,3,1,0,0,0,0	82.0	20.0	1.256	0,0,0,0,0,0,1,2,3	to_hand	s491
252.8	0.358	0	PA_without_intermediate	2,0,0,3,0,0,1,0,0	test	ward_and_allport	2,0,0,3,1,0,0,0,0	89.0	20.0	0.358	0,0,0,0,0,0,1,2,3	to_board	s491
253.176	0.561	0	PA_without_intermediate	2,0,0,3,0,0,0,0,0	test	ward_and_allport	2,0,0,3,1,0,0,0,0	82.0	20.0	0.561	0,0,0,0,0,0,1,2,3	to_hand	s491
253.739	0.253	0	PA_without_intermediate	2,0,0,3,1,0,0,0,0	test	ward_and_allport	2,0,0,3,1,0,0,0,0	71.0	20.0	0.253	0,0,0,0,0,0,1,2,3	to_board	s491
254.008	1.0	0	PA_without_intermediate	n/a	test	ward_and_allport	n/a	-1.0	20.0	n/a	n/a	feedback	s491
255.008	1.136	0	PA_without_intermediate	n/a	test	ward_and_allport	n/a	-1.0	20.0	n/a	n/a	ITI	s491
256.161	3.146	1	PA_without_intermediate	0,0,0,0,0,0,1,2,0	test	ward_and_allport	3,2,0,1,0,0,0,0,0	82.0	21.0	3.146	0,0,0,0,0,0,1,2,3	to_hand	s491
259.309	0.478	0	PA_without_intermediate	3,0,0,0,0,0,1,2,0	test	ward_and_allport	3,2,0,1,0,0,0,0,0	89.0	21.0	0.478	0,0,0,0,0,0,1,2,3	to_board	s491
259.803	0.39	0	PA_without_intermediate	3,0,0,0,0,0,1,0,0	test	ward_and_allport	3,2,0,1,0,0,0,0,0	82.0	21.0	0.39	0,0,0,0,0,0,1,2,3	to_hand	s491
260.195	0.363	0	PA_without_intermediate	3,2,0,0,0,0,1,0,0	test	ward_and_allport	3,2,0,1,0,0,0,0,0	89.0	21.0	0.363	0,0,0,0,0,0,1,2,3	to_board	s491
260.572	0.654	0	PA_without_intermediate	3,2,0,0,0,0,0,0,0	test	ward_and_allport	3,2,0,1,0,0,0,0,0	82.0	21.0	0.654	0,0,0,0,0,0,1,2,3	to_hand	s491
261.228	0.179	0	PA_without_intermediate	3,2,0,1,0,0,0,0,0	test	ward_and_allport	3,2,0,1,0,0,0,0,0	71.0	21.0	0.179	0,0,0,0,0,0,1,2,3	to_board	s491
261.425	1.0	0	PA_without_intermediate	n/a	test	ward_and_allport	n/a	-1.0	21.0	n/a	n/a	feedback	s491
262.425	4.264	0	PA_without_intermediate	n/a	test	ward_and_allport	n/a	-1.0	21.0	n/a	n/a	ITI	s491
266.703	3.354	1	PA_with_intermediate	1,2,0,0,0,0,0,0,0	test	ward_and_allport	1,3,0,2,0,0,0,0,0	89.0	22.0	3.354	1,2,3,0,0,0,0,0,0	to_hand	s491
270.059	0.502	0	PA_with_intermediate	1,2,0,0,0,0,3,0,0	test	ward_and_allport	1,3,0,2,0,0,0,0,0	82.0	22.0	0.502	1,2,3,0,0,0,0,0,0	to_board	s491
270.58	0.392	0	PA_with_intermediate	1,0,0,0,0,0,3,0,0	test	ward_and_allport	1,3,0,2,0,0,0,0,0	89.0	22.0	0.392	1,2,3,0,0,0,0,0,0	to_hand	s491
270.973	0.602	0	PA_with_intermediate	1,0,0,2,0,0,3,0,0	test	ward_and_allport	1,3,0,2,0,0,0,0,0	71.0	22.0	0.602	1,2,3,0,0,0,0,0,0	to_board	s491
271.593	0.445	0	PA_with_intermediate	1,0,0,2,0,0,0,0,0	test	ward_and_allport	1,3,0,2,0,0,0,0,0	82.0	22.0	0.445	1,2,3,0,0,0,0,0,0	to_hand	s491
272.04	0.344	0	PA_with_intermediate	1,3,0,2,0,0,0,0,0	test	ward_and_allport	1,3,0,2,0,0,0,0,0	89.0	22.0	0.344	1,2,3,0,0,0,0,0,0	to_board	s491
272.4	1.0	0	PA_with_intermediate	n/a	test	ward_and_allport	n/a	-1.0	22.0	n/a	n/a	feedback	s491
273.4	3.04	0	PA_with_intermediate	n/a	test	ward_and_allport	n/a	-1.0	22.0	n/a	n/a	ITI	s491
276.458	4.698	1	PA_with_intermediate	0,0,0,1,2,0,0,0,0	test	ward_and_allport	2,3,0,1,0,0,0,0,0	71.0	23.0	4.698	0,0,0,1,2,3,0,0,0	to_hand	s491
281.158	0.564	0	PA_with_intermediate	0,0,0,1,2,0,3,0,0	test	ward_and_allport	2,3,0,1,0,0,0,0,0	82.0	23.0	0.564	0,0,0,1,2,3,0,0,0	to_board	s491
281.741	0.462	0	PA_with_intermediate	0,0,0,1,0,0,3,0,0	test	ward_and_allport	2,3,0,1,0,0,0,0,0	71.0	23.0	0.462	0,0,0,1,2,3,0,0,0	to_hand	s491
282.205	0.336	0	PA_with_intermediate	2,0,0,1,0,0,3,0,0	test	ward_and_allport	2,3,0,1,0,0,0,0,0	89.0	23.0	0.336	0,0,0,1,2,3,0,0,0	to_board	s491
282.557	0.496	0	PA_with_intermediate	2,0,0,1,0,0,0,0,0	test	ward_and_allport	2,3,0,1,0,0,0,0,0	82.0	23.0	0.496	0,0,0,1,2,3,0,0,0	to_hand	s491
283.055	0.312	0	PA_with_intermediate	2,3,0,1,0,0,0,0,0	test	ward_and_allport	2,3,0,1,0,0,0,0,0	89.0	23.0	0.312	0,0,0,1,2,3,0,0,0	to_board	s491
283.384	1.0	0	PA_with_intermediate	n/a	test	ward_and_allport	n/a	-1.0	23.0	n/a	n/a	feedback	s491
284.384	1.136	0	PA_with_intermediate	n/a	test	ward_and_allport	n/a	-1.0	23.0	n/a	n/a	ITI	s491
285.535	3.759	1	PA_with_intermediate	0,0,0,0,0,0,1,2,0	test	ward_and_allport	2,0,0,0,0,0,1,3,0	82.0	24.0	3.759	0,0,0,0,0,0,1,2,3	to_hand	s491
289.296	0.974	0	PA_with_intermediate	0,0,0,3,0,0,1,2,0	test	ward_and_allport	2,0,0,0,0,0,1,3,0	71.0	24.0	0.974	0,0,0,0,0,0,1,2,3	to_board	s491
290.288	0.38	0	PA_with_intermediate	0,0,0,3,0,0,1,0,0	test	ward_and_allport	2,0,0,0,0,0,1,3,0	82.0	24.0	0.38	0,0,0,0,0,0,1,2,3	to_hand	s491
290.671	0.583	0	PA_with_intermediate	2,0,0,3,0,0,1,0,0	test	ward_and_allport	2,0,0,0,0,0,1,3,0	89.0	24.0	0.583	0,0,0,0,0,0,1,2,3	to_board	s491
291.269	0.327	0	PA_with_intermediate	2,0,0,0,0,0,1,0,0	test	ward_and_allport	2,0,0,0,0,0,1,3,0	71.0	24.0	0.327	0,0,0,0,0,0,1,2,3	to_hand	s491
291.598	0.465	0	PA_with_intermediate	2,0,0,0,0,0,1,3,0	test	ward_and_allport	2,0,0,0,0,0,1,3,0	82.0	24.0	0.465	0,0,0,0,0,0,1,2,3	to_board	s491
292.082	1.0	0	PA_with_intermediate	n/a	test	ward_and_allport	n/a	-1.0	24.0	n/a	n/a	feedback	s491
293.082	1.408	0	PA_with_intermediate	n/a	test	ward_and_allport	n/a	-1.0	24.0	n/a	n/a	ITI	s491
294.51	2.826	1	PA_without_intermediate	0,0,0,1,2,0,0,0,0	test	ward_and_allport	3,2,0,0,0,0,1,0,0	71.0	25.0	2.826	0,0,0,1,2,3,0,0,0	to_hand	s491
297.338	0.386	0	PA_without_intermediate	3,0,0,1,2,0,0,0,0	test	ward_and_allport	3,2,0,0,0,0,1,0,0	89.0	25.0	0.386	0,0,0,1,2,3,0,0,0	to_board	s491
297.741	0.615	0	PA_without_intermediate	3,0,0,1,0,0,0,0,0	test	ward_and_allport	3,2,0,0,0,0,1,0,0	71.0	25.0	0.615	0,0,0,1,2,3,0,0,0	to_hand	s491
298.359	0.581	0	PA_without_intermediate	3,2,0,1,0,0,0,0,0	test	ward_and_allport	3,2,0,0,0,0,1,0,0	89.0	25.0	0.581	0,0,0,1,2,3,0,0,0	to_board	s491
298.959	0.328	0	PA_without_intermediate	3,2,0,0,0,0,0,0,0	test	ward_and_allport	3,2,0,0,0,0,1,0,0	71.0	25.0	0.328	0,0,0,1,2,3,0,0,0	to_hand	s491
299.29	0.233	0	PA_without_intermediate	3,2,0,0,0,0,1,0,0	test	ward_and_allport	3,2,0,0,0,0,1,0,0	82.0	25.0	0.233	0,0,0,1,2,3,0,0,0	to_board	s491
299.544	1.0	0	PA_without_intermediate	n/a	test	ward_and_allport	n/a	-1.0	25.0	n/a	n/a	feedback	s491
300.544	1.68	0	PA_without_intermediate	n/a	test	ward_and_allport	n/a	-1.0	25.0	n/a	n/a	ITI	s491
302.242	3.19	1	PA_with_intermediate	0,0,0,0,0,0,1,2,0	test	ward_and_allport	0,0,0,2,0,0,1,3,0	82.0	26.0	3.19	0,0,0,0,0,0,1,2,3	to_hand	s491
305.434	2.152	0	PA_with_intermediate	3,0,0,0,0,0,1,2,0	test	ward_and_allport	0,0,0,2,0,0,1,3,0	89.0	26.0	2.152	0,0,0,0,0,0,1,2,3	to_board	s491
307.604	0.415	0	PA_with_intermediate	3,0,0,0,0,0,1,0,0	test	ward_and_allport	0,0,0,2,0,0,1,3,0	82.0	26.0	0.415	0,0,0,0,0,0,1,2,3	to_hand	s491
308.022	0.329	0	PA_with_intermediate	3,0,0,2,0,0,1,0,0	test	ward_and_allport	0,0,0,2,0,0,1,3,0	71.0	26.0	0.329	0,0,0,0,0,0,1,2,3	to_board	s491
308.37	0.568	0	PA_with_intermediate	0,0,0,2,0,0,1,0,0	test	ward_and_allport	0,0,0,2,0,0,1,3,0	89.0	26.0	0.568	0,0,0,0,0,0,1,2,3	to_hand	s491
308.94	0.275	0	PA_with_intermediate	0,0,0,2,0,0,1,3,0	test	ward_and_allport	0,0,0,2,0,0,1,3,0	82.0	26.0	0.275	0,0,0,0,0,0,1,2,3	to_board	s491
309.233	1.0	0	PA_with_intermediate	n/a	test	ward_and_allport	n/a	-1.0	26.0	n/a	n/a	feedback	s491
310.233	3.72	0	PA_with_intermediate	n/a	test	ward_and_allport	n/a	-1.0	26.0	n/a	n/a	ITI	s491
313.974	2.642	1	PA_without_intermediate	0,0,0,1,2,0,0,0,0	test	ward_and_allport	2,0,0,0,0,0,3,1,0	71.0	27.0	2.642	0,0,0,1,2,3,0,0,0	to_hand	s491
316.62	0.71	0	PA_without_intermediate	0,0,0,1,2,0,3,0,0	test	ward_and_allport	2,0,0,0,0,0,3,1,0	82.0	27.0	0.71	0,0,0,1,2,3,0,0,0	to_board	s491
317.347	0.407	0	PA_without_intermediate	0,0,0,1,0,0,3,0,0	test	ward_and_allport	2,0,0,0,0,0,3,1,0	71.0	27.0	0.407	0,0,0,1,2,3,0,0,0	to_hand	s491
317.756	0.323	0	PA_without_intermediate	2,0,0,1,0,0,3,0,0	test	ward_and_allport	2,0,0,0,0,0,3,1,0	89.0	27.0	0.323	0,0,0,1,2,3,0,0,0	to_board	s491
318.095	0.398	0	PA_without_intermediate	2,0,0,0,0,0,3,0,0	test	ward_and_allport	2,0,0,0,0,0,3,1,0	71.0	27.0	0.398	0,0,0,1,2,3,0,0,0	to_hand	s491
318.497	0.313	0	PA_without_intermediate	2,0,0,0,0,0,3,1,0	test	ward_and_allport	2,0,0,0,0,0,3,1,0	82.0	27.0	0.313	0,0,0,1,2,3,0,0,0	to_board	s491
318.83	1.0	0	PA_without_intermediate	n/a	test	ward_and_allport	n/a	-1.0	27.0	n/a	n/a	feedback	s491
319.83	2.224	0	PA_without_intermediate	n/a	test	ward_and_allport	n/a	-1.0	27.0	n/a	n/a	ITI	s491
322.076	2.663	1	PA_without_intermediate	0,0,0,0,0,0,1,2,0	test	ward_and_allport	3,1,0,2,0,0,0,0,0	82.0	28.0	2.663	0,0,0,0,0,0,1,2,3	to_hand	s491
324.741	0.369	0	PA_without_intermediate	3,0,0,0,0,0,1,2,0	test	ward_and_allport	3,1,0,2,0,0,0,0,0	89.0	28.0	0.369	0,0,0,0,0,0,1,2,3	to_board	s491
325.132	4.36	0	PA_without_intermediate	3,0,0,0,0,0,1,0,0	test	ward_and_allport	3,1,0,2,0,0,0,0,0	82.0	28.0	4.36	0,0,0,0,0,0,1,2,3	to_hand	s491
329.494	0.361	0	PA_without_intermediate	3,0,0,2,0,0,1,0,0	test	ward_and_allport	3,1,0,2,0,0,0,0,0	71.0	28.0	0.361	0,0,0,0,0,0,1,2,3	to_board	s491
329.879	0.483	0	PA_without_intermediate	3,0,0,2,0,0,0,0,0	test	ward_and_allport	3,1,0,2,0,0,0,0,0	82.0	28.0	0.483	0,0,0,0,0,0,1,2,3	to_hand	s491
330.365	0.289	0	PA_without_intermediate	3,1,0,2,0,0,0,0,0	test	ward_and_allport	3,1,0,2,0,0,0,0,0	89.0	28.0	0.289	0,0,0,0,0,0,1,2,3	to_board	s491
330.677	1.0	0	PA_without_intermediate	n/a	test	ward_and_allport	n/a	-1.0	28.0	n/a	n/a	feedback	s491
331.677	1.272	0	PA_without_intermediate	n/a	test	ward_and_allport	n/a	-1.0	28.0	n/a	n/a	ITI	s491
332.97	2.836	1	PA_with_intermediate	0,0,0,1,2,0,0,0,0	test	ward_and_allport	0,0,0,1,0,0,2,3,0	71.0	29.0	2.836	0,0,0,1,2,3,0,0,0	to_hand	s491
335.808	0.892	0	PA_with_intermediate	3,0,0,1,2,0,0,0,0	test	ward_and_allport	0,0,0,1,0,0,2,3,0	89.0	29.0	0.892	0,0,0,1,2,3,0,0,0	to_board	s491
336.724	0.422	0	PA_with_intermediate	3,0,0,1,0,0,0,0,0	test	ward_and_allport	0,0,0,1,0,0,2,3,0	71.0	29.0	0.422	0,0,0,1,2,3,0,0,0	to_hand	s491
337.148	0.401	0	PA_with_intermediate	3,0,0,1,0,0,2,0,0	test	ward_and_allport	0,0,0,1,0,0,2,3,0	82.0	29.0	0.401	0,0,0,1,2,3,0,0,0	to_board	s491
337.573	0.999	0	PA_with_intermediate	0,0,0,1,0,0,2,0,0	test	ward_and_allport	0,0,0,1,0,0,2,3,0	89.0	29.0	0.999	0,0,0,1,2,3,0,0,0	to_hand	s491
338.575	0.209	0	PA_with_intermediate	0,0,0,1,0,0,2,3,0	test	ward_and_allport	0,0,0,1,0,0,2,3,0	82.0	29.0	0.209	0,0,0,1,2,3,0,0,0	to_board	s491
338.802	1.0	0	PA_with_intermediate	n/a	test	ward_and_allport	n/a	-1.0	29.0	n/a	n/a	feedback	s491
339.802	2.632	0	PA_with_intermediate	n/a	test	ward_and_allport	n/a	-1.0	29.0	n/a	n/a	ITI	s491
347.458	3.204	1	PA_without_intermediate	1,2,0,0,0,0,0,0,0	test	ward_and_allport	0,0,0,3,1,0,2,0,0	89.0	30.0	3.204	1,2,3,0,0,0,0,0,0	to_hand	s491
350.664	0.696	0	PA_without_intermediate	1,2,0,3,0,0,0,0,0	test	ward_and_allport	0,0,0,3,1,0,2,0,0	71.0	30.0	0.696	1,2,3,0,0,0,0,0,0	to_board	s491
351.385	0.362	0	PA_without_intermediate	1,0,0,3,0,0,0,0,0	test	ward_and_allport	0,0,0,3,1,0,2,0,0	89.0	30.0	0.362	1,2,3,0,0,0,0,0,0	to_hand	s491
351.749	0.367	0	PA_without_intermediate	1,0,0,3,0,0,2,0,0	test	ward_and_allport	0,0,0,3,1,0,2,0,0	82.0	30.0	0.367	1,2,3,0,0,0,0,0,0	to_board	s491
352.137	0.654	0	PA_without_intermediate	0,0,0,3,0,0,2,0,0	test	ward_and_allport	0,0,0,3,1,0,2,0,0	89.0	30.0	0.654	1,2,3,0,0,0,0,0,0	to_hand	s491
352.793	0.238	0	PA_without_intermediate	0,0,0,3,1,0,2,0,0	test	ward_and_allport	0,0,0,3,1,0,2,0,0	71.0	30.0	0.238	1,2,3,0,0,0,0,0,0	to_board	s491
353.051	1.0	0	PA_without_intermediate	n/a	test	ward_and_allport	n/a	-1.0	30.0	n/a	n/a	feedback	s491
354.051	1.408	0	PA_without_intermediate	n/a	test	ward_and_allport	n/a	-1.0	30.0	n/a	n/a	ITI	s491
355.475	3.823	1	PA_without_intermediate	0,0,0,0,0,0,1,2,0	test	ward_and_allport	2,0,0,3,1,0,0,0,0	82.0	31.0	3.823	0,0,0,0,0,0,1,2,3	to_hand	s491
359.3	0.37	0	PA_without_intermediate	0,0,0,3,0,0,1,2,0	test	ward_and_allport	2,0,0,3,1,0,0,0,0	71.0	31.0	0.37	0,0,0,0,0,0,1,2,3	to_board	s491
359.69	0.814	0	PA_without_intermediate	0,0,0,3,0,0,1,0,0	test	ward_and_allport	2,0,0,3,1,0,0,0,0	82.0	31.0	0.814	0,0,0,0,0,0,1,2,3	to_hand	s491
360.506	0.242	0	PA_without_intermediate	2,0,0,3,0,0,1,0,0	test	ward_and_allport	2,0,0,3,1,0,0,0,0	89.0	31.0	0.242	0,0,0,0,0,0,1,2,3	to_board	s491
360.769	0.41	0	PA_without_intermediate	2,0,0,3,0,0,0,0,0	test	ward_and_allport	2,0,0,3,1,0,0,0,0	82.0	31.0	0.41	0,0,0,0,0,0,1,2,3	to_hand	s491
361.181	0.275	0	PA_without_intermediate	2,0,0,3,1,0,0,0,0	test	ward_and_allport	2,0,0,3,1,0,0,0,0	71.0	31.0	0.275	0,0,0,0,0,0,1,2,3	to_board	s491
361.477	1.0	0	PA_without_intermediate	n/a	test	ward_and_allport	n/a	-1.0	31.0	n/a	n/a	feedback	s491
362.477	1.0	0	PA_without_intermediate	n/a	test	ward_and_allport	n/a	-1.0	31.0	n/a	n/a	ITI	s491
363.495	4.196	1	PA_with_intermediate	0,0,0,1,2,0,0,0,0	test	ward_and_allport	2,3,0,1,0,0,0,0,0	71.0	32.0	4.196	0,0,0,1,2,3,0,0,0	to_hand	s491
367.694	0.895	0	PA_with_intermediate	0,0,0,1,2,0,3,0,0	test	ward_and_allport	2,3,0,1,0,0,0,0,0	82.0	32.0	0.895	0,0,0,1,2,3,0,0,0	to_board	s491
368.612	0.52	0	PA_with_intermediate	0,0,0,1,0,0,3,0,0	test	ward_and_allport	2,3,0,1,0,0,0,0,0	71.0	32.0	0.52	0,0,0,1,2,3,0,0,0	to_hand	s491
369.135	0.41	0	PA_with_intermediate	2,0,0,1,0,0,3,0,0	test	ward_and_allport	2,3,0,1,0,0,0,0,0	89.0	32.0	0.41	0,0,0,1,2,3,0,0,0	to_board	s491
369.567	1.029	0	PA_with_intermediate	2,0,0,1,0,0,0,0,0	test	ward_and_allport	2,3,0,1,0,0,0,0,0	82.0	32.0	1.029	0,0,0,1,2,3,0,0,0	to_hand	s491
370.598	0.276	0	PA_with_intermediate	2,3,0,1,0,0,0,0,0	test	ward_and_allport	2,3,0,1,0,0,0,0,0	89.0	32.0	0.276	0,0,0,1,2,3,0,0,0	to_board	s491
370.904	1.0	0	PA_with_intermediate	n/a	test	ward_and_allport	n/a	-1.0	32.0	n/a	n/a	feedback	s491
371.904	1.0	0	PA_with_intermediate	n/a	test	ward_and_allport	n/a	-1.0	32.0	n/a	n/a	ITI	s491
372.926	3.755	1	PA_with_intermediate	0,0,0,1,2,0,0,0,0	test	ward_and_allport	2,0,0,1,3,0,0,0,0	71.0	33.0	3.755	0,0,0,1,2,3,0,0,0	to_hand	s491
376.683	0.345	0	PA_with_intermediate	0,0,0,1,2,0,3,0,0	test	ward_and_allport	2,0,0,1,3,0,0,0,0	82.0	33.0	0.345	0,0,0,1,2,3,0,0,0	to_board	s491
377.053	0.272	0	PA_with_intermediate	0,0,0,1,0,0,3,0,0	test	ward_and_allport	2,0,0,1,3,0,0,0,0	71.0	33.0	0.272	0,0,0,1,2,3,0,0,0	to_hand	s491
377.327	0.312	0	PA_with_intermediate	2,0,0,1,0,0,3,0,0	test	ward_and_allport	2,0,0,1,3,0,0,0,0	89.0	33.0	0.312	0,0,0,1,2,3,0,0,0	to_board	s491
377.662	2.385	0	PA_with_intermediate	2,0,0,1,0,0,0,0,0	test	ward_and_allport	2,0,0,1,3,0,0,0,0	82.0	33.0	2.385	0,0,0,1,2,3,0,0,0	to_hand	s491
380.05	0.246	0	PA_with_intermediate	2,0,0,1,3,0,0,0,0	test	ward_and_allport	2,0,0,1,3,0,0,0,0	71.0	33.0	0.246	0,0,0,1,2,3,0,0,0	to_board	s491
380.32	1.0	0	PA_with_intermediate	n/a	test	ward_and_allport	n/a	-1.0	33.0	n/a	n/a	feedback	s491
381.32	1.0	0	PA_with_intermediate	n/a	test	ward_and_allport	n/a	-1.0	33.0	n/a	n/a	ITI	s491
382.342	4.687	1	PA_with_intermediate	0,0,0,0,0,0,1,2,0	test	ward_and_allport	2,3,0,0,0,0,1,0,0	82.0	34.0	4.687	0,0,0,0,0,0,1,2,3	to_hand	s491
387.032	0.319	0	PA_with_intermediate	0,0,0,3,0,0,1,2,0	test	ward_and_allport	2,3,0,0,0,0,1,0,0	71.0	34.0	0.319	0,0,0,0,0,0,1,2,3	to_board	s491
387.374	0.307	0	PA_with_intermediate	0,0,0,3,0,0,1,0,0	test	ward_and_allport	2,3,0,0,0,0,1,0,0	82.0	34.0	0.307	0,0,0,0,0,0,1,2,3	to_hand	s491
387.683	0.345	0	PA_with_intermediate	2,0,0,3,0,0,1,0,0	test	ward_and_allport	2,3,0,0,0,0,1,0,0	89.0	34.0	0.345	0,0,0,0,0,0,1,2,3	to_board	s491
388.05	0.381	0	PA_with_intermediate	2,0,0,0,0,0,1,0,0	test	ward_and_allport	2,3,0,0,0,0,1,0,0	71.0	34.0	0.381	0,0,0,0,0,0,1,2,3	to_hand	s491
388.434	0.265	0	PA_with_intermediate	2,3,0,0,0,0,1,0,0	test	ward_and_allport	2,3,0,0,0,0,1,0,0	89.0	34.0	0.265	0,0,0,0,0,0,1,2,3	to_board	s491
388.724	1.0	0	PA_with_intermediate	n/a	test	ward_and_allport	n/a	-1.0	34.0	n/a	n/a	feedback	s491
389.724	1.408	0	PA_with_intermediate	n/a	test	ward_and_allport	n/a	-1.0	34.0	n/a	n/a	ITI	s491
391.151	3.679	1	PA_without_intermediate	0,0,0,1,2,0,0,0,0	test	ward_and_allport	3,1,0,0,0,0,2,0,0	71.0	35.0	3.679	0,0,0,1,2,3,0,0,0	to_hand	s491
394.832	0.461	0	PA_without_intermediate	3,0,0,1,2,0,0,0,0	test	ward_and_allport	3,1,0,0,0,0,2,0,0	89.0	35.0	0.461	0,0,0,1,2,3,0,0,0	to_board	s491
395.313	0.353	0	PA_without_intermediate	3,0,0,1,0,0,0,0,0	test	ward_and_allport	3,1,0,0,0,0,2,0,0	71.0	35.0	0.353	0,0,0,1,2,3,0,0,0	to_hand	s491
395.668	0.522	0	PA_without_intermediate	3,0,0,1,0,0,2,0,0	test	ward_and_allport	3,1,0,0,0,0,2,0,0	82.0	35.0	0.522	0,0,0,1,2,3,0,0,0	to_board	s491
396.213	0.253	0	PA_without_intermediate	3,0,0,0,0,0,2,0,0	test	ward_and_allport	3,1,0,0,0,0,2,0,0	71.0	35.0	0.253	0,0,0,1,2,3,0,0,0	to_hand	s491
396.47	0.256	0	PA_without_intermediate	3,1,0,0,0,0,2,0,0	test	ward_and_allport	3,1,0,0,0,0,2,0,0	89.0	35.0	0.256	0,0,0,1,2,3,0,0,0	to_board	s491
396.748	1.0	0	PA_without_intermediate	n/a	test	ward_and_allport	n/a	-1.0	35.0	n/a	n/a	feedback	s491
397.748	1.816	0	PA_without_intermediate	n/a	test	ward_and_allport	n/a	-1.0	35.0	n/a	n/a	ITI	s491
399.586	5.047	1	PA_with_intermediate	1,2,0,0,0,0,0,0,0	test	ward_and_allport	1,0,0,2,3,0,0,0,0	89.0	36.0	5.047	1,2,3,0,0,0,0,0,0	to_hand	s491
404.635	0.405	0	PA_with_intermediate	1,2,0,0,0,0,3,0,0	test	ward_and_allport	1,0,0,2,3,0,0,0,0	82.0	36.0	0.405	1,2,3,0,0,0,0,0,0	to_board	s491
405.064	0.937	0	PA_with_intermediate	1,0,0,0,0,0,3,0,0	test	ward_and_allport	1,0,0,2,3,0,0,0,0	89.0	36.0	0.937	1,2,3,0,0,0,0,0,0	to_hand	s491
406.004	0.381	0	PA_with_intermediate	1,0,0,2,0,0,3,0,0	test	ward_and_allport	1,0,0,2,3,0,0,0,0	71.0	36.0	0.381	1,2,3,0,0,0,0,0,0	to_board	s491
406.409	0.453	0	PA_with_intermediate	1,0,0,2,0,0,0,0,0	test	ward_and_allport	1,0,0,2,3,0,0,0,0	82.0	36.0	0.453	1,2,3,0,0,0,0,0,0	to_hand	s491
406.865	0.292	0	PA_with_intermediate	1,0,0,2,3,0,0,0,0	test	ward_and_allport	1,0,0,2,3,0,0,0,0	71.0	36.0	0.292	1,2,3,0,0,0,0,0,0	to_board	s491
407.18	1.0	0	PA_with_intermediate	n/a	test	ward_and_allport	n/a	-1.0	36.0	n/a	n/a	feedback	s491
408.18	3.176	0	PA_with_intermediate	n/a	test	ward_and_allport	n/a	-1.0	36.0	n/a	n/a	ITI	s491
411.38	3.852	1	PA_with_intermediate	0,0,0,1,2,0,0,0,0	test	ward_and_allport	2,0,0,1,3,0,0,0,0	71.0	37.0	3.852	0,0,0,1,2,3,0,0,0	to_hand	s491
415.234	0.563	0	PA_with_intermediate	0,0,0,1,2,0,3,0,0	test	ward_and_allport	2,0,0,1,3,0,0,0,0	82.0	37.0	0.563	0,0,0,1,2,3,0,0,0	to_board	s491
415.82	0.322	0	PA_with_intermediate	0,0,0,1,0,0,3,0,0	test	ward_and_allport	2,0,0,1,3,0,0,0,0	71.0	37.0	0.322	0,0,0,1,2,3,0,0,0	to_hand	s491
416.144	0.406	0	PA_with_intermediate	2,0,0,1,0,0,3,0,0	test	ward_and_allport	2,0,0,1,3,0,0,0,0	89.0	37.0	0.406	0,0,0,1,2,3,0,0,0	to_board	s491
416.577	0.34	0	PA_with_intermediate	2,0,0,1,0,0,0,0,0	test	ward_and_allport	2,0,0,1,3,0,0,0,0	82.0	37.0	0.34	0,0,0,1,2,3,0,0,0	to_hand	s491
416.92	0.192	0	PA_with_intermediate	2,0,0,1,3,0,0,0,0	test	ward_and_allport	2,0,0,1,3,0,0,0,0	71.0	37.0	0.192	0,0,0,1,2,3,0,0,0	to_board	s491
417.133	1.0	0	PA_with_intermediate	n/a	test	ward_and_allport	n/a	-1.0	37.0	n/a	n/a	feedback	s491
418.133	2.36	0	PA_with_intermediate	n/a	test	ward_and_allport	n/a	-1.0	37.0	n/a	n/a	ITI	s491
420.521	2.925	1	PA_with_intermediate	0,0,0,0,0,0,1,2,0	test	ward_and_allport	2,3,0,0,0,0,1,0,0	82.0	38.0	2.925	0,0,0,0,0,0,1,2,3	to_hand	s491
423.448	0.374	0	PA_with_intermediate	0,0,0,3,0,0,1,2,0	test	ward_and_allport	2,3,0,0,0,0,1,0,0	71.0	38.0	0.374	0,0,0,0,0,0,1,2,3	to_board	s491
423.838	0.861	0	PA_with_intermediate	0,0,0,3,0,0,1,0,0	test	ward_and_allport	2,3,0,0,0,0,1,0,0	82.0	38.0	0.861	0,0,0,0,0,0,1,2,3	to_hand	s491
424.701	0.373	0	PA_with_intermediate	2,0,0,3,0,0,1,0,0	test	ward_and_allport	2,3,0,0,0,0,1,0,0	89.0	38.0	0.373	0,0,0,0,0,0,1,2,3	to_board	s491
425.101	0.325	0	PA_with_intermediate	2,0,0,0,0,0,1,0,0	test	ward_and_allport	2,3,0,0,0,0,1,0,0	71.0	38.0	0.325	0,0,0,0,0,0,1,2,3	to_hand	s491
425.428	0.241	0	PA_with_intermediate	2,3,0,0,0,0,1,0,0	test	ward_and_allport	2,3,0,0,0,0,1,0,0	89.0	38.0	0.241	0,0,0,0,0,0,1,2,3	to_board	s491
425.694	1.0	0	PA_with_intermediate	n/a	test	ward_and_allport	n/a	-1.0	38.0	n/a	n/a	feedback	s491
426.694	1.0	0	PA_with_intermediate	n/a	test	ward_and_allport	n/a	-1.0	38.0	n/a	n/a	ITI	s491
427.713	3.522	1	PA_without_intermediate	0,0,0,1,2,0,0,0,0	test	ward_and_allport	1,0,0,0,0,0,3,2,0	71.0	39.0	3.522	0,0,0,1,2,3,0,0,0	to_hand	s491
431.237	0.426	0	PA_without_intermediate	0,0,0,1,2,0,3,0,0	test	ward_and_allport	1,0,0,0,0,0,3,2,0	82.0	39.0	0.426	0,0,0,1,2,3,0,0,0	to_board	s491
431.682	1.53	0	PA_without_intermediate	0,0,0,1,0,0,3,0,0	test	ward_and_allport	1,0,0,0,0,0,3,2,0	71.0	39.0	1.53	0,0,0,1,2,3,0,0,0	to_hand	s491
433.214	0.382	0	PA_without_intermediate	0,0,0,1,0,0,3,2,0	test	ward_and_allport	1,0,0,0,0,0,3,2,0	82.0	39.0	0.382	0,0,0,1,2,3,0,0,0	to_board	s491
433.623	0.816	0	PA_without_intermediate	0,0,0,0,0,0,3,2,0	test	ward_and_allport	1,0,0,0,0,0,3,2,0	71.0	39.0	0.816	0,0,0,1,2,3,0,0,0	to_hand	s491
434.44	0.43	0	PA_without_intermediate	1,0,0,0,0,0,3,2,0	test	ward_and_allport	1,0,0,0,0,0,3,2,0	89.0	39.0	0.43	0,0,0,1,2,3,0,0,0	to_board	s491
434.896	1.0	0	PA_without_intermediate	n/a	test	ward_and_allport	n/a	-1.0	39.0	n/a	n/a	feedback	s491
435.896	1.408	0	PA_without_intermediate	n/a	test	ward_and_allport	n/a	-1.0	39.0	n/a	n/a	ITI	s491
437.328	3.081	1	PA_with_intermediate	1,2,0,0,0,0,0,0,0	test	ward_and_allport	1,3,0,0,0,0,2,0,0	89.0	40.0	3.081	1,2,3,0,0,0,0,0,0	to_hand	s491
440.411	0.851	0	PA_with_intermediate	1,2,0,3,0,0,0,0,0	test	ward_and_allport	1,3,0,0,0,0,2,0,0	71.0	40.0	0.851	1,2,3,0,0,0,0,0,0	to_board	s491
441.286	0.338	0	PA_with_intermediate	1,0,0,3,0,0,0,0,0	test	ward_and_allport	1,3,0,0,0,0,2,0,0	89.0	40.0	0.338	1,2,3,0,0,0,0,0,0	to_hand	s491
441.627	0.31	0	PA_with_intermediate	1,0,0,3,0,0,2,0,0	test	ward_and_allport	1,3,0,0,0,0,2,0,0	82.0	40.0	0.31	1,2,3,0,0,0,0,0,0	to_board	s491
441.964	0.349	0	PA_with_intermediate	1,0,0,0,0,0,2,0,0	test	ward_and_allport	1,3,0,0,0,0,2,0,0	71.0	40.0	0.349	1,2,3,0,0,0,0,0,0	to_hand	s491
442.316	0.233	0	PA_with_intermediate	1,3,0,0,0,0,2,0,0	test	ward_and_allport	1,3,0,0,0,0,2,0,0	89.0	40.0	0.233	1,2,3,0,0,0,0,0,0	to_board	s491
442.575	1.0	0	PA_with_intermediate	n/a	test	ward_and_allport	n/a	-1.0	40.0	n/a	n/a	feedback	s491
443.575	1.816	0	PA_with_intermediate	n/a	test	ward_and_allport	n/a	-1.0	40.0	n/a	n/a	ITI	s491
445.408	2.636	1	PA_without_intermediate	1,2,0,0,0,0,0,0,0	test	ward_and_allport	0,0,0,2,0,0,3,1,0	89.0	41.0	2.636	1,2,3,0,0,0,0,0,0	to_hand	s491
448.047	0.293	0	PA_without_intermediate	1,2,0,0,0,0,3,0,0	test	ward_and_allport	0,0,0,2,0,0,3,1,0	82.0	41.0	0.293	1,2,3,0,0,0,0,0,0	to_board	s491
448.357	0.734	0	PA_without_intermediate	1,0,0,0,0,0,3,0,0	test	ward_and_allport	0,0,0,2,0,0,3,1,0	89.0	41.0	0.734	1,2,3,0,0,0,0,0,0	to_hand	s491
449.093	0.252	0	PA_without_intermediate	1,0,0,2,0,0,3,0,0	test	ward_and_allport	0,0,0,2,0,0,3,1,0	71.0	41.0	0.252	1,2,3,0,0,0,0,0,0	to_board	s491
449.366	0.393	0	PA_without_intermediate	0,0,0,2,0,0,3,0,0	test	ward_and_allport	0,0,0,2,0,0,3,1,0	89.0	41.0	0.393	1,2,3,0,0,0,0,0,0	to_hand	s491
449.761	0.235	0	PA_without_intermediate	0,0,0,2,0,0,3,1,0	test	ward_and_allport	0,0,0,2,0,0,3,1,0	82.0	41.0	0.235	1,2,3,0,0,0,0,0,0	to_board	s491
450.026	1.0	0	PA_without_intermediate	n/a	test	ward_and_allport	n/a	-1.0	41.0	n/a	n/a	feedback	s491
451.026	2.088	0	PA_without_intermediate	n/a	test	ward_and_allport	n/a	-1.0	41.0	n/a	n/a	ITI	s491
453.141	3.17	1	PA_without_intermediate	0,0,0,0,0,0,1,2,0	test	ward_and_allport	3,1,0,2,0,0,0,0,0	82.0	42.0	3.17	0,0,0,0,0,0,1,2,3	to_hand	s491
456.314	0.35	0	PA_without_intermediate	3,0,0,0,0,0,1,2,0	test	ward_and_allport	3,1,0,2,0,0,0,0,0	89.0	42.0	0.35	0,0,0,0,0,0,1,2,3	to_board	s491
456.686	0.381	0	PA_without_intermediate	3,0,0,0,0,0,1,0,0	test	ward_and_allport	3,1,0,2,0,0,0,0,0	82.0	42.0	0.381	0,0,0,0,0,0,1,2,3	to_hand	s491
457.069	0.288	0	PA_without_intermediate	3,0,0,2,0,0,1,0,0	test	ward_and_allport	3,1,0,2,0,0,0,0,0	71.0	42.0	0.288	0,0,0,0,0,0,1,2,3	to_board	s491
457.38	0.328	0	PA_without_intermediate	3,0,0,2,0,0,0,0,0	test	ward_and_allport	3,1,0,2,0,0,0,0,0	82.0	42.0	0.328	0,0,0,0,0,0,1,2,3	to_hand	s491
457.71	0.312	0	PA_without_intermediate	3,1,0,2,0,0,0,0,0	test	ward_and_allport	3,1,0,2,0,0,0,0,0	89.0	42.0	0.312	0,0,0,0,0,0,1,2,3	to_board	s491
458.044	1.0	0	PA_without_intermediate	n/a	test	ward_and_allport	n/a	-1.0	42.0	n/a	n/a	feedback	s491
459.044	1.136	0	PA_without_intermediate	n/a	test	ward_and_allport	n/a	-1.0	42.0	n/a	n/a	ITI	s491
460.198	2.399	1	PA_without_intermediate	1,2,0,0,0,0,0,0,0	test	ward_and_allport	0,0,0,1,0,0,3,2,0	89.0	43.0	2.399	1,2,3,0,0,0,0,0,0	to_hand	s491
462.599	0.252	0	PA_without_intermediate	1,2,0,0,0,0,3,0,0	test	ward_and_allport	0,0,0,1,0,0,3,2,0	82.0	43.0	0.252	1,2,3,0,0,0,0,0,0	to_board	s491
462.877	0.855	0	PA_without_intermediate	1,0,0,0,0,0,3,0,0	test	ward_and_allport	0,0,0,1,0,0,3,2,0	89.0	43.0	0.855	1,2,3,0,0,0,0,0,0	to_hand	s491
463.734	0.683	0	PA_without_intermediate	1,0,0,0,0,0,3,2,0	test	ward_and_allport	0,0,0,1,0,0,3,2,0	82.0	43.0	0.683	1,2,3,0,0,0,0,0,0	to_board	s491
464.444	0.474	0	PA_without_intermediate	0,0,0,0,0,0,3,2,0	test	ward_and_allport	0,0,0,1,0,0,3,2,0	89.0	43.0	0.474	1,2,3,0,0,0,0,0,0	to_hand	s491
464.92	0.194	0	PA_without_intermediate	0,0,0,1,0,0,3,2,0	test	ward_and_allport	0,0,0,1,0,0,3,2,0	71.0	43.0	0.194	1,2,3,0,0,0,0,0,0	to_board	s491
465.138	1.0	0	PA_without_intermediate	n/a	test	ward_and_allport	n/a	-1.0	43.0	n/a	n/a	feedback	s491
466.138	6.168	0	PA_without_intermediate	n/a	test	ward_and_allport	n/a	-1.0	43.0	n/a	n/a	ITI	s491
472.329	2.404	1	PA_without_intermediate	1,2,0,0,0,0,0,0,0	test	ward_and_allport	0,0,0,2,0,0,3,1,0	89.0	44.0	2.404	1,2,3,0,0,0,0,0,0	to_hand	s491
474.735	0.53	0	PA_without_intermediate	1,2,0,0,0,0,3,0,0	test	ward_and_allport	0,0,0,2,0,0,3,1,0	82.0	44.0	0.53	1,2,3,0,0,0,0,0,0	to_board	s491
475.292	0.337	0	PA_without_intermediate	1,0,0,0,0,0,3,0,0	test	ward_and_allport	0,0,0,2,0,0,3,1,0	89.0	44.0	0.337	1,2,3,0,0,0,0,0,0	to_hand	s491
475.631	0.331	0	PA_without_intermediate	1,0,0,2,0,0,3,0,0	test	ward_and_allport	0,0,0,2,0,0,3,1,0	71.0	44.0	0.331	1,2,3,0,0,0,0,0,0	to_board	s491
475.989	0.298	0	PA_without_intermediate	0,0,0,2,0,0,3,0,0	test	ward_and_allport	0,0,0,2,0,0,3,1,0	89.0	44.0	0.298	1,2,3,0,0,0,0,0,0	to_hand	s491
476.289	0.24	0	PA_without_intermediate	0,0,0,2,0,0,3,1,0	test	ward_and_allport	0,0,0,2,0,0,3,1,0	82.0	44.0	0.24	1,2,3,0,0,0,0,0,0	to_board	s491
476.558	1.0	0	PA_without_intermediate	n/a	test	ward_and_allport	n/a	-1.0	44.0	n/a	n/a	feedback	s491
477.558	1.816	0	PA_without_intermediate	n/a	test	ward_and_allport	n/a	-1.0	44.0	n/a	n/a	ITI	s491
484.401	4.257	1	PA_with_intermediate	0,0,0,0,0,0,1,2,0	test	ward_and_allport	0,0,0,2,3,0,1,0,0	82.0	45.0	4.257	0,0,0,0,0,0,1,2,3	to_hand	s491
488.661	0.67	0	PA_with_intermediate	3,0,0,0,0,0,1,2,0	test	ward_and_allport	0,0,0,2,3,0,1,0,0	89.0	45.0	0.67	0,0,0,0,0,0,1,2,3	to_board	s491
489.358	0.848	0	PA_with_intermediate	3,0,0,0,0,0,1,0,0	test	ward_and_allport	0,0,0,2,3,0,1,0,0	82.0	45.0	0.848	0,0,0,0,0,0,1,2,3	to_hand	s491
490.208	0.393	0	PA_with_intermediate	3,0,0,2,0,0,1,0,0	test	ward_and_allport	0,0,0,2,3,0,1,0,0	71.0	45.0	0.393	0,0,0,0,0,0,1,2,3	to_board	s491
490.63	1.143	0	PA_with_intermediate	0,0,0,2,0,0,1,0,0	test	ward_and_allport	0,0,0,2,3,0,1,0,0	89.0	45.0	1.143	0,0,0,0,0,0,1,2,3	to_hand	s491
491.776	0.237	0	PA_with_intermediate	0,0,0,2,3,0,1,0,0	test	ward_and_allport	0,0,0,2,3,0,1,0,0	71.0	45.0	0.237	0,0,0,0,0,0,1,2,3	to_board	s491
492.042	1.0	0	PA_with_intermediate	n/a	test	ward_and_allport	n/a	-1.0	45.0	n/a	n/a	feedback	s491
493.042	1.952	0	PA_with_intermediate	n/a	test	ward_and_allport	n/a	-1.0	45.0	n/a	n/a	ITI	s491
495.019	5.306	1	PA_with_intermediate	0,0,0,1,2,0,0,0,0	test	ward_and_allport	0,0,0,1,3,0,2,0,0	71.0	46.0	5.306	0,0,0,1,2,3,0,0,0	to_hand	s491
500.327	0.331	0	PA_with_intermediate	3,0,0,1,2,0,0,0,0	test	ward_and_allport	0,0,0,1,3,0,2,0,0	89.0	46.0	0.331	0,0,0,1,2,3,0,0,0	to_board	s491
500.686	0.415	0	PA_with_intermediate	3,0,0,1,0,0,0,0,0	test	ward_and_allport	0,0,0,1,3,0,2,0,0	71.0	46.0	0.415	0,0,0,1,2,3,0,0,0	to_hand	s491
501.103	0.427	0	PA_with_intermediate	3,0,0,1,0,0,2,0,0	test	ward_and_allport	0,0,0,1,3,0,2,0,0	82.0	46.0	0.427	0,0,0,1,2,3,0,0,0	to_board	s491
501.56	0.37	0	PA_with_intermediate	0,0,0,1,0,0,2,0,0	test	ward_and_allport	0,0,0,1,3,0,2,0,0	89.0	46.0	0.37	0,0,0,1,2,3,0,0,0	to_hand	s491
501.932	0.213	0	PA_with_intermediate	0,0,0,1,3,0,2,0,0	test	ward_and_allport	0,0,0,1,3,0,2,0,0	71.0	46.0	0.213	0,0,0,1,2,3,0,0,0	to_board	s491
502.174	1.0	0	PA_with_intermediate	n/a	test	ward_and_allport	n/a	-1.0	46.0	n/a	n/a	feedback	s491
503.174	1.136	0	PA_with_intermediate	n/a	test	ward_and_allport	n/a	-1.0	46.0	n/a	n/a	ITI	s491
504.339	3.294	1	PA_without_intermediate	0,0,0,1,2,0,0,0,0	test	ward_and_allport	3,1,0,0,0,0,2,0,0	71.0	47.0	3.294	0,0,0,1,2,3,0,0,0	to_hand	s491
507.635	0.297	0	PA_without_intermediate	3,0,0,1,2,0,0,0,0	test	ward_and_allport	3,1,0,0,0,0,2,0,0	89.0	47.0	0.297	0,0,0,1,2,3,0,0,0	to_board	s491
507.961	0.598	0	PA_without_intermediate	3,0,0,1,0,0,0,0,0	test	ward_and_allport	3,1,0,0,0,0,2,0,0	71.0	47.0	0.598	0,0,0,1,2,3,0,0,0	to_hand	s491
508.561	0.324	0	PA_without_intermediate	3,0,0,1,0,0,2,0,0	test	ward_and_allport	3,1,0,0,0,0,2,0,0	82.0	47.0	0.324	0,0,0,1,2,3,0,0,0	to_board	s491
508.908	0.489	0	PA_without_intermediate	3,0,0,0,0,0,2,0,0	test	ward_and_allport	3,1,0,0,0,0,2,0,0	71.0	47.0	0.489	0,0,0,1,2,3,0,0,0	to_hand	s491
509.399	0.31	0	PA_without_intermediate	3,1,0,0,0,0,2,0,0	test	ward_and_allport	3,1,0,0,0,0,2,0,0	89.0	47.0	0.31	0,0,0,1,2,3,0,0,0	to_board	s491
509.732	1.0	0	PA_without_intermediate	n/a	test	ward_and_allport	n/a	-1.0	47.0	n/a	n/a	feedback	s491
510.732	1.68	0	PA_without_intermediate	n/a	test	ward_and_allport	n/a	-1.0	47.0	n/a	n/a	ITI	s491
n/a	n/a	0	n/a	n/a	n/a	n/a	n/a	n/a	n/a	n/a	n/a	ITI	n/a
