onset	duration	planning	condition	current_position	exp_stage	experiment_exp_id	goal_state	key_press	problem_id	response_time	start_state	trial_id	worker_id
-58.8	0.0	0	n/a	n/a	n/a	ward_and_allport	n/a	32.0	n/a	18.381	n/a	instructions	s548
3.009	2.921	1	UA_with_intermediate	1,0,0,2,0,0,0,0,0	practice	ward_and_allport	1,2,3,0,0,0,0,0,0	71.0	0.0	2.921	1,0,0,2,3,0,0,0,0	to_hand	s548
5.932	2.547	0	UA_with_intermediate	1,0,0,2,3,0,0,0,0	practice	ward_and_allport	1,2,3,0,0,0,0,0,0	71.0	0.0	2.547	1,0,0,2,3,0,0,0,0	to_board	s548
8.482	0.949	0	UA_with_intermediate	1,0,0,2,0,0,0,0,0	practice	ward_and_allport	1,2,3,0,0,0,0,0,0	71.0	0.0	0.949	1,0,0,2,3,0,0,0,0	to_hand	s548
9.432	1.593	0	UA_with_intermediate	1,0,0,2,0,0,3,0,0	practice	ward_and_allport	1,2,3,0,0,0,0,0,0	82.0	0.0	1.593	1,0,0,2,3,0,0,0,0	to_board	s548
11.026	2.922	0	UA_with_intermediate	1,0,0,0,0,0,3,0,0	practice	ward_and_allport	1,2,3,0,0,0,0,0,0	71.0	0.0	2.922	1,0,0,2,3,0,0,0,0	to_hand	s548
13.949	1.608	0	UA_with_intermediate	1,0,0,0,0,0,3,2,0	practice	ward_and_allport	1,2,3,0,0,0,0,0,0	82.0	0.0	1.608	1,0,0,2,3,0,0,0,0	to_board	s548
15.558	0.594	0	UA_with_intermediate	0,0,0,0,0,0,3,2,0	practice	ward_and_allport	1,2,3,0,0,0,0,0,0	89.0	0.0	0.594	1,0,0,2,3,0,0,0,0	to_hand	s548
16.153	1.011	0	UA_with_intermediate	0,0,0,1,0,0,3,2,0	practice	ward_and_allport	1,2,3,0,0,0,0,0,0	71.0	0.0	1.011	1,0,0,2,3,0,0,0,0	to_board	s548
17.165	3.538	0	UA_with_intermediate	0,0,0,1,0,0,3,0,0	practice	ward_and_allport	1,2,3,0,0,0,0,0,0	82.0	0.0	3.538	1,0,0,2,3,0,0,0,0	to_hand	s548
20.705	1.003	0	UA_with_intermediate	0,0,0,1,2,0,3,0,0	practice	ward_and_allport	1,2,3,0,0,0,0,0,0	71.0	0.0	1.003	1,0,0,2,3,0,0,0,0	to_board	s548
21.71	0.889	0	UA_with_intermediate	0,0,0,1,2,0,0,0,0	practice	ward_and_allport	1,2,3,0,0,0,0,0,0	82.0	0.0	0.889	1,0,0,2,3,0,0,0,0	to_hand	s548
22.6	0.563	0	UA_with_intermediate	0,0,0,1,2,3,0,0,0	practice	ward_and_allport	1,2,3,0,0,0,0,0,0	71.0	0.0	0.563	1,0,0,2,3,0,0,0,0	to_board	s548
23.165	4.222	0	UA_with_intermediate	0,0,0,1,2,0,0,0,0	practice	ward_and_allport	1,2,3,0,0,0,0,0,0	71.0	0.0	4.222	1,0,0,2,3,0,0,0,0	to_hand	s548
27.387	2.465	0	UA_with_intermediate	0,0,0,1,2,3,0,0,0	practice	ward_and_allport	1,2,3,0,0,0,0,0,0	71.0	0.0	2.465	1,0,0,2,3,0,0,0,0	to_board	s548
29.854	1.249	0	UA_with_intermediate	0,0,0,1,2,0,0,0,0	practice	ward_and_allport	1,2,3,0,0,0,0,0,0	71.0	0.0	1.249	1,0,0,2,3,0,0,0,0	to_hand	s548
31.104	1.007	0	UA_with_intermediate	0,0,0,1,2,0,3,0,0	practice	ward_and_allport	1,2,3,0,0,0,0,0,0	82.0	0.0	1.007	1,0,0,2,3,0,0,0,0	to_board	s548
32.113	2.398	0	UA_with_intermediate	0,0,0,1,0,0,3,0,0	practice	ward_and_allport	1,2,3,0,0,0,0,0,0	71.0	0.0	2.398	1,0,0,2,3,0,0,0,0	to_hand	s548
34.512	0.337	0	UA_with_intermediate	0,0,0,1,0,0,3,2,0	practice	ward_and_allport	1,2,3,0,0,0,0,0,0	82.0	0.0	0.337	1,0,0,2,3,0,0,0,0	to_board	s548
34.851	0.539	0	UA_with_intermediate	0,0,0,0,0,0,3,2,0	practice	ward_and_allport	1,2,3,0,0,0,0,0,0	71.0	0.0	0.539	1,0,0,2,3,0,0,0,0	to_hand	s548
35.391	0.655	0	UA_with_intermediate	1,0,0,0,0,0,3,2,0	practice	ward_and_allport	1,2,3,0,0,0,0,0,0	89.0	0.0	0.655	1,0,0,2,3,0,0,0,0	to_board	s548
36.048	2.559	0	UA_with_intermediate	1,0,0,0,0,0,3,0,0	practice	ward_and_allport	1,2,3,0,0,0,0,0,0	82.0	0.0	2.559	1,0,0,2,3,0,0,0,0	to_hand	s548
38.607	0.658	0	UA_with_intermediate	1,2,0,0,0,0,3,0,0	practice	ward_and_allport	1,2,3,0,0,0,0,0,0	89.0	0.0	0.658	1,0,0,2,3,0,0,0,0	to_board	s548
39.269	0.587	0	UA_with_intermediate	1,2,0,0,0,0,0,0,0	practice	ward_and_allport	1,2,3,0,0,0,0,0,0	82.0	0.0	0.587	1,0,0,2,3,0,0,0,0	to_hand	s548
39.857	0.42	0	UA_with_intermediate	1,2,3,0,0,0,0,0,0	practice	ward_and_allport	1,2,3,0,0,0,0,0,0	89.0	0.0	0.42	1,0,0,2,3,0,0,0,0	to_board	s548
40.28	1.0	0	UA_with_intermediate	n/a	practice	ward_and_allport	n/a	-1.0	0.0	n/a	n/a	feedback	s548
42.782	3.762	1	UA_with_intermediate	1,2,0,0,0,0,0,0,0	practice	ward_and_allport	1,3,2,0,0,0,0,0,0	71.0	1.0	3.762	1,2,0,3,0,0,0,0,0	to_hand	s548
46.545	1.793	0	UA_with_intermediate	1,2,0,3,0,0,0,0,0	practice	ward_and_allport	1,3,2,0,0,0,0,0,0	71.0	1.0	1.793	1,2,0,3,0,0,0,0,0	to_board	s548
48.339	1.055	0	UA_with_intermediate	1,0,0,3,0,0,0,0,0	practice	ward_and_allport	1,3,2,0,0,0,0,0,0	89.0	1.0	1.055	1,2,0,3,0,0,0,0,0	to_hand	s548
49.396	1.428	0	UA_with_intermediate	1,0,0,3,0,0,2,0,0	practice	ward_and_allport	1,3,2,0,0,0,0,0,0	82.0	1.0	1.428	1,2,0,3,0,0,0,0,0	to_board	s548
50.825	2.51	0	UA_with_intermediate	1,0,0,0,0,0,2,0,0	practice	ward_and_allport	1,3,2,0,0,0,0,0,0	71.0	1.0	2.51	1,2,0,3,0,0,0,0,0	to_hand	s548
53.336	0.704	0	UA_with_intermediate	1,3,0,0,0,0,2,0,0	practice	ward_and_allport	1,3,2,0,0,0,0,0,0	89.0	1.0	0.704	1,2,0,3,0,0,0,0,0	to_board	s548
54.041	1.27	0	UA_with_intermediate	1,3,0,0,0,0,0,0,0	practice	ward_and_allport	1,3,2,0,0,0,0,0,0	82.0	1.0	1.27	1,2,0,3,0,0,0,0,0	to_hand	s548
55.313	0.312	0	UA_with_intermediate	1,3,2,0,0,0,0,0,0	practice	ward_and_allport	1,3,2,0,0,0,0,0,0	89.0	1.0	0.312	1,2,0,3,0,0,0,0,0	to_board	s548
55.628	1.0	0	UA_with_intermediate	n/a	practice	ward_and_allport	n/a	-1.0	1.0	n/a	n/a	feedback	s548
56.628	1.1	0	UA_with_intermediate	n/a	practice	ward_and_allport	n/a	-1.0	1.0	n/a	n/a	ITI	s548
57.73	3.612	1	UA_without_intermediate	0,0,0,1,0,0,3,0,0	practice	ward_and_allport	3,2,1,0,0,0,0,0,0	71.0	2.0	3.612	0,0,0,1,2,0,3,0,0	to_hand	s548
61.343	0.382	0	UA_without_intermediate	0,0,0,1,0,0,3,2,0	practice	ward_and_allport	3,2,1,0,0,0,0,0,0	82.0	2.0	0.382	0,0,0,1,2,0,3,0,0	to_board	s548
61.727	0.792	0	UA_without_intermediate	0,0,0,0,0,0,3,2,0	practice	ward_and_allport	3,2,1,0,0,0,0,0,0	71.0	2.0	0.792	0,0,0,1,2,0,3,0,0	to_hand	s548
62.52	0.329	0	UA_without_intermediate	1,0,0,0,0,0,3,2,0	practice	ward_and_allport	3,2,1,0,0,0,0,0,0	89.0	2.0	0.329	0,0,0,1,2,0,3,0,0	to_board	s548
62.852	3.307	0	UA_without_intermediate	0,0,0,0,0,0,3,2,0	practice	ward_and_allport	3,2,1,0,0,0,0,0,0	89.0	2.0	3.307	0,0,0,1,2,0,3,0,0	to_hand	s548
66.16	1.328	0	UA_without_intermediate	0,0,0,1,0,0,3,2,0	practice	ward_and_allport	3,2,1,0,0,0,0,0,0	71.0	2.0	1.328	0,0,0,1,2,0,3,0,0	to_board	s548
67.492	2.196	0	UA_without_intermediate	0,0,0,0,0,0,3,2,0	practice	ward_and_allport	3,2,1,0,0,0,0,0,0	71.0	2.0	2.196	0,0,0,1,2,0,3,0,0	to_hand	s548
69.688	1.74	0	UA_without_intermediate	0,0,0,1,0,0,3,2,0	practice	ward_and_allport	3,2,1,0,0,0,0,0,0	71.0	2.0	1.74	0,0,0,1,2,0,3,0,0	to_board	s548
71.431	0.837	0	UA_without_intermediate	0,0,0,1,0,0,3,0,0	practice	ward_and_allport	3,2,1,0,0,0,0,0,0	82.0	2.0	0.837	0,0,0,1,2,0,3,0,0	to_hand	s548
72.268	0.619	0	UA_without_intermediate	0,0,0,1,2,0,3,0,0	practice	ward_and_allport	3,2,1,0,0,0,0,0,0	71.0	2.0	0.619	0,0,0,1,2,0,3,0,0	to_board	s548
72.89	1.145	0	UA_without_intermediate	0,0,0,1,2,0,0,0,0	practice	ward_and_allport	3,2,1,0,0,0,0,0,0	82.0	2.0	1.145	0,0,0,1,2,0,3,0,0	to_hand	s548
74.036	0.359	0	UA_without_intermediate	3,0,0,1,2,0,0,0,0	practice	ward_and_allport	3,2,1,0,0,0,0,0,0	89.0	2.0	0.359	0,0,0,1,2,0,3,0,0	to_board	s548
74.398	2.55	0	UA_without_intermediate	3,0,0,1,0,0,0,0,0	practice	ward_and_allport	3,2,1,0,0,0,0,0,0	71.0	2.0	2.55	0,0,0,1,2,0,3,0,0	to_hand	s548
76.949	0.588	0	UA_without_intermediate	3,0,0,1,0,0,2,0,0	practice	ward_and_allport	3,2,1,0,0,0,0,0,0	82.0	2.0	0.588	0,0,0,1,2,0,3,0,0	to_board	s548
77.539	0.509	0	UA_without_intermediate	3,0,0,0,0,0,2,0,0	practice	ward_and_allport	3,2,1,0,0,0,0,0,0	71.0	2.0	0.509	0,0,0,1,2,0,3,0,0	to_hand	s548
78.049	0.356	0	UA_without_intermediate	3,1,0,0,0,0,2,0,0	practice	ward_and_allport	3,2,1,0,0,0,0,0,0	89.0	2.0	0.356	0,0,0,1,2,0,3,0,0	to_board	s548
78.407	0.566	0	UA_without_intermediate	3,1,0,0,0,0,0,0,0	practice	ward_and_allport	3,2,1,0,0,0,0,0,0	82.0	2.0	0.566	0,0,0,1,2,0,3,0,0	to_hand	s548
78.975	0.29	0	UA_without_intermediate	3,1,2,0,0,0,0,0,0	practice	ward_and_allport	3,2,1,0,0,0,0,0,0	89.0	2.0	0.29	0,0,0,1,2,0,3,0,0	to_board	s548
79.267	4.448	0	UA_without_intermediate	3,1,0,0,0,0,0,0,0	practice	ward_and_allport	3,2,1,0,0,0,0,0,0	89.0	2.0	4.448	0,0,0,1,2,0,3,0,0	to_hand	s548
83.716	0.817	0	UA_without_intermediate	3,1,0,0,0,0,2,0,0	practice	ward_and_allport	3,2,1,0,0,0,0,0,0	82.0	2.0	0.817	0,0,0,1,2,0,3,0,0	to_board	s548
84.536	1.902	0	UA_without_intermediate	3,0,0,0,0,0,2,0,0	practice	ward_and_allport	3,2,1,0,0,0,0,0,0	89.0	2.0	1.902	0,0,0,1,2,0,3,0,0	to_hand	s548
86.438	1.25	0	UA_without_intermediate	3,0,0,1,0,0,2,0,0	practice	ward_and_allport	3,2,1,0,0,0,0,0,0	71.0	2.0	1.25	0,0,0,1,2,0,3,0,0	to_board	s548
87.69	1.539	0	UA_without_intermediate	3,0,0,1,0,0,0,0,0	practice	ward_and_allport	3,2,1,0,0,0,0,0,0	82.0	2.0	1.539	0,0,0,1,2,0,3,0,0	to_hand	s548
89.231	0.348	0	UA_without_intermediate	3,2,0,1,0,0,0,0,0	practice	ward_and_allport	3,2,1,0,0,0,0,0,0	89.0	2.0	0.348	0,0,0,1,2,0,3,0,0	to_board	s548
89.582	0.976	0	UA_without_intermediate	3,2,0,0,0,0,0,0,0	practice	ward_and_allport	3,2,1,0,0,0,0,0,0	71.0	2.0	0.976	0,0,0,1,2,0,3,0,0	to_hand	s548
90.559	0.189	0	UA_without_intermediate	3,2,1,0,0,0,0,0,0	practice	ward_and_allport	3,2,1,0,0,0,0,0,0	89.0	2.0	0.189	0,0,0,1,2,0,3,0,0	to_board	s548
90.751	1.0	0	UA_without_intermediate	n/a	practice	ward_and_allport	n/a	-1.0	2.0	n/a	n/a	feedback	s548
91.751	1.2	0	UA_without_intermediate	n/a	practice	ward_and_allport	n/a	-1.0	2.0	n/a	n/a	ITI	s548
92.953	6.031	1	UA_without_intermediate	0,0,0,1,0,0,3,0,0	practice	ward_and_allport	2,3,1,0,0,0,0,0,0	71.0	3.0	6.031	0,0,0,1,2,0,3,0,0	to_hand	s548
98.985	0.304	0	UA_without_intermediate	2,0,0,1,0,0,3,0,0	practice	ward_and_allport	2,3,1,0,0,0,0,0,0	89.0	3.0	0.304	0,0,0,1,2,0,3,0,0	to_board	s548
99.291	1.843	0	UA_without_intermediate	2,0,0,1,0,0,0,0,0	practice	ward_and_allport	2,3,1,0,0,0,0,0,0	82.0	3.0	1.843	0,0,0,1,2,0,3,0,0	to_hand	s548
101.135	0.359	0	UA_without_intermediate	2,3,0,1,0,0,0,0,0	practice	ward_and_allport	2,3,1,0,0,0,0,0,0	89.0	3.0	0.359	0,0,0,1,2,0,3,0,0	to_board	s548
101.497	0.597	0	UA_without_intermediate	2,3,0,0,0,0,0,0,0	practice	ward_and_allport	2,3,1,0,0,0,0,0,0	71.0	3.0	0.597	0,0,0,1,2,0,3,0,0	to_hand	s548
102.095	0.319	0	UA_without_intermediate	2,3,1,0,0,0,0,0,0	practice	ward_and_allport	2,3,1,0,0,0,0,0,0	89.0	3.0	0.319	0,0,0,1,2,0,3,0,0	to_board	s548
102.418	1.0	0	UA_without_intermediate	n/a	practice	ward_and_allport	n/a	-1.0	3.0	n/a	n/a	feedback	s548
103.418	1.0	0	UA_without_intermediate	n/a	practice	ward_and_allport	n/a	-1.0	3.0	n/a	n/a	ITI	s548
106.425	5.53	1	PA_with_intermediate	0,0,0,1,2,0,0,0,0	test	ward_and_allport	2,3,0,1,0,0,0,0,0	71.0	0.0	5.53	0,0,0,1,2,3,0,0,0	to_hand	s548
111.955	1.474	0	PA_with_intermediate	0,0,0,1,2,0,3,0,0	test	ward_and_allport	2,3,0,1,0,0,0,0,0	82.0	0.0	1.474	0,0,0,1,2,3,0,0,0	to_board	s548
113.432	0.824	0	PA_with_intermediate	0,0,0,1,0,0,3,0,0	test	ward_and_allport	2,3,0,1,0,0,0,0,0	71.0	0.0	0.824	0,0,0,1,2,3,0,0,0	to_hand	s548
114.257	0.271	0	PA_with_intermediate	2,0,0,1,0,0,3,0,0	test	ward_and_allport	2,3,0,1,0,0,0,0,0	89.0	0.0	0.271	0,0,0,1,2,3,0,0,0	to_board	s548
114.532	0.997	0	PA_with_intermediate	2,0,0,0,0,0,3,0,0	test	ward_and_allport	2,3,0,1,0,0,0,0,0	71.0	0.0	0.997	0,0,0,1,2,3,0,0,0	to_hand	s548
115.53	1.299	0	PA_with_intermediate	2,0,0,1,0,0,3,0,0	test	ward_and_allport	2,3,0,1,0,0,0,0,0	71.0	0.0	1.299	0,0,0,1,2,3,0,0,0	to_board	s548
116.832	0.454	0	PA_with_intermediate	2,0,0,1,0,0,0,0,0	test	ward_and_allport	2,3,0,1,0,0,0,0,0	82.0	0.0	0.454	0,0,0,1,2,3,0,0,0	to_hand	s548
117.287	0.273	0	PA_with_intermediate	2,3,0,1,0,0,0,0,0	test	ward_and_allport	2,3,0,1,0,0,0,0,0	89.0	0.0	0.273	0,0,0,1,2,3,0,0,0	to_board	s548
117.563	1.0	0	PA_with_intermediate	n/a	test	ward_and_allport	n/a	-1.0	0.0	n/a	n/a	feedback	s548
118.563	1.408	0	PA_with_intermediate	n/a	test	ward_and_allport	n/a	-1.0	0.0	n/a	n/a	ITI	s548
119.975	4.076	1	PA_without_intermediate	0,0,0,1,2,0,0,0,0	test	ward_and_allport	3,1,0,0,0,0,2,0,0	71.0	1.0	4.076	0,0,0,1,2,3,0,0,0	to_hand	s548
124.052	0.319	0	PA_without_intermediate	3,0,0,1,2,0,0,0,0	test	ward_and_allport	3,1,0,0,0,0,2,0,0	89.0	1.0	0.319	0,0,0,1,2,3,0,0,0	to_board	s548
124.374	2.255	0	PA_without_intermediate	3,0,0,1,0,0,0,0,0	test	ward_and_allport	3,1,0,0,0,0,2,0,0	71.0	1.0	2.255	0,0,0,1,2,3,0,0,0	to_hand	s548
126.63	0.315	0	PA_without_intermediate	3,0,0,1,0,0,2,0,0	test	ward_and_allport	3,1,0,0,0,0,2,0,0	82.0	1.0	0.315	0,0,0,1,2,3,0,0,0	to_board	s548
126.948	1.271	0	PA_without_intermediate	3,0,0,0,0,0,2,0,0	test	ward_and_allport	3,1,0,0,0,0,2,0,0	71.0	1.0	1.271	0,0,0,1,2,3,0,0,0	to_hand	s548
128.22	0.272	0	PA_without_intermediate	3,1,0,0,0,0,2,0,0	test	ward_and_allport	3,1,0,0,0,0,2,0,0	89.0	1.0	0.272	0,0,0,1,2,3,0,0,0	to_board	s548
128.496	1.0	0	PA_without_intermediate	n/a	test	ward_and_allport	n/a	-1.0	1.0	n/a	n/a	feedback	s548
129.496	1.68	0	PA_without_intermediate	n/a	test	ward_and_allport	n/a	-1.0	1.0	n/a	n/a	ITI	s548
131.18	4.409	1	PA_with_intermediate	1,2,0,0,0,0,0,0,0	test	ward_and_allport	1,0,0,2,3,0,0,0,0	89.0	2.0	4.409	1,2,3,0,0,0,0,0,0	to_hand	s548
135.59	0.598	0	PA_with_intermediate	1,2,0,0,0,0,3,0,0	test	ward_and_allport	1,0,0,2,3,0,0,0,0	82.0	2.0	0.598	1,2,3,0,0,0,0,0,0	to_board	s548
136.192	1.013	0	PA_with_intermediate	1,0,0,0,0,0,3,0,0	test	ward_and_allport	1,0,0,2,3,0,0,0,0	89.0	2.0	1.013	1,2,3,0,0,0,0,0,0	to_hand	s548
137.206	0.586	0	PA_with_intermediate	1,0,0,2,0,0,3,0,0	test	ward_and_allport	1,0,0,2,3,0,0,0,0	71.0	2.0	0.586	1,2,3,0,0,0,0,0,0	to_board	s548
137.796	1.325	0	PA_with_intermediate	1,0,0,2,0,0,0,0,0	test	ward_and_allport	1,0,0,2,3,0,0,0,0	82.0	2.0	1.325	1,2,3,0,0,0,0,0,0	to_hand	s548
139.121	0.61	0	PA_with_intermediate	1,0,0,2,3,0,0,0,0	test	ward_and_allport	1,0,0,2,3,0,0,0,0	71.0	2.0	0.61	1,2,3,0,0,0,0,0,0	to_board	s548
139.737	1.0	0	PA_with_intermediate	n/a	test	ward_and_allport	n/a	-1.0	2.0	n/a	n/a	feedback	s548
140.737	3.72	0	PA_with_intermediate	n/a	test	ward_and_allport	n/a	-1.0	2.0	n/a	n/a	ITI	s548
144.459	4.04	1	PA_without_intermediate	0,0,0,1,2,0,0,0,0	test	ward_and_allport	3,2,0,0,0,0,1,0,0	71.0	3.0	4.04	0,0,0,1,2,3,0,0,0	to_hand	s548
148.5	0.562	0	PA_without_intermediate	0,0,0,1,2,0,3,0,0	test	ward_and_allport	3,2,0,0,0,0,1,0,0	82.0	3.0	0.562	0,0,0,1,2,3,0,0,0	to_board	s548
149.065	0.711	0	PA_without_intermediate	0,0,0,1,0,0,3,0,0	test	ward_and_allport	3,2,0,0,0,0,1,0,0	71.0	3.0	0.711	0,0,0,1,2,3,0,0,0	to_hand	s548
149.777	0.341	0	PA_without_intermediate	2,0,0,1,0,0,3,0,0	test	ward_and_allport	3,2,0,0,0,0,1,0,0	89.0	3.0	0.341	0,0,0,1,2,3,0,0,0	to_board	s548
150.122	1.348	0	PA_without_intermediate	2,0,0,1,0,0,0,0,0	test	ward_and_allport	3,2,0,0,0,0,1,0,0	82.0	3.0	1.348	0,0,0,1,2,3,0,0,0	to_hand	s548
151.471	0.358	0	PA_without_intermediate	2,3,0,1,0,0,0,0,0	test	ward_and_allport	3,2,0,0,0,0,1,0,0	89.0	3.0	0.358	0,0,0,1,2,3,0,0,0	to_board	s548
151.833	1.24	0	PA_without_intermediate	2,3,0,0,0,0,0,0,0	test	ward_and_allport	3,2,0,0,0,0,1,0,0	71.0	3.0	1.24	0,0,0,1,2,3,0,0,0	to_hand	s548
153.074	0.377	0	PA_without_intermediate	2,3,0,0,0,0,1,0,0	test	ward_and_allport	3,2,0,0,0,0,1,0,0	82.0	3.0	0.377	0,0,0,1,2,3,0,0,0	to_board	s548
153.455	3.441	0	PA_without_intermediate	2,0,0,0,0,0,1,0,0	test	ward_and_allport	3,2,0,0,0,0,1,0,0	89.0	3.0	3.441	0,0,0,1,2,3,0,0,0	to_hand	s548
156.897	0.681	0	PA_without_intermediate	2,0,0,3,0,0,1,0,0	test	ward_and_allport	3,2,0,0,0,0,1,0,0	71.0	3.0	0.681	0,0,0,1,2,3,0,0,0	to_board	s548
157.582	1.02	0	PA_without_intermediate	2,0,0,3,0,0,0,0,0	test	ward_and_allport	3,2,0,0,0,0,1,0,0	82.0	3.0	1.02	0,0,0,1,2,3,0,0,0	to_hand	s548
158.604	1.066	0	PA_without_intermediate	2,0,0,3,0,0,1,0,0	test	ward_and_allport	3,2,0,0,0,0,1,0,0	82.0	3.0	1.066	0,0,0,1,2,3,0,0,0	to_board	s548
159.674	0.569	0	PA_without_intermediate	0,0,0,3,0,0,1,0,0	test	ward_and_allport	3,2,0,0,0,0,1,0,0	89.0	3.0	0.569	0,0,0,1,2,3,0,0,0	to_hand	s548
160.245	1.224	0	PA_without_intermediate	0,0,0,3,0,0,1,2,0	test	ward_and_allport	3,2,0,0,0,0,1,0,0	82.0	3.0	1.224	0,0,0,1,2,3,0,0,0	to_board	s548
161.473	0.729	0	PA_without_intermediate	0,0,0,0,0,0,1,2,0	test	ward_and_allport	3,2,0,0,0,0,1,0,0	71.0	3.0	0.729	0,0,0,1,2,3,0,0,0	to_hand	s548
162.204	0.384	0	PA_without_intermediate	3,0,0,0,0,0,1,2,0	test	ward_and_allport	3,2,0,0,0,0,1,0,0	89.0	3.0	0.384	0,0,0,1,2,3,0,0,0	to_board	s548
162.592	1.186	0	PA_without_intermediate	3,0,0,0,0,0,1,0,0	test	ward_and_allport	3,2,0,0,0,0,1,0,0	82.0	3.0	1.186	0,0,0,1,2,3,0,0,0	to_hand	s548
163.78	0.379	0	PA_without_intermediate	3,2,0,0,0,0,1,0,0	test	ward_and_allport	3,2,0,0,0,0,1,0,0	89.0	3.0	0.379	0,0,0,1,2,3,0,0,0	to_board	s548
164.163	1.0	0	PA_without_intermediate	n/a	test	ward_and_allport	n/a	-1.0	3.0	n/a	n/a	feedback	s548
165.163	2.224	0	PA_without_intermediate	n/a	test	ward_and_allport	n/a	-1.0	3.0	n/a	n/a	ITI	s548
167.392	5.595	1	PA_without_intermediate	0,0,0,1,2,0,0,0,0	test	ward_and_allport	3,1,0,0,0,0,2,0,0	71.0	4.0	5.595	0,0,0,1,2,3,0,0,0	to_hand	s548
172.988	1.467	0	PA_without_intermediate	0,0,0,1,2,0,3,0,0	test	ward_and_allport	3,1,0,0,0,0,2,0,0	82.0	4.0	1.467	0,0,0,1,2,3,0,0,0	to_board	s548
174.459	0.685	0	PA_without_intermediate	0,0,0,1,0,0,3,0,0	test	ward_and_allport	3,1,0,0,0,0,2,0,0	71.0	4.0	0.685	0,0,0,1,2,3,0,0,0	to_hand	s548
175.146	0.699	0	PA_without_intermediate	0,0,0,1,0,0,3,2,0	test	ward_and_allport	3,1,0,0,0,0,2,0,0	82.0	4.0	0.699	0,0,0,1,2,3,0,0,0	to_board	s548
175.849	0.959	0	PA_without_intermediate	0,0,0,0,0,0,3,2,0	test	ward_and_allport	3,1,0,0,0,0,2,0,0	71.0	4.0	0.959	0,0,0,1,2,3,0,0,0	to_hand	s548
176.809	0.377	0	PA_without_intermediate	1,0,0,0,0,0,3,2,0	test	ward_and_allport	3,1,0,0,0,0,2,0,0	89.0	4.0	0.377	0,0,0,1,2,3,0,0,0	to_board	s548
177.191	3.366	0	PA_without_intermediate	1,0,0,0,0,0,3,0,0	test	ward_and_allport	3,1,0,0,0,0,2,0,0	82.0	4.0	3.366	0,0,0,1,2,3,0,0,0	to_hand	s548
180.558	1.088	0	PA_without_intermediate	1,0,0,2,0,0,3,0,0	test	ward_and_allport	3,1,0,0,0,0,2,0,0	71.0	4.0	1.088	0,0,0,1,2,3,0,0,0	to_board	s548
181.65	1.574	0	PA_without_intermediate	1,0,0,2,0,0,0,0,0	test	ward_and_allport	3,1,0,0,0,0,2,0,0	82.0	4.0	1.574	0,0,0,1,2,3,0,0,0	to_hand	s548
183.224	1.906	0	PA_without_intermediate	1,0,0,2,0,0,3,0,0	test	ward_and_allport	3,1,0,0,0,0,2,0,0	82.0	4.0	1.906	0,0,0,1,2,3,0,0,0	to_board	s548
185.134	1.914	0	PA_without_intermediate	0,0,0,2,0,0,3,0,0	test	ward_and_allport	3,1,0,0,0,0,2,0,0	89.0	4.0	1.914	0,0,0,1,2,3,0,0,0	to_hand	s548
187.048	1.673	0	PA_without_intermediate	0,0,0,2,1,0,3,0,0	test	ward_and_allport	3,1,0,0,0,0,2,0,0	71.0	4.0	1.673	0,0,0,1,2,3,0,0,0	to_board	s548
188.725	0.926	0	PA_without_intermediate	0,0,0,2,1,0,0,0,0	test	ward_and_allport	3,1,0,0,0,0,2,0,0	82.0	4.0	0.926	0,0,0,1,2,3,0,0,0	to_hand	s548
189.652	0.366	0	PA_without_intermediate	3,0,0,2,1,0,0,0,0	test	ward_and_allport	3,1,0,0,0,0,2,0,0	89.0	4.0	0.366	0,0,0,1,2,3,0,0,0	to_board	s548
190.023	1.123	0	PA_without_intermediate	3,0,0,2,0,0,0,0,0	test	ward_and_allport	3,1,0,0,0,0,2,0,0	71.0	4.0	1.123	0,0,0,1,2,3,0,0,0	to_hand	s548
191.146	0.261	0	PA_without_intermediate	3,1,0,2,0,0,0,0,0	test	ward_and_allport	3,1,0,0,0,0,2,0,0	89.0	4.0	0.261	0,0,0,1,2,3,0,0,0	to_board	s548
191.411	1.68	0	PA_without_intermediate	3,1,0,0,0,0,0,0,0	test	ward_and_allport	3,1,0,0,0,0,2,0,0	71.0	4.0	1.68	0,0,0,1,2,3,0,0,0	to_hand	s548
193.092	0.327	0	PA_without_intermediate	3,1,0,0,0,0,2,0,0	test	ward_and_allport	3,1,0,0,0,0,2,0,0	82.0	4.0	0.327	0,0,0,1,2,3,0,0,0	to_board	s548
193.423	1.0	0	PA_without_intermediate	n/a	test	ward_and_allport	n/a	-1.0	4.0	n/a	n/a	feedback	s548
194.423	1.272	0	PA_without_intermediate	n/a	test	ward_and_allport	n/a	-1.0	4.0	n/a	n/a	ITI	s548
195.699	5.032	1	PA_with_intermediate	0,0,0,1,2,0,0,0,0	test	ward_and_allport	0,0,0,1,0,0,2,3,0	71.0	5.0	5.032	0,0,0,1,2,3,0,0,0	to_hand	s548
200.733	0.408	0	PA_with_intermediate	3,0,0,1,2,0,0,0,0	test	ward_and_allport	0,0,0,1,0,0,2,3,0	89.0	5.0	0.408	0,0,0,1,2,3,0,0,0	to_board	s548
201.145	0.582	0	PA_with_intermediate	3,0,0,1,0,0,0,0,0	test	ward_and_allport	0,0,0,1,0,0,2,3,0	71.0	5.0	0.582	0,0,0,1,2,3,0,0,0	to_hand	s548
201.727	0.439	0	PA_with_intermediate	3,0,0,1,0,0,2,0,0	test	ward_and_allport	0,0,0,1,0,0,2,3,0	82.0	5.0	0.439	0,0,0,1,2,3,0,0,0	to_board	s548
202.171	1.13	0	PA_with_intermediate	0,0,0,1,0,0,2,0,0	test	ward_and_allport	0,0,0,1,0,0,2,3,0	89.0	5.0	1.13	0,0,0,1,2,3,0,0,0	to_hand	s548
203.302	0.441	0	PA_with_intermediate	0,0,0,1,0,0,2,3,0	test	ward_and_allport	0,0,0,1,0,0,2,3,0	82.0	5.0	0.441	0,0,0,1,2,3,0,0,0	to_board	s548
203.748	1.0	0	PA_with_intermediate	n/a	test	ward_and_allport	n/a	-1.0	5.0	n/a	n/a	feedback	s548
204.748	2.632	0	PA_with_intermediate	n/a	test	ward_and_allport	n/a	-1.0	5.0	n/a	n/a	ITI	s548
207.385	6.973	1	PA_without_intermediate	0,0,0,0,0,0,1,2,0	test	ward_and_allport	3,2,0,1,0,0,0,0,0	82.0	6.0	6.973	0,0,0,0,0,0,1,2,3	to_hand	s548
214.358	0.458	0	PA_without_intermediate	0,0,0,3,0,0,1,2,0	test	ward_and_allport	3,2,0,1,0,0,0,0,0	71.0	6.0	0.458	0,0,0,0,0,0,1,2,3	to_board	s548
214.82	1.415	0	PA_without_intermediate	0,0,0,3,0,0,1,0,0	test	ward_and_allport	3,2,0,1,0,0,0,0,0	82.0	6.0	1.415	0,0,0,0,0,0,1,2,3	to_hand	s548
216.237	0.357	0	PA_without_intermediate	2,0,0,3,0,0,1,0,0	test	ward_and_allport	3,2,0,1,0,0,0,0,0	89.0	6.0	0.357	0,0,0,0,0,0,1,2,3	to_board	s548
216.599	3.894	0	PA_without_intermediate	0,0,0,3,0,0,1,0,0	test	ward_and_allport	3,2,0,1,0,0,0,0,0	89.0	6.0	3.894	0,0,0,0,0,0,1,2,3	to_hand	s548
220.495	0.465	0	PA_without_intermediate	0,0,0,3,0,0,1,2,0	test	ward_and_allport	3,2,0,1,0,0,0,0,0	82.0	6.0	0.465	0,0,0,0,0,0,1,2,3	to_board	s548
220.964	0.592	0	PA_without_intermediate	0,0,0,0,0,0,1,2,0	test	ward_and_allport	3,2,0,1,0,0,0,0,0	71.0	6.0	0.592	0,0,0,0,0,0,1,2,3	to_hand	s548
221.558	0.328	0	PA_without_intermediate	3,0,0,0,0,0,1,2,0	test	ward_and_allport	3,2,0,1,0,0,0,0,0	89.0	6.0	0.328	0,0,0,0,0,0,1,2,3	to_board	s548
221.891	0.947	0	PA_without_intermediate	0,0,0,0,0,0,1,2,0	test	ward_and_allport	3,2,0,1,0,0,0,0,0	89.0	6.0	0.947	0,0,0,0,0,0,1,2,3	to_hand	s548
222.838	1.055	0	PA_without_intermediate	3,0,0,0,0,0,1,2,0	test	ward_and_allport	3,2,0,1,0,0,0,0,0	89.0	6.0	1.055	0,0,0,0,0,0,1,2,3	to_board	s548
223.899	0.506	0	PA_without_intermediate	3,0,0,0,0,0,1,0,0	test	ward_and_allport	3,2,0,1,0,0,0,0,0	82.0	6.0	0.506	0,0,0,0,0,0,1,2,3	to_hand	s548
224.406	0.29	0	PA_without_intermediate	3,2,0,0,0,0,1,0,0	test	ward_and_allport	3,2,0,1,0,0,0,0,0	89.0	6.0	0.29	0,0,0,0,0,0,1,2,3	to_board	s548
224.702	1.399	0	PA_without_intermediate	3,2,0,0,0,0,0,0,0	test	ward_and_allport	3,2,0,1,0,0,0,0,0	82.0	6.0	1.399	0,0,0,0,0,0,1,2,3	to_hand	s548
226.102	0.333	0	PA_without_intermediate	3,2,1,0,0,0,0,0,0	test	ward_and_allport	3,2,0,1,0,0,0,0,0	89.0	6.0	0.333	0,0,0,0,0,0,1,2,3	to_board	s548
226.439	1.373	0	PA_without_intermediate	3,2,0,0,0,0,0,0,0	test	ward_and_allport	3,2,0,1,0,0,0,0,0	89.0	6.0	1.373	0,0,0,0,0,0,1,2,3	to_hand	s548
227.814	0.422	0	PA_without_intermediate	3,2,0,1,0,0,0,0,0	test	ward_and_allport	3,2,0,1,0,0,0,0,0	71.0	6.0	0.422	0,0,0,0,0,0,1,2,3	to_board	s548
228.242	1.0	0	PA_without_intermediate	n/a	test	ward_and_allport	n/a	-1.0	6.0	n/a	n/a	feedback	s548
229.242	1.408	0	PA_without_intermediate	n/a	test	ward_and_allport	n/a	-1.0	6.0	n/a	n/a	ITI	s548
230.654	5.523	1	PA_without_intermediate	1,2,0,0,0,0,0,0,0	test	ward_and_allport	0,0,0,2,0,0,3,1,0	89.0	7.0	5.523	1,2,3,0,0,0,0,0,0	to_hand	s548
236.178	0.372	0	PA_without_intermediate	1,2,0,0,0,0,3,0,0	test	ward_and_allport	0,0,0,2,0,0,3,1,0	82.0	7.0	0.372	1,2,3,0,0,0,0,0,0	to_board	s548
236.556	2.56	0	PA_without_intermediate	1,0,0,0,0,0,3,0,0	test	ward_and_allport	0,0,0,2,0,0,3,1,0	89.0	7.0	2.56	1,2,3,0,0,0,0,0,0	to_hand	s548
239.117	0.471	0	PA_without_intermediate	1,0,0,2,0,0,3,0,0	test	ward_and_allport	0,0,0,2,0,0,3,1,0	71.0	7.0	0.471	1,2,3,0,0,0,0,0,0	to_board	s548
239.593	0.738	0	PA_without_intermediate	0,0,0,2,0,0,3,0,0	test	ward_and_allport	0,0,0,2,0,0,3,1,0	89.0	7.0	0.738	1,2,3,0,0,0,0,0,0	to_hand	s548
240.332	0.32	0	PA_without_intermediate	0,0,0,2,0,0,3,1,0	test	ward_and_allport	0,0,0,2,0,0,3,1,0	82.0	7.0	0.32	1,2,3,0,0,0,0,0,0	to_board	s548
240.658	1.0	0	PA_without_intermediate	n/a	test	ward_and_allport	n/a	-1.0	7.0	n/a	n/a	feedback	s548
241.658	1.0	0	PA_without_intermediate	n/a	test	ward_and_allport	n/a	-1.0	7.0	n/a	n/a	ITI	s548
242.663	6.639	1	PA_with_intermediate	1,2,0,0,0,0,0,0,0	test	ward_and_allport	1,3,0,2,0,0,0,0,0	89.0	8.0	6.639	1,2,3,0,0,0,0,0,0	to_hand	s548
249.303	0.925	0	PA_with_intermediate	1,2,0,3,0,0,0,0,0	test	ward_and_allport	1,3,0,2,0,0,0,0,0	71.0	8.0	0.925	1,2,3,0,0,0,0,0,0	to_board	s548
250.234	3.657	0	PA_with_intermediate	1,2,0,0,0,0,0,0,0	test	ward_and_allport	1,3,0,2,0,0,0,0,0	71.0	8.0	3.657	1,2,3,0,0,0,0,0,0	to_hand	s548
253.891	0.397	0	PA_with_intermediate	1,2,0,0,0,0,3,0,0	test	ward_and_allport	1,3,0,2,0,0,0,0,0	82.0	8.0	0.397	1,2,3,0,0,0,0,0,0	to_board	s548
254.293	1.314	0	PA_with_intermediate	1,0,0,0,0,0,3,0,0	test	ward_and_allport	1,3,0,2,0,0,0,0,0	89.0	8.0	1.314	1,2,3,0,0,0,0,0,0	to_hand	s548
255.607	0.501	0	PA_with_intermediate	1,0,0,2,0,0,3,0,0	test	ward_and_allport	1,3,0,2,0,0,0,0,0	71.0	8.0	0.501	1,2,3,0,0,0,0,0,0	to_board	s548
256.113	0.535	0	PA_with_intermediate	0,0,0,2,0,0,3,0,0	test	ward_and_allport	1,3,0,2,0,0,0,0,0	89.0	8.0	0.535	1,2,3,0,0,0,0,0,0	to_hand	s548
256.649	1.474	0	PA_with_intermediate	1,0,0,2,0,0,3,0,0	test	ward_and_allport	1,3,0,2,0,0,0,0,0	89.0	8.0	1.474	1,2,3,0,0,0,0,0,0	to_board	s548
258.128	0.57	0	PA_with_intermediate	1,0,0,2,0,0,0,0,0	test	ward_and_allport	1,3,0,2,0,0,0,0,0	82.0	8.0	0.57	1,2,3,0,0,0,0,0,0	to_hand	s548
258.699	0.298	0	PA_with_intermediate	1,3,0,2,0,0,0,0,0	test	ward_and_allport	1,3,0,2,0,0,0,0,0	89.0	8.0	0.298	1,2,3,0,0,0,0,0,0	to_board	s548
259.003	1.0	0	PA_with_intermediate	n/a	test	ward_and_allport	n/a	-1.0	8.0	n/a	n/a	feedback	s548
260.003	1.0	0	PA_with_intermediate	n/a	test	ward_and_allport	n/a	-1.0	8.0	n/a	n/a	ITI	s548
261.009	6.439	1	PA_with_intermediate	0,0,0,0,0,0,1,2,0	test	ward_and_allport	2,3,0,0,0,0,1,0,0	82.0	9.0	6.439	0,0,0,0,0,0,1,2,3	to_hand	s548
267.449	0.455	0	PA_with_intermediate	0,0,0,3,0,0,1,2,0	test	ward_and_allport	2,3,0,0,0,0,1,0,0	71.0	9.0	0.455	0,0,0,0,0,0,1,2,3	to_board	s548
267.91	0.623	0	PA_with_intermediate	0,0,0,3,0,0,1,0,0	test	ward_and_allport	2,3,0,0,0,0,1,0,0	82.0	9.0	0.623	0,0,0,0,0,0,1,2,3	to_hand	s548
268.535	0.365	0	PA_with_intermediate	2,0,0,3,0,0,1,0,0	test	ward_and_allport	2,3,0,0,0,0,1,0,0	89.0	9.0	0.365	0,0,0,0,0,0,1,2,3	to_board	s548
268.905	0.76	0	PA_with_intermediate	2,0,0,0,0,0,1,0,0	test	ward_and_allport	2,3,0,0,0,0,1,0,0	71.0	9.0	0.76	0,0,0,0,0,0,1,2,3	to_hand	s548
269.667	0.379	0	PA_with_intermediate	2,3,0,0,0,0,1,0,0	test	ward_and_allport	2,3,0,0,0,0,1,0,0	89.0	9.0	0.379	0,0,0,0,0,0,1,2,3	to_board	s548
270.052	1.0	0	PA_with_intermediate	n/a	test	ward_and_allport	n/a	-1.0	9.0	n/a	n/a	feedback	s548
271.052	1.0	0	PA_with_intermediate	n/a	test	ward_and_allport	n/a	-1.0	9.0	n/a	n/a	ITI	s548
272.058	4.189	1	PA_with_intermediate	0,0,0,0,0,0,1,2,0	test	ward_and_allport	0,0,0,2,3,0,1,0,0	82.0	10.0	4.189	0,0,0,0,0,0,1,2,3	to_hand	s548
276.247	0.481	0	PA_with_intermediate	0,0,0,3,0,0,1,2,0	test	ward_and_allport	0,0,0,2,3,0,1,0,0	71.0	10.0	0.481	0,0,0,0,0,0,1,2,3	to_board	s548
276.734	3.009	0	PA_with_intermediate	0,0,0,0,0,0,1,2,0	test	ward_and_allport	0,0,0,2,3,0,1,0,0	71.0	10.0	3.009	0,0,0,0,0,0,1,2,3	to_hand	s548
279.745	0.539	0	PA_with_intermediate	3,0,0,0,0,0,1,2,0	test	ward_and_allport	0,0,0,2,3,0,1,0,0	89.0	10.0	0.539	0,0,0,0,0,0,1,2,3	to_board	s548
280.29	0.816	0	PA_with_intermediate	3,0,0,0,0,0,1,0,0	test	ward_and_allport	0,0,0,2,3,0,1,0,0	82.0	10.0	0.816	0,0,0,0,0,0,1,2,3	to_hand	s548
281.106	0.385	0	PA_with_intermediate	3,0,0,2,0,0,1,0,0	test	ward_and_allport	0,0,0,2,3,0,1,0,0	71.0	10.0	0.385	0,0,0,0,0,0,1,2,3	to_board	s548
281.497	1.461	0	PA_with_intermediate	0,0,0,2,0,0,1,0,0	test	ward_and_allport	0,0,0,2,3,0,1,0,0	89.0	10.0	1.461	0,0,0,0,0,0,1,2,3	to_hand	s548
282.959	0.521	0	PA_with_intermediate	0,0,0,2,3,0,1,0,0	test	ward_and_allport	0,0,0,2,3,0,1,0,0	71.0	10.0	0.521	0,0,0,0,0,0,1,2,3	to_board	s548
283.487	1.0	0	PA_with_intermediate	n/a	test	ward_and_allport	n/a	-1.0	10.0	n/a	n/a	feedback	s548
284.487	1.408	0	PA_with_intermediate	n/a	test	ward_and_allport	n/a	-1.0	10.0	n/a	n/a	ITI	s548
285.901	5.56	1	PA_without_intermediate	0,0,0,0,0,0,1,2,0	test	ward_and_allport	1,0,0,3,2,0,0,0,0	82.0	11.0	5.56	0,0,0,0,0,0,1,2,3	to_hand	s548
291.462	1.059	0	PA_without_intermediate	0,0,0,3,0,0,1,2,0	test	ward_and_allport	1,0,0,3,2,0,0,0,0	71.0	11.0	1.059	0,0,0,0,0,0,1,2,3	to_board	s548
292.528	1.797	0	PA_without_intermediate	0,0,0,3,0,0,1,0,0	test	ward_and_allport	1,0,0,3,2,0,0,0,0	82.0	11.0	1.797	0,0,0,0,0,0,1,2,3	to_hand	s548
294.326	0.336	0	PA_without_intermediate	0,0,0,3,2,0,1,0,0	test	ward_and_allport	1,0,0,3,2,0,0,0,0	71.0	11.0	0.336	0,0,0,0,0,0,1,2,3	to_board	s548
294.669	0.705	0	PA_without_intermediate	0,0,0,3,2,0,0,0,0	test	ward_and_allport	1,0,0,3,2,0,0,0,0	82.0	11.0	0.705	0,0,0,0,0,0,1,2,3	to_hand	s548
295.375	0.216	0	PA_without_intermediate	1,0,0,3,2,0,0,0,0	test	ward_and_allport	1,0,0,3,2,0,0,0,0	89.0	11.0	0.216	0,0,0,0,0,0,1,2,3	to_board	s548
295.599	1.0	0	PA_without_intermediate	n/a	test	ward_and_allport	n/a	-1.0	11.0	n/a	n/a	feedback	s548
296.599	1.816	0	PA_without_intermediate	n/a	test	ward_and_allport	n/a	-1.0	11.0	n/a	n/a	ITI	s548
298.422	6.003	1	PA_with_intermediate	1,2,0,0,0,0,0,0,0	test	ward_and_allport	1,3,0,0,0,0,2,0,0	89.0	12.0	6.003	1,2,3,0,0,0,0,0,0	to_hand	s548
304.426	0.385	0	PA_with_intermediate	1,2,0,3,0,0,0,0,0	test	ward_and_allport	1,3,0,0,0,0,2,0,0	71.0	12.0	0.385	1,2,3,0,0,0,0,0,0	to_board	s548
304.817	1.206	0	PA_with_intermediate	1,0,0,3,0,0,0,0,0	test	ward_and_allport	1,3,0,0,0,0,2,0,0	89.0	12.0	1.206	1,2,3,0,0,0,0,0,0	to_hand	s548
306.024	0.29	0	PA_with_intermediate	1,0,0,3,0,0,2,0,0	test	ward_and_allport	1,3,0,0,0,0,2,0,0	82.0	12.0	0.29	1,2,3,0,0,0,0,0,0	to_board	s548
306.32	0.801	0	PA_with_intermediate	1,0,0,0,0,0,2,0,0	test	ward_and_allport	1,3,0,0,0,0,2,0,0	71.0	12.0	0.801	1,2,3,0,0,0,0,0,0	to_hand	s548
307.122	0.337	0	PA_with_intermediate	1,3,0,0,0,0,2,0,0	test	ward_and_allport	1,3,0,0,0,0,2,0,0	89.0	12.0	0.337	1,2,3,0,0,0,0,0,0	to_board	s548
307.466	1.0	0	PA_with_intermediate	n/a	test	ward_and_allport	n/a	-1.0	12.0	n/a	n/a	feedback	s548
308.466	3.176	0	PA_with_intermediate	n/a	test	ward_and_allport	n/a	-1.0	12.0	n/a	n/a	ITI	s548
311.649	3.965	1	PA_with_intermediate	0,0,0,1,2,0,0,0,0	test	ward_and_allport	2,3,0,1,0,0,0,0,0	71.0	13.0	3.965	0,0,0,1,2,3,0,0,0	to_hand	s548
315.614	0.361	0	PA_with_intermediate	0,0,0,1,2,0,3,0,0	test	ward_and_allport	2,3,0,1,0,0,0,0,0	82.0	13.0	0.361	0,0,0,1,2,3,0,0,0	to_board	s548
315.981	0.553	0	PA_with_intermediate	0,0,0,1,0,0,3,0,0	test	ward_and_allport	2,3,0,1,0,0,0,0,0	71.0	13.0	0.553	0,0,0,1,2,3,0,0,0	to_hand	s548
316.535	0.375	0	PA_with_intermediate	2,0,0,1,0,0,3,0,0	test	ward_and_allport	2,3,0,1,0,0,0,0,0	89.0	13.0	0.375	0,0,0,1,2,3,0,0,0	to_board	s548
316.918	0.561	0	PA_with_intermediate	2,0,0,1,0,0,0,0,0	test	ward_and_allport	2,3,0,1,0,0,0,0,0	82.0	13.0	0.561	0,0,0,1,2,3,0,0,0	to_hand	s548
317.481	0.358	0	PA_with_intermediate	2,3,0,1,0,0,0,0,0	test	ward_and_allport	2,3,0,1,0,0,0,0,0	89.0	13.0	0.358	0,0,0,1,2,3,0,0,0	to_board	s548
317.847	1.0	0	PA_with_intermediate	n/a	test	ward_and_allport	n/a	-1.0	13.0	n/a	n/a	feedback	s548
318.847	2.36	0	PA_with_intermediate	n/a	test	ward_and_allport	n/a	-1.0	13.0	n/a	n/a	ITI	s548
321.213	4.385	1	PA_with_intermediate	0,0,0,1,2,0,0,0,0	test	ward_and_allport	2,0,0,1,3,0,0,0,0	71.0	14.0	4.385	0,0,0,1,2,3,0,0,0	to_hand	s548
325.599	0.367	0	PA_with_intermediate	0,0,0,1,2,0,3,0,0	test	ward_and_allport	2,0,0,1,3,0,0,0,0	82.0	14.0	0.367	0,0,0,1,2,3,0,0,0	to_board	s548
325.973	1.664	0	PA_with_intermediate	0,0,0,1,0,0,3,0,0	test	ward_and_allport	2,0,0,1,3,0,0,0,0	71.0	14.0	1.664	0,0,0,1,2,3,0,0,0	to_hand	s548
327.637	0.274	0	PA_with_intermediate	2,0,0,1,0,0,3,0,0	test	ward_and_allport	2,0,0,1,3,0,0,0,0	89.0	14.0	0.274	0,0,0,1,2,3,0,0,0	to_board	s548
327.919	0.724	0	PA_with_intermediate	2,0,0,1,0,0,0,0,0	test	ward_and_allport	2,0,0,1,3,0,0,0,0	82.0	14.0	0.724	0,0,0,1,2,3,0,0,0	to_hand	s548
328.644	0.308	0	PA_with_intermediate	2,3,0,1,0,0,0,0,0	test	ward_and_allport	2,0,0,1,3,0,0,0,0	89.0	14.0	0.308	0,0,0,1,2,3,0,0,0	to_board	s548
328.958	2.124	0	PA_with_intermediate	2,0,0,1,0,0,0,0,0	test	ward_and_allport	2,0,0,1,3,0,0,0,0	89.0	14.0	2.124	0,0,0,1,2,3,0,0,0	to_hand	s548
331.083	0.653	0	PA_with_intermediate	2,0,0,1,3,0,0,0,0	test	ward_and_allport	2,0,0,1,3,0,0,0,0	71.0	14.0	0.653	0,0,0,1,2,3,0,0,0	to_board	s548
331.745	1.0	0	PA_with_intermediate	n/a	test	ward_and_allport	n/a	-1.0	14.0	n/a	n/a	feedback	s548
332.745	1.0	0	PA_with_intermediate	n/a	test	ward_and_allport	n/a	-1.0	14.0	n/a	n/a	ITI	s548
338.756	4.0	1	PA_without_intermediate	1,2,0,0,0,0,0,0,0	test	ward_and_allport	0,0,0,3,2,0,1,0,0	89.0	15.0	4.0	1,2,3,0,0,0,0,0,0	to_hand	s548
342.756	0.789	0	PA_without_intermediate	1,2,0,3,0,0,0,0,0	test	ward_and_allport	0,0,0,3,2,0,1,0,0	71.0	15.0	0.789	1,2,3,0,0,0,0,0,0	to_board	s548
343.553	0.746	0	PA_without_intermediate	1,0,0,3,0,0,0,0,0	test	ward_and_allport	0,0,0,3,2,0,1,0,0	89.0	15.0	0.746	1,2,3,0,0,0,0,0,0	to_hand	s548
344.3	0.283	0	PA_without_intermediate	1,0,0,3,2,0,0,0,0	test	ward_and_allport	0,0,0,3,2,0,1,0,0	71.0	15.0	0.283	1,2,3,0,0,0,0,0,0	to_board	s548
344.59	0.762	0	PA_without_intermediate	0,0,0,3,2,0,0,0,0	test	ward_and_allport	0,0,0,3,2,0,1,0,0	89.0	15.0	0.762	1,2,3,0,0,0,0,0,0	to_hand	s548
345.353	0.292	0	PA_without_intermediate	0,0,0,3,2,0,1,0,0	test	ward_and_allport	0,0,0,3,2,0,1,0,0	82.0	15.0	0.292	1,2,3,0,0,0,0,0,0	to_board	s548
345.653	1.0	0	PA_without_intermediate	n/a	test	ward_and_allport	n/a	-1.0	15.0	n/a	n/a	feedback	s548
346.653	1.408	0	PA_without_intermediate	n/a	test	ward_and_allport	n/a	-1.0	15.0	n/a	n/a	ITI	s548
348.068	3.067	1	PA_with_intermediate	0,0,0,1,2,0,0,0,0	test	ward_and_allport	0,0,0,1,0,0,2,3,0	71.0	16.0	3.067	0,0,0,1,2,3,0,0,0	to_hand	s548
351.135	0.377	0	PA_with_intermediate	3,0,0,1,2,0,0,0,0	test	ward_and_allport	0,0,0,1,0,0,2,3,0	89.0	16.0	0.377	0,0,0,1,2,3,0,0,0	to_board	s548
351.519	0.777	0	PA_with_intermediate	3,0,0,1,0,0,0,0,0	test	ward_and_allport	0,0,0,1,0,0,2,3,0	71.0	16.0	0.777	0,0,0,1,2,3,0,0,0	to_hand	s548
352.297	0.339	0	PA_with_intermediate	3,0,0,1,0,0,2,0,0	test	ward_and_allport	0,0,0,1,0,0,2,3,0	82.0	16.0	0.339	0,0,0,1,2,3,0,0,0	to_board	s548
352.643	0.881	0	PA_with_intermediate	0,0,0,1,0,0,2,0,0	test	ward_and_allport	0,0,0,1,0,0,2,3,0	89.0	16.0	0.881	0,0,0,1,2,3,0,0,0	to_hand	s548
353.526	0.303	0	PA_with_intermediate	0,0,0,1,0,0,2,3,0	test	ward_and_allport	0,0,0,1,0,0,2,3,0	82.0	16.0	0.303	0,0,0,1,2,3,0,0,0	to_board	s548
353.837	1.0	0	PA_with_intermediate	n/a	test	ward_and_allport	n/a	-1.0	16.0	n/a	n/a	feedback	s548
354.837	1.816	0	PA_with_intermediate	n/a	test	ward_and_allport	n/a	-1.0	16.0	n/a	n/a	ITI	s548
356.661	3.305	1	PA_without_intermediate	0,0,0,1,2,0,0,0,0	test	ward_and_allport	1,0,0,0,0,0,3,2,0	71.0	17.0	3.305	0,0,0,1,2,3,0,0,0	to_hand	s548
359.967	0.28	0	PA_without_intermediate	0,0,0,1,2,0,3,0,0	test	ward_and_allport	1,0,0,0,0,0,3,2,0	82.0	17.0	0.28	0,0,0,1,2,3,0,0,0	to_board	s548
360.254	0.693	0	PA_without_intermediate	0,0,0,1,0,0,3,0,0	test	ward_and_allport	1,0,0,0,0,0,3,2,0	71.0	17.0	0.693	0,0,0,1,2,3,0,0,0	to_hand	s548
360.949	0.279	0	PA_without_intermediate	0,0,0,1,0,0,3,2,0	test	ward_and_allport	1,0,0,0,0,0,3,2,0	82.0	17.0	0.279	0,0,0,1,2,3,0,0,0	to_board	s548
361.235	0.936	0	PA_without_intermediate	0,0,0,0,0,0,3,2,0	test	ward_and_allport	1,0,0,0,0,0,3,2,0	71.0	17.0	0.936	0,0,0,1,2,3,0,0,0	to_hand	s548
362.171	0.35	0	PA_without_intermediate	1,0,0,0,0,0,3,2,0	test	ward_and_allport	1,0,0,0,0,0,3,2,0	89.0	17.0	0.35	0,0,0,1,2,3,0,0,0	to_board	s548
362.53	1.0	0	PA_without_intermediate	n/a	test	ward_and_allport	n/a	-1.0	17.0	n/a	n/a	feedback	s548
363.53	2.088	0	PA_without_intermediate	n/a	test	ward_and_allport	n/a	-1.0	17.0	n/a	n/a	ITI	s548
365.625	3.352	1	PA_without_intermediate	1,2,0,0,0,0,0,0,0	test	ward_and_allport	0,0,0,3,1,0,2,0,0	89.0	18.0	3.352	1,2,3,0,0,0,0,0,0	to_hand	s548
368.978	0.473	0	PA_without_intermediate	1,2,0,3,0,0,0,0,0	test	ward_and_allport	0,0,0,3,1,0,2,0,0	71.0	18.0	0.473	1,2,3,0,0,0,0,0,0	to_board	s548
369.46	1.835	0	PA_without_intermediate	1,0,0,3,0,0,0,0,0	test	ward_and_allport	0,0,0,3,1,0,2,0,0	89.0	18.0	1.835	1,2,3,0,0,0,0,0,0	to_hand	s548
371.296	0.524	0	PA_without_intermediate	1,0,0,3,0,0,2,0,0	test	ward_and_allport	0,0,0,3,1,0,2,0,0	82.0	18.0	0.524	1,2,3,0,0,0,0,0,0	to_board	s548
371.83	0.526	0	PA_without_intermediate	0,0,0,3,0,0,2,0,0	test	ward_and_allport	0,0,0,3,1,0,2,0,0	89.0	18.0	0.526	1,2,3,0,0,0,0,0,0	to_hand	s548
372.356	0.332	0	PA_without_intermediate	0,0,0,3,1,0,2,0,0	test	ward_and_allport	0,0,0,3,1,0,2,0,0	71.0	18.0	0.332	1,2,3,0,0,0,0,0,0	to_board	s548
372.699	1.0	0	PA_without_intermediate	n/a	test	ward_and_allport	n/a	-1.0	18.0	n/a	n/a	feedback	s548
373.699	1.136	0	PA_without_intermediate	n/a	test	ward_and_allport	n/a	-1.0	18.0	n/a	n/a	ITI	s548
374.841	2.865	1	PA_without_intermediate	1,2,0,0,0,0,0,0,0	test	ward_and_allport	0,0,0,1,0,0,3,2,0	89.0	19.0	2.865	1,2,3,0,0,0,0,0,0	to_hand	s548
377.707	0.331	0	PA_without_intermediate	1,2,0,0,0,0,3,0,0	test	ward_and_allport	0,0,0,1,0,0,3,2,0	82.0	19.0	0.331	1,2,3,0,0,0,0,0,0	to_board	s548
378.044	0.59	0	PA_without_intermediate	1,0,0,0,0,0,3,0,0	test	ward_and_allport	0,0,0,1,0,0,3,2,0	89.0	19.0	0.59	1,2,3,0,0,0,0,0,0	to_hand	s548
378.634	0.304	0	PA_without_intermediate	1,0,0,0,0,0,3,2,0	test	ward_and_allport	0,0,0,1,0,0,3,2,0	82.0	19.0	0.304	1,2,3,0,0,0,0,0,0	to_board	s548
378.946	0.852	0	PA_without_intermediate	0,0,0,0,0,0,3,2,0	test	ward_and_allport	0,0,0,1,0,0,3,2,0	89.0	19.0	0.852	1,2,3,0,0,0,0,0,0	to_hand	s548
379.8	0.277	0	PA_without_intermediate	0,0,0,1,0,0,3,2,0	test	ward_and_allport	0,0,0,1,0,0,3,2,0	71.0	19.0	0.277	1,2,3,0,0,0,0,0,0	to_board	s548
380.087	1.0	0	PA_without_intermediate	n/a	test	ward_and_allport	n/a	-1.0	19.0	n/a	n/a	feedback	s548
381.087	6.168	0	PA_without_intermediate	n/a	test	ward_and_allport	n/a	-1.0	19.0	n/a	n/a	ITI	s548
387.265	2.653	1	PA_without_intermediate	1,2,0,0,0,0,0,0,0	test	ward_and_allport	0,0,0,3,1,0,2,0,0	89.0	20.0	2.653	1,2,3,0,0,0,0,0,0	to_hand	s548
389.919	0.29	0	PA_without_intermediate	1,2,0,3,0,0,0,0,0	test	ward_and_allport	0,0,0,3,1,0,2,0,0	71.0	20.0	0.29	1,2,3,0,0,0,0,0,0	to_board	s548
390.218	1.122	0	PA_without_intermediate	1,0,0,3,0,0,0,0,0	test	ward_and_allport	0,0,0,3,1,0,2,0,0	89.0	20.0	1.122	1,2,3,0,0,0,0,0,0	to_hand	s548
391.341	0.282	0	PA_without_intermediate	1,0,0,3,0,0,2,0,0	test	ward_and_allport	0,0,0,3,1,0,2,0,0	82.0	20.0	0.282	1,2,3,0,0,0,0,0,0	to_board	s548
391.631	0.385	0	PA_without_intermediate	0,0,0,3,0,0,2,0,0	test	ward_and_allport	0,0,0,3,1,0,2,0,0	89.0	20.0	0.385	1,2,3,0,0,0,0,0,0	to_hand	s548
392.017	0.3	0	PA_without_intermediate	0,0,0,3,1,0,2,0,0	test	ward_and_allport	0,0,0,3,1,0,2,0,0	71.0	20.0	0.3	1,2,3,0,0,0,0,0,0	to_board	s548
392.329	1.0	0	PA_without_intermediate	n/a	test	ward_and_allport	n/a	-1.0	20.0	n/a	n/a	feedback	s548
393.329	1.816	0	PA_without_intermediate	n/a	test	ward_and_allport	n/a	-1.0	20.0	n/a	n/a	ITI	s548
395.151	5.722	1	PA_with_intermediate	0,0,0,0,0,0,1,2,0	test	ward_and_allport	0,0,0,2,0,0,1,3,0	82.0	21.0	5.722	0,0,0,0,0,0,1,2,3	to_hand	s548
400.875	0.245	0	PA_with_intermediate	3,0,0,0,0,0,1,2,0	test	ward_and_allport	0,0,0,2,0,0,1,3,0	89.0	21.0	0.245	0,0,0,0,0,0,1,2,3	to_board	s548
401.126	1.301	0	PA_with_intermediate	3,0,0,0,0,0,1,0,0	test	ward_and_allport	0,0,0,2,0,0,1,3,0	82.0	21.0	1.301	0,0,0,0,0,0,1,2,3	to_hand	s548
402.428	0.304	0	PA_with_intermediate	3,0,0,2,0,0,1,0,0	test	ward_and_allport	0,0,0,2,0,0,1,3,0	71.0	21.0	0.304	0,0,0,0,0,0,1,2,3	to_board	s548
402.739	0.442	0	PA_with_intermediate	0,0,0,2,0,0,1,0,0	test	ward_and_allport	0,0,0,2,0,0,1,3,0	89.0	21.0	0.442	0,0,0,0,0,0,1,2,3	to_hand	s548
403.182	0.473	0	PA_with_intermediate	0,0,0,2,0,0,1,3,0	test	ward_and_allport	0,0,0,2,0,0,1,3,0	82.0	21.0	0.473	0,0,0,0,0,0,1,2,3	to_board	s548
403.665	1.0	0	PA_with_intermediate	n/a	test	ward_and_allport	n/a	-1.0	21.0	n/a	n/a	feedback	s548
404.665	1.952	0	PA_with_intermediate	n/a	test	ward_and_allport	n/a	-1.0	21.0	n/a	n/a	ITI	s548
406.626	4.541	1	PA_with_intermediate	0,0,0,0,0,0,1,2,0	test	ward_and_allport	2,0,0,0,0,0,1,3,0	82.0	22.0	4.541	0,0,0,0,0,0,1,2,3	to_hand	s548
411.168	0.384	0	PA_with_intermediate	0,0,0,3,0,0,1,2,0	test	ward_and_allport	2,0,0,0,0,0,1,3,0	71.0	22.0	0.384	0,0,0,0,0,0,1,2,3	to_board	s548
411.559	0.786	0	PA_with_intermediate	0,0,0,3,0,0,1,0,0	test	ward_and_allport	2,0,0,0,0,0,1,3,0	82.0	22.0	0.786	0,0,0,0,0,0,1,2,3	to_hand	s548
412.346	0.278	0	PA_with_intermediate	2,0,0,3,0,0,1,0,0	test	ward_and_allport	2,0,0,0,0,0,1,3,0	89.0	22.0	0.278	0,0,0,0,0,0,1,2,3	to_board	s548
412.633	0.753	0	PA_with_intermediate	2,0,0,0,0,0,1,0,0	test	ward_and_allport	2,0,0,0,0,0,1,3,0	71.0	22.0	0.753	0,0,0,0,0,0,1,2,3	to_hand	s548
413.387	0.329	0	PA_with_intermediate	2,0,0,0,0,0,1,3,0	test	ward_and_allport	2,0,0,0,0,0,1,3,0	82.0	22.0	0.329	0,0,0,0,0,0,1,2,3	to_board	s548
413.726	1.0	0	PA_with_intermediate	n/a	test	ward_and_allport	n/a	-1.0	22.0	n/a	n/a	feedback	s548
414.726	1.136	0	PA_with_intermediate	n/a	test	ward_and_allport	n/a	-1.0	22.0	n/a	n/a	ITI	s548
415.872	4.9	1	PA_without_intermediate	0,0,0,0,0,0,1,2,0	test	ward_and_allport	3,1,0,2,0,0,0,0,0	82.0	23.0	4.9	0,0,0,0,0,0,1,2,3	to_hand	s548
420.773	0.246	0	PA_without_intermediate	3,0,0,0,0,0,1,2,0	test	ward_and_allport	3,1,0,2,0,0,0,0,0	89.0	23.0	0.246	0,0,0,0,0,0,1,2,3	to_board	s548
421.025	1.386	0	PA_without_intermediate	3,0,0,0,0,0,1,0,0	test	ward_and_allport	3,1,0,2,0,0,0,0,0	82.0	23.0	1.386	0,0,0,0,0,0,1,2,3	to_hand	s548
422.412	0.335	0	PA_without_intermediate	3,0,0,2,0,0,1,0,0	test	ward_and_allport	3,1,0,2,0,0,0,0,0	71.0	23.0	0.335	0,0,0,0,0,0,1,2,3	to_board	s548
422.756	0.573	0	PA_without_intermediate	3,0,0,2,0,0,0,0,0	test	ward_and_allport	3,1,0,2,0,0,0,0,0	82.0	23.0	0.573	0,0,0,0,0,0,1,2,3	to_hand	s548
423.331	0.253	0	PA_without_intermediate	3,1,0,2,0,0,0,0,0	test	ward_and_allport	3,1,0,2,0,0,0,0,0	89.0	23.0	0.253	0,0,0,0,0,0,1,2,3	to_board	s548
423.594	1.0	0	PA_without_intermediate	n/a	test	ward_and_allport	n/a	-1.0	23.0	n/a	n/a	feedback	s548
424.594	1.68	0	PA_without_intermediate	n/a	test	ward_and_allport	n/a	-1.0	23.0	n/a	n/a	ITI	s548
426.284	4.586	1	PA_without_intermediate	0,0,0,0,0,0,1,2,0	test	ward_and_allport	2,0,0,3,1,0,0,0,0	82.0	24.0	4.586	0,0,0,0,0,0,1,2,3	to_hand	s548
430.871	0.265	0	PA_without_intermediate	3,0,0,0,0,0,1,2,0	test	ward_and_allport	2,0,0,3,1,0,0,0,0	89.0	24.0	0.265	0,0,0,0,0,0,1,2,3	to_board	s548
431.145	0.824	0	PA_without_intermediate	3,0,0,0,0,0,1,0,0	test	ward_and_allport	2,0,0,3,1,0,0,0,0	82.0	24.0	0.824	0,0,0,0,0,0,1,2,3	to_hand	s548
431.97	1.357	0	PA_without_intermediate	3,0,0,0,0,0,1,2,0	test	ward_and_allport	2,0,0,3,1,0,0,0,0	82.0	24.0	1.357	0,0,0,0,0,0,1,2,3	to_board	s548
433.337	0.588	0	PA_without_intermediate	0,0,0,0,0,0,1,2,0	test	ward_and_allport	2,0,0,3,1,0,0,0,0	89.0	24.0	0.588	0,0,0,0,0,0,1,2,3	to_hand	s548
433.926	0.399	0	PA_without_intermediate	0,0,0,3,0,0,1,2,0	test	ward_and_allport	2,0,0,3,1,0,0,0,0	71.0	24.0	0.399	0,0,0,0,0,0,1,2,3	to_board	s548
434.333	1.492	0	PA_without_intermediate	0,0,0,3,0,0,1,0,0	test	ward_and_allport	2,0,0,3,1,0,0,0,0	82.0	24.0	1.492	0,0,0,0,0,0,1,2,3	to_hand	s548
435.826	0.34	0	PA_without_intermediate	2,0,0,3,0,0,1,0,0	test	ward_and_allport	2,0,0,3,1,0,0,0,0	89.0	24.0	0.34	0,0,0,0,0,0,1,2,3	to_board	s548
436.174	0.563	0	PA_without_intermediate	2,0,0,3,0,0,0,0,0	test	ward_and_allport	2,0,0,3,1,0,0,0,0	82.0	24.0	0.563	0,0,0,0,0,0,1,2,3	to_hand	s548
436.739	0.521	0	PA_without_intermediate	2,0,0,3,1,0,0,0,0	test	ward_and_allport	2,0,0,3,1,0,0,0,0	71.0	24.0	0.521	0,0,0,0,0,0,1,2,3	to_board	s548
437.267	1.0	0	PA_without_intermediate	n/a	test	ward_and_allport	n/a	-1.0	24.0	n/a	n/a	feedback	s548
438.267	2.088	0	PA_without_intermediate	n/a	test	ward_and_allport	n/a	-1.0	24.0	n/a	n/a	ITI	s548
440.364	3.629	1	PA_with_intermediate	1,2,0,0,0,0,0,0,0	test	ward_and_allport	1,3,0,2,0,0,0,0,0	89.0	25.0	3.629	1,2,3,0,0,0,0,0,0	to_hand	s548
443.995	0.413	0	PA_with_intermediate	1,2,0,0,0,0,3,0,0	test	ward_and_allport	1,3,0,2,0,0,0,0,0	82.0	25.0	0.413	1,2,3,0,0,0,0,0,0	to_board	s548
444.418	1.003	0	PA_with_intermediate	1,0,0,0,0,0,3,0,0	test	ward_and_allport	1,3,0,2,0,0,0,0,0	89.0	25.0	1.003	1,2,3,0,0,0,0,0,0	to_hand	s548
445.422	0.433	0	PA_with_intermediate	1,0,0,2,0,0,3,0,0	test	ward_and_allport	1,3,0,2,0,0,0,0,0	71.0	25.0	0.433	1,2,3,0,0,0,0,0,0	to_board	s548
445.864	0.773	0	PA_with_intermediate	1,0,0,2,0,0,0,0,0	test	ward_and_allport	1,3,0,2,0,0,0,0,0	82.0	25.0	0.773	1,2,3,0,0,0,0,0,0	to_hand	s548
446.638	0.345	0	PA_with_intermediate	1,3,0,2,0,0,0,0,0	test	ward_and_allport	1,3,0,2,0,0,0,0,0	89.0	25.0	0.345	1,2,3,0,0,0,0,0,0	to_board	s548
446.994	1.0	0	PA_with_intermediate	n/a	test	ward_and_allport	n/a	-1.0	25.0	n/a	n/a	feedback	s548
447.994	1.0	0	PA_with_intermediate	n/a	test	ward_and_allport	n/a	-1.0	25.0	n/a	n/a	ITI	s548
449.003	3.896	1	PA_without_intermediate	0,0,0,1,2,0,0,0,0	test	ward_and_allport	1,0,0,0,0,0,3,2,0	71.0	26.0	3.896	0,0,0,1,2,3,0,0,0	to_hand	s548
452.899	0.296	0	PA_without_intermediate	0,0,0,1,2,0,3,0,0	test	ward_and_allport	1,0,0,0,0,0,3,2,0	82.0	26.0	0.296	0,0,0,1,2,3,0,0,0	to_board	s548
453.204	0.602	0	PA_without_intermediate	0,0,0,1,0,0,3,0,0	test	ward_and_allport	1,0,0,0,0,0,3,2,0	71.0	26.0	0.602	0,0,0,1,2,3,0,0,0	to_hand	s548
453.807	0.238	0	PA_without_intermediate	0,0,0,1,0,0,3,2,0	test	ward_and_allport	1,0,0,0,0,0,3,2,0	82.0	26.0	0.238	0,0,0,1,2,3,0,0,0	to_board	s548
454.054	1.077	0	PA_without_intermediate	0,0,0,0,0,0,3,2,0	test	ward_and_allport	1,0,0,0,0,0,3,2,0	71.0	26.0	1.077	0,0,0,1,2,3,0,0,0	to_hand	s548
455.132	0.353	0	PA_without_intermediate	1,0,0,0,0,0,3,2,0	test	ward_and_allport	1,0,0,0,0,0,3,2,0	89.0	26.0	0.353	0,0,0,1,2,3,0,0,0	to_board	s548
455.496	1.0	0	PA_without_intermediate	n/a	test	ward_and_allport	n/a	-1.0	26.0	n/a	n/a	feedback	s548
456.496	1.0	0	PA_without_intermediate	n/a	test	ward_and_allport	n/a	-1.0	26.0	n/a	n/a	ITI	s548
457.506	3.59	1	PA_without_intermediate	1,2,0,0,0,0,0,0,0	test	ward_and_allport	0,0,0,3,2,0,1,0,0	89.0	27.0	3.59	1,2,3,0,0,0,0,0,0	to_hand	s548
461.097	0.464	0	PA_without_intermediate	1,2,0,3,0,0,0,0,0	test	ward_and_allport	0,0,0,3,2,0,1,0,0	71.0	27.0	0.464	1,2,3,0,0,0,0,0,0	to_board	s548
461.568	0.578	0	PA_without_intermediate	1,0,0,3,0,0,0,0,0	test	ward_and_allport	0,0,0,3,2,0,1,0,0	89.0	27.0	0.578	1,2,3,0,0,0,0,0,0	to_hand	s548
462.147	0.27	0	PA_without_intermediate	1,0,0,3,2,0,0,0,0	test	ward_and_allport	0,0,0,3,2,0,1,0,0	71.0	27.0	0.27	1,2,3,0,0,0,0,0,0	to_board	s548
462.426	0.54	0	PA_without_intermediate	0,0,0,3,2,0,0,0,0	test	ward_and_allport	0,0,0,3,2,0,1,0,0	89.0	27.0	0.54	1,2,3,0,0,0,0,0,0	to_hand	s548
462.968	0.606	0	PA_without_intermediate	0,0,0,3,2,0,1,0,0	test	ward_and_allport	0,0,0,3,2,0,1,0,0	82.0	27.0	0.606	1,2,3,0,0,0,0,0,0	to_board	s548
463.584	1.0	0	PA_without_intermediate	n/a	test	ward_and_allport	n/a	-1.0	27.0	n/a	n/a	feedback	s548
464.584	1.0	0	PA_without_intermediate	n/a	test	ward_and_allport	n/a	-1.0	27.0	n/a	n/a	ITI	s548
465.592	4.206	1	PA_with_intermediate	0,0,0,1,2,0,0,0,0	test	ward_and_allport	0,0,0,1,3,0,2,0,0	71.0	28.0	4.206	0,0,0,1,2,3,0,0,0	to_hand	s548
469.798	0.263	0	PA_with_intermediate	3,0,0,1,2,0,0,0,0	test	ward_and_allport	0,0,0,1,3,0,2,0,0	89.0	28.0	0.263	0,0,0,1,2,3,0,0,0	to_board	s548
470.073	0.449	0	PA_with_intermediate	3,0,0,1,0,0,0,0,0	test	ward_and_allport	0,0,0,1,3,0,2,0,0	71.0	28.0	0.449	0,0,0,1,2,3,0,0,0	to_hand	s548
470.523	0.289	0	PA_with_intermediate	3,0,0,1,0,0,2,0,0	test	ward_and_allport	0,0,0,1,3,0,2,0,0	82.0	28.0	0.289	0,0,0,1,2,3,0,0,0	to_board	s548
470.822	0.885	0	PA_with_intermediate	0,0,0,1,0,0,2,0,0	test	ward_and_allport	0,0,0,1,3,0,2,0,0	89.0	28.0	0.885	0,0,0,1,2,3,0,0,0	to_hand	s548
471.708	0.741	0	PA_with_intermediate	0,0,0,1,3,0,2,0,0	test	ward_and_allport	0,0,0,1,3,0,2,0,0	71.0	28.0	0.741	0,0,0,1,2,3,0,0,0	to_board	s548
472.459	1.0	0	PA_with_intermediate	n/a	test	ward_and_allport	n/a	-1.0	28.0	n/a	n/a	feedback	s548
473.459	1.544	0	PA_with_intermediate	n/a	test	ward_and_allport	n/a	-1.0	28.0	n/a	n/a	ITI	s548
475.01	3.781	1	PA_without_intermediate	0,0,0,0,0,0,1,2,0	test	ward_and_allport	3,1,0,2,0,0,0,0,0	82.0	29.0	3.781	0,0,0,0,0,0,1,2,3	to_hand	s548
478.792	0.292	0	PA_without_intermediate	3,0,0,0,0,0,1,2,0	test	ward_and_allport	3,1,0,2,0,0,0,0,0	89.0	29.0	0.292	0,0,0,0,0,0,1,2,3	to_board	s548
479.091	1.431	0	PA_without_intermediate	3,0,0,0,0,0,1,0,0	test	ward_and_allport	3,1,0,2,0,0,0,0,0	82.0	29.0	1.431	0,0,0,0,0,0,1,2,3	to_hand	s548
480.523	0.331	0	PA_without_intermediate	3,0,0,2,0,0,1,0,0	test	ward_and_allport	3,1,0,2,0,0,0,0,0	71.0	29.0	0.331	0,0,0,0,0,0,1,2,3	to_board	s548
480.864	0.404	0	PA_without_intermediate	3,0,0,2,0,0,0,0,0	test	ward_and_allport	3,1,0,2,0,0,0,0,0	82.0	29.0	0.404	0,0,0,0,0,0,1,2,3	to_hand	s548
481.269	0.306	0	PA_without_intermediate	3,1,0,2,0,0,0,0,0	test	ward_and_allport	3,1,0,2,0,0,0,0,0	89.0	29.0	0.306	0,0,0,0,0,0,1,2,3	to_board	s548
481.586	1.0	0	PA_without_intermediate	n/a	test	ward_and_allport	n/a	-1.0	29.0	n/a	n/a	feedback	s548
482.586	1.272	0	PA_without_intermediate	n/a	test	ward_and_allport	n/a	-1.0	29.0	n/a	n/a	ITI	s548
488.869	3.013	1	PA_with_intermediate	0,0,0,0,0,0,1,2,0	test	ward_and_allport	2,3,0,0,0,0,1,0,0	82.0	30.0	3.013	0,0,0,0,0,0,1,2,3	to_hand	s548
491.884	0.313	0	PA_with_intermediate	0,0,0,3,0,0,1,2,0	test	ward_and_allport	2,3,0,0,0,0,1,0,0	71.0	30.0	0.313	0,0,0,0,0,0,1,2,3	to_board	s548
492.208	3.914	0	PA_with_intermediate	0,0,0,3,0,0,1,0,0	test	ward_and_allport	2,3,0,0,0,0,1,0,0	82.0	30.0	3.914	0,0,0,0,0,0,1,2,3	to_hand	s548
496.123	0.568	0	PA_with_intermediate	2,0,0,3,0,0,1,0,0	test	ward_and_allport	2,3,0,0,0,0,1,0,0	89.0	30.0	0.568	0,0,0,0,0,0,1,2,3	to_board	s548
496.701	1.671	0	PA_with_intermediate	2,0,0,0,0,0,1,0,0	test	ward_and_allport	2,3,0,0,0,0,1,0,0	71.0	30.0	1.671	0,0,0,0,0,0,1,2,3	to_hand	s548
498.372	0.463	0	PA_with_intermediate	2,3,0,0,0,0,1,0,0	test	ward_and_allport	2,3,0,0,0,0,1,0,0	89.0	30.0	0.463	0,0,0,0,0,0,1,2,3	to_board	s548
498.848	1.0	0	PA_with_intermediate	n/a	test	ward_and_allport	n/a	-1.0	30.0	n/a	n/a	feedback	s548
499.848	3.04	0	PA_with_intermediate	n/a	test	ward_and_allport	n/a	-1.0	30.0	n/a	n/a	ITI	s548
502.899	3.144	1	PA_with_intermediate	0,0,0,1,2,0,0,0,0	test	ward_and_allport	0,0,0,1,3,0,2,0,0	71.0	31.0	3.144	0,0,0,1,2,3,0,0,0	to_hand	s548
506.044	0.293	0	PA_with_intermediate	3,0,0,1,2,0,0,0,0	test	ward_and_allport	0,0,0,1,3,0,2,0,0	89.0	31.0	0.293	0,0,0,1,2,3,0,0,0	to_board	s548
506.348	0.593	0	PA_with_intermediate	3,0,0,1,0,0,0,0,0	test	ward_and_allport	0,0,0,1,3,0,2,0,0	71.0	31.0	0.593	0,0,0,1,2,3,0,0,0	to_hand	s548
506.942	0.286	0	PA_with_intermediate	3,0,0,1,0,0,2,0,0	test	ward_and_allport	0,0,0,1,3,0,2,0,0	82.0	31.0	0.286	0,0,0,1,2,3,0,0,0	to_board	s548
507.239	0.762	0	PA_with_intermediate	0,0,0,1,0,0,2,0,0	test	ward_and_allport	0,0,0,1,3,0,2,0,0	89.0	31.0	0.762	0,0,0,1,2,3,0,0,0	to_hand	s548
508.002	0.544	0	PA_with_intermediate	0,0,0,1,3,0,2,0,0	test	ward_and_allport	0,0,0,1,3,0,2,0,0	71.0	31.0	0.544	0,0,0,1,2,3,0,0,0	to_board	s548
508.556	1.0	0	PA_with_intermediate	n/a	test	ward_and_allport	n/a	-1.0	31.0	n/a	n/a	feedback	s548
509.556	1.272	0	PA_with_intermediate	n/a	test	ward_and_allport	n/a	-1.0	31.0	n/a	n/a	ITI	s548
510.838	3.218	1	PA_with_intermediate	0,0,0,1,2,0,0,0,0	test	ward_and_allport	2,0,0,1,3,0,0,0,0	71.0	32.0	3.218	0,0,0,1,2,3,0,0,0	to_hand	s548
514.056	0.24	0	PA_with_intermediate	0,0,0,1,2,0,3,0,0	test	ward_and_allport	2,0,0,1,3,0,0,0,0	82.0	32.0	0.24	0,0,0,1,2,3,0,0,0	to_board	s548
514.303	0.557	0	PA_with_intermediate	0,0,0,1,0,0,3,0,0	test	ward_and_allport	2,0,0,1,3,0,0,0,0	71.0	32.0	0.557	0,0,0,1,2,3,0,0,0	to_hand	s548
514.861	0.275	0	PA_with_intermediate	2,0,0,1,0,0,3,0,0	test	ward_and_allport	2,0,0,1,3,0,0,0,0	89.0	32.0	0.275	0,0,0,1,2,3,0,0,0	to_board	s548
515.144	0.569	0	PA_with_intermediate	2,0,0,1,0,0,0,0,0	test	ward_and_allport	2,0,0,1,3,0,0,0,0	82.0	32.0	0.569	0,0,0,1,2,3,0,0,0	to_hand	s548
515.713	0.715	0	PA_with_intermediate	2,0,0,1,3,0,0,0,0	test	ward_and_allport	2,0,0,1,3,0,0,0,0	71.0	32.0	0.715	0,0,0,1,2,3,0,0,0	to_board	s548
516.436	1.0	0	PA_with_intermediate	n/a	test	ward_and_allport	n/a	-1.0	32.0	n/a	n/a	feedback	s548
517.436	1.136	0	PA_with_intermediate	n/a	test	ward_and_allport	n/a	-1.0	32.0	n/a	n/a	ITI	s548
518.579	4.371	1	PA_with_intermediate	1,2,0,0,0,0,0,0,0	test	ward_and_allport	1,0,0,0,0,0,2,3,0	89.0	33.0	4.371	1,2,3,0,0,0,0,0,0	to_hand	s548
522.952	0.399	0	PA_with_intermediate	1,2,0,3,0,0,0,0,0	test	ward_and_allport	1,0,0,0,0,0,2,3,0	71.0	33.0	0.399	1,2,3,0,0,0,0,0,0	to_board	s548
523.358	0.556	0	PA_with_intermediate	1,0,0,3,0,0,0,0,0	test	ward_and_allport	1,0,0,0,0,0,2,3,0	89.0	33.0	0.556	1,2,3,0,0,0,0,0,0	to_hand	s548
523.915	0.263	0	PA_with_intermediate	1,0,0,3,0,0,2,0,0	test	ward_and_allport	1,0,0,0,0,0,2,3,0	82.0	33.0	0.263	1,2,3,0,0,0,0,0,0	to_board	s548
524.184	0.479	0	PA_with_intermediate	1,0,0,0,0,0,2,0,0	test	ward_and_allport	1,0,0,0,0,0,2,3,0	71.0	33.0	0.479	1,2,3,0,0,0,0,0,0	to_hand	s548
524.664	0.274	0	PA_with_intermediate	1,0,0,0,0,0,2,3,0	test	ward_and_allport	1,0,0,0,0,0,2,3,0	82.0	33.0	0.274	1,2,3,0,0,0,0,0,0	to_board	s548
524.95	1.0	0	PA_with_intermediate	n/a	test	ward_and_allport	n/a	-1.0	33.0	n/a	n/a	feedback	s548
525.95	1.0	0	PA_with_intermediate	n/a	test	ward_and_allport	n/a	-1.0	33.0	n/a	n/a	ITI	s548
526.962	4.772	1	PA_with_intermediate	0,0,0,0,0,0,1,2,0	test	ward_and_allport	2,0,0,0,0,0,1,3,0	82.0	34.0	4.772	0,0,0,0,0,0,1,2,3	to_hand	s548
531.735	0.279	0	PA_with_intermediate	0,0,0,3,0,0,1,2,0	test	ward_and_allport	2,0,0,0,0,0,1,3,0	71.0	34.0	0.279	0,0,0,0,0,0,1,2,3	to_board	s548
532.024	0.595	0	PA_with_intermediate	0,0,0,3,0,0,1,0,0	test	ward_and_allport	2,0,0,0,0,0,1,3,0	82.0	34.0	0.595	0,0,0,0,0,0,1,2,3	to_hand	s548
532.621	0.296	0	PA_with_intermediate	2,0,0,3,0,0,1,0,0	test	ward_and_allport	2,0,0,0,0,0,1,3,0	89.0	34.0	0.296	0,0,0,0,0,0,1,2,3	to_board	s548
532.928	1.166	0	PA_with_intermediate	2,0,0,0,0,0,1,0,0	test	ward_and_allport	2,0,0,0,0,0,1,3,0	71.0	34.0	1.166	0,0,0,0,0,0,1,2,3	to_hand	s548
534.095	0.322	0	PA_with_intermediate	2,0,0,0,0,0,1,3,0	test	ward_and_allport	2,0,0,0,0,0,1,3,0	82.0	34.0	0.322	0,0,0,0,0,0,1,2,3	to_board	s548
534.428	1.0	0	PA_with_intermediate	n/a	test	ward_and_allport	n/a	-1.0	34.0	n/a	n/a	feedback	s548
535.428	1.0	0	PA_with_intermediate	n/a	test	ward_and_allport	n/a	-1.0	34.0	n/a	n/a	ITI	s548
536.437	2.509	1	PA_without_intermediate	0,0,0,0,0,0,1,2,0	test	ward_and_allport	1,0,0,3,2,0,0,0,0	82.0	35.0	2.509	0,0,0,0,0,0,1,2,3	to_hand	s548
538.948	0.239	0	PA_without_intermediate	0,0,0,3,0,0,1,2,0	test	ward_and_allport	1,0,0,3,2,0,0,0,0	71.0	35.0	0.239	0,0,0,0,0,0,1,2,3	to_board	s548
539.196	0.605	0	PA_without_intermediate	0,0,0,3,0,0,1,0,0	test	ward_and_allport	1,0,0,3,2,0,0,0,0	82.0	35.0	0.605	0,0,0,0,0,0,1,2,3	to_hand	s548
539.801	0.219	0	PA_without_intermediate	2,0,0,3,0,0,1,0,0	test	ward_and_allport	1,0,0,3,2,0,0,0,0	89.0	35.0	0.219	0,0,0,0,0,0,1,2,3	to_board	s548
540.028	2.97	0	PA_without_intermediate	0,0,0,3,0,0,1,0,0	test	ward_and_allport	1,0,0,3,2,0,0,0,0	89.0	35.0	2.97	0,0,0,0,0,0,1,2,3	to_hand	s548
543.0	0.198	0	PA_without_intermediate	0,0,0,3,0,0,1,2,0	test	ward_and_allport	1,0,0,3,2,0,0,0,0	82.0	35.0	0.198	0,0,0,0,0,0,1,2,3	to_board	s548
543.205	2.451	0	PA_without_intermediate	0,0,0,3,0,0,1,0,0	test	ward_and_allport	1,0,0,3,2,0,0,0,0	82.0	35.0	2.451	0,0,0,0,0,0,1,2,3	to_hand	s548
545.657	0.39	0	PA_without_intermediate	0,0,0,3,2,0,1,0,0	test	ward_and_allport	1,0,0,3,2,0,0,0,0	71.0	35.0	0.39	0,0,0,0,0,0,1,2,3	to_board	s548
546.058	0.557	0	PA_without_intermediate	0,0,0,3,2,0,0,0,0	test	ward_and_allport	1,0,0,3,2,0,0,0,0	82.0	35.0	0.557	0,0,0,0,0,0,1,2,3	to_hand	s548
546.616	0.214	0	PA_without_intermediate	1,0,0,3,2,0,0,0,0	test	ward_and_allport	1,0,0,3,2,0,0,0,0	89.0	35.0	0.214	0,0,0,0,0,0,1,2,3	to_board	s548
546.844	1.0	0	PA_without_intermediate	n/a	test	ward_and_allport	n/a	-1.0	35.0	n/a	n/a	feedback	s548
547.844	1.408	0	PA_without_intermediate	n/a	test	ward_and_allport	n/a	-1.0	35.0	n/a	n/a	ITI	s548
549.262	3.198	1	PA_with_intermediate	0,0,0,0,0,0,1,2,0	test	ward_and_allport	0,0,0,2,3,0,1,0,0	82.0	36.0	3.198	0,0,0,0,0,0,1,2,3	to_hand	s548
552.462	0.194	0	PA_with_intermediate	3,0,0,0,0,0,1,2,0	test	ward_and_allport	0,0,0,2,3,0,1,0,0	89.0	36.0	0.194	0,0,0,0,0,0,1,2,3	to_board	s548
552.665	1.061	0	PA_with_intermediate	3,0,0,0,0,0,1,0,0	test	ward_and_allport	0,0,0,2,3,0,1,0,0	82.0	36.0	1.061	0,0,0,0,0,0,1,2,3	to_hand	s548
553.726	0.294	0	PA_with_intermediate	3,0,0,2,0,0,1,0,0	test	ward_and_allport	0,0,0,2,3,0,1,0,0	71.0	36.0	0.294	0,0,0,0,0,0,1,2,3	to_board	s548
554.03	3.153	0	PA_with_intermediate	0,0,0,2,0,0,1,0,0	test	ward_and_allport	0,0,0,2,3,0,1,0,0	89.0	36.0	3.153	0,0,0,0,0,0,1,2,3	to_hand	s548
557.184	0.719	0	PA_with_intermediate	0,0,0,2,3,0,1,0,0	test	ward_and_allport	0,0,0,2,3,0,1,0,0	71.0	36.0	0.719	0,0,0,0,0,0,1,2,3	to_board	s548
557.914	1.0	0	PA_with_intermediate	n/a	test	ward_and_allport	n/a	-1.0	36.0	n/a	n/a	feedback	s548
558.914	2.768	0	PA_with_intermediate	n/a	test	ward_and_allport	n/a	-1.0	36.0	n/a	n/a	ITI	s548
n/a	n/a	0	n/a	n/a	n/a	n/a	n/a	n/a	n/a	n/a	n/a	ITI	n/a
