onset	duration	planning	condition	current_position	exp_stage	experiment_exp_id	goal_state	key_press	problem_id	response_time	start_state	trial_id	worker_id
-55.752	0.0	0	n/a	n/a	n/a	ward_and_allport	n/a	32.0	n/a	20.909	n/a	instructions	s533
3.007	3.595	1	UA_with_intermediate	1,0,0,2,0,0,0,0,0	practice	ward_and_allport	1,2,3,0,0,0,0,0,0	71.0	0.0	3.595	1,0,0,2,3,0,0,0,0	to_hand	s533
6.604	1.242	0	UA_with_intermediate	1,0,0,2,0,0,3,0,0	practice	ward_and_allport	1,2,3,0,0,0,0,0,0	82.0	0.0	1.242	1,0,0,2,3,0,0,0,0	to_board	s533
7.847	0.911	0	UA_with_intermediate	1,0,0,0,0,0,3,0,0	practice	ward_and_allport	1,2,3,0,0,0,0,0,0	71.0	0.0	0.911	1,0,0,2,3,0,0,0,0	to_hand	s533
8.759	0.686	0	UA_with_intermediate	1,2,0,0,0,0,3,0,0	practice	ward_and_allport	1,2,3,0,0,0,0,0,0	89.0	0.0	0.686	1,0,0,2,3,0,0,0,0	to_board	s533
9.447	1.115	0	UA_with_intermediate	1,2,0,0,0,0,0,0,0	practice	ward_and_allport	1,2,3,0,0,0,0,0,0	82.0	0.0	1.115	1,0,0,2,3,0,0,0,0	to_hand	s533
10.562	1.943	0	UA_with_intermediate	1,2,3,0,0,0,0,0,0	practice	ward_and_allport	1,2,3,0,0,0,0,0,0	89.0	0.0	1.943	1,0,0,2,3,0,0,0,0	to_board	s533
12.509	1.0	0	UA_with_intermediate	n/a	practice	ward_and_allport	n/a	-1.0	0.0	n/a	n/a	feedback	s533
15.011	3.548	1	UA_with_intermediate	1,2,0,0,0,0,0,0,0	practice	ward_and_allport	1,3,2,0,0,0,0,0,0	71.0	1.0	3.548	1,2,0,3,0,0,0,0,0	to_hand	s533
18.56	4.625	0	UA_with_intermediate	1,2,0,3,0,0,0,0,0	practice	ward_and_allport	1,3,2,0,0,0,0,0,0	71.0	1.0	4.625	1,2,0,3,0,0,0,0,0	to_board	s533
23.188	0.913	0	UA_with_intermediate	1,0,0,3,0,0,0,0,0	practice	ward_and_allport	1,3,2,0,0,0,0,0,0	89.0	1.0	0.913	1,2,0,3,0,0,0,0,0	to_hand	s533
24.102	2.101	0	UA_with_intermediate	1,0,0,3,0,0,2,0,0	practice	ward_and_allport	1,3,2,0,0,0,0,0,0	82.0	1.0	2.101	1,2,0,3,0,0,0,0,0	to_board	s533
26.205	0.804	0	UA_with_intermediate	1,0,0,0,0,0,2,0,0	practice	ward_and_allport	1,3,2,0,0,0,0,0,0	71.0	1.0	0.804	1,2,0,3,0,0,0,0,0	to_hand	s533
27.01	0.673	0	UA_with_intermediate	1,3,0,0,0,0,2,0,0	practice	ward_and_allport	1,3,2,0,0,0,0,0,0	89.0	1.0	0.673	1,2,0,3,0,0,0,0,0	to_board	s533
27.685	1.874	0	UA_with_intermediate	1,3,0,0,0,0,0,0,0	practice	ward_and_allport	1,3,2,0,0,0,0,0,0	82.0	1.0	1.874	1,2,0,3,0,0,0,0,0	to_hand	s533
29.56	0.528	0	UA_with_intermediate	1,3,2,0,0,0,0,0,0	practice	ward_and_allport	1,3,2,0,0,0,0,0,0	89.0	1.0	0.528	1,2,0,3,0,0,0,0,0	to_board	s533
30.091	1.0	0	UA_with_intermediate	n/a	practice	ward_and_allport	n/a	-1.0	1.0	n/a	n/a	feedback	s533
31.091	1.1	0	UA_with_intermediate	n/a	practice	ward_and_allport	n/a	-1.0	1.0	n/a	n/a	ITI	s533
32.192	1.823	1	UA_without_intermediate	0,0,0,1,2,0,0,0,0	practice	ward_and_allport	3,2,1,0,0,0,0,0,0	82.0	2.0	1.823	0,0,0,1,2,0,3,0,0	to_hand	s533
34.017	0.884	0	UA_without_intermediate	3,0,0,1,2,0,0,0,0	practice	ward_and_allport	3,2,1,0,0,0,0,0,0	89.0	2.0	0.884	0,0,0,1,2,0,3,0,0	to_board	s533
34.903	1.934	0	UA_without_intermediate	3,0,0,1,0,0,0,0,0	practice	ward_and_allport	3,2,1,0,0,0,0,0,0	71.0	2.0	1.934	0,0,0,1,2,0,3,0,0	to_hand	s533
36.837	2.19	0	UA_without_intermediate	3,0,0,1,0,0,2,0,0	practice	ward_and_allport	3,2,1,0,0,0,0,0,0	82.0	2.0	2.19	0,0,0,1,2,0,3,0,0	to_board	s533
39.029	0.532	0	UA_without_intermediate	3,0,0,0,0,0,2,0,0	practice	ward_and_allport	3,2,1,0,0,0,0,0,0	71.0	2.0	0.532	0,0,0,1,2,0,3,0,0	to_hand	s533
39.562	0.507	0	UA_without_intermediate	3,1,0,0,0,0,2,0,0	practice	ward_and_allport	3,2,1,0,0,0,0,0,0	89.0	2.0	0.507	0,0,0,1,2,0,3,0,0	to_board	s533
40.07	1.091	0	UA_without_intermediate	3,1,0,0,0,0,0,0,0	practice	ward_and_allport	3,2,1,0,0,0,0,0,0	82.0	2.0	1.091	0,0,0,1,2,0,3,0,0	to_hand	s533
41.162	0.399	0	UA_without_intermediate	3,1,2,0,0,0,0,0,0	practice	ward_and_allport	3,2,1,0,0,0,0,0,0	89.0	2.0	0.399	0,0,0,1,2,0,3,0,0	to_board	s533
41.563	5.179	0	UA_without_intermediate	3,1,0,0,0,0,0,0,0	practice	ward_and_allport	3,2,1,0,0,0,0,0,0	89.0	2.0	5.179	0,0,0,1,2,0,3,0,0	to_hand	s533
46.743	1.529	0	UA_without_intermediate	3,1,0,2,0,0,0,0,0	practice	ward_and_allport	3,2,1,0,0,0,0,0,0	71.0	2.0	1.529	0,0,0,1,2,0,3,0,0	to_board	s533
48.274	1.475	0	UA_without_intermediate	3,1,0,0,0,0,0,0,0	practice	ward_and_allport	3,2,1,0,0,0,0,0,0	71.0	2.0	1.475	0,0,0,1,2,0,3,0,0	to_hand	s533
49.75	0.93	0	UA_without_intermediate	3,1,0,2,0,0,0,0,0	practice	ward_and_allport	3,2,1,0,0,0,0,0,0	71.0	2.0	0.93	0,0,0,1,2,0,3,0,0	to_board	s533
50.681	2.888	0	UA_without_intermediate	3,0,0,2,0,0,0,0,0	practice	ward_and_allport	3,2,1,0,0,0,0,0,0	89.0	2.0	2.888	0,0,0,1,2,0,3,0,0	to_hand	s533
53.57	0.604	0	UA_without_intermediate	3,0,0,2,0,0,1,0,0	practice	ward_and_allport	3,2,1,0,0,0,0,0,0	82.0	2.0	0.604	0,0,0,1,2,0,3,0,0	to_board	s533
54.176	0.596	0	UA_without_intermediate	3,0,0,0,0,0,1,0,0	practice	ward_and_allport	3,2,1,0,0,0,0,0,0	71.0	2.0	0.596	0,0,0,1,2,0,3,0,0	to_hand	s533
54.772	0.552	0	UA_without_intermediate	3,2,0,0,0,0,1,0,0	practice	ward_and_allport	3,2,1,0,0,0,0,0,0	89.0	2.0	0.552	0,0,0,1,2,0,3,0,0	to_board	s533
55.325	2.058	0	UA_without_intermediate	3,2,0,0,0,0,0,0,0	practice	ward_and_allport	3,2,1,0,0,0,0,0,0	82.0	2.0	2.058	0,0,0,1,2,0,3,0,0	to_hand	s533
57.384	0.649	0	UA_without_intermediate	3,2,1,0,0,0,0,0,0	practice	ward_and_allport	3,2,1,0,0,0,0,0,0	89.0	2.0	0.649	0,0,0,1,2,0,3,0,0	to_board	s533
58.035	1.0	0	UA_without_intermediate	n/a	practice	ward_and_allport	n/a	-1.0	2.0	n/a	n/a	feedback	s533
59.035	1.2	0	UA_without_intermediate	n/a	practice	ward_and_allport	n/a	-1.0	2.0	n/a	n/a	ITI	s533
60.237	2.39	1	UA_without_intermediate	0,0,0,1,0,0,3,0,0	practice	ward_and_allport	2,3,1,0,0,0,0,0,0	71.0	3.0	2.39	0,0,0,1,2,0,3,0,0	to_hand	s533
62.627	0.595	0	UA_without_intermediate	2,0,0,1,0,0,3,0,0	practice	ward_and_allport	2,3,1,0,0,0,0,0,0	89.0	3.0	0.595	0,0,0,1,2,0,3,0,0	to_board	s533
63.224	2.082	0	UA_without_intermediate	2,0,0,1,0,0,0,0,0	practice	ward_and_allport	2,3,1,0,0,0,0,0,0	82.0	3.0	2.082	0,0,0,1,2,0,3,0,0	to_hand	s533
65.307	0.754	0	UA_without_intermediate	2,3,0,1,0,0,0,0,0	practice	ward_and_allport	2,3,1,0,0,0,0,0,0	89.0	3.0	0.754	0,0,0,1,2,0,3,0,0	to_board	s533
66.063	0.67	0	UA_without_intermediate	2,3,0,0,0,0,0,0,0	practice	ward_and_allport	2,3,1,0,0,0,0,0,0	71.0	3.0	0.67	0,0,0,1,2,0,3,0,0	to_hand	s533
66.734	0.425	0	UA_without_intermediate	2,3,1,0,0,0,0,0,0	practice	ward_and_allport	2,3,1,0,0,0,0,0,0	89.0	3.0	0.425	0,0,0,1,2,0,3,0,0	to_board	s533
67.164	1.0	0	UA_without_intermediate	n/a	practice	ward_and_allport	n/a	-1.0	3.0	n/a	n/a	feedback	s533
68.164	1.0	0	UA_without_intermediate	n/a	practice	ward_and_allport	n/a	-1.0	3.0	n/a	n/a	ITI	s533
71.17	5.145	1	PA_with_intermediate	0,0,0,0,0,0,1,2,0	test	ward_and_allport	0,0,0,2,0,0,1,3,0	82.0	0.0	5.145	0,0,0,0,0,0,1,2,3	to_hand	s533
76.316	0.623	0	PA_with_intermediate	3,0,0,0,0,0,1,2,0	test	ward_and_allport	0,0,0,2,0,0,1,3,0	89.0	0.0	0.623	0,0,0,0,0,0,1,2,3	to_board	s533
76.942	3.079	0	PA_with_intermediate	3,0,0,0,0,0,1,0,0	test	ward_and_allport	0,0,0,2,0,0,1,3,0	82.0	0.0	3.079	0,0,0,0,0,0,1,2,3	to_hand	s533
80.022	1.123	0	PA_with_intermediate	3,0,0,2,0,0,1,0,0	test	ward_and_allport	0,0,0,2,0,0,1,3,0	71.0	0.0	1.123	0,0,0,0,0,0,1,2,3	to_board	s533
81.147	1.282	0	PA_with_intermediate	3,0,0,0,0,0,1,0,0	test	ward_and_allport	0,0,0,2,0,0,1,3,0	71.0	0.0	1.282	0,0,0,0,0,0,1,2,3	to_hand	s533
82.43	0.803	0	PA_with_intermediate	3,0,0,2,0,0,1,0,0	test	ward_and_allport	0,0,0,2,0,0,1,3,0	71.0	0.0	0.803	0,0,0,0,0,0,1,2,3	to_board	s533
83.236	0.762	0	PA_with_intermediate	0,0,0,2,0,0,1,0,0	test	ward_and_allport	0,0,0,2,0,0,1,3,0	89.0	0.0	0.762	0,0,0,0,0,0,1,2,3	to_hand	s533
83.999	1.155	0	PA_with_intermediate	0,0,0,2,0,0,1,3,0	test	ward_and_allport	0,0,0,2,0,0,1,3,0	82.0	0.0	1.155	0,0,0,0,0,0,1,2,3	to_board	s533
85.157	1.0	0	PA_with_intermediate	n/a	test	ward_and_allport	n/a	-1.0	0.0	n/a	n/a	feedback	s533
86.157	3.176	0	PA_with_intermediate	n/a	test	ward_and_allport	n/a	-1.0	0.0	n/a	n/a	ITI	s533
89.336	3.878	1	PA_with_intermediate	0,0,0,0,0,0,1,2,0	test	ward_and_allport	2,3,0,0,0,0,1,0,0	82.0	1.0	3.878	0,0,0,0,0,0,1,2,3	to_hand	s533
93.214	0.77	0	PA_with_intermediate	0,0,0,3,0,0,1,2,0	test	ward_and_allport	2,3,0,0,0,0,1,0,0	71.0	1.0	0.77	0,0,0,0,0,0,1,2,3	to_board	s533
93.987	1.664	0	PA_with_intermediate	0,0,0,3,0,0,1,0,0	test	ward_and_allport	2,3,0,0,0,0,1,0,0	82.0	1.0	1.664	0,0,0,0,0,0,1,2,3	to_hand	s533
95.652	0.589	0	PA_with_intermediate	2,0,0,3,0,0,1,0,0	test	ward_and_allport	2,3,0,0,0,0,1,0,0	89.0	1.0	0.589	0,0,0,0,0,0,1,2,3	to_board	s533
96.243	0.583	0	PA_with_intermediate	2,0,0,0,0,0,1,0,0	test	ward_and_allport	2,3,0,0,0,0,1,0,0	71.0	1.0	0.583	0,0,0,0,0,0,1,2,3	to_hand	s533
96.827	0.52	0	PA_with_intermediate	2,3,0,0,0,0,1,0,0	test	ward_and_allport	2,3,0,0,0,0,1,0,0	89.0	1.0	0.52	0,0,0,0,0,0,1,2,3	to_board	s533
97.351	1.0	0	PA_with_intermediate	n/a	test	ward_and_allport	n/a	-1.0	1.0	n/a	n/a	feedback	s533
98.351	2.36	0	PA_with_intermediate	n/a	test	ward_and_allport	n/a	-1.0	1.0	n/a	n/a	ITI	s533
100.713	3.907	1	PA_with_intermediate	1,2,0,0,0,0,0,0,0	test	ward_and_allport	1,0,0,2,3,0,0,0,0	89.0	2.0	3.907	1,2,3,0,0,0,0,0,0	to_hand	s533
104.622	1.62	0	PA_with_intermediate	1,2,0,0,0,0,3,0,0	test	ward_and_allport	1,0,0,2,3,0,0,0,0	82.0	2.0	1.62	1,2,3,0,0,0,0,0,0	to_board	s533
106.245	2.169	0	PA_with_intermediate	1,0,0,0,0,0,3,0,0	test	ward_and_allport	1,0,0,2,3,0,0,0,0	89.0	2.0	2.169	1,2,3,0,0,0,0,0,0	to_hand	s533
108.414	0.741	0	PA_with_intermediate	1,0,0,2,0,0,3,0,0	test	ward_and_allport	1,0,0,2,3,0,0,0,0	71.0	2.0	0.741	1,2,3,0,0,0,0,0,0	to_board	s533
109.158	2.164	0	PA_with_intermediate	1,0,0,2,0,0,0,0,0	test	ward_and_allport	1,0,0,2,3,0,0,0,0	82.0	2.0	2.164	1,2,3,0,0,0,0,0,0	to_hand	s533
111.323	0.718	0	PA_with_intermediate	1,0,0,2,3,0,0,0,0	test	ward_and_allport	1,0,0,2,3,0,0,0,0	71.0	2.0	0.718	1,2,3,0,0,0,0,0,0	to_board	s533
112.045	1.0	0	PA_with_intermediate	n/a	test	ward_and_allport	n/a	-1.0	2.0	n/a	n/a	feedback	s533
113.045	1.0	0	PA_with_intermediate	n/a	test	ward_and_allport	n/a	-1.0	2.0	n/a	n/a	ITI	s533
114.048	2.926	1	PA_without_intermediate	0,0,0,1,2,0,0,0,0	test	ward_and_allport	2,0,0,0,0,0,3,1,0	71.0	3.0	2.926	0,0,0,1,2,3,0,0,0	to_hand	s533
116.974	0.779	0	PA_without_intermediate	0,0,0,1,2,0,3,0,0	test	ward_and_allport	2,0,0,0,0,0,3,1,0	82.0	3.0	0.779	0,0,0,1,2,3,0,0,0	to_board	s533
117.756	1.621	0	PA_without_intermediate	0,0,0,1,0,0,3,0,0	test	ward_and_allport	2,0,0,0,0,0,3,1,0	71.0	3.0	1.621	0,0,0,1,2,3,0,0,0	to_hand	s533
119.378	0.618	0	PA_without_intermediate	2,0,0,1,0,0,3,0,0	test	ward_and_allport	2,0,0,0,0,0,3,1,0	89.0	3.0	0.618	0,0,0,1,2,3,0,0,0	to_board	s533
119.998	1.138	0	PA_without_intermediate	2,0,0,0,0,0,3,0,0	test	ward_and_allport	2,0,0,0,0,0,3,1,0	71.0	3.0	1.138	0,0,0,1,2,3,0,0,0	to_hand	s533
121.137	0.641	0	PA_without_intermediate	2,0,0,0,0,0,3,1,0	test	ward_and_allport	2,0,0,0,0,0,3,1,0	82.0	3.0	0.641	0,0,0,1,2,3,0,0,0	to_board	s533
121.782	1.0	0	PA_without_intermediate	n/a	test	ward_and_allport	n/a	-1.0	3.0	n/a	n/a	feedback	s533
122.782	1.408	0	PA_without_intermediate	n/a	test	ward_and_allport	n/a	-1.0	3.0	n/a	n/a	ITI	s533
124.193	2.215	1	PA_with_intermediate	0,0,0,1,2,0,0,0,0	test	ward_and_allport	2,3,0,1,0,0,0,0,0	71.0	4.0	2.215	0,0,0,1,2,3,0,0,0	to_hand	s533
126.409	2.669	0	PA_with_intermediate	0,0,0,1,2,0,3,0,0	test	ward_and_allport	2,3,0,1,0,0,0,0,0	82.0	4.0	2.669	0,0,0,1,2,3,0,0,0	to_board	s533
129.081	0.52	0	PA_with_intermediate	0,0,0,1,0,0,3,0,0	test	ward_and_allport	2,3,0,1,0,0,0,0,0	71.0	4.0	0.52	0,0,0,1,2,3,0,0,0	to_hand	s533
129.602	0.54	0	PA_with_intermediate	2,0,0,1,0,0,3,0,0	test	ward_and_allport	2,3,0,1,0,0,0,0,0	89.0	4.0	0.54	0,0,0,1,2,3,0,0,0	to_board	s533
130.145	0.755	0	PA_with_intermediate	2,0,0,1,0,0,0,0,0	test	ward_and_allport	2,3,0,1,0,0,0,0,0	82.0	4.0	0.755	0,0,0,1,2,3,0,0,0	to_hand	s533
130.902	0.518	0	PA_with_intermediate	2,3,0,1,0,0,0,0,0	test	ward_and_allport	2,3,0,1,0,0,0,0,0	89.0	4.0	0.518	0,0,0,1,2,3,0,0,0	to_board	s533
131.425	1.0	0	PA_with_intermediate	n/a	test	ward_and_allport	n/a	-1.0	4.0	n/a	n/a	feedback	s533
132.425	1.816	0	PA_with_intermediate	n/a	test	ward_and_allport	n/a	-1.0	4.0	n/a	n/a	ITI	s533
134.243	4.298	1	PA_without_intermediate	0,0,0,0,0,0,1,2,0	test	ward_and_allport	1,0,0,3,2,0,0,0,0	82.0	5.0	4.298	0,0,0,0,0,0,1,2,3	to_hand	s533
138.542	0.617	0	PA_without_intermediate	0,0,0,3,0,0,1,2,0	test	ward_and_allport	1,0,0,3,2,0,0,0,0	71.0	5.0	0.617	0,0,0,0,0,0,1,2,3	to_board	s533
139.163	0.807	0	PA_without_intermediate	0,0,0,3,0,0,1,0,0	test	ward_and_allport	1,0,0,3,2,0,0,0,0	82.0	5.0	0.807	0,0,0,0,0,0,1,2,3	to_hand	s533
139.971	0.669	0	PA_without_intermediate	0,0,0,3,2,0,1,0,0	test	ward_and_allport	1,0,0,3,2,0,0,0,0	71.0	5.0	0.669	0,0,0,0,0,0,1,2,3	to_board	s533
140.643	1.361	0	PA_without_intermediate	0,0,0,3,2,0,0,0,0	test	ward_and_allport	1,0,0,3,2,0,0,0,0	82.0	5.0	1.361	0,0,0,0,0,0,1,2,3	to_hand	s533
142.005	0.499	0	PA_without_intermediate	1,0,0,3,2,0,0,0,0	test	ward_and_allport	1,0,0,3,2,0,0,0,0	89.0	5.0	0.499	0,0,0,0,0,0,1,2,3	to_board	s533
142.509	1.0	0	PA_without_intermediate	n/a	test	ward_and_allport	n/a	-1.0	5.0	n/a	n/a	feedback	s533
143.509	2.088	0	PA_without_intermediate	n/a	test	ward_and_allport	n/a	-1.0	5.0	n/a	n/a	ITI	s533
145.6	2.154	1	PA_without_intermediate	0,0,0,0,0,0,1,2,0	test	ward_and_allport	3,1,0,2,0,0,0,0,0	82.0	6.0	2.154	0,0,0,0,0,0,1,2,3	to_hand	s533
147.754	0.558	0	PA_without_intermediate	3,0,0,0,0,0,1,2,0	test	ward_and_allport	3,1,0,2,0,0,0,0,0	89.0	6.0	0.558	0,0,0,0,0,0,1,2,3	to_board	s533
148.315	1.765	0	PA_without_intermediate	3,0,0,0,0,0,1,0,0	test	ward_and_allport	3,1,0,2,0,0,0,0,0	82.0	6.0	1.765	0,0,0,0,0,0,1,2,3	to_hand	s533
150.082	0.428	0	PA_without_intermediate	3,2,0,0,0,0,1,0,0	test	ward_and_allport	3,1,0,2,0,0,0,0,0	89.0	6.0	0.428	0,0,0,0,0,0,1,2,3	to_board	s533
150.513	2.746	0	PA_without_intermediate	3,0,0,0,0,0,1,0,0	test	ward_and_allport	3,1,0,2,0,0,0,0,0	89.0	6.0	2.746	0,0,0,0,0,0,1,2,3	to_hand	s533
153.26	0.544	0	PA_without_intermediate	3,0,0,2,0,0,1,0,0	test	ward_and_allport	3,1,0,2,0,0,0,0,0	71.0	6.0	0.544	0,0,0,0,0,0,1,2,3	to_board	s533
153.808	1.282	0	PA_without_intermediate	3,0,0,2,0,0,0,0,0	test	ward_and_allport	3,1,0,2,0,0,0,0,0	82.0	6.0	1.282	0,0,0,0,0,0,1,2,3	to_hand	s533
155.09	0.884	0	PA_without_intermediate	3,1,0,2,0,0,0,0,0	test	ward_and_allport	3,1,0,2,0,0,0,0,0	89.0	6.0	0.884	0,0,0,0,0,0,1,2,3	to_board	s533
155.98	1.0	0	PA_without_intermediate	n/a	test	ward_and_allport	n/a	-1.0	6.0	n/a	n/a	feedback	s533
156.98	1.136	0	PA_without_intermediate	n/a	test	ward_and_allport	n/a	-1.0	6.0	n/a	n/a	ITI	s533
158.118	7.768	1	PA_without_intermediate	1,2,0,0,0,0,0,0,0	test	ward_and_allport	0,0,0,2,0,0,3,1,0	89.0	7.0	7.768	1,2,3,0,0,0,0,0,0	to_hand	s533
165.887	0.575	0	PA_without_intermediate	1,2,0,0,0,0,3,0,0	test	ward_and_allport	0,0,0,2,0,0,3,1,0	82.0	7.0	0.575	1,2,3,0,0,0,0,0,0	to_board	s533
166.466	1.611	0	PA_without_intermediate	1,0,0,0,0,0,3,0,0	test	ward_and_allport	0,0,0,2,0,0,3,1,0	89.0	7.0	1.611	1,2,3,0,0,0,0,0,0	to_hand	s533
168.078	0.617	0	PA_without_intermediate	1,0,0,2,0,0,3,0,0	test	ward_and_allport	0,0,0,2,0,0,3,1,0	71.0	7.0	0.617	1,2,3,0,0,0,0,0,0	to_board	s533
168.698	0.723	0	PA_without_intermediate	1,0,0,2,0,0,0,0,0	test	ward_and_allport	0,0,0,2,0,0,3,1,0	82.0	7.0	0.723	1,2,3,0,0,0,0,0,0	to_hand	s533
169.421	1.454	0	PA_without_intermediate	1,0,0,2,0,0,3,0,0	test	ward_and_allport	0,0,0,2,0,0,3,1,0	82.0	7.0	1.454	1,2,3,0,0,0,0,0,0	to_board	s533
170.879	0.562	0	PA_without_intermediate	0,0,0,2,0,0,3,0,0	test	ward_and_allport	0,0,0,2,0,0,3,1,0	89.0	7.0	0.562	1,2,3,0,0,0,0,0,0	to_hand	s533
171.441	1.184	0	PA_without_intermediate	0,0,0,2,0,0,3,1,0	test	ward_and_allport	0,0,0,2,0,0,3,1,0	82.0	7.0	1.184	1,2,3,0,0,0,0,0,0	to_board	s533
172.631	1.0	0	PA_without_intermediate	n/a	test	ward_and_allport	n/a	-1.0	7.0	n/a	n/a	feedback	s533
173.631	6.168	0	PA_without_intermediate	n/a	test	ward_and_allport	n/a	-1.0	7.0	n/a	n/a	ITI	s533
179.803	1.933	1	PA_without_intermediate	0,0,0,1,2,0,0,0,0	test	ward_and_allport	3,1,0,0,0,0,2,0,0	71.0	8.0	1.933	0,0,0,1,2,3,0,0,0	to_hand	s533
181.737	0.8	0	PA_without_intermediate	3,0,0,1,2,0,0,0,0	test	ward_and_allport	3,1,0,0,0,0,2,0,0	89.0	8.0	0.8	0,0,0,1,2,3,0,0,0	to_board	s533
182.542	1.024	0	PA_without_intermediate	3,0,0,1,0,0,0,0,0	test	ward_and_allport	3,1,0,0,0,0,2,0,0	71.0	8.0	1.024	0,0,0,1,2,3,0,0,0	to_hand	s533
183.568	0.616	0	PA_without_intermediate	3,0,0,1,0,0,2,0,0	test	ward_and_allport	3,1,0,0,0,0,2,0,0	82.0	8.0	0.616	0,0,0,1,2,3,0,0,0	to_board	s533
184.188	1.659	0	PA_without_intermediate	3,0,0,0,0,0,2,0,0	test	ward_and_allport	3,1,0,0,0,0,2,0,0	71.0	8.0	1.659	0,0,0,1,2,3,0,0,0	to_hand	s533
185.848	0.732	0	PA_without_intermediate	3,1,0,0,0,0,2,0,0	test	ward_and_allport	3,1,0,0,0,0,2,0,0	89.0	8.0	0.732	0,0,0,1,2,3,0,0,0	to_board	s533
186.586	1.0	0	PA_without_intermediate	n/a	test	ward_and_allport	n/a	-1.0	8.0	n/a	n/a	feedback	s533
187.586	1.816	0	PA_without_intermediate	n/a	test	ward_and_allport	n/a	-1.0	8.0	n/a	n/a	ITI	s533
189.406	4.068	1	PA_with_intermediate	0,0,0,1,2,0,0,0,0	test	ward_and_allport	0,0,0,1,3,0,2,0,0	71.0	9.0	4.068	0,0,0,1,2,3,0,0,0	to_hand	s533
193.474	0.648	0	PA_with_intermediate	3,0,0,1,2,0,0,0,0	test	ward_and_allport	0,0,0,1,3,0,2,0,0	89.0	9.0	0.648	0,0,0,1,2,3,0,0,0	to_board	s533
194.127	0.882	0	PA_with_intermediate	3,0,0,1,0,0,0,0,0	test	ward_and_allport	0,0,0,1,3,0,2,0,0	71.0	9.0	0.882	0,0,0,1,2,3,0,0,0	to_hand	s533
195.009	0.549	0	PA_with_intermediate	3,0,0,1,0,0,2,0,0	test	ward_and_allport	0,0,0,1,3,0,2,0,0	82.0	9.0	0.549	0,0,0,1,2,3,0,0,0	to_board	s533
195.563	1.075	0	PA_with_intermediate	0,0,0,1,0,0,2,0,0	test	ward_and_allport	0,0,0,1,3,0,2,0,0	89.0	9.0	1.075	0,0,0,1,2,3,0,0,0	to_hand	s533
196.639	0.746	0	PA_with_intermediate	0,0,0,1,0,0,2,3,0	test	ward_and_allport	0,0,0,1,3,0,2,0,0	82.0	9.0	0.746	0,0,0,1,2,3,0,0,0	to_board	s533
197.389	1.916	0	PA_with_intermediate	0,0,0,1,0,0,2,0,0	test	ward_and_allport	0,0,0,1,3,0,2,0,0	82.0	9.0	1.916	0,0,0,1,2,3,0,0,0	to_hand	s533
199.306	0.542	0	PA_with_intermediate	0,0,0,1,3,0,2,0,0	test	ward_and_allport	0,0,0,1,3,0,2,0,0	71.0	9.0	0.542	0,0,0,1,2,3,0,0,0	to_board	s533
199.854	1.0	0	PA_with_intermediate	n/a	test	ward_and_allport	n/a	-1.0	9.0	n/a	n/a	feedback	s533
200.854	1.952	0	PA_with_intermediate	n/a	test	ward_and_allport	n/a	-1.0	9.0	n/a	n/a	ITI	s533
202.81	3.629	1	PA_with_intermediate	0,0,0,0,0,0,1,2,0	test	ward_and_allport	2,0,0,0,0,0,1,3,0	82.0	10.0	3.629	0,0,0,0,0,0,1,2,3	to_hand	s533
206.439	1.974	0	PA_with_intermediate	0,0,0,3,0,0,1,2,0	test	ward_and_allport	2,0,0,0,0,0,1,3,0	71.0	10.0	1.974	0,0,0,0,0,0,1,2,3	to_board	s533
208.418	1.182	0	PA_with_intermediate	0,0,0,3,0,0,1,0,0	test	ward_and_allport	2,0,0,0,0,0,1,3,0	82.0	10.0	1.182	0,0,0,0,0,0,1,2,3	to_hand	s533
209.601	0.462	0	PA_with_intermediate	2,0,0,3,0,0,1,0,0	test	ward_and_allport	2,0,0,0,0,0,1,3,0	89.0	10.0	0.462	0,0,0,0,0,0,1,2,3	to_board	s533
210.067	0.88	0	PA_with_intermediate	2,0,0,0,0,0,1,0,0	test	ward_and_allport	2,0,0,0,0,0,1,3,0	71.0	10.0	0.88	0,0,0,0,0,0,1,2,3	to_hand	s533
210.948	0.446	0	PA_with_intermediate	2,0,0,0,0,0,1,3,0	test	ward_and_allport	2,0,0,0,0,0,1,3,0	82.0	10.0	0.446	0,0,0,0,0,0,1,2,3	to_board	s533
211.4	1.0	0	PA_with_intermediate	n/a	test	ward_and_allport	n/a	-1.0	10.0	n/a	n/a	feedback	s533
212.4	1.136	0	PA_with_intermediate	n/a	test	ward_and_allport	n/a	-1.0	10.0	n/a	n/a	ITI	s533
213.541	4.207	1	PA_without_intermediate	0,0,0,0,0,0,1,2,0	test	ward_and_allport	1,0,0,3,2,0,0,0,0	82.0	11.0	4.207	0,0,0,0,0,0,1,2,3	to_hand	s533
217.748	0.856	0	PA_without_intermediate	0,0,0,3,0,0,1,2,0	test	ward_and_allport	1,0,0,3,2,0,0,0,0	71.0	11.0	0.856	0,0,0,0,0,0,1,2,3	to_board	s533
218.609	2.516	0	PA_without_intermediate	0,0,0,3,0,0,1,0,0	test	ward_and_allport	1,0,0,3,2,0,0,0,0	82.0	11.0	2.516	0,0,0,0,0,0,1,2,3	to_hand	s533
221.126	0.797	0	PA_without_intermediate	0,0,0,3,2,0,1,0,0	test	ward_and_allport	1,0,0,3,2,0,0,0,0	71.0	11.0	0.797	0,0,0,0,0,0,1,2,3	to_board	s533
221.928	1.032	0	PA_without_intermediate	0,0,0,3,2,0,0,0,0	test	ward_and_allport	1,0,0,3,2,0,0,0,0	82.0	11.0	1.032	0,0,0,0,0,0,1,2,3	to_hand	s533
222.961	0.539	0	PA_without_intermediate	1,0,0,3,2,0,0,0,0	test	ward_and_allport	1,0,0,3,2,0,0,0,0	89.0	11.0	0.539	0,0,0,0,0,0,1,2,3	to_board	s533
223.505	1.0	0	PA_without_intermediate	n/a	test	ward_and_allport	n/a	-1.0	11.0	n/a	n/a	feedback	s533
224.505	1.68	0	PA_without_intermediate	n/a	test	ward_and_allport	n/a	-1.0	11.0	n/a	n/a	ITI	s533
226.189	5.457	1	PA_without_intermediate	1,2,0,0,0,0,0,0,0	test	ward_and_allport	0,0,0,3,1,0,2,0,0	89.0	12.0	5.457	1,2,3,0,0,0,0,0,0	to_hand	s533
231.647	0.607	0	PA_without_intermediate	1,2,0,3,0,0,0,0,0	test	ward_and_allport	0,0,0,3,1,0,2,0,0	71.0	12.0	0.607	1,2,3,0,0,0,0,0,0	to_board	s533
232.258	0.934	0	PA_without_intermediate	1,0,0,3,0,0,0,0,0	test	ward_and_allport	0,0,0,3,1,0,2,0,0	89.0	12.0	0.934	1,2,3,0,0,0,0,0,0	to_hand	s533
233.193	0.471	0	PA_without_intermediate	1,0,0,3,0,0,2,0,0	test	ward_and_allport	0,0,0,3,1,0,2,0,0	82.0	12.0	0.471	1,2,3,0,0,0,0,0,0	to_board	s533
233.668	0.544	0	PA_without_intermediate	0,0,0,3,0,0,2,0,0	test	ward_and_allport	0,0,0,3,1,0,2,0,0	89.0	12.0	0.544	1,2,3,0,0,0,0,0,0	to_hand	s533
234.213	0.739	0	PA_without_intermediate	0,0,0,3,1,0,2,0,0	test	ward_and_allport	0,0,0,3,1,0,2,0,0	71.0	12.0	0.739	1,2,3,0,0,0,0,0,0	to_board	s533
234.957	1.0	0	PA_without_intermediate	n/a	test	ward_and_allport	n/a	-1.0	12.0	n/a	n/a	feedback	s533
235.957	2.088	0	PA_without_intermediate	n/a	test	ward_and_allport	n/a	-1.0	12.0	n/a	n/a	ITI	s533
238.05	2.951	1	PA_with_intermediate	1,2,0,0,0,0,0,0,0	test	ward_and_allport	1,0,0,2,3,0,0,0,0	89.0	13.0	2.951	1,2,3,0,0,0,0,0,0	to_hand	s533
241.002	0.465	0	PA_with_intermediate	1,2,0,0,0,0,3,0,0	test	ward_and_allport	1,0,0,2,3,0,0,0,0	82.0	13.0	0.465	1,2,3,0,0,0,0,0,0	to_board	s533
241.471	1.322	0	PA_with_intermediate	1,0,0,0,0,0,3,0,0	test	ward_and_allport	1,0,0,2,3,0,0,0,0	89.0	13.0	1.322	1,2,3,0,0,0,0,0,0	to_hand	s533
242.794	0.501	0	PA_with_intermediate	1,0,0,2,0,0,3,0,0	test	ward_and_allport	1,0,0,2,3,0,0,0,0	71.0	13.0	0.501	1,2,3,0,0,0,0,0,0	to_board	s533
243.299	1.349	0	PA_with_intermediate	1,0,0,2,0,0,0,0,0	test	ward_and_allport	1,0,0,2,3,0,0,0,0	82.0	13.0	1.349	1,2,3,0,0,0,0,0,0	to_hand	s533
244.649	0.547	0	PA_with_intermediate	1,0,0,2,3,0,0,0,0	test	ward_and_allport	1,0,0,2,3,0,0,0,0	71.0	13.0	0.547	1,2,3,0,0,0,0,0,0	to_board	s533
245.202	1.0	0	PA_with_intermediate	n/a	test	ward_and_allport	n/a	-1.0	13.0	n/a	n/a	feedback	s533
246.202	1.0	0	PA_with_intermediate	n/a	test	ward_and_allport	n/a	-1.0	13.0	n/a	n/a	ITI	s533
247.208	3.762	1	PA_without_intermediate	1,2,0,0,0,0,0,0,0	test	ward_and_allport	0,0,0,1,0,0,3,2,0	89.0	14.0	3.762	1,2,3,0,0,0,0,0,0	to_hand	s533
250.97	0.636	0	PA_without_intermediate	1,2,0,0,0,0,3,0,0	test	ward_and_allport	0,0,0,1,0,0,3,2,0	82.0	14.0	0.636	1,2,3,0,0,0,0,0,0	to_board	s533
251.611	1.879	0	PA_without_intermediate	1,0,0,0,0,0,3,0,0	test	ward_and_allport	0,0,0,1,0,0,3,2,0	89.0	14.0	1.879	1,2,3,0,0,0,0,0,0	to_hand	s533
253.491	0.617	0	PA_without_intermediate	1,0,0,0,0,0,3,2,0	test	ward_and_allport	0,0,0,1,0,0,3,2,0	82.0	14.0	0.617	1,2,3,0,0,0,0,0,0	to_board	s533
254.112	1.744	0	PA_without_intermediate	0,0,0,0,0,0,3,2,0	test	ward_and_allport	0,0,0,1,0,0,3,2,0	89.0	14.0	1.744	1,2,3,0,0,0,0,0,0	to_hand	s533
255.857	0.511	0	PA_without_intermediate	0,0,0,1,0,0,3,2,0	test	ward_and_allport	0,0,0,1,0,0,3,2,0	71.0	14.0	0.511	1,2,3,0,0,0,0,0,0	to_board	s533
256.374	1.0	0	PA_without_intermediate	n/a	test	ward_and_allport	n/a	-1.0	14.0	n/a	n/a	feedback	s533
257.374	1.0	0	PA_without_intermediate	n/a	test	ward_and_allport	n/a	-1.0	14.0	n/a	n/a	ITI	s533
263.383	3.807	1	PA_without_intermediate	0,0,0,1,2,0,0,0,0	test	ward_and_allport	1,0,0,0,0,0,3,2,0	71.0	15.0	3.807	0,0,0,1,2,3,0,0,0	to_hand	s533
267.191	0.493	0	PA_without_intermediate	0,0,0,1,2,0,3,0,0	test	ward_and_allport	1,0,0,0,0,0,3,2,0	82.0	15.0	0.493	0,0,0,1,2,3,0,0,0	to_board	s533
267.689	1.075	0	PA_without_intermediate	0,0,0,1,0,0,3,0,0	test	ward_and_allport	1,0,0,0,0,0,3,2,0	71.0	15.0	1.075	0,0,0,1,2,3,0,0,0	to_hand	s533
268.765	0.703	0	PA_without_intermediate	0,0,0,1,0,0,3,2,0	test	ward_and_allport	1,0,0,0,0,0,3,2,0	82.0	15.0	0.703	0,0,0,1,2,3,0,0,0	to_board	s533
269.473	2.707	0	PA_without_intermediate	0,0,0,0,0,0,3,2,0	test	ward_and_allport	1,0,0,0,0,0,3,2,0	71.0	15.0	2.707	0,0,0,1,2,3,0,0,0	to_hand	s533
272.18	0.64	0	PA_without_intermediate	1,0,0,0,0,0,3,2,0	test	ward_and_allport	1,0,0,0,0,0,3,2,0	89.0	15.0	0.64	0,0,0,1,2,3,0,0,0	to_board	s533
272.826	1.0	0	PA_without_intermediate	n/a	test	ward_and_allport	n/a	-1.0	15.0	n/a	n/a	feedback	s533
273.826	1.0	0	PA_without_intermediate	n/a	test	ward_and_allport	n/a	-1.0	15.0	n/a	n/a	ITI	s533
274.831	3.672	1	PA_with_intermediate	0,0,0,0,0,0,1,2,0	test	ward_and_allport	0,0,0,2,0,0,1,3,0	82.0	16.0	3.672	0,0,0,0,0,0,1,2,3	to_hand	s533
278.504	1.02	0	PA_with_intermediate	0,0,0,3,0,0,1,2,0	test	ward_and_allport	0,0,0,2,0,0,1,3,0	71.0	16.0	1.02	0,0,0,0,0,0,1,2,3	to_board	s533
279.528	2.253	0	PA_with_intermediate	0,0,0,3,0,0,1,0,0	test	ward_and_allport	0,0,0,2,0,0,1,3,0	82.0	16.0	2.253	0,0,0,0,0,0,1,2,3	to_hand	s533
281.782	2.361	0	PA_with_intermediate	0,0,0,3,0,0,1,2,0	test	ward_and_allport	0,0,0,2,0,0,1,3,0	82.0	16.0	2.361	0,0,0,0,0,0,1,2,3	to_board	s533
284.149	1.27	0	PA_with_intermediate	0,0,0,0,0,0,1,2,0	test	ward_and_allport	0,0,0,2,0,0,1,3,0	71.0	16.0	1.27	0,0,0,0,0,0,1,2,3	to_hand	s533
285.419	0.642	0	PA_with_intermediate	3,0,0,0,0,0,1,2,0	test	ward_and_allport	0,0,0,2,0,0,1,3,0	89.0	16.0	0.642	0,0,0,0,0,0,1,2,3	to_board	s533
286.066	0.878	0	PA_with_intermediate	3,0,0,0,0,0,1,0,0	test	ward_and_allport	0,0,0,2,0,0,1,3,0	82.0	16.0	0.878	0,0,0,0,0,0,1,2,3	to_hand	s533
286.945	0.523	0	PA_with_intermediate	3,0,0,2,0,0,1,0,0	test	ward_and_allport	0,0,0,2,0,0,1,3,0	71.0	16.0	0.523	0,0,0,0,0,0,1,2,3	to_board	s533
287.474	1.619	0	PA_with_intermediate	0,0,0,2,0,0,1,0,0	test	ward_and_allport	0,0,0,2,0,0,1,3,0	89.0	16.0	1.619	0,0,0,0,0,0,1,2,3	to_hand	s533
289.094	0.567	0	PA_with_intermediate	0,0,0,2,0,0,1,3,0	test	ward_and_allport	0,0,0,2,0,0,1,3,0	82.0	16.0	0.567	0,0,0,0,0,0,1,2,3	to_board	s533
289.667	1.0	0	PA_with_intermediate	n/a	test	ward_and_allport	n/a	-1.0	16.0	n/a	n/a	feedback	s533
290.667	1.544	0	PA_with_intermediate	n/a	test	ward_and_allport	n/a	-1.0	16.0	n/a	n/a	ITI	s533
292.215	3.904	1	PA_without_intermediate	1,2,0,0,0,0,0,0,0	test	ward_and_allport	0,0,0,3,1,0,2,0,0	89.0	17.0	3.904	1,2,3,0,0,0,0,0,0	to_hand	s533
296.12	1.563	0	PA_without_intermediate	1,2,0,3,0,0,0,0,0	test	ward_and_allport	0,0,0,3,1,0,2,0,0	71.0	17.0	1.563	1,2,3,0,0,0,0,0,0	to_board	s533
297.688	0.914	0	PA_without_intermediate	1,0,0,3,0,0,0,0,0	test	ward_and_allport	0,0,0,3,1,0,2,0,0	89.0	17.0	0.914	1,2,3,0,0,0,0,0,0	to_hand	s533
298.604	0.743	0	PA_without_intermediate	1,0,0,3,0,0,2,0,0	test	ward_and_allport	0,0,0,3,1,0,2,0,0	82.0	17.0	0.743	1,2,3,0,0,0,0,0,0	to_board	s533
299.351	0.775	0	PA_without_intermediate	0,0,0,3,0,0,2,0,0	test	ward_and_allport	0,0,0,3,1,0,2,0,0	89.0	17.0	0.775	1,2,3,0,0,0,0,0,0	to_hand	s533
300.128	0.672	0	PA_without_intermediate	0,0,0,3,1,0,2,0,0	test	ward_and_allport	0,0,0,3,1,0,2,0,0	71.0	17.0	0.672	1,2,3,0,0,0,0,0,0	to_board	s533
300.806	1.0	0	PA_without_intermediate	n/a	test	ward_and_allport	n/a	-1.0	17.0	n/a	n/a	feedback	s533
301.806	1.272	0	PA_without_intermediate	n/a	test	ward_and_allport	n/a	-1.0	17.0	n/a	n/a	ITI	s533
303.083	2.705	1	PA_with_intermediate	0,0,0,0,0,0,1,2,0	test	ward_and_allport	2,3,0,0,0,0,1,0,0	82.0	18.0	2.705	0,0,0,0,0,0,1,2,3	to_hand	s533
305.788	0.528	0	PA_with_intermediate	0,0,0,3,0,0,1,2,0	test	ward_and_allport	2,3,0,0,0,0,1,0,0	71.0	18.0	0.528	0,0,0,0,0,0,1,2,3	to_board	s533
306.32	1.319	0	PA_with_intermediate	0,0,0,3,0,0,1,0,0	test	ward_and_allport	2,3,0,0,0,0,1,0,0	82.0	18.0	1.319	0,0,0,0,0,0,1,2,3	to_hand	s533
307.641	0.669	0	PA_with_intermediate	2,0,0,3,0,0,1,0,0	test	ward_and_allport	2,3,0,0,0,0,1,0,0	89.0	18.0	0.669	0,0,0,0,0,0,1,2,3	to_board	s533
308.315	1.203	0	PA_with_intermediate	2,0,0,0,0,0,1,0,0	test	ward_and_allport	2,3,0,0,0,0,1,0,0	71.0	18.0	1.203	0,0,0,0,0,0,1,2,3	to_hand	s533
309.519	0.562	0	PA_with_intermediate	2,3,0,0,0,0,1,0,0	test	ward_and_allport	2,3,0,0,0,0,1,0,0	89.0	18.0	0.562	0,0,0,0,0,0,1,2,3	to_board	s533
310.087	1.0	0	PA_with_intermediate	n/a	test	ward_and_allport	n/a	-1.0	18.0	n/a	n/a	feedback	s533
311.087	3.04	0	PA_with_intermediate	n/a	test	ward_and_allport	n/a	-1.0	18.0	n/a	n/a	ITI	s533
314.133	2.87	1	PA_with_intermediate	1,2,0,0,0,0,0,0,0	test	ward_and_allport	1,0,0,0,0,0,2,3,0	89.0	19.0	2.87	1,2,3,0,0,0,0,0,0	to_hand	s533
317.004	0.93	0	PA_with_intermediate	1,2,0,3,0,0,0,0,0	test	ward_and_allport	1,0,0,0,0,0,2,3,0	71.0	19.0	0.93	1,2,3,0,0,0,0,0,0	to_board	s533
317.94	0.782	0	PA_with_intermediate	1,0,0,3,0,0,0,0,0	test	ward_and_allport	1,0,0,0,0,0,2,3,0	89.0	19.0	0.782	1,2,3,0,0,0,0,0,0	to_hand	s533
318.724	0.841	0	PA_with_intermediate	1,0,0,3,0,0,2,0,0	test	ward_and_allport	1,0,0,0,0,0,2,3,0	82.0	19.0	0.841	1,2,3,0,0,0,0,0,0	to_board	s533
319.571	0.574	0	PA_with_intermediate	1,0,0,0,0,0,2,0,0	test	ward_and_allport	1,0,0,0,0,0,2,3,0	71.0	19.0	0.574	1,2,3,0,0,0,0,0,0	to_hand	s533
320.146	0.584	0	PA_with_intermediate	1,0,0,0,0,0,2,3,0	test	ward_and_allport	1,0,0,0,0,0,2,3,0	82.0	19.0	0.584	1,2,3,0,0,0,0,0,0	to_board	s533
320.737	1.0	0	PA_with_intermediate	n/a	test	ward_and_allport	n/a	-1.0	19.0	n/a	n/a	feedback	s533
321.737	1.272	0	PA_with_intermediate	n/a	test	ward_and_allport	n/a	-1.0	19.0	n/a	n/a	ITI	s533
323.015	2.279	1	PA_with_intermediate	0,0,0,1,2,0,0,0,0	test	ward_and_allport	2,0,0,1,3,0,0,0,0	71.0	20.0	2.279	0,0,0,1,2,3,0,0,0	to_hand	s533
325.296	1.309	0	PA_with_intermediate	0,0,0,1,2,0,3,0,0	test	ward_and_allport	2,0,0,1,3,0,0,0,0	82.0	20.0	1.309	0,0,0,1,2,3,0,0,0	to_board	s533
326.611	0.75	0	PA_with_intermediate	0,0,0,1,0,0,3,0,0	test	ward_and_allport	2,0,0,1,3,0,0,0,0	71.0	20.0	0.75	0,0,0,1,2,3,0,0,0	to_hand	s533
327.363	0.745	0	PA_with_intermediate	2,0,0,1,0,0,3,0,0	test	ward_and_allport	2,0,0,1,3,0,0,0,0	89.0	20.0	0.745	0,0,0,1,2,3,0,0,0	to_board	s533
328.115	0.662	0	PA_with_intermediate	2,0,0,1,0,0,0,0,0	test	ward_and_allport	2,0,0,1,3,0,0,0,0	82.0	20.0	0.662	0,0,0,1,2,3,0,0,0	to_hand	s533
328.777	0.487	0	PA_with_intermediate	2,0,0,1,3,0,0,0,0	test	ward_and_allport	2,0,0,1,3,0,0,0,0	71.0	20.0	0.487	0,0,0,1,2,3,0,0,0	to_board	s533
329.272	1.0	0	PA_with_intermediate	n/a	test	ward_and_allport	n/a	-1.0	20.0	n/a	n/a	feedback	s533
330.272	1.136	0	PA_with_intermediate	n/a	test	ward_and_allport	n/a	-1.0	20.0	n/a	n/a	ITI	s533
331.414	1.938	1	PA_with_intermediate	0,0,0,1,2,0,0,0,0	test	ward_and_allport	0,0,0,1,0,0,2,3,0	71.0	21.0	1.938	0,0,0,1,2,3,0,0,0	to_hand	s533
333.352	1.294	0	PA_with_intermediate	3,0,0,1,2,0,0,0,0	test	ward_and_allport	0,0,0,1,0,0,2,3,0	89.0	21.0	1.294	0,0,0,1,2,3,0,0,0	to_board	s533
334.652	0.896	0	PA_with_intermediate	3,0,0,1,0,0,0,0,0	test	ward_and_allport	0,0,0,1,0,0,2,3,0	71.0	21.0	0.896	0,0,0,1,2,3,0,0,0	to_hand	s533
335.549	0.563	0	PA_with_intermediate	3,0,0,1,0,0,2,0,0	test	ward_and_allport	0,0,0,1,0,0,2,3,0	82.0	21.0	0.563	0,0,0,1,2,3,0,0,0	to_board	s533
336.118	0.81	0	PA_with_intermediate	0,0,0,1,0,0,2,0,0	test	ward_and_allport	0,0,0,1,0,0,2,3,0	89.0	21.0	0.81	0,0,0,1,2,3,0,0,0	to_hand	s533
336.929	0.616	0	PA_with_intermediate	0,0,0,1,0,0,2,3,0	test	ward_and_allport	0,0,0,1,0,0,2,3,0	82.0	21.0	0.616	0,0,0,1,2,3,0,0,0	to_board	s533
337.552	1.0	0	PA_with_intermediate	n/a	test	ward_and_allport	n/a	-1.0	21.0	n/a	n/a	feedback	s533
338.552	1.0	0	PA_with_intermediate	n/a	test	ward_and_allport	n/a	-1.0	21.0	n/a	n/a	ITI	s533
339.56	1.242	1	PA_with_intermediate	0,0,0,1,2,0,0,0,0	test	ward_and_allport	2,3,0,1,0,0,0,0,0	71.0	22.0	1.242	0,0,0,1,2,3,0,0,0	to_hand	s533
340.803	1.341	0	PA_with_intermediate	0,0,0,1,2,0,3,0,0	test	ward_and_allport	2,3,0,1,0,0,0,0,0	82.0	22.0	1.341	0,0,0,1,2,3,0,0,0	to_board	s533
342.15	0.615	0	PA_with_intermediate	0,0,0,1,0,0,3,0,0	test	ward_and_allport	2,3,0,1,0,0,0,0,0	71.0	22.0	0.615	0,0,0,1,2,3,0,0,0	to_hand	s533
342.766	0.768	0	PA_with_intermediate	2,0,0,1,0,0,3,0,0	test	ward_and_allport	2,3,0,1,0,0,0,0,0	89.0	22.0	0.768	0,0,0,1,2,3,0,0,0	to_board	s533
343.541	0.792	0	PA_with_intermediate	2,0,0,1,0,0,0,0,0	test	ward_and_allport	2,3,0,1,0,0,0,0,0	82.0	22.0	0.792	0,0,0,1,2,3,0,0,0	to_hand	s533
344.334	0.814	0	PA_with_intermediate	2,3,0,1,0,0,0,0,0	test	ward_and_allport	2,3,0,1,0,0,0,0,0	89.0	22.0	0.814	0,0,0,1,2,3,0,0,0	to_board	s533
345.156	1.0	0	PA_with_intermediate	n/a	test	ward_and_allport	n/a	-1.0	22.0	n/a	n/a	feedback	s533
346.156	1.0	0	PA_with_intermediate	n/a	test	ward_and_allport	n/a	-1.0	22.0	n/a	n/a	ITI	s533
347.164	3.435	1	PA_without_intermediate	0,0,0,1,2,0,0,0,0	test	ward_and_allport	3,1,0,0,0,0,2,0,0	71.0	23.0	3.435	0,0,0,1,2,3,0,0,0	to_hand	s533
350.599	0.917	0	PA_without_intermediate	3,0,0,1,2,0,0,0,0	test	ward_and_allport	3,1,0,0,0,0,2,0,0	89.0	23.0	0.917	0,0,0,1,2,3,0,0,0	to_board	s533
351.522	1.214	0	PA_without_intermediate	3,0,0,1,0,0,0,0,0	test	ward_and_allport	3,1,0,0,0,0,2,0,0	71.0	23.0	1.214	0,0,0,1,2,3,0,0,0	to_hand	s533
352.738	0.634	0	PA_without_intermediate	3,0,0,1,0,0,2,0,0	test	ward_and_allport	3,1,0,0,0,0,2,0,0	82.0	23.0	0.634	0,0,0,1,2,3,0,0,0	to_board	s533
353.379	0.842	0	PA_without_intermediate	3,0,0,0,0,0,2,0,0	test	ward_and_allport	3,1,0,0,0,0,2,0,0	71.0	23.0	0.842	0,0,0,1,2,3,0,0,0	to_hand	s533
354.221	0.554	0	PA_without_intermediate	3,1,0,0,0,0,2,0,0	test	ward_and_allport	3,1,0,0,0,0,2,0,0	89.0	23.0	0.554	0,0,0,1,2,3,0,0,0	to_board	s533
354.784	1.0	0	PA_without_intermediate	n/a	test	ward_and_allport	n/a	-1.0	23.0	n/a	n/a	feedback	s533
355.784	1.408	0	PA_without_intermediate	n/a	test	ward_and_allport	n/a	-1.0	23.0	n/a	n/a	ITI	s533
357.199	2.403	1	PA_with_intermediate	0,0,0,1,2,0,0,0,0	test	ward_and_allport	0,0,0,1,3,0,2,0,0	71.0	24.0	2.403	0,0,0,1,2,3,0,0,0	to_hand	s533
359.602	1.315	0	PA_with_intermediate	3,0,0,1,2,0,0,0,0	test	ward_and_allport	0,0,0,1,3,0,2,0,0	89.0	24.0	1.315	0,0,0,1,2,3,0,0,0	to_board	s533
360.924	0.764	0	PA_with_intermediate	3,0,0,1,0,0,0,0,0	test	ward_and_allport	0,0,0,1,3,0,2,0,0	71.0	24.0	0.764	0,0,0,1,2,3,0,0,0	to_hand	s533
361.689	0.49	0	PA_with_intermediate	3,0,0,1,0,0,2,0,0	test	ward_and_allport	0,0,0,1,3,0,2,0,0	82.0	24.0	0.49	0,0,0,1,2,3,0,0,0	to_board	s533
362.185	0.802	0	PA_with_intermediate	3,0,0,0,0,0,2,0,0	test	ward_and_allport	0,0,0,1,3,0,2,0,0	71.0	24.0	0.802	0,0,0,1,2,3,0,0,0	to_hand	s533
362.988	0.767	0	PA_with_intermediate	3,1,0,0,0,0,2,0,0	test	ward_and_allport	0,0,0,1,3,0,2,0,0	89.0	24.0	0.767	0,0,0,1,2,3,0,0,0	to_board	s533
363.762	3.18	0	PA_with_intermediate	3,0,0,0,0,0,2,0,0	test	ward_and_allport	0,0,0,1,3,0,2,0,0	89.0	24.0	3.18	0,0,0,1,2,3,0,0,0	to_hand	s533
366.943	2.593	0	PA_with_intermediate	3,0,0,1,0,0,2,0,0	test	ward_and_allport	0,0,0,1,3,0,2,0,0	71.0	24.0	2.593	0,0,0,1,2,3,0,0,0	to_board	s533
369.544	1.109	0	PA_with_intermediate	0,0,0,1,0,0,2,0,0	test	ward_and_allport	0,0,0,1,3,0,2,0,0	89.0	24.0	1.109	0,0,0,1,2,3,0,0,0	to_hand	s533
370.654	0.744	0	PA_with_intermediate	0,0,0,1,0,0,2,3,0	test	ward_and_allport	0,0,0,1,3,0,2,0,0	82.0	24.0	0.744	0,0,0,1,2,3,0,0,0	to_board	s533
371.405	0.587	0	PA_with_intermediate	0,0,0,0,0,0,2,3,0	test	ward_and_allport	0,0,0,1,3,0,2,0,0	71.0	24.0	0.587	0,0,0,1,2,3,0,0,0	to_hand	s533
371.992	2.053	0	PA_with_intermediate	0,0,0,1,0,0,2,3,0	test	ward_and_allport	0,0,0,1,3,0,2,0,0	71.0	24.0	2.053	0,0,0,1,2,3,0,0,0	to_board	s533
374.053	1.79	0	PA_with_intermediate	0,0,0,1,0,0,2,0,0	test	ward_and_allport	0,0,0,1,3,0,2,0,0	82.0	24.0	1.79	0,0,0,1,2,3,0,0,0	to_hand	s533
375.844	0.664	0	PA_with_intermediate	0,0,0,1,3,0,2,0,0	test	ward_and_allport	0,0,0,1,3,0,2,0,0	71.0	24.0	0.664	0,0,0,1,2,3,0,0,0	to_board	s533
376.517	1.0	0	PA_with_intermediate	n/a	test	ward_and_allport	n/a	-1.0	24.0	n/a	n/a	feedback	s533
377.517	2.768	0	PA_with_intermediate	n/a	test	ward_and_allport	n/a	-1.0	24.0	n/a	n/a	ITI	s533
380.3	3.215	1	PA_with_intermediate	0,0,0,1,2,0,0,0,0	test	ward_and_allport	0,0,0,1,0,0,2,3,0	71.0	25.0	3.215	0,0,0,1,2,3,0,0,0	to_hand	s533
383.517	0.926	0	PA_with_intermediate	3,0,0,1,2,0,0,0,0	test	ward_and_allport	0,0,0,1,0,0,2,3,0	89.0	25.0	0.926	0,0,0,1,2,3,0,0,0	to_board	s533
384.45	0.554	0	PA_with_intermediate	3,0,0,1,0,0,0,0,0	test	ward_and_allport	0,0,0,1,0,0,2,3,0	71.0	25.0	0.554	0,0,0,1,2,3,0,0,0	to_hand	s533
385.005	0.526	0	PA_with_intermediate	3,0,0,1,0,0,2,0,0	test	ward_and_allport	0,0,0,1,0,0,2,3,0	82.0	25.0	0.526	0,0,0,1,2,3,0,0,0	to_board	s533
385.538	0.655	0	PA_with_intermediate	0,0,0,1,0,0,2,0,0	test	ward_and_allport	0,0,0,1,0,0,2,3,0	89.0	25.0	0.655	0,0,0,1,2,3,0,0,0	to_hand	s533
386.194	0.525	0	PA_with_intermediate	0,0,0,1,0,0,2,3,0	test	ward_and_allport	0,0,0,1,0,0,2,3,0	82.0	25.0	0.525	0,0,0,1,2,3,0,0,0	to_board	s533
386.727	1.0	0	PA_with_intermediate	n/a	test	ward_and_allport	n/a	-1.0	25.0	n/a	n/a	feedback	s533
387.727	1.68	0	PA_with_intermediate	n/a	test	ward_and_allport	n/a	-1.0	25.0	n/a	n/a	ITI	s533
389.414	5.951	1	PA_without_intermediate	0,0,0,0,0,0,1,2,0	test	ward_and_allport	3,1,0,2,0,0,0,0,0	82.0	26.0	5.951	0,0,0,0,0,0,1,2,3	to_hand	s533
395.366	1.34	0	PA_without_intermediate	3,0,0,0,0,0,1,2,0	test	ward_and_allport	3,1,0,2,0,0,0,0,0	89.0	26.0	1.34	0,0,0,0,0,0,1,2,3	to_board	s533
396.715	2.366	0	PA_without_intermediate	3,0,0,0,0,0,1,0,0	test	ward_and_allport	3,1,0,2,0,0,0,0,0	82.0	26.0	2.366	0,0,0,0,0,0,1,2,3	to_hand	s533
399.081	0.662	0	PA_without_intermediate	3,0,0,2,0,0,1,0,0	test	ward_and_allport	3,1,0,2,0,0,0,0,0	71.0	26.0	0.662	0,0,0,0,0,0,1,2,3	to_board	s533
399.752	1.209	0	PA_without_intermediate	3,0,0,2,0,0,0,0,0	test	ward_and_allport	3,1,0,2,0,0,0,0,0	82.0	26.0	1.209	0,0,0,0,0,0,1,2,3	to_hand	s533
400.962	0.436	0	PA_without_intermediate	3,1,0,2,0,0,0,0,0	test	ward_and_allport	3,1,0,2,0,0,0,0,0	89.0	26.0	0.436	0,0,0,0,0,0,1,2,3	to_board	s533
401.408	1.0	0	PA_without_intermediate	n/a	test	ward_and_allport	n/a	-1.0	26.0	n/a	n/a	feedback	s533
402.408	2.224	0	PA_without_intermediate	n/a	test	ward_and_allport	n/a	-1.0	26.0	n/a	n/a	ITI	s533
404.64	2.439	1	PA_without_intermediate	0,0,0,0,0,0,1,2,0	test	ward_and_allport	2,0,0,3,1,0,0,0,0	82.0	27.0	2.439	0,0,0,0,0,0,1,2,3	to_hand	s533
407.08	0.915	0	PA_without_intermediate	0,0,0,3,0,0,1,2,0	test	ward_and_allport	2,0,0,3,1,0,0,0,0	71.0	27.0	0.915	0,0,0,0,0,0,1,2,3	to_board	s533
408.005	0.675	0	PA_without_intermediate	0,0,0,3,0,0,1,0,0	test	ward_and_allport	2,0,0,3,1,0,0,0,0	82.0	27.0	0.675	0,0,0,0,0,0,1,2,3	to_hand	s533
408.681	0.673	0	PA_without_intermediate	2,0,0,3,0,0,1,0,0	test	ward_and_allport	2,0,0,3,1,0,0,0,0	89.0	27.0	0.673	0,0,0,0,0,0,1,2,3	to_board	s533
409.364	1.265	0	PA_without_intermediate	2,0,0,3,0,0,0,0,0	test	ward_and_allport	2,0,0,3,1,0,0,0,0	82.0	27.0	1.265	0,0,0,0,0,0,1,2,3	to_hand	s533
410.629	1.034	0	PA_without_intermediate	2,0,0,3,1,0,0,0,0	test	ward_and_allport	2,0,0,3,1,0,0,0,0	71.0	27.0	1.034	0,0,0,0,0,0,1,2,3	to_board	s533
411.672	1.0	0	PA_without_intermediate	n/a	test	ward_and_allport	n/a	-1.0	27.0	n/a	n/a	feedback	s533
412.672	2.36	0	PA_without_intermediate	n/a	test	ward_and_allport	n/a	-1.0	27.0	n/a	n/a	ITI	s533
415.04	2.22	1	PA_without_intermediate	1,2,0,0,0,0,0,0,0	test	ward_and_allport	0,0,0,3,2,0,1,0,0	89.0	28.0	2.22	1,2,3,0,0,0,0,0,0	to_hand	s533
417.26	0.597	0	PA_without_intermediate	1,2,0,3,0,0,0,0,0	test	ward_and_allport	0,0,0,3,2,0,1,0,0	71.0	28.0	0.597	1,2,3,0,0,0,0,0,0	to_board	s533
417.865	0.696	0	PA_without_intermediate	1,0,0,3,0,0,0,0,0	test	ward_and_allport	0,0,0,3,2,0,1,0,0	89.0	28.0	0.696	1,2,3,0,0,0,0,0,0	to_hand	s533
418.562	0.549	0	PA_without_intermediate	1,0,0,3,2,0,0,0,0	test	ward_and_allport	0,0,0,3,2,0,1,0,0	71.0	28.0	0.549	1,2,3,0,0,0,0,0,0	to_board	s533
419.119	0.876	0	PA_without_intermediate	0,0,0,3,2,0,0,0,0	test	ward_and_allport	0,0,0,3,2,0,1,0,0	89.0	28.0	0.876	1,2,3,0,0,0,0,0,0	to_hand	s533
419.997	0.567	0	PA_without_intermediate	0,0,0,3,2,0,1,0,0	test	ward_and_allport	0,0,0,3,2,0,1,0,0	82.0	28.0	0.567	1,2,3,0,0,0,0,0,0	to_board	s533
420.574	1.0	0	PA_without_intermediate	n/a	test	ward_and_allport	n/a	-1.0	28.0	n/a	n/a	feedback	s533
421.574	1.0	0	PA_without_intermediate	n/a	test	ward_and_allport	n/a	-1.0	28.0	n/a	n/a	ITI	s533
422.579	2.134	1	PA_without_intermediate	0,0,0,0,0,0,1,2,0	test	ward_and_allport	3,2,0,1,0,0,0,0,0	82.0	29.0	2.134	0,0,0,0,0,0,1,2,3	to_hand	s533
424.715	1.272	0	PA_without_intermediate	3,0,0,0,0,0,1,2,0	test	ward_and_allport	3,2,0,1,0,0,0,0,0	89.0	29.0	1.272	0,0,0,0,0,0,1,2,3	to_board	s533
425.993	2.411	0	PA_without_intermediate	3,0,0,0,0,0,1,0,0	test	ward_and_allport	3,2,0,1,0,0,0,0,0	82.0	29.0	2.411	0,0,0,0,0,0,1,2,3	to_hand	s533
428.404	0.545	0	PA_without_intermediate	3,2,0,0,0,0,1,0,0	test	ward_and_allport	3,2,0,1,0,0,0,0,0	89.0	29.0	0.545	0,0,0,0,0,0,1,2,3	to_board	s533
428.957	0.895	0	PA_without_intermediate	3,2,0,0,0,0,0,0,0	test	ward_and_allport	3,2,0,1,0,0,0,0,0	82.0	29.0	0.895	0,0,0,0,0,0,1,2,3	to_hand	s533
429.852	0.499	0	PA_without_intermediate	3,2,0,1,0,0,0,0,0	test	ward_and_allport	3,2,0,1,0,0,0,0,0	71.0	29.0	0.499	0,0,0,0,0,0,1,2,3	to_board	s533
430.361	1.0	0	PA_without_intermediate	n/a	test	ward_and_allport	n/a	-1.0	29.0	n/a	n/a	feedback	s533
431.361	1.408	0	PA_without_intermediate	n/a	test	ward_and_allport	n/a	-1.0	29.0	n/a	n/a	ITI	s533
437.781	3.941	1	PA_with_intermediate	1,2,0,0,0,0,0,0,0	test	ward_and_allport	1,3,0,0,0,0,2,0,0	89.0	30.0	3.941	1,2,3,0,0,0,0,0,0	to_hand	s533
441.723	1.071	0	PA_with_intermediate	1,2,0,3,0,0,0,0,0	test	ward_and_allport	1,3,0,0,0,0,2,0,0	71.0	30.0	1.071	1,2,3,0,0,0,0,0,0	to_board	s533
442.803	0.862	0	PA_with_intermediate	1,0,0,3,0,0,0,0,0	test	ward_and_allport	1,3,0,0,0,0,2,0,0	89.0	30.0	0.862	1,2,3,0,0,0,0,0,0	to_hand	s533
443.666	0.469	0	PA_with_intermediate	1,0,0,3,0,0,2,0,0	test	ward_and_allport	1,3,0,0,0,0,2,0,0	82.0	30.0	0.469	1,2,3,0,0,0,0,0,0	to_board	s533
444.143	0.529	0	PA_with_intermediate	0,0,0,3,0,0,2,0,0	test	ward_and_allport	1,3,0,0,0,0,2,0,0	89.0	30.0	0.529	1,2,3,0,0,0,0,0,0	to_hand	s533
444.674	1.996	0	PA_with_intermediate	0,0,0,3,0,0,2,1,0	test	ward_and_allport	1,3,0,0,0,0,2,0,0	82.0	30.0	1.996	1,2,3,0,0,0,0,0,0	to_board	s533
446.679	0.99	0	PA_with_intermediate	0,0,0,0,0,0,2,1,0	test	ward_and_allport	1,3,0,0,0,0,2,0,0	71.0	30.0	0.99	1,2,3,0,0,0,0,0,0	to_hand	s533
447.669	0.567	0	PA_with_intermediate	3,0,0,0,0,0,2,1,0	test	ward_and_allport	1,3,0,0,0,0,2,0,0	89.0	30.0	0.567	1,2,3,0,0,0,0,0,0	to_board	s533
448.244	1.136	0	PA_with_intermediate	3,0,0,0,0,0,2,0,0	test	ward_and_allport	1,3,0,0,0,0,2,0,0	82.0	30.0	1.136	1,2,3,0,0,0,0,0,0	to_hand	s533
449.38	0.504	0	PA_with_intermediate	3,1,0,0,0,0,2,0,0	test	ward_and_allport	1,3,0,0,0,0,2,0,0	89.0	30.0	0.504	1,2,3,0,0,0,0,0,0	to_board	s533
449.891	6.124	0	PA_with_intermediate	3,0,0,0,0,0,2,0,0	test	ward_and_allport	1,3,0,0,0,0,2,0,0	89.0	30.0	6.124	1,2,3,0,0,0,0,0,0	to_hand	s533
456.015	1.142	0	PA_with_intermediate	3,0,0,1,0,0,2,0,0	test	ward_and_allport	1,3,0,0,0,0,2,0,0	71.0	30.0	1.142	1,2,3,0,0,0,0,0,0	to_board	s533
457.164	0.899	0	PA_with_intermediate	0,0,0,1,0,0,2,0,0	test	ward_and_allport	1,3,0,0,0,0,2,0,0	89.0	30.0	0.899	1,2,3,0,0,0,0,0,0	to_hand	s533
458.063	0.465	0	PA_with_intermediate	0,0,0,1,0,0,2,3,0	test	ward_and_allport	1,3,0,0,0,0,2,0,0	82.0	30.0	0.465	1,2,3,0,0,0,0,0,0	to_board	s533
458.537	0.646	0	PA_with_intermediate	0,0,0,0,0,0,2,3,0	test	ward_and_allport	1,3,0,0,0,0,2,0,0	71.0	30.0	0.646	1,2,3,0,0,0,0,0,0	to_hand	s533
459.185	0.54	0	PA_with_intermediate	1,0,0,0,0,0,2,3,0	test	ward_and_allport	1,3,0,0,0,0,2,0,0	89.0	30.0	0.54	1,2,3,0,0,0,0,0,0	to_board	s533
459.735	0.872	0	PA_with_intermediate	1,0,0,0,0,0,2,0,0	test	ward_and_allport	1,3,0,0,0,0,2,0,0	82.0	30.0	0.872	1,2,3,0,0,0,0,0,0	to_hand	s533
460.608	0.734	0	PA_with_intermediate	1,3,0,0,0,0,2,0,0	test	ward_and_allport	1,3,0,0,0,0,2,0,0	89.0	30.0	0.734	1,2,3,0,0,0,0,0,0	to_board	s533
461.351	1.0	0	PA_with_intermediate	n/a	test	ward_and_allport	n/a	-1.0	30.0	n/a	n/a	feedback	s533
462.351	1.136	0	PA_with_intermediate	n/a	test	ward_and_allport	n/a	-1.0	30.0	n/a	n/a	ITI	s533
463.496	3.028	1	PA_without_intermediate	0,0,0,1,2,0,0,0,0	test	ward_and_allport	3,2,0,0,0,0,1,0,0	71.0	31.0	3.028	0,0,0,1,2,3,0,0,0	to_hand	s533
466.525	0.466	0	PA_without_intermediate	3,0,0,1,2,0,0,0,0	test	ward_and_allport	3,2,0,0,0,0,1,0,0	89.0	31.0	0.466	0,0,0,1,2,3,0,0,0	to_board	s533
467.0	0.9	0	PA_without_intermediate	3,0,0,1,0,0,0,0,0	test	ward_and_allport	3,2,0,0,0,0,1,0,0	71.0	31.0	0.9	0,0,0,1,2,3,0,0,0	to_hand	s533
467.901	1.024	0	PA_without_intermediate	3,2,0,1,0,0,0,0,0	test	ward_and_allport	3,2,0,0,0,0,1,0,0	89.0	31.0	1.024	0,0,0,1,2,3,0,0,0	to_board	s533
468.934	0.822	0	PA_without_intermediate	3,2,0,0,0,0,0,0,0	test	ward_and_allport	3,2,0,0,0,0,1,0,0	71.0	31.0	0.822	0,0,0,1,2,3,0,0,0	to_hand	s533
469.758	0.405	0	PA_without_intermediate	3,2,0,0,0,0,1,0,0	test	ward_and_allport	3,2,0,0,0,0,1,0,0	82.0	31.0	0.405	0,0,0,1,2,3,0,0,0	to_board	s533
470.173	1.0	0	PA_without_intermediate	n/a	test	ward_and_allport	n/a	-1.0	31.0	n/a	n/a	feedback	s533
471.173	4.128	0	PA_without_intermediate	n/a	test	ward_and_allport	n/a	-1.0	31.0	n/a	n/a	ITI	s533
475.308	2.092	1	PA_without_intermediate	1,2,0,0,0,0,0,0,0	test	ward_and_allport	0,0,0,1,0,0,3,2,0	89.0	32.0	2.092	1,2,3,0,0,0,0,0,0	to_hand	s533
477.401	0.974	0	PA_without_intermediate	1,2,0,0,0,0,3,0,0	test	ward_and_allport	0,0,0,1,0,0,3,2,0	82.0	32.0	0.974	1,2,3,0,0,0,0,0,0	to_board	s533
478.383	1.138	0	PA_without_intermediate	1,0,0,0,0,0,3,0,0	test	ward_and_allport	0,0,0,1,0,0,3,2,0	89.0	32.0	1.138	1,2,3,0,0,0,0,0,0	to_hand	s533
479.523	0.523	0	PA_without_intermediate	1,0,0,0,0,0,3,2,0	test	ward_and_allport	0,0,0,1,0,0,3,2,0	82.0	32.0	0.523	1,2,3,0,0,0,0,0,0	to_board	s533
480.056	0.864	0	PA_without_intermediate	0,0,0,0,0,0,3,2,0	test	ward_and_allport	0,0,0,1,0,0,3,2,0	89.0	32.0	0.864	1,2,3,0,0,0,0,0,0	to_hand	s533
480.921	0.437	0	PA_without_intermediate	0,0,0,1,0,0,3,2,0	test	ward_and_allport	0,0,0,1,0,0,3,2,0	71.0	32.0	0.437	1,2,3,0,0,0,0,0,0	to_board	s533
481.368	1.0	0	PA_without_intermediate	n/a	test	ward_and_allport	n/a	-1.0	32.0	n/a	n/a	feedback	s533
482.368	1.136	0	PA_without_intermediate	n/a	test	ward_and_allport	n/a	-1.0	32.0	n/a	n/a	ITI	s533
483.512	3.383	1	PA_without_intermediate	1,2,0,0,0,0,0,0,0	test	ward_and_allport	0,0,0,2,0,0,3,1,0	89.0	33.0	3.383	1,2,3,0,0,0,0,0,0	to_hand	s533
486.896	0.671	0	PA_without_intermediate	1,2,0,0,0,0,3,0,0	test	ward_and_allport	0,0,0,2,0,0,3,1,0	82.0	33.0	0.671	1,2,3,0,0,0,0,0,0	to_board	s533
487.574	0.959	0	PA_without_intermediate	1,0,0,0,0,0,3,0,0	test	ward_and_allport	0,0,0,2,0,0,3,1,0	89.0	33.0	0.959	1,2,3,0,0,0,0,0,0	to_hand	s533
488.535	0.38	0	PA_without_intermediate	1,0,0,2,0,0,3,0,0	test	ward_and_allport	0,0,0,2,0,0,3,1,0	71.0	33.0	0.38	1,2,3,0,0,0,0,0,0	to_board	s533
488.926	0.614	0	PA_without_intermediate	0,0,0,2,0,0,3,0,0	test	ward_and_allport	0,0,0,2,0,0,3,1,0	89.0	33.0	0.614	1,2,3,0,0,0,0,0,0	to_hand	s533
489.541	0.483	0	PA_without_intermediate	0,0,0,2,0,0,3,1,0	test	ward_and_allport	0,0,0,2,0,0,3,1,0	82.0	33.0	0.483	1,2,3,0,0,0,0,0,0	to_board	s533
490.033	1.0	0	PA_without_intermediate	n/a	test	ward_and_allport	n/a	-1.0	33.0	n/a	n/a	feedback	s533
491.033	4.264	0	PA_without_intermediate	n/a	test	ward_and_allport	n/a	-1.0	33.0	n/a	n/a	ITI	s533
495.305	7.281	1	PA_with_intermediate	1,2,0,0,0,0,0,0,0	test	ward_and_allport	1,3,0,2,0,0,0,0,0	89.0	34.0	7.281	1,2,3,0,0,0,0,0,0	to_hand	s533
502.587	0.561	0	PA_with_intermediate	1,2,0,0,0,0,3,0,0	test	ward_and_allport	1,3,0,2,0,0,0,0,0	82.0	34.0	0.561	1,2,3,0,0,0,0,0,0	to_board	s533
503.158	1.485	0	PA_with_intermediate	1,0,0,0,0,0,3,0,0	test	ward_and_allport	1,3,0,2,0,0,0,0,0	89.0	34.0	1.485	1,2,3,0,0,0,0,0,0	to_hand	s533
504.645	0.331	0	PA_with_intermediate	1,0,0,2,0,0,3,0,0	test	ward_and_allport	1,3,0,2,0,0,0,0,0	71.0	34.0	0.331	1,2,3,0,0,0,0,0,0	to_board	s533
504.985	1.477	0	PA_with_intermediate	1,0,0,2,0,0,0,0,0	test	ward_and_allport	1,3,0,2,0,0,0,0,0	82.0	34.0	1.477	1,2,3,0,0,0,0,0,0	to_hand	s533
506.464	0.562	0	PA_with_intermediate	1,3,0,2,0,0,0,0,0	test	ward_and_allport	1,3,0,2,0,0,0,0,0	89.0	34.0	0.562	1,2,3,0,0,0,0,0,0	to_board	s533
507.037	1.0	0	PA_with_intermediate	n/a	test	ward_and_allport	n/a	-1.0	34.0	n/a	n/a	feedback	s533
508.037	3.04	0	PA_with_intermediate	n/a	test	ward_and_allport	n/a	-1.0	34.0	n/a	n/a	ITI	s533
511.088	2.198	1	PA_with_intermediate	1,2,0,0,0,0,0,0,0	test	ward_and_allport	1,3,0,2,0,0,0,0,0	89.0	35.0	2.198	1,2,3,0,0,0,0,0,0	to_hand	s533
513.287	0.998	0	PA_with_intermediate	1,2,0,0,0,0,3,0,0	test	ward_and_allport	1,3,0,2,0,0,0,0,0	82.0	35.0	0.998	1,2,3,0,0,0,0,0,0	to_board	s533
514.295	0.549	0	PA_with_intermediate	1,0,0,0,0,0,3,0,0	test	ward_and_allport	1,3,0,2,0,0,0,0,0	89.0	35.0	0.549	1,2,3,0,0,0,0,0,0	to_hand	s533
514.845	0.434	0	PA_with_intermediate	1,0,0,2,0,0,3,0,0	test	ward_and_allport	1,3,0,2,0,0,0,0,0	71.0	35.0	0.434	1,2,3,0,0,0,0,0,0	to_board	s533
515.288	1.189	0	PA_with_intermediate	1,0,0,2,0,0,0,0,0	test	ward_and_allport	1,3,0,2,0,0,0,0,0	82.0	35.0	1.189	1,2,3,0,0,0,0,0,0	to_hand	s533
516.478	0.699	0	PA_with_intermediate	1,3,0,2,0,0,0,0,0	test	ward_and_allport	1,3,0,2,0,0,0,0,0	89.0	35.0	0.699	1,2,3,0,0,0,0,0,0	to_board	s533
517.187	1.0	0	PA_with_intermediate	n/a	test	ward_and_allport	n/a	-1.0	35.0	n/a	n/a	feedback	s533
518.187	1.136	0	PA_with_intermediate	n/a	test	ward_and_allport	n/a	-1.0	35.0	n/a	n/a	ITI	s533
519.332	2.08	1	PA_with_intermediate	0,0,0,0,0,0,1,2,0	test	ward_and_allport	0,0,0,2,3,0,1,0,0	82.0	36.0	2.08	0,0,0,0,0,0,1,2,3	to_hand	s533
521.412	1.171	0	PA_with_intermediate	3,0,0,0,0,0,1,2,0	test	ward_and_allport	0,0,0,2,3,0,1,0,0	89.0	36.0	1.171	0,0,0,0,0,0,1,2,3	to_board	s533
522.59	0.94	0	PA_with_intermediate	3,0,0,0,0,0,1,0,0	test	ward_and_allport	0,0,0,2,3,0,1,0,0	82.0	36.0	0.94	0,0,0,0,0,0,1,2,3	to_hand	s533
523.53	0.657	0	PA_with_intermediate	3,0,0,2,0,0,1,0,0	test	ward_and_allport	0,0,0,2,3,0,1,0,0	71.0	36.0	0.657	0,0,0,0,0,0,1,2,3	to_board	s533
524.196	0.566	0	PA_with_intermediate	0,0,0,2,0,0,1,0,0	test	ward_and_allport	0,0,0,2,3,0,1,0,0	89.0	36.0	0.566	0,0,0,0,0,0,1,2,3	to_hand	s533
524.764	0.439	0	PA_with_intermediate	0,0,0,2,3,0,1,0,0	test	ward_and_allport	0,0,0,2,3,0,1,0,0	71.0	36.0	0.439	0,0,0,0,0,0,1,2,3	to_board	s533
525.214	1.0	0	PA_with_intermediate	n/a	test	ward_and_allport	n/a	-1.0	36.0	n/a	n/a	feedback	s533
526.214	1.408	0	PA_with_intermediate	n/a	test	ward_and_allport	n/a	-1.0	36.0	n/a	n/a	ITI	s533
527.631	2.283	1	PA_without_intermediate	0,0,0,0,0,0,1,2,0	test	ward_and_allport	2,0,0,3,1,0,0,0,0	82.0	37.0	2.283	0,0,0,0,0,0,1,2,3	to_hand	s533
529.916	0.422	0	PA_without_intermediate	0,0,0,3,0,0,1,2,0	test	ward_and_allport	2,0,0,3,1,0,0,0,0	71.0	37.0	0.422	0,0,0,0,0,0,1,2,3	to_board	s533
530.346	1.412	0	PA_without_intermediate	0,0,0,3,0,0,1,0,0	test	ward_and_allport	2,0,0,3,1,0,0,0,0	82.0	37.0	1.412	0,0,0,0,0,0,1,2,3	to_hand	s533
531.759	0.431	0	PA_without_intermediate	2,0,0,3,0,0,1,0,0	test	ward_and_allport	2,0,0,3,1,0,0,0,0	89.0	37.0	0.431	0,0,0,0,0,0,1,2,3	to_board	s533
532.2	0.977	0	PA_without_intermediate	2,0,0,3,0,0,0,0,0	test	ward_and_allport	2,0,0,3,1,0,0,0,0	82.0	37.0	0.977	0,0,0,0,0,0,1,2,3	to_hand	s533
533.178	0.752	0	PA_without_intermediate	2,0,0,3,1,0,0,0,0	test	ward_and_allport	2,0,0,3,1,0,0,0,0	71.0	37.0	0.752	0,0,0,0,0,0,1,2,3	to_board	s533
533.941	1.0	0	PA_without_intermediate	n/a	test	ward_and_allport	n/a	-1.0	37.0	n/a	n/a	feedback	s533
534.941	1.68	0	PA_without_intermediate	n/a	test	ward_and_allport	n/a	-1.0	37.0	n/a	n/a	ITI	s533
536.627	3.419	1	PA_with_intermediate	0,0,0,0,0,0,1,2,0	test	ward_and_allport	2,0,0,0,0,0,1,3,0	82.0	38.0	3.419	0,0,0,0,0,0,1,2,3	to_hand	s533
540.047	0.72	0	PA_with_intermediate	0,0,0,3,0,0,1,2,0	test	ward_and_allport	2,0,0,0,0,0,1,3,0	71.0	38.0	0.72	0,0,0,0,0,0,1,2,3	to_board	s533
540.773	0.818	0	PA_with_intermediate	0,0,0,3,0,0,1,0,0	test	ward_and_allport	2,0,0,0,0,0,1,3,0	82.0	38.0	0.818	0,0,0,0,0,0,1,2,3	to_hand	s533
541.592	0.57	0	PA_with_intermediate	2,0,0,3,0,0,1,0,0	test	ward_and_allport	2,0,0,0,0,0,1,3,0	89.0	38.0	0.57	0,0,0,0,0,0,1,2,3	to_board	s533
542.173	1.331	0	PA_with_intermediate	2,0,0,0,0,0,1,0,0	test	ward_and_allport	2,0,0,0,0,0,1,3,0	71.0	38.0	1.331	0,0,0,0,0,0,1,2,3	to_hand	s533
543.505	0.486	0	PA_with_intermediate	2,0,0,0,0,0,1,3,0	test	ward_and_allport	2,0,0,0,0,0,1,3,0	82.0	38.0	0.486	0,0,0,0,0,0,1,2,3	to_board	s533
544.003	1.0	0	PA_with_intermediate	n/a	test	ward_and_allport	n/a	-1.0	38.0	n/a	n/a	feedback	s533
545.003	3.72	0	PA_with_intermediate	n/a	test	ward_and_allport	n/a	-1.0	38.0	n/a	n/a	ITI	s533
548.734	2.066	1	PA_without_intermediate	1,2,0,0,0,0,0,0,0	test	ward_and_allport	0,0,0,3,2,0,1,0,0	89.0	39.0	2.066	1,2,3,0,0,0,0,0,0	to_hand	s533
550.801	0.437	0	PA_without_intermediate	1,2,0,3,0,0,0,0,0	test	ward_and_allport	0,0,0,3,2,0,1,0,0	71.0	39.0	0.437	1,2,3,0,0,0,0,0,0	to_board	s533
551.249	0.899	0	PA_without_intermediate	1,0,0,3,0,0,0,0,0	test	ward_and_allport	0,0,0,3,2,0,1,0,0	89.0	39.0	0.899	1,2,3,0,0,0,0,0,0	to_hand	s533
552.148	0.468	0	PA_without_intermediate	1,0,0,3,2,0,0,0,0	test	ward_and_allport	0,0,0,3,2,0,1,0,0	71.0	39.0	0.468	1,2,3,0,0,0,0,0,0	to_board	s533
552.627	1.093	0	PA_without_intermediate	0,0,0,3,2,0,0,0,0	test	ward_and_allport	0,0,0,3,2,0,1,0,0	89.0	39.0	1.093	1,2,3,0,0,0,0,0,0	to_hand	s533
553.721	0.436	0	PA_without_intermediate	0,0,0,3,2,0,1,0,0	test	ward_and_allport	0,0,0,3,2,0,1,0,0	82.0	39.0	0.436	1,2,3,0,0,0,0,0,0	to_board	s533
554.166	1.0	0	PA_without_intermediate	n/a	test	ward_and_allport	n/a	-1.0	39.0	n/a	n/a	feedback	s533
555.166	2.224	0	PA_without_intermediate	n/a	test	ward_and_allport	n/a	-1.0	39.0	n/a	n/a	ITI	s533
557.397	1.372	1	PA_without_intermediate	0,0,0,1,2,0,0,0,0	test	ward_and_allport	3,2,0,0,0,0,1,0,0	71.0	40.0	1.372	0,0,0,1,2,3,0,0,0	to_hand	s533
558.77	0.851	0	PA_without_intermediate	3,0,0,1,2,0,0,0,0	test	ward_and_allport	3,2,0,0,0,0,1,0,0	89.0	40.0	0.851	0,0,0,1,2,3,0,0,0	to_board	s533
559.628	0.743	0	PA_without_intermediate	3,0,0,1,0,0,0,0,0	test	ward_and_allport	3,2,0,0,0,0,1,0,0	71.0	40.0	0.743	0,0,0,1,2,3,0,0,0	to_hand	s533
560.372	0.515	0	PA_without_intermediate	3,2,0,1,0,0,0,0,0	test	ward_and_allport	3,2,0,0,0,0,1,0,0	89.0	40.0	0.515	0,0,0,1,2,3,0,0,0	to_board	s533
560.898	1.069	0	PA_without_intermediate	3,2,0,0,0,0,0,0,0	test	ward_and_allport	3,2,0,0,0,0,1,0,0	71.0	40.0	1.069	0,0,0,1,2,3,0,0,0	to_hand	s533
561.968	0.671	0	PA_without_intermediate	3,2,0,0,0,0,1,0,0	test	ward_and_allport	3,2,0,0,0,0,1,0,0	82.0	40.0	0.671	0,0,0,1,2,3,0,0,0	to_board	s533
562.65	1.0	0	PA_without_intermediate	n/a	test	ward_and_allport	n/a	-1.0	40.0	n/a	n/a	feedback	s533
563.65	1.272	0	PA_without_intermediate	n/a	test	ward_and_allport	n/a	-1.0	40.0	n/a	n/a	ITI	s533
564.932	2.208	1	PA_with_intermediate	0,0,0,1,2,0,0,0,0	test	ward_and_allport	2,0,0,1,3,0,0,0,0	71.0	41.0	2.208	0,0,0,1,2,3,0,0,0	to_hand	s533
567.141	0.807	0	PA_with_intermediate	0,0,0,1,2,0,3,0,0	test	ward_and_allport	2,0,0,1,3,0,0,0,0	82.0	41.0	0.807	0,0,0,1,2,3,0,0,0	to_board	s533
567.956	0.482	0	PA_with_intermediate	0,0,0,1,0,0,3,0,0	test	ward_and_allport	2,0,0,1,3,0,0,0,0	71.0	41.0	0.482	0,0,0,1,2,3,0,0,0	to_hand	s533
568.439	0.639	0	PA_with_intermediate	2,0,0,1,0,0,3,0,0	test	ward_and_allport	2,0,0,1,3,0,0,0,0	89.0	41.0	0.639	0,0,0,1,2,3,0,0,0	to_board	s533
569.086	1.028	0	PA_with_intermediate	2,0,0,1,0,0,0,0,0	test	ward_and_allport	2,0,0,1,3,0,0,0,0	82.0	41.0	1.028	0,0,0,1,2,3,0,0,0	to_hand	s533
570.117	0.618	0	PA_with_intermediate	2,0,0,1,3,0,0,0,0	test	ward_and_allport	2,0,0,1,3,0,0,0,0	71.0	41.0	0.618	0,0,0,1,2,3,0,0,0	to_board	s533
570.745	1.0	0	PA_with_intermediate	n/a	test	ward_and_allport	n/a	-1.0	41.0	n/a	n/a	feedback	s533
571.745	2.632	0	PA_with_intermediate	n/a	test	ward_and_allport	n/a	-1.0	41.0	n/a	n/a	ITI	s533
n/a	n/a	0	n/a	n/a	n/a	n/a	n/a	n/a	n/a	n/a	n/a	ITI	n/a
