onset	duration	condition	correct	correct_response	experiment_exp_id	key_press	response_time	stim_color	stim_word	trial_type	worker_id
3.511	1.5	incongruent	1.0	82.0	stroop	82	0.776	green	blue	incongruent	s524
5.513	1.5	congruent	1.0	71.0	stroop	71	0.482	blue	blue	congruent	s524
8.06	1.5	congruent	1.0	82.0	stroop	82	0.606	green	green	congruent	s524
10.199	1.5	congruent	1.0	71.0	stroop	71	0.793	blue	blue	congruent	s524
12.201	1.5	congruent	1.0	82.0	stroop	82	0.819	green	green	congruent	s524
14.203	1.5	congruent	1.0	82.0	stroop	82	0.547	green	green	congruent	s524
16.477	1.5	incongruent	1.0	71.0	stroop	71	0.571	blue	green	incongruent	s524
18.48	1.5	congruent	0.0	82.0	stroop	71	0.536	green	green	congruent	s524
20.483	1.5	incongruent	1.0	71.0	stroop	71	0.68	blue	red	incongruent	s524
22.621	1.5	incongruent	1.0	89.0	stroop	89	0.549	red	blue	incongruent	s524
24.623	1.5	incongruent	1.0	82.0	stroop	82	1.014	green	red	incongruent	s524
26.897	1.5	congruent	0.0	82.0	stroop	89	1.243	green	green	congruent	s524
29.035	1.5	incongruent	1.0	82.0	stroop	82	0.646	green	red	incongruent	s524
31.445	1.5	congruent	1.0	82.0	stroop	82	0.478	green	green	congruent	s524
33.446	1.5	congruent	1.0	82.0	stroop	82	0.507	green	green	congruent	s524
35.448	1.5	incongruent	1.0	82.0	stroop	82	0.49	green	red	incongruent	s524
38.267	1.5	incongruent	1.0	89.0	stroop	89	0.742	red	blue	incongruent	s524
40.27	1.5	incongruent	1.0	82.0	stroop	82	0.79	green	red	incongruent	s524
42.272	1.5	congruent	1.0	89.0	stroop	89	0.858	red	red	congruent	s524
44.411	1.5	congruent	1.0	71.0	stroop	71	0.529	blue	blue	congruent	s524
46.413	1.5	incongruent	0.0	89.0	stroop	-1	n/a	red	blue	incongruent	s524
48.416	1.5	congruent	1.0	82.0	stroop	82	1.252	green	green	congruent	s524
50.417	1.5	incongruent	1.0	71.0	stroop	71	0.515	blue	red	incongruent	s524
52.419	1.5	congruent	1.0	89.0	stroop	89	0.418	red	red	congruent	s524
54.421	1.5	incongruent	1.0	89.0	stroop	89	0.671	red	green	incongruent	s524
56.423	1.5	congruent	1.0	89.0	stroop	89	0.509	red	red	congruent	s524
58.425	1.5	incongruent	1.0	89.0	stroop	89	0.566	red	blue	incongruent	s524
60.7	1.5	incongruent	1.0	71.0	stroop	71	0.627	blue	red	incongruent	s524
62.702	1.5	congruent	0.0	89.0	stroop	-1	n/a	red	red	congruent	s524
64.841	1.5	congruent	1.0	89.0	stroop	89	0.597	red	red	congruent	s524
66.843	1.5	congruent	1.0	82.0	stroop	82	0.639	green	green	congruent	s524
68.982	1.5	congruent	0.0	82.0	stroop	-1	n/a	green	green	congruent	s524
70.983	1.5	congruent	0.0	89.0	stroop	-1	n/a	red	red	congruent	s524
72.986	1.5	incongruent	0.0	82.0	stroop	-1	n/a	green	blue	incongruent	s524
74.989	1.5	incongruent	1.0	82.0	stroop	82	0.643	green	blue	incongruent	s524
77.263	1.5	incongruent	1.0	71.0	stroop	71	0.639	blue	green	incongruent	s524
79.266	1.5	incongruent	1.0	71.0	stroop	71	0.556	blue	red	incongruent	s524
81.404	1.5	congruent	1.0	89.0	stroop	89	0.462	red	red	congruent	s524
83.813	1.5	incongruent	1.0	71.0	stroop	71	0.509	blue	red	incongruent	s524
86.088	1.5	congruent	1.0	82.0	stroop	82	0.806	green	green	congruent	s524
88.77	1.5	congruent	1.0	71.0	stroop	71	0.662	blue	blue	congruent	s524
90.772	1.5	congruent	0.0	71.0	stroop	-1	n/a	blue	blue	congruent	s524
93.182	1.5	congruent	1.0	71.0	stroop	71	1.028	blue	blue	congruent	s524
95.32	1.5	incongruent	1.0	71.0	stroop	71	0.559	blue	red	incongruent	s524
98.003	1.5	incongruent	1.0	71.0	stroop	71	0.515	blue	red	incongruent	s524
100.005	1.5	incongruent	1.0	82.0	stroop	82	0.658	green	blue	incongruent	s524
102.144	1.5	congruent	1.0	89.0	stroop	89	0.533	red	red	congruent	s524
105.098	1.5	incongruent	1.0	82.0	stroop	82	0.854	green	red	incongruent	s524
107.1	1.5	incongruent	1.0	89.0	stroop	89	0.595	red	green	incongruent	s524
109.374	1.5	incongruent	1.0	89.0	stroop	89	0.525	red	green	incongruent	s524
111.376	1.5	congruent	0.0	71.0	stroop	-1	n/a	blue	blue	congruent	s524
113.378	1.5	congruent	0.0	89.0	stroop	-1	n/a	red	red	congruent	s524
115.379	1.5	incongruent	1.0	89.0	stroop	89	0.033	red	green	incongruent	s524
117.382	1.5	congruent	1.0	71.0	stroop	71	0.405	blue	blue	congruent	s524
119.521	1.5	congruent	1.0	89.0	stroop	89	0.565	red	red	congruent	s524
121.523	1.5	incongruent	1.0	71.0	stroop	71	0.693	blue	green	incongruent	s524
123.525	1.5	congruent	0.0	89.0	stroop	-1	n/a	red	red	congruent	s524
125.664	1.5	incongruent	1.0	89.0	stroop	89	0.058	red	green	incongruent	s524
127.666	1.5	incongruent	1.0	82.0	stroop	82	0.705	green	blue	incongruent	s524
129.669	1.5	incongruent	1.0	82.0	stroop	82	0.601	green	blue	incongruent	s524
131.807	1.5	congruent	1.0	71.0	stroop	71	0.574	blue	blue	congruent	s524
133.945	1.5	congruent	1.0	82.0	stroop	82	0.501	green	green	congruent	s524
136.22	1.5	incongruent	1.0	89.0	stroop	89	0.45	red	blue	incongruent	s524
138.902	1.5	congruent	1.0	82.0	stroop	82	0.422	green	green	congruent	s524
140.904	1.5	congruent	1.0	71.0	stroop	71	0.729	blue	blue	congruent	s524
142.906	1.5	incongruent	1.0	82.0	stroop	82	1.333	green	red	incongruent	s524
145.18	1.5	incongruent	1.0	89.0	stroop	89	0.518	red	blue	incongruent	s524
147.182	1.5	congruent	0.0	71.0	stroop	89	0.589	blue	blue	congruent	s524
149.185	1.5	incongruent	1.0	71.0	stroop	71	1.129	blue	green	incongruent	s524
151.188	1.5	incongruent	0.0	89.0	stroop	-1	n/a	red	green	incongruent	s524
153.191	1.5	incongruent	0.0	89.0	stroop	-1	n/a	red	blue	incongruent	s524
155.194	1.5	incongruent	0.0	71.0	stroop	-1	n/a	blue	red	incongruent	s524
157.196	1.5	congruent	1.0	71.0	stroop	71	1.051	blue	blue	congruent	s524
159.47	1.5	incongruent	1.0	89.0	stroop	89	0.52	red	green	incongruent	s524
161.471	1.5	congruent	1.0	82.0	stroop	82	0.486	green	green	congruent	s524
163.882	1.5	congruent	1.0	71.0	stroop	71	0.49	blue	blue	congruent	s524
165.884	1.5	congruent	1.0	89.0	stroop	89	0.549	red	red	congruent	s524
168.022	1.5	congruent	1.0	89.0	stroop	89	0.605	red	red	congruent	s524
170.024	1.5	congruent	0.0	89.0	stroop	-1	n/a	red	red	congruent	s524
172.025	1.5	incongruent	1.0	82.0	stroop	82	0.842	green	red	incongruent	s524
174.028	1.5	congruent	1.0	71.0	stroop	71	0.611	blue	blue	congruent	s524
176.302	1.5	incongruent	1.0	71.0	stroop	71	0.706	blue	green	incongruent	s524
178.304	1.5	incongruent	0.0	82.0	stroop	-1	n/a	green	blue	incongruent	s524
180.578	1.5	incongruent	1.0	89.0	stroop	89	0.635	red	green	incongruent	s524
182.852	1.5	incongruent	1.0	71.0	stroop	71	0.436	blue	green	incongruent	s524
184.854	1.5	congruent	1.0	82.0	stroop	82	0.464	green	green	congruent	s524
187.536	1.5	incongruent	1.0	71.0	stroop	71	0.703	blue	green	incongruent	s524
189.538	1.5	congruent	1.0	71.0	stroop	71	0.817	blue	blue	congruent	s524
191.813	1.5	congruent	1.0	71.0	stroop	71	0.471	blue	blue	congruent	s524
193.815	1.5	congruent	0.0	89.0	stroop	-1	n/a	red	red	congruent	s524
195.818	1.5	incongruent	1.0	82.0	stroop	82	1.846	green	red	incongruent	s524
198.092	1.5	congruent	1.0	89.0	stroop	89	0.5	red	red	congruent	s524
200.23	1.5	congruent	1.0	82.0	stroop	82	0.54	green	green	congruent	s524
202.776	1.5	incongruent	1.0	71.0	stroop	71	0.725	blue	green	incongruent	s524
205.187	1.5	incongruent	0.0	89.0	stroop	-1	n/a	red	blue	incongruent	s524
207.189	1.5	incongruent	0.0	82.0	stroop	-1	n/a	green	blue	incongruent	s524
