onset	duration	EV	action	clicked_on_loss_card	experiment_exp_id	gain_amount	gain_probability	key_press	loss_amount	loss_probability	num_cards	num_click_in_round	num_loss_cards	risk	response_time	total_cards	trial_id	worker_id
3.014	8.624	-1.3748980255855254	end_round	0.0	columbia_card_task_fmri	12.0	0.8333333333333334	71.0	-70.0	0.1666666666666666	6.0	1.0	1.0	-0.6733382927069407	8.624	0.0	stim	s611
11.644	2.25	n/a	-1.0	n/a	columbia_card_task_fmri	n/a	n/a	-1.0	n/a	n/a	n/a	n/a	n/a	n/a	n/a	n/a	feedback	s611
13.894	0.204	n/a	-1.0	n/a	columbia_card_task_fmri	n/a	n/a	-1.0	n/a	n/a	n/a	n/a	n/a	n/a	n/a	n/a	ITI	s611
14.101	5.148	-0.5415646922521915	draw_card	0.0	columbia_card_task_fmri	14.0	0.8333333333333334	89.0	-75.0	0.1666666666666666	6.0	1.0	1.0	1.935298139149552	5.148	n/a	stim	s611
19.252	2.035	-3.5082313589188585	draw_card	1.0	columbia_card_task_fmri	14.0	0.8	89.0	-75.0	0.2	6.0	2.0	1.0	4.366868822784632	2.035	2.0	stim	s611
21.29	2.25	n/a	-1.0	n/a	columbia_card_task_fmri	n/a	n/a	-1.0	n/a	n/a	n/a	n/a	n/a	n/a	n/a	n/a	feedback	s611
23.54	0.204	n/a	-1.0	n/a	columbia_card_task_fmri	n/a	n/a	-1.0	n/a	n/a	n/a	n/a	n/a	n/a	n/a	n/a	ITI	s611
23.745	2.639	1.1251019744144746	draw_card	0.0	columbia_card_task_fmri	15.0	0.8333333333333334	89.0	-70.0	0.1666666666666666	6.0	1.0	1.0	0.4446465404091668	2.639	n/a	stim	s611
26.385	1.044	-1.7082313589188594	draw_card	1.0	columbia_card_task_fmri	15.0	0.8	89.0	-70.0	0.2	6.0	2.0	1.0	2.766925084811461	1.044	2.0	stim	s611
27.431	2.25	n/a	-1.0	n/a	columbia_card_task_fmri	n/a	n/a	-1.0	n/a	n/a	n/a	n/a	n/a	n/a	n/a	n/a	feedback	s611
29.681	0.272	n/a	-1.0	n/a	columbia_card_task_fmri	n/a	n/a	-1.0	n/a	n/a	n/a	n/a	n/a	n/a	n/a	n/a	ITI	s611
29.956	4.392	1.9584353077478085	draw_card	0.0	columbia_card_task_fmri	17.0	0.8333333333333334	89.0	-75.0	0.1666666666666666	6.0	1.0	1.0	3.053290283965488	4.392	n/a	stim	s611
34.35	1.176	-1.108231358918858	end_round	0.0	columbia_card_task_fmri	17.0	0.8	71.0	-75.0	0.2	6.0	2.0	1.0	5.566829836712088	1.176	1.0	stim	s611
35.53	2.25	n/a	-1.0	n/a	columbia_card_task_fmri	n/a	n/a	-1.0	n/a	n/a	n/a	n/a	n/a	n/a	n/a	n/a	feedback	s611
37.78	0.204	n/a	-1.0	n/a	columbia_card_task_fmri	n/a	n/a	-1.0	n/a	n/a	n/a	n/a	n/a	n/a	n/a	n/a	ITI	s611
37.986	1.896	3.2917686410811404	draw_card	0.0	columbia_card_task_fmri	24.0	0.75	89.0	-60.0	0.25	8.0	1.0	2.0	5.13991037124309	1.896	n/a	stim	s611
39.883	0.84	0.2917686410811406	end_round	0.0	columbia_card_task_fmri	24.0	0.7142857142857143	71.0	-60.0	0.2857142857142857	8.0	2.0	2.0	6.714126789397099	0.84	1.0	stim	s611
40.729	2.25	n/a	-1.0	n/a	columbia_card_task_fmri	n/a	n/a	-1.0	n/a	n/a	n/a	n/a	n/a	n/a	n/a	n/a	feedback	s611
42.979	0.408	n/a	-1.0	n/a	columbia_card_task_fmri	n/a	n/a	-1.0	n/a	n/a	n/a	n/a	n/a	n/a	n/a	n/a	ITI	s611
43.39	1.605	3.2917686410811404	draw_card	0.0	columbia_card_task_fmri	29.0	0.75	89.0	-75.0	0.25	8.0	1.0	2.0	13.799939375793222	1.605	n/a	stim	s611
44.997	0.528	-0.4225170732045711	end_round	0.0	columbia_card_task_fmri	29.0	0.7142857142857143	71.0	-75.0	0.2857142857142857	8.0	2.0	2.0	15.748990120086065	0.528	1.0	stim	s611
45.529	2.25	n/a	-1.0	n/a	columbia_card_task_fmri	n/a	n/a	-1.0	n/a	n/a	n/a	n/a	n/a	n/a	n/a	n/a	feedback	s611
47.779	0.136	n/a	-1.0	n/a	columbia_card_task_fmri	n/a	n/a	-1.0	n/a	n/a	n/a	n/a	n/a	n/a	n/a	n/a	ITI	s611
47.916	2.047	-0.930453581141079	draw_card	0.0	columbia_card_task_fmri	17.0	0.7777777777777778	89.0	-65.0	0.2222222222222222	9.0	1.0	2.0	2.857577946474436	2.047	n/a	stim	s611
49.965	0.518	-3.20823135891886	end_round	0.0	columbia_card_task_fmri	17.0	0.75	71.0	-65.0	0.25	9.0	2.0	2.0	4.2739135079849575	0.518	1.0	stim	s611
50.487	2.25	n/a	-1.0	n/a	columbia_card_task_fmri	n/a	n/a	-1.0	n/a	n/a	n/a	n/a	n/a	n/a	n/a	n/a	feedback	s611
52.737	0.272	n/a	-1.0	n/a	columbia_card_task_fmri	n/a	n/a	-1.0	n/a	n/a	n/a	n/a	n/a	n/a	n/a	n/a	ITI	s611
53.011	3.086	3.39176864108114	end_round	0.0	columbia_card_task_fmri	14.0	0.9	71.0	-95.0	0.1	10.0	1.0	1.0	1.4669748515248244	3.086	0.0	stim	s611
56.105	2.25	n/a	-1.0	n/a	columbia_card_task_fmri	n/a	n/a	-1.0	n/a	n/a	n/a	n/a	n/a	n/a	n/a	n/a	feedback	s611
58.355	0.34	n/a	-1.0	n/a	columbia_card_task_fmri	n/a	n/a	-1.0	n/a	n/a	n/a	n/a	n/a	n/a	n/a	n/a	ITI	s611
58.696	3.141	-0.7082313589188594	end_round	0.0	columbia_card_task_fmri	15.0	0.8	71.0	-65.0	0.2	10.0	1.0	2.0	0.7670033237255538	3.141	0.0	stim	s611
61.839	2.25	n/a	-1.0	n/a	columbia_card_task_fmri	n/a	n/a	-1.0	n/a	n/a	n/a	n/a	n/a	n/a	n/a	n/a	feedback	s611
64.089	0.136	n/a	-1.0	n/a	columbia_card_task_fmri	n/a	n/a	-1.0	n/a	n/a	n/a	n/a	n/a	n/a	n/a	n/a	ITI	s611
64.227	2.43	0.8917686410811421	draw_card	0.0	columbia_card_task_fmri	17.0	0.8	89.0	-65.0	0.2	10.0	1.0	2.0	1.5669708832679137	2.43	n/a	stim	s611
66.659	0.509	-0.930453581141079	end_round	0.0	columbia_card_task_fmri	17.0	0.7777777777777778	71.0	-65.0	0.2222222222222222	10.0	2.0	2.0	2.857577946474436	0.509	1.0	stim	s611
67.17	2.25	n/a	-1.0	n/a	columbia_card_task_fmri	n/a	n/a	-1.0	n/a	n/a	n/a	n/a	n/a	n/a	n/a	n/a	feedback	s611
69.42	0.34	n/a	-1.0	n/a	columbia_card_task_fmri	n/a	n/a	-1.0	n/a	n/a	n/a	n/a	n/a	n/a	n/a	n/a	ITI	s611
69.763	1.825	-0.5415646922521915	draw_card	0.0	columbia_card_task_fmri	13.0	0.8333333333333334	89.0	-70.0	0.1666666666666666	12.0	1.0	2.0	-0.3006770764663642	1.825	n/a	stim	s611
71.59	0.444	-1.7991404498279528	end_round	0.0	columbia_card_task_fmri	13.0	0.8181818181818181	71.0	-70.0	0.1818181818181818	12.0	2.0	2.0	0.7796552553977918	0.444	1.0	stim	s611
72.041	2.25	n/a	-1.0	n/a	columbia_card_task_fmri	n/a	n/a	-1.0	n/a	n/a	n/a	n/a	n/a	n/a	n/a	n/a	feedback	s611
74.291	0.068	n/a	-1.0	n/a	columbia_card_task_fmri	n/a	n/a	-1.0	n/a	n/a	n/a	n/a	n/a	n/a	n/a	n/a	ITI	s611
74.36	3.13	-0.5415646922521915	end_round	0.0	columbia_card_task_fmri	15.0	0.8333333333333334	71.0	-80.0	0.1666666666666666	12.0	1.0	2.0	4.171285071417103	3.13	0.0	stim	s611
77.496	2.25	n/a	-1.0	n/a	columbia_card_task_fmri	n/a	n/a	-1.0	n/a	n/a	n/a	n/a	n/a	n/a	n/a	n/a	feedback	s611
79.746	0.0	n/a	-1.0	n/a	columbia_card_task_fmri	n/a	n/a	-1.0	n/a	n/a	n/a	n/a	n/a	n/a	n/a	n/a	ITI	s611
79.747	2.159	-1.5082313589188583	draw_card	0.0	columbia_card_task_fmri	14.0	0.8	89.0	-65.0	0.2	15.0	1.0	3.0	0.3670201598737002	2.159	n/a	stim	s611
81.908	0.506	-2.636802787490286	end_round	0.0	columbia_card_task_fmri	14.0	0.7857142857142857	71.0	-65.0	0.2142857142857142	15.0	2.0	3.0	1.1827326277500203	0.506	1.0	stim	s611
82.418	2.25	n/a	-1.0	n/a	columbia_card_task_fmri	n/a	n/a	-1.0	n/a	n/a	n/a	n/a	n/a	n/a	n/a	n/a	feedback	s611
84.668	0.204	n/a	-1.0	n/a	columbia_card_task_fmri	n/a	n/a	-1.0	n/a	n/a	n/a	n/a	n/a	n/a	n/a	n/a	ITI	s611
84.873	1.648	-1.5832313589188594	draw_card	0.0	columbia_card_task_fmri	1.0	0.9375	89.0	-45.0	0.0625	16.0	1.0	1.0	-20.09567768082109	1.648	n/a	stim	s611
86.523	1.188	-1.7748980255855258	draw_card	0.0	columbia_card_task_fmri	1.0	0.9333333333333332	89.0	-45.0	0.0666666666666666	16.0	2.0	1.0	-19.75620189083737	1.188	n/a	stim	s611
87.714	1.077	-1.993945644633145	draw_card	0.0	columbia_card_task_fmri	1.0	0.9285714285714286	89.0	-45.0	0.0714285714285714	16.0	3.0	1.0	-19.383923094120345	1.077	n/a	stim	s611
88.793	3.211	-2.246692897380398	draw_card	0.0	columbia_card_task_fmri	1.0	0.9230769230769232	89.0	-45.0	0.0769230769230769	16.0	4.0	1.0	-18.97326445057568	3.211	n/a	stim	s611
92.006	5.031	-2.541564692252193	draw_card	0.0	columbia_card_task_fmri	1.0	0.9166666666666666	89.0	-45.0	0.0833333333333333	16.0	5.0	1.0	-18.51725095191465	5.031	n/a	stim	s611
97.04	3.449	-2.890049540737041	end_round	0.0	columbia_card_task_fmri	1.0	0.9090909090909092	71.0	-45.0	0.0909090909090909	16.0	6.0	1.0	-18.007038252953038	3.449	5.0	stim	s611
100.492	2.25	n/a	-1.0	n/a	columbia_card_task_fmri	n/a	n/a	-1.0	n/a	n/a	n/a	n/a	n/a	n/a	n/a	n/a	feedback	s611
102.742	1.02	n/a	-1.0	n/a	columbia_card_task_fmri	n/a	n/a	-1.0	n/a	n/a	n/a	n/a	n/a	n/a	n/a	n/a	ITI	s611
103.765	4.818	-0.6457313589188594	draw_card	0.0	columbia_card_task_fmri	15.0	0.8125	89.0	-70.0	0.1875	16.0	1.0	3.0	1.943508021837829	4.818	n/a	stim	s611
108.586	0.687	-1.7082313589188594	draw_card	0.0	columbia_card_task_fmri	15.0	0.8	89.0	-70.0	0.2	16.0	2.0	3.0	2.766925084811461	0.687	n/a	stim	s611
109.274	2.342	-2.922517073204575	end_round	0.0	columbia_card_task_fmri	15.0	0.7857142857142857	71.0	-70.0	0.2142857142857142	16.0	3.0	3.0	3.644595364934453	2.342	2.0	stim	s611
111.625	2.25	n/a	-1.0	n/a	columbia_card_task_fmri	n/a	n/a	-1.0	n/a	n/a	n/a	n/a	n/a	n/a	n/a	n/a	feedback	s611
113.875	0.0	n/a	-1.0	n/a	columbia_card_task_fmri	n/a	n/a	-1.0	n/a	n/a	n/a	n/a	n/a	n/a	n/a	n/a	ITI	s611
113.877	2.043	6.29176864108114	draw_card	1.0	columbia_card_task_fmri	30.0	0.7	89.0	-50.0	0.3	10.0	1.0	3.0	5.427439794049462	2.043	1.0	stim	s611
115.924	2.25	n/a	-1.0	n/a	columbia_card_task_fmri	n/a	n/a	-1.0	n/a	n/a	n/a	n/a	n/a	n/a	n/a	n/a	feedback	s611
118.174	0.0	n/a	-1.0	n/a	columbia_card_task_fmri	n/a	n/a	-1.0	n/a	n/a	n/a	n/a	n/a	n/a	n/a	n/a	ITI	s611
118.177	1.999	5.691768641081141	draw_card	0.0	columbia_card_task_fmri	17.0	0.8666666666666667	89.0	-70.0	0.1333333333333333	15.0	1.0	2.0	-1.6585744066797543	1.999	n/a	stim	s611
120.178	0.606	4.863197212509713	draw_card	0.0	columbia_card_task_fmri	17.0	0.8571428571428572	89.0	-70.0	0.1428571428571428	15.0	2.0	2.0	-0.7892704495526743	0.606	n/a	stim	s611
120.786	0.874	3.9071532564657554	draw_card	0.0	columbia_card_task_fmri	17.0	0.8461538461538461	89.0	-70.0	0.1538461538461538	15.0	3.0	2.0	0.1567346529177875	0.874	n/a	stim	s611
121.663	1.009	2.791768641081142	end_round	0.0	columbia_card_task_fmri	17.0	0.8333333333333334	71.0	-70.0	0.1666666666666666	15.0	4.0	2.0	1.189971645726594	1.009	3.0	stim	s611
122.677	2.25	n/a	-1.0	n/a	columbia_card_task_fmri	n/a	n/a	-1.0	n/a	n/a	n/a	n/a	n/a	n/a	n/a	n/a	feedback	s611
124.927	0.068	n/a	-1.0	n/a	columbia_card_task_fmri	n/a	n/a	-1.0	n/a	n/a	n/a	n/a	n/a	n/a	n/a	n/a	ITI	s611
124.998	2.301	0.9167686410811406	end_round	0.0	columbia_card_task_fmri	7.0	0.9375	71.0	-95.0	0.0625	16.0	1.0	1.0	-6.542334079345114	2.301	0.0	stim	s611
127.306	2.25	n/a	-1.0	n/a	columbia_card_task_fmri	n/a	n/a	-1.0	n/a	n/a	n/a	n/a	n/a	n/a	n/a	n/a	feedback	s611
129.556	0.476	n/a	-1.0	n/a	columbia_card_task_fmri	n/a	n/a	-1.0	n/a	n/a	n/a	n/a	n/a	n/a	n/a	n/a	ITI	s611
130.034	1.357	2.4792686410811404	end_round	0.0	columbia_card_task_fmri	9.0	0.9375	71.0	-100.0	0.0625	16.0	1.0	1.0	-4.848014566069629	1.357	0.0	stim	s611
131.395	2.25	n/a	-1.0	n/a	columbia_card_task_fmri	n/a	n/a	-1.0	n/a	n/a	n/a	n/a	n/a	n/a	n/a	n/a	feedback	s611
133.645	0.136	n/a	-1.0	n/a	columbia_card_task_fmri	n/a	n/a	-1.0	n/a	n/a	n/a	n/a	n/a	n/a	n/a	n/a	ITI	s611
133.783	1.211	3.4167686410811404	draw_card	0.0	columbia_card_task_fmri	15.0	0.875	89.0	-80.0	0.125	16.0	1.0	2.0	0.1853247683110801	1.211	n/a	stim	s611
134.997	1.28	2.6251019744144743	end_round	0.0	columbia_card_task_fmri	15.0	0.8666666666666667	71.0	-80.0	0.1333333333333333	16.0	2.0	2.0	1.060781476384804	1.28	1.0	stim	s611
136.283	2.25	n/a	-1.0	n/a	columbia_card_task_fmri	n/a	n/a	-1.0	n/a	n/a	n/a	n/a	n/a	n/a	n/a	n/a	feedback	s611
138.533	0.068	n/a	-1.0	n/a	columbia_card_task_fmri	n/a	n/a	-1.0	n/a	n/a	n/a	n/a	n/a	n/a	n/a	n/a	ITI	s611
138.603	2.013	5.54176864108114	draw_card	0.0	columbia_card_task_fmri	16.0	0.875	89.0	-70.0	0.125	16.0	1.0	2.0	-2.791003688863217	2.013	n/a	stim	s611
140.618	0.656	4.825101974414474	end_round	0.0	columbia_card_task_fmri	16.0	0.8666666666666667	71.0	-70.0	0.1333333333333333	16.0	2.0	2.0	-1.9984923068316045	0.656	1.0	stim	s611
141.28	2.25	n/a	-1.0	n/a	columbia_card_task_fmri	n/a	n/a	-1.0	n/a	n/a	n/a	n/a	n/a	n/a	n/a	n/a	feedback	s611
143.53	0.0	n/a	-1.0	n/a	columbia_card_task_fmri	n/a	n/a	-1.0	n/a	n/a	n/a	n/a	n/a	n/a	n/a	n/a	ITI	s611
143.533	1.715	6.85426864108114	draw_card	1.0	columbia_card_task_fmri	30.0	0.6875	89.0	-45.0	0.3125	16.0	1.0	5.0	3.530328002000161	1.715	1.0	stim	s611
145.253	2.25	n/a	-1.0	n/a	columbia_card_task_fmri	n/a	n/a	-1.0	n/a	n/a	n/a	n/a	n/a	n/a	n/a	n/a	feedback	s611
147.503	0.0	n/a	-1.0	n/a	columbia_card_task_fmri	n/a	n/a	-1.0	n/a	n/a	n/a	n/a	n/a	n/a	n/a	n/a	ITI	s611
147.506	5.468	-1.3748980255855254	draw_card	0.0	columbia_card_task_fmri	13.0	0.8333333333333334	89.0	-75.0	0.1666666666666666	6.0	1.0	1.0	1.5626347248396328	5.468	n/a	stim	s611
152.977	0.566	-4.308231358918859	end_round	0.0	columbia_card_task_fmri	13.0	0.8	71.0	-75.0	0.2	6.0	2.0	1.0	3.966882408810335	0.566	1.0	stim	s611
153.546	2.25	n/a	-1.0	n/a	columbia_card_task_fmri	n/a	n/a	-1.0	n/a	n/a	n/a	n/a	n/a	n/a	n/a	n/a	feedback	s611
155.796	0.204	n/a	-1.0	n/a	columbia_card_task_fmri	n/a	n/a	-1.0	n/a	n/a	n/a	n/a	n/a	n/a	n/a	n/a	ITI	s611
156.003	2.592	0.2917686410811423	draw_card	1.0	columbia_card_task_fmri	14.0	0.8333333333333334	89.0	-70.0	0.1666666666666666	6.0	1.0	1.0	0.0719845392719094	2.592	1.0	stim	s611
158.601	2.25	n/a	-1.0	n/a	columbia_card_task_fmri	n/a	n/a	-1.0	n/a	n/a	n/a	n/a	n/a	n/a	n/a	n/a	feedback	s611
160.851	0.204	n/a	-1.0	n/a	columbia_card_task_fmri	n/a	n/a	-1.0	n/a	n/a	n/a	n/a	n/a	n/a	n/a	n/a	ITI	s611
161.057	1.732	0.2917686410811423	draw_card	0.0	columbia_card_task_fmri	16.0	0.8333333333333334	89.0	-80.0	0.1666666666666666	6.0	1.0	1.0	4.543950545002474	1.732	n/a	stim	s611
162.792	1.175	-2.908231358918859	end_round	0.0	columbia_card_task_fmri	16.0	0.8	71.0	-80.0	0.2	6.0	2.0	1.0	7.166781645423846	1.175	1.0	stim	s611
163.974	2.25	n/a	-1.0	n/a	columbia_card_task_fmri	n/a	n/a	-1.0	n/a	n/a	n/a	n/a	n/a	n/a	n/a	n/a	feedback	s611
166.224	0.272	n/a	-1.0	n/a	columbia_card_task_fmri	n/a	n/a	-1.0	n/a	n/a	n/a	n/a	n/a	n/a	n/a	n/a	ITI	s611
166.497	1.83	2.791768641081142	draw_card	1.0	columbia_card_task_fmri	17.0	0.8333333333333334	89.0	-70.0	0.1666666666666666	6.0	1.0	1.0	1.189971645726594	1.83	1.0	stim	s611
168.33	2.25	n/a	-1.0	n/a	columbia_card_task_fmri	n/a	n/a	-1.0	n/a	n/a	n/a	n/a	n/a	n/a	n/a	n/a	feedback	s611
170.58	0.136	n/a	-1.0	n/a	columbia_card_task_fmri	n/a	n/a	-1.0	n/a	n/a	n/a	n/a	n/a	n/a	n/a	n/a	ITI	s611
170.719	3.444	2.7917686410811404	draw_card	0.0	columbia_card_task_fmri	25.0	0.75	89.0	-65.0	0.25	8.0	1.0	2.0	7.73790857148655	3.444	n/a	stim	s611
174.165	1.345	-0.4225170732045711	draw_card	1.0	columbia_card_task_fmri	25.0	0.7142857142857143	89.0	-65.0	0.2857142857142857	8.0	2.0	2.0	9.424575723060729	1.345	2.0	stim	s611
175.512	2.25	n/a	-1.0	n/a	columbia_card_task_fmri	n/a	n/a	-1.0	n/a	n/a	n/a	n/a	n/a	n/a	n/a	n/a	feedback	s611
177.762	0.204	n/a	-1.0	n/a	columbia_card_task_fmri	n/a	n/a	-1.0	n/a	n/a	n/a	n/a	n/a	n/a	n/a	n/a	ITI	s611
177.969	1.013	2.7917686410811404	draw_card	1.0	columbia_card_task_fmri	30.0	0.75	89.0	-80.0	0.25	8.0	1.0	2.0	16.397964033560577	1.013	1.0	stim	s611
178.987	2.25	n/a	-1.0	n/a	columbia_card_task_fmri	n/a	n/a	-1.0	n/a	n/a	n/a	n/a	n/a	n/a	n/a	n/a	feedback	s611
181.237	0.272	n/a	-1.0	n/a	columbia_card_task_fmri	n/a	n/a	-1.0	n/a	n/a	n/a	n/a	n/a	n/a	n/a	n/a	ITI	s611
181.512	2.483	2.491768641081141	end_round	0.0	columbia_card_task_fmri	13.0	0.9	71.0	-95.0	0.1	10.0	1.0	1.0	1.166986903259172	2.483	0.0	stim	s611
184.001	2.25	n/a	-1.0	n/a	columbia_card_task_fmri	n/a	n/a	-1.0	n/a	n/a	n/a	n/a	n/a	n/a	n/a	n/a	feedback	s611
186.251	0.272	n/a	-1.0	n/a	columbia_card_task_fmri	n/a	n/a	-1.0	n/a	n/a	n/a	n/a	n/a	n/a	n/a	n/a	ITI	s611
186.525	2.363	3.89176864108114	end_round	0.0	columbia_card_task_fmri	14.0	0.9	71.0	-90.0	0.1	10.0	1.0	1.0	-0.0329625723100086	2.363	0.0	stim	s611
188.893	2.25	n/a	-1.0	n/a	columbia_card_task_fmri	n/a	n/a	-1.0	n/a	n/a	n/a	n/a	n/a	n/a	n/a	n/a	feedback	s611
191.143	0.34	n/a	-1.0	n/a	columbia_card_task_fmri	n/a	n/a	-1.0	n/a	n/a	n/a	n/a	n/a	n/a	n/a	n/a	ITI	s611
191.485	1.876	-0.9082313589188586	draw_card	0.0	columbia_card_task_fmri	16.0	0.8	89.0	-70.0	0.2	10.0	1.0	2.0	3.1669105286738244	1.876	n/a	stim	s611
193.364	0.818	-2.8193424700299703	draw_card	1.0	columbia_card_task_fmri	16.0	0.7777777777777778	89.0	-70.0	0.2222222222222222	10.0	2.0	2.0	4.520478715198792	0.818	2.0	stim	s611
194.185	2.25	n/a	-1.0	n/a	columbia_card_task_fmri	n/a	n/a	-1.0	n/a	n/a	n/a	n/a	n/a	n/a	n/a	n/a	feedback	s611
196.435	0.204	n/a	-1.0	n/a	columbia_card_task_fmri	n/a	n/a	-1.0	n/a	n/a	n/a	n/a	n/a	n/a	n/a	n/a	ITI	s611
196.641	1.78	-1.6248980255855254	draw_card	0.0	columbia_card_task_fmri	7.0	0.9166666666666666	89.0	-100.0	0.0833333333333333	12.0	1.0	1.0	-1.6596498191798688	1.78	n/a	stim	s611
198.423	0.839	-2.435504086191588	draw_card	1.0	columbia_card_task_fmri	7.0	0.9090909090909092	89.0	-100.0	0.0909090909090909	12.0	2.0	1.0	-0.4726058343885704	0.839	2.0	stim	s611
199.267	2.25	n/a	-1.0	n/a	columbia_card_task_fmri	n/a	n/a	-1.0	n/a	n/a	n/a	n/a	n/a	n/a	n/a	n/a	feedback	s611
201.517	0.068	n/a	-1.0	n/a	columbia_card_task_fmri	n/a	n/a	-1.0	n/a	n/a	n/a	n/a	n/a	n/a	n/a	n/a	ITI	s611
201.587	0.424	-1.3748980255855237	draw_card	1.0	columbia_card_task_fmri	14.0	0.8333333333333334	89.0	-80.0	0.1666666666666666	12.0	1.0	2.0	3.798619864257688	0.424	1.0	stim	s611
202.016	2.25	n/a	-1.0	n/a	columbia_card_task_fmri	n/a	n/a	-1.0	n/a	n/a	n/a	n/a	n/a	n/a	n/a	n/a	feedback	s611
204.266	0.0	n/a	-1.0	n/a	columbia_card_task_fmri	n/a	n/a	-1.0	n/a	n/a	n/a	n/a	n/a	n/a	n/a	n/a	ITI	s611
204.269	0.726	0.2917686410811406	draw_card	0.0	columbia_card_task_fmri	15.0	0.8333333333333334	89.0	-75.0	0.1666666666666666	12.0	1.0	2.0	2.30796187748399	0.726	n/a	stim	s611
204.998	0.786	-1.0718677225552244	end_round	0.0	columbia_card_task_fmri	15.0	0.8181818181818181	71.0	-75.0	0.1818181818181818	12.0	2.0	2.0	3.479414102371692	0.786	1.0	stim	s611
205.791	2.25	n/a	-1.0	n/a	columbia_card_task_fmri	n/a	n/a	-1.0	n/a	n/a	n/a	n/a	n/a	n/a	n/a	n/a	feedback	s611
208.041	0.408	n/a	-1.0	n/a	columbia_card_task_fmri	n/a	n/a	-1.0	n/a	n/a	n/a	n/a	n/a	n/a	n/a	n/a	ITI	s611
208.452	2.102	-0.7082313589188594	draw_card	0.0	columbia_card_task_fmri	15.0	0.8	89.0	-65.0	0.2	15.0	1.0	3.0	0.7670033237255538	2.102	n/a	stim	s611
210.557	0.606	-1.8510885017760017	draw_card	0.0	columbia_card_task_fmri	15.0	0.7857142857142857	89.0	-65.0	0.2142857142857142	15.0	2.0	3.0	1.5930421185583228	0.606	n/a	stim	s611
211.166	0.629	-3.169769820457323	draw_card	0.0	columbia_card_task_fmri	15.0	0.7692307692307692	89.0	-65.0	0.2307692307692307	15.0	3.0	3.0	2.472939542492661	0.629	n/a	stim	s611
211.798	0.359	-4.70823135891886	end_round	0.0	columbia_card_task_fmri	15.0	0.75	71.0	-65.0	0.25	15.0	4.0	3.0	3.4079180716790347	0.359	3.0	stim	s611
212.165	2.25	n/a	-1.0	n/a	columbia_card_task_fmri	n/a	n/a	-1.0	n/a	n/a	n/a	n/a	n/a	n/a	n/a	n/a	feedback	s611
214.415	0.204	n/a	-1.0	n/a	columbia_card_task_fmri	n/a	n/a	-1.0	n/a	n/a	n/a	n/a	n/a	n/a	n/a	n/a	ITI	s611
214.622	2.177	-1.4582313589188594	draw_card	0.0	columbia_card_task_fmri	14.0	0.8125	89.0	-70.0	0.1875	16.0	1.0	3.0	1.553210919475596	2.177	n/a	stim	s611
216.802	0.47	-2.5082313589188585	end_round	0.0	columbia_card_task_fmri	14.0	0.8	71.0	-70.0	0.2	16.0	2.0	3.0	2.366939987504445	0.47	1.0	stim	s611
217.275	2.25	n/a	-1.0	n/a	columbia_card_task_fmri	n/a	n/a	-1.0	n/a	n/a	n/a	n/a	n/a	n/a	n/a	n/a	feedback	s611
219.525	0.136	n/a	-1.0	n/a	columbia_card_task_fmri	n/a	n/a	-1.0	n/a	n/a	n/a	n/a	n/a	n/a	n/a	n/a	ITI	s611
219.666	0.592	-1.5207313589188594	draw_card	1.0	columbia_card_task_fmri	11.0	0.6875	89.0	-30.0	0.3125	16.0	1.0	5.0	-12.22807853438955	0.592	1.0	stim	s611
220.265	2.25	n/a	-1.0	n/a	columbia_card_task_fmri	n/a	n/a	-1.0	n/a	n/a	n/a	n/a	n/a	n/a	n/a	n/a	feedback	s611
222.515	0.34	n/a	-1.0	n/a	columbia_card_task_fmri	n/a	n/a	-1.0	n/a	n/a	n/a	n/a	n/a	n/a	n/a	n/a	ITI	s611
222.859	0.92	3.2917686410811404	draw_card	1.0	columbia_card_task_fmri	15.0	0.8666666666666667	89.0	-75.0	0.1333333333333333	15.0	1.0	2.0	-0.6388184751687866	0.92	1.0	stim	s611
223.785	2.25	n/a	-1.0	n/a	columbia_card_task_fmri	n/a	n/a	-1.0	n/a	n/a	n/a	n/a	n/a	n/a	n/a	n/a	feedback	s611
226.035	0.068	n/a	-1.0	n/a	columbia_card_task_fmri	n/a	n/a	-1.0	n/a	n/a	n/a	n/a	n/a	n/a	n/a	n/a	ITI	s611
226.106	0.448	5.025101974414475	draw_card	0.0	columbia_card_task_fmri	17.0	0.8666666666666667	89.0	-75.0	0.1333333333333333	15.0	1.0	2.0	0.0410205504759559	0.448	n/a	stim	s611
226.557	0.891	4.148911498224	draw_card	0.0	columbia_card_task_fmri	17.0	0.8571428571428572	89.0	-75.0	0.1428571428571428	15.0	2.0	2.0	0.9602891001390644	0.891	n/a	stim	s611
227.453	1.169	3.137922487234987	end_round	0.0	columbia_card_task_fmri	17.0	0.8461538461538461	71.0	-75.0	0.1538461538461538	15.0	3.0	2.0	1.9606670232055805	1.169	2.0	stim	s611
228.628	2.25	n/a	-1.0	n/a	columbia_card_task_fmri	n/a	n/a	-1.0	n/a	n/a	n/a	n/a	n/a	n/a	n/a	n/a	feedback	s611
230.878	0.34	n/a	-1.0	n/a	columbia_card_task_fmri	n/a	n/a	-1.0	n/a	n/a	n/a	n/a	n/a	n/a	n/a	n/a	ITI	s611
231.222	2.111	0.6042686410811406	draw_card	0.0	columbia_card_task_fmri	2.0	0.9375	89.0	-25.0	0.0625	16.0	1.0	1.0	-24.692157982032725	2.111	n/a	stim	s611
233.337	1.553	0.4917686410811405	draw_card	1.0	columbia_card_task_fmri	2.0	0.9333333333333332	89.0	-25.0	0.0666666666666666	16.0	2.0	1.0	-24.49302654727158	1.553	2.0	stim	s611
234.896	2.25	n/a	-1.0	n/a	columbia_card_task_fmri	n/a	n/a	-1.0	n/a	n/a	n/a	n/a	n/a	n/a	n/a	n/a	feedback	s611
237.146	0.136	n/a	-1.0	n/a	columbia_card_task_fmri	n/a	n/a	-1.0	n/a	n/a	n/a	n/a	n/a	n/a	n/a	n/a	ITI	s611
237.286	0.561	2.7917686410811404	draw_card	0.0	columbia_card_task_fmri	9.0	0.9375	89.0	-95.0	0.0625	16.0	1.0	1.0	-6.058244310299877	0.561	n/a	stim	s611
237.851	0.46	2.358435307747808	end_round	0.0	columbia_card_task_fmri	9.0	0.9333333333333332	71.0	-95.0	0.0666666666666666	16.0	2.0	1.0	-5.290528213407495	0.46	1.0	stim	s611
238.319	2.25	n/a	-1.0	n/a	columbia_card_task_fmri	n/a	n/a	-1.0	n/a	n/a	n/a	n/a	n/a	n/a	n/a	n/a	feedback	s611
240.569	0.068	n/a	-1.0	n/a	columbia_card_task_fmri	n/a	n/a	-1.0	n/a	n/a	n/a	n/a	n/a	n/a	n/a	n/a	ITI	s611
240.64	2.443	4.35426864108114	end_round	0.0	columbia_card_task_fmri	11.0	0.9375	71.0	-100.0	0.0625	16.0	1.0	1.0	-4.363920712302424	2.443	0.0	stim	s611
243.087	2.25	n/a	-1.0	n/a	columbia_card_task_fmri	n/a	n/a	-1.0	n/a	n/a	n/a	n/a	n/a	n/a	n/a	n/a	feedback	s611
245.337	0.068	n/a	-1.0	n/a	columbia_card_task_fmri	n/a	n/a	-1.0	n/a	n/a	n/a	n/a	n/a	n/a	n/a	n/a	ITI	s611
245.408	1.125	4.91676864108114	draw_card	0.0	columbia_card_task_fmri	16.0	0.875	89.0	-75.0	0.125	16.0	1.0	2.0	-1.137491341049106	1.125	n/a	stim	s611
246.537	0.827	4.158435307747808	end_round	0.0	columbia_card_task_fmri	16.0	0.8666666666666667	71.0	-75.0	0.1333333333333333	16.0	2.0	2.0	-0.2988991285047468	0.827	1.0	stim	s611
247.37	2.25	n/a	-1.0	n/a	columbia_card_task_fmri	n/a	n/a	-1.0	n/a	n/a	n/a	n/a	n/a	n/a	n/a	n/a	feedback	s611
249.62	0.068	n/a	-1.0	n/a	columbia_card_task_fmri	n/a	n/a	-1.0	n/a	n/a	n/a	n/a	n/a	n/a	n/a	n/a	ITI	s611
249.69	1.284	5.16676864108114	draw_card	0.0	columbia_card_task_fmri	17.0	0.875	89.0	-80.0	0.125	16.0	1.0	2.0	0.8467346645077996	1.284	n/a	stim	s611
250.977	0.767	4.358435307747809	draw_card	0.0	columbia_card_task_fmri	17.0	0.8666666666666667	89.0	-80.0	0.1333333333333333	16.0	2.0	2.0	1.740623570434778	0.767	n/a	stim	s611
251.748	0.705	3.4346257839382863	draw_card	0.0	columbia_card_task_fmri	17.0	0.8571428571428572	89.0	-80.0	0.1428571428571428	16.0	3.0	2.0	2.709856482451407	0.705	n/a	stim	s611
252.457	0.511	2.368691718004217	end_round	0.0	columbia_card_task_fmri	17.0	0.8461538461538461	71.0	-80.0	0.1538461538461538	16.0	4.0	2.0	3.764606990104205	0.511	3.0	stim	s611
252.973	2.25	n/a	-1.0	n/a	columbia_card_task_fmri	n/a	n/a	-1.0	n/a	n/a	n/a	n/a	n/a	n/a	n/a	n/a	feedback	s611
255.223	0.136	n/a	-1.0	n/a	columbia_card_task_fmri	n/a	n/a	-1.0	n/a	n/a	n/a	n/a	n/a	n/a	n/a	n/a	ITI	s611
266.367	11.36	-0.5415646922521915	draw_card	0.0	columbia_card_task_fmri	13.0	0.8333333333333334	89.0	-70.0	0.1666666666666666	6.0	1.0	1.0	-0.3006770764663642	11.36	n/a	stim	s611
277.729	1.46	-3.308231358918859	end_round	0.0	columbia_card_task_fmri	13.0	0.8	71.0	-70.0	0.2	6.0	2.0	1.0	1.9669552492779017	1.46	1.0	stim	s611
279.194	2.25	n/a	-1.0	n/a	columbia_card_task_fmri	n/a	n/a	-1.0	n/a	n/a	n/a	n/a	n/a	n/a	n/a	n/a	feedback	s611
281.444	0.0	n/a	-1.0	n/a	columbia_card_task_fmri	n/a	n/a	-1.0	n/a	n/a	n/a	n/a	n/a	n/a	n/a	n/a	ITI	s611
281.447	1.688	-0.5415646922521915	draw_card	0.0	columbia_card_task_fmri	15.0	0.8333333333333334	89.0	-80.0	0.1666666666666666	6.0	1.0	1.0	4.171285071417103	1.688	n/a	stim	s611
283.138	0.439	-3.70823135891886	end_round	0.0	columbia_card_task_fmri	15.0	0.8	71.0	-80.0	0.2	6.0	2.0	1.0	6.766793312805312	0.439	1.0	stim	s611
283.586	2.25	n/a	-1.0	n/a	columbia_card_task_fmri	n/a	n/a	-1.0	n/a	n/a	n/a	n/a	n/a	n/a	n/a	n/a	feedback	s611
285.836	0.136	n/a	-1.0	n/a	columbia_card_task_fmri	n/a	n/a	-1.0	n/a	n/a	n/a	n/a	n/a	n/a	n/a	n/a	ITI	s611
285.975	1.911	1.1251019744144746	end_round	0.0	columbia_card_task_fmri	16.0	0.8333333333333334	71.0	-75.0	0.1666666666666666	6.0	1.0	1.0	2.680625929161621	1.911	0.0	stim	s611
287.894	2.25	n/a	-1.0	n/a	columbia_card_task_fmri	n/a	n/a	-1.0	n/a	n/a	n/a	n/a	n/a	n/a	n/a	n/a	feedback	s611
290.144	0.34	n/a	-1.0	n/a	columbia_card_task_fmri	n/a	n/a	-1.0	n/a	n/a	n/a	n/a	n/a	n/a	n/a	n/a	ITI	s611
290.488	1.879	2.2917686410811404	draw_card	0.0	columbia_card_task_fmri	21.0	0.75	89.0	-55.0	0.25	8.0	1.0	2.0	1.6759319305068558	1.879	n/a	stim	s611
292.37	0.458	-0.4225170732045729	end_round	0.0	columbia_card_task_fmri	21.0	0.7142857142857143	71.0	-55.0	0.2857142857142857	8.0	2.0	2.0	3.100213242736324	0.458	1.0	stim	s611
292.834	2.25	n/a	-1.0	n/a	columbia_card_task_fmri	n/a	n/a	-1.0	n/a	n/a	n/a	n/a	n/a	n/a	n/a	n/a	feedback	s611
295.084	0.408	n/a	-1.0	n/a	columbia_card_task_fmri	n/a	n/a	-1.0	n/a	n/a	n/a	n/a	n/a	n/a	n/a	n/a	ITI	s611
295.495	2.191	3.5417686410811404	draw_card	0.0	columbia_card_task_fmri	26.0	0.75	89.0	-65.0	0.25	8.0	1.0	2.0	8.170909271627146	2.191	n/a	stim	s611
297.688	0.41	0.2917686410811441	end_round	0.0	columbia_card_task_fmri	26.0	0.7142857142857143	71.0	-65.0	0.2857142857142857	8.0	2.0	2.0	9.876318170621827	0.41	1.0	stim	s611
298.103	2.25	n/a	-1.0	n/a	columbia_card_task_fmri	n/a	n/a	-1.0	n/a	n/a	n/a	n/a	n/a	n/a	n/a	n/a	feedback	s611
300.353	0.136	n/a	-1.0	n/a	columbia_card_task_fmri	n/a	n/a	-1.0	n/a	n/a	n/a	n/a	n/a	n/a	n/a	n/a	ITI	s611
300.492	1.563	-1.3748980255855254	draw_card	0.0	columbia_card_task_fmri	15.0	0.7777777777777778	89.0	-60.0	0.2222222222222222	9.0	1.0	2.0	-0.0524834951095911	1.563	n/a	stim	s611
302.059	0.379	-3.45823135891886	end_round	0.0	columbia_card_task_fmri	15.0	0.75	71.0	-60.0	0.25	9.0	2.0	2.0	1.2429364729234962	0.379	1.0	stim	s611
302.443	2.25	n/a	-1.0	n/a	columbia_card_task_fmri	n/a	n/a	-1.0	n/a	n/a	n/a	n/a	n/a	n/a	n/a	n/a	feedback	s611
304.693	0.136	n/a	-1.0	n/a	columbia_card_task_fmri	n/a	n/a	-1.0	n/a	n/a	n/a	n/a	n/a	n/a	n/a	n/a	ITI	s611
304.833	2.434	2.991768641081141	end_round	0.0	columbia_card_task_fmri	13.0	0.9	71.0	-90.0	0.1	10.0	1.0	1.0	-0.3329493280819697	2.434	0.0	stim	s611
307.274	2.25	n/a	-1.0	n/a	columbia_card_task_fmri	n/a	n/a	-1.0	n/a	n/a	n/a	n/a	n/a	n/a	n/a	n/a	feedback	s611
309.524	0.0	n/a	-1.0	n/a	columbia_card_task_fmri	n/a	n/a	-1.0	n/a	n/a	n/a	n/a	n/a	n/a	n/a	n/a	ITI	s611
309.528	1.009	4.29176864108114	end_round	0.0	columbia_card_task_fmri	15.0	0.9	71.0	-95.0	0.1	10.0	1.0	1.0	1.7669630188999506	1.009	0.0	stim	s611
310.54	2.25	n/a	-1.0	n/a	columbia_card_task_fmri	n/a	n/a	-1.0	n/a	n/a	n/a	n/a	n/a	n/a	n/a	n/a	feedback	s611
312.79	0.068	n/a	-1.0	n/a	columbia_card_task_fmri	n/a	n/a	-1.0	n/a	n/a	n/a	n/a	n/a	n/a	n/a	n/a	ITI	s611
312.862	1.049	0.0917686410811413	draw_card	0.0	columbia_card_task_fmri	16.0	0.8	89.0	-65.0	0.2	10.0	1.0	2.0	1.166986903259179	1.049	n/a	stim	s611
313.915	0.443	-1.7082313589188576	end_round	0.0	columbia_card_task_fmri	16.0	0.7777777777777778	71.0	-65.0	0.2222222222222222	10.0	2.0	2.0	2.4418536503836137	0.443	1.0	stim	s611
314.363	2.25	n/a	-1.0	n/a	columbia_card_task_fmri	n/a	n/a	-1.0	n/a	n/a	n/a	n/a	n/a	n/a	n/a	n/a	feedback	s611
316.613	0.0	n/a	-1.0	n/a	columbia_card_task_fmri	n/a	n/a	-1.0	n/a	n/a	n/a	n/a	n/a	n/a	n/a	n/a	ITI	s611
316.616	1.467	-1.2082313589188594	end_round	0.0	columbia_card_task_fmri	7.0	0.9166666666666666	71.0	-95.0	0.0833333333333333	12.0	1.0	1.0	-3.041506267128966	1.467	0.0	stim	s611
318.091	2.25	n/a	-1.0	n/a	columbia_card_task_fmri	n/a	n/a	-1.0	n/a	n/a	n/a	n/a	n/a	n/a	n/a	n/a	feedback	s611
320.341	0.0	n/a	-1.0	n/a	columbia_card_task_fmri	n/a	n/a	-1.0	n/a	n/a	n/a	n/a	n/a	n/a	n/a	n/a	ITI	s611
320.344	1.637	-0.5415646922521915	draw_card	0.0	columbia_card_task_fmri	14.0	0.8333333333333334	89.0	-75.0	0.1666666666666666	12.0	1.0	2.0	1.935298139149552	1.637	n/a	stim	s611
321.985	0.347	-1.8900495407370428	end_round	0.0	columbia_card_task_fmri	14.0	0.8181818181818181	71.0	-75.0	0.1818181818181818	12.0	2.0	2.0	3.0937332712365944	0.347	1.0	stim	s611
322.339	2.25	n/a	-1.0	n/a	columbia_card_task_fmri	n/a	n/a	-1.0	n/a	n/a	n/a	n/a	n/a	n/a	n/a	n/a	feedback	s611
324.589	0.136	n/a	-1.0	n/a	columbia_card_task_fmri	n/a	n/a	-1.0	n/a	n/a	n/a	n/a	n/a	n/a	n/a	n/a	ITI	s611
324.729	1.281	1.1251019744144746	draw_card	0.0	columbia_card_task_fmri	15.0	0.8333333333333334	89.0	-70.0	0.1666666666666666	12.0	1.0	2.0	0.4446465404091668	1.281	n/a	stim	s611
326.014	0.495	-0.1627768134643162	draw_card	0.0	columbia_card_task_fmri	15.0	0.8181818181818181	89.0	-70.0	0.1818181818181818	12.0	2.0	2.0	1.5510131881065163	0.495	n/a	stim	s611
326.513	0.395	-1.7082313589188594	end_round	0.0	columbia_card_task_fmri	15.0	0.8	71.0	-70.0	0.2	12.0	3.0	2.0	2.766925084811461	0.395	2.0	stim	s611
326.916	2.25	n/a	-1.0	n/a	columbia_card_task_fmri	n/a	n/a	-1.0	n/a	n/a	n/a	n/a	n/a	n/a	n/a	n/a	feedback	s611
329.166	0.136	n/a	-1.0	n/a	columbia_card_task_fmri	n/a	n/a	-1.0	n/a	n/a	n/a	n/a	n/a	n/a	n/a	n/a	ITI	s611
329.306	0.776	-0.9082313589188586	draw_card	1.0	columbia_card_task_fmri	16.0	0.8	89.0	-70.0	0.2	15.0	1.0	3.0	3.1669105286738244	0.776	1.0	stim	s611
330.09	2.25	n/a	-1.0	n/a	columbia_card_task_fmri	n/a	n/a	-1.0	n/a	n/a	n/a	n/a	n/a	n/a	n/a	n/a	feedback	s611
332.34	0.476	n/a	-1.0	n/a	columbia_card_task_fmri	n/a	n/a	-1.0	n/a	n/a	n/a	n/a	n/a	n/a	n/a	n/a	ITI	s611
332.819	0.992	-0.5207313589188594	draw_card	0.0	columbia_card_task_fmri	14.0	0.8125	89.0	-65.0	0.1875	16.0	1.0	3.0	-0.3982687930102493	0.992	n/a	stim	s611
333.815	0.464	-1.5082313589188583	draw_card	0.0	columbia_card_task_fmri	14.0	0.8	89.0	-65.0	0.2	16.0	2.0	3.0	0.3670201598737002	0.464	n/a	stim	s611
334.282	0.349	-2.636802787490286	draw_card	0.0	columbia_card_task_fmri	14.0	0.7857142857142857	89.0	-65.0	0.2142857142857142	16.0	3.0	3.0	1.1827326277500203	0.349	n/a	stim	s611
334.635	0.349	-3.9390005896880913	end_round	0.0	columbia_card_task_fmri	14.0	0.7692307692307692	71.0	-65.0	0.2307692307692307	16.0	4.0	3.0	2.051630482356906	0.349	3.0	stim	s611
334.99	2.25	n/a	-1.0	n/a	columbia_card_task_fmri	n/a	n/a	-1.0	n/a	n/a	n/a	n/a	n/a	n/a	n/a	n/a	feedback	s611
337.24	0.204	n/a	-1.0	n/a	columbia_card_task_fmri	n/a	n/a	-1.0	n/a	n/a	n/a	n/a	n/a	n/a	n/a	n/a	ITI	s611
337.448	1.239	-0.7707313589188594	draw_card	1.0	columbia_card_task_fmri	16.0	0.8125	89.0	-75.0	0.1875	16.0	1.0	3.0	4.285297684499739	1.239	1.0	stim	s611
338.696	2.25	n/a	-1.0	n/a	columbia_card_task_fmri	n/a	n/a	-1.0	n/a	n/a	n/a	n/a	n/a	n/a	n/a	n/a	feedback	s611
340.946	0.068	n/a	-1.0	n/a	columbia_card_task_fmri	n/a	n/a	-1.0	n/a	n/a	n/a	n/a	n/a	n/a	n/a	n/a	ITI	s611
341.018	0.475	3.491768641081141	draw_card	0.0	columbia_card_task_fmri	16.0	0.8666666666666667	89.0	-80.0	0.1333333333333333	15.0	1.0	2.0	1.400702381884784	0.475	n/a	stim	s611
341.497	0.362	2.5774829267954287	draw_card	0.0	columbia_card_task_fmri	16.0	0.8571428571428572	89.0	-80.0	0.1428571428571428	15.0	2.0	2.0	2.359942438119361	0.362	n/a	stim	s611
341.862	0.355	1.5225378718503706	draw_card	0.0	columbia_card_task_fmri	16.0	0.8461538461538461	89.0	-80.0	0.1538461538461538	15.0	3.0	2.0	3.40381844596601	0.355	n/a	stim	s611
342.221	0.307	0.2917686410811423	draw_card	0.0	columbia_card_task_fmri	16.0	0.8333333333333334	89.0	-80.0	0.1666666666666666	15.0	4.0	2.0	4.543950545002474	0.307	n/a	stim	s611
342.532	0.806	-1.1627768134643162	draw_card	0.0	columbia_card_task_fmri	16.0	0.8181818181818181	89.0	-80.0	0.1818181818181818	15.0	5.0	2.0	5.793505116231401	0.806	n/a	stim	s611
343.342	0.542	-2.908231358918859	end_round	0.0	columbia_card_task_fmri	16.0	0.8	71.0	-80.0	0.2	15.0	6.0	2.0	7.166781645423846	0.542	5.0	stim	s611
343.898	2.25	n/a	-1.0	n/a	columbia_card_task_fmri	n/a	n/a	-1.0	n/a	n/a	n/a	n/a	n/a	n/a	n/a	n/a	feedback	s611
346.148	0.068	n/a	-1.0	n/a	columbia_card_task_fmri	n/a	n/a	-1.0	n/a	n/a	n/a	n/a	n/a	n/a	n/a	n/a	ITI	s611
346.22	1.277	4.358435307747809	draw_card	0.0	columbia_card_task_fmri	17.0	0.8666666666666667	89.0	-80.0	0.1333333333333333	15.0	1.0	2.0	1.740623570434778	1.277	n/a	stim	s611
347.502	0.413	3.4346257839382863	draw_card	0.0	columbia_card_task_fmri	17.0	0.8571428571428572	89.0	-80.0	0.1428571428571428	15.0	2.0	2.0	2.709856482451407	0.413	n/a	stim	s611
347.919	0.33	2.368691718004217	draw_card	0.0	columbia_card_task_fmri	17.0	0.8461538461538461	89.0	-80.0	0.1538461538461538	15.0	3.0	2.0	3.764606990104205	0.33	n/a	stim	s611
348.253	0.632	1.1251019744144763	draw_card	0.0	columbia_card_task_fmri	17.0	0.8333333333333334	89.0	-80.0	0.1666666666666666	15.0	4.0	2.0	4.916616276774363	0.632	n/a	stim	s611
348.889	0.41	-0.3445949952824979	draw_card	1.0	columbia_card_task_fmri	17.0	0.8181818181818181	89.0	-80.0	0.1818181818181818	15.0	5.0	2.0	6.179187873542098	0.41	5.0	stim	s611
349.304	2.25	n/a	-1.0	n/a	columbia_card_task_fmri	n/a	n/a	-1.0	n/a	n/a	n/a	n/a	n/a	n/a	n/a	n/a	feedback	s611
351.554	0.34	n/a	-1.0	n/a	columbia_card_task_fmri	n/a	n/a	-1.0	n/a	n/a	n/a	n/a	n/a	n/a	n/a	n/a	ITI	s611
351.898	0.576	0.2917686410811406	draw_card	0.0	columbia_card_task_fmri	1.0	0.9375	89.0	-15.0	0.0625	16.0	1.0	1.0	-27.35036889205721	0.576	n/a	stim	s611
352.478	0.771	0.2251019744144739	draw_card	0.0	columbia_card_task_fmri	1.0	0.9333333333333332	89.0	-15.0	0.0666666666666666	16.0	2.0	1.0	-27.23257494333615	0.771	n/a	stim	s611
353.253	1.833	0.1489114982239978	draw_card	0.0	columbia_card_task_fmri	1.0	0.9285714285714286	89.0	-15.0	0.0714285714285714	16.0	3.0	1.0	-27.103380071563876	1.833	n/a	stim	s611
355.09	0.943	0.0609994103119097	end_round	0.0	columbia_card_task_fmri	1.0	0.9230769230769232	71.0	-15.0	0.0769230769230769	16.0	4.0	1.0	-26.960845334886063	0.943	3.0	stim	s611
356.038	2.25	n/a	-1.0	n/a	columbia_card_task_fmri	n/a	n/a	-1.0	n/a	n/a	n/a	n/a	n/a	n/a	n/a	n/a	feedback	s611
358.288	0.476	n/a	-1.0	n/a	columbia_card_task_fmri	n/a	n/a	-1.0	n/a	n/a	n/a	n/a	n/a	n/a	n/a	n/a	ITI	s611
358.768	1.63	3.4167686410811404	end_round	0.0	columbia_card_task_fmri	10.0	0.9375	71.0	-100.0	0.0625	16.0	1.0	1.0	-4.605967771285535	1.63	0.0	stim	s611
360.403	2.25	n/a	-1.0	n/a	columbia_card_task_fmri	n/a	n/a	-1.0	n/a	n/a	n/a	n/a	n/a	n/a	n/a	n/a	feedback	s611
362.653	0.272	n/a	-1.0	n/a	columbia_card_task_fmri	n/a	n/a	-1.0	n/a	n/a	n/a	n/a	n/a	n/a	n/a	n/a	ITI	s611
362.928	2.419	4.04176864108114	draw_card	0.0	columbia_card_task_fmri	15.0	0.875	89.0	-75.0	0.125	16.0	1.0	2.0	-1.468194541417315	2.419	n/a	stim	s611
365.352	0.416	3.2917686410811404	draw_card	0.0	columbia_card_task_fmri	15.0	0.8666666666666667	89.0	-75.0	0.1333333333333333	16.0	2.0	2.0	-0.6388184751687866	0.416	n/a	stim	s611
365.772	0.289	2.4346257839382845	end_round	0.0	columbia_card_task_fmri	15.0	0.8571428571428572	71.0	-75.0	0.1428571428571428	16.0	3.0	2.0	0.2604642672496204	0.289	2.0	stim	s611
366.068	2.25	n/a	-1.0	n/a	columbia_card_task_fmri	n/a	n/a	-1.0	n/a	n/a	n/a	n/a	n/a	n/a	n/a	n/a	feedback	s611
368.318	0.884	n/a	-1.0	n/a	columbia_card_task_fmri	n/a	n/a	-1.0	n/a	n/a	n/a	n/a	n/a	n/a	n/a	n/a	ITI	s611
369.206	0.833	4.29176864108114	draw_card	0.0	columbia_card_task_fmri	16.0	0.875	89.0	-80.0	0.125	16.0	1.0	2.0	0.5160295709417326	0.833	n/a	stim	s611
370.043	1.316	3.491768641081141	draw_card	0.0	columbia_card_task_fmri	16.0	0.8666666666666667	89.0	-80.0	0.1333333333333333	16.0	2.0	2.0	1.400702381884784	1.316	n/a	stim	s611
371.363	0.598	2.5774829267954287	end_round	0.0	columbia_card_task_fmri	16.0	0.8571428571428572	71.0	-80.0	0.1428571428571428	16.0	3.0	2.0	2.359942438119361	0.598	2.0	stim	s611
371.968	2.25	n/a	-1.0	n/a	columbia_card_task_fmri	n/a	n/a	-1.0	n/a	n/a	n/a	n/a	n/a	n/a	n/a	n/a	feedback	s611
374.218	0.136	n/a	-1.0	n/a	columbia_card_task_fmri	n/a	n/a	-1.0	n/a	n/a	n/a	n/a	n/a	n/a	n/a	n/a	ITI	s611
374.358	3.671	1.4792686410811406	draw_card	0.0	columbia_card_task_fmri	4.0	0.6875	89.0	-5.0	0.3125	16.0	1.0	5.0	-27.05252422364244	3.671	n/a	stim	s611
378.033	0.583	1.291768641081141	draw_card	0.0	columbia_card_task_fmri	4.0	0.6666666666666667	89.0	-5.0	0.3333333333333333	16.0	2.0	5.0	-26.981665393388084	0.583	n/a	stim	s611
378.621	0.268	1.077482926795426	draw_card	0.0	columbia_card_task_fmri	4.0	0.6428571428571428	89.0	-5.0	0.3571428571428571	16.0	3.0	5.0	-26.91205103179371	0.268	n/a	stim	s611
378.893	0.187	0.8302301795426792	draw_card	1.0	columbia_card_task_fmri	4.0	0.6153846153846154	89.0	-5.0	0.3846153846153846	16.0	4.0	5.0	-26.84607809743189	0.187	4.0	stim	s611
379.088	2.25	n/a	-1.0	n/a	columbia_card_task_fmri	n/a	n/a	-1.0	n/a	n/a	n/a	n/a	n/a	n/a	n/a	n/a	feedback	s611
381.338	0.136	n/a	-1.0	n/a	columbia_card_task_fmri	n/a	n/a	-1.0	n/a	n/a	n/a	n/a	n/a	n/a	n/a	n/a	ITI	s611
381.478	4.757	-1.3748980255855237	draw_card	0.0	columbia_card_task_fmri	14.0	0.8333333333333334	89.0	-80.0	0.1666666666666666	6.0	1.0	1.0	3.798619864257688	4.757	n/a	stim	s611
386.24	1.03	-4.5082313589188585	end_round	0.0	columbia_card_task_fmri	14.0	0.8	71.0	-80.0	0.2	6.0	2.0	1.0	6.366805228417839	1.03	1.0	stim	s611
387.279	2.25	n/a	-1.0	n/a	columbia_card_task_fmri	n/a	n/a	-1.0	n/a	n/a	n/a	n/a	n/a	n/a	n/a	n/a	feedback	s611
389.529	0.068	n/a	-1.0	n/a	columbia_card_task_fmri	n/a	n/a	-1.0	n/a	n/a	n/a	n/a	n/a	n/a	n/a	n/a	ITI	s611
389.6	1.249	0.2917686410811406	draw_card	1.0	columbia_card_task_fmri	15.0	0.8333333333333334	89.0	-75.0	0.1666666666666666	6.0	1.0	1.0	2.30796187748399	1.249	1.0	stim	s611
390.858	2.25	n/a	-1.0	n/a	columbia_card_task_fmri	n/a	n/a	-1.0	n/a	n/a	n/a	n/a	n/a	n/a	n/a	n/a	feedback	s611
393.108	0.068	n/a	-1.0	n/a	columbia_card_task_fmri	n/a	n/a	-1.0	n/a	n/a	n/a	n/a	n/a	n/a	n/a	n/a	ITI	s611
393.18	0.782	1.9584353077478085	draw_card	0.0	columbia_card_task_fmri	16.0	0.8333333333333334	89.0	-70.0	0.1666666666666666	6.0	1.0	1.0	0.8173089135023943	0.782	n/a	stim	s611
393.965	0.606	-0.9082313589188586	draw_card	0.0	columbia_card_task_fmri	16.0	0.8	89.0	-70.0	0.2	6.0	2.0	1.0	3.1669105286738244	0.606	n/a	stim	s611
394.574	0.499	-5.20823135891886	end_round	0.0	columbia_card_task_fmri	16.0	0.75	71.0	-70.0	0.25	6.0	3.0	1.0	6.005908561904967	0.499	2.0	stim	s611
395.082	2.25	n/a	-1.0	n/a	columbia_card_task_fmri	n/a	n/a	-1.0	n/a	n/a	n/a	n/a	n/a	n/a	n/a	n/a	feedback	s611
397.332	0.612	n/a	-1.0	n/a	columbia_card_task_fmri	n/a	n/a	-1.0	n/a	n/a	n/a	n/a	n/a	n/a	n/a	n/a	ITI	s611
397.948	0.881	2.5417686410811404	draw_card	0.0	columbia_card_task_fmri	23.0	0.75	89.0	-60.0	0.25	8.0	1.0	2.0	4.706911767691643	0.881	n/a	stim	s611
398.834	1.255	-0.4225170732045711	draw_card	0.0	columbia_card_task_fmri	23.0	0.7142857142857143	89.0	-60.0	0.2857142857142857	8.0	2.0	2.0	6.262386351461807	1.255	n/a	stim	s611
400.092	0.408	-4.374898025585524	draw_card	1.0	columbia_card_task_fmri	23.0	0.6666666666666667	89.0	-60.0	0.3333333333333333	8.0	3.0	2.0	7.893336288192067	0.408	3.0	stim	s611
400.507	2.25	n/a	-1.0	n/a	columbia_card_task_fmri	n/a	n/a	-1.0	n/a	n/a	n/a	n/a	n/a	n/a	n/a	n/a	feedback	s611
402.757	0.476	n/a	-1.0	n/a	columbia_card_task_fmri	n/a	n/a	-1.0	n/a	n/a	n/a	n/a	n/a	n/a	n/a	n/a	ITI	s611
403.238	1.518	3.0417686410811404	draw_card	1.0	columbia_card_task_fmri	27.0	0.75	89.0	-70.0	0.25	8.0	1.0	2.0	10.768918668908356	1.518	1.0	stim	s611
404.761	2.25	n/a	-1.0	n/a	columbia_card_task_fmri	n/a	n/a	-1.0	n/a	n/a	n/a	n/a	n/a	n/a	n/a	n/a	feedback	s611
407.011	0.0	n/a	-1.0	n/a	columbia_card_task_fmri	n/a	n/a	-1.0	n/a	n/a	n/a	n/a	n/a	n/a	n/a	n/a	ITI	s611
407.015	0.745	-1.7082313589188576	draw_card	0.0	columbia_card_task_fmri	16.0	0.7777777777777778	89.0	-65.0	0.2222222222222222	9.0	1.0	2.0	2.4418536503836137	0.745	n/a	stim	s611
407.765	0.558	-3.95823135891886	draw_card	0.0	columbia_card_task_fmri	16.0	0.75	89.0	-65.0	0.25	9.0	2.0	2.0	3.840915604857166	0.558	n/a	stim	s611
408.327	0.493	-6.851088501776	draw_card	0.0	columbia_card_task_fmri	16.0	0.7142857142857143	89.0	-65.0	0.2857142857142857	9.0	3.0	2.0	5.358906476545741	0.493	n/a	stim	s611
408.825	0.673	-10.708231358918855	draw_card	1.0	columbia_card_task_fmri	16.0	0.6666666666666667	89.0	-65.0	0.3333333333333333	9.0	4.0	2.0	6.950554106350225	0.673	4.0	stim	s611
409.504	2.25	n/a	-1.0	n/a	columbia_card_task_fmri	n/a	n/a	-1.0	n/a	n/a	n/a	n/a	n/a	n/a	n/a	n/a	feedback	s611
411.754	0.068	n/a	-1.0	n/a	columbia_card_task_fmri	n/a	n/a	-1.0	n/a	n/a	n/a	n/a	n/a	n/a	n/a	n/a	ITI	s611
411.825	0.409	3.491768641081141	draw_card	0.0	columbia_card_task_fmri	13.0	0.9	89.0	-85.0	0.1	10.0	1.0	1.0	-1.832879052875107	0.409	n/a	stim	s611
412.239	0.253	2.402879752192251	draw_card	1.0	columbia_card_task_fmri	13.0	0.8888888888888888	89.0	-85.0	0.1111111111111111	10.0	2.0	1.0	-0.4345160938262857	0.253	2.0	stim	s611
412.499	2.25	n/a	-1.0	n/a	columbia_card_task_fmri	n/a	n/a	-1.0	n/a	n/a	n/a	n/a	n/a	n/a	n/a	n/a	feedback	s611
414.749	0.204	n/a	-1.0	n/a	columbia_card_task_fmri	n/a	n/a	-1.0	n/a	n/a	n/a	n/a	n/a	n/a	n/a	n/a	ITI	s611
414.958	0.398	-1.5082313589188583	draw_card	0.0	columbia_card_task_fmri	14.0	0.8	89.0	-65.0	0.2	10.0	1.0	2.0	0.3670201598737002	0.398	n/a	stim	s611
415.359	0.21	-3.263786914474413	draw_card	0.0	columbia_card_task_fmri	14.0	0.7777777777777778	89.0	-65.0	0.2222222222222222	10.0	2.0	2.0	1.6104062287835177	0.21	n/a	stim	s611
415.573	0.157	-5.45823135891886	draw_card	0.0	columbia_card_task_fmri	14.0	0.75	89.0	-65.0	0.25	10.0	3.0	2.0	2.974920922498299	0.157	n/a	stim	s611
415.734	0.224	-8.279659930347428	draw_card	0.0	columbia_card_task_fmri	14.0	0.7142857142857143	89.0	-65.0	0.2857142857142857	10.0	4.0	2.0	4.455428020698946	0.224	n/a	stim	s611
415.963	0.168	-12.041564692252187	draw_card	0.0	columbia_card_task_fmri	14.0	0.6666666666666667	89.0	-65.0	0.3333333333333333	10.0	5.0	2.0	6.007773284434144	0.168	n/a	stim	s611
416.135	1.456	-17.30823135891886	end_round	0.0	columbia_card_task_fmri	14.0	0.6	71.0	-65.0	0.4	10.0	6.0	2.0	7.468710934062393	1.456	5.0	stim	s611
417.599	2.25	n/a	-1.0	n/a	columbia_card_task_fmri	n/a	n/a	-1.0	n/a	n/a	n/a	n/a	n/a	n/a	n/a	n/a	feedback	s611
419.849	0.272	n/a	-1.0	n/a	columbia_card_task_fmri	n/a	n/a	-1.0	n/a	n/a	n/a	n/a	n/a	n/a	n/a	n/a	ITI	s611
420.126	0.855	-0.1082313589188579	draw_card	1.0	columbia_card_task_fmri	17.0	0.8	89.0	-70.0	0.2	10.0	1.0	2.0	3.566896307142187	0.855	1.0	stim	s611
420.987	2.25	n/a	-1.0	n/a	columbia_card_task_fmri	n/a	n/a	-1.0	n/a	n/a	n/a	n/a	n/a	n/a	n/a	n/a	feedback	s611
423.237	0.068	n/a	-1.0	n/a	columbia_card_task_fmri	n/a	n/a	-1.0	n/a	n/a	n/a	n/a	n/a	n/a	n/a	n/a	ITI	s611
423.311	0.576	-1.3748980255855254	draw_card	0.0	columbia_card_task_fmri	13.0	0.8333333333333334	89.0	-75.0	0.1666666666666666	12.0	1.0	2.0	1.5626347248396328	0.576	n/a	stim	s611
423.892	0.429	-2.7082313589188614	draw_card	0.0	columbia_card_task_fmri	13.0	0.8181818181818181	89.0	-75.0	0.1818181818181818	12.0	2.0	2.0	2.7080527531930727	0.429	n/a	stim	s611
424.326	1.566	-4.308231358918859	draw_card	0.0	columbia_card_task_fmri	13.0	0.8	89.0	-75.0	0.2	12.0	3.0	2.0	3.966882408810335	1.566	n/a	stim	s611
425.897	0.703	-6.263786914474413	draw_card	1.0	columbia_card_task_fmri	13.0	0.7777777777777778	89.0	-75.0	0.2222222222222222	12.0	4.0	2.0	5.351931079117208	0.703	4.0	stim	s611
426.607	2.25	n/a	-1.0	n/a	columbia_card_task_fmri	n/a	n/a	-1.0	n/a	n/a	n/a	n/a	n/a	n/a	n/a	n/a	feedback	s611
428.857	0.272	n/a	-1.0	n/a	columbia_card_task_fmri	n/a	n/a	-1.0	n/a	n/a	n/a	n/a	n/a	n/a	n/a	n/a	ITI	s611
429.133	0.549	0.2917686410811423	draw_card	0.0	columbia_card_task_fmri	14.0	0.8333333333333334	89.0	-70.0	0.1666666666666666	12.0	1.0	2.0	0.0719845392719094	0.549	n/a	stim	s611
429.686	0.197	-0.9809586316461344	draw_card	0.0	columbia_card_task_fmri	14.0	0.8181818181818181	89.0	-70.0	0.1818181818181818	12.0	2.0	2.0	1.1653340355543662	0.197	n/a	stim	s611
429.887	0.174	-2.5082313589188585	draw_card	0.0	columbia_card_task_fmri	14.0	0.8	89.0	-70.0	0.2	12.0	3.0	2.0	2.366939987504445	0.174	n/a	stim	s611
430.066	0.655	-4.374898025585526	draw_card	0.0	columbia_card_task_fmri	14.0	0.7777777777777778	89.0	-70.0	0.2222222222222222	12.0	4.0	2.0	3.6890276395651753	0.655	n/a	stim	s611
430.726	0.865	-6.70823135891886	draw_card	0.0	columbia_card_task_fmri	14.0	0.75	89.0	-70.0	0.25	12.0	5.0	2.0	5.13991037124309	0.865	n/a	stim	s611
431.596	1.231	-9.70823135891886	end_round	0.0	columbia_card_task_fmri	14.0	0.7142857142857143	71.0	-70.0	0.2857142857142857	12.0	6.0	2.0	6.714126789397099	1.231	5.0	stim	s611
432.835	2.25	n/a	-1.0	n/a	columbia_card_task_fmri	n/a	n/a	-1.0	n/a	n/a	n/a	n/a	n/a	n/a	n/a	n/a	feedback	s611
435.085	0.748	n/a	-1.0	n/a	columbia_card_task_fmri	n/a	n/a	-1.0	n/a	n/a	n/a	n/a	n/a	n/a	n/a	n/a	ITI	s611
435.838	0.708	0.2917686410811423	draw_card	0.0	columbia_card_task_fmri	16.0	0.8333333333333334	89.0	-80.0	0.1666666666666666	12.0	1.0	2.0	4.543950545002474	0.708	n/a	stim	s611
436.552	0.435	-1.1627768134643162	draw_card	0.0	columbia_card_task_fmri	16.0	0.8181818181818181	89.0	-80.0	0.1818181818181818	12.0	2.0	2.0	5.793505116231401	0.435	n/a	stim	s611
436.992	0.428	-2.908231358918859	draw_card	0.0	columbia_card_task_fmri	16.0	0.8	89.0	-80.0	0.2	12.0	3.0	2.0	7.166781645423846	0.428	n/a	stim	s611
437.425	0.86	-5.0415646922521935	end_round	0.0	columbia_card_task_fmri	16.0	0.7777777777777778	71.0	-80.0	0.2222222222222222	12.0	4.0	2.0	8.677751807376453	0.86	3.0	stim	s611
438.294	2.25	n/a	-1.0	n/a	columbia_card_task_fmri	n/a	n/a	-1.0	n/a	n/a	n/a	n/a	n/a	n/a	n/a	n/a	feedback	s611
440.544	0.068	n/a	-1.0	n/a	columbia_card_task_fmri	n/a	n/a	-1.0	n/a	n/a	n/a	n/a	n/a	n/a	n/a	n/a	ITI	s611
440.617	1.757	0.0917686410811413	draw_card	0.0	columbia_card_task_fmri	16.0	0.8	89.0	-65.0	0.2	15.0	1.0	3.0	1.166986903259179	1.757	n/a	stim	s611
442.378	0.566	-1.0653742160617152	draw_card	0.0	columbia_card_task_fmri	16.0	0.7857142857142857	89.0	-65.0	0.2142857142857142	15.0	2.0	3.0	2.00335201459022	0.566	n/a	stim	s611
442.948	0.671	-2.400539051226553	draw_card	1.0	columbia_card_task_fmri	16.0	0.7692307692307692	89.0	-65.0	0.2307692307692307	15.0	3.0	3.0	2.894248997275632	0.671	3.0	stim	s611
443.626	2.25	n/a	-1.0	n/a	columbia_card_task_fmri	n/a	n/a	-1.0	n/a	n/a	n/a	n/a	n/a	n/a	n/a	n/a	feedback	s611
445.876	0.0	n/a	-1.0	n/a	columbia_card_task_fmri	n/a	n/a	-1.0	n/a	n/a	n/a	n/a	n/a	n/a	n/a	n/a	ITI	s611
445.881	0.538	-1.5832313589188594	draw_card	1.0	columbia_card_task_fmri	15.0	0.8125	89.0	-75.0	0.1875	16.0	1.0	3.0	3.894998624220058	0.538	1.0	stim	s611
446.425	2.25	n/a	-1.0	n/a	columbia_card_task_fmri	n/a	n/a	-1.0	n/a	n/a	n/a	n/a	n/a	n/a	n/a	n/a	feedback	s611
448.675	0.204	n/a	-1.0	n/a	columbia_card_task_fmri	n/a	n/a	-1.0	n/a	n/a	n/a	n/a	n/a	n/a	n/a	n/a	ITI	s611
448.884	0.483	-1.0207313589188594	draw_card	0.0	columbia_card_task_fmri	14.0	0.6875	89.0	-35.0	0.3125	16.0	1.0	5.0	-8.520344911730042	0.483	n/a	stim	s611
449.371	0.275	-2.041564692252192	draw_card	0.0	columbia_card_task_fmri	14.0	0.6666666666666667	89.0	-35.0	0.3333333333333333	16.0	2.0	5.0	-8.13366263129597	0.275	n/a	stim	s611
449.65	1.851	-3.20823135891886	draw_card	0.0	columbia_card_task_fmri	14.0	0.6428571428571428	89.0	-35.0	0.3571428571428571	16.0	3.0	5.0	-7.753800198397414	1.851	n/a	stim	s611
451.506	0.327	-4.5543852050727045	end_round	0.0	columbia_card_task_fmri	14.0	0.6153846153846154	71.0	-35.0	0.3846153846153846	16.0	4.0	5.0	-7.393832820939565	0.327	3.0	stim	s611
451.841	2.25	n/a	-1.0	n/a	columbia_card_task_fmri	n/a	n/a	-1.0	n/a	n/a	n/a	n/a	n/a	n/a	n/a	n/a	feedback	s611
454.091	0.068	n/a	-1.0	n/a	columbia_card_task_fmri	n/a	n/a	-1.0	n/a	n/a	n/a	n/a	n/a	n/a	n/a	n/a	ITI	s611
454.164	0.653	4.158435307747808	draw_card	0.0	columbia_card_task_fmri	16.0	0.8666666666666667	89.0	-75.0	0.1333333333333333	15.0	1.0	2.0	-0.2988991285047468	0.653	n/a	stim	s611
454.822	0.346	3.291768641081142	draw_card	0.0	columbia_card_task_fmri	16.0	0.8571428571428572	89.0	-75.0	0.1428571428571428	15.0	2.0	2.0	0.6103765222795943	0.346	n/a	stim	s611
455.173	0.358	2.2917686410811404	draw_card	0.0	columbia_card_task_fmri	16.0	0.8461538461538461	89.0	-75.0	0.1538461538461538	15.0	3.0	2.0	1.59987990135226	0.358	n/a	stim	s611
455.535	0.56	1.1251019744144746	draw_card	1.0	columbia_card_task_fmri	16.0	0.8333333333333334	89.0	-75.0	0.1666666666666666	15.0	4.0	2.0	2.680625929161621	0.56	4.0	stim	s611
456.1	2.25	n/a	-1.0	n/a	columbia_card_task_fmri	n/a	n/a	-1.0	n/a	n/a	n/a	n/a	n/a	n/a	n/a	n/a	feedback	s611
458.35	0.068	n/a	-1.0	n/a	columbia_card_task_fmri	n/a	n/a	-1.0	n/a	n/a	n/a	n/a	n/a	n/a	n/a	n/a	ITI	s611
458.423	0.795	4.825101974414474	draw_card	0.0	columbia_card_task_fmri	16.0	0.8666666666666667	89.0	-70.0	0.1333333333333333	15.0	1.0	2.0	-1.9984923068316045	0.795	n/a	stim	s611
459.223	0.381	4.006054355366856	draw_card	0.0	columbia_card_task_fmri	16.0	0.8571428571428572	89.0	-70.0	0.1428571428571428	15.0	2.0	2.0	-1.1391812993656991	0.381	n/a	stim	s611
459.609	0.557	3.0609994103119087	draw_card	0.0	columbia_card_task_fmri	16.0	0.8461538461538461	89.0	-70.0	0.1538461538461538	15.0	3.0	2.0	-0.2040507929571511	0.557	n/a	stim	s611
460.17	0.925	1.9584353077478085	draw_card	1.0	columbia_card_task_fmri	16.0	0.8333333333333334	89.0	-70.0	0.1666666666666666	15.0	4.0	2.0	0.8173089135023943	0.925	4.0	stim	s611
461.1	2.25	n/a	-1.0	n/a	columbia_card_task_fmri	n/a	n/a	-1.0	n/a	n/a	n/a	n/a	n/a	n/a	n/a	n/a	feedback	s611
463.35	0.34	n/a	-1.0	n/a	columbia_card_task_fmri	n/a	n/a	-1.0	n/a	n/a	n/a	n/a	n/a	n/a	n/a	n/a	ITI	s611
463.696	0.349	2.1667686410811404	draw_card	1.0	columbia_card_task_fmri	8.0	0.9375	89.0	-90.0	0.0625	16.0	1.0	1.0	-7.510509558791718	0.349	1.0	stim	s611
464.054	2.25	n/a	-1.0	n/a	columbia_card_task_fmri	n/a	n/a	-1.0	n/a	n/a	n/a	n/a	n/a	n/a	n/a	n/a	feedback	s611
466.304	0.0	n/a	-1.0	n/a	columbia_card_task_fmri	n/a	n/a	-1.0	n/a	n/a	n/a	n/a	n/a	n/a	n/a	n/a	ITI	s611
466.308	1.511	3.729268641081141	end_round	0.0	columbia_card_task_fmri	10.0	0.9375	71.0	-95.0	0.0625	16.0	1.0	1.0	-5.816198952264227	1.511	0.0	stim	s611
467.825	2.25	n/a	-1.0	n/a	columbia_card_task_fmri	n/a	n/a	-1.0	n/a	n/a	n/a	n/a	n/a	n/a	n/a	n/a	feedback	s611
470.075	0.0	n/a	-1.0	n/a	columbia_card_task_fmri	n/a	n/a	-1.0	n/a	n/a	n/a	n/a	n/a	n/a	n/a	n/a	ITI	s611
470.078	1.066	4.66676864108114	draw_card	0.0	columbia_card_task_fmri	15.0	0.875	89.0	-70.0	0.125	16.0	1.0	2.0	-3.121704997741844	1.066	n/a	stim	s611
471.148	0.197	3.9584353077478074	draw_card	0.0	columbia_card_task_fmri	15.0	0.8666666666666667	89.0	-70.0	0.1333333333333333	16.0	2.0	2.0	-2.338409813269987	0.197	n/a	stim	s611
471.35	0.152	3.148911498223998	draw_card	0.0	columbia_card_task_fmri	15.0	0.8571428571428572	89.0	-70.0	0.1428571428571428	16.0	3.0	2.0	-1.4890917667048562	0.152	n/a	stim	s611
471.506	0.449	2.214845564158062	draw_card	1.0	columbia_card_task_fmri	15.0	0.8461538461538461	89.0	-70.0	0.1538461538461538	16.0	4.0	2.0	-0.5648358678824081	0.449	4.0	stim	s611
471.963	2.25	n/a	-1.0	n/a	columbia_card_task_fmri	n/a	n/a	-1.0	n/a	n/a	n/a	n/a	n/a	n/a	n/a	n/a	feedback	s611
474.213	0.272	n/a	-1.0	n/a	columbia_card_task_fmri	n/a	n/a	-1.0	n/a	n/a	n/a	n/a	n/a	n/a	n/a	n/a	ITI	s611
474.49	0.52	3.666768641081141	draw_card	0.0	columbia_card_task_fmri	16.0	0.875	89.0	-85.0	0.125	16.0	1.0	2.0	2.169557775307055	0.52	n/a	stim	s611
475.015	0.383	2.8251019744144736	draw_card	0.0	columbia_card_task_fmri	16.0	0.8666666666666667	89.0	-85.0	0.1333333333333333	16.0	2.0	2.0	3.100310986998828	0.383	n/a	stim	s611
475.401	0.388	1.8631972125097136	draw_card	0.0	columbia_card_task_fmri	16.0	0.8571428571428572	89.0	-85.0	0.1428571428571428	16.0	3.0	2.0	4.109515246134322	0.388	n/a	stim	s611
475.795	0.454	0.7533071026196005	draw_card	0.0	columbia_card_task_fmri	16.0	0.8461538461538461	89.0	-85.0	0.1538461538461538	16.0	4.0	2.0	5.207763675078333	0.454	n/a	stim	s611
476.254	3.097	-0.5415646922521915	end_round	0.0	columbia_card_task_fmri	16.0	0.8333333333333334	71.0	-85.0	0.1666666666666666	16.0	5.0	2.0	6.407281632358618	3.097	4.0	stim	s611
479.359	2.25	n/a	-1.0	n/a	columbia_card_task_fmri	n/a	n/a	-1.0	n/a	n/a	n/a	n/a	n/a	n/a	n/a	n/a	feedback	s611
481.609	0.204	n/a	-1.0	n/a	columbia_card_task_fmri	n/a	n/a	-1.0	n/a	n/a	n/a	n/a	n/a	n/a	n/a	n/a	ITI	s611
