onset	duration	planning	condition	current_position	exp_stage	experiment_exp_id	goal_state	key_press	problem_id	response_time	start_state	trial_id	worker_id
-64.168	0.0	0	n/a	n/a	n/a	ward_and_allport	n/a	32.0	n/a	24.877	n/a	instructions	s611
3.012	3.465	1	UA_with_intermediate	1,0,0,2,0,0,0,0,0	practice	ward_and_allport	1,2,3,0,0,0,0,0,0	71.0	0.0	3.465	1,0,0,2,3,0,0,0,0	to_hand	s611
6.479	1.797	0	UA_with_intermediate	1,0,0,2,0,0,3,0,0	practice	ward_and_allport	1,2,3,0,0,0,0,0,0	82.0	0.0	1.797	1,0,0,2,3,0,0,0,0	to_board	s611
8.278	0.843	0	UA_with_intermediate	1,0,0,0,0,0,3,0,0	practice	ward_and_allport	1,2,3,0,0,0,0,0,0	71.0	0.0	0.843	1,0,0,2,3,0,0,0,0	to_hand	s611
9.122	0.66	0	UA_with_intermediate	1,2,0,0,0,0,3,0,0	practice	ward_and_allport	1,2,3,0,0,0,0,0,0	89.0	0.0	0.66	1,0,0,2,3,0,0,0,0	to_board	s611
9.784	1.569	0	UA_with_intermediate	1,2,0,0,0,0,0,0,0	practice	ward_and_allport	1,2,3,0,0,0,0,0,0	82.0	0.0	1.569	1,0,0,2,3,0,0,0,0	to_hand	s611
11.355	0.672	0	UA_with_intermediate	1,2,3,0,0,0,0,0,0	practice	ward_and_allport	1,2,3,0,0,0,0,0,0	89.0	0.0	0.672	1,0,0,2,3,0,0,0,0	to_board	s611
12.029	1.0	0	UA_with_intermediate	n/a	practice	ward_and_allport	n/a	-1.0	0.0	n/a	n/a	feedback	s611
14.533	4.266	1	UA_with_intermediate	1,0,0,3,0,0,0,0,0	practice	ward_and_allport	1,3,2,0,0,0,0,0,0	89.0	1.0	4.266	1,2,0,3,0,0,0,0,0	to_hand	s611
18.801	2.336	0	UA_with_intermediate	1,0,0,3,0,0,2,0,0	practice	ward_and_allport	1,3,2,0,0,0,0,0,0	82.0	1.0	2.336	1,2,0,3,0,0,0,0,0	to_board	s611
21.14	0.745	0	UA_with_intermediate	1,0,0,0,0,0,2,0,0	practice	ward_and_allport	1,3,2,0,0,0,0,0,0	71.0	1.0	0.745	1,2,0,3,0,0,0,0,0	to_hand	s611
21.885	0.505	0	UA_with_intermediate	1,3,0,0,0,0,2,0,0	practice	ward_and_allport	1,3,2,0,0,0,0,0,0	89.0	1.0	0.505	1,2,0,3,0,0,0,0,0	to_board	s611
22.391	1.557	0	UA_with_intermediate	1,3,0,0,0,0,0,0,0	practice	ward_and_allport	1,3,2,0,0,0,0,0,0	82.0	1.0	1.557	1,2,0,3,0,0,0,0,0	to_hand	s611
23.95	0.66	0	UA_with_intermediate	1,3,2,0,0,0,0,0,0	practice	ward_and_allport	1,3,2,0,0,0,0,0,0	89.0	1.0	0.66	1,2,0,3,0,0,0,0,0	to_board	s611
24.613	1.0	0	UA_with_intermediate	n/a	practice	ward_and_allport	n/a	-1.0	1.0	n/a	n/a	feedback	s611
25.613	1.1	0	UA_with_intermediate	n/a	practice	ward_and_allport	n/a	-1.0	1.0	n/a	n/a	ITI	s611
26.715	3.117	1	UA_without_intermediate	0,0,0,1,2,0,0,0,0	practice	ward_and_allport	3,2,1,0,0,0,0,0,0	82.0	2.0	3.117	0,0,0,1,2,0,3,0,0	to_hand	s611
29.833	0.66	0	UA_without_intermediate	3,0,0,1,2,0,0,0,0	practice	ward_and_allport	3,2,1,0,0,0,0,0,0	89.0	2.0	0.66	0,0,0,1,2,0,3,0,0	to_board	s611
30.495	0.856	0	UA_without_intermediate	3,0,0,1,0,0,0,0,0	practice	ward_and_allport	3,2,1,0,0,0,0,0,0	71.0	2.0	0.856	0,0,0,1,2,0,3,0,0	to_hand	s611
31.352	0.645	0	UA_without_intermediate	3,2,0,1,0,0,0,0,0	practice	ward_and_allport	3,2,1,0,0,0,0,0,0	89.0	2.0	0.645	0,0,0,1,2,0,3,0,0	to_board	s611
32.0	0.626	0	UA_without_intermediate	3,2,0,0,0,0,0,0,0	practice	ward_and_allport	3,2,1,0,0,0,0,0,0	71.0	2.0	0.626	0,0,0,1,2,0,3,0,0	to_hand	s611
32.627	0.451	0	UA_without_intermediate	3,2,1,0,0,0,0,0,0	practice	ward_and_allport	3,2,1,0,0,0,0,0,0	89.0	2.0	0.451	0,0,0,1,2,0,3,0,0	to_board	s611
33.084	1.0	0	UA_without_intermediate	n/a	practice	ward_and_allport	n/a	-1.0	2.0	n/a	n/a	feedback	s611
34.084	1.2	0	UA_without_intermediate	n/a	practice	ward_and_allport	n/a	-1.0	2.0	n/a	n/a	ITI	s611
35.286	2.745	1	UA_without_intermediate	0,0,0,1,0,0,3,0,0	practice	ward_and_allport	2,3,1,0,0,0,0,0,0	71.0	3.0	2.745	0,0,0,1,2,0,3,0,0	to_hand	s611
38.033	0.528	0	UA_without_intermediate	2,0,0,1,0,0,3,0,0	practice	ward_and_allport	2,3,1,0,0,0,0,0,0	89.0	3.0	0.528	0,0,0,1,2,0,3,0,0	to_board	s611
38.564	0.759	0	UA_without_intermediate	2,0,0,1,0,0,0,0,0	practice	ward_and_allport	2,3,1,0,0,0,0,0,0	82.0	3.0	0.759	0,0,0,1,2,0,3,0,0	to_hand	s611
39.325	0.605	0	UA_without_intermediate	2,3,0,1,0,0,0,0,0	practice	ward_and_allport	2,3,1,0,0,0,0,0,0	89.0	3.0	0.605	0,0,0,1,2,0,3,0,0	to_board	s611
39.933	0.439	0	UA_without_intermediate	2,3,0,0,0,0,0,0,0	practice	ward_and_allport	2,3,1,0,0,0,0,0,0	71.0	3.0	0.439	0,0,0,1,2,0,3,0,0	to_hand	s611
40.374	0.353	0	UA_without_intermediate	2,3,1,0,0,0,0,0,0	practice	ward_and_allport	2,3,1,0,0,0,0,0,0	89.0	3.0	0.353	0,0,0,1,2,0,3,0,0	to_board	s611
40.73	1.0	0	UA_without_intermediate	n/a	practice	ward_and_allport	n/a	-1.0	3.0	n/a	n/a	feedback	s611
41.73	1.0	0	UA_without_intermediate	n/a	practice	ward_and_allport	n/a	-1.0	3.0	n/a	n/a	ITI	s611
44.735	4.021	1	PA_without_intermediate	0,0,0,0,0,0,1,2,0	test	ward_and_allport	2,0,0,3,1,0,0,0,0	82.0	0.0	4.021	0,0,0,0,0,0,1,2,3	to_hand	s611
48.758	0.884	0	PA_without_intermediate	0,0,0,3,0,0,1,2,0	test	ward_and_allport	2,0,0,3,1,0,0,0,0	71.0	0.0	0.884	0,0,0,0,0,0,1,2,3	to_board	s611
49.644	0.984	0	PA_without_intermediate	0,0,0,3,0,0,1,0,0	test	ward_and_allport	2,0,0,3,1,0,0,0,0	82.0	0.0	0.984	0,0,0,0,0,0,1,2,3	to_hand	s611
50.628	0.856	0	PA_without_intermediate	2,0,0,3,0,0,1,0,0	test	ward_and_allport	2,0,0,3,1,0,0,0,0	89.0	0.0	0.856	0,0,0,0,0,0,1,2,3	to_board	s611
51.486	0.497	0	PA_without_intermediate	2,0,0,0,0,0,1,0,0	test	ward_and_allport	2,0,0,3,1,0,0,0,0	71.0	0.0	0.497	0,0,0,0,0,0,1,2,3	to_hand	s611
51.985	0.379	0	PA_without_intermediate	2,3,0,0,0,0,1,0,0	test	ward_and_allport	2,0,0,3,1,0,0,0,0	89.0	0.0	0.379	0,0,0,0,0,0,1,2,3	to_board	s611
52.365	0.446	0	PA_without_intermediate	2,3,0,0,0,0,0,0,0	test	ward_and_allport	2,0,0,3,1,0,0,0,0	82.0	0.0	0.446	0,0,0,0,0,0,1,2,3	to_hand	s611
52.812	0.445	0	PA_without_intermediate	2,3,1,0,0,0,0,0,0	test	ward_and_allport	2,0,0,3,1,0,0,0,0	89.0	0.0	0.445	0,0,0,0,0,0,1,2,3	to_board	s611
53.26	4.886	0	PA_without_intermediate	2,3,0,0,0,0,0,0,0	test	ward_and_allport	2,0,0,3,1,0,0,0,0	89.0	0.0	4.886	0,0,0,0,0,0,1,2,3	to_hand	s611
58.148	0.498	0	PA_without_intermediate	2,3,0,1,0,0,0,0,0	test	ward_and_allport	2,0,0,3,1,0,0,0,0	71.0	0.0	0.498	0,0,0,0,0,0,1,2,3	to_board	s611
58.648	0.633	0	PA_without_intermediate	2,0,0,1,0,0,0,0,0	test	ward_and_allport	2,0,0,3,1,0,0,0,0	89.0	0.0	0.633	0,0,0,0,0,0,1,2,3	to_hand	s611
59.283	0.77	0	PA_without_intermediate	2,0,0,1,3,0,0,0,0	test	ward_and_allport	2,0,0,3,1,0,0,0,0	71.0	0.0	0.77	0,0,0,0,0,0,1,2,3	to_board	s611
60.056	3.838	0	PA_without_intermediate	2,0,0,1,0,0,0,0,0	test	ward_and_allport	2,0,0,3,1,0,0,0,0	71.0	0.0	3.838	0,0,0,0,0,0,1,2,3	to_hand	s611
63.895	0.535	0	PA_without_intermediate	2,0,0,1,0,0,3,0,0	test	ward_and_allport	2,0,0,3,1,0,0,0,0	82.0	0.0	0.535	0,0,0,0,0,0,1,2,3	to_board	s611
64.433	1.155	0	PA_without_intermediate	2,0,0,0,0,0,3,0,0	test	ward_and_allport	2,0,0,3,1,0,0,0,0	71.0	0.0	1.155	0,0,0,0,0,0,1,2,3	to_hand	s611
65.59	0.758	0	PA_without_intermediate	2,1,0,0,0,0,3,0,0	test	ward_and_allport	2,0,0,3,1,0,0,0,0	89.0	0.0	0.758	0,0,0,0,0,0,1,2,3	to_board	s611
66.351	0.503	0	PA_without_intermediate	2,1,0,0,0,0,0,0,0	test	ward_and_allport	2,0,0,3,1,0,0,0,0	82.0	0.0	0.503	0,0,0,0,0,0,1,2,3	to_hand	s611
66.855	0.523	0	PA_without_intermediate	2,1,0,3,0,0,0,0,0	test	ward_and_allport	2,0,0,3,1,0,0,0,0	71.0	0.0	0.523	0,0,0,0,0,0,1,2,3	to_board	s611
67.381	0.398	0	PA_without_intermediate	2,0,0,3,0,0,0,0,0	test	ward_and_allport	2,0,0,3,1,0,0,0,0	89.0	0.0	0.398	0,0,0,0,0,0,1,2,3	to_hand	s611
67.781	0.47	0	PA_without_intermediate	2,0,0,3,1,0,0,0,0	test	ward_and_allport	2,0,0,3,1,0,0,0,0	71.0	0.0	0.47	0,0,0,0,0,0,1,2,3	to_board	s611
68.256	1.0	0	PA_without_intermediate	n/a	test	ward_and_allport	n/a	-1.0	0.0	n/a	n/a	feedback	s611
69.256	2.088	0	PA_without_intermediate	n/a	test	ward_and_allport	n/a	-1.0	0.0	n/a	n/a	ITI	s611
71.346	3.322	1	PA_with_intermediate	0,0,0,0,0,0,1,2,0	test	ward_and_allport	0,0,0,2,3,0,1,0,0	82.0	1.0	3.322	0,0,0,0,0,0,1,2,3	to_hand	s611
74.67	0.475	0	PA_with_intermediate	3,0,0,0,0,0,1,2,0	test	ward_and_allport	0,0,0,2,3,0,1,0,0	89.0	1.0	0.475	0,0,0,0,0,0,1,2,3	to_board	s611
75.147	1.221	0	PA_with_intermediate	3,0,0,0,0,0,1,0,0	test	ward_and_allport	0,0,0,2,3,0,1,0,0	82.0	1.0	1.221	0,0,0,0,0,0,1,2,3	to_hand	s611
76.37	1.52	0	PA_with_intermediate	3,0,0,2,0,0,1,0,0	test	ward_and_allport	0,0,0,2,3,0,1,0,0	71.0	1.0	1.52	0,0,0,0,0,0,1,2,3	to_board	s611
77.893	0.398	0	PA_with_intermediate	0,0,0,2,0,0,1,0,0	test	ward_and_allport	0,0,0,2,3,0,1,0,0	89.0	1.0	0.398	0,0,0,0,0,0,1,2,3	to_hand	s611
78.292	0.375	0	PA_with_intermediate	0,0,0,2,3,0,1,0,0	test	ward_and_allport	0,0,0,2,3,0,1,0,0	71.0	1.0	0.375	0,0,0,0,0,0,1,2,3	to_board	s611
78.671	1.0	0	PA_with_intermediate	n/a	test	ward_and_allport	n/a	-1.0	1.0	n/a	n/a	feedback	s611
79.671	1.0	0	PA_with_intermediate	n/a	test	ward_and_allport	n/a	-1.0	1.0	n/a	n/a	ITI	s611
80.675	3.694	1	PA_without_intermediate	0,0,0,1,2,0,0,0,0	test	ward_and_allport	3,2,0,0,0,0,1,0,0	71.0	2.0	3.694	0,0,0,1,2,3,0,0,0	to_hand	s611
84.37	0.39	0	PA_without_intermediate	3,0,0,1,2,0,0,0,0	test	ward_and_allport	3,2,0,0,0,0,1,0,0	89.0	2.0	0.39	0,0,0,1,2,3,0,0,0	to_board	s611
84.762	0.423	0	PA_without_intermediate	3,0,0,1,0,0,0,0,0	test	ward_and_allport	3,2,0,0,0,0,1,0,0	71.0	2.0	0.423	0,0,0,1,2,3,0,0,0	to_hand	s611
85.187	0.376	0	PA_without_intermediate	3,2,0,1,0,0,0,0,0	test	ward_and_allport	3,2,0,0,0,0,1,0,0	89.0	2.0	0.376	0,0,0,1,2,3,0,0,0	to_board	s611
85.567	0.46	0	PA_without_intermediate	3,2,0,0,0,0,0,0,0	test	ward_and_allport	3,2,0,0,0,0,1,0,0	71.0	2.0	0.46	0,0,0,1,2,3,0,0,0	to_hand	s611
86.027	0.52	0	PA_without_intermediate	3,2,0,0,0,0,1,0,0	test	ward_and_allport	3,2,0,0,0,0,1,0,0	82.0	2.0	0.52	0,0,0,1,2,3,0,0,0	to_board	s611
86.555	1.0	0	PA_without_intermediate	n/a	test	ward_and_allport	n/a	-1.0	2.0	n/a	n/a	feedback	s611
87.555	1.0	0	PA_without_intermediate	n/a	test	ward_and_allport	n/a	-1.0	2.0	n/a	n/a	ITI	s611
88.559	2.451	1	PA_without_intermediate	1,2,0,0,0,0,0,0,0	test	ward_and_allport	0,0,0,2,0,0,3,1,0	89.0	3.0	2.451	1,2,3,0,0,0,0,0,0	to_hand	s611
91.011	0.581	0	PA_without_intermediate	1,2,0,0,0,0,3,0,0	test	ward_and_allport	0,0,0,2,0,0,3,1,0	82.0	3.0	0.581	1,2,3,0,0,0,0,0,0	to_board	s611
91.595	1.239	0	PA_without_intermediate	1,0,0,0,0,0,3,0,0	test	ward_and_allport	0,0,0,2,0,0,3,1,0	89.0	3.0	1.239	1,2,3,0,0,0,0,0,0	to_hand	s611
92.835	0.408	0	PA_without_intermediate	1,0,0,2,0,0,3,0,0	test	ward_and_allport	0,0,0,2,0,0,3,1,0	71.0	3.0	0.408	1,2,3,0,0,0,0,0,0	to_board	s611
93.246	0.606	0	PA_without_intermediate	0,0,0,2,0,0,3,0,0	test	ward_and_allport	0,0,0,2,0,0,3,1,0	89.0	3.0	0.606	1,2,3,0,0,0,0,0,0	to_hand	s611
93.854	0.588	0	PA_without_intermediate	0,0,0,2,0,0,3,1,0	test	ward_and_allport	0,0,0,2,0,0,3,1,0	82.0	3.0	0.588	1,2,3,0,0,0,0,0,0	to_board	s611
94.446	1.0	0	PA_without_intermediate	n/a	test	ward_and_allport	n/a	-1.0	3.0	n/a	n/a	feedback	s611
95.446	1.0	0	PA_without_intermediate	n/a	test	ward_and_allport	n/a	-1.0	3.0	n/a	n/a	ITI	s611
96.45	2.118	1	PA_with_intermediate	1,2,0,0,0,0,0,0,0	test	ward_and_allport	1,0,0,0,0,0,2,3,0	89.0	4.0	2.118	1,2,3,0,0,0,0,0,0	to_hand	s611
98.57	0.957	0	PA_with_intermediate	1,2,0,3,0,0,0,0,0	test	ward_and_allport	1,0,0,0,0,0,2,3,0	71.0	4.0	0.957	1,2,3,0,0,0,0,0,0	to_board	s611
99.531	0.567	0	PA_with_intermediate	1,0,0,3,0,0,0,0,0	test	ward_and_allport	1,0,0,0,0,0,2,3,0	89.0	4.0	0.567	1,2,3,0,0,0,0,0,0	to_hand	s611
100.099	0.857	0	PA_with_intermediate	1,0,0,3,0,0,2,0,0	test	ward_and_allport	1,0,0,0,0,0,2,3,0	82.0	4.0	0.857	1,2,3,0,0,0,0,0,0	to_board	s611
100.961	0.462	0	PA_with_intermediate	1,0,0,0,0,0,2,0,0	test	ward_and_allport	1,0,0,0,0,0,2,3,0	71.0	4.0	0.462	1,2,3,0,0,0,0,0,0	to_hand	s611
101.424	1.053	0	PA_with_intermediate	1,0,0,0,0,0,2,3,0	test	ward_and_allport	1,0,0,0,0,0,2,3,0	82.0	4.0	1.053	1,2,3,0,0,0,0,0,0	to_board	s611
102.486	1.0	0	PA_with_intermediate	n/a	test	ward_and_allport	n/a	-1.0	4.0	n/a	n/a	feedback	s611
103.486	1.544	0	PA_with_intermediate	n/a	test	ward_and_allport	n/a	-1.0	4.0	n/a	n/a	ITI	s611
105.034	6.373	1	PA_without_intermediate	0,0,0,1,2,0,0,0,0	test	ward_and_allport	1,0,0,0,0,0,3,2,0	71.0	5.0	6.373	0,0,0,1,2,3,0,0,0	to_hand	s611
111.409	0.509	0	PA_without_intermediate	0,0,0,1,2,0,3,0,0	test	ward_and_allport	1,0,0,0,0,0,3,2,0	82.0	5.0	0.509	0,0,0,1,2,3,0,0,0	to_board	s611
111.92	0.681	0	PA_without_intermediate	0,0,0,1,0,0,3,0,0	test	ward_and_allport	1,0,0,0,0,0,3,2,0	71.0	5.0	0.681	0,0,0,1,2,3,0,0,0	to_hand	s611
112.603	0.666	0	PA_without_intermediate	0,0,0,1,0,0,3,2,0	test	ward_and_allport	1,0,0,0,0,0,3,2,0	82.0	5.0	0.666	0,0,0,1,2,3,0,0,0	to_board	s611
113.273	0.966	0	PA_without_intermediate	0,0,0,0,0,0,3,2,0	test	ward_and_allport	1,0,0,0,0,0,3,2,0	71.0	5.0	0.966	0,0,0,1,2,3,0,0,0	to_hand	s611
114.239	0.553	0	PA_without_intermediate	1,0,0,0,0,0,3,2,0	test	ward_and_allport	1,0,0,0,0,0,3,2,0	89.0	5.0	0.553	0,0,0,1,2,3,0,0,0	to_board	s611
114.801	1.0	0	PA_without_intermediate	n/a	test	ward_and_allport	n/a	-1.0	5.0	n/a	n/a	feedback	s611
115.801	1.272	0	PA_without_intermediate	n/a	test	ward_and_allport	n/a	-1.0	5.0	n/a	n/a	ITI	s611
117.078	7.55	1	PA_with_intermediate	0,0,0,0,0,0,1,2,0	test	ward_and_allport	0,0,0,2,0,0,1,3,0	82.0	6.0	7.55	0,0,0,0,0,0,1,2,3	to_hand	s611
124.629	0.451	0	PA_with_intermediate	3,0,0,0,0,0,1,2,0	test	ward_and_allport	0,0,0,2,0,0,1,3,0	89.0	6.0	0.451	0,0,0,0,0,0,1,2,3	to_board	s611
125.084	0.787	0	PA_with_intermediate	3,0,0,0,0,0,1,0,0	test	ward_and_allport	0,0,0,2,0,0,1,3,0	82.0	6.0	0.787	0,0,0,0,0,0,1,2,3	to_hand	s611
125.873	0.414	0	PA_with_intermediate	3,0,0,2,0,0,1,0,0	test	ward_and_allport	0,0,0,2,0,0,1,3,0	71.0	6.0	0.414	0,0,0,0,0,0,1,2,3	to_board	s611
126.291	1.073	0	PA_with_intermediate	0,0,0,2,0,0,1,0,0	test	ward_and_allport	0,0,0,2,0,0,1,3,0	89.0	6.0	1.073	0,0,0,0,0,0,1,2,3	to_hand	s611
127.366	0.552	0	PA_with_intermediate	0,0,0,2,0,0,1,3,0	test	ward_and_allport	0,0,0,2,0,0,1,3,0	82.0	6.0	0.552	0,0,0,0,0,0,1,2,3	to_board	s611
127.924	1.0	0	PA_with_intermediate	n/a	test	ward_and_allport	n/a	-1.0	6.0	n/a	n/a	feedback	s611
128.924	3.04	0	PA_with_intermediate	n/a	test	ward_and_allport	n/a	-1.0	6.0	n/a	n/a	ITI	s611
131.968	3.413	1	PA_with_intermediate	1,2,0,0,0,0,0,0,0	test	ward_and_allport	1,3,0,2,0,0,0,0,0	89.0	7.0	3.413	1,2,3,0,0,0,0,0,0	to_hand	s611
135.383	0.474	0	PA_with_intermediate	1,2,0,0,0,0,3,0,0	test	ward_and_allport	1,3,0,2,0,0,0,0,0	82.0	7.0	0.474	1,2,3,0,0,0,0,0,0	to_board	s611
135.86	1.475	0	PA_with_intermediate	1,0,0,0,0,0,3,0,0	test	ward_and_allport	1,3,0,2,0,0,0,0,0	89.0	7.0	1.475	1,2,3,0,0,0,0,0,0	to_hand	s611
137.337	0.391	0	PA_with_intermediate	1,0,0,2,0,0,3,0,0	test	ward_and_allport	1,3,0,2,0,0,0,0,0	71.0	7.0	0.391	1,2,3,0,0,0,0,0,0	to_board	s611
137.731	0.547	0	PA_with_intermediate	1,0,0,2,0,0,0,0,0	test	ward_and_allport	1,3,0,2,0,0,0,0,0	82.0	7.0	0.547	1,2,3,0,0,0,0,0,0	to_hand	s611
138.279	0.447	0	PA_with_intermediate	1,3,0,2,0,0,0,0,0	test	ward_and_allport	1,3,0,2,0,0,0,0,0	89.0	7.0	0.447	1,2,3,0,0,0,0,0,0	to_board	s611
138.733	1.0	0	PA_with_intermediate	n/a	test	ward_and_allport	n/a	-1.0	7.0	n/a	n/a	feedback	s611
139.733	1.272	0	PA_with_intermediate	n/a	test	ward_and_allport	n/a	-1.0	7.0	n/a	n/a	ITI	s611
141.011	4.229	1	PA_with_intermediate	0,0,0,0,0,0,1,2,0	test	ward_and_allport	2,0,0,0,0,0,1,3,0	82.0	8.0	4.229	0,0,0,0,0,0,1,2,3	to_hand	s611
145.241	0.378	0	PA_with_intermediate	0,0,0,3,0,0,1,2,0	test	ward_and_allport	2,0,0,0,0,0,1,3,0	71.0	8.0	0.378	0,0,0,0,0,0,1,2,3	to_board	s611
145.624	0.858	0	PA_with_intermediate	0,0,0,3,0,0,1,0,0	test	ward_and_allport	2,0,0,0,0,0,1,3,0	82.0	8.0	0.858	0,0,0,0,0,0,1,2,3	to_hand	s611
146.484	0.404	0	PA_with_intermediate	2,0,0,3,0,0,1,0,0	test	ward_and_allport	2,0,0,0,0,0,1,3,0	89.0	8.0	0.404	0,0,0,0,0,0,1,2,3	to_board	s611
146.893	0.339	0	PA_with_intermediate	2,0,0,0,0,0,1,0,0	test	ward_and_allport	2,0,0,0,0,0,1,3,0	71.0	8.0	0.339	0,0,0,0,0,0,1,2,3	to_hand	s611
147.233	0.357	0	PA_with_intermediate	2,0,0,0,0,0,1,3,0	test	ward_and_allport	2,0,0,0,0,0,1,3,0	82.0	8.0	0.357	0,0,0,0,0,0,1,2,3	to_board	s611
147.6	1.0	0	PA_with_intermediate	n/a	test	ward_and_allport	n/a	-1.0	8.0	n/a	n/a	feedback	s611
148.6	1.136	0	PA_with_intermediate	n/a	test	ward_and_allport	n/a	-1.0	8.0	n/a	n/a	ITI	s611
149.741	2.149	1	PA_with_intermediate	1,2,0,0,0,0,0,0,0	test	ward_and_allport	1,3,0,2,0,0,0,0,0	89.0	9.0	2.149	1,2,3,0,0,0,0,0,0	to_hand	s611
151.894	0.479	0	PA_with_intermediate	1,2,0,0,0,0,3,0,0	test	ward_and_allport	1,3,0,2,0,0,0,0,0	82.0	9.0	0.479	1,2,3,0,0,0,0,0,0	to_board	s611
152.38	0.648	0	PA_with_intermediate	1,0,0,0,0,0,3,0,0	test	ward_and_allport	1,3,0,2,0,0,0,0,0	89.0	9.0	0.648	1,2,3,0,0,0,0,0,0	to_hand	s611
153.03	0.411	0	PA_with_intermediate	1,0,0,2,0,0,3,0,0	test	ward_and_allport	1,3,0,2,0,0,0,0,0	71.0	9.0	0.411	1,2,3,0,0,0,0,0,0	to_board	s611
153.446	0.461	0	PA_with_intermediate	1,0,0,2,0,0,0,0,0	test	ward_and_allport	1,3,0,2,0,0,0,0,0	82.0	9.0	0.461	1,2,3,0,0,0,0,0,0	to_hand	s611
153.909	0.344	0	PA_with_intermediate	1,3,0,2,0,0,0,0,0	test	ward_and_allport	1,3,0,2,0,0,0,0,0	89.0	9.0	0.344	1,2,3,0,0,0,0,0,0	to_board	s611
154.259	1.0	0	PA_with_intermediate	n/a	test	ward_and_allport	n/a	-1.0	9.0	n/a	n/a	feedback	s611
155.259	1.0	0	PA_with_intermediate	n/a	test	ward_and_allport	n/a	-1.0	9.0	n/a	n/a	ITI	s611
156.265	2.577	1	PA_with_intermediate	0,0,0,1,2,0,0,0,0	test	ward_and_allport	0,0,0,1,3,0,2,0,0	71.0	10.0	2.577	0,0,0,1,2,3,0,0,0	to_hand	s611
158.844	0.343	0	PA_with_intermediate	3,0,0,1,2,0,0,0,0	test	ward_and_allport	0,0,0,1,3,0,2,0,0	89.0	10.0	0.343	0,0,0,1,2,3,0,0,0	to_board	s611
159.191	0.376	0	PA_with_intermediate	3,0,0,1,0,0,0,0,0	test	ward_and_allport	0,0,0,1,3,0,2,0,0	71.0	10.0	0.376	0,0,0,1,2,3,0,0,0	to_hand	s611
159.568	0.451	0	PA_with_intermediate	3,0,0,1,0,0,2,0,0	test	ward_and_allport	0,0,0,1,3,0,2,0,0	82.0	10.0	0.451	0,0,0,1,2,3,0,0,0	to_board	s611
160.024	0.374	0	PA_with_intermediate	0,0,0,1,0,0,2,0,0	test	ward_and_allport	0,0,0,1,3,0,2,0,0	89.0	10.0	0.374	0,0,0,1,2,3,0,0,0	to_hand	s611
160.399	0.31	0	PA_with_intermediate	0,0,0,1,3,0,2,0,0	test	ward_and_allport	0,0,0,1,3,0,2,0,0	71.0	10.0	0.31	0,0,0,1,2,3,0,0,0	to_board	s611
160.718	1.0	0	PA_with_intermediate	n/a	test	ward_and_allport	n/a	-1.0	10.0	n/a	n/a	feedback	s611
161.718	1.0	0	PA_with_intermediate	n/a	test	ward_and_allport	n/a	-1.0	10.0	n/a	n/a	ITI	s611
162.724	3.071	1	PA_without_intermediate	1,2,0,0,0,0,0,0,0	test	ward_and_allport	0,0,0,3,1,0,2,0,0	89.0	11.0	3.071	1,2,3,0,0,0,0,0,0	to_hand	s611
165.795	0.386	0	PA_without_intermediate	1,2,0,3,0,0,0,0,0	test	ward_and_allport	0,0,0,3,1,0,2,0,0	71.0	11.0	0.386	1,2,3,0,0,0,0,0,0	to_board	s611
166.187	0.637	0	PA_without_intermediate	1,0,0,3,0,0,0,0,0	test	ward_and_allport	0,0,0,3,1,0,2,0,0	89.0	11.0	0.637	1,2,3,0,0,0,0,0,0	to_hand	s611
166.825	0.621	0	PA_without_intermediate	1,0,0,3,0,0,2,0,0	test	ward_and_allport	0,0,0,3,1,0,2,0,0	82.0	11.0	0.621	1,2,3,0,0,0,0,0,0	to_board	s611
167.452	0.525	0	PA_without_intermediate	0,0,0,3,0,0,2,0,0	test	ward_and_allport	0,0,0,3,1,0,2,0,0	89.0	11.0	0.525	1,2,3,0,0,0,0,0,0	to_hand	s611
167.979	0.346	0	PA_without_intermediate	0,0,0,3,1,0,2,0,0	test	ward_and_allport	0,0,0,3,1,0,2,0,0	71.0	11.0	0.346	1,2,3,0,0,0,0,0,0	to_board	s611
168.331	1.0	0	PA_without_intermediate	n/a	test	ward_and_allport	n/a	-1.0	11.0	n/a	n/a	feedback	s611
169.331	1.408	0	PA_without_intermediate	n/a	test	ward_and_allport	n/a	-1.0	11.0	n/a	n/a	ITI	s611
170.745	4.601	1	PA_with_intermediate	0,0,0,0,0,0,1,2,0	test	ward_and_allport	0,0,0,2,3,0,1,0,0	82.0	12.0	4.601	0,0,0,0,0,0,1,2,3	to_hand	s611
175.348	0.425	0	PA_with_intermediate	3,0,0,0,0,0,1,2,0	test	ward_and_allport	0,0,0,2,3,0,1,0,0	89.0	12.0	0.425	0,0,0,0,0,0,1,2,3	to_board	s611
175.778	0.507	0	PA_with_intermediate	3,0,0,0,0,0,1,0,0	test	ward_and_allport	0,0,0,2,3,0,1,0,0	82.0	12.0	0.507	0,0,0,0,0,0,1,2,3	to_hand	s611
176.286	0.397	0	PA_with_intermediate	3,0,0,2,0,0,1,0,0	test	ward_and_allport	0,0,0,2,3,0,1,0,0	71.0	12.0	0.397	0,0,0,0,0,0,1,2,3	to_board	s611
176.688	0.32	0	PA_with_intermediate	0,0,0,2,0,0,1,0,0	test	ward_and_allport	0,0,0,2,3,0,1,0,0	89.0	12.0	0.32	0,0,0,0,0,0,1,2,3	to_hand	s611
177.009	0.362	0	PA_with_intermediate	0,0,0,2,3,0,1,0,0	test	ward_and_allport	0,0,0,2,3,0,1,0,0	71.0	12.0	0.362	0,0,0,0,0,0,1,2,3	to_board	s611
177.378	1.0	0	PA_with_intermediate	n/a	test	ward_and_allport	n/a	-1.0	12.0	n/a	n/a	feedback	s611
178.378	2.768	0	PA_with_intermediate	n/a	test	ward_and_allport	n/a	-1.0	12.0	n/a	n/a	ITI	s611
181.152	2.52	1	PA_with_intermediate	1,2,0,0,0,0,0,0,0	test	ward_and_allport	1,0,0,2,3,0,0,0,0	89.0	13.0	2.52	1,2,3,0,0,0,0,0,0	to_hand	s611
183.674	0.491	0	PA_with_intermediate	1,2,0,0,0,0,3,0,0	test	ward_and_allport	1,0,0,2,3,0,0,0,0	82.0	13.0	0.491	1,2,3,0,0,0,0,0,0	to_board	s611
184.169	0.42	0	PA_with_intermediate	1,0,0,0,0,0,3,0,0	test	ward_and_allport	1,0,0,2,3,0,0,0,0	89.0	13.0	0.42	1,2,3,0,0,0,0,0,0	to_hand	s611
184.591	0.419	0	PA_with_intermediate	1,0,0,2,0,0,3,0,0	test	ward_and_allport	1,0,0,2,3,0,0,0,0	71.0	13.0	0.419	1,2,3,0,0,0,0,0,0	to_board	s611
185.016	0.411	0	PA_with_intermediate	1,0,0,2,0,0,0,0,0	test	ward_and_allport	1,0,0,2,3,0,0,0,0	82.0	13.0	0.411	1,2,3,0,0,0,0,0,0	to_hand	s611
185.429	0.38	0	PA_with_intermediate	1,0,0,2,3,0,0,0,0	test	ward_and_allport	1,0,0,2,3,0,0,0,0	71.0	13.0	0.38	1,2,3,0,0,0,0,0,0	to_board	s611
185.816	1.0	0	PA_with_intermediate	n/a	test	ward_and_allport	n/a	-1.0	13.0	n/a	n/a	feedback	s611
186.816	1.68	0	PA_with_intermediate	n/a	test	ward_and_allport	n/a	-1.0	13.0	n/a	n/a	ITI	s611
188.502	2.863	1	PA_without_intermediate	0,0,0,0,0,0,1,2,0	test	ward_and_allport	1,0,0,3,2,0,0,0,0	82.0	14.0	2.863	0,0,0,0,0,0,1,2,3	to_hand	s611
191.365	0.446	0	PA_without_intermediate	3,0,0,0,0,0,1,2,0	test	ward_and_allport	1,0,0,3,2,0,0,0,0	89.0	14.0	0.446	0,0,0,0,0,0,1,2,3	to_board	s611
191.816	4.39	0	PA_without_intermediate	3,0,0,0,0,0,1,0,0	test	ward_and_allport	1,0,0,3,2,0,0,0,0	82.0	14.0	4.39	0,0,0,0,0,0,1,2,3	to_hand	s611
196.207	0.807	0	PA_without_intermediate	3,0,0,2,0,0,1,0,0	test	ward_and_allport	1,0,0,3,2,0,0,0,0	71.0	14.0	0.807	0,0,0,0,0,0,1,2,3	to_board	s611
197.02	2.056	0	PA_without_intermediate	0,0,0,2,0,0,1,0,0	test	ward_and_allport	1,0,0,3,2,0,0,0,0	89.0	14.0	2.056	0,0,0,0,0,0,1,2,3	to_hand	s611
199.077	0.48	0	PA_without_intermediate	0,0,0,2,3,0,1,0,0	test	ward_and_allport	1,0,0,3,2,0,0,0,0	71.0	14.0	0.48	0,0,0,0,0,0,1,2,3	to_board	s611
199.563	0.393	0	PA_without_intermediate	0,0,0,2,3,0,0,0,0	test	ward_and_allport	1,0,0,3,2,0,0,0,0	82.0	14.0	0.393	0,0,0,0,0,0,1,2,3	to_hand	s611
199.957	0.651	0	PA_without_intermediate	1,0,0,2,3,0,0,0,0	test	ward_and_allport	1,0,0,3,2,0,0,0,0	89.0	14.0	0.651	0,0,0,0,0,0,1,2,3	to_board	s611
200.615	1.457	0	PA_without_intermediate	1,0,0,2,0,0,0,0,0	test	ward_and_allport	1,0,0,3,2,0,0,0,0	71.0	14.0	1.457	0,0,0,0,0,0,1,2,3	to_hand	s611
202.074	0.417	0	PA_without_intermediate	1,0,0,2,0,0,3,0,0	test	ward_and_allport	1,0,0,3,2,0,0,0,0	82.0	14.0	0.417	0,0,0,0,0,0,1,2,3	to_board	s611
202.497	0.474	0	PA_without_intermediate	1,0,0,0,0,0,3,0,0	test	ward_and_allport	1,0,0,3,2,0,0,0,0	71.0	14.0	0.474	0,0,0,0,0,0,1,2,3	to_hand	s611
202.972	1.735	0	PA_without_intermediate	1,2,0,0,0,0,3,0,0	test	ward_and_allport	1,0,0,3,2,0,0,0,0	89.0	14.0	1.735	0,0,0,0,0,0,1,2,3	to_board	s611
204.713	0.591	0	PA_without_intermediate	1,2,0,0,0,0,0,0,0	test	ward_and_allport	1,0,0,3,2,0,0,0,0	82.0	14.0	0.591	0,0,0,0,0,0,1,2,3	to_hand	s611
205.306	0.501	0	PA_without_intermediate	1,2,0,3,0,0,0,0,0	test	ward_and_allport	1,0,0,3,2,0,0,0,0	71.0	14.0	0.501	0,0,0,0,0,0,1,2,3	to_board	s611
205.813	0.344	0	PA_without_intermediate	1,0,0,3,0,0,0,0,0	test	ward_and_allport	1,0,0,3,2,0,0,0,0	89.0	14.0	0.344	0,0,0,0,0,0,1,2,3	to_hand	s611
206.159	0.324	0	PA_without_intermediate	1,0,0,3,2,0,0,0,0	test	ward_and_allport	1,0,0,3,2,0,0,0,0	71.0	14.0	0.324	0,0,0,0,0,0,1,2,3	to_board	s611
206.492	1.0	0	PA_without_intermediate	n/a	test	ward_and_allport	n/a	-1.0	14.0	n/a	n/a	feedback	s611
207.492	2.224	0	PA_without_intermediate	n/a	test	ward_and_allport	n/a	-1.0	14.0	n/a	n/a	ITI	s611
214.724	4.377	1	PA_without_intermediate	0,0,0,1,2,0,0,0,0	test	ward_and_allport	2,0,0,0,0,0,3,1,0	71.0	15.0	4.377	0,0,0,1,2,3,0,0,0	to_hand	s611
219.102	0.469	0	PA_without_intermediate	0,0,0,1,2,0,3,0,0	test	ward_and_allport	2,0,0,0,0,0,3,1,0	82.0	15.0	0.469	0,0,0,1,2,3,0,0,0	to_board	s611
219.578	1.165	0	PA_without_intermediate	0,0,0,1,0,0,3,0,0	test	ward_and_allport	2,0,0,0,0,0,3,1,0	71.0	15.0	1.165	0,0,0,1,2,3,0,0,0	to_hand	s611
220.743	0.428	0	PA_without_intermediate	2,0,0,1,0,0,3,0,0	test	ward_and_allport	2,0,0,0,0,0,3,1,0	89.0	15.0	0.428	0,0,0,1,2,3,0,0,0	to_board	s611
221.177	0.471	0	PA_without_intermediate	2,0,0,0,0,0,3,0,0	test	ward_and_allport	2,0,0,0,0,0,3,1,0	71.0	15.0	0.471	0,0,0,1,2,3,0,0,0	to_hand	s611
221.648	0.472	0	PA_without_intermediate	2,0,0,0,0,0,3,1,0	test	ward_and_allport	2,0,0,0,0,0,3,1,0	82.0	15.0	0.472	0,0,0,1,2,3,0,0,0	to_board	s611
222.128	1.0	0	PA_without_intermediate	n/a	test	ward_and_allport	n/a	-1.0	15.0	n/a	n/a	feedback	s611
223.128	2.36	0	PA_without_intermediate	n/a	test	ward_and_allport	n/a	-1.0	15.0	n/a	n/a	ITI	s611
225.493	2.196	1	PA_without_intermediate	1,2,0,0,0,0,0,0,0	test	ward_and_allport	0,0,0,1,0,0,3,2,0	89.0	16.0	2.196	1,2,3,0,0,0,0,0,0	to_hand	s611
227.69	0.466	0	PA_without_intermediate	1,2,0,0,0,0,3,0,0	test	ward_and_allport	0,0,0,1,0,0,3,2,0	82.0	16.0	0.466	1,2,3,0,0,0,0,0,0	to_board	s611
228.162	0.503	0	PA_without_intermediate	1,0,0,0,0,0,3,0,0	test	ward_and_allport	0,0,0,1,0,0,3,2,0	89.0	16.0	0.503	1,2,3,0,0,0,0,0,0	to_hand	s611
228.666	0.509	0	PA_without_intermediate	1,0,0,0,0,0,3,2,0	test	ward_and_allport	0,0,0,1,0,0,3,2,0	82.0	16.0	0.509	1,2,3,0,0,0,0,0,0	to_board	s611
229.182	0.433	0	PA_without_intermediate	0,0,0,0,0,0,3,2,0	test	ward_and_allport	0,0,0,1,0,0,3,2,0	89.0	16.0	0.433	1,2,3,0,0,0,0,0,0	to_hand	s611
229.616	0.381	0	PA_without_intermediate	0,0,0,1,0,0,3,2,0	test	ward_and_allport	0,0,0,1,0,0,3,2,0	71.0	16.0	0.381	1,2,3,0,0,0,0,0,0	to_board	s611
230.006	1.0	0	PA_without_intermediate	n/a	test	ward_and_allport	n/a	-1.0	16.0	n/a	n/a	feedback	s611
231.006	1.0	0	PA_without_intermediate	n/a	test	ward_and_allport	n/a	-1.0	16.0	n/a	n/a	ITI	s611
232.011	2.11	1	PA_without_intermediate	0,0,0,0,0,0,1,2,0	test	ward_and_allport	2,0,0,3,1,0,0,0,0	82.0	17.0	2.11	0,0,0,0,0,0,1,2,3	to_hand	s611
234.122	0.525	0	PA_without_intermediate	0,0,0,3,0,0,1,2,0	test	ward_and_allport	2,0,0,3,1,0,0,0,0	71.0	17.0	0.525	0,0,0,0,0,0,1,2,3	to_board	s611
234.654	1.018	0	PA_without_intermediate	0,0,0,3,0,0,1,0,0	test	ward_and_allport	2,0,0,3,1,0,0,0,0	82.0	17.0	1.018	0,0,0,0,0,0,1,2,3	to_hand	s611
235.673	0.386	0	PA_without_intermediate	2,0,0,3,0,0,1,0,0	test	ward_and_allport	2,0,0,3,1,0,0,0,0	89.0	17.0	0.386	0,0,0,0,0,0,1,2,3	to_board	s611
236.065	0.535	0	PA_without_intermediate	2,0,0,3,0,0,0,0,0	test	ward_and_allport	2,0,0,3,1,0,0,0,0	82.0	17.0	0.535	0,0,0,0,0,0,1,2,3	to_hand	s611
236.602	0.368	0	PA_without_intermediate	2,0,0,3,1,0,0,0,0	test	ward_and_allport	2,0,0,3,1,0,0,0,0	71.0	17.0	0.368	0,0,0,0,0,0,1,2,3	to_board	s611
236.976	1.0	0	PA_without_intermediate	n/a	test	ward_and_allport	n/a	-1.0	17.0	n/a	n/a	feedback	s611
237.976	1.408	0	PA_without_intermediate	n/a	test	ward_and_allport	n/a	-1.0	17.0	n/a	n/a	ITI	s611
239.391	3.347	1	PA_with_intermediate	0,0,0,0,0,0,1,2,0	test	ward_and_allport	2,0,0,0,0,0,1,3,0	82.0	18.0	3.347	0,0,0,0,0,0,1,2,3	to_hand	s611
242.739	0.463	0	PA_with_intermediate	0,0,0,3,0,0,1,2,0	test	ward_and_allport	2,0,0,0,0,0,1,3,0	71.0	18.0	0.463	0,0,0,0,0,0,1,2,3	to_board	s611
243.209	0.399	0	PA_with_intermediate	0,0,0,3,0,0,1,0,0	test	ward_and_allport	2,0,0,0,0,0,1,3,0	82.0	18.0	0.399	0,0,0,0,0,0,1,2,3	to_hand	s611
243.61	0.39	0	PA_with_intermediate	2,0,0,3,0,0,1,0,0	test	ward_and_allport	2,0,0,0,0,0,1,3,0	89.0	18.0	0.39	0,0,0,0,0,0,1,2,3	to_board	s611
244.007	0.339	0	PA_with_intermediate	2,0,0,0,0,0,1,0,0	test	ward_and_allport	2,0,0,0,0,0,1,3,0	71.0	18.0	0.339	0,0,0,0,0,0,1,2,3	to_hand	s611
244.347	0.476	0	PA_with_intermediate	2,0,0,0,0,0,1,3,0	test	ward_and_allport	2,0,0,0,0,0,1,3,0	82.0	18.0	0.476	0,0,0,0,0,0,1,2,3	to_board	s611
244.836	1.0	0	PA_with_intermediate	n/a	test	ward_and_allport	n/a	-1.0	18.0	n/a	n/a	feedback	s611
245.836	1.136	0	PA_with_intermediate	n/a	test	ward_and_allport	n/a	-1.0	18.0	n/a	n/a	ITI	s611
246.978	3.175	1	PA_without_intermediate	0,0,0,1,2,0,0,0,0	test	ward_and_allport	1,0,0,0,0,0,3,2,0	71.0	19.0	3.175	0,0,0,1,2,3,0,0,0	to_hand	s611
250.154	0.569	0	PA_without_intermediate	0,0,0,1,2,0,3,0,0	test	ward_and_allport	1,0,0,0,0,0,3,2,0	82.0	19.0	0.569	0,0,0,1,2,3,0,0,0	to_board	s611
250.73	0.424	0	PA_without_intermediate	0,0,0,1,0,0,3,0,0	test	ward_and_allport	1,0,0,0,0,0,3,2,0	71.0	19.0	0.424	0,0,0,1,2,3,0,0,0	to_hand	s611
251.155	0.405	0	PA_without_intermediate	0,0,0,1,0,0,3,2,0	test	ward_and_allport	1,0,0,0,0,0,3,2,0	82.0	19.0	0.405	0,0,0,1,2,3,0,0,0	to_board	s611
251.568	0.837	0	PA_without_intermediate	0,0,0,0,0,0,3,2,0	test	ward_and_allport	1,0,0,0,0,0,3,2,0	71.0	19.0	0.837	0,0,0,1,2,3,0,0,0	to_hand	s611
252.406	0.319	0	PA_without_intermediate	1,0,0,0,0,0,3,2,0	test	ward_and_allport	1,0,0,0,0,0,3,2,0	89.0	19.0	0.319	0,0,0,1,2,3,0,0,0	to_board	s611
252.733	1.0	0	PA_without_intermediate	n/a	test	ward_and_allport	n/a	-1.0	19.0	n/a	n/a	feedback	s611
253.733	4.128	0	PA_without_intermediate	n/a	test	ward_and_allport	n/a	-1.0	19.0	n/a	n/a	ITI	s611
257.869	2.216	1	PA_without_intermediate	0,0,0,1,2,0,0,0,0	test	ward_and_allport	2,0,0,0,0,0,3,1,0	71.0	20.0	2.216	0,0,0,1,2,3,0,0,0	to_hand	s611
260.086	0.408	0	PA_without_intermediate	0,0,0,1,2,0,3,0,0	test	ward_and_allport	2,0,0,0,0,0,3,1,0	82.0	20.0	0.408	0,0,0,1,2,3,0,0,0	to_board	s611
260.502	0.454	0	PA_without_intermediate	0,0,0,1,0,0,3,0,0	test	ward_and_allport	2,0,0,0,0,0,3,1,0	71.0	20.0	0.454	0,0,0,1,2,3,0,0,0	to_hand	s611
260.958	0.327	0	PA_without_intermediate	2,0,0,1,0,0,3,0,0	test	ward_and_allport	2,0,0,0,0,0,3,1,0	89.0	20.0	0.327	0,0,0,1,2,3,0,0,0	to_board	s611
261.293	0.38	0	PA_without_intermediate	2,0,0,0,0,0,3,0,0	test	ward_and_allport	2,0,0,0,0,0,3,1,0	71.0	20.0	0.38	0,0,0,1,2,3,0,0,0	to_hand	s611
261.674	0.353	0	PA_without_intermediate	2,0,0,0,0,0,3,1,0	test	ward_and_allport	2,0,0,0,0,0,3,1,0	82.0	20.0	0.353	0,0,0,1,2,3,0,0,0	to_board	s611
262.038	1.0	0	PA_without_intermediate	n/a	test	ward_and_allport	n/a	-1.0	20.0	n/a	n/a	feedback	s611
263.038	1.136	0	PA_without_intermediate	n/a	test	ward_and_allport	n/a	-1.0	20.0	n/a	n/a	ITI	s611
264.182	2.976	1	PA_without_intermediate	1,2,0,0,0,0,0,0,0	test	ward_and_allport	0,0,0,3,1,0,2,0,0	89.0	21.0	2.976	1,2,3,0,0,0,0,0,0	to_hand	s611
267.159	0.329	0	PA_without_intermediate	1,2,0,3,0,0,0,0,0	test	ward_and_allport	0,0,0,3,1,0,2,0,0	71.0	21.0	0.329	1,2,3,0,0,0,0,0,0	to_board	s611
267.496	0.34	0	PA_without_intermediate	1,0,0,3,0,0,0,0,0	test	ward_and_allport	0,0,0,3,1,0,2,0,0	89.0	21.0	0.34	1,2,3,0,0,0,0,0,0	to_hand	s611
267.838	0.476	0	PA_without_intermediate	1,0,0,3,0,0,2,0,0	test	ward_and_allport	0,0,0,3,1,0,2,0,0	82.0	21.0	0.476	1,2,3,0,0,0,0,0,0	to_board	s611
268.322	0.44	0	PA_without_intermediate	0,0,0,3,0,0,2,0,0	test	ward_and_allport	0,0,0,3,1,0,2,0,0	89.0	21.0	0.44	1,2,3,0,0,0,0,0,0	to_hand	s611
268.763	0.315	0	PA_without_intermediate	0,0,0,3,1,0,2,0,0	test	ward_and_allport	0,0,0,3,1,0,2,0,0	71.0	21.0	0.315	1,2,3,0,0,0,0,0,0	to_board	s611
269.089	1.0	0	PA_without_intermediate	n/a	test	ward_and_allport	n/a	-1.0	21.0	n/a	n/a	feedback	s611
270.089	4.264	0	PA_without_intermediate	n/a	test	ward_and_allport	n/a	-1.0	21.0	n/a	n/a	ITI	s611
274.36	3.556	1	PA_with_intermediate	0,0,0,0,0,0,1,2,0	test	ward_and_allport	2,3,0,0,0,0,1,0,0	82.0	22.0	3.556	0,0,0,0,0,0,1,2,3	to_hand	s611
277.917	0.399	0	PA_with_intermediate	0,0,0,3,0,0,1,2,0	test	ward_and_allport	2,3,0,0,0,0,1,0,0	71.0	22.0	0.399	0,0,0,0,0,0,1,2,3	to_board	s611
278.324	0.78	0	PA_with_intermediate	0,0,0,3,0,0,1,0,0	test	ward_and_allport	2,3,0,0,0,0,1,0,0	82.0	22.0	0.78	0,0,0,0,0,0,1,2,3	to_hand	s611
279.106	0.39	0	PA_with_intermediate	2,0,0,3,0,0,1,0,0	test	ward_and_allport	2,3,0,0,0,0,1,0,0	89.0	22.0	0.39	0,0,0,0,0,0,1,2,3	to_board	s611
279.504	0.394	0	PA_with_intermediate	2,0,0,0,0,0,1,0,0	test	ward_and_allport	2,3,0,0,0,0,1,0,0	71.0	22.0	0.394	0,0,0,0,0,0,1,2,3	to_hand	s611
279.899	0.387	0	PA_with_intermediate	2,3,0,0,0,0,1,0,0	test	ward_and_allport	2,3,0,0,0,0,1,0,0	89.0	22.0	0.387	0,0,0,0,0,0,1,2,3	to_board	s611
280.298	1.0	0	PA_with_intermediate	n/a	test	ward_and_allport	n/a	-1.0	22.0	n/a	n/a	feedback	s611
281.298	3.04	0	PA_with_intermediate	n/a	test	ward_and_allport	n/a	-1.0	22.0	n/a	n/a	ITI	s611
284.347	2.503	1	PA_with_intermediate	1,2,0,0,0,0,0,0,0	test	ward_and_allport	1,3,0,0,0,0,2,0,0	89.0	23.0	2.503	1,2,3,0,0,0,0,0,0	to_hand	s611
286.852	0.354	0	PA_with_intermediate	1,2,0,3,0,0,0,0,0	test	ward_and_allport	1,3,0,0,0,0,2,0,0	71.0	23.0	0.354	1,2,3,0,0,0,0,0,0	to_board	s611
287.214	0.347	0	PA_with_intermediate	1,0,0,3,0,0,0,0,0	test	ward_and_allport	1,3,0,0,0,0,2,0,0	89.0	23.0	0.347	1,2,3,0,0,0,0,0,0	to_hand	s611
287.563	0.577	0	PA_with_intermediate	1,0,0,3,0,0,2,0,0	test	ward_and_allport	1,3,0,0,0,0,2,0,0	82.0	23.0	0.577	1,2,3,0,0,0,0,0,0	to_board	s611
288.149	0.429	0	PA_with_intermediate	1,0,0,0,0,0,2,0,0	test	ward_and_allport	1,3,0,0,0,0,2,0,0	71.0	23.0	0.429	1,2,3,0,0,0,0,0,0	to_hand	s611
288.58	0.344	0	PA_with_intermediate	1,3,0,0,0,0,2,0,0	test	ward_and_allport	1,3,0,0,0,0,2,0,0	89.0	23.0	0.344	1,2,3,0,0,0,0,0,0	to_board	s611
288.933	1.0	0	PA_with_intermediate	n/a	test	ward_and_allport	n/a	-1.0	23.0	n/a	n/a	feedback	s611
289.933	1.136	0	PA_with_intermediate	n/a	test	ward_and_allport	n/a	-1.0	23.0	n/a	n/a	ITI	s611
291.078	2.731	1	PA_with_intermediate	0,0,0,1,2,0,0,0,0	test	ward_and_allport	0,0,0,1,0,0,2,3,0	71.0	24.0	2.731	0,0,0,1,2,3,0,0,0	to_hand	s611
293.811	0.356	0	PA_with_intermediate	3,0,0,1,2,0,0,0,0	test	ward_and_allport	0,0,0,1,0,0,2,3,0	89.0	24.0	0.356	0,0,0,1,2,3,0,0,0	to_board	s611
294.176	0.396	0	PA_with_intermediate	3,0,0,1,0,0,0,0,0	test	ward_and_allport	0,0,0,1,0,0,2,3,0	71.0	24.0	0.396	0,0,0,1,2,3,0,0,0	to_hand	s611
294.574	0.491	0	PA_with_intermediate	3,0,0,1,0,0,2,0,0	test	ward_and_allport	0,0,0,1,0,0,2,3,0	82.0	24.0	0.491	0,0,0,1,2,3,0,0,0	to_board	s611
295.073	0.339	0	PA_with_intermediate	0,0,0,1,0,0,2,0,0	test	ward_and_allport	0,0,0,1,0,0,2,3,0	89.0	24.0	0.339	0,0,0,1,2,3,0,0,0	to_hand	s611
295.413	0.71	0	PA_with_intermediate	0,0,0,1,0,0,2,3,0	test	ward_and_allport	0,0,0,1,0,0,2,3,0	82.0	24.0	0.71	0,0,0,1,2,3,0,0,0	to_board	s611
296.133	1.0	0	PA_with_intermediate	n/a	test	ward_and_allport	n/a	-1.0	24.0	n/a	n/a	feedback	s611
297.133	1.408	0	PA_with_intermediate	n/a	test	ward_and_allport	n/a	-1.0	24.0	n/a	n/a	ITI	s611
298.549	2.017	1	PA_without_intermediate	0,0,0,1,2,0,0,0,0	test	ward_and_allport	3,1,0,0,0,0,2,0,0	71.0	25.0	2.017	0,0,0,1,2,3,0,0,0	to_hand	s611
300.567	0.355	0	PA_without_intermediate	3,0,0,1,2,0,0,0,0	test	ward_and_allport	3,1,0,0,0,0,2,0,0	89.0	25.0	0.355	0,0,0,1,2,3,0,0,0	to_board	s611
300.932	0.368	0	PA_without_intermediate	3,0,0,1,0,0,0,0,0	test	ward_and_allport	3,1,0,0,0,0,2,0,0	71.0	25.0	0.368	0,0,0,1,2,3,0,0,0	to_hand	s611
301.3	0.432	0	PA_without_intermediate	3,0,0,1,0,0,2,0,0	test	ward_and_allport	3,1,0,0,0,0,2,0,0	82.0	25.0	0.432	0,0,0,1,2,3,0,0,0	to_board	s611
301.741	0.326	0	PA_without_intermediate	3,0,0,0,0,0,2,0,0	test	ward_and_allport	3,1,0,0,0,0,2,0,0	71.0	25.0	0.326	0,0,0,1,2,3,0,0,0	to_hand	s611
302.068	0.369	0	PA_without_intermediate	3,1,0,0,0,0,2,0,0	test	ward_and_allport	3,1,0,0,0,0,2,0,0	89.0	25.0	0.369	0,0,0,1,2,3,0,0,0	to_board	s611
302.448	1.0	0	PA_without_intermediate	n/a	test	ward_and_allport	n/a	-1.0	25.0	n/a	n/a	feedback	s611
303.448	1.68	0	PA_without_intermediate	n/a	test	ward_and_allport	n/a	-1.0	25.0	n/a	n/a	ITI	s611
305.139	2.806	1	PA_with_intermediate	1,2,0,0,0,0,0,0,0	test	ward_and_allport	1,0,0,0,0,0,2,3,0	89.0	26.0	2.806	1,2,3,0,0,0,0,0,0	to_hand	s611
307.946	0.345	0	PA_with_intermediate	1,2,0,3,0,0,0,0,0	test	ward_and_allport	1,0,0,0,0,0,2,3,0	71.0	26.0	0.345	1,2,3,0,0,0,0,0,0	to_board	s611
308.3	0.289	0	PA_with_intermediate	1,0,0,3,0,0,0,0,0	test	ward_and_allport	1,0,0,0,0,0,2,3,0	89.0	26.0	0.289	1,2,3,0,0,0,0,0,0	to_hand	s611
308.59	0.482	0	PA_with_intermediate	1,0,0,3,0,0,2,0,0	test	ward_and_allport	1,0,0,0,0,0,2,3,0	82.0	26.0	0.482	1,2,3,0,0,0,0,0,0	to_board	s611
309.081	0.374	0	PA_with_intermediate	1,0,0,0,0,0,2,0,0	test	ward_and_allport	1,0,0,0,0,0,2,3,0	71.0	26.0	0.374	1,2,3,0,0,0,0,0,0	to_hand	s611
309.456	0.743	0	PA_with_intermediate	1,0,0,0,0,0,2,3,0	test	ward_and_allport	1,0,0,0,0,0,2,3,0	82.0	26.0	0.743	1,2,3,0,0,0,0,0,0	to_board	s611
310.211	1.0	0	PA_with_intermediate	n/a	test	ward_and_allport	n/a	-1.0	26.0	n/a	n/a	feedback	s611
311.211	3.72	0	PA_with_intermediate	n/a	test	ward_and_allport	n/a	-1.0	26.0	n/a	n/a	ITI	s611
314.939	2.547	1	PA_without_intermediate	0,0,0,0,0,0,1,2,0	test	ward_and_allport	3,2,0,1,0,0,0,0,0	82.0	27.0	2.547	0,0,0,0,0,0,1,2,3	to_hand	s611
317.487	0.421	0	PA_without_intermediate	3,0,0,0,0,0,1,2,0	test	ward_and_allport	3,2,0,1,0,0,0,0,0	89.0	27.0	0.421	0,0,0,0,0,0,1,2,3	to_board	s611
317.917	1.593	0	PA_without_intermediate	3,0,0,0,0,0,1,0,0	test	ward_and_allport	3,2,0,1,0,0,0,0,0	82.0	27.0	1.593	0,0,0,0,0,0,1,2,3	to_hand	s611
319.511	0.391	0	PA_without_intermediate	3,2,0,0,0,0,1,0,0	test	ward_and_allport	3,2,0,1,0,0,0,0,0	89.0	27.0	0.391	0,0,0,0,0,0,1,2,3	to_board	s611
319.91	1.145	0	PA_without_intermediate	3,2,0,0,0,0,0,0,0	test	ward_and_allport	3,2,0,1,0,0,0,0,0	82.0	27.0	1.145	0,0,0,0,0,0,1,2,3	to_hand	s611
321.057	0.322	0	PA_without_intermediate	3,2,0,1,0,0,0,0,0	test	ward_and_allport	3,2,0,1,0,0,0,0,0	71.0	27.0	0.322	0,0,0,0,0,0,1,2,3	to_board	s611
321.393	1.0	0	PA_without_intermediate	n/a	test	ward_and_allport	n/a	-1.0	27.0	n/a	n/a	feedback	s611
322.393	2.224	0	PA_without_intermediate	n/a	test	ward_and_allport	n/a	-1.0	27.0	n/a	n/a	ITI	s611
324.625	3.216	1	PA_without_intermediate	0,0,0,0,0,0,1,2,0	test	ward_and_allport	1,0,0,3,2,0,0,0,0	82.0	28.0	3.216	0,0,0,0,0,0,1,2,3	to_hand	s611
327.842	0.433	0	PA_without_intermediate	0,0,0,3,0,0,1,2,0	test	ward_and_allport	1,0,0,3,2,0,0,0,0	71.0	28.0	0.433	0,0,0,0,0,0,1,2,3	to_board	s611
328.285	0.749	0	PA_without_intermediate	0,0,0,3,0,0,1,0,0	test	ward_and_allport	1,0,0,3,2,0,0,0,0	82.0	28.0	0.749	0,0,0,0,0,0,1,2,3	to_hand	s611
329.035	0.415	0	PA_without_intermediate	0,0,0,3,2,0,1,0,0	test	ward_and_allport	1,0,0,3,2,0,0,0,0	71.0	28.0	0.415	0,0,0,0,0,0,1,2,3	to_board	s611
329.461	0.579	0	PA_without_intermediate	0,0,0,3,2,0,0,0,0	test	ward_and_allport	1,0,0,3,2,0,0,0,0	82.0	28.0	0.579	0,0,0,0,0,0,1,2,3	to_hand	s611
330.041	0.275	0	PA_without_intermediate	1,0,0,3,2,0,0,0,0	test	ward_and_allport	1,0,0,3,2,0,0,0,0	89.0	28.0	0.275	0,0,0,0,0,0,1,2,3	to_board	s611
330.329	1.0	0	PA_without_intermediate	n/a	test	ward_and_allport	n/a	-1.0	28.0	n/a	n/a	feedback	s611
331.329	1.272	0	PA_without_intermediate	n/a	test	ward_and_allport	n/a	-1.0	28.0	n/a	n/a	ITI	s611
332.609	4.475	1	PA_with_intermediate	0,0,0,1,2,0,0,0,0	test	ward_and_allport	2,0,0,1,3,0,0,0,0	71.0	29.0	4.475	0,0,0,1,2,3,0,0,0	to_hand	s611
337.085	0.462	0	PA_with_intermediate	0,0,0,1,2,0,3,0,0	test	ward_and_allport	2,0,0,1,3,0,0,0,0	82.0	29.0	0.462	0,0,0,1,2,3,0,0,0	to_board	s611
337.555	0.431	0	PA_with_intermediate	0,0,0,1,0,0,3,0,0	test	ward_and_allport	2,0,0,1,3,0,0,0,0	71.0	29.0	0.431	0,0,0,1,2,3,0,0,0	to_hand	s611
337.987	0.362	0	PA_with_intermediate	2,0,0,1,0,0,3,0,0	test	ward_and_allport	2,0,0,1,3,0,0,0,0	89.0	29.0	0.362	0,0,0,1,2,3,0,0,0	to_board	s611
338.359	0.406	0	PA_with_intermediate	2,0,0,1,0,0,0,0,0	test	ward_and_allport	2,0,0,1,3,0,0,0,0	82.0	29.0	0.406	0,0,0,1,2,3,0,0,0	to_hand	s611
338.766	0.361	0	PA_with_intermediate	2,0,0,1,3,0,0,0,0	test	ward_and_allport	2,0,0,1,3,0,0,0,0	71.0	29.0	0.361	0,0,0,1,2,3,0,0,0	to_board	s611
339.14	1.0	0	PA_with_intermediate	n/a	test	ward_and_allport	n/a	-1.0	29.0	n/a	n/a	feedback	s611
340.14	2.632	0	PA_with_intermediate	n/a	test	ward_and_allport	n/a	-1.0	29.0	n/a	n/a	ITI	s611
347.787	2.374	1	PA_without_intermediate	0,0,0,0,0,0,1,2,0	test	ward_and_allport	3,1,0,2,0,0,0,0,0	82.0	30.0	2.374	0,0,0,0,0,0,1,2,3	to_hand	s611
350.163	0.524	0	PA_without_intermediate	3,0,0,0,0,0,1,2,0	test	ward_and_allport	3,1,0,2,0,0,0,0,0	89.0	30.0	0.524	0,0,0,0,0,0,1,2,3	to_board	s611
350.698	1.373	0	PA_without_intermediate	3,0,0,0,0,0,1,0,0	test	ward_and_allport	3,1,0,2,0,0,0,0,0	82.0	30.0	1.373	0,0,0,0,0,0,1,2,3	to_hand	s611
352.073	0.599	0	PA_without_intermediate	3,0,0,2,0,0,1,0,0	test	ward_and_allport	3,1,0,2,0,0,0,0,0	71.0	30.0	0.599	0,0,0,0,0,0,1,2,3	to_board	s611
352.684	0.497	0	PA_without_intermediate	3,0,0,2,0,0,0,0,0	test	ward_and_allport	3,1,0,2,0,0,0,0,0	82.0	30.0	0.497	0,0,0,0,0,0,1,2,3	to_hand	s611
353.183	0.365	0	PA_without_intermediate	3,1,0,2,0,0,0,0,0	test	ward_and_allport	3,1,0,2,0,0,0,0,0	89.0	30.0	0.365	0,0,0,0,0,0,1,2,3	to_board	s611
353.559	1.0	0	PA_without_intermediate	n/a	test	ward_and_allport	n/a	-1.0	30.0	n/a	n/a	feedback	s611
354.559	1.408	0	PA_without_intermediate	n/a	test	ward_and_allport	n/a	-1.0	30.0	n/a	n/a	ITI	s611
355.974	2.114	1	PA_without_intermediate	1,2,0,0,0,0,0,0,0	test	ward_and_allport	0,0,0,3,2,0,1,0,0	89.0	31.0	2.114	1,2,3,0,0,0,0,0,0	to_hand	s611
358.09	0.454	0	PA_without_intermediate	1,2,0,3,0,0,0,0,0	test	ward_and_allport	0,0,0,3,2,0,1,0,0	71.0	31.0	0.454	1,2,3,0,0,0,0,0,0	to_board	s611
358.551	0.768	0	PA_without_intermediate	1,0,0,3,0,0,0,0,0	test	ward_and_allport	0,0,0,3,2,0,1,0,0	89.0	31.0	0.768	1,2,3,0,0,0,0,0,0	to_hand	s611
359.32	0.753	0	PA_without_intermediate	1,0,0,3,2,0,0,0,0	test	ward_and_allport	0,0,0,3,2,0,1,0,0	71.0	31.0	0.753	1,2,3,0,0,0,0,0,0	to_board	s611
360.086	0.383	0	PA_without_intermediate	0,0,0,3,2,0,0,0,0	test	ward_and_allport	0,0,0,3,2,0,1,0,0	89.0	31.0	0.383	1,2,3,0,0,0,0,0,0	to_hand	s611
360.469	0.522	0	PA_without_intermediate	0,0,0,3,2,0,1,0,0	test	ward_and_allport	0,0,0,3,2,0,1,0,0	82.0	31.0	0.522	1,2,3,0,0,0,0,0,0	to_board	s611
361.007	1.0	0	PA_without_intermediate	n/a	test	ward_and_allport	n/a	-1.0	31.0	n/a	n/a	feedback	s611
362.007	1.0	0	PA_without_intermediate	n/a	test	ward_and_allport	n/a	-1.0	31.0	n/a	n/a	ITI	s611
363.015	2.314	1	PA_with_intermediate	0,0,0,0,0,0,1,2,0	test	ward_and_allport	2,3,0,0,0,0,1,0,0	82.0	32.0	2.314	0,0,0,0,0,0,1,2,3	to_hand	s611
365.33	0.654	0	PA_with_intermediate	3,0,0,0,0,0,1,2,0	test	ward_and_allport	2,3,0,0,0,0,1,0,0	89.0	32.0	0.654	0,0,0,0,0,0,1,2,3	to_board	s611
365.993	2.179	0	PA_with_intermediate	0,0,0,0,0,0,1,2,0	test	ward_and_allport	2,3,0,0,0,0,1,0,0	89.0	32.0	2.179	0,0,0,0,0,0,1,2,3	to_hand	s611
368.174	0.595	0	PA_with_intermediate	0,0,0,3,0,0,1,2,0	test	ward_and_allport	2,3,0,0,0,0,1,0,0	71.0	32.0	0.595	0,0,0,0,0,0,1,2,3	to_board	s611
368.78	0.45	0	PA_with_intermediate	0,0,0,3,0,0,1,0,0	test	ward_and_allport	2,3,0,0,0,0,1,0,0	82.0	32.0	0.45	0,0,0,0,0,0,1,2,3	to_hand	s611
369.231	0.502	0	PA_with_intermediate	2,0,0,3,0,0,1,0,0	test	ward_and_allport	2,3,0,0,0,0,1,0,0	89.0	32.0	0.502	0,0,0,0,0,0,1,2,3	to_board	s611
369.745	0.377	0	PA_with_intermediate	2,0,0,0,0,0,1,0,0	test	ward_and_allport	2,3,0,0,0,0,1,0,0	71.0	32.0	0.377	0,0,0,0,0,0,1,2,3	to_hand	s611
370.123	0.346	0	PA_with_intermediate	2,3,0,0,0,0,1,0,0	test	ward_and_allport	2,3,0,0,0,0,1,0,0	89.0	32.0	0.346	0,0,0,0,0,0,1,2,3	to_board	s611
370.48	1.0	0	PA_with_intermediate	n/a	test	ward_and_allport	n/a	-1.0	32.0	n/a	n/a	feedback	s611
371.48	1.0	0	PA_with_intermediate	n/a	test	ward_and_allport	n/a	-1.0	32.0	n/a	n/a	ITI	s611
372.493	2.982	1	PA_with_intermediate	1,2,0,0,0,0,0,0,0	test	ward_and_allport	1,0,0,2,3,0,0,0,0	89.0	33.0	2.982	1,2,3,0,0,0,0,0,0	to_hand	s611
375.477	0.45	0	PA_with_intermediate	1,2,0,0,0,0,3,0,0	test	ward_and_allport	1,0,0,2,3,0,0,0,0	82.0	33.0	0.45	1,2,3,0,0,0,0,0,0	to_board	s611
375.934	0.396	0	PA_with_intermediate	1,0,0,0,0,0,3,0,0	test	ward_and_allport	1,0,0,2,3,0,0,0,0	89.0	33.0	0.396	1,2,3,0,0,0,0,0,0	to_hand	s611
376.332	0.452	0	PA_with_intermediate	1,0,0,2,0,0,3,0,0	test	ward_and_allport	1,0,0,2,3,0,0,0,0	71.0	33.0	0.452	1,2,3,0,0,0,0,0,0	to_board	s611
376.793	0.661	0	PA_with_intermediate	1,0,0,2,0,0,0,0,0	test	ward_and_allport	1,0,0,2,3,0,0,0,0	82.0	33.0	0.661	1,2,3,0,0,0,0,0,0	to_hand	s611
377.455	0.452	0	PA_with_intermediate	1,0,0,2,3,0,0,0,0	test	ward_and_allport	1,0,0,2,3,0,0,0,0	71.0	33.0	0.452	1,2,3,0,0,0,0,0,0	to_board	s611
377.92	1.0	0	PA_with_intermediate	n/a	test	ward_and_allport	n/a	-1.0	33.0	n/a	n/a	feedback	s611
378.92	1.0	0	PA_with_intermediate	n/a	test	ward_and_allport	n/a	-1.0	33.0	n/a	n/a	ITI	s611
379.93	3.999	1	PA_with_intermediate	0,0,0,1,2,0,0,0,0	test	ward_and_allport	0,0,0,1,3,0,2,0,0	71.0	34.0	3.999	0,0,0,1,2,3,0,0,0	to_hand	s611
383.931	0.392	0	PA_with_intermediate	3,0,0,1,2,0,0,0,0	test	ward_and_allport	0,0,0,1,3,0,2,0,0	89.0	34.0	0.392	0,0,0,1,2,3,0,0,0	to_board	s611
384.33	0.341	0	PA_with_intermediate	3,0,0,1,0,0,0,0,0	test	ward_and_allport	0,0,0,1,3,0,2,0,0	71.0	34.0	0.341	0,0,0,1,2,3,0,0,0	to_hand	s611
384.672	0.402	0	PA_with_intermediate	3,0,0,1,0,0,2,0,0	test	ward_and_allport	0,0,0,1,3,0,2,0,0	82.0	34.0	0.402	0,0,0,1,2,3,0,0,0	to_board	s611
385.084	0.321	0	PA_with_intermediate	0,0,0,1,0,0,2,0,0	test	ward_and_allport	0,0,0,1,3,0,2,0,0	89.0	34.0	0.321	0,0,0,1,2,3,0,0,0	to_hand	s611
385.407	0.281	0	PA_with_intermediate	0,0,0,1,3,0,2,0,0	test	ward_and_allport	0,0,0,1,3,0,2,0,0	71.0	34.0	0.281	0,0,0,1,2,3,0,0,0	to_board	s611
385.705	1.0	0	PA_with_intermediate	n/a	test	ward_and_allport	n/a	-1.0	34.0	n/a	n/a	feedback	s611
386.705	1.408	0	PA_with_intermediate	n/a	test	ward_and_allport	n/a	-1.0	34.0	n/a	n/a	ITI	s611
388.121	2.51	1	PA_without_intermediate	1,2,0,0,0,0,0,0,0	test	ward_and_allport	0,0,0,3,2,0,1,0,0	89.0	35.0	2.51	1,2,3,0,0,0,0,0,0	to_hand	s611
390.632	0.404	0	PA_without_intermediate	1,2,0,3,0,0,0,0,0	test	ward_and_allport	0,0,0,3,2,0,1,0,0	71.0	35.0	0.404	1,2,3,0,0,0,0,0,0	to_board	s611
391.044	0.384	0	PA_without_intermediate	1,0,0,3,0,0,0,0,0	test	ward_and_allport	0,0,0,3,2,0,1,0,0	89.0	35.0	0.384	1,2,3,0,0,0,0,0,0	to_hand	s611
391.429	0.369	0	PA_without_intermediate	1,0,0,3,2,0,0,0,0	test	ward_and_allport	0,0,0,3,2,0,1,0,0	71.0	35.0	0.369	1,2,3,0,0,0,0,0,0	to_board	s611
391.809	0.377	0	PA_without_intermediate	0,0,0,3,2,0,0,0,0	test	ward_and_allport	0,0,0,3,2,0,1,0,0	89.0	35.0	0.377	1,2,3,0,0,0,0,0,0	to_hand	s611
392.187	0.545	0	PA_without_intermediate	0,0,0,3,2,0,1,0,0	test	ward_and_allport	0,0,0,3,2,0,1,0,0	82.0	35.0	0.545	1,2,3,0,0,0,0,0,0	to_board	s611
392.747	1.0	0	PA_without_intermediate	n/a	test	ward_and_allport	n/a	-1.0	35.0	n/a	n/a	feedback	s611
393.747	1.816	0	PA_without_intermediate	n/a	test	ward_and_allport	n/a	-1.0	35.0	n/a	n/a	ITI	s611
395.574	2.865	1	PA_with_intermediate	0,0,0,1,2,0,0,0,0	test	ward_and_allport	2,0,0,1,3,0,0,0,0	71.0	36.0	2.865	0,0,0,1,2,3,0,0,0	to_hand	s611
398.44	0.463	0	PA_with_intermediate	0,0,0,1,2,0,3,0,0	test	ward_and_allport	2,0,0,1,3,0,0,0,0	82.0	36.0	0.463	0,0,0,1,2,3,0,0,0	to_board	s611
398.911	0.419	0	PA_with_intermediate	0,0,0,1,0,0,3,0,0	test	ward_and_allport	2,0,0,1,3,0,0,0,0	71.0	36.0	0.419	0,0,0,1,2,3,0,0,0	to_hand	s611
399.331	0.382	0	PA_with_intermediate	2,0,0,1,0,0,3,0,0	test	ward_and_allport	2,0,0,1,3,0,0,0,0	89.0	36.0	0.382	0,0,0,1,2,3,0,0,0	to_board	s611
399.724	0.402	0	PA_with_intermediate	2,0,0,1,0,0,0,0,0	test	ward_and_allport	2,0,0,1,3,0,0,0,0	82.0	36.0	0.402	0,0,0,1,2,3,0,0,0	to_hand	s611
400.128	0.346	0	PA_with_intermediate	2,0,0,1,3,0,0,0,0	test	ward_and_allport	2,0,0,1,3,0,0,0,0	71.0	36.0	0.346	0,0,0,1,2,3,0,0,0	to_board	s611
400.486	1.0	0	PA_with_intermediate	n/a	test	ward_and_allport	n/a	-1.0	36.0	n/a	n/a	feedback	s611
401.486	3.176	0	PA_with_intermediate	n/a	test	ward_and_allport	n/a	-1.0	36.0	n/a	n/a	ITI	s611
404.672	2.635	1	PA_with_intermediate	1,2,0,0,0,0,0,0,0	test	ward_and_allport	1,3,0,0,0,0,2,0,0	89.0	37.0	2.635	1,2,3,0,0,0,0,0,0	to_hand	s611
407.31	0.36	0	PA_with_intermediate	1,2,0,3,0,0,0,0,0	test	ward_and_allport	1,3,0,0,0,0,2,0,0	71.0	37.0	0.36	1,2,3,0,0,0,0,0,0	to_board	s611
407.682	0.346	0	PA_with_intermediate	1,0,0,3,0,0,0,0,0	test	ward_and_allport	1,3,0,0,0,0,2,0,0	89.0	37.0	0.346	1,2,3,0,0,0,0,0,0	to_hand	s611
408.03	0.432	0	PA_with_intermediate	1,0,0,3,0,0,2,0,0	test	ward_and_allport	1,3,0,0,0,0,2,0,0	82.0	37.0	0.432	1,2,3,0,0,0,0,0,0	to_board	s611
408.474	0.275	0	PA_with_intermediate	1,0,0,0,0,0,2,0,0	test	ward_and_allport	1,3,0,0,0,0,2,0,0	71.0	37.0	0.275	1,2,3,0,0,0,0,0,0	to_hand	s611
408.751	0.302	0	PA_with_intermediate	1,3,0,0,0,0,2,0,0	test	ward_and_allport	1,3,0,0,0,0,2,0,0	89.0	37.0	0.302	1,2,3,0,0,0,0,0,0	to_board	s611
409.068	1.0	0	PA_with_intermediate	n/a	test	ward_and_allport	n/a	-1.0	37.0	n/a	n/a	feedback	s611
410.068	2.36	0	PA_with_intermediate	n/a	test	ward_and_allport	n/a	-1.0	37.0	n/a	n/a	ITI	s611
412.438	3.205	1	PA_with_intermediate	0,0,0,0,0,0,1,2,0	test	ward_and_allport	0,0,0,2,0,0,1,3,0	82.0	38.0	3.205	0,0,0,0,0,0,1,2,3	to_hand	s611
415.644	0.884	0	PA_with_intermediate	3,0,0,0,0,0,1,2,0	test	ward_and_allport	0,0,0,2,0,0,1,3,0	89.0	38.0	0.884	0,0,0,0,0,0,1,2,3	to_board	s611
416.537	0.558	0	PA_with_intermediate	3,0,0,0,0,0,1,0,0	test	ward_and_allport	0,0,0,2,0,0,1,3,0	82.0	38.0	0.558	0,0,0,0,0,0,1,2,3	to_hand	s611
417.096	0.422	0	PA_with_intermediate	3,0,0,2,0,0,1,0,0	test	ward_and_allport	0,0,0,2,0,0,1,3,0	71.0	38.0	0.422	0,0,0,0,0,0,1,2,3	to_board	s611
417.53	0.339	0	PA_with_intermediate	0,0,0,2,0,0,1,0,0	test	ward_and_allport	0,0,0,2,0,0,1,3,0	89.0	38.0	0.339	0,0,0,0,0,0,1,2,3	to_hand	s611
417.871	0.39	0	PA_with_intermediate	0,0,0,2,0,0,1,3,0	test	ward_and_allport	0,0,0,2,0,0,1,3,0	82.0	38.0	0.39	0,0,0,0,0,0,1,2,3	to_board	s611
418.273	1.0	0	PA_with_intermediate	n/a	test	ward_and_allport	n/a	-1.0	38.0	n/a	n/a	feedback	s611
419.273	1.0	0	PA_with_intermediate	n/a	test	ward_and_allport	n/a	-1.0	38.0	n/a	n/a	ITI	s611
420.285	3.495	1	PA_without_intermediate	0,0,0,0,0,0,1,2,0	test	ward_and_allport	3,2,0,1,0,0,0,0,0	82.0	39.0	3.495	0,0,0,0,0,0,1,2,3	to_hand	s611
423.781	0.8	0	PA_without_intermediate	3,0,0,0,0,0,1,2,0	test	ward_and_allport	3,2,0,1,0,0,0,0,0	89.0	39.0	0.8	0,0,0,0,0,0,1,2,3	to_board	s611
424.59	0.929	0	PA_without_intermediate	3,0,0,0,0,0,1,0,0	test	ward_and_allport	3,2,0,1,0,0,0,0,0	82.0	39.0	0.929	0,0,0,0,0,0,1,2,3	to_hand	s611
425.52	0.485	0	PA_without_intermediate	3,2,0,0,0,0,1,0,0	test	ward_and_allport	3,2,0,1,0,0,0,0,0	89.0	39.0	0.485	0,0,0,0,0,0,1,2,3	to_board	s611
426.015	0.411	0	PA_without_intermediate	3,2,0,0,0,0,0,0,0	test	ward_and_allport	3,2,0,1,0,0,0,0,0	82.0	39.0	0.411	0,0,0,0,0,0,1,2,3	to_hand	s611
426.427	0.33	0	PA_without_intermediate	3,2,0,1,0,0,0,0,0	test	ward_and_allport	3,2,0,1,0,0,0,0,0	71.0	39.0	0.33	0,0,0,0,0,0,1,2,3	to_board	s611
426.773	1.0	0	PA_without_intermediate	n/a	test	ward_and_allport	n/a	-1.0	39.0	n/a	n/a	feedback	s611
427.773	1.408	0	PA_without_intermediate	n/a	test	ward_and_allport	n/a	-1.0	39.0	n/a	n/a	ITI	s611
429.196	2.754	1	PA_with_intermediate	0,0,0,1,2,0,0,0,0	test	ward_and_allport	0,0,0,1,0,0,2,3,0	71.0	40.0	2.754	0,0,0,1,2,3,0,0,0	to_hand	s611
431.951	0.361	0	PA_with_intermediate	3,0,0,1,2,0,0,0,0	test	ward_and_allport	0,0,0,1,0,0,2,3,0	89.0	40.0	0.361	0,0,0,1,2,3,0,0,0	to_board	s611
432.324	0.993	0	PA_with_intermediate	3,0,0,1,0,0,0,0,0	test	ward_and_allport	0,0,0,1,0,0,2,3,0	71.0	40.0	0.993	0,0,0,1,2,3,0,0,0	to_hand	s611
433.319	0.479	0	PA_with_intermediate	3,0,0,1,0,0,2,0,0	test	ward_and_allport	0,0,0,1,0,0,2,3,0	82.0	40.0	0.479	0,0,0,1,2,3,0,0,0	to_board	s611
433.81	0.3	0	PA_with_intermediate	0,0,0,1,0,0,2,0,0	test	ward_and_allport	0,0,0,1,0,0,2,3,0	89.0	40.0	0.3	0,0,0,1,2,3,0,0,0	to_hand	s611
434.113	0.428	0	PA_with_intermediate	0,0,0,1,0,0,2,3,0	test	ward_and_allport	0,0,0,1,0,0,2,3,0	82.0	40.0	0.428	0,0,0,1,2,3,0,0,0	to_board	s611
434.551	1.0	0	PA_with_intermediate	n/a	test	ward_and_allport	n/a	-1.0	40.0	n/a	n/a	feedback	s611
435.551	1.816	0	PA_with_intermediate	n/a	test	ward_and_allport	n/a	-1.0	40.0	n/a	n/a	ITI	s611
437.377	2.109	1	PA_without_intermediate	0,0,0,0,0,0,1,2,0	test	ward_and_allport	3,1,0,2,0,0,0,0,0	82.0	41.0	2.109	0,0,0,0,0,0,1,2,3	to_hand	s611
439.487	0.399	0	PA_without_intermediate	3,0,0,0,0,0,1,2,0	test	ward_and_allport	3,1,0,2,0,0,0,0,0	89.0	41.0	0.399	0,0,0,0,0,0,1,2,3	to_board	s611
439.894	0.745	0	PA_without_intermediate	3,0,0,0,0,0,1,0,0	test	ward_and_allport	3,1,0,2,0,0,0,0,0	82.0	41.0	0.745	0,0,0,0,0,0,1,2,3	to_hand	s611
440.64	0.478	0	PA_without_intermediate	3,0,0,2,0,0,1,0,0	test	ward_and_allport	3,1,0,2,0,0,0,0,0	71.0	41.0	0.478	0,0,0,0,0,0,1,2,3	to_board	s611
441.128	0.645	0	PA_without_intermediate	3,0,0,2,0,0,0,0,0	test	ward_and_allport	3,1,0,2,0,0,0,0,0	82.0	41.0	0.645	0,0,0,0,0,0,1,2,3	to_hand	s611
441.774	0.346	0	PA_without_intermediate	3,1,0,2,0,0,0,0,0	test	ward_and_allport	3,1,0,2,0,0,0,0,0	89.0	41.0	0.346	0,0,0,0,0,0,1,2,3	to_board	s611
442.13	1.0	0	PA_without_intermediate	n/a	test	ward_and_allport	n/a	-1.0	41.0	n/a	n/a	feedback	s611
443.13	2.088	0	PA_without_intermediate	n/a	test	ward_and_allport	n/a	-1.0	41.0	n/a	n/a	ITI	s611
445.226	2.113	1	PA_without_intermediate	1,2,0,0,0,0,0,0,0	test	ward_and_allport	0,0,0,2,0,0,3,1,0	89.0	42.0	2.113	1,2,3,0,0,0,0,0,0	to_hand	s611
447.34	0.56	0	PA_without_intermediate	1,2,0,0,0,0,3,0,0	test	ward_and_allport	0,0,0,2,0,0,3,1,0	82.0	42.0	0.56	1,2,3,0,0,0,0,0,0	to_board	s611
447.913	0.883	0	PA_without_intermediate	1,0,0,0,0,0,3,0,0	test	ward_and_allport	0,0,0,2,0,0,3,1,0	89.0	42.0	0.883	1,2,3,0,0,0,0,0,0	to_hand	s611
448.797	0.466	0	PA_without_intermediate	1,0,0,2,0,0,3,0,0	test	ward_and_allport	0,0,0,2,0,0,3,1,0	71.0	42.0	0.466	1,2,3,0,0,0,0,0,0	to_board	s611
449.277	0.442	0	PA_without_intermediate	0,0,0,2,0,0,3,0,0	test	ward_and_allport	0,0,0,2,0,0,3,1,0	89.0	42.0	0.442	1,2,3,0,0,0,0,0,0	to_hand	s611
449.72	0.633	0	PA_without_intermediate	0,0,0,2,0,0,3,1,0	test	ward_and_allport	0,0,0,2,0,0,3,1,0	82.0	42.0	0.633	1,2,3,0,0,0,0,0,0	to_board	s611
450.368	1.0	0	PA_without_intermediate	n/a	test	ward_and_allport	n/a	-1.0	42.0	n/a	n/a	feedback	s611
451.368	1.136	0	PA_without_intermediate	n/a	test	ward_and_allport	n/a	-1.0	42.0	n/a	n/a	ITI	s611
452.513	1.346	1	PA_without_intermediate	1,2,0,0,0,0,0,0,0	test	ward_and_allport	0,0,0,1,0,0,3,2,0	89.0	43.0	1.346	1,2,3,0,0,0,0,0,0	to_hand	s611
453.86	0.515	0	PA_without_intermediate	1,2,0,0,0,0,3,0,0	test	ward_and_allport	0,0,0,1,0,0,3,2,0	82.0	43.0	0.515	1,2,3,0,0,0,0,0,0	to_board	s611
454.385	0.796	0	PA_without_intermediate	1,0,0,0,0,0,3,0,0	test	ward_and_allport	0,0,0,1,0,0,3,2,0	89.0	43.0	0.796	1,2,3,0,0,0,0,0,0	to_hand	s611
455.183	0.616	0	PA_without_intermediate	1,0,0,0,0,0,3,2,0	test	ward_and_allport	0,0,0,1,0,0,3,2,0	82.0	43.0	0.616	1,2,3,0,0,0,0,0,0	to_board	s611
455.809	0.441	0	PA_without_intermediate	0,0,0,0,0,0,3,2,0	test	ward_and_allport	0,0,0,1,0,0,3,2,0	89.0	43.0	0.441	1,2,3,0,0,0,0,0,0	to_hand	s611
456.252	0.368	0	PA_without_intermediate	0,0,0,1,0,0,3,2,0	test	ward_and_allport	0,0,0,1,0,0,3,2,0	71.0	43.0	0.368	1,2,3,0,0,0,0,0,0	to_board	s611
456.632	1.0	0	PA_without_intermediate	n/a	test	ward_and_allport	n/a	-1.0	43.0	n/a	n/a	feedback	s611
457.632	6.168	0	PA_without_intermediate	n/a	test	ward_and_allport	n/a	-1.0	43.0	n/a	n/a	ITI	s611
463.809	2.336	1	PA_without_intermediate	0,0,0,1,2,0,0,0,0	test	ward_and_allport	3,1,0,0,0,0,2,0,0	71.0	44.0	2.336	0,0,0,1,2,3,0,0,0	to_hand	s611
466.147	0.337	0	PA_without_intermediate	3,0,0,1,2,0,0,0,0	test	ward_and_allport	3,1,0,0,0,0,2,0,0	89.0	44.0	0.337	0,0,0,1,2,3,0,0,0	to_board	s611
466.492	0.348	0	PA_without_intermediate	3,0,0,1,0,0,0,0,0	test	ward_and_allport	3,1,0,0,0,0,2,0,0	71.0	44.0	0.348	0,0,0,1,2,3,0,0,0	to_hand	s611
466.842	0.534	0	PA_without_intermediate	3,0,0,1,0,0,2,0,0	test	ward_and_allport	3,1,0,0,0,0,2,0,0	82.0	44.0	0.534	0,0,0,1,2,3,0,0,0	to_board	s611
467.392	0.285	0	PA_without_intermediate	3,0,0,0,0,0,2,0,0	test	ward_and_allport	3,1,0,0,0,0,2,0,0	71.0	44.0	0.285	0,0,0,1,2,3,0,0,0	to_hand	s611
467.678	0.277	0	PA_without_intermediate	3,1,0,0,0,0,2,0,0	test	ward_and_allport	3,1,0,0,0,0,2,0,0	89.0	44.0	0.277	0,0,0,1,2,3,0,0,0	to_board	s611
467.97	1.0	0	PA_without_intermediate	n/a	test	ward_and_allport	n/a	-1.0	44.0	n/a	n/a	feedback	s611
468.97	1.816	0	PA_without_intermediate	n/a	test	ward_and_allport	n/a	-1.0	44.0	n/a	n/a	ITI	s611
475.804	3.103	1	PA_with_intermediate	0,0,0,1,2,0,0,0,0	test	ward_and_allport	2,3,0,1,0,0,0,0,0	71.0	45.0	3.103	0,0,0,1,2,3,0,0,0	to_hand	s611
478.908	0.478	0	PA_with_intermediate	0,0,0,1,2,0,3,0,0	test	ward_and_allport	2,3,0,1,0,0,0,0,0	82.0	45.0	0.478	0,0,0,1,2,3,0,0,0	to_board	s611
479.399	0.393	0	PA_with_intermediate	0,0,0,1,0,0,3,0,0	test	ward_and_allport	2,3,0,1,0,0,0,0,0	71.0	45.0	0.393	0,0,0,1,2,3,0,0,0	to_hand	s611
479.794	0.332	0	PA_with_intermediate	2,0,0,1,0,0,3,0,0	test	ward_and_allport	2,3,0,1,0,0,0,0,0	89.0	45.0	0.332	0,0,0,1,2,3,0,0,0	to_board	s611
480.141	0.313	0	PA_with_intermediate	2,0,0,1,0,0,0,0,0	test	ward_and_allport	2,3,0,1,0,0,0,0,0	82.0	45.0	0.313	0,0,0,1,2,3,0,0,0	to_hand	s611
480.455	0.248	0	PA_with_intermediate	2,3,0,1,0,0,0,0,0	test	ward_and_allport	2,3,0,1,0,0,0,0,0	89.0	45.0	0.248	0,0,0,1,2,3,0,0,0	to_board	s611
480.721	1.0	0	PA_with_intermediate	n/a	test	ward_and_allport	n/a	-1.0	45.0	n/a	n/a	feedback	s611
481.721	1.952	0	PA_with_intermediate	n/a	test	ward_and_allport	n/a	-1.0	45.0	n/a	n/a	ITI	s611
483.683	2.254	1	PA_with_intermediate	0,0,0,1,2,0,0,0,0	test	ward_and_allport	2,3,0,1,0,0,0,0,0	71.0	46.0	2.254	0,0,0,1,2,3,0,0,0	to_hand	s611
485.939	0.386	0	PA_with_intermediate	0,0,0,1,2,0,3,0,0	test	ward_and_allport	2,3,0,1,0,0,0,0,0	82.0	46.0	0.386	0,0,0,1,2,3,0,0,0	to_board	s611
486.335	0.318	0	PA_with_intermediate	0,0,0,1,0,0,3,0,0	test	ward_and_allport	2,3,0,1,0,0,0,0,0	71.0	46.0	0.318	0,0,0,1,2,3,0,0,0	to_hand	s611
486.654	0.3	0	PA_with_intermediate	2,0,0,1,0,0,3,0,0	test	ward_and_allport	2,3,0,1,0,0,0,0,0	89.0	46.0	0.3	0,0,0,1,2,3,0,0,0	to_board	s611
486.967	0.347	0	PA_with_intermediate	2,0,0,1,0,0,0,0,0	test	ward_and_allport	2,3,0,1,0,0,0,0,0	82.0	46.0	0.347	0,0,0,1,2,3,0,0,0	to_hand	s611
487.316	0.303	0	PA_with_intermediate	2,3,0,1,0,0,0,0,0	test	ward_and_allport	2,3,0,1,0,0,0,0,0	89.0	46.0	0.303	0,0,0,1,2,3,0,0,0	to_board	s611
487.634	1.0	0	PA_with_intermediate	n/a	test	ward_and_allport	n/a	-1.0	46.0	n/a	n/a	feedback	s611
488.634	1.136	0	PA_with_intermediate	n/a	test	ward_and_allport	n/a	-1.0	46.0	n/a	n/a	ITI	s611
489.783	2.213	1	PA_without_intermediate	0,0,0,1,2,0,0,0,0	test	ward_and_allport	3,2,0,0,0,0,1,0,0	71.0	47.0	2.213	0,0,0,1,2,3,0,0,0	to_hand	s611
491.998	0.286	0	PA_without_intermediate	3,0,0,1,2,0,0,0,0	test	ward_and_allport	3,2,0,0,0,0,1,0,0	89.0	47.0	0.286	0,0,0,1,2,3,0,0,0	to_board	s611
492.296	0.35	0	PA_without_intermediate	3,0,0,1,0,0,0,0,0	test	ward_and_allport	3,2,0,0,0,0,1,0,0	71.0	47.0	0.35	0,0,0,1,2,3,0,0,0	to_hand	s611
492.648	0.336	0	PA_without_intermediate	3,2,0,1,0,0,0,0,0	test	ward_and_allport	3,2,0,0,0,0,1,0,0	89.0	47.0	0.336	0,0,0,1,2,3,0,0,0	to_board	s611
492.999	0.346	0	PA_without_intermediate	3,2,0,0,0,0,0,0,0	test	ward_and_allport	3,2,0,0,0,0,1,0,0	71.0	47.0	0.346	0,0,0,1,2,3,0,0,0	to_hand	s611
493.346	0.342	0	PA_without_intermediate	3,2,0,0,0,0,1,0,0	test	ward_and_allport	3,2,0,0,0,0,1,0,0	82.0	47.0	0.342	0,0,0,1,2,3,0,0,0	to_board	s611
493.703	1.0	0	PA_without_intermediate	n/a	test	ward_and_allport	n/a	-1.0	47.0	n/a	n/a	feedback	s611
494.703	1.68	0	PA_without_intermediate	n/a	test	ward_and_allport	n/a	-1.0	47.0	n/a	n/a	ITI	s611
n/a	n/a	0	n/a	n/a	n/a	n/a	n/a	n/a	n/a	n/a	n/a	ITI	n/a
