onset	duration	condition	correct	correct_response	experiment_exp_id	key_press	response_time	trial_id	trial_type	worker_id
3.007	0.5	AX	n/a	n/a	dot_pattern_expectancy	-1.0	n/a	cue	AX	s130
5.511	0.5	AX	1.0	89.0	dot_pattern_expectancy	89.0	0.943	probe	AX	s130
7.693	0.5	AY	n/a	n/a	dot_pattern_expectancy	-1.0	n/a	cue	AY	s130
10.197	0.5	AY	1.0	71.0	dot_pattern_expectancy	71.0	0.923	probe	AY	s130
12.516	0.5	AY	n/a	n/a	dot_pattern_expectancy	-1.0	n/a	cue	AY	s130
15.019	0.5	AY	1.0	71.0	dot_pattern_expectancy	71.0	1.073	probe	AY	s130
16.657	0.5	BX	n/a	n/a	dot_pattern_expectancy	-1.0	n/a	cue	BX	s130
19.161	0.5	BX	1.0	71.0	dot_pattern_expectancy	71.0	0.899	probe	BX	s130
21.072	0.5	AX	n/a	n/a	dot_pattern_expectancy	-1.0	n/a	cue	AX	s130
23.576	0.5	AX	1.0	89.0	dot_pattern_expectancy	89.0	1.059	probe	AX	s130
27.119	0.5	BX	n/a	n/a	dot_pattern_expectancy	-1.0	n/a	cue	BX	s130
29.624	0.5	BX	1.0	71.0	dot_pattern_expectancy	71.0	0.828	probe	BX	s130
31.262	0.5	BY	n/a	n/a	dot_pattern_expectancy	-1.0	n/a	cue	BY	s130
33.766	0.5	BY	1.0	71.0	dot_pattern_expectancy	71.0	0.922	probe	BY	s130
35.268	0.5	AX	n/a	n/a	dot_pattern_expectancy	-1.0	n/a	cue	AX	s130
37.772	0.5	AX	1.0	89.0	dot_pattern_expectancy	89.0	0.848	probe	AX	s130
39.275	0.5	AX	n/a	n/a	dot_pattern_expectancy	-1.0	n/a	cue	AX	s130
41.779	0.5	AX	1.0	89.0	dot_pattern_expectancy	89.0	0.986	probe	AX	s130
43.553	0.5	BY	n/a	n/a	dot_pattern_expectancy	-1.0	n/a	cue	BY	s130
46.058	0.5	BY	1.0	71.0	dot_pattern_expectancy	71.0	0.935	probe	BY	s130
48.512	0.5	AX	n/a	n/a	dot_pattern_expectancy	-1.0	n/a	cue	AX	s130
51.017	0.5	AX	1.0	89.0	dot_pattern_expectancy	89.0	0.891	probe	AX	s130
52.927	0.5	BX	n/a	n/a	dot_pattern_expectancy	-1.0	n/a	cue	BX	s130
55.431	0.5	BX	1.0	71.0	dot_pattern_expectancy	71.0	0.505	probe	BX	s130
57.068	0.5	AX	n/a	n/a	dot_pattern_expectancy	-1.0	n/a	cue	AX	s130
59.572	0.5	AX	1.0	89.0	dot_pattern_expectancy	89.0	1.045	probe	AX	s130
61.074	0.5	AX	n/a	n/a	dot_pattern_expectancy	-1.0	n/a	cue	AX	s130
63.579	0.5	AX	1.0	89.0	dot_pattern_expectancy	89.0	1.123	probe	AX	s130
65.217	0.5	AX	n/a	n/a	dot_pattern_expectancy	-1.0	n/a	cue	AX	s130
67.722	0.5	AX	1.0	89.0	dot_pattern_expectancy	89.0	1.251	probe	AX	s130
69.36	0.5	BY	n/a	n/a	dot_pattern_expectancy	-1.0	n/a	cue	BY	s130
71.864	0.5	BY	1.0	71.0	dot_pattern_expectancy	71.0	1.072	probe	BY	s130
74.318	0.5	AX	n/a	n/a	dot_pattern_expectancy	-1.0	n/a	cue	AX	s130
76.823	0.5	AX	1.0	89.0	dot_pattern_expectancy	89.0	1.147	probe	AX	s130
78.325	0.5	BY	n/a	n/a	dot_pattern_expectancy	-1.0	n/a	cue	BY	s130
80.83	0.5	BY	1.0	71.0	dot_pattern_expectancy	71.0	1.218	probe	BY	s130
82.332	0.5	AX	n/a	n/a	dot_pattern_expectancy	-1.0	n/a	cue	AX	s130
84.835	0.5	AX	1.0	89.0	dot_pattern_expectancy	89.0	0.904	probe	AX	s130
86.472	0.5	AX	n/a	n/a	dot_pattern_expectancy	-1.0	n/a	cue	AX	s130
88.977	0.5	AX	1.0	89.0	dot_pattern_expectancy	89.0	0.873	probe	AX	s130
90.615	0.5	AY	n/a	n/a	dot_pattern_expectancy	-1.0	n/a	cue	AY	s130
93.118	0.5	AY	1.0	71.0	dot_pattern_expectancy	71.0	0.882	probe	AY	s130
94.755	0.5	AX	n/a	n/a	dot_pattern_expectancy	-1.0	n/a	cue	AX	s130
97.259	0.5	AX	1.0	89.0	dot_pattern_expectancy	89.0	0.877	probe	AX	s130
98.761	0.5	AX	n/a	n/a	dot_pattern_expectancy	-1.0	n/a	cue	AX	s130
101.268	0.5	AX	1.0	89.0	dot_pattern_expectancy	89.0	0.992	probe	AX	s130
102.77	0.5	AX	n/a	n/a	dot_pattern_expectancy	-1.0	n/a	cue	AX	s130
105.274	0.5	AX	1.0	89.0	dot_pattern_expectancy	89.0	0.995	probe	AX	s130
107.049	0.5	AX	n/a	n/a	dot_pattern_expectancy	-1.0	n/a	cue	AX	s130
109.553	0.5	AX	1.0	89.0	dot_pattern_expectancy	89.0	1.118	probe	AX	s130
111.735	0.5	BX	n/a	n/a	dot_pattern_expectancy	-1.0	n/a	cue	BX	s130
114.24	0.5	BX	1.0	71.0	dot_pattern_expectancy	71.0	0.981	probe	BX	s130
116.015	0.5	BY	n/a	n/a	dot_pattern_expectancy	-1.0	n/a	cue	BY	s130
118.519	0.5	BY	1.0	71.0	dot_pattern_expectancy	71.0	0.776	probe	BY	s130
120.021	0.5	AX	n/a	n/a	dot_pattern_expectancy	-1.0	n/a	cue	AX	s130
122.525	0.5	AX	1.0	89.0	dot_pattern_expectancy	89.0	0.854	probe	AX	s130
124.026	0.5	AX	n/a	n/a	dot_pattern_expectancy	-1.0	n/a	cue	AX	s130
126.53	0.5	AX	1.0	89.0	dot_pattern_expectancy	89.0	0.829	probe	AX	s130
128.169	0.5	AY	n/a	n/a	dot_pattern_expectancy	-1.0	n/a	cue	AY	s130
130.672	0.5	AY	1.0	71.0	dot_pattern_expectancy	71.0	0.996	probe	AY	s130
132.853	0.5	AY	n/a	n/a	dot_pattern_expectancy	-1.0	n/a	cue	AY	s130
135.357	0.5	AY	1.0	71.0	dot_pattern_expectancy	71.0	0.936	probe	AY	s130
137.675	0.5	BX	n/a	n/a	dot_pattern_expectancy	-1.0	n/a	cue	BX	s130
140.179	0.5	BX	1.0	71.0	dot_pattern_expectancy	71.0	0.92	probe	BX	s130
141.818	0.5	BX	n/a	n/a	dot_pattern_expectancy	-1.0	n/a	cue	BX	s130
144.321	0.5	BX	1.0	71.0	dot_pattern_expectancy	71.0	0.891	probe	BX	s130
146.502	0.5	AY	n/a	n/a	dot_pattern_expectancy	-1.0	n/a	cue	AY	s130
149.006	0.5	AY	1.0	71.0	dot_pattern_expectancy	71.0	0.863	probe	AY	s130
151.052	0.5	AX	n/a	n/a	dot_pattern_expectancy	-1.0	n/a	cue	AX	s130
153.556	0.5	AX	1.0	89.0	dot_pattern_expectancy	89.0	0.796	probe	AX	s130
155.329	0.5	AX	n/a	n/a	dot_pattern_expectancy	-1.0	n/a	cue	AX	s130
157.833	0.5	AX	1.0	89.0	dot_pattern_expectancy	89.0	0.925	probe	AX	s130
159.335	0.5	AX	n/a	n/a	dot_pattern_expectancy	-1.0	n/a	cue	AX	s130
161.839	0.5	AX	1.0	89.0	dot_pattern_expectancy	89.0	0.579	probe	AX	s130
164.021	0.5	AY	n/a	n/a	dot_pattern_expectancy	-1.0	n/a	cue	AY	s130
166.524	0.5	AY	1.0	71.0	dot_pattern_expectancy	71.0	0.874	probe	AY	s130
168.978	0.5	AX	n/a	n/a	dot_pattern_expectancy	-1.0	n/a	cue	AX	s130
171.482	0.5	AX	1.0	89.0	dot_pattern_expectancy	89.0	0.791	probe	AX	s130
173.121	0.5	AX	n/a	n/a	dot_pattern_expectancy	-1.0	n/a	cue	AX	s130
175.623	0.5	AX	1.0	89.0	dot_pattern_expectancy	89.0	1.26	probe	AX	s130
188.04	0.5	AX	n/a	n/a	dot_pattern_expectancy	-1.0	n/a	cue	AX	s130
190.543	0.5	AX	1.0	89.0	dot_pattern_expectancy	89.0	0.969	probe	AX	s130
192.318	0.5	AX	n/a	n/a	dot_pattern_expectancy	-1.0	n/a	cue	AX	s130
194.822	0.5	AX	1.0	89.0	dot_pattern_expectancy	89.0	0.863	probe	AX	s130
196.323	0.5	AY	n/a	n/a	dot_pattern_expectancy	-1.0	n/a	cue	AY	s130
198.828	0.5	AY	1.0	71.0	dot_pattern_expectancy	71.0	1.0	probe	AY	s130
201.282	0.5	AY	n/a	n/a	dot_pattern_expectancy	-1.0	n/a	cue	AY	s130
203.786	0.5	AY	1.0	71.0	dot_pattern_expectancy	71.0	0.911	probe	AY	s130
205.56	0.5	AX	n/a	n/a	dot_pattern_expectancy	-1.0	n/a	cue	AX	s130
208.065	0.5	AX	1.0	89.0	dot_pattern_expectancy	89.0	1.096	probe	AX	s130
209.975	0.5	AX	n/a	n/a	dot_pattern_expectancy	-1.0	n/a	cue	AX	s130
212.479	0.5	AX	1.0	89.0	dot_pattern_expectancy	89.0	1.115	probe	AX	s130
214.388	0.5	AX	n/a	n/a	dot_pattern_expectancy	-1.0	n/a	cue	AX	s130
216.892	0.5	AX	1.0	89.0	dot_pattern_expectancy	89.0	1.202	probe	AX	s130
219.482	0.5	AY	n/a	n/a	dot_pattern_expectancy	-1.0	n/a	cue	AY	s130
221.986	0.5	AY	0.0	71.0	dot_pattern_expectancy	89.0	0.618	probe	AY	s130
223.487	0.5	BY	n/a	n/a	dot_pattern_expectancy	-1.0	n/a	cue	BY	s130
225.992	0.5	BY	1.0	71.0	dot_pattern_expectancy	71.0	0.879	probe	BY	s130
227.493	0.5	BY	n/a	n/a	dot_pattern_expectancy	-1.0	n/a	cue	BY	s130
229.997	0.5	BY	1.0	71.0	dot_pattern_expectancy	71.0	0.882	probe	BY	s130
231.498	0.5	AX	n/a	n/a	dot_pattern_expectancy	-1.0	n/a	cue	AX	s130
234.003	0.5	AX	1.0	89.0	dot_pattern_expectancy	89.0	0.889	probe	AX	s130
235.641	0.5	BX	n/a	n/a	dot_pattern_expectancy	-1.0	n/a	cue	BX	s130
238.145	0.5	BX	1.0	71.0	dot_pattern_expectancy	71.0	0.865	probe	BX	s130
240.192	0.5	AX	n/a	n/a	dot_pattern_expectancy	-1.0	n/a	cue	AX	s130
242.696	0.5	AX	1.0	89.0	dot_pattern_expectancy	89.0	0.863	probe	AX	s130
244.47	0.5	BX	n/a	n/a	dot_pattern_expectancy	-1.0	n/a	cue	BX	s130
246.974	0.5	BX	1.0	71.0	dot_pattern_expectancy	71.0	0.822	probe	BX	s130
249.564	0.5	AY	n/a	n/a	dot_pattern_expectancy	-1.0	n/a	cue	AY	s130
252.069	0.5	AY	1.0	71.0	dot_pattern_expectancy	71.0	0.923	probe	AY	s130
253.571	0.5	AX	n/a	n/a	dot_pattern_expectancy	-1.0	n/a	cue	AX	s130
256.075	0.5	AX	1.0	89.0	dot_pattern_expectancy	89.0	0.86	probe	AX	s130
258.529	0.5	BY	n/a	n/a	dot_pattern_expectancy	-1.0	n/a	cue	BY	s130
261.034	0.5	BY	1.0	71.0	dot_pattern_expectancy	71.0	0.848	probe	BY	s130
262.672	0.5	AX	n/a	n/a	dot_pattern_expectancy	-1.0	n/a	cue	AX	s130
265.175	0.5	AX	1.0	89.0	dot_pattern_expectancy	89.0	0.926	probe	AX	s130
266.812	0.5	AX	n/a	n/a	dot_pattern_expectancy	-1.0	n/a	cue	AX	s130
269.316	0.5	AX	1.0	89.0	dot_pattern_expectancy	89.0	0.862	probe	AX	s130
270.818	0.5	BY	n/a	n/a	dot_pattern_expectancy	-1.0	n/a	cue	BY	s130
273.322	0.5	BY	1.0	71.0	dot_pattern_expectancy	71.0	0.97	probe	BY	s130
274.96	0.5	AX	n/a	n/a	dot_pattern_expectancy	-1.0	n/a	cue	AX	s130
277.464	0.5	AX	1.0	89.0	dot_pattern_expectancy	89.0	0.9	probe	AX	s130
278.967	0.5	AY	n/a	n/a	dot_pattern_expectancy	-1.0	n/a	cue	AY	s130
281.471	0.5	AY	1.0	71.0	dot_pattern_expectancy	71.0	0.718	probe	AY	s130
283.654	0.5	AX	n/a	n/a	dot_pattern_expectancy	-1.0	n/a	cue	AX	s130
286.158	0.5	AX	1.0	89.0	dot_pattern_expectancy	89.0	0.686	probe	AX	s130
287.661	0.5	AX	n/a	n/a	dot_pattern_expectancy	-1.0	n/a	cue	AX	s130
290.165	0.5	AX	1.0	89.0	dot_pattern_expectancy	89.0	1.054	probe	AX	s130
292.074	0.5	BY	n/a	n/a	dot_pattern_expectancy	-1.0	n/a	cue	BY	s130
294.579	0.5	BY	1.0	71.0	dot_pattern_expectancy	71.0	0.9	probe	BY	s130
296.216	0.5	BY	n/a	n/a	dot_pattern_expectancy	-1.0	n/a	cue	BY	s130
298.721	0.5	BY	1.0	71.0	dot_pattern_expectancy	71.0	0.904	probe	BY	s130
300.359	0.5	AX	n/a	n/a	dot_pattern_expectancy	-1.0	n/a	cue	AX	s130
302.862	0.5	AX	1.0	89.0	dot_pattern_expectancy	89.0	0.851	probe	AX	s130
304.5	0.5	AX	n/a	n/a	dot_pattern_expectancy	-1.0	n/a	cue	AX	s130
307.004	0.5	AX	1.0	89.0	dot_pattern_expectancy	89.0	0.935	probe	AX	s130
308.505	0.5	BY	n/a	n/a	dot_pattern_expectancy	-1.0	n/a	cue	BY	s130
311.009	0.5	BY	1.0	71.0	dot_pattern_expectancy	71.0	0.849	probe	BY	s130
313.055	0.5	AY	n/a	n/a	dot_pattern_expectancy	-1.0	n/a	cue	AY	s130
315.558	0.5	AY	1.0	71.0	dot_pattern_expectancy	71.0	1.018	probe	AY	s130
317.74	0.5	AY	n/a	n/a	dot_pattern_expectancy	-1.0	n/a	cue	AY	s130
320.244	0.5	AY	1.0	71.0	dot_pattern_expectancy	71.0	1.064	probe	AY	s130
321.882	0.5	AY	n/a	n/a	dot_pattern_expectancy	-1.0	n/a	cue	AY	s130
324.386	0.5	AY	1.0	71.0	dot_pattern_expectancy	71.0	0.95	probe	AY	s130
326.159	0.5	BY	n/a	n/a	dot_pattern_expectancy	-1.0	n/a	cue	BY	s130
328.663	0.5	BY	1.0	71.0	dot_pattern_expectancy	71.0	0.967	probe	BY	s130
330.165	0.5	BX	n/a	n/a	dot_pattern_expectancy	-1.0	n/a	cue	BX	s130
332.669	0.5	BX	1.0	71.0	dot_pattern_expectancy	71.0	0.94	probe	BX	s130
334.579	0.5	AX	n/a	n/a	dot_pattern_expectancy	-1.0	n/a	cue	AX	s130
337.083	0.5	AX	1.0	89.0	dot_pattern_expectancy	89.0	1.064	probe	AX	s130
339.13	0.5	AX	n/a	n/a	dot_pattern_expectancy	-1.0	n/a	cue	AX	s130
341.635	0.5	AX	0.0	89.0	dot_pattern_expectancy	-1.0	n/a	probe	AX	s130
343.273	0.5	AX	n/a	n/a	dot_pattern_expectancy	-1.0	n/a	cue	AX	s130
345.777	0.5	AX	1.0	89.0	dot_pattern_expectancy	89.0	1.11	probe	AX	s130
347.552	0.5	AX	n/a	n/a	dot_pattern_expectancy	-1.0	n/a	cue	AX	s130
350.056	0.5	AX	1.0	89.0	dot_pattern_expectancy	89.0	0.847	probe	AX	s130
351.695	0.5	BX	n/a	n/a	dot_pattern_expectancy	-1.0	n/a	cue	BX	s130
354.199	0.5	BX	1.0	71.0	dot_pattern_expectancy	71.0	0.915	probe	BX	s130
355.972	0.5	AX	n/a	n/a	dot_pattern_expectancy	-1.0	n/a	cue	AX	s130
358.477	0.5	AX	1.0	89.0	dot_pattern_expectancy	89.0	0.924	probe	AX	s130
370.486	0.5	BY	n/a	n/a	dot_pattern_expectancy	-1.0	n/a	cue	BY	s130
372.988	0.5	BY	1.0	71.0	dot_pattern_expectancy	71.0	0.385	probe	BY	s130
374.626	0.5	AY	n/a	n/a	dot_pattern_expectancy	-1.0	n/a	cue	AY	s130
377.13	0.5	AY	1.0	71.0	dot_pattern_expectancy	71.0	0.971	probe	AY	s130
378.632	0.5	AX	n/a	n/a	dot_pattern_expectancy	-1.0	n/a	cue	AX	s130
381.136	0.5	AX	1.0	89.0	dot_pattern_expectancy	89.0	1.267	probe	AX	s130
383.181	0.5	BY	n/a	n/a	dot_pattern_expectancy	-1.0	n/a	cue	BY	s130
385.685	0.5	BY	1.0	71.0	dot_pattern_expectancy	71.0	0.947	probe	BY	s130
387.459	0.5	BX	n/a	n/a	dot_pattern_expectancy	-1.0	n/a	cue	BX	s130
389.963	0.5	BX	1.0	71.0	dot_pattern_expectancy	71.0	0.855	probe	BX	s130
391.601	0.5	AX	n/a	n/a	dot_pattern_expectancy	-1.0	n/a	cue	AX	s130
394.104	0.5	AX	1.0	89.0	dot_pattern_expectancy	89.0	0.722	probe	AX	s130
395.742	0.5	AX	n/a	n/a	dot_pattern_expectancy	-1.0	n/a	cue	AX	s130
398.246	0.5	AX	1.0	89.0	dot_pattern_expectancy	89.0	1.286	probe	AX	s130
399.747	0.5	AX	n/a	n/a	dot_pattern_expectancy	-1.0	n/a	cue	AX	s130
402.251	0.5	AX	1.0	89.0	dot_pattern_expectancy	89.0	0.912	probe	AX	s130
403.753	0.5	AY	n/a	n/a	dot_pattern_expectancy	-1.0	n/a	cue	AY	s130
406.256	0.5	AY	1.0	71.0	dot_pattern_expectancy	71.0	1.309	probe	AY	s130
408.302	0.5	AX	n/a	n/a	dot_pattern_expectancy	-1.0	n/a	cue	AX	s130
410.806	0.5	AX	1.0	89.0	dot_pattern_expectancy	89.0	0.899	probe	AX	s130
413.261	0.5	AX	n/a	n/a	dot_pattern_expectancy	-1.0	n/a	cue	AX	s130
415.764	0.5	AX	1.0	89.0	dot_pattern_expectancy	89.0	1.262	probe	AX	s130
417.675	0.5	AX	n/a	n/a	dot_pattern_expectancy	-1.0	n/a	cue	AX	s130
420.18	0.5	AX	0.0	89.0	dot_pattern_expectancy	-1.0	n/a	probe	AX	s130
421.683	0.5	AX	n/a	n/a	dot_pattern_expectancy	-1.0	n/a	cue	AX	s130
424.186	0.5	AX	1.0	89.0	dot_pattern_expectancy	89.0	1.174	probe	AX	s130
426.095	0.5	BX	n/a	n/a	dot_pattern_expectancy	-1.0	n/a	cue	BX	s130
428.599	0.5	BX	1.0	71.0	dot_pattern_expectancy	71.0	0.954	probe	BX	s130
430.782	0.5	AX	n/a	n/a	dot_pattern_expectancy	-1.0	n/a	cue	AX	s130
433.286	0.5	AX	1.0	89.0	dot_pattern_expectancy	89.0	0.682	probe	AX	s130
434.788	0.5	BY	n/a	n/a	dot_pattern_expectancy	-1.0	n/a	cue	BY	s130
437.293	0.5	BY	1.0	71.0	dot_pattern_expectancy	71.0	0.474	probe	BY	s130
439.203	0.5	BX	n/a	n/a	dot_pattern_expectancy	-1.0	n/a	cue	BX	s130
441.707	0.5	BX	1.0	71.0	dot_pattern_expectancy	71.0	0.455	probe	BX	s130
444.026	0.5	AY	n/a	n/a	dot_pattern_expectancy	-1.0	n/a	cue	AY	s130
446.53	0.5	AY	1.0	71.0	dot_pattern_expectancy	71.0	0.975	probe	AY	s130
448.848	0.5	BX	n/a	n/a	dot_pattern_expectancy	-1.0	n/a	cue	BX	s130
451.353	0.5	BX	1.0	71.0	dot_pattern_expectancy	71.0	0.863	probe	BX	s130
452.991	0.5	AY	n/a	n/a	dot_pattern_expectancy	-1.0	n/a	cue	AY	s130
455.495	0.5	AY	1.0	71.0	dot_pattern_expectancy	71.0	0.979	probe	AY	s130
456.998	0.5	BY	n/a	n/a	dot_pattern_expectancy	-1.0	n/a	cue	BY	s130
459.501	0.5	BY	1.0	71.0	dot_pattern_expectancy	71.0	0.759	probe	BY	s130
461.412	0.5	AX	n/a	n/a	dot_pattern_expectancy	-1.0	n/a	cue	AX	s130
463.916	0.5	AX	1.0	89.0	dot_pattern_expectancy	89.0	1.11	probe	AX	s130
465.419	0.5	AY	n/a	n/a	dot_pattern_expectancy	-1.0	n/a	cue	AY	s130
467.922	0.5	AY	1.0	71.0	dot_pattern_expectancy	71.0	1.239	probe	AY	s130
470.241	0.5	AX	n/a	n/a	dot_pattern_expectancy	-1.0	n/a	cue	AX	s130
472.745	0.5	AX	1.0	89.0	dot_pattern_expectancy	89.0	1.089	probe	AX	s130
474.247	0.5	AY	n/a	n/a	dot_pattern_expectancy	-1.0	n/a	cue	AY	s130
476.751	0.5	AY	1.0	71.0	dot_pattern_expectancy	71.0	1.348	probe	AY	s130
479.478	0.5	AX	n/a	n/a	dot_pattern_expectancy	-1.0	n/a	cue	AX	s130
481.982	0.5	AX	1.0	89.0	dot_pattern_expectancy	89.0	1.081	probe	AX	s130
483.484	0.5	AX	n/a	n/a	dot_pattern_expectancy	-1.0	n/a	cue	AX	s130
485.989	0.5	AX	1.0	89.0	dot_pattern_expectancy	89.0	0.937	probe	AX	s130
487.627	0.5	AX	n/a	n/a	dot_pattern_expectancy	-1.0	n/a	cue	AX	s130
490.131	0.5	AX	1.0	89.0	dot_pattern_expectancy	89.0	0.896	probe	AX	s130
491.77	0.5	AX	n/a	n/a	dot_pattern_expectancy	-1.0	n/a	cue	AX	s130
494.276	0.5	AX	1.0	89.0	dot_pattern_expectancy	89.0	1.012	probe	AX	s130
496.051	0.5	BY	n/a	n/a	dot_pattern_expectancy	-1.0	n/a	cue	BY	s130
498.555	0.5	BY	1.0	71.0	dot_pattern_expectancy	71.0	0.682	probe	BY	s130
500.328	0.5	AX	n/a	n/a	dot_pattern_expectancy	-1.0	n/a	cue	AX	s130
502.833	0.5	AX	1.0	89.0	dot_pattern_expectancy	89.0	0.892	probe	AX	s130
504.334	0.5	BY	n/a	n/a	dot_pattern_expectancy	-1.0	n/a	cue	BY	s130
506.839	0.5	BY	1.0	71.0	dot_pattern_expectancy	71.0	0.946	probe	BY	s130
509.293	0.5	AX	n/a	n/a	dot_pattern_expectancy	-1.0	n/a	cue	AX	s130
511.796	0.5	AX	1.0	89.0	dot_pattern_expectancy	89.0	0.995	probe	AX	s130
513.433	0.5	AX	n/a	n/a	dot_pattern_expectancy	-1.0	n/a	cue	AX	s130
515.937	0.5	AX	1.0	89.0	dot_pattern_expectancy	89.0	1.378	probe	AX	s130
517.575	0.5	BX	n/a	n/a	dot_pattern_expectancy	-1.0	n/a	cue	BX	s130
520.079	0.5	BX	1.0	71.0	dot_pattern_expectancy	71.0	1.046	probe	BX	s130
521.582	0.5	BX	n/a	n/a	dot_pattern_expectancy	-1.0	n/a	cue	BX	s130
524.087	0.5	BX	1.0	71.0	dot_pattern_expectancy	71.0	1.044	probe	BX	s130
525.588	0.5	AX	n/a	n/a	dot_pattern_expectancy	-1.0	n/a	cue	AX	s130
528.092	0.5	AX	1.0	89.0	dot_pattern_expectancy	89.0	1.224	probe	AX	s130
530.41	0.5	AY	n/a	n/a	dot_pattern_expectancy	-1.0	n/a	cue	AY	s130
532.913	0.5	AY	1.0	71.0	dot_pattern_expectancy	71.0	1.096	probe	AY	s130
534.96	0.5	AX	n/a	n/a	dot_pattern_expectancy	-1.0	n/a	cue	AX	s130
537.464	0.5	AX	1.0	89.0	dot_pattern_expectancy	89.0	0.879	probe	AX	s130
541.413	0.5	AX	n/a	n/a	dot_pattern_expectancy	-1.0	n/a	cue	AX	s130
543.918	0.5	AX	1.0	89.0	dot_pattern_expectancy	89.0	0.885	probe	AX	s130
556.063	0.5	AY	n/a	n/a	dot_pattern_expectancy	-1.0	n/a	cue	AY	s130
558.566	0.5	AY	1.0	71.0	dot_pattern_expectancy	71.0	1.355	probe	AY	s130
560.204	0.5	AX	n/a	n/a	dot_pattern_expectancy	-1.0	n/a	cue	AX	s130
562.708	0.5	AX	1.0	89.0	dot_pattern_expectancy	89.0	0.906	probe	AX	s130
564.347	0.5	AX	n/a	n/a	dot_pattern_expectancy	-1.0	n/a	cue	AX	s130
566.85	0.5	AX	1.0	89.0	dot_pattern_expectancy	89.0	1.159	probe	AX	s130
568.352	0.5	AX	n/a	n/a	dot_pattern_expectancy	-1.0	n/a	cue	AX	s130
570.856	0.5	AX	1.0	89.0	dot_pattern_expectancy	89.0	0.888	probe	AX	s130
572.358	0.5	AX	n/a	n/a	dot_pattern_expectancy	-1.0	n/a	cue	AX	s130
574.863	0.5	AX	1.0	89.0	dot_pattern_expectancy	89.0	1.087	probe	AX	s130
576.773	0.5	BX	n/a	n/a	dot_pattern_expectancy	-1.0	n/a	cue	BX	s130
579.277	0.5	BX	1.0	71.0	dot_pattern_expectancy	71.0	1.073	probe	BX	s130
580.914	0.5	AX	n/a	n/a	dot_pattern_expectancy	-1.0	n/a	cue	AX	s130
583.418	0.5	AX	1.0	89.0	dot_pattern_expectancy	89.0	1.136	probe	AX	s130
585.464	0.5	AX	n/a	n/a	dot_pattern_expectancy	-1.0	n/a	cue	AX	s130
587.968	0.5	AX	1.0	89.0	dot_pattern_expectancy	89.0	1.118	probe	AX	s130
589.741	0.5	AX	n/a	n/a	dot_pattern_expectancy	-1.0	n/a	cue	AX	s130
592.245	0.5	AX	1.0	89.0	dot_pattern_expectancy	89.0	0.88	probe	AX	s130
593.747	0.5	AX	n/a	n/a	dot_pattern_expectancy	-1.0	n/a	cue	AX	s130
596.25	0.5	AX	1.0	89.0	dot_pattern_expectancy	89.0	1.2	probe	AX	s130
598.432	0.5	AX	n/a	n/a	dot_pattern_expectancy	-1.0	n/a	cue	AX	s130
600.937	0.5	AX	1.0	89.0	dot_pattern_expectancy	89.0	0.814	probe	AX	s130
602.439	0.5	BX	n/a	n/a	dot_pattern_expectancy	-1.0	n/a	cue	BX	s130
604.943	0.5	BX	1.0	71.0	dot_pattern_expectancy	71.0	0.531	probe	BX	s130
608.621	0.5	BY	n/a	n/a	dot_pattern_expectancy	-1.0	n/a	cue	BY	s130
611.126	0.5	BY	1.0	71.0	dot_pattern_expectancy	71.0	0.927	probe	BY	s130
612.764	0.5	BY	n/a	n/a	dot_pattern_expectancy	-1.0	n/a	cue	BY	s130
615.268	0.5	BY	1.0	71.0	dot_pattern_expectancy	71.0	1.044	probe	BY	s130
616.905	0.5	BX	n/a	n/a	dot_pattern_expectancy	-1.0	n/a	cue	BX	s130
619.409	0.5	BX	1.0	71.0	dot_pattern_expectancy	71.0	0.989	probe	BX	s130
620.911	0.5	AX	n/a	n/a	dot_pattern_expectancy	-1.0	n/a	cue	AX	s130
623.415	0.5	AX	1.0	89.0	dot_pattern_expectancy	89.0	1.0	probe	AX	s130
625.325	0.5	AX	n/a	n/a	dot_pattern_expectancy	-1.0	n/a	cue	AX	s130
627.828	0.5	AX	1.0	89.0	dot_pattern_expectancy	89.0	0.863	probe	AX	s130
629.466	0.5	BX	n/a	n/a	dot_pattern_expectancy	-1.0	n/a	cue	BX	s130
631.97	0.5	BX	1.0	71.0	dot_pattern_expectancy	71.0	1.264	probe	BX	s130
633.471	0.5	AX	n/a	n/a	dot_pattern_expectancy	-1.0	n/a	cue	AX	s130
635.976	0.5	AX	1.0	89.0	dot_pattern_expectancy	89.0	0.926	probe	AX	s130
637.887	0.5	BY	n/a	n/a	dot_pattern_expectancy	-1.0	n/a	cue	BY	s130
640.389	0.5	BY	1.0	71.0	dot_pattern_expectancy	71.0	0.846	probe	BY	s130
642.571	0.5	AX	n/a	n/a	dot_pattern_expectancy	-1.0	n/a	cue	AX	s130
645.075	0.5	AX	1.0	89.0	dot_pattern_expectancy	89.0	0.831	probe	AX	s130
646.848	0.5	AX	n/a	n/a	dot_pattern_expectancy	-1.0	n/a	cue	AX	s130
649.352	0.5	AX	1.0	89.0	dot_pattern_expectancy	89.0	0.735	probe	AX	s130
650.854	0.5	AX	n/a	n/a	dot_pattern_expectancy	-1.0	n/a	cue	AX	s130
653.358	0.5	AX	1.0	89.0	dot_pattern_expectancy	89.0	0.66	probe	AX	s130
654.859	0.5	AX	n/a	n/a	dot_pattern_expectancy	-1.0	n/a	cue	AX	s130
657.363	0.5	AX	1.0	89.0	dot_pattern_expectancy	89.0	0.869	probe	AX	s130
659.409	0.5	AX	n/a	n/a	dot_pattern_expectancy	-1.0	n/a	cue	AX	s130
661.913	0.5	AX	1.0	89.0	dot_pattern_expectancy	89.0	0.92	probe	AX	s130
664.774	0.5	BX	n/a	n/a	dot_pattern_expectancy	-1.0	n/a	cue	BX	s130
667.278	0.5	BX	1.0	71.0	dot_pattern_expectancy	71.0	0.428	probe	BX	s130
668.78	0.5	BY	n/a	n/a	dot_pattern_expectancy	-1.0	n/a	cue	BY	s130
671.284	0.5	BY	1.0	71.0	dot_pattern_expectancy	71.0	0.648	probe	BY	s130
673.057	0.5	AX	n/a	n/a	dot_pattern_expectancy	-1.0	n/a	cue	AX	s130
675.562	0.5	AX	1.0	89.0	dot_pattern_expectancy	89.0	0.873	probe	AX	s130
677.335	0.5	AX	n/a	n/a	dot_pattern_expectancy	-1.0	n/a	cue	AX	s130
679.839	0.5	AX	1.0	89.0	dot_pattern_expectancy	89.0	0.844	probe	AX	s130
682.701	0.5	AX	n/a	n/a	dot_pattern_expectancy	-1.0	n/a	cue	AX	s130
685.205	0.5	AX	1.0	89.0	dot_pattern_expectancy	89.0	0.702	probe	AX	s130
686.978	0.5	BX	n/a	n/a	dot_pattern_expectancy	-1.0	n/a	cue	BX	s130
689.482	0.5	BX	1.0	71.0	dot_pattern_expectancy	71.0	1.357	probe	BX	s130
691.121	0.5	BX	n/a	n/a	dot_pattern_expectancy	-1.0	n/a	cue	BX	s130
693.624	0.5	BX	1.0	71.0	dot_pattern_expectancy	71.0	0.75	probe	BX	s130
696.079	0.5	AX	n/a	n/a	dot_pattern_expectancy	-1.0	n/a	cue	AX	s130
698.583	0.5	AX	1.0	89.0	dot_pattern_expectancy	89.0	0.976	probe	AX	s130
700.222	0.5	BX	n/a	n/a	dot_pattern_expectancy	-1.0	n/a	cue	BX	s130
702.725	0.5	BX	1.0	71.0	dot_pattern_expectancy	71.0	0.957	probe	BX	s130
704.227	0.5	AX	n/a	n/a	dot_pattern_expectancy	-1.0	n/a	cue	AX	s130
706.731	0.5	AX	1.0	89.0	dot_pattern_expectancy	89.0	0.949	probe	AX	s130
708.369	0.5	AX	n/a	n/a	dot_pattern_expectancy	-1.0	n/a	cue	AX	s130
710.873	0.5	AX	1.0	89.0	dot_pattern_expectancy	89.0	0.95	probe	AX	s130
712.51	0.5	BY	n/a	n/a	dot_pattern_expectancy	-1.0	n/a	cue	BY	s130
715.014	0.5	BY	1.0	71.0	dot_pattern_expectancy	71.0	0.917	probe	BY	s130
717.197	0.5	AX	n/a	n/a	dot_pattern_expectancy	-1.0	n/a	cue	AX	s130
719.701	0.5	AX	1.0	89.0	dot_pattern_expectancy	89.0	0.848	probe	AX	s130
721.203	0.5	AY	n/a	n/a	dot_pattern_expectancy	-1.0	n/a	cue	AY	s130
723.707	0.5	AY	0.0	71.0	dot_pattern_expectancy	89.0	0.623	probe	AY	s130
725.345	0.5	AX	n/a	n/a	dot_pattern_expectancy	-1.0	n/a	cue	AX	s130
727.85	0.5	AX	1.0	89.0	dot_pattern_expectancy	89.0	0.877	probe	AX	s130
