onset	duration	correct	correct_response	cue	experiment_exp_id	flanker_location	flanker_middle_direction	flanker_type	key_press	response_time	trial_id	worker_id
3.019	0.1	n/a	n/a	spatial	attention_network_task	n/a	n/a	n/a	-1	n/a	spatialcue	s643
3.526048	1.7	1.0	89.0	n/a	attention_network_task	down	left	incongruent	89	0.717	stim	s643
5.631	0.1	n/a	n/a	double	attention_network_task	n/a	n/a	n/a	-1	n/a	doublecue	s643
6.141864	1.7	0.0	89.0	n/a	attention_network_task	up	left	incongruent	71	0.565	stim	s643
8.247	0.1	n/a	n/a	double	attention_network_task	n/a	n/a	n/a	-1	n/a	doublecue	s643
8.755728	1.7	1.0	89.0	n/a	attention_network_task	down	left	incongruent	89	0.577	stim	s643
10.861	0.1	n/a	n/a	double	attention_network_task	n/a	n/a	n/a	-1	n/a	doublecue	s643
11.372727999999999	1.7	1.0	89.0	n/a	attention_network_task	down	left	incongruent	89	0.671	stim	s643
13.479	0.1	n/a	n/a	double	attention_network_task	n/a	n/a	n/a	-1	n/a	doublecue	s643
13.991	1.7	1.0	71.0	n/a	attention_network_task	up	right	congruent	71	0.587	stim	s643
16.096	0.1	n/a	n/a	spatial	attention_network_task	n/a	n/a	n/a	-1	n/a	spatialcue	s643
16.608	1.7	1.0	71.0	n/a	attention_network_task	up	right	incongruent	71	0.565	stim	s643
18.714	0.1	n/a	n/a	spatial	attention_network_task	n/a	n/a	n/a	-1	n/a	spatialcue	s643
19.226727999999998	1.7	1.0	71.0	n/a	attention_network_task	up	right	congruent	71	0.546	stim	s643
21.332	0.1	n/a	n/a	spatial	attention_network_task	n/a	n/a	n/a	-1	n/a	spatialcue	s643
21.845	1.7	1.0	89.0	n/a	attention_network_task	down	left	congruent	89	0.699	stim	s643
23.95	0.1	n/a	n/a	spatial	attention_network_task	n/a	n/a	n/a	-1	n/a	spatialcue	s643
24.462	1.7	1.0	71.0	n/a	attention_network_task	up	right	incongruent	71	0.763	stim	s643
26.568	0.1	n/a	n/a	double	attention_network_task	n/a	n/a	n/a	-1	n/a	doublecue	s643
27.078727999999998	1.7	1.0	89.0	n/a	attention_network_task	up	left	congruent	89	0.55	stim	s643
29.185	0.1	n/a	n/a	spatial	attention_network_task	n/a	n/a	n/a	-1	n/a	spatialcue	s643
29.698	1.7	1.0	89.0	n/a	attention_network_task	up	left	incongruent	89	0.585	stim	s643
31.803	0.1	n/a	n/a	spatial	attention_network_task	n/a	n/a	n/a	-1	n/a	spatialcue	s643
32.314864	1.7	1.0	71.0	n/a	attention_network_task	up	right	congruent	71	0.566	stim	s643
34.421	0.1	n/a	n/a	spatial	attention_network_task	n/a	n/a	n/a	-1	n/a	spatialcue	s643
34.932728000000004	1.7	1.0	89.0	n/a	attention_network_task	up	left	congruent	89	0.654	stim	s643
37.039	0.1	n/a	n/a	spatial	attention_network_task	n/a	n/a	n/a	-1	n/a	spatialcue	s643
37.55	1.7	1.0	89.0	n/a	attention_network_task	up	left	congruent	89	0.555	stim	s643
39.656	0.1	n/a	n/a	double	attention_network_task	n/a	n/a	n/a	-1	n/a	doublecue	s643
40.167	1.7	1.0	89.0	n/a	attention_network_task	up	left	incongruent	89	0.512	stim	s643
42.274	0.1	n/a	n/a	double	attention_network_task	n/a	n/a	n/a	-1	n/a	doublecue	s643
42.782	1.7	1.0	89.0	n/a	attention_network_task	up	left	congruent	89	0.491	stim	s643
44.886	0.1	n/a	n/a	spatial	attention_network_task	n/a	n/a	n/a	-1	n/a	spatialcue	s643
45.399	1.7	1.0	89.0	n/a	attention_network_task	up	left	incongruent	89	0.81	stim	s643
47.501	0.1	n/a	n/a	double	attention_network_task	n/a	n/a	n/a	-1	n/a	doublecue	s643
48.011	1.7	1.0	71.0	n/a	attention_network_task	up	right	congruent	71	0.518	stim	s643
50.116	0.1	n/a	n/a	spatial	attention_network_task	n/a	n/a	n/a	-1	n/a	spatialcue	s643
50.629	1.7	1.0	71.0	n/a	attention_network_task	down	right	incongruent	71	0.686	stim	s643
52.733	0.1	n/a	n/a	double	attention_network_task	n/a	n/a	n/a	-1	n/a	doublecue	s643
53.244728	1.7	1.0	89.0	n/a	attention_network_task	down	left	congruent	89	0.657	stim	s643
55.351	0.1	n/a	n/a	double	attention_network_task	n/a	n/a	n/a	-1	n/a	doublecue	s643
55.862864	1.7	1.0	71.0	n/a	attention_network_task	down	right	incongruent	71	0.685	stim	s643
57.969	0.1	n/a	n/a	double	attention_network_task	n/a	n/a	n/a	-1	n/a	doublecue	s643
58.480912	1.7	1.0	71.0	n/a	attention_network_task	down	right	incongruent	71	0.75	stim	s643
60.587	0.1	n/a	n/a	spatial	attention_network_task	n/a	n/a	n/a	-1	n/a	spatialcue	s643
61.099728000000006	1.7	1.0	89.0	n/a	attention_network_task	down	left	congruent	89	0.669	stim	s643
63.204	0.1	n/a	n/a	spatial	attention_network_task	n/a	n/a	n/a	-1	n/a	spatialcue	s643
63.716864	1.7	1.0	89.0	n/a	attention_network_task	down	left	congruent	89	0.479	stim	s643
65.822	0.1	n/a	n/a	double	attention_network_task	n/a	n/a	n/a	-1	n/a	doublecue	s643
66.334864	1.7	1.0	89.0	n/a	attention_network_task	down	left	congruent	89	0.612	stim	s643
68.44	0.1	n/a	n/a	double	attention_network_task	n/a	n/a	n/a	-1	n/a	doublecue	s643
68.952	1.7	1.0	71.0	n/a	attention_network_task	up	right	congruent	71	0.579	stim	s643
71.058	0.1	n/a	n/a	spatial	attention_network_task	n/a	n/a	n/a	-1	n/a	spatialcue	s643
71.57	1.7	1.0	89.0	n/a	attention_network_task	up	left	incongruent	89	0.948	stim	s643
73.676	0.1	n/a	n/a	spatial	attention_network_task	n/a	n/a	n/a	-1	n/a	spatialcue	s643
74.187	1.7	1.0	71.0	n/a	attention_network_task	down	right	congruent	71	0.627	stim	s643
76.293	0.1	n/a	n/a	double	attention_network_task	n/a	n/a	n/a	-1	n/a	doublecue	s643
76.801	1.7	1.0	89.0	n/a	attention_network_task	up	left	incongruent	89	0.545	stim	s643
78.905	0.1	n/a	n/a	spatial	attention_network_task	n/a	n/a	n/a	-1	n/a	spatialcue	s643
79.415864	1.7	1.0	89.0	n/a	attention_network_task	down	left	incongruent	89	0.707	stim	s643
81.521	0.1	n/a	n/a	double	attention_network_task	n/a	n/a	n/a	-1	n/a	doublecue	s643
82.029728	1.7	1.0	71.0	n/a	attention_network_task	down	right	incongruent	71	0.665	stim	s643
84.135	0.1	n/a	n/a	spatial	attention_network_task	n/a	n/a	n/a	-1	n/a	spatialcue	s643
84.645864	1.7	1.0	89.0	n/a	attention_network_task	up	left	congruent	89	0.802	stim	s643
86.753	0.1	n/a	n/a	double	attention_network_task	n/a	n/a	n/a	-1	n/a	doublecue	s643
87.26586400000001	1.7	1.0	89.0	n/a	attention_network_task	down	left	congruent	89	0.636	stim	s643
89.37	0.1	n/a	n/a	double	attention_network_task	n/a	n/a	n/a	-1	n/a	doublecue	s643
89.881	1.7	1.0	89.0	n/a	attention_network_task	down	left	incongruent	89	0.743	stim	s643
91.987	0.1	n/a	n/a	spatial	attention_network_task	n/a	n/a	n/a	-1	n/a	spatialcue	s643
92.494	1.7	1.0	89.0	n/a	attention_network_task	up	left	congruent	89	0.682	stim	s643
94.6	0.1	n/a	n/a	double	attention_network_task	n/a	n/a	n/a	-1	n/a	doublecue	s643
95.111592	1.7	1.0	71.0	n/a	attention_network_task	up	right	congruent	71	0.555	stim	s643
97.218	0.1	n/a	n/a	double	attention_network_task	n/a	n/a	n/a	-1	n/a	doublecue	s643
97.729456	1.7	1.0	71.0	n/a	attention_network_task	up	right	congruent	71	0.545	stim	s643
99.835	0.1	n/a	n/a	spatial	attention_network_task	n/a	n/a	n/a	-1	n/a	spatialcue	s643
100.346592	1.7	1.0	71.0	n/a	attention_network_task	up	right	incongruent	71	0.62	stim	s643
102.453	0.1	n/a	n/a	spatial	attention_network_task	n/a	n/a	n/a	-1	n/a	spatialcue	s643
102.966	1.7	1.0	71.0	n/a	attention_network_task	up	right	congruent	71	0.542	stim	s643
105.071	0.1	n/a	n/a	double	attention_network_task	n/a	n/a	n/a	-1	n/a	doublecue	s643
105.582592	1.7	1.0	71.0	n/a	attention_network_task	up	right	congruent	71	0.922	stim	s643
107.689	0.1	n/a	n/a	spatial	attention_network_task	n/a	n/a	n/a	-1	n/a	spatialcue	s643
108.202	1.7	1.0	89.0	n/a	attention_network_task	up	left	congruent	89	0.681	stim	s643
110.306	0.1	n/a	n/a	spatial	attention_network_task	n/a	n/a	n/a	-1	n/a	spatialcue	s643
110.816592	1.7	1.0	89.0	n/a	attention_network_task	down	left	congruent	89	0.634	stim	s643
112.923	0.1	n/a	n/a	spatial	attention_network_task	n/a	n/a	n/a	-1	n/a	spatialcue	s643
113.436	1.7	1.0	71.0	n/a	attention_network_task	up	right	incongruent	71	0.632	stim	s643
115.541	0.1	n/a	n/a	spatial	attention_network_task	n/a	n/a	n/a	-1	n/a	spatialcue	s643
116.053	1.7	1.0	89.0	n/a	attention_network_task	up	left	incongruent	89	0.718	stim	s643
118.16	0.1	n/a	n/a	spatial	attention_network_task	n/a	n/a	n/a	-1	n/a	spatialcue	s643
118.67259200000001	1.7	1.0	71.0	n/a	attention_network_task	down	right	incongruent	71	0.898	stim	s643
120.777	0.1	n/a	n/a	spatial	attention_network_task	n/a	n/a	n/a	-1	n/a	spatialcue	s643
121.287864	1.7	1.0	89.0	n/a	attention_network_task	down	left	incongruent	89	0.888	stim	s643
123.394	0.1	n/a	n/a	double	attention_network_task	n/a	n/a	n/a	-1	n/a	doublecue	s643
123.906728	1.7	1.0	89.0	n/a	attention_network_task	up	left	incongruent	89	0.726	stim	s643
126.013	0.1	n/a	n/a	double	attention_network_task	n/a	n/a	n/a	-1	n/a	doublecue	s643
126.52345600000001	1.7	1.0	89.0	n/a	attention_network_task	up	left	incongruent	89	0.709	stim	s643
128.63	0.1	n/a	n/a	spatial	attention_network_task	n/a	n/a	n/a	-1	n/a	spatialcue	s643
129.141728	1.7	1.0	71.0	n/a	attention_network_task	down	right	incongruent	71	0.661	stim	s643
131.249	0.1	n/a	n/a	spatial	attention_network_task	n/a	n/a	n/a	-1	n/a	spatialcue	s643
131.761	1.7	1.0	89.0	n/a	attention_network_task	down	left	incongruent	89	0.679	stim	s643
133.863	0.1	n/a	n/a	spatial	attention_network_task	n/a	n/a	n/a	-1	n/a	spatialcue	s643
134.372592	1.7	1.0	71.0	n/a	attention_network_task	down	right	incongruent	71	0.535	stim	s643
136.478	0.1	n/a	n/a	spatial	attention_network_task	n/a	n/a	n/a	-1	n/a	spatialcue	s643
136.991	1.7	1.0	71.0	n/a	attention_network_task	down	right	congruent	71	0.487	stim	s643
139.096	0.1	n/a	n/a	double	attention_network_task	n/a	n/a	n/a	-1	n/a	doublecue	s643
139.608	1.7	1.0	71.0	n/a	attention_network_task	down	right	congruent	71	0.492	stim	s643
141.714	0.1	n/a	n/a	double	attention_network_task	n/a	n/a	n/a	-1	n/a	doublecue	s643
142.226456	1.7	1.0	89.0	n/a	attention_network_task	down	left	incongruent	89	0.567	stim	s643
144.331	0.1	n/a	n/a	spatial	attention_network_task	n/a	n/a	n/a	-1	n/a	spatialcue	s643
144.843592	1.7	1.0	71.0	n/a	attention_network_task	up	right	congruent	71	0.701	stim	s643
146.949	0.1	n/a	n/a	spatial	attention_network_task	n/a	n/a	n/a	-1	n/a	spatialcue	s643
147.462	1.7	1.0	71.0	n/a	attention_network_task	down	right	congruent	71	0.529	stim	s643
149.567	0.1	n/a	n/a	spatial	attention_network_task	n/a	n/a	n/a	-1	n/a	spatialcue	s643
150.07986400000001	1.7	1.0	71.0	n/a	attention_network_task	up	right	congruent	71	0.625	stim	s643
152.185	0.1	n/a	n/a	spatial	attention_network_task	n/a	n/a	n/a	-1	n/a	spatialcue	s643
152.69718400000002	1.7	1.0	71.0	n/a	attention_network_task	down	right	incongruent	71	0.818	stim	s643
154.802	0.1	n/a	n/a	double	attention_network_task	n/a	n/a	n/a	-1	n/a	doublecue	s643
155.313864	1.7	1.0	89.0	n/a	attention_network_task	down	left	congruent	89	0.546	stim	s643
157.42	0.1	n/a	n/a	spatial	attention_network_task	n/a	n/a	n/a	-1	n/a	spatialcue	s643
157.932	1.7	1.0	71.0	n/a	attention_network_task	up	right	congruent	71	0.647	stim	s643
160.038	0.1	n/a	n/a	double	attention_network_task	n/a	n/a	n/a	-1	n/a	doublecue	s643
160.548864	1.7	1.0	71.0	n/a	attention_network_task	up	right	incongruent	71	0.53	stim	s643
162.656	0.1	n/a	n/a	spatial	attention_network_task	n/a	n/a	n/a	-1	n/a	spatialcue	s643
163.163864	1.7	1.0	89.0	n/a	attention_network_task	down	left	incongruent	89	0.543	stim	s643
165.267	0.1	n/a	n/a	double	attention_network_task	n/a	n/a	n/a	-1	n/a	doublecue	s643
165.778864	1.7	1.0	71.0	n/a	attention_network_task	down	right	incongruent	71	0.635	stim	s643
167.883	0.1	n/a	n/a	spatial	attention_network_task	n/a	n/a	n/a	-1	n/a	spatialcue	s643
168.392456	1.7	1.0	89.0	n/a	attention_network_task	up	left	congruent	89	0.574	stim	s643
181.015	0.1	n/a	n/a	spatial	attention_network_task	n/a	n/a	n/a	-1	n/a	spatialcue	s643
181.522	1.7	1.0	71.0	n/a	attention_network_task	down	right	congruent	71	0.672	stim	s643
183.626	0.1	n/a	n/a	double	attention_network_task	n/a	n/a	n/a	-1	n/a	doublecue	s643
184.13872800000001	1.7	1.0	89.0	n/a	attention_network_task	up	left	incongruent	89	0.586	stim	s643
186.243	0.1	n/a	n/a	spatial	attention_network_task	n/a	n/a	n/a	-1	n/a	spatialcue	s643
186.753	1.7	1.0	89.0	n/a	attention_network_task	up	left	congruent	89	0.589	stim	s643
188.856	0.1	n/a	n/a	spatial	attention_network_task	n/a	n/a	n/a	-1	n/a	spatialcue	s643
189.367864	1.7	1.0	71.0	n/a	attention_network_task	up	right	congruent	71	0.546	stim	s643
191.474	0.1	n/a	n/a	double	attention_network_task	n/a	n/a	n/a	-1	n/a	doublecue	s643
191.985592	1.7	1.0	71.0	n/a	attention_network_task	up	right	incongruent	71	0.582	stim	s643
194.092	0.1	n/a	n/a	double	attention_network_task	n/a	n/a	n/a	-1	n/a	doublecue	s643
194.604456	1.7	1.0	89.0	n/a	attention_network_task	up	left	congruent	89	0.51	stim	s643
196.71	0.1	n/a	n/a	double	attention_network_task	n/a	n/a	n/a	-1	n/a	doublecue	s643
197.217	1.7	1.0	89.0	n/a	attention_network_task	down	left	incongruent	89	0.747	stim	s643
199.322	0.1	n/a	n/a	spatial	attention_network_task	n/a	n/a	n/a	-1	n/a	spatialcue	s643
199.832864	1.7	1.0	71.0	n/a	attention_network_task	down	right	incongruent	71	0.67	stim	s643
201.939	0.1	n/a	n/a	double	attention_network_task	n/a	n/a	n/a	-1	n/a	doublecue	s643
202.451864	1.7	1.0	71.0	n/a	attention_network_task	up	right	incongruent	71	0.71	stim	s643
204.557	0.1	n/a	n/a	spatial	attention_network_task	n/a	n/a	n/a	-1	n/a	spatialcue	s643
205.069864	1.7	1.0	71.0	n/a	attention_network_task	down	right	incongruent	71	1.147	stim	s643
207.175	0.1	n/a	n/a	double	attention_network_task	n/a	n/a	n/a	-1	n/a	doublecue	s643
207.686864	1.7	1.0	71.0	n/a	attention_network_task	down	right	congruent	71	0.563	stim	s643
209.793	0.1	n/a	n/a	spatial	attention_network_task	n/a	n/a	n/a	-1	n/a	spatialcue	s643
210.30572800000002	1.7	1.0	71.0	n/a	attention_network_task	up	right	incongruent	71	0.804	stim	s643
212.41	0.1	n/a	n/a	spatial	attention_network_task	n/a	n/a	n/a	-1	n/a	spatialcue	s643
212.922864	1.7	1.0	71.0	n/a	attention_network_task	down	right	incongruent	71	0.673	stim	s643
215.028	0.1	n/a	n/a	spatial	attention_network_task	n/a	n/a	n/a	-1	n/a	spatialcue	s643
215.534592	1.7	1.0	89.0	n/a	attention_network_task	up	left	incongruent	89	0.614	stim	s643
217.64	0.1	n/a	n/a	double	attention_network_task	n/a	n/a	n/a	-1	n/a	doublecue	s643
218.152	1.7	1.0	71.0	n/a	attention_network_task	up	right	incongruent	71	0.563	stim	s643
220.255	0.1	n/a	n/a	double	attention_network_task	n/a	n/a	n/a	-1	n/a	doublecue	s643
220.767864	1.7	1.0	71.0	n/a	attention_network_task	down	right	congruent	71	0.713	stim	s643
222.874	0.1	n/a	n/a	spatial	attention_network_task	n/a	n/a	n/a	-1	n/a	spatialcue	s643
223.387	1.7	1.0	89.0	n/a	attention_network_task	down	left	congruent	89	0.751	stim	s643
225.493	0.1	n/a	n/a	double	attention_network_task	n/a	n/a	n/a	-1	n/a	doublecue	s643
226.004864	1.7	1.0	89.0	n/a	attention_network_task	down	left	incongruent	89	0.539	stim	s643
228.111	0.1	n/a	n/a	spatial	attention_network_task	n/a	n/a	n/a	-1	n/a	spatialcue	s643
228.622048	1.7	1.0	71.0	n/a	attention_network_task	down	right	congruent	71	0.682	stim	s643
230.729	0.1	n/a	n/a	double	attention_network_task	n/a	n/a	n/a	-1	n/a	doublecue	s643
231.235728	1.7	1.0	89.0	n/a	attention_network_task	down	left	congruent	89	0.567	stim	s643
233.341	0.1	n/a	n/a	double	attention_network_task	n/a	n/a	n/a	-1	n/a	doublecue	s643
233.851864	1.7	1.0	71.0	n/a	attention_network_task	down	right	congruent	71	0.597	stim	s643
235.958	0.1	n/a	n/a	double	attention_network_task	n/a	n/a	n/a	-1	n/a	doublecue	s643
236.47	1.7	1.0	71.0	n/a	attention_network_task	up	right	incongruent	71	0.81	stim	s643
238.576	0.1	n/a	n/a	spatial	attention_network_task	n/a	n/a	n/a	-1	n/a	spatialcue	s643
239.088864	1.7	1.0	89.0	n/a	attention_network_task	down	left	incongruent	89	0.61	stim	s643
241.194	0.1	n/a	n/a	double	attention_network_task	n/a	n/a	n/a	-1	n/a	doublecue	s643
241.704	1.7	1.0	89.0	n/a	attention_network_task	up	left	congruent	89	0.773	stim	s643
243.81	0.1	n/a	n/a	spatial	attention_network_task	n/a	n/a	n/a	-1	n/a	spatialcue	s643
244.32386400000001	1.7	1.0	71.0	n/a	attention_network_task	up	right	incongruent	71	0.676	stim	s643
246.429	0.1	n/a	n/a	double	attention_network_task	n/a	n/a	n/a	-1	n/a	doublecue	s643
246.940728	1.7	1.0	71.0	n/a	attention_network_task	up	right	incongruent	71	0.583	stim	s643
249.047	0.1	n/a	n/a	spatial	attention_network_task	n/a	n/a	n/a	-1	n/a	spatialcue	s643
249.558728	1.7	1.0	89.0	n/a	attention_network_task	down	left	incongruent	89	0.609	stim	s643
251.665	0.1	n/a	n/a	double	attention_network_task	n/a	n/a	n/a	-1	n/a	doublecue	s643
252.176864	1.7	1.0	71.0	n/a	attention_network_task	down	right	congruent	71	0.558	stim	s643
254.278	0.1	n/a	n/a	double	attention_network_task	n/a	n/a	n/a	-1	n/a	doublecue	s643
254.789	1.7	1.0	89.0	n/a	attention_network_task	up	left	incongruent	89	0.618	stim	s643
256.894	0.1	n/a	n/a	double	attention_network_task	n/a	n/a	n/a	-1	n/a	doublecue	s643
257.404864	1.7	1.0	71.0	n/a	attention_network_task	down	right	incongruent	71	0.696	stim	s643
259.511	0.1	n/a	n/a	spatial	attention_network_task	n/a	n/a	n/a	-1	n/a	spatialcue	s643
260.023	1.7	1.0	71.0	n/a	attention_network_task	down	right	congruent	71	0.926	stim	s643
262.13	0.1	n/a	n/a	double	attention_network_task	n/a	n/a	n/a	-1	n/a	doublecue	s643
262.641728	1.7	1.0	71.0	n/a	attention_network_task	down	right	congruent	71	0.692	stim	s643
264.748	0.1	n/a	n/a	spatial	attention_network_task	n/a	n/a	n/a	-1	n/a	spatialcue	s643
265.261	1.7	1.0	89.0	n/a	attention_network_task	up	left	incongruent	89	0.538	stim	s643
267.366	0.1	n/a	n/a	spatial	attention_network_task	n/a	n/a	n/a	-1	n/a	spatialcue	s643
267.876	1.7	1.0	71.0	n/a	attention_network_task	up	right	incongruent	71	0.61	stim	s643
269.982	0.1	n/a	n/a	spatial	attention_network_task	n/a	n/a	n/a	-1	n/a	spatialcue	s643
270.493864	1.7	1.0	71.0	n/a	attention_network_task	up	right	congruent	71	0.645	stim	s643
272.598	0.1	n/a	n/a	spatial	attention_network_task	n/a	n/a	n/a	-1	n/a	spatialcue	s643
273.106728	1.7	1.0	89.0	n/a	attention_network_task	up	left	congruent	89	0.514	stim	s643
275.213	0.1	n/a	n/a	double	attention_network_task	n/a	n/a	n/a	-1	n/a	doublecue	s643
275.72459200000003	1.7	1.0	71.0	n/a	attention_network_task	up	right	incongruent	71	0.528	stim	s643
277.831	0.1	n/a	n/a	double	attention_network_task	n/a	n/a	n/a	-1	n/a	doublecue	s643
278.342	1.7	1.0	89.0	n/a	attention_network_task	up	left	congruent	89	0.545	stim	s643
280.448	0.1	n/a	n/a	double	attention_network_task	n/a	n/a	n/a	-1	n/a	doublecue	s643
280.959864	1.7	1.0	89.0	n/a	attention_network_task	up	left	congruent	89	0.573	stim	s643
283.066	0.1	n/a	n/a	spatial	attention_network_task	n/a	n/a	n/a	-1	n/a	spatialcue	s643
283.572864	1.7	1.0	71.0	n/a	attention_network_task	down	right	congruent	71	0.723	stim	s643
285.678	0.1	n/a	n/a	double	attention_network_task	n/a	n/a	n/a	-1	n/a	doublecue	s643
286.189	1.7	1.0	71.0	n/a	attention_network_task	down	right	congruent	71	0.63	stim	s643
288.295	0.1	n/a	n/a	double	attention_network_task	n/a	n/a	n/a	-1	n/a	doublecue	s643
288.807592	1.7	1.0	89.0	n/a	attention_network_task	down	left	incongruent	89	0.753	stim	s643
290.914	0.1	n/a	n/a	spatial	attention_network_task	n/a	n/a	n/a	-1	n/a	spatialcue	s643
291.424456	1.7	1.0	89.0	n/a	attention_network_task	down	left	congruent	89	0.691	stim	s643
293.531	0.1	n/a	n/a	spatial	attention_network_task	n/a	n/a	n/a	-1	n/a	spatialcue	s643
294.042864	1.7	1.0	71.0	n/a	attention_network_task	down	right	congruent	71	0.6	stim	s643
296.149	0.1	n/a	n/a	spatial	attention_network_task	n/a	n/a	n/a	-1	n/a	spatialcue	s643
296.660864	1.7	1.0	89.0	n/a	attention_network_task	down	left	congruent	89	0.596	stim	s643
298.767	0.1	n/a	n/a	spatial	attention_network_task	n/a	n/a	n/a	-1	n/a	spatialcue	s643
299.279	1.7	1.0	71.0	n/a	attention_network_task	up	right	incongruent	71	1.029	stim	s643
301.385	0.1	n/a	n/a	double	attention_network_task	n/a	n/a	n/a	-1	n/a	doublecue	s643
301.895	1.7	1.0	89.0	n/a	attention_network_task	up	left	congruent	89	0.706	stim	s643
304.0	0.1	n/a	n/a	double	attention_network_task	n/a	n/a	n/a	-1	n/a	doublecue	s643
304.512864	1.7	1.0	89.0	n/a	attention_network_task	down	left	congruent	89	0.775	stim	s643
306.617	0.1	n/a	n/a	double	attention_network_task	n/a	n/a	n/a	-1	n/a	doublecue	s643
307.126	1.7	1.0	89.0	n/a	attention_network_task	down	left	congruent	89	0.624	stim	s643
309.232	0.1	n/a	n/a	double	attention_network_task	n/a	n/a	n/a	-1	n/a	doublecue	s643
309.743864	1.7	1.0	71.0	n/a	attention_network_task	up	right	congruent	71	0.621	stim	s643
311.85	0.1	n/a	n/a	double	attention_network_task	n/a	n/a	n/a	-1	n/a	doublecue	s643
312.362	1.7	1.0	71.0	n/a	attention_network_task	up	right	congruent	71	0.667	stim	s643
314.468	0.1	n/a	n/a	spatial	attention_network_task	n/a	n/a	n/a	-1	n/a	spatialcue	s643
314.979592	1.7	1.0	89.0	n/a	attention_network_task	down	left	congruent	89	0.739	stim	s643
317.085	0.1	n/a	n/a	spatial	attention_network_task	n/a	n/a	n/a	-1	n/a	spatialcue	s643
317.592	1.7	1.0	89.0	n/a	attention_network_task	up	left	incongruent	89	0.615	stim	s643
319.697	0.1	n/a	n/a	double	attention_network_task	n/a	n/a	n/a	-1	n/a	doublecue	s643
320.208184	1.7	1.0	71.0	n/a	attention_network_task	down	right	incongruent	71	0.59	stim	s643
322.315	0.1	n/a	n/a	spatial	attention_network_task	n/a	n/a	n/a	-1	n/a	spatialcue	s643
322.82632	1.7	1.0	89.0	n/a	attention_network_task	up	left	congruent	89	0.857	stim	s643
324.933	0.1	n/a	n/a	spatial	attention_network_task	n/a	n/a	n/a	-1	n/a	spatialcue	s643
325.444	1.7	1.0	89.0	n/a	attention_network_task	up	left	congruent	89	0.811	stim	s643
327.55	0.1	n/a	n/a	spatial	attention_network_task	n/a	n/a	n/a	-1	n/a	spatialcue	s643
328.061864	1.7	1.0	71.0	n/a	attention_network_task	up	right	congruent	71	0.692	stim	s643
330.168	0.1	n/a	n/a	double	attention_network_task	n/a	n/a	n/a	-1	n/a	doublecue	s643
330.679864	1.7	1.0	71.0	n/a	attention_network_task	down	right	incongruent	71	0.907	stim	s643
332.786	0.1	n/a	n/a	double	attention_network_task	n/a	n/a	n/a	-1	n/a	doublecue	s643
333.297864	1.7	1.0	89.0	n/a	attention_network_task	up	left	incongruent	89	0.81	stim	s643
335.404	0.1	n/a	n/a	double	attention_network_task	n/a	n/a	n/a	-1	n/a	doublecue	s643
335.916	1.7	1.0	71.0	n/a	attention_network_task	up	right	incongruent	71	0.588	stim	s643
338.022	0.1	n/a	n/a	spatial	attention_network_task	n/a	n/a	n/a	-1	n/a	spatialcue	s643
338.533864	1.7	1.0	89.0	n/a	attention_network_task	down	left	incongruent	89	0.611	stim	s643
340.639	0.1	n/a	n/a	spatial	attention_network_task	n/a	n/a	n/a	-1	n/a	spatialcue	s643
341.150048	1.7	1.0	89.0	n/a	attention_network_task	up	left	incongruent	89	0.638	stim	s643
343.257	0.1	n/a	n/a	double	attention_network_task	n/a	n/a	n/a	-1	n/a	doublecue	s643
343.769864	1.7	1.0	89.0	n/a	attention_network_task	down	left	incongruent	89	0.633	stim	s643
345.874	0.1	n/a	n/a	double	attention_network_task	n/a	n/a	n/a	-1	n/a	doublecue	s643
346.386592	1.7	1.0	71.0	n/a	attention_network_task	down	right	incongruent	71	0.624	stim	s643
