onset	duration	planning	condition	current_position	exp_stage	experiment_exp_id	goal_state	key_press	problem_id	response_time	start_state	trial_id	worker_id
-57.526	0.0	0	n/a	n/a	n/a	ward_and_allport	n/a	32.0	n/a	21.196	n/a	instructions	s643
3.017	3.188	1	UA_with_intermediate	0,0,0,2,3,0,0,0,0	practice	ward_and_allport	1,2,3,0,0,0,0,0,0	89.0	0.0	3.188	1,0,0,2,3,0,0,0,0	to_hand	s643
6.206	0.42	0	UA_with_intermediate	0,0,0,2,3,0,1,0,0	practice	ward_and_allport	1,2,3,0,0,0,0,0,0	82.0	0.0	0.42	1,0,0,2,3,0,0,0,0	to_board	s643
6.629	5.17	0	UA_with_intermediate	0,0,0,2,3,0,0,0,0	practice	ward_and_allport	1,2,3,0,0,0,0,0,0	82.0	0.0	5.17	1,0,0,2,3,0,0,0,0	to_hand	s643
11.8	0.724	0	UA_with_intermediate	1,0,0,2,3,0,0,0,0	practice	ward_and_allport	1,2,3,0,0,0,0,0,0	89.0	0.0	0.724	1,0,0,2,3,0,0,0,0	to_board	s643
12.526	2.169	0	UA_with_intermediate	1,0,0,2,0,0,0,0,0	practice	ward_and_allport	1,2,3,0,0,0,0,0,0	71.0	0.0	2.169	1,0,0,2,3,0,0,0,0	to_hand	s643
14.696	0.795	0	UA_with_intermediate	1,0,0,2,0,0,3,0,0	practice	ward_and_allport	1,2,3,0,0,0,0,0,0	82.0	0.0	0.795	1,0,0,2,3,0,0,0,0	to_board	s643
15.495	0.52	0	UA_with_intermediate	1,0,0,0,0,0,3,0,0	practice	ward_and_allport	1,2,3,0,0,0,0,0,0	71.0	0.0	0.52	1,0,0,2,3,0,0,0,0	to_hand	s643
16.016	0.572	0	UA_with_intermediate	1,2,0,0,0,0,3,0,0	practice	ward_and_allport	1,2,3,0,0,0,0,0,0	89.0	0.0	0.572	1,0,0,2,3,0,0,0,0	to_board	s643
16.59	0.508	0	UA_with_intermediate	1,2,0,0,0,0,0,0,0	practice	ward_and_allport	1,2,3,0,0,0,0,0,0	82.0	0.0	0.508	1,0,0,2,3,0,0,0,0	to_hand	s643
17.099	0.854	0	UA_with_intermediate	1,2,3,0,0,0,0,0,0	practice	ward_and_allport	1,2,3,0,0,0,0,0,0	89.0	0.0	0.854	1,0,0,2,3,0,0,0,0	to_board	s643
17.959	1.0	0	UA_with_intermediate	n/a	practice	ward_and_allport	n/a	-1.0	0.0	n/a	n/a	feedback	s643
20.461	5.854	1	UA_with_intermediate	1,2,0,0,0,0,0,0,0	practice	ward_and_allport	1,3,2,0,0,0,0,0,0	71.0	1.0	5.854	1,2,0,3,0,0,0,0,0	to_hand	s643
26.316	0.814	0	UA_with_intermediate	1,2,0,3,0,0,0,0,0	practice	ward_and_allport	1,3,2,0,0,0,0,0,0	71.0	1.0	0.814	1,2,0,3,0,0,0,0,0	to_board	s643
27.132	0.761	0	UA_with_intermediate	1,0,0,3,0,0,0,0,0	practice	ward_and_allport	1,3,2,0,0,0,0,0,0	89.0	1.0	0.761	1,2,0,3,0,0,0,0,0	to_hand	s643
27.894	1.663	0	UA_with_intermediate	1,0,0,3,0,0,2,0,0	practice	ward_and_allport	1,3,2,0,0,0,0,0,0	82.0	1.0	1.663	1,2,0,3,0,0,0,0,0	to_board	s643
29.559	1.079	0	UA_with_intermediate	1,0,0,0,0,0,2,0,0	practice	ward_and_allport	1,3,2,0,0,0,0,0,0	71.0	1.0	1.079	1,2,0,3,0,0,0,0,0	to_hand	s643
30.639	0.557	0	UA_with_intermediate	1,3,0,0,0,0,2,0,0	practice	ward_and_allport	1,3,2,0,0,0,0,0,0	89.0	1.0	0.557	1,2,0,3,0,0,0,0,0	to_board	s643
31.198	0.615	0	UA_with_intermediate	1,3,0,0,0,0,0,0,0	practice	ward_and_allport	1,3,2,0,0,0,0,0,0	82.0	1.0	0.615	1,2,0,3,0,0,0,0,0	to_hand	s643
31.814	1.434	0	UA_with_intermediate	1,3,2,0,0,0,0,0,0	practice	ward_and_allport	1,3,2,0,0,0,0,0,0	89.0	1.0	1.434	1,2,0,3,0,0,0,0,0	to_board	s643
33.253	1.0	0	UA_with_intermediate	n/a	practice	ward_and_allport	n/a	-1.0	1.0	n/a	n/a	feedback	s643
34.253	1.1	0	UA_with_intermediate	n/a	practice	ward_and_allport	n/a	-1.0	1.0	n/a	n/a	ITI	s643
35.356	4.266	1	UA_without_intermediate	0,0,0,1,2,0,0,0,0	practice	ward_and_allport	3,2,1,0,0,0,0,0,0	82.0	2.0	4.266	0,0,0,1,2,0,3,0,0	to_hand	s643
39.624	0.625	0	UA_without_intermediate	3,0,0,1,2,0,0,0,0	practice	ward_and_allport	3,2,1,0,0,0,0,0,0	89.0	2.0	0.625	0,0,0,1,2,0,3,0,0	to_board	s643
40.25	0.555	0	UA_without_intermediate	3,0,0,1,0,0,0,0,0	practice	ward_and_allport	3,2,1,0,0,0,0,0,0	71.0	2.0	0.555	0,0,0,1,2,0,3,0,0	to_hand	s643
40.807	0.536	0	UA_without_intermediate	3,2,0,1,0,0,0,0,0	practice	ward_and_allport	3,2,1,0,0,0,0,0,0	89.0	2.0	0.536	0,0,0,1,2,0,3,0,0	to_board	s643
41.344	1.146	0	UA_without_intermediate	3,2,0,0,0,0,0,0,0	practice	ward_and_allport	3,2,1,0,0,0,0,0,0	71.0	2.0	1.146	0,0,0,1,2,0,3,0,0	to_hand	s643
42.492	0.426	0	UA_without_intermediate	3,2,1,0,0,0,0,0,0	practice	ward_and_allport	3,2,1,0,0,0,0,0,0	89.0	2.0	0.426	0,0,0,1,2,0,3,0,0	to_board	s643
42.925	1.0	0	UA_without_intermediate	n/a	practice	ward_and_allport	n/a	-1.0	2.0	n/a	n/a	feedback	s643
43.925	1.2	0	UA_without_intermediate	n/a	practice	ward_and_allport	n/a	-1.0	2.0	n/a	n/a	ITI	s643
45.127	5.439	1	UA_without_intermediate	0,0,0,1,0,0,3,0,0	practice	ward_and_allport	2,3,1,0,0,0,0,0,0	71.0	3.0	5.439	0,0,0,1,2,0,3,0,0	to_hand	s643
50.567	0.487	0	UA_without_intermediate	2,0,0,1,0,0,3,0,0	practice	ward_and_allport	2,3,1,0,0,0,0,0,0	89.0	3.0	0.487	0,0,0,1,2,0,3,0,0	to_board	s643
51.056	0.634	0	UA_without_intermediate	2,0,0,1,0,0,0,0,0	practice	ward_and_allport	2,3,1,0,0,0,0,0,0	82.0	3.0	0.634	0,0,0,1,2,0,3,0,0	to_hand	s643
51.691	1.529	0	UA_without_intermediate	2,3,0,1,0,0,0,0,0	practice	ward_and_allport	2,3,1,0,0,0,0,0,0	89.0	3.0	1.529	0,0,0,1,2,0,3,0,0	to_board	s643
53.222	0.985	0	UA_without_intermediate	2,3,0,0,0,0,0,0,0	practice	ward_and_allport	2,3,1,0,0,0,0,0,0	71.0	3.0	0.985	0,0,0,1,2,0,3,0,0	to_hand	s643
54.209	1.303	0	UA_without_intermediate	2,3,1,0,0,0,0,0,0	practice	ward_and_allport	2,3,1,0,0,0,0,0,0	89.0	3.0	1.303	0,0,0,1,2,0,3,0,0	to_board	s643
55.519	1.0	0	UA_without_intermediate	n/a	practice	ward_and_allport	n/a	-1.0	3.0	n/a	n/a	feedback	s643
56.519	1.0	0	UA_without_intermediate	n/a	practice	ward_and_allport	n/a	-1.0	3.0	n/a	n/a	ITI	s643
59.532	7.558	1	PA_with_intermediate	0,0,0,1,2,0,0,0,0	test	ward_and_allport	2,3,0,1,0,0,0,0,0	71.0	0.0	7.558	0,0,0,1,2,3,0,0,0	to_hand	s643
67.091	0.375	0	PA_with_intermediate	0,0,0,1,2,0,3,0,0	test	ward_and_allport	2,3,0,1,0,0,0,0,0	82.0	0.0	0.375	0,0,0,1,2,3,0,0,0	to_board	s643
67.468	0.433	0	PA_with_intermediate	0,0,0,1,0,0,3,0,0	test	ward_and_allport	2,3,0,1,0,0,0,0,0	71.0	0.0	0.433	0,0,0,1,2,3,0,0,0	to_hand	s643
67.903	0.572	0	PA_with_intermediate	2,0,0,1,0,0,3,0,0	test	ward_and_allport	2,3,0,1,0,0,0,0,0	89.0	0.0	0.572	0,0,0,1,2,3,0,0,0	to_board	s643
68.477	0.506	0	PA_with_intermediate	2,0,0,1,0,0,0,0,0	test	ward_and_allport	2,3,0,1,0,0,0,0,0	82.0	0.0	0.506	0,0,0,1,2,3,0,0,0	to_hand	s643
68.984	0.43	0	PA_with_intermediate	2,3,0,1,0,0,0,0,0	test	ward_and_allport	2,3,0,1,0,0,0,0,0	89.0	0.0	0.43	0,0,0,1,2,3,0,0,0	to_board	s643
69.418	1.0	0	PA_with_intermediate	n/a	test	ward_and_allport	n/a	-1.0	0.0	n/a	n/a	feedback	s643
70.418	1.408	0	PA_with_intermediate	n/a	test	ward_and_allport	n/a	-1.0	0.0	n/a	n/a	ITI	s643
71.829	7.015	1	PA_without_intermediate	0,0,0,0,0,0,1,2,0	test	ward_and_allport	3,1,0,2,0,0,0,0,0	82.0	1.0	7.015	0,0,0,0,0,0,1,2,3	to_hand	s643
78.845	1.202	0	PA_without_intermediate	3,0,0,0,0,0,1,2,0	test	ward_and_allport	3,1,0,2,0,0,0,0,0	89.0	1.0	1.202	0,0,0,0,0,0,1,2,3	to_board	s643
80.05	1.603	0	PA_without_intermediate	3,0,0,0,0,0,1,0,0	test	ward_and_allport	3,1,0,2,0,0,0,0,0	82.0	1.0	1.603	0,0,0,0,0,0,1,2,3	to_hand	s643
81.654	0.86	0	PA_without_intermediate	3,0,0,2,0,0,1,0,0	test	ward_and_allport	3,1,0,2,0,0,0,0,0	71.0	1.0	0.86	0,0,0,0,0,0,1,2,3	to_board	s643
82.516	0.772	0	PA_without_intermediate	3,0,0,2,0,0,0,0,0	test	ward_and_allport	3,1,0,2,0,0,0,0,0	82.0	1.0	0.772	0,0,0,0,0,0,1,2,3	to_hand	s643
83.289	0.614	0	PA_without_intermediate	3,1,0,2,0,0,0,0,0	test	ward_and_allport	3,1,0,2,0,0,0,0,0	89.0	1.0	0.614	0,0,0,0,0,0,1,2,3	to_board	s643
83.911	1.0	0	PA_without_intermediate	n/a	test	ward_and_allport	n/a	-1.0	1.0	n/a	n/a	feedback	s643
84.911	1.68	0	PA_without_intermediate	n/a	test	ward_and_allport	n/a	-1.0	1.0	n/a	n/a	ITI	s643
86.594	6.21	1	PA_with_intermediate	1,2,0,0,0,0,0,0,0	test	ward_and_allport	1,0,0,0,0,0,2,3,0	89.0	2.0	6.21	1,2,3,0,0,0,0,0,0	to_hand	s643
92.805	0.401	0	PA_with_intermediate	1,2,0,3,0,0,0,0,0	test	ward_and_allport	1,0,0,0,0,0,2,3,0	71.0	2.0	0.401	1,2,3,0,0,0,0,0,0	to_board	s643
93.208	2.002	0	PA_with_intermediate	1,2,0,0,0,0,0,0,0	test	ward_and_allport	1,0,0,0,0,0,2,3,0	71.0	2.0	2.002	1,2,3,0,0,0,0,0,0	to_hand	s643
95.212	0.791	0	PA_with_intermediate	1,2,0,3,0,0,0,0,0	test	ward_and_allport	1,0,0,0,0,0,2,3,0	71.0	2.0	0.791	1,2,3,0,0,0,0,0,0	to_board	s643
96.006	0.863	0	PA_with_intermediate	1,0,0,3,0,0,0,0,0	test	ward_and_allport	1,0,0,0,0,0,2,3,0	89.0	2.0	0.863	1,2,3,0,0,0,0,0,0	to_hand	s643
96.869	1.054	0	PA_with_intermediate	1,0,0,3,0,0,2,0,0	test	ward_and_allport	1,0,0,0,0,0,2,3,0	82.0	2.0	1.054	1,2,3,0,0,0,0,0,0	to_board	s643
97.925	0.945	0	PA_with_intermediate	1,0,0,0,0,0,2,0,0	test	ward_and_allport	1,0,0,0,0,0,2,3,0	71.0	2.0	0.945	1,2,3,0,0,0,0,0,0	to_hand	s643
98.872	0.508	0	PA_with_intermediate	1,0,0,0,0,0,2,3,0	test	ward_and_allport	1,0,0,0,0,0,2,3,0	82.0	2.0	0.508	1,2,3,0,0,0,0,0,0	to_board	s643
99.388	1.0	0	PA_with_intermediate	n/a	test	ward_and_allport	n/a	-1.0	2.0	n/a	n/a	feedback	s643
100.388	3.72	0	PA_with_intermediate	n/a	test	ward_and_allport	n/a	-1.0	2.0	n/a	n/a	ITI	s643
104.112	4.015	1	PA_without_intermediate	0,0,0,1,2,0,0,0,0	test	ward_and_allport	3,2,0,0,0,0,1,0,0	71.0	3.0	4.015	0,0,0,1,2,3,0,0,0	to_hand	s643
108.128	0.52	0	PA_without_intermediate	3,0,0,1,2,0,0,0,0	test	ward_and_allport	3,2,0,0,0,0,1,0,0	89.0	3.0	0.52	0,0,0,1,2,3,0,0,0	to_board	s643
108.651	2.367	0	PA_without_intermediate	3,0,0,1,0,0,0,0,0	test	ward_and_allport	3,2,0,0,0,0,1,0,0	71.0	3.0	2.367	0,0,0,1,2,3,0,0,0	to_hand	s643
111.02	0.35	0	PA_without_intermediate	3,2,0,1,0,0,0,0,0	test	ward_and_allport	3,2,0,0,0,0,1,0,0	89.0	3.0	0.35	0,0,0,1,2,3,0,0,0	to_board	s643
111.373	0.71	0	PA_without_intermediate	3,2,0,0,0,0,0,0,0	test	ward_and_allport	3,2,0,0,0,0,1,0,0	71.0	3.0	0.71	0,0,0,1,2,3,0,0,0	to_hand	s643
112.085	0.398	0	PA_without_intermediate	3,2,0,0,0,0,1,0,0	test	ward_and_allport	3,2,0,0,0,0,1,0,0	82.0	3.0	0.398	0,0,0,1,2,3,0,0,0	to_board	s643
112.489	1.0	0	PA_without_intermediate	n/a	test	ward_and_allport	n/a	-1.0	3.0	n/a	n/a	feedback	s643
113.489	2.224	0	PA_without_intermediate	n/a	test	ward_and_allport	n/a	-1.0	3.0	n/a	n/a	ITI	s643
115.717	6.911	1	PA_without_intermediate	0,0,0,1,2,0,0,0,0	test	ward_and_allport	3,1,0,0,0,0,2,0,0	71.0	4.0	6.911	0,0,0,1,2,3,0,0,0	to_hand	s643
122.63	0.273	0	PA_without_intermediate	3,0,0,1,2,0,0,0,0	test	ward_and_allport	3,1,0,0,0,0,2,0,0	89.0	4.0	0.273	0,0,0,1,2,3,0,0,0	to_board	s643
122.907	0.978	0	PA_without_intermediate	3,0,0,1,0,0,0,0,0	test	ward_and_allport	3,1,0,0,0,0,2,0,0	71.0	4.0	0.978	0,0,0,1,2,3,0,0,0	to_hand	s643
123.886	0.446	0	PA_without_intermediate	3,0,0,1,0,0,2,0,0	test	ward_and_allport	3,1,0,0,0,0,2,0,0	82.0	4.0	0.446	0,0,0,1,2,3,0,0,0	to_board	s643
124.336	0.762	0	PA_without_intermediate	3,0,0,0,0,0,2,0,0	test	ward_and_allport	3,1,0,0,0,0,2,0,0	71.0	4.0	0.762	0,0,0,1,2,3,0,0,0	to_hand	s643
125.1	0.267	0	PA_without_intermediate	3,1,0,0,0,0,2,0,0	test	ward_and_allport	3,1,0,0,0,0,2,0,0	89.0	4.0	0.267	0,0,0,1,2,3,0,0,0	to_board	s643
125.375	1.0	0	PA_without_intermediate	n/a	test	ward_and_allport	n/a	-1.0	4.0	n/a	n/a	feedback	s643
126.375	1.272	0	PA_without_intermediate	n/a	test	ward_and_allport	n/a	-1.0	4.0	n/a	n/a	ITI	s643
127.65	6.717	1	PA_with_intermediate	0,0,0,1,2,0,0,0,0	test	ward_and_allport	0,0,0,1,3,0,2,0,0	71.0	5.0	6.717	0,0,0,1,2,3,0,0,0	to_hand	s643
134.368	0.257	0	PA_with_intermediate	3,0,0,1,2,0,0,0,0	test	ward_and_allport	0,0,0,1,3,0,2,0,0	89.0	5.0	0.257	0,0,0,1,2,3,0,0,0	to_board	s643
134.629	0.6	0	PA_with_intermediate	3,0,0,1,0,0,0,0,0	test	ward_and_allport	0,0,0,1,3,0,2,0,0	71.0	5.0	0.6	0,0,0,1,2,3,0,0,0	to_hand	s643
135.23	0.351	0	PA_with_intermediate	3,0,0,1,0,0,2,0,0	test	ward_and_allport	0,0,0,1,3,0,2,0,0	82.0	5.0	0.351	0,0,0,1,2,3,0,0,0	to_board	s643
135.584	1.212	0	PA_with_intermediate	0,0,0,1,0,0,2,0,0	test	ward_and_allport	0,0,0,1,3,0,2,0,0	89.0	5.0	1.212	0,0,0,1,2,3,0,0,0	to_hand	s643
136.797	0.303	0	PA_with_intermediate	0,0,0,1,3,0,2,0,0	test	ward_and_allport	0,0,0,1,3,0,2,0,0	71.0	5.0	0.303	0,0,0,1,2,3,0,0,0	to_board	s643
137.107	1.0	0	PA_with_intermediate	n/a	test	ward_and_allport	n/a	-1.0	5.0	n/a	n/a	feedback	s643
138.107	2.632	0	PA_with_intermediate	n/a	test	ward_and_allport	n/a	-1.0	5.0	n/a	n/a	ITI	s643
140.744	15.329	1	PA_without_intermediate	1,2,0,0,0,0,0,0,0	test	ward_and_allport	0,0,0,2,0,0,3,1,0	89.0	6.0	15.329	1,2,3,0,0,0,0,0,0	to_hand	s643
156.075	0.361	0	PA_without_intermediate	1,2,0,0,0,0,3,0,0	test	ward_and_allport	0,0,0,2,0,0,3,1,0	82.0	6.0	0.361	1,2,3,0,0,0,0,0,0	to_board	s643
156.439	1.578	0	PA_without_intermediate	1,0,0,0,0,0,3,0,0	test	ward_and_allport	0,0,0,2,0,0,3,1,0	89.0	6.0	1.578	1,2,3,0,0,0,0,0,0	to_hand	s643
158.018	0.382	0	PA_without_intermediate	1,0,0,2,0,0,3,0,0	test	ward_and_allport	0,0,0,2,0,0,3,1,0	71.0	6.0	0.382	1,2,3,0,0,0,0,0,0	to_board	s643
158.403	0.916	0	PA_without_intermediate	0,0,0,2,0,0,3,0,0	test	ward_and_allport	0,0,0,2,0,0,3,1,0	89.0	6.0	0.916	1,2,3,0,0,0,0,0,0	to_hand	s643
159.32	0.347	0	PA_without_intermediate	0,0,0,2,0,0,3,1,0	test	ward_and_allport	0,0,0,2,0,0,3,1,0	82.0	6.0	0.347	1,2,3,0,0,0,0,0,0	to_board	s643
159.676	1.0	0	PA_without_intermediate	n/a	test	ward_and_allport	n/a	-1.0	6.0	n/a	n/a	feedback	s643
160.676	1.408	0	PA_without_intermediate	n/a	test	ward_and_allport	n/a	-1.0	6.0	n/a	n/a	ITI	s643
162.088	5.206	1	PA_without_intermediate	1,2,0,0,0,0,0,0,0	test	ward_and_allport	0,0,0,1,0,0,3,2,0	89.0	7.0	5.206	1,2,3,0,0,0,0,0,0	to_hand	s643
167.295	0.303	0	PA_without_intermediate	1,2,0,0,0,0,3,0,0	test	ward_and_allport	0,0,0,1,0,0,3,2,0	82.0	7.0	0.303	1,2,3,0,0,0,0,0,0	to_board	s643
167.602	0.907	0	PA_without_intermediate	1,0,0,0,0,0,3,0,0	test	ward_and_allport	0,0,0,1,0,0,3,2,0	89.0	7.0	0.907	1,2,3,0,0,0,0,0,0	to_hand	s643
168.511	0.396	0	PA_without_intermediate	1,0,0,0,0,0,3,2,0	test	ward_and_allport	0,0,0,1,0,0,3,2,0	82.0	7.0	0.396	1,2,3,0,0,0,0,0,0	to_board	s643
168.911	0.659	0	PA_without_intermediate	0,0,0,0,0,0,3,2,0	test	ward_and_allport	0,0,0,1,0,0,3,2,0	89.0	7.0	0.659	1,2,3,0,0,0,0,0,0	to_hand	s643
169.57	0.272	0	PA_without_intermediate	0,0,0,1,0,0,3,2,0	test	ward_and_allport	0,0,0,1,0,0,3,2,0	71.0	7.0	0.272	1,2,3,0,0,0,0,0,0	to_board	s643
169.85	1.0	0	PA_without_intermediate	n/a	test	ward_and_allport	n/a	-1.0	7.0	n/a	n/a	feedback	s643
170.85	1.0	0	PA_without_intermediate	n/a	test	ward_and_allport	n/a	-1.0	7.0	n/a	n/a	ITI	s643
171.853	8.285	1	PA_with_intermediate	0,0,0,0,0,0,1,2,0	test	ward_and_allport	2,0,0,0,0,0,1,3,0	82.0	8.0	8.285	0,0,0,0,0,0,1,2,3	to_hand	s643
180.14	0.258	0	PA_with_intermediate	3,0,0,0,0,0,1,2,0	test	ward_and_allport	2,0,0,0,0,0,1,3,0	89.0	8.0	0.258	0,0,0,0,0,0,1,2,3	to_board	s643
180.401	1.619	0	PA_with_intermediate	0,0,0,0,0,0,1,2,0	test	ward_and_allport	2,0,0,0,0,0,1,3,0	89.0	8.0	1.619	0,0,0,0,0,0,1,2,3	to_hand	s643
182.022	1.281	0	PA_with_intermediate	0,0,0,3,0,0,1,2,0	test	ward_and_allport	2,0,0,0,0,0,1,3,0	71.0	8.0	1.281	0,0,0,0,0,0,1,2,3	to_board	s643
183.307	2.989	0	PA_with_intermediate	0,0,0,3,0,0,1,0,0	test	ward_and_allport	2,0,0,0,0,0,1,3,0	82.0	8.0	2.989	0,0,0,0,0,0,1,2,3	to_hand	s643
186.297	0.444	0	PA_with_intermediate	2,0,0,3,0,0,1,0,0	test	ward_and_allport	2,0,0,0,0,0,1,3,0	89.0	8.0	0.444	0,0,0,0,0,0,1,2,3	to_board	s643
186.745	0.587	0	PA_with_intermediate	2,0,0,0,0,0,1,0,0	test	ward_and_allport	2,0,0,0,0,0,1,3,0	71.0	8.0	0.587	0,0,0,0,0,0,1,2,3	to_hand	s643
187.333	0.378	0	PA_with_intermediate	2,0,0,0,0,0,1,3,0	test	ward_and_allport	2,0,0,0,0,0,1,3,0	82.0	8.0	0.378	0,0,0,0,0,0,1,2,3	to_board	s643
187.722	1.0	0	PA_with_intermediate	n/a	test	ward_and_allport	n/a	-1.0	8.0	n/a	n/a	feedback	s643
188.722	1.0	0	PA_with_intermediate	n/a	test	ward_and_allport	n/a	-1.0	8.0	n/a	n/a	ITI	s643
189.727	6.149	1	PA_with_intermediate	1,2,0,0,0,0,0,0,0	test	ward_and_allport	1,3,0,2,0,0,0,0,0	89.0	9.0	6.149	1,2,3,0,0,0,0,0,0	to_hand	s643
195.877	0.313	0	PA_with_intermediate	1,2,0,0,0,0,3,0,0	test	ward_and_allport	1,3,0,2,0,0,0,0,0	82.0	9.0	0.313	1,2,3,0,0,0,0,0,0	to_board	s643
196.193	0.81	0	PA_with_intermediate	1,0,0,0,0,0,3,0,0	test	ward_and_allport	1,3,0,2,0,0,0,0,0	89.0	9.0	0.81	1,2,3,0,0,0,0,0,0	to_hand	s643
197.005	0.352	0	PA_with_intermediate	1,0,0,2,0,0,3,0,0	test	ward_and_allport	1,3,0,2,0,0,0,0,0	71.0	9.0	0.352	1,2,3,0,0,0,0,0,0	to_board	s643
197.361	0.848	0	PA_with_intermediate	1,0,0,2,0,0,0,0,0	test	ward_and_allport	1,3,0,2,0,0,0,0,0	82.0	9.0	0.848	1,2,3,0,0,0,0,0,0	to_hand	s643
198.21	0.234	0	PA_with_intermediate	1,3,0,2,0,0,0,0,0	test	ward_and_allport	1,3,0,2,0,0,0,0,0	89.0	9.0	0.234	1,2,3,0,0,0,0,0,0	to_board	s643
198.45	1.0	0	PA_with_intermediate	n/a	test	ward_and_allport	n/a	-1.0	9.0	n/a	n/a	feedback	s643
199.45	1.0	0	PA_with_intermediate	n/a	test	ward_and_allport	n/a	-1.0	9.0	n/a	n/a	ITI	s643
200.456	10.045	1	PA_with_intermediate	1,2,0,0,0,0,0,0,0	test	ward_and_allport	1,0,0,2,3,0,0,0,0	89.0	10.0	10.045	1,2,3,0,0,0,0,0,0	to_hand	s643
210.503	0.359	0	PA_with_intermediate	1,2,0,0,0,0,3,0,0	test	ward_and_allport	1,0,0,2,3,0,0,0,0	82.0	10.0	0.359	1,2,3,0,0,0,0,0,0	to_board	s643
210.866	1.1	0	PA_with_intermediate	1,0,0,0,0,0,3,0,0	test	ward_and_allport	1,0,0,2,3,0,0,0,0	89.0	10.0	1.1	1,2,3,0,0,0,0,0,0	to_hand	s643
211.967	0.305	0	PA_with_intermediate	1,0,0,2,0,0,3,0,0	test	ward_and_allport	1,0,0,2,3,0,0,0,0	71.0	10.0	0.305	1,2,3,0,0,0,0,0,0	to_board	s643
212.276	0.742	0	PA_with_intermediate	1,0,0,2,0,0,0,0,0	test	ward_and_allport	1,0,0,2,3,0,0,0,0	82.0	10.0	0.742	1,2,3,0,0,0,0,0,0	to_hand	s643
213.02	0.252	0	PA_with_intermediate	1,0,0,2,3,0,0,0,0	test	ward_and_allport	1,0,0,2,3,0,0,0,0	71.0	10.0	0.252	1,2,3,0,0,0,0,0,0	to_board	s643
213.279	1.0	0	PA_with_intermediate	n/a	test	ward_and_allport	n/a	-1.0	10.0	n/a	n/a	feedback	s643
214.279	1.408	0	PA_with_intermediate	n/a	test	ward_and_allport	n/a	-1.0	10.0	n/a	n/a	ITI	s643
215.691	9.153	1	PA_without_intermediate	1,2,0,0,0,0,0,0,0	test	ward_and_allport	0,0,0,3,1,0,2,0,0	89.0	11.0	9.153	1,2,3,0,0,0,0,0,0	to_hand	s643
224.845	0.247	0	PA_without_intermediate	1,2,0,3,0,0,0,0,0	test	ward_and_allport	0,0,0,3,1,0,2,0,0	71.0	11.0	0.247	1,2,3,0,0,0,0,0,0	to_board	s643
225.097	0.777	0	PA_without_intermediate	1,0,0,3,0,0,0,0,0	test	ward_and_allport	0,0,0,3,1,0,2,0,0	89.0	11.0	0.777	1,2,3,0,0,0,0,0,0	to_hand	s643
225.876	0.294	0	PA_without_intermediate	1,0,0,3,0,0,2,0,0	test	ward_and_allport	0,0,0,3,1,0,2,0,0	82.0	11.0	0.294	1,2,3,0,0,0,0,0,0	to_board	s643
226.174	0.676	0	PA_without_intermediate	0,0,0,3,0,0,2,0,0	test	ward_and_allport	0,0,0,3,1,0,2,0,0	89.0	11.0	0.676	1,2,3,0,0,0,0,0,0	to_hand	s643
226.852	0.298	0	PA_without_intermediate	0,0,0,3,1,0,2,0,0	test	ward_and_allport	0,0,0,3,1,0,2,0,0	71.0	11.0	0.298	1,2,3,0,0,0,0,0,0	to_board	s643
227.16	1.0	0	PA_without_intermediate	n/a	test	ward_and_allport	n/a	-1.0	11.0	n/a	n/a	feedback	s643
228.16	1.816	0	PA_without_intermediate	n/a	test	ward_and_allport	n/a	-1.0	11.0	n/a	n/a	ITI	s643
229.981	3.711	1	PA_with_intermediate	0,0,0,0,0,0,1,2,0	test	ward_and_allport	2,0,0,0,0,0,1,3,0	82.0	12.0	3.711	0,0,0,0,0,0,1,2,3	to_hand	s643
233.692	0.254	0	PA_with_intermediate	0,0,0,3,0,0,1,2,0	test	ward_and_allport	2,0,0,0,0,0,1,3,0	71.0	12.0	0.254	0,0,0,0,0,0,1,2,3	to_board	s643
233.951	0.636	0	PA_with_intermediate	0,0,0,3,0,0,1,0,0	test	ward_and_allport	2,0,0,0,0,0,1,3,0	82.0	12.0	0.636	0,0,0,0,0,0,1,2,3	to_hand	s643
234.588	0.243	0	PA_with_intermediate	2,0,0,3,0,0,1,0,0	test	ward_and_allport	2,0,0,0,0,0,1,3,0	89.0	12.0	0.243	0,0,0,0,0,0,1,2,3	to_board	s643
234.837	1.47	0	PA_with_intermediate	2,0,0,0,0,0,1,0,0	test	ward_and_allport	2,0,0,0,0,0,1,3,0	71.0	12.0	1.47	0,0,0,0,0,0,1,2,3	to_hand	s643
236.309	0.262	0	PA_with_intermediate	2,0,0,0,0,0,1,3,0	test	ward_and_allport	2,0,0,0,0,0,1,3,0	82.0	12.0	0.262	0,0,0,0,0,0,1,2,3	to_board	s643
236.58	1.0	0	PA_with_intermediate	n/a	test	ward_and_allport	n/a	-1.0	12.0	n/a	n/a	feedback	s643
237.58	3.176	0	PA_with_intermediate	n/a	test	ward_and_allport	n/a	-1.0	12.0	n/a	n/a	ITI	s643
240.761	15.271	1	PA_with_intermediate	0,0,0,0,0,0,1,2,0	test	ward_and_allport	2,3,0,0,0,0,1,0,0	82.0	13.0	15.271	0,0,0,0,0,0,1,2,3	to_hand	s643
256.034	0.277	0	PA_with_intermediate	0,0,0,3,0,0,1,2,0	test	ward_and_allport	2,3,0,0,0,0,1,0,0	71.0	13.0	0.277	0,0,0,0,0,0,1,2,3	to_board	s643
256.316	1.303	0	PA_with_intermediate	0,0,0,3,0,0,1,0,0	test	ward_and_allport	2,3,0,0,0,0,1,0,0	82.0	13.0	1.303	0,0,0,0,0,0,1,2,3	to_hand	s643
257.621	0.288	0	PA_with_intermediate	2,0,0,3,0,0,1,0,0	test	ward_and_allport	2,3,0,0,0,0,1,0,0	89.0	13.0	0.288	0,0,0,0,0,0,1,2,3	to_board	s643
257.913	0.733	0	PA_with_intermediate	2,0,0,0,0,0,1,0,0	test	ward_and_allport	2,3,0,0,0,0,1,0,0	71.0	13.0	0.733	0,0,0,0,0,0,1,2,3	to_hand	s643
258.648	0.266	0	PA_with_intermediate	2,3,0,0,0,0,1,0,0	test	ward_and_allport	2,3,0,0,0,0,1,0,0	89.0	13.0	0.266	0,0,0,0,0,0,1,2,3	to_board	s643
258.924	1.0	0	PA_with_intermediate	n/a	test	ward_and_allport	n/a	-1.0	13.0	n/a	n/a	feedback	s643
259.924	2.36	0	PA_with_intermediate	n/a	test	ward_and_allport	n/a	-1.0	13.0	n/a	n/a	ITI	s643
262.292	3.084	1	PA_with_intermediate	0,0,0,1,2,0,0,0,0	test	ward_and_allport	0,0,0,1,0,0,2,3,0	71.0	14.0	3.084	0,0,0,1,2,3,0,0,0	to_hand	s643
265.377	0.204	0	PA_with_intermediate	3,0,0,1,2,0,0,0,0	test	ward_and_allport	0,0,0,1,0,0,2,3,0	89.0	14.0	0.204	0,0,0,1,2,3,0,0,0	to_board	s643
265.586	0.528	0	PA_with_intermediate	3,0,0,1,0,0,0,0,0	test	ward_and_allport	0,0,0,1,0,0,2,3,0	71.0	14.0	0.528	0,0,0,1,2,3,0,0,0	to_hand	s643
266.115	0.557	0	PA_with_intermediate	3,0,0,1,0,0,2,0,0	test	ward_and_allport	0,0,0,1,0,0,2,3,0	82.0	14.0	0.557	0,0,0,1,2,3,0,0,0	to_board	s643
266.676	0.692	0	PA_with_intermediate	0,0,0,1,0,0,2,0,0	test	ward_and_allport	0,0,0,1,0,0,2,3,0	89.0	14.0	0.692	0,0,0,1,2,3,0,0,0	to_hand	s643
267.369	0.429	0	PA_with_intermediate	0,0,0,1,0,0,2,3,0	test	ward_and_allport	0,0,0,1,0,0,2,3,0	82.0	14.0	0.429	0,0,0,1,2,3,0,0,0	to_board	s643
267.806	1.0	0	PA_with_intermediate	n/a	test	ward_and_allport	n/a	-1.0	14.0	n/a	n/a	feedback	s643
268.806	1.0	0	PA_with_intermediate	n/a	test	ward_and_allport	n/a	-1.0	14.0	n/a	n/a	ITI	s643
274.819	4.033	1	PA_without_intermediate	0,0,0,1,2,0,0,0,0	test	ward_and_allport	1,0,0,0,0,0,3,2,0	71.0	15.0	4.033	0,0,0,1,2,3,0,0,0	to_hand	s643
278.854	0.737	0	PA_without_intermediate	0,0,0,1,2,0,3,0,0	test	ward_and_allport	1,0,0,0,0,0,3,2,0	82.0	15.0	0.737	0,0,0,1,2,3,0,0,0	to_board	s643
279.596	0.613	0	PA_without_intermediate	0,0,0,1,0,0,3,0,0	test	ward_and_allport	1,0,0,0,0,0,3,2,0	71.0	15.0	0.613	0,0,0,1,2,3,0,0,0	to_hand	s643
280.21	0.882	0	PA_without_intermediate	0,0,0,1,0,0,3,2,0	test	ward_and_allport	1,0,0,0,0,0,3,2,0	82.0	15.0	0.882	0,0,0,1,2,3,0,0,0	to_board	s643
281.097	0.551	0	PA_without_intermediate	0,0,0,0,0,0,3,2,0	test	ward_and_allport	1,0,0,0,0,0,3,2,0	71.0	15.0	0.551	0,0,0,1,2,3,0,0,0	to_hand	s643
281.65	0.492	0	PA_without_intermediate	1,0,0,0,0,0,3,2,0	test	ward_and_allport	1,0,0,0,0,0,3,2,0	89.0	15.0	0.492	0,0,0,1,2,3,0,0,0	to_board	s643
282.151	1.0	0	PA_without_intermediate	n/a	test	ward_and_allport	n/a	-1.0	15.0	n/a	n/a	feedback	s643
283.151	1.408	0	PA_without_intermediate	n/a	test	ward_and_allport	n/a	-1.0	15.0	n/a	n/a	ITI	s643
284.564	9.486	1	PA_with_intermediate	1,2,0,0,0,0,0,0,0	test	ward_and_allport	1,0,0,2,3,0,0,0,0	89.0	16.0	9.486	1,2,3,0,0,0,0,0,0	to_hand	s643
294.052	0.355	0	PA_with_intermediate	1,2,0,0,0,0,3,0,0	test	ward_and_allport	1,0,0,2,3,0,0,0,0	82.0	16.0	0.355	1,2,3,0,0,0,0,0,0	to_board	s643
294.412	0.782	0	PA_with_intermediate	1,0,0,0,0,0,3,0,0	test	ward_and_allport	1,0,0,2,3,0,0,0,0	89.0	16.0	0.782	1,2,3,0,0,0,0,0,0	to_hand	s643
295.196	0.314	0	PA_with_intermediate	1,0,0,2,0,0,3,0,0	test	ward_and_allport	1,0,0,2,3,0,0,0,0	71.0	16.0	0.314	1,2,3,0,0,0,0,0,0	to_board	s643
295.515	0.669	0	PA_with_intermediate	1,0,0,2,0,0,0,0,0	test	ward_and_allport	1,0,0,2,3,0,0,0,0	82.0	16.0	0.669	1,2,3,0,0,0,0,0,0	to_hand	s643
296.185	0.298	0	PA_with_intermediate	1,0,0,2,3,0,0,0,0	test	ward_and_allport	1,0,0,2,3,0,0,0,0	71.0	16.0	0.298	1,2,3,0,0,0,0,0,0	to_board	s643
296.492	1.0	0	PA_with_intermediate	n/a	test	ward_and_allport	n/a	-1.0	16.0	n/a	n/a	feedback	s643
297.492	1.816	0	PA_with_intermediate	n/a	test	ward_and_allport	n/a	-1.0	16.0	n/a	n/a	ITI	s643
299.314	4.793	1	PA_without_intermediate	0,0,0,1,2,0,0,0,0	test	ward_and_allport	2,0,0,0,0,0,3,1,0	71.0	17.0	4.793	0,0,0,1,2,3,0,0,0	to_hand	s643
304.107	0.441	0	PA_without_intermediate	0,0,0,1,2,0,3,0,0	test	ward_and_allport	2,0,0,0,0,0,3,1,0	82.0	17.0	0.441	0,0,0,1,2,3,0,0,0	to_board	s643
304.553	0.439	0	PA_without_intermediate	0,0,0,1,0,0,3,0,0	test	ward_and_allport	2,0,0,0,0,0,3,1,0	71.0	17.0	0.439	0,0,0,1,2,3,0,0,0	to_hand	s643
304.993	0.392	0	PA_without_intermediate	2,0,0,1,0,0,3,0,0	test	ward_and_allport	2,0,0,0,0,0,3,1,0	89.0	17.0	0.392	0,0,0,1,2,3,0,0,0	to_board	s643
305.39	0.524	0	PA_without_intermediate	2,0,0,0,0,0,3,0,0	test	ward_and_allport	2,0,0,0,0,0,3,1,0	71.0	17.0	0.524	0,0,0,1,2,3,0,0,0	to_hand	s643
305.916	0.421	0	PA_without_intermediate	2,0,0,0,0,0,3,1,0	test	ward_and_allport	2,0,0,0,0,0,3,1,0	82.0	17.0	0.421	0,0,0,1,2,3,0,0,0	to_board	s643
306.342	1.0	0	PA_without_intermediate	n/a	test	ward_and_allport	n/a	-1.0	17.0	n/a	n/a	feedback	s643
307.342	2.088	0	PA_without_intermediate	n/a	test	ward_and_allport	n/a	-1.0	17.0	n/a	n/a	ITI	s643
309.437	3.956	1	PA_without_intermediate	0,0,0,1,2,0,0,0,0	test	ward_and_allport	3,2,0,0,0,0,1,0,0	71.0	18.0	3.956	0,0,0,1,2,3,0,0,0	to_hand	s643
313.395	0.272	0	PA_without_intermediate	3,0,0,1,2,0,0,0,0	test	ward_and_allport	3,2,0,0,0,0,1,0,0	89.0	18.0	0.272	0,0,0,1,2,3,0,0,0	to_board	s643
313.672	0.434	0	PA_without_intermediate	3,0,0,1,0,0,0,0,0	test	ward_and_allport	3,2,0,0,0,0,1,0,0	71.0	18.0	0.434	0,0,0,1,2,3,0,0,0	to_hand	s643
314.108	0.247	0	PA_without_intermediate	3,2,0,1,0,0,0,0,0	test	ward_and_allport	3,2,0,0,0,0,1,0,0	89.0	18.0	0.247	0,0,0,1,2,3,0,0,0	to_board	s643
314.36	0.629	0	PA_without_intermediate	3,2,0,0,0,0,0,0,0	test	ward_and_allport	3,2,0,0,0,0,1,0,0	71.0	18.0	0.629	0,0,0,1,2,3,0,0,0	to_hand	s643
314.991	0.271	0	PA_without_intermediate	3,2,0,0,0,0,1,0,0	test	ward_and_allport	3,2,0,0,0,0,1,0,0	82.0	18.0	0.271	0,0,0,1,2,3,0,0,0	to_board	s643
315.271	1.0	0	PA_without_intermediate	n/a	test	ward_and_allport	n/a	-1.0	18.0	n/a	n/a	feedback	s643
316.271	1.136	0	PA_without_intermediate	n/a	test	ward_and_allport	n/a	-1.0	18.0	n/a	n/a	ITI	s643
317.414	6.337	1	PA_without_intermediate	0,0,0,1,2,0,0,0,0	test	ward_and_allport	1,0,0,0,0,0,3,2,0	71.0	19.0	6.337	0,0,0,1,2,3,0,0,0	to_hand	s643
323.752	0.276	0	PA_without_intermediate	0,0,0,1,2,0,3,0,0	test	ward_and_allport	1,0,0,0,0,0,3,2,0	82.0	19.0	0.276	0,0,0,1,2,3,0,0,0	to_board	s643
324.034	0.389	0	PA_without_intermediate	0,0,0,1,0,0,3,0,0	test	ward_and_allport	1,0,0,0,0,0,3,2,0	71.0	19.0	0.389	0,0,0,1,2,3,0,0,0	to_hand	s643
324.423	0.254	0	PA_without_intermediate	0,0,0,1,0,0,3,2,0	test	ward_and_allport	1,0,0,0,0,0,3,2,0	82.0	19.0	0.254	0,0,0,1,2,3,0,0,0	to_board	s643
324.683	0.371	0	PA_without_intermediate	0,0,0,0,0,0,3,2,0	test	ward_and_allport	1,0,0,0,0,0,3,2,0	71.0	19.0	0.371	0,0,0,1,2,3,0,0,0	to_hand	s643
325.054	0.217	0	PA_without_intermediate	1,0,0,0,0,0,3,2,0	test	ward_and_allport	1,0,0,0,0,0,3,2,0	89.0	19.0	0.217	0,0,0,1,2,3,0,0,0	to_board	s643
325.282	1.0	0	PA_without_intermediate	n/a	test	ward_and_allport	n/a	-1.0	19.0	n/a	n/a	feedback	s643
326.282	6.168	0	PA_without_intermediate	n/a	test	ward_and_allport	n/a	-1.0	19.0	n/a	n/a	ITI	s643
332.457	14.661	1	PA_without_intermediate	0,0,0,0,0,0,1,2,0	test	ward_and_allport	3,1,0,2,0,0,0,0,0	82.0	20.0	14.661	0,0,0,0,0,0,1,2,3	to_hand	s643
347.12	0.399	0	PA_without_intermediate	0,0,0,3,0,0,1,2,0	test	ward_and_allport	3,1,0,2,0,0,0,0,0	71.0	20.0	0.399	0,0,0,0,0,0,1,2,3	to_board	s643
347.525	0.726	0	PA_without_intermediate	0,0,0,3,0,0,1,0,0	test	ward_and_allport	3,1,0,2,0,0,0,0,0	82.0	20.0	0.726	0,0,0,0,0,0,1,2,3	to_hand	s643
348.253	3.743	0	PA_without_intermediate	0,0,0,3,0,0,1,2,0	test	ward_and_allport	3,1,0,2,0,0,0,0,0	82.0	20.0	3.743	0,0,0,0,0,0,1,2,3	to_board	s643
352.001	0.759	0	PA_without_intermediate	0,0,0,0,0,0,1,2,0	test	ward_and_allport	3,1,0,2,0,0,0,0,0	71.0	20.0	0.759	0,0,0,0,0,0,1,2,3	to_hand	s643
352.762	0.43	0	PA_without_intermediate	3,0,0,0,0,0,1,2,0	test	ward_and_allport	3,1,0,2,0,0,0,0,0	89.0	20.0	0.43	0,0,0,0,0,0,1,2,3	to_board	s643
353.198	0.424	0	PA_without_intermediate	3,0,0,0,0,0,1,0,0	test	ward_and_allport	3,1,0,2,0,0,0,0,0	82.0	20.0	0.424	0,0,0,0,0,0,1,2,3	to_hand	s643
353.623	0.355	0	PA_without_intermediate	3,0,0,2,0,0,1,0,0	test	ward_and_allport	3,1,0,2,0,0,0,0,0	71.0	20.0	0.355	0,0,0,0,0,0,1,2,3	to_board	s643
353.984	1.405	0	PA_without_intermediate	3,0,0,2,0,0,0,0,0	test	ward_and_allport	3,1,0,2,0,0,0,0,0	82.0	20.0	1.405	0,0,0,0,0,0,1,2,3	to_hand	s643
355.391	0.327	0	PA_without_intermediate	3,1,0,2,0,0,0,0,0	test	ward_and_allport	3,1,0,2,0,0,0,0,0	89.0	20.0	0.327	0,0,0,0,0,0,1,2,3	to_board	s643
355.727	1.0	0	PA_without_intermediate	n/a	test	ward_and_allport	n/a	-1.0	20.0	n/a	n/a	feedback	s643
356.727	1.816	0	PA_without_intermediate	n/a	test	ward_and_allport	n/a	-1.0	20.0	n/a	n/a	ITI	s643
358.55	5.167	1	PA_with_intermediate	0,0,0,1,2,0,0,0,0	test	ward_and_allport	2,0,0,1,3,0,0,0,0	71.0	21.0	5.167	0,0,0,1,2,3,0,0,0	to_hand	s643
363.718	0.317	0	PA_with_intermediate	0,0,0,1,2,0,3,0,0	test	ward_and_allport	2,0,0,1,3,0,0,0,0	82.0	21.0	0.317	0,0,0,1,2,3,0,0,0	to_board	s643
364.041	0.356	0	PA_with_intermediate	0,0,0,1,0,0,3,0,0	test	ward_and_allport	2,0,0,1,3,0,0,0,0	71.0	21.0	0.356	0,0,0,1,2,3,0,0,0	to_hand	s643
364.398	0.301	0	PA_with_intermediate	2,0,0,1,0,0,3,0,0	test	ward_and_allport	2,0,0,1,3,0,0,0,0	89.0	21.0	0.301	0,0,0,1,2,3,0,0,0	to_board	s643
364.706	0.423	0	PA_with_intermediate	2,0,0,1,0,0,0,0,0	test	ward_and_allport	2,0,0,1,3,0,0,0,0	82.0	21.0	0.423	0,0,0,1,2,3,0,0,0	to_hand	s643
365.13	0.264	0	PA_with_intermediate	2,0,0,1,3,0,0,0,0	test	ward_and_allport	2,0,0,1,3,0,0,0,0	71.0	21.0	0.264	0,0,0,1,2,3,0,0,0	to_board	s643
365.405	1.0	0	PA_with_intermediate	n/a	test	ward_and_allport	n/a	-1.0	21.0	n/a	n/a	feedback	s643
366.405	1.952	0	PA_with_intermediate	n/a	test	ward_and_allport	n/a	-1.0	21.0	n/a	n/a	ITI	s643
368.364	3.899	1	PA_with_intermediate	1,2,0,0,0,0,0,0,0	test	ward_and_allport	1,3,0,0,0,0,2,0,0	89.0	22.0	3.899	1,2,3,0,0,0,0,0,0	to_hand	s643
372.265	0.253	0	PA_with_intermediate	1,2,0,3,0,0,0,0,0	test	ward_and_allport	1,3,0,0,0,0,2,0,0	71.0	22.0	0.253	1,2,3,0,0,0,0,0,0	to_board	s643
372.525	0.393	0	PA_with_intermediate	1,0,0,3,0,0,0,0,0	test	ward_and_allport	1,3,0,0,0,0,2,0,0	89.0	22.0	0.393	1,2,3,0,0,0,0,0,0	to_hand	s643
372.92	0.294	0	PA_with_intermediate	1,0,0,3,0,0,2,0,0	test	ward_and_allport	1,3,0,0,0,0,2,0,0	82.0	22.0	0.294	1,2,3,0,0,0,0,0,0	to_board	s643
373.221	0.407	0	PA_with_intermediate	1,0,0,0,0,0,2,0,0	test	ward_and_allport	1,3,0,0,0,0,2,0,0	71.0	22.0	0.407	1,2,3,0,0,0,0,0,0	to_hand	s643
373.63	0.252	0	PA_with_intermediate	1,3,0,0,0,0,2,0,0	test	ward_and_allport	1,3,0,0,0,0,2,0,0	89.0	22.0	0.252	1,2,3,0,0,0,0,0,0	to_board	s643
373.894	1.0	0	PA_with_intermediate	n/a	test	ward_and_allport	n/a	-1.0	22.0	n/a	n/a	feedback	s643
374.894	1.136	0	PA_with_intermediate	n/a	test	ward_and_allport	n/a	-1.0	22.0	n/a	n/a	ITI	s643
376.038	12.862	1	PA_without_intermediate	1,2,0,0,0,0,0,0,0	test	ward_and_allport	0,0,0,3,1,0,2,0,0	89.0	23.0	12.862	1,2,3,0,0,0,0,0,0	to_hand	s643
388.902	1.407	0	PA_without_intermediate	1,2,0,3,0,0,0,0,0	test	ward_and_allport	0,0,0,3,1,0,2,0,0	71.0	23.0	1.407	1,2,3,0,0,0,0,0,0	to_board	s643
390.316	0.797	0	PA_without_intermediate	1,0,0,3,0,0,0,0,0	test	ward_and_allport	0,0,0,3,1,0,2,0,0	89.0	23.0	0.797	1,2,3,0,0,0,0,0,0	to_hand	s643
391.115	1.276	0	PA_without_intermediate	1,0,0,3,0,0,2,0,0	test	ward_and_allport	0,0,0,3,1,0,2,0,0	82.0	23.0	1.276	1,2,3,0,0,0,0,0,0	to_board	s643
392.397	0.773	0	PA_without_intermediate	0,0,0,3,0,0,2,0,0	test	ward_and_allport	0,0,0,3,1,0,2,0,0	89.0	23.0	0.773	1,2,3,0,0,0,0,0,0	to_hand	s643
393.172	0.59	0	PA_without_intermediate	0,0,0,3,1,0,2,0,0	test	ward_and_allport	0,0,0,3,1,0,2,0,0	71.0	23.0	0.59	1,2,3,0,0,0,0,0,0	to_board	s643
393.77	1.0	0	PA_without_intermediate	n/a	test	ward_and_allport	n/a	-1.0	23.0	n/a	n/a	feedback	s643
394.77	1.68	0	PA_without_intermediate	n/a	test	ward_and_allport	n/a	-1.0	23.0	n/a	n/a	ITI	s643
396.456	5.042	1	PA_without_intermediate	0,0,0,1,2,0,0,0,0	test	ward_and_allport	2,0,0,0,0,0,3,1,0	71.0	24.0	5.042	0,0,0,1,2,3,0,0,0	to_hand	s643
401.499	0.255	0	PA_without_intermediate	0,0,0,1,2,0,3,0,0	test	ward_and_allport	2,0,0,0,0,0,3,1,0	82.0	24.0	0.255	0,0,0,1,2,3,0,0,0	to_board	s643
401.763	0.728	0	PA_without_intermediate	0,0,0,1,0,0,3,0,0	test	ward_and_allport	2,0,0,0,0,0,3,1,0	71.0	24.0	0.728	0,0,0,1,2,3,0,0,0	to_hand	s643
402.492	0.224	0	PA_without_intermediate	2,0,0,1,0,0,3,0,0	test	ward_and_allport	2,0,0,0,0,0,3,1,0	89.0	24.0	0.224	0,0,0,1,2,3,0,0,0	to_board	s643
402.723	0.635	0	PA_without_intermediate	2,0,0,0,0,0,3,0,0	test	ward_and_allport	2,0,0,0,0,0,3,1,0	71.0	24.0	0.635	0,0,0,1,2,3,0,0,0	to_hand	s643
403.359	0.279	0	PA_without_intermediate	2,0,0,0,0,0,3,1,0	test	ward_and_allport	2,0,0,0,0,0,3,1,0	82.0	24.0	0.279	0,0,0,1,2,3,0,0,0	to_board	s643
403.648	1.0	0	PA_without_intermediate	n/a	test	ward_and_allport	n/a	-1.0	24.0	n/a	n/a	feedback	s643
404.648	2.088	0	PA_without_intermediate	n/a	test	ward_and_allport	n/a	-1.0	24.0	n/a	n/a	ITI	s643
406.743	6.296	1	PA_with_intermediate	0,0,0,0,0,0,1,2,0	test	ward_and_allport	0,0,0,2,3,0,1,0,0	82.0	25.0	6.296	0,0,0,0,0,0,1,2,3	to_hand	s643
413.04	0.46	0	PA_with_intermediate	3,0,0,0,0,0,1,2,0	test	ward_and_allport	0,0,0,2,3,0,1,0,0	89.0	25.0	0.46	0,0,0,0,0,0,1,2,3	to_board	s643
413.506	0.916	0	PA_with_intermediate	3,0,0,0,0,0,1,0,0	test	ward_and_allport	0,0,0,2,3,0,1,0,0	82.0	25.0	0.916	0,0,0,0,0,0,1,2,3	to_hand	s643
414.423	0.405	0	PA_with_intermediate	3,0,0,2,0,0,1,0,0	test	ward_and_allport	0,0,0,2,3,0,1,0,0	71.0	25.0	0.405	0,0,0,0,0,0,1,2,3	to_board	s643
414.835	0.516	0	PA_with_intermediate	0,0,0,2,0,0,1,0,0	test	ward_and_allport	0,0,0,2,3,0,1,0,0	89.0	25.0	0.516	0,0,0,0,0,0,1,2,3	to_hand	s643
415.353	0.237	0	PA_with_intermediate	0,0,0,2,3,0,1,0,0	test	ward_and_allport	0,0,0,2,3,0,1,0,0	71.0	25.0	0.237	0,0,0,0,0,0,1,2,3	to_board	s643
415.601	1.0	0	PA_with_intermediate	n/a	test	ward_and_allport	n/a	-1.0	25.0	n/a	n/a	feedback	s643
416.601	1.0	0	PA_with_intermediate	n/a	test	ward_and_allport	n/a	-1.0	25.0	n/a	n/a	ITI	s643
417.609	9.726	1	PA_without_intermediate	0,0,0,0,0,0,1,2,0	test	ward_and_allport	1,0,0,3,2,0,0,0,0	82.0	26.0	9.726	0,0,0,0,0,0,1,2,3	to_hand	s643
427.337	0.268	0	PA_without_intermediate	0,0,0,3,0,0,1,2,0	test	ward_and_allport	1,0,0,3,2,0,0,0,0	71.0	26.0	0.268	0,0,0,0,0,0,1,2,3	to_board	s643
427.612	0.686	0	PA_without_intermediate	0,0,0,3,0,0,1,0,0	test	ward_and_allport	1,0,0,3,2,0,0,0,0	82.0	26.0	0.686	0,0,0,0,0,0,1,2,3	to_hand	s643
428.3	0.31	0	PA_without_intermediate	0,0,0,3,2,0,1,0,0	test	ward_and_allport	1,0,0,3,2,0,0,0,0	71.0	26.0	0.31	0,0,0,0,0,0,1,2,3	to_board	s643
428.616	1.454	0	PA_without_intermediate	0,0,0,3,2,0,0,0,0	test	ward_and_allport	1,0,0,3,2,0,0,0,0	82.0	26.0	1.454	0,0,0,0,0,0,1,2,3	to_hand	s643
430.072	0.449	0	PA_without_intermediate	1,0,0,3,2,0,0,0,0	test	ward_and_allport	1,0,0,3,2,0,0,0,0	89.0	26.0	0.449	0,0,0,0,0,0,1,2,3	to_board	s643
430.53	1.0	0	PA_without_intermediate	n/a	test	ward_and_allport	n/a	-1.0	26.0	n/a	n/a	feedback	s643
431.53	1.0	0	PA_without_intermediate	n/a	test	ward_and_allport	n/a	-1.0	26.0	n/a	n/a	ITI	s643
432.539	8.993	1	PA_without_intermediate	1,2,0,0,0,0,0,0,0	test	ward_and_allport	0,0,0,2,0,0,3,1,0	89.0	27.0	8.993	1,2,3,0,0,0,0,0,0	to_hand	s643
441.534	0.23	0	PA_without_intermediate	1,2,0,0,0,0,3,0,0	test	ward_and_allport	0,0,0,2,0,0,3,1,0	82.0	27.0	0.23	1,2,3,0,0,0,0,0,0	to_board	s643
441.771	1.036	0	PA_without_intermediate	1,0,0,0,0,0,3,0,0	test	ward_and_allport	0,0,0,2,0,0,3,1,0	89.0	27.0	1.036	1,2,3,0,0,0,0,0,0	to_hand	s643
442.809	0.277	0	PA_without_intermediate	1,0,0,2,0,0,3,0,0	test	ward_and_allport	0,0,0,2,0,0,3,1,0	71.0	27.0	0.277	1,2,3,0,0,0,0,0,0	to_board	s643
443.093	0.641	0	PA_without_intermediate	0,0,0,2,0,0,3,0,0	test	ward_and_allport	0,0,0,2,0,0,3,1,0	89.0	27.0	0.641	1,2,3,0,0,0,0,0,0	to_hand	s643
443.736	0.423	0	PA_without_intermediate	0,0,0,2,0,0,3,1,0	test	ward_and_allport	0,0,0,2,0,0,3,1,0	82.0	27.0	0.423	1,2,3,0,0,0,0,0,0	to_board	s643
444.17	1.0	0	PA_without_intermediate	n/a	test	ward_and_allport	n/a	-1.0	27.0	n/a	n/a	feedback	s643
445.17	1.0	0	PA_without_intermediate	n/a	test	ward_and_allport	n/a	-1.0	27.0	n/a	n/a	ITI	s643
446.177	4.535	1	PA_with_intermediate	1,2,0,0,0,0,0,0,0	test	ward_and_allport	1,3,0,0,0,0,2,0,0	89.0	28.0	4.535	1,2,3,0,0,0,0,0,0	to_hand	s643
450.713	0.25	0	PA_with_intermediate	1,2,0,3,0,0,0,0,0	test	ward_and_allport	1,3,0,0,0,0,2,0,0	71.0	28.0	0.25	1,2,3,0,0,0,0,0,0	to_board	s643
450.969	0.547	0	PA_with_intermediate	1,0,0,3,0,0,0,0,0	test	ward_and_allport	1,3,0,0,0,0,2,0,0	89.0	28.0	0.547	1,2,3,0,0,0,0,0,0	to_hand	s643
451.518	0.274	0	PA_with_intermediate	1,0,0,3,0,0,2,0,0	test	ward_and_allport	1,3,0,0,0,0,2,0,0	82.0	28.0	0.274	1,2,3,0,0,0,0,0,0	to_board	s643
451.799	0.59	0	PA_with_intermediate	1,0,0,0,0,0,2,0,0	test	ward_and_allport	1,3,0,0,0,0,2,0,0	71.0	28.0	0.59	1,2,3,0,0,0,0,0,0	to_hand	s643
452.39	0.21	0	PA_with_intermediate	1,3,0,0,0,0,2,0,0	test	ward_and_allport	1,3,0,0,0,0,2,0,0	89.0	28.0	0.21	1,2,3,0,0,0,0,0,0	to_board	s643
452.611	1.0	0	PA_with_intermediate	n/a	test	ward_and_allport	n/a	-1.0	28.0	n/a	n/a	feedback	s643
453.611	1.544	0	PA_with_intermediate	n/a	test	ward_and_allport	n/a	-1.0	28.0	n/a	n/a	ITI	s643
455.164	3.264	1	PA_without_intermediate	1,2,0,0,0,0,0,0,0	test	ward_and_allport	0,0,0,3,2,0,1,0,0	89.0	29.0	3.264	1,2,3,0,0,0,0,0,0	to_hand	s643
458.43	0.239	0	PA_without_intermediate	1,2,0,3,0,0,0,0,0	test	ward_and_allport	0,0,0,3,2,0,1,0,0	71.0	29.0	0.239	1,2,3,0,0,0,0,0,0	to_board	s643
458.677	0.594	0	PA_without_intermediate	1,0,0,3,0,0,0,0,0	test	ward_and_allport	0,0,0,3,2,0,1,0,0	89.0	29.0	0.594	1,2,3,0,0,0,0,0,0	to_hand	s643
459.272	0.241	0	PA_without_intermediate	1,0,0,3,2,0,0,0,0	test	ward_and_allport	0,0,0,3,2,0,1,0,0	71.0	29.0	0.241	1,2,3,0,0,0,0,0,0	to_board	s643
459.521	0.538	0	PA_without_intermediate	0,0,0,3,2,0,0,0,0	test	ward_and_allport	0,0,0,3,2,0,1,0,0	89.0	29.0	0.538	1,2,3,0,0,0,0,0,0	to_hand	s643
460.061	0.273	0	PA_without_intermediate	0,0,0,3,2,0,1,0,0	test	ward_and_allport	0,0,0,3,2,0,1,0,0	82.0	29.0	0.273	1,2,3,0,0,0,0,0,0	to_board	s643
460.346	1.0	0	PA_without_intermediate	n/a	test	ward_and_allport	n/a	-1.0	29.0	n/a	n/a	feedback	s643
461.346	1.272	0	PA_without_intermediate	n/a	test	ward_and_allport	n/a	-1.0	29.0	n/a	n/a	ITI	s643
467.631	11.628	1	PA_with_intermediate	0,0,0,0,0,0,1,2,0	test	ward_and_allport	0,0,0,2,3,0,1,0,0	82.0	30.0	11.628	0,0,0,0,0,0,1,2,3	to_hand	s643
479.261	0.349	0	PA_with_intermediate	3,0,0,0,0,0,1,2,0	test	ward_and_allport	0,0,0,2,3,0,1,0,0	89.0	30.0	0.349	0,0,0,0,0,0,1,2,3	to_board	s643
479.618	0.821	0	PA_with_intermediate	3,0,0,0,0,0,1,0,0	test	ward_and_allport	0,0,0,2,3,0,1,0,0	82.0	30.0	0.821	0,0,0,0,0,0,1,2,3	to_hand	s643
480.441	0.301	0	PA_with_intermediate	3,0,0,2,0,0,1,0,0	test	ward_and_allport	0,0,0,2,3,0,1,0,0	71.0	30.0	0.301	0,0,0,0,0,0,1,2,3	to_board	s643
480.75	0.491	0	PA_with_intermediate	0,0,0,2,0,0,1,0,0	test	ward_and_allport	0,0,0,2,3,0,1,0,0	89.0	30.0	0.491	0,0,0,0,0,0,1,2,3	to_hand	s643
481.242	0.282	0	PA_with_intermediate	0,0,0,2,3,0,1,0,0	test	ward_and_allport	0,0,0,2,3,0,1,0,0	71.0	30.0	0.282	0,0,0,0,0,0,1,2,3	to_board	s643
481.536	1.0	0	PA_with_intermediate	n/a	test	ward_and_allport	n/a	-1.0	30.0	n/a	n/a	feedback	s643
482.536	3.04	0	PA_with_intermediate	n/a	test	ward_and_allport	n/a	-1.0	30.0	n/a	n/a	ITI	s643
485.584	8.873	1	PA_with_intermediate	1,2,0,0,0,0,0,0,0	test	ward_and_allport	1,3,0,2,0,0,0,0,0	89.0	31.0	8.873	1,2,3,0,0,0,0,0,0	to_hand	s643
494.458	0.384	0	PA_with_intermediate	1,2,0,0,0,0,3,0,0	test	ward_and_allport	1,3,0,2,0,0,0,0,0	82.0	31.0	0.384	1,2,3,0,0,0,0,0,0	to_board	s643
494.851	0.604	0	PA_with_intermediate	1,0,0,0,0,0,3,0,0	test	ward_and_allport	1,3,0,2,0,0,0,0,0	89.0	31.0	0.604	1,2,3,0,0,0,0,0,0	to_hand	s643
495.456	0.326	0	PA_with_intermediate	1,0,0,2,0,0,3,0,0	test	ward_and_allport	1,3,0,2,0,0,0,0,0	71.0	31.0	0.326	1,2,3,0,0,0,0,0,0	to_board	s643
495.791	0.593	0	PA_with_intermediate	1,0,0,2,0,0,0,0,0	test	ward_and_allport	1,3,0,2,0,0,0,0,0	82.0	31.0	0.593	1,2,3,0,0,0,0,0,0	to_hand	s643
496.385	0.225	0	PA_with_intermediate	1,3,0,2,0,0,0,0,0	test	ward_and_allport	1,3,0,2,0,0,0,0,0	89.0	31.0	0.225	1,2,3,0,0,0,0,0,0	to_board	s643
496.624	1.0	0	PA_with_intermediate	n/a	test	ward_and_allport	n/a	-1.0	31.0	n/a	n/a	feedback	s643
497.624	1.272	0	PA_with_intermediate	n/a	test	ward_and_allport	n/a	-1.0	31.0	n/a	n/a	ITI	s643
498.906	2.181	1	PA_with_intermediate	0,0,0,1,2,0,0,0,0	test	ward_and_allport	0,0,0,1,3,0,2,0,0	71.0	32.0	2.181	0,0,0,1,2,3,0,0,0	to_hand	s643
501.089	0.268	0	PA_with_intermediate	3,0,0,1,2,0,0,0,0	test	ward_and_allport	0,0,0,1,3,0,2,0,0	89.0	32.0	0.268	0,0,0,1,2,3,0,0,0	to_board	s643
501.366	0.482	0	PA_with_intermediate	3,0,0,1,0,0,0,0,0	test	ward_and_allport	0,0,0,1,3,0,2,0,0	71.0	32.0	0.482	0,0,0,1,2,3,0,0,0	to_hand	s643
501.85	0.268	0	PA_with_intermediate	3,0,0,1,0,0,2,0,0	test	ward_and_allport	0,0,0,1,3,0,2,0,0	82.0	32.0	0.268	0,0,0,1,2,3,0,0,0	to_board	s643
502.125	0.774	0	PA_with_intermediate	0,0,0,1,0,0,2,0,0	test	ward_and_allport	0,0,0,1,3,0,2,0,0	89.0	32.0	0.774	0,0,0,1,2,3,0,0,0	to_hand	s643
502.901	0.269	0	PA_with_intermediate	0,0,0,1,3,0,2,0,0	test	ward_and_allport	0,0,0,1,3,0,2,0,0	71.0	32.0	0.269	0,0,0,1,2,3,0,0,0	to_board	s643
503.18	1.0	0	PA_with_intermediate	n/a	test	ward_and_allport	n/a	-1.0	32.0	n/a	n/a	feedback	s643
504.18	1.136	0	PA_with_intermediate	n/a	test	ward_and_allport	n/a	-1.0	32.0	n/a	n/a	ITI	s643
505.323	2.294	1	PA_with_intermediate	0,0,0,1,2,0,0,0,0	test	ward_and_allport	2,3,0,1,0,0,0,0,0	71.0	33.0	2.294	0,0,0,1,2,3,0,0,0	to_hand	s643
507.617	0.341	0	PA_with_intermediate	0,0,0,1,2,3,0,0,0	test	ward_and_allport	2,3,0,1,0,0,0,0,0	71.0	33.0	0.341	0,0,0,1,2,3,0,0,0	to_board	s643
507.965	0.741	0	PA_with_intermediate	0,0,0,1,2,0,0,0,0	test	ward_and_allport	2,3,0,1,0,0,0,0,0	71.0	33.0	0.741	0,0,0,1,2,3,0,0,0	to_hand	s643
508.707	0.346	0	PA_with_intermediate	0,0,0,1,2,0,3,0,0	test	ward_and_allport	2,3,0,1,0,0,0,0,0	82.0	33.0	0.346	0,0,0,1,2,3,0,0,0	to_board	s643
509.062	0.731	0	PA_with_intermediate	0,0,0,1,0,0,3,0,0	test	ward_and_allport	2,3,0,1,0,0,0,0,0	71.0	33.0	0.731	0,0,0,1,2,3,0,0,0	to_hand	s643
509.794	0.251	0	PA_with_intermediate	2,0,0,1,0,0,3,0,0	test	ward_and_allport	2,3,0,1,0,0,0,0,0	89.0	33.0	0.251	0,0,0,1,2,3,0,0,0	to_board	s643
510.055	1.061	0	PA_with_intermediate	2,0,0,1,0,0,0,0,0	test	ward_and_allport	2,3,0,1,0,0,0,0,0	82.0	33.0	1.061	0,0,0,1,2,3,0,0,0	to_hand	s643
511.117	0.543	0	PA_with_intermediate	2,3,0,1,0,0,0,0,0	test	ward_and_allport	2,3,0,1,0,0,0,0,0	89.0	33.0	0.543	0,0,0,1,2,3,0,0,0	to_board	s643
511.673	1.0	0	PA_with_intermediate	n/a	test	ward_and_allport	n/a	-1.0	33.0	n/a	n/a	feedback	s643
512.673	1.0	0	PA_with_intermediate	n/a	test	ward_and_allport	n/a	-1.0	33.0	n/a	n/a	ITI	s643
513.681	2.358	1	PA_with_intermediate	0,0,0,1,2,0,0,0,0	test	ward_and_allport	2,0,0,1,3,0,0,0,0	71.0	34.0	2.358	0,0,0,1,2,3,0,0,0	to_hand	s643
516.041	0.373	0	PA_with_intermediate	0,0,0,1,2,0,3,0,0	test	ward_and_allport	2,0,0,1,3,0,0,0,0	82.0	34.0	0.373	0,0,0,1,2,3,0,0,0	to_board	s643
516.421	1.151	0	PA_with_intermediate	0,0,0,1,0,0,3,0,0	test	ward_and_allport	2,0,0,1,3,0,0,0,0	71.0	34.0	1.151	0,0,0,1,2,3,0,0,0	to_hand	s643
517.574	0.342	0	PA_with_intermediate	2,0,0,1,0,0,3,0,0	test	ward_and_allport	2,0,0,1,3,0,0,0,0	89.0	34.0	0.342	0,0,0,1,2,3,0,0,0	to_board	s643
517.924	0.45	0	PA_with_intermediate	2,0,0,1,0,0,0,0,0	test	ward_and_allport	2,0,0,1,3,0,0,0,0	82.0	34.0	0.45	0,0,0,1,2,3,0,0,0	to_hand	s643
518.376	0.262	0	PA_with_intermediate	2,0,0,1,3,0,0,0,0	test	ward_and_allport	2,0,0,1,3,0,0,0,0	71.0	34.0	0.262	0,0,0,1,2,3,0,0,0	to_board	s643
518.651	1.0	0	PA_with_intermediate	n/a	test	ward_and_allport	n/a	-1.0	34.0	n/a	n/a	feedback	s643
519.651	1.0	0	PA_with_intermediate	n/a	test	ward_and_allport	n/a	-1.0	34.0	n/a	n/a	ITI	s643
520.662	9.53	1	PA_without_intermediate	0,0,0,0,0,0,1,2,0	test	ward_and_allport	2,0,0,3,1,0,0,0,0	82.0	35.0	9.53	0,0,0,0,0,0,1,2,3	to_hand	s643
530.193	0.241	0	PA_without_intermediate	0,0,0,3,0,0,1,2,0	test	ward_and_allport	2,0,0,3,1,0,0,0,0	71.0	35.0	0.241	0,0,0,0,0,0,1,2,3	to_board	s643
530.441	0.987	0	PA_without_intermediate	0,0,0,3,0,0,1,0,0	test	ward_and_allport	2,0,0,3,1,0,0,0,0	82.0	35.0	0.987	0,0,0,0,0,0,1,2,3	to_hand	s643
531.429	0.243	0	PA_without_intermediate	2,0,0,3,0,0,1,0,0	test	ward_and_allport	2,0,0,3,1,0,0,0,0	89.0	35.0	0.243	0,0,0,0,0,0,1,2,3	to_board	s643
531.681	1.069	0	PA_without_intermediate	2,0,0,3,0,0,0,0,0	test	ward_and_allport	2,0,0,3,1,0,0,0,0	82.0	35.0	1.069	0,0,0,0,0,0,1,2,3	to_hand	s643
532.751	0.227	0	PA_without_intermediate	2,0,0,3,1,0,0,0,0	test	ward_and_allport	2,0,0,3,1,0,0,0,0	71.0	35.0	0.227	0,0,0,0,0,0,1,2,3	to_board	s643
532.992	1.0	0	PA_without_intermediate	n/a	test	ward_and_allport	n/a	-1.0	35.0	n/a	n/a	feedback	s643
533.992	1.408	0	PA_without_intermediate	n/a	test	ward_and_allport	n/a	-1.0	35.0	n/a	n/a	ITI	s643
535.41	4.383	1	PA_with_intermediate	1,2,0,0,0,0,0,0,0	test	ward_and_allport	1,0,0,0,0,0,2,3,0	89.0	36.0	4.383	1,2,3,0,0,0,0,0,0	to_hand	s643
539.795	0.236	0	PA_with_intermediate	1,2,0,3,0,0,0,0,0	test	ward_and_allport	1,0,0,0,0,0,2,3,0	71.0	36.0	0.236	1,2,3,0,0,0,0,0,0	to_board	s643
540.041	0.723	0	PA_with_intermediate	1,0,0,3,0,0,0,0,0	test	ward_and_allport	1,0,0,0,0,0,2,3,0	89.0	36.0	0.723	1,2,3,0,0,0,0,0,0	to_hand	s643
540.765	0.326	0	PA_with_intermediate	1,0,0,3,0,0,2,0,0	test	ward_and_allport	1,0,0,0,0,0,2,3,0	82.0	36.0	0.326	1,2,3,0,0,0,0,0,0	to_board	s643
541.101	0.483	0	PA_with_intermediate	1,0,0,0,0,0,2,0,0	test	ward_and_allport	1,0,0,0,0,0,2,3,0	71.0	36.0	0.483	1,2,3,0,0,0,0,0,0	to_hand	s643
541.586	0.27	0	PA_with_intermediate	1,0,0,0,0,0,2,3,0	test	ward_and_allport	1,0,0,0,0,0,2,3,0	82.0	36.0	0.27	1,2,3,0,0,0,0,0,0	to_board	s643
541.87	1.0	0	PA_with_intermediate	n/a	test	ward_and_allport	n/a	-1.0	36.0	n/a	n/a	feedback	s643
542.87	2.768	0	PA_with_intermediate	n/a	test	ward_and_allport	n/a	-1.0	36.0	n/a	n/a	ITI	s643
545.646	3.327	1	PA_with_intermediate	0,0,0,0,0,0,1,2,0	test	ward_and_allport	2,3,0,0,0,0,1,0,0	82.0	37.0	3.327	0,0,0,0,0,0,1,2,3	to_hand	s643
548.974	0.244	0	PA_with_intermediate	0,0,0,3,0,0,1,2,0	test	ward_and_allport	2,3,0,0,0,0,1,0,0	71.0	37.0	0.244	0,0,0,0,0,0,1,2,3	to_board	s643
549.225	0.868	0	PA_with_intermediate	0,0,0,3,0,0,1,0,0	test	ward_and_allport	2,3,0,0,0,0,1,0,0	82.0	37.0	0.868	0,0,0,0,0,0,1,2,3	to_hand	s643
550.094	0.626	0	PA_with_intermediate	2,0,0,3,0,0,1,0,0	test	ward_and_allport	2,3,0,0,0,0,1,0,0	89.0	37.0	0.626	0,0,0,0,0,0,1,2,3	to_board	s643
550.729	0.423	0	PA_with_intermediate	2,0,0,0,0,0,1,0,0	test	ward_and_allport	2,3,0,0,0,0,1,0,0	71.0	37.0	0.423	0,0,0,0,0,0,1,2,3	to_hand	s643
551.154	0.391	0	PA_with_intermediate	2,3,0,0,0,0,1,0,0	test	ward_and_allport	2,3,0,0,0,0,1,0,0	89.0	37.0	0.391	0,0,0,0,0,0,1,2,3	to_board	s643
551.555	1.0	0	PA_with_intermediate	n/a	test	ward_and_allport	n/a	-1.0	37.0	n/a	n/a	feedback	s643
552.555	1.68	0	PA_with_intermediate	n/a	test	ward_and_allport	n/a	-1.0	37.0	n/a	n/a	ITI	s643
554.241	3.862	1	PA_without_intermediate	1,2,0,0,0,0,0,0,0	test	ward_and_allport	0,0,0,1,0,0,3,2,0	89.0	38.0	3.862	1,2,3,0,0,0,0,0,0	to_hand	s643
558.105	0.359	0	PA_without_intermediate	1,2,0,0,0,0,3,0,0	test	ward_and_allport	0,0,0,1,0,0,3,2,0	82.0	38.0	0.359	1,2,3,0,0,0,0,0,0	to_board	s643
558.472	0.86	0	PA_without_intermediate	1,0,0,0,0,0,3,0,0	test	ward_and_allport	0,0,0,1,0,0,3,2,0	89.0	38.0	0.86	1,2,3,0,0,0,0,0,0	to_hand	s643
559.334	0.415	0	PA_without_intermediate	1,0,0,0,0,0,3,2,0	test	ward_and_allport	0,0,0,1,0,0,3,2,0	82.0	38.0	0.415	1,2,3,0,0,0,0,0,0	to_board	s643
559.759	0.378	0	PA_without_intermediate	0,0,0,0,0,0,3,2,0	test	ward_and_allport	0,0,0,1,0,0,3,2,0	89.0	38.0	0.378	1,2,3,0,0,0,0,0,0	to_hand	s643
560.138	0.228	0	PA_without_intermediate	0,0,0,1,0,0,3,2,0	test	ward_and_allport	0,0,0,1,0,0,3,2,0	71.0	38.0	0.228	1,2,3,0,0,0,0,0,0	to_board	s643
560.379	1.0	0	PA_without_intermediate	n/a	test	ward_and_allport	n/a	-1.0	38.0	n/a	n/a	feedback	s643
561.379	2.224	0	PA_without_intermediate	n/a	test	ward_and_allport	n/a	-1.0	38.0	n/a	n/a	ITI	s643
563.611	2.865	1	PA_without_intermediate	0,0,0,1,2,0,0,0,0	test	ward_and_allport	3,1,0,0,0,0,2,0,0	71.0	39.0	2.865	0,0,0,1,2,3,0,0,0	to_hand	s643
566.477	0.262	0	PA_without_intermediate	3,0,0,1,2,0,0,0,0	test	ward_and_allport	3,1,0,0,0,0,2,0,0	89.0	39.0	0.262	0,0,0,1,2,3,0,0,0	to_board	s643
566.748	0.728	0	PA_without_intermediate	3,0,0,1,0,0,0,0,0	test	ward_and_allport	3,1,0,0,0,0,2,0,0	71.0	39.0	0.728	0,0,0,1,2,3,0,0,0	to_hand	s643
567.477	0.247	0	PA_without_intermediate	3,0,0,1,0,0,2,0,0	test	ward_and_allport	3,1,0,0,0,0,2,0,0	82.0	39.0	0.247	0,0,0,1,2,3,0,0,0	to_board	s643
567.732	0.892	0	PA_without_intermediate	3,0,0,0,0,0,2,0,0	test	ward_and_allport	3,1,0,0,0,0,2,0,0	71.0	39.0	0.892	0,0,0,1,2,3,0,0,0	to_hand	s643
568.625	0.222	0	PA_without_intermediate	3,1,0,0,0,0,2,0,0	test	ward_and_allport	3,1,0,0,0,0,2,0,0	89.0	39.0	0.222	0,0,0,1,2,3,0,0,0	to_board	s643
568.86	1.0	0	PA_without_intermediate	n/a	test	ward_and_allport	n/a	-1.0	39.0	n/a	n/a	feedback	s643
569.86	2.36	0	PA_without_intermediate	n/a	test	ward_and_allport	n/a	-1.0	39.0	n/a	n/a	ITI	s643
n/a	n/a	0	n/a	n/a	n/a	n/a	n/a	n/a	n/a	n/a	n/a	ITI	n/a
