onset	duration	planning	condition	current_position	exp_stage	experiment_exp_id	goal_state	key_press	problem_id	response_time	start_state	trial_id	worker_id
-202.678	0.0	0	n/a	n/a	n/a	ward_and_allport	n/a	32.0	n/a	20.685	n/a	instructions	s634
3.005	3.192	1	UA_with_intermediate	1,0,0,2,0,0,0,0,0	practice	ward_and_allport	1,2,3,0,0,0,0,0,0	71.0	0.0	3.192	1,0,0,2,3,0,0,0,0	to_hand	s634
6.198	0.435	0	UA_with_intermediate	1,0,0,2,0,0,3,0,0	practice	ward_and_allport	1,2,3,0,0,0,0,0,0	82.0	0.0	0.435	1,0,0,2,3,0,0,0,0	to_board	s634
6.635	0.953	0	UA_with_intermediate	1,0,0,0,0,0,3,0,0	practice	ward_and_allport	1,2,3,0,0,0,0,0,0	71.0	0.0	0.953	1,0,0,2,3,0,0,0,0	to_hand	s634
7.589	0.291	0	UA_with_intermediate	1,2,0,0,0,0,3,0,0	practice	ward_and_allport	1,2,3,0,0,0,0,0,0	89.0	0.0	0.291	1,0,0,2,3,0,0,0,0	to_board	s634
7.881	0.464	0	UA_with_intermediate	1,2,0,0,0,0,0,0,0	practice	ward_and_allport	1,2,3,0,0,0,0,0,0	82.0	0.0	0.464	1,0,0,2,3,0,0,0,0	to_hand	s634
8.346	0.255	0	UA_with_intermediate	1,2,3,0,0,0,0,0,0	practice	ward_and_allport	1,2,3,0,0,0,0,0,0	89.0	0.0	0.255	1,0,0,2,3,0,0,0,0	to_board	s634
8.605	1.0	0	UA_with_intermediate	n/a	practice	ward_and_allport	n/a	-1.0	0.0	n/a	n/a	feedback	s634
11.108	3.367	1	UA_with_intermediate	1,0,0,3,0,0,0,0,0	practice	ward_and_allport	1,3,2,0,0,0,0,0,0	89.0	1.0	3.367	1,2,0,3,0,0,0,0,0	to_hand	s634
14.476	0.32	0	UA_with_intermediate	1,0,0,3,0,0,2,0,0	practice	ward_and_allport	1,3,2,0,0,0,0,0,0	82.0	1.0	0.32	1,2,0,3,0,0,0,0,0	to_board	s634
14.798	0.379	0	UA_with_intermediate	1,0,0,0,0,0,2,0,0	practice	ward_and_allport	1,3,2,0,0,0,0,0,0	71.0	1.0	0.379	1,2,0,3,0,0,0,0,0	to_hand	s634
15.178	0.312	0	UA_with_intermediate	1,3,0,0,0,0,2,0,0	practice	ward_and_allport	1,3,2,0,0,0,0,0,0	89.0	1.0	0.312	1,2,0,3,0,0,0,0,0	to_board	s634
15.492	0.473	0	UA_with_intermediate	1,3,0,0,0,0,0,0,0	practice	ward_and_allport	1,3,2,0,0,0,0,0,0	82.0	1.0	0.473	1,2,0,3,0,0,0,0,0	to_hand	s634
15.966	0.208	0	UA_with_intermediate	1,3,2,0,0,0,0,0,0	practice	ward_and_allport	1,3,2,0,0,0,0,0,0	89.0	1.0	0.208	1,2,0,3,0,0,0,0,0	to_board	s634
16.176	1.0	0	UA_with_intermediate	n/a	practice	ward_and_allport	n/a	-1.0	1.0	n/a	n/a	feedback	s634
17.176	1.1	0	UA_with_intermediate	n/a	practice	ward_and_allport	n/a	-1.0	1.0	n/a	n/a	ITI	s634
18.278	2.831	1	UA_without_intermediate	0,0,0,1,2,0,0,0,0	practice	ward_and_allport	3,2,1,0,0,0,0,0,0	82.0	2.0	2.831	0,0,0,1,2,0,3,0,0	to_hand	s634
21.11	0.292	0	UA_without_intermediate	3,0,0,1,2,0,0,0,0	practice	ward_and_allport	3,2,1,0,0,0,0,0,0	89.0	2.0	0.292	0,0,0,1,2,0,3,0,0	to_board	s634
21.403	0.707	0	UA_without_intermediate	3,0,0,1,0,0,0,0,0	practice	ward_and_allport	3,2,1,0,0,0,0,0,0	71.0	2.0	0.707	0,0,0,1,2,0,3,0,0	to_hand	s634
22.112	0.304	0	UA_without_intermediate	3,2,0,1,0,0,0,0,0	practice	ward_and_allport	3,2,1,0,0,0,0,0,0	89.0	2.0	0.304	0,0,0,1,2,0,3,0,0	to_board	s634
22.417	0.381	0	UA_without_intermediate	3,2,0,0,0,0,0,0,0	practice	ward_and_allport	3,2,1,0,0,0,0,0,0	71.0	2.0	0.381	0,0,0,1,2,0,3,0,0	to_hand	s634
22.8	0.296	0	UA_without_intermediate	3,2,1,0,0,0,0,0,0	practice	ward_and_allport	3,2,1,0,0,0,0,0,0	89.0	2.0	0.296	0,0,0,1,2,0,3,0,0	to_board	s634
23.098	1.0	0	UA_without_intermediate	n/a	practice	ward_and_allport	n/a	-1.0	2.0	n/a	n/a	feedback	s634
24.098	1.2	0	UA_without_intermediate	n/a	practice	ward_and_allport	n/a	-1.0	2.0	n/a	n/a	ITI	s634
25.3	2.943	1	UA_without_intermediate	0,0,0,1,0,0,3,0,0	practice	ward_and_allport	2,3,1,0,0,0,0,0,0	71.0	3.0	2.943	0,0,0,1,2,0,3,0,0	to_hand	s634
28.244	0.265	0	UA_without_intermediate	2,0,0,1,0,0,3,0,0	practice	ward_and_allport	2,3,1,0,0,0,0,0,0	89.0	3.0	0.265	0,0,0,1,2,0,3,0,0	to_board	s634
28.511	0.315	0	UA_without_intermediate	2,0,0,1,0,0,0,0,0	practice	ward_and_allport	2,3,1,0,0,0,0,0,0	82.0	3.0	0.315	0,0,0,1,2,0,3,0,0	to_hand	s634
28.827	0.182	0	UA_without_intermediate	2,3,0,1,0,0,0,0,0	practice	ward_and_allport	2,3,1,0,0,0,0,0,0	89.0	3.0	0.182	0,0,0,1,2,0,3,0,0	to_board	s634
29.011	0.322	0	UA_without_intermediate	2,3,0,0,0,0,0,0,0	practice	ward_and_allport	2,3,1,0,0,0,0,0,0	71.0	3.0	0.322	0,0,0,1,2,0,3,0,0	to_hand	s634
29.334	0.298	0	UA_without_intermediate	2,3,1,0,0,0,0,0,0	practice	ward_and_allport	2,3,1,0,0,0,0,0,0	89.0	3.0	0.298	0,0,0,1,2,0,3,0,0	to_board	s634
29.634	1.0	0	UA_without_intermediate	n/a	practice	ward_and_allport	n/a	-1.0	3.0	n/a	n/a	feedback	s634
30.634	1.0	0	UA_without_intermediate	n/a	practice	ward_and_allport	n/a	-1.0	3.0	n/a	n/a	ITI	s634
33.638	5.267	1	PA_with_intermediate	1,2,0,0,0,0,0,0,0	test	ward_and_allport	1,0,0,2,3,0,0,0,0	89.0	0.0	5.267	1,2,3,0,0,0,0,0,0	to_hand	s634
38.906	0.479	0	PA_with_intermediate	1,2,0,0,0,0,3,0,0	test	ward_and_allport	1,0,0,2,3,0,0,0,0	82.0	0.0	0.479	1,2,3,0,0,0,0,0,0	to_board	s634
39.387	2.158	0	PA_with_intermediate	1,0,0,0,0,0,3,0,0	test	ward_and_allport	1,0,0,2,3,0,0,0,0	89.0	0.0	2.158	1,2,3,0,0,0,0,0,0	to_hand	s634
41.546	0.289	0	PA_with_intermediate	1,0,0,2,0,0,3,0,0	test	ward_and_allport	1,0,0,2,3,0,0,0,0	71.0	0.0	0.289	1,2,3,0,0,0,0,0,0	to_board	s634
41.837	2.243	0	PA_with_intermediate	1,0,0,2,0,0,0,0,0	test	ward_and_allport	1,0,0,2,3,0,0,0,0	82.0	0.0	2.243	1,2,3,0,0,0,0,0,0	to_hand	s634
44.081	0.303	0	PA_with_intermediate	1,0,0,2,3,0,0,0,0	test	ward_and_allport	1,0,0,2,3,0,0,0,0	71.0	0.0	0.303	1,2,3,0,0,0,0,0,0	to_board	s634
44.386	1.0	0	PA_with_intermediate	n/a	test	ward_and_allport	n/a	-1.0	0.0	n/a	n/a	feedback	s634
45.386	1.408	0	PA_with_intermediate	n/a	test	ward_and_allport	n/a	-1.0	0.0	n/a	n/a	ITI	s634
46.796	3.241	1	PA_without_intermediate	1,2,0,0,0,0,0,0,0	test	ward_and_allport	0,0,0,2,0,0,3,1,0	89.0	1.0	3.241	1,2,3,0,0,0,0,0,0	to_hand	s634
50.039	0.327	0	PA_without_intermediate	1,2,0,0,0,0,3,0,0	test	ward_and_allport	0,0,0,2,0,0,3,1,0	82.0	1.0	0.327	1,2,3,0,0,0,0,0,0	to_board	s634
50.369	1.571	0	PA_without_intermediate	1,0,0,0,0,0,3,0,0	test	ward_and_allport	0,0,0,2,0,0,3,1,0	89.0	1.0	1.571	1,2,3,0,0,0,0,0,0	to_hand	s634
51.941	0.276	0	PA_without_intermediate	1,0,0,2,0,0,3,0,0	test	ward_and_allport	0,0,0,2,0,0,3,1,0	71.0	1.0	0.276	1,2,3,0,0,0,0,0,0	to_board	s634
52.22	0.42	0	PA_without_intermediate	0,0,0,2,0,0,3,0,0	test	ward_and_allport	0,0,0,2,0,0,3,1,0	89.0	1.0	0.42	1,2,3,0,0,0,0,0,0	to_hand	s634
52.641	0.788	0	PA_without_intermediate	0,0,0,2,0,0,3,1,0	test	ward_and_allport	0,0,0,2,0,0,3,1,0	82.0	1.0	0.788	1,2,3,0,0,0,0,0,0	to_board	s634
53.431	1.0	0	PA_without_intermediate	n/a	test	ward_and_allport	n/a	-1.0	1.0	n/a	n/a	feedback	s634
54.431	1.68	0	PA_without_intermediate	n/a	test	ward_and_allport	n/a	-1.0	1.0	n/a	n/a	ITI	s634
56.113	2.567	1	PA_with_intermediate	0,0,0,0,0,0,1,2,0	test	ward_and_allport	2,0,0,0,0,0,1,3,0	82.0	2.0	2.567	0,0,0,0,0,0,1,2,3	to_hand	s634
58.681	0.858	0	PA_with_intermediate	0,0,0,3,0,0,1,2,0	test	ward_and_allport	2,0,0,0,0,0,1,3,0	71.0	2.0	0.858	0,0,0,0,0,0,1,2,3	to_board	s634
59.541	0.782	0	PA_with_intermediate	0,0,0,3,0,0,1,0,0	test	ward_and_allport	2,0,0,0,0,0,1,3,0	82.0	2.0	0.782	0,0,0,0,0,0,1,2,3	to_hand	s634
60.324	0.259	0	PA_with_intermediate	2,0,0,3,0,0,1,0,0	test	ward_and_allport	2,0,0,0,0,0,1,3,0	89.0	2.0	0.259	0,0,0,0,0,0,1,2,3	to_board	s634
60.585	0.54	0	PA_with_intermediate	2,0,0,0,0,0,1,0,0	test	ward_and_allport	2,0,0,0,0,0,1,3,0	71.0	2.0	0.54	0,0,0,0,0,0,1,2,3	to_hand	s634
61.126	0.269	0	PA_with_intermediate	2,0,0,0,0,0,1,3,0	test	ward_and_allport	2,0,0,0,0,0,1,3,0	82.0	2.0	0.269	0,0,0,0,0,0,1,2,3	to_board	s634
61.399	1.0	0	PA_with_intermediate	n/a	test	ward_and_allport	n/a	-1.0	2.0	n/a	n/a	feedback	s634
62.399	3.72	0	PA_with_intermediate	n/a	test	ward_and_allport	n/a	-1.0	2.0	n/a	n/a	ITI	s634
66.122	2.121	1	PA_without_intermediate	0,0,0,0,0,0,1,2,0	test	ward_and_allport	2,0,0,3,1,0,0,0,0	82.0	3.0	2.121	0,0,0,0,0,0,1,2,3	to_hand	s634
68.244	0.311	0	PA_without_intermediate	0,0,0,3,0,0,1,2,0	test	ward_and_allport	2,0,0,3,1,0,0,0,0	71.0	3.0	0.311	0,0,0,0,0,0,1,2,3	to_board	s634
68.558	1.353	0	PA_without_intermediate	0,0,0,3,0,0,1,0,0	test	ward_and_allport	2,0,0,3,1,0,0,0,0	82.0	3.0	1.353	0,0,0,0,0,0,1,2,3	to_hand	s634
69.912	0.266	0	PA_without_intermediate	2,0,0,3,0,0,1,0,0	test	ward_and_allport	2,0,0,3,1,0,0,0,0	89.0	3.0	0.266	0,0,0,0,0,0,1,2,3	to_board	s634
70.181	0.555	0	PA_without_intermediate	2,0,0,3,0,0,0,0,0	test	ward_and_allport	2,0,0,3,1,0,0,0,0	82.0	3.0	0.555	0,0,0,0,0,0,1,2,3	to_hand	s634
70.737	0.334	0	PA_without_intermediate	2,0,0,3,1,0,0,0,0	test	ward_and_allport	2,0,0,3,1,0,0,0,0	71.0	3.0	0.334	0,0,0,0,0,0,1,2,3	to_board	s634
71.074	1.0	0	PA_without_intermediate	n/a	test	ward_and_allport	n/a	-1.0	3.0	n/a	n/a	feedback	s634
72.074	2.224	0	PA_without_intermediate	n/a	test	ward_and_allport	n/a	-1.0	3.0	n/a	n/a	ITI	s634
74.302	2.195	1	PA_without_intermediate	0,0,0,0,0,0,1,2,0	test	ward_and_allport	3,2,0,1,0,0,0,0,0	82.0	4.0	2.195	0,0,0,0,0,0,1,2,3	to_hand	s634
76.498	0.326	0	PA_without_intermediate	3,0,0,0,0,0,1,2,0	test	ward_and_allport	3,2,0,1,0,0,0,0,0	89.0	4.0	0.326	0,0,0,0,0,0,1,2,3	to_board	s634
76.827	1.062	0	PA_without_intermediate	3,0,0,0,0,0,1,0,0	test	ward_and_allport	3,2,0,1,0,0,0,0,0	82.0	4.0	1.062	0,0,0,0,0,0,1,2,3	to_hand	s634
77.891	0.226	0	PA_without_intermediate	3,2,0,0,0,0,1,0,0	test	ward_and_allport	3,2,0,1,0,0,0,0,0	89.0	4.0	0.226	0,0,0,0,0,0,1,2,3	to_board	s634
78.12	1.025	0	PA_without_intermediate	3,2,0,0,0,0,0,0,0	test	ward_and_allport	3,2,0,1,0,0,0,0,0	82.0	4.0	1.025	0,0,0,0,0,0,1,2,3	to_hand	s634
79.147	0.376	0	PA_without_intermediate	3,2,1,0,0,0,0,0,0	test	ward_and_allport	3,2,0,1,0,0,0,0,0	89.0	4.0	0.376	0,0,0,0,0,0,1,2,3	to_board	s634
79.525	3.671	0	PA_without_intermediate	3,2,0,0,0,0,0,0,0	test	ward_and_allport	3,2,0,1,0,0,0,0,0	89.0	4.0	3.671	0,0,0,0,0,0,1,2,3	to_hand	s634
83.197	0.692	0	PA_without_intermediate	3,2,0,1,0,0,0,0,0	test	ward_and_allport	3,2,0,1,0,0,0,0,0	71.0	4.0	0.692	0,0,0,0,0,0,1,2,3	to_board	s634
83.892	1.0	0	PA_without_intermediate	n/a	test	ward_and_allport	n/a	-1.0	4.0	n/a	n/a	feedback	s634
84.892	1.272	0	PA_without_intermediate	n/a	test	ward_and_allport	n/a	-1.0	4.0	n/a	n/a	ITI	s634
86.167	2.92	1	PA_with_intermediate	0,0,0,0,0,0,1,2,0	test	ward_and_allport	0,0,0,2,0,0,1,3,0	82.0	5.0	2.92	0,0,0,0,0,0,1,2,3	to_hand	s634
89.089	0.293	0	PA_with_intermediate	3,0,0,0,0,0,1,2,0	test	ward_and_allport	0,0,0,2,0,0,1,3,0	89.0	5.0	0.293	0,0,0,0,0,0,1,2,3	to_board	s634
89.384	0.7	0	PA_with_intermediate	3,0,0,0,0,0,1,0,0	test	ward_and_allport	0,0,0,2,0,0,1,3,0	82.0	5.0	0.7	0,0,0,0,0,0,1,2,3	to_hand	s634
90.085	0.276	0	PA_with_intermediate	3,0,0,2,0,0,1,0,0	test	ward_and_allport	0,0,0,2,0,0,1,3,0	71.0	5.0	0.276	0,0,0,0,0,0,1,2,3	to_board	s634
90.364	0.37	0	PA_with_intermediate	0,0,0,2,0,0,1,0,0	test	ward_and_allport	0,0,0,2,0,0,1,3,0	89.0	5.0	0.37	0,0,0,0,0,0,1,2,3	to_hand	s634
90.735	0.295	0	PA_with_intermediate	0,0,0,2,0,0,1,3,0	test	ward_and_allport	0,0,0,2,0,0,1,3,0	82.0	5.0	0.295	0,0,0,0,0,0,1,2,3	to_board	s634
91.034	1.0	0	PA_with_intermediate	n/a	test	ward_and_allport	n/a	-1.0	5.0	n/a	n/a	feedback	s634
92.034	2.632	0	PA_with_intermediate	n/a	test	ward_and_allport	n/a	-1.0	5.0	n/a	n/a	ITI	s634
94.67	2.104	1	PA_without_intermediate	1,2,0,0,0,0,0,0,0	test	ward_and_allport	0,0,0,1,0,0,3,2,0	89.0	6.0	2.104	1,2,3,0,0,0,0,0,0	to_hand	s634
96.775	0.288	0	PA_without_intermediate	1,2,0,0,0,0,3,0,0	test	ward_and_allport	0,0,0,1,0,0,3,2,0	82.0	6.0	0.288	1,2,3,0,0,0,0,0,0	to_board	s634
97.066	0.741	0	PA_without_intermediate	1,0,0,0,0,0,3,0,0	test	ward_and_allport	0,0,0,1,0,0,3,2,0	89.0	6.0	0.741	1,2,3,0,0,0,0,0,0	to_hand	s634
97.809	0.324	0	PA_without_intermediate	1,0,0,0,0,0,3,2,0	test	ward_and_allport	0,0,0,1,0,0,3,2,0	82.0	6.0	0.324	1,2,3,0,0,0,0,0,0	to_board	s634
98.136	0.486	0	PA_without_intermediate	0,0,0,0,0,0,3,2,0	test	ward_and_allport	0,0,0,1,0,0,3,2,0	89.0	6.0	0.486	1,2,3,0,0,0,0,0,0	to_hand	s634
98.623	0.27	0	PA_without_intermediate	0,0,0,1,0,0,3,2,0	test	ward_and_allport	0,0,0,1,0,0,3,2,0	71.0	6.0	0.27	1,2,3,0,0,0,0,0,0	to_board	s634
98.896	1.0	0	PA_without_intermediate	n/a	test	ward_and_allport	n/a	-1.0	6.0	n/a	n/a	feedback	s634
99.896	1.408	0	PA_without_intermediate	n/a	test	ward_and_allport	n/a	-1.0	6.0	n/a	n/a	ITI	s634
101.308	2.628	1	PA_without_intermediate	0,0,0,0,0,0,1,2,0	test	ward_and_allport	3,1,0,2,0,0,0,0,0	82.0	7.0	2.628	0,0,0,0,0,0,1,2,3	to_hand	s634
103.938	0.182	0	PA_without_intermediate	3,0,0,0,0,0,1,2,0	test	ward_and_allport	3,1,0,2,0,0,0,0,0	89.0	7.0	0.182	0,0,0,0,0,0,1,2,3	to_board	s634
104.123	0.658	0	PA_without_intermediate	3,0,0,0,0,0,1,0,0	test	ward_and_allport	3,1,0,2,0,0,0,0,0	82.0	7.0	0.658	0,0,0,0,0,0,1,2,3	to_hand	s634
104.782	0.534	0	PA_without_intermediate	3,0,0,2,0,0,1,0,0	test	ward_and_allport	3,1,0,2,0,0,0,0,0	71.0	7.0	0.534	0,0,0,0,0,0,1,2,3	to_board	s634
105.32	0.545	0	PA_without_intermediate	3,0,0,2,0,0,0,0,0	test	ward_and_allport	3,1,0,2,0,0,0,0,0	82.0	7.0	0.545	0,0,0,0,0,0,1,2,3	to_hand	s634
105.866	0.222	0	PA_without_intermediate	3,1,0,2,0,0,0,0,0	test	ward_and_allport	3,1,0,2,0,0,0,0,0	89.0	7.0	0.222	0,0,0,0,0,0,1,2,3	to_board	s634
106.092	1.0	0	PA_without_intermediate	n/a	test	ward_and_allport	n/a	-1.0	7.0	n/a	n/a	feedback	s634
107.092	1.0	0	PA_without_intermediate	n/a	test	ward_and_allport	n/a	-1.0	7.0	n/a	n/a	ITI	s634
108.094	2.34	1	PA_with_intermediate	0,0,0,1,2,0,0,0,0	test	ward_and_allport	0,0,0,1,3,0,2,0,0	71.0	8.0	2.34	0,0,0,1,2,3,0,0,0	to_hand	s634
110.435	0.532	0	PA_with_intermediate	3,0,0,1,2,0,0,0,0	test	ward_and_allport	0,0,0,1,3,0,2,0,0	89.0	8.0	0.532	0,0,0,1,2,3,0,0,0	to_board	s634
110.971	0.453	0	PA_with_intermediate	3,0,0,1,0,0,0,0,0	test	ward_and_allport	0,0,0,1,3,0,2,0,0	71.0	8.0	0.453	0,0,0,1,2,3,0,0,0	to_hand	s634
111.425	0.372	0	PA_with_intermediate	3,0,0,1,2,0,0,0,0	test	ward_and_allport	0,0,0,1,3,0,2,0,0	71.0	8.0	0.372	0,0,0,1,2,3,0,0,0	to_board	s634
111.8	0.56	0	PA_with_intermediate	3,0,0,1,0,0,0,0,0	test	ward_and_allport	0,0,0,1,3,0,2,0,0	71.0	8.0	0.56	0,0,0,1,2,3,0,0,0	to_hand	s634
112.361	0.23	0	PA_with_intermediate	3,0,0,1,0,0,2,0,0	test	ward_and_allport	0,0,0,1,3,0,2,0,0	82.0	8.0	0.23	0,0,0,1,2,3,0,0,0	to_board	s634
112.595	0.245	0	PA_with_intermediate	0,0,0,1,0,0,2,0,0	test	ward_and_allport	0,0,0,1,3,0,2,0,0	89.0	8.0	0.245	0,0,0,1,2,3,0,0,0	to_hand	s634
112.841	0.302	0	PA_with_intermediate	0,0,0,1,3,0,2,0,0	test	ward_and_allport	0,0,0,1,3,0,2,0,0	71.0	8.0	0.302	0,0,0,1,2,3,0,0,0	to_board	s634
113.147	1.0	0	PA_with_intermediate	n/a	test	ward_and_allport	n/a	-1.0	8.0	n/a	n/a	feedback	s634
114.147	1.0	0	PA_with_intermediate	n/a	test	ward_and_allport	n/a	-1.0	8.0	n/a	n/a	ITI	s634
115.151	2.086	1	PA_with_intermediate	0,0,0,1,2,0,0,0,0	test	ward_and_allport	2,0,0,1,3,0,0,0,0	71.0	9.0	2.086	0,0,0,1,2,3,0,0,0	to_hand	s634
117.239	0.299	0	PA_with_intermediate	0,0,0,1,2,0,3,0,0	test	ward_and_allport	2,0,0,1,3,0,0,0,0	82.0	9.0	0.299	0,0,0,1,2,3,0,0,0	to_board	s634
117.543	0.645	0	PA_with_intermediate	0,0,0,1,0,0,3,0,0	test	ward_and_allport	2,0,0,1,3,0,0,0,0	71.0	9.0	0.645	0,0,0,1,2,3,0,0,0	to_hand	s634
118.188	0.19	0	PA_with_intermediate	2,0,0,1,0,0,3,0,0	test	ward_and_allport	2,0,0,1,3,0,0,0,0	89.0	9.0	0.19	0,0,0,1,2,3,0,0,0	to_board	s634
118.381	0.271	0	PA_with_intermediate	2,0,0,0,0,0,3,0,0	test	ward_and_allport	2,0,0,1,3,0,0,0,0	71.0	9.0	0.271	0,0,0,1,2,3,0,0,0	to_hand	s634
118.653	0.528	0	PA_with_intermediate	2,0,0,1,0,0,3,0,0	test	ward_and_allport	2,0,0,1,3,0,0,0,0	71.0	9.0	0.528	0,0,0,1,2,3,0,0,0	to_board	s634
119.186	0.335	0	PA_with_intermediate	2,0,0,1,0,0,0,0,0	test	ward_and_allport	2,0,0,1,3,0,0,0,0	82.0	9.0	0.335	0,0,0,1,2,3,0,0,0	to_hand	s634
119.521	0.298	0	PA_with_intermediate	2,0,0,1,3,0,0,0,0	test	ward_and_allport	2,0,0,1,3,0,0,0,0	71.0	9.0	0.298	0,0,0,1,2,3,0,0,0	to_board	s634
119.824	1.0	0	PA_with_intermediate	n/a	test	ward_and_allport	n/a	-1.0	9.0	n/a	n/a	feedback	s634
120.824	1.0	0	PA_with_intermediate	n/a	test	ward_and_allport	n/a	-1.0	9.0	n/a	n/a	ITI	s634
121.828	2.273	1	PA_with_intermediate	0,0,0,0,0,0,1,2,0	test	ward_and_allport	2,0,0,0,0,0,1,3,0	82.0	10.0	2.273	0,0,0,0,0,0,1,2,3	to_hand	s634
124.102	0.314	0	PA_with_intermediate	0,0,0,3,0,0,1,2,0	test	ward_and_allport	2,0,0,0,0,0,1,3,0	71.0	10.0	0.314	0,0,0,0,0,0,1,2,3	to_board	s634
124.42	0.549	0	PA_with_intermediate	0,0,0,3,0,0,1,0,0	test	ward_and_allport	2,0,0,0,0,0,1,3,0	82.0	10.0	0.549	0,0,0,0,0,0,1,2,3	to_hand	s634
124.97	0.243	0	PA_with_intermediate	2,0,0,3,0,0,1,0,0	test	ward_and_allport	2,0,0,0,0,0,1,3,0	89.0	10.0	0.243	0,0,0,0,0,0,1,2,3	to_board	s634
125.217	0.396	0	PA_with_intermediate	2,0,0,0,0,0,1,0,0	test	ward_and_allport	2,0,0,0,0,0,1,3,0	71.0	10.0	0.396	0,0,0,0,0,0,1,2,3	to_hand	s634
125.614	0.251	0	PA_with_intermediate	2,0,0,0,0,0,1,3,0	test	ward_and_allport	2,0,0,0,0,0,1,3,0	82.0	10.0	0.251	0,0,0,0,0,0,1,2,3	to_board	s634
125.869	1.0	0	PA_with_intermediate	n/a	test	ward_and_allport	n/a	-1.0	10.0	n/a	n/a	feedback	s634
126.869	1.408	0	PA_with_intermediate	n/a	test	ward_and_allport	n/a	-1.0	10.0	n/a	n/a	ITI	s634
128.282	1.648	1	PA_without_intermediate	0,0,0,1,2,0,0,0,0	test	ward_and_allport	2,0,0,0,0,0,3,1,0	71.0	11.0	1.648	0,0,0,1,2,3,0,0,0	to_hand	s634
129.932	0.296	0	PA_without_intermediate	0,0,0,1,2,0,3,0,0	test	ward_and_allport	2,0,0,0,0,0,3,1,0	82.0	11.0	0.296	0,0,0,1,2,3,0,0,0	to_board	s634
130.233	0.468	0	PA_without_intermediate	0,0,0,1,0,0,3,0,0	test	ward_and_allport	2,0,0,0,0,0,3,1,0	71.0	11.0	0.468	0,0,0,1,2,3,0,0,0	to_hand	s634
130.702	0.293	0	PA_without_intermediate	2,0,0,1,0,0,3,0,0	test	ward_and_allport	2,0,0,0,0,0,3,1,0	89.0	11.0	0.293	0,0,0,1,2,3,0,0,0	to_board	s634
131.0	0.42	0	PA_without_intermediate	2,0,0,0,0,0,3,0,0	test	ward_and_allport	2,0,0,0,0,0,3,1,0	71.0	11.0	0.42	0,0,0,1,2,3,0,0,0	to_hand	s634
131.421	0.346	0	PA_without_intermediate	2,0,0,0,0,0,3,1,0	test	ward_and_allport	2,0,0,0,0,0,3,1,0	82.0	11.0	0.346	0,0,0,1,2,3,0,0,0	to_board	s634
131.772	1.0	0	PA_without_intermediate	n/a	test	ward_and_allport	n/a	-1.0	11.0	n/a	n/a	feedback	s634
132.772	1.816	0	PA_without_intermediate	n/a	test	ward_and_allport	n/a	-1.0	11.0	n/a	n/a	ITI	s634
134.592	2.138	1	PA_with_intermediate	0,0,0,0,0,0,1,2,0	test	ward_and_allport	0,0,0,2,3,0,1,0,0	82.0	12.0	2.138	0,0,0,0,0,0,1,2,3	to_hand	s634
136.731	0.329	0	PA_with_intermediate	3,0,0,0,0,0,1,2,0	test	ward_and_allport	0,0,0,2,3,0,1,0,0	89.0	12.0	0.329	0,0,0,0,0,0,1,2,3	to_board	s634
137.066	0.542	0	PA_with_intermediate	3,0,0,0,0,0,1,0,0	test	ward_and_allport	0,0,0,2,3,0,1,0,0	82.0	12.0	0.542	0,0,0,0,0,0,1,2,3	to_hand	s634
137.61	0.254	0	PA_with_intermediate	3,0,0,2,0,0,1,0,0	test	ward_and_allport	0,0,0,2,3,0,1,0,0	71.0	12.0	0.254	0,0,0,0,0,0,1,2,3	to_board	s634
137.868	0.294	0	PA_with_intermediate	0,0,0,2,0,0,1,0,0	test	ward_and_allport	0,0,0,2,3,0,1,0,0	89.0	12.0	0.294	0,0,0,0,0,0,1,2,3	to_hand	s634
138.163	0.239	0	PA_with_intermediate	0,0,0,2,3,0,1,0,0	test	ward_and_allport	0,0,0,2,3,0,1,0,0	71.0	12.0	0.239	0,0,0,0,0,0,1,2,3	to_board	s634
138.408	1.0	0	PA_with_intermediate	n/a	test	ward_and_allport	n/a	-1.0	12.0	n/a	n/a	feedback	s634
139.408	3.176	0	PA_with_intermediate	n/a	test	ward_and_allport	n/a	-1.0	12.0	n/a	n/a	ITI	s634
142.588	1.682	1	PA_with_intermediate	1,2,0,0,0,0,0,0,0	test	ward_and_allport	1,3,0,0,0,0,2,0,0	89.0	13.0	1.682	1,2,3,0,0,0,0,0,0	to_hand	s634
144.271	0.285	0	PA_with_intermediate	1,2,0,3,0,0,0,0,0	test	ward_and_allport	1,3,0,0,0,0,2,0,0	71.0	13.0	0.285	1,2,3,0,0,0,0,0,0	to_board	s634
144.561	0.501	0	PA_with_intermediate	1,2,0,0,0,0,0,0,0	test	ward_and_allport	1,3,0,0,0,0,2,0,0	71.0	13.0	0.501	1,2,3,0,0,0,0,0,0	to_hand	s634
145.064	0.529	0	PA_with_intermediate	1,2,0,3,0,0,0,0,0	test	ward_and_allport	1,3,0,0,0,0,2,0,0	71.0	13.0	0.529	1,2,3,0,0,0,0,0,0	to_board	s634
145.597	0.337	0	PA_with_intermediate	1,0,0,3,0,0,0,0,0	test	ward_and_allport	1,3,0,0,0,0,2,0,0	89.0	13.0	0.337	1,2,3,0,0,0,0,0,0	to_hand	s634
145.934	0.259	0	PA_with_intermediate	1,0,0,3,0,0,2,0,0	test	ward_and_allport	1,3,0,0,0,0,2,0,0	82.0	13.0	0.259	1,2,3,0,0,0,0,0,0	to_board	s634
146.198	0.5	0	PA_with_intermediate	1,0,0,0,0,0,2,0,0	test	ward_and_allport	1,3,0,0,0,0,2,0,0	71.0	13.0	0.5	1,2,3,0,0,0,0,0,0	to_hand	s634
146.698	0.24	0	PA_with_intermediate	1,3,0,0,0,0,2,0,0	test	ward_and_allport	1,3,0,0,0,0,2,0,0	89.0	13.0	0.24	1,2,3,0,0,0,0,0,0	to_board	s634
146.943	1.0	0	PA_with_intermediate	n/a	test	ward_and_allport	n/a	-1.0	13.0	n/a	n/a	feedback	s634
147.943	2.36	0	PA_with_intermediate	n/a	test	ward_and_allport	n/a	-1.0	13.0	n/a	n/a	ITI	s634
150.308	1.854	1	PA_with_intermediate	0,0,0,1,2,0,0,0,0	test	ward_and_allport	2,0,0,1,3,0,0,0,0	71.0	14.0	1.854	0,0,0,1,2,3,0,0,0	to_hand	s634
152.163	0.359	0	PA_with_intermediate	0,0,0,1,2,0,3,0,0	test	ward_and_allport	2,0,0,1,3,0,0,0,0	82.0	14.0	0.359	0,0,0,1,2,3,0,0,0	to_board	s634
152.528	0.269	0	PA_with_intermediate	0,0,0,1,0,0,3,0,0	test	ward_and_allport	2,0,0,1,3,0,0,0,0	71.0	14.0	0.269	0,0,0,1,2,3,0,0,0	to_hand	s634
152.798	0.31	0	PA_with_intermediate	2,0,0,1,0,0,3,0,0	test	ward_and_allport	2,0,0,1,3,0,0,0,0	89.0	14.0	0.31	0,0,0,1,2,3,0,0,0	to_board	s634
153.113	0.407	0	PA_with_intermediate	2,0,0,1,0,0,0,0,0	test	ward_and_allport	2,0,0,1,3,0,0,0,0	82.0	14.0	0.407	0,0,0,1,2,3,0,0,0	to_hand	s634
153.521	0.213	0	PA_with_intermediate	2,0,0,1,3,0,0,0,0	test	ward_and_allport	2,0,0,1,3,0,0,0,0	71.0	14.0	0.213	0,0,0,1,2,3,0,0,0	to_board	s634
153.738	1.0	0	PA_with_intermediate	n/a	test	ward_and_allport	n/a	-1.0	14.0	n/a	n/a	feedback	s634
154.738	1.0	0	PA_with_intermediate	n/a	test	ward_and_allport	n/a	-1.0	14.0	n/a	n/a	ITI	s634
160.746	1.553	1	PA_without_intermediate	0,0,0,0,0,0,1,2,0	test	ward_and_allport	3,1,0,2,0,0,0,0,0	82.0	15.0	1.553	0,0,0,0,0,0,1,2,3	to_hand	s634
162.3	0.317	0	PA_without_intermediate	3,0,0,0,0,0,1,2,0	test	ward_and_allport	3,1,0,2,0,0,0,0,0	89.0	15.0	0.317	0,0,0,0,0,0,1,2,3	to_board	s634
162.621	1.568	0	PA_without_intermediate	3,0,0,0,0,0,1,0,0	test	ward_and_allport	3,1,0,2,0,0,0,0,0	82.0	15.0	1.568	0,0,0,0,0,0,1,2,3	to_hand	s634
164.191	0.194	0	PA_without_intermediate	3,0,0,2,0,0,1,0,0	test	ward_and_allport	3,1,0,2,0,0,0,0,0	71.0	15.0	0.194	0,0,0,0,0,0,1,2,3	to_board	s634
164.39	0.379	0	PA_without_intermediate	3,0,0,2,0,0,0,0,0	test	ward_and_allport	3,1,0,2,0,0,0,0,0	82.0	15.0	0.379	0,0,0,0,0,0,1,2,3	to_hand	s634
164.77	0.28	0	PA_without_intermediate	3,1,0,2,0,0,0,0,0	test	ward_and_allport	3,1,0,2,0,0,0,0,0	89.0	15.0	0.28	0,0,0,0,0,0,1,2,3	to_board	s634
165.055	1.0	0	PA_without_intermediate	n/a	test	ward_and_allport	n/a	-1.0	15.0	n/a	n/a	feedback	s634
166.055	1.408	0	PA_without_intermediate	n/a	test	ward_and_allport	n/a	-1.0	15.0	n/a	n/a	ITI	s634
167.467	3.838	1	PA_with_intermediate	0,0,0,0,0,0,1,2,0	test	ward_and_allport	2,3,0,0,0,0,1,0,0	82.0	16.0	3.838	0,0,0,0,0,0,1,2,3	to_hand	s634
171.306	0.413	0	PA_with_intermediate	0,0,0,3,0,0,1,2,0	test	ward_and_allport	2,3,0,0,0,0,1,0,0	71.0	16.0	0.413	0,0,0,0,0,0,1,2,3	to_board	s634
171.723	0.531	0	PA_with_intermediate	0,0,0,3,0,0,1,0,0	test	ward_and_allport	2,3,0,0,0,0,1,0,0	82.0	16.0	0.531	0,0,0,0,0,0,1,2,3	to_hand	s634
172.255	0.327	0	PA_with_intermediate	2,0,0,3,0,0,1,0,0	test	ward_and_allport	2,3,0,0,0,0,1,0,0	89.0	16.0	0.327	0,0,0,0,0,0,1,2,3	to_board	s634
172.587	0.689	0	PA_with_intermediate	2,0,0,0,0,0,1,0,0	test	ward_and_allport	2,3,0,0,0,0,1,0,0	71.0	16.0	0.689	0,0,0,0,0,0,1,2,3	to_hand	s634
173.277	0.201	0	PA_with_intermediate	2,3,0,0,0,0,1,0,0	test	ward_and_allport	2,3,0,0,0,0,1,0,0	89.0	16.0	0.201	0,0,0,0,0,0,1,2,3	to_board	s634
173.483	1.0	0	PA_with_intermediate	n/a	test	ward_and_allport	n/a	-1.0	16.0	n/a	n/a	feedback	s634
174.483	1.816	0	PA_with_intermediate	n/a	test	ward_and_allport	n/a	-1.0	16.0	n/a	n/a	ITI	s634
176.305	2.789	1	PA_without_intermediate	1,2,0,0,0,0,0,0,0	test	ward_and_allport	0,0,0,3,2,0,1,0,0	89.0	17.0	2.789	1,2,3,0,0,0,0,0,0	to_hand	s634
179.096	0.252	0	PA_without_intermediate	1,2,0,3,0,0,0,0,0	test	ward_and_allport	0,0,0,3,2,0,1,0,0	71.0	17.0	0.252	1,2,3,0,0,0,0,0,0	to_board	s634
179.352	0.621	0	PA_without_intermediate	1,0,0,3,0,0,0,0,0	test	ward_and_allport	0,0,0,3,2,0,1,0,0	89.0	17.0	0.621	1,2,3,0,0,0,0,0,0	to_hand	s634
179.974	0.804	0	PA_without_intermediate	1,0,0,3,2,0,0,0,0	test	ward_and_allport	0,0,0,3,2,0,1,0,0	71.0	17.0	0.804	1,2,3,0,0,0,0,0,0	to_board	s634
180.783	0.375	0	PA_without_intermediate	0,0,0,3,2,0,0,0,0	test	ward_and_allport	0,0,0,3,2,0,1,0,0	89.0	17.0	0.375	1,2,3,0,0,0,0,0,0	to_hand	s634
181.159	0.246	0	PA_without_intermediate	0,0,0,3,2,0,1,0,0	test	ward_and_allport	0,0,0,3,2,0,1,0,0	82.0	17.0	0.246	1,2,3,0,0,0,0,0,0	to_board	s634
181.409	1.0	0	PA_without_intermediate	n/a	test	ward_and_allport	n/a	-1.0	17.0	n/a	n/a	feedback	s634
182.409	2.088	0	PA_without_intermediate	n/a	test	ward_and_allport	n/a	-1.0	17.0	n/a	n/a	ITI	s634
184.504	1.61	1	PA_without_intermediate	0,0,0,0,0,0,1,2,0	test	ward_and_allport	1,0,0,3,2,0,0,0,0	82.0	18.0	1.61	0,0,0,0,0,0,1,2,3	to_hand	s634
186.115	0.357	0	PA_without_intermediate	0,0,0,3,0,0,1,2,0	test	ward_and_allport	1,0,0,3,2,0,0,0,0	71.0	18.0	0.357	0,0,0,0,0,0,1,2,3	to_board	s634
186.477	0.375	0	PA_without_intermediate	0,0,0,3,0,0,1,0,0	test	ward_and_allport	1,0,0,3,2,0,0,0,0	82.0	18.0	0.375	0,0,0,0,0,0,1,2,3	to_hand	s634
186.853	0.277	0	PA_without_intermediate	0,0,0,3,2,0,1,0,0	test	ward_and_allport	1,0,0,3,2,0,0,0,0	71.0	18.0	0.277	0,0,0,0,0,0,1,2,3	to_board	s634
187.136	0.707	0	PA_without_intermediate	0,0,0,3,2,0,0,0,0	test	ward_and_allport	1,0,0,3,2,0,0,0,0	82.0	18.0	0.707	0,0,0,0,0,0,1,2,3	to_hand	s634
187.844	0.207	0	PA_without_intermediate	1,0,0,3,2,0,0,0,0	test	ward_and_allport	1,0,0,3,2,0,0,0,0	89.0	18.0	0.207	0,0,0,0,0,0,1,2,3	to_board	s634
188.056	1.0	0	PA_without_intermediate	n/a	test	ward_and_allport	n/a	-1.0	18.0	n/a	n/a	feedback	s634
189.056	1.136	0	PA_without_intermediate	n/a	test	ward_and_allport	n/a	-1.0	18.0	n/a	n/a	ITI	s634
190.197	1.814	1	PA_without_intermediate	0,0,0,1,2,0,0,0,0	test	ward_and_allport	3,2,0,0,0,0,1,0,0	71.0	19.0	1.814	0,0,0,1,2,3,0,0,0	to_hand	s634
192.012	0.3	0	PA_without_intermediate	3,0,0,1,2,0,0,0,0	test	ward_and_allport	3,2,0,0,0,0,1,0,0	89.0	19.0	0.3	0,0,0,1,2,3,0,0,0	to_board	s634
192.316	0.313	0	PA_without_intermediate	3,0,0,1,0,0,0,0,0	test	ward_and_allport	3,2,0,0,0,0,1,0,0	71.0	19.0	0.313	0,0,0,1,2,3,0,0,0	to_hand	s634
192.631	0.399	0	PA_without_intermediate	3,2,0,1,0,0,0,0,0	test	ward_and_allport	3,2,0,0,0,0,1,0,0	89.0	19.0	0.399	0,0,0,1,2,3,0,0,0	to_board	s634
193.036	0.615	0	PA_without_intermediate	3,2,0,0,0,0,0,0,0	test	ward_and_allport	3,2,0,0,0,0,1,0,0	71.0	19.0	0.615	0,0,0,1,2,3,0,0,0	to_hand	s634
193.653	0.217	0	PA_without_intermediate	3,2,0,0,0,0,1,0,0	test	ward_and_allport	3,2,0,0,0,0,1,0,0	82.0	19.0	0.217	0,0,0,1,2,3,0,0,0	to_board	s634
193.877	1.0	0	PA_without_intermediate	n/a	test	ward_and_allport	n/a	-1.0	19.0	n/a	n/a	feedback	s634
194.877	6.168	0	PA_without_intermediate	n/a	test	ward_and_allport	n/a	-1.0	19.0	n/a	n/a	ITI	s634
201.049	2.495	1	PA_without_intermediate	1,2,0,0,0,0,0,0,0	test	ward_and_allport	0,0,0,3,1,0,2,0,0	89.0	20.0	2.495	1,2,3,0,0,0,0,0,0	to_hand	s634
203.545	0.237	0	PA_without_intermediate	1,2,0,3,0,0,0,0,0	test	ward_and_allport	0,0,0,3,1,0,2,0,0	71.0	20.0	0.237	1,2,3,0,0,0,0,0,0	to_board	s634
203.788	0.326	0	PA_without_intermediate	1,0,0,3,0,0,0,0,0	test	ward_and_allport	0,0,0,3,1,0,2,0,0	89.0	20.0	0.326	1,2,3,0,0,0,0,0,0	to_hand	s634
204.115	0.339	0	PA_without_intermediate	1,0,0,3,0,0,2,0,0	test	ward_and_allport	0,0,0,3,1,0,2,0,0	82.0	20.0	0.339	1,2,3,0,0,0,0,0,0	to_board	s634
204.461	0.564	0	PA_without_intermediate	0,0,0,3,0,0,2,0,0	test	ward_and_allport	0,0,0,3,1,0,2,0,0	89.0	20.0	0.564	1,2,3,0,0,0,0,0,0	to_hand	s634
205.026	0.262	0	PA_without_intermediate	0,0,0,3,1,0,2,0,0	test	ward_and_allport	0,0,0,3,1,0,2,0,0	71.0	20.0	0.262	1,2,3,0,0,0,0,0,0	to_board	s634
205.295	1.0	0	PA_without_intermediate	n/a	test	ward_and_allport	n/a	-1.0	20.0	n/a	n/a	feedback	s634
206.295	1.816	0	PA_without_intermediate	n/a	test	ward_and_allport	n/a	-1.0	20.0	n/a	n/a	ITI	s634
208.117	2.027	1	PA_with_intermediate	1,2,0,0,0,0,0,0,0	test	ward_and_allport	1,3,0,2,0,0,0,0,0	89.0	21.0	2.027	1,2,3,0,0,0,0,0,0	to_hand	s634
210.145	0.32	0	PA_with_intermediate	1,2,0,0,0,0,3,0,0	test	ward_and_allport	1,3,0,2,0,0,0,0,0	82.0	21.0	0.32	1,2,3,0,0,0,0,0,0	to_board	s634
210.472	0.733	0	PA_with_intermediate	1,0,0,0,0,0,3,0,0	test	ward_and_allport	1,3,0,2,0,0,0,0,0	89.0	21.0	0.733	1,2,3,0,0,0,0,0,0	to_hand	s634
211.206	0.213	0	PA_with_intermediate	1,0,0,2,0,0,3,0,0	test	ward_and_allport	1,3,0,2,0,0,0,0,0	71.0	21.0	0.213	1,2,3,0,0,0,0,0,0	to_board	s634
211.426	0.445	0	PA_with_intermediate	1,0,0,2,0,0,0,0,0	test	ward_and_allport	1,3,0,2,0,0,0,0,0	82.0	21.0	0.445	1,2,3,0,0,0,0,0,0	to_hand	s634
211.872	0.27	0	PA_with_intermediate	1,0,0,2,3,0,0,0,0	test	ward_and_allport	1,3,0,2,0,0,0,0,0	71.0	21.0	0.27	1,2,3,0,0,0,0,0,0	to_board	s634
212.15	0.567	0	PA_with_intermediate	1,0,0,2,0,0,0,0,0	test	ward_and_allport	1,3,0,2,0,0,0,0,0	71.0	21.0	0.567	1,2,3,0,0,0,0,0,0	to_hand	s634
212.718	0.226	0	PA_with_intermediate	1,3,0,2,0,0,0,0,0	test	ward_and_allport	1,3,0,2,0,0,0,0,0	89.0	21.0	0.226	1,2,3,0,0,0,0,0,0	to_board	s634
212.95	1.0	0	PA_with_intermediate	n/a	test	ward_and_allport	n/a	-1.0	21.0	n/a	n/a	feedback	s634
213.95	1.952	0	PA_with_intermediate	n/a	test	ward_and_allport	n/a	-1.0	21.0	n/a	n/a	ITI	s634
215.91	1.95	1	PA_with_intermediate	0,0,0,0,0,0,1,2,0	test	ward_and_allport	0,0,0,2,0,0,1,3,0	82.0	22.0	1.95	0,0,0,0,0,0,1,2,3	to_hand	s634
217.861	0.281	0	PA_with_intermediate	3,0,0,0,0,0,1,2,0	test	ward_and_allport	0,0,0,2,0,0,1,3,0	89.0	22.0	0.281	0,0,0,0,0,0,1,2,3	to_board	s634
218.149	0.58	0	PA_with_intermediate	3,0,0,0,0,0,1,0,0	test	ward_and_allport	0,0,0,2,0,0,1,3,0	82.0	22.0	0.58	0,0,0,0,0,0,1,2,3	to_hand	s634
218.731	0.185	0	PA_with_intermediate	3,0,0,2,0,0,1,0,0	test	ward_and_allport	0,0,0,2,0,0,1,3,0	71.0	22.0	0.185	0,0,0,0,0,0,1,2,3	to_board	s634
218.923	0.312	0	PA_with_intermediate	0,0,0,2,0,0,1,0,0	test	ward_and_allport	0,0,0,2,0,0,1,3,0	89.0	22.0	0.312	0,0,0,0,0,0,1,2,3	to_hand	s634
219.236	0.262	0	PA_with_intermediate	0,0,0,2,0,0,1,3,0	test	ward_and_allport	0,0,0,2,0,0,1,3,0	82.0	22.0	0.262	0,0,0,0,0,0,1,2,3	to_board	s634
219.505	1.0	0	PA_with_intermediate	n/a	test	ward_and_allport	n/a	-1.0	22.0	n/a	n/a	feedback	s634
220.505	1.136	0	PA_with_intermediate	n/a	test	ward_and_allport	n/a	-1.0	22.0	n/a	n/a	ITI	s634
221.648	1.269	1	PA_without_intermediate	1,2,0,0,0,0,0,0,0	test	ward_and_allport	0,0,0,2,0,0,3,1,0	89.0	23.0	1.269	1,2,3,0,0,0,0,0,0	to_hand	s634
222.917	0.328	0	PA_without_intermediate	1,2,0,0,0,0,3,0,0	test	ward_and_allport	0,0,0,2,0,0,3,1,0	82.0	23.0	0.328	1,2,3,0,0,0,0,0,0	to_board	s634
223.252	1.163	0	PA_without_intermediate	1,0,0,0,0,0,3,0,0	test	ward_and_allport	0,0,0,2,0,0,3,1,0	89.0	23.0	1.163	1,2,3,0,0,0,0,0,0	to_hand	s634
224.417	0.215	0	PA_without_intermediate	1,0,0,2,0,0,3,0,0	test	ward_and_allport	0,0,0,2,0,0,3,1,0	71.0	23.0	0.215	1,2,3,0,0,0,0,0,0	to_board	s634
224.638	0.212	0	PA_without_intermediate	0,0,0,2,0,0,3,0,0	test	ward_and_allport	0,0,0,2,0,0,3,1,0	89.0	23.0	0.212	1,2,3,0,0,0,0,0,0	to_hand	s634
224.851	0.331	0	PA_without_intermediate	0,0,0,2,0,0,3,1,0	test	ward_and_allport	0,0,0,2,0,0,3,1,0	82.0	23.0	0.331	1,2,3,0,0,0,0,0,0	to_board	s634
225.189	1.0	0	PA_without_intermediate	n/a	test	ward_and_allport	n/a	-1.0	23.0	n/a	n/a	feedback	s634
226.189	1.68	0	PA_without_intermediate	n/a	test	ward_and_allport	n/a	-1.0	23.0	n/a	n/a	ITI	s634
227.875	1.318	1	PA_without_intermediate	0,0,0,1,2,0,0,0,0	test	ward_and_allport	3,1,0,0,0,0,2,0,0	71.0	24.0	1.318	0,0,0,1,2,3,0,0,0	to_hand	s634
229.194	0.276	0	PA_without_intermediate	3,0,0,1,2,0,0,0,0	test	ward_and_allport	3,1,0,0,0,0,2,0,0	89.0	24.0	0.276	0,0,0,1,2,3,0,0,0	to_board	s634
229.477	0.563	0	PA_without_intermediate	3,0,0,1,0,0,0,0,0	test	ward_and_allport	3,1,0,0,0,0,2,0,0	71.0	24.0	0.563	0,0,0,1,2,3,0,0,0	to_hand	s634
230.041	0.264	0	PA_without_intermediate	3,0,0,1,0,0,2,0,0	test	ward_and_allport	3,1,0,0,0,0,2,0,0	82.0	24.0	0.264	0,0,0,1,2,3,0,0,0	to_board	s634
230.311	0.456	0	PA_without_intermediate	3,0,0,0,0,0,2,0,0	test	ward_and_allport	3,1,0,0,0,0,2,0,0	71.0	24.0	0.456	0,0,0,1,2,3,0,0,0	to_hand	s634
230.768	0.225	0	PA_without_intermediate	3,1,0,0,0,0,2,0,0	test	ward_and_allport	3,1,0,0,0,0,2,0,0	89.0	24.0	0.225	0,0,0,1,2,3,0,0,0	to_board	s634
231.0	1.0	0	PA_without_intermediate	n/a	test	ward_and_allport	n/a	-1.0	24.0	n/a	n/a	feedback	s634
232.0	2.088	0	PA_without_intermediate	n/a	test	ward_and_allport	n/a	-1.0	24.0	n/a	n/a	ITI	s634
234.098	1.812	1	PA_with_intermediate	0,0,0,1,2,0,0,0,0	test	ward_and_allport	0,0,0,1,3,0,2,0,0	71.0	25.0	1.812	0,0,0,1,2,3,0,0,0	to_hand	s634
235.911	0.253	0	PA_with_intermediate	3,0,0,1,2,0,0,0,0	test	ward_and_allport	0,0,0,1,3,0,2,0,0	89.0	25.0	0.253	0,0,0,1,2,3,0,0,0	to_board	s634
236.173	0.327	0	PA_with_intermediate	3,0,0,1,0,0,0,0,0	test	ward_and_allport	0,0,0,1,3,0,2,0,0	71.0	25.0	0.327	0,0,0,1,2,3,0,0,0	to_hand	s634
236.501	0.252	0	PA_with_intermediate	3,0,0,1,0,0,2,0,0	test	ward_and_allport	0,0,0,1,3,0,2,0,0	82.0	25.0	0.252	0,0,0,1,2,3,0,0,0	to_board	s634
236.759	0.339	0	PA_with_intermediate	0,0,0,1,0,0,2,0,0	test	ward_and_allport	0,0,0,1,3,0,2,0,0	89.0	25.0	0.339	0,0,0,1,2,3,0,0,0	to_hand	s634
237.099	0.248	0	PA_with_intermediate	0,0,0,1,3,0,2,0,0	test	ward_and_allport	0,0,0,1,3,0,2,0,0	71.0	25.0	0.248	0,0,0,1,2,3,0,0,0	to_board	s634
237.354	1.0	0	PA_with_intermediate	n/a	test	ward_and_allport	n/a	-1.0	25.0	n/a	n/a	feedback	s634
238.354	1.0	0	PA_with_intermediate	n/a	test	ward_and_allport	n/a	-1.0	25.0	n/a	n/a	ITI	s634
239.364	0.987	1	PA_without_intermediate	0,0,0,1,2,0,0,0,0	test	ward_and_allport	1,0,0,0,0,0,3,2,0	71.0	26.0	0.987	0,0,0,1,2,3,0,0,0	to_hand	s634
240.352	0.355	0	PA_without_intermediate	0,0,0,1,2,0,3,0,0	test	ward_and_allport	1,0,0,0,0,0,3,2,0	82.0	26.0	0.355	0,0,0,1,2,3,0,0,0	to_board	s634
240.714	0.774	0	PA_without_intermediate	0,0,0,1,0,0,3,0,0	test	ward_and_allport	1,0,0,0,0,0,3,2,0	71.0	26.0	0.774	0,0,0,1,2,3,0,0,0	to_hand	s634
241.489	0.256	0	PA_without_intermediate	0,0,0,1,0,0,3,2,0	test	ward_and_allport	1,0,0,0,0,0,3,2,0	82.0	26.0	0.256	0,0,0,1,2,3,0,0,0	to_board	s634
241.752	1.125	0	PA_without_intermediate	0,0,0,0,0,0,3,2,0	test	ward_and_allport	1,0,0,0,0,0,3,2,0	71.0	26.0	1.125	0,0,0,1,2,3,0,0,0	to_hand	s634
242.878	0.124	0	PA_without_intermediate	1,0,0,0,0,0,3,2,0	test	ward_and_allport	1,0,0,0,0,0,3,2,0	89.0	26.0	0.124	0,0,0,1,2,3,0,0,0	to_board	s634
243.007	1.0	0	PA_without_intermediate	n/a	test	ward_and_allport	n/a	-1.0	26.0	n/a	n/a	feedback	s634
244.007	1.0	0	PA_without_intermediate	n/a	test	ward_and_allport	n/a	-1.0	26.0	n/a	n/a	ITI	s634
245.014	2.497	1	PA_without_intermediate	0,0,0,0,0,0,1,2,0	test	ward_and_allport	1,0,0,3,2,0,0,0,0	82.0	27.0	2.497	0,0,0,0,0,0,1,2,3	to_hand	s634
247.513	0.242	0	PA_without_intermediate	0,0,0,3,0,0,1,2,0	test	ward_and_allport	1,0,0,3,2,0,0,0,0	71.0	27.0	0.242	0,0,0,0,0,0,1,2,3	to_board	s634
247.763	0.476	0	PA_without_intermediate	0,0,0,3,0,0,1,0,0	test	ward_and_allport	1,0,0,3,2,0,0,0,0	82.0	27.0	0.476	0,0,0,0,0,0,1,2,3	to_hand	s634
248.24	0.732	0	PA_without_intermediate	0,0,0,3,2,0,1,0,0	test	ward_and_allport	1,0,0,3,2,0,0,0,0	71.0	27.0	0.732	0,0,0,0,0,0,1,2,3	to_board	s634
248.981	0.337	0	PA_without_intermediate	0,0,0,3,2,0,0,0,0	test	ward_and_allport	1,0,0,3,2,0,0,0,0	82.0	27.0	0.337	0,0,0,0,0,0,1,2,3	to_hand	s634
249.32	0.223	0	PA_without_intermediate	1,0,0,3,2,0,0,0,0	test	ward_and_allport	1,0,0,3,2,0,0,0,0	89.0	27.0	0.223	0,0,0,0,0,0,1,2,3	to_board	s634
249.551	1.0	0	PA_without_intermediate	n/a	test	ward_and_allport	n/a	-1.0	27.0	n/a	n/a	feedback	s634
250.551	1.0	0	PA_without_intermediate	n/a	test	ward_and_allport	n/a	-1.0	27.0	n/a	n/a	ITI	s634
251.559	1.601	1	PA_with_intermediate	0,0,0,1,2,0,0,0,0	test	ward_and_allport	0,0,0,1,0,0,2,3,0	71.0	28.0	1.601	0,0,0,1,2,3,0,0,0	to_hand	s634
253.161	0.299	0	PA_with_intermediate	3,0,0,1,2,0,0,0,0	test	ward_and_allport	0,0,0,1,0,0,2,3,0	89.0	28.0	0.299	0,0,0,1,2,3,0,0,0	to_board	s634
253.467	0.333	0	PA_with_intermediate	3,0,0,1,0,0,0,0,0	test	ward_and_allport	0,0,0,1,0,0,2,3,0	71.0	28.0	0.333	0,0,0,1,2,3,0,0,0	to_hand	s634
253.802	0.293	0	PA_with_intermediate	3,0,0,1,0,0,2,0,0	test	ward_and_allport	0,0,0,1,0,0,2,3,0	82.0	28.0	0.293	0,0,0,1,2,3,0,0,0	to_board	s634
254.102	0.317	0	PA_with_intermediate	0,0,0,1,0,0,2,0,0	test	ward_and_allport	0,0,0,1,0,0,2,3,0	89.0	28.0	0.317	0,0,0,1,2,3,0,0,0	to_hand	s634
254.42	0.346	0	PA_with_intermediate	0,0,0,1,3,0,2,0,0	test	ward_and_allport	0,0,0,1,0,0,2,3,0	71.0	28.0	0.346	0,0,0,1,2,3,0,0,0	to_board	s634
254.772	0.706	0	PA_with_intermediate	0,0,0,1,0,0,2,0,0	test	ward_and_allport	0,0,0,1,0,0,2,3,0	71.0	28.0	0.706	0,0,0,1,2,3,0,0,0	to_hand	s634
255.479	0.314	0	PA_with_intermediate	0,0,0,1,0,0,2,3,0	test	ward_and_allport	0,0,0,1,0,0,2,3,0	82.0	28.0	0.314	0,0,0,1,2,3,0,0,0	to_board	s634
255.803	1.0	0	PA_with_intermediate	n/a	test	ward_and_allport	n/a	-1.0	28.0	n/a	n/a	feedback	s634
256.803	1.544	0	PA_with_intermediate	n/a	test	ward_and_allport	n/a	-1.0	28.0	n/a	n/a	ITI	s634
258.353	1.771	1	PA_without_intermediate	0,0,0,0,0,0,1,2,0	test	ward_and_allport	2,0,0,3,1,0,0,0,0	82.0	29.0	1.771	0,0,0,0,0,0,1,2,3	to_hand	s634
260.124	0.266	0	PA_without_intermediate	0,0,0,3,0,0,1,2,0	test	ward_and_allport	2,0,0,3,1,0,0,0,0	71.0	29.0	0.266	0,0,0,0,0,0,1,2,3	to_board	s634
260.395	0.954	0	PA_without_intermediate	0,0,0,3,0,0,1,0,0	test	ward_and_allport	2,0,0,3,1,0,0,0,0	82.0	29.0	0.954	0,0,0,0,0,0,1,2,3	to_hand	s634
261.35	0.22	0	PA_without_intermediate	2,0,0,3,0,0,1,0,0	test	ward_and_allport	2,0,0,3,1,0,0,0,0	89.0	29.0	0.22	0,0,0,0,0,0,1,2,3	to_board	s634
261.577	0.459	0	PA_without_intermediate	2,0,0,3,0,0,0,0,0	test	ward_and_allport	2,0,0,3,1,0,0,0,0	82.0	29.0	0.459	0,0,0,0,0,0,1,2,3	to_hand	s634
262.037	0.166	0	PA_without_intermediate	2,0,0,3,1,0,0,0,0	test	ward_and_allport	2,0,0,3,1,0,0,0,0	71.0	29.0	0.166	0,0,0,0,0,0,1,2,3	to_board	s634
262.214	1.0	0	PA_without_intermediate	n/a	test	ward_and_allport	n/a	-1.0	29.0	n/a	n/a	feedback	s634
263.214	1.272	0	PA_without_intermediate	n/a	test	ward_and_allport	n/a	-1.0	29.0	n/a	n/a	ITI	s634
269.495	1.917	1	PA_with_intermediate	0,0,0,1,2,0,0,0,0	test	ward_and_allport	2,3,0,1,0,0,0,0,0	71.0	30.0	1.917	0,0,0,1,2,3,0,0,0	to_hand	s634
271.413	0.316	0	PA_with_intermediate	0,0,0,1,2,0,3,0,0	test	ward_and_allport	2,3,0,1,0,0,0,0,0	82.0	30.0	0.316	0,0,0,1,2,3,0,0,0	to_board	s634
271.737	0.339	0	PA_with_intermediate	0,0,0,1,0,0,3,0,0	test	ward_and_allport	2,3,0,1,0,0,0,0,0	71.0	30.0	0.339	0,0,0,1,2,3,0,0,0	to_hand	s634
272.077	0.283	0	PA_with_intermediate	2,0,0,1,0,0,3,0,0	test	ward_and_allport	2,3,0,1,0,0,0,0,0	89.0	30.0	0.283	0,0,0,1,2,3,0,0,0	to_board	s634
272.368	0.61	0	PA_with_intermediate	2,0,0,1,0,0,0,0,0	test	ward_and_allport	2,3,0,1,0,0,0,0,0	82.0	30.0	0.61	0,0,0,1,2,3,0,0,0	to_hand	s634
272.98	0.842	0	PA_with_intermediate	2,3,0,1,0,0,0,0,0	test	ward_and_allport	2,3,0,1,0,0,0,0,0	89.0	30.0	0.842	0,0,0,1,2,3,0,0,0	to_board	s634
273.83	1.0	0	PA_with_intermediate	n/a	test	ward_and_allport	n/a	-1.0	30.0	n/a	n/a	feedback	s634
274.83	3.04	0	PA_with_intermediate	n/a	test	ward_and_allport	n/a	-1.0	30.0	n/a	n/a	ITI	s634
277.879	3.209	1	PA_with_intermediate	1,2,0,0,0,0,0,0,0	test	ward_and_allport	1,0,0,0,0,0,2,3,0	89.0	31.0	3.209	1,2,3,0,0,0,0,0,0	to_hand	s634
281.09	0.263	0	PA_with_intermediate	1,2,0,3,0,0,0,0,0	test	ward_and_allport	1,0,0,0,0,0,2,3,0	71.0	31.0	0.263	1,2,3,0,0,0,0,0,0	to_board	s634
281.361	0.366	0	PA_with_intermediate	1,0,0,3,0,0,0,0,0	test	ward_and_allport	1,0,0,0,0,0,2,3,0	89.0	31.0	0.366	1,2,3,0,0,0,0,0,0	to_hand	s634
281.728	0.315	0	PA_with_intermediate	1,0,0,3,0,0,2,0,0	test	ward_and_allport	1,0,0,0,0,0,2,3,0	82.0	31.0	0.315	1,2,3,0,0,0,0,0,0	to_board	s634
282.053	1.05	0	PA_with_intermediate	1,0,0,0,0,0,2,0,0	test	ward_and_allport	1,0,0,0,0,0,2,3,0	71.0	31.0	1.05	1,2,3,0,0,0,0,0,0	to_hand	s634
283.104	0.294	0	PA_with_intermediate	1,0,0,0,0,0,2,3,0	test	ward_and_allport	1,0,0,0,0,0,2,3,0	82.0	31.0	0.294	1,2,3,0,0,0,0,0,0	to_board	s634
283.408	1.0	0	PA_with_intermediate	n/a	test	ward_and_allport	n/a	-1.0	31.0	n/a	n/a	feedback	s634
284.408	1.272	0	PA_with_intermediate	n/a	test	ward_and_allport	n/a	-1.0	31.0	n/a	n/a	ITI	s634
285.691	2.844	1	PA_with_intermediate	0,0,0,0,0,0,1,2,0	test	ward_and_allport	2,3,0,0,0,0,1,0,0	82.0	32.0	2.844	0,0,0,0,0,0,1,2,3	to_hand	s634
288.536	0.233	0	PA_with_intermediate	0,0,0,3,0,0,1,2,0	test	ward_and_allport	2,3,0,0,0,0,1,0,0	71.0	32.0	0.233	0,0,0,0,0,0,1,2,3	to_board	s634
288.776	0.501	0	PA_with_intermediate	0,0,0,3,0,0,1,0,0	test	ward_and_allport	2,3,0,0,0,0,1,0,0	82.0	32.0	0.501	0,0,0,0,0,0,1,2,3	to_hand	s634
289.278	0.32	0	PA_with_intermediate	2,0,0,3,0,0,1,0,0	test	ward_and_allport	2,3,0,0,0,0,1,0,0	89.0	32.0	0.32	0,0,0,0,0,0,1,2,3	to_board	s634
289.606	0.797	0	PA_with_intermediate	2,0,0,0,0,0,1,0,0	test	ward_and_allport	2,3,0,0,0,0,1,0,0	71.0	32.0	0.797	0,0,0,0,0,0,1,2,3	to_hand	s634
290.404	0.19	0	PA_with_intermediate	2,3,0,0,0,0,1,0,0	test	ward_and_allport	2,3,0,0,0,0,1,0,0	89.0	32.0	0.19	0,0,0,0,0,0,1,2,3	to_board	s634
290.602	1.0	0	PA_with_intermediate	n/a	test	ward_and_allport	n/a	-1.0	32.0	n/a	n/a	feedback	s634
291.602	1.136	0	PA_with_intermediate	n/a	test	ward_and_allport	n/a	-1.0	32.0	n/a	n/a	ITI	s634
292.744	2.088	1	PA_with_intermediate	0,0,0,1,2,0,0,0,0	test	ward_and_allport	0,0,0,1,0,0,2,3,0	71.0	33.0	2.088	0,0,0,1,2,3,0,0,0	to_hand	s634
294.833	0.359	0	PA_with_intermediate	3,0,0,1,2,0,0,0,0	test	ward_and_allport	0,0,0,1,0,0,2,3,0	89.0	33.0	0.359	0,0,0,1,2,3,0,0,0	to_board	s634
295.198	0.46	0	PA_with_intermediate	3,0,0,1,0,0,0,0,0	test	ward_and_allport	0,0,0,1,0,0,2,3,0	71.0	33.0	0.46	0,0,0,1,2,3,0,0,0	to_hand	s634
295.659	0.273	0	PA_with_intermediate	3,0,0,1,0,0,2,0,0	test	ward_and_allport	0,0,0,1,0,0,2,3,0	82.0	33.0	0.273	0,0,0,1,2,3,0,0,0	to_board	s634
295.94	0.276	0	PA_with_intermediate	0,0,0,1,0,0,2,0,0	test	ward_and_allport	0,0,0,1,0,0,2,3,0	89.0	33.0	0.276	0,0,0,1,2,3,0,0,0	to_hand	s634
296.217	0.512	0	PA_with_intermediate	0,0,0,1,0,0,2,3,0	test	ward_and_allport	0,0,0,1,0,0,2,3,0	82.0	33.0	0.512	0,0,0,1,2,3,0,0,0	to_board	s634
296.738	1.0	0	PA_with_intermediate	n/a	test	ward_and_allport	n/a	-1.0	33.0	n/a	n/a	feedback	s634
297.738	1.0	0	PA_with_intermediate	n/a	test	ward_and_allport	n/a	-1.0	33.0	n/a	n/a	ITI	s634
298.745	2.963	1	PA_with_intermediate	0,0,0,1,2,0,0,0,0	test	ward_and_allport	2,3,0,1,0,0,0,0,0	71.0	34.0	2.963	0,0,0,1,2,3,0,0,0	to_hand	s634
301.71	0.392	0	PA_with_intermediate	0,0,0,1,2,0,3,0,0	test	ward_and_allport	2,3,0,1,0,0,0,0,0	82.0	34.0	0.392	0,0,0,1,2,3,0,0,0	to_board	s634
302.109	0.338	0	PA_with_intermediate	0,0,0,1,0,0,3,0,0	test	ward_and_allport	2,3,0,1,0,0,0,0,0	71.0	34.0	0.338	0,0,0,1,2,3,0,0,0	to_hand	s634
302.449	0.262	0	PA_with_intermediate	2,0,0,1,0,0,3,0,0	test	ward_and_allport	2,3,0,1,0,0,0,0,0	89.0	34.0	0.262	0,0,0,1,2,3,0,0,0	to_board	s634
302.72	1.147	0	PA_with_intermediate	2,0,0,1,0,0,0,0,0	test	ward_and_allport	2,3,0,1,0,0,0,0,0	82.0	34.0	1.147	0,0,0,1,2,3,0,0,0	to_hand	s634
303.868	0.245	0	PA_with_intermediate	2,3,0,1,0,0,0,0,0	test	ward_and_allport	2,3,0,1,0,0,0,0,0	89.0	34.0	0.245	0,0,0,1,2,3,0,0,0	to_board	s634
304.124	1.0	0	PA_with_intermediate	n/a	test	ward_and_allport	n/a	-1.0	34.0	n/a	n/a	feedback	s634
305.124	1.0	0	PA_with_intermediate	n/a	test	ward_and_allport	n/a	-1.0	34.0	n/a	n/a	ITI	s634
306.135	2.218	1	PA_without_intermediate	1,2,0,0,0,0,0,0,0	test	ward_and_allport	0,0,0,3,1,0,2,0,0	89.0	35.0	2.218	1,2,3,0,0,0,0,0,0	to_hand	s634
308.355	0.191	0	PA_without_intermediate	1,2,0,3,0,0,0,0,0	test	ward_and_allport	0,0,0,3,1,0,2,0,0	71.0	35.0	0.191	1,2,3,0,0,0,0,0,0	to_board	s634
308.556	0.446	0	PA_without_intermediate	1,0,0,3,0,0,0,0,0	test	ward_and_allport	0,0,0,3,1,0,2,0,0	89.0	35.0	0.446	1,2,3,0,0,0,0,0,0	to_hand	s634
309.004	0.305	0	PA_without_intermediate	1,0,0,3,0,0,2,0,0	test	ward_and_allport	0,0,0,3,1,0,2,0,0	82.0	35.0	0.305	1,2,3,0,0,0,0,0,0	to_board	s634
309.316	0.658	0	PA_without_intermediate	0,0,0,3,0,0,2,0,0	test	ward_and_allport	0,0,0,3,1,0,2,0,0	89.0	35.0	0.658	1,2,3,0,0,0,0,0,0	to_hand	s634
309.976	0.355	0	PA_without_intermediate	0,0,0,3,1,0,2,0,0	test	ward_and_allport	0,0,0,3,1,0,2,0,0	71.0	35.0	0.355	1,2,3,0,0,0,0,0,0	to_board	s634
310.338	1.0	0	PA_without_intermediate	n/a	test	ward_and_allport	n/a	-1.0	35.0	n/a	n/a	feedback	s634
311.338	1.408	0	PA_without_intermediate	n/a	test	ward_and_allport	n/a	-1.0	35.0	n/a	n/a	ITI	s634
312.752	2.699	1	PA_with_intermediate	0,0,0,0,0,0,1,2,0	test	ward_and_allport	0,0,0,2,3,0,1,0,0	82.0	36.0	2.699	0,0,0,0,0,0,1,2,3	to_hand	s634
315.452	1.128	0	PA_with_intermediate	3,0,0,0,0,0,1,2,0	test	ward_and_allport	0,0,0,2,3,0,1,0,0	89.0	36.0	1.128	0,0,0,0,0,0,1,2,3	to_board	s634
316.586	0.373	0	PA_with_intermediate	3,0,0,0,0,0,1,0,0	test	ward_and_allport	0,0,0,2,3,0,1,0,0	82.0	36.0	0.373	0,0,0,0,0,0,1,2,3	to_hand	s634
316.96	0.224	0	PA_with_intermediate	3,0,0,2,0,0,1,0,0	test	ward_and_allport	0,0,0,2,3,0,1,0,0	71.0	36.0	0.224	0,0,0,0,0,0,1,2,3	to_board	s634
317.193	0.298	0	PA_with_intermediate	0,0,0,2,0,0,1,0,0	test	ward_and_allport	0,0,0,2,3,0,1,0,0	89.0	36.0	0.298	0,0,0,0,0,0,1,2,3	to_hand	s634
317.492	0.31	0	PA_with_intermediate	0,0,0,2,3,0,1,0,0	test	ward_and_allport	0,0,0,2,3,0,1,0,0	71.0	36.0	0.31	0,0,0,0,0,0,1,2,3	to_board	s634
317.813	1.0	0	PA_with_intermediate	n/a	test	ward_and_allport	n/a	-1.0	36.0	n/a	n/a	feedback	s634
318.813	2.768	0	PA_with_intermediate	n/a	test	ward_and_allport	n/a	-1.0	36.0	n/a	n/a	ITI	s634
321.591	2.985	1	PA_with_intermediate	1,2,0,0,0,0,0,0,0	test	ward_and_allport	1,3,0,0,0,0,2,0,0	89.0	37.0	2.985	1,2,3,0,0,0,0,0,0	to_hand	s634
324.577	0.188	0	PA_with_intermediate	1,2,0,3,0,0,0,0,0	test	ward_and_allport	1,3,0,0,0,0,2,0,0	71.0	37.0	0.188	1,2,3,0,0,0,0,0,0	to_board	s634
324.774	0.316	0	PA_with_intermediate	1,0,0,3,0,0,0,0,0	test	ward_and_allport	1,3,0,0,0,0,2,0,0	89.0	37.0	0.316	1,2,3,0,0,0,0,0,0	to_hand	s634
325.091	0.336	0	PA_with_intermediate	1,0,0,3,0,0,2,0,0	test	ward_and_allport	1,3,0,0,0,0,2,0,0	82.0	37.0	0.336	1,2,3,0,0,0,0,0,0	to_board	s634
325.437	0.571	0	PA_with_intermediate	1,0,0,0,0,0,2,0,0	test	ward_and_allport	1,3,0,0,0,0,2,0,0	71.0	37.0	0.571	1,2,3,0,0,0,0,0,0	to_hand	s634
326.009	0.228	0	PA_with_intermediate	1,3,0,0,0,0,2,0,0	test	ward_and_allport	1,3,0,0,0,0,2,0,0	89.0	37.0	0.228	1,2,3,0,0,0,0,0,0	to_board	s634
326.248	1.0	0	PA_with_intermediate	n/a	test	ward_and_allport	n/a	-1.0	37.0	n/a	n/a	feedback	s634
327.248	1.68	0	PA_with_intermediate	n/a	test	ward_and_allport	n/a	-1.0	37.0	n/a	n/a	ITI	s634
328.937	1.585	1	PA_without_intermediate	1,2,0,0,0,0,0,0,0	test	ward_and_allport	0,0,0,3,2,0,1,0,0	89.0	38.0	1.585	1,2,3,0,0,0,0,0,0	to_hand	s634
330.523	0.287	0	PA_without_intermediate	1,2,0,3,0,0,0,0,0	test	ward_and_allport	0,0,0,3,2,0,1,0,0	71.0	38.0	0.287	1,2,3,0,0,0,0,0,0	to_board	s634
330.817	2.218	0	PA_without_intermediate	1,0,0,3,0,0,0,0,0	test	ward_and_allport	0,0,0,3,2,0,1,0,0	89.0	38.0	2.218	1,2,3,0,0,0,0,0,0	to_hand	s634
333.036	0.458	0	PA_without_intermediate	1,0,0,3,2,0,0,0,0	test	ward_and_allport	0,0,0,3,2,0,1,0,0	71.0	38.0	0.458	1,2,3,0,0,0,0,0,0	to_board	s634
333.501	0.287	0	PA_without_intermediate	0,0,0,3,2,0,0,0,0	test	ward_and_allport	0,0,0,3,2,0,1,0,0	89.0	38.0	0.287	1,2,3,0,0,0,0,0,0	to_hand	s634
333.789	0.261	0	PA_without_intermediate	0,0,0,3,2,0,1,0,0	test	ward_and_allport	0,0,0,3,2,0,1,0,0	82.0	38.0	0.261	1,2,3,0,0,0,0,0,0	to_board	s634
334.059	1.0	0	PA_without_intermediate	n/a	test	ward_and_allport	n/a	-1.0	38.0	n/a	n/a	feedback	s634
335.059	2.224	0	PA_without_intermediate	n/a	test	ward_and_allport	n/a	-1.0	38.0	n/a	n/a	ITI	s634
337.292	1.183	1	PA_without_intermediate	0,0,0,1,2,0,0,0,0	test	ward_and_allport	2,0,0,0,0,0,3,1,0	71.0	39.0	1.183	0,0,0,1,2,3,0,0,0	to_hand	s634
338.477	0.286	0	PA_without_intermediate	0,0,0,1,2,0,3,0,0	test	ward_and_allport	2,0,0,0,0,0,3,1,0	82.0	39.0	0.286	0,0,0,1,2,3,0,0,0	to_board	s634
338.772	0.64	0	PA_without_intermediate	0,0,0,1,0,0,3,0,0	test	ward_and_allport	2,0,0,0,0,0,3,1,0	71.0	39.0	0.64	0,0,0,1,2,3,0,0,0	to_hand	s634
339.413	0.538	0	PA_without_intermediate	2,0,0,1,0,0,3,0,0	test	ward_and_allport	2,0,0,0,0,0,3,1,0	89.0	39.0	0.538	0,0,0,1,2,3,0,0,0	to_board	s634
339.961	0.292	0	PA_without_intermediate	2,0,0,0,0,0,3,0,0	test	ward_and_allport	2,0,0,0,0,0,3,1,0	71.0	39.0	0.292	0,0,0,1,2,3,0,0,0	to_hand	s634
340.255	0.327	0	PA_without_intermediate	2,0,0,0,0,0,3,1,0	test	ward_and_allport	2,0,0,0,0,0,3,1,0	82.0	39.0	0.327	0,0,0,1,2,3,0,0,0	to_board	s634
340.593	1.0	0	PA_without_intermediate	n/a	test	ward_and_allport	n/a	-1.0	39.0	n/a	n/a	feedback	s634
341.593	2.36	0	PA_without_intermediate	n/a	test	ward_and_allport	n/a	-1.0	39.0	n/a	n/a	ITI	s634
343.961	1.148	1	PA_without_intermediate	0,0,0,1,2,0,0,0,0	test	ward_and_allport	3,2,0,0,0,0,1,0,0	71.0	40.0	1.148	0,0,0,1,2,3,0,0,0	to_hand	s634
345.11	0.299	0	PA_without_intermediate	3,0,0,1,2,0,0,0,0	test	ward_and_allport	3,2,0,0,0,0,1,0,0	89.0	40.0	0.299	0,0,0,1,2,3,0,0,0	to_board	s634
345.417	0.288	0	PA_without_intermediate	3,0,0,1,0,0,0,0,0	test	ward_and_allport	3,2,0,0,0,0,1,0,0	71.0	40.0	0.288	0,0,0,1,2,3,0,0,0	to_hand	s634
345.707	0.276	0	PA_without_intermediate	3,2,0,1,0,0,0,0,0	test	ward_and_allport	3,2,0,0,0,0,1,0,0	89.0	40.0	0.276	0,0,0,1,2,3,0,0,0	to_board	s634
345.993	0.56	0	PA_without_intermediate	3,2,0,0,0,0,0,0,0	test	ward_and_allport	3,2,0,0,0,0,1,0,0	71.0	40.0	0.56	0,0,0,1,2,3,0,0,0	to_hand	s634
346.554	0.309	0	PA_without_intermediate	3,2,0,0,0,0,1,0,0	test	ward_and_allport	3,2,0,0,0,0,1,0,0	82.0	40.0	0.309	0,0,0,1,2,3,0,0,0	to_board	s634
346.872	1.0	0	PA_without_intermediate	n/a	test	ward_and_allport	n/a	-1.0	40.0	n/a	n/a	feedback	s634
347.872	1.0	0	PA_without_intermediate	n/a	test	ward_and_allport	n/a	-1.0	40.0	n/a	n/a	ITI	s634
348.881	0.959	1	PA_without_intermediate	0,0,0,1,2,0,0,0,0	test	ward_and_allport	3,1,0,0,0,0,2,0,0	71.0	41.0	0.959	0,0,0,1,2,3,0,0,0	to_hand	s634
349.841	0.341	0	PA_without_intermediate	3,0,0,1,2,0,0,0,0	test	ward_and_allport	3,1,0,0,0,0,2,0,0	89.0	41.0	0.341	0,0,0,1,2,3,0,0,0	to_board	s634
350.193	0.362	0	PA_without_intermediate	3,0,0,1,0,0,0,0,0	test	ward_and_allport	3,1,0,0,0,0,2,0,0	71.0	41.0	0.362	0,0,0,1,2,3,0,0,0	to_hand	s634
350.556	0.227	0	PA_without_intermediate	3,0,0,1,0,0,2,0,0	test	ward_and_allport	3,1,0,0,0,0,2,0,0	82.0	41.0	0.227	0,0,0,1,2,3,0,0,0	to_board	s634
350.793	0.247	0	PA_without_intermediate	3,0,0,0,0,0,2,0,0	test	ward_and_allport	3,1,0,0,0,0,2,0,0	71.0	41.0	0.247	0,0,0,1,2,3,0,0,0	to_hand	s634
351.042	0.24	0	PA_without_intermediate	3,1,0,0,0,0,2,0,0	test	ward_and_allport	3,1,0,0,0,0,2,0,0	89.0	41.0	0.24	0,0,0,1,2,3,0,0,0	to_board	s634
351.29	1.0	0	PA_without_intermediate	n/a	test	ward_and_allport	n/a	-1.0	41.0	n/a	n/a	feedback	s634
352.29	1.408	0	PA_without_intermediate	n/a	test	ward_and_allport	n/a	-1.0	41.0	n/a	n/a	ITI	s634
353.707	1.695	1	PA_with_intermediate	1,2,0,0,0,0,0,0,0	test	ward_and_allport	1,0,0,2,3,0,0,0,0	89.0	42.0	1.695	1,2,3,0,0,0,0,0,0	to_hand	s634
355.403	0.282	0	PA_with_intermediate	1,2,0,0,0,0,3,0,0	test	ward_and_allport	1,0,0,2,3,0,0,0,0	82.0	42.0	0.282	1,2,3,0,0,0,0,0,0	to_board	s634
355.692	0.946	0	PA_with_intermediate	1,0,0,0,0,0,3,0,0	test	ward_and_allport	1,0,0,2,3,0,0,0,0	89.0	42.0	0.946	1,2,3,0,0,0,0,0,0	to_hand	s634
356.639	0.228	0	PA_with_intermediate	1,0,0,2,0,0,3,0,0	test	ward_and_allport	1,0,0,2,3,0,0,0,0	71.0	42.0	0.228	1,2,3,0,0,0,0,0,0	to_board	s634
356.874	0.513	0	PA_with_intermediate	1,0,0,2,0,0,0,0,0	test	ward_and_allport	1,0,0,2,3,0,0,0,0	82.0	42.0	0.513	1,2,3,0,0,0,0,0,0	to_hand	s634
357.388	0.232	0	PA_with_intermediate	1,0,0,2,3,0,0,0,0	test	ward_and_allport	1,0,0,2,3,0,0,0,0	71.0	42.0	0.232	1,2,3,0,0,0,0,0,0	to_board	s634
357.628	1.0	0	PA_with_intermediate	n/a	test	ward_and_allport	n/a	-1.0	42.0	n/a	n/a	feedback	s634
358.628	1.136	0	PA_with_intermediate	n/a	test	ward_and_allport	n/a	-1.0	42.0	n/a	n/a	ITI	s634
359.773	1.116	1	PA_without_intermediate	1,2,0,0,0,0,0,0,0	test	ward_and_allport	0,0,0,1,0,0,3,2,0	89.0	43.0	1.116	1,2,3,0,0,0,0,0,0	to_hand	s634
360.89	0.282	0	PA_without_intermediate	1,2,0,0,0,0,3,0,0	test	ward_and_allport	0,0,0,1,0,0,3,2,0	82.0	43.0	0.282	1,2,3,0,0,0,0,0,0	to_board	s634
361.18	0.92	0	PA_without_intermediate	1,0,0,0,0,0,3,0,0	test	ward_and_allport	0,0,0,1,0,0,3,2,0	89.0	43.0	0.92	1,2,3,0,0,0,0,0,0	to_hand	s634
362.101	0.35	0	PA_without_intermediate	1,0,0,0,0,0,3,2,0	test	ward_and_allport	0,0,0,1,0,0,3,2,0	82.0	43.0	0.35	1,2,3,0,0,0,0,0,0	to_board	s634
362.46	0.272	0	PA_without_intermediate	0,0,0,0,0,0,3,2,0	test	ward_and_allport	0,0,0,1,0,0,3,2,0	89.0	43.0	0.272	1,2,3,0,0,0,0,0,0	to_hand	s634
362.733	0.246	0	PA_without_intermediate	0,0,0,1,0,0,3,2,0	test	ward_and_allport	0,0,0,1,0,0,3,2,0	71.0	43.0	0.246	1,2,3,0,0,0,0,0,0	to_board	s634
362.988	1.0	0	PA_without_intermediate	n/a	test	ward_and_allport	n/a	-1.0	43.0	n/a	n/a	feedback	s634
363.988	4.128	0	PA_without_intermediate	n/a	test	ward_and_allport	n/a	-1.0	43.0	n/a	n/a	ITI	s634
368.123	0.969	1	PA_without_intermediate	0,0,0,1,2,0,0,0,0	test	ward_and_allport	1,0,0,0,0,0,3,2,0	71.0	44.0	0.969	0,0,0,1,2,3,0,0,0	to_hand	s634
369.093	0.306	0	PA_without_intermediate	0,0,0,1,2,0,3,0,0	test	ward_and_allport	1,0,0,0,0,0,3,2,0	82.0	44.0	0.306	0,0,0,1,2,3,0,0,0	to_board	s634
369.406	0.893	0	PA_without_intermediate	0,0,0,1,0,0,3,0,0	test	ward_and_allport	1,0,0,0,0,0,3,2,0	71.0	44.0	0.893	0,0,0,1,2,3,0,0,0	to_hand	s634
370.3	0.266	0	PA_without_intermediate	0,0,0,1,0,0,3,2,0	test	ward_and_allport	1,0,0,0,0,0,3,2,0	82.0	44.0	0.266	0,0,0,1,2,3,0,0,0	to_board	s634
370.573	0.398	0	PA_without_intermediate	0,0,0,0,0,0,3,2,0	test	ward_and_allport	1,0,0,0,0,0,3,2,0	71.0	44.0	0.398	0,0,0,1,2,3,0,0,0	to_hand	s634
370.972	0.185	0	PA_without_intermediate	1,0,0,0,0,0,3,2,0	test	ward_and_allport	1,0,0,0,0,0,3,2,0	89.0	44.0	0.185	0,0,0,1,2,3,0,0,0	to_board	s634
371.168	1.0	0	PA_without_intermediate	n/a	test	ward_and_allport	n/a	-1.0	44.0	n/a	n/a	feedback	s634
372.168	1.136	0	PA_without_intermediate	n/a	test	ward_and_allport	n/a	-1.0	44.0	n/a	n/a	ITI	s634
378.316	1.752	1	PA_without_intermediate	0,0,0,0,0,0,1,2,0	test	ward_and_allport	3,2,0,1,0,0,0,0,0	82.0	45.0	1.752	0,0,0,0,0,0,1,2,3	to_hand	s634
380.068	0.235	0	PA_without_intermediate	3,0,0,0,0,0,1,2,0	test	ward_and_allport	3,2,0,1,0,0,0,0,0	89.0	45.0	0.235	0,0,0,0,0,0,1,2,3	to_board	s634
380.315	0.789	0	PA_without_intermediate	3,0,0,0,0,0,1,0,0	test	ward_and_allport	3,2,0,1,0,0,0,0,0	82.0	45.0	0.789	0,0,0,0,0,0,1,2,3	to_hand	s634
381.105	0.235	0	PA_without_intermediate	3,2,0,0,0,0,1,0,0	test	ward_and_allport	3,2,0,1,0,0,0,0,0	89.0	45.0	0.235	0,0,0,0,0,0,1,2,3	to_board	s634
381.352	0.688	0	PA_without_intermediate	3,2,0,0,0,0,0,0,0	test	ward_and_allport	3,2,0,1,0,0,0,0,0	82.0	45.0	0.688	0,0,0,0,0,0,1,2,3	to_hand	s634
382.041	0.223	0	PA_without_intermediate	3,2,0,1,0,0,0,0,0	test	ward_and_allport	3,2,0,1,0,0,0,0,0	71.0	45.0	0.223	0,0,0,0,0,0,1,2,3	to_board	s634
382.276	1.0	0	PA_without_intermediate	n/a	test	ward_and_allport	n/a	-1.0	45.0	n/a	n/a	feedback	s634
383.276	4.264	0	PA_without_intermediate	n/a	test	ward_and_allport	n/a	-1.0	45.0	n/a	n/a	ITI	s634
387.552	1.535	1	PA_with_intermediate	1,2,0,0,0,0,0,0,0	test	ward_and_allport	1,0,0,0,0,0,2,3,0	89.0	46.0	1.535	1,2,3,0,0,0,0,0,0	to_hand	s634
389.088	0.327	0	PA_with_intermediate	1,2,0,3,0,0,0,0,0	test	ward_and_allport	1,0,0,0,0,0,2,3,0	71.0	46.0	0.327	1,2,3,0,0,0,0,0,0	to_board	s634
389.428	0.434	0	PA_with_intermediate	1,0,0,3,0,0,0,0,0	test	ward_and_allport	1,0,0,0,0,0,2,3,0	89.0	46.0	0.434	1,2,3,0,0,0,0,0,0	to_hand	s634
389.864	0.28	0	PA_with_intermediate	1,0,0,3,0,0,2,0,0	test	ward_and_allport	1,0,0,0,0,0,2,3,0	82.0	46.0	0.28	1,2,3,0,0,0,0,0,0	to_board	s634
390.157	0.322	0	PA_with_intermediate	1,0,0,0,0,0,2,0,0	test	ward_and_allport	1,0,0,0,0,0,2,3,0	71.0	46.0	0.322	1,2,3,0,0,0,0,0,0	to_hand	s634
390.48	0.239	0	PA_with_intermediate	1,0,0,0,0,0,2,3,0	test	ward_and_allport	1,0,0,0,0,0,2,3,0	82.0	46.0	0.239	1,2,3,0,0,0,0,0,0	to_board	s634
390.73	1.0	0	PA_with_intermediate	n/a	test	ward_and_allport	n/a	-1.0	46.0	n/a	n/a	feedback	s634
391.73	3.04	0	PA_with_intermediate	n/a	test	ward_and_allport	n/a	-1.0	46.0	n/a	n/a	ITI	s634
394.779	1.493	1	PA_with_intermediate	1,2,0,0,0,0,0,0,0	test	ward_and_allport	1,3,0,2,0,0,0,0,0	89.0	47.0	1.493	1,2,3,0,0,0,0,0,0	to_hand	s634
396.273	0.456	0	PA_with_intermediate	1,2,0,0,0,0,3,0,0	test	ward_and_allport	1,3,0,2,0,0,0,0,0	82.0	47.0	0.456	1,2,3,0,0,0,0,0,0	to_board	s634
396.736	1.21	0	PA_with_intermediate	1,0,0,0,0,0,3,0,0	test	ward_and_allport	1,3,0,2,0,0,0,0,0	89.0	47.0	1.21	1,2,3,0,0,0,0,0,0	to_hand	s634
397.947	0.304	0	PA_with_intermediate	1,0,0,2,0,0,3,0,0	test	ward_and_allport	1,3,0,2,0,0,0,0,0	71.0	47.0	0.304	1,2,3,0,0,0,0,0,0	to_board	s634
398.261	0.392	0	PA_with_intermediate	1,0,0,2,0,0,0,0,0	test	ward_and_allport	1,3,0,2,0,0,0,0,0	82.0	47.0	0.392	1,2,3,0,0,0,0,0,0	to_hand	s634
398.654	0.218	0	PA_with_intermediate	1,3,0,2,0,0,0,0,0	test	ward_and_allport	1,3,0,2,0,0,0,0,0	89.0	47.0	0.218	1,2,3,0,0,0,0,0,0	to_board	s634
398.884	1.0	0	PA_with_intermediate	n/a	test	ward_and_allport	n/a	-1.0	47.0	n/a	n/a	feedback	s634
399.884	1.136	0	PA_with_intermediate	n/a	test	ward_and_allport	n/a	-1.0	47.0	n/a	n/a	ITI	s634
n/a	n/a	0	n/a	n/a	n/a	n/a	n/a	n/a	n/a	n/a	n/a	ITI	n/a
