onset	duration	EV	action	clicked_on_loss_card	experiment_exp_id	gain_amount	gain_probability	key_press	loss_amount	loss_probability	num_cards	num_click_in_round	num_loss_cards	risk	response_time	total_cards	trial_id	worker_id
3.006	2.915	-2.157753745172577	end_round	0.0	columbia_card_task_fmri	12.0	0.8333333333333334	71.0	-70.0	0.1666666666666666	6.0	1.0	1.0	-0.8314601721169623	2.915	0.0	stim	s634
5.923	2.25	n/a	-1.0	n/a	columbia_card_task_fmri	n/a	n/a	-1.0	n/a	n/a	n/a	n/a	n/a	n/a	n/a	n/a	feedback	s634
8.173	0.0	n/a	-1.0	n/a	columbia_card_task_fmri	n/a	n/a	-1.0	n/a	n/a	n/a	n/a	n/a	n/a	n/a	n/a	ITI	s634
8.175	3.356	-1.3244204118392424	end_round	0.0	columbia_card_task_fmri	14.0	0.8333333333333334	71.0	-75.0	0.1666666666666666	6.0	1.0	1.0	1.776975510200053	3.356	0.0	stim	s634
11.532	2.25	n/a	-1.0	n/a	columbia_card_task_fmri	n/a	n/a	-1.0	n/a	n/a	n/a	n/a	n/a	n/a	n/a	n/a	feedback	s634
13.782	0.136	n/a	-1.0	n/a	columbia_card_task_fmri	n/a	n/a	-1.0	n/a	n/a	n/a	n/a	n/a	n/a	n/a	n/a	ITI	s634
13.92	4.984	0.3422462548274236	end_round	0.0	columbia_card_task_fmri	15.0	0.8333333333333334	71.0	-70.0	0.1666666666666666	6.0	1.0	1.0	0.2864345777364576	4.984	0.0	stim	s634
18.905	2.25	n/a	-1.0	n/a	columbia_card_task_fmri	n/a	n/a	-1.0	n/a	n/a	n/a	n/a	n/a	n/a	n/a	n/a	feedback	s634
21.155	0.34	n/a	-1.0	n/a	columbia_card_task_fmri	n/a	n/a	-1.0	n/a	n/a	n/a	n/a	n/a	n/a	n/a	n/a	ITI	s634
21.496	1.583	1.1755795881607576	draw_card	0.0	columbia_card_task_fmri	17.0	0.8333333333333334	89.0	-75.0	0.1666666666666666	6.0	1.0	1.0	2.8948909691382383	1.583	n/a	stim	s634
23.083	1.127	-1.8910870785059088	draw_card	0.0	columbia_card_task_fmri	17.0	0.8	89.0	-75.0	0.2	6.0	2.0	1.0	5.408275123745248	1.127	n/a	stim	s634
24.211	1.23	-6.491087078505911	end_round	0.0	columbia_card_task_fmri	17.0	0.75	71.0	-75.0	0.25	6.0	3.0	1.0	8.44519391306632	1.23	2.0	stim	s634
25.444	2.25	n/a	-1.0	n/a	columbia_card_task_fmri	n/a	n/a	-1.0	n/a	n/a	n/a	n/a	n/a	n/a	n/a	n/a	feedback	s634
27.694	0.408	n/a	-1.0	n/a	columbia_card_task_fmri	n/a	n/a	-1.0	n/a	n/a	n/a	n/a	n/a	n/a	n/a	n/a	ITI	s634
28.103	1.662	2.508912921494089	draw_card	0.0	columbia_card_task_fmri	24.0	0.75	89.0	-60.0	0.25	8.0	1.0	2.0	4.981380538359758	1.662	n/a	stim	s634
29.766	0.933	-0.4910870785059102	draw_card	1.0	columbia_card_task_fmri	24.0	0.7142857142857143	89.0	-60.0	0.2857142857142857	8.0	2.0	2.0	6.55550798748957	0.933	2.0	stim	s634
30.701	2.25	n/a	-1.0	n/a	columbia_card_task_fmri	n/a	n/a	-1.0	n/a	n/a	n/a	n/a	n/a	n/a	n/a	n/a	feedback	s634
32.951	0.136	n/a	-1.0	n/a	columbia_card_task_fmri	n/a	n/a	-1.0	n/a	n/a	n/a	n/a	n/a	n/a	n/a	n/a	ITI	s634
33.089	3.173	2.508912921494089	draw_card	0.0	columbia_card_task_fmri	29.0	0.75	89.0	-75.0	0.25	8.0	1.0	2.0	13.640997113078754	3.173	n/a	stim	s634
36.263	0.848	-1.205372792791622	draw_card	0.0	columbia_card_task_fmri	29.0	0.7142857142857143	89.0	-75.0	0.2857142857142857	8.0	2.0	2.0	15.589975993343742	0.848	n/a	stim	s634
37.112	2.008	-6.157753745172575	draw_card	0.0	columbia_card_task_fmri	29.0	0.6666666666666667	89.0	-75.0	0.3333333333333333	8.0	3.0	2.0	17.6335282254253	2.008	n/a	stim	s634
39.122	1.117	-13.091087078505913	end_round	0.0	columbia_card_task_fmri	29.0	0.6	71.0	-75.0	0.4	8.0	4.0	2.0	19.55675187195008	1.117	3.0	stim	s634
40.241	2.25	n/a	-1.0	n/a	columbia_card_task_fmri	n/a	n/a	-1.0	n/a	n/a	n/a	n/a	n/a	n/a	n/a	n/a	feedback	s634
42.491	0.136	n/a	-1.0	n/a	columbia_card_task_fmri	n/a	n/a	-1.0	n/a	n/a	n/a	n/a	n/a	n/a	n/a	n/a	ITI	s634
42.628	2.096	-1.71330930072813	draw_card	0.0	columbia_card_task_fmri	17.0	0.7777777777777778	89.0	-65.0	0.2222222222222222	9.0	1.0	2.0	2.699191692915882	2.096	n/a	stim	s634
44.726	0.784	-3.9910870785059114	draw_card	1.0	columbia_card_task_fmri	17.0	0.75	89.0	-65.0	0.25	9.0	2.0	2.0	4.115435981296272	0.784	2.0	stim	s634
45.512	2.25	n/a	-1.0	n/a	columbia_card_task_fmri	n/a	n/a	-1.0	n/a	n/a	n/a	n/a	n/a	n/a	n/a	n/a	feedback	s634
47.762	0.0	n/a	-1.0	n/a	columbia_card_task_fmri	n/a	n/a	-1.0	n/a	n/a	n/a	n/a	n/a	n/a	n/a	n/a	ITI	s634
47.762	4.906	2.608912921494089	end_round	0.0	columbia_card_task_fmri	14.0	0.9	71.0	-95.0	0.1	10.0	1.0	1.0	1.3086859041590555	4.906	0.0	stim	s634
52.67	2.25	n/a	-1.0	n/a	columbia_card_task_fmri	n/a	n/a	-1.0	n/a	n/a	n/a	n/a	n/a	n/a	n/a	n/a	feedback	s634
54.92	0.068	n/a	-1.0	n/a	columbia_card_task_fmri	n/a	n/a	-1.0	n/a	n/a	n/a	n/a	n/a	n/a	n/a	n/a	ITI	s634
54.99	1.453	-1.4910870785059105	draw_card	0.0	columbia_card_task_fmri	15.0	0.8	89.0	-65.0	0.2	10.0	1.0	2.0	0.6087665556228501	1.453	n/a	stim	s634
56.444	0.711	-3.2688648562836877	draw_card	0.0	columbia_card_task_fmri	15.0	0.7777777777777778	89.0	-65.0	0.2222222222222222	10.0	2.0	2.0	1.8678006879053088	0.711	n/a	stim	s634
57.156	2.601	-5.491087078505911	draw_card	0.0	columbia_card_task_fmri	15.0	0.75	89.0	-65.0	0.25	10.0	3.0	2.0	3.2494954659742774	2.601	n/a	stim	s634
59.759	0.534	-8.348229935648764	end_round	0.0	columbia_card_task_fmri	15.0	0.7142857142857143	71.0	-65.0	0.2857142857142857	10.0	4.0	2.0	4.748651043105511	0.534	3.0	stim	s634
60.295	2.25	n/a	-1.0	n/a	columbia_card_task_fmri	n/a	n/a	-1.0	n/a	n/a	n/a	n/a	n/a	n/a	n/a	n/a	feedback	s634
62.545	0.0	n/a	-1.0	n/a	columbia_card_task_fmri	n/a	n/a	-1.0	n/a	n/a	n/a	n/a	n/a	n/a	n/a	n/a	ITI	s634
62.547	2.375	0.1089129214940911	draw_card	0.0	columbia_card_task_fmri	17.0	0.8	89.0	-65.0	0.2	10.0	1.0	2.0	1.4086746634892435	2.375	n/a	stim	s634
64.924	0.695	-1.71330930072813	draw_card	0.0	columbia_card_task_fmri	17.0	0.7777777777777778	89.0	-65.0	0.2222222222222222	10.0	2.0	2.0	2.699191692915882	0.695	n/a	stim	s634
65.621	3.398	-3.9910870785059114	draw_card	0.0	columbia_card_task_fmri	17.0	0.75	89.0	-65.0	0.25	10.0	3.0	2.0	4.115435981296272	3.398	n/a	stim	s634
69.021	2.194	-6.9196585070773375	end_round	0.0	columbia_card_task_fmri	17.0	0.7142857142857143	71.0	-65.0	0.2857142857142857	10.0	4.0	2.0	5.652077578218496	2.194	3.0	stim	s634
71.217	2.25	n/a	-1.0	n/a	columbia_card_task_fmri	n/a	n/a	-1.0	n/a	n/a	n/a	n/a	n/a	n/a	n/a	n/a	feedback	s634
73.467	0.0	n/a	-1.0	n/a	columbia_card_task_fmri	n/a	n/a	-1.0	n/a	n/a	n/a	n/a	n/a	n/a	n/a	n/a	ITI	s634
73.469	2.243	-1.3244204118392424	end_round	0.0	columbia_card_task_fmri	13.0	0.8333333333333334	71.0	-70.0	0.1666666666666666	12.0	1.0	2.0	-0.4588297070066289	2.243	0.0	stim	s634
75.714	2.25	n/a	-1.0	n/a	columbia_card_task_fmri	n/a	n/a	-1.0	n/a	n/a	n/a	n/a	n/a	n/a	n/a	n/a	feedback	s634
77.964	0.136	n/a	-1.0	n/a	columbia_card_task_fmri	n/a	n/a	-1.0	n/a	n/a	n/a	n/a	n/a	n/a	n/a	n/a	ITI	s634
78.102	2.018	-1.3244204118392424	end_round	0.0	columbia_card_task_fmri	15.0	0.8333333333333334	71.0	-80.0	0.1666666666666666	12.0	1.0	2.0	4.012813913053741	2.018	0.0	stim	s634
80.122	2.25	n/a	-1.0	n/a	columbia_card_task_fmri	n/a	n/a	-1.0	n/a	n/a	n/a	n/a	n/a	n/a	n/a	n/a	feedback	s634
82.372	0.136	n/a	-1.0	n/a	columbia_card_task_fmri	n/a	n/a	-1.0	n/a	n/a	n/a	n/a	n/a	n/a	n/a	n/a	ITI	s634
82.51	5.37	-2.291087078505909	end_round	0.0	columbia_card_task_fmri	14.0	0.8	71.0	-65.0	0.2	15.0	1.0	3.0	0.2088142461661917	5.37	0.0	stim	s634
87.882	2.25	n/a	-1.0	n/a	columbia_card_task_fmri	n/a	n/a	-1.0	n/a	n/a	n/a	n/a	n/a	n/a	n/a	n/a	feedback	s634
90.132	0.476	n/a	-1.0	n/a	columbia_card_task_fmri	n/a	n/a	-1.0	n/a	n/a	n/a	n/a	n/a	n/a	n/a	n/a	ITI	s634
90.611	1.063	-2.3660870785059105	end_round	0.0	columbia_card_task_fmri	1.0	0.9375	71.0	-45.0	0.0625	16.0	1.0	1.0	-20.2493502114103	1.063	0.0	stim	s634
91.676	2.25	n/a	-1.0	n/a	columbia_card_task_fmri	n/a	n/a	-1.0	n/a	n/a	n/a	n/a	n/a	n/a	n/a	n/a	feedback	s634
93.926	0.204	n/a	-1.0	n/a	columbia_card_task_fmri	n/a	n/a	-1.0	n/a	n/a	n/a	n/a	n/a	n/a	n/a	n/a	ITI	s634
94.132	3.197	-1.4285870785059105	end_round	0.0	columbia_card_task_fmri	15.0	0.8125	71.0	-70.0	0.1875	16.0	1.0	3.0	1.7851848109172792	3.197	0.0	stim	s634
97.331	2.25	n/a	-1.0	n/a	columbia_card_task_fmri	n/a	n/a	-1.0	n/a	n/a	n/a	n/a	n/a	n/a	n/a	n/a	feedback	s634
99.581	0.068	n/a	-1.0	n/a	columbia_card_task_fmri	n/a	n/a	-1.0	n/a	n/a	n/a	n/a	n/a	n/a	n/a	n/a	ITI	s634
99.651	2.399	5.5089129214940895	draw_card	0.0	columbia_card_task_fmri	30.0	0.7	89.0	-50.0	0.3	10.0	1.0	3.0	5.268893140774381	2.399	n/a	stim	s634
102.053	2.397	2.8422462548274288	end_round	0.0	columbia_card_task_fmri	30.0	0.6666666666666667	71.0	-50.0	0.3333333333333333	10.0	2.0	3.0	6.320557524870317	2.397	1.0	stim	s634
104.452	2.25	n/a	-1.0	n/a	columbia_card_task_fmri	n/a	n/a	-1.0	n/a	n/a	n/a	n/a	n/a	n/a	n/a	n/a	feedback	s634
106.702	0.068	n/a	-1.0	n/a	columbia_card_task_fmri	n/a	n/a	-1.0	n/a	n/a	n/a	n/a	n/a	n/a	n/a	n/a	ITI	s634
106.771	2.84	4.90891292149409	draw_card	0.0	columbia_card_task_fmri	17.0	0.8666666666666667	89.0	-70.0	0.1333333333333333	15.0	1.0	2.0	-1.8166112545419464	2.84	n/a	stim	s634
109.613	0.997	4.080341492922663	draw_card	0.0	columbia_card_task_fmri	17.0	0.8571428571428572	89.0	-70.0	0.1428571428571428	15.0	2.0	2.0	-0.94738260900618	0.997	n/a	stim	s634
110.613	2.074	3.1242975368787045	draw_card	1.0	columbia_card_task_fmri	17.0	0.8461538461538461	89.0	-70.0	0.1538461538461538	15.0	3.0	2.0	-0.0014547242087346	2.074	3.0	stim	s634
112.69	2.25	n/a	-1.0	n/a	columbia_card_task_fmri	n/a	n/a	-1.0	n/a	n/a	n/a	n/a	n/a	n/a	n/a	n/a	feedback	s634
114.94	0.34	n/a	-1.0	n/a	columbia_card_task_fmri	n/a	n/a	-1.0	n/a	n/a	n/a	n/a	n/a	n/a	n/a	n/a	ITI	s634
115.282	1.72	0.1339129214940897	end_round	0.0	columbia_card_task_fmri	7.0	0.9375	71.0	-95.0	0.0625	16.0	1.0	1.0	-6.699849262803216	1.72	0.0	stim	s634
117.004	2.25	n/a	-1.0	n/a	columbia_card_task_fmri	n/a	n/a	-1.0	n/a	n/a	n/a	n/a	n/a	n/a	n/a	n/a	feedback	s634
119.254	0.476	n/a	-1.0	n/a	columbia_card_task_fmri	n/a	n/a	-1.0	n/a	n/a	n/a	n/a	n/a	n/a	n/a	n/a	ITI	s634
119.732	1.792	1.6964129214940895	draw_card	0.0	columbia_card_task_fmri	9.0	0.9375	89.0	-100.0	0.0625	16.0	1.0	1.0	-5.005732602590125	1.792	n/a	stim	s634
121.526	0.839	1.2422462548274231	draw_card	0.0	columbia_card_task_fmri	9.0	0.9333333333333332	89.0	-100.0	0.0666666666666666	16.0	2.0	1.0	-4.201189860337156	0.839	n/a	stim	s634
122.367	0.935	0.723198635779805	draw_card	0.0	columbia_card_task_fmri	9.0	0.9285714285714286	89.0	-100.0	0.0714285714285714	16.0	3.0	1.0	-3.3189141735111782	0.935	n/a	stim	s634
123.304	3.906	0.1242975368787056	draw_card	0.0	columbia_card_task_fmri	9.0	0.9230769230769232	89.0	-100.0	0.0769230769230769	16.0	4.0	1.0	-2.3456904714368214	3.906	n/a	stim	s634
127.212	3.153	-0.5744204118392424	draw_card	0.0	columbia_card_task_fmri	9.0	0.9166666666666666	89.0	-100.0	0.0833333333333333	16.0	5.0	1.0	-1.2649905730631836	3.153	n/a	stim	s634
130.368	1.377	-1.4001779875968203	end_round	0.0	columbia_card_task_fmri	9.0	0.9090909090909092	71.0	-100.0	0.0909090909090909	16.0	6.0	1.0	-0.0558567105021055	1.377	5.0	stim	s634
131.748	2.25	n/a	-1.0	n/a	columbia_card_task_fmri	n/a	n/a	-1.0	n/a	n/a	n/a	n/a	n/a	n/a	n/a	n/a	feedback	s634
133.998	0.272	n/a	-1.0	n/a	columbia_card_task_fmri	n/a	n/a	-1.0	n/a	n/a	n/a	n/a	n/a	n/a	n/a	n/a	ITI	s634
134.271	2.772	2.633912921494089	end_round	0.0	columbia_card_task_fmri	15.0	0.875	71.0	-80.0	0.125	16.0	1.0	2.0	0.0271331298947714	2.772	0.0	stim	s634
137.046	2.25	n/a	-1.0	n/a	columbia_card_task_fmri	n/a	n/a	-1.0	n/a	n/a	n/a	n/a	n/a	n/a	n/a	n/a	feedback	s634
139.296	0.884	n/a	-1.0	n/a	columbia_card_task_fmri	n/a	n/a	-1.0	n/a	n/a	n/a	n/a	n/a	n/a	n/a	n/a	ITI	s634
140.182	6.71	4.7589129214940895	draw_card	0.0	columbia_card_task_fmri	16.0	0.875	89.0	-70.0	0.125	16.0	1.0	2.0	-2.948935525985356	6.71	n/a	stim	s634
146.895	1.234	4.042246254827423	draw_card	0.0	columbia_card_task_fmri	16.0	0.8666666666666667	89.0	-70.0	0.1333333333333333	16.0	2.0	2.0	-2.1564984882674487	1.234	n/a	stim	s634
148.131	1.038	3.223198635779805	end_round	0.0	columbia_card_task_fmri	16.0	0.8571428571428572	71.0	-70.0	0.1428571428571428	16.0	3.0	2.0	-1.2972636676246054	1.038	2.0	stim	s634
149.172	2.25	n/a	-1.0	n/a	columbia_card_task_fmri	n/a	n/a	-1.0	n/a	n/a	n/a	n/a	n/a	n/a	n/a	n/a	feedback	s634
151.422	0.136	n/a	-1.0	n/a	columbia_card_task_fmri	n/a	n/a	-1.0	n/a	n/a	n/a	n/a	n/a	n/a	n/a	n/a	ITI	s634
151.56	4.996	6.0714129214940895	end_round	0.0	columbia_card_task_fmri	30.0	0.6875	71.0	-45.0	0.3125	16.0	1.0	5.0	3.3718974670892337	4.996	0.0	stim	s634
156.559	2.25	n/a	-1.0	n/a	columbia_card_task_fmri	n/a	n/a	-1.0	n/a	n/a	n/a	n/a	n/a	n/a	n/a	n/a	feedback	s634
158.809	0.136	n/a	-1.0	n/a	columbia_card_task_fmri	n/a	n/a	-1.0	n/a	n/a	n/a	n/a	n/a	n/a	n/a	n/a	ITI	s634
158.947	2.184	-2.157753745172577	end_round	0.0	columbia_card_task_fmri	13.0	0.8333333333333334	71.0	-75.0	0.1666666666666666	6.0	1.0	1.0	1.404338819497113	2.184	0.0	stim	s634
161.134	2.25	n/a	-1.0	n/a	columbia_card_task_fmri	n/a	n/a	-1.0	n/a	n/a	n/a	n/a	n/a	n/a	n/a	n/a	feedback	s634
163.384	0.068	n/a	-1.0	n/a	columbia_card_task_fmri	n/a	n/a	-1.0	n/a	n/a	n/a	n/a	n/a	n/a	n/a	n/a	ITI	s634
163.453	2.128	-0.4910870785059085	end_round	0.0	columbia_card_task_fmri	14.0	0.8333333333333334	71.0	-70.0	0.1666666666666666	6.0	1.0	1.0	-0.0861981104138571	2.128	0.0	stim	s634
165.583	2.25	n/a	-1.0	n/a	columbia_card_task_fmri	n/a	n/a	-1.0	n/a	n/a	n/a	n/a	n/a	n/a	n/a	n/a	feedback	s634
167.833	0.068	n/a	-1.0	n/a	columbia_card_task_fmri	n/a	n/a	-1.0	n/a	n/a	n/a	n/a	n/a	n/a	n/a	n/a	ITI	s634
167.902	3.404	-0.4910870785059085	end_round	0.0	columbia_card_task_fmri	16.0	0.8333333333333334	71.0	-80.0	0.1666666666666666	6.0	1.0	1.0	4.385456436426452	3.404	0.0	stim	s634
171.309	2.25	n/a	-1.0	n/a	columbia_card_task_fmri	n/a	n/a	-1.0	n/a	n/a	n/a	n/a	n/a	n/a	n/a	n/a	feedback	s634
173.559	0.612	n/a	-1.0	n/a	columbia_card_task_fmri	n/a	n/a	-1.0	n/a	n/a	n/a	n/a	n/a	n/a	n/a	n/a	ITI	s634
174.173	4.881	2.0089129214940917	draw_card	0.0	columbia_card_task_fmri	17.0	0.8333333333333334	89.0	-70.0	0.1666666666666666	6.0	1.0	1.0	1.0317030781854797	4.881	n/a	stim	s634
179.056	0.978	-0.8910870785059088	end_round	0.0	columbia_card_task_fmri	17.0	0.8	71.0	-70.0	0.2	6.0	2.0	1.0	3.4084634143083363	0.978	1.0	stim	s634
180.036	2.25	n/a	-1.0	n/a	columbia_card_task_fmri	n/a	n/a	-1.0	n/a	n/a	n/a	n/a	n/a	n/a	n/a	n/a	feedback	s634
182.286	0.476	n/a	-1.0	n/a	columbia_card_task_fmri	n/a	n/a	-1.0	n/a	n/a	n/a	n/a	n/a	n/a	n/a	n/a	ITI	s634
182.765	1.663	2.008912921494089	draw_card	0.0	columbia_card_task_fmri	25.0	0.75	89.0	-65.0	0.25	8.0	1.0	2.0	7.579235765964015	1.663	n/a	stim	s634
184.43	4.188	-1.205372792791622	end_round	0.0	columbia_card_task_fmri	25.0	0.7142857142857143	71.0	-65.0	0.2857142857142857	8.0	2.0	2.0	9.26581987788378	4.188	1.0	stim	s634
188.62	2.25	n/a	-1.0	n/a	columbia_card_task_fmri	n/a	n/a	-1.0	n/a	n/a	n/a	n/a	n/a	n/a	n/a	n/a	feedback	s634
190.87	0.0	n/a	-1.0	n/a	columbia_card_task_fmri	n/a	n/a	-1.0	n/a	n/a	n/a	n/a	n/a	n/a	n/a	n/a	ITI	s634
190.873	2.122	2.008912921494089	draw_card	0.0	columbia_card_task_fmri	30.0	0.75	89.0	-80.0	0.25	8.0	1.0	2.0	16.238927283380804	2.122	n/a	stim	s634
192.997	4.029	-1.9196585070773335	end_round	0.0	columbia_card_task_fmri	30.0	0.7142857142857143	71.0	-80.0	0.2857142857142857	8.0	2.0	2.0	18.300359718637843	4.029	1.0	stim	s634
197.028	2.25	n/a	-1.0	n/a	columbia_card_task_fmri	n/a	n/a	-1.0	n/a	n/a	n/a	n/a	n/a	n/a	n/a	n/a	feedback	s634
199.278	0.068	n/a	-1.0	n/a	columbia_card_task_fmri	n/a	n/a	-1.0	n/a	n/a	n/a	n/a	n/a	n/a	n/a	n/a	ITI	s634
199.348	2.682	1.7089129214940908	end_round	0.0	columbia_card_task_fmri	13.0	0.9	71.0	-95.0	0.1	10.0	1.0	1.0	1.0087200424183749	2.682	0.0	stim	s634
202.033	2.25	n/a	-1.0	n/a	columbia_card_task_fmri	n/a	n/a	-1.0	n/a	n/a	n/a	n/a	n/a	n/a	n/a	n/a	feedback	s634
204.283	0.204	n/a	-1.0	n/a	columbia_card_task_fmri	n/a	n/a	-1.0	n/a	n/a	n/a	n/a	n/a	n/a	n/a	n/a	ITI	s634
204.49	6.291	3.108912921494089	draw_card	0.0	columbia_card_task_fmri	14.0	0.9	89.0	-90.0	0.1	10.0	1.0	1.0	-0.1911368406803291	6.291	n/a	stim	s634
210.783	1.7	1.9533573659385328	draw_card	0.0	columbia_card_task_fmri	14.0	0.8888888888888888	89.0	-90.0	0.1111111111111111	10.0	2.0	1.0	1.2927344786141148	1.7	n/a	stim	s634
212.486	0.522	0.5089129214940897	end_round	0.0	columbia_card_task_fmri	14.0	0.875	71.0	-90.0	0.125	10.0	3.0	1.0	3.0032712764124483	0.522	2.0	stim	s634
213.01	2.25	n/a	-1.0	n/a	columbia_card_task_fmri	n/a	n/a	-1.0	n/a	n/a	n/a	n/a	n/a	n/a	n/a	n/a	feedback	s634
215.26	0.272	n/a	-1.0	n/a	columbia_card_task_fmri	n/a	n/a	-1.0	n/a	n/a	n/a	n/a	n/a	n/a	n/a	n/a	ITI	s634
215.534	8.826	-1.6910870785059096	end_round	0.0	columbia_card_task_fmri	16.0	0.8	71.0	-70.0	0.2	10.0	1.0	2.0	3.0085036993398973	8.826	0.0	stim	s634
224.363	2.25	n/a	-1.0	n/a	columbia_card_task_fmri	n/a	n/a	-1.0	n/a	n/a	n/a	n/a	n/a	n/a	n/a	n/a	feedback	s634
226.613	0.068	n/a	-1.0	n/a	columbia_card_task_fmri	n/a	n/a	-1.0	n/a	n/a	n/a	n/a	n/a	n/a	n/a	n/a	ITI	s634
226.682	1.542	-2.407753745172577	end_round	0.0	columbia_card_task_fmri	7.0	0.9166666666666666	71.0	-100.0	0.0833333333333333	12.0	1.0	1.0	-1.817686571132839	1.542	0.0	stim	s634
228.227	2.25	n/a	-1.0	n/a	columbia_card_task_fmri	n/a	n/a	-1.0	n/a	n/a	n/a	n/a	n/a	n/a	n/a	n/a	feedback	s634
230.477	0.272	n/a	-1.0	n/a	columbia_card_task_fmri	n/a	n/a	-1.0	n/a	n/a	n/a	n/a	n/a	n/a	n/a	n/a	ITI	s634
230.752	2.281	-2.157753745172575	end_round	0.0	columbia_card_task_fmri	14.0	0.8333333333333334	71.0	-80.0	0.1666666666666666	12.0	1.0	2.0	3.640172144313041	2.281	0.0	stim	s634
233.035	2.25	n/a	-1.0	n/a	columbia_card_task_fmri	n/a	n/a	-1.0	n/a	n/a	n/a	n/a	n/a	n/a	n/a	n/a	feedback	s634
235.285	0.748	n/a	-1.0	n/a	columbia_card_task_fmri	n/a	n/a	-1.0	n/a	n/a	n/a	n/a	n/a	n/a	n/a	n/a	ITI	s634
236.036	2.931	-0.4910870785059102	draw_card	0.0	columbia_card_task_fmri	15.0	0.8333333333333334	89.0	-75.0	0.1666666666666666	12.0	1.0	2.0	2.1496131186548126	2.931	n/a	stim	s634
238.97	1.028	-1.8547234421422756	draw_card	0.0	columbia_card_task_fmri	15.0	0.8181818181818181	89.0	-75.0	0.1818181818181818	12.0	2.0	2.0	3.3209868586595803	1.028	n/a	stim	s634
240.001	3.197	-3.4910870785059105	end_round	0.0	columbia_card_task_fmri	15.0	0.8	71.0	-75.0	0.2	12.0	3.0	2.0	4.608347929781445	3.197	2.0	stim	s634
243.2	2.25	n/a	-1.0	n/a	columbia_card_task_fmri	n/a	n/a	-1.0	n/a	n/a	n/a	n/a	n/a	n/a	n/a	n/a	feedback	s634
245.45	0.068	n/a	-1.0	n/a	columbia_card_task_fmri	n/a	n/a	-1.0	n/a	n/a	n/a	n/a	n/a	n/a	n/a	n/a	ITI	s634
245.522	2.709	-1.4910870785059105	draw_card	0.0	columbia_card_task_fmri	15.0	0.8	89.0	-65.0	0.2	15.0	1.0	3.0	0.6087665556228501	2.709	n/a	stim	s634
248.236	1.178	-2.633944221363053	draw_card	0.0	columbia_card_task_fmri	15.0	0.7857142857142857	89.0	-65.0	0.2142857142857142	15.0	2.0	3.0	1.434744009977294	1.178	n/a	stim	s634
249.416	3.317	-3.952625540044374	end_round	0.0	columbia_card_task_fmri	15.0	0.7692307692307692	71.0	-65.0	0.2307692307692307	15.0	3.0	3.0	2.314579400494466	3.317	2.0	stim	s634
252.736	2.25	n/a	-1.0	n/a	columbia_card_task_fmri	n/a	n/a	-1.0	n/a	n/a	n/a	n/a	n/a	n/a	n/a	n/a	feedback	s634
254.986	0.0	n/a	-1.0	n/a	columbia_card_task_fmri	n/a	n/a	-1.0	n/a	n/a	n/a	n/a	n/a	n/a	n/a	n/a	ITI	s634
254.987	2.406	-2.2410870785059105	draw_card	0.0	columbia_card_task_fmri	14.0	0.8125	89.0	-70.0	0.1875	16.0	1.0	3.0	1.3949156977862671	2.406	n/a	stim	s634
257.397	2.712	-3.291087078505909	draw_card	0.0	columbia_card_task_fmri	14.0	0.8	89.0	-70.0	0.2	16.0	2.0	3.0	2.208587146453219	2.712	n/a	stim	s634
260.111	0.462	-4.491087078505911	end_round	0.0	columbia_card_task_fmri	14.0	0.7857142857142857	71.0	-70.0	0.2142857142857142	16.0	3.0	3.0	3.0758727274956854	0.462	2.0	stim	s634
260.575	2.25	n/a	-1.0	n/a	columbia_card_task_fmri	n/a	n/a	-1.0	n/a	n/a	n/a	n/a	n/a	n/a	n/a	n/a	feedback	s634
262.825	0.204	n/a	-1.0	n/a	columbia_card_task_fmri	n/a	n/a	-1.0	n/a	n/a	n/a	n/a	n/a	n/a	n/a	n/a	ITI	s634
263.032	4.608	-2.3035870785059105	draw_card	1.0	columbia_card_task_fmri	11.0	0.6875	89.0	-30.0	0.3125	16.0	1.0	5.0	-12.384648736494835	4.608	1.0	stim	s634
267.643	2.25	n/a	-1.0	n/a	columbia_card_task_fmri	n/a	n/a	-1.0	n/a	n/a	n/a	n/a	n/a	n/a	n/a	n/a	feedback	s634
269.893	0.068	n/a	-1.0	n/a	columbia_card_task_fmri	n/a	n/a	-1.0	n/a	n/a	n/a	n/a	n/a	n/a	n/a	n/a	ITI	s634
269.964	7.237	2.508912921494089	draw_card	0.0	columbia_card_task_fmri	15.0	0.8666666666666667	89.0	-75.0	0.1333333333333333	15.0	1.0	2.0	-0.7969432345508842	7.237	n/a	stim	s634
277.203	0.786	1.651770064351234	draw_card	0.0	columbia_card_task_fmri	15.0	0.8571428571428572	89.0	-75.0	0.1428571428571428	15.0	2.0	2.0	0.1022667053652881	0.786	n/a	stim	s634
277.991	1.541	0.662759075340243	draw_card	0.0	columbia_card_task_fmri	15.0	0.8461538461538461	89.0	-75.0	0.1538461538461538	15.0	3.0	2.0	1.0808208857129171	1.541	n/a	stim	s634
279.534	1.124	-0.4910870785059102	end_round	0.0	columbia_card_task_fmri	15.0	0.8333333333333334	71.0	-75.0	0.1666666666666666	15.0	4.0	2.0	2.1496131186548126	1.124	3.0	stim	s634
280.661	2.25	n/a	-1.0	n/a	columbia_card_task_fmri	n/a	n/a	-1.0	n/a	n/a	n/a	n/a	n/a	n/a	n/a	n/a	feedback	s634
282.911	0.068	n/a	-1.0	n/a	columbia_card_task_fmri	n/a	n/a	-1.0	n/a	n/a	n/a	n/a	n/a	n/a	n/a	n/a	ITI	s634
282.982	2.064	4.242246254827424	draw_card	0.0	columbia_card_task_fmri	17.0	0.8666666666666667	89.0	-75.0	0.1333333333333333	15.0	1.0	2.0	-0.11715963220405	2.064	n/a	stim	s634
285.048	1.309	3.366055778636949	draw_card	1.0	columbia_card_task_fmri	17.0	0.8571428571428572	89.0	-75.0	0.1428571428571428	15.0	2.0	2.0	0.8020376968419143	1.309	2.0	stim	s634
286.361	2.25	n/a	-1.0	n/a	columbia_card_task_fmri	n/a	n/a	-1.0	n/a	n/a	n/a	n/a	n/a	n/a	n/a	n/a	feedback	s634
288.611	0.34	n/a	-1.0	n/a	columbia_card_task_fmri	n/a	n/a	-1.0	n/a	n/a	n/a	n/a	n/a	n/a	n/a	n/a	ITI	s634
288.954	4.862	-0.1785870785059102	draw_card	0.0	columbia_card_task_fmri	2.0	0.9375	89.0	-25.0	0.0625	16.0	1.0	1.0	-24.84091796894232	4.862	n/a	stim	s634
293.819	1.016	-0.2910870785059103	draw_card	0.0	columbia_card_task_fmri	2.0	0.9333333333333332	89.0	-25.0	0.0666666666666666	16.0	2.0	1.0	-24.64213787023506	1.016	n/a	stim	s634
294.838	3.73	-0.4196585070773386	draw_card	0.0	columbia_card_task_fmri	2.0	0.9285714285714286	89.0	-25.0	0.0714285714285714	16.0	3.0	1.0	-24.424118626174288	3.73	n/a	stim	s634
298.571	0.458	-0.5680101554289871	end_round	0.0	columbia_card_task_fmri	2.0	0.9230769230769232	71.0	-25.0	0.0769230769230769	16.0	4.0	1.0	-24.18358826415752	0.458	3.0	stim	s634
299.033	2.25	n/a	-1.0	n/a	columbia_card_task_fmri	n/a	n/a	-1.0	n/a	n/a	n/a	n/a	n/a	n/a	n/a	n/a	feedback	s634
301.283	0.0	n/a	-1.0	n/a	columbia_card_task_fmri	n/a	n/a	-1.0	n/a	n/a	n/a	n/a	n/a	n/a	n/a	n/a	ITI	s634
301.285	2.437	2.008912921494089	draw_card	0.0	columbia_card_task_fmri	9.0	0.9375	89.0	-95.0	0.0625	16.0	1.0	1.0	-6.215820237152734	2.437	n/a	stim	s634
303.726	1.2	1.575579588160757	draw_card	0.0	columbia_card_task_fmri	9.0	0.9333333333333332	89.0	-95.0	0.0666666666666666	16.0	2.0	1.0	-5.44819582568676	1.2	n/a	stim	s634
304.928	1.101	1.0803414929226618	draw_card	0.0	columbia_card_task_fmri	9.0	0.9285714285714286	89.0	-95.0	0.0714285714285714	16.0	3.0	1.0	-4.606404591384848	1.101	n/a	stim	s634
306.032	0.878	0.5089129214940897	end_round	0.0	columbia_card_task_fmri	9.0	0.9230769230769232	71.0	-95.0	0.0769230769230769	16.0	4.0	1.0	-3.6778376962444983	0.878	3.0	stim	s634
306.913	2.25	n/a	-1.0	n/a	columbia_card_task_fmri	n/a	n/a	-1.0	n/a	n/a	n/a	n/a	n/a	n/a	n/a	n/a	feedback	s634
309.163	0.0	n/a	-1.0	n/a	columbia_card_task_fmri	n/a	n/a	-1.0	n/a	n/a	n/a	n/a	n/a	n/a	n/a	n/a	ITI	s634
309.165	2.823	3.571412921494089	draw_card	0.0	columbia_card_task_fmri	11.0	0.9375	89.0	-100.0	0.0625	16.0	1.0	1.0	-4.5216920091911135	2.823	n/a	stim	s634
311.99	0.807	3.10891292149409	draw_card	0.0	columbia_card_task_fmri	11.0	0.9333333333333332	89.0	-100.0	0.0666666666666666	16.0	2.0	1.0	-3.702382098402577	0.807	n/a	stim	s634
312.801	0.685	2.5803414929226625	draw_card	0.0	columbia_card_task_fmri	11.0	0.9285714285714286	89.0	-100.0	0.0714285714285714	16.0	3.0	1.0	-2.803912799390112	0.685	n/a	stim	s634
313.488	3.053	1.9704513830325523	draw_card	0.0	columbia_card_task_fmri	11.0	0.9230769230769232	89.0	-100.0	0.0769230769230769	16.0	4.0	1.0	-1.8128265488840007	3.053	n/a	stim	s634
316.545	4.661	1.2589129214940895	end_round	0.0	columbia_card_task_fmri	11.0	0.9166666666666666	71.0	-100.0	0.0833333333333333	16.0	5.0	1.0	-0.7122918800139004	4.661	4.0	stim	s634
321.208	2.25	n/a	-1.0	n/a	columbia_card_task_fmri	n/a	n/a	-1.0	n/a	n/a	n/a	n/a	n/a	n/a	n/a	n/a	feedback	s634
323.458	0.272	n/a	-1.0	n/a	columbia_card_task_fmri	n/a	n/a	-1.0	n/a	n/a	n/a	n/a	n/a	n/a	n/a	n/a	ITI	s634
323.733	15.126	4.1339129214940895	end_round	0.0	columbia_card_task_fmri	16.0	0.875	71.0	-75.0	0.125	16.0	1.0	2.0	-1.2955738548545277	15.126	0.0	stim	s634
338.863	2.25	n/a	-1.0	n/a	columbia_card_task_fmri	n/a	n/a	-1.0	n/a	n/a	n/a	n/a	n/a	n/a	n/a	n/a	feedback	s634
341.113	0.204	n/a	-1.0	n/a	columbia_card_task_fmri	n/a	n/a	-1.0	n/a	n/a	n/a	n/a	n/a	n/a	n/a	n/a	ITI	s634
341.321	9.908	4.3839129214940895	draw_card	0.0	columbia_card_task_fmri	17.0	0.875	89.0	-80.0	0.125	16.0	1.0	2.0	0.6884918379483338	9.908	n/a	stim	s634
351.232	0.682	3.5755795881607577	draw_card	0.0	columbia_card_task_fmri	17.0	0.8666666666666667	89.0	-80.0	0.1333333333333333	16.0	2.0	2.0	1.5823148262093056	0.682	n/a	stim	s634
351.917	0.514	2.6517700643512354	draw_card	0.0	columbia_card_task_fmri	17.0	0.8571428571428572	89.0	-80.0	0.1428571428571428	16.0	3.0	2.0	2.551480187125385	0.514	n/a	stim	s634
352.434	2.941	1.5858359984171664	draw_card	0.0	columbia_card_task_fmri	17.0	0.8461538461538461	89.0	-80.0	0.1538461538461538	16.0	4.0	2.0	3.6061614342211	2.941	n/a	stim	s634
355.378	0.453	0.3422462548274254	end_round	0.0	columbia_card_task_fmri	17.0	0.8333333333333334	71.0	-80.0	0.1666666666666666	16.0	5.0	2.0	4.758099691096426	0.453	4.0	stim	s634
355.834	2.25	n/a	-1.0	n/a	columbia_card_task_fmri	n/a	n/a	-1.0	n/a	n/a	n/a	n/a	n/a	n/a	n/a	n/a	feedback	s634
358.084	0.0	n/a	-1.0	n/a	columbia_card_task_fmri	n/a	n/a	-1.0	n/a	n/a	n/a	n/a	n/a	n/a	n/a	n/a	ITI	s634
369.089	6.144	-1.3244204118392424	end_round	0.0	columbia_card_task_fmri	13.0	0.8333333333333334	71.0	-70.0	0.1666666666666666	6.0	1.0	1.0	-0.4588297070066289	6.144	0.0	stim	s634
375.236	2.25	n/a	-1.0	n/a	columbia_card_task_fmri	n/a	n/a	-1.0	n/a	n/a	n/a	n/a	n/a	n/a	n/a	n/a	feedback	s634
377.486	0.204	n/a	-1.0	n/a	columbia_card_task_fmri	n/a	n/a	-1.0	n/a	n/a	n/a	n/a	n/a	n/a	n/a	n/a	ITI	s634
377.693	4.092	-1.3244204118392424	end_round	0.0	columbia_card_task_fmri	15.0	0.8333333333333334	71.0	-80.0	0.1666666666666666	6.0	1.0	1.0	4.012813913053741	4.092	0.0	stim	s634
381.788	2.25	n/a	-1.0	n/a	columbia_card_task_fmri	n/a	n/a	-1.0	n/a	n/a	n/a	n/a	n/a	n/a	n/a	n/a	feedback	s634
384.038	0.204	n/a	-1.0	n/a	columbia_card_task_fmri	n/a	n/a	-1.0	n/a	n/a	n/a	n/a	n/a	n/a	n/a	n/a	ITI	s634
384.245	3.387	0.3422462548274236	draw_card	0.0	columbia_card_task_fmri	16.0	0.8333333333333334	89.0	-75.0	0.1666666666666666	6.0	1.0	1.0	2.5222516146123013	3.387	n/a	stim	s634
387.635	0.862	-2.69108707850591	end_round	0.0	columbia_card_task_fmri	16.0	0.8	71.0	-75.0	0.2	6.0	2.0	1.0	5.008311126784783	0.862	1.0	stim	s634
388.5	2.25	n/a	-1.0	n/a	columbia_card_task_fmri	n/a	n/a	-1.0	n/a	n/a	n/a	n/a	n/a	n/a	n/a	n/a	feedback	s634
390.75	0.272	n/a	-1.0	n/a	columbia_card_task_fmri	n/a	n/a	-1.0	n/a	n/a	n/a	n/a	n/a	n/a	n/a	n/a	ITI	s634
391.025	3.459	1.5089129214940895	draw_card	1.0	columbia_card_task_fmri	21.0	0.75	89.0	-55.0	0.25	8.0	1.0	2.0	1.5176278366254865	3.459	1.0	stim	s634
394.487	2.25	n/a	-1.0	n/a	columbia_card_task_fmri	n/a	n/a	-1.0	n/a	n/a	n/a	n/a	n/a	n/a	n/a	n/a	feedback	s634
396.737	0.204	n/a	-1.0	n/a	columbia_card_task_fmri	n/a	n/a	-1.0	n/a	n/a	n/a	n/a	n/a	n/a	n/a	n/a	ITI	s634
396.945	8.546	2.758912921494089	draw_card	0.0	columbia_card_task_fmri	26.0	0.75	89.0	-65.0	0.25	8.0	1.0	2.0	8.012214470016005	8.546	n/a	stim	s634
405.494	1.355	-0.4910870785059067	draw_card	1.0	columbia_card_task_fmri	26.0	0.7142857142857143	89.0	-65.0	0.2857142857142857	8.0	2.0	2.0	9.71754124160256	1.355	2.0	stim	s634
406.852	2.25	n/a	-1.0	n/a	columbia_card_task_fmri	n/a	n/a	-1.0	n/a	n/a	n/a	n/a	n/a	n/a	n/a	n/a	feedback	s634
409.102	0.408	n/a	-1.0	n/a	columbia_card_task_fmri	n/a	n/a	-1.0	n/a	n/a	n/a	n/a	n/a	n/a	n/a	n/a	ITI	s634
409.513	9.098	-2.157753745172577	end_round	0.0	columbia_card_task_fmri	15.0	0.7777777777777778	71.0	-60.0	0.2222222222222222	9.0	1.0	2.0	-0.2106561982723178	9.098	0.0	stim	s634
418.615	2.25	n/a	-1.0	n/a	columbia_card_task_fmri	n/a	n/a	-1.0	n/a	n/a	n/a	n/a	n/a	n/a	n/a	n/a	feedback	s634
420.865	0.136	n/a	-1.0	n/a	columbia_card_task_fmri	n/a	n/a	-1.0	n/a	n/a	n/a	n/a	n/a	n/a	n/a	n/a	ITI	s634
421.004	7.413	2.2089129214940906	draw_card	1.0	columbia_card_task_fmri	13.0	0.9	89.0	-90.0	0.1	10.0	1.0	1.0	-0.4910993249222244	7.413	1.0	stim	s634
428.422	2.25	n/a	-1.0	n/a	columbia_card_task_fmri	n/a	n/a	-1.0	n/a	n/a	n/a	n/a	n/a	n/a	n/a	n/a	feedback	s634
430.672	0.272	n/a	-1.0	n/a	columbia_card_task_fmri	n/a	n/a	-1.0	n/a	n/a	n/a	n/a	n/a	n/a	n/a	n/a	ITI	s634
430.947	3.583	3.508912921494089	draw_card	0.0	columbia_card_task_fmri	15.0	0.9	89.0	-95.0	0.1	10.0	1.0	1.0	1.6086523864913218	3.583	n/a	stim	s634
434.534	0.878	2.2866906992718663	draw_card	0.0	columbia_card_task_fmri	15.0	0.8888888888888888	89.0	-95.0	0.1111111111111111	10.0	2.0	1.0	3.178151356128716	0.878	n/a	stim	s634
435.415	0.926	0.7589129214940897	draw_card	0.0	columbia_card_task_fmri	15.0	0.875	89.0	-95.0	0.125	10.0	3.0	1.0	4.987393558617448	0.926	n/a	stim	s634
436.344	0.627	-1.2053727927916238	end_round	0.0	columbia_card_task_fmri	15.0	0.8571428571428572	71.0	-95.0	0.1428571428571428	10.0	4.0	1.0	7.100112780599112	0.627	3.0	stim	s634
436.975	2.25	n/a	-1.0	n/a	columbia_card_task_fmri	n/a	n/a	-1.0	n/a	n/a	n/a	n/a	n/a	n/a	n/a	n/a	feedback	s634
439.225	0.34	n/a	-1.0	n/a	columbia_card_task_fmri	n/a	n/a	-1.0	n/a	n/a	n/a	n/a	n/a	n/a	n/a	n/a	ITI	s634
439.568	8.403	-0.6910870785059096	end_round	0.0	columbia_card_task_fmri	16.0	0.8	71.0	-65.0	0.2	10.0	1.0	2.0	1.0087200424183749	8.403	0.0	stim	s634
447.975	2.25	n/a	-1.0	n/a	columbia_card_task_fmri	n/a	n/a	-1.0	n/a	n/a	n/a	n/a	n/a	n/a	n/a	n/a	feedback	s634
450.225	0.136	n/a	-1.0	n/a	columbia_card_task_fmri	n/a	n/a	-1.0	n/a	n/a	n/a	n/a	n/a	n/a	n/a	n/a	ITI	s634
450.363	7.726	-1.9910870785059105	end_round	0.0	columbia_card_task_fmri	7.0	0.9166666666666666	71.0	-95.0	0.0833333333333333	12.0	1.0	1.0	-3.199413735730211	7.726	0.0	stim	s634
458.093	2.25	n/a	-1.0	n/a	columbia_card_task_fmri	n/a	n/a	-1.0	n/a	n/a	n/a	n/a	n/a	n/a	n/a	n/a	feedback	s634
460.343	0.34	n/a	-1.0	n/a	columbia_card_task_fmri	n/a	n/a	-1.0	n/a	n/a	n/a	n/a	n/a	n/a	n/a	n/a	ITI	s634
460.686	6.345	-1.3244204118392424	end_round	0.0	columbia_card_task_fmri	14.0	0.8333333333333334	71.0	-75.0	0.1666666666666666	12.0	1.0	2.0	1.776975510200053	6.345	0.0	stim	s634
467.034	2.25	n/a	-1.0	n/a	columbia_card_task_fmri	n/a	n/a	-1.0	n/a	n/a	n/a	n/a	n/a	n/a	n/a	n/a	feedback	s634
469.284	0.068	n/a	-1.0	n/a	columbia_card_task_fmri	n/a	n/a	-1.0	n/a	n/a	n/a	n/a	n/a	n/a	n/a	n/a	ITI	s634
469.356	7.948	0.3422462548274236	draw_card	1.0	columbia_card_task_fmri	15.0	0.8333333333333334	89.0	-70.0	0.1666666666666666	12.0	1.0	2.0	0.2864345777364576	7.948	1.0	stim	s634
477.308	2.25	n/a	-1.0	n/a	columbia_card_task_fmri	n/a	n/a	-1.0	n/a	n/a	n/a	n/a	n/a	n/a	n/a	n/a	feedback	s634
479.558	0.0	n/a	-1.0	n/a	columbia_card_task_fmri	n/a	n/a	-1.0	n/a	n/a	n/a	n/a	n/a	n/a	n/a	n/a	ITI	s634
479.561	8.152	-1.6910870785059096	draw_card	0.0	columbia_card_task_fmri	16.0	0.8	89.0	-70.0	0.2	15.0	1.0	3.0	3.0085036993398973	8.152	n/a	stim	s634
487.717	1.117	-2.9196585070773398	draw_card	0.0	columbia_card_task_fmri	16.0	0.7857142857142857	89.0	-70.0	0.2142857142857142	15.0	2.0	3.0	3.896443186355192	1.117	n/a	stim	s634
488.837	4.593	-4.337240924659757	end_round	0.0	columbia_card_task_fmri	16.0	0.7692307692307692	71.0	-70.0	0.2307692307692307	15.0	3.0	3.0	4.842280109837219	4.593	2.0	stim	s634
493.433	2.25	n/a	-1.0	n/a	columbia_card_task_fmri	n/a	n/a	-1.0	n/a	n/a	n/a	n/a	n/a	n/a	n/a	n/a	feedback	s634
495.683	0.204	n/a	-1.0	n/a	columbia_card_task_fmri	n/a	n/a	-1.0	n/a	n/a	n/a	n/a	n/a	n/a	n/a	n/a	ITI	s634
495.891	9.586	-1.3035870785059105	draw_card	0.0	columbia_card_task_fmri	14.0	0.8125	89.0	-65.0	0.1875	16.0	1.0	3.0	-0.5564134423381297	9.586	n/a	stim	s634
505.481	0.75	-2.291087078505909	draw_card	0.0	columbia_card_task_fmri	14.0	0.8	89.0	-65.0	0.2	16.0	2.0	3.0	0.2088142461661917	0.75	n/a	stim	s634
506.235	2.016	-3.419658507077337	end_round	0.0	columbia_card_task_fmri	14.0	0.7857142857142857	71.0	-65.0	0.2142857142857142	16.0	3.0	3.0	1.0244645974711375	2.016	2.0	stim	s634
508.255	2.25	n/a	-1.0	n/a	columbia_card_task_fmri	n/a	n/a	-1.0	n/a	n/a	n/a	n/a	n/a	n/a	n/a	n/a	feedback	s634
510.505	1.02	n/a	-1.0	n/a	columbia_card_task_fmri	n/a	n/a	-1.0	n/a	n/a	n/a	n/a	n/a	n/a	n/a	n/a	ITI	s634
511.528	12.444	-1.5535870785059105	draw_card	0.0	columbia_card_task_fmri	16.0	0.8125	89.0	-75.0	0.1875	16.0	1.0	3.0	4.126819453664574	12.444	n/a	stim	s634
523.976	2.121	-2.69108707850591	end_round	0.0	columbia_card_task_fmri	16.0	0.8	71.0	-75.0	0.2	16.0	2.0	3.0	5.008311126784783	2.121	1.0	stim	s634
526.1	2.25	n/a	-1.0	n/a	columbia_card_task_fmri	n/a	n/a	-1.0	n/a	n/a	n/a	n/a	n/a	n/a	n/a	n/a	feedback	s634
528.35	0.0	n/a	-1.0	n/a	columbia_card_task_fmri	n/a	n/a	-1.0	n/a	n/a	n/a	n/a	n/a	n/a	n/a	n/a	ITI	s634
528.353	9.891	2.7089129214940906	draw_card	1.0	columbia_card_task_fmri	16.0	0.8666666666666667	89.0	-80.0	0.1333333333333333	15.0	1.0	2.0	1.2424182788710638	9.891	1.0	stim	s634
538.248	2.25	n/a	-1.0	n/a	columbia_card_task_fmri	n/a	n/a	-1.0	n/a	n/a	n/a	n/a	n/a	n/a	n/a	n/a	feedback	s634
540.498	0.0	n/a	-1.0	n/a	columbia_card_task_fmri	n/a	n/a	-1.0	n/a	n/a	n/a	n/a	n/a	n/a	n/a	n/a	ITI	s634
540.501	1.851	3.5755795881607577	draw_card	0.0	columbia_card_task_fmri	17.0	0.8666666666666667	89.0	-80.0	0.1333333333333333	15.0	1.0	2.0	1.5823148262093056	1.851	n/a	stim	s634
542.355	1.907	2.6517700643512354	draw_card	0.0	columbia_card_task_fmri	17.0	0.8571428571428572	89.0	-80.0	0.1428571428571428	15.0	2.0	2.0	2.551480187125385	1.907	n/a	stim	s634
544.266	4.508	1.5858359984171664	draw_card	0.0	columbia_card_task_fmri	17.0	0.8461538461538461	89.0	-80.0	0.1538461538461538	15.0	3.0	2.0	3.6061614342211	4.508	n/a	stim	s634
548.779	0.45	0.3422462548274254	end_round	0.0	columbia_card_task_fmri	17.0	0.8333333333333334	71.0	-80.0	0.1666666666666666	15.0	4.0	2.0	4.758099691096426	0.45	3.0	stim	s634
549.233	2.25	n/a	-1.0	n/a	columbia_card_task_fmri	n/a	n/a	-1.0	n/a	n/a	n/a	n/a	n/a	n/a	n/a	n/a	feedback	s634
551.483	0.068	n/a	-1.0	n/a	columbia_card_task_fmri	n/a	n/a	-1.0	n/a	n/a	n/a	n/a	n/a	n/a	n/a	n/a	ITI	s634
551.556	3.816	-0.4910870785059102	draw_card	0.0	columbia_card_task_fmri	1.0	0.9375	89.0	-15.0	0.0625	16.0	1.0	1.0	-27.49100778665481	3.816	n/a	stim	s634
555.374	3.903	-0.5577537451725769	end_round	0.0	columbia_card_task_fmri	1.0	0.9333333333333332	71.0	-15.0	0.0666666666666666	16.0	2.0	1.0	-27.373800707377058	3.903	1.0	stim	s634
559.282	2.25	n/a	-1.0	n/a	columbia_card_task_fmri	n/a	n/a	-1.0	n/a	n/a	n/a	n/a	n/a	n/a	n/a	n/a	feedback	s634
561.532	0.476	n/a	-1.0	n/a	columbia_card_task_fmri	n/a	n/a	-1.0	n/a	n/a	n/a	n/a	n/a	n/a	n/a	n/a	ITI	s634
562.011	1.96	2.633912921494089	draw_card	0.0	columbia_card_task_fmri	10.0	0.9375	89.0	-100.0	0.0625	16.0	1.0	1.0	-4.763712679999163	1.96	n/a	stim	s634
563.977	7.235	2.1755795881607565	draw_card	0.0	columbia_card_task_fmri	10.0	0.9333333333333332	89.0	-100.0	0.0666666666666666	16.0	2.0	1.0	-3.9517863424173534	7.235	n/a	stim	s634
571.215	0.755	1.651770064351234	draw_card	0.0	columbia_card_task_fmri	10.0	0.9285714285714286	89.0	-100.0	0.0714285714285714	16.0	3.0	1.0	-3.061413838096467	0.755	n/a	stim	s634
571.973	1.729	1.047374459955629	draw_card	0.0	columbia_card_task_fmri	10.0	0.9230769230769232	89.0	-100.0	0.0769230769230769	16.0	4.0	1.0	-2.079258850031895	1.729	n/a	stim	s634
573.707	3.513	0.3422462548274236	draw_card	0.0	columbia_card_task_fmri	10.0	0.9166666666666666	89.0	-100.0	0.0833333333333333	16.0	5.0	1.0	-0.9886415542259748	3.513	n/a	stim	s634
577.224	6.369	-0.491087078505912	end_round	0.0	columbia_card_task_fmri	10.0	0.9090909090909092	71.0	-100.0	0.0909090909090909	16.0	6.0	1.0	0.2315880998908994	6.369	5.0	stim	s634
583.597	2.25	n/a	-1.0	n/a	columbia_card_task_fmri	n/a	n/a	-1.0	n/a	n/a	n/a	n/a	n/a	n/a	n/a	n/a	feedback	s634
585.847	0.136	n/a	-1.0	n/a	columbia_card_task_fmri	n/a	n/a	-1.0	n/a	n/a	n/a	n/a	n/a	n/a	n/a	n/a	ITI	s634
585.986	3.729	3.258912921494089	draw_card	0.0	columbia_card_task_fmri	15.0	0.875	89.0	-75.0	0.125	16.0	1.0	2.0	-1.6262482588601124	3.729	n/a	stim	s634
589.719	13.077	2.508912921494089	draw_card	0.0	columbia_card_task_fmri	15.0	0.8666666666666667	89.0	-75.0	0.1333333333333333	16.0	2.0	2.0	-0.7969432345508842	13.077	n/a	stim	s634
602.8	4.55	1.651770064351234	draw_card	0.0	columbia_card_task_fmri	15.0	0.8571428571428572	89.0	-75.0	0.1428571428571428	16.0	3.0	2.0	0.1022667053652881	4.55	n/a	stim	s634
607.354	1.797	0.662759075340243	draw_card	0.0	columbia_card_task_fmri	15.0	0.8461538461538461	89.0	-75.0	0.1538461538461538	16.0	4.0	2.0	1.0808208857129171	1.797	n/a	stim	s634
609.155	2.8	-0.4910870785059102	draw_card	1.0	columbia_card_task_fmri	15.0	0.8333333333333334	89.0	-75.0	0.1666666666666666	16.0	5.0	2.0	2.1496131186548126	2.8	5.0	stim	s634
611.959	2.25	n/a	-1.0	n/a	columbia_card_task_fmri	n/a	n/a	-1.0	n/a	n/a	n/a	n/a	n/a	n/a	n/a	n/a	feedback	s634
614.209	0.068	n/a	-1.0	n/a	columbia_card_task_fmri	n/a	n/a	-1.0	n/a	n/a	n/a	n/a	n/a	n/a	n/a	n/a	ITI	s634
614.28	10.064	3.508912921494089	draw_card	0.0	columbia_card_task_fmri	16.0	0.875	89.0	-80.0	0.125	16.0	1.0	2.0	0.3578120719136493	10.064	n/a	stim	s634
624.349	7.138	2.7089129214940906	draw_card	0.0	columbia_card_task_fmri	16.0	0.8666666666666667	89.0	-80.0	0.1333333333333333	16.0	2.0	2.0	1.2424182788710638	7.138	n/a	stim	s634
631.491	2.603	1.794627207208378	draw_card	0.0	columbia_card_task_fmri	16.0	0.8571428571428572	89.0	-80.0	0.1428571428571428	16.0	3.0	2.0	2.20159008066036	2.603	n/a	stim	s634
634.098	1.381	0.7396821522633197	draw_card	1.0	columbia_card_task_fmri	16.0	0.8461538461538461	89.0	-80.0	0.1538461538461538	16.0	4.0	2.0	3.2453961067877515	1.381	4.0	stim	s634
635.483	2.25	n/a	-1.0	n/a	columbia_card_task_fmri	n/a	n/a	-1.0	n/a	n/a	n/a	n/a	n/a	n/a	n/a	n/a	feedback	s634
637.733	0.0	n/a	-1.0	n/a	columbia_card_task_fmri	n/a	n/a	-1.0	n/a	n/a	n/a	n/a	n/a	n/a	n/a	n/a	ITI	s634
637.736	4.564	0.6964129214940897	draw_card	0.0	columbia_card_task_fmri	4.0	0.6875	89.0	-5.0	0.3125	16.0	1.0	5.0	-27.19458358104921	4.564	n/a	stim	s634
642.304	0.91	0.5089129214940902	draw_card	0.0	columbia_card_task_fmri	4.0	0.6666666666666667	89.0	-5.0	0.3333333333333333	16.0	2.0	5.0	-27.124033582655738	0.91	n/a	stim	s634
643.217	1.476	0.2946272072083751	draw_card	0.0	columbia_card_task_fmri	4.0	0.6428571428571428	89.0	-5.0	0.3571428571428571	16.0	3.0	5.0	-27.054712830624325	1.476	n/a	stim	s634
644.696	2.213	0.0473744599556282	end_round	0.0	columbia_card_task_fmri	4.0	0.6153846153846154	71.0	-5.0	0.3846153846153846	16.0	4.0	5.0	-26.98900960284594	2.213	3.0	stim	s634
646.914	2.25	n/a	-1.0	n/a	columbia_card_task_fmri	n/a	n/a	-1.0	n/a	n/a	n/a	n/a	n/a	n/a	n/a	n/a	feedback	s634
649.164	0.0	n/a	-1.0	n/a	columbia_card_task_fmri	n/a	n/a	-1.0	n/a	n/a	n/a	n/a	n/a	n/a	n/a	n/a	ITI	s634
649.166	5.828	-2.157753745172575	end_round	0.0	columbia_card_task_fmri	14.0	0.8333333333333334	71.0	-80.0	0.1666666666666666	6.0	1.0	1.0	3.640172144313041	5.828	0.0	stim	s634
654.998	2.25	n/a	-1.0	n/a	columbia_card_task_fmri	n/a	n/a	-1.0	n/a	n/a	n/a	n/a	n/a	n/a	n/a	n/a	feedback	s634
657.248	0.204	n/a	-1.0	n/a	columbia_card_task_fmri	n/a	n/a	-1.0	n/a	n/a	n/a	n/a	n/a	n/a	n/a	n/a	ITI	s634
657.456	3.155	-0.4910870785059102	end_round	0.0	columbia_card_task_fmri	15.0	0.8333333333333334	71.0	-75.0	0.1666666666666666	6.0	1.0	1.0	2.1496131186548126	3.155	0.0	stim	s634
660.614	2.25	n/a	-1.0	n/a	columbia_card_task_fmri	n/a	n/a	-1.0	n/a	n/a	n/a	n/a	n/a	n/a	n/a	n/a	feedback	s634
662.864	0.204	n/a	-1.0	n/a	columbia_card_task_fmri	n/a	n/a	-1.0	n/a	n/a	n/a	n/a	n/a	n/a	n/a	n/a	ITI	s634
663.072	3.341	1.1755795881607576	draw_card	0.0	columbia_card_task_fmri	16.0	0.8333333333333334	89.0	-70.0	0.1666666666666666	6.0	1.0	1.0	0.6590683193758125	3.341	n/a	stim	s634
666.419	1.01	-1.6910870785059096	end_round	0.0	columbia_card_task_fmri	16.0	0.8	71.0	-70.0	0.2	6.0	2.0	1.0	3.0085036993398973	1.01	1.0	stim	s634
667.432	2.25	n/a	-1.0	n/a	columbia_card_task_fmri	n/a	n/a	-1.0	n/a	n/a	n/a	n/a	n/a	n/a	n/a	n/a	feedback	s634
669.682	0.272	n/a	-1.0	n/a	columbia_card_task_fmri	n/a	n/a	-1.0	n/a	n/a	n/a	n/a	n/a	n/a	n/a	n/a	ITI	s634
669.957	5.413	1.7589129214940895	draw_card	0.0	columbia_card_task_fmri	23.0	0.75	89.0	-60.0	0.25	8.0	1.0	2.0	4.548407772867769	5.413	n/a	stim	s634
675.373	6.964	-1.205372792791622	draw_card	0.0	columbia_card_task_fmri	23.0	0.7142857142857143	89.0	-60.0	0.2857142857142857	8.0	2.0	2.0	6.10379231608497	6.964	n/a	stim	s634
682.34	1.043	-5.157753745172575	end_round	0.0	columbia_card_task_fmri	23.0	0.6666666666666667	71.0	-60.0	0.3333333333333333	8.0	3.0	2.0	7.734655531058664	1.043	2.0	stim	s634
683.387	2.25	n/a	-1.0	n/a	columbia_card_task_fmri	n/a	n/a	-1.0	n/a	n/a	n/a	n/a	n/a	n/a	n/a	n/a	feedback	s634
685.637	0.136	n/a	-1.0	n/a	columbia_card_task_fmri	n/a	n/a	-1.0	n/a	n/a	n/a	n/a	n/a	n/a	n/a	n/a	ITI	s634
