onset	duration	planning	condition	current_position	exp_stage	experiment_exp_id	goal_state	key_press	problem_id	response_time	start_state	trial_id	worker_id
-73.665	0.0	0	n/a	n/a	n/a	ward_and_allport	n/a	32.0	n/a	34.898	n/a	instructions	s623
3.005	6.787	1	UA_with_intermediate	1,0,0,2,0,0,0,0,0	practice	ward_and_allport	1,2,3,0,0,0,0,0,0	71.0	0.0	6.787	1,0,0,2,3,0,0,0,0	to_hand	s623
9.793	0.526	0	UA_with_intermediate	1,0,0,2,0,0,3,0,0	practice	ward_and_allport	1,2,3,0,0,0,0,0,0	82.0	0.0	0.526	1,0,0,2,3,0,0,0,0	to_board	s623
10.32	1.105	0	UA_with_intermediate	1,0,0,0,0,0,3,0,0	practice	ward_and_allport	1,2,3,0,0,0,0,0,0	71.0	0.0	1.105	1,0,0,2,3,0,0,0,0	to_hand	s623
11.427	0.591	0	UA_with_intermediate	1,2,0,0,0,0,3,0,0	practice	ward_and_allport	1,2,3,0,0,0,0,0,0	89.0	0.0	0.591	1,0,0,2,3,0,0,0,0	to_board	s623
12.019	1.181	0	UA_with_intermediate	1,2,0,0,0,0,0,0,0	practice	ward_and_allport	1,2,3,0,0,0,0,0,0	82.0	0.0	1.181	1,0,0,2,3,0,0,0,0	to_hand	s623
13.201	0.342	0	UA_with_intermediate	1,2,3,0,0,0,0,0,0	practice	ward_and_allport	1,2,3,0,0,0,0,0,0	89.0	0.0	0.342	1,0,0,2,3,0,0,0,0	to_board	s623
13.548	1.0	0	UA_with_intermediate	n/a	practice	ward_and_allport	n/a	-1.0	0.0	n/a	n/a	feedback	s623
16.05	3.27	1	UA_with_intermediate	1,2,0,0,0,0,0,0,0	practice	ward_and_allport	1,3,2,0,0,0,0,0,0	71.0	1.0	3.27	1,2,0,3,0,0,0,0,0	to_hand	s623
19.321	0.613	0	UA_with_intermediate	1,2,0,0,0,0,3,0,0	practice	ward_and_allport	1,3,2,0,0,0,0,0,0	82.0	1.0	0.613	1,2,0,3,0,0,0,0,0	to_board	s623
19.936	3.258	0	UA_with_intermediate	1,0,0,0,0,0,3,0,0	practice	ward_and_allport	1,3,2,0,0,0,0,0,0	89.0	1.0	3.258	1,2,0,3,0,0,0,0,0	to_hand	s623
23.195	3.351	0	UA_with_intermediate	1,0,0,0,0,0,3,2,0	practice	ward_and_allport	1,3,2,0,0,0,0,0,0	82.0	1.0	3.351	1,2,0,3,0,0,0,0,0	to_board	s623
26.548	1.262	0	UA_with_intermediate	0,0,0,0,0,0,3,2,0	practice	ward_and_allport	1,3,2,0,0,0,0,0,0	89.0	1.0	1.262	1,2,0,3,0,0,0,0,0	to_hand	s623
27.811	0.435	0	UA_with_intermediate	0,0,0,1,0,0,3,2,0	practice	ward_and_allport	1,3,2,0,0,0,0,0,0	71.0	1.0	0.435	1,2,0,3,0,0,0,0,0	to_board	s623
28.248	1.666	0	UA_with_intermediate	0,0,0,0,0,0,3,2,0	practice	ward_and_allport	1,3,2,0,0,0,0,0,0	71.0	1.0	1.666	1,2,0,3,0,0,0,0,0	to_hand	s623
29.915	1.392	0	UA_with_intermediate	0,0,0,1,0,0,3,2,0	practice	ward_and_allport	1,3,2,0,0,0,0,0,0	71.0	1.0	1.392	1,2,0,3,0,0,0,0,0	to_board	s623
31.309	5.574	0	UA_with_intermediate	0,0,0,1,0,0,3,0,0	practice	ward_and_allport	1,3,2,0,0,0,0,0,0	82.0	1.0	5.574	1,2,0,3,0,0,0,0,0	to_hand	s623
36.883	1.266	0	UA_with_intermediate	2,0,0,1,0,0,3,0,0	practice	ward_and_allport	1,3,2,0,0,0,0,0,0	89.0	1.0	1.266	1,2,0,3,0,0,0,0,0	to_board	s623
38.15	1.104	0	UA_with_intermediate	2,0,0,1,0,0,0,0,0	practice	ward_and_allport	1,3,2,0,0,0,0,0,0	82.0	1.0	1.104	1,2,0,3,0,0,0,0,0	to_hand	s623
39.255	0.467	0	UA_with_intermediate	2,0,0,1,3,0,0,0,0	practice	ward_and_allport	1,3,2,0,0,0,0,0,0	71.0	1.0	0.467	1,2,0,3,0,0,0,0,0	to_board	s623
39.723	0.968	0	UA_with_intermediate	0,0,0,1,3,0,0,0,0	practice	ward_and_allport	1,3,2,0,0,0,0,0,0	89.0	1.0	0.968	1,2,0,3,0,0,0,0,0	to_hand	s623
40.692	0.356	0	UA_with_intermediate	0,0,0,1,3,2,0,0,0	practice	ward_and_allport	1,3,2,0,0,0,0,0,0	71.0	1.0	0.356	1,2,0,3,0,0,0,0,0	to_board	s623
41.05	5.332	0	UA_with_intermediate	0,0,0,1,3,0,0,0,0	practice	ward_and_allport	1,3,2,0,0,0,0,0,0	71.0	1.0	5.332	1,2,0,3,0,0,0,0,0	to_hand	s623
46.383	0.76	0	UA_with_intermediate	0,0,0,1,3,0,2,0,0	practice	ward_and_allport	1,3,2,0,0,0,0,0,0	82.0	1.0	0.76	1,2,0,3,0,0,0,0,0	to_board	s623
47.146	1.037	0	UA_with_intermediate	0,0,0,1,0,0,2,0,0	practice	ward_and_allport	1,3,2,0,0,0,0,0,0	71.0	1.0	1.037	1,2,0,3,0,0,0,0,0	to_hand	s623
48.183	0.456	0	UA_with_intermediate	0,0,0,1,0,0,2,3,0	practice	ward_and_allport	1,3,2,0,0,0,0,0,0	82.0	1.0	0.456	1,2,0,3,0,0,0,0,0	to_board	s623
48.642	1.634	0	UA_with_intermediate	0,0,0,0,0,0,2,3,0	practice	ward_and_allport	1,3,2,0,0,0,0,0,0	71.0	1.0	1.634	1,2,0,3,0,0,0,0,0	to_hand	s623
50.277	0.405	0	UA_with_intermediate	1,0,0,0,0,0,2,3,0	practice	ward_and_allport	1,3,2,0,0,0,0,0,0	89.0	1.0	0.405	1,2,0,3,0,0,0,0,0	to_board	s623
50.684	1.822	0	UA_with_intermediate	1,0,0,0,0,0,2,0,0	practice	ward_and_allport	1,3,2,0,0,0,0,0,0	82.0	1.0	1.822	1,2,0,3,0,0,0,0,0	to_hand	s623
52.507	1.042	0	UA_with_intermediate	1,3,0,0,0,0,2,0,0	practice	ward_and_allport	1,3,2,0,0,0,0,0,0	89.0	1.0	1.042	1,2,0,3,0,0,0,0,0	to_board	s623
53.552	0.851	0	UA_with_intermediate	1,3,0,0,0,0,0,0,0	practice	ward_and_allport	1,3,2,0,0,0,0,0,0	82.0	1.0	0.851	1,2,0,3,0,0,0,0,0	to_hand	s623
54.404	0.728	0	UA_with_intermediate	1,3,2,0,0,0,0,0,0	practice	ward_and_allport	1,3,2,0,0,0,0,0,0	89.0	1.0	0.728	1,2,0,3,0,0,0,0,0	to_board	s623
55.134	1.0	0	UA_with_intermediate	n/a	practice	ward_and_allport	n/a	-1.0	1.0	n/a	n/a	feedback	s623
56.134	1.1	0	UA_with_intermediate	n/a	practice	ward_and_allport	n/a	-1.0	1.0	n/a	n/a	ITI	s623
57.236	3.058	1	UA_without_intermediate	0,0,0,1,2,0,0,0,0	practice	ward_and_allport	3,2,1,0,0,0,0,0,0	82.0	2.0	3.058	0,0,0,1,2,0,3,0,0	to_hand	s623
60.296	1.457	0	UA_without_intermediate	3,0,0,1,2,0,0,0,0	practice	ward_and_allport	3,2,1,0,0,0,0,0,0	89.0	2.0	1.457	0,0,0,1,2,0,3,0,0	to_board	s623
61.755	0.874	0	UA_without_intermediate	3,0,0,1,0,0,0,0,0	practice	ward_and_allport	3,2,1,0,0,0,0,0,0	71.0	2.0	0.874	0,0,0,1,2,0,3,0,0	to_hand	s623
62.631	0.361	0	UA_without_intermediate	3,2,0,1,0,0,0,0,0	practice	ward_and_allport	3,2,1,0,0,0,0,0,0	89.0	2.0	0.361	0,0,0,1,2,0,3,0,0	to_board	s623
62.994	0.9	0	UA_without_intermediate	3,2,0,0,0,0,0,0,0	practice	ward_and_allport	3,2,1,0,0,0,0,0,0	71.0	2.0	0.9	0,0,0,1,2,0,3,0,0	to_hand	s623
63.895	0.387	0	UA_without_intermediate	3,2,1,0,0,0,0,0,0	practice	ward_and_allport	3,2,1,0,0,0,0,0,0	89.0	2.0	0.387	0,0,0,1,2,0,3,0,0	to_board	s623
64.284	1.0	0	UA_without_intermediate	n/a	practice	ward_and_allport	n/a	-1.0	2.0	n/a	n/a	feedback	s623
65.284	1.2	0	UA_without_intermediate	n/a	practice	ward_and_allport	n/a	-1.0	2.0	n/a	n/a	ITI	s623
66.487	5.19	1	UA_without_intermediate	0,0,0,1,0,0,3,0,0	practice	ward_and_allport	2,3,1,0,0,0,0,0,0	71.0	3.0	5.19	0,0,0,1,2,0,3,0,0	to_hand	s623
71.678	0.301	0	UA_without_intermediate	2,0,0,1,0,0,3,0,0	practice	ward_and_allport	2,3,1,0,0,0,0,0,0	89.0	3.0	0.301	0,0,0,1,2,0,3,0,0	to_board	s623
71.982	2.208	0	UA_without_intermediate	2,0,0,1,0,0,0,0,0	practice	ward_and_allport	2,3,1,0,0,0,0,0,0	82.0	3.0	2.208	0,0,0,1,2,0,3,0,0	to_hand	s623
74.191	0.298	0	UA_without_intermediate	2,3,0,1,0,0,0,0,0	practice	ward_and_allport	2,3,1,0,0,0,0,0,0	89.0	3.0	0.298	0,0,0,1,2,0,3,0,0	to_board	s623
74.491	0.621	0	UA_without_intermediate	2,3,0,0,0,0,0,0,0	practice	ward_and_allport	2,3,1,0,0,0,0,0,0	71.0	3.0	0.621	0,0,0,1,2,0,3,0,0	to_hand	s623
75.113	0.349	0	UA_without_intermediate	2,3,1,0,0,0,0,0,0	practice	ward_and_allport	2,3,1,0,0,0,0,0,0	89.0	3.0	0.349	0,0,0,1,2,0,3,0,0	to_board	s623
75.464	1.0	0	UA_without_intermediate	n/a	practice	ward_and_allport	n/a	-1.0	3.0	n/a	n/a	feedback	s623
76.464	1.0	0	UA_without_intermediate	n/a	practice	ward_and_allport	n/a	-1.0	3.0	n/a	n/a	ITI	s623
79.469	7.783	1	PA_with_intermediate	0,0,0,0,0,0,1,2,0	test	ward_and_allport	2,3,0,0,0,0,1,0,0	82.0	0.0	7.783	0,0,0,0,0,0,1,2,3	to_hand	s623
87.253	2.564	0	PA_with_intermediate	3,0,0,0,0,0,1,2,0	test	ward_and_allport	2,3,0,0,0,0,1,0,0	89.0	0.0	2.564	0,0,0,0,0,0,1,2,3	to_board	s623
89.819	2.791	0	PA_with_intermediate	3,0,0,0,0,0,1,0,0	test	ward_and_allport	2,3,0,0,0,0,1,0,0	82.0	0.0	2.791	0,0,0,0,0,0,1,2,3	to_hand	s623
92.611	1.035	0	PA_with_intermediate	3,0,0,2,0,0,1,0,0	test	ward_and_allport	2,3,0,0,0,0,1,0,0	71.0	0.0	1.035	0,0,0,0,0,0,1,2,3	to_board	s623
93.648	2.463	0	PA_with_intermediate	0,0,0,2,0,0,1,0,0	test	ward_and_allport	2,3,0,0,0,0,1,0,0	89.0	0.0	2.463	0,0,0,0,0,0,1,2,3	to_hand	s623
96.112	0.474	0	PA_with_intermediate	0,0,0,2,3,0,1,0,0	test	ward_and_allport	2,3,0,0,0,0,1,0,0	71.0	0.0	0.474	0,0,0,0,0,0,1,2,3	to_board	s623
96.588	1.779	0	PA_with_intermediate	0,0,0,2,0,0,1,0,0	test	ward_and_allport	2,3,0,0,0,0,1,0,0	71.0	0.0	1.779	0,0,0,0,0,0,1,2,3	to_hand	s623
98.368	0.58	0	PA_with_intermediate	0,0,0,2,0,0,1,3,0	test	ward_and_allport	2,3,0,0,0,0,1,0,0	82.0	0.0	0.58	0,0,0,0,0,0,1,2,3	to_board	s623
98.95	0.832	0	PA_with_intermediate	0,0,0,0,0,0,1,3,0	test	ward_and_allport	2,3,0,0,0,0,1,0,0	71.0	0.0	0.832	0,0,0,0,0,0,1,2,3	to_hand	s623
99.783	0.425	0	PA_with_intermediate	2,0,0,0,0,0,1,3,0	test	ward_and_allport	2,3,0,0,0,0,1,0,0	89.0	0.0	0.425	0,0,0,0,0,0,1,2,3	to_board	s623
100.212	1.03	0	PA_with_intermediate	2,0,0,0,0,0,1,0,0	test	ward_and_allport	2,3,0,0,0,0,1,0,0	82.0	0.0	1.03	0,0,0,0,0,0,1,2,3	to_hand	s623
101.242	0.69	0	PA_with_intermediate	2,3,0,0,0,0,1,0,0	test	ward_and_allport	2,3,0,0,0,0,1,0,0	89.0	0.0	0.69	0,0,0,0,0,0,1,2,3	to_board	s623
101.936	1.0	0	PA_with_intermediate	n/a	test	ward_and_allport	n/a	-1.0	0.0	n/a	n/a	feedback	s623
102.936	3.176	0	PA_with_intermediate	n/a	test	ward_and_allport	n/a	-1.0	0.0	n/a	n/a	ITI	s623
106.115	5.519	1	PA_with_intermediate	0,0,0,0,0,0,1,2,0	test	ward_and_allport	0,0,0,2,3,0,1,0,0	82.0	1.0	5.519	0,0,0,0,0,0,1,2,3	to_hand	s623
111.635	0.397	0	PA_with_intermediate	3,0,0,0,0,0,1,2,0	test	ward_and_allport	0,0,0,2,3,0,1,0,0	89.0	1.0	0.397	0,0,0,0,0,0,1,2,3	to_board	s623
112.035	1.905	0	PA_with_intermediate	3,0,0,0,0,0,1,0,0	test	ward_and_allport	0,0,0,2,3,0,1,0,0	82.0	1.0	1.905	0,0,0,0,0,0,1,2,3	to_hand	s623
113.94	0.394	0	PA_with_intermediate	3,0,0,2,0,0,1,0,0	test	ward_and_allport	0,0,0,2,3,0,1,0,0	71.0	1.0	0.394	0,0,0,0,0,0,1,2,3	to_board	s623
114.338	2.099	0	PA_with_intermediate	0,0,0,2,0,0,1,0,0	test	ward_and_allport	0,0,0,2,3,0,1,0,0	89.0	1.0	2.099	0,0,0,0,0,0,1,2,3	to_hand	s623
116.439	0.37	0	PA_with_intermediate	0,0,0,2,3,0,1,0,0	test	ward_and_allport	0,0,0,2,3,0,1,0,0	71.0	1.0	0.37	0,0,0,0,0,0,1,2,3	to_board	s623
116.812	1.0	0	PA_with_intermediate	n/a	test	ward_and_allport	n/a	-1.0	1.0	n/a	n/a	feedback	s623
117.812	2.36	0	PA_with_intermediate	n/a	test	ward_and_allport	n/a	-1.0	1.0	n/a	n/a	ITI	s623
120.175	4.221	1	PA_with_intermediate	0,0,0,1,2,0,0,0,0	test	ward_and_allport	2,3,0,1,0,0,0,0,0	71.0	2.0	4.221	0,0,0,1,2,3,0,0,0	to_hand	s623
124.398	1.756	0	PA_with_intermediate	0,0,0,1,2,0,3,0,0	test	ward_and_allport	2,3,0,1,0,0,0,0,0	82.0	2.0	1.756	0,0,0,1,2,3,0,0,0	to_board	s623
126.156	0.732	0	PA_with_intermediate	0,0,0,1,0,0,3,0,0	test	ward_and_allport	2,3,0,1,0,0,0,0,0	71.0	2.0	0.732	0,0,0,1,2,3,0,0,0	to_hand	s623
126.89	2.262	0	PA_with_intermediate	2,0,0,1,0,0,3,0,0	test	ward_and_allport	2,3,0,1,0,0,0,0,0	89.0	2.0	2.262	0,0,0,1,2,3,0,0,0	to_board	s623
129.156	0.907	0	PA_with_intermediate	2,0,0,1,0,0,0,0,0	test	ward_and_allport	2,3,0,1,0,0,0,0,0	82.0	2.0	0.907	0,0,0,1,2,3,0,0,0	to_hand	s623
130.063	0.418	0	PA_with_intermediate	2,3,0,1,0,0,0,0,0	test	ward_and_allport	2,3,0,1,0,0,0,0,0	89.0	2.0	0.418	0,0,0,1,2,3,0,0,0	to_board	s623
130.484	1.0	0	PA_with_intermediate	n/a	test	ward_and_allport	n/a	-1.0	2.0	n/a	n/a	feedback	s623
131.484	1.0	0	PA_with_intermediate	n/a	test	ward_and_allport	n/a	-1.0	2.0	n/a	n/a	ITI	s623
132.488	4.508	1	PA_without_intermediate	0,0,0,0,0,0,1,2,0	test	ward_and_allport	3,2,0,1,0,0,0,0,0	82.0	3.0	4.508	0,0,0,0,0,0,1,2,3	to_hand	s623
136.997	0.676	0	PA_without_intermediate	3,0,0,0,0,0,1,2,0	test	ward_and_allport	3,2,0,1,0,0,0,0,0	89.0	3.0	0.676	0,0,0,0,0,0,1,2,3	to_board	s623
137.677	0.878	0	PA_without_intermediate	3,0,0,0,0,0,1,0,0	test	ward_and_allport	3,2,0,1,0,0,0,0,0	82.0	3.0	0.878	0,0,0,0,0,0,1,2,3	to_hand	s623
138.556	0.8	0	PA_without_intermediate	3,2,0,0,0,0,1,0,0	test	ward_and_allport	3,2,0,1,0,0,0,0,0	89.0	3.0	0.8	0,0,0,0,0,0,1,2,3	to_board	s623
139.36	1.867	0	PA_without_intermediate	3,2,0,0,0,0,0,0,0	test	ward_and_allport	3,2,0,1,0,0,0,0,0	82.0	3.0	1.867	0,0,0,0,0,0,1,2,3	to_hand	s623
141.228	0.313	0	PA_without_intermediate	3,2,0,1,0,0,0,0,0	test	ward_and_allport	3,2,0,1,0,0,0,0,0	71.0	3.0	0.313	0,0,0,0,0,0,1,2,3	to_board	s623
141.544	1.0	0	PA_without_intermediate	n/a	test	ward_and_allport	n/a	-1.0	3.0	n/a	n/a	feedback	s623
142.544	1.408	0	PA_without_intermediate	n/a	test	ward_and_allport	n/a	-1.0	3.0	n/a	n/a	ITI	s623
143.956	3.757	1	PA_with_intermediate	0,0,0,0,0,0,1,2,0	test	ward_and_allport	0,0,0,2,0,0,1,3,0	82.0	4.0	3.757	0,0,0,0,0,0,1,2,3	to_hand	s623
147.714	2.729	0	PA_with_intermediate	3,0,0,0,0,0,1,2,0	test	ward_and_allport	0,0,0,2,0,0,1,3,0	89.0	4.0	2.729	0,0,0,0,0,0,1,2,3	to_board	s623
150.446	0.835	0	PA_with_intermediate	3,0,0,0,0,0,1,0,0	test	ward_and_allport	0,0,0,2,0,0,1,3,0	82.0	4.0	0.835	0,0,0,0,0,0,1,2,3	to_hand	s623
151.282	0.472	0	PA_with_intermediate	3,0,0,2,0,0,1,0,0	test	ward_and_allport	0,0,0,2,0,0,1,3,0	71.0	4.0	0.472	0,0,0,0,0,0,1,2,3	to_board	s623
151.756	1.607	0	PA_with_intermediate	0,0,0,2,0,0,1,0,0	test	ward_and_allport	0,0,0,2,0,0,1,3,0	89.0	4.0	1.607	0,0,0,0,0,0,1,2,3	to_hand	s623
153.364	0.477	0	PA_with_intermediate	0,0,0,2,0,0,1,3,0	test	ward_and_allport	0,0,0,2,0,0,1,3,0	82.0	4.0	0.477	0,0,0,0,0,0,1,2,3	to_board	s623
153.845	1.0	0	PA_with_intermediate	n/a	test	ward_and_allport	n/a	-1.0	4.0	n/a	n/a	feedback	s623
154.845	1.816	0	PA_with_intermediate	n/a	test	ward_and_allport	n/a	-1.0	4.0	n/a	n/a	ITI	s623
156.665	5.617	1	PA_without_intermediate	0,0,0,0,0,0,1,2,0	test	ward_and_allport	1,0,0,3,2,0,0,0,0	82.0	5.0	5.617	0,0,0,0,0,0,1,2,3	to_hand	s623
162.283	0.382	0	PA_without_intermediate	0,0,0,3,0,0,1,2,0	test	ward_and_allport	1,0,0,3,2,0,0,0,0	71.0	5.0	0.382	0,0,0,0,0,0,1,2,3	to_board	s623
162.669	1.906	0	PA_without_intermediate	0,0,0,3,0,0,1,0,0	test	ward_and_allport	1,0,0,3,2,0,0,0,0	82.0	5.0	1.906	0,0,0,0,0,0,1,2,3	to_hand	s623
164.576	0.653	0	PA_without_intermediate	0,0,0,3,2,0,1,0,0	test	ward_and_allport	1,0,0,3,2,0,0,0,0	71.0	5.0	0.653	0,0,0,0,0,0,1,2,3	to_board	s623
165.235	1.773	0	PA_without_intermediate	0,0,0,3,2,0,0,0,0	test	ward_and_allport	1,0,0,3,2,0,0,0,0	82.0	5.0	1.773	0,0,0,0,0,0,1,2,3	to_hand	s623
167.009	0.37	0	PA_without_intermediate	1,0,0,3,2,0,0,0,0	test	ward_and_allport	1,0,0,3,2,0,0,0,0	89.0	5.0	0.37	0,0,0,0,0,0,1,2,3	to_board	s623
167.383	1.0	0	PA_without_intermediate	n/a	test	ward_and_allport	n/a	-1.0	5.0	n/a	n/a	feedback	s623
168.383	2.088	0	PA_without_intermediate	n/a	test	ward_and_allport	n/a	-1.0	5.0	n/a	n/a	ITI	s623
170.474	4.954	1	PA_without_intermediate	0,0,0,1,2,0,0,0,0	test	ward_and_allport	3,1,0,0,0,0,2,0,0	71.0	6.0	4.954	0,0,0,1,2,3,0,0,0	to_hand	s623
175.429	0.314	0	PA_without_intermediate	3,0,0,1,2,0,0,0,0	test	ward_and_allport	3,1,0,0,0,0,2,0,0	89.0	6.0	0.314	0,0,0,1,2,3,0,0,0	to_board	s623
175.746	1.401	0	PA_without_intermediate	3,0,0,1,0,0,0,0,0	test	ward_and_allport	3,1,0,0,0,0,2,0,0	71.0	6.0	1.401	0,0,0,1,2,3,0,0,0	to_hand	s623
177.148	0.306	0	PA_without_intermediate	3,0,0,1,0,0,2,0,0	test	ward_and_allport	3,1,0,0,0,0,2,0,0	82.0	6.0	0.306	0,0,0,1,2,3,0,0,0	to_board	s623
177.458	1.514	0	PA_without_intermediate	3,0,0,0,0,0,2,0,0	test	ward_and_allport	3,1,0,0,0,0,2,0,0	71.0	6.0	1.514	0,0,0,1,2,3,0,0,0	to_hand	s623
178.973	1.322	0	PA_without_intermediate	3,1,0,0,0,0,2,0,0	test	ward_and_allport	3,1,0,0,0,0,2,0,0	89.0	6.0	1.322	0,0,0,1,2,3,0,0,0	to_board	s623
180.3	1.0	0	PA_without_intermediate	n/a	test	ward_and_allport	n/a	-1.0	6.0	n/a	n/a	feedback	s623
181.3	1.136	0	PA_without_intermediate	n/a	test	ward_and_allport	n/a	-1.0	6.0	n/a	n/a	ITI	s623
182.439	1.729	1	PA_without_intermediate	0,0,0,0,0,0,1,2,0	test	ward_and_allport	3,1,0,2,0,0,0,0,0	82.0	7.0	1.729	0,0,0,0,0,0,1,2,3	to_hand	s623
184.17	0.453	0	PA_without_intermediate	0,0,0,3,0,0,1,2,0	test	ward_and_allport	3,1,0,2,0,0,0,0,0	71.0	7.0	0.453	0,0,0,0,0,0,1,2,3	to_board	s623
184.627	1.424	0	PA_without_intermediate	0,0,0,0,0,0,1,2,0	test	ward_and_allport	3,1,0,2,0,0,0,0,0	71.0	7.0	1.424	0,0,0,0,0,0,1,2,3	to_hand	s623
186.052	0.963	0	PA_without_intermediate	3,0,0,0,0,0,1,2,0	test	ward_and_allport	3,1,0,2,0,0,0,0,0	89.0	7.0	0.963	0,0,0,0,0,0,1,2,3	to_board	s623
187.019	2.589	0	PA_without_intermediate	3,0,0,0,0,0,1,0,0	test	ward_and_allport	3,1,0,2,0,0,0,0,0	82.0	7.0	2.589	0,0,0,0,0,0,1,2,3	to_hand	s623
189.609	0.229	0	PA_without_intermediate	3,0,0,2,0,0,1,0,0	test	ward_and_allport	3,1,0,2,0,0,0,0,0	71.0	7.0	0.229	0,0,0,0,0,0,1,2,3	to_board	s623
189.842	0.576	0	PA_without_intermediate	3,0,0,2,0,0,0,0,0	test	ward_and_allport	3,1,0,2,0,0,0,0,0	82.0	7.0	0.576	0,0,0,0,0,0,1,2,3	to_hand	s623
190.419	0.59	0	PA_without_intermediate	3,1,0,2,0,0,0,0,0	test	ward_and_allport	3,1,0,2,0,0,0,0,0	89.0	7.0	0.59	0,0,0,0,0,0,1,2,3	to_board	s623
191.014	1.0	0	PA_without_intermediate	n/a	test	ward_and_allport	n/a	-1.0	7.0	n/a	n/a	feedback	s623
192.014	6.168	0	PA_without_intermediate	n/a	test	ward_and_allport	n/a	-1.0	7.0	n/a	n/a	ITI	s623
198.187	4.223	1	PA_without_intermediate	1,2,0,0,0,0,0,0,0	test	ward_and_allport	0,0,0,3,2,0,1,0,0	89.0	8.0	4.223	1,2,3,0,0,0,0,0,0	to_hand	s623
202.411	2.09	0	PA_without_intermediate	1,2,0,3,0,0,0,0,0	test	ward_and_allport	0,0,0,3,2,0,1,0,0	71.0	8.0	2.09	1,2,3,0,0,0,0,0,0	to_board	s623
204.505	0.45	0	PA_without_intermediate	1,0,0,3,0,0,0,0,0	test	ward_and_allport	0,0,0,3,2,0,1,0,0	89.0	8.0	0.45	1,2,3,0,0,0,0,0,0	to_hand	s623
204.956	0.341	0	PA_without_intermediate	1,0,0,3,2,0,0,0,0	test	ward_and_allport	0,0,0,3,2,0,1,0,0	71.0	8.0	0.341	1,2,3,0,0,0,0,0,0	to_board	s623
205.301	0.726	0	PA_without_intermediate	0,0,0,3,2,0,0,0,0	test	ward_and_allport	0,0,0,3,2,0,1,0,0	89.0	8.0	0.726	1,2,3,0,0,0,0,0,0	to_hand	s623
206.028	0.338	0	PA_without_intermediate	0,0,0,3,2,0,1,0,0	test	ward_and_allport	0,0,0,3,2,0,1,0,0	82.0	8.0	0.338	1,2,3,0,0,0,0,0,0	to_board	s623
206.371	1.0	0	PA_without_intermediate	n/a	test	ward_and_allport	n/a	-1.0	8.0	n/a	n/a	feedback	s623
207.371	1.816	0	PA_without_intermediate	n/a	test	ward_and_allport	n/a	-1.0	8.0	n/a	n/a	ITI	s623
209.191	1.999	1	PA_with_intermediate	0,0,0,1,2,0,0,0,0	test	ward_and_allport	2,3,0,1,0,0,0,0,0	71.0	9.0	1.999	0,0,0,1,2,3,0,0,0	to_hand	s623
211.191	0.469	0	PA_with_intermediate	3,0,0,1,2,0,0,0,0	test	ward_and_allport	2,3,0,1,0,0,0,0,0	89.0	9.0	0.469	0,0,0,1,2,3,0,0,0	to_board	s623
211.664	0.657	0	PA_with_intermediate	3,0,0,1,0,0,0,0,0	test	ward_and_allport	2,3,0,1,0,0,0,0,0	71.0	9.0	0.657	0,0,0,1,2,3,0,0,0	to_hand	s623
212.322	1.351	0	PA_with_intermediate	3,0,0,1,0,0,2,0,0	test	ward_and_allport	2,3,0,1,0,0,0,0,0	82.0	9.0	1.351	0,0,0,1,2,3,0,0,0	to_board	s623
213.678	2.694	0	PA_with_intermediate	0,0,0,1,0,0,2,0,0	test	ward_and_allport	2,3,0,1,0,0,0,0,0	89.0	9.0	2.694	0,0,0,1,2,3,0,0,0	to_hand	s623
216.373	1.436	0	PA_with_intermediate	0,0,0,1,3,0,2,0,0	test	ward_and_allport	2,3,0,1,0,0,0,0,0	71.0	9.0	1.436	0,0,0,1,2,3,0,0,0	to_board	s623
217.814	0.42	0	PA_with_intermediate	0,0,0,1,3,0,0,0,0	test	ward_and_allport	2,3,0,1,0,0,0,0,0	82.0	9.0	0.42	0,0,0,1,2,3,0,0,0	to_hand	s623
218.234	0.358	0	PA_with_intermediate	2,0,0,1,3,0,0,0,0	test	ward_and_allport	2,3,0,1,0,0,0,0,0	89.0	9.0	0.358	0,0,0,1,2,3,0,0,0	to_board	s623
218.598	0.477	0	PA_with_intermediate	2,0,0,1,0,0,0,0,0	test	ward_and_allport	2,3,0,1,0,0,0,0,0	71.0	9.0	0.477	0,0,0,1,2,3,0,0,0	to_hand	s623
219.076	0.29	0	PA_with_intermediate	2,3,0,1,0,0,0,0,0	test	ward_and_allport	2,3,0,1,0,0,0,0,0	89.0	9.0	0.29	0,0,0,1,2,3,0,0,0	to_board	s623
219.371	1.0	0	PA_with_intermediate	n/a	test	ward_and_allport	n/a	-1.0	9.0	n/a	n/a	feedback	s623
220.371	1.952	0	PA_with_intermediate	n/a	test	ward_and_allport	n/a	-1.0	9.0	n/a	n/a	ITI	s623
222.327	3.948	1	PA_with_intermediate	1,2,0,0,0,0,0,0,0	test	ward_and_allport	1,0,0,0,0,0,2,3,0	89.0	10.0	3.948	1,2,3,0,0,0,0,0,0	to_hand	s623
226.276	0.438	0	PA_with_intermediate	1,2,0,3,0,0,0,0,0	test	ward_and_allport	1,0,0,0,0,0,2,3,0	71.0	10.0	0.438	1,2,3,0,0,0,0,0,0	to_board	s623
226.719	0.927	0	PA_with_intermediate	1,0,0,3,0,0,0,0,0	test	ward_and_allport	1,0,0,0,0,0,2,3,0	89.0	10.0	0.927	1,2,3,0,0,0,0,0,0	to_hand	s623
227.647	1.082	0	PA_with_intermediate	1,0,0,3,0,0,2,0,0	test	ward_and_allport	1,0,0,0,0,0,2,3,0	82.0	10.0	1.082	1,2,3,0,0,0,0,0,0	to_board	s623
228.732	0.897	0	PA_with_intermediate	0,0,0,3,0,0,2,0,0	test	ward_and_allport	1,0,0,0,0,0,2,3,0	89.0	10.0	0.897	1,2,3,0,0,0,0,0,0	to_hand	s623
229.631	0.944	0	PA_with_intermediate	1,0,0,3,0,0,2,0,0	test	ward_and_allport	1,0,0,0,0,0,2,3,0	89.0	10.0	0.944	1,2,3,0,0,0,0,0,0	to_board	s623
230.58	0.402	0	PA_with_intermediate	1,0,0,0,0,0,2,0,0	test	ward_and_allport	1,0,0,0,0,0,2,3,0	71.0	10.0	0.402	1,2,3,0,0,0,0,0,0	to_hand	s623
230.983	0.364	0	PA_with_intermediate	1,0,0,0,0,0,2,3,0	test	ward_and_allport	1,0,0,0,0,0,2,3,0	82.0	10.0	0.364	1,2,3,0,0,0,0,0,0	to_board	s623
231.352	1.0	0	PA_with_intermediate	n/a	test	ward_and_allport	n/a	-1.0	10.0	n/a	n/a	feedback	s623
232.352	1.136	0	PA_with_intermediate	n/a	test	ward_and_allport	n/a	-1.0	10.0	n/a	n/a	ITI	s623
233.495	2.204	1	PA_without_intermediate	1,2,0,0,0,0,0,0,0	test	ward_and_allport	0,0,0,2,0,0,3,1,0	89.0	11.0	2.204	1,2,3,0,0,0,0,0,0	to_hand	s623
235.7	1.516	0	PA_without_intermediate	1,2,0,0,0,0,3,0,0	test	ward_and_allport	0,0,0,2,0,0,3,1,0	82.0	11.0	1.516	1,2,3,0,0,0,0,0,0	to_board	s623
237.22	1.483	0	PA_without_intermediate	1,0,0,0,0,0,3,0,0	test	ward_and_allport	0,0,0,2,0,0,3,1,0	89.0	11.0	1.483	1,2,3,0,0,0,0,0,0	to_hand	s623
238.704	0.519	0	PA_without_intermediate	1,0,0,0,0,0,3,2,0	test	ward_and_allport	0,0,0,2,0,0,3,1,0	82.0	11.0	0.519	1,2,3,0,0,0,0,0,0	to_board	s623
239.229	2.367	0	PA_without_intermediate	1,0,0,0,0,0,3,0,0	test	ward_and_allport	0,0,0,2,0,0,3,1,0	82.0	11.0	2.367	1,2,3,0,0,0,0,0,0	to_hand	s623
241.596	0.153	0	PA_without_intermediate	1,0,0,2,0,0,3,0,0	test	ward_and_allport	0,0,0,2,0,0,3,1,0	71.0	11.0	0.153	1,2,3,0,0,0,0,0,0	to_board	s623
241.754	0.574	0	PA_without_intermediate	0,0,0,2,0,0,3,0,0	test	ward_and_allport	0,0,0,2,0,0,3,1,0	89.0	11.0	0.574	1,2,3,0,0,0,0,0,0	to_hand	s623
242.329	0.964	0	PA_without_intermediate	0,0,0,2,0,0,3,1,0	test	ward_and_allport	0,0,0,2,0,0,3,1,0	82.0	11.0	0.964	1,2,3,0,0,0,0,0,0	to_board	s623
243.298	1.0	0	PA_without_intermediate	n/a	test	ward_and_allport	n/a	-1.0	11.0	n/a	n/a	feedback	s623
244.298	1.68	0	PA_without_intermediate	n/a	test	ward_and_allport	n/a	-1.0	11.0	n/a	n/a	ITI	s623
245.984	3.487	1	PA_without_intermediate	0,0,0,1,2,0,0,0,0	test	ward_and_allport	3,2,0,0,0,0,1,0,0	71.0	12.0	3.487	0,0,0,1,2,3,0,0,0	to_hand	s623
249.472	0.876	0	PA_without_intermediate	3,0,0,1,2,0,0,0,0	test	ward_and_allport	3,2,0,0,0,0,1,0,0	89.0	12.0	0.876	0,0,0,1,2,3,0,0,0	to_board	s623
250.355	0.581	0	PA_without_intermediate	3,0,0,1,0,0,0,0,0	test	ward_and_allport	3,2,0,0,0,0,1,0,0	71.0	12.0	0.581	0,0,0,1,2,3,0,0,0	to_hand	s623
250.937	0.54	0	PA_without_intermediate	3,2,0,1,0,0,0,0,0	test	ward_and_allport	3,2,0,0,0,0,1,0,0	89.0	12.0	0.54	0,0,0,1,2,3,0,0,0	to_board	s623
251.483	1.328	0	PA_without_intermediate	3,2,0,0,0,0,0,0,0	test	ward_and_allport	3,2,0,0,0,0,1,0,0	71.0	12.0	1.328	0,0,0,1,2,3,0,0,0	to_hand	s623
252.812	0.424	0	PA_without_intermediate	3,2,0,0,0,0,1,0,0	test	ward_and_allport	3,2,0,0,0,0,1,0,0	82.0	12.0	0.424	0,0,0,1,2,3,0,0,0	to_board	s623
253.243	1.0	0	PA_without_intermediate	n/a	test	ward_and_allport	n/a	-1.0	12.0	n/a	n/a	feedback	s623
254.243	2.088	0	PA_without_intermediate	n/a	test	ward_and_allport	n/a	-1.0	12.0	n/a	n/a	ITI	s623
256.336	4.239	1	PA_with_intermediate	0,0,0,1,2,0,0,0,0	test	ward_and_allport	0,0,0,1,0,0,2,3,0	71.0	13.0	4.239	0,0,0,1,2,3,0,0,0	to_hand	s623
260.576	2.638	0	PA_with_intermediate	3,0,0,1,2,0,0,0,0	test	ward_and_allport	0,0,0,1,0,0,2,3,0	89.0	13.0	2.638	0,0,0,1,2,3,0,0,0	to_board	s623
263.221	0.424	0	PA_with_intermediate	3,0,0,1,0,0,0,0,0	test	ward_and_allport	0,0,0,1,0,0,2,3,0	71.0	13.0	0.424	0,0,0,1,2,3,0,0,0	to_hand	s623
263.646	0.459	0	PA_with_intermediate	3,0,0,1,0,0,2,0,0	test	ward_and_allport	0,0,0,1,0,0,2,3,0	82.0	13.0	0.459	0,0,0,1,2,3,0,0,0	to_board	s623
264.11	0.958	0	PA_with_intermediate	0,0,0,1,0,0,2,0,0	test	ward_and_allport	0,0,0,1,0,0,2,3,0	89.0	13.0	0.958	0,0,0,1,2,3,0,0,0	to_hand	s623
265.069	0.963	0	PA_with_intermediate	0,0,0,1,0,0,2,3,0	test	ward_and_allport	0,0,0,1,0,0,2,3,0	82.0	13.0	0.963	0,0,0,1,2,3,0,0,0	to_board	s623
266.04	1.0	0	PA_with_intermediate	n/a	test	ward_and_allport	n/a	-1.0	13.0	n/a	n/a	feedback	s623
267.04	1.0	0	PA_with_intermediate	n/a	test	ward_and_allport	n/a	-1.0	13.0	n/a	n/a	ITI	s623
268.047	3.862	1	PA_without_intermediate	0,0,0,0,0,0,1,2,0	test	ward_and_allport	1,0,0,3,2,0,0,0,0	82.0	14.0	3.862	0,0,0,0,0,0,1,2,3	to_hand	s623
271.91	0.392	0	PA_without_intermediate	0,0,0,3,0,0,1,2,0	test	ward_and_allport	1,0,0,3,2,0,0,0,0	71.0	14.0	0.392	0,0,0,0,0,0,1,2,3	to_board	s623
272.308	0.647	0	PA_without_intermediate	0,0,0,3,0,0,1,0,0	test	ward_and_allport	1,0,0,3,2,0,0,0,0	82.0	14.0	0.647	0,0,0,0,0,0,1,2,3	to_hand	s623
272.957	3.81	0	PA_without_intermediate	0,0,0,3,2,0,1,0,0	test	ward_and_allport	1,0,0,3,2,0,0,0,0	71.0	14.0	3.81	0,0,0,0,0,0,1,2,3	to_board	s623
276.773	1.046	0	PA_without_intermediate	0,0,0,3,2,0,0,0,0	test	ward_and_allport	1,0,0,3,2,0,0,0,0	82.0	14.0	1.046	0,0,0,0,0,0,1,2,3	to_hand	s623
277.821	0.127	0	PA_without_intermediate	1,0,0,3,2,0,0,0,0	test	ward_and_allport	1,0,0,3,2,0,0,0,0	89.0	14.0	0.127	0,0,0,0,0,0,1,2,3	to_board	s623
277.954	1.0	0	PA_without_intermediate	n/a	test	ward_and_allport	n/a	-1.0	14.0	n/a	n/a	feedback	s623
278.954	1.0	0	PA_without_intermediate	n/a	test	ward_and_allport	n/a	-1.0	14.0	n/a	n/a	ITI	s623
284.96	3.86	1	PA_without_intermediate	0,0,0,0,0,0,1,2,0	test	ward_and_allport	3,2,0,1,0,0,0,0,0	82.0	15.0	3.86	0,0,0,0,0,0,1,2,3	to_hand	s623
288.822	0.785	0	PA_without_intermediate	3,0,0,0,0,0,1,2,0	test	ward_and_allport	3,2,0,1,0,0,0,0,0	89.0	15.0	0.785	0,0,0,0,0,0,1,2,3	to_board	s623
289.612	0.491	0	PA_without_intermediate	3,0,0,0,0,0,1,0,0	test	ward_and_allport	3,2,0,1,0,0,0,0,0	82.0	15.0	0.491	0,0,0,0,0,0,1,2,3	to_hand	s623
290.103	0.422	0	PA_without_intermediate	3,2,0,0,0,0,1,0,0	test	ward_and_allport	3,2,0,1,0,0,0,0,0	89.0	15.0	0.422	0,0,0,0,0,0,1,2,3	to_board	s623
290.531	1.344	0	PA_without_intermediate	3,2,0,0,0,0,0,0,0	test	ward_and_allport	3,2,0,1,0,0,0,0,0	82.0	15.0	1.344	0,0,0,0,0,0,1,2,3	to_hand	s623
291.876	0.231	0	PA_without_intermediate	3,2,0,1,0,0,0,0,0	test	ward_and_allport	3,2,0,1,0,0,0,0,0	71.0	15.0	0.231	0,0,0,0,0,0,1,2,3	to_board	s623
292.116	1.0	0	PA_without_intermediate	n/a	test	ward_and_allport	n/a	-1.0	15.0	n/a	n/a	feedback	s623
293.116	1.0	0	PA_without_intermediate	n/a	test	ward_and_allport	n/a	-1.0	15.0	n/a	n/a	ITI	s623
294.122	2.071	1	PA_with_intermediate	0,0,0,1,2,0,0,0,0	test	ward_and_allport	0,0,0,1,0,0,2,3,0	71.0	16.0	2.071	0,0,0,1,2,3,0,0,0	to_hand	s623
296.195	2.923	0	PA_with_intermediate	3,0,0,1,2,0,0,0,0	test	ward_and_allport	0,0,0,1,0,0,2,3,0	89.0	16.0	2.923	0,0,0,1,2,3,0,0,0	to_board	s623
299.127	0.359	0	PA_with_intermediate	3,0,0,1,0,0,0,0,0	test	ward_and_allport	0,0,0,1,0,0,2,3,0	71.0	16.0	0.359	0,0,0,1,2,3,0,0,0	to_hand	s623
299.487	0.645	0	PA_with_intermediate	3,0,0,1,0,0,2,0,0	test	ward_and_allport	0,0,0,1,0,0,2,3,0	82.0	16.0	0.645	0,0,0,1,2,3,0,0,0	to_board	s623
300.139	0.4	0	PA_with_intermediate	0,0,0,1,0,0,2,0,0	test	ward_and_allport	0,0,0,1,0,0,2,3,0	89.0	16.0	0.4	0,0,0,1,2,3,0,0,0	to_hand	s623
300.54	1.187	0	PA_with_intermediate	0,0,0,1,0,0,2,3,0	test	ward_and_allport	0,0,0,1,0,0,2,3,0	82.0	16.0	1.187	0,0,0,1,2,3,0,0,0	to_board	s623
301.734	1.0	0	PA_with_intermediate	n/a	test	ward_and_allport	n/a	-1.0	16.0	n/a	n/a	feedback	s623
302.734	1.544	0	PA_with_intermediate	n/a	test	ward_and_allport	n/a	-1.0	16.0	n/a	n/a	ITI	s623
304.287	2.323	1	PA_without_intermediate	0,0,0,0,0,0,1,2,0	test	ward_and_allport	2,0,0,3,1,0,0,0,0	82.0	17.0	2.323	0,0,0,0,0,0,1,2,3	to_hand	s623
306.611	3.939	0	PA_without_intermediate	0,0,0,3,0,0,1,2,0	test	ward_and_allport	2,0,0,3,1,0,0,0,0	71.0	17.0	3.939	0,0,0,0,0,0,1,2,3	to_board	s623
310.556	1.107	0	PA_without_intermediate	0,0,0,3,0,0,1,0,0	test	ward_and_allport	2,0,0,3,1,0,0,0,0	82.0	17.0	1.107	0,0,0,0,0,0,1,2,3	to_hand	s623
311.665	0.439	0	PA_without_intermediate	2,0,0,3,0,0,1,0,0	test	ward_and_allport	2,0,0,3,1,0,0,0,0	89.0	17.0	0.439	0,0,0,0,0,0,1,2,3	to_board	s623
312.111	0.537	0	PA_without_intermediate	2,0,0,3,0,0,0,0,0	test	ward_and_allport	2,0,0,3,1,0,0,0,0	82.0	17.0	0.537	0,0,0,0,0,0,1,2,3	to_hand	s623
312.649	0.5	0	PA_without_intermediate	2,0,0,3,1,0,0,0,0	test	ward_and_allport	2,0,0,3,1,0,0,0,0	71.0	17.0	0.5	0,0,0,0,0,0,1,2,3	to_board	s623
313.156	1.0	0	PA_without_intermediate	n/a	test	ward_and_allport	n/a	-1.0	17.0	n/a	n/a	feedback	s623
314.156	1.272	0	PA_without_intermediate	n/a	test	ward_and_allport	n/a	-1.0	17.0	n/a	n/a	ITI	s623
315.435	1.581	1	PA_with_intermediate	0,0,0,0,0,0,1,2,0	test	ward_and_allport	2,0,0,0,0,0,1,3,0	82.0	18.0	1.581	0,0,0,0,0,0,1,2,3	to_hand	s623
317.017	4.209	0	PA_with_intermediate	3,0,0,0,0,0,1,2,0	test	ward_and_allport	2,0,0,0,0,0,1,3,0	89.0	18.0	4.209	0,0,0,0,0,0,1,2,3	to_board	s623
321.232	1.877	0	PA_with_intermediate	0,0,0,0,0,0,1,2,0	test	ward_and_allport	2,0,0,0,0,0,1,3,0	89.0	18.0	1.877	0,0,0,0,0,0,1,2,3	to_hand	s623
323.11	0.306	0	PA_with_intermediate	0,0,0,3,0,0,1,2,0	test	ward_and_allport	2,0,0,0,0,0,1,3,0	71.0	18.0	0.306	0,0,0,0,0,0,1,2,3	to_board	s623
323.423	0.881	0	PA_with_intermediate	0,0,0,3,0,0,1,0,0	test	ward_and_allport	2,0,0,0,0,0,1,3,0	82.0	18.0	0.881	0,0,0,0,0,0,1,2,3	to_hand	s623
324.305	0.314	0	PA_with_intermediate	2,0,0,3,0,0,1,0,0	test	ward_and_allport	2,0,0,0,0,0,1,3,0	89.0	18.0	0.314	0,0,0,0,0,0,1,2,3	to_board	s623
324.624	1.828	0	PA_with_intermediate	2,0,0,0,0,0,1,0,0	test	ward_and_allport	2,0,0,0,0,0,1,3,0	71.0	18.0	1.828	0,0,0,0,0,0,1,2,3	to_hand	s623
326.453	0.715	0	PA_with_intermediate	2,0,0,0,0,0,1,3,0	test	ward_and_allport	2,0,0,0,0,0,1,3,0	82.0	18.0	0.715	0,0,0,0,0,0,1,2,3	to_board	s623
327.175	1.0	0	PA_with_intermediate	n/a	test	ward_and_allport	n/a	-1.0	18.0	n/a	n/a	feedback	s623
328.175	3.04	0	PA_with_intermediate	n/a	test	ward_and_allport	n/a	-1.0	18.0	n/a	n/a	ITI	s623
331.222	1.362	1	PA_with_intermediate	1,2,0,0,0,0,0,0,0	test	ward_and_allport	1,3,0,0,0,0,2,0,0	89.0	19.0	1.362	1,2,3,0,0,0,0,0,0	to_hand	s623
332.585	4.689	0	PA_with_intermediate	1,2,0,3,0,0,0,0,0	test	ward_and_allport	1,3,0,0,0,0,2,0,0	71.0	19.0	4.689	1,2,3,0,0,0,0,0,0	to_board	s623
337.281	0.71	0	PA_with_intermediate	1,0,0,3,0,0,0,0,0	test	ward_and_allport	1,3,0,0,0,0,2,0,0	89.0	19.0	0.71	1,2,3,0,0,0,0,0,0	to_hand	s623
337.992	0.444	0	PA_with_intermediate	1,0,0,3,0,0,2,0,0	test	ward_and_allport	1,3,0,0,0,0,2,0,0	82.0	19.0	0.444	1,2,3,0,0,0,0,0,0	to_board	s623
338.443	1.729	0	PA_with_intermediate	1,0,0,0,0,0,2,0,0	test	ward_and_allport	1,3,0,0,0,0,2,0,0	71.0	19.0	1.729	1,2,3,0,0,0,0,0,0	to_hand	s623
340.173	0.219	0	PA_with_intermediate	1,3,0,0,0,0,2,0,0	test	ward_and_allport	1,3,0,0,0,0,2,0,0	89.0	19.0	0.219	1,2,3,0,0,0,0,0,0	to_board	s623
340.399	1.0	0	PA_with_intermediate	n/a	test	ward_and_allport	n/a	-1.0	19.0	n/a	n/a	feedback	s623
341.399	1.272	0	PA_with_intermediate	n/a	test	ward_and_allport	n/a	-1.0	19.0	n/a	n/a	ITI	s623
342.678	0.895	1	PA_with_intermediate	1,2,0,0,0,0,0,0,0	test	ward_and_allport	1,0,0,0,0,0,2,3,0	89.0	20.0	0.895	1,2,3,0,0,0,0,0,0	to_hand	s623
343.573	2.108	0	PA_with_intermediate	1,2,0,3,0,0,0,0,0	test	ward_and_allport	1,0,0,0,0,0,2,3,0	71.0	20.0	2.108	1,2,3,0,0,0,0,0,0	to_board	s623
345.688	0.469	0	PA_with_intermediate	1,0,0,3,0,0,0,0,0	test	ward_and_allport	1,0,0,0,0,0,2,3,0	89.0	20.0	0.469	1,2,3,0,0,0,0,0,0	to_hand	s623
346.159	0.483	0	PA_with_intermediate	1,0,0,3,0,0,2,0,0	test	ward_and_allport	1,0,0,0,0,0,2,3,0	82.0	20.0	0.483	1,2,3,0,0,0,0,0,0	to_board	s623
346.648	0.452	0	PA_with_intermediate	0,0,0,3,0,0,2,0,0	test	ward_and_allport	1,0,0,0,0,0,2,3,0	89.0	20.0	0.452	1,2,3,0,0,0,0,0,0	to_hand	s623
347.101	0.997	0	PA_with_intermediate	1,0,0,3,0,0,2,0,0	test	ward_and_allport	1,0,0,0,0,0,2,3,0	89.0	20.0	0.997	1,2,3,0,0,0,0,0,0	to_board	s623
348.105	0.332	0	PA_with_intermediate	1,0,0,0,0,0,2,0,0	test	ward_and_allport	1,0,0,0,0,0,2,3,0	71.0	20.0	0.332	1,2,3,0,0,0,0,0,0	to_hand	s623
348.438	0.382	0	PA_with_intermediate	1,0,0,0,0,0,2,3,0	test	ward_and_allport	1,0,0,0,0,0,2,3,0	82.0	20.0	0.382	1,2,3,0,0,0,0,0,0	to_board	s623
348.828	1.0	0	PA_with_intermediate	n/a	test	ward_and_allport	n/a	-1.0	20.0	n/a	n/a	feedback	s623
349.828	1.136	0	PA_with_intermediate	n/a	test	ward_and_allport	n/a	-1.0	20.0	n/a	n/a	ITI	s623
350.97	2.11	1	PA_with_intermediate	1,2,0,0,0,0,0,0,0	test	ward_and_allport	1,0,0,2,3,0,0,0,0	89.0	21.0	2.11	1,2,3,0,0,0,0,0,0	to_hand	s623
353.081	2.647	0	PA_with_intermediate	1,2,0,0,0,0,3,0,0	test	ward_and_allport	1,0,0,2,3,0,0,0,0	82.0	21.0	2.647	1,2,3,0,0,0,0,0,0	to_board	s623
355.736	0.635	0	PA_with_intermediate	1,0,0,0,0,0,3,0,0	test	ward_and_allport	1,0,0,2,3,0,0,0,0	89.0	21.0	0.635	1,2,3,0,0,0,0,0,0	to_hand	s623
356.372	0.605	0	PA_with_intermediate	1,0,0,2,0,0,3,0,0	test	ward_and_allport	1,0,0,2,3,0,0,0,0	71.0	21.0	0.605	1,2,3,0,0,0,0,0,0	to_board	s623
356.985	0.816	0	PA_with_intermediate	1,0,0,2,0,0,0,0,0	test	ward_and_allport	1,0,0,2,3,0,0,0,0	82.0	21.0	0.816	1,2,3,0,0,0,0,0,0	to_hand	s623
357.802	0.909	0	PA_with_intermediate	1,0,0,2,3,0,0,0,0	test	ward_and_allport	1,0,0,2,3,0,0,0,0	71.0	21.0	0.909	1,2,3,0,0,0,0,0,0	to_board	s623
358.718	1.0	0	PA_with_intermediate	n/a	test	ward_and_allport	n/a	-1.0	21.0	n/a	n/a	feedback	s623
359.718	1.0	0	PA_with_intermediate	n/a	test	ward_and_allport	n/a	-1.0	21.0	n/a	n/a	ITI	s623
360.726	2.664	1	PA_with_intermediate	0,0,0,1,2,0,0,0,0	test	ward_and_allport	0,0,0,1,3,0,2,0,0	71.0	22.0	2.664	0,0,0,1,2,3,0,0,0	to_hand	s623
363.39	4.71	0	PA_with_intermediate	3,0,0,1,2,0,0,0,0	test	ward_and_allport	0,0,0,1,3,0,2,0,0	89.0	22.0	4.71	0,0,0,1,2,3,0,0,0	to_board	s623
368.108	0.769	0	PA_with_intermediate	3,0,0,1,0,0,0,0,0	test	ward_and_allport	0,0,0,1,3,0,2,0,0	71.0	22.0	0.769	0,0,0,1,2,3,0,0,0	to_hand	s623
368.878	1.139	0	PA_with_intermediate	3,0,0,1,0,0,2,0,0	test	ward_and_allport	0,0,0,1,3,0,2,0,0	82.0	22.0	1.139	0,0,0,1,2,3,0,0,0	to_board	s623
370.025	0.435	0	PA_with_intermediate	0,0,0,1,0,0,2,0,0	test	ward_and_allport	0,0,0,1,3,0,2,0,0	89.0	22.0	0.435	0,0,0,1,2,3,0,0,0	to_hand	s623
370.462	0.243	0	PA_with_intermediate	0,0,0,1,3,0,2,0,0	test	ward_and_allport	0,0,0,1,3,0,2,0,0	71.0	22.0	0.243	0,0,0,1,2,3,0,0,0	to_board	s623
370.713	1.0	0	PA_with_intermediate	n/a	test	ward_and_allport	n/a	-1.0	22.0	n/a	n/a	feedback	s623
371.713	1.0	0	PA_with_intermediate	n/a	test	ward_and_allport	n/a	-1.0	22.0	n/a	n/a	ITI	s623
372.719	1.56	1	PA_without_intermediate	1,2,0,0,0,0,0,0,0	test	ward_and_allport	0,0,0,3,1,0,2,0,0	89.0	23.0	1.56	1,2,3,0,0,0,0,0,0	to_hand	s623
374.28	1.486	0	PA_without_intermediate	1,2,0,3,0,0,0,0,0	test	ward_and_allport	0,0,0,3,1,0,2,0,0	71.0	23.0	1.486	1,2,3,0,0,0,0,0,0	to_board	s623
375.773	1.22	0	PA_without_intermediate	1,0,0,3,0,0,0,0,0	test	ward_and_allport	0,0,0,3,1,0,2,0,0	89.0	23.0	1.22	1,2,3,0,0,0,0,0,0	to_hand	s623
376.994	0.361	0	PA_without_intermediate	1,0,0,3,0,0,2,0,0	test	ward_and_allport	0,0,0,3,1,0,2,0,0	82.0	23.0	0.361	1,2,3,0,0,0,0,0,0	to_board	s623
377.363	0.346	0	PA_without_intermediate	0,0,0,3,0,0,2,0,0	test	ward_and_allport	0,0,0,3,1,0,2,0,0	89.0	23.0	0.346	1,2,3,0,0,0,0,0,0	to_hand	s623
377.71	0.352	0	PA_without_intermediate	0,0,0,3,1,0,2,0,0	test	ward_and_allport	0,0,0,3,1,0,2,0,0	71.0	23.0	0.352	1,2,3,0,0,0,0,0,0	to_board	s623
378.069	1.0	0	PA_without_intermediate	n/a	test	ward_and_allport	n/a	-1.0	23.0	n/a	n/a	feedback	s623
379.069	1.408	0	PA_without_intermediate	n/a	test	ward_and_allport	n/a	-1.0	23.0	n/a	n/a	ITI	s623
380.484	2.031	1	PA_with_intermediate	1,2,0,0,0,0,0,0,0	test	ward_and_allport	1,0,0,2,3,0,0,0,0	89.0	24.0	2.031	1,2,3,0,0,0,0,0,0	to_hand	s623
382.516	2.027	0	PA_with_intermediate	1,2,0,0,0,0,3,0,0	test	ward_and_allport	1,0,0,2,3,0,0,0,0	82.0	24.0	2.027	1,2,3,0,0,0,0,0,0	to_board	s623
384.551	0.553	0	PA_with_intermediate	1,0,0,0,0,0,3,0,0	test	ward_and_allport	1,0,0,2,3,0,0,0,0	89.0	24.0	0.553	1,2,3,0,0,0,0,0,0	to_hand	s623
385.105	0.371	0	PA_with_intermediate	1,0,0,2,0,0,3,0,0	test	ward_and_allport	1,0,0,2,3,0,0,0,0	71.0	24.0	0.371	1,2,3,0,0,0,0,0,0	to_board	s623
385.483	0.714	0	PA_with_intermediate	1,0,0,2,0,0,0,0,0	test	ward_and_allport	1,0,0,2,3,0,0,0,0	82.0	24.0	0.714	1,2,3,0,0,0,0,0,0	to_hand	s623
386.198	0.917	0	PA_with_intermediate	1,0,0,2,3,0,0,0,0	test	ward_and_allport	1,0,0,2,3,0,0,0,0	71.0	24.0	0.917	1,2,3,0,0,0,0,0,0	to_board	s623
387.122	1.0	0	PA_with_intermediate	n/a	test	ward_and_allport	n/a	-1.0	24.0	n/a	n/a	feedback	s623
388.122	2.768	0	PA_with_intermediate	n/a	test	ward_and_allport	n/a	-1.0	24.0	n/a	n/a	ITI	s623
390.899	3.319	1	PA_with_intermediate	0,0,0,1,2,0,0,0,0	test	ward_and_allport	2,0,0,1,3,0,0,0,0	71.0	25.0	3.319	0,0,0,1,2,3,0,0,0	to_hand	s623
394.218	3.813	0	PA_with_intermediate	0,0,0,1,2,0,3,0,0	test	ward_and_allport	2,0,0,1,3,0,0,0,0	82.0	25.0	3.813	0,0,0,1,2,3,0,0,0	to_board	s623
398.039	0.565	0	PA_with_intermediate	0,0,0,1,0,0,3,0,0	test	ward_and_allport	2,0,0,1,3,0,0,0,0	71.0	25.0	0.565	0,0,0,1,2,3,0,0,0	to_hand	s623
398.606	0.302	0	PA_with_intermediate	2,0,0,1,0,0,3,0,0	test	ward_and_allport	2,0,0,1,3,0,0,0,0	89.0	25.0	0.302	0,0,0,1,2,3,0,0,0	to_board	s623
398.916	0.639	0	PA_with_intermediate	2,0,0,1,0,0,0,0,0	test	ward_and_allport	2,0,0,1,3,0,0,0,0	82.0	25.0	0.639	0,0,0,1,2,3,0,0,0	to_hand	s623
399.556	0.378	0	PA_with_intermediate	2,0,0,1,3,0,0,0,0	test	ward_and_allport	2,0,0,1,3,0,0,0,0	71.0	25.0	0.378	0,0,0,1,2,3,0,0,0	to_board	s623
399.942	1.0	0	PA_with_intermediate	n/a	test	ward_and_allport	n/a	-1.0	25.0	n/a	n/a	feedback	s623
400.942	1.68	0	PA_with_intermediate	n/a	test	ward_and_allport	n/a	-1.0	25.0	n/a	n/a	ITI	s623
402.629	1.637	1	PA_without_intermediate	0,0,0,1,2,0,0,0,0	test	ward_and_allport	3,1,0,0,0,0,2,0,0	71.0	26.0	1.637	0,0,0,1,2,3,0,0,0	to_hand	s623
404.267	2.182	0	PA_without_intermediate	3,0,0,1,2,0,0,0,0	test	ward_and_allport	3,1,0,0,0,0,2,0,0	89.0	26.0	2.182	0,0,0,1,2,3,0,0,0	to_board	s623
406.456	0.555	0	PA_without_intermediate	3,0,0,1,0,0,0,0,0	test	ward_and_allport	3,1,0,0,0,0,2,0,0	71.0	26.0	0.555	0,0,0,1,2,3,0,0,0	to_hand	s623
407.012	0.379	0	PA_without_intermediate	3,0,0,1,0,0,2,0,0	test	ward_and_allport	3,1,0,0,0,0,2,0,0	82.0	26.0	0.379	0,0,0,1,2,3,0,0,0	to_board	s623
407.398	0.453	0	PA_without_intermediate	3,0,0,0,0,0,2,0,0	test	ward_and_allport	3,1,0,0,0,0,2,0,0	71.0	26.0	0.453	0,0,0,1,2,3,0,0,0	to_hand	s623
407.852	0.365	0	PA_without_intermediate	3,1,0,0,0,0,2,0,0	test	ward_and_allport	3,1,0,0,0,0,2,0,0	89.0	26.0	0.365	0,0,0,1,2,3,0,0,0	to_board	s623
408.226	1.0	0	PA_without_intermediate	n/a	test	ward_and_allport	n/a	-1.0	26.0	n/a	n/a	feedback	s623
409.226	2.224	0	PA_without_intermediate	n/a	test	ward_and_allport	n/a	-1.0	26.0	n/a	n/a	ITI	s623
411.457	2.439	1	PA_without_intermediate	1,2,0,0,0,0,0,0,0	test	ward_and_allport	0,0,0,3,2,0,1,0,0	89.0	27.0	2.439	1,2,3,0,0,0,0,0,0	to_hand	s623
413.898	1.401	0	PA_without_intermediate	1,2,0,3,0,0,0,0,0	test	ward_and_allport	0,0,0,3,2,0,1,0,0	71.0	27.0	1.401	1,2,3,0,0,0,0,0,0	to_board	s623
415.308	0.417	0	PA_without_intermediate	1,0,0,3,0,0,0,0,0	test	ward_and_allport	0,0,0,3,2,0,1,0,0	89.0	27.0	0.417	1,2,3,0,0,0,0,0,0	to_hand	s623
415.726	0.438	0	PA_without_intermediate	1,0,0,3,2,0,0,0,0	test	ward_and_allport	0,0,0,3,2,0,1,0,0	71.0	27.0	0.438	1,2,3,0,0,0,0,0,0	to_board	s623
416.174	0.548	0	PA_without_intermediate	0,0,0,3,2,0,0,0,0	test	ward_and_allport	0,0,0,3,2,0,1,0,0	89.0	27.0	0.548	1,2,3,0,0,0,0,0,0	to_hand	s623
416.723	0.483	0	PA_without_intermediate	0,0,0,3,2,0,1,0,0	test	ward_and_allport	0,0,0,3,2,0,1,0,0	82.0	27.0	0.483	1,2,3,0,0,0,0,0,0	to_board	s623
417.215	1.0	0	PA_without_intermediate	n/a	test	ward_and_allport	n/a	-1.0	27.0	n/a	n/a	feedback	s623
418.215	2.36	0	PA_without_intermediate	n/a	test	ward_and_allport	n/a	-1.0	27.0	n/a	n/a	ITI	s623
420.583	2.217	1	PA_without_intermediate	0,0,0,1,2,0,0,0,0	test	ward_and_allport	2,0,0,0,0,0,3,1,0	71.0	28.0	2.217	0,0,0,1,2,3,0,0,0	to_hand	s623
422.801	0.685	0	PA_without_intermediate	0,0,0,1,2,0,3,0,0	test	ward_and_allport	2,0,0,0,0,0,3,1,0	82.0	28.0	0.685	0,0,0,1,2,3,0,0,0	to_board	s623
423.493	0.814	0	PA_without_intermediate	0,0,0,1,0,0,3,0,0	test	ward_and_allport	2,0,0,0,0,0,3,1,0	71.0	28.0	0.814	0,0,0,1,2,3,0,0,0	to_hand	s623
424.308	0.512	0	PA_without_intermediate	2,0,0,1,0,0,3,0,0	test	ward_and_allport	2,0,0,0,0,0,3,1,0	89.0	28.0	0.512	0,0,0,1,2,3,0,0,0	to_board	s623
424.829	0.737	0	PA_without_intermediate	2,0,0,0,0,0,3,0,0	test	ward_and_allport	2,0,0,0,0,0,3,1,0	71.0	28.0	0.737	0,0,0,1,2,3,0,0,0	to_hand	s623
425.567	0.456	0	PA_without_intermediate	2,0,0,0,0,0,3,1,0	test	ward_and_allport	2,0,0,0,0,0,3,1,0	82.0	28.0	0.456	0,0,0,1,2,3,0,0,0	to_board	s623
426.033	1.0	0	PA_without_intermediate	n/a	test	ward_and_allport	n/a	-1.0	28.0	n/a	n/a	feedback	s623
427.033	1.0	0	PA_without_intermediate	n/a	test	ward_and_allport	n/a	-1.0	28.0	n/a	n/a	ITI	s623
428.042	1.035	1	PA_without_intermediate	0,0,0,1,2,0,0,0,0	test	ward_and_allport	2,0,0,0,0,0,3,1,0	71.0	29.0	1.035	0,0,0,1,2,3,0,0,0	to_hand	s623
429.078	0.491	0	PA_without_intermediate	0,0,0,1,2,0,3,0,0	test	ward_and_allport	2,0,0,0,0,0,3,1,0	82.0	29.0	0.491	0,0,0,1,2,3,0,0,0	to_board	s623
429.579	0.75	0	PA_without_intermediate	0,0,0,1,0,0,3,0,0	test	ward_and_allport	2,0,0,0,0,0,3,1,0	71.0	29.0	0.75	0,0,0,1,2,3,0,0,0	to_hand	s623
430.33	0.326	0	PA_without_intermediate	2,0,0,1,0,0,3,0,0	test	ward_and_allport	2,0,0,0,0,0,3,1,0	89.0	29.0	0.326	0,0,0,1,2,3,0,0,0	to_board	s623
430.663	0.515	0	PA_without_intermediate	2,0,0,0,0,0,3,0,0	test	ward_and_allport	2,0,0,0,0,0,3,1,0	71.0	29.0	0.515	0,0,0,1,2,3,0,0,0	to_hand	s623
431.179	0.43	0	PA_without_intermediate	2,0,0,0,0,0,3,1,0	test	ward_and_allport	2,0,0,0,0,0,3,1,0	82.0	29.0	0.43	0,0,0,1,2,3,0,0,0	to_board	s623
431.616	1.0	0	PA_without_intermediate	n/a	test	ward_and_allport	n/a	-1.0	29.0	n/a	n/a	feedback	s623
432.616	1.408	0	PA_without_intermediate	n/a	test	ward_and_allport	n/a	-1.0	29.0	n/a	n/a	ITI	s623
439.032	2.183	1	PA_with_intermediate	0,0,0,1,2,0,0,0,0	test	ward_and_allport	0,0,0,1,3,0,2,0,0	71.0	30.0	2.183	0,0,0,1,2,3,0,0,0	to_hand	s623
441.216	1.893	0	PA_with_intermediate	3,0,0,1,2,0,0,0,0	test	ward_and_allport	0,0,0,1,3,0,2,0,0	89.0	30.0	1.893	0,0,0,1,2,3,0,0,0	to_board	s623
443.118	0.379	0	PA_with_intermediate	3,0,0,1,0,0,0,0,0	test	ward_and_allport	0,0,0,1,3,0,2,0,0	71.0	30.0	0.379	0,0,0,1,2,3,0,0,0	to_hand	s623
443.498	0.422	0	PA_with_intermediate	3,0,0,1,0,0,2,0,0	test	ward_and_allport	0,0,0,1,3,0,2,0,0	82.0	30.0	0.422	0,0,0,1,2,3,0,0,0	to_board	s623
443.931	0.715	0	PA_with_intermediate	0,0,0,1,0,0,2,0,0	test	ward_and_allport	0,0,0,1,3,0,2,0,0	89.0	30.0	0.715	0,0,0,1,2,3,0,0,0	to_hand	s623
444.647	0.237	0	PA_with_intermediate	0,0,0,1,3,0,2,0,0	test	ward_and_allport	0,0,0,1,3,0,2,0,0	71.0	30.0	0.237	0,0,0,1,2,3,0,0,0	to_board	s623
444.894	1.0	0	PA_with_intermediate	n/a	test	ward_and_allport	n/a	-1.0	30.0	n/a	n/a	feedback	s623
445.894	1.136	0	PA_with_intermediate	n/a	test	ward_and_allport	n/a	-1.0	30.0	n/a	n/a	ITI	s623
447.037	0.909	1	PA_without_intermediate	0,0,0,1,2,0,0,0,0	test	ward_and_allport	1,0,0,0,0,0,3,2,0	71.0	31.0	0.909	0,0,0,1,2,3,0,0,0	to_hand	s623
447.947	0.894	0	PA_without_intermediate	0,0,0,1,2,0,3,0,0	test	ward_and_allport	1,0,0,0,0,0,3,2,0	82.0	31.0	0.894	0,0,0,1,2,3,0,0,0	to_board	s623
448.848	0.347	0	PA_without_intermediate	0,0,0,1,0,0,3,0,0	test	ward_and_allport	1,0,0,0,0,0,3,2,0	71.0	31.0	0.347	0,0,0,1,2,3,0,0,0	to_hand	s623
449.196	0.501	0	PA_without_intermediate	0,0,0,1,0,0,3,2,0	test	ward_and_allport	1,0,0,0,0,0,3,2,0	82.0	31.0	0.501	0,0,0,1,2,3,0,0,0	to_board	s623
449.704	0.545	0	PA_without_intermediate	0,0,0,0,0,0,3,2,0	test	ward_and_allport	1,0,0,0,0,0,3,2,0	71.0	31.0	0.545	0,0,0,1,2,3,0,0,0	to_hand	s623
450.25	0.567	0	PA_without_intermediate	1,0,0,0,0,0,3,2,0	test	ward_and_allport	1,0,0,0,0,0,3,2,0	89.0	31.0	0.567	0,0,0,1,2,3,0,0,0	to_board	s623
450.823	1.0	0	PA_without_intermediate	n/a	test	ward_and_allport	n/a	-1.0	31.0	n/a	n/a	feedback	s623
451.823	4.128	0	PA_without_intermediate	n/a	test	ward_and_allport	n/a	-1.0	31.0	n/a	n/a	ITI	s623
455.957	1.006	1	PA_without_intermediate	0,0,0,1,2,0,0,0,0	test	ward_and_allport	3,2,0,0,0,0,1,0,0	71.0	32.0	1.006	0,0,0,1,2,3,0,0,0	to_hand	s623
456.965	1.177	0	PA_without_intermediate	3,0,0,1,2,0,0,0,0	test	ward_and_allport	3,2,0,0,0,0,1,0,0	89.0	32.0	1.177	0,0,0,1,2,3,0,0,0	to_board	s623
458.151	0.331	0	PA_without_intermediate	3,0,0,1,0,0,0,0,0	test	ward_and_allport	3,2,0,0,0,0,1,0,0	71.0	32.0	0.331	0,0,0,1,2,3,0,0,0	to_hand	s623
458.483	0.32	0	PA_without_intermediate	3,2,0,1,0,0,0,0,0	test	ward_and_allport	3,2,0,0,0,0,1,0,0	89.0	32.0	0.32	0,0,0,1,2,3,0,0,0	to_board	s623
458.813	1.006	0	PA_without_intermediate	3,2,0,0,0,0,0,0,0	test	ward_and_allport	3,2,0,0,0,0,1,0,0	71.0	32.0	1.006	0,0,0,1,2,3,0,0,0	to_hand	s623
459.82	0.349	0	PA_without_intermediate	3,2,0,0,0,0,1,0,0	test	ward_and_allport	3,2,0,0,0,0,1,0,0	82.0	32.0	0.349	0,0,0,1,2,3,0,0,0	to_board	s623
460.181	1.0	0	PA_without_intermediate	n/a	test	ward_and_allport	n/a	-1.0	32.0	n/a	n/a	feedback	s623
461.181	1.136	0	PA_without_intermediate	n/a	test	ward_and_allport	n/a	-1.0	32.0	n/a	n/a	ITI	s623
462.327	1.521	1	PA_without_intermediate	0,0,0,0,0,0,1,2,0	test	ward_and_allport	2,0,0,3,1,0,0,0,0	82.0	33.0	1.521	0,0,0,0,0,0,1,2,3	to_hand	s623
463.848	1.231	0	PA_without_intermediate	0,0,0,3,0,0,1,2,0	test	ward_and_allport	2,0,0,3,1,0,0,0,0	71.0	33.0	1.231	0,0,0,0,0,0,1,2,3	to_board	s623
465.086	0.787	0	PA_without_intermediate	0,0,0,3,0,0,1,0,0	test	ward_and_allport	2,0,0,3,1,0,0,0,0	82.0	33.0	0.787	0,0,0,0,0,0,1,2,3	to_hand	s623
465.875	0.362	0	PA_without_intermediate	2,0,0,3,0,0,1,0,0	test	ward_and_allport	2,0,0,3,1,0,0,0,0	89.0	33.0	0.362	0,0,0,0,0,0,1,2,3	to_board	s623
466.247	0.605	0	PA_without_intermediate	2,0,0,3,0,0,0,0,0	test	ward_and_allport	2,0,0,3,1,0,0,0,0	82.0	33.0	0.605	0,0,0,0,0,0,1,2,3	to_hand	s623
466.852	0.343	0	PA_without_intermediate	2,0,0,3,1,0,0,0,0	test	ward_and_allport	2,0,0,3,1,0,0,0,0	71.0	33.0	0.343	0,0,0,0,0,0,1,2,3	to_board	s623
467.202	1.0	0	PA_without_intermediate	n/a	test	ward_and_allport	n/a	-1.0	33.0	n/a	n/a	feedback	s623
468.202	4.264	0	PA_without_intermediate	n/a	test	ward_and_allport	n/a	-1.0	33.0	n/a	n/a	ITI	s623
472.477	2.199	1	PA_with_intermediate	0,0,0,0,0,0,1,2,0	test	ward_and_allport	2,0,0,0,0,0,1,3,0	82.0	34.0	2.199	0,0,0,0,0,0,1,2,3	to_hand	s623
474.677	2.624	0	PA_with_intermediate	0,0,0,3,0,0,1,2,0	test	ward_and_allport	2,0,0,0,0,0,1,3,0	71.0	34.0	2.624	0,0,0,0,0,0,1,2,3	to_board	s623
477.312	0.572	0	PA_with_intermediate	0,0,0,3,0,0,1,0,0	test	ward_and_allport	2,0,0,0,0,0,1,3,0	82.0	34.0	0.572	0,0,0,0,0,0,1,2,3	to_hand	s623
477.885	0.334	0	PA_with_intermediate	2,0,0,3,0,0,1,0,0	test	ward_and_allport	2,0,0,0,0,0,1,3,0	89.0	34.0	0.334	0,0,0,0,0,0,1,2,3	to_board	s623
478.23	0.538	0	PA_with_intermediate	2,0,0,0,0,0,1,0,0	test	ward_and_allport	2,0,0,0,0,0,1,3,0	71.0	34.0	0.538	0,0,0,0,0,0,1,2,3	to_hand	s623
478.769	0.806	0	PA_with_intermediate	2,0,0,0,0,0,1,3,0	test	ward_and_allport	2,0,0,0,0,0,1,3,0	82.0	34.0	0.806	0,0,0,0,0,0,1,2,3	to_board	s623
479.584	1.0	0	PA_with_intermediate	n/a	test	ward_and_allport	n/a	-1.0	34.0	n/a	n/a	feedback	s623
480.584	3.04	0	PA_with_intermediate	n/a	test	ward_and_allport	n/a	-1.0	34.0	n/a	n/a	ITI	s623
483.632	1.335	1	PA_with_intermediate	1,2,0,0,0,0,0,0,0	test	ward_and_allport	1,3,0,2,0,0,0,0,0	89.0	35.0	1.335	1,2,3,0,0,0,0,0,0	to_hand	s623
484.968	2.67	0	PA_with_intermediate	1,2,0,0,0,0,3,0,0	test	ward_and_allport	1,3,0,2,0,0,0,0,0	82.0	35.0	2.67	1,2,3,0,0,0,0,0,0	to_board	s623
487.649	0.351	0	PA_with_intermediate	1,0,0,0,0,0,3,0,0	test	ward_and_allport	1,3,0,2,0,0,0,0,0	89.0	35.0	0.351	1,2,3,0,0,0,0,0,0	to_hand	s623
488.001	0.325	0	PA_with_intermediate	1,0,0,2,0,0,3,0,0	test	ward_and_allport	1,3,0,2,0,0,0,0,0	71.0	35.0	0.325	1,2,3,0,0,0,0,0,0	to_board	s623
488.336	1.599	0	PA_with_intermediate	1,0,0,2,0,0,0,0,0	test	ward_and_allport	1,3,0,2,0,0,0,0,0	82.0	35.0	1.599	1,2,3,0,0,0,0,0,0	to_hand	s623
489.936	0.435	0	PA_with_intermediate	1,3,0,2,0,0,0,0,0	test	ward_and_allport	1,3,0,2,0,0,0,0,0	89.0	35.0	0.435	1,2,3,0,0,0,0,0,0	to_board	s623
490.382	1.0	0	PA_with_intermediate	n/a	test	ward_and_allport	n/a	-1.0	35.0	n/a	n/a	feedback	s623
491.382	1.136	0	PA_with_intermediate	n/a	test	ward_and_allport	n/a	-1.0	35.0	n/a	n/a	ITI	s623
492.527	3.399	1	PA_with_intermediate	0,0,0,0,0,0,1,2,0	test	ward_and_allport	2,3,0,0,0,0,1,0,0	82.0	36.0	3.399	0,0,0,0,0,0,1,2,3	to_hand	s623
495.928	1.836	0	PA_with_intermediate	0,0,0,3,0,0,1,2,0	test	ward_and_allport	2,3,0,0,0,0,1,0,0	71.0	36.0	1.836	0,0,0,0,0,0,1,2,3	to_board	s623
497.771	0.763	0	PA_with_intermediate	0,0,0,3,0,0,1,0,0	test	ward_and_allport	2,3,0,0,0,0,1,0,0	82.0	36.0	0.763	0,0,0,0,0,0,1,2,3	to_hand	s623
498.535	0.681	0	PA_with_intermediate	2,0,0,3,0,0,1,0,0	test	ward_and_allport	2,3,0,0,0,0,1,0,0	89.0	36.0	0.681	0,0,0,0,0,0,1,2,3	to_board	s623
499.226	0.361	0	PA_with_intermediate	2,0,0,0,0,0,1,0,0	test	ward_and_allport	2,3,0,0,0,0,1,0,0	71.0	36.0	0.361	0,0,0,0,0,0,1,2,3	to_hand	s623
499.588	0.399	0	PA_with_intermediate	2,3,0,0,0,0,1,0,0	test	ward_and_allport	2,3,0,0,0,0,1,0,0	89.0	36.0	0.399	0,0,0,0,0,0,1,2,3	to_board	s623
499.998	1.0	0	PA_with_intermediate	n/a	test	ward_and_allport	n/a	-1.0	36.0	n/a	n/a	feedback	s623
500.998	1.408	0	PA_with_intermediate	n/a	test	ward_and_allport	n/a	-1.0	36.0	n/a	n/a	ITI	s623
502.417	1.898	1	PA_without_intermediate	1,2,0,0,0,0,0,0,0	test	ward_and_allport	0,0,0,2,0,0,3,1,0	89.0	37.0	1.898	1,2,3,0,0,0,0,0,0	to_hand	s623
504.316	1.051	0	PA_without_intermediate	1,2,0,0,0,0,3,0,0	test	ward_and_allport	0,0,0,2,0,0,3,1,0	82.0	37.0	1.051	1,2,3,0,0,0,0,0,0	to_board	s623
505.375	0.63	0	PA_without_intermediate	1,0,0,0,0,0,3,0,0	test	ward_and_allport	0,0,0,2,0,0,3,1,0	89.0	37.0	0.63	1,2,3,0,0,0,0,0,0	to_hand	s623
506.006	0.822	0	PA_without_intermediate	1,0,0,2,0,0,3,0,0	test	ward_and_allport	0,0,0,2,0,0,3,1,0	71.0	37.0	0.822	1,2,3,0,0,0,0,0,0	to_board	s623
506.839	0.421	0	PA_without_intermediate	0,0,0,2,0,0,3,0,0	test	ward_and_allport	0,0,0,2,0,0,3,1,0	89.0	37.0	0.421	1,2,3,0,0,0,0,0,0	to_hand	s623
507.261	0.484	0	PA_without_intermediate	0,0,0,2,0,0,3,1,0	test	ward_and_allport	0,0,0,2,0,0,3,1,0	82.0	37.0	0.484	1,2,3,0,0,0,0,0,0	to_board	s623
507.754	1.0	0	PA_without_intermediate	n/a	test	ward_and_allport	n/a	-1.0	37.0	n/a	n/a	feedback	s623
508.754	1.68	0	PA_without_intermediate	n/a	test	ward_and_allport	n/a	-1.0	37.0	n/a	n/a	ITI	s623
510.442	2.588	1	PA_with_intermediate	0,0,0,0,0,0,1,2,0	test	ward_and_allport	0,0,0,2,3,0,1,0,0	82.0	38.0	2.588	0,0,0,0,0,0,1,2,3	to_hand	s623
513.031	1.573	0	PA_with_intermediate	3,0,0,0,0,0,1,2,0	test	ward_and_allport	0,0,0,2,3,0,1,0,0	89.0	38.0	1.573	0,0,0,0,0,0,1,2,3	to_board	s623
514.612	0.67	0	PA_with_intermediate	3,0,0,0,0,0,1,0,0	test	ward_and_allport	0,0,0,2,3,0,1,0,0	82.0	38.0	0.67	0,0,0,0,0,0,1,2,3	to_hand	s623
515.284	0.46	0	PA_with_intermediate	3,0,0,2,0,0,1,0,0	test	ward_and_allport	0,0,0,2,3,0,1,0,0	71.0	38.0	0.46	0,0,0,0,0,0,1,2,3	to_board	s623
515.754	0.352	0	PA_with_intermediate	0,0,0,2,0,0,1,0,0	test	ward_and_allport	0,0,0,2,3,0,1,0,0	89.0	38.0	0.352	0,0,0,0,0,0,1,2,3	to_hand	s623
516.107	0.261	0	PA_with_intermediate	0,0,0,2,3,0,1,0,0	test	ward_and_allport	0,0,0,2,3,0,1,0,0	71.0	38.0	0.261	0,0,0,0,0,0,1,2,3	to_board	s623
516.379	1.0	0	PA_with_intermediate	n/a	test	ward_and_allport	n/a	-1.0	38.0	n/a	n/a	feedback	s623
517.379	3.72	0	PA_with_intermediate	n/a	test	ward_and_allport	n/a	-1.0	38.0	n/a	n/a	ITI	s623
521.111	1.607	1	PA_without_intermediate	0,0,0,1,2,0,0,0,0	test	ward_and_allport	1,0,0,0,0,0,3,2,0	71.0	39.0	1.607	0,0,0,1,2,3,0,0,0	to_hand	s623
522.72	0.895	0	PA_without_intermediate	0,0,0,1,2,0,3,0,0	test	ward_and_allport	1,0,0,0,0,0,3,2,0	82.0	39.0	0.895	0,0,0,1,2,3,0,0,0	to_board	s623
523.623	0.32	0	PA_without_intermediate	0,0,0,1,0,0,3,0,0	test	ward_and_allport	1,0,0,0,0,0,3,2,0	71.0	39.0	0.32	0,0,0,1,2,3,0,0,0	to_hand	s623
523.945	0.33	0	PA_without_intermediate	0,0,0,1,0,0,3,2,0	test	ward_and_allport	1,0,0,0,0,0,3,2,0	82.0	39.0	0.33	0,0,0,1,2,3,0,0,0	to_board	s623
524.286	1.917	0	PA_without_intermediate	0,0,0,0,0,0,3,2,0	test	ward_and_allport	1,0,0,0,0,0,3,2,0	71.0	39.0	1.917	0,0,0,1,2,3,0,0,0	to_hand	s623
526.205	0.141	0	PA_without_intermediate	1,0,0,0,0,0,3,2,0	test	ward_and_allport	1,0,0,0,0,0,3,2,0	89.0	39.0	0.141	0,0,0,1,2,3,0,0,0	to_board	s623
526.357	1.0	0	PA_without_intermediate	n/a	test	ward_and_allport	n/a	-1.0	39.0	n/a	n/a	feedback	s623
527.357	2.224	0	PA_without_intermediate	n/a	test	ward_and_allport	n/a	-1.0	39.0	n/a	n/a	ITI	s623
529.592	2.511	1	PA_without_intermediate	0,0,0,0,0,0,1,2,0	test	ward_and_allport	3,1,0,2,0,0,0,0,0	82.0	40.0	2.511	0,0,0,0,0,0,1,2,3	to_hand	s623
532.104	1.076	0	PA_without_intermediate	3,0,0,0,0,0,1,2,0	test	ward_and_allport	3,1,0,2,0,0,0,0,0	89.0	40.0	1.076	0,0,0,0,0,0,1,2,3	to_board	s623
533.19	1.755	0	PA_without_intermediate	3,0,0,0,0,0,1,0,0	test	ward_and_allport	3,1,0,2,0,0,0,0,0	82.0	40.0	1.755	0,0,0,0,0,0,1,2,3	to_hand	s623
534.946	0.755	0	PA_without_intermediate	3,0,0,2,0,0,1,0,0	test	ward_and_allport	3,1,0,2,0,0,0,0,0	71.0	40.0	0.755	0,0,0,0,0,0,1,2,3	to_board	s623
535.712	0.627	0	PA_without_intermediate	3,0,0,2,0,0,0,0,0	test	ward_and_allport	3,1,0,2,0,0,0,0,0	82.0	40.0	0.627	0,0,0,0,0,0,1,2,3	to_hand	s623
536.34	0.27	0	PA_without_intermediate	3,1,0,2,0,0,0,0,0	test	ward_and_allport	3,1,0,2,0,0,0,0,0	89.0	40.0	0.27	0,0,0,0,0,0,1,2,3	to_board	s623
536.621	1.0	0	PA_without_intermediate	n/a	test	ward_and_allport	n/a	-1.0	40.0	n/a	n/a	feedback	s623
537.621	1.272	0	PA_without_intermediate	n/a	test	ward_and_allport	n/a	-1.0	40.0	n/a	n/a	ITI	s623
538.904	2.632	1	PA_with_intermediate	0,0,0,0,0,0,1,2,0	test	ward_and_allport	0,0,0,2,0,0,1,3,0	82.0	41.0	2.632	0,0,0,0,0,0,1,2,3	to_hand	s623
541.537	1.934	0	PA_with_intermediate	3,0,0,0,0,0,1,2,0	test	ward_and_allport	0,0,0,2,0,0,1,3,0	89.0	41.0	1.934	0,0,0,0,0,0,1,2,3	to_board	s623
543.479	0.432	0	PA_with_intermediate	3,0,0,0,0,0,1,0,0	test	ward_and_allport	0,0,0,2,0,0,1,3,0	82.0	41.0	0.432	0,0,0,0,0,0,1,2,3	to_hand	s623
543.912	0.42	0	PA_with_intermediate	3,0,0,2,0,0,1,0,0	test	ward_and_allport	0,0,0,2,0,0,1,3,0	71.0	41.0	0.42	0,0,0,0,0,0,1,2,3	to_board	s623
544.343	1.281	0	PA_with_intermediate	0,0,0,2,0,0,1,0,0	test	ward_and_allport	0,0,0,2,0,0,1,3,0	89.0	41.0	1.281	0,0,0,0,0,0,1,2,3	to_hand	s623
545.625	0.409	0	PA_with_intermediate	0,0,0,2,0,0,1,3,0	test	ward_and_allport	0,0,0,2,0,0,1,3,0	82.0	41.0	0.409	0,0,0,0,0,0,1,2,3	to_board	s623
546.049	1.0	0	PA_with_intermediate	n/a	test	ward_and_allport	n/a	-1.0	41.0	n/a	n/a	feedback	s623
547.049	2.632	0	PA_with_intermediate	n/a	test	ward_and_allport	n/a	-1.0	41.0	n/a	n/a	ITI	s623
549.697	13.464	1	PA_without_intermediate	1,2,0,0,0,0,0,0,0	test	ward_and_allport	0,0,0,3,1,0,2,0,0	89.0	42.0	13.464	1,2,3,0,0,0,0,0,0	to_hand	s623
563.162	0.865	0	PA_without_intermediate	1,2,0,3,0,0,0,0,0	test	ward_and_allport	0,0,0,3,1,0,2,0,0	71.0	42.0	0.865	1,2,3,0,0,0,0,0,0	to_board	s623
564.038	0.422	0	PA_without_intermediate	1,0,0,3,0,0,0,0,0	test	ward_and_allport	0,0,0,3,1,0,2,0,0	89.0	42.0	0.422	1,2,3,0,0,0,0,0,0	to_hand	s623
564.461	1.321	0	PA_without_intermediate	1,0,0,3,0,0,2,0,0	test	ward_and_allport	0,0,0,3,1,0,2,0,0	82.0	42.0	1.321	1,2,3,0,0,0,0,0,0	to_board	s623
565.794	1.858	0	PA_without_intermediate	0,0,0,3,0,0,2,0,0	test	ward_and_allport	0,0,0,3,1,0,2,0,0	89.0	42.0	1.858	1,2,3,0,0,0,0,0,0	to_hand	s623
567.654	1.123	0	PA_without_intermediate	0,0,0,3,1,0,2,0,0	test	ward_and_allport	0,0,0,3,1,0,2,0,0	71.0	42.0	1.123	1,2,3,0,0,0,0,0,0	to_board	s623
568.79	1.0	0	PA_without_intermediate	n/a	test	ward_and_allport	n/a	-1.0	42.0	n/a	n/a	feedback	s623
569.79	1.408	0	PA_without_intermediate	n/a	test	ward_and_allport	n/a	-1.0	42.0	n/a	n/a	ITI	s623
n/a	n/a	0	n/a	n/a	n/a	n/a	n/a	n/a	n/a	n/a	n/a	ITI	n/a
