onset	duration	EV	action	clicked_on_loss_card	experiment_exp_id	gain_amount	gain_probability	key_press	loss_amount	loss_probability	num_cards	num_click_in_round	num_loss_cards	risk	response_time	total_cards	trial_id	worker_id
3.005	6.068	1.6245687399801323	draw_card	0.0	columbia_card_task_fmri	12.0	0.8333333333333334	89.0	-70.0	0.1666666666666666	6.0	1.0	1.0	-2.2496525323561585	6.068	n/a	stim	s631
9.075	0.411	-1.1087645933532002	draw_card	0.0	columbia_card_task_fmri	12.0	0.8	89.0	-70.0	0.2	6.0	2.0	1.0	-0.0212566043278741	0.411	n/a	stim	s631
9.488	1.051	-5.208764593353202	draw_card	0.0	columbia_card_task_fmri	12.0	0.75	89.0	-70.0	0.25	6.0	3.0	1.0	2.6732831796615457	1.051	n/a	stim	s631
10.541	0.734	-12.042097926686534	draw_card	0.0	columbia_card_task_fmri	12.0	0.6666666666666667	89.0	-70.0	0.3333333333333333	6.0	4.0	1.0	5.8090627870425	0.734	n/a	stim	s631
11.277	0.733	-25.7087645933532	end_round	0.0	columbia_card_task_fmri	12.0	0.5	71.0	-70.0	0.5	6.0	5.0	1.0	8.145919741735888	0.733	4.0	stim	s631
12.012	2.25	n/a	-1.0	n/a	columbia_card_task_fmri	n/a	n/a	-1.0	n/a	n/a	n/a	n/a	n/a	n/a	n/a	n/a	feedback	s631
14.262	0.204	n/a	-1.0	n/a	columbia_card_task_fmri	n/a	n/a	-1.0	n/a	n/a	n/a	n/a	n/a	n/a	n/a	n/a	ITI	s631
14.467	4.365	2.457902073313466	draw_card	1.0	columbia_card_task_fmri	14.0	0.8333333333333334	89.0	-75.0	0.1666666666666666	6.0	1.0	1.0	0.3452648893006369	4.365	1.0	stim	s631
18.836	2.25	n/a	-1.0	n/a	columbia_card_task_fmri	n/a	n/a	-1.0	n/a	n/a	n/a	n/a	n/a	n/a	n/a	n/a	feedback	s631
21.086	0.204	n/a	-1.0	n/a	columbia_card_task_fmri	n/a	n/a	-1.0	n/a	n/a	n/a	n/a	n/a	n/a	n/a	n/a	ITI	s631
21.292	2.977	4.124568739980132	draw_card	0.0	columbia_card_task_fmri	15.0	0.8333333333333334	89.0	-70.0	0.1666666666666666	6.0	1.0	1.0	-1.1378217314431147	2.977	n/a	stim	s631
24.27	0.369	1.2912354066467984	draw_card	1.0	columbia_card_task_fmri	15.0	0.8	89.0	-70.0	0.2	6.0	2.0	1.0	1.1729575715218274	0.369	2.0	stim	s631
24.641	2.25	n/a	-1.0	n/a	columbia_card_task_fmri	n/a	n/a	-1.0	n/a	n/a	n/a	n/a	n/a	n/a	n/a	n/a	feedback	s631
26.891	0.272	n/a	-1.0	n/a	columbia_card_task_fmri	n/a	n/a	-1.0	n/a	n/a	n/a	n/a	n/a	n/a	n/a	n/a	ITI	s631
27.165	2.524	4.957902073313466	draw_card	0.0	columbia_card_task_fmri	17.0	0.8333333333333334	89.0	-75.0	0.1666666666666666	6.0	1.0	1.0	1.458011901719857	2.524	n/a	stim	s631
29.69	0.986	1.8912354066468	draw_card	1.0	columbia_card_task_fmri	17.0	0.8	89.0	-75.0	0.2	6.0	2.0	1.0	3.960915405792136	0.986	2.0	stim	s631
30.677	2.25	n/a	-1.0	n/a	columbia_card_task_fmri	n/a	n/a	-1.0	n/a	n/a	n/a	n/a	n/a	n/a	n/a	n/a	feedback	s631
32.927	0.204	n/a	-1.0	n/a	columbia_card_task_fmri	n/a	n/a	-1.0	n/a	n/a	n/a	n/a	n/a	n/a	n/a	n/a	ITI	s631
33.133	2.147	6.291235406646798	draw_card	1.0	columbia_card_task_fmri	24.0	0.75	89.0	-60.0	0.25	8.0	1.0	2.0	3.535699456842444	2.147	1.0	stim	s631
35.281	2.25	n/a	-1.0	n/a	columbia_card_task_fmri	n/a	n/a	-1.0	n/a	n/a	n/a	n/a	n/a	n/a	n/a	n/a	feedback	s631
37.531	0.408	n/a	-1.0	n/a	columbia_card_task_fmri	n/a	n/a	-1.0	n/a	n/a	n/a	n/a	n/a	n/a	n/a	n/a	ITI	s631
37.94	6.251	6.291235406646798	draw_card	0.0	columbia_card_task_fmri	29.0	0.75	89.0	-75.0	0.25	8.0	1.0	2.0	12.167461384272372	6.251	n/a	stim	s631
44.193	0.634	2.5769496923610866	draw_card	0.0	columbia_card_task_fmri	29.0	0.7142857142857143	89.0	-75.0	0.2857142857142857	8.0	2.0	2.0	14.111581001872324	0.634	n/a	stim	s631
44.828	0.49	-2.375431260019866	draw_card	1.0	columbia_card_task_fmri	29.0	0.6666666666666667	89.0	-75.0	0.3333333333333333	8.0	3.0	2.0	16.15045165707766	0.49	3.0	stim	s631
45.32	2.25	n/a	-1.0	n/a	columbia_card_task_fmri	n/a	n/a	-1.0	n/a	n/a	n/a	n/a	n/a	n/a	n/a	n/a	feedback	s631
47.57	0.136	n/a	-1.0	n/a	columbia_card_task_fmri	n/a	n/a	-1.0	n/a	n/a	n/a	n/a	n/a	n/a	n/a	n/a	ITI	s631
47.707	1.545	2.0690131844245787	draw_card	0.0	columbia_card_task_fmri	17.0	0.7777777777777778	89.0	-65.0	0.2222222222222222	9.0	1.0	2.0	1.2631930936140918	1.545	n/a	stim	s631
49.253	2.023	-0.2087645933532016	draw_card	0.0	columbia_card_task_fmri	17.0	0.75	89.0	-65.0	0.25	9.0	2.0	2.0	2.6732831796615457	2.023	n/a	stim	s631
51.277	1.401	-3.1373360219246287	draw_card	0.0	columbia_card_task_fmri	17.0	0.7142857142857143	89.0	-65.0	0.2857142857142857	9.0	3.0	2.0	4.20377643467593	1.401	n/a	stim	s631
52.679	0.628	-7.042097926686532	draw_card	0.0	columbia_card_task_fmri	17.0	0.6666666666666667	89.0	-65.0	0.3333333333333333	9.0	4.0	2.0	5.8090627870425	0.628	n/a	stim	s631
53.309	2.913	-12.508764593353202	draw_card	0.0	columbia_card_task_fmri	17.0	0.6	89.0	-65.0	0.4	9.0	5.0	2.0	7.320262163931972	2.913	n/a	stim	s631
56.223	2.361	-20.7087645933532	end_round	0.0	columbia_card_task_fmri	17.0	0.5	71.0	-65.0	0.5	9.0	6.0	2.0	8.145919741735888	2.361	5.0	stim	s631
58.586	2.25	n/a	-1.0	n/a	columbia_card_task_fmri	n/a	n/a	-1.0	n/a	n/a	n/a	n/a	n/a	n/a	n/a	n/a	feedback	s631
60.836	0.272	n/a	-1.0	n/a	columbia_card_task_fmri	n/a	n/a	-1.0	n/a	n/a	n/a	n/a	n/a	n/a	n/a	n/a	ITI	s631
61.11	2.876	6.391235406646798	draw_card	1.0	columbia_card_task_fmri	14.0	0.9	89.0	-95.0	0.1	10.0	1.0	1.0	-0.1207554265224146	2.876	1.0	stim	s631
63.987	2.25	n/a	-1.0	n/a	columbia_card_task_fmri	n/a	n/a	-1.0	n/a	n/a	n/a	n/a	n/a	n/a	n/a	n/a	feedback	s631
66.237	0.34	n/a	-1.0	n/a	columbia_card_task_fmri	n/a	n/a	-1.0	n/a	n/a	n/a	n/a	n/a	n/a	n/a	n/a	ITI	s631
66.579	5.446	2.2912354066467984	draw_card	0.0	columbia_card_task_fmri	15.0	0.8	89.0	-65.0	0.2	10.0	1.0	2.0	-0.817160154523755	5.446	n/a	stim	s631
72.027	0.298	0.5134576288690216	draw_card	0.0	columbia_card_task_fmri	15.0	0.7777777777777778	89.0	-65.0	0.2222222222222222	10.0	2.0	2.0	0.4356572813550627	0.298	n/a	stim	s631
72.327	0.235	-1.7087645933532016	draw_card	1.0	columbia_card_task_fmri	15.0	0.75	89.0	-65.0	0.25	10.0	3.0	2.0	1.8110461759321268	0.235	3.0	stim	s631
72.564	2.25	n/a	-1.0	n/a	columbia_card_task_fmri	n/a	n/a	-1.0	n/a	n/a	n/a	n/a	n/a	n/a	n/a	n/a	feedback	s631
74.814	0.136	n/a	-1.0	n/a	columbia_card_task_fmri	n/a	n/a	-1.0	n/a	n/a	n/a	n/a	n/a	n/a	n/a	n/a	ITI	s631
74.951	3.426	3.8912354066468	draw_card	1.0	columbia_card_task_fmri	17.0	0.8	89.0	-65.0	0.2	10.0	1.0	2.0	-0.0212566043278741	3.426	1.0	stim	s631
78.379	2.25	n/a	-1.0	n/a	columbia_card_task_fmri	n/a	n/a	-1.0	n/a	n/a	n/a	n/a	n/a	n/a	n/a	n/a	feedback	s631
80.629	0.34	n/a	-1.0	n/a	columbia_card_task_fmri	n/a	n/a	-1.0	n/a	n/a	n/a	n/a	n/a	n/a	n/a	n/a	ITI	s631
80.97	4.359	2.457902073313466	draw_card	0.0	columbia_card_task_fmri	13.0	0.8333333333333334	89.0	-70.0	0.1666666666666666	12.0	1.0	2.0	-1.879091673035184	4.359	n/a	stim	s631
85.331	0.384	1.2003263157377049	draw_card	0.0	columbia_card_task_fmri	13.0	0.8181818181818181	89.0	-70.0	0.1818181818181818	12.0	2.0	2.0	-0.8045740658972136	0.384	n/a	stim	s631
85.717	0.582	-0.3087645933532013	draw_card	0.0	columbia_card_task_fmri	13.0	0.8	89.0	-70.0	0.2	12.0	3.0	2.0	0.3767686533423457	0.582	n/a	stim	s631
86.301	0.572	-2.1532090377976463	draw_card	0.0	columbia_card_task_fmri	13.0	0.7777777777777778	89.0	-70.0	0.2222222222222222	12.0	4.0	2.0	1.6770317795817604	0.572	n/a	stim	s631
86.875	0.833	-4.458764593353202	draw_card	0.0	columbia_card_task_fmri	13.0	0.75	89.0	-70.0	0.25	12.0	5.0	2.0	3.10446971224188	0.833	n/a	stim	s631
87.709	0.457	-7.423050307638915	draw_card	0.0	columbia_card_task_fmri	13.0	0.7142857142857143	89.0	-70.0	0.2857142857142857	12.0	6.0	2.0	4.653779077423188	0.457	n/a	stim	s631
88.169	0.572	-11.375431260019866	draw_card	0.0	columbia_card_task_fmri	13.0	0.6666666666666667	89.0	-70.0	0.3333333333333333	12.0	7.0	2.0	6.278788206585062	0.572	n/a	stim	s631
88.743	0.135	-16.9087645933532	draw_card	0.0	columbia_card_task_fmri	13.0	0.6	89.0	-70.0	0.4	12.0	8.0	2.0	7.808543757558084	0.135	n/a	stim	s631
88.88	2.21	-25.2087645933532	draw_card	1.0	columbia_card_task_fmri	13.0	0.5	89.0	-70.0	0.5	12.0	9.0	2.0	8.64433573055512	2.21	9.0	stim	s631
91.092	2.25	n/a	-1.0	n/a	columbia_card_task_fmri	n/a	n/a	-1.0	n/a	n/a	n/a	n/a	n/a	n/a	n/a	n/a	feedback	s631
93.342	0.068	n/a	-1.0	n/a	columbia_card_task_fmri	n/a	n/a	-1.0	n/a	n/a	n/a	n/a	n/a	n/a	n/a	n/a	ITI	s631
93.412	0.692	2.457902073313466	draw_card	0.0	columbia_card_task_fmri	15.0	0.8333333333333334	89.0	-80.0	0.1666666666666666	12.0	1.0	2.0	2.571090610338309	0.692	n/a	stim	s631
94.106	1.821	1.0185081339195232	draw_card	0.0	columbia_card_task_fmri	15.0	0.8181818181818181	89.0	-80.0	0.1818181818181818	12.0	2.0	2.0	3.802538045112918	1.821	n/a	stim	s631
95.93	0.955	-0.7087645933532016	draw_card	1.0	columbia_card_task_fmri	15.0	0.8	89.0	-80.0	0.2	12.0	3.0	2.0	5.156294546954918	0.955	3.0	stim	s631
96.887	2.25	n/a	-1.0	n/a	columbia_card_task_fmri	n/a	n/a	-1.0	n/a	n/a	n/a	n/a	n/a	n/a	n/a	n/a	feedback	s631
99.137	0.0	n/a	-1.0	n/a	columbia_card_task_fmri	n/a	n/a	-1.0	n/a	n/a	n/a	n/a	n/a	n/a	n/a	n/a	ITI	s631
99.139	1.555	1.4912354066467994	draw_card	0.0	columbia_card_task_fmri	14.0	0.8	89.0	-65.0	0.2	15.0	1.0	3.0	-1.2150347653796167	1.555	n/a	stim	s631
100.696	0.671	0.3626639780753713	draw_card	0.0	columbia_card_task_fmri	14.0	0.7857142857142857	89.0	-65.0	0.2142857142857142	15.0	2.0	3.0	-0.4035676889615729	0.671	n/a	stim	s631
101.369	0.541	-0.9395338241224334	draw_card	0.0	columbia_card_task_fmri	14.0	0.7692307692307692	89.0	-65.0	0.2307692307692307	15.0	3.0	3.0	0.4610351452873615	0.541	n/a	stim	s631
101.913	0.679	-2.4587645933532016	draw_card	0.0	columbia_card_task_fmri	14.0	0.75	89.0	-65.0	0.25	15.0	4.0	3.0	1.3799991185442408	0.679	n/a	stim	s631
102.594	0.612	-4.254219138807747	draw_card	0.0	columbia_card_task_fmri	14.0	0.7272727272727273	89.0	-65.0	0.2727272727272727	15.0	5.0	3.0	2.3512148608091508	0.612	n/a	stim	s631
103.207	0.731	-6.408764593353203	draw_card	0.0	columbia_card_task_fmri	14.0	0.7	89.0	-65.0	0.3	15.0	6.0	3.0	3.365678372604833	0.731	n/a	stim	s631
103.94	4.184	-9.042097926686532	draw_card	0.0	columbia_card_task_fmri	14.0	0.6666666666666667	89.0	-65.0	0.3333333333333333	15.0	7.0	3.0	4.400140139909837	4.184	n/a	stim	s631
108.127	5.608	-12.333764593353202	draw_card	0.0	columbia_card_task_fmri	14.0	0.625	89.0	-65.0	0.375	15.0	8.0	3.0	5.401094494478798	5.608	n/a	stim	s631
113.737	6.371	-16.565907450496056	end_round	0.0	columbia_card_task_fmri	14.0	0.5714285714285714	71.0	-65.0	0.4285714285714285	15.0	9.0	3.0	6.247185765287739	6.371	8.0	stim	s631
120.11	2.25	n/a	-1.0	n/a	columbia_card_task_fmri	n/a	n/a	-1.0	n/a	n/a	n/a	n/a	n/a	n/a	n/a	n/a	feedback	s631
122.36	0.204	n/a	-1.0	n/a	columbia_card_task_fmri	n/a	n/a	-1.0	n/a	n/a	n/a	n/a	n/a	n/a	n/a	n/a	ITI	s631
122.567	3.277	1.4162354066467984	draw_card	0.0	columbia_card_task_fmri	1.0	0.9375	89.0	-45.0	0.0625	16.0	1.0	1.0	-21.37491318820317	3.277	n/a	stim	s631
125.846	0.326	1.224568739980132	draw_card	0.0	columbia_card_task_fmri	1.0	0.9333333333333332	89.0	-45.0	0.0666666666666666	16.0	2.0	1.0	-21.0488644678459	0.326	n/a	stim	s631
126.174	0.396	1.0055211209325128	draw_card	0.0	columbia_card_task_fmri	1.0	0.9285714285714286	89.0	-45.0	0.0714285714285714	16.0	3.0	1.0	-20.69047464142461	0.396	n/a	stim	s631
126.573	0.346	0.75277386818526	draw_card	0.0	columbia_card_task_fmri	1.0	0.9230769230769232	89.0	-45.0	0.0769230769230769	16.0	4.0	1.0	-20.29420931700399	0.346	n/a	stim	s631
126.921	0.338	0.4579020733134649	draw_card	0.0	columbia_card_task_fmri	1.0	0.9166666666666666	89.0	-45.0	0.0833333333333333	16.0	5.0	1.0	-19.85314247754177	0.338	n/a	stim	s631
127.261	0.339	0.1094172248286167	draw_card	0.0	columbia_card_task_fmri	1.0	0.9090909090909092	89.0	-45.0	0.0909090909090909	16.0	6.0	1.0	-19.358486579151297	0.339	n/a	stim	s631
127.603	0.344	-0.3087645933532017	draw_card	1.0	columbia_card_task_fmri	1.0	0.9	89.0	-45.0	0.1	16.0	7.0	1.0	-18.79892404236625	0.344	7.0	stim	s631
127.95	2.25	n/a	-1.0	n/a	columbia_card_task_fmri	n/a	n/a	-1.0	n/a	n/a	n/a	n/a	n/a	n/a	n/a	n/a	feedback	s631
130.2	1.02	n/a	-1.0	n/a	columbia_card_task_fmri	n/a	n/a	-1.0	n/a	n/a	n/a	n/a	n/a	n/a	n/a	n/a	ITI	s631
131.222	2.026	2.3537354066467984	draw_card	0.0	columbia_card_task_fmri	15.0	0.8125	89.0	-70.0	0.1875	16.0	1.0	3.0	0.3534349756638519	2.026	n/a	stim	s631
133.25	0.391	1.2912354066467984	draw_card	0.0	columbia_card_task_fmri	15.0	0.8	89.0	-70.0	0.2	16.0	2.0	3.0	1.1729575715218274	0.391	n/a	stim	s631
133.644	0.375	0.076949692361083	draw_card	0.0	columbia_card_task_fmri	15.0	0.7857142857142857	89.0	-70.0	0.2142857142857142	16.0	3.0	3.0	2.046677874327869	0.375	n/a	stim	s631
134.022	0.382	-1.3241492087378184	draw_card	0.0	columbia_card_task_fmri	15.0	0.7692307692307692	89.0	-70.0	0.2307692307692307	16.0	4.0	3.0	2.977577057277884	0.382	n/a	stim	s631
134.407	0.82	-2.9587645933532016	draw_card	1.0	columbia_card_task_fmri	15.0	0.75	89.0	-70.0	0.25	16.0	5.0	3.0	3.966970900649258	0.82	5.0	stim	s631
135.23	2.25	n/a	-1.0	n/a	columbia_card_task_fmri	n/a	n/a	-1.0	n/a	n/a	n/a	n/a	n/a	n/a	n/a	n/a	feedback	s631
137.48	0.0	n/a	-1.0	n/a	columbia_card_task_fmri	n/a	n/a	-1.0	n/a	n/a	n/a	n/a	n/a	n/a	n/a	n/a	ITI	s631
137.482	3.368	9.291235406646798	draw_card	1.0	columbia_card_task_fmri	30.0	0.7	89.0	-50.0	0.3	10.0	1.0	3.0	3.822077228463499	3.368	1.0	stim	s631
140.853	2.25	n/a	-1.0	n/a	columbia_card_task_fmri	n/a	n/a	-1.0	n/a	n/a	n/a	n/a	n/a	n/a	n/a	n/a	feedback	s631
143.103	0.0	n/a	-1.0	n/a	columbia_card_task_fmri	n/a	n/a	-1.0	n/a	n/a	n/a	n/a	n/a	n/a	n/a	n/a	ITI	s631
143.106	5.283	8.691235406646799	draw_card	1.0	columbia_card_task_fmri	17.0	0.8666666666666667	89.0	-70.0	0.1333333333333333	15.0	1.0	2.0	-3.2290830719511163	5.283	1.0	stim	s631
148.391	2.25	n/a	-1.0	n/a	columbia_card_task_fmri	n/a	n/a	-1.0	n/a	n/a	n/a	n/a	n/a	n/a	n/a	n/a	feedback	s631
150.641	0.068	n/a	-1.0	n/a	columbia_card_task_fmri	n/a	n/a	-1.0	n/a	n/a	n/a	n/a	n/a	n/a	n/a	n/a	ITI	s631
150.712	3.733	3.9162354066467984	draw_card	0.0	columbia_card_task_fmri	7.0	0.9375	89.0	-95.0	0.0625	16.0	1.0	1.0	-8.077303232703542	3.733	n/a	stim	s631
154.448	0.355	3.4912354066467985	draw_card	0.0	columbia_card_task_fmri	7.0	0.9333333333333332	89.0	-95.0	0.0666666666666666	16.0	2.0	1.0	-7.330711136350121	0.355	n/a	stim	s631
154.805	0.308	3.005521120932513	draw_card	0.0	columbia_card_task_fmri	7.0	0.9285714285714286	89.0	-95.0	0.0714285714285714	16.0	3.0	1.0	-6.511576063505906	0.308	n/a	stim	s631
155.115	0.406	2.445081560492952	draw_card	0.0	columbia_card_task_fmri	7.0	0.9230769230769232	89.0	-95.0	0.0769230769230769	16.0	4.0	1.0	-5.607550128623764	0.406	n/a	stim	s631
155.524	0.4	1.7912354066467984	draw_card	1.0	columbia_card_task_fmri	7.0	0.9166666666666666	89.0	-95.0	0.0833333333333333	16.0	5.0	1.0	-4.603187974058727	0.4	5.0	stim	s631
155.926	2.25	n/a	-1.0	n/a	columbia_card_task_fmri	n/a	n/a	-1.0	n/a	n/a	n/a	n/a	n/a	n/a	n/a	n/a	feedback	s631
158.176	0.476	n/a	-1.0	n/a	columbia_card_task_fmri	n/a	n/a	-1.0	n/a	n/a	n/a	n/a	n/a	n/a	n/a	n/a	ITI	s631
158.655	1.999	5.478735406646798	draw_card	0.0	columbia_card_task_fmri	9.0	0.9375	89.0	-100.0	0.0625	16.0	1.0	1.0	-6.39678697552991	1.999	n/a	stim	s631
160.657	0.875	5.024568739980132	draw_card	0.0	columbia_card_task_fmri	9.0	0.9333333333333332	89.0	-100.0	0.0666666666666666	16.0	2.0	1.0	-5.598116218192335	0.875	n/a	stim	s631
161.534	1.004	4.505521120932514	draw_card	0.0	columbia_card_task_fmri	9.0	0.9285714285714286	89.0	-100.0	0.0714285714285714	16.0	3.0	1.0	-4.721896949914946	1.004	n/a	stim	s631
162.542	0.958	3.9066200220314142	draw_card	0.0	columbia_card_task_fmri	9.0	0.9230769230769232	89.0	-100.0	0.0769230769230769	16.0	4.0	1.0	-3.7549313621328864	0.958	n/a	stim	s631
163.502	1.723	3.207902073313466	draw_card	0.0	columbia_card_task_fmri	9.0	0.9166666666666666	89.0	-100.0	0.0833333333333333	16.0	5.0	1.0	-2.6807112124494985	1.723	n/a	stim	s631
165.227	1.632	2.3821444975558883	draw_card	0.0	columbia_card_task_fmri	9.0	0.9090909090909092	89.0	-100.0	0.0909090909090909	16.0	6.0	1.0	-1.4783018644489443	1.632	n/a	stim	s631
166.861	0.655	1.391235406646798	draw_card	0.0	columbia_card_task_fmri	9.0	0.9	89.0	-100.0	0.1	16.0	7.0	1.0	-0.1207554265224146	0.655	n/a	stim	s631
167.518	0.874	0.1801242955356876	draw_card	0.0	columbia_card_task_fmri	9.0	0.8888888888888888	89.0	-100.0	0.1111111111111111	16.0	8.0	1.0	1.42717330838574	0.874	n/a	stim	s631
168.395	0.655	-1.3337645933532016	draw_card	0.0	columbia_card_task_fmri	9.0	0.875	89.0	-100.0	0.125	16.0	9.0	1.0	3.2123271138987235	0.655	n/a	stim	s631
169.052	0.068	-3.280193164781771	draw_card	0.0	columbia_card_task_fmri	9.0	0.8571428571428572	89.0	-100.0	0.1428571428571428	16.0	10.0	1.0	5.297821240216756	0.068	n/a	stim	s631
169.123	2.733	-5.875431260019866	draw_card	0.0	columbia_card_task_fmri	9.0	0.8333333333333334	89.0	-100.0	0.1666666666666666	16.0	11.0	1.0	7.769044924376516	2.733	n/a	stim	s631
171.859	4.517	-9.508764593353202	end_round	0.0	columbia_card_task_fmri	9.0	0.8	71.0	-100.0	0.2	16.0	12.0	1.0	10.73807786261213	4.517	11.0	stim	s631
176.378	2.25	n/a	-1.0	n/a	columbia_card_task_fmri	n/a	n/a	-1.0	n/a	n/a	n/a	n/a	n/a	n/a	n/a	n/a	feedback	s631
178.628	0.136	n/a	-1.0	n/a	columbia_card_task_fmri	n/a	n/a	-1.0	n/a	n/a	n/a	n/a	n/a	n/a	n/a	n/a	ITI	s631
178.768	6.778	6.416235406646798	draw_card	0.0	columbia_card_task_fmri	15.0	0.875	89.0	-80.0	0.125	16.0	1.0	2.0	-1.3957547405080888	6.778	n/a	stim	s631
185.548	0.334	5.624568739980132	draw_card	0.0	columbia_card_task_fmri	15.0	0.8666666666666667	89.0	-80.0	0.1333333333333333	16.0	2.0	2.0	-0.5248976726897254	0.334	n/a	stim	s631
185.885	0.349	4.719806835218229	draw_card	0.0	columbia_card_task_fmri	15.0	0.8571428571428572	89.0	-80.0	0.1428571428571428	16.0	3.0	2.0	0.4196338921012028	0.349	n/a	stim	s631
186.239	0.6	3.6758507912621816	draw_card	0.0	columbia_card_task_fmri	15.0	0.8461538461538461	89.0	-80.0	0.1538461538461538	16.0	4.0	2.0	1.4477983773613232	0.6	n/a	stim	s631
186.842	1.521	2.457902073313466	draw_card	0.0	columbia_card_task_fmri	15.0	0.8333333333333334	89.0	-80.0	0.1666666666666666	16.0	5.0	2.0	2.571090610338309	1.521	n/a	stim	s631
188.366	5.382	1.0185081339195232	draw_card	0.0	columbia_card_task_fmri	15.0	0.8181818181818181	89.0	-80.0	0.1818181818181818	16.0	6.0	2.0	3.802538045112918	5.382	n/a	stim	s631
193.751	2.642	-0.7087645933532016	draw_card	0.0	columbia_card_task_fmri	15.0	0.8	89.0	-80.0	0.2	16.0	7.0	2.0	5.156294546954918	2.642	n/a	stim	s631
196.395	3.644	-2.819875704464314	draw_card	0.0	columbia_card_task_fmri	15.0	0.7777777777777778	89.0	-80.0	0.2222222222222222	16.0	8.0	2.0	6.646199918429673	3.644	n/a	stim	s631
200.043	5.371	-5.458764593353202	draw_card	1.0	columbia_card_task_fmri	15.0	0.75	89.0	-80.0	0.25	16.0	9.0	2.0	8.281691117793756	5.371	9.0	stim	s631
205.417	2.25	n/a	-1.0	n/a	columbia_card_task_fmri	n/a	n/a	-1.0	n/a	n/a	n/a	n/a	n/a	n/a	n/a	n/a	feedback	s631
207.667	0.068	n/a	-1.0	n/a	columbia_card_task_fmri	n/a	n/a	-1.0	n/a	n/a	n/a	n/a	n/a	n/a	n/a	n/a	ITI	s631
207.738	5.168	8.541235406646798	draw_card	0.0	columbia_card_task_fmri	16.0	0.875	89.0	-70.0	0.125	16.0	1.0	2.0	-4.354347337678181	5.168	n/a	stim	s631
212.909	0.177	7.824568739980132	draw_card	0.0	columbia_card_task_fmri	16.0	0.8666666666666667	89.0	-70.0	0.1333333333333333	16.0	2.0	2.0	-3.566908024377668	0.177	n/a	stim	s631
213.089	0.151	7.005521120932514	draw_card	0.0	columbia_card_task_fmri	16.0	0.8571428571428572	89.0	-70.0	0.1428571428571428	16.0	3.0	2.0	-2.712797482792336	0.151	n/a	stim	s631
213.243	0.141	6.060466175877567	draw_card	0.0	columbia_card_task_fmri	16.0	0.8461538461538461	89.0	-70.0	0.1538461538461538	16.0	4.0	2.0	-1.7830018176428697	0.141	n/a	stim	s631
213.388	0.305	4.957902073313466	draw_card	0.0	columbia_card_task_fmri	16.0	0.8333333333333334	89.0	-70.0	0.1666666666666666	16.0	5.0	2.0	-0.7671160593869715	0.305	n/a	stim	s631
213.696	0.342	3.65487177028316	draw_card	0.0	columbia_card_task_fmri	16.0	0.8181818181818181	89.0	-70.0	0.1818181818181818	16.0	6.0	2.0	0.3466526888866141	0.342	n/a	stim	s631
214.042	0.31	2.091235406646799	draw_card	0.0	columbia_card_task_fmri	16.0	0.8	89.0	-70.0	0.2	16.0	7.0	2.0	1.5711180432552825	0.31	n/a	stim	s631
214.356	0.391	0.1801242955356876	draw_card	0.0	columbia_card_task_fmri	16.0	0.7777777777777778	89.0	-70.0	0.2222222222222222	16.0	8.0	2.0	2.918811376873535	0.391	n/a	stim	s631
214.75	0.503	-2.2087645933532016	draw_card	0.0	columbia_card_task_fmri	16.0	0.75	89.0	-70.0	0.25	16.0	9.0	2.0	4.398282600513696	0.503	n/a	stim	s631
215.257	1.626	-5.280193164781773	draw_card	0.0	columbia_card_task_fmri	16.0	0.7142857142857143	89.0	-70.0	0.2857142857142857	16.0	10.0	2.0	6.0040300309260175	1.626	n/a	stim	s631
216.886	1.184	-9.375431260019866	draw_card	0.0	columbia_card_task_fmri	16.0	0.6666666666666667	89.0	-70.0	0.3333333333333333	16.0	11.0	2.0	7.68819757489468	1.184	n/a	stim	s631
218.072	5.677	-15.1087645933532	end_round	0.0	columbia_card_task_fmri	16.0	0.6	71.0	-70.0	0.4	16.0	12.0	2.0	9.273613020951608	5.677	11.0	stim	s631
223.754	2.25	n/a	-1.0	n/a	columbia_card_task_fmri	n/a	n/a	-1.0	n/a	n/a	n/a	n/a	n/a	n/a	n/a	n/a	feedback	s631
226.004	0.0	n/a	-1.0	n/a	columbia_card_task_fmri	n/a	n/a	-1.0	n/a	n/a	n/a	n/a	n/a	n/a	n/a	n/a	ITI	s631
226.007	1.798	9.853735406646798	draw_card	0.0	columbia_card_task_fmri	30.0	0.6875	89.0	-45.0	0.3125	16.0	1.0	5.0	1.9329135569406048	1.798	n/a	stim	s631
227.807	0.904	8.291235406646802	draw_card	0.0	columbia_card_task_fmri	30.0	0.6666666666666667	89.0	-45.0	0.3333333333333333	16.0	2.0	5.0	2.522230980599886	0.904	n/a	stim	s631
228.714	1.133	6.50552112093251	draw_card	0.0	columbia_card_task_fmri	30.0	0.6428571428571428	89.0	-45.0	0.3571428571428571	16.0	3.0	5.0	3.101235769440372	1.133	n/a	stim	s631
229.85	0.716	4.445081560492952	draw_card	1.0	columbia_card_task_fmri	30.0	0.6153846153846154	89.0	-45.0	0.3846153846153846	16.0	4.0	5.0	3.649986204292056	0.716	4.0	stim	s631
230.57	2.25	n/a	-1.0	n/a	columbia_card_task_fmri	n/a	n/a	-1.0	n/a	n/a	n/a	n/a	n/a	n/a	n/a	n/a	feedback	s631
232.82	0.0	n/a	-1.0	n/a	columbia_card_task_fmri	n/a	n/a	-1.0	n/a	n/a	n/a	n/a	n/a	n/a	n/a	n/a	ITI	s631
232.822	1.248	1.6245687399801323	draw_card	0.0	columbia_card_task_fmri	13.0	0.8333333333333334	89.0	-75.0	0.1666666666666666	6.0	1.0	1.0	-0.0255712645260146	1.248	n/a	stim	s631
234.073	0.311	-1.3087645933532013	draw_card	0.0	columbia_card_task_fmri	13.0	0.8	89.0	-75.0	0.2	6.0	2.0	1.0	2.367563577498544	0.311	n/a	stim	s631
234.387	0.418	-5.708764593353202	draw_card	0.0	columbia_card_task_fmri	13.0	0.75	89.0	-75.0	0.25	6.0	3.0	1.0	5.261021320673031	0.418	n/a	stim	s631
234.807	1.19	-13.042097926686534	draw_card	1.0	columbia_card_task_fmri	13.0	0.6666666666666667	89.0	-75.0	0.3333333333333333	6.0	4.0	1.0	8.627984919706861	1.19	4.0	stim	s631
236.001	2.25	n/a	-1.0	n/a	columbia_card_task_fmri	n/a	n/a	-1.0	n/a	n/a	n/a	n/a	n/a	n/a	n/a	n/a	feedback	s631
238.251	0.204	n/a	-1.0	n/a	columbia_card_task_fmri	n/a	n/a	-1.0	n/a	n/a	n/a	n/a	n/a	n/a	n/a	n/a	ITI	s631
238.458	1.241	3.2912354066468	draw_card	0.0	columbia_card_task_fmri	14.0	0.8333333333333334	89.0	-70.0	0.1666666666666666	6.0	1.0	1.0	-1.5084808243473908	1.241	n/a	stim	s631
239.702	0.286	0.4912354066467994	draw_card	1.0	columbia_card_task_fmri	14.0	0.8	89.0	-70.0	0.2	6.0	2.0	1.0	0.774840589258389	0.286	2.0	stim	s631
239.991	2.25	n/a	-1.0	n/a	columbia_card_task_fmri	n/a	n/a	-1.0	n/a	n/a	n/a	n/a	n/a	n/a	n/a	n/a	feedback	s631
242.241	0.204	n/a	-1.0	n/a	columbia_card_task_fmri	n/a	n/a	-1.0	n/a	n/a	n/a	n/a	n/a	n/a	n/a	n/a	ITI	s631
242.448	0.483	3.2912354066468	draw_card	0.0	columbia_card_task_fmri	16.0	0.8333333333333334	89.0	-80.0	0.1666666666666666	6.0	1.0	1.0	2.942185228689219	0.483	n/a	stim	s631
242.934	0.628	0.091235406646799	draw_card	0.0	columbia_card_task_fmri	16.0	0.8	89.0	-80.0	0.2	6.0	2.0	1.0	5.554818081768715	0.628	n/a	stim	s631
243.566	0.47	-4.708764593353202	draw_card	0.0	columbia_card_task_fmri	16.0	0.75	89.0	-80.0	0.25	6.0	3.0	1.0	8.713338812331791	0.47	n/a	stim	s631
244.04	1.501	-12.708764593353198	draw_card	1.0	columbia_card_task_fmri	16.0	0.6666666666666667	89.0	-80.0	0.3333333333333333	6.0	4.0	1.0	12.388388027811844	1.501	4.0	stim	s631
245.543	2.25	n/a	-1.0	n/a	columbia_card_task_fmri	n/a	n/a	-1.0	n/a	n/a	n/a	n/a	n/a	n/a	n/a	n/a	feedback	s631
247.793	0.272	n/a	-1.0	n/a	columbia_card_task_fmri	n/a	n/a	-1.0	n/a	n/a	n/a	n/a	n/a	n/a	n/a	n/a	ITI	s631
248.069	0.338	5.7912354066468	draw_card	0.0	columbia_card_task_fmri	17.0	0.8333333333333334	89.0	-70.0	0.1666666666666666	6.0	1.0	1.0	-0.3963653976879087	0.338	n/a	stim	s631
248.41	0.343	2.8912354066468	draw_card	0.0	columbia_card_task_fmri	17.0	0.8	89.0	-70.0	0.2	6.0	2.0	1.0	1.969320518349953	0.343	n/a	stim	s631
248.756	0.338	-1.4587645933532016	draw_card	0.0	columbia_card_task_fmri	17.0	0.75	89.0	-70.0	0.25	6.0	3.0	1.0	4.8296331789957065	0.338	n/a	stim	s631
249.097	3.076	-8.7087645933532	draw_card	1.0	columbia_card_task_fmri	17.0	0.6666666666666667	89.0	-70.0	0.3333333333333333	6.0	4.0	1.0	8.158073964621785	3.076	4.0	stim	s631
252.176	2.25	n/a	-1.0	n/a	columbia_card_task_fmri	n/a	n/a	-1.0	n/a	n/a	n/a	n/a	n/a	n/a	n/a	n/a	feedback	s631
254.426	0.136	n/a	-1.0	n/a	columbia_card_task_fmri	n/a	n/a	-1.0	n/a	n/a	n/a	n/a	n/a	n/a	n/a	n/a	ITI	s631
254.565	1.368	5.791235406646798	draw_card	0.0	columbia_card_task_fmri	25.0	0.75	89.0	-65.0	0.25	8.0	1.0	2.0	6.1239053215693104	1.368	n/a	stim	s631
255.935	1.094	2.5769496923610866	draw_card	0.0	columbia_card_task_fmri	25.0	0.7142857142857143	89.0	-65.0	0.2857142857142857	8.0	2.0	2.0	7.804881636052173	1.094	n/a	stim	s631
257.032	0.546	-1.708764593353198	draw_card	0.0	columbia_card_task_fmri	25.0	0.6666666666666667	89.0	-65.0	0.3333333333333333	8.0	3.0	2.0	9.567905945515868	0.546	n/a	stim	s631
257.582	0.472	-7.708764593353202	draw_card	0.0	columbia_card_task_fmri	25.0	0.6	89.0	-65.0	0.4	8.0	4.0	2.0	11.227516211316484	0.472	n/a	stim	s631
258.057	5.71	-16.7087645933532	end_round	0.0	columbia_card_task_fmri	25.0	0.5	71.0	-65.0	0.5	8.0	5.0	2.0	12.13422908726728	5.71	4.0	stim	s631
263.772	2.25	n/a	-1.0	n/a	columbia_card_task_fmri	n/a	n/a	-1.0	n/a	n/a	n/a	n/a	n/a	n/a	n/a	n/a	feedback	s631
266.022	0.204	n/a	-1.0	n/a	columbia_card_task_fmri	n/a	n/a	-1.0	n/a	n/a	n/a	n/a	n/a	n/a	n/a	n/a	ITI	s631
266.229	3.538	5.791235406646798	draw_card	0.0	columbia_card_task_fmri	30.0	0.75	89.0	-80.0	0.25	8.0	1.0	2.0	14.759002233084622	3.538	n/a	stim	s631
269.77	0.576	1.8626639780753749	draw_card	0.0	columbia_card_task_fmri	30.0	0.7142857142857143	89.0	-80.0	0.2857142857142857	8.0	2.0	2.0	16.81583854950957	0.576	n/a	stim	s631
270.35	0.565	-3.3754312600198624	draw_card	1.0	columbia_card_task_fmri	30.0	0.6666666666666667	89.0	-80.0	0.3333333333333333	8.0	3.0	2.0	18.97287212577268	0.565	3.0	stim	s631
270.918	2.25	n/a	-1.0	n/a	columbia_card_task_fmri	n/a	n/a	-1.0	n/a	n/a	n/a	n/a	n/a	n/a	n/a	n/a	feedback	s631
273.168	0.272	n/a	-1.0	n/a	columbia_card_task_fmri	n/a	n/a	-1.0	n/a	n/a	n/a	n/a	n/a	n/a	n/a	n/a	ITI	s631
273.444	2.076	5.491235406646799	draw_card	0.0	columbia_card_task_fmri	13.0	0.9	89.0	-95.0	0.1	10.0	1.0	1.0	-0.4192334722707826	2.076	n/a	stim	s631
275.523	0.281	4.291235406646798	draw_card	0.0	columbia_card_task_fmri	13.0	0.8888888888888888	89.0	-95.0	0.1111111111111111	10.0	2.0	1.0	1.1143574567989631	0.281	n/a	stim	s631
275.807	0.207	2.7912354066467984	draw_card	0.0	columbia_card_task_fmri	13.0	0.875	89.0	-95.0	0.125	10.0	3.0	1.0	2.882990647884	0.207	n/a	stim	s631
276.018	0.219	0.8626639780753713	draw_card	0.0	columbia_card_task_fmri	13.0	0.8571428571428572	89.0	-95.0	0.1428571428571428	10.0	4.0	1.0	4.949201570834653	0.219	n/a	stim	s631
276.24	0.301	-1.7087645933532	draw_card	0.0	columbia_card_task_fmri	13.0	0.8333333333333334	89.0	-95.0	0.1666666666666666	10.0	5.0	1.0	7.397595363702869	0.301	n/a	stim	s631
276.545	2.107	-5.308764593353201	draw_card	0.0	columbia_card_task_fmri	13.0	0.8	89.0	-95.0	0.2	10.0	6.0	1.0	10.339223136293036	2.107	n/a	stim	s631
278.655	1.698	-10.708764593353202	draw_card	0.0	columbia_card_task_fmri	13.0	0.75	89.0	-95.0	0.25	10.0	7.0	1.0	13.895074900362856	1.698	n/a	stim	s631
280.357	1.319	-19.7087645933532	end_round	0.0	columbia_card_task_fmri	13.0	0.6666666666666667	71.0	-95.0	0.3333333333333333	10.0	8.0	1.0	18.03199137972741	1.319	7.0	stim	s631
281.681	2.25	n/a	-1.0	n/a	columbia_card_task_fmri	n/a	n/a	-1.0	n/a	n/a	n/a	n/a	n/a	n/a	n/a	n/a	feedback	s631
283.931	0.272	n/a	-1.0	n/a	columbia_card_task_fmri	n/a	n/a	-1.0	n/a	n/a	n/a	n/a	n/a	n/a	n/a	n/a	ITI	s631
284.205	2.938	6.891235406646798	draw_card	0.0	columbia_card_task_fmri	14.0	0.9	89.0	-90.0	0.1	10.0	1.0	1.0	-1.6128553237260093	2.938	n/a	stim	s631
287.146	0.199	5.735679851091241	draw_card	0.0	columbia_card_task_fmri	14.0	0.8888888888888888	89.0	-90.0	0.1111111111111111	10.0	2.0	1.0	-0.1366284161353803	0.199	n/a	stim	s631
287.347	0.143	4.291235406646798	draw_card	0.0	columbia_card_task_fmri	14.0	0.875	89.0	-90.0	0.125	10.0	3.0	1.0	1.5659088781983783	0.143	n/a	stim	s631
287.494	0.316	2.4340925495039425	draw_card	1.0	columbia_card_task_fmri	14.0	0.8571428571428572	89.0	-90.0	0.1428571428571428	10.0	4.0	1.0	3.554972834550739	0.316	4.0	stim	s631
287.815	2.25	n/a	-1.0	n/a	columbia_card_task_fmri	n/a	n/a	-1.0	n/a	n/a	n/a	n/a	n/a	n/a	n/a	n/a	feedback	s631
290.065	0.34	n/a	-1.0	n/a	columbia_card_task_fmri	n/a	n/a	-1.0	n/a	n/a	n/a	n/a	n/a	n/a	n/a	n/a	ITI	s631
290.407	0.669	2.091235406646799	draw_card	0.0	columbia_card_task_fmri	16.0	0.8	89.0	-70.0	0.2	10.0	1.0	2.0	1.5711180432552825	0.669	n/a	stim	s631
291.08	0.315	0.1801242955356876	draw_card	0.0	columbia_card_task_fmri	16.0	0.7777777777777778	89.0	-70.0	0.2222222222222222	10.0	2.0	2.0	2.918811376873535	0.315	n/a	stim	s631
291.399	0.323	-2.2087645933532016	draw_card	0.0	columbia_card_task_fmri	16.0	0.75	89.0	-70.0	0.25	10.0	3.0	2.0	4.398282600513696	0.323	n/a	stim	s631
291.725	0.339	-5.280193164781773	draw_card	1.0	columbia_card_task_fmri	16.0	0.7142857142857143	89.0	-70.0	0.2857142857142857	10.0	4.0	2.0	6.0040300309260175	0.339	4.0	stim	s631
292.069	2.25	n/a	-1.0	n/a	columbia_card_task_fmri	n/a	n/a	-1.0	n/a	n/a	n/a	n/a	n/a	n/a	n/a	n/a	feedback	s631
294.319	0.204	n/a	-1.0	n/a	columbia_card_task_fmri	n/a	n/a	-1.0	n/a	n/a	n/a	n/a	n/a	n/a	n/a	n/a	ITI	s631
294.526	0.643	1.3745687399801323	draw_card	0.0	columbia_card_task_fmri	7.0	0.9166666666666666	89.0	-100.0	0.0833333333333333	12.0	1.0	1.0	-3.230151938075146	0.643	n/a	stim	s631
295.173	0.423	0.56396267937407	draw_card	0.0	columbia_card_task_fmri	7.0	0.9090909090909092	89.0	-100.0	0.0909090909090909	12.0	2.0	1.0	-2.050057692646103	0.423	n/a	stim	s631
295.599	0.437	-0.4087645933532018	draw_card	0.0	columbia_card_task_fmri	7.0	0.9	89.0	-100.0	0.1	12.0	3.0	1.0	-0.7176832904080896	0.437	n/a	stim	s631
296.04	1.315	-1.597653482242091	draw_card	0.0	columbia_card_task_fmri	7.0	0.8888888888888888	89.0	-100.0	0.1111111111111111	12.0	4.0	1.0	0.8015685878080703	1.315	n/a	stim	s631
297.359	0.659	-3.0837645933532016	draw_card	1.0	columbia_card_task_fmri	7.0	0.875	89.0	-100.0	0.125	12.0	5.0	1.0	2.553679857207236	0.659	5.0	stim	s631
298.022	2.25	n/a	-1.0	n/a	columbia_card_task_fmri	n/a	n/a	-1.0	n/a	n/a	n/a	n/a	n/a	n/a	n/a	n/a	feedback	s631
300.272	0.068	n/a	-1.0	n/a	columbia_card_task_fmri	n/a	n/a	-1.0	n/a	n/a	n/a	n/a	n/a	n/a	n/a	n/a	ITI	s631
300.344	0.631	1.624568739980134	draw_card	1.0	columbia_card_task_fmri	14.0	0.8333333333333334	89.0	-80.0	0.1666666666666666	12.0	1.0	2.0	2.2000294619398915	0.631	1.0	stim	s631
300.978	2.25	n/a	-1.0	n/a	columbia_card_task_fmri	n/a	n/a	-1.0	n/a	n/a	n/a	n/a	n/a	n/a	n/a	n/a	feedback	s631
303.228	0.0	n/a	-1.0	n/a	columbia_card_task_fmri	n/a	n/a	-1.0	n/a	n/a	n/a	n/a	n/a	n/a	n/a	n/a	ITI	s631
303.233	0.588	3.2912354066467984	draw_card	0.0	columbia_card_task_fmri	15.0	0.8333333333333334	89.0	-75.0	0.1666666666666666	12.0	1.0	2.0	0.7161416766876911	0.588	n/a	stim	s631
303.825	0.527	1.9275990430104333	draw_card	0.0	columbia_card_task_fmri	15.0	0.8181818181818181	89.0	-75.0	0.1818181818181818	12.0	2.0	2.0	1.8822248578826264	0.527	n/a	stim	s631
304.356	0.477	0.2912354066467983	draw_card	0.0	columbia_card_task_fmri	15.0	0.8	89.0	-75.0	0.2	12.0	3.0	2.0	3.1641660827563958	0.477	n/a	stim	s631
304.838	0.587	-1.7087645933532	draw_card	1.0	columbia_card_task_fmri	15.0	0.7777777777777778	89.0	-75.0	0.2222222222222222	12.0	4.0	2.0	4.575078215254408	0.587	4.0	stim	s631
305.429	2.25	n/a	-1.0	n/a	columbia_card_task_fmri	n/a	n/a	-1.0	n/a	n/a	n/a	n/a	n/a	n/a	n/a	n/a	feedback	s631
307.679	0.408	n/a	-1.0	n/a	columbia_card_task_fmri	n/a	n/a	-1.0	n/a	n/a	n/a	n/a	n/a	n/a	n/a	n/a	ITI	s631
308.091	1.061	2.2912354066467984	draw_card	0.0	columbia_card_task_fmri	15.0	0.8	89.0	-65.0	0.2	15.0	1.0	3.0	-0.817160154523755	1.061	n/a	stim	s631
309.157	0.319	1.148378263789656	draw_card	0.0	columbia_card_task_fmri	15.0	0.7857142857142857	89.0	-65.0	0.2142857142857142	15.0	2.0	3.0	0.0046854912855067	0.319	n/a	stim	s631
309.479	0.289	-0.170303054891665	draw_card	0.0	columbia_card_task_fmri	15.0	0.7692307692307692	89.0	-65.0	0.2307692307692307	15.0	3.0	3.0	0.8803407898698552	0.289	n/a	stim	s631
309.773	0.758	-1.7087645933532016	draw_card	0.0	columbia_card_task_fmri	15.0	0.75	89.0	-65.0	0.25	15.0	4.0	3.0	1.8110461759321268	0.758	n/a	stim	s631
310.535	0.61	-3.526946411535018	draw_card	1.0	columbia_card_task_fmri	15.0	0.7272727272727273	89.0	-65.0	0.2727272727272727	15.0	5.0	3.0	2.794664780536621	0.61	5.0	stim	s631
311.149	2.25	n/a	-1.0	n/a	columbia_card_task_fmri	n/a	n/a	-1.0	n/a	n/a	n/a	n/a	n/a	n/a	n/a	n/a	feedback	s631
313.399	0.204	n/a	-1.0	n/a	columbia_card_task_fmri	n/a	n/a	-1.0	n/a	n/a	n/a	n/a	n/a	n/a	n/a	n/a	ITI	s631
313.605	0.397	1.5412354066467984	draw_card	1.0	columbia_card_task_fmri	14.0	0.8125	89.0	-70.0	0.1875	16.0	1.0	3.0	-0.0349483281642832	0.397	1.0	stim	s631
314.006	2.25	n/a	-1.0	n/a	columbia_card_task_fmri	n/a	n/a	-1.0	n/a	n/a	n/a	n/a	n/a	n/a	n/a	n/a	feedback	s631
316.256	0.136	n/a	-1.0	n/a	columbia_card_task_fmri	n/a	n/a	-1.0	n/a	n/a	n/a	n/a	n/a	n/a	n/a	n/a	ITI	s631
316.396	0.487	1.4787354066467984	draw_card	0.0	columbia_card_task_fmri	11.0	0.6875	89.0	-30.0	0.3125	16.0	1.0	5.0	-13.699066878131454	0.487	n/a	stim	s631
316.885	0.666	0.6245687399801323	draw_card	0.0	columbia_card_task_fmri	11.0	0.6666666666666667	89.0	-30.0	0.3333333333333333	16.0	2.0	5.0	-13.380158494395465	0.666	n/a	stim	s631
317.554	0.707	-0.3516217362103457	draw_card	0.0	columbia_card_task_fmri	11.0	0.6428571428571428	89.0	-30.0	0.3571428571428571	16.0	3.0	5.0	-13.066728856629515	0.707	n/a	stim	s631
318.264	1.908	-1.47799536258397	draw_card	0.0	columbia_card_task_fmri	11.0	0.6153846153846154	89.0	-30.0	0.3846153846153846	16.0	4.0	5.0	-12.769587693758456	1.908	n/a	stim	s631
320.175	1.75	-2.792097926686536	draw_card	1.0	columbia_card_task_fmri	11.0	0.5833333333333333	89.0	-30.0	0.4166666666666667	16.0	5.0	5.0	-12.506500262139006	1.75	5.0	stim	s631
321.93	2.25	n/a	-1.0	n/a	columbia_card_task_fmri	n/a	n/a	-1.0	n/a	n/a	n/a	n/a	n/a	n/a	n/a	n/a	feedback	s631
324.18	0.34	n/a	-1.0	n/a	columbia_card_task_fmri	n/a	n/a	-1.0	n/a	n/a	n/a	n/a	n/a	n/a	n/a	n/a	ITI	s631
324.524	0.525	6.291235406646798	draw_card	0.0	columbia_card_task_fmri	15.0	0.8666666666666667	89.0	-75.0	0.1333333333333333	15.0	1.0	2.0	-2.215329404040265	0.525	n/a	stim	s631
325.053	1.082	5.434092549503943	draw_card	0.0	columbia_card_task_fmri	15.0	0.8571428571428572	89.0	-75.0	0.1428571428571428	15.0	2.0	2.0	-1.3210199754254075	1.082	n/a	stim	s631
326.139	1.21	4.445081560492952	draw_card	0.0	columbia_card_task_fmri	15.0	0.8461538461538461	89.0	-75.0	0.1538461538461538	15.0	3.0	2.0	-0.34749273613334	1.21	n/a	stim	s631
327.353	0.287	3.2912354066467984	draw_card	0.0	columbia_card_task_fmri	15.0	0.8333333333333334	89.0	-75.0	0.1666666666666666	15.0	4.0	2.0	0.7161416766876911	0.287	n/a	stim	s631
327.644	0.365	1.9275990430104333	draw_card	0.0	columbia_card_task_fmri	15.0	0.8181818181818181	89.0	-75.0	0.1818181818181818	15.0	5.0	2.0	1.8822248578826264	0.365	n/a	stim	s631
328.013	0.298	0.2912354066467983	draw_card	0.0	columbia_card_task_fmri	15.0	0.8	89.0	-75.0	0.2	15.0	6.0	2.0	3.1641660827563958	0.298	n/a	stim	s631
328.316	0.413	-1.7087645933532	draw_card	0.0	columbia_card_task_fmri	15.0	0.7777777777777778	89.0	-75.0	0.2222222222222222	15.0	7.0	2.0	4.575078215254408	0.413	n/a	stim	s631
328.732	0.61	-4.208764593353202	draw_card	1.0	columbia_card_task_fmri	15.0	0.75	89.0	-75.0	0.25	15.0	8.0	2.0	6.1239053215693104	0.61	8.0	stim	s631
329.346	2.25	n/a	-1.0	n/a	columbia_card_task_fmri	n/a	n/a	-1.0	n/a	n/a	n/a	n/a	n/a	n/a	n/a	n/a	feedback	s631
331.596	0.068	n/a	-1.0	n/a	columbia_card_task_fmri	n/a	n/a	-1.0	n/a	n/a	n/a	n/a	n/a	n/a	n/a	n/a	ITI	s631
331.668	0.551	8.024568739980133	draw_card	0.0	columbia_card_task_fmri	17.0	0.8666666666666667	89.0	-75.0	0.1333333333333333	15.0	1.0	2.0	-1.5392762638805948	0.551	n/a	stim	s631
332.224	0.368	7.148378263789658	draw_card	0.0	columbia_card_task_fmri	17.0	0.8571428571428572	89.0	-75.0	0.1428571428571428	15.0	2.0	2.0	-0.6248746737325135	0.368	n/a	stim	s631
332.596	0.276	6.137389252800645	draw_card	0.0	columbia_card_task_fmri	17.0	0.8461538461538461	89.0	-75.0	0.1538461538461538	15.0	3.0	2.0	0.3705108641375787	0.276	n/a	stim	s631
332.876	0.241	4.957902073313466	draw_card	1.0	columbia_card_task_fmri	17.0	0.8333333333333334	89.0	-75.0	0.1666666666666666	15.0	4.0	2.0	1.458011901719857	0.241	4.0	stim	s631
333.12	2.25	n/a	-1.0	n/a	columbia_card_task_fmri	n/a	n/a	-1.0	n/a	n/a	n/a	n/a	n/a	n/a	n/a	n/a	feedback	s631
335.37	0.34	n/a	-1.0	n/a	columbia_card_task_fmri	n/a	n/a	-1.0	n/a	n/a	n/a	n/a	n/a	n/a	n/a	n/a	ITI	s631
335.714	0.498	3.6037354066467984	draw_card	0.0	columbia_card_task_fmri	2.0	0.9375	89.0	-25.0	0.0625	16.0	1.0	1.0	-25.668381860848555	0.498	n/a	stim	s631
336.216	0.376	3.4912354066467985	draw_card	0.0	columbia_card_task_fmri	2.0	0.9333333333333332	89.0	-25.0	0.0666666666666666	16.0	2.0	1.0	-25.48982079129361	0.376	n/a	stim	s631
336.597	0.38	3.36266397807537	draw_card	0.0	columbia_card_task_fmri	2.0	0.9285714285714286	89.0	-25.0	0.0714285714285714	16.0	3.0	1.0	-25.292837064345846	0.38	n/a	stim	s631
336.981	0.46	3.2143123297237217	draw_card	0.0	columbia_card_task_fmri	2.0	0.9230769230769232	89.0	-25.0	0.0769230769230769	16.0	4.0	1.0	-25.074233919108107	0.46	n/a	stim	s631
337.447	0.566	3.0412354066467984	draw_card	1.0	columbia_card_task_fmri	2.0	0.9166666666666666	89.0	-25.0	0.0833333333333333	16.0	5.0	1.0	-24.8300056219582	0.566	5.0	stim	s631
338.016	2.25	n/a	-1.0	n/a	columbia_card_task_fmri	n/a	n/a	-1.0	n/a	n/a	n/a	n/a	n/a	n/a	n/a	n/a	feedback	s631
340.266	0.136	n/a	-1.0	n/a	columbia_card_task_fmri	n/a	n/a	-1.0	n/a	n/a	n/a	n/a	n/a	n/a	n/a	n/a	ITI	s631
340.406	0.377	5.791235406646798	draw_card	0.0	columbia_card_task_fmri	9.0	0.9375	89.0	-95.0	0.0625	16.0	1.0	1.0	-7.597344464888884	0.377	n/a	stim	s631
340.787	0.433	5.357902073313466	draw_card	0.0	columbia_card_task_fmri	9.0	0.9333333333333332	89.0	-95.0	0.0666666666666666	16.0	2.0	1.0	-6.835867430432295	0.433	n/a	stim	s631
341.224	0.254	4.86266397807537	draw_card	0.0	columbia_card_task_fmri	9.0	0.9285714285714286	89.0	-95.0	0.0714285714285714	16.0	3.0	1.0	-6.000417079070843	0.254	n/a	stim	s631
341.482	0.201	4.291235406646798	draw_card	0.0	columbia_card_task_fmri	9.0	0.9230769230769232	89.0	-95.0	0.0769230769230769	16.0	4.0	1.0	-5.078402673046721	0.201	n/a	stim	s631
341.686	0.273	3.624568739980132	draw_card	0.0	columbia_card_task_fmri	9.0	0.9166666666666666	89.0	-95.0	0.0833333333333333	16.0	5.0	1.0	-4.054075153665295	0.273	n/a	stim	s631
341.962	0.31	2.836689952101344	draw_card	0.0	columbia_card_task_fmri	9.0	0.9090909090909092	89.0	-95.0	0.0909090909090909	16.0	6.0	1.0	-2.9074624217827925	0.31	n/a	stim	s631
342.276	0.705	1.891235406646798	draw_card	0.0	columbia_card_task_fmri	9.0	0.9	89.0	-95.0	0.1	16.0	7.0	1.0	-1.6128553237260093	0.705	n/a	stim	s631
342.985	0.994	0.735679851091243	draw_card	0.0	columbia_card_task_fmri	9.0	0.8888888888888888	89.0	-95.0	0.1111111111111111	16.0	8.0	1.0	-0.1366284161353803	0.994	n/a	stim	s631
343.982	0.358	-0.7087645933532016	draw_card	1.0	columbia_card_task_fmri	9.0	0.875	89.0	-95.0	0.125	16.0	9.0	1.0	1.5659088781983783	0.358	9.0	stim	s631
344.344	2.25	n/a	-1.0	n/a	columbia_card_task_fmri	n/a	n/a	-1.0	n/a	n/a	n/a	n/a	n/a	n/a	n/a	n/a	feedback	s631
346.594	0.068	n/a	-1.0	n/a	columbia_card_task_fmri	n/a	n/a	-1.0	n/a	n/a	n/a	n/a	n/a	n/a	n/a	n/a	ITI	s631
346.666	0.339	7.353735406646798	draw_card	0.0	columbia_card_task_fmri	11.0	0.9375	89.0	-100.0	0.0625	16.0	1.0	1.0	-5.916320845491818	0.339	n/a	stim	s631
347.01	0.245	6.891235406646799	draw_card	0.0	columbia_card_task_fmri	11.0	0.9333333333333332	89.0	-100.0	0.0666666666666666	16.0	2.0	1.0	-5.102779471737254	0.245	n/a	stim	s631
347.259	0.203	6.362663978075371	draw_card	0.0	columbia_card_task_fmri	11.0	0.9285714285714286	89.0	-100.0	0.0714285714285714	16.0	3.0	1.0	-4.210259750160596	0.203	n/a	stim	s631
347.465	0.26	5.752773868185261	draw_card	0.0	columbia_card_task_fmri	11.0	0.9230769230769232	89.0	-100.0	0.0769230769230769	16.0	4.0	1.0	-3.2253210657882185	0.26	n/a	stim	s631
347.729	0.237	5.041235406646798	draw_card	0.0	columbia_card_task_fmri	11.0	0.9166666666666666	89.0	-100.0	0.0833333333333333	16.0	5.0	1.0	-2.131151528035069	0.237	n/a	stim	s631
347.969	0.402	4.200326315737707	draw_card	0.0	columbia_card_task_fmri	11.0	0.9090909090909092	89.0	-100.0	0.0909090909090909	16.0	6.0	1.0	-0.906431514901982	0.402	n/a	stim	s631
348.375	0.495	3.1912354066467987	draw_card	0.0	columbia_card_task_fmri	11.0	0.9	89.0	-100.0	0.1	16.0	7.0	1.0	0.4762823263056788	0.495	n/a	stim	s631
348.873	0.44	1.9579020733134644	draw_card	0.0	columbia_card_task_fmri	11.0	0.8888888888888888	89.0	-100.0	0.1111111111111111	16.0	8.0	1.0	2.052883068579092	0.44	n/a	stim	s631
349.316	0.442	0.4162354066467983	draw_card	0.0	columbia_card_task_fmri	11.0	0.875	89.0	-100.0	0.125	16.0	9.0	1.0	3.871074318821691	0.442	n/a	stim	s631
349.761	1.424	-1.5659074504960575	draw_card	0.0	columbia_card_task_fmri	11.0	0.8571428571428572	89.0	-100.0	0.1428571428571428	16.0	10.0	1.0	5.995130867393804	1.424	n/a	stim	s631
351.189	1.13	-4.208764593353198	draw_card	0.0	columbia_card_task_fmri	11.0	0.8333333333333334	89.0	-100.0	0.1666666666666666	16.0	11.0	1.0	8.512010129435993	1.13	n/a	stim	s631
352.322	1.787	-7.908764593353201	end_round	0.0	columbia_card_task_fmri	11.0	0.8	71.0	-100.0	0.2	16.0	12.0	1.0	11.535848964211098	1.787	11.0	stim	s631
354.113	2.25	n/a	-1.0	n/a	columbia_card_task_fmri	n/a	n/a	-1.0	n/a	n/a	n/a	n/a	n/a	n/a	n/a	n/a	feedback	s631
356.363	0.068	n/a	-1.0	n/a	columbia_card_task_fmri	n/a	n/a	-1.0	n/a	n/a	n/a	n/a	n/a	n/a	n/a	n/a	ITI	s631
356.436	1.032	7.916235406646798	draw_card	0.0	columbia_card_task_fmri	16.0	0.875	89.0	-75.0	0.125	16.0	1.0	2.0	-2.711117461954071	1.032	n/a	stim	s631
357.472	0.146	7.1579020733134655	draw_card	0.0	columbia_card_task_fmri	16.0	0.8666666666666667	89.0	-75.0	0.1333333333333333	16.0	2.0	2.0	-1.8773236254968104	0.146	n/a	stim	s631
357.622	0.147	6.2912354066468	draw_card	1.0	columbia_card_task_fmri	16.0	0.8571428571428572	89.0	-75.0	0.1428571428571428	16.0	3.0	2.0	-0.9729675415045378	0.147	3.0	stim	s631
357.773	2.25	n/a	-1.0	n/a	columbia_card_task_fmri	n/a	n/a	-1.0	n/a	n/a	n/a	n/a	n/a	n/a	n/a	n/a	feedback	s631
360.023	0.068	n/a	-1.0	n/a	columbia_card_task_fmri	n/a	n/a	-1.0	n/a	n/a	n/a	n/a	n/a	n/a	n/a	n/a	ITI	s631
360.096	0.358	8.166235406646798	draw_card	0.0	columbia_card_task_fmri	17.0	0.875	89.0	-80.0	0.125	16.0	1.0	2.0	-0.7378428898555853	0.358	n/a	stim	s631
360.458	0.181	7.357902073313467	draw_card	0.0	columbia_card_task_fmri	17.0	0.8666666666666667	89.0	-80.0	0.1333333333333333	16.0	2.0	2.0	0.151539743471929	0.181	n/a	stim	s631
360.643	0.243	6.434092549503944	draw_card	0.0	columbia_card_task_fmri	17.0	0.8571428571428572	89.0	-80.0	0.1428571428571428	16.0	3.0	2.0	1.1161528319570737	0.243	n/a	stim	s631
360.89	0.233	5.368158483569875	draw_card	0.0	columbia_card_task_fmri	17.0	0.8461538461538461	89.0	-80.0	0.1538461538461538	16.0	4.0	2.0	2.166164679110871	0.233	n/a	stim	s631
361.127	0.373	4.124568739980134	draw_card	0.0	columbia_card_task_fmri	17.0	0.8333333333333334	89.0	-80.0	0.1666666666666666	16.0	5.0	2.0	3.31331229048309	0.373	n/a	stim	s631
361.504	0.312	2.65487177028316	draw_card	1.0	columbia_card_task_fmri	17.0	0.8181818181818181	89.0	-80.0	0.1818181818181818	16.0	6.0	2.0	4.570897460284343	0.312	6.0	stim	s631
361.819	2.25	n/a	-1.0	n/a	columbia_card_task_fmri	n/a	n/a	-1.0	n/a	n/a	n/a	n/a	n/a	n/a	n/a	n/a	feedback	s631
364.069	0.136	n/a	-1.0	n/a	columbia_card_task_fmri	n/a	n/a	-1.0	n/a	n/a	n/a	n/a	n/a	n/a	n/a	n/a	ITI	s631
375.21	2.415	2.457902073313466	draw_card	0.0	columbia_card_task_fmri	13.0	0.8333333333333334	89.0	-70.0	0.1666666666666666	6.0	1.0	1.0	-1.879091673035184	2.415	n/a	stim	s631
377.629	0.88	-0.3087645933532013	draw_card	1.0	columbia_card_task_fmri	13.0	0.8	89.0	-70.0	0.2	6.0	2.0	1.0	0.3767686533423457	0.88	2.0	stim	s631
378.514	2.25	n/a	-1.0	n/a	columbia_card_task_fmri	n/a	n/a	-1.0	n/a	n/a	n/a	n/a	n/a	n/a	n/a	n/a	feedback	s631
380.764	0.0	n/a	-1.0	n/a	columbia_card_task_fmri	n/a	n/a	-1.0	n/a	n/a	n/a	n/a	n/a	n/a	n/a	n/a	ITI	s631
380.768	3.321	2.457902073313466	draw_card	0.0	columbia_card_task_fmri	15.0	0.8333333333333334	89.0	-80.0	0.1666666666666666	6.0	1.0	1.0	2.571090610338309	3.321	n/a	stim	s631
384.092	1.173	-0.7087645933532016	draw_card	0.0	columbia_card_task_fmri	15.0	0.8	89.0	-80.0	0.2	6.0	2.0	1.0	5.156294546954918	1.173	n/a	stim	s631
385.27	3.149	-5.458764593353202	draw_card	1.0	columbia_card_task_fmri	15.0	0.75	89.0	-80.0	0.25	6.0	3.0	1.0	8.281691117793756	3.149	3.0	stim	s631
388.423	2.25	n/a	-1.0	n/a	columbia_card_task_fmri	n/a	n/a	-1.0	n/a	n/a	n/a	n/a	n/a	n/a	n/a	n/a	feedback	s631
390.673	0.136	n/a	-1.0	n/a	columbia_card_task_fmri	n/a	n/a	-1.0	n/a	n/a	n/a	n/a	n/a	n/a	n/a	n/a	ITI	s631
390.813	0.411	4.124568739980132	draw_card	0.0	columbia_card_task_fmri	16.0	0.8333333333333334	89.0	-75.0	0.1666666666666666	6.0	1.0	1.0	1.087057770775246	0.411	n/a	stim	s631
391.228	0.408	1.091235406646799	draw_card	0.0	columbia_card_task_fmri	16.0	0.8	89.0	-75.0	0.2	6.0	2.0	1.0	3.562522992122368	0.408	n/a	stim	s631
391.641	0.35	-3.4587645933532016	draw_card	0.0	columbia_card_task_fmri	16.0	0.75	89.0	-75.0	0.25	6.0	3.0	1.0	6.5553988301426855	0.35	n/a	stim	s631
391.995	1.871	-11.042097926686534	draw_card	0.0	columbia_card_task_fmri	16.0	0.6666666666666667	89.0	-75.0	0.3333333333333333	6.0	4.0	1.0	10.037913850910565	1.871	n/a	stim	s631
393.871	1.209	-26.2087645933532	end_round	0.0	columbia_card_task_fmri	16.0	0.5	71.0	-75.0	0.5	6.0	5.0	1.0	12.632911695725577	1.209	4.0	stim	s631
395.084	2.25	n/a	-1.0	n/a	columbia_card_task_fmri	n/a	n/a	-1.0	n/a	n/a	n/a	n/a	n/a	n/a	n/a	n/a	feedback	s631
397.334	0.34	n/a	-1.0	n/a	columbia_card_task_fmri	n/a	n/a	-1.0	n/a	n/a	n/a	n/a	n/a	n/a	n/a	n/a	ITI	s631
397.679	0.678	5.291235406646798	draw_card	0.0	columbia_card_task_fmri	21.0	0.75	89.0	-55.0	0.25	8.0	1.0	2.0	0.0871660711926125	0.678	n/a	stim	s631
398.362	0.297	2.576949692361085	draw_card	0.0	columbia_card_task_fmri	21.0	0.7142857142857143	89.0	-55.0	0.2857142857142857	8.0	2.0	2.0	1.5047221362049117	0.297	n/a	stim	s631
398.664	0.34	-1.042097926686532	draw_card	1.0	columbia_card_task_fmri	21.0	0.6666666666666667	89.0	-55.0	0.3333333333333333	8.0	3.0	2.0	2.991632669445337	0.34	3.0	stim	s631
399.009	2.25	n/a	-1.0	n/a	columbia_card_task_fmri	n/a	n/a	-1.0	n/a	n/a	n/a	n/a	n/a	n/a	n/a	n/a	feedback	s631
401.259	0.408	n/a	-1.0	n/a	columbia_card_task_fmri	n/a	n/a	-1.0	n/a	n/a	n/a	n/a	n/a	n/a	n/a	n/a	ITI	s631
401.671	0.712	6.541235406646798	draw_card	0.0	columbia_card_task_fmri	26.0	0.75	89.0	-65.0	0.25	8.0	1.0	2.0	6.5553988301426855	0.712	n/a	stim	s631
402.387	0.384	3.291235406646802	draw_card	0.0	columbia_card_task_fmri	26.0	0.7142857142857143	89.0	-65.0	0.2857142857142857	8.0	2.0	2.0	8.255178796482866	0.384	n/a	stim	s631
402.774	0.449	-1.0420979266865302	draw_card	0.0	columbia_card_task_fmri	26.0	0.6666666666666667	89.0	-65.0	0.3333333333333333	8.0	3.0	2.0	10.037913850910565	0.449	n/a	stim	s631
403.227	2.387	-7.108764593353202	draw_card	1.0	columbia_card_task_fmri	26.0	0.6	89.0	-65.0	0.4	8.0	4.0	2.0	11.716069823948736	2.387	4.0	stim	s631
405.618	2.25	n/a	-1.0	n/a	columbia_card_task_fmri	n/a	n/a	-1.0	n/a	n/a	n/a	n/a	n/a	n/a	n/a	n/a	feedback	s631
407.868	0.136	n/a	-1.0	n/a	columbia_card_task_fmri	n/a	n/a	-1.0	n/a	n/a	n/a	n/a	n/a	n/a	n/a	n/a	ITI	s631
408.008	0.446	1.6245687399801323	draw_card	0.0	columbia_card_task_fmri	15.0	0.7777777777777778	89.0	-60.0	0.2222222222222222	9.0	1.0	2.0	-1.6322693148384566	0.446	n/a	stim	s631
408.458	0.363	-0.4587645933532016	draw_card	1.0	columbia_card_task_fmri	15.0	0.75	89.0	-60.0	0.25	9.0	2.0	2.0	-0.3436687898691204	0.363	2.0	stim	s631
408.827	2.25	n/a	-1.0	n/a	columbia_card_task_fmri	n/a	n/a	-1.0	n/a	n/a	n/a	n/a	n/a	n/a	n/a	n/a	feedback	s631
411.077	0.136	n/a	-1.0	n/a	columbia_card_task_fmri	n/a	n/a	-1.0	n/a	n/a	n/a	n/a	n/a	n/a	n/a	n/a	ITI	s631
411.217	0.281	5.991235406646799	draw_card	0.0	columbia_card_task_fmri	13.0	0.9	89.0	-90.0	0.1	10.0	1.0	1.0	-1.9111840217041127	0.281	n/a	stim	s631
411.503	0.687	4.846790962202354	draw_card	0.0	columbia_card_task_fmri	13.0	0.8888888888888888	89.0	-90.0	0.1111111111111111	10.0	2.0	1.0	-0.4493014994872908	0.687	n/a	stim	s631
412.195	0.494	3.4162354066467984	draw_card	1.0	columbia_card_task_fmri	13.0	0.875	89.0	-90.0	0.125	10.0	3.0	1.0	1.236708270811306	0.494	3.0	stim	s631
412.695	2.25	n/a	-1.0	n/a	columbia_card_task_fmri	n/a	n/a	-1.0	n/a	n/a	n/a	n/a	n/a	n/a	n/a	n/a	feedback	s631
414.945	0.0	n/a	-1.0	n/a	columbia_card_task_fmri	n/a	n/a	-1.0	n/a	n/a	n/a	n/a	n/a	n/a	n/a	n/a	ITI	s631
414.95	0.417	7.291235406646798	draw_card	1.0	columbia_card_task_fmri	15.0	0.9	89.0	-95.0	0.1	10.0	1.0	1.0	0.177750084679829	0.417	1.0	stim	s631
415.372	2.25	n/a	-1.0	n/a	columbia_card_task_fmri	n/a	n/a	-1.0	n/a	n/a	n/a	n/a	n/a	n/a	n/a	n/a	feedback	s631
417.622	0.068	n/a	-1.0	n/a	columbia_card_task_fmri	n/a	n/a	-1.0	n/a	n/a	n/a	n/a	n/a	n/a	n/a	n/a	ITI	s631
417.696	1.497	3.091235406646799	draw_card	0.0	columbia_card_task_fmri	16.0	0.8	89.0	-65.0	0.2	10.0	1.0	2.0	-0.4192334722707826	1.497	n/a	stim	s631
419.198	0.903	1.2912354066468	draw_card	0.0	columbia_card_task_fmri	16.0	0.7777777777777778	89.0	-65.0	0.2222222222222222	10.0	2.0	2.0	0.8494010171346034	0.903	n/a	stim	s631
420.106	0.434	-0.9587645933532016	draw_card	0.0	columbia_card_task_fmri	16.0	0.75	89.0	-65.0	0.25	10.0	3.0	2.0	2.2421414458264977	0.434	n/a	stim	s631
420.545	0.37	-3.851621736210342	draw_card	0.0	columbia_card_task_fmri	16.0	0.7142857142857143	89.0	-65.0	0.2857142857142857	10.0	4.0	2.0	3.7538167768042072	0.37	n/a	stim	s631
420.921	0.324	-7.708764593353198	draw_card	0.0	columbia_card_task_fmri	16.0	0.6666666666666667	89.0	-65.0	0.3333333333333333	10.0	5.0	2.0	5.339378600089525	0.324	n/a	stim	s631
421.25	1.487	-13.1087645933532	draw_card	0.0	columbia_card_task_fmri	16.0	0.6	89.0	-65.0	0.4	10.0	6.0	2.0	6.832020278140512	1.487	n/a	stim	s631
422.741	1.462	-21.2087645933532	end_round	0.0	columbia_card_task_fmri	16.0	0.5	71.0	-65.0	0.5	10.0	7.0	2.0	7.647542674063303	1.462	6.0	stim	s631
424.207	2.25	n/a	-1.0	n/a	columbia_card_task_fmri	n/a	n/a	-1.0	n/a	n/a	n/a	n/a	n/a	n/a	n/a	n/a	feedback	s631
426.457	0.0	n/a	-1.0	n/a	columbia_card_task_fmri	n/a	n/a	-1.0	n/a	n/a	n/a	n/a	n/a	n/a	n/a	n/a	ITI	s631
426.461	1.444	1.7912354066467984	draw_card	0.0	columbia_card_task_fmri	7.0	0.9166666666666666	89.0	-95.0	0.0833333333333333	12.0	1.0	1.0	-4.603187974058727	1.444	n/a	stim	s631
427.911	0.192	1.018508133919525	draw_card	0.0	columbia_card_task_fmri	7.0	0.9090909090909092	89.0	-95.0	0.0909090909090909	12.0	2.0	1.0	-3.478902547539217	0.192	n/a	stim	s631
428.109	0.166	0.0912354066467981	draw_card	0.0	columbia_card_task_fmri	7.0	0.9	89.0	-95.0	0.1	12.0	3.0	1.0	-2.2094802277201104	0.166	n/a	stim	s631
428.28	0.179	-1.0420979266865356	draw_card	0.0	columbia_card_task_fmri	7.0	0.8888888888888888	89.0	-95.0	0.1111111111111111	12.0	4.0	1.0	-0.7619435198193258	0.179	n/a	stim	s631
428.463	0.389	-2.4587645933532016	draw_card	0.0	columbia_card_task_fmri	7.0	0.875	89.0	-95.0	0.125	12.0	5.0	1.0	0.9075372254453812	0.389	n/a	stim	s631
428.856	0.619	-4.280193164781773	draw_card	0.0	columbia_card_task_fmri	7.0	0.8571428571428572	89.0	-95.0	0.1428571428571428	12.0	6.0	1.0	2.8580186390745865	0.619	n/a	stim	s631
429.478	0.374	-6.7087645933532	draw_card	0.0	columbia_card_task_fmri	7.0	0.8333333333333334	89.0	-95.0	0.1666666666666666	12.0	7.0	1.0	5.16940111350327	0.374	n/a	stim	s631
429.857	0.889	-10.1087645933532	draw_card	0.0	columbia_card_task_fmri	7.0	0.8	89.0	-95.0	0.2	12.0	8.0	1.0	7.946564164513703	0.889	n/a	stim	s631
430.749	1.309	-15.208764593353202	draw_card	0.0	columbia_card_task_fmri	7.0	0.75	89.0	-95.0	0.25	12.0	9.0	1.0	11.303784607434435	1.309	n/a	stim	s631
432.062	1.86	-23.7087645933532	end_round	0.0	columbia_card_task_fmri	7.0	0.6666666666666667	71.0	-95.0	0.3333333333333333	12.0	10.0	1.0	15.209801338246493	1.86	9.0	stim	s631
433.926	2.25	n/a	-1.0	n/a	columbia_card_task_fmri	n/a	n/a	-1.0	n/a	n/a	n/a	n/a	n/a	n/a	n/a	n/a	feedback	s631
436.176	0.0	n/a	-1.0	n/a	columbia_card_task_fmri	n/a	n/a	-1.0	n/a	n/a	n/a	n/a	n/a	n/a	n/a	n/a	ITI	s631
436.18	1.245	2.457902073313466	draw_card	0.0	columbia_card_task_fmri	14.0	0.8333333333333334	89.0	-75.0	0.1666666666666666	12.0	1.0	2.0	0.3452648893006369	1.245	n/a	stim	s631
437.429	0.375	1.109417224828615	draw_card	0.0	columbia_card_task_fmri	14.0	0.8181818181818181	89.0	-75.0	0.1818181818181818	12.0	2.0	2.0	1.4982715071501571	0.375	n/a	stim	s631
437.81	0.3	-0.5087645933532006	draw_card	0.0	columbia_card_task_fmri	14.0	0.8	89.0	-75.0	0.2	12.0	3.0	2.0	2.7658458644914745	0.3	n/a	stim	s631
438.116	0.377	-2.4865423711309766	draw_card	0.0	columbia_card_task_fmri	14.0	0.7777777777777778	89.0	-75.0	0.2222222222222222	12.0	4.0	2.0	4.160955447243737	0.377	n/a	stim	s631
438.498	1.656	-4.958764593353202	draw_card	0.0	columbia_card_task_fmri	14.0	0.75	89.0	-75.0	0.25	12.0	5.0	2.0	5.69244576869604	1.656	n/a	stim	s631
440.158	2.321	-8.137336021924629	draw_card	0.0	columbia_card_task_fmri	14.0	0.7142857142857143	89.0	-75.0	0.2857142857142857	12.0	6.0	2.0	7.354617050768162	2.321	n/a	stim	s631
442.483	4.719	-12.375431260019868	draw_card	1.0	columbia_card_task_fmri	14.0	0.6666666666666667	89.0	-75.0	0.3333333333333333	12.0	7.0	2.0	9.097929282274258	4.719	7.0	stim	s631
447.207	2.25	n/a	-1.0	n/a	columbia_card_task_fmri	n/a	n/a	-1.0	n/a	n/a	n/a	n/a	n/a	n/a	n/a	n/a	feedback	s631
449.457	0.136	n/a	-1.0	n/a	columbia_card_task_fmri	n/a	n/a	-1.0	n/a	n/a	n/a	n/a	n/a	n/a	n/a	n/a	ITI	s631
449.598	1.981	4.124568739980132	draw_card	1.0	columbia_card_task_fmri	15.0	0.8333333333333334	89.0	-70.0	0.1666666666666666	12.0	1.0	2.0	-1.1378217314431147	1.981	1.0	stim	s631
451.584	2.25	n/a	-1.0	n/a	columbia_card_task_fmri	n/a	n/a	-1.0	n/a	n/a	n/a	n/a	n/a	n/a	n/a	n/a	feedback	s631
453.834	0.136	n/a	-1.0	n/a	columbia_card_task_fmri	n/a	n/a	-1.0	n/a	n/a	n/a	n/a	n/a	n/a	n/a	n/a	ITI	s631
453.976	1.095	2.091235406646799	draw_card	0.0	columbia_card_task_fmri	16.0	0.8	89.0	-70.0	0.2	15.0	1.0	3.0	1.5711180432552825	1.095	n/a	stim	s631
455.078	0.282	0.8626639780753695	draw_card	0.0	columbia_card_task_fmri	16.0	0.7857142857142857	89.0	-70.0	0.2142857142857142	15.0	2.0	3.0	2.455209927269273	0.282	n/a	stim	s631
455.366	0.435	-0.5549184395070483	draw_card	1.0	columbia_card_task_fmri	16.0	0.7692307692307692	89.0	-70.0	0.2307692307692307	15.0	3.0	3.0	3.3971544917726177	0.435	3.0	stim	s631
455.807	2.25	n/a	-1.0	n/a	columbia_card_task_fmri	n/a	n/a	-1.0	n/a	n/a	n/a	n/a	n/a	n/a	n/a	n/a	feedback	s631
458.057	0.476	n/a	-1.0	n/a	columbia_card_task_fmri	n/a	n/a	-1.0	n/a	n/a	n/a	n/a	n/a	n/a	n/a	n/a	ITI	s631
458.539	0.444	2.4787354066467984	draw_card	0.0	columbia_card_task_fmri	14.0	0.8125	89.0	-65.0	0.1875	16.0	1.0	3.0	-1.9761382179296163	0.444	n/a	stim	s631
458.989	0.502	1.4912354066467994	draw_card	1.0	columbia_card_task_fmri	14.0	0.8	89.0	-65.0	0.2	16.0	2.0	3.0	-1.2150347653796167	0.502	2.0	stim	s631
459.496	2.25	n/a	-1.0	n/a	columbia_card_task_fmri	n/a	n/a	-1.0	n/a	n/a	n/a	n/a	n/a	n/a	n/a	n/a	feedback	s631
461.746	0.204	n/a	-1.0	n/a	columbia_card_task_fmri	n/a	n/a	-1.0	n/a	n/a	n/a	n/a	n/a	n/a	n/a	n/a	ITI	s631
461.954	1.497	2.2287354066467984	draw_card	0.0	columbia_card_task_fmri	16.0	0.8125	89.0	-75.0	0.1875	16.0	1.0	3.0	2.684619161312746	1.497	n/a	stim	s631
463.456	1.312	1.091235406646799	draw_card	0.0	columbia_card_task_fmri	16.0	0.8	89.0	-75.0	0.2	16.0	2.0	3.0	3.562522992122368	1.312	n/a	stim	s631
464.774	1.504	-0.2087645933531998	draw_card	0.0	columbia_card_task_fmri	16.0	0.7857142857142857	89.0	-75.0	0.2142857142857142	16.0	3.0	3.0	4.498458004160938	1.504	n/a	stim	s631
466.283	4.007	-1.7087645933532052	draw_card	0.0	columbia_card_task_fmri	16.0	0.7692307692307692	89.0	-75.0	0.2307692307692307	16.0	4.0	3.0	5.4956145020243525	4.007	n/a	stim	s631
470.296	0.768	-3.4587645933532016	end_round	0.0	columbia_card_task_fmri	16.0	0.75	71.0	-75.0	0.25	16.0	5.0	3.0	6.5553988301426855	0.768	4.0	stim	s631
471.07	2.25	n/a	-1.0	n/a	columbia_card_task_fmri	n/a	n/a	-1.0	n/a	n/a	n/a	n/a	n/a	n/a	n/a	n/a	feedback	s631
473.32	0.068	n/a	-1.0	n/a	columbia_card_task_fmri	n/a	n/a	-1.0	n/a	n/a	n/a	n/a	n/a	n/a	n/a	n/a	ITI	s631
473.394	0.529	6.491235406646799	draw_card	1.0	columbia_card_task_fmri	16.0	0.8666666666666667	89.0	-80.0	0.1333333333333333	15.0	1.0	2.0	-0.1866967037336024	0.529	1.0	stim	s631
473.93	2.25	n/a	-1.0	n/a	columbia_card_task_fmri	n/a	n/a	-1.0	n/a	n/a	n/a	n/a	n/a	n/a	n/a	n/a	feedback	s631
476.18	0.068	n/a	-1.0	n/a	columbia_card_task_fmri	n/a	n/a	-1.0	n/a	n/a	n/a	n/a	n/a	n/a	n/a	n/a	ITI	s631
476.254	0.467	7.357902073313467	draw_card	0.0	columbia_card_task_fmri	17.0	0.8666666666666667	89.0	-80.0	0.1333333333333333	15.0	1.0	2.0	0.151539743471929	0.467	n/a	stim	s631
476.727	0.582	6.434092549503944	draw_card	0.0	columbia_card_task_fmri	17.0	0.8571428571428572	89.0	-80.0	0.1428571428571428	15.0	2.0	2.0	1.1161528319570737	0.582	n/a	stim	s631
477.315	0.874	5.368158483569875	draw_card	1.0	columbia_card_task_fmri	17.0	0.8461538461538461	89.0	-80.0	0.1538461538461538	15.0	3.0	2.0	2.166164679110871	0.874	3.0	stim	s631
478.197	2.25	n/a	-1.0	n/a	columbia_card_task_fmri	n/a	n/a	-1.0	n/a	n/a	n/a	n/a	n/a	n/a	n/a	n/a	feedback	s631
480.447	0.34	n/a	-1.0	n/a	columbia_card_task_fmri	n/a	n/a	-1.0	n/a	n/a	n/a	n/a	n/a	n/a	n/a	n/a	ITI	s631
480.792	0.265	3.2912354066467984	draw_card	0.0	columbia_card_task_fmri	1.0	0.9375	89.0	-15.0	0.0625	16.0	1.0	1.0	-27.90342676571028	0.265	n/a	stim	s631
481.063	0.588	3.224568739980132	draw_card	0.0	columbia_card_task_fmri	1.0	0.9333333333333332	89.0	-15.0	0.0666666666666666	16.0	2.0	1.0	-27.812853445286024	0.588	n/a	stim	s631
481.655	0.484	3.148378263789656	draw_card	0.0	columbia_card_task_fmri	1.0	0.9285714285714286	89.0	-15.0	0.0714285714285714	16.0	3.0	1.0	-27.71227697349456	0.484	n/a	stim	s631
482.145	0.459	3.0604661758775675	draw_card	0.0	columbia_card_task_fmri	1.0	0.9230769230769232	89.0	-15.0	0.0769230769230769	16.0	4.0	1.0	-27.59989894303808	0.459	n/a	stim	s631
482.608	0.526	2.957902073313465	draw_card	0.0	columbia_card_task_fmri	1.0	0.9166666666666666	89.0	-15.0	0.0833333333333333	16.0	5.0	1.0	-27.47345672817026	0.526	n/a	stim	s631
483.139	0.543	2.836689952101344	draw_card	0.0	columbia_card_task_fmri	1.0	0.9090909090909092	89.0	-15.0	0.0909090909090909	16.0	6.0	1.0	-27.33006403901437	0.543	n/a	stim	s631
483.686	3.659	2.6912354066467983	draw_card	0.0	columbia_card_task_fmri	1.0	0.9	89.0	-15.0	0.1	16.0	7.0	1.0	-27.16598306378753	3.659	n/a	stim	s631
487.35	0.607	2.5134576288690207	draw_card	0.0	columbia_card_task_fmri	1.0	0.8888888888888888	89.0	-15.0	0.1111111111111111	16.0	8.0	1.0	-26.976294540938728	0.607	n/a	stim	s631
487.962	2.783	2.2912354066467984	draw_card	0.0	columbia_card_task_fmri	1.0	0.875	89.0	-15.0	0.125	16.0	9.0	1.0	-26.75441729054893	2.783	n/a	stim	s631
490.751	1.448	2.005521120932513	draw_card	0.0	columbia_card_task_fmri	1.0	0.8571428571428572	89.0	-15.0	0.1428571428571428	16.0	10.0	1.0	-26.49141930468044	1.448	n/a	stim	s631
492.205	1.134	1.6245687399801318	draw_card	0.0	columbia_card_task_fmri	1.0	0.8333333333333334	89.0	-15.0	0.1666666666666666	16.0	11.0	1.0	-26.17511054896668	1.134	n/a	stim	s631
493.345	1.666	1.0912354066467982	draw_card	0.0	columbia_card_task_fmri	1.0	0.8	89.0	-15.0	0.2	16.0	12.0	1.0	-25.789286592899245	1.666	n/a	stim	s631
495.017	3.078	0.2912354066467983	end_round	0.0	columbia_card_task_fmri	1.0	0.75	71.0	-15.0	0.25	16.0	13.0	1.0	-25.315751392901984	3.078	12.0	stim	s631
498.102	2.25	n/a	-1.0	n/a	columbia_card_task_fmri	n/a	n/a	-1.0	n/a	n/a	n/a	n/a	n/a	n/a	n/a	n/a	feedback	s631
500.352	0.476	n/a	-1.0	n/a	columbia_card_task_fmri	n/a	n/a	-1.0	n/a	n/a	n/a	n/a	n/a	n/a	n/a	n/a	ITI	s631
500.833	3.476	6.416235406646798	draw_card	0.0	columbia_card_task_fmri	10.0	0.9375	89.0	-100.0	0.0625	16.0	1.0	1.0	-6.156570344427799	3.476	n/a	stim	s631
504.316	0.271	5.957902073313465	draw_card	0.0	columbia_card_task_fmri	10.0	0.9333333333333332	89.0	-100.0	0.0666666666666666	16.0	2.0	1.0	-5.350463813532766	0.271	n/a	stim	s631
504.595	0.209	5.434092549503943	draw_card	0.0	columbia_card_task_fmri	10.0	0.9285714285714286	89.0	-100.0	0.0714285714285714	16.0	3.0	1.0	-4.4660938370330605	0.209	n/a	stim	s631
504.809	0.231	4.829696945108338	draw_card	0.0	columbia_card_task_fmri	10.0	0.9230769230769232	89.0	-100.0	0.0769230769230769	16.0	4.0	1.0	-3.490141201681148	0.231	n/a	stim	s631
505.047	0.213	4.124568739980132	draw_card	1.0	columbia_card_task_fmri	10.0	0.9166666666666666	89.0	-100.0	0.0833333333333333	16.0	5.0	1.0	-2.4059458392798945	0.213	5.0	stim	s631
505.268	2.25	n/a	-1.0	n/a	columbia_card_task_fmri	n/a	n/a	-1.0	n/a	n/a	n/a	n/a	n/a	n/a	n/a	n/a	feedback	s631
507.518	0.272	n/a	-1.0	n/a	columbia_card_task_fmri	n/a	n/a	-1.0	n/a	n/a	n/a	n/a	n/a	n/a	n/a	n/a	ITI	s631
507.795	0.44	7.041235406646798	draw_card	0.0	columbia_card_task_fmri	15.0	0.875	89.0	-75.0	0.125	16.0	1.0	2.0	-3.0398547224621915	0.44	n/a	stim	s631
508.24	0.22	6.291235406646798	draw_card	0.0	columbia_card_task_fmri	15.0	0.8666666666666667	89.0	-75.0	0.1333333333333333	16.0	2.0	2.0	-2.215329404040265	0.22	n/a	stim	s631
508.465	0.245	5.434092549503943	draw_card	1.0	columbia_card_task_fmri	15.0	0.8571428571428572	89.0	-75.0	0.1428571428571428	16.0	3.0	2.0	-1.3210199754254075	0.245	3.0	stim	s631
508.714	2.25	n/a	-1.0	n/a	columbia_card_task_fmri	n/a	n/a	-1.0	n/a	n/a	n/a	n/a	n/a	n/a	n/a	n/a	feedback	s631
510.964	0.884	n/a	-1.0	n/a	columbia_card_task_fmri	n/a	n/a	-1.0	n/a	n/a	n/a	n/a	n/a	n/a	n/a	n/a	ITI	s631
511.853	0.392	7.291235406646798	draw_card	0.0	columbia_card_task_fmri	16.0	0.875	89.0	-80.0	0.125	16.0	1.0	2.0	-1.066817033066826	0.392	n/a	stim	s631
512.249	0.246	6.491235406646799	draw_card	0.0	columbia_card_task_fmri	16.0	0.8666666666666667	89.0	-80.0	0.1333333333333333	16.0	2.0	2.0	-0.1866967037336024	0.246	n/a	stim	s631
512.5	0.242	5.576949692361087	draw_card	1.0	columbia_card_task_fmri	16.0	0.8571428571428572	89.0	-80.0	0.1428571428571428	16.0	3.0	2.0	0.7678761147953352	0.242	3.0	stim	s631
512.746	2.25	n/a	-1.0	n/a	columbia_card_task_fmri	n/a	n/a	-1.0	n/a	n/a	n/a	n/a	n/a	n/a	n/a	n/a	feedback	s631
514.996	0.136	n/a	-1.0	n/a	columbia_card_task_fmri	n/a	n/a	-1.0	n/a	n/a	n/a	n/a	n/a	n/a	n/a	n/a	ITI	s631
515.136	0.515	4.478735406646798	draw_card	0.0	columbia_card_task_fmri	4.0	0.6875	89.0	-5.0	0.3125	16.0	1.0	5.0	-27.67234692617351	0.515	n/a	stim	s631
515.655	2.265	4.291235406646798	draw_card	0.0	columbia_card_task_fmri	4.0	0.6666666666666667	89.0	-5.0	0.3333333333333333	16.0	2.0	5.0	-27.61640329603783	2.265	n/a	stim	s631
517.925	0.855	4.076949692361084	draw_card	0.0	columbia_card_task_fmri	4.0	0.6428571428571428	89.0	-5.0	0.3571428571428571	16.0	3.0	5.0	-27.561102671716213	0.855	n/a	stim	s631
518.788	0.635	3.8296969451083367	draw_card	0.0	columbia_card_task_fmri	4.0	0.6153846153846154	89.0	-5.0	0.3846153846153846	16.0	4.0	5.0	-27.508393478853552	0.635	n/a	stim	s631
519.431	0.57	3.541235406646798	draw_card	1.0	columbia_card_task_fmri	4.0	0.5833333333333333	89.0	-5.0	0.4166666666666667	16.0	5.0	5.0	-27.461501966572893	0.57	5.0	stim	s631
520.007	2.25	n/a	-1.0	n/a	columbia_card_task_fmri	n/a	n/a	-1.0	n/a	n/a	n/a	n/a	n/a	n/a	n/a	n/a	feedback	s631
522.257	0.136	n/a	-1.0	n/a	columbia_card_task_fmri	n/a	n/a	-1.0	n/a	n/a	n/a	n/a	n/a	n/a	n/a	n/a	ITI	s631
522.397	2.668	1.624568739980134	draw_card	0.0	columbia_card_task_fmri	14.0	0.8333333333333334	89.0	-80.0	0.1666666666666666	6.0	1.0	1.0	2.2000294619398915	2.668	n/a	stim	s631
525.069	0.599	-1.5087645933532006	draw_card	0.0	columbia_card_task_fmri	14.0	0.8	89.0	-80.0	0.2	6.0	2.0	1.0	4.7578022488899805	0.599	n/a	stim	s631
525.673	0.447	-6.208764593353202	draw_card	0.0	columbia_card_task_fmri	14.0	0.75	89.0	-80.0	0.25	6.0	3.0	1.0	7.850072325867082	0.447	n/a	stim	s631
526.127	1.657	-14.04209792668653	draw_card	1.0	columbia_card_task_fmri	14.0	0.6666666666666667	89.0	-80.0	0.3333333333333333	6.0	4.0	1.0	11.44811510563379	1.657	4.0	stim	s631
527.791	2.25	n/a	-1.0	n/a	columbia_card_task_fmri	n/a	n/a	-1.0	n/a	n/a	n/a	n/a	n/a	n/a	n/a	n/a	feedback	s631
530.041	0.068	n/a	-1.0	n/a	columbia_card_task_fmri	n/a	n/a	-1.0	n/a	n/a	n/a	n/a	n/a	n/a	n/a	n/a	ITI	s631
530.116	0.526	3.2912354066467984	draw_card	0.0	columbia_card_task_fmri	15.0	0.8333333333333334	89.0	-75.0	0.1666666666666666	6.0	1.0	1.0	0.7161416766876911	0.526	n/a	stim	s631
530.646	0.3	0.2912354066467983	draw_card	1.0	columbia_card_task_fmri	15.0	0.8	89.0	-75.0	0.2	6.0	2.0	1.0	3.1641660827563958	0.3	2.0	stim	s631
530.951	2.25	n/a	-1.0	n/a	columbia_card_task_fmri	n/a	n/a	-1.0	n/a	n/a	n/a	n/a	n/a	n/a	n/a	n/a	feedback	s631
533.201	0.068	n/a	-1.0	n/a	columbia_card_task_fmri	n/a	n/a	-1.0	n/a	n/a	n/a	n/a	n/a	n/a	n/a	n/a	ITI	s631
533.272	0.348	4.957902073313466	draw_card	0.0	columbia_card_task_fmri	16.0	0.8333333333333334	89.0	-70.0	0.1666666666666666	6.0	1.0	1.0	-0.7671160593869715	0.348	n/a	stim	s631
533.625	0.36	2.091235406646799	draw_card	0.0	columbia_card_task_fmri	16.0	0.8	89.0	-70.0	0.2	6.0	2.0	1.0	1.5711180432552825	0.36	n/a	stim	s631
533.99	0.599	-2.2087645933532016	draw_card	0.0	columbia_card_task_fmri	16.0	0.75	89.0	-70.0	0.25	6.0	3.0	1.0	4.398282600513696	0.599	n/a	stim	s631
534.593	1.799	-9.375431260019866	end_round	0.0	columbia_card_task_fmri	16.0	0.6666666666666667	71.0	-70.0	0.3333333333333333	6.0	4.0	1.0	7.68819757489468	1.799	3.0	stim	s631
536.397	2.25	n/a	-1.0	n/a	columbia_card_task_fmri	n/a	n/a	-1.0	n/a	n/a	n/a	n/a	n/a	n/a	n/a	n/a	feedback	s631
538.647	0.612	n/a	-1.0	n/a	columbia_card_task_fmri	n/a	n/a	-1.0	n/a	n/a	n/a	n/a	n/a	n/a	n/a	n/a	ITI	s631
539.264	0.428	5.541235406646798	draw_card	1.0	columbia_card_task_fmri	23.0	0.75	89.0	-60.0	0.25	8.0	1.0	2.0	3.10446971224188	0.428	1.0	stim	s631
539.698	2.25	n/a	-1.0	n/a	columbia_card_task_fmri	n/a	n/a	-1.0	n/a	n/a	n/a	n/a	n/a	n/a	n/a	n/a	feedback	s631
541.948	0.476	n/a	-1.0	n/a	columbia_card_task_fmri	n/a	n/a	-1.0	n/a	n/a	n/a	n/a	n/a	n/a	n/a	n/a	ITI	s631
542.431	0.353	6.041235406646798	draw_card	0.0	columbia_card_task_fmri	27.0	0.75	89.0	-70.0	0.25	8.0	1.0	2.0	9.14501452112698	0.353	n/a	stim	s631
542.79	0.815	2.576949692361083	draw_card	0.0	columbia_card_task_fmri	27.0	0.7142857142857143	89.0	-70.0	0.2857142857142857	8.0	2.0	2.0	10.95758975319103	0.815	n/a	stim	s631
543.611	0.357	-2.0420979266865302	draw_card	1.0	columbia_card_task_fmri	27.0	0.6666666666666667	89.0	-70.0	0.3333333333333333	8.0	3.0	2.0	12.858563553451177	0.357	3.0	stim	s631
543.976	2.25	n/a	-1.0	n/a	columbia_card_task_fmri	n/a	n/a	-1.0	n/a	n/a	n/a	n/a	n/a	n/a	n/a	n/a	feedback	s631
546.226	0.0	n/a	-1.0	n/a	columbia_card_task_fmri	n/a	n/a	-1.0	n/a	n/a	n/a	n/a	n/a	n/a	n/a	n/a	ITI	s631
546.232	0.658	1.2912354066468	draw_card	0.0	columbia_card_task_fmri	16.0	0.7777777777777778	89.0	-65.0	0.2222222222222222	9.0	1.0	2.0	0.8494010171346034	0.658	n/a	stim	s631
546.895	0.29	-0.9587645933532016	draw_card	0.0	columbia_card_task_fmri	16.0	0.75	89.0	-65.0	0.25	9.0	2.0	2.0	2.2421414458264977	0.29	n/a	stim	s631
547.19	0.306	-3.851621736210342	draw_card	0.0	columbia_card_task_fmri	16.0	0.7142857142857143	89.0	-65.0	0.2857142857142857	9.0	3.0	2.0	3.7538167768042072	0.306	n/a	stim	s631
547.501	0.518	-7.708764593353198	draw_card	0.0	columbia_card_task_fmri	16.0	0.6666666666666667	89.0	-65.0	0.3333333333333333	9.0	4.0	2.0	5.339378600089525	0.518	n/a	stim	s631
548.024	0.712	-13.1087645933532	draw_card	0.0	columbia_card_task_fmri	16.0	0.6	89.0	-65.0	0.4	9.0	5.0	2.0	6.832020278140512	0.712	n/a	stim	s631
548.741	0.759	-21.2087645933532	end_round	0.0	columbia_card_task_fmri	16.0	0.5	71.0	-65.0	0.5	9.0	6.0	2.0	7.647542674063303	0.759	5.0	stim	s631
549.504	2.25	n/a	-1.0	n/a	columbia_card_task_fmri	n/a	n/a	-1.0	n/a	n/a	n/a	n/a	n/a	n/a	n/a	n/a	feedback	s631
551.754	0.068	n/a	-1.0	n/a	columbia_card_task_fmri	n/a	n/a	-1.0	n/a	n/a	n/a	n/a	n/a	n/a	n/a	n/a	ITI	s631
551.827	0.95	6.491235406646799	draw_card	0.0	columbia_card_task_fmri	13.0	0.9	89.0	-85.0	0.1	10.0	1.0	1.0	-3.4023204764929997	0.95	n/a	stim	s631
552.781	0.209	5.402346517757909	draw_card	0.0	columbia_card_task_fmri	13.0	0.8888888888888888	89.0	-85.0	0.1111111111111111	10.0	2.0	1.0	-2.012182159781553	0.209	n/a	stim	s631
552.995	0.189	4.041235406646798	draw_card	0.0	columbia_card_task_fmri	13.0	0.875	89.0	-85.0	0.125	10.0	3.0	1.0	-0.4088334146939019	0.189	n/a	stim	s631
553.188	0.221	2.2912354066468	draw_card	0.0	columbia_card_task_fmri	13.0	0.8571428571428572	89.0	-85.0	0.1428571428571428	10.0	4.0	1.0	1.464462997420746	0.221	n/a	stim	s631
553.413	0.44	-0.0420979266865337	draw_card	0.0	columbia_card_task_fmri	13.0	0.8333333333333334	89.0	-85.0	0.1666666666666666	10.0	5.0	1.0	3.68447081067805	0.44	n/a	stim	s631
553.858	0.369	-3.3087645933532013	draw_card	0.0	columbia_card_task_fmri	13.0	0.8	89.0	-85.0	0.2	10.0	6.0	1.0	6.351955064140029	0.369	n/a	stim	s631
554.232	0.712	-8.208764593353202	draw_card	0.0	columbia_card_task_fmri	13.0	0.75	89.0	-85.0	0.25	10.0	7.0	1.0	9.576717391807762	0.712	n/a	stim	s631
554.949	0.746	-16.375431260019866	end_round	0.0	columbia_card_task_fmri	13.0	0.6666666666666667	71.0	-85.0	0.3333333333333333	10.0	8.0	1.0	13.32876406460936	0.746	7.0	stim	s631
555.7	2.25	n/a	-1.0	n/a	columbia_card_task_fmri	n/a	n/a	-1.0	n/a	n/a	n/a	n/a	n/a	n/a	n/a	n/a	feedback	s631
557.95	0.204	n/a	-1.0	n/a	columbia_card_task_fmri	n/a	n/a	-1.0	n/a	n/a	n/a	n/a	n/a	n/a	n/a	n/a	ITI	s631
558.158	0.4	1.4912354066467994	draw_card	0.0	columbia_card_task_fmri	14.0	0.8	89.0	-65.0	0.2	10.0	1.0	2.0	-1.2150347653796167	0.4	n/a	stim	s631
558.564	0.275	-0.2643201489087552	draw_card	1.0	columbia_card_task_fmri	14.0	0.7777777777777778	89.0	-65.0	0.2222222222222222	10.0	2.0	2.0	0.0219637040805622	0.275	2.0	stim	s631
558.844	2.25	n/a	-1.0	n/a	columbia_card_task_fmri	n/a	n/a	-1.0	n/a	n/a	n/a	n/a	n/a	n/a	n/a	n/a	feedback	s631
561.094	0.272	n/a	-1.0	n/a	columbia_card_task_fmri	n/a	n/a	-1.0	n/a	n/a	n/a	n/a	n/a	n/a	n/a	n/a	ITI	s631
561.371	0.291	2.8912354066468	draw_card	0.0	columbia_card_task_fmri	17.0	0.8	89.0	-70.0	0.2	10.0	1.0	2.0	1.969320518349953	0.291	n/a	stim	s631
561.666	0.431	0.9579020733134662	draw_card	0.0	columbia_card_task_fmri	17.0	0.7777777777777778	89.0	-70.0	0.2222222222222222	10.0	2.0	2.0	3.3328207498210887	0.431	n/a	stim	s631
562.101	0.583	-1.4587645933532016	draw_card	1.0	columbia_card_task_fmri	17.0	0.75	89.0	-70.0	0.25	10.0	3.0	2.0	4.8296331789957065	0.583	3.0	stim	s631
562.69	2.25	n/a	-1.0	n/a	columbia_card_task_fmri	n/a	n/a	-1.0	n/a	n/a	n/a	n/a	n/a	n/a	n/a	n/a	feedback	s631
564.94	0.068	n/a	-1.0	n/a	columbia_card_task_fmri	n/a	n/a	-1.0	n/a	n/a	n/a	n/a	n/a	n/a	n/a	n/a	ITI	s631
565.012	0.36	1.6245687399801323	draw_card	0.0	columbia_card_task_fmri	13.0	0.8333333333333334	89.0	-75.0	0.1666666666666666	12.0	1.0	2.0	-0.0255712645260146	0.36	n/a	stim	s631
565.378	0.286	0.2912354066467966	draw_card	0.0	columbia_card_task_fmri	13.0	0.8181818181818181	89.0	-75.0	0.1818181818181818	12.0	2.0	2.0	1.1143574567989702	0.286	n/a	stim	s631
565.668	0.296	-1.3087645933532013	draw_card	0.0	columbia_card_task_fmri	13.0	0.8	89.0	-75.0	0.2	12.0	3.0	2.0	2.367563577498544	0.296	n/a	stim	s631
565.969	0.337	-3.264320148908755	draw_card	0.0	columbia_card_task_fmri	13.0	0.7777777777777778	89.0	-75.0	0.2222222222222222	12.0	4.0	2.0	3.746869208941604	0.337	n/a	stim	s631
566.311	0.437	-5.708764593353202	draw_card	0.0	columbia_card_task_fmri	13.0	0.75	89.0	-75.0	0.25	12.0	5.0	2.0	5.261021320673031	0.437	n/a	stim	s631
566.753	1.449	-8.851621736210342	draw_card	0.0	columbia_card_task_fmri	13.0	0.7142857142857143	89.0	-75.0	0.2857142857142857	12.0	6.0	2.0	6.904386143712152	1.449	n/a	stim	s631
568.207	4.083	-13.042097926686534	end_round	0.0	columbia_card_task_fmri	13.0	0.6666666666666667	71.0	-75.0	0.3333333333333333	12.0	7.0	2.0	8.627984919706861	4.083	6.0	stim	s631
572.295	2.25	n/a	-1.0	n/a	columbia_card_task_fmri	n/a	n/a	-1.0	n/a	n/a	n/a	n/a	n/a	n/a	n/a	n/a	feedback	s631
574.545	0.272	n/a	-1.0	n/a	columbia_card_task_fmri	n/a	n/a	-1.0	n/a	n/a	n/a	n/a	n/a	n/a	n/a	n/a	ITI	s631
574.823	0.535	3.2912354066468	draw_card	0.0	columbia_card_task_fmri	14.0	0.8333333333333334	89.0	-70.0	0.1666666666666666	12.0	1.0	2.0	-1.5084808243473908	0.535	n/a	stim	s631
575.365	0.256	2.018508133919523	draw_card	0.0	columbia_card_task_fmri	14.0	0.8181818181818181	89.0	-70.0	0.1818181818181818	12.0	2.0	2.0	-0.4208779438797023	0.256	n/a	stim	s631
575.631	0.29	0.4912354066467994	draw_card	0.0	columbia_card_task_fmri	14.0	0.8	89.0	-70.0	0.2	12.0	3.0	2.0	0.774840589258389	0.29	n/a	stim	s631
575.928	0.296	-1.3754312600198677	draw_card	0.0	columbia_card_task_fmri	14.0	0.7777777777777778	89.0	-70.0	0.2222222222222222	12.0	4.0	2.0	2.0909154253350124	0.296	n/a	stim	s631
576.23	1.13	-3.7087645933532016	draw_card	1.0	columbia_card_task_fmri	14.0	0.75	89.0	-70.0	0.25	12.0	5.0	2.0	3.535699456842444	1.13	5.0	stim	s631
577.366	2.25	n/a	-1.0	n/a	columbia_card_task_fmri	n/a	n/a	-1.0	n/a	n/a	n/a	n/a	n/a	n/a	n/a	n/a	feedback	s631
579.616	0.748	n/a	-1.0	n/a	columbia_card_task_fmri	n/a	n/a	-1.0	n/a	n/a	n/a	n/a	n/a	n/a	n/a	n/a	ITI	s631
580.37	1.054	3.2912354066468	draw_card	1.0	columbia_card_task_fmri	16.0	0.8333333333333334	89.0	-80.0	0.1666666666666666	12.0	1.0	2.0	2.942185228689219	1.054	1.0	stim	s631
581.429	2.25	n/a	-1.0	n/a	columbia_card_task_fmri	n/a	n/a	-1.0	n/a	n/a	n/a	n/a	n/a	n/a	n/a	n/a	feedback	s631
583.679	0.068	n/a	-1.0	n/a	columbia_card_task_fmri	n/a	n/a	-1.0	n/a	n/a	n/a	n/a	n/a	n/a	n/a	n/a	ITI	s631
583.754	0.632	3.091235406646799	draw_card	0.0	columbia_card_task_fmri	16.0	0.8	89.0	-65.0	0.2	15.0	1.0	3.0	-0.4192334722707826	0.632	n/a	stim	s631
584.392	0.923	1.9340925495039425	draw_card	0.0	columbia_card_task_fmri	16.0	0.7857142857142857	89.0	-65.0	0.2142857142857142	15.0	2.0	3.0	0.4129894721907661	0.923	n/a	stim	s631
585.322	0.416	0.598927714339105	draw_card	0.0	columbia_card_task_fmri	16.0	0.7692307692307692	89.0	-65.0	0.2307692307692307	15.0	3.0	3.0	1.2996959469985967	0.416	n/a	stim	s631
585.744	0.339	-0.9587645933532016	draw_card	0.0	columbia_card_task_fmri	16.0	0.75	89.0	-65.0	0.25	15.0	4.0	3.0	2.2421414458264977	0.339	n/a	stim	s631
586.088	0.407	-2.799673684262292	draw_card	0.0	columbia_card_task_fmri	16.0	0.7272727272727273	89.0	-65.0	0.2727272727272727	15.0	5.0	3.0	3.2381616103548723	0.407	n/a	stim	s631
586.5	0.344	-5.008764593353202	draw_card	0.0	columbia_card_task_fmri	16.0	0.7	89.0	-65.0	0.3	15.0	6.0	3.0	4.278521706452025	0.344	n/a	stim	s631
586.849	1.449	-7.708764593353198	draw_card	0.0	columbia_card_task_fmri	16.0	0.6666666666666667	89.0	-65.0	0.3333333333333333	15.0	7.0	3.0	5.339378600089525	1.449	n/a	stim	s631
588.303	1.296	-11.083764593353202	end_round	0.0	columbia_card_task_fmri	16.0	0.625	71.0	-65.0	0.375	15.0	8.0	3.0	6.365862529039362	1.296	7.0	stim	s631
589.604	2.25	n/a	-1.0	n/a	columbia_card_task_fmri	n/a	n/a	-1.0	n/a	n/a	n/a	n/a	n/a	n/a	n/a	n/a	feedback	s631
591.854	0.0	n/a	-1.0	n/a	columbia_card_task_fmri	n/a	n/a	-1.0	n/a	n/a	n/a	n/a	n/a	n/a	n/a	n/a	ITI	s631
591.859	0.617	1.4162354066467984	draw_card	0.0	columbia_card_task_fmri	15.0	0.8125	89.0	-75.0	0.1875	16.0	1.0	3.0	2.295990138304312	0.617	n/a	stim	s631
592.482	0.285	0.2912354066467983	draw_card	0.0	columbia_card_task_fmri	15.0	0.8	89.0	-75.0	0.2	16.0	2.0	3.0	3.1641660827563958	0.285	n/a	stim	s631
592.772	0.157	-0.9944788790674864	draw_card	0.0	columbia_card_task_fmri	15.0	0.7857142857142857	89.0	-75.0	0.2142857142857142	16.0	3.0	3.0	4.089734332874613	0.157	n/a	stim	s631
592.935	0.272	-2.4779953625839752	draw_card	0.0	columbia_card_task_fmri	15.0	0.7692307692307692	89.0	-75.0	0.2307692307692307	16.0	4.0	3.0	5.075850332376426	0.272	n/a	stim	s631
593.212	0.312	-4.208764593353202	draw_card	1.0	columbia_card_task_fmri	15.0	0.75	89.0	-75.0	0.25	16.0	5.0	3.0	6.1239053215693104	0.312	5.0	stim	s631
593.53	2.25	n/a	-1.0	n/a	columbia_card_task_fmri	n/a	n/a	-1.0	n/a	n/a	n/a	n/a	n/a	n/a	n/a	n/a	feedback	s631
595.78	0.204	n/a	-1.0	n/a	columbia_card_task_fmri	n/a	n/a	-1.0	n/a	n/a	n/a	n/a	n/a	n/a	n/a	n/a	ITI	s631
595.99	0.385	1.9787354066467984	draw_card	0.0	columbia_card_task_fmri	14.0	0.6875	89.0	-35.0	0.3125	16.0	1.0	5.0	-10.036631381983243	0.385	n/a	stim	s631
596.38	0.166	0.9579020733134662	draw_card	1.0	columbia_card_task_fmri	14.0	0.6666666666666667	89.0	-35.0	0.3333333333333333	16.0	2.0	5.0	-9.653849308629002	0.166	2.0	stim	s631
596.551	2.25	n/a	-1.0	n/a	columbia_card_task_fmri	n/a	n/a	-1.0	n/a	n/a	n/a	n/a	n/a	n/a	n/a	n/a	feedback	s631
598.801	0.068	n/a	-1.0	n/a	columbia_card_task_fmri	n/a	n/a	-1.0	n/a	n/a	n/a	n/a	n/a	n/a	n/a	n/a	ITI	s631
598.874	0.27	7.1579020733134655	draw_card	1.0	columbia_card_task_fmri	16.0	0.8666666666666667	89.0	-75.0	0.1333333333333333	15.0	1.0	2.0	-1.8773236254968104	0.27	1.0	stim	s631
599.15	2.25	n/a	-1.0	n/a	columbia_card_task_fmri	n/a	n/a	-1.0	n/a	n/a	n/a	n/a	n/a	n/a	n/a	n/a	feedback	s631
601.4	0.068	n/a	-1.0	n/a	columbia_card_task_fmri	n/a	n/a	-1.0	n/a	n/a	n/a	n/a	n/a	n/a	n/a	n/a	ITI	s631
601.473	0.22	7.824568739980132	draw_card	0.0	columbia_card_task_fmri	16.0	0.8666666666666667	89.0	-70.0	0.1333333333333333	15.0	1.0	2.0	-3.566908024377668	0.22	n/a	stim	s631
601.699	0.378	7.005521120932514	draw_card	1.0	columbia_card_task_fmri	16.0	0.8571428571428572	89.0	-70.0	0.1428571428571428	15.0	2.0	2.0	-2.712797482792336	0.378	2.0	stim	s631
602.083	2.25	n/a	-1.0	n/a	columbia_card_task_fmri	n/a	n/a	-1.0	n/a	n/a	n/a	n/a	n/a	n/a	n/a	n/a	feedback	s631
604.333	0.34	n/a	-1.0	n/a	columbia_card_task_fmri	n/a	n/a	-1.0	n/a	n/a	n/a	n/a	n/a	n/a	n/a	n/a	ITI	s631
604.678	0.281	5.166235406646798	draw_card	0.0	columbia_card_task_fmri	8.0	0.9375	89.0	-90.0	0.0625	16.0	1.0	1.0	-9.0367178770219	0.281	n/a	stim	s631
604.965	0.188	4.757902073313465	draw_card	0.0	columbia_card_task_fmri	8.0	0.9333333333333332	89.0	-90.0	0.0666666666666666	16.0	2.0	1.0	-8.31990978318321	0.188	n/a	stim	s631
605.159	0.211	4.291235406646799	draw_card	0.0	columbia_card_task_fmri	8.0	0.9285714285714286	89.0	-90.0	0.0714285714285714	16.0	3.0	1.0	-7.533419896845231	0.211	n/a	stim	s631
605.376	0.213	3.75277386818526	draw_card	0.0	columbia_card_task_fmri	8.0	0.9230769230769232	89.0	-90.0	0.0769230769230769	16.0	4.0	1.0	-6.665386082532351	0.213	n/a	stim	s631
605.594	0.244	3.1245687399801314	draw_card	0.0	columbia_card_task_fmri	8.0	0.9166666666666666	89.0	-90.0	0.0833333333333333	16.0	5.0	1.0	-5.700970437379354	0.244	n/a	stim	s631
605.844	0.234	2.382144497555889	draw_card	0.0	columbia_card_task_fmri	8.0	0.9090909090909092	89.0	-90.0	0.0909090909090909	16.0	6.0	1.0	-4.62135606393295	0.234	n/a	stim	s631
606.083	0.278	1.4912354066467983	draw_card	1.0	columbia_card_task_fmri	8.0	0.9	89.0	-90.0	0.1	16.0	7.0	1.0	-3.4023204764929997	0.278	7.0	stim	s631
606.367	2.25	n/a	-1.0	n/a	columbia_card_task_fmri	n/a	n/a	-1.0	n/a	n/a	n/a	n/a	n/a	n/a	n/a	n/a	feedback	s631
608.617	0.0	n/a	-1.0	n/a	columbia_card_task_fmri	n/a	n/a	-1.0	n/a	n/a	n/a	n/a	n/a	n/a	n/a	n/a	ITI	s631
608.623	0.363	6.728735406646798	draw_card	0.0	columbia_card_task_fmri	10.0	0.9375	89.0	-95.0	0.0625	16.0	1.0	1.0	-7.357306339340461	0.363	n/a	stim	s631
608.991	0.188	6.291235406646799	draw_card	0.0	columbia_card_task_fmri	10.0	0.9333333333333332	89.0	-95.0	0.0666666666666666	16.0	2.0	1.0	-6.588388489854758	0.188	n/a	stim	s631
609.185	0.185	5.791235406646799	draw_card	0.0	columbia_card_task_fmri	10.0	0.9285714285714286	89.0	-95.0	0.0714285714285714	16.0	3.0	1.0	-5.744782211798341	0.185	n/a	stim	s631
609.376	0.187	5.214312329723722	draw_card	0.0	columbia_card_task_fmri	10.0	0.9230769230769232	89.0	-95.0	0.0769230769230769	16.0	4.0	1.0	-4.813775346625892	0.187	n/a	stim	s631
609.569	0.181	4.541235406646798	draw_card	0.0	columbia_card_task_fmri	10.0	0.9166666666666666	89.0	-95.0	0.0833333333333333	16.0	5.0	1.0	-3.77946699125506	0.181	n/a	stim	s631
609.755	2.129	3.745780861192252	draw_card	0.0	columbia_card_task_fmri	10.0	0.9090909090909092	89.0	-95.0	0.0909090909090909	16.0	6.0	1.0	-2.621692530221189	2.129	n/a	stim	s631
611.89	0.679	2.7912354066467984	draw_card	0.0	columbia_card_task_fmri	10.0	0.9	89.0	-95.0	0.1	16.0	7.0	1.0	-1.3144950519576175	0.679	n/a	stim	s631
612.574	0.514	1.6245687399801323	draw_card	0.0	columbia_card_task_fmri	10.0	0.8888888888888888	89.0	-95.0	0.1111111111111111	16.0	8.0	1.0	0.1760748515899948	0.514	n/a	stim	s631
613.093	0.35	0.1662354066467983	draw_card	0.0	columbia_card_task_fmri	10.0	0.875	89.0	-95.0	0.125	16.0	9.0	1.0	1.895138210606035	0.35	n/a	stim	s631
613.449	0.383	-1.7087645933532	draw_card	0.0	columbia_card_task_fmri	10.0	0.8571428571428572	89.0	-95.0	0.1428571428571428	16.0	10.0	1.0	3.903491110413391	0.383	n/a	stim	s631
613.84	0.48	-4.2087645933532	draw_card	0.0	columbia_card_task_fmri	10.0	0.8333333333333334	89.0	-95.0	0.1666666666666666	16.0	11.0	1.0	6.283386350040622	0.48	n/a	stim	s631
614.325	0.855	-7.708764593353202	draw_card	0.0	columbia_card_task_fmri	10.0	0.8	89.0	-95.0	0.2	16.0	12.0	1.0	9.142789259118643	0.855	n/a	stim	s631
615.187	0.782	-12.958764593353202	draw_card	0.0	columbia_card_task_fmri	10.0	0.75	89.0	-95.0	0.25	16.0	13.0	1.0	12.599333191577102	0.782	n/a	stim	s631
615.974	2.735	-21.7087645933532	draw_card	0.0	columbia_card_task_fmri	10.0	0.6666666666666667	89.0	-95.0	0.3333333333333333	16.0	14.0	1.0	16.620807552222473	2.735	n/a	stim	s631
618.714	0.614	-39.2087645933532	end_round	0.0	columbia_card_task_fmri	10.0	0.5	71.0	-95.0	0.5	16.0	15.0	1.0	19.61709443632409	0.614	14.0	stim	s631
619.334	2.25	n/a	-1.0	n/a	columbia_card_task_fmri	n/a	n/a	-1.0	n/a	n/a	n/a	n/a	n/a	n/a	n/a	n/a	feedback	s631
621.584	0.0	n/a	-1.0	n/a	columbia_card_task_fmri	n/a	n/a	-1.0	n/a	n/a	n/a	n/a	n/a	n/a	n/a	n/a	ITI	s631
621.588	0.785	7.666235406646798	draw_card	0.0	columbia_card_task_fmri	15.0	0.875	89.0	-70.0	0.125	16.0	1.0	2.0	-4.682848435525077	0.785	n/a	stim	s631
622.38	0.391	6.957902073313464	draw_card	0.0	columbia_card_task_fmri	15.0	0.8666666666666667	89.0	-70.0	0.1333333333333333	16.0	2.0	2.0	-3.904683809159213	0.391	n/a	stim	s631
622.778	0.245	6.148378263789656	draw_card	1.0	columbia_card_task_fmri	15.0	0.8571428571428572	89.0	-70.0	0.1428571428571428	16.0	3.0	2.0	-3.060626264223533	0.245	3.0	stim	s631
623.03	2.25	n/a	-1.0	n/a	columbia_card_task_fmri	n/a	n/a	-1.0	n/a	n/a	n/a	n/a	n/a	n/a	n/a	n/a	feedback	s631
625.28	0.272	n/a	-1.0	n/a	columbia_card_task_fmri	n/a	n/a	-1.0	n/a	n/a	n/a	n/a	n/a	n/a	n/a	n/a	ITI	s631
625.558	0.443	6.666235406646798	draw_card	0.0	columbia_card_task_fmri	16.0	0.875	89.0	-85.0	0.125	16.0	1.0	2.0	0.578396611858885	0.443	n/a	stim	s631
626.006	0.222	5.824568739980132	draw_card	0.0	columbia_card_task_fmri	16.0	0.8666666666666667	89.0	-85.0	0.1333333333333333	16.0	2.0	2.0	1.5048194379484985	0.222	n/a	stim	s631
626.233	0.178	4.862663978075371	draw_card	0.0	columbia_card_task_fmri	16.0	0.8571428571428572	89.0	-85.0	0.1428571428571428	16.0	3.0	2.0	2.509584336523808	0.178	n/a	stim	s631
626.415	0.214	3.752773868185258	draw_card	0.0	columbia_card_task_fmri	16.0	0.8461538461538461	89.0	-85.0	0.1538461538461538	16.0	4.0	2.0	3.603279357149759	0.214	n/a	stim	s631
626.635	0.265	2.457902073313466	draw_card	0.0	columbia_card_task_fmri	16.0	0.8333333333333334	89.0	-85.0	0.1666666666666666	16.0	5.0	2.0	4.798125850667589	0.265	n/a	stim	s631
626.904	0.271	0.9275990430104332	draw_card	0.0	columbia_card_task_fmri	16.0	0.8181818181818181	89.0	-85.0	0.1818181818181818	16.0	6.0	2.0	6.107974286198278	0.271	n/a	stim	s631
627.181	0.285	-0.9087645933532008	draw_card	1.0	columbia_card_task_fmri	16.0	0.8	89.0	-85.0	0.2	16.0	7.0	2.0	7.547872057405151	0.285	7.0	stim	s631
627.471	2.25	n/a	-1.0	n/a	columbia_card_task_fmri	n/a	n/a	-1.0	n/a	n/a	n/a	n/a	n/a	n/a	n/a	n/a	feedback	s631
629.721	0.204	n/a	-1.0	n/a	columbia_card_task_fmri	n/a	n/a	-1.0	n/a	n/a	n/a	n/a	n/a	n/a	n/a	n/a	ITI	s631
