onset	duration	planning	condition	current_position	exp_stage	experiment_exp_id	goal_state	key_press	problem_id	response_time	start_state	trial_id	worker_id
-52.074	0.0	0	n/a	n/a	n/a	ward_and_allport	n/a	32.0	n/a	18.344	n/a	instructions	s631
3.005	8.766	1	UA_with_intermediate	1,0,0,2,0,0,0,0,0	practice	ward_and_allport	1,2,3,0,0,0,0,0,0	71.0	0.0	8.766	1,0,0,2,3,0,0,0,0	to_hand	s631
11.773	0.19	0	UA_with_intermediate	1,0,0,2,0,0,3,0,0	practice	ward_and_allport	1,2,3,0,0,0,0,0,0	82.0	0.0	0.19	1,0,0,2,3,0,0,0,0	to_board	s631
11.965	0.342	0	UA_with_intermediate	1,0,0,0,0,0,3,0,0	practice	ward_and_allport	1,2,3,0,0,0,0,0,0	71.0	0.0	0.342	1,0,0,2,3,0,0,0,0	to_hand	s631
12.308	0.439	0	UA_with_intermediate	1,2,0,0,0,0,3,0,0	practice	ward_and_allport	1,2,3,0,0,0,0,0,0	89.0	0.0	0.439	1,0,0,2,3,0,0,0,0	to_board	s631
12.749	0.454	0	UA_with_intermediate	1,2,0,0,0,0,0,0,0	practice	ward_and_allport	1,2,3,0,0,0,0,0,0	82.0	0.0	0.454	1,0,0,2,3,0,0,0,0	to_hand	s631
13.204	0.272	0	UA_with_intermediate	1,2,3,0,0,0,0,0,0	practice	ward_and_allport	1,2,3,0,0,0,0,0,0	89.0	0.0	0.272	1,0,0,2,3,0,0,0,0	to_board	s631
13.48	1.0	0	UA_with_intermediate	n/a	practice	ward_and_allport	n/a	-1.0	0.0	n/a	n/a	feedback	s631
15.982	4.937	1	UA_with_intermediate	1,0,0,3,0,0,0,0,0	practice	ward_and_allport	1,3,2,0,0,0,0,0,0	89.0	1.0	4.937	1,2,0,3,0,0,0,0,0	to_hand	s631
20.921	0.177	0	UA_with_intermediate	1,0,0,3,0,0,2,0,0	practice	ward_and_allport	1,3,2,0,0,0,0,0,0	82.0	1.0	0.177	1,2,0,3,0,0,0,0,0	to_board	s631
21.1	0.311	0	UA_with_intermediate	1,0,0,0,0,0,2,0,0	practice	ward_and_allport	1,3,2,0,0,0,0,0,0	71.0	1.0	0.311	1,2,0,3,0,0,0,0,0	to_hand	s631
21.414	0.327	0	UA_with_intermediate	1,3,0,0,0,0,2,0,0	practice	ward_and_allport	1,3,2,0,0,0,0,0,0	89.0	1.0	0.327	1,2,0,3,0,0,0,0,0	to_board	s631
21.742	0.322	0	UA_with_intermediate	1,3,0,0,0,0,0,0,0	practice	ward_and_allport	1,3,2,0,0,0,0,0,0	82.0	1.0	0.322	1,2,0,3,0,0,0,0,0	to_hand	s631
22.066	0.214	0	UA_with_intermediate	1,3,2,0,0,0,0,0,0	practice	ward_and_allport	1,3,2,0,0,0,0,0,0	89.0	1.0	0.214	1,2,0,3,0,0,0,0,0	to_board	s631
22.282	1.0	0	UA_with_intermediate	n/a	practice	ward_and_allport	n/a	-1.0	1.0	n/a	n/a	feedback	s631
23.282	1.1	0	UA_with_intermediate	n/a	practice	ward_and_allport	n/a	-1.0	1.0	n/a	n/a	ITI	s631
24.383	4.479	1	UA_without_intermediate	0,0,0,1,2,0,0,0,0	practice	ward_and_allport	3,2,1,0,0,0,0,0,0	82.0	2.0	4.479	0,0,0,1,2,0,3,0,0	to_hand	s631
28.863	0.196	0	UA_without_intermediate	3,0,0,1,2,0,0,0,0	practice	ward_and_allport	3,2,1,0,0,0,0,0,0	89.0	2.0	0.196	0,0,0,1,2,0,3,0,0	to_board	s631
29.06	0.207	0	UA_without_intermediate	3,0,0,1,0,0,0,0,0	practice	ward_and_allport	3,2,1,0,0,0,0,0,0	71.0	2.0	0.207	0,0,0,1,2,0,3,0,0	to_hand	s631
29.268	0.203	0	UA_without_intermediate	3,2,0,1,0,0,0,0,0	practice	ward_and_allport	3,2,1,0,0,0,0,0,0	89.0	2.0	0.203	0,0,0,1,2,0,3,0,0	to_board	s631
29.472	0.209	0	UA_without_intermediate	3,2,0,0,0,0,0,0,0	practice	ward_and_allport	3,2,1,0,0,0,0,0,0	71.0	2.0	0.209	0,0,0,1,2,0,3,0,0	to_hand	s631
29.682	0.198	0	UA_without_intermediate	3,2,1,0,0,0,0,0,0	practice	ward_and_allport	3,2,1,0,0,0,0,0,0	89.0	2.0	0.198	0,0,0,1,2,0,3,0,0	to_board	s631
29.882	1.0	0	UA_without_intermediate	n/a	practice	ward_and_allport	n/a	-1.0	2.0	n/a	n/a	feedback	s631
30.882	1.2	0	UA_without_intermediate	n/a	practice	ward_and_allport	n/a	-1.0	2.0	n/a	n/a	ITI	s631
32.084	5.408	1	UA_without_intermediate	0,0,0,1,0,0,3,0,0	practice	ward_and_allport	2,3,1,0,0,0,0,0,0	71.0	3.0	5.408	0,0,0,1,2,0,3,0,0	to_hand	s631
37.493	0.211	0	UA_without_intermediate	2,0,0,1,0,0,3,0,0	practice	ward_and_allport	2,3,1,0,0,0,0,0,0	89.0	3.0	0.211	0,0,0,1,2,0,3,0,0	to_board	s631
37.706	0.225	0	UA_without_intermediate	2,0,0,1,0,0,0,0,0	practice	ward_and_allport	2,3,1,0,0,0,0,0,0	82.0	3.0	0.225	0,0,0,1,2,0,3,0,0	to_hand	s631
37.933	0.346	0	UA_without_intermediate	2,3,0,1,0,0,0,0,0	practice	ward_and_allport	2,3,1,0,0,0,0,0,0	89.0	3.0	0.346	0,0,0,1,2,0,3,0,0	to_board	s631
38.281	0.275	0	UA_without_intermediate	2,3,0,0,0,0,0,0,0	practice	ward_and_allport	2,3,1,0,0,0,0,0,0	71.0	3.0	0.275	0,0,0,1,2,0,3,0,0	to_hand	s631
38.556	0.258	0	UA_without_intermediate	2,3,1,0,0,0,0,0,0	practice	ward_and_allport	2,3,1,0,0,0,0,0,0	89.0	3.0	0.258	0,0,0,1,2,0,3,0,0	to_board	s631
38.817	1.0	0	UA_without_intermediate	n/a	practice	ward_and_allport	n/a	-1.0	3.0	n/a	n/a	feedback	s631
39.817	1.0	0	UA_without_intermediate	n/a	practice	ward_and_allport	n/a	-1.0	3.0	n/a	n/a	ITI	s631
42.82	5.141	1	PA_without_intermediate	0,0,0,1,2,0,0,0,0	test	ward_and_allport	2,0,0,0,0,0,3,1,0	71.0	0.0	5.141	0,0,0,1,2,3,0,0,0	to_hand	s631
47.962	0.168	0	PA_without_intermediate	0,0,0,1,2,0,3,0,0	test	ward_and_allport	2,0,0,0,0,0,3,1,0	82.0	0.0	0.168	0,0,0,1,2,3,0,0,0	to_board	s631
48.132	0.207	0	PA_without_intermediate	0,0,0,1,0,0,3,0,0	test	ward_and_allport	2,0,0,0,0,0,3,1,0	71.0	0.0	0.207	0,0,0,1,2,3,0,0,0	to_hand	s631
48.34	0.267	0	PA_without_intermediate	2,0,0,1,0,0,3,0,0	test	ward_and_allport	2,0,0,0,0,0,3,1,0	89.0	0.0	0.267	0,0,0,1,2,3,0,0,0	to_board	s631
48.609	0.237	0	PA_without_intermediate	2,0,0,0,0,0,3,0,0	test	ward_and_allport	2,0,0,0,0,0,3,1,0	71.0	0.0	0.237	0,0,0,1,2,3,0,0,0	to_hand	s631
48.847	0.228	0	PA_without_intermediate	2,0,0,0,0,0,3,1,0	test	ward_and_allport	2,0,0,0,0,0,3,1,0	82.0	0.0	0.228	0,0,0,1,2,3,0,0,0	to_board	s631
49.077	1.0	0	PA_without_intermediate	n/a	test	ward_and_allport	n/a	-1.0	0.0	n/a	n/a	feedback	s631
50.077	2.088	0	PA_without_intermediate	n/a	test	ward_and_allport	n/a	-1.0	0.0	n/a	n/a	ITI	s631
52.167	6.416	1	PA_with_intermediate	0,0,0,0,0,0,1,2,0	test	ward_and_allport	0,0,0,2,3,0,1,0,0	82.0	1.0	6.416	0,0,0,0,0,0,1,2,3	to_hand	s631
58.584	0.196	0	PA_with_intermediate	3,0,0,0,0,0,1,2,0	test	ward_and_allport	0,0,0,2,3,0,1,0,0	89.0	1.0	0.196	0,0,0,0,0,0,1,2,3	to_board	s631
58.782	0.25	0	PA_with_intermediate	3,0,0,0,0,0,1,0,0	test	ward_and_allport	0,0,0,2,3,0,1,0,0	82.0	1.0	0.25	0,0,0,0,0,0,1,2,3	to_hand	s631
59.034	0.243	0	PA_with_intermediate	3,0,0,2,0,0,1,0,0	test	ward_and_allport	0,0,0,2,3,0,1,0,0	71.0	1.0	0.243	0,0,0,0,0,0,1,2,3	to_board	s631
59.28	0.324	0	PA_with_intermediate	0,0,0,2,0,0,1,0,0	test	ward_and_allport	0,0,0,2,3,0,1,0,0	89.0	1.0	0.324	0,0,0,0,0,0,1,2,3	to_hand	s631
59.605	0.198	0	PA_with_intermediate	0,0,0,2,3,0,1,0,0	test	ward_and_allport	0,0,0,2,3,0,1,0,0	71.0	1.0	0.198	0,0,0,0,0,0,1,2,3	to_board	s631
59.806	1.0	0	PA_with_intermediate	n/a	test	ward_and_allport	n/a	-1.0	1.0	n/a	n/a	feedback	s631
60.806	1.0	0	PA_with_intermediate	n/a	test	ward_and_allport	n/a	-1.0	1.0	n/a	n/a	ITI	s631
61.808	4.902	1	PA_without_intermediate	0,0,0,0,0,0,1,2,0	test	ward_and_allport	2,0,0,3,1,0,0,0,0	82.0	2.0	4.902	0,0,0,0,0,0,1,2,3	to_hand	s631
66.711	0.227	0	PA_without_intermediate	0,0,0,3,0,0,1,2,0	test	ward_and_allport	2,0,0,3,1,0,0,0,0	71.0	2.0	0.227	0,0,0,0,0,0,1,2,3	to_board	s631
66.94	0.493	0	PA_without_intermediate	0,0,0,3,0,0,1,0,0	test	ward_and_allport	2,0,0,3,1,0,0,0,0	82.0	2.0	0.493	0,0,0,0,0,0,1,2,3	to_hand	s631
67.434	0.361	0	PA_without_intermediate	2,0,0,3,0,0,1,0,0	test	ward_and_allport	2,0,0,3,1,0,0,0,0	89.0	2.0	0.361	0,0,0,0,0,0,1,2,3	to_board	s631
67.797	0.544	0	PA_without_intermediate	2,0,0,3,0,0,0,0,0	test	ward_and_allport	2,0,0,3,1,0,0,0,0	82.0	2.0	0.544	0,0,0,0,0,0,1,2,3	to_hand	s631
68.342	0.406	0	PA_without_intermediate	2,0,0,3,1,0,0,0,0	test	ward_and_allport	2,0,0,3,1,0,0,0,0	71.0	2.0	0.406	0,0,0,0,0,0,1,2,3	to_board	s631
68.751	1.0	0	PA_without_intermediate	n/a	test	ward_and_allport	n/a	-1.0	2.0	n/a	n/a	feedback	s631
69.751	1.0	0	PA_without_intermediate	n/a	test	ward_and_allport	n/a	-1.0	2.0	n/a	n/a	ITI	s631
70.754	6.454	1	PA_without_intermediate	0,0,0,1,2,0,0,0,0	test	ward_and_allport	3,1,0,0,0,0,2,0,0	71.0	3.0	6.454	0,0,0,1,2,3,0,0,0	to_hand	s631
77.209	0.202	0	PA_without_intermediate	3,0,0,1,2,0,0,0,0	test	ward_and_allport	3,1,0,0,0,0,2,0,0	89.0	3.0	0.202	0,0,0,1,2,3,0,0,0	to_board	s631
77.413	0.225	0	PA_without_intermediate	3,0,0,1,0,0,0,0,0	test	ward_and_allport	3,1,0,0,0,0,2,0,0	71.0	3.0	0.225	0,0,0,1,2,3,0,0,0	to_hand	s631
77.639	0.247	0	PA_without_intermediate	3,0,0,1,0,0,2,0,0	test	ward_and_allport	3,1,0,0,0,0,2,0,0	82.0	3.0	0.247	0,0,0,1,2,3,0,0,0	to_board	s631
77.889	0.28	0	PA_without_intermediate	3,0,0,0,0,0,2,0,0	test	ward_and_allport	3,1,0,0,0,0,2,0,0	71.0	3.0	0.28	0,0,0,1,2,3,0,0,0	to_hand	s631
78.17	0.257	0	PA_without_intermediate	3,1,0,0,0,0,2,0,0	test	ward_and_allport	3,1,0,0,0,0,2,0,0	89.0	3.0	0.257	0,0,0,1,2,3,0,0,0	to_board	s631
78.429	1.0	0	PA_without_intermediate	n/a	test	ward_and_allport	n/a	-1.0	3.0	n/a	n/a	feedback	s631
79.429	1.0	0	PA_without_intermediate	n/a	test	ward_and_allport	n/a	-1.0	3.0	n/a	n/a	ITI	s631
80.433	5.18	1	PA_with_intermediate	0,0,0,1,2,0,0,0,0	test	ward_and_allport	0,0,0,1,0,0,2,3,0	71.0	4.0	5.18	0,0,0,1,2,3,0,0,0	to_hand	s631
85.614	0.223	0	PA_with_intermediate	3,0,0,1,2,0,0,0,0	test	ward_and_allport	0,0,0,1,0,0,2,3,0	89.0	4.0	0.223	0,0,0,1,2,3,0,0,0	to_board	s631
85.84	0.203	0	PA_with_intermediate	3,0,0,1,0,0,0,0,0	test	ward_and_allport	0,0,0,1,0,0,2,3,0	71.0	4.0	0.203	0,0,0,1,2,3,0,0,0	to_hand	s631
86.044	0.232	0	PA_with_intermediate	3,0,0,1,0,0,2,0,0	test	ward_and_allport	0,0,0,1,0,0,2,3,0	82.0	4.0	0.232	0,0,0,1,2,3,0,0,0	to_board	s631
86.279	0.281	0	PA_with_intermediate	0,0,0,1,0,0,2,0,0	test	ward_and_allport	0,0,0,1,0,0,2,3,0	89.0	4.0	0.281	0,0,0,1,2,3,0,0,0	to_hand	s631
86.562	0.206	0	PA_with_intermediate	0,0,0,1,0,0,2,3,0	test	ward_and_allport	0,0,0,1,0,0,2,3,0	82.0	4.0	0.206	0,0,0,1,2,3,0,0,0	to_board	s631
86.771	1.0	0	PA_with_intermediate	n/a	test	ward_and_allport	n/a	-1.0	4.0	n/a	n/a	feedback	s631
87.771	1.544	0	PA_with_intermediate	n/a	test	ward_and_allport	n/a	-1.0	4.0	n/a	n/a	ITI	s631
89.317	5.819	1	PA_without_intermediate	0,0,0,0,0,0,1,2,0	test	ward_and_allport	1,0,0,3,2,0,0,0,0	82.0	5.0	5.819	0,0,0,0,0,0,1,2,3	to_hand	s631
95.137	0.2	0	PA_without_intermediate	0,0,0,3,0,0,1,2,0	test	ward_and_allport	1,0,0,3,2,0,0,0,0	71.0	5.0	0.2	0,0,0,0,0,0,1,2,3	to_board	s631
95.34	0.21	0	PA_without_intermediate	0,0,0,3,0,0,1,0,0	test	ward_and_allport	1,0,0,3,2,0,0,0,0	82.0	5.0	0.21	0,0,0,0,0,0,1,2,3	to_hand	s631
95.551	0.198	0	PA_without_intermediate	0,0,0,3,2,0,1,0,0	test	ward_and_allport	1,0,0,3,2,0,0,0,0	71.0	5.0	0.198	0,0,0,0,0,0,1,2,3	to_board	s631
95.751	0.275	0	PA_without_intermediate	0,0,0,3,2,0,0,0,0	test	ward_and_allport	1,0,0,3,2,0,0,0,0	82.0	5.0	0.275	0,0,0,0,0,0,1,2,3	to_hand	s631
96.027	0.249	0	PA_without_intermediate	1,0,0,3,2,0,0,0,0	test	ward_and_allport	1,0,0,3,2,0,0,0,0	89.0	5.0	0.249	0,0,0,0,0,0,1,2,3	to_board	s631
96.281	1.0	0	PA_without_intermediate	n/a	test	ward_and_allport	n/a	-1.0	5.0	n/a	n/a	feedback	s631
97.281	1.272	0	PA_without_intermediate	n/a	test	ward_and_allport	n/a	-1.0	5.0	n/a	n/a	ITI	s631
98.556	4.329	1	PA_with_intermediate	0,0,0,0,0,0,1,2,0	test	ward_and_allport	0,0,0,2,3,0,1,0,0	82.0	6.0	4.329	0,0,0,0,0,0,1,2,3	to_hand	s631
102.886	0.21	0	PA_with_intermediate	3,0,0,0,0,0,1,2,0	test	ward_and_allport	0,0,0,2,3,0,1,0,0	89.0	6.0	0.21	0,0,0,0,0,0,1,2,3	to_board	s631
103.098	0.299	0	PA_with_intermediate	3,0,0,0,0,0,1,0,0	test	ward_and_allport	0,0,0,2,3,0,1,0,0	82.0	6.0	0.299	0,0,0,0,0,0,1,2,3	to_hand	s631
103.399	0.563	0	PA_with_intermediate	3,0,0,2,0,0,1,0,0	test	ward_and_allport	0,0,0,2,3,0,1,0,0	71.0	6.0	0.563	0,0,0,0,0,0,1,2,3	to_board	s631
103.965	0.407	0	PA_with_intermediate	0,0,0,2,0,0,1,0,0	test	ward_and_allport	0,0,0,2,3,0,1,0,0	89.0	6.0	0.407	0,0,0,0,0,0,1,2,3	to_hand	s631
104.374	0.137	0	PA_with_intermediate	0,0,0,2,3,0,1,0,0	test	ward_and_allport	0,0,0,2,3,0,1,0,0	71.0	6.0	0.137	0,0,0,0,0,0,1,2,3	to_board	s631
104.514	1.0	0	PA_with_intermediate	n/a	test	ward_and_allport	n/a	-1.0	6.0	n/a	n/a	feedback	s631
105.514	3.04	0	PA_with_intermediate	n/a	test	ward_and_allport	n/a	-1.0	6.0	n/a	n/a	ITI	s631
108.557	4.414	1	PA_with_intermediate	1,2,0,0,0,0,0,0,0	test	ward_and_allport	1,0,0,0,0,0,2,3,0	89.0	7.0	4.414	1,2,3,0,0,0,0,0,0	to_hand	s631
112.972	0.18	0	PA_with_intermediate	1,2,0,3,0,0,0,0,0	test	ward_and_allport	1,0,0,0,0,0,2,3,0	71.0	7.0	0.18	1,2,3,0,0,0,0,0,0	to_board	s631
113.156	0.229	0	PA_with_intermediate	1,0,0,3,0,0,0,0,0	test	ward_and_allport	1,0,0,0,0,0,2,3,0	89.0	7.0	0.229	1,2,3,0,0,0,0,0,0	to_hand	s631
113.386	0.235	0	PA_with_intermediate	1,0,0,3,0,0,2,0,0	test	ward_and_allport	1,0,0,0,0,0,2,3,0	82.0	7.0	0.235	1,2,3,0,0,0,0,0,0	to_board	s631
113.624	0.296	0	PA_with_intermediate	1,0,0,0,0,0,2,0,0	test	ward_and_allport	1,0,0,0,0,0,2,3,0	71.0	7.0	0.296	1,2,3,0,0,0,0,0,0	to_hand	s631
113.921	0.265	0	PA_with_intermediate	1,0,0,0,0,0,2,3,0	test	ward_and_allport	1,0,0,0,0,0,2,3,0	82.0	7.0	0.265	1,2,3,0,0,0,0,0,0	to_board	s631
114.19	1.0	0	PA_with_intermediate	n/a	test	ward_and_allport	n/a	-1.0	7.0	n/a	n/a	feedback	s631
115.19	1.272	0	PA_with_intermediate	n/a	test	ward_and_allport	n/a	-1.0	7.0	n/a	n/a	ITI	s631
116.465	3.979	1	PA_with_intermediate	0,0,0,0,0,0,1,2,0	test	ward_and_allport	0,0,0,2,0,0,1,3,0	82.0	8.0	3.979	0,0,0,0,0,0,1,2,3	to_hand	s631
120.446	0.239	0	PA_with_intermediate	3,0,0,0,0,0,1,2,0	test	ward_and_allport	0,0,0,2,0,0,1,3,0	89.0	8.0	0.239	0,0,0,0,0,0,1,2,3	to_board	s631
120.688	0.547	0	PA_with_intermediate	3,0,0,0,0,0,1,0,0	test	ward_and_allport	0,0,0,2,0,0,1,3,0	82.0	8.0	0.547	0,0,0,0,0,0,1,2,3	to_hand	s631
121.237	0.206	0	PA_with_intermediate	3,0,0,2,0,0,1,0,0	test	ward_and_allport	0,0,0,2,0,0,1,3,0	71.0	8.0	0.206	0,0,0,0,0,0,1,2,3	to_board	s631
121.446	0.334	0	PA_with_intermediate	0,0,0,2,0,0,1,0,0	test	ward_and_allport	0,0,0,2,0,0,1,3,0	89.0	8.0	0.334	0,0,0,0,0,0,1,2,3	to_hand	s631
121.782	0.168	0	PA_with_intermediate	0,0,0,2,0,0,1,3,0	test	ward_and_allport	0,0,0,2,0,0,1,3,0	82.0	8.0	0.168	0,0,0,0,0,0,1,2,3	to_board	s631
121.953	1.0	0	PA_with_intermediate	n/a	test	ward_and_allport	n/a	-1.0	8.0	n/a	n/a	feedback	s631
122.953	1.136	0	PA_with_intermediate	n/a	test	ward_and_allport	n/a	-1.0	8.0	n/a	n/a	ITI	s631
124.093	5.639	1	PA_with_intermediate	0,0,0,1,2,0,0,0,0	test	ward_and_allport	2,0,0,1,3,0,0,0,0	71.0	9.0	5.639	0,0,0,1,2,3,0,0,0	to_hand	s631
129.733	0.176	0	PA_with_intermediate	0,0,0,1,2,0,3,0,0	test	ward_and_allport	2,0,0,1,3,0,0,0,0	82.0	9.0	0.176	0,0,0,1,2,3,0,0,0	to_board	s631
129.913	0.184	0	PA_with_intermediate	0,0,0,1,0,0,3,0,0	test	ward_and_allport	2,0,0,1,3,0,0,0,0	71.0	9.0	0.184	0,0,0,1,2,3,0,0,0	to_hand	s631
130.098	0.224	0	PA_with_intermediate	2,0,0,1,0,0,3,0,0	test	ward_and_allport	2,0,0,1,3,0,0,0,0	89.0	9.0	0.224	0,0,0,1,2,3,0,0,0	to_board	s631
130.325	0.988	0	PA_with_intermediate	2,0,0,1,0,0,0,0,0	test	ward_and_allport	2,0,0,1,3,0,0,0,0	82.0	9.0	0.988	0,0,0,1,2,3,0,0,0	to_hand	s631
131.314	0.236	0	PA_with_intermediate	2,0,0,1,3,0,0,0,0	test	ward_and_allport	2,0,0,1,3,0,0,0,0	71.0	9.0	0.236	0,0,0,1,2,3,0,0,0	to_board	s631
131.554	1.0	0	PA_with_intermediate	n/a	test	ward_and_allport	n/a	-1.0	9.0	n/a	n/a	feedback	s631
132.554	1.0	0	PA_with_intermediate	n/a	test	ward_and_allport	n/a	-1.0	9.0	n/a	n/a	ITI	s631
133.558	8.41	1	PA_with_intermediate	0,0,0,0,0,0,1,2,0	test	ward_and_allport	2,3,0,0,0,0,1,0,0	82.0	10.0	8.41	0,0,0,0,0,0,1,2,3	to_hand	s631
141.969	0.208	0	PA_with_intermediate	0,0,0,3,0,0,1,2,0	test	ward_and_allport	2,3,0,0,0,0,1,0,0	71.0	10.0	0.208	0,0,0,0,0,0,1,2,3	to_board	s631
142.182	0.194	0	PA_with_intermediate	0,0,0,3,0,0,1,0,0	test	ward_and_allport	2,3,0,0,0,0,1,0,0	82.0	10.0	0.194	0,0,0,0,0,0,1,2,3	to_hand	s631
142.377	0.219	0	PA_with_intermediate	2,0,0,3,0,0,1,0,0	test	ward_and_allport	2,3,0,0,0,0,1,0,0	89.0	10.0	0.219	0,0,0,0,0,0,1,2,3	to_board	s631
142.6	0.273	0	PA_with_intermediate	2,0,0,0,0,0,1,0,0	test	ward_and_allport	2,3,0,0,0,0,1,0,0	71.0	10.0	0.273	0,0,0,0,0,0,1,2,3	to_hand	s631
142.874	0.207	0	PA_with_intermediate	2,3,0,0,0,0,1,0,0	test	ward_and_allport	2,3,0,0,0,0,1,0,0	89.0	10.0	0.207	0,0,0,0,0,0,1,2,3	to_board	s631
143.086	1.0	0	PA_with_intermediate	n/a	test	ward_and_allport	n/a	-1.0	10.0	n/a	n/a	feedback	s631
144.086	1.0	0	PA_with_intermediate	n/a	test	ward_and_allport	n/a	-1.0	10.0	n/a	n/a	ITI	s631
145.09	5.296	1	PA_without_intermediate	0,0,0,1,2,0,0,0,0	test	ward_and_allport	2,0,0,0,0,0,3,1,0	71.0	11.0	5.296	0,0,0,1,2,3,0,0,0	to_hand	s631
150.388	0.137	0	PA_without_intermediate	0,0,0,1,2,0,3,0,0	test	ward_and_allport	2,0,0,0,0,0,3,1,0	82.0	11.0	0.137	0,0,0,1,2,3,0,0,0	to_board	s631
150.529	0.227	0	PA_without_intermediate	0,0,0,1,0,0,3,0,0	test	ward_and_allport	2,0,0,0,0,0,3,1,0	71.0	11.0	0.227	0,0,0,1,2,3,0,0,0	to_hand	s631
150.757	0.244	0	PA_without_intermediate	2,0,0,1,0,0,3,0,0	test	ward_and_allport	2,0,0,0,0,0,3,1,0	89.0	11.0	0.244	0,0,0,1,2,3,0,0,0	to_board	s631
151.005	0.224	0	PA_without_intermediate	2,0,0,0,0,0,3,0,0	test	ward_and_allport	2,0,0,0,0,0,3,1,0	71.0	11.0	0.224	0,0,0,1,2,3,0,0,0	to_hand	s631
151.23	0.189	0	PA_without_intermediate	2,0,0,0,0,0,3,1,0	test	ward_and_allport	2,0,0,0,0,0,3,1,0	82.0	11.0	0.189	0,0,0,1,2,3,0,0,0	to_board	s631
151.424	1.0	0	PA_without_intermediate	n/a	test	ward_and_allport	n/a	-1.0	11.0	n/a	n/a	feedback	s631
152.424	1.408	0	PA_without_intermediate	n/a	test	ward_and_allport	n/a	-1.0	11.0	n/a	n/a	ITI	s631
153.835	3.488	1	PA_with_intermediate	0,0,0,1,2,0,0,0,0	test	ward_and_allport	2,0,0,1,3,0,0,0,0	71.0	12.0	3.488	0,0,0,1,2,3,0,0,0	to_hand	s631
157.324	0.148	0	PA_with_intermediate	0,0,0,1,2,0,3,0,0	test	ward_and_allport	2,0,0,1,3,0,0,0,0	82.0	12.0	0.148	0,0,0,1,2,3,0,0,0	to_board	s631
157.476	0.207	0	PA_with_intermediate	0,0,0,1,0,0,3,0,0	test	ward_and_allport	2,0,0,1,3,0,0,0,0	71.0	12.0	0.207	0,0,0,1,2,3,0,0,0	to_hand	s631
157.684	0.218	0	PA_with_intermediate	2,0,0,1,0,0,3,0,0	test	ward_and_allport	2,0,0,1,3,0,0,0,0	89.0	12.0	0.218	0,0,0,1,2,3,0,0,0	to_board	s631
157.906	0.144	0	PA_with_intermediate	2,0,0,0,0,0,3,0,0	test	ward_and_allport	2,0,0,1,3,0,0,0,0	71.0	12.0	0.144	0,0,0,1,2,3,0,0,0	to_hand	s631
158.052	0.549	0	PA_with_intermediate	2,0,0,1,0,0,3,0,0	test	ward_and_allport	2,0,0,1,3,0,0,0,0	71.0	12.0	0.549	0,0,0,1,2,3,0,0,0	to_board	s631
158.605	0.361	0	PA_with_intermediate	2,0,0,1,0,0,0,0,0	test	ward_and_allport	2,0,0,1,3,0,0,0,0	82.0	12.0	0.361	0,0,0,1,2,3,0,0,0	to_hand	s631
158.967	0.242	0	PA_with_intermediate	2,0,0,1,3,0,0,0,0	test	ward_and_allport	2,0,0,1,3,0,0,0,0	71.0	12.0	0.242	0,0,0,1,2,3,0,0,0	to_board	s631
159.215	1.0	0	PA_with_intermediate	n/a	test	ward_and_allport	n/a	-1.0	12.0	n/a	n/a	feedback	s631
160.215	2.768	0	PA_with_intermediate	n/a	test	ward_and_allport	n/a	-1.0	12.0	n/a	n/a	ITI	s631
162.987	3.946	1	PA_with_intermediate	1,2,0,0,0,0,0,0,0	test	ward_and_allport	1,3,0,0,0,0,2,0,0	89.0	13.0	3.946	1,2,3,0,0,0,0,0,0	to_hand	s631
166.934	0.144	0	PA_with_intermediate	1,2,0,3,0,0,0,0,0	test	ward_and_allport	1,3,0,0,0,0,2,0,0	71.0	13.0	0.144	1,2,3,0,0,0,0,0,0	to_board	s631
167.083	0.284	0	PA_with_intermediate	1,0,0,3,0,0,0,0,0	test	ward_and_allport	1,3,0,0,0,0,2,0,0	89.0	13.0	0.284	1,2,3,0,0,0,0,0,0	to_hand	s631
167.368	0.241	0	PA_with_intermediate	1,0,0,3,0,0,2,0,0	test	ward_and_allport	1,3,0,0,0,0,2,0,0	82.0	13.0	0.241	1,2,3,0,0,0,0,0,0	to_board	s631
167.615	0.247	0	PA_with_intermediate	1,0,0,0,0,0,2,0,0	test	ward_and_allport	1,3,0,0,0,0,2,0,0	71.0	13.0	0.247	1,2,3,0,0,0,0,0,0	to_hand	s631
167.863	0.249	0	PA_with_intermediate	1,3,0,0,0,0,2,0,0	test	ward_and_allport	1,3,0,0,0,0,2,0,0	89.0	13.0	0.249	1,2,3,0,0,0,0,0,0	to_board	s631
168.117	1.0	0	PA_with_intermediate	n/a	test	ward_and_allport	n/a	-1.0	13.0	n/a	n/a	feedback	s631
169.117	1.68	0	PA_with_intermediate	n/a	test	ward_and_allport	n/a	-1.0	13.0	n/a	n/a	ITI	s631
170.804	5.136	1	PA_without_intermediate	0,0,0,1,2,0,0,0,0	test	ward_and_allport	3,2,0,0,0,0,1,0,0	71.0	14.0	5.136	0,0,0,1,2,3,0,0,0	to_hand	s631
175.942	0.148	0	PA_without_intermediate	3,0,0,1,2,0,0,0,0	test	ward_and_allport	3,2,0,0,0,0,1,0,0	89.0	14.0	0.148	0,0,0,1,2,3,0,0,0	to_board	s631
176.095	0.137	0	PA_without_intermediate	3,0,0,1,0,0,0,0,0	test	ward_and_allport	3,2,0,0,0,0,1,0,0	71.0	14.0	0.137	0,0,0,1,2,3,0,0,0	to_hand	s631
176.233	0.241	0	PA_without_intermediate	3,2,0,1,0,0,0,0,0	test	ward_and_allport	3,2,0,0,0,0,1,0,0	89.0	14.0	0.241	0,0,0,1,2,3,0,0,0	to_board	s631
176.479	0.214	0	PA_without_intermediate	3,2,0,0,0,0,0,0,0	test	ward_and_allport	3,2,0,0,0,0,1,0,0	71.0	14.0	0.214	0,0,0,1,2,3,0,0,0	to_hand	s631
176.695	0.248	0	PA_without_intermediate	3,2,0,0,0,0,1,0,0	test	ward_and_allport	3,2,0,0,0,0,1,0,0	82.0	14.0	0.248	0,0,0,1,2,3,0,0,0	to_board	s631
176.947	1.0	0	PA_without_intermediate	n/a	test	ward_and_allport	n/a	-1.0	14.0	n/a	n/a	feedback	s631
177.947	2.224	0	PA_without_intermediate	n/a	test	ward_and_allport	n/a	-1.0	14.0	n/a	n/a	ITI	s631
185.18	10.709	1	PA_without_intermediate	1,2,0,0,0,0,0,0,0	test	ward_and_allport	0,0,0,2,0,0,3,1,0	89.0	15.0	10.709	1,2,3,0,0,0,0,0,0	to_hand	s631
195.889	0.19	0	PA_without_intermediate	1,2,0,0,0,0,3,0,0	test	ward_and_allport	0,0,0,2,0,0,3,1,0	82.0	15.0	0.19	1,2,3,0,0,0,0,0,0	to_board	s631
196.083	0.408	0	PA_without_intermediate	1,0,0,0,0,0,3,0,0	test	ward_and_allport	0,0,0,2,0,0,3,1,0	89.0	15.0	0.408	1,2,3,0,0,0,0,0,0	to_hand	s631
196.492	0.231	0	PA_without_intermediate	1,0,0,2,0,0,3,0,0	test	ward_and_allport	0,0,0,2,0,0,3,1,0	71.0	15.0	0.231	1,2,3,0,0,0,0,0,0	to_board	s631
196.729	0.261	0	PA_without_intermediate	0,0,0,2,0,0,3,0,0	test	ward_and_allport	0,0,0,2,0,0,3,1,0	89.0	15.0	0.261	1,2,3,0,0,0,0,0,0	to_hand	s631
196.991	0.222	0	PA_without_intermediate	0,0,0,2,0,0,3,1,0	test	ward_and_allport	0,0,0,2,0,0,3,1,0	82.0	15.0	0.222	1,2,3,0,0,0,0,0,0	to_board	s631
197.218	1.0	0	PA_without_intermediate	n/a	test	ward_and_allport	n/a	-1.0	15.0	n/a	n/a	feedback	s631
198.218	2.36	0	PA_without_intermediate	n/a	test	ward_and_allport	n/a	-1.0	15.0	n/a	n/a	ITI	s631
200.583	4.039	1	PA_without_intermediate	1,2,0,0,0,0,0,0,0	test	ward_and_allport	0,0,0,2,0,0,3,1,0	89.0	16.0	4.039	1,2,3,0,0,0,0,0,0	to_hand	s631
204.623	0.173	0	PA_without_intermediate	1,2,0,0,0,0,3,0,0	test	ward_and_allport	0,0,0,2,0,0,3,1,0	82.0	16.0	0.173	1,2,3,0,0,0,0,0,0	to_board	s631
204.8	0.23	0	PA_without_intermediate	1,0,0,0,0,0,3,0,0	test	ward_and_allport	0,0,0,2,0,0,3,1,0	89.0	16.0	0.23	1,2,3,0,0,0,0,0,0	to_hand	s631
205.031	0.214	0	PA_without_intermediate	1,0,0,2,0,0,3,0,0	test	ward_and_allport	0,0,0,2,0,0,3,1,0	71.0	16.0	0.214	1,2,3,0,0,0,0,0,0	to_board	s631
205.25	0.281	0	PA_without_intermediate	0,0,0,2,0,0,3,0,0	test	ward_and_allport	0,0,0,2,0,0,3,1,0	89.0	16.0	0.281	1,2,3,0,0,0,0,0,0	to_hand	s631
205.532	0.203	0	PA_without_intermediate	0,0,0,2,0,0,3,1,0	test	ward_and_allport	0,0,0,2,0,0,3,1,0	82.0	16.0	0.203	1,2,3,0,0,0,0,0,0	to_board	s631
205.739	1.0	0	PA_without_intermediate	n/a	test	ward_and_allport	n/a	-1.0	16.0	n/a	n/a	feedback	s631
206.739	1.0	0	PA_without_intermediate	n/a	test	ward_and_allport	n/a	-1.0	16.0	n/a	n/a	ITI	s631
207.744	5.037	1	PA_without_intermediate	0,0,0,1,2,0,0,0,0	test	ward_and_allport	3,1,0,0,0,0,2,0,0	71.0	17.0	5.037	0,0,0,1,2,3,0,0,0	to_hand	s631
212.782	0.175	0	PA_without_intermediate	3,0,0,1,2,0,0,0,0	test	ward_and_allport	3,1,0,0,0,0,2,0,0	89.0	17.0	0.175	0,0,0,1,2,3,0,0,0	to_board	s631
212.962	0.195	0	PA_without_intermediate	3,0,0,1,0,0,0,0,0	test	ward_and_allport	3,1,0,0,0,0,2,0,0	71.0	17.0	0.195	0,0,0,1,2,3,0,0,0	to_hand	s631
213.157	0.184	0	PA_without_intermediate	3,0,0,1,0,0,2,0,0	test	ward_and_allport	3,1,0,0,0,0,2,0,0	82.0	17.0	0.184	0,0,0,1,2,3,0,0,0	to_board	s631
213.347	0.362	0	PA_without_intermediate	3,0,0,0,0,0,2,0,0	test	ward_and_allport	3,1,0,0,0,0,2,0,0	71.0	17.0	0.362	0,0,0,1,2,3,0,0,0	to_hand	s631
213.71	0.244	0	PA_without_intermediate	3,1,0,0,0,0,2,0,0	test	ward_and_allport	3,1,0,0,0,0,2,0,0	89.0	17.0	0.244	0,0,0,1,2,3,0,0,0	to_board	s631
213.959	1.0	0	PA_without_intermediate	n/a	test	ward_and_allport	n/a	-1.0	17.0	n/a	n/a	feedback	s631
214.959	1.408	0	PA_without_intermediate	n/a	test	ward_and_allport	n/a	-1.0	17.0	n/a	n/a	ITI	s631
216.372	5.936	1	PA_with_intermediate	0,0,0,1,2,0,0,0,0	test	ward_and_allport	2,3,0,1,0,0,0,0,0	71.0	18.0	5.936	0,0,0,1,2,3,0,0,0	to_hand	s631
222.309	0.178	0	PA_with_intermediate	0,0,0,1,2,0,3,0,0	test	ward_and_allport	2,3,0,1,0,0,0,0,0	82.0	18.0	0.178	0,0,0,1,2,3,0,0,0	to_board	s631
222.491	0.3	0	PA_with_intermediate	0,0,0,1,0,0,3,0,0	test	ward_and_allport	2,3,0,1,0,0,0,0,0	71.0	18.0	0.3	0,0,0,1,2,3,0,0,0	to_hand	s631
222.793	0.262	0	PA_with_intermediate	2,0,0,1,0,0,3,0,0	test	ward_and_allport	2,3,0,1,0,0,0,0,0	89.0	18.0	0.262	0,0,0,1,2,3,0,0,0	to_board	s631
223.059	0.396	0	PA_with_intermediate	2,0,0,1,0,0,0,0,0	test	ward_and_allport	2,3,0,1,0,0,0,0,0	82.0	18.0	0.396	0,0,0,1,2,3,0,0,0	to_hand	s631
223.456	0.178	0	PA_with_intermediate	2,3,0,1,0,0,0,0,0	test	ward_and_allport	2,3,0,1,0,0,0,0,0	89.0	18.0	0.178	0,0,0,1,2,3,0,0,0	to_board	s631
223.639	1.0	0	PA_with_intermediate	n/a	test	ward_and_allport	n/a	-1.0	18.0	n/a	n/a	feedback	s631
224.639	1.136	0	PA_with_intermediate	n/a	test	ward_and_allport	n/a	-1.0	18.0	n/a	n/a	ITI	s631
225.781	5.082	1	PA_without_intermediate	0,0,0,0,0,0,1,2,0	test	ward_and_allport	3,2,0,1,0,0,0,0,0	82.0	19.0	5.082	0,0,0,0,0,0,1,2,3	to_hand	s631
230.864	0.167	0	PA_without_intermediate	3,0,0,0,0,0,1,2,0	test	ward_and_allport	3,2,0,1,0,0,0,0,0	89.0	19.0	0.167	0,0,0,0,0,0,1,2,3	to_board	s631
231.036	0.227	0	PA_without_intermediate	3,0,0,0,0,0,1,0,0	test	ward_and_allport	3,2,0,1,0,0,0,0,0	82.0	19.0	0.227	0,0,0,0,0,0,1,2,3	to_hand	s631
231.263	0.198	0	PA_without_intermediate	3,2,0,0,0,0,1,0,0	test	ward_and_allport	3,2,0,1,0,0,0,0,0	89.0	19.0	0.198	0,0,0,0,0,0,1,2,3	to_board	s631
231.467	0.343	0	PA_without_intermediate	3,2,0,0,0,0,0,0,0	test	ward_and_allport	3,2,0,1,0,0,0,0,0	82.0	19.0	0.343	0,0,0,0,0,0,1,2,3	to_hand	s631
231.811	0.171	0	PA_without_intermediate	3,2,0,1,0,0,0,0,0	test	ward_and_allport	3,2,0,1,0,0,0,0,0	71.0	19.0	0.171	0,0,0,0,0,0,1,2,3	to_board	s631
231.988	1.0	0	PA_without_intermediate	n/a	test	ward_and_allport	n/a	-1.0	19.0	n/a	n/a	feedback	s631
232.988	4.128	0	PA_without_intermediate	n/a	test	ward_and_allport	n/a	-1.0	19.0	n/a	n/a	ITI	s631
237.122	5.091	1	PA_without_intermediate	1,2,0,0,0,0,0,0,0	test	ward_and_allport	0,0,0,3,1,0,2,0,0	89.0	20.0	5.091	1,2,3,0,0,0,0,0,0	to_hand	s631
242.214	0.15	0	PA_without_intermediate	1,2,0,3,0,0,0,0,0	test	ward_and_allport	0,0,0,3,1,0,2,0,0	71.0	20.0	0.15	1,2,3,0,0,0,0,0,0	to_board	s631
242.369	0.249	0	PA_without_intermediate	1,0,0,3,0,0,0,0,0	test	ward_and_allport	0,0,0,3,1,0,2,0,0	89.0	20.0	0.249	1,2,3,0,0,0,0,0,0	to_hand	s631
242.619	0.468	0	PA_without_intermediate	1,0,0,3,0,0,2,0,0	test	ward_and_allport	0,0,0,3,1,0,2,0,0	82.0	20.0	0.468	1,2,3,0,0,0,0,0,0	to_board	s631
243.092	0.233	0	PA_without_intermediate	0,0,0,3,0,0,2,0,0	test	ward_and_allport	0,0,0,3,1,0,2,0,0	89.0	20.0	0.233	1,2,3,0,0,0,0,0,0	to_hand	s631
243.327	0.409	0	PA_without_intermediate	0,0,0,3,1,0,2,0,0	test	ward_and_allport	0,0,0,3,1,0,2,0,0	71.0	20.0	0.409	1,2,3,0,0,0,0,0,0	to_board	s631
243.741	1.0	0	PA_without_intermediate	n/a	test	ward_and_allport	n/a	-1.0	20.0	n/a	n/a	feedback	s631
244.741	1.136	0	PA_without_intermediate	n/a	test	ward_and_allport	n/a	-1.0	20.0	n/a	n/a	ITI	s631
245.882	3.965	1	PA_without_intermediate	1,2,0,0,0,0,0,0,0	test	ward_and_allport	0,0,0,3,2,0,1,0,0	89.0	21.0	3.965	1,2,3,0,0,0,0,0,0	to_hand	s631
249.848	0.166	0	PA_without_intermediate	1,2,0,3,0,0,0,0,0	test	ward_and_allport	0,0,0,3,2,0,1,0,0	71.0	21.0	0.166	1,2,3,0,0,0,0,0,0	to_board	s631
250.02	0.239	0	PA_without_intermediate	1,0,0,3,0,0,0,0,0	test	ward_and_allport	0,0,0,3,2,0,1,0,0	89.0	21.0	0.239	1,2,3,0,0,0,0,0,0	to_hand	s631
250.26	0.161	0	PA_without_intermediate	1,0,0,3,2,0,0,0,0	test	ward_and_allport	0,0,0,3,2,0,1,0,0	71.0	21.0	0.161	1,2,3,0,0,0,0,0,0	to_board	s631
250.427	0.256	0	PA_without_intermediate	0,0,0,3,2,0,0,0,0	test	ward_and_allport	0,0,0,3,2,0,1,0,0	89.0	21.0	0.256	1,2,3,0,0,0,0,0,0	to_hand	s631
250.684	0.149	0	PA_without_intermediate	0,0,0,3,2,0,1,0,0	test	ward_and_allport	0,0,0,3,2,0,1,0,0	82.0	21.0	0.149	1,2,3,0,0,0,0,0,0	to_board	s631
250.84	1.0	0	PA_without_intermediate	n/a	test	ward_and_allport	n/a	-1.0	21.0	n/a	n/a	feedback	s631
251.84	4.264	0	PA_without_intermediate	n/a	test	ward_and_allport	n/a	-1.0	21.0	n/a	n/a	ITI	s631
256.111	5.063	1	PA_with_intermediate	1,2,0,0,0,0,0,0,0	test	ward_and_allport	1,0,0,2,3,0,0,0,0	89.0	22.0	5.063	1,2,3,0,0,0,0,0,0	to_hand	s631
261.175	0.18	0	PA_with_intermediate	1,2,0,0,0,0,3,0,0	test	ward_and_allport	1,0,0,2,3,0,0,0,0	82.0	22.0	0.18	1,2,3,0,0,0,0,0,0	to_board	s631
261.361	0.223	0	PA_with_intermediate	1,0,0,0,0,0,3,0,0	test	ward_and_allport	1,0,0,2,3,0,0,0,0	89.0	22.0	0.223	1,2,3,0,0,0,0,0,0	to_hand	s631
261.586	0.191	0	PA_with_intermediate	1,0,0,2,0,0,3,0,0	test	ward_and_allport	1,0,0,2,3,0,0,0,0	71.0	22.0	0.191	1,2,3,0,0,0,0,0,0	to_board	s631
261.783	0.269	0	PA_with_intermediate	1,0,0,2,0,0,0,0,0	test	ward_and_allport	1,0,0,2,3,0,0,0,0	82.0	22.0	0.269	1,2,3,0,0,0,0,0,0	to_hand	s631
262.053	0.144	0	PA_with_intermediate	1,0,0,2,3,0,0,0,0	test	ward_and_allport	1,0,0,2,3,0,0,0,0	71.0	22.0	0.144	1,2,3,0,0,0,0,0,0	to_board	s631
262.203	1.0	0	PA_with_intermediate	n/a	test	ward_and_allport	n/a	-1.0	22.0	n/a	n/a	feedback	s631
263.203	3.04	0	PA_with_intermediate	n/a	test	ward_and_allport	n/a	-1.0	22.0	n/a	n/a	ITI	s631
266.25	3.975	1	PA_with_intermediate	0,0,0,0,0,0,1,2,0	test	ward_and_allport	2,3,0,0,0,0,1,0,0	82.0	23.0	3.975	0,0,0,0,0,0,1,2,3	to_hand	s631
270.226	0.17	0	PA_with_intermediate	0,0,0,3,0,0,1,2,0	test	ward_and_allport	2,3,0,0,0,0,1,0,0	71.0	23.0	0.17	0,0,0,0,0,0,1,2,3	to_board	s631
270.403	0.26	0	PA_with_intermediate	0,0,0,3,0,0,1,0,0	test	ward_and_allport	2,3,0,0,0,0,1,0,0	82.0	23.0	0.26	0,0,0,0,0,0,1,2,3	to_hand	s631
270.664	0.248	0	PA_with_intermediate	2,0,0,3,0,0,1,0,0	test	ward_and_allport	2,3,0,0,0,0,1,0,0	89.0	23.0	0.248	0,0,0,0,0,0,1,2,3	to_board	s631
270.919	0.244	0	PA_with_intermediate	2,0,0,0,0,0,1,0,0	test	ward_and_allport	2,3,0,0,0,0,1,0,0	71.0	23.0	0.244	0,0,0,0,0,0,1,2,3	to_hand	s631
271.164	0.171	0	PA_with_intermediate	2,3,0,0,0,0,1,0,0	test	ward_and_allport	2,3,0,0,0,0,1,0,0	89.0	23.0	0.171	0,0,0,0,0,0,1,2,3	to_board	s631
271.342	1.0	0	PA_with_intermediate	n/a	test	ward_and_allport	n/a	-1.0	23.0	n/a	n/a	feedback	s631
272.342	1.136	0	PA_with_intermediate	n/a	test	ward_and_allport	n/a	-1.0	23.0	n/a	n/a	ITI	s631
273.485	4.6	1	PA_with_intermediate	0,0,0,1,2,0,0,0,0	test	ward_and_allport	0,0,0,1,0,0,2,3,0	71.0	24.0	4.6	0,0,0,1,2,3,0,0,0	to_hand	s631
278.087	0.241	0	PA_with_intermediate	3,0,0,1,2,0,0,0,0	test	ward_and_allport	0,0,0,1,0,0,2,3,0	89.0	24.0	0.241	0,0,0,1,2,3,0,0,0	to_board	s631
278.335	0.209	0	PA_with_intermediate	3,0,0,1,0,0,0,0,0	test	ward_and_allport	0,0,0,1,0,0,2,3,0	71.0	24.0	0.209	0,0,0,1,2,3,0,0,0	to_hand	s631
278.545	0.222	0	PA_with_intermediate	3,0,0,1,2,0,0,0,0	test	ward_and_allport	0,0,0,1,0,0,2,3,0	71.0	24.0	0.222	0,0,0,1,2,3,0,0,0	to_board	s631
278.773	0.496	0	PA_with_intermediate	3,0,0,1,0,0,0,0,0	test	ward_and_allport	0,0,0,1,0,0,2,3,0	71.0	24.0	0.496	0,0,0,1,2,3,0,0,0	to_hand	s631
279.271	0.173	0	PA_with_intermediate	3,0,0,1,0,0,2,0,0	test	ward_and_allport	0,0,0,1,0,0,2,3,0	82.0	24.0	0.173	0,0,0,1,2,3,0,0,0	to_board	s631
279.45	0.373	0	PA_with_intermediate	0,0,0,1,0,0,2,0,0	test	ward_and_allport	0,0,0,1,0,0,2,3,0	89.0	24.0	0.373	0,0,0,1,2,3,0,0,0	to_hand	s631
279.824	0.194	0	PA_with_intermediate	0,0,0,1,0,0,2,3,0	test	ward_and_allport	0,0,0,1,0,0,2,3,0	82.0	24.0	0.194	0,0,0,1,2,3,0,0,0	to_board	s631
280.025	1.0	0	PA_with_intermediate	n/a	test	ward_and_allport	n/a	-1.0	24.0	n/a	n/a	feedback	s631
281.025	1.408	0	PA_with_intermediate	n/a	test	ward_and_allport	n/a	-1.0	24.0	n/a	n/a	ITI	s631
282.442	4.645	1	PA_without_intermediate	0,0,0,1,2,0,0,0,0	test	ward_and_allport	1,0,0,0,0,0,3,2,0	71.0	25.0	4.645	0,0,0,1,2,3,0,0,0	to_hand	s631
287.088	0.128	0	PA_without_intermediate	0,0,0,1,2,0,3,0,0	test	ward_and_allport	1,0,0,0,0,0,3,2,0	82.0	25.0	0.128	0,0,0,1,2,3,0,0,0	to_board	s631
287.223	0.177	0	PA_without_intermediate	0,0,0,1,0,0,3,0,0	test	ward_and_allport	1,0,0,0,0,0,3,2,0	71.0	25.0	0.177	0,0,0,1,2,3,0,0,0	to_hand	s631
287.401	0.185	0	PA_without_intermediate	0,0,0,1,0,0,3,2,0	test	ward_and_allport	1,0,0,0,0,0,3,2,0	82.0	25.0	0.185	0,0,0,1,2,3,0,0,0	to_board	s631
287.593	0.279	0	PA_without_intermediate	0,0,0,0,0,0,3,2,0	test	ward_and_allport	1,0,0,0,0,0,3,2,0	71.0	25.0	0.279	0,0,0,1,2,3,0,0,0	to_hand	s631
287.873	0.242	0	PA_without_intermediate	1,0,0,0,0,0,3,2,0	test	ward_and_allport	1,0,0,0,0,0,3,2,0	89.0	25.0	0.242	0,0,0,1,2,3,0,0,0	to_board	s631
288.123	1.0	0	PA_without_intermediate	n/a	test	ward_and_allport	n/a	-1.0	25.0	n/a	n/a	feedback	s631
289.123	1.68	0	PA_without_intermediate	n/a	test	ward_and_allport	n/a	-1.0	25.0	n/a	n/a	ITI	s631
290.811	6.008	1	PA_with_intermediate	1,2,0,0,0,0,0,0,0	test	ward_and_allport	1,0,0,2,3,0,0,0,0	89.0	26.0	6.008	1,2,3,0,0,0,0,0,0	to_hand	s631
296.82	0.148	0	PA_with_intermediate	1,2,0,0,0,0,3,0,0	test	ward_and_allport	1,0,0,2,3,0,0,0,0	82.0	26.0	0.148	1,2,3,0,0,0,0,0,0	to_board	s631
296.975	0.514	0	PA_with_intermediate	1,0,0,0,0,0,3,0,0	test	ward_and_allport	1,0,0,2,3,0,0,0,0	89.0	26.0	0.514	1,2,3,0,0,0,0,0,0	to_hand	s631
297.49	0.292	0	PA_with_intermediate	1,0,0,2,0,0,3,0,0	test	ward_and_allport	1,0,0,2,3,0,0,0,0	71.0	26.0	0.292	1,2,3,0,0,0,0,0,0	to_board	s631
297.789	0.296	0	PA_with_intermediate	1,0,0,2,0,0,0,0,0	test	ward_and_allport	1,0,0,2,3,0,0,0,0	82.0	26.0	0.296	1,2,3,0,0,0,0,0,0	to_hand	s631
298.086	0.288	0	PA_with_intermediate	1,0,0,2,3,0,0,0,0	test	ward_and_allport	1,0,0,2,3,0,0,0,0	71.0	26.0	0.288	1,2,3,0,0,0,0,0,0	to_board	s631
298.384	1.0	0	PA_with_intermediate	n/a	test	ward_and_allport	n/a	-1.0	26.0	n/a	n/a	feedback	s631
299.384	3.72	0	PA_with_intermediate	n/a	test	ward_and_allport	n/a	-1.0	26.0	n/a	n/a	ITI	s631
303.113	4.007	1	PA_without_intermediate	1,2,0,0,0,0,0,0,0	test	ward_and_allport	0,0,0,3,1,0,2,0,0	89.0	27.0	4.007	1,2,3,0,0,0,0,0,0	to_hand	s631
307.122	0.166	0	PA_without_intermediate	1,2,0,3,0,0,0,0,0	test	ward_and_allport	0,0,0,3,1,0,2,0,0	71.0	27.0	0.166	1,2,3,0,0,0,0,0,0	to_board	s631
307.296	0.267	0	PA_without_intermediate	1,0,0,3,0,0,0,0,0	test	ward_and_allport	0,0,0,3,1,0,2,0,0	89.0	27.0	0.267	1,2,3,0,0,0,0,0,0	to_hand	s631
307.563	0.216	0	PA_without_intermediate	1,0,0,3,0,0,2,0,0	test	ward_and_allport	0,0,0,3,1,0,2,0,0	82.0	27.0	0.216	1,2,3,0,0,0,0,0,0	to_board	s631
307.786	0.344	0	PA_without_intermediate	0,0,0,3,0,0,2,0,0	test	ward_and_allport	0,0,0,3,1,0,2,0,0	89.0	27.0	0.344	1,2,3,0,0,0,0,0,0	to_hand	s631
308.132	0.286	0	PA_without_intermediate	0,0,0,3,1,0,2,0,0	test	ward_and_allport	0,0,0,3,1,0,2,0,0	71.0	27.0	0.286	1,2,3,0,0,0,0,0,0	to_board	s631
308.425	1.0	0	PA_without_intermediate	n/a	test	ward_and_allport	n/a	-1.0	27.0	n/a	n/a	feedback	s631
309.425	2.224	0	PA_without_intermediate	n/a	test	ward_and_allport	n/a	-1.0	27.0	n/a	n/a	ITI	s631
311.656	5.34	1	PA_without_intermediate	1,2,0,0,0,0,0,0,0	test	ward_and_allport	0,0,0,3,2,0,1,0,0	89.0	28.0	5.34	1,2,3,0,0,0,0,0,0	to_hand	s631
316.997	0.493	0	PA_without_intermediate	1,2,0,3,0,0,0,0,0	test	ward_and_allport	0,0,0,3,2,0,1,0,0	71.0	28.0	0.493	1,2,3,0,0,0,0,0,0	to_board	s631
317.497	0.501	0	PA_without_intermediate	1,0,0,3,0,0,0,0,0	test	ward_and_allport	0,0,0,3,2,0,1,0,0	89.0	28.0	0.501	1,2,3,0,0,0,0,0,0	to_hand	s631
318.0	0.238	0	PA_without_intermediate	1,0,0,3,2,0,0,0,0	test	ward_and_allport	0,0,0,3,2,0,1,0,0	71.0	28.0	0.238	1,2,3,0,0,0,0,0,0	to_board	s631
318.246	0.339	0	PA_without_intermediate	0,0,0,3,2,0,0,0,0	test	ward_and_allport	0,0,0,3,2,0,1,0,0	89.0	28.0	0.339	1,2,3,0,0,0,0,0,0	to_hand	s631
318.585	0.214	0	PA_without_intermediate	0,0,0,3,2,0,1,0,0	test	ward_and_allport	0,0,0,3,2,0,1,0,0	82.0	28.0	0.214	1,2,3,0,0,0,0,0,0	to_board	s631
318.807	1.0	0	PA_without_intermediate	n/a	test	ward_and_allport	n/a	-1.0	28.0	n/a	n/a	feedback	s631
319.807	1.272	0	PA_without_intermediate	n/a	test	ward_and_allport	n/a	-1.0	28.0	n/a	n/a	ITI	s631
321.087	8.329	1	PA_with_intermediate	1,2,0,0,0,0,0,0,0	test	ward_and_allport	1,3,0,2,0,0,0,0,0	89.0	29.0	8.329	1,2,3,0,0,0,0,0,0	to_hand	s631
329.417	0.171	0	PA_with_intermediate	1,2,0,0,0,0,3,0,0	test	ward_and_allport	1,3,0,2,0,0,0,0,0	82.0	29.0	0.171	1,2,3,0,0,0,0,0,0	to_board	s631
329.595	0.223	0	PA_with_intermediate	1,0,0,0,0,0,3,0,0	test	ward_and_allport	1,3,0,2,0,0,0,0,0	89.0	29.0	0.223	1,2,3,0,0,0,0,0,0	to_hand	s631
329.82	0.156	0	PA_with_intermediate	1,0,0,2,0,0,3,0,0	test	ward_and_allport	1,3,0,2,0,0,0,0,0	71.0	29.0	0.156	1,2,3,0,0,0,0,0,0	to_board	s631
329.984	0.336	0	PA_with_intermediate	1,0,0,2,0,0,0,0,0	test	ward_and_allport	1,3,0,2,0,0,0,0,0	82.0	29.0	0.336	1,2,3,0,0,0,0,0,0	to_hand	s631
330.321	0.205	0	PA_with_intermediate	1,3,0,2,0,0,0,0,0	test	ward_and_allport	1,3,0,2,0,0,0,0,0	89.0	29.0	0.205	1,2,3,0,0,0,0,0,0	to_board	s631
330.534	1.0	0	PA_with_intermediate	n/a	test	ward_and_allport	n/a	-1.0	29.0	n/a	n/a	feedback	s631
331.534	2.632	0	PA_with_intermediate	n/a	test	ward_and_allport	n/a	-1.0	29.0	n/a	n/a	ITI	s631
339.174	10.774	1	PA_without_intermediate	0,0,0,0,0,0,1,2,0	test	ward_and_allport	3,1,0,2,0,0,0,0,0	82.0	30.0	10.774	0,0,0,0,0,0,1,2,3	to_hand	s631
349.948	0.154	0	PA_without_intermediate	3,0,0,0,0,0,1,2,0	test	ward_and_allport	3,1,0,2,0,0,0,0,0	89.0	30.0	0.154	0,0,0,0,0,0,1,2,3	to_board	s631
350.109	0.228	0	PA_without_intermediate	3,0,0,0,0,0,1,0,0	test	ward_and_allport	3,1,0,2,0,0,0,0,0	82.0	30.0	0.228	0,0,0,0,0,0,1,2,3	to_hand	s631
350.338	0.157	0	PA_without_intermediate	3,0,0,2,0,0,1,0,0	test	ward_and_allport	3,1,0,2,0,0,0,0,0	71.0	30.0	0.157	0,0,0,0,0,0,1,2,3	to_board	s631
350.503	0.264	0	PA_without_intermediate	3,0,0,2,0,0,0,0,0	test	ward_and_allport	3,1,0,2,0,0,0,0,0	82.0	30.0	0.264	0,0,0,0,0,0,1,2,3	to_hand	s631
350.767	0.211	0	PA_without_intermediate	3,1,0,2,0,0,0,0,0	test	ward_and_allport	3,1,0,2,0,0,0,0,0	89.0	30.0	0.211	0,0,0,0,0,0,1,2,3	to_board	s631
350.987	1.0	0	PA_without_intermediate	n/a	test	ward_and_allport	n/a	-1.0	30.0	n/a	n/a	feedback	s631
351.987	1.408	0	PA_without_intermediate	n/a	test	ward_and_allport	n/a	-1.0	30.0	n/a	n/a	ITI	s631
353.404	5.097	1	PA_without_intermediate	1,2,0,0,0,0,0,0,0	test	ward_and_allport	0,0,0,1,0,0,3,2,0	89.0	31.0	5.097	1,2,3,0,0,0,0,0,0	to_hand	s631
358.502	0.145	0	PA_without_intermediate	1,2,0,0,0,0,3,0,0	test	ward_and_allport	0,0,0,1,0,0,3,2,0	82.0	31.0	0.145	1,2,3,0,0,0,0,0,0	to_board	s631
358.655	0.198	0	PA_without_intermediate	1,0,0,0,0,0,3,0,0	test	ward_and_allport	0,0,0,1,0,0,3,2,0	89.0	31.0	0.198	1,2,3,0,0,0,0,0,0	to_hand	s631
358.854	0.215	0	PA_without_intermediate	1,0,0,0,0,0,3,2,0	test	ward_and_allport	0,0,0,1,0,0,3,2,0	82.0	31.0	0.215	1,2,3,0,0,0,0,0,0	to_board	s631
359.077	0.384	0	PA_without_intermediate	0,0,0,0,0,0,3,2,0	test	ward_and_allport	0,0,0,1,0,0,3,2,0	89.0	31.0	0.384	1,2,3,0,0,0,0,0,0	to_hand	s631
359.462	0.22	0	PA_without_intermediate	0,0,0,1,0,0,3,2,0	test	ward_and_allport	0,0,0,1,0,0,3,2,0	71.0	31.0	0.22	1,2,3,0,0,0,0,0,0	to_board	s631
359.69	1.0	0	PA_without_intermediate	n/a	test	ward_and_allport	n/a	-1.0	31.0	n/a	n/a	feedback	s631
360.69	1.0	0	PA_without_intermediate	n/a	test	ward_and_allport	n/a	-1.0	31.0	n/a	n/a	ITI	s631
361.698	5.023	1	PA_with_intermediate	0,0,0,1,2,0,0,0,0	test	ward_and_allport	2,3,0,1,0,0,0,0,0	71.0	32.0	5.023	0,0,0,1,2,3,0,0,0	to_hand	s631
366.722	0.136	0	PA_with_intermediate	0,0,0,1,2,0,3,0,0	test	ward_and_allport	2,3,0,1,0,0,0,0,0	82.0	32.0	0.136	0,0,0,1,2,3,0,0,0	to_board	s631
366.866	0.209	0	PA_with_intermediate	0,0,0,1,0,0,3,0,0	test	ward_and_allport	2,3,0,1,0,0,0,0,0	71.0	32.0	0.209	0,0,0,1,2,3,0,0,0	to_hand	s631
367.077	0.21	0	PA_with_intermediate	2,0,0,1,0,0,3,0,0	test	ward_and_allport	2,3,0,1,0,0,0,0,0	89.0	32.0	0.21	0,0,0,1,2,3,0,0,0	to_board	s631
367.297	0.277	0	PA_with_intermediate	2,0,0,1,0,0,0,0,0	test	ward_and_allport	2,3,0,1,0,0,0,0,0	82.0	32.0	0.277	0,0,0,1,2,3,0,0,0	to_hand	s631
367.574	0.16	0	PA_with_intermediate	2,3,0,1,0,0,0,0,0	test	ward_and_allport	2,3,0,1,0,0,0,0,0	89.0	32.0	0.16	0,0,0,1,2,3,0,0,0	to_board	s631
367.744	1.0	0	PA_with_intermediate	n/a	test	ward_and_allport	n/a	-1.0	32.0	n/a	n/a	feedback	s631
368.744	1.0	0	PA_with_intermediate	n/a	test	ward_and_allport	n/a	-1.0	32.0	n/a	n/a	ITI	s631
369.753	5.284	1	PA_with_intermediate	0,0,0,1,2,0,0,0,0	test	ward_and_allport	0,0,0,1,3,0,2,0,0	71.0	33.0	5.284	0,0,0,1,2,3,0,0,0	to_hand	s631
375.038	0.167	0	PA_with_intermediate	3,0,0,1,2,0,0,0,0	test	ward_and_allport	0,0,0,1,3,0,2,0,0	89.0	33.0	0.167	0,0,0,1,2,3,0,0,0	to_board	s631
375.214	0.19	0	PA_with_intermediate	3,0,0,1,0,0,0,0,0	test	ward_and_allport	0,0,0,1,3,0,2,0,0	71.0	33.0	0.19	0,0,0,1,2,3,0,0,0	to_hand	s631
375.405	0.192	0	PA_with_intermediate	3,0,0,1,0,0,2,0,0	test	ward_and_allport	0,0,0,1,3,0,2,0,0	82.0	33.0	0.192	0,0,0,1,2,3,0,0,0	to_board	s631
375.606	0.274	0	PA_with_intermediate	0,0,0,1,0,0,2,0,0	test	ward_and_allport	0,0,0,1,3,0,2,0,0	89.0	33.0	0.274	0,0,0,1,2,3,0,0,0	to_hand	s631
375.881	0.185	0	PA_with_intermediate	0,0,0,1,3,0,2,0,0	test	ward_and_allport	0,0,0,1,3,0,2,0,0	71.0	33.0	0.185	0,0,0,1,2,3,0,0,0	to_board	s631
376.077	1.0	0	PA_with_intermediate	n/a	test	ward_and_allport	n/a	-1.0	33.0	n/a	n/a	feedback	s631
377.077	1.0	0	PA_with_intermediate	n/a	test	ward_and_allport	n/a	-1.0	33.0	n/a	n/a	ITI	s631
378.087	4.316	1	PA_with_intermediate	0,0,0,0,0,0,1,2,0	test	ward_and_allport	2,0,0,0,0,0,1,3,0	82.0	34.0	4.316	0,0,0,0,0,0,1,2,3	to_hand	s631
382.404	0.146	0	PA_with_intermediate	0,0,0,3,0,0,1,2,0	test	ward_and_allport	2,0,0,0,0,0,1,3,0	71.0	34.0	0.146	0,0,0,0,0,0,1,2,3	to_board	s631
382.558	0.212	0	PA_with_intermediate	0,0,0,3,0,0,1,0,0	test	ward_and_allport	2,0,0,0,0,0,1,3,0	82.0	34.0	0.212	0,0,0,0,0,0,1,2,3	to_hand	s631
382.771	0.206	0	PA_with_intermediate	2,0,0,3,0,0,1,0,0	test	ward_and_allport	2,0,0,0,0,0,1,3,0	89.0	34.0	0.206	0,0,0,0,0,0,1,2,3	to_board	s631
382.987	0.26	0	PA_with_intermediate	2,0,0,0,0,0,1,0,0	test	ward_and_allport	2,0,0,0,0,0,1,3,0	71.0	34.0	0.26	0,0,0,0,0,0,1,2,3	to_hand	s631
383.249	0.184	0	PA_with_intermediate	2,0,0,0,0,0,1,3,0	test	ward_and_allport	2,0,0,0,0,0,1,3,0	82.0	34.0	0.184	0,0,0,0,0,0,1,2,3	to_board	s631
383.443	1.0	0	PA_with_intermediate	n/a	test	ward_and_allport	n/a	-1.0	34.0	n/a	n/a	feedback	s631
384.443	1.408	0	PA_with_intermediate	n/a	test	ward_and_allport	n/a	-1.0	34.0	n/a	n/a	ITI	s631
385.86	4.283	1	PA_without_intermediate	0,0,0,0,0,0,1,2,0	test	ward_and_allport	1,0,0,3,2,0,0,0,0	82.0	35.0	4.283	0,0,0,0,0,0,1,2,3	to_hand	s631
390.144	0.124	0	PA_without_intermediate	0,0,0,3,0,0,1,2,0	test	ward_and_allport	1,0,0,3,2,0,0,0,0	71.0	35.0	0.124	0,0,0,0,0,0,1,2,3	to_board	s631
390.276	0.165	0	PA_without_intermediate	0,0,0,3,0,0,1,0,0	test	ward_and_allport	1,0,0,3,2,0,0,0,0	82.0	35.0	0.165	0,0,0,0,0,0,1,2,3	to_hand	s631
390.442	0.146	0	PA_without_intermediate	0,0,0,3,2,0,1,0,0	test	ward_and_allport	1,0,0,3,2,0,0,0,0	71.0	35.0	0.146	0,0,0,0,0,0,1,2,3	to_board	s631
390.598	0.256	0	PA_without_intermediate	0,0,0,3,2,0,0,0,0	test	ward_and_allport	1,0,0,3,2,0,0,0,0	82.0	35.0	0.256	0,0,0,0,0,0,1,2,3	to_hand	s631
390.855	0.278	0	PA_without_intermediate	1,0,0,3,2,0,0,0,0	test	ward_and_allport	1,0,0,3,2,0,0,0,0	89.0	35.0	0.278	0,0,0,0,0,0,1,2,3	to_board	s631
391.144	1.0	0	PA_without_intermediate	n/a	test	ward_and_allport	n/a	-1.0	35.0	n/a	n/a	feedback	s631
392.144	1.816	0	PA_without_intermediate	n/a	test	ward_and_allport	n/a	-1.0	35.0	n/a	n/a	ITI	s631
393.967	4.012	1	PA_with_intermediate	0,0,0,0,0,0,1,2,0	test	ward_and_allport	2,0,0,0,0,0,1,3,0	82.0	36.0	4.012	0,0,0,0,0,0,1,2,3	to_hand	s631
397.979	0.179	0	PA_with_intermediate	0,0,0,3,0,0,1,2,0	test	ward_and_allport	2,0,0,0,0,0,1,3,0	71.0	36.0	0.179	0,0,0,0,0,0,1,2,3	to_board	s631
398.164	0.195	0	PA_with_intermediate	0,0,0,3,0,0,1,0,0	test	ward_and_allport	2,0,0,0,0,0,1,3,0	82.0	36.0	0.195	0,0,0,0,0,0,1,2,3	to_hand	s631
398.361	0.231	0	PA_with_intermediate	2,0,0,3,0,0,1,0,0	test	ward_and_allport	2,0,0,0,0,0,1,3,0	89.0	36.0	0.231	0,0,0,0,0,0,1,2,3	to_board	s631
398.602	0.252	0	PA_with_intermediate	2,0,0,0,0,0,1,0,0	test	ward_and_allport	2,0,0,0,0,0,1,3,0	71.0	36.0	0.252	0,0,0,0,0,0,1,2,3	to_hand	s631
398.855	0.179	0	PA_with_intermediate	2,0,0,0,0,0,1,3,0	test	ward_and_allport	2,0,0,0,0,0,1,3,0	82.0	36.0	0.179	0,0,0,0,0,0,1,2,3	to_board	s631
399.046	1.0	0	PA_with_intermediate	n/a	test	ward_and_allport	n/a	-1.0	36.0	n/a	n/a	feedback	s631
400.046	3.176	0	PA_with_intermediate	n/a	test	ward_and_allport	n/a	-1.0	36.0	n/a	n/a	ITI	s631
403.228	3.898	1	PA_with_intermediate	1,2,0,0,0,0,0,0,0	test	ward_and_allport	1,3,0,2,0,0,0,0,0	89.0	37.0	3.898	1,2,3,0,0,0,0,0,0	to_hand	s631
407.127	0.169	0	PA_with_intermediate	1,2,0,0,0,0,3,0,0	test	ward_and_allport	1,3,0,2,0,0,0,0,0	82.0	37.0	0.169	1,2,3,0,0,0,0,0,0	to_board	s631
407.303	0.491	0	PA_with_intermediate	1,0,0,0,0,0,3,0,0	test	ward_and_allport	1,3,0,2,0,0,0,0,0	89.0	37.0	0.491	1,2,3,0,0,0,0,0,0	to_hand	s631
407.795	0.227	0	PA_with_intermediate	1,0,0,2,0,0,3,0,0	test	ward_and_allport	1,3,0,2,0,0,0,0,0	71.0	37.0	0.227	1,2,3,0,0,0,0,0,0	to_board	s631
408.031	0.31	0	PA_with_intermediate	1,0,0,2,0,0,0,0,0	test	ward_and_allport	1,3,0,2,0,0,0,0,0	82.0	37.0	0.31	1,2,3,0,0,0,0,0,0	to_hand	s631
408.343	0.236	0	PA_with_intermediate	1,3,0,2,0,0,0,0,0	test	ward_and_allport	1,3,0,2,0,0,0,0,0	89.0	37.0	0.236	1,2,3,0,0,0,0,0,0	to_board	s631
408.589	1.0	0	PA_with_intermediate	n/a	test	ward_and_allport	n/a	-1.0	37.0	n/a	n/a	feedback	s631
409.589	2.36	0	PA_with_intermediate	n/a	test	ward_and_allport	n/a	-1.0	37.0	n/a	n/a	ITI	s631
411.958	4.579	1	PA_with_intermediate	0,0,0,0,0,0,1,2,0	test	ward_and_allport	0,0,0,2,0,0,1,3,0	82.0	38.0	4.579	0,0,0,0,0,0,1,2,3	to_hand	s631
416.538	0.165	0	PA_with_intermediate	3,0,0,0,0,0,1,2,0	test	ward_and_allport	0,0,0,2,0,0,1,3,0	89.0	38.0	0.165	0,0,0,0,0,0,1,2,3	to_board	s631
416.712	0.239	0	PA_with_intermediate	3,0,0,0,0,0,1,0,0	test	ward_and_allport	0,0,0,2,0,0,1,3,0	82.0	38.0	0.239	0,0,0,0,0,0,1,2,3	to_hand	s631
416.952	0.175	0	PA_with_intermediate	3,0,0,2,0,0,1,0,0	test	ward_and_allport	0,0,0,2,0,0,1,3,0	71.0	38.0	0.175	0,0,0,0,0,0,1,2,3	to_board	s631
417.137	0.306	0	PA_with_intermediate	0,0,0,2,0,0,1,0,0	test	ward_and_allport	0,0,0,2,0,0,1,3,0	89.0	38.0	0.306	0,0,0,0,0,0,1,2,3	to_hand	s631
417.444	0.18	0	PA_with_intermediate	0,0,0,2,0,0,1,3,0	test	ward_and_allport	0,0,0,2,0,0,1,3,0	82.0	38.0	0.18	0,0,0,0,0,0,1,2,3	to_board	s631
417.634	1.0	0	PA_with_intermediate	n/a	test	ward_and_allport	n/a	-1.0	38.0	n/a	n/a	feedback	s631
418.634	1.0	0	PA_with_intermediate	n/a	test	ward_and_allport	n/a	-1.0	38.0	n/a	n/a	ITI	s631
419.643	7.048	1	PA_without_intermediate	0,0,0,1,2,0,0,0,0	test	ward_and_allport	3,2,0,0,0,0,1,0,0	71.0	39.0	7.048	0,0,0,1,2,3,0,0,0	to_hand	s631
426.692	0.108	0	PA_without_intermediate	3,0,0,1,2,0,0,0,0	test	ward_and_allport	3,2,0,0,0,0,1,0,0	89.0	39.0	0.108	0,0,0,1,2,3,0,0,0	to_board	s631
426.807	0.172	0	PA_without_intermediate	3,0,0,1,0,0,0,0,0	test	ward_and_allport	3,2,0,0,0,0,1,0,0	71.0	39.0	0.172	0,0,0,1,2,3,0,0,0	to_hand	s631
426.981	0.179	0	PA_without_intermediate	3,2,0,1,0,0,0,0,0	test	ward_and_allport	3,2,0,0,0,0,1,0,0	89.0	39.0	0.179	0,0,0,1,2,3,0,0,0	to_board	s631
427.169	0.274	0	PA_without_intermediate	3,2,0,0,0,0,0,0,0	test	ward_and_allport	3,2,0,0,0,0,1,0,0	71.0	39.0	0.274	0,0,0,1,2,3,0,0,0	to_hand	s631
427.444	0.245	0	PA_without_intermediate	3,2,0,0,0,0,1,0,0	test	ward_and_allport	3,2,0,0,0,0,1,0,0	82.0	39.0	0.245	0,0,0,1,2,3,0,0,0	to_board	s631
427.7	1.0	0	PA_without_intermediate	n/a	test	ward_and_allport	n/a	-1.0	39.0	n/a	n/a	feedback	s631
428.7	1.408	0	PA_without_intermediate	n/a	test	ward_and_allport	n/a	-1.0	39.0	n/a	n/a	ITI	s631
430.118	3.344	1	PA_with_intermediate	0,0,0,1,2,0,0,0,0	test	ward_and_allport	0,0,0,1,3,0,2,0,0	71.0	40.0	3.344	0,0,0,1,2,3,0,0,0	to_hand	s631
433.464	0.151	0	PA_with_intermediate	3,0,0,1,2,0,0,0,0	test	ward_and_allport	0,0,0,1,3,0,2,0,0	89.0	40.0	0.151	0,0,0,1,2,3,0,0,0	to_board	s631
433.626	0.161	0	PA_with_intermediate	3,0,0,1,0,0,0,0,0	test	ward_and_allport	0,0,0,1,3,0,2,0,0	71.0	40.0	0.161	0,0,0,1,2,3,0,0,0	to_hand	s631
433.788	0.186	0	PA_with_intermediate	3,0,0,1,0,0,2,0,0	test	ward_and_allport	0,0,0,1,3,0,2,0,0	82.0	40.0	0.186	0,0,0,1,2,3,0,0,0	to_board	s631
433.983	0.283	0	PA_with_intermediate	0,0,0,1,0,0,2,0,0	test	ward_and_allport	0,0,0,1,3,0,2,0,0	89.0	40.0	0.283	0,0,0,1,2,3,0,0,0	to_hand	s631
434.267	0.158	0	PA_with_intermediate	0,0,0,1,3,0,2,0,0	test	ward_and_allport	0,0,0,1,3,0,2,0,0	71.0	40.0	0.158	0,0,0,1,2,3,0,0,0	to_board	s631
434.433	1.0	0	PA_with_intermediate	n/a	test	ward_and_allport	n/a	-1.0	40.0	n/a	n/a	feedback	s631
435.433	1.816	0	PA_with_intermediate	n/a	test	ward_and_allport	n/a	-1.0	40.0	n/a	n/a	ITI	s631
437.258	3.282	1	PA_without_intermediate	1,2,0,0,0,0,0,0,0	test	ward_and_allport	0,0,0,1,0,0,3,2,0	89.0	41.0	3.282	1,2,3,0,0,0,0,0,0	to_hand	s631
440.541	0.124	0	PA_without_intermediate	1,2,0,0,0,0,3,0,0	test	ward_and_allport	0,0,0,1,0,0,3,2,0	82.0	41.0	0.124	1,2,3,0,0,0,0,0,0	to_board	s631
440.672	0.175	0	PA_without_intermediate	1,0,0,0,0,0,3,0,0	test	ward_and_allport	0,0,0,1,0,0,3,2,0	89.0	41.0	0.175	1,2,3,0,0,0,0,0,0	to_hand	s631
440.848	0.181	0	PA_without_intermediate	1,0,0,0,0,0,3,2,0	test	ward_and_allport	0,0,0,1,0,0,3,2,0	82.0	41.0	0.181	1,2,3,0,0,0,0,0,0	to_board	s631
441.039	0.313	0	PA_without_intermediate	0,0,0,0,0,0,3,2,0	test	ward_and_allport	0,0,0,1,0,0,3,2,0	89.0	41.0	0.313	1,2,3,0,0,0,0,0,0	to_hand	s631
441.354	0.18	0	PA_without_intermediate	0,0,0,1,0,0,3,2,0	test	ward_and_allport	0,0,0,1,0,0,3,2,0	71.0	41.0	0.18	1,2,3,0,0,0,0,0,0	to_board	s631
441.543	1.0	0	PA_without_intermediate	n/a	test	ward_and_allport	n/a	-1.0	41.0	n/a	n/a	feedback	s631
442.543	2.088	0	PA_without_intermediate	n/a	test	ward_and_allport	n/a	-1.0	41.0	n/a	n/a	ITI	s631
444.639	2.573	1	PA_without_intermediate	0,0,0,1,2,0,0,0,0	test	ward_and_allport	1,0,0,0,0,0,3,2,0	71.0	42.0	2.573	0,0,0,1,2,3,0,0,0	to_hand	s631
447.212	0.125	0	PA_without_intermediate	0,0,0,1,2,0,3,0,0	test	ward_and_allport	1,0,0,0,0,0,3,2,0	82.0	42.0	0.125	0,0,0,1,2,3,0,0,0	to_board	s631
447.345	0.183	0	PA_without_intermediate	0,0,0,1,0,0,3,0,0	test	ward_and_allport	1,0,0,0,0,0,3,2,0	71.0	42.0	0.183	0,0,0,1,2,3,0,0,0	to_hand	s631
447.528	0.159	0	PA_without_intermediate	0,0,0,1,0,0,3,2,0	test	ward_and_allport	1,0,0,0,0,0,3,2,0	82.0	42.0	0.159	0,0,0,1,2,3,0,0,0	to_board	s631
447.698	0.192	0	PA_without_intermediate	0,0,0,0,0,0,3,2,0	test	ward_and_allport	1,0,0,0,0,0,3,2,0	71.0	42.0	0.192	0,0,0,1,2,3,0,0,0	to_hand	s631
447.891	0.212	0	PA_without_intermediate	1,0,0,0,0,0,3,2,0	test	ward_and_allport	1,0,0,0,0,0,3,2,0	89.0	42.0	0.212	0,0,0,1,2,3,0,0,0	to_board	s631
448.112	1.0	0	PA_without_intermediate	n/a	test	ward_and_allport	n/a	-1.0	42.0	n/a	n/a	feedback	s631
449.112	1.136	0	PA_without_intermediate	n/a	test	ward_and_allport	n/a	-1.0	42.0	n/a	n/a	ITI	s631
450.256	2.897	1	PA_without_intermediate	0,0,0,0,0,0,1,2,0	test	ward_and_allport	2,0,0,3,1,0,0,0,0	82.0	43.0	2.897	0,0,0,0,0,0,1,2,3	to_hand	s631
453.154	0.111	0	PA_without_intermediate	0,0,0,3,0,0,1,2,0	test	ward_and_allport	2,0,0,3,1,0,0,0,0	71.0	43.0	0.111	0,0,0,0,0,0,1,2,3	to_board	s631
453.273	0.261	0	PA_without_intermediate	0,0,0,3,0,0,1,0,0	test	ward_and_allport	2,0,0,3,1,0,0,0,0	82.0	43.0	0.261	0,0,0,0,0,0,1,2,3	to_hand	s631
453.535	0.23	0	PA_without_intermediate	2,0,0,3,0,0,1,0,0	test	ward_and_allport	2,0,0,3,1,0,0,0,0	89.0	43.0	0.23	0,0,0,0,0,0,1,2,3	to_board	s631
453.776	0.26	0	PA_without_intermediate	2,0,0,3,0,0,0,0,0	test	ward_and_allport	2,0,0,3,1,0,0,0,0	82.0	43.0	0.26	0,0,0,0,0,0,1,2,3	to_hand	s631
454.037	0.197	0	PA_without_intermediate	2,0,0,3,1,0,0,0,0	test	ward_and_allport	2,0,0,3,1,0,0,0,0	71.0	43.0	0.197	0,0,0,0,0,0,1,2,3	to_board	s631
454.244	1.0	0	PA_without_intermediate	n/a	test	ward_and_allport	n/a	-1.0	43.0	n/a	n/a	feedback	s631
455.244	6.168	0	PA_without_intermediate	n/a	test	ward_and_allport	n/a	-1.0	43.0	n/a	n/a	ITI	s631
461.42	3.762	1	PA_without_intermediate	0,0,0,0,0,0,1,2,0	test	ward_and_allport	3,1,0,2,0,0,0,0,0	82.0	44.0	3.762	0,0,0,0,0,0,1,2,3	to_hand	s631
465.183	0.171	0	PA_without_intermediate	3,0,0,0,0,0,1,2,0	test	ward_and_allport	3,1,0,2,0,0,0,0,0	89.0	44.0	0.171	0,0,0,0,0,0,1,2,3	to_board	s631
465.364	0.254	0	PA_without_intermediate	3,0,0,0,0,0,1,0,0	test	ward_and_allport	3,1,0,2,0,0,0,0,0	82.0	44.0	0.254	0,0,0,0,0,0,1,2,3	to_hand	s631
465.62	0.339	0	PA_without_intermediate	3,0,0,2,0,0,1,0,0	test	ward_and_allport	3,1,0,2,0,0,0,0,0	71.0	44.0	0.339	0,0,0,0,0,0,1,2,3	to_board	s631
465.97	0.664	0	PA_without_intermediate	3,0,0,2,0,0,0,0,0	test	ward_and_allport	3,1,0,2,0,0,0,0,0	82.0	44.0	0.664	0,0,0,0,0,0,1,2,3	to_hand	s631
466.635	0.188	0	PA_without_intermediate	3,1,0,2,0,0,0,0,0	test	ward_and_allport	3,1,0,2,0,0,0,0,0	89.0	44.0	0.188	0,0,0,0,0,0,1,2,3	to_board	s631
466.836	1.0	0	PA_without_intermediate	n/a	test	ward_and_allport	n/a	-1.0	44.0	n/a	n/a	feedback	s631
467.836	1.816	0	PA_without_intermediate	n/a	test	ward_and_allport	n/a	-1.0	44.0	n/a	n/a	ITI	s631
474.665	6.196	1	PA_with_intermediate	1,2,0,0,0,0,0,0,0	test	ward_and_allport	1,0,0,0,0,0,2,3,0	89.0	45.0	6.196	1,2,3,0,0,0,0,0,0	to_hand	s631
480.862	0.154	0	PA_with_intermediate	1,2,0,3,0,0,0,0,0	test	ward_and_allport	1,0,0,0,0,0,2,3,0	71.0	45.0	0.154	1,2,3,0,0,0,0,0,0	to_board	s631
481.026	0.197	0	PA_with_intermediate	1,0,0,3,0,0,0,0,0	test	ward_and_allport	1,0,0,0,0,0,2,3,0	89.0	45.0	0.197	1,2,3,0,0,0,0,0,0	to_hand	s631
481.224	0.261	0	PA_with_intermediate	1,0,0,3,0,0,2,0,0	test	ward_and_allport	1,0,0,0,0,0,2,3,0	82.0	45.0	0.261	1,2,3,0,0,0,0,0,0	to_board	s631
481.496	0.288	0	PA_with_intermediate	1,0,0,0,0,0,2,0,0	test	ward_and_allport	1,0,0,0,0,0,2,3,0	71.0	45.0	0.288	1,2,3,0,0,0,0,0,0	to_hand	s631
481.785	0.19	0	PA_with_intermediate	1,0,0,0,0,0,2,3,0	test	ward_and_allport	1,0,0,0,0,0,2,3,0	82.0	45.0	0.19	1,2,3,0,0,0,0,0,0	to_board	s631
481.988	1.0	0	PA_with_intermediate	n/a	test	ward_and_allport	n/a	-1.0	45.0	n/a	n/a	feedback	s631
482.988	1.952	0	PA_with_intermediate	n/a	test	ward_and_allport	n/a	-1.0	45.0	n/a	n/a	ITI	s631
484.948	5.414	1	PA_with_intermediate	1,2,0,0,0,0,0,0,0	test	ward_and_allport	1,3,0,0,0,0,2,0,0	89.0	46.0	5.414	1,2,3,0,0,0,0,0,0	to_hand	s631
490.363	0.157	0	PA_with_intermediate	1,2,0,3,0,0,0,0,0	test	ward_and_allport	1,3,0,0,0,0,2,0,0	71.0	46.0	0.157	1,2,3,0,0,0,0,0,0	to_board	s631
490.532	0.202	0	PA_with_intermediate	1,0,0,3,0,0,0,0,0	test	ward_and_allport	1,3,0,0,0,0,2,0,0	89.0	46.0	0.202	1,2,3,0,0,0,0,0,0	to_hand	s631
490.735	0.217	0	PA_with_intermediate	1,0,0,3,0,0,2,0,0	test	ward_and_allport	1,3,0,0,0,0,2,0,0	82.0	46.0	0.217	1,2,3,0,0,0,0,0,0	to_board	s631
490.965	0.231	0	PA_with_intermediate	1,0,0,0,0,0,2,0,0	test	ward_and_allport	1,3,0,0,0,0,2,0,0	71.0	46.0	0.231	1,2,3,0,0,0,0,0,0	to_hand	s631
491.197	0.195	0	PA_with_intermediate	1,3,0,0,0,0,2,0,0	test	ward_and_allport	1,3,0,0,0,0,2,0,0	89.0	46.0	0.195	1,2,3,0,0,0,0,0,0	to_board	s631
491.403	1.0	0	PA_with_intermediate	n/a	test	ward_and_allport	n/a	-1.0	46.0	n/a	n/a	feedback	s631
492.403	1.136	0	PA_with_intermediate	n/a	test	ward_and_allport	n/a	-1.0	46.0	n/a	n/a	ITI	s631
493.548	3.481	1	PA_without_intermediate	0,0,0,0,0,0,1,2,0	test	ward_and_allport	3,2,0,1,0,0,0,0,0	82.0	47.0	3.481	0,0,0,0,0,0,1,2,3	to_hand	s631
497.03	0.148	0	PA_without_intermediate	3,0,0,0,0,0,1,2,0	test	ward_and_allport	3,2,0,1,0,0,0,0,0	89.0	47.0	0.148	0,0,0,0,0,0,1,2,3	to_board	s631
497.187	0.186	0	PA_without_intermediate	3,0,0,0,0,0,1,0,0	test	ward_and_allport	3,2,0,1,0,0,0,0,0	82.0	47.0	0.186	0,0,0,0,0,0,1,2,3	to_hand	s631
497.374	0.213	0	PA_without_intermediate	3,2,0,0,0,0,1,0,0	test	ward_and_allport	3,2,0,1,0,0,0,0,0	89.0	47.0	0.213	0,0,0,0,0,0,1,2,3	to_board	s631
497.596	0.18	0	PA_without_intermediate	3,2,0,0,0,0,0,0,0	test	ward_and_allport	3,2,0,1,0,0,0,0,0	82.0	47.0	0.18	0,0,0,0,0,0,1,2,3	to_hand	s631
497.777	0.23	0	PA_without_intermediate	3,2,0,1,0,0,0,0,0	test	ward_and_allport	3,2,0,1,0,0,0,0,0	71.0	47.0	0.23	0,0,0,0,0,0,1,2,3	to_board	s631
498.015	1.0	0	PA_without_intermediate	n/a	test	ward_and_allport	n/a	-1.0	47.0	n/a	n/a	feedback	s631
499.015	1.68	0	PA_without_intermediate	n/a	test	ward_and_allport	n/a	-1.0	47.0	n/a	n/a	ITI	s631
n/a	n/a	0	n/a	n/a	n/a	n/a	n/a	n/a	n/a	n/a	n/a	ITI	n/a
