onset	duration	planning	condition	current_position	exp_stage	experiment_exp_id	goal_state	key_press	problem_id	response_time	start_state	trial_id	worker_id
-66.577	0.0	0	n/a	n/a	n/a	ward_and_allport	n/a	32.0	n/a	32.295	n/a	instructions	s628
3.013	8.438	1	UA_with_intermediate	1,0,0,2,0,0,0,0,0	practice	ward_and_allport	1,2,3,0,0,0,0,0,0	71.0	0.0	8.438	1,0,0,2,3,0,0,0,0	to_hand	s628
11.453	0.385	0	UA_with_intermediate	1,0,0,2,0,0,3,0,0	practice	ward_and_allport	1,2,3,0,0,0,0,0,0	82.0	0.0	0.385	1,0,0,2,3,0,0,0,0	to_board	s628
11.84	0.77	0	UA_with_intermediate	1,0,0,0,0,0,3,0,0	practice	ward_and_allport	1,2,3,0,0,0,0,0,0	71.0	0.0	0.77	1,0,0,2,3,0,0,0,0	to_hand	s628
12.61	0.75	0	UA_with_intermediate	1,2,0,0,0,0,3,0,0	practice	ward_and_allport	1,2,3,0,0,0,0,0,0	89.0	0.0	0.75	1,0,0,2,3,0,0,0,0	to_board	s628
13.362	0.752	0	UA_with_intermediate	1,2,0,0,0,0,0,0,0	practice	ward_and_allport	1,2,3,0,0,0,0,0,0	82.0	0.0	0.752	1,0,0,2,3,0,0,0,0	to_hand	s628
14.115	0.478	0	UA_with_intermediate	1,2,3,0,0,0,0,0,0	practice	ward_and_allport	1,2,3,0,0,0,0,0,0	89.0	0.0	0.478	1,0,0,2,3,0,0,0,0	to_board	s628
14.599	1.0	0	UA_with_intermediate	n/a	practice	ward_and_allport	n/a	-1.0	0.0	n/a	n/a	feedback	s628
17.101	5.3	1	UA_with_intermediate	1,0,0,3,0,0,0,0,0	practice	ward_and_allport	1,3,2,0,0,0,0,0,0	89.0	1.0	5.3	1,2,0,3,0,0,0,0,0	to_hand	s628
22.402	0.369	0	UA_with_intermediate	1,0,0,3,0,0,2,0,0	practice	ward_and_allport	1,3,2,0,0,0,0,0,0	82.0	1.0	0.369	1,2,0,3,0,0,0,0,0	to_board	s628
22.772	0.364	0	UA_with_intermediate	1,0,0,0,0,0,2,0,0	practice	ward_and_allport	1,3,2,0,0,0,0,0,0	71.0	1.0	0.364	1,2,0,3,0,0,0,0,0	to_hand	s628
23.138	0.505	0	UA_with_intermediate	1,3,0,0,0,0,2,0,0	practice	ward_and_allport	1,3,2,0,0,0,0,0,0	89.0	1.0	0.505	1,2,0,3,0,0,0,0,0	to_board	s628
23.644	0.699	0	UA_with_intermediate	1,3,0,0,0,0,0,0,0	practice	ward_and_allport	1,3,2,0,0,0,0,0,0	82.0	1.0	0.699	1,2,0,3,0,0,0,0,0	to_hand	s628
24.345	0.312	0	UA_with_intermediate	1,3,2,0,0,0,0,0,0	practice	ward_and_allport	1,3,2,0,0,0,0,0,0	89.0	1.0	0.312	1,2,0,3,0,0,0,0,0	to_board	s628
24.663	1.0	0	UA_with_intermediate	n/a	practice	ward_and_allport	n/a	-1.0	1.0	n/a	n/a	feedback	s628
25.663	1.1	0	UA_with_intermediate	n/a	practice	ward_and_allport	n/a	-1.0	1.0	n/a	n/a	ITI	s628
26.765	8.095	1	UA_without_intermediate	0,0,0,1,2,0,0,0,0	practice	ward_and_allport	3,2,1,0,0,0,0,0,0	82.0	2.0	8.095	0,0,0,1,2,0,3,0,0	to_hand	s628
34.862	0.586	0	UA_without_intermediate	3,0,0,1,2,0,0,0,0	practice	ward_and_allport	3,2,1,0,0,0,0,0,0	89.0	2.0	0.586	0,0,0,1,2,0,3,0,0	to_board	s628
35.45	1.34	0	UA_without_intermediate	3,0,0,1,0,0,0,0,0	practice	ward_and_allport	3,2,1,0,0,0,0,0,0	71.0	2.0	1.34	0,0,0,1,2,0,3,0,0	to_hand	s628
36.791	0.359	0	UA_without_intermediate	3,2,0,1,0,0,0,0,0	practice	ward_and_allport	3,2,1,0,0,0,0,0,0	89.0	2.0	0.359	0,0,0,1,2,0,3,0,0	to_board	s628
37.151	0.616	0	UA_without_intermediate	3,2,0,0,0,0,0,0,0	practice	ward_and_allport	3,2,1,0,0,0,0,0,0	71.0	2.0	0.616	0,0,0,1,2,0,3,0,0	to_hand	s628
37.768	0.296	0	UA_without_intermediate	3,2,1,0,0,0,0,0,0	practice	ward_and_allport	3,2,1,0,0,0,0,0,0	89.0	2.0	0.296	0,0,0,1,2,0,3,0,0	to_board	s628
38.069	1.0	0	UA_without_intermediate	n/a	practice	ward_and_allport	n/a	-1.0	2.0	n/a	n/a	feedback	s628
39.069	1.2	0	UA_without_intermediate	n/a	practice	ward_and_allport	n/a	-1.0	2.0	n/a	n/a	ITI	s628
40.271	4.292	1	UA_without_intermediate	0,0,0,1,0,0,3,0,0	practice	ward_and_allport	2,3,1,0,0,0,0,0,0	71.0	3.0	4.292	0,0,0,1,2,0,3,0,0	to_hand	s628
44.564	0.315	0	UA_without_intermediate	2,0,0,1,0,0,3,0,0	practice	ward_and_allport	2,3,1,0,0,0,0,0,0	89.0	3.0	0.315	0,0,0,1,2,0,3,0,0	to_board	s628
44.881	0.324	0	UA_without_intermediate	2,0,0,1,0,0,0,0,0	practice	ward_and_allport	2,3,1,0,0,0,0,0,0	82.0	3.0	0.324	0,0,0,1,2,0,3,0,0	to_hand	s628
45.205	0.473	0	UA_without_intermediate	2,3,0,1,0,0,0,0,0	practice	ward_and_allport	2,3,1,0,0,0,0,0,0	89.0	3.0	0.473	0,0,0,1,2,0,3,0,0	to_board	s628
45.68	0.771	0	UA_without_intermediate	2,3,0,0,0,0,0,0,0	practice	ward_and_allport	2,3,1,0,0,0,0,0,0	71.0	3.0	0.771	0,0,0,1,2,0,3,0,0	to_hand	s628
46.453	0.207	0	UA_without_intermediate	2,3,1,0,0,0,0,0,0	practice	ward_and_allport	2,3,1,0,0,0,0,0,0	89.0	3.0	0.207	0,0,0,1,2,0,3,0,0	to_board	s628
46.664	1.0	0	UA_without_intermediate	n/a	practice	ward_and_allport	n/a	-1.0	3.0	n/a	n/a	feedback	s628
47.664	1.0	0	UA_without_intermediate	n/a	practice	ward_and_allport	n/a	-1.0	3.0	n/a	n/a	ITI	s628
50.673	7.403	1	PA_with_intermediate	1,2,0,0,0,0,0,0,0	test	ward_and_allport	1,3,0,0,0,0,2,0,0	89.0	0.0	7.403	1,2,3,0,0,0,0,0,0	to_hand	s628
58.078	0.289	0	PA_with_intermediate	1,2,0,3,0,0,0,0,0	test	ward_and_allport	1,3,0,0,0,0,2,0,0	71.0	0.0	0.289	1,2,3,0,0,0,0,0,0	to_board	s628
58.369	0.746	0	PA_with_intermediate	1,0,0,3,0,0,0,0,0	test	ward_and_allport	1,3,0,0,0,0,2,0,0	89.0	0.0	0.746	1,2,3,0,0,0,0,0,0	to_hand	s628
59.115	0.276	0	PA_with_intermediate	1,0,0,3,0,0,2,0,0	test	ward_and_allport	1,3,0,0,0,0,2,0,0	82.0	0.0	0.276	1,2,3,0,0,0,0,0,0	to_board	s628
59.393	0.804	0	PA_with_intermediate	1,0,0,0,0,0,2,0,0	test	ward_and_allport	1,3,0,0,0,0,2,0,0	71.0	0.0	0.804	1,2,3,0,0,0,0,0,0	to_hand	s628
60.198	0.294	0	PA_with_intermediate	1,3,0,0,0,0,2,0,0	test	ward_and_allport	1,3,0,0,0,0,2,0,0	89.0	0.0	0.294	1,2,3,0,0,0,0,0,0	to_board	s628
60.496	1.0	0	PA_with_intermediate	n/a	test	ward_and_allport	n/a	-1.0	0.0	n/a	n/a	feedback	s628
61.496	1.408	0	PA_with_intermediate	n/a	test	ward_and_allport	n/a	-1.0	0.0	n/a	n/a	ITI	s628
62.907	6.442	1	PA_without_intermediate	0,0,0,0,0,0,1,2,0	test	ward_and_allport	3,2,0,1,0,0,0,0,0	82.0	1.0	6.442	0,0,0,0,0,0,1,2,3	to_hand	s628
69.35	0.301	0	PA_without_intermediate	3,0,0,0,0,0,1,2,0	test	ward_and_allport	3,2,0,1,0,0,0,0,0	89.0	1.0	0.301	0,0,0,0,0,0,1,2,3	to_board	s628
69.653	0.764	0	PA_without_intermediate	3,0,0,0,0,0,1,0,0	test	ward_and_allport	3,2,0,1,0,0,0,0,0	82.0	1.0	0.764	0,0,0,0,0,0,1,2,3	to_hand	s628
70.418	0.98	0	PA_without_intermediate	3,2,0,0,0,0,1,0,0	test	ward_and_allport	3,2,0,1,0,0,0,0,0	89.0	1.0	0.98	0,0,0,0,0,0,1,2,3	to_board	s628
71.4	0.935	0	PA_without_intermediate	3,2,0,0,0,0,0,0,0	test	ward_and_allport	3,2,0,1,0,0,0,0,0	82.0	1.0	0.935	0,0,0,0,0,0,1,2,3	to_hand	s628
72.335	0.443	0	PA_without_intermediate	3,2,0,1,0,0,0,0,0	test	ward_and_allport	3,2,0,1,0,0,0,0,0	71.0	1.0	0.443	0,0,0,0,0,0,1,2,3	to_board	s628
72.785	1.0	0	PA_without_intermediate	n/a	test	ward_and_allport	n/a	-1.0	1.0	n/a	n/a	feedback	s628
73.785	1.68	0	PA_without_intermediate	n/a	test	ward_and_allport	n/a	-1.0	1.0	n/a	n/a	ITI	s628
75.467	7.121	1	PA_with_intermediate	0,0,0,0,0,0,1,2,0	test	ward_and_allport	0,0,0,2,0,0,1,3,0	82.0	2.0	7.121	0,0,0,0,0,0,1,2,3	to_hand	s628
82.589	0.331	0	PA_with_intermediate	3,0,0,0,0,0,1,2,0	test	ward_and_allport	0,0,0,2,0,0,1,3,0	89.0	2.0	0.331	0,0,0,0,0,0,1,2,3	to_board	s628
82.922	1.377	0	PA_with_intermediate	3,0,0,0,0,0,1,0,0	test	ward_and_allport	0,0,0,2,0,0,1,3,0	82.0	2.0	1.377	0,0,0,0,0,0,1,2,3	to_hand	s628
84.299	0.92	0	PA_with_intermediate	3,0,0,2,0,0,1,0,0	test	ward_and_allport	0,0,0,2,0,0,1,3,0	71.0	2.0	0.92	0,0,0,0,0,0,1,2,3	to_board	s628
85.221	1.205	0	PA_with_intermediate	0,0,0,2,0,0,1,0,0	test	ward_and_allport	0,0,0,2,0,0,1,3,0	89.0	2.0	1.205	0,0,0,0,0,0,1,2,3	to_hand	s628
86.428	0.261	0	PA_with_intermediate	0,0,0,2,0,0,1,3,0	test	ward_and_allport	0,0,0,2,0,0,1,3,0	82.0	2.0	0.261	0,0,0,0,0,0,1,2,3	to_board	s628
86.692	1.0	0	PA_with_intermediate	n/a	test	ward_and_allport	n/a	-1.0	2.0	n/a	n/a	feedback	s628
87.692	3.72	0	PA_with_intermediate	n/a	test	ward_and_allport	n/a	-1.0	2.0	n/a	n/a	ITI	s628
91.415	4.817	1	PA_without_intermediate	1,2,0,0,0,0,0,0,0	test	ward_and_allport	0,0,0,3,2,0,1,0,0	89.0	3.0	4.817	1,2,3,0,0,0,0,0,0	to_hand	s628
96.233	1.164	0	PA_without_intermediate	1,2,0,3,0,0,0,0,0	test	ward_and_allport	0,0,0,3,2,0,1,0,0	71.0	3.0	1.164	1,2,3,0,0,0,0,0,0	to_board	s628
97.4	1.609	0	PA_without_intermediate	1,0,0,3,0,0,0,0,0	test	ward_and_allport	0,0,0,3,2,0,1,0,0	89.0	3.0	1.609	1,2,3,0,0,0,0,0,0	to_hand	s628
99.009	0.532	0	PA_without_intermediate	1,0,0,3,2,0,0,0,0	test	ward_and_allport	0,0,0,3,2,0,1,0,0	71.0	3.0	0.532	1,2,3,0,0,0,0,0,0	to_board	s628
99.544	0.525	0	PA_without_intermediate	0,0,0,3,2,0,0,0,0	test	ward_and_allport	0,0,0,3,2,0,1,0,0	89.0	3.0	0.525	1,2,3,0,0,0,0,0,0	to_hand	s628
100.071	0.329	0	PA_without_intermediate	0,0,0,3,2,0,1,0,0	test	ward_and_allport	0,0,0,3,2,0,1,0,0	82.0	3.0	0.329	1,2,3,0,0,0,0,0,0	to_board	s628
100.408	1.0	0	PA_without_intermediate	n/a	test	ward_and_allport	n/a	-1.0	3.0	n/a	n/a	feedback	s628
101.408	2.224	0	PA_without_intermediate	n/a	test	ward_and_allport	n/a	-1.0	3.0	n/a	n/a	ITI	s628
103.635	4.136	1	PA_without_intermediate	0,0,0,1,2,0,0,0,0	test	ward_and_allport	1,0,0,0,0,0,3,2,0	71.0	4.0	4.136	0,0,0,1,2,3,0,0,0	to_hand	s628
107.771	0.39	0	PA_without_intermediate	0,0,0,1,2,0,3,0,0	test	ward_and_allport	1,0,0,0,0,0,3,2,0	82.0	4.0	0.39	0,0,0,1,2,3,0,0,0	to_board	s628
108.163	0.385	0	PA_without_intermediate	0,0,0,1,0,0,3,0,0	test	ward_and_allport	1,0,0,0,0,0,3,2,0	71.0	4.0	0.385	0,0,0,1,2,3,0,0,0	to_hand	s628
108.549	0.383	0	PA_without_intermediate	0,0,0,1,0,0,3,2,0	test	ward_and_allport	1,0,0,0,0,0,3,2,0	82.0	4.0	0.383	0,0,0,1,2,3,0,0,0	to_board	s628
108.936	1.161	0	PA_without_intermediate	0,0,0,0,0,0,3,2,0	test	ward_and_allport	1,0,0,0,0,0,3,2,0	71.0	4.0	1.161	0,0,0,1,2,3,0,0,0	to_hand	s628
110.097	0.33	0	PA_without_intermediate	1,0,0,0,0,0,3,2,0	test	ward_and_allport	1,0,0,0,0,0,3,2,0	89.0	4.0	0.33	0,0,0,1,2,3,0,0,0	to_board	s628
110.432	1.0	0	PA_without_intermediate	n/a	test	ward_and_allport	n/a	-1.0	4.0	n/a	n/a	feedback	s628
111.432	1.272	0	PA_without_intermediate	n/a	test	ward_and_allport	n/a	-1.0	4.0	n/a	n/a	ITI	s628
112.707	4.602	1	PA_with_intermediate	0,0,0,0,0,0,1,2,0	test	ward_and_allport	0,0,0,2,0,0,1,3,0	82.0	5.0	4.602	0,0,0,0,0,0,1,2,3	to_hand	s628
117.31	0.571	0	PA_with_intermediate	3,0,0,0,0,0,1,2,0	test	ward_and_allport	0,0,0,2,0,0,1,3,0	89.0	5.0	0.571	0,0,0,0,0,0,1,2,3	to_board	s628
117.884	0.981	0	PA_with_intermediate	3,0,0,0,0,0,1,0,0	test	ward_and_allport	0,0,0,2,0,0,1,3,0	82.0	5.0	0.981	0,0,0,0,0,0,1,2,3	to_hand	s628
118.865	0.349	0	PA_with_intermediate	3,0,0,2,0,0,1,0,0	test	ward_and_allport	0,0,0,2,0,0,1,3,0	71.0	5.0	0.349	0,0,0,0,0,0,1,2,3	to_board	s628
119.217	0.95	0	PA_with_intermediate	0,0,0,2,0,0,1,0,0	test	ward_and_allport	0,0,0,2,0,0,1,3,0	89.0	5.0	0.95	0,0,0,0,0,0,1,2,3	to_hand	s628
120.168	0.577	0	PA_with_intermediate	0,0,0,2,0,0,1,3,0	test	ward_and_allport	0,0,0,2,0,0,1,3,0	82.0	5.0	0.577	0,0,0,0,0,0,1,2,3	to_board	s628
120.752	1.0	0	PA_with_intermediate	n/a	test	ward_and_allport	n/a	-1.0	5.0	n/a	n/a	feedback	s628
121.752	2.632	0	PA_with_intermediate	n/a	test	ward_and_allport	n/a	-1.0	5.0	n/a	n/a	ITI	s628
124.386	3.836	1	PA_without_intermediate	0,0,0,1,2,0,0,0,0	test	ward_and_allport	2,0,0,0,0,0,3,1,0	71.0	6.0	3.836	0,0,0,1,2,3,0,0,0	to_hand	s628
128.223	0.536	0	PA_without_intermediate	0,0,0,1,2,0,3,0,0	test	ward_and_allport	2,0,0,0,0,0,3,1,0	82.0	6.0	0.536	0,0,0,1,2,3,0,0,0	to_board	s628
128.762	0.419	0	PA_without_intermediate	0,0,0,1,0,0,3,0,0	test	ward_and_allport	2,0,0,0,0,0,3,1,0	71.0	6.0	0.419	0,0,0,1,2,3,0,0,0	to_hand	s628
129.183	0.368	0	PA_without_intermediate	2,0,0,1,0,0,3,0,0	test	ward_and_allport	2,0,0,0,0,0,3,1,0	89.0	6.0	0.368	0,0,0,1,2,3,0,0,0	to_board	s628
129.554	0.64	0	PA_without_intermediate	2,0,0,0,0,0,3,0,0	test	ward_and_allport	2,0,0,0,0,0,3,1,0	71.0	6.0	0.64	0,0,0,1,2,3,0,0,0	to_hand	s628
130.195	0.574	0	PA_without_intermediate	2,0,0,0,0,0,3,1,0	test	ward_and_allport	2,0,0,0,0,0,3,1,0	82.0	6.0	0.574	0,0,0,1,2,3,0,0,0	to_board	s628
130.776	1.0	0	PA_without_intermediate	n/a	test	ward_and_allport	n/a	-1.0	6.0	n/a	n/a	feedback	s628
131.776	1.408	0	PA_without_intermediate	n/a	test	ward_and_allport	n/a	-1.0	6.0	n/a	n/a	ITI	s628
133.188	5.517	1	PA_without_intermediate	0,0,0,0,0,0,1,2,0	test	ward_and_allport	2,0,0,3,1,0,0,0,0	82.0	7.0	5.517	0,0,0,0,0,0,1,2,3	to_hand	s628
138.706	0.311	0	PA_without_intermediate	0,0,0,3,0,0,1,2,0	test	ward_and_allport	2,0,0,3,1,0,0,0,0	71.0	7.0	0.311	0,0,0,0,0,0,1,2,3	to_board	s628
139.019	0.471	0	PA_without_intermediate	0,0,0,3,0,0,1,0,0	test	ward_and_allport	2,0,0,3,1,0,0,0,0	82.0	7.0	0.471	0,0,0,0,0,0,1,2,3	to_hand	s628
139.49	0.48	0	PA_without_intermediate	2,0,0,3,0,0,1,0,0	test	ward_and_allport	2,0,0,3,1,0,0,0,0	89.0	7.0	0.48	0,0,0,0,0,0,1,2,3	to_board	s628
139.973	1.108	0	PA_without_intermediate	2,0,0,3,0,0,0,0,0	test	ward_and_allport	2,0,0,3,1,0,0,0,0	82.0	7.0	1.108	0,0,0,0,0,0,1,2,3	to_hand	s628
141.082	0.348	0	PA_without_intermediate	2,0,0,3,1,0,0,0,0	test	ward_and_allport	2,0,0,3,1,0,0,0,0	71.0	7.0	0.348	0,0,0,0,0,0,1,2,3	to_board	s628
141.436	1.0	0	PA_without_intermediate	n/a	test	ward_and_allport	n/a	-1.0	7.0	n/a	n/a	feedback	s628
142.436	1.0	0	PA_without_intermediate	n/a	test	ward_and_allport	n/a	-1.0	7.0	n/a	n/a	ITI	s628
143.438	5.422	1	PA_with_intermediate	0,0,0,0,0,0,1,2,0	test	ward_and_allport	2,0,0,0,0,0,1,3,0	82.0	8.0	5.422	0,0,0,0,0,0,1,2,3	to_hand	s628
148.861	0.332	0	PA_with_intermediate	0,0,0,3,0,0,1,2,0	test	ward_and_allport	2,0,0,0,0,0,1,3,0	71.0	8.0	0.332	0,0,0,0,0,0,1,2,3	to_board	s628
149.197	0.389	0	PA_with_intermediate	0,0,0,3,0,0,1,0,0	test	ward_and_allport	2,0,0,0,0,0,1,3,0	82.0	8.0	0.389	0,0,0,0,0,0,1,2,3	to_hand	s628
149.587	0.515	0	PA_with_intermediate	2,0,0,3,0,0,1,0,0	test	ward_and_allport	2,0,0,0,0,0,1,3,0	89.0	8.0	0.515	0,0,0,0,0,0,1,2,3	to_board	s628
150.105	1.086	0	PA_with_intermediate	2,0,0,0,0,0,1,0,0	test	ward_and_allport	2,0,0,0,0,0,1,3,0	71.0	8.0	1.086	0,0,0,0,0,0,1,2,3	to_hand	s628
151.192	0.302	0	PA_with_intermediate	2,0,0,0,0,0,1,3,0	test	ward_and_allport	2,0,0,0,0,0,1,3,0	82.0	8.0	0.302	0,0,0,0,0,0,1,2,3	to_board	s628
151.502	1.0	0	PA_with_intermediate	n/a	test	ward_and_allport	n/a	-1.0	8.0	n/a	n/a	feedback	s628
152.502	1.0	0	PA_with_intermediate	n/a	test	ward_and_allport	n/a	-1.0	8.0	n/a	n/a	ITI	s628
153.506	5.901	1	PA_with_intermediate	0,0,0,1,2,0,0,0,0	test	ward_and_allport	0,0,0,1,3,0,2,0,0	71.0	9.0	5.901	0,0,0,1,2,3,0,0,0	to_hand	s628
159.408	0.378	0	PA_with_intermediate	3,0,0,1,2,0,0,0,0	test	ward_and_allport	0,0,0,1,3,0,2,0,0	89.0	9.0	0.378	0,0,0,1,2,3,0,0,0	to_board	s628
159.789	0.389	0	PA_with_intermediate	3,0,0,1,0,0,0,0,0	test	ward_and_allport	0,0,0,1,3,0,2,0,0	71.0	9.0	0.389	0,0,0,1,2,3,0,0,0	to_hand	s628
160.179	0.346	0	PA_with_intermediate	3,0,0,1,0,0,2,0,0	test	ward_and_allport	0,0,0,1,3,0,2,0,0	82.0	9.0	0.346	0,0,0,1,2,3,0,0,0	to_board	s628
160.529	0.625	0	PA_with_intermediate	0,0,0,1,0,0,2,0,0	test	ward_and_allport	0,0,0,1,3,0,2,0,0	89.0	9.0	0.625	0,0,0,1,2,3,0,0,0	to_hand	s628
161.154	0.34	0	PA_with_intermediate	0,0,0,1,3,0,2,0,0	test	ward_and_allport	0,0,0,1,3,0,2,0,0	71.0	9.0	0.34	0,0,0,1,2,3,0,0,0	to_board	s628
161.502	1.0	0	PA_with_intermediate	n/a	test	ward_and_allport	n/a	-1.0	9.0	n/a	n/a	feedback	s628
162.502	1.0	0	PA_with_intermediate	n/a	test	ward_and_allport	n/a	-1.0	9.0	n/a	n/a	ITI	s628
163.507	4.229	1	PA_with_intermediate	0,0,0,0,0,0,1,2,0	test	ward_and_allport	2,0,0,0,0,0,1,3,0	82.0	10.0	4.229	0,0,0,0,0,0,1,2,3	to_hand	s628
167.738	0.488	0	PA_with_intermediate	0,0,0,3,0,0,1,2,0	test	ward_and_allport	2,0,0,0,0,0,1,3,0	71.0	10.0	0.488	0,0,0,0,0,0,1,2,3	to_board	s628
168.229	0.432	0	PA_with_intermediate	0,0,0,3,0,0,1,0,0	test	ward_and_allport	2,0,0,0,0,0,1,3,0	82.0	10.0	0.432	0,0,0,0,0,0,1,2,3	to_hand	s628
168.662	0.409	0	PA_with_intermediate	2,0,0,3,0,0,1,0,0	test	ward_and_allport	2,0,0,0,0,0,1,3,0	89.0	10.0	0.409	0,0,0,0,0,0,1,2,3	to_board	s628
169.074	0.727	0	PA_with_intermediate	2,0,0,0,0,0,1,0,0	test	ward_and_allport	2,0,0,0,0,0,1,3,0	71.0	10.0	0.727	0,0,0,0,0,0,1,2,3	to_hand	s628
169.802	0.276	0	PA_with_intermediate	2,0,0,0,0,0,1,3,0	test	ward_and_allport	2,0,0,0,0,0,1,3,0	82.0	10.0	0.276	0,0,0,0,0,0,1,2,3	to_board	s628
170.085	1.0	0	PA_with_intermediate	n/a	test	ward_and_allport	n/a	-1.0	10.0	n/a	n/a	feedback	s628
171.085	1.408	0	PA_with_intermediate	n/a	test	ward_and_allport	n/a	-1.0	10.0	n/a	n/a	ITI	s628
172.497	10.568	1	PA_without_intermediate	0,0,0,0,0,0,1,2,0	test	ward_and_allport	3,2,0,1,0,0,0,0,0	82.0	11.0	10.568	0,0,0,0,0,0,1,2,3	to_hand	s628
183.066	1.813	0	PA_without_intermediate	3,0,0,0,0,0,1,2,0	test	ward_and_allport	3,2,0,1,0,0,0,0,0	89.0	11.0	1.813	0,0,0,0,0,0,1,2,3	to_board	s628
184.883	0.896	0	PA_without_intermediate	3,0,0,0,0,0,1,0,0	test	ward_and_allport	3,2,0,1,0,0,0,0,0	82.0	11.0	0.896	0,0,0,0,0,0,1,2,3	to_hand	s628
185.78	0.545	0	PA_without_intermediate	3,2,0,0,0,0,1,0,0	test	ward_and_allport	3,2,0,1,0,0,0,0,0	89.0	11.0	0.545	0,0,0,0,0,0,1,2,3	to_board	s628
186.328	0.926	0	PA_without_intermediate	3,2,0,0,0,0,0,0,0	test	ward_and_allport	3,2,0,1,0,0,0,0,0	82.0	11.0	0.926	0,0,0,0,0,0,1,2,3	to_hand	s628
187.256	0.211	0	PA_without_intermediate	3,2,0,1,0,0,0,0,0	test	ward_and_allport	3,2,0,1,0,0,0,0,0	71.0	11.0	0.211	0,0,0,0,0,0,1,2,3	to_board	s628
187.475	1.0	0	PA_without_intermediate	n/a	test	ward_and_allport	n/a	-1.0	11.0	n/a	n/a	feedback	s628
188.475	1.816	0	PA_without_intermediate	n/a	test	ward_and_allport	n/a	-1.0	11.0	n/a	n/a	ITI	s628
190.295	8.061	1	PA_with_intermediate	0,0,0,1,2,0,0,0,0	test	ward_and_allport	2,0,0,1,3,0,0,0,0	71.0	12.0	8.061	0,0,0,1,2,3,0,0,0	to_hand	s628
198.357	0.394	0	PA_with_intermediate	0,0,0,1,2,0,3,0,0	test	ward_and_allport	2,0,0,1,3,0,0,0,0	82.0	12.0	0.394	0,0,0,1,2,3,0,0,0	to_board	s628
198.754	0.49	0	PA_with_intermediate	0,0,0,1,0,0,3,0,0	test	ward_and_allport	2,0,0,1,3,0,0,0,0	71.0	12.0	0.49	0,0,0,1,2,3,0,0,0	to_hand	s628
199.246	0.282	0	PA_with_intermediate	2,0,0,1,0,0,3,0,0	test	ward_and_allport	2,0,0,1,3,0,0,0,0	89.0	12.0	0.282	0,0,0,1,2,3,0,0,0	to_board	s628
199.531	0.773	0	PA_with_intermediate	2,0,0,1,0,0,0,0,0	test	ward_and_allport	2,0,0,1,3,0,0,0,0	82.0	12.0	0.773	0,0,0,1,2,3,0,0,0	to_hand	s628
200.306	0.674	0	PA_with_intermediate	2,0,0,1,3,0,0,0,0	test	ward_and_allport	2,0,0,1,3,0,0,0,0	71.0	12.0	0.674	0,0,0,1,2,3,0,0,0	to_board	s628
200.985	1.0	0	PA_with_intermediate	n/a	test	ward_and_allport	n/a	-1.0	12.0	n/a	n/a	feedback	s628
201.985	3.176	0	PA_with_intermediate	n/a	test	ward_and_allport	n/a	-1.0	12.0	n/a	n/a	ITI	s628
205.165	4.195	1	PA_with_intermediate	0,0,0,1,2,0,0,0,0	test	ward_and_allport	2,0,0,1,3,0,0,0,0	71.0	13.0	4.195	0,0,0,1,2,3,0,0,0	to_hand	s628
209.362	0.276	0	PA_with_intermediate	0,0,0,1,2,0,3,0,0	test	ward_and_allport	2,0,0,1,3,0,0,0,0	82.0	13.0	0.276	0,0,0,1,2,3,0,0,0	to_board	s628
209.641	0.348	0	PA_with_intermediate	0,0,0,1,0,0,3,0,0	test	ward_and_allport	2,0,0,1,3,0,0,0,0	71.0	13.0	0.348	0,0,0,1,2,3,0,0,0	to_hand	s628
209.989	0.437	0	PA_with_intermediate	2,0,0,1,0,0,3,0,0	test	ward_and_allport	2,0,0,1,3,0,0,0,0	89.0	13.0	0.437	0,0,0,1,2,3,0,0,0	to_board	s628
210.43	0.768	0	PA_with_intermediate	2,0,0,1,0,0,0,0,0	test	ward_and_allport	2,0,0,1,3,0,0,0,0	82.0	13.0	0.768	0,0,0,1,2,3,0,0,0	to_hand	s628
211.199	0.311	0	PA_with_intermediate	2,0,0,1,3,0,0,0,0	test	ward_and_allport	2,0,0,1,3,0,0,0,0	71.0	13.0	0.311	0,0,0,1,2,3,0,0,0	to_board	s628
211.519	1.0	0	PA_with_intermediate	n/a	test	ward_and_allport	n/a	-1.0	13.0	n/a	n/a	feedback	s628
212.519	2.36	0	PA_with_intermediate	n/a	test	ward_and_allport	n/a	-1.0	13.0	n/a	n/a	ITI	s628
214.882	5.6	1	PA_with_intermediate	1,2,0,0,0,0,0,0,0	test	ward_and_allport	1,0,0,2,3,0,0,0,0	89.0	14.0	5.6	1,2,3,0,0,0,0,0,0	to_hand	s628
220.483	0.317	0	PA_with_intermediate	1,2,0,0,0,0,3,0,0	test	ward_and_allport	1,0,0,2,3,0,0,0,0	82.0	14.0	0.317	1,2,3,0,0,0,0,0,0	to_board	s628
220.804	0.867	0	PA_with_intermediate	1,0,0,0,0,0,3,0,0	test	ward_and_allport	1,0,0,2,3,0,0,0,0	89.0	14.0	0.867	1,2,3,0,0,0,0,0,0	to_hand	s628
221.672	0.351	0	PA_with_intermediate	1,0,0,2,0,0,3,0,0	test	ward_and_allport	1,0,0,2,3,0,0,0,0	71.0	14.0	0.351	1,2,3,0,0,0,0,0,0	to_board	s628
222.027	0.736	0	PA_with_intermediate	1,0,0,2,0,0,0,0,0	test	ward_and_allport	1,0,0,2,3,0,0,0,0	82.0	14.0	0.736	1,2,3,0,0,0,0,0,0	to_hand	s628
222.765	0.201	0	PA_with_intermediate	1,0,0,2,3,0,0,0,0	test	ward_and_allport	1,0,0,2,3,0,0,0,0	71.0	14.0	0.201	1,2,3,0,0,0,0,0,0	to_board	s628
222.975	1.0	0	PA_with_intermediate	n/a	test	ward_and_allport	n/a	-1.0	14.0	n/a	n/a	feedback	s628
223.975	1.0	0	PA_with_intermediate	n/a	test	ward_and_allport	n/a	-1.0	14.0	n/a	n/a	ITI	s628
229.982	3.557	1	PA_without_intermediate	1,2,0,0,0,0,0,0,0	test	ward_and_allport	0,0,0,1,0,0,3,2,0	89.0	15.0	3.557	1,2,3,0,0,0,0,0,0	to_hand	s628
233.54	0.259	0	PA_without_intermediate	1,2,0,0,0,0,3,0,0	test	ward_and_allport	0,0,0,1,0,0,3,2,0	82.0	15.0	0.259	1,2,3,0,0,0,0,0,0	to_board	s628
233.805	0.414	0	PA_without_intermediate	1,0,0,0,0,0,3,0,0	test	ward_and_allport	0,0,0,1,0,0,3,2,0	89.0	15.0	0.414	1,2,3,0,0,0,0,0,0	to_hand	s628
234.219	0.704	0	PA_without_intermediate	1,0,0,0,0,0,3,2,0	test	ward_and_allport	0,0,0,1,0,0,3,2,0	82.0	15.0	0.704	1,2,3,0,0,0,0,0,0	to_board	s628
234.926	0.882	0	PA_without_intermediate	0,0,0,0,0,0,3,2,0	test	ward_and_allport	0,0,0,1,0,0,3,2,0	89.0	15.0	0.882	1,2,3,0,0,0,0,0,0	to_hand	s628
235.809	0.298	0	PA_without_intermediate	0,0,0,1,0,0,3,2,0	test	ward_and_allport	0,0,0,1,0,0,3,2,0	71.0	15.0	0.298	1,2,3,0,0,0,0,0,0	to_board	s628
236.114	1.0	0	PA_without_intermediate	n/a	test	ward_and_allport	n/a	-1.0	15.0	n/a	n/a	feedback	s628
237.114	1.408	0	PA_without_intermediate	n/a	test	ward_and_allport	n/a	-1.0	15.0	n/a	n/a	ITI	s628
238.526	4.896	1	PA_with_intermediate	0,0,0,1,2,0,0,0,0	test	ward_and_allport	0,0,0,1,0,0,2,3,0	71.0	16.0	4.896	0,0,0,1,2,3,0,0,0	to_hand	s628
243.424	0.458	0	PA_with_intermediate	3,0,0,1,2,0,0,0,0	test	ward_and_allport	0,0,0,1,0,0,2,3,0	89.0	16.0	0.458	0,0,0,1,2,3,0,0,0	to_board	s628
243.886	0.387	0	PA_with_intermediate	3,0,0,1,0,0,0,0,0	test	ward_and_allport	0,0,0,1,0,0,2,3,0	71.0	16.0	0.387	0,0,0,1,2,3,0,0,0	to_hand	s628
244.275	0.359	0	PA_with_intermediate	3,0,0,1,0,0,2,0,0	test	ward_and_allport	0,0,0,1,0,0,2,3,0	82.0	16.0	0.359	0,0,0,1,2,3,0,0,0	to_board	s628
244.638	0.722	0	PA_with_intermediate	0,0,0,1,0,0,2,0,0	test	ward_and_allport	0,0,0,1,0,0,2,3,0	89.0	16.0	0.722	0,0,0,1,2,3,0,0,0	to_hand	s628
245.361	0.289	0	PA_with_intermediate	0,0,0,1,0,0,2,3,0	test	ward_and_allport	0,0,0,1,0,0,2,3,0	82.0	16.0	0.289	0,0,0,1,2,3,0,0,0	to_board	s628
245.659	1.0	0	PA_with_intermediate	n/a	test	ward_and_allport	n/a	-1.0	16.0	n/a	n/a	feedback	s628
246.659	1.816	0	PA_with_intermediate	n/a	test	ward_and_allport	n/a	-1.0	16.0	n/a	n/a	ITI	s628
248.479	3.649	1	PA_without_intermediate	0,0,0,0,0,0,1,2,0	test	ward_and_allport	3,1,0,2,0,0,0,0,0	82.0	17.0	3.649	0,0,0,0,0,0,1,2,3	to_hand	s628
252.13	0.31	0	PA_without_intermediate	3,0,0,0,0,0,1,2,0	test	ward_and_allport	3,1,0,2,0,0,0,0,0	89.0	17.0	0.31	0,0,0,0,0,0,1,2,3	to_board	s628
252.445	0.956	0	PA_without_intermediate	3,0,0,0,0,0,1,0,0	test	ward_and_allport	3,1,0,2,0,0,0,0,0	82.0	17.0	0.956	0,0,0,0,0,0,1,2,3	to_hand	s628
253.402	0.431	0	PA_without_intermediate	3,0,0,2,0,0,1,0,0	test	ward_and_allport	3,1,0,2,0,0,0,0,0	71.0	17.0	0.431	0,0,0,0,0,0,1,2,3	to_board	s628
253.838	1.008	0	PA_without_intermediate	3,0,0,2,0,0,0,0,0	test	ward_and_allport	3,1,0,2,0,0,0,0,0	82.0	17.0	1.008	0,0,0,0,0,0,1,2,3	to_hand	s628
254.847	0.426	0	PA_without_intermediate	3,1,0,2,0,0,0,0,0	test	ward_and_allport	3,1,0,2,0,0,0,0,0	89.0	17.0	0.426	0,0,0,0,0,0,1,2,3	to_board	s628
255.279	1.0	0	PA_without_intermediate	n/a	test	ward_and_allport	n/a	-1.0	17.0	n/a	n/a	feedback	s628
256.279	2.088	0	PA_without_intermediate	n/a	test	ward_and_allport	n/a	-1.0	17.0	n/a	n/a	ITI	s628
258.373	2.894	1	PA_without_intermediate	0,0,0,1,2,0,0,0,0	test	ward_and_allport	3,1,0,0,0,0,2,0,0	71.0	18.0	2.894	0,0,0,1,2,3,0,0,0	to_hand	s628
261.269	0.313	0	PA_without_intermediate	3,0,0,1,2,0,0,0,0	test	ward_and_allport	3,1,0,0,0,0,2,0,0	89.0	18.0	0.313	0,0,0,1,2,3,0,0,0	to_board	s628
261.588	0.512	0	PA_without_intermediate	3,0,0,1,0,0,0,0,0	test	ward_and_allport	3,1,0,0,0,0,2,0,0	71.0	18.0	0.512	0,0,0,1,2,3,0,0,0	to_hand	s628
262.1	0.549	0	PA_without_intermediate	3,0,0,1,0,0,2,0,0	test	ward_and_allport	3,1,0,0,0,0,2,0,0	82.0	18.0	0.549	0,0,0,1,2,3,0,0,0	to_board	s628
262.655	0.412	0	PA_without_intermediate	3,0,0,0,0,0,2,0,0	test	ward_and_allport	3,1,0,0,0,0,2,0,0	71.0	18.0	0.412	0,0,0,1,2,3,0,0,0	to_hand	s628
263.068	0.57	0	PA_without_intermediate	3,1,0,0,0,0,2,0,0	test	ward_and_allport	3,1,0,0,0,0,2,0,0	89.0	18.0	0.57	0,0,0,1,2,3,0,0,0	to_board	s628
263.646	1.0	0	PA_without_intermediate	n/a	test	ward_and_allport	n/a	-1.0	18.0	n/a	n/a	feedback	s628
264.646	1.136	0	PA_without_intermediate	n/a	test	ward_and_allport	n/a	-1.0	18.0	n/a	n/a	ITI	s628
265.787	3.598	1	PA_without_intermediate	0,0,0,1,2,0,0,0,0	test	ward_and_allport	3,1,0,0,0,0,2,0,0	71.0	19.0	3.598	0,0,0,1,2,3,0,0,0	to_hand	s628
269.386	0.298	0	PA_without_intermediate	3,0,0,1,2,0,0,0,0	test	ward_and_allport	3,1,0,0,0,0,2,0,0	89.0	19.0	0.298	0,0,0,1,2,3,0,0,0	to_board	s628
269.69	0.28	0	PA_without_intermediate	3,0,0,1,0,0,0,0,0	test	ward_and_allport	3,1,0,0,0,0,2,0,0	71.0	19.0	0.28	0,0,0,1,2,3,0,0,0	to_hand	s628
269.971	0.271	0	PA_without_intermediate	3,0,0,1,0,0,2,0,0	test	ward_and_allport	3,1,0,0,0,0,2,0,0	82.0	19.0	0.271	0,0,0,1,2,3,0,0,0	to_board	s628
270.248	0.301	0	PA_without_intermediate	3,0,0,0,0,0,2,0,0	test	ward_and_allport	3,1,0,0,0,0,2,0,0	71.0	19.0	0.301	0,0,0,1,2,3,0,0,0	to_hand	s628
270.549	0.312	0	PA_without_intermediate	3,1,0,0,0,0,2,0,0	test	ward_and_allport	3,1,0,0,0,0,2,0,0	89.0	19.0	0.312	0,0,0,1,2,3,0,0,0	to_board	s628
270.871	1.0	0	PA_without_intermediate	n/a	test	ward_and_allport	n/a	-1.0	19.0	n/a	n/a	feedback	s628
271.871	6.168	0	PA_without_intermediate	n/a	test	ward_and_allport	n/a	-1.0	19.0	n/a	n/a	ITI	s628
278.044	3.262	1	PA_without_intermediate	1,2,0,0,0,0,0,0,0	test	ward_and_allport	0,0,0,1,0,0,3,2,0	89.0	20.0	3.262	1,2,3,0,0,0,0,0,0	to_hand	s628
281.307	0.31	0	PA_without_intermediate	1,2,0,0,0,0,3,0,0	test	ward_and_allport	0,0,0,1,0,0,3,2,0	82.0	20.0	0.31	1,2,3,0,0,0,0,0,0	to_board	s628
281.622	0.364	0	PA_without_intermediate	1,0,0,0,0,0,3,0,0	test	ward_and_allport	0,0,0,1,0,0,3,2,0	89.0	20.0	0.364	1,2,3,0,0,0,0,0,0	to_hand	s628
281.988	0.25	0	PA_without_intermediate	1,0,0,0,0,0,3,2,0	test	ward_and_allport	0,0,0,1,0,0,3,2,0	82.0	20.0	0.25	1,2,3,0,0,0,0,0,0	to_board	s628
282.244	0.361	0	PA_without_intermediate	0,0,0,0,0,0,3,2,0	test	ward_and_allport	0,0,0,1,0,0,3,2,0	89.0	20.0	0.361	1,2,3,0,0,0,0,0,0	to_hand	s628
282.605	0.256	0	PA_without_intermediate	0,0,0,1,0,0,3,2,0	test	ward_and_allport	0,0,0,1,0,0,3,2,0	71.0	20.0	0.256	1,2,3,0,0,0,0,0,0	to_board	s628
282.871	1.0	0	PA_without_intermediate	n/a	test	ward_and_allport	n/a	-1.0	20.0	n/a	n/a	feedback	s628
283.871	1.816	0	PA_without_intermediate	n/a	test	ward_and_allport	n/a	-1.0	20.0	n/a	n/a	ITI	s628
285.693	3.439	1	PA_with_intermediate	0,0,0,1,2,0,0,0,0	test	ward_and_allport	0,0,0,1,0,0,2,3,0	71.0	21.0	3.439	0,0,0,1,2,3,0,0,0	to_hand	s628
289.132	0.282	0	PA_with_intermediate	3,0,0,1,2,0,0,0,0	test	ward_and_allport	0,0,0,1,0,0,2,3,0	89.0	21.0	0.282	0,0,0,1,2,3,0,0,0	to_board	s628
289.419	0.314	0	PA_with_intermediate	3,0,0,1,0,0,0,0,0	test	ward_and_allport	0,0,0,1,0,0,2,3,0	71.0	21.0	0.314	0,0,0,1,2,3,0,0,0	to_hand	s628
289.735	0.433	0	PA_with_intermediate	3,0,0,1,0,0,2,0,0	test	ward_and_allport	0,0,0,1,0,0,2,3,0	82.0	21.0	0.433	0,0,0,1,2,3,0,0,0	to_board	s628
290.174	0.34	0	PA_with_intermediate	0,0,0,1,0,0,2,0,0	test	ward_and_allport	0,0,0,1,0,0,2,3,0	89.0	21.0	0.34	0,0,0,1,2,3,0,0,0	to_hand	s628
290.515	0.317	0	PA_with_intermediate	0,0,0,1,0,0,2,3,0	test	ward_and_allport	0,0,0,1,0,0,2,3,0	82.0	21.0	0.317	0,0,0,1,2,3,0,0,0	to_board	s628
290.84	1.0	0	PA_with_intermediate	n/a	test	ward_and_allport	n/a	-1.0	21.0	n/a	n/a	feedback	s628
291.84	1.952	0	PA_with_intermediate	n/a	test	ward_and_allport	n/a	-1.0	21.0	n/a	n/a	ITI	s628
293.798	3.074	1	PA_with_intermediate	1,2,0,0,0,0,0,0,0	test	ward_and_allport	1,0,0,0,0,0,2,3,0	89.0	22.0	3.074	1,2,3,0,0,0,0,0,0	to_hand	s628
296.874	0.282	0	PA_with_intermediate	1,2,0,3,0,0,0,0,0	test	ward_and_allport	1,0,0,0,0,0,2,3,0	71.0	22.0	0.282	1,2,3,0,0,0,0,0,0	to_board	s628
297.161	0.311	0	PA_with_intermediate	1,0,0,3,0,0,0,0,0	test	ward_and_allport	1,0,0,0,0,0,2,3,0	89.0	22.0	0.311	1,2,3,0,0,0,0,0,0	to_hand	s628
297.473	0.311	0	PA_with_intermediate	1,0,0,3,0,0,2,0,0	test	ward_and_allport	1,0,0,0,0,0,2,3,0	82.0	22.0	0.311	1,2,3,0,0,0,0,0,0	to_board	s628
297.789	0.363	0	PA_with_intermediate	1,0,0,0,0,0,2,0,0	test	ward_and_allport	1,0,0,0,0,0,2,3,0	71.0	22.0	0.363	1,2,3,0,0,0,0,0,0	to_hand	s628
298.154	0.284	0	PA_with_intermediate	1,0,0,0,0,0,2,3,0	test	ward_and_allport	1,0,0,0,0,0,2,3,0	82.0	22.0	0.284	1,2,3,0,0,0,0,0,0	to_board	s628
298.445	1.0	0	PA_with_intermediate	n/a	test	ward_and_allport	n/a	-1.0	22.0	n/a	n/a	feedback	s628
299.445	1.136	0	PA_with_intermediate	n/a	test	ward_and_allport	n/a	-1.0	22.0	n/a	n/a	ITI	s628
300.587	8.201	1	PA_without_intermediate	0,0,0,0,0,0,1,2,0	test	ward_and_allport	1,0,0,3,2,0,0,0,0	82.0	23.0	8.201	0,0,0,0,0,0,1,2,3	to_hand	s628
308.789	0.762	0	PA_without_intermediate	0,0,0,3,0,0,1,2,0	test	ward_and_allport	1,0,0,3,2,0,0,0,0	71.0	23.0	0.762	0,0,0,0,0,0,1,2,3	to_board	s628
309.557	1.088	0	PA_without_intermediate	0,0,0,3,0,0,1,0,0	test	ward_and_allport	1,0,0,3,2,0,0,0,0	82.0	23.0	1.088	0,0,0,0,0,0,1,2,3	to_hand	s628
310.645	0.319	0	PA_without_intermediate	0,0,0,3,2,0,1,0,0	test	ward_and_allport	1,0,0,3,2,0,0,0,0	71.0	23.0	0.319	0,0,0,0,0,0,1,2,3	to_board	s628
310.969	0.424	0	PA_without_intermediate	0,0,0,3,2,0,0,0,0	test	ward_and_allport	1,0,0,3,2,0,0,0,0	82.0	23.0	0.424	0,0,0,0,0,0,1,2,3	to_hand	s628
311.394	0.349	0	PA_without_intermediate	1,0,0,3,2,0,0,0,0	test	ward_and_allport	1,0,0,3,2,0,0,0,0	89.0	23.0	0.349	0,0,0,0,0,0,1,2,3	to_board	s628
311.75	1.0	0	PA_without_intermediate	n/a	test	ward_and_allport	n/a	-1.0	23.0	n/a	n/a	feedback	s628
312.75	1.68	0	PA_without_intermediate	n/a	test	ward_and_allport	n/a	-1.0	23.0	n/a	n/a	ITI	s628
314.435	4.859	1	PA_without_intermediate	0,0,0,0,0,0,1,2,0	test	ward_and_allport	3,1,0,2,0,0,0,0,0	82.0	24.0	4.859	0,0,0,0,0,0,1,2,3	to_hand	s628
319.295	0.34	0	PA_without_intermediate	3,0,0,0,0,0,1,2,0	test	ward_and_allport	3,1,0,2,0,0,0,0,0	89.0	24.0	0.34	0,0,0,0,0,0,1,2,3	to_board	s628
319.641	0.386	0	PA_without_intermediate	3,0,0,0,0,0,1,0,0	test	ward_and_allport	3,1,0,2,0,0,0,0,0	82.0	24.0	0.386	0,0,0,0,0,0,1,2,3	to_hand	s628
320.029	0.802	0	PA_without_intermediate	3,0,0,2,0,0,1,0,0	test	ward_and_allport	3,1,0,2,0,0,0,0,0	71.0	24.0	0.802	0,0,0,0,0,0,1,2,3	to_board	s628
320.837	0.765	0	PA_without_intermediate	3,0,0,2,0,0,0,0,0	test	ward_and_allport	3,1,0,2,0,0,0,0,0	82.0	24.0	0.765	0,0,0,0,0,0,1,2,3	to_hand	s628
321.603	0.273	0	PA_without_intermediate	3,1,0,2,0,0,0,0,0	test	ward_and_allport	3,1,0,2,0,0,0,0,0	89.0	24.0	0.273	0,0,0,0,0,0,1,2,3	to_board	s628
321.886	1.0	0	PA_without_intermediate	n/a	test	ward_and_allport	n/a	-1.0	24.0	n/a	n/a	feedback	s628
322.886	2.088	0	PA_without_intermediate	n/a	test	ward_and_allport	n/a	-1.0	24.0	n/a	n/a	ITI	s628
324.981	7.882	1	PA_with_intermediate	0,0,0,0,0,0,1,2,0	test	ward_and_allport	2,3,0,0,0,0,1,0,0	82.0	25.0	7.882	0,0,0,0,0,0,1,2,3	to_hand	s628
332.864	0.402	0	PA_with_intermediate	0,0,0,3,0,0,1,2,0	test	ward_and_allport	2,3,0,0,0,0,1,0,0	71.0	25.0	0.402	0,0,0,0,0,0,1,2,3	to_board	s628
333.273	0.375	0	PA_with_intermediate	0,0,0,3,0,0,1,0,0	test	ward_and_allport	2,3,0,0,0,0,1,0,0	82.0	25.0	0.375	0,0,0,0,0,0,1,2,3	to_hand	s628
333.648	0.271	0	PA_with_intermediate	2,0,0,3,0,0,1,0,0	test	ward_and_allport	2,3,0,0,0,0,1,0,0	89.0	25.0	0.271	0,0,0,0,0,0,1,2,3	to_board	s628
333.926	0.314	0	PA_with_intermediate	2,0,0,0,0,0,1,0,0	test	ward_and_allport	2,3,0,0,0,0,1,0,0	71.0	25.0	0.314	0,0,0,0,0,0,1,2,3	to_hand	s628
334.24	0.332	0	PA_with_intermediate	2,3,0,0,0,0,1,0,0	test	ward_and_allport	2,3,0,0,0,0,1,0,0	89.0	25.0	0.332	0,0,0,0,0,0,1,2,3	to_board	s628
334.58	1.0	0	PA_with_intermediate	n/a	test	ward_and_allport	n/a	-1.0	25.0	n/a	n/a	feedback	s628
335.58	1.0	0	PA_with_intermediate	n/a	test	ward_and_allport	n/a	-1.0	25.0	n/a	n/a	ITI	s628
336.586	4.968	1	PA_without_intermediate	0,0,0,0,0,0,1,2,0	test	ward_and_allport	2,0,0,3,1,0,0,0,0	82.0	26.0	4.968	0,0,0,0,0,0,1,2,3	to_hand	s628
341.556	0.311	0	PA_without_intermediate	0,0,0,3,0,0,1,2,0	test	ward_and_allport	2,0,0,3,1,0,0,0,0	71.0	26.0	0.311	0,0,0,0,0,0,1,2,3	to_board	s628
341.874	0.345	0	PA_without_intermediate	0,0,0,3,0,0,1,0,0	test	ward_and_allport	2,0,0,3,1,0,0,0,0	82.0	26.0	0.345	0,0,0,0,0,0,1,2,3	to_hand	s628
342.22	0.349	0	PA_without_intermediate	2,0,0,3,0,0,1,0,0	test	ward_and_allport	2,0,0,3,1,0,0,0,0	89.0	26.0	0.349	0,0,0,0,0,0,1,2,3	to_board	s628
342.577	0.519	0	PA_without_intermediate	2,0,0,3,0,0,0,0,0	test	ward_and_allport	2,0,0,3,1,0,0,0,0	82.0	26.0	0.519	0,0,0,0,0,0,1,2,3	to_hand	s628
343.097	0.359	0	PA_without_intermediate	2,0,0,3,1,0,0,0,0	test	ward_and_allport	2,0,0,3,1,0,0,0,0	71.0	26.0	0.359	0,0,0,0,0,0,1,2,3	to_board	s628
343.463	1.0	0	PA_without_intermediate	n/a	test	ward_and_allport	n/a	-1.0	26.0	n/a	n/a	feedback	s628
344.463	1.0	0	PA_without_intermediate	n/a	test	ward_and_allport	n/a	-1.0	26.0	n/a	n/a	ITI	s628
345.471	3.324	1	PA_without_intermediate	1,2,0,0,0,0,0,0,0	test	ward_and_allport	0,0,0,3,2,0,1,0,0	89.0	27.0	3.324	1,2,3,0,0,0,0,0,0	to_hand	s628
348.795	0.383	0	PA_without_intermediate	1,2,0,3,0,0,0,0,0	test	ward_and_allport	0,0,0,3,2,0,1,0,0	71.0	27.0	0.383	1,2,3,0,0,0,0,0,0	to_board	s628
349.185	0.396	0	PA_without_intermediate	1,0,0,3,0,0,0,0,0	test	ward_and_allport	0,0,0,3,2,0,1,0,0	89.0	27.0	0.396	1,2,3,0,0,0,0,0,0	to_hand	s628
349.581	0.419	0	PA_without_intermediate	1,0,0,3,2,0,0,0,0	test	ward_and_allport	0,0,0,3,2,0,1,0,0	71.0	27.0	0.419	1,2,3,0,0,0,0,0,0	to_board	s628
350.008	0.366	0	PA_without_intermediate	0,0,0,3,2,0,0,0,0	test	ward_and_allport	0,0,0,3,2,0,1,0,0	89.0	27.0	0.366	1,2,3,0,0,0,0,0,0	to_hand	s628
350.374	0.28	0	PA_without_intermediate	0,0,0,3,2,0,1,0,0	test	ward_and_allport	0,0,0,3,2,0,1,0,0	82.0	27.0	0.28	1,2,3,0,0,0,0,0,0	to_board	s628
350.666	1.0	0	PA_without_intermediate	n/a	test	ward_and_allport	n/a	-1.0	27.0	n/a	n/a	feedback	s628
351.666	1.0	0	PA_without_intermediate	n/a	test	ward_and_allport	n/a	-1.0	27.0	n/a	n/a	ITI	s628
352.672	5.232	1	PA_with_intermediate	0,0,0,1,2,0,0,0,0	test	ward_and_allport	2,3,0,1,0,0,0,0,0	71.0	28.0	5.232	0,0,0,1,2,3,0,0,0	to_hand	s628
357.905	0.363	0	PA_with_intermediate	0,0,0,1,2,0,3,0,0	test	ward_and_allport	2,3,0,1,0,0,0,0,0	82.0	28.0	0.363	0,0,0,1,2,3,0,0,0	to_board	s628
358.276	0.348	0	PA_with_intermediate	0,0,0,1,0,0,3,0,0	test	ward_and_allport	2,3,0,1,0,0,0,0,0	71.0	28.0	0.348	0,0,0,1,2,3,0,0,0	to_hand	s628
358.625	0.266	0	PA_with_intermediate	2,0,0,1,0,0,3,0,0	test	ward_and_allport	2,3,0,1,0,0,0,0,0	89.0	28.0	0.266	0,0,0,1,2,3,0,0,0	to_board	s628
358.899	0.32	0	PA_with_intermediate	2,0,0,1,0,0,0,0,0	test	ward_and_allport	2,3,0,1,0,0,0,0,0	82.0	28.0	0.32	0,0,0,1,2,3,0,0,0	to_hand	s628
359.22	0.303	0	PA_with_intermediate	2,3,0,1,0,0,0,0,0	test	ward_and_allport	2,3,0,1,0,0,0,0,0	89.0	28.0	0.303	0,0,0,1,2,3,0,0,0	to_board	s628
359.536	1.0	0	PA_with_intermediate	n/a	test	ward_and_allport	n/a	-1.0	28.0	n/a	n/a	feedback	s628
360.536	1.544	0	PA_with_intermediate	n/a	test	ward_and_allport	n/a	-1.0	28.0	n/a	n/a	ITI	s628
362.084	3.0	1	PA_without_intermediate	1,2,0,0,0,0,0,0,0	test	ward_and_allport	0,0,0,3,1,0,2,0,0	89.0	29.0	3.0	1,2,3,0,0,0,0,0,0	to_hand	s628
365.086	0.366	0	PA_without_intermediate	1,2,0,3,0,0,0,0,0	test	ward_and_allport	0,0,0,3,1,0,2,0,0	71.0	29.0	0.366	1,2,3,0,0,0,0,0,0	to_board	s628
365.457	0.549	0	PA_without_intermediate	1,0,0,3,0,0,0,0,0	test	ward_and_allport	0,0,0,3,1,0,2,0,0	89.0	29.0	0.549	1,2,3,0,0,0,0,0,0	to_hand	s628
366.008	0.286	0	PA_without_intermediate	1,0,0,3,0,0,2,0,0	test	ward_and_allport	0,0,0,3,1,0,2,0,0	82.0	29.0	0.286	1,2,3,0,0,0,0,0,0	to_board	s628
366.301	0.395	0	PA_without_intermediate	0,0,0,3,0,0,2,0,0	test	ward_and_allport	0,0,0,3,1,0,2,0,0	89.0	29.0	0.395	1,2,3,0,0,0,0,0,0	to_hand	s628
366.697	0.349	0	PA_without_intermediate	0,0,0,3,1,0,2,0,0	test	ward_and_allport	0,0,0,3,1,0,2,0,0	71.0	29.0	0.349	1,2,3,0,0,0,0,0,0	to_board	s628
367.059	1.0	0	PA_without_intermediate	n/a	test	ward_and_allport	n/a	-1.0	29.0	n/a	n/a	feedback	s628
368.059	1.272	0	PA_without_intermediate	n/a	test	ward_and_allport	n/a	-1.0	29.0	n/a	n/a	ITI	s628
374.342	5.477	1	PA_with_intermediate	1,2,0,0,0,0,0,0,0	test	ward_and_allport	1,3,0,0,0,0,2,0,0	89.0	30.0	5.477	1,2,3,0,0,0,0,0,0	to_hand	s628
379.82	0.372	0	PA_with_intermediate	1,2,0,3,0,0,0,0,0	test	ward_and_allport	1,3,0,0,0,0,2,0,0	71.0	30.0	0.372	1,2,3,0,0,0,0,0,0	to_board	s628
380.2	0.329	0	PA_with_intermediate	1,0,0,3,0,0,0,0,0	test	ward_and_allport	1,3,0,0,0,0,2,0,0	89.0	30.0	0.329	1,2,3,0,0,0,0,0,0	to_hand	s628
380.53	0.284	0	PA_with_intermediate	1,0,0,3,0,0,2,0,0	test	ward_and_allport	1,3,0,0,0,0,2,0,0	82.0	30.0	0.284	1,2,3,0,0,0,0,0,0	to_board	s628
380.821	0.361	0	PA_with_intermediate	1,0,0,0,0,0,2,0,0	test	ward_and_allport	1,3,0,0,0,0,2,0,0	71.0	30.0	0.361	1,2,3,0,0,0,0,0,0	to_hand	s628
381.182	0.286	0	PA_with_intermediate	1,3,0,0,0,0,2,0,0	test	ward_and_allport	1,3,0,0,0,0,2,0,0	89.0	30.0	0.286	1,2,3,0,0,0,0,0,0	to_board	s628
381.479	1.0	0	PA_with_intermediate	n/a	test	ward_and_allport	n/a	-1.0	30.0	n/a	n/a	feedback	s628
382.479	3.04	0	PA_with_intermediate	n/a	test	ward_and_allport	n/a	-1.0	30.0	n/a	n/a	ITI	s628
385.527	3.322	1	PA_with_intermediate	0,0,0,1,2,0,0,0,0	test	ward_and_allport	0,0,0,1,3,0,2,0,0	71.0	31.0	3.322	0,0,0,1,2,3,0,0,0	to_hand	s628
388.849	0.274	0	PA_with_intermediate	3,0,0,1,2,0,0,0,0	test	ward_and_allport	0,0,0,1,3,0,2,0,0	89.0	31.0	0.274	0,0,0,1,2,3,0,0,0	to_board	s628
389.129	0.279	0	PA_with_intermediate	3,0,0,1,0,0,0,0,0	test	ward_and_allport	0,0,0,1,3,0,2,0,0	71.0	31.0	0.279	0,0,0,1,2,3,0,0,0	to_hand	s628
389.409	0.327	0	PA_with_intermediate	3,0,0,1,0,0,2,0,0	test	ward_and_allport	0,0,0,1,3,0,2,0,0	82.0	31.0	0.327	0,0,0,1,2,3,0,0,0	to_board	s628
389.742	0.537	0	PA_with_intermediate	0,0,0,1,0,0,2,0,0	test	ward_and_allport	0,0,0,1,3,0,2,0,0	89.0	31.0	0.537	0,0,0,1,2,3,0,0,0	to_hand	s628
390.28	0.24	0	PA_with_intermediate	0,0,0,1,3,0,2,0,0	test	ward_and_allport	0,0,0,1,3,0,2,0,0	71.0	31.0	0.24	0,0,0,1,2,3,0,0,0	to_board	s628
390.529	1.0	0	PA_with_intermediate	n/a	test	ward_and_allport	n/a	-1.0	31.0	n/a	n/a	feedback	s628
391.529	1.272	0	PA_with_intermediate	n/a	test	ward_and_allport	n/a	-1.0	31.0	n/a	n/a	ITI	s628
392.807	3.803	1	PA_with_intermediate	1,2,0,0,0,0,0,0,0	test	ward_and_allport	1,0,0,0,0,0,2,3,0	89.0	32.0	3.803	1,2,3,0,0,0,0,0,0	to_hand	s628
396.611	0.247	0	PA_with_intermediate	1,2,0,3,0,0,0,0,0	test	ward_and_allport	1,0,0,0,0,0,2,3,0	71.0	32.0	0.247	1,2,3,0,0,0,0,0,0	to_board	s628
396.863	0.255	0	PA_with_intermediate	1,0,0,3,0,0,0,0,0	test	ward_and_allport	1,0,0,0,0,0,2,3,0	89.0	32.0	0.255	1,2,3,0,0,0,0,0,0	to_hand	s628
397.12	0.239	0	PA_with_intermediate	1,0,0,3,0,0,2,0,0	test	ward_and_allport	1,0,0,0,0,0,2,3,0	82.0	32.0	0.239	1,2,3,0,0,0,0,0,0	to_board	s628
397.366	0.401	0	PA_with_intermediate	1,0,0,0,0,0,2,0,0	test	ward_and_allport	1,0,0,0,0,0,2,3,0	71.0	32.0	0.401	1,2,3,0,0,0,0,0,0	to_hand	s628
397.769	0.206	0	PA_with_intermediate	1,0,0,0,0,0,2,3,0	test	ward_and_allport	1,0,0,0,0,0,2,3,0	82.0	32.0	0.206	1,2,3,0,0,0,0,0,0	to_board	s628
397.983	1.0	0	PA_with_intermediate	n/a	test	ward_and_allport	n/a	-1.0	32.0	n/a	n/a	feedback	s628
398.983	1.136	0	PA_with_intermediate	n/a	test	ward_and_allport	n/a	-1.0	32.0	n/a	n/a	ITI	s628
400.124	5.219	1	PA_with_intermediate	0,0,0,0,0,0,1,2,0	test	ward_and_allport	2,3,0,0,0,0,1,0,0	82.0	33.0	5.219	0,0,0,0,0,0,1,2,3	to_hand	s628
405.344	0.578	0	PA_with_intermediate	0,0,0,3,0,0,1,2,0	test	ward_and_allport	2,3,0,0,0,0,1,0,0	71.0	33.0	0.578	0,0,0,0,0,0,1,2,3	to_board	s628
405.93	0.259	0	PA_with_intermediate	0,0,0,3,0,0,1,0,0	test	ward_and_allport	2,3,0,0,0,0,1,0,0	82.0	33.0	0.259	0,0,0,0,0,0,1,2,3	to_hand	s628
406.189	0.274	0	PA_with_intermediate	2,0,0,3,0,0,1,0,0	test	ward_and_allport	2,3,0,0,0,0,1,0,0	89.0	33.0	0.274	0,0,0,0,0,0,1,2,3	to_board	s628
406.471	0.289	0	PA_with_intermediate	2,0,0,0,0,0,1,0,0	test	ward_and_allport	2,3,0,0,0,0,1,0,0	71.0	33.0	0.289	0,0,0,0,0,0,1,2,3	to_hand	s628
406.76	0.235	0	PA_with_intermediate	2,3,0,0,0,0,1,0,0	test	ward_and_allport	2,3,0,0,0,0,1,0,0	89.0	33.0	0.235	0,0,0,0,0,0,1,2,3	to_board	s628
407.008	1.0	0	PA_with_intermediate	n/a	test	ward_and_allport	n/a	-1.0	33.0	n/a	n/a	feedback	s628
408.008	1.0	0	PA_with_intermediate	n/a	test	ward_and_allport	n/a	-1.0	33.0	n/a	n/a	ITI	s628
409.015	4.213	1	PA_with_intermediate	1,2,0,0,0,0,0,0,0	test	ward_and_allport	1,3,0,2,0,0,0,0,0	89.0	34.0	4.213	1,2,3,0,0,0,0,0,0	to_hand	s628
413.23	0.226	0	PA_with_intermediate	1,2,0,0,0,0,3,0,0	test	ward_and_allport	1,3,0,2,0,0,0,0,0	82.0	34.0	0.226	1,2,3,0,0,0,0,0,0	to_board	s628
413.462	0.252	0	PA_with_intermediate	1,0,0,0,0,0,3,0,0	test	ward_and_allport	1,3,0,2,0,0,0,0,0	89.0	34.0	0.252	1,2,3,0,0,0,0,0,0	to_hand	s628
413.715	0.242	0	PA_with_intermediate	1,0,0,2,0,0,3,0,0	test	ward_and_allport	1,3,0,2,0,0,0,0,0	71.0	34.0	0.242	1,2,3,0,0,0,0,0,0	to_board	s628
413.966	0.24	0	PA_with_intermediate	1,0,0,2,0,0,0,0,0	test	ward_and_allport	1,3,0,2,0,0,0,0,0	82.0	34.0	0.24	1,2,3,0,0,0,0,0,0	to_hand	s628
414.207	0.244	0	PA_with_intermediate	1,3,0,2,0,0,0,0,0	test	ward_and_allport	1,3,0,2,0,0,0,0,0	89.0	34.0	0.244	1,2,3,0,0,0,0,0,0	to_board	s628
414.461	1.0	0	PA_with_intermediate	n/a	test	ward_and_allport	n/a	-1.0	34.0	n/a	n/a	feedback	s628
415.461	1.0	0	PA_with_intermediate	n/a	test	ward_and_allport	n/a	-1.0	34.0	n/a	n/a	ITI	s628
416.467	4.189	1	PA_without_intermediate	0,0,0,1,2,0,0,0,0	test	ward_and_allport	3,2,0,0,0,0,1,0,0	71.0	35.0	4.189	0,0,0,1,2,3,0,0,0	to_hand	s628
420.656	0.237	0	PA_without_intermediate	3,0,0,1,2,0,0,0,0	test	ward_and_allport	3,2,0,0,0,0,1,0,0	89.0	35.0	0.237	0,0,0,1,2,3,0,0,0	to_board	s628
420.899	0.31	0	PA_without_intermediate	3,0,0,1,0,0,0,0,0	test	ward_and_allport	3,2,0,0,0,0,1,0,0	71.0	35.0	0.31	0,0,0,1,2,3,0,0,0	to_hand	s628
421.21	0.357	0	PA_without_intermediate	3,2,0,1,0,0,0,0,0	test	ward_and_allport	3,2,0,0,0,0,1,0,0	89.0	35.0	0.357	0,0,0,1,2,3,0,0,0	to_board	s628
421.574	0.594	0	PA_without_intermediate	3,2,0,0,0,0,0,0,0	test	ward_and_allport	3,2,0,0,0,0,1,0,0	71.0	35.0	0.594	0,0,0,1,2,3,0,0,0	to_hand	s628
422.17	0.16	0	PA_without_intermediate	3,2,0,0,0,0,1,0,0	test	ward_and_allport	3,2,0,0,0,0,1,0,0	82.0	35.0	0.16	0,0,0,1,2,3,0,0,0	to_board	s628
422.341	1.0	0	PA_without_intermediate	n/a	test	ward_and_allport	n/a	-1.0	35.0	n/a	n/a	feedback	s628
423.341	1.408	0	PA_without_intermediate	n/a	test	ward_and_allport	n/a	-1.0	35.0	n/a	n/a	ITI	s628
424.757	4.302	1	PA_with_intermediate	0,0,0,0,0,0,1,2,0	test	ward_and_allport	0,0,0,2,3,0,1,0,0	82.0	36.0	4.302	0,0,0,0,0,0,1,2,3	to_hand	s628
429.06	0.283	0	PA_with_intermediate	3,0,0,0,0,0,1,2,0	test	ward_and_allport	0,0,0,2,3,0,1,0,0	89.0	36.0	0.283	0,0,0,0,0,0,1,2,3	to_board	s628
429.348	0.341	0	PA_with_intermediate	3,0,0,0,0,0,1,0,0	test	ward_and_allport	0,0,0,2,3,0,1,0,0	82.0	36.0	0.341	0,0,0,0,0,0,1,2,3	to_hand	s628
429.69	0.348	0	PA_with_intermediate	3,0,0,2,0,0,1,0,0	test	ward_and_allport	0,0,0,2,3,0,1,0,0	71.0	36.0	0.348	0,0,0,0,0,0,1,2,3	to_board	s628
430.045	0.685	0	PA_with_intermediate	0,0,0,2,0,0,1,0,0	test	ward_and_allport	0,0,0,2,3,0,1,0,0	89.0	36.0	0.685	0,0,0,0,0,0,1,2,3	to_hand	s628
430.732	0.263	0	PA_with_intermediate	0,0,0,2,3,0,1,0,0	test	ward_and_allport	0,0,0,2,3,0,1,0,0	71.0	36.0	0.263	0,0,0,0,0,0,1,2,3	to_board	s628
431.008	1.0	0	PA_with_intermediate	n/a	test	ward_and_allport	n/a	-1.0	36.0	n/a	n/a	feedback	s628
432.008	2.768	0	PA_with_intermediate	n/a	test	ward_and_allport	n/a	-1.0	36.0	n/a	n/a	ITI	s628
434.783	4.113	1	PA_with_intermediate	0,0,0,0,0,0,1,2,0	test	ward_and_allport	0,0,0,2,3,0,1,0,0	82.0	37.0	4.113	0,0,0,0,0,0,1,2,3	to_hand	s628
438.898	0.497	0	PA_with_intermediate	3,0,0,0,0,0,1,2,0	test	ward_and_allport	0,0,0,2,3,0,1,0,0	89.0	37.0	0.497	0,0,0,0,0,0,1,2,3	to_board	s628
439.401	0.463	0	PA_with_intermediate	3,0,0,0,0,0,1,0,0	test	ward_and_allport	0,0,0,2,3,0,1,0,0	82.0	37.0	0.463	0,0,0,0,0,0,1,2,3	to_hand	s628
439.866	0.791	0	PA_with_intermediate	3,0,0,2,0,0,1,0,0	test	ward_and_allport	0,0,0,2,3,0,1,0,0	71.0	37.0	0.791	0,0,0,0,0,0,1,2,3	to_board	s628
440.666	0.305	0	PA_with_intermediate	0,0,0,2,0,0,1,0,0	test	ward_and_allport	0,0,0,2,3,0,1,0,0	89.0	37.0	0.305	0,0,0,0,0,0,1,2,3	to_hand	s628
440.972	0.223	0	PA_with_intermediate	0,0,0,2,3,0,1,0,0	test	ward_and_allport	0,0,0,2,3,0,1,0,0	71.0	37.0	0.223	0,0,0,0,0,0,1,2,3	to_board	s628
441.209	1.0	0	PA_with_intermediate	n/a	test	ward_and_allport	n/a	-1.0	37.0	n/a	n/a	feedback	s628
442.209	1.68	0	PA_with_intermediate	n/a	test	ward_and_allport	n/a	-1.0	37.0	n/a	n/a	ITI	s628
443.899	6.089	1	PA_without_intermediate	1,2,0,0,0,0,0,0,0	test	ward_and_allport	0,0,0,3,1,0,2,0,0	89.0	38.0	6.089	1,2,3,0,0,0,0,0,0	to_hand	s628
449.989	0.272	0	PA_without_intermediate	1,2,0,3,0,0,0,0,0	test	ward_and_allport	0,0,0,3,1,0,2,0,0	71.0	38.0	0.272	1,2,3,0,0,0,0,0,0	to_board	s628
450.268	0.397	0	PA_without_intermediate	1,0,0,3,0,0,0,0,0	test	ward_and_allport	0,0,0,3,1,0,2,0,0	89.0	38.0	0.397	1,2,3,0,0,0,0,0,0	to_hand	s628
450.666	0.282	0	PA_without_intermediate	1,0,0,3,0,0,2,0,0	test	ward_and_allport	0,0,0,3,1,0,2,0,0	82.0	38.0	0.282	1,2,3,0,0,0,0,0,0	to_board	s628
450.957	0.291	0	PA_without_intermediate	0,0,0,3,0,0,2,0,0	test	ward_and_allport	0,0,0,3,1,0,2,0,0	89.0	38.0	0.291	1,2,3,0,0,0,0,0,0	to_hand	s628
451.248	0.334	0	PA_without_intermediate	0,0,0,3,1,0,2,0,0	test	ward_and_allport	0,0,0,3,1,0,2,0,0	71.0	38.0	0.334	1,2,3,0,0,0,0,0,0	to_board	s628
451.596	1.0	0	PA_without_intermediate	n/a	test	ward_and_allport	n/a	-1.0	38.0	n/a	n/a	feedback	s628
452.596	2.224	0	PA_without_intermediate	n/a	test	ward_and_allport	n/a	-1.0	38.0	n/a	n/a	ITI	s628
454.827	3.284	1	PA_without_intermediate	0,0,0,1,2,0,0,0,0	test	ward_and_allport	2,0,0,0,0,0,3,1,0	71.0	39.0	3.284	0,0,0,1,2,3,0,0,0	to_hand	s628
458.113	0.276	0	PA_without_intermediate	0,0,0,1,2,0,3,0,0	test	ward_and_allport	2,0,0,0,0,0,3,1,0	82.0	39.0	0.276	0,0,0,1,2,3,0,0,0	to_board	s628
458.398	0.269	0	PA_without_intermediate	0,0,0,1,0,0,3,0,0	test	ward_and_allport	2,0,0,0,0,0,3,1,0	71.0	39.0	0.269	0,0,0,1,2,3,0,0,0	to_hand	s628
458.668	0.308	0	PA_without_intermediate	2,0,0,1,0,0,3,0,0	test	ward_and_allport	2,0,0,0,0,0,3,1,0	89.0	39.0	0.308	0,0,0,1,2,3,0,0,0	to_board	s628
458.986	0.397	0	PA_without_intermediate	2,0,0,0,0,0,3,0,0	test	ward_and_allport	2,0,0,0,0,0,3,1,0	71.0	39.0	0.397	0,0,0,1,2,3,0,0,0	to_hand	s628
459.384	0.328	0	PA_without_intermediate	2,0,0,0,0,0,3,1,0	test	ward_and_allport	2,0,0,0,0,0,3,1,0	82.0	39.0	0.328	0,0,0,1,2,3,0,0,0	to_board	s628
459.721	1.0	0	PA_without_intermediate	n/a	test	ward_and_allport	n/a	-1.0	39.0	n/a	n/a	feedback	s628
460.721	2.36	0	PA_without_intermediate	n/a	test	ward_and_allport	n/a	-1.0	39.0	n/a	n/a	ITI	s628
463.089	3.342	1	PA_without_intermediate	1,2,0,0,0,0,0,0,0	test	ward_and_allport	0,0,0,2,0,0,3,1,0	89.0	40.0	3.342	1,2,3,0,0,0,0,0,0	to_hand	s628
466.432	0.266	0	PA_without_intermediate	1,2,0,0,0,0,3,0,0	test	ward_and_allport	0,0,0,2,0,0,3,1,0	82.0	40.0	0.266	1,2,3,0,0,0,0,0,0	to_board	s628
466.705	0.254	0	PA_without_intermediate	1,0,0,0,0,0,3,0,0	test	ward_and_allport	0,0,0,2,0,0,3,1,0	89.0	40.0	0.254	1,2,3,0,0,0,0,0,0	to_hand	s628
466.96	0.271	0	PA_without_intermediate	1,0,0,2,0,0,3,0,0	test	ward_and_allport	0,0,0,2,0,0,3,1,0	71.0	40.0	0.271	1,2,3,0,0,0,0,0,0	to_board	s628
467.241	0.317	0	PA_without_intermediate	0,0,0,2,0,0,3,0,0	test	ward_and_allport	0,0,0,2,0,0,3,1,0	89.0	40.0	0.317	1,2,3,0,0,0,0,0,0	to_hand	s628
467.559	0.243	0	PA_without_intermediate	0,0,0,2,0,0,3,1,0	test	ward_and_allport	0,0,0,2,0,0,3,1,0	82.0	40.0	0.243	1,2,3,0,0,0,0,0,0	to_board	s628
467.812	1.0	0	PA_without_intermediate	n/a	test	ward_and_allport	n/a	-1.0	40.0	n/a	n/a	feedback	s628
468.812	1.0	0	PA_without_intermediate	n/a	test	ward_and_allport	n/a	-1.0	40.0	n/a	n/a	ITI	s628
469.821	2.848	1	PA_without_intermediate	1,2,0,0,0,0,0,0,0	test	ward_and_allport	0,0,0,2,0,0,3,1,0	89.0	41.0	2.848	1,2,3,0,0,0,0,0,0	to_hand	s628
472.67	0.257	0	PA_without_intermediate	1,2,0,0,0,0,3,0,0	test	ward_and_allport	0,0,0,2,0,0,3,1,0	82.0	41.0	0.257	1,2,3,0,0,0,0,0,0	to_board	s628
472.934	0.271	0	PA_without_intermediate	1,0,0,0,0,0,3,0,0	test	ward_and_allport	0,0,0,2,0,0,3,1,0	89.0	41.0	0.271	1,2,3,0,0,0,0,0,0	to_hand	s628
473.206	0.274	0	PA_without_intermediate	1,0,0,2,0,0,3,0,0	test	ward_and_allport	0,0,0,2,0,0,3,1,0	71.0	41.0	0.274	1,2,3,0,0,0,0,0,0	to_board	s628
473.489	0.261	0	PA_without_intermediate	0,0,0,2,0,0,3,0,0	test	ward_and_allport	0,0,0,2,0,0,3,1,0	89.0	41.0	0.261	1,2,3,0,0,0,0,0,0	to_hand	s628
473.751	0.206	0	PA_without_intermediate	0,0,0,2,0,0,3,1,0	test	ward_and_allport	0,0,0,2,0,0,3,1,0	82.0	41.0	0.206	1,2,3,0,0,0,0,0,0	to_board	s628
473.97	1.0	0	PA_without_intermediate	n/a	test	ward_and_allport	n/a	-1.0	41.0	n/a	n/a	feedback	s628
474.97	1.408	0	PA_without_intermediate	n/a	test	ward_and_allport	n/a	-1.0	41.0	n/a	n/a	ITI	s628
476.384	6.789	1	PA_with_intermediate	1,2,0,0,0,0,0,0,0	test	ward_and_allport	1,0,0,2,3,0,0,0,0	89.0	42.0	6.789	1,2,3,0,0,0,0,0,0	to_hand	s628
483.174	0.363	0	PA_with_intermediate	1,2,0,0,0,0,3,0,0	test	ward_and_allport	1,0,0,2,3,0,0,0,0	82.0	42.0	0.363	1,2,3,0,0,0,0,0,0	to_board	s628
483.545	0.494	0	PA_with_intermediate	1,0,0,0,0,0,3,0,0	test	ward_and_allport	1,0,0,2,3,0,0,0,0	89.0	42.0	0.494	1,2,3,0,0,0,0,0,0	to_hand	s628
484.04	0.272	0	PA_with_intermediate	1,0,0,2,0,0,3,0,0	test	ward_and_allport	1,0,0,2,3,0,0,0,0	71.0	42.0	0.272	1,2,3,0,0,0,0,0,0	to_board	s628
484.322	0.276	0	PA_with_intermediate	1,0,0,2,0,0,0,0,0	test	ward_and_allport	1,0,0,2,3,0,0,0,0	82.0	42.0	0.276	1,2,3,0,0,0,0,0,0	to_hand	s628
484.599	0.225	0	PA_with_intermediate	1,0,0,2,3,0,0,0,0	test	ward_and_allport	1,0,0,2,3,0,0,0,0	71.0	42.0	0.225	1,2,3,0,0,0,0,0,0	to_board	s628
484.836	1.0	0	PA_with_intermediate	n/a	test	ward_and_allport	n/a	-1.0	42.0	n/a	n/a	feedback	s628
485.836	1.136	0	PA_with_intermediate	n/a	test	ward_and_allport	n/a	-1.0	42.0	n/a	n/a	ITI	s628
486.982	4.525	1	PA_without_intermediate	0,0,0,0,0,0,1,2,0	test	ward_and_allport	1,0,0,3,2,0,0,0,0	82.0	43.0	4.525	0,0,0,0,0,0,1,2,3	to_hand	s628
491.508	0.33	0	PA_without_intermediate	0,0,0,3,0,0,1,2,0	test	ward_and_allport	1,0,0,3,2,0,0,0,0	71.0	43.0	0.33	0,0,0,0,0,0,1,2,3	to_board	s628
491.847	0.553	0	PA_without_intermediate	0,0,0,3,0,0,1,0,0	test	ward_and_allport	1,0,0,3,2,0,0,0,0	82.0	43.0	0.553	0,0,0,0,0,0,1,2,3	to_hand	s628
492.4	0.582	0	PA_without_intermediate	0,0,0,3,2,0,1,0,0	test	ward_and_allport	1,0,0,3,2,0,0,0,0	71.0	43.0	0.582	0,0,0,0,0,0,1,2,3	to_board	s628
492.993	0.518	0	PA_without_intermediate	0,0,0,3,2,0,0,0,0	test	ward_and_allport	1,0,0,3,2,0,0,0,0	82.0	43.0	0.518	0,0,0,0,0,0,1,2,3	to_hand	s628
493.511	0.237	0	PA_without_intermediate	1,0,0,3,2,0,0,0,0	test	ward_and_allport	1,0,0,3,2,0,0,0,0	89.0	43.0	0.237	0,0,0,0,0,0,1,2,3	to_board	s628
493.763	1.0	0	PA_without_intermediate	n/a	test	ward_and_allport	n/a	-1.0	43.0	n/a	n/a	feedback	s628
494.763	4.128	0	PA_without_intermediate	n/a	test	ward_and_allport	n/a	-1.0	43.0	n/a	n/a	ITI	s628
498.9	4.563	1	PA_without_intermediate	0,0,0,1,2,0,0,0,0	test	ward_and_allport	1,0,0,0,0,0,3,2,0	71.0	44.0	4.563	0,0,0,1,2,3,0,0,0	to_hand	s628
503.463	0.337	0	PA_without_intermediate	0,0,0,1,2,0,3,0,0	test	ward_and_allport	1,0,0,0,0,0,3,2,0	82.0	44.0	0.337	0,0,0,1,2,3,0,0,0	to_board	s628
503.812	0.275	0	PA_without_intermediate	0,0,0,1,0,0,3,0,0	test	ward_and_allport	1,0,0,0,0,0,3,2,0	71.0	44.0	0.275	0,0,0,1,2,3,0,0,0	to_hand	s628
504.087	0.336	0	PA_without_intermediate	0,0,0,1,0,0,3,2,0	test	ward_and_allport	1,0,0,0,0,0,3,2,0	82.0	44.0	0.336	0,0,0,1,2,3,0,0,0	to_board	s628
504.433	0.296	0	PA_without_intermediate	0,0,0,0,0,0,3,2,0	test	ward_and_allport	1,0,0,0,0,0,3,2,0	71.0	44.0	0.296	0,0,0,1,2,3,0,0,0	to_hand	s628
504.73	0.281	0	PA_without_intermediate	1,0,0,0,0,0,3,2,0	test	ward_and_allport	1,0,0,0,0,0,3,2,0	89.0	44.0	0.281	0,0,0,1,2,3,0,0,0	to_board	s628
505.022	1.0	0	PA_without_intermediate	n/a	test	ward_and_allport	n/a	-1.0	44.0	n/a	n/a	feedback	s628
506.022	1.136	0	PA_without_intermediate	n/a	test	ward_and_allport	n/a	-1.0	44.0	n/a	n/a	ITI	s628
512.168	2.612	1	PA_without_intermediate	0,0,0,1,2,0,0,0,0	test	ward_and_allport	3,2,0,0,0,0,1,0,0	71.0	45.0	2.612	0,0,0,1,2,3,0,0,0	to_hand	s628
514.782	1.051	0	PA_without_intermediate	3,0,0,1,2,0,0,0,0	test	ward_and_allport	3,2,0,0,0,0,1,0,0	89.0	45.0	1.051	0,0,0,1,2,3,0,0,0	to_board	s628
515.844	0.357	0	PA_without_intermediate	3,0,0,1,0,0,0,0,0	test	ward_and_allport	3,2,0,0,0,0,1,0,0	71.0	45.0	0.357	0,0,0,1,2,3,0,0,0	to_hand	s628
516.201	0.275	0	PA_without_intermediate	3,2,0,1,0,0,0,0,0	test	ward_and_allport	3,2,0,0,0,0,1,0,0	89.0	45.0	0.275	0,0,0,1,2,3,0,0,0	to_board	s628
516.488	0.247	0	PA_without_intermediate	3,2,0,0,0,0,0,0,0	test	ward_and_allport	3,2,0,0,0,0,1,0,0	71.0	45.0	0.247	0,0,0,1,2,3,0,0,0	to_hand	s628
516.736	0.206	0	PA_without_intermediate	3,2,0,0,0,0,1,0,0	test	ward_and_allport	3,2,0,0,0,0,1,0,0	82.0	45.0	0.206	0,0,0,1,2,3,0,0,0	to_board	s628
516.956	1.0	0	PA_without_intermediate	n/a	test	ward_and_allport	n/a	-1.0	45.0	n/a	n/a	feedback	s628
517.956	4.264	0	PA_without_intermediate	n/a	test	ward_and_allport	n/a	-1.0	45.0	n/a	n/a	ITI	s628
522.228	5.023	1	PA_with_intermediate	1,2,0,0,0,0,0,0,0	test	ward_and_allport	1,3,0,2,0,0,0,0,0	89.0	46.0	5.023	1,2,3,0,0,0,0,0,0	to_hand	s628
527.253	0.28	0	PA_with_intermediate	1,2,0,0,0,0,3,0,0	test	ward_and_allport	1,3,0,2,0,0,0,0,0	82.0	46.0	0.28	1,2,3,0,0,0,0,0,0	to_board	s628
527.543	0.273	0	PA_with_intermediate	1,0,0,0,0,0,3,0,0	test	ward_and_allport	1,3,0,2,0,0,0,0,0	89.0	46.0	0.273	1,2,3,0,0,0,0,0,0	to_hand	s628
527.817	0.433	0	PA_with_intermediate	1,0,0,2,0,0,3,0,0	test	ward_and_allport	1,3,0,2,0,0,0,0,0	71.0	46.0	0.433	1,2,3,0,0,0,0,0,0	to_board	s628
528.261	0.509	0	PA_with_intermediate	1,0,0,2,0,0,0,0,0	test	ward_and_allport	1,3,0,2,0,0,0,0,0	82.0	46.0	0.509	1,2,3,0,0,0,0,0,0	to_hand	s628
528.772	0.223	0	PA_with_intermediate	1,3,0,2,0,0,0,0,0	test	ward_and_allport	1,3,0,2,0,0,0,0,0	89.0	46.0	0.223	1,2,3,0,0,0,0,0,0	to_board	s628
529.007	1.0	0	PA_with_intermediate	n/a	test	ward_and_allport	n/a	-1.0	46.0	n/a	n/a	feedback	s628
530.007	3.04	0	PA_with_intermediate	n/a	test	ward_and_allport	n/a	-1.0	46.0	n/a	n/a	ITI	s628
533.055	4.847	1	PA_with_intermediate	0,0,0,1,2,0,0,0,0	test	ward_and_allport	2,3,0,1,0,0,0,0,0	71.0	47.0	4.847	0,0,0,1,2,3,0,0,0	to_hand	s628
537.903	0.334	0	PA_with_intermediate	0,0,0,1,2,0,3,0,0	test	ward_and_allport	2,3,0,1,0,0,0,0,0	82.0	47.0	0.334	0,0,0,1,2,3,0,0,0	to_board	s628
538.243	0.271	0	PA_with_intermediate	0,0,0,1,0,0,3,0,0	test	ward_and_allport	2,3,0,1,0,0,0,0,0	71.0	47.0	0.271	0,0,0,1,2,3,0,0,0	to_hand	s628
538.515	0.266	0	PA_with_intermediate	2,0,0,1,0,0,3,0,0	test	ward_and_allport	2,3,0,1,0,0,0,0,0	89.0	47.0	0.266	0,0,0,1,2,3,0,0,0	to_board	s628
538.79	0.264	0	PA_with_intermediate	2,0,0,1,0,0,0,0,0	test	ward_and_allport	2,3,0,1,0,0,0,0,0	82.0	47.0	0.264	0,0,0,1,2,3,0,0,0	to_hand	s628
539.055	0.27	0	PA_with_intermediate	2,3,0,1,0,0,0,0,0	test	ward_and_allport	2,3,0,1,0,0,0,0,0	89.0	47.0	0.27	0,0,0,1,2,3,0,0,0	to_board	s628
539.338	1.0	0	PA_with_intermediate	n/a	test	ward_and_allport	n/a	-1.0	47.0	n/a	n/a	feedback	s628
540.338	1.136	0	PA_with_intermediate	n/a	test	ward_and_allport	n/a	-1.0	47.0	n/a	n/a	ITI	s628
n/a	n/a	0	n/a	n/a	n/a	n/a	n/a	n/a	n/a	n/a	n/a	ITI	n/a
