onset	duration	planning	condition	current_position	exp_stage	experiment_exp_id	goal_state	key_press	problem_id	response_time	start_state	trial_id	worker_id
-64.772	0.0	0	n/a	n/a	n/a	ward_and_allport	n/a	32.0	n/a	20.587	n/a	instructions	s607
3.014	4.188	1	UA_with_intermediate	1,0,0,2,0,0,0,0,0	practice	ward_and_allport	1,2,3,0,0,0,0,0,0	71.0	0.0	4.188	1,0,0,2,3,0,0,0,0	to_hand	s607
7.204	0.439	0	UA_with_intermediate	1,0,0,2,0,0,3,0,0	practice	ward_and_allport	1,2,3,0,0,0,0,0,0	82.0	0.0	0.439	1,0,0,2,3,0,0,0,0	to_board	s607
7.644	0.746	0	UA_with_intermediate	1,0,0,0,0,0,3,0,0	practice	ward_and_allport	1,2,3,0,0,0,0,0,0	71.0	0.0	0.746	1,0,0,2,3,0,0,0,0	to_hand	s607
8.391	0.583	0	UA_with_intermediate	1,2,0,0,0,0,3,0,0	practice	ward_and_allport	1,2,3,0,0,0,0,0,0	89.0	0.0	0.583	1,0,0,2,3,0,0,0,0	to_board	s607
8.976	0.792	0	UA_with_intermediate	1,2,0,0,0,0,0,0,0	practice	ward_and_allport	1,2,3,0,0,0,0,0,0	82.0	0.0	0.792	1,0,0,2,3,0,0,0,0	to_hand	s607
9.769	0.436	0	UA_with_intermediate	1,2,3,0,0,0,0,0,0	practice	ward_and_allport	1,2,3,0,0,0,0,0,0	89.0	0.0	0.436	1,0,0,2,3,0,0,0,0	to_board	s607
10.209	1.0	0	UA_with_intermediate	n/a	practice	ward_and_allport	n/a	-1.0	0.0	n/a	n/a	feedback	s607
12.711	4.41	1	UA_with_intermediate	1,2,0,0,0,0,0,0,0	practice	ward_and_allport	1,3,2,0,0,0,0,0,0	71.0	1.0	4.41	1,2,0,3,0,0,0,0,0	to_hand	s607
17.122	1.284	0	UA_with_intermediate	1,2,0,3,0,0,0,0,0	practice	ward_and_allport	1,3,2,0,0,0,0,0,0	71.0	1.0	1.284	1,2,0,3,0,0,0,0,0	to_board	s607
18.408	0.846	0	UA_with_intermediate	1,0,0,3,0,0,0,0,0	practice	ward_and_allport	1,3,2,0,0,0,0,0,0	89.0	1.0	0.846	1,2,0,3,0,0,0,0,0	to_hand	s607
19.255	0.5	0	UA_with_intermediate	1,0,0,3,0,0,2,0,0	practice	ward_and_allport	1,3,2,0,0,0,0,0,0	82.0	1.0	0.5	1,2,0,3,0,0,0,0,0	to_board	s607
19.757	0.647	0	UA_with_intermediate	1,0,0,0,0,0,2,0,0	practice	ward_and_allport	1,3,2,0,0,0,0,0,0	71.0	1.0	0.647	1,2,0,3,0,0,0,0,0	to_hand	s607
20.405	0.359	0	UA_with_intermediate	1,3,0,0,0,0,2,0,0	practice	ward_and_allport	1,3,2,0,0,0,0,0,0	89.0	1.0	0.359	1,2,0,3,0,0,0,0,0	to_board	s607
20.766	0.58	0	UA_with_intermediate	1,3,0,0,0,0,0,0,0	practice	ward_and_allport	1,3,2,0,0,0,0,0,0	82.0	1.0	0.58	1,2,0,3,0,0,0,0,0	to_hand	s607
21.347	0.305	0	UA_with_intermediate	1,3,2,0,0,0,0,0,0	practice	ward_and_allport	1,3,2,0,0,0,0,0,0	89.0	1.0	0.305	1,2,0,3,0,0,0,0,0	to_board	s607
21.656	1.0	0	UA_with_intermediate	n/a	practice	ward_and_allport	n/a	-1.0	1.0	n/a	n/a	feedback	s607
22.656	1.1	0	UA_with_intermediate	n/a	practice	ward_and_allport	n/a	-1.0	1.0	n/a	n/a	ITI	s607
23.759	2.461	1	UA_without_intermediate	0,0,0,1,2,0,0,0,0	practice	ward_and_allport	3,2,1,0,0,0,0,0,0	82.0	2.0	2.461	0,0,0,1,2,0,3,0,0	to_hand	s607
26.221	0.407	0	UA_without_intermediate	3,0,0,1,2,0,0,0,0	practice	ward_and_allport	3,2,1,0,0,0,0,0,0	89.0	2.0	0.407	0,0,0,1,2,0,3,0,0	to_board	s607
26.631	2.115	0	UA_without_intermediate	3,0,0,1,0,0,0,0,0	practice	ward_and_allport	3,2,1,0,0,0,0,0,0	71.0	2.0	2.115	0,0,0,1,2,0,3,0,0	to_hand	s607
28.747	0.298	0	UA_without_intermediate	3,2,0,1,0,0,0,0,0	practice	ward_and_allport	3,2,1,0,0,0,0,0,0	89.0	2.0	0.298	0,0,0,1,2,0,3,0,0	to_board	s607
29.047	0.636	0	UA_without_intermediate	3,2,0,0,0,0,0,0,0	practice	ward_and_allport	3,2,1,0,0,0,0,0,0	71.0	2.0	0.636	0,0,0,1,2,0,3,0,0	to_hand	s607
29.684	0.248	0	UA_without_intermediate	3,2,1,0,0,0,0,0,0	practice	ward_and_allport	3,2,1,0,0,0,0,0,0	89.0	2.0	0.248	0,0,0,1,2,0,3,0,0	to_board	s607
29.938	1.0	0	UA_without_intermediate	n/a	practice	ward_and_allport	n/a	-1.0	2.0	n/a	n/a	feedback	s607
30.938	1.2	0	UA_without_intermediate	n/a	practice	ward_and_allport	n/a	-1.0	2.0	n/a	n/a	ITI	s607
32.14	2.37	1	UA_without_intermediate	0,0,0,1,2,0,0,0,0	practice	ward_and_allport	2,3,1,0,0,0,0,0,0	82.0	3.0	2.37	0,0,0,1,2,0,3,0,0	to_hand	s607
34.511	1.917	0	UA_without_intermediate	0,0,0,1,2,0,3,0,0	practice	ward_and_allport	2,3,1,0,0,0,0,0,0	82.0	3.0	1.917	0,0,0,1,2,0,3,0,0	to_board	s607
36.43	0.893	0	UA_without_intermediate	0,0,0,1,0,0,3,0,0	practice	ward_and_allport	2,3,1,0,0,0,0,0,0	71.0	3.0	0.893	0,0,0,1,2,0,3,0,0	to_hand	s607
37.324	0.324	0	UA_without_intermediate	2,0,0,1,0,0,3,0,0	practice	ward_and_allport	2,3,1,0,0,0,0,0,0	89.0	3.0	0.324	0,0,0,1,2,0,3,0,0	to_board	s607
37.65	1.016	0	UA_without_intermediate	2,0,0,1,0,0,0,0,0	practice	ward_and_allport	2,3,1,0,0,0,0,0,0	82.0	3.0	1.016	0,0,0,1,2,0,3,0,0	to_hand	s607
38.667	0.263	0	UA_without_intermediate	2,3,0,1,0,0,0,0,0	practice	ward_and_allport	2,3,1,0,0,0,0,0,0	89.0	3.0	0.263	0,0,0,1,2,0,3,0,0	to_board	s607
38.932	0.442	0	UA_without_intermediate	2,3,0,0,0,0,0,0,0	practice	ward_and_allport	2,3,1,0,0,0,0,0,0	71.0	3.0	0.442	0,0,0,1,2,0,3,0,0	to_hand	s607
39.375	0.333	0	UA_without_intermediate	2,3,1,0,0,0,0,0,0	practice	ward_and_allport	2,3,1,0,0,0,0,0,0	89.0	3.0	0.333	0,0,0,1,2,0,3,0,0	to_board	s607
39.712	1.0	0	UA_without_intermediate	n/a	practice	ward_and_allport	n/a	-1.0	3.0	n/a	n/a	feedback	s607
40.712	1.0	0	UA_without_intermediate	n/a	practice	ward_and_allport	n/a	-1.0	3.0	n/a	n/a	ITI	s607
43.718	3.979	1	PA_without_intermediate	0,0,0,1,2,0,0,0,0	test	ward_and_allport	3,2,0,0,0,0,1,0,0	71.0	0.0	3.979	0,0,0,1,2,3,0,0,0	to_hand	s607
47.698	0.412	0	PA_without_intermediate	3,0,0,1,2,0,0,0,0	test	ward_and_allport	3,2,0,0,0,0,1,0,0	89.0	0.0	0.412	0,0,0,1,2,3,0,0,0	to_board	s607
48.112	0.807	0	PA_without_intermediate	3,0,0,1,0,0,0,0,0	test	ward_and_allport	3,2,0,0,0,0,1,0,0	71.0	0.0	0.807	0,0,0,1,2,3,0,0,0	to_hand	s607
48.92	0.292	0	PA_without_intermediate	3,2,0,1,0,0,0,0,0	test	ward_and_allport	3,2,0,0,0,0,1,0,0	89.0	0.0	0.292	0,0,0,1,2,3,0,0,0	to_board	s607
49.216	0.878	0	PA_without_intermediate	3,2,0,0,0,0,0,0,0	test	ward_and_allport	3,2,0,0,0,0,1,0,0	71.0	0.0	0.878	0,0,0,1,2,3,0,0,0	to_hand	s607
50.095	0.244	0	PA_without_intermediate	3,2,0,0,0,0,1,0,0	test	ward_and_allport	3,2,0,0,0,0,1,0,0	82.0	0.0	0.244	0,0,0,1,2,3,0,0,0	to_board	s607
50.345	1.0	0	PA_without_intermediate	n/a	test	ward_and_allport	n/a	-1.0	0.0	n/a	n/a	feedback	s607
51.345	2.088	0	PA_without_intermediate	n/a	test	ward_and_allport	n/a	-1.0	0.0	n/a	n/a	ITI	s607
53.435	2.521	1	PA_with_intermediate	0,0,0,1,2,0,0,0,0	test	ward_and_allport	2,0,0,1,3,0,0,0,0	71.0	1.0	2.521	0,0,0,1,2,3,0,0,0	to_hand	s607
55.957	0.451	0	PA_with_intermediate	0,0,0,1,2,0,3,0,0	test	ward_and_allport	2,0,0,1,3,0,0,0,0	82.0	1.0	0.451	0,0,0,1,2,3,0,0,0	to_board	s607
56.41	0.545	0	PA_with_intermediate	0,0,0,1,0,0,3,0,0	test	ward_and_allport	2,0,0,1,3,0,0,0,0	71.0	1.0	0.545	0,0,0,1,2,3,0,0,0	to_hand	s607
56.956	0.584	0	PA_with_intermediate	2,0,0,1,0,0,3,0,0	test	ward_and_allport	2,0,0,1,3,0,0,0,0	89.0	1.0	0.584	0,0,0,1,2,3,0,0,0	to_board	s607
57.542	1.307	0	PA_with_intermediate	2,0,0,1,0,0,0,0,0	test	ward_and_allport	2,0,0,1,3,0,0,0,0	82.0	1.0	1.307	0,0,0,1,2,3,0,0,0	to_hand	s607
58.85	0.541	0	PA_with_intermediate	2,0,0,1,3,0,0,0,0	test	ward_and_allport	2,0,0,1,3,0,0,0,0	71.0	1.0	0.541	0,0,0,1,2,3,0,0,0	to_board	s607
59.395	1.0	0	PA_with_intermediate	n/a	test	ward_and_allport	n/a	-1.0	1.0	n/a	n/a	feedback	s607
60.395	1.0	0	PA_with_intermediate	n/a	test	ward_and_allport	n/a	-1.0	1.0	n/a	n/a	ITI	s607
61.399	2.019	1	PA_without_intermediate	0,0,0,1,2,0,0,0,0	test	ward_and_allport	2,0,0,0,0,0,3,1,0	71.0	2.0	2.019	0,0,0,1,2,3,0,0,0	to_hand	s607
63.419	0.382	0	PA_without_intermediate	0,0,0,1,2,0,3,0,0	test	ward_and_allport	2,0,0,0,0,0,3,1,0	82.0	2.0	0.382	0,0,0,1,2,3,0,0,0	to_board	s607
63.803	1.039	0	PA_without_intermediate	0,0,0,1,0,0,3,0,0	test	ward_and_allport	2,0,0,0,0,0,3,1,0	71.0	2.0	1.039	0,0,0,1,2,3,0,0,0	to_hand	s607
64.843	0.357	0	PA_without_intermediate	2,0,0,1,0,0,3,0,0	test	ward_and_allport	2,0,0,0,0,0,3,1,0	89.0	2.0	0.357	0,0,0,1,2,3,0,0,0	to_board	s607
65.202	0.654	0	PA_without_intermediate	2,0,0,0,0,0,3,0,0	test	ward_and_allport	2,0,0,0,0,0,3,1,0	71.0	2.0	0.654	0,0,0,1,2,3,0,0,0	to_hand	s607
65.857	0.568	0	PA_without_intermediate	2,0,0,0,0,0,3,1,0	test	ward_and_allport	2,0,0,0,0,0,3,1,0	82.0	2.0	0.568	0,0,0,1,2,3,0,0,0	to_board	s607
66.431	1.0	0	PA_without_intermediate	n/a	test	ward_and_allport	n/a	-1.0	2.0	n/a	n/a	feedback	s607
67.431	1.0	0	PA_without_intermediate	n/a	test	ward_and_allport	n/a	-1.0	2.0	n/a	n/a	ITI	s607
68.434	3.153	1	PA_without_intermediate	1,2,0,0,0,0,0,0,0	test	ward_and_allport	0,0,0,3,1,0,2,0,0	89.0	3.0	3.153	1,2,3,0,0,0,0,0,0	to_hand	s607
71.588	0.382	0	PA_without_intermediate	1,2,0,3,0,0,0,0,0	test	ward_and_allport	0,0,0,3,1,0,2,0,0	71.0	3.0	0.382	1,2,3,0,0,0,0,0,0	to_board	s607
71.972	1.165	0	PA_without_intermediate	1,0,0,3,0,0,0,0,0	test	ward_and_allport	0,0,0,3,1,0,2,0,0	89.0	3.0	1.165	1,2,3,0,0,0,0,0,0	to_hand	s607
73.139	0.469	0	PA_without_intermediate	1,0,0,3,0,0,2,0,0	test	ward_and_allport	0,0,0,3,1,0,2,0,0	82.0	3.0	0.469	1,2,3,0,0,0,0,0,0	to_board	s607
73.61	1.09	0	PA_without_intermediate	0,0,0,3,0,0,2,0,0	test	ward_and_allport	0,0,0,3,1,0,2,0,0	89.0	3.0	1.09	1,2,3,0,0,0,0,0,0	to_hand	s607
74.7	0.314	0	PA_without_intermediate	0,0,0,3,1,0,2,0,0	test	ward_and_allport	0,0,0,3,1,0,2,0,0	71.0	3.0	0.314	1,2,3,0,0,0,0,0,0	to_board	s607
75.018	1.0	0	PA_without_intermediate	n/a	test	ward_and_allport	n/a	-1.0	3.0	n/a	n/a	feedback	s607
76.018	1.0	0	PA_without_intermediate	n/a	test	ward_and_allport	n/a	-1.0	3.0	n/a	n/a	ITI	s607
77.021	2.764	1	PA_with_intermediate	1,2,0,0,0,0,0,0,0	test	ward_and_allport	1,3,0,2,0,0,0,0,0	89.0	4.0	2.764	1,2,3,0,0,0,0,0,0	to_hand	s607
79.786	1.601	0	PA_with_intermediate	1,2,0,0,0,0,3,0,0	test	ward_and_allport	1,3,0,2,0,0,0,0,0	82.0	4.0	1.601	1,2,3,0,0,0,0,0,0	to_board	s607
81.389	1.071	0	PA_with_intermediate	1,0,0,0,0,0,3,0,0	test	ward_and_allport	1,3,0,2,0,0,0,0,0	89.0	4.0	1.071	1,2,3,0,0,0,0,0,0	to_hand	s607
82.461	0.328	0	PA_with_intermediate	1,0,0,2,0,0,3,0,0	test	ward_and_allport	1,3,0,2,0,0,0,0,0	71.0	4.0	0.328	1,2,3,0,0,0,0,0,0	to_board	s607
82.791	0.902	0	PA_with_intermediate	1,0,0,2,0,0,0,0,0	test	ward_and_allport	1,3,0,2,0,0,0,0,0	82.0	4.0	0.902	1,2,3,0,0,0,0,0,0	to_hand	s607
83.695	0.466	0	PA_with_intermediate	1,3,0,2,0,0,0,0,0	test	ward_and_allport	1,3,0,2,0,0,0,0,0	89.0	4.0	0.466	1,2,3,0,0,0,0,0,0	to_board	s607
84.165	1.0	0	PA_with_intermediate	n/a	test	ward_and_allport	n/a	-1.0	4.0	n/a	n/a	feedback	s607
85.165	1.544	0	PA_with_intermediate	n/a	test	ward_and_allport	n/a	-1.0	4.0	n/a	n/a	ITI	s607
86.712	1.43	1	PA_without_intermediate	0,0,0,1,2,0,0,0,0	test	ward_and_allport	1,0,0,0,0,0,3,2,0	71.0	5.0	1.43	0,0,0,1,2,3,0,0,0	to_hand	s607
88.142	0.788	0	PA_without_intermediate	0,0,0,1,2,0,3,0,0	test	ward_and_allport	1,0,0,0,0,0,3,2,0	82.0	5.0	0.788	0,0,0,1,2,3,0,0,0	to_board	s607
88.933	1.008	0	PA_without_intermediate	0,0,0,1,0,0,3,0,0	test	ward_and_allport	1,0,0,0,0,0,3,2,0	71.0	5.0	1.008	0,0,0,1,2,3,0,0,0	to_hand	s607
89.942	0.442	0	PA_without_intermediate	0,0,0,1,0,0,3,2,0	test	ward_and_allport	1,0,0,0,0,0,3,2,0	82.0	5.0	0.442	0,0,0,1,2,3,0,0,0	to_board	s607
90.386	0.659	0	PA_without_intermediate	0,0,0,0,0,0,3,2,0	test	ward_and_allport	1,0,0,0,0,0,3,2,0	71.0	5.0	0.659	0,0,0,1,2,3,0,0,0	to_hand	s607
91.047	0.321	0	PA_without_intermediate	1,0,0,0,0,0,3,2,0	test	ward_and_allport	1,0,0,0,0,0,3,2,0	89.0	5.0	0.321	0,0,0,1,2,3,0,0,0	to_board	s607
91.374	1.0	0	PA_without_intermediate	n/a	test	ward_and_allport	n/a	-1.0	5.0	n/a	n/a	feedback	s607
92.374	1.272	0	PA_without_intermediate	n/a	test	ward_and_allport	n/a	-1.0	5.0	n/a	n/a	ITI	s607
93.65	1.885	1	PA_with_intermediate	0,0,0,1,2,0,0,0,0	test	ward_and_allport	0,0,0,1,3,0,2,0,0	71.0	6.0	1.885	0,0,0,1,2,3,0,0,0	to_hand	s607
95.537	3.046	0	PA_with_intermediate	3,0,0,1,2,0,0,0,0	test	ward_and_allport	0,0,0,1,3,0,2,0,0	89.0	6.0	3.046	0,0,0,1,2,3,0,0,0	to_board	s607
98.584	0.49	0	PA_with_intermediate	3,0,0,1,0,0,0,0,0	test	ward_and_allport	0,0,0,1,3,0,2,0,0	71.0	6.0	0.49	0,0,0,1,2,3,0,0,0	to_hand	s607
99.076	0.4	0	PA_with_intermediate	3,0,0,1,0,0,2,0,0	test	ward_and_allport	0,0,0,1,3,0,2,0,0	82.0	6.0	0.4	0,0,0,1,2,3,0,0,0	to_board	s607
99.479	0.539	0	PA_with_intermediate	0,0,0,1,0,0,2,0,0	test	ward_and_allport	0,0,0,1,3,0,2,0,0	89.0	6.0	0.539	0,0,0,1,2,3,0,0,0	to_hand	s607
100.019	0.413	0	PA_with_intermediate	0,0,0,1,3,0,2,0,0	test	ward_and_allport	0,0,0,1,3,0,2,0,0	71.0	6.0	0.413	0,0,0,1,2,3,0,0,0	to_board	s607
100.434	1.0	0	PA_with_intermediate	n/a	test	ward_and_allport	n/a	-1.0	6.0	n/a	n/a	feedback	s607
101.434	3.04	0	PA_with_intermediate	n/a	test	ward_and_allport	n/a	-1.0	6.0	n/a	n/a	ITI	s607
104.478	2.181	1	PA_with_intermediate	0,0,0,0,0,0,1,2,0	test	ward_and_allport	2,3,0,0,0,0,1,0,0	82.0	7.0	2.181	0,0,0,0,0,0,1,2,3	to_hand	s607
106.66	1.669	0	PA_with_intermediate	0,0,0,3,0,0,1,2,0	test	ward_and_allport	2,3,0,0,0,0,1,0,0	71.0	7.0	1.669	0,0,0,0,0,0,1,2,3	to_board	s607
108.332	0.898	0	PA_with_intermediate	0,0,0,0,0,0,1,2,0	test	ward_and_allport	2,3,0,0,0,0,1,0,0	71.0	7.0	0.898	0,0,0,0,0,0,1,2,3	to_hand	s607
109.231	0.746	0	PA_with_intermediate	0,0,0,3,0,0,1,2,0	test	ward_and_allport	2,3,0,0,0,0,1,0,0	71.0	7.0	0.746	0,0,0,0,0,0,1,2,3	to_board	s607
109.98	0.362	0	PA_with_intermediate	0,0,0,3,0,0,1,0,0	test	ward_and_allport	2,3,0,0,0,0,1,0,0	82.0	7.0	0.362	0,0,0,0,0,0,1,2,3	to_hand	s607
110.344	0.446	0	PA_with_intermediate	2,0,0,3,0,0,1,0,0	test	ward_and_allport	2,3,0,0,0,0,1,0,0	89.0	7.0	0.446	0,0,0,0,0,0,1,2,3	to_board	s607
110.793	2.04	0	PA_with_intermediate	2,0,0,0,0,0,1,0,0	test	ward_and_allport	2,3,0,0,0,0,1,0,0	71.0	7.0	2.04	0,0,0,0,0,0,1,2,3	to_hand	s607
112.834	0.411	0	PA_with_intermediate	2,3,0,0,0,0,1,0,0	test	ward_and_allport	2,3,0,0,0,0,1,0,0	89.0	7.0	0.411	0,0,0,0,0,0,1,2,3	to_board	s607
113.247	1.0	0	PA_with_intermediate	n/a	test	ward_and_allport	n/a	-1.0	7.0	n/a	n/a	feedback	s607
114.247	1.272	0	PA_with_intermediate	n/a	test	ward_and_allport	n/a	-1.0	7.0	n/a	n/a	ITI	s607
115.523	1.383	1	PA_with_intermediate	0,0,0,1,2,0,0,0,0	test	ward_and_allport	0,0,0,1,0,0,2,3,0	71.0	8.0	1.383	0,0,0,1,2,3,0,0,0	to_hand	s607
116.907	1.33	0	PA_with_intermediate	3,0,0,1,2,0,0,0,0	test	ward_and_allport	0,0,0,1,0,0,2,3,0	89.0	8.0	1.33	0,0,0,1,2,3,0,0,0	to_board	s607
118.241	0.598	0	PA_with_intermediate	3,0,0,1,0,0,0,0,0	test	ward_and_allport	0,0,0,1,0,0,2,3,0	71.0	8.0	0.598	0,0,0,1,2,3,0,0,0	to_hand	s607
118.84	0.431	0	PA_with_intermediate	3,0,0,1,0,0,2,0,0	test	ward_and_allport	0,0,0,1,0,0,2,3,0	82.0	8.0	0.431	0,0,0,1,2,3,0,0,0	to_board	s607
119.274	0.604	0	PA_with_intermediate	0,0,0,1,0,0,2,0,0	test	ward_and_allport	0,0,0,1,0,0,2,3,0	89.0	8.0	0.604	0,0,0,1,2,3,0,0,0	to_hand	s607
119.879	0.456	0	PA_with_intermediate	0,0,0,1,0,0,2,3,0	test	ward_and_allport	0,0,0,1,0,0,2,3,0	82.0	8.0	0.456	0,0,0,1,2,3,0,0,0	to_board	s607
120.338	1.0	0	PA_with_intermediate	n/a	test	ward_and_allport	n/a	-1.0	8.0	n/a	n/a	feedback	s607
121.338	1.136	0	PA_with_intermediate	n/a	test	ward_and_allport	n/a	-1.0	8.0	n/a	n/a	ITI	s607
122.477	3.218	1	PA_with_intermediate	1,2,0,0,0,0,0,0,0	test	ward_and_allport	1,3,0,2,0,0,0,0,0	89.0	9.0	3.218	1,2,3,0,0,0,0,0,0	to_hand	s607
125.696	1.034	0	PA_with_intermediate	1,2,0,0,0,0,3,0,0	test	ward_and_allport	1,3,0,2,0,0,0,0,0	82.0	9.0	1.034	1,2,3,0,0,0,0,0,0	to_board	s607
126.733	0.449	0	PA_with_intermediate	1,0,0,0,0,0,3,0,0	test	ward_and_allport	1,3,0,2,0,0,0,0,0	89.0	9.0	0.449	1,2,3,0,0,0,0,0,0	to_hand	s607
127.184	0.651	0	PA_with_intermediate	1,0,0,2,0,0,3,0,0	test	ward_and_allport	1,3,0,2,0,0,0,0,0	71.0	9.0	0.651	1,2,3,0,0,0,0,0,0	to_board	s607
127.841	0.95	0	PA_with_intermediate	1,0,0,2,0,0,0,0,0	test	ward_and_allport	1,3,0,2,0,0,0,0,0	82.0	9.0	0.95	1,2,3,0,0,0,0,0,0	to_hand	s607
128.791	0.464	0	PA_with_intermediate	1,3,0,2,0,0,0,0,0	test	ward_and_allport	1,3,0,2,0,0,0,0,0	89.0	9.0	0.464	1,2,3,0,0,0,0,0,0	to_board	s607
129.26	1.0	0	PA_with_intermediate	n/a	test	ward_and_allport	n/a	-1.0	9.0	n/a	n/a	feedback	s607
130.26	1.0	0	PA_with_intermediate	n/a	test	ward_and_allport	n/a	-1.0	9.0	n/a	n/a	ITI	s607
131.264	3.426	1	PA_with_intermediate	0,0,0,1,2,0,0,0,0	test	ward_and_allport	0,0,0,1,0,0,2,3,0	71.0	10.0	3.426	0,0,0,1,2,3,0,0,0	to_hand	s607
134.691	0.67	0	PA_with_intermediate	3,0,0,1,2,0,0,0,0	test	ward_and_allport	0,0,0,1,0,0,2,3,0	89.0	10.0	0.67	0,0,0,1,2,3,0,0,0	to_board	s607
135.365	0.444	0	PA_with_intermediate	3,0,0,1,0,0,0,0,0	test	ward_and_allport	0,0,0,1,0,0,2,3,0	71.0	10.0	0.444	0,0,0,1,2,3,0,0,0	to_hand	s607
135.811	0.371	0	PA_with_intermediate	3,0,0,1,0,0,2,0,0	test	ward_and_allport	0,0,0,1,0,0,2,3,0	82.0	10.0	0.371	0,0,0,1,2,3,0,0,0	to_board	s607
136.186	0.456	0	PA_with_intermediate	0,0,0,1,0,0,2,0,0	test	ward_and_allport	0,0,0,1,0,0,2,3,0	89.0	10.0	0.456	0,0,0,1,2,3,0,0,0	to_hand	s607
136.643	0.312	0	PA_with_intermediate	0,0,0,1,0,0,2,3,0	test	ward_and_allport	0,0,0,1,0,0,2,3,0	82.0	10.0	0.312	0,0,0,1,2,3,0,0,0	to_board	s607
136.96	1.0	0	PA_with_intermediate	n/a	test	ward_and_allport	n/a	-1.0	10.0	n/a	n/a	feedback	s607
137.96	1.0	0	PA_with_intermediate	n/a	test	ward_and_allport	n/a	-1.0	10.0	n/a	n/a	ITI	s607
138.965	1.728	1	PA_without_intermediate	0,0,0,1,2,0,0,0,0	test	ward_and_allport	1,0,0,0,0,0,3,2,0	71.0	11.0	1.728	0,0,0,1,2,3,0,0,0	to_hand	s607
140.693	2.387	0	PA_without_intermediate	0,0,0,1,2,0,3,0,0	test	ward_and_allport	1,0,0,0,0,0,3,2,0	82.0	11.0	2.387	0,0,0,1,2,3,0,0,0	to_board	s607
143.084	0.695	0	PA_without_intermediate	0,0,0,1,0,0,3,0,0	test	ward_and_allport	1,0,0,0,0,0,3,2,0	71.0	11.0	0.695	0,0,0,1,2,3,0,0,0	to_hand	s607
143.78	0.463	0	PA_without_intermediate	0,0,0,1,0,0,3,2,0	test	ward_and_allport	1,0,0,0,0,0,3,2,0	82.0	11.0	0.463	0,0,0,1,2,3,0,0,0	to_board	s607
144.247	1.317	0	PA_without_intermediate	0,0,0,0,0,0,3,2,0	test	ward_and_allport	1,0,0,0,0,0,3,2,0	71.0	11.0	1.317	0,0,0,1,2,3,0,0,0	to_hand	s607
145.566	0.278	0	PA_without_intermediate	1,0,0,0,0,0,3,2,0	test	ward_and_allport	1,0,0,0,0,0,3,2,0	89.0	11.0	0.278	0,0,0,1,2,3,0,0,0	to_board	s607
145.848	1.0	0	PA_without_intermediate	n/a	test	ward_and_allport	n/a	-1.0	11.0	n/a	n/a	feedback	s607
146.848	1.408	0	PA_without_intermediate	n/a	test	ward_and_allport	n/a	-1.0	11.0	n/a	n/a	ITI	s607
148.26	2.925	1	PA_with_intermediate	1,2,0,0,0,0,0,0,0	test	ward_and_allport	1,0,0,2,3,0,0,0,0	89.0	12.0	2.925	1,2,3,0,0,0,0,0,0	to_hand	s607
151.186	2.33	0	PA_with_intermediate	1,2,0,0,0,0,3,0,0	test	ward_and_allport	1,0,0,2,3,0,0,0,0	82.0	12.0	2.33	1,2,3,0,0,0,0,0,0	to_board	s607
153.521	1.416	0	PA_with_intermediate	1,0,0,0,0,0,3,0,0	test	ward_and_allport	1,0,0,2,3,0,0,0,0	89.0	12.0	1.416	1,2,3,0,0,0,0,0,0	to_hand	s607
154.938	0.445	0	PA_with_intermediate	1,0,0,2,0,0,3,0,0	test	ward_and_allport	1,0,0,2,3,0,0,0,0	71.0	12.0	0.445	1,2,3,0,0,0,0,0,0	to_board	s607
155.386	0.409	0	PA_with_intermediate	1,0,0,2,0,0,0,0,0	test	ward_and_allport	1,0,0,2,3,0,0,0,0	82.0	12.0	0.409	1,2,3,0,0,0,0,0,0	to_hand	s607
155.797	0.55	0	PA_with_intermediate	1,0,0,2,3,0,0,0,0	test	ward_and_allport	1,0,0,2,3,0,0,0,0	71.0	12.0	0.55	1,2,3,0,0,0,0,0,0	to_board	s607
156.353	1.0	0	PA_with_intermediate	n/a	test	ward_and_allport	n/a	-1.0	12.0	n/a	n/a	feedback	s607
157.353	2.768	0	PA_with_intermediate	n/a	test	ward_and_allport	n/a	-1.0	12.0	n/a	n/a	ITI	s607
160.125	2.447	1	PA_with_intermediate	0,0,0,0,0,0,1,2,0	test	ward_and_allport	2,3,0,0,0,0,1,0,0	82.0	13.0	2.447	0,0,0,0,0,0,1,2,3	to_hand	s607
162.573	1.19	0	PA_with_intermediate	0,0,0,3,0,0,1,2,0	test	ward_and_allport	2,3,0,0,0,0,1,0,0	71.0	13.0	1.19	0,0,0,0,0,0,1,2,3	to_board	s607
163.767	0.58	0	PA_with_intermediate	0,0,0,3,0,0,1,0,0	test	ward_and_allport	2,3,0,0,0,0,1,0,0	82.0	13.0	0.58	0,0,0,0,0,0,1,2,3	to_hand	s607
164.348	0.436	0	PA_with_intermediate	2,0,0,3,0,0,1,0,0	test	ward_and_allport	2,3,0,0,0,0,1,0,0	89.0	13.0	0.436	0,0,0,0,0,0,1,2,3	to_board	s607
164.787	0.745	0	PA_with_intermediate	2,0,0,0,0,0,1,0,0	test	ward_and_allport	2,3,0,0,0,0,1,0,0	71.0	13.0	0.745	0,0,0,0,0,0,1,2,3	to_hand	s607
165.533	0.295	0	PA_with_intermediate	2,3,0,0,0,0,1,0,0	test	ward_and_allport	2,3,0,0,0,0,1,0,0	89.0	13.0	0.295	0,0,0,0,0,0,1,2,3	to_board	s607
165.837	1.0	0	PA_with_intermediate	n/a	test	ward_and_allport	n/a	-1.0	13.0	n/a	n/a	feedback	s607
166.837	1.68	0	PA_with_intermediate	n/a	test	ward_and_allport	n/a	-1.0	13.0	n/a	n/a	ITI	s607
168.521	2.414	1	PA_without_intermediate	0,0,0,0,0,0,1,2,0	test	ward_and_allport	2,0,0,3,1,0,0,0,0	82.0	14.0	2.414	0,0,0,0,0,0,1,2,3	to_hand	s607
170.935	1.105	0	PA_without_intermediate	0,0,0,3,0,0,1,2,0	test	ward_and_allport	2,0,0,3,1,0,0,0,0	71.0	14.0	1.105	0,0,0,0,0,0,1,2,3	to_board	s607
172.044	0.473	0	PA_without_intermediate	0,0,0,3,0,0,1,0,0	test	ward_and_allport	2,0,0,3,1,0,0,0,0	82.0	14.0	0.473	0,0,0,0,0,0,1,2,3	to_hand	s607
172.519	0.8	0	PA_without_intermediate	2,0,0,3,0,0,1,0,0	test	ward_and_allport	2,0,0,3,1,0,0,0,0	89.0	14.0	0.8	0,0,0,0,0,0,1,2,3	to_board	s607
173.323	0.453	0	PA_without_intermediate	2,0,0,3,0,0,0,0,0	test	ward_and_allport	2,0,0,3,1,0,0,0,0	82.0	14.0	0.453	0,0,0,0,0,0,1,2,3	to_hand	s607
173.776	0.385	0	PA_without_intermediate	2,0,0,3,1,0,0,0,0	test	ward_and_allport	2,0,0,3,1,0,0,0,0	71.0	14.0	0.385	0,0,0,0,0,0,1,2,3	to_board	s607
174.167	1.0	0	PA_without_intermediate	n/a	test	ward_and_allport	n/a	-1.0	14.0	n/a	n/a	feedback	s607
175.167	2.224	0	PA_without_intermediate	n/a	test	ward_and_allport	n/a	-1.0	14.0	n/a	n/a	ITI	s607
182.398	2.565	1	PA_without_intermediate	1,2,0,0,0,0,0,0,0	test	ward_and_allport	0,0,0,2,0,0,3,1,0	89.0	15.0	2.565	1,2,3,0,0,0,0,0,0	to_hand	s607
184.965	0.354	0	PA_without_intermediate	1,2,0,0,0,0,3,0,0	test	ward_and_allport	0,0,0,2,0,0,3,1,0	82.0	15.0	0.354	1,2,3,0,0,0,0,0,0	to_board	s607
185.322	1.037	0	PA_without_intermediate	1,0,0,0,0,0,3,0,0	test	ward_and_allport	0,0,0,2,0,0,3,1,0	89.0	15.0	1.037	1,2,3,0,0,0,0,0,0	to_hand	s607
186.361	0.517	0	PA_without_intermediate	1,0,0,2,0,0,3,0,0	test	ward_and_allport	0,0,0,2,0,0,3,1,0	71.0	15.0	0.517	1,2,3,0,0,0,0,0,0	to_board	s607
186.882	0.443	0	PA_without_intermediate	0,0,0,2,0,0,3,0,0	test	ward_and_allport	0,0,0,2,0,0,3,1,0	89.0	15.0	0.443	1,2,3,0,0,0,0,0,0	to_hand	s607
187.326	0.438	0	PA_without_intermediate	0,0,0,2,0,0,3,1,0	test	ward_and_allport	0,0,0,2,0,0,3,1,0	82.0	15.0	0.438	1,2,3,0,0,0,0,0,0	to_board	s607
187.77	1.0	0	PA_without_intermediate	n/a	test	ward_and_allport	n/a	-1.0	15.0	n/a	n/a	feedback	s607
188.77	2.36	0	PA_without_intermediate	n/a	test	ward_and_allport	n/a	-1.0	15.0	n/a	n/a	ITI	s607
191.134	1.899	1	PA_without_intermediate	0,0,0,0,0,0,1,2,0	test	ward_and_allport	3,1,0,2,0,0,0,0,0	82.0	16.0	1.899	0,0,0,0,0,0,1,2,3	to_hand	s607
193.033	0.782	0	PA_without_intermediate	3,0,0,0,0,0,1,2,0	test	ward_and_allport	3,1,0,2,0,0,0,0,0	89.0	16.0	0.782	0,0,0,0,0,0,1,2,3	to_board	s607
193.82	1.088	0	PA_without_intermediate	3,0,0,0,0,0,1,0,0	test	ward_and_allport	3,1,0,2,0,0,0,0,0	82.0	16.0	1.088	0,0,0,0,0,0,1,2,3	to_hand	s607
194.909	0.729	0	PA_without_intermediate	3,0,0,2,0,0,1,0,0	test	ward_and_allport	3,1,0,2,0,0,0,0,0	71.0	16.0	0.729	0,0,0,0,0,0,1,2,3	to_board	s607
195.642	0.536	0	PA_without_intermediate	3,0,0,2,0,0,0,0,0	test	ward_and_allport	3,1,0,2,0,0,0,0,0	82.0	16.0	0.536	0,0,0,0,0,0,1,2,3	to_hand	s607
196.18	0.563	0	PA_without_intermediate	3,1,0,2,0,0,0,0,0	test	ward_and_allport	3,1,0,2,0,0,0,0,0	89.0	16.0	0.563	0,0,0,0,0,0,1,2,3	to_board	s607
196.75	1.0	0	PA_without_intermediate	n/a	test	ward_and_allport	n/a	-1.0	16.0	n/a	n/a	feedback	s607
197.75	1.0	0	PA_without_intermediate	n/a	test	ward_and_allport	n/a	-1.0	16.0	n/a	n/a	ITI	s607
198.755	1.939	1	PA_without_intermediate	1,2,0,0,0,0,0,0,0	test	ward_and_allport	0,0,0,1,0,0,3,2,0	89.0	17.0	1.939	1,2,3,0,0,0,0,0,0	to_hand	s607
200.695	0.404	0	PA_without_intermediate	1,2,0,0,0,0,3,0,0	test	ward_and_allport	0,0,0,1,0,0,3,2,0	82.0	17.0	0.404	1,2,3,0,0,0,0,0,0	to_board	s607
201.103	0.754	0	PA_without_intermediate	1,0,0,0,0,0,3,0,0	test	ward_and_allport	0,0,0,1,0,0,3,2,0	89.0	17.0	0.754	1,2,3,0,0,0,0,0,0	to_hand	s607
201.858	0.775	0	PA_without_intermediate	1,0,0,0,0,0,3,2,0	test	ward_and_allport	0,0,0,1,0,0,3,2,0	82.0	17.0	0.775	1,2,3,0,0,0,0,0,0	to_board	s607
202.638	0.682	0	PA_without_intermediate	0,0,0,0,0,0,3,2,0	test	ward_and_allport	0,0,0,1,0,0,3,2,0	89.0	17.0	0.682	1,2,3,0,0,0,0,0,0	to_hand	s607
203.321	0.436	0	PA_without_intermediate	0,0,0,1,0,0,3,2,0	test	ward_and_allport	0,0,0,1,0,0,3,2,0	71.0	17.0	0.436	1,2,3,0,0,0,0,0,0	to_board	s607
203.761	1.0	0	PA_without_intermediate	n/a	test	ward_and_allport	n/a	-1.0	17.0	n/a	n/a	feedback	s607
204.761	1.408	0	PA_without_intermediate	n/a	test	ward_and_allport	n/a	-1.0	17.0	n/a	n/a	ITI	s607
206.177	1.138	1	PA_with_intermediate	0,0,0,1,2,0,0,0,0	test	ward_and_allport	0,0,0,1,3,0,2,0,0	71.0	18.0	1.138	0,0,0,1,2,3,0,0,0	to_hand	s607
207.316	2.04	0	PA_with_intermediate	3,0,0,1,2,0,0,0,0	test	ward_and_allport	0,0,0,1,3,0,2,0,0	89.0	18.0	2.04	0,0,0,1,2,3,0,0,0	to_board	s607
209.36	1.402	0	PA_with_intermediate	3,0,0,1,0,0,0,0,0	test	ward_and_allport	0,0,0,1,3,0,2,0,0	71.0	18.0	1.402	0,0,0,1,2,3,0,0,0	to_hand	s607
210.763	0.438	0	PA_with_intermediate	3,0,0,1,0,0,2,0,0	test	ward_and_allport	0,0,0,1,3,0,2,0,0	82.0	18.0	0.438	0,0,0,1,2,3,0,0,0	to_board	s607
211.207	0.411	0	PA_with_intermediate	0,0,0,1,0,0,2,0,0	test	ward_and_allport	0,0,0,1,3,0,2,0,0	89.0	18.0	0.411	0,0,0,1,2,3,0,0,0	to_hand	s607
211.619	0.403	0	PA_with_intermediate	0,0,0,1,3,0,2,0,0	test	ward_and_allport	0,0,0,1,3,0,2,0,0	71.0	18.0	0.403	0,0,0,1,2,3,0,0,0	to_board	s607
212.027	1.0	0	PA_with_intermediate	n/a	test	ward_and_allport	n/a	-1.0	18.0	n/a	n/a	feedback	s607
213.027	1.136	0	PA_with_intermediate	n/a	test	ward_and_allport	n/a	-1.0	18.0	n/a	n/a	ITI	s607
214.169	0.999	1	PA_without_intermediate	0,0,0,0,0,0,1,2,0	test	ward_and_allport	3,2,0,1,0,0,0,0,0	82.0	19.0	0.999	0,0,0,0,0,0,1,2,3	to_hand	s607
215.169	0.523	0	PA_without_intermediate	3,0,0,0,0,0,1,2,0	test	ward_and_allport	3,2,0,1,0,0,0,0,0	89.0	19.0	0.523	0,0,0,0,0,0,1,2,3	to_board	s607
215.696	1.198	0	PA_without_intermediate	3,0,0,0,0,0,1,0,0	test	ward_and_allport	3,2,0,1,0,0,0,0,0	82.0	19.0	1.198	0,0,0,0,0,0,1,2,3	to_hand	s607
216.895	0.677	0	PA_without_intermediate	3,2,0,0,0,0,1,0,0	test	ward_and_allport	3,2,0,1,0,0,0,0,0	89.0	19.0	0.677	0,0,0,0,0,0,1,2,3	to_board	s607
217.575	0.986	0	PA_without_intermediate	3,2,0,0,0,0,0,0,0	test	ward_and_allport	3,2,0,1,0,0,0,0,0	82.0	19.0	0.986	0,0,0,0,0,0,1,2,3	to_hand	s607
218.563	0.445	0	PA_without_intermediate	3,2,0,1,0,0,0,0,0	test	ward_and_allport	3,2,0,1,0,0,0,0,0	71.0	19.0	0.445	0,0,0,0,0,0,1,2,3	to_board	s607
219.015	1.0	0	PA_without_intermediate	n/a	test	ward_and_allport	n/a	-1.0	19.0	n/a	n/a	feedback	s607
220.015	4.128	0	PA_without_intermediate	n/a	test	ward_and_allport	n/a	-1.0	19.0	n/a	n/a	ITI	s607
224.148	2.017	1	PA_without_intermediate	1,2,0,0,0,0,0,0,0	test	ward_and_allport	0,0,0,3,2,0,1,0,0	89.0	20.0	2.017	1,2,3,0,0,0,0,0,0	to_hand	s607
226.166	0.599	0	PA_without_intermediate	1,2,0,3,0,0,0,0,0	test	ward_and_allport	0,0,0,3,2,0,1,0,0	71.0	20.0	0.599	1,2,3,0,0,0,0,0,0	to_board	s607
226.769	0.45	0	PA_without_intermediate	1,0,0,3,0,0,0,0,0	test	ward_and_allport	0,0,0,3,2,0,1,0,0	89.0	20.0	0.45	1,2,3,0,0,0,0,0,0	to_hand	s607
227.22	0.837	0	PA_without_intermediate	1,0,0,3,2,0,0,0,0	test	ward_and_allport	0,0,0,3,2,0,1,0,0	71.0	20.0	0.837	1,2,3,0,0,0,0,0,0	to_board	s607
228.062	0.345	0	PA_without_intermediate	0,0,0,3,2,0,0,0,0	test	ward_and_allport	0,0,0,3,2,0,1,0,0	89.0	20.0	0.345	1,2,3,0,0,0,0,0,0	to_hand	s607
228.408	0.43	0	PA_without_intermediate	0,0,0,3,2,0,1,0,0	test	ward_and_allport	0,0,0,3,2,0,1,0,0	82.0	20.0	0.43	1,2,3,0,0,0,0,0,0	to_board	s607
228.845	1.0	0	PA_without_intermediate	n/a	test	ward_and_allport	n/a	-1.0	20.0	n/a	n/a	feedback	s607
229.845	1.136	0	PA_without_intermediate	n/a	test	ward_and_allport	n/a	-1.0	20.0	n/a	n/a	ITI	s607
230.985	1.619	1	PA_without_intermediate	0,0,0,1,2,0,0,0,0	test	ward_and_allport	3,1,0,0,0,0,2,0,0	71.0	21.0	1.619	0,0,0,1,2,3,0,0,0	to_hand	s607
232.605	0.677	0	PA_without_intermediate	3,0,0,1,2,0,0,0,0	test	ward_and_allport	3,1,0,0,0,0,2,0,0	89.0	21.0	0.677	0,0,0,1,2,3,0,0,0	to_board	s607
233.286	0.732	0	PA_without_intermediate	3,0,0,1,0,0,0,0,0	test	ward_and_allport	3,1,0,0,0,0,2,0,0	71.0	21.0	0.732	0,0,0,1,2,3,0,0,0	to_hand	s607
234.02	0.292	0	PA_without_intermediate	3,0,0,1,0,0,2,0,0	test	ward_and_allport	3,1,0,0,0,0,2,0,0	82.0	21.0	0.292	0,0,0,1,2,3,0,0,0	to_board	s607
234.319	0.543	0	PA_without_intermediate	3,0,0,0,0,0,2,0,0	test	ward_and_allport	3,1,0,0,0,0,2,0,0	71.0	21.0	0.543	0,0,0,1,2,3,0,0,0	to_hand	s607
234.864	0.312	0	PA_without_intermediate	3,1,0,0,0,0,2,0,0	test	ward_and_allport	3,1,0,0,0,0,2,0,0	89.0	21.0	0.312	0,0,0,1,2,3,0,0,0	to_board	s607
235.184	1.0	0	PA_without_intermediate	n/a	test	ward_and_allport	n/a	-1.0	21.0	n/a	n/a	feedback	s607
236.184	4.264	0	PA_without_intermediate	n/a	test	ward_and_allport	n/a	-1.0	21.0	n/a	n/a	ITI	s607
240.455	1.071	1	PA_with_intermediate	1,2,0,0,0,0,0,0,0	test	ward_and_allport	1,3,0,0,0,0,2,0,0	89.0	22.0	1.071	1,2,3,0,0,0,0,0,0	to_hand	s607
241.527	1.8	0	PA_with_intermediate	1,2,0,3,0,0,0,0,0	test	ward_and_allport	1,3,0,0,0,0,2,0,0	71.0	22.0	1.8	1,2,3,0,0,0,0,0,0	to_board	s607
243.333	0.326	0	PA_with_intermediate	1,0,0,3,0,0,0,0,0	test	ward_and_allport	1,3,0,0,0,0,2,0,0	89.0	22.0	0.326	1,2,3,0,0,0,0,0,0	to_hand	s607
243.66	0.4	0	PA_with_intermediate	1,0,0,3,0,0,2,0,0	test	ward_and_allport	1,3,0,0,0,0,2,0,0	82.0	22.0	0.4	1,2,3,0,0,0,0,0,0	to_board	s607
244.066	0.408	0	PA_with_intermediate	0,0,0,3,0,0,2,0,0	test	ward_and_allport	1,3,0,0,0,0,2,0,0	89.0	22.0	0.408	1,2,3,0,0,0,0,0,0	to_hand	s607
244.475	0.723	0	PA_with_intermediate	1,0,0,3,0,0,2,0,0	test	ward_and_allport	1,3,0,0,0,0,2,0,0	89.0	22.0	0.723	1,2,3,0,0,0,0,0,0	to_board	s607
245.204	0.458	0	PA_with_intermediate	1,0,0,0,0,0,2,0,0	test	ward_and_allport	1,3,0,0,0,0,2,0,0	71.0	22.0	0.458	1,2,3,0,0,0,0,0,0	to_hand	s607
245.663	0.258	0	PA_with_intermediate	1,3,0,0,0,0,2,0,0	test	ward_and_allport	1,3,0,0,0,0,2,0,0	89.0	22.0	0.258	1,2,3,0,0,0,0,0,0	to_board	s607
245.929	1.0	0	PA_with_intermediate	n/a	test	ward_and_allport	n/a	-1.0	22.0	n/a	n/a	feedback	s607
246.929	3.04	0	PA_with_intermediate	n/a	test	ward_and_allport	n/a	-1.0	22.0	n/a	n/a	ITI	s607
249.975	1.703	1	PA_with_intermediate	1,2,0,0,0,0,0,0,0	test	ward_and_allport	1,3,0,0,0,0,2,0,0	89.0	23.0	1.703	1,2,3,0,0,0,0,0,0	to_hand	s607
251.679	0.37	0	PA_with_intermediate	1,2,0,3,0,0,0,0,0	test	ward_and_allport	1,3,0,0,0,0,2,0,0	71.0	23.0	0.37	1,2,3,0,0,0,0,0,0	to_board	s607
252.055	0.719	0	PA_with_intermediate	1,0,0,3,0,0,0,0,0	test	ward_and_allport	1,3,0,0,0,0,2,0,0	89.0	23.0	0.719	1,2,3,0,0,0,0,0,0	to_hand	s607
252.775	0.306	0	PA_with_intermediate	1,0,0,3,0,0,2,0,0	test	ward_and_allport	1,3,0,0,0,0,2,0,0	82.0	23.0	0.306	1,2,3,0,0,0,0,0,0	to_board	s607
253.085	1.168	0	PA_with_intermediate	1,0,0,0,0,0,2,0,0	test	ward_and_allport	1,3,0,0,0,0,2,0,0	71.0	23.0	1.168	1,2,3,0,0,0,0,0,0	to_hand	s607
254.255	0.306	0	PA_with_intermediate	1,3,0,0,0,0,2,0,0	test	ward_and_allport	1,3,0,0,0,0,2,0,0	89.0	23.0	0.306	1,2,3,0,0,0,0,0,0	to_board	s607
254.567	1.0	0	PA_with_intermediate	n/a	test	ward_and_allport	n/a	-1.0	23.0	n/a	n/a	feedback	s607
255.567	1.136	0	PA_with_intermediate	n/a	test	ward_and_allport	n/a	-1.0	23.0	n/a	n/a	ITI	s607
256.709	2.428	1	PA_with_intermediate	0,0,0,0,0,0,1,2,0	test	ward_and_allport	0,0,0,2,3,0,1,0,0	82.0	24.0	2.428	0,0,0,0,0,0,1,2,3	to_hand	s607
259.138	0.662	0	PA_with_intermediate	3,0,0,0,0,0,1,2,0	test	ward_and_allport	0,0,0,2,3,0,1,0,0	89.0	24.0	0.662	0,0,0,0,0,0,1,2,3	to_board	s607
259.806	0.466	0	PA_with_intermediate	3,0,0,0,0,0,1,0,0	test	ward_and_allport	0,0,0,2,3,0,1,0,0	82.0	24.0	0.466	0,0,0,0,0,0,1,2,3	to_hand	s607
260.273	0.475	0	PA_with_intermediate	3,0,0,2,0,0,1,0,0	test	ward_and_allport	0,0,0,2,3,0,1,0,0	71.0	24.0	0.475	0,0,0,0,0,0,1,2,3	to_board	s607
260.753	0.434	0	PA_with_intermediate	0,0,0,2,0,0,1,0,0	test	ward_and_allport	0,0,0,2,3,0,1,0,0	89.0	24.0	0.434	0,0,0,0,0,0,1,2,3	to_hand	s607
261.189	0.387	0	PA_with_intermediate	0,0,0,2,3,0,1,0,0	test	ward_and_allport	0,0,0,2,3,0,1,0,0	71.0	24.0	0.387	0,0,0,0,0,0,1,2,3	to_board	s607
261.586	1.0	0	PA_with_intermediate	n/a	test	ward_and_allport	n/a	-1.0	24.0	n/a	n/a	feedback	s607
262.586	1.408	0	PA_with_intermediate	n/a	test	ward_and_allport	n/a	-1.0	24.0	n/a	n/a	ITI	s607
264.0	1.646	1	PA_without_intermediate	0,0,0,0,0,0,1,2,0	test	ward_and_allport	1,0,0,3,2,0,0,0,0	82.0	25.0	1.646	0,0,0,0,0,0,1,2,3	to_hand	s607
265.647	0.737	0	PA_without_intermediate	0,0,0,3,0,0,1,2,0	test	ward_and_allport	1,0,0,3,2,0,0,0,0	71.0	25.0	0.737	0,0,0,0,0,0,1,2,3	to_board	s607
266.39	0.443	0	PA_without_intermediate	0,0,0,3,0,0,1,0,0	test	ward_and_allport	1,0,0,3,2,0,0,0,0	82.0	25.0	0.443	0,0,0,0,0,0,1,2,3	to_hand	s607
266.834	0.344	0	PA_without_intermediate	0,0,0,3,2,0,1,0,0	test	ward_and_allport	1,0,0,3,2,0,0,0,0	71.0	25.0	0.344	0,0,0,0,0,0,1,2,3	to_board	s607
267.184	0.88	0	PA_without_intermediate	0,0,0,3,2,0,0,0,0	test	ward_and_allport	1,0,0,3,2,0,0,0,0	82.0	25.0	0.88	0,0,0,0,0,0,1,2,3	to_hand	s607
268.065	0.286	0	PA_without_intermediate	1,0,0,3,2,0,0,0,0	test	ward_and_allport	1,0,0,3,2,0,0,0,0	89.0	25.0	0.286	0,0,0,0,0,0,1,2,3	to_board	s607
268.359	1.0	0	PA_without_intermediate	n/a	test	ward_and_allport	n/a	-1.0	25.0	n/a	n/a	feedback	s607
269.359	1.68	0	PA_without_intermediate	n/a	test	ward_and_allport	n/a	-1.0	25.0	n/a	n/a	ITI	s607
271.046	1.348	1	PA_with_intermediate	0,0,0,1,2,0,0,0,0	test	ward_and_allport	2,3,0,1,0,0,0,0,0	71.0	26.0	1.348	0,0,0,1,2,3,0,0,0	to_hand	s607
272.395	0.974	0	PA_with_intermediate	0,0,0,1,2,0,3,0,0	test	ward_and_allport	2,3,0,1,0,0,0,0,0	82.0	26.0	0.974	0,0,0,1,2,3,0,0,0	to_board	s607
273.375	0.822	0	PA_with_intermediate	0,0,0,1,0,0,3,0,0	test	ward_and_allport	2,3,0,1,0,0,0,0,0	71.0	26.0	0.822	0,0,0,1,2,3,0,0,0	to_hand	s607
274.197	0.577	0	PA_with_intermediate	2,0,0,1,0,0,3,0,0	test	ward_and_allport	2,3,0,1,0,0,0,0,0	89.0	26.0	0.577	0,0,0,1,2,3,0,0,0	to_board	s607
274.781	0.444	0	PA_with_intermediate	2,0,0,1,0,0,0,0,0	test	ward_and_allport	2,3,0,1,0,0,0,0,0	82.0	26.0	0.444	0,0,0,1,2,3,0,0,0	to_hand	s607
275.226	0.755	0	PA_with_intermediate	2,3,0,1,0,0,0,0,0	test	ward_and_allport	2,3,0,1,0,0,0,0,0	89.0	26.0	0.755	0,0,0,1,2,3,0,0,0	to_board	s607
275.989	1.0	0	PA_with_intermediate	n/a	test	ward_and_allport	n/a	-1.0	26.0	n/a	n/a	feedback	s607
276.989	3.72	0	PA_with_intermediate	n/a	test	ward_and_allport	n/a	-1.0	26.0	n/a	n/a	ITI	s607
280.715	1.335	1	PA_without_intermediate	0,0,0,1,2,0,0,0,0	test	ward_and_allport	2,0,0,0,0,0,3,1,0	71.0	27.0	1.335	0,0,0,1,2,3,0,0,0	to_hand	s607
282.051	0.365	0	PA_without_intermediate	0,0,0,1,2,0,3,0,0	test	ward_and_allport	2,0,0,0,0,0,3,1,0	82.0	27.0	0.365	0,0,0,1,2,3,0,0,0	to_board	s607
282.422	1.132	0	PA_without_intermediate	0,0,0,1,0,0,3,0,0	test	ward_and_allport	2,0,0,0,0,0,3,1,0	71.0	27.0	1.132	0,0,0,1,2,3,0,0,0	to_hand	s607
283.555	0.308	0	PA_without_intermediate	2,0,0,1,0,0,3,0,0	test	ward_and_allport	2,0,0,0,0,0,3,1,0	89.0	27.0	0.308	0,0,0,1,2,3,0,0,0	to_board	s607
283.871	0.471	0	PA_without_intermediate	2,0,0,0,0,0,3,0,0	test	ward_and_allport	2,0,0,0,0,0,3,1,0	71.0	27.0	0.471	0,0,0,1,2,3,0,0,0	to_hand	s607
284.343	0.308	0	PA_without_intermediate	2,0,0,0,0,0,3,1,0	test	ward_and_allport	2,0,0,0,0,0,3,1,0	82.0	27.0	0.308	0,0,0,1,2,3,0,0,0	to_board	s607
284.659	1.0	0	PA_without_intermediate	n/a	test	ward_and_allport	n/a	-1.0	27.0	n/a	n/a	feedback	s607
285.659	2.224	0	PA_without_intermediate	n/a	test	ward_and_allport	n/a	-1.0	27.0	n/a	n/a	ITI	s607
287.891	1.45	1	PA_without_intermediate	0,0,0,0,0,0,1,2,0	test	ward_and_allport	3,2,0,1,0,0,0,0,0	82.0	28.0	1.45	0,0,0,0,0,0,1,2,3	to_hand	s607
289.341	0.436	0	PA_without_intermediate	3,0,0,0,0,0,1,2,0	test	ward_and_allport	3,2,0,1,0,0,0,0,0	89.0	28.0	0.436	0,0,0,0,0,0,1,2,3	to_board	s607
289.785	0.786	0	PA_without_intermediate	3,0,0,0,0,0,1,0,0	test	ward_and_allport	3,2,0,1,0,0,0,0,0	82.0	28.0	0.786	0,0,0,0,0,0,1,2,3	to_hand	s607
290.572	0.39	0	PA_without_intermediate	3,2,0,0,0,0,1,0,0	test	ward_and_allport	3,2,0,1,0,0,0,0,0	89.0	28.0	0.39	0,0,0,0,0,0,1,2,3	to_board	s607
290.968	0.642	0	PA_without_intermediate	3,2,0,0,0,0,0,0,0	test	ward_and_allport	3,2,0,1,0,0,0,0,0	82.0	28.0	0.642	0,0,0,0,0,0,1,2,3	to_hand	s607
291.611	0.424	0	PA_without_intermediate	3,2,0,1,0,0,0,0,0	test	ward_and_allport	3,2,0,1,0,0,0,0,0	71.0	28.0	0.424	0,0,0,0,0,0,1,2,3	to_board	s607
292.047	1.0	0	PA_without_intermediate	n/a	test	ward_and_allport	n/a	-1.0	28.0	n/a	n/a	feedback	s607
293.047	1.272	0	PA_without_intermediate	n/a	test	ward_and_allport	n/a	-1.0	28.0	n/a	n/a	ITI	s607
294.326	1.365	1	PA_with_intermediate	1,2,0,0,0,0,0,0,0	test	ward_and_allport	1,0,0,2,3,0,0,0,0	89.0	29.0	1.365	1,2,3,0,0,0,0,0,0	to_hand	s607
295.691	0.978	0	PA_with_intermediate	1,2,0,0,0,0,3,0,0	test	ward_and_allport	1,0,0,2,3,0,0,0,0	82.0	29.0	0.978	1,2,3,0,0,0,0,0,0	to_board	s607
296.681	0.49	0	PA_with_intermediate	1,0,0,0,0,0,3,0,0	test	ward_and_allport	1,0,0,2,3,0,0,0,0	89.0	29.0	0.49	1,2,3,0,0,0,0,0,0	to_hand	s607
297.172	0.296	0	PA_with_intermediate	1,0,0,2,0,0,3,0,0	test	ward_and_allport	1,0,0,2,3,0,0,0,0	71.0	29.0	0.296	1,2,3,0,0,0,0,0,0	to_board	s607
297.475	0.431	0	PA_with_intermediate	1,0,0,2,0,0,0,0,0	test	ward_and_allport	1,0,0,2,3,0,0,0,0	82.0	29.0	0.431	1,2,3,0,0,0,0,0,0	to_hand	s607
297.907	0.396	0	PA_with_intermediate	1,0,0,2,3,0,0,0,0	test	ward_and_allport	1,0,0,2,3,0,0,0,0	71.0	29.0	0.396	1,2,3,0,0,0,0,0,0	to_board	s607
298.312	1.0	0	PA_with_intermediate	n/a	test	ward_and_allport	n/a	-1.0	29.0	n/a	n/a	feedback	s607
299.312	2.632	0	PA_with_intermediate	n/a	test	ward_and_allport	n/a	-1.0	29.0	n/a	n/a	ITI	s607
306.955	1.624	1	PA_without_intermediate	0,0,0,0,0,0,1,2,0	test	ward_and_allport	3,1,0,2,0,0,0,0,0	82.0	30.0	1.624	0,0,0,0,0,0,1,2,3	to_hand	s607
308.579	0.318	0	PA_without_intermediate	3,0,0,0,0,0,1,2,0	test	ward_and_allport	3,1,0,2,0,0,0,0,0	89.0	30.0	0.318	0,0,0,0,0,0,1,2,3	to_board	s607
308.903	1.2	0	PA_without_intermediate	3,0,0,0,0,0,1,0,0	test	ward_and_allport	3,1,0,2,0,0,0,0,0	82.0	30.0	1.2	0,0,0,0,0,0,1,2,3	to_hand	s607
310.105	0.375	0	PA_without_intermediate	3,0,0,2,0,0,1,0,0	test	ward_and_allport	3,1,0,2,0,0,0,0,0	71.0	30.0	0.375	0,0,0,0,0,0,1,2,3	to_board	s607
310.487	0.497	0	PA_without_intermediate	3,0,0,2,0,0,0,0,0	test	ward_and_allport	3,1,0,2,0,0,0,0,0	82.0	30.0	0.497	0,0,0,0,0,0,1,2,3	to_hand	s607
310.985	0.466	0	PA_without_intermediate	3,1,0,2,0,0,0,0,0	test	ward_and_allport	3,1,0,2,0,0,0,0,0	89.0	30.0	0.466	0,0,0,0,0,0,1,2,3	to_board	s607
311.463	1.0	0	PA_without_intermediate	n/a	test	ward_and_allport	n/a	-1.0	30.0	n/a	n/a	feedback	s607
312.463	1.408	0	PA_without_intermediate	n/a	test	ward_and_allport	n/a	-1.0	30.0	n/a	n/a	ITI	s607
313.88	1.261	1	PA_without_intermediate	0,0,0,1,2,0,0,0,0	test	ward_and_allport	3,1,0,0,0,0,2,0,0	71.0	31.0	1.261	0,0,0,1,2,3,0,0,0	to_hand	s607
315.141	0.32	0	PA_without_intermediate	3,0,0,1,2,0,0,0,0	test	ward_and_allport	3,1,0,0,0,0,2,0,0	89.0	31.0	0.32	0,0,0,1,2,3,0,0,0	to_board	s607
315.472	0.935	0	PA_without_intermediate	3,0,0,1,0,0,0,0,0	test	ward_and_allport	3,1,0,0,0,0,2,0,0	71.0	31.0	0.935	0,0,0,1,2,3,0,0,0	to_hand	s607
316.408	0.244	0	PA_without_intermediate	3,0,0,1,0,0,2,0,0	test	ward_and_allport	3,1,0,0,0,0,2,0,0	82.0	31.0	0.244	0,0,0,1,2,3,0,0,0	to_board	s607
316.66	0.394	0	PA_without_intermediate	3,0,0,0,0,0,2,0,0	test	ward_and_allport	3,1,0,0,0,0,2,0,0	71.0	31.0	0.394	0,0,0,1,2,3,0,0,0	to_hand	s607
317.056	0.267	0	PA_without_intermediate	3,1,0,0,0,0,2,0,0	test	ward_and_allport	3,1,0,0,0,0,2,0,0	89.0	31.0	0.267	0,0,0,1,2,3,0,0,0	to_board	s607
317.332	1.0	0	PA_without_intermediate	n/a	test	ward_and_allport	n/a	-1.0	31.0	n/a	n/a	feedback	s607
318.332	1.0	0	PA_without_intermediate	n/a	test	ward_and_allport	n/a	-1.0	31.0	n/a	n/a	ITI	s607
319.338	1.65	1	PA_with_intermediate	0,0,0,1,2,0,0,0,0	test	ward_and_allport	2,0,0,1,3,0,0,0,0	71.0	32.0	1.65	0,0,0,1,2,3,0,0,0	to_hand	s607
320.988	1.357	0	PA_with_intermediate	0,0,0,1,2,0,3,0,0	test	ward_and_allport	2,0,0,1,3,0,0,0,0	82.0	32.0	1.357	0,0,0,1,2,3,0,0,0	to_board	s607
322.351	0.403	0	PA_with_intermediate	0,0,0,1,0,0,3,0,0	test	ward_and_allport	2,0,0,1,3,0,0,0,0	71.0	32.0	0.403	0,0,0,1,2,3,0,0,0	to_hand	s607
322.754	0.281	0	PA_with_intermediate	2,0,0,1,0,0,3,0,0	test	ward_and_allport	2,0,0,1,3,0,0,0,0	89.0	32.0	0.281	0,0,0,1,2,3,0,0,0	to_board	s607
323.043	0.484	0	PA_with_intermediate	2,0,0,0,0,0,3,0,0	test	ward_and_allport	2,0,0,1,3,0,0,0,0	71.0	32.0	0.484	0,0,0,1,2,3,0,0,0	to_hand	s607
323.528	1.22	0	PA_with_intermediate	2,0,0,1,0,0,3,0,0	test	ward_and_allport	2,0,0,1,3,0,0,0,0	71.0	32.0	1.22	0,0,0,1,2,3,0,0,0	to_board	s607
324.759	0.373	0	PA_with_intermediate	2,0,0,1,0,0,0,0,0	test	ward_and_allport	2,0,0,1,3,0,0,0,0	82.0	32.0	0.373	0,0,0,1,2,3,0,0,0	to_hand	s607
325.134	0.268	0	PA_with_intermediate	2,0,0,1,3,0,0,0,0	test	ward_and_allport	2,0,0,1,3,0,0,0,0	71.0	32.0	0.268	0,0,0,1,2,3,0,0,0	to_board	s607
325.412	1.0	0	PA_with_intermediate	n/a	test	ward_and_allport	n/a	-1.0	32.0	n/a	n/a	feedback	s607
326.412	1.0	0	PA_with_intermediate	n/a	test	ward_and_allport	n/a	-1.0	32.0	n/a	n/a	ITI	s607
327.417	1.748	1	PA_with_intermediate	0,0,0,0,0,0,1,2,0	test	ward_and_allport	2,0,0,0,0,0,1,3,0	82.0	33.0	1.748	0,0,0,0,0,0,1,2,3	to_hand	s607
329.167	0.591	0	PA_with_intermediate	0,0,0,3,0,0,1,2,0	test	ward_and_allport	2,0,0,0,0,0,1,3,0	71.0	33.0	0.591	0,0,0,0,0,0,1,2,3	to_board	s607
329.763	0.479	0	PA_with_intermediate	0,0,0,3,0,0,1,0,0	test	ward_and_allport	2,0,0,0,0,0,1,3,0	82.0	33.0	0.479	0,0,0,0,0,0,1,2,3	to_hand	s607
330.242	0.399	0	PA_with_intermediate	2,0,0,3,0,0,1,0,0	test	ward_and_allport	2,0,0,0,0,0,1,3,0	89.0	33.0	0.399	0,0,0,0,0,0,1,2,3	to_board	s607
330.646	1.493	0	PA_with_intermediate	2,0,0,0,0,0,1,0,0	test	ward_and_allport	2,0,0,0,0,0,1,3,0	71.0	33.0	1.493	0,0,0,0,0,0,1,2,3	to_hand	s607
332.141	0.27	0	PA_with_intermediate	2,0,0,0,0,0,1,3,0	test	ward_and_allport	2,0,0,0,0,0,1,3,0	82.0	33.0	0.27	0,0,0,0,0,0,1,2,3	to_board	s607
332.421	1.0	0	PA_with_intermediate	n/a	test	ward_and_allport	n/a	-1.0	33.0	n/a	n/a	feedback	s607
333.421	1.0	0	PA_with_intermediate	n/a	test	ward_and_allport	n/a	-1.0	33.0	n/a	n/a	ITI	s607
334.43	1.714	1	PA_with_intermediate	0,0,0,0,0,0,1,2,0	test	ward_and_allport	0,0,0,2,0,0,1,3,0	82.0	34.0	1.714	0,0,0,0,0,0,1,2,3	to_hand	s607
336.145	1.249	0	PA_with_intermediate	3,0,0,0,0,0,1,2,0	test	ward_and_allport	0,0,0,2,0,0,1,3,0	89.0	34.0	1.249	0,0,0,0,0,0,1,2,3	to_board	s607
337.402	0.486	0	PA_with_intermediate	3,0,0,0,0,0,1,0,0	test	ward_and_allport	0,0,0,2,0,0,1,3,0	82.0	34.0	0.486	0,0,0,0,0,0,1,2,3	to_hand	s607
337.89	0.402	0	PA_with_intermediate	3,0,0,2,0,0,1,0,0	test	ward_and_allport	0,0,0,2,0,0,1,3,0	71.0	34.0	0.402	0,0,0,0,0,0,1,2,3	to_board	s607
338.298	0.436	0	PA_with_intermediate	0,0,0,2,0,0,1,0,0	test	ward_and_allport	0,0,0,2,0,0,1,3,0	89.0	34.0	0.436	0,0,0,0,0,0,1,2,3	to_hand	s607
338.734	0.403	0	PA_with_intermediate	0,0,0,2,0,0,1,3,0	test	ward_and_allport	0,0,0,2,0,0,1,3,0	82.0	34.0	0.403	0,0,0,0,0,0,1,2,3	to_board	s607
339.143	1.0	0	PA_with_intermediate	n/a	test	ward_and_allport	n/a	-1.0	34.0	n/a	n/a	feedback	s607
340.143	1.408	0	PA_with_intermediate	n/a	test	ward_and_allport	n/a	-1.0	34.0	n/a	n/a	ITI	s607
341.556	2.036	1	PA_without_intermediate	1,2,0,0,0,0,0,0,0	test	ward_and_allport	0,0,0,2,0,0,3,1,0	89.0	35.0	2.036	1,2,3,0,0,0,0,0,0	to_hand	s607
343.594	0.39	0	PA_without_intermediate	1,2,0,0,0,0,3,0,0	test	ward_and_allport	0,0,0,2,0,0,3,1,0	82.0	35.0	0.39	1,2,3,0,0,0,0,0,0	to_board	s607
343.992	0.512	0	PA_without_intermediate	1,0,0,0,0,0,3,0,0	test	ward_and_allport	0,0,0,2,0,0,3,1,0	89.0	35.0	0.512	1,2,3,0,0,0,0,0,0	to_hand	s607
344.505	0.723	0	PA_without_intermediate	1,0,0,2,0,0,3,0,0	test	ward_and_allport	0,0,0,2,0,0,3,1,0	71.0	35.0	0.723	1,2,3,0,0,0,0,0,0	to_board	s607
345.243	0.297	0	PA_without_intermediate	0,0,0,2,0,0,3,0,0	test	ward_and_allport	0,0,0,2,0,0,3,1,0	89.0	35.0	0.297	1,2,3,0,0,0,0,0,0	to_hand	s607
345.541	0.323	0	PA_without_intermediate	0,0,0,2,0,0,3,1,0	test	ward_and_allport	0,0,0,2,0,0,3,1,0	82.0	35.0	0.323	1,2,3,0,0,0,0,0,0	to_board	s607
345.877	1.0	0	PA_without_intermediate	n/a	test	ward_and_allport	n/a	-1.0	35.0	n/a	n/a	feedback	s607
346.877	1.816	0	PA_without_intermediate	n/a	test	ward_and_allport	n/a	-1.0	35.0	n/a	n/a	ITI	s607
348.699	2.432	1	PA_with_intermediate	0,0,0,0,0,0,1,2,0	test	ward_and_allport	0,0,0,2,0,0,1,3,0	82.0	36.0	2.432	0,0,0,0,0,0,1,2,3	to_hand	s607
351.131	0.475	0	PA_with_intermediate	3,0,0,0,0,0,1,2,0	test	ward_and_allport	0,0,0,2,0,0,1,3,0	89.0	36.0	0.475	0,0,0,0,0,0,1,2,3	to_board	s607
351.613	0.708	0	PA_with_intermediate	3,0,0,0,0,0,1,0,0	test	ward_and_allport	0,0,0,2,0,0,1,3,0	82.0	36.0	0.708	0,0,0,0,0,0,1,2,3	to_hand	s607
352.322	0.471	0	PA_with_intermediate	3,0,0,2,0,0,1,0,0	test	ward_and_allport	0,0,0,2,0,0,1,3,0	71.0	36.0	0.471	0,0,0,0,0,0,1,2,3	to_board	s607
352.8	0.65	0	PA_with_intermediate	0,0,0,2,0,0,1,0,0	test	ward_and_allport	0,0,0,2,0,0,1,3,0	89.0	36.0	0.65	0,0,0,0,0,0,1,2,3	to_hand	s607
353.451	0.324	0	PA_with_intermediate	0,0,0,2,0,0,1,3,0	test	ward_and_allport	0,0,0,2,0,0,1,3,0	82.0	36.0	0.324	0,0,0,0,0,0,1,2,3	to_board	s607
353.792	1.0	0	PA_with_intermediate	n/a	test	ward_and_allport	n/a	-1.0	36.0	n/a	n/a	feedback	s607
354.792	3.176	0	PA_with_intermediate	n/a	test	ward_and_allport	n/a	-1.0	36.0	n/a	n/a	ITI	s607
357.978	1.745	1	PA_with_intermediate	0,0,0,0,0,0,1,2,0	test	ward_and_allport	0,0,0,2,3,0,1,0,0	82.0	37.0	1.745	0,0,0,0,0,0,1,2,3	to_hand	s607
359.724	0.369	0	PA_with_intermediate	3,0,0,0,0,0,1,2,0	test	ward_and_allport	0,0,0,2,3,0,1,0,0	89.0	37.0	0.369	0,0,0,0,0,0,1,2,3	to_board	s607
360.101	0.486	0	PA_with_intermediate	3,0,0,0,0,0,1,0,0	test	ward_and_allport	0,0,0,2,3,0,1,0,0	82.0	37.0	0.486	0,0,0,0,0,0,1,2,3	to_hand	s607
360.589	0.407	0	PA_with_intermediate	3,0,0,2,0,0,1,0,0	test	ward_and_allport	0,0,0,2,3,0,1,0,0	71.0	37.0	0.407	0,0,0,0,0,0,1,2,3	to_board	s607
361.005	0.349	0	PA_with_intermediate	0,0,0,2,0,0,1,0,0	test	ward_and_allport	0,0,0,2,3,0,1,0,0	89.0	37.0	0.349	0,0,0,0,0,0,1,2,3	to_hand	s607
361.355	0.328	0	PA_with_intermediate	0,0,0,2,0,0,1,3,0	test	ward_and_allport	0,0,0,2,3,0,1,0,0	82.0	37.0	0.328	0,0,0,0,0,0,1,2,3	to_board	s607
361.689	1.155	0	PA_with_intermediate	0,0,0,0,0,0,1,3,0	test	ward_and_allport	0,0,0,2,3,0,1,0,0	71.0	37.0	1.155	0,0,0,0,0,0,1,2,3	to_hand	s607
362.846	0.851	0	PA_with_intermediate	0,0,0,2,0,0,1,3,0	test	ward_and_allport	0,0,0,2,3,0,1,0,0	71.0	37.0	0.851	0,0,0,0,0,0,1,2,3	to_board	s607
363.703	0.639	0	PA_with_intermediate	0,0,0,2,0,0,1,0,0	test	ward_and_allport	0,0,0,2,3,0,1,0,0	82.0	37.0	0.639	0,0,0,0,0,0,1,2,3	to_hand	s607
364.343	0.404	0	PA_with_intermediate	0,0,0,2,3,0,1,0,0	test	ward_and_allport	0,0,0,2,3,0,1,0,0	71.0	37.0	0.404	0,0,0,0,0,0,1,2,3	to_board	s607
364.757	1.0	0	PA_with_intermediate	n/a	test	ward_and_allport	n/a	-1.0	37.0	n/a	n/a	feedback	s607
365.757	2.36	0	PA_with_intermediate	n/a	test	ward_and_allport	n/a	-1.0	37.0	n/a	n/a	ITI	s607
368.123	1.447	1	PA_with_intermediate	1,2,0,0,0,0,0,0,0	test	ward_and_allport	1,0,0,0,0,0,2,3,0	89.0	38.0	1.447	1,2,3,0,0,0,0,0,0	to_hand	s607
369.571	0.579	0	PA_with_intermediate	1,2,0,3,0,0,0,0,0	test	ward_and_allport	1,0,0,0,0,0,2,3,0	71.0	38.0	0.579	1,2,3,0,0,0,0,0,0	to_board	s607
370.158	0.406	0	PA_with_intermediate	1,0,0,3,0,0,0,0,0	test	ward_and_allport	1,0,0,0,0,0,2,3,0	89.0	38.0	0.406	1,2,3,0,0,0,0,0,0	to_hand	s607
370.565	0.269	0	PA_with_intermediate	1,0,0,3,0,0,2,0,0	test	ward_and_allport	1,0,0,0,0,0,2,3,0	82.0	38.0	0.269	1,2,3,0,0,0,0,0,0	to_board	s607
370.845	0.485	0	PA_with_intermediate	1,0,0,0,0,0,2,0,0	test	ward_and_allport	1,0,0,0,0,0,2,3,0	71.0	38.0	0.485	1,2,3,0,0,0,0,0,0	to_hand	s607
371.332	0.39	0	PA_with_intermediate	1,0,0,0,0,0,2,3,0	test	ward_and_allport	1,0,0,0,0,0,2,3,0	82.0	38.0	0.39	1,2,3,0,0,0,0,0,0	to_board	s607
371.732	1.0	0	PA_with_intermediate	n/a	test	ward_and_allport	n/a	-1.0	38.0	n/a	n/a	feedback	s607
372.732	1.0	0	PA_with_intermediate	n/a	test	ward_and_allport	n/a	-1.0	38.0	n/a	n/a	ITI	s607
373.738	3.687	1	PA_without_intermediate	1,2,0,0,0,0,0,0,0	test	ward_and_allport	0,0,0,3,1,0,2,0,0	89.0	39.0	3.687	1,2,3,0,0,0,0,0,0	to_hand	s607
377.427	0.435	0	PA_without_intermediate	1,2,0,3,0,0,0,0,0	test	ward_and_allport	0,0,0,3,1,0,2,0,0	71.0	39.0	0.435	1,2,3,0,0,0,0,0,0	to_board	s607
377.87	0.54	0	PA_without_intermediate	1,0,0,3,0,0,0,0,0	test	ward_and_allport	0,0,0,3,1,0,2,0,0	89.0	39.0	0.54	1,2,3,0,0,0,0,0,0	to_hand	s607
378.411	0.698	0	PA_without_intermediate	1,0,0,3,0,0,2,0,0	test	ward_and_allport	0,0,0,3,1,0,2,0,0	82.0	39.0	0.698	1,2,3,0,0,0,0,0,0	to_board	s607
379.118	0.495	0	PA_without_intermediate	0,0,0,3,0,0,2,0,0	test	ward_and_allport	0,0,0,3,1,0,2,0,0	89.0	39.0	0.495	1,2,3,0,0,0,0,0,0	to_hand	s607
379.615	0.335	0	PA_without_intermediate	0,0,0,3,1,0,2,0,0	test	ward_and_allport	0,0,0,3,1,0,2,0,0	71.0	39.0	0.335	1,2,3,0,0,0,0,0,0	to_board	s607
379.963	1.0	0	PA_without_intermediate	n/a	test	ward_and_allport	n/a	-1.0	39.0	n/a	n/a	feedback	s607
380.963	1.408	0	PA_without_intermediate	n/a	test	ward_and_allport	n/a	-1.0	39.0	n/a	n/a	ITI	s607
382.381	1.786	1	PA_with_intermediate	0,0,0,0,0,0,1,2,0	test	ward_and_allport	2,0,0,0,0,0,1,3,0	82.0	40.0	1.786	0,0,0,0,0,0,1,2,3	to_hand	s607
384.168	0.418	0	PA_with_intermediate	0,0,0,3,0,0,1,2,0	test	ward_and_allport	2,0,0,0,0,0,1,3,0	71.0	40.0	0.418	0,0,0,0,0,0,1,2,3	to_board	s607
384.594	0.529	0	PA_with_intermediate	0,0,0,3,0,0,1,0,0	test	ward_and_allport	2,0,0,0,0,0,1,3,0	82.0	40.0	0.529	0,0,0,0,0,0,1,2,3	to_hand	s607
385.124	0.362	0	PA_with_intermediate	2,0,0,3,0,0,1,0,0	test	ward_and_allport	2,0,0,0,0,0,1,3,0	89.0	40.0	0.362	0,0,0,0,0,0,1,2,3	to_board	s607
385.492	0.668	0	PA_with_intermediate	2,0,0,0,0,0,1,0,0	test	ward_and_allport	2,0,0,0,0,0,1,3,0	71.0	40.0	0.668	0,0,0,0,0,0,1,2,3	to_hand	s607
386.161	0.46	0	PA_with_intermediate	2,0,0,0,0,0,1,3,0	test	ward_and_allport	2,0,0,0,0,0,1,3,0	82.0	40.0	0.46	0,0,0,0,0,0,1,2,3	to_board	s607
386.629	1.0	0	PA_with_intermediate	n/a	test	ward_and_allport	n/a	-1.0	40.0	n/a	n/a	feedback	s607
387.629	1.816	0	PA_with_intermediate	n/a	test	ward_and_allport	n/a	-1.0	40.0	n/a	n/a	ITI	s607
389.451	1.656	1	PA_without_intermediate	0,0,0,0,0,0,1,2,0	test	ward_and_allport	2,0,0,3,1,0,0,0,0	82.0	41.0	1.656	0,0,0,0,0,0,1,2,3	to_hand	s607
391.108	0.356	0	PA_without_intermediate	0,0,0,3,0,0,1,2,0	test	ward_and_allport	2,0,0,3,1,0,0,0,0	71.0	41.0	0.356	0,0,0,0,0,0,1,2,3	to_board	s607
391.47	0.618	0	PA_without_intermediate	0,0,0,3,0,0,1,0,0	test	ward_and_allport	2,0,0,3,1,0,0,0,0	82.0	41.0	0.618	0,0,0,0,0,0,1,2,3	to_hand	s607
392.089	0.618	0	PA_without_intermediate	2,0,0,3,0,0,1,0,0	test	ward_and_allport	2,0,0,3,1,0,0,0,0	89.0	41.0	0.618	0,0,0,0,0,0,1,2,3	to_board	s607
392.715	0.459	0	PA_without_intermediate	2,0,0,3,0,0,0,0,0	test	ward_and_allport	2,0,0,3,1,0,0,0,0	82.0	41.0	0.459	0,0,0,0,0,0,1,2,3	to_hand	s607
393.176	0.295	0	PA_without_intermediate	2,0,0,3,1,0,0,0,0	test	ward_and_allport	2,0,0,3,1,0,0,0,0	71.0	41.0	0.295	0,0,0,0,0,0,1,2,3	to_board	s607
393.482	1.0	0	PA_without_intermediate	n/a	test	ward_and_allport	n/a	-1.0	41.0	n/a	n/a	feedback	s607
394.482	2.088	0	PA_without_intermediate	n/a	test	ward_and_allport	n/a	-1.0	41.0	n/a	n/a	ITI	s607
396.578	1.227	1	PA_without_intermediate	0,0,0,0,0,0,1,2,0	test	ward_and_allport	1,0,0,3,2,0,0,0,0	82.0	42.0	1.227	0,0,0,0,0,0,1,2,3	to_hand	s607
397.806	0.286	0	PA_without_intermediate	0,0,0,3,0,0,1,2,0	test	ward_and_allport	1,0,0,3,2,0,0,0,0	71.0	42.0	0.286	0,0,0,0,0,0,1,2,3	to_board	s607
398.098	0.673	0	PA_without_intermediate	0,0,0,3,0,0,1,0,0	test	ward_and_allport	1,0,0,3,2,0,0,0,0	82.0	42.0	0.673	0,0,0,0,0,0,1,2,3	to_hand	s607
398.772	0.369	0	PA_without_intermediate	0,0,0,3,2,0,1,0,0	test	ward_and_allport	1,0,0,3,2,0,0,0,0	71.0	42.0	0.369	0,0,0,0,0,0,1,2,3	to_board	s607
399.148	0.461	0	PA_without_intermediate	0,0,0,3,2,0,0,0,0	test	ward_and_allport	1,0,0,3,2,0,0,0,0	82.0	42.0	0.461	0,0,0,0,0,0,1,2,3	to_hand	s607
399.609	0.451	0	PA_without_intermediate	1,0,0,3,2,0,0,0,0	test	ward_and_allport	1,0,0,3,2,0,0,0,0	89.0	42.0	0.451	0,0,0,0,0,0,1,2,3	to_board	s607
400.071	1.0	0	PA_without_intermediate	n/a	test	ward_and_allport	n/a	-1.0	42.0	n/a	n/a	feedback	s607
401.071	1.136	0	PA_without_intermediate	n/a	test	ward_and_allport	n/a	-1.0	42.0	n/a	n/a	ITI	s607
402.216	1.184	1	PA_without_intermediate	1,2,0,0,0,0,0,0,0	test	ward_and_allport	0,0,0,3,2,0,1,0,0	89.0	43.0	1.184	1,2,3,0,0,0,0,0,0	to_hand	s607
403.401	0.225	0	PA_without_intermediate	1,2,0,3,0,0,0,0,0	test	ward_and_allport	0,0,0,3,2,0,1,0,0	71.0	43.0	0.225	1,2,3,0,0,0,0,0,0	to_board	s607
403.631	0.516	0	PA_without_intermediate	1,0,0,3,0,0,0,0,0	test	ward_and_allport	0,0,0,3,2,0,1,0,0	89.0	43.0	0.516	1,2,3,0,0,0,0,0,0	to_hand	s607
404.149	0.413	0	PA_without_intermediate	1,0,0,3,2,0,0,0,0	test	ward_and_allport	0,0,0,3,2,0,1,0,0	71.0	43.0	0.413	1,2,3,0,0,0,0,0,0	to_board	s607
404.571	0.353	0	PA_without_intermediate	0,0,0,3,2,0,0,0,0	test	ward_and_allport	0,0,0,3,2,0,1,0,0	89.0	43.0	0.353	1,2,3,0,0,0,0,0,0	to_hand	s607
404.925	0.309	0	PA_without_intermediate	0,0,0,3,2,0,1,0,0	test	ward_and_allport	0,0,0,3,2,0,1,0,0	82.0	43.0	0.309	1,2,3,0,0,0,0,0,0	to_board	s607
405.242	1.0	0	PA_without_intermediate	n/a	test	ward_and_allport	n/a	-1.0	43.0	n/a	n/a	feedback	s607
406.242	6.168	0	PA_without_intermediate	n/a	test	ward_and_allport	n/a	-1.0	43.0	n/a	n/a	ITI	s607
412.418	1.319	1	PA_without_intermediate	0,0,0,1,2,0,0,0,0	test	ward_and_allport	3,2,0,0,0,0,1,0,0	71.0	44.0	1.319	0,0,0,1,2,3,0,0,0	to_hand	s607
413.737	0.477	0	PA_without_intermediate	3,0,0,1,2,0,0,0,0	test	ward_and_allport	3,2,0,0,0,0,1,0,0	89.0	44.0	0.477	0,0,0,1,2,3,0,0,0	to_board	s607
414.224	0.353	0	PA_without_intermediate	3,0,0,1,0,0,0,0,0	test	ward_and_allport	3,2,0,0,0,0,1,0,0	71.0	44.0	0.353	0,0,0,1,2,3,0,0,0	to_hand	s607
414.578	0.314	0	PA_without_intermediate	3,2,0,1,0,0,0,0,0	test	ward_and_allport	3,2,0,0,0,0,1,0,0	89.0	44.0	0.314	0,0,0,1,2,3,0,0,0	to_board	s607
414.902	0.446	0	PA_without_intermediate	3,2,0,0,0,0,0,0,0	test	ward_and_allport	3,2,0,0,0,0,1,0,0	71.0	44.0	0.446	0,0,0,1,2,3,0,0,0	to_hand	s607
415.349	0.37	0	PA_without_intermediate	3,2,0,0,0,0,1,0,0	test	ward_and_allport	3,2,0,0,0,0,1,0,0	82.0	44.0	0.37	0,0,0,1,2,3,0,0,0	to_board	s607
415.733	1.0	0	PA_without_intermediate	n/a	test	ward_and_allport	n/a	-1.0	44.0	n/a	n/a	feedback	s607
416.733	1.816	0	PA_without_intermediate	n/a	test	ward_and_allport	n/a	-1.0	44.0	n/a	n/a	ITI	s607
423.561	0.999	1	PA_with_intermediate	1,2,0,0,0,0,0,0,0	test	ward_and_allport	1,0,0,0,0,0,2,3,0	89.0	45.0	0.999	1,2,3,0,0,0,0,0,0	to_hand	s607
424.56	0.546	0	PA_with_intermediate	1,2,0,3,0,0,0,0,0	test	ward_and_allport	1,0,0,0,0,0,2,3,0	71.0	45.0	0.546	1,2,3,0,0,0,0,0,0	to_board	s607
425.123	0.578	0	PA_with_intermediate	1,0,0,3,0,0,0,0,0	test	ward_and_allport	1,0,0,0,0,0,2,3,0	89.0	45.0	0.578	1,2,3,0,0,0,0,0,0	to_hand	s607
425.702	0.329	0	PA_with_intermediate	1,0,0,3,0,0,2,0,0	test	ward_and_allport	1,0,0,0,0,0,2,3,0	82.0	45.0	0.329	1,2,3,0,0,0,0,0,0	to_board	s607
426.042	0.439	0	PA_with_intermediate	1,0,0,0,0,0,2,0,0	test	ward_and_allport	1,0,0,0,0,0,2,3,0	71.0	45.0	0.439	1,2,3,0,0,0,0,0,0	to_hand	s607
426.483	0.503	0	PA_with_intermediate	1,0,0,0,0,0,2,3,0	test	ward_and_allport	1,0,0,0,0,0,2,3,0	82.0	45.0	0.503	1,2,3,0,0,0,0,0,0	to_board	s607
426.999	1.0	0	PA_with_intermediate	n/a	test	ward_and_allport	n/a	-1.0	45.0	n/a	n/a	feedback	s607
427.999	1.952	0	PA_with_intermediate	n/a	test	ward_and_allport	n/a	-1.0	45.0	n/a	n/a	ITI	s607
429.959	1.44	1	PA_with_intermediate	0,0,0,1,2,0,0,0,0	test	ward_and_allport	2,3,0,1,0,0,0,0,0	71.0	46.0	1.44	0,0,0,1,2,3,0,0,0	to_hand	s607
431.401	0.76	0	PA_with_intermediate	0,0,0,1,2,0,3,0,0	test	ward_and_allport	2,3,0,1,0,0,0,0,0	82.0	46.0	0.76	0,0,0,1,2,3,0,0,0	to_board	s607
432.171	0.353	0	PA_with_intermediate	0,0,0,1,0,0,3,0,0	test	ward_and_allport	2,3,0,1,0,0,0,0,0	71.0	46.0	0.353	0,0,0,1,2,3,0,0,0	to_hand	s607
432.525	0.413	0	PA_with_intermediate	2,0,0,1,0,0,3,0,0	test	ward_and_allport	2,3,0,1,0,0,0,0,0	89.0	46.0	0.413	0,0,0,1,2,3,0,0,0	to_board	s607
432.948	0.775	0	PA_with_intermediate	2,0,0,1,0,0,0,0,0	test	ward_and_allport	2,3,0,1,0,0,0,0,0	82.0	46.0	0.775	0,0,0,1,2,3,0,0,0	to_hand	s607
433.724	0.399	0	PA_with_intermediate	2,3,0,1,0,0,0,0,0	test	ward_and_allport	2,3,0,1,0,0,0,0,0	89.0	46.0	0.399	0,0,0,1,2,3,0,0,0	to_board	s607
434.135	1.0	0	PA_with_intermediate	n/a	test	ward_and_allport	n/a	-1.0	46.0	n/a	n/a	feedback	s607
435.135	1.136	0	PA_with_intermediate	n/a	test	ward_and_allport	n/a	-1.0	46.0	n/a	n/a	ITI	s607
436.279	3.439	1	PA_without_intermediate	1,2,0,0,0,0,0,0,0	test	ward_and_allport	0,0,0,1,0,0,3,2,0	89.0	47.0	3.439	1,2,3,0,0,0,0,0,0	to_hand	s607
439.719	2.119	0	PA_without_intermediate	1,2,0,0,0,0,3,0,0	test	ward_and_allport	0,0,0,1,0,0,3,2,0	82.0	47.0	2.119	1,2,3,0,0,0,0,0,0	to_board	s607
441.846	0.772	0	PA_without_intermediate	1,0,0,0,0,0,3,0,0	test	ward_and_allport	0,0,0,1,0,0,3,2,0	89.0	47.0	0.772	1,2,3,0,0,0,0,0,0	to_hand	s607
442.619	0.751	0	PA_without_intermediate	1,0,0,0,0,0,3,2,0	test	ward_and_allport	0,0,0,1,0,0,3,2,0	82.0	47.0	0.751	1,2,3,0,0,0,0,0,0	to_board	s607
443.378	0.695	0	PA_without_intermediate	0,0,0,0,0,0,3,2,0	test	ward_and_allport	0,0,0,1,0,0,3,2,0	89.0	47.0	0.695	1,2,3,0,0,0,0,0,0	to_hand	s607
444.075	0.353	0	PA_without_intermediate	0,0,0,1,0,0,3,2,0	test	ward_and_allport	0,0,0,1,0,0,3,2,0	71.0	47.0	0.353	1,2,3,0,0,0,0,0,0	to_board	s607
444.439	1.0	0	PA_without_intermediate	n/a	test	ward_and_allport	n/a	-1.0	47.0	n/a	n/a	feedback	s607
445.439	1.68	0	PA_without_intermediate	n/a	test	ward_and_allport	n/a	-1.0	47.0	n/a	n/a	ITI	s607
n/a	n/a	0	n/a	n/a	n/a	n/a	n/a	n/a	n/a	n/a	n/a	ITI	n/a
