onset	duration	planning	condition	current_position	exp_stage	experiment_exp_id	goal_state	key_press	problem_id	response_time	start_state	trial_id	worker_id
-54.271	0.0	0	n/a	n/a	n/a	ward_and_allport	n/a	32.0	n/a	7.732	n/a	instructions	s483
3.009	6.433	1	UA_with_intermediate	1,0,0,2,0,0,0,0,0	practice	ward_and_allport	1,2,3,0,0,0,0,0,0	71.0	0.0	6.433	1,0,0,2,3,0,0,0,0	to_hand	s483
9.443	1.023	0	UA_with_intermediate	1,0,0,2,0,0,3,0,0	practice	ward_and_allport	1,2,3,0,0,0,0,0,0	82.0	0.0	1.023	1,0,0,2,3,0,0,0,0	to_board	s483
10.468	1.715	0	UA_with_intermediate	1,0,0,0,0,0,3,0,0	practice	ward_and_allport	1,2,3,0,0,0,0,0,0	71.0	0.0	1.715	1,0,0,2,3,0,0,0,0	to_hand	s483
12.184	0.72	0	UA_with_intermediate	1,2,0,0,0,0,3,0,0	practice	ward_and_allport	1,2,3,0,0,0,0,0,0	89.0	0.0	0.72	1,0,0,2,3,0,0,0,0	to_board	s483
12.905	0.891	0	UA_with_intermediate	1,2,0,0,0,0,0,0,0	practice	ward_and_allport	1,2,3,0,0,0,0,0,0	82.0	0.0	0.891	1,0,0,2,3,0,0,0,0	to_hand	s483
13.798	0.404	0	UA_with_intermediate	1,2,3,0,0,0,0,0,0	practice	ward_and_allport	1,2,3,0,0,0,0,0,0	89.0	0.0	0.404	1,0,0,2,3,0,0,0,0	to_board	s483
14.205	1.0	0	UA_with_intermediate	n/a	practice	ward_and_allport	n/a	-1.0	0.0	n/a	n/a	feedback	s483
16.708	4.326	1	UA_with_intermediate	1,0,0,3,0,0,0,0,0	practice	ward_and_allport	1,3,2,0,0,0,0,0,0	89.0	1.0	4.326	1,2,0,3,0,0,0,0,0	to_hand	s483
21.035	1.92	0	UA_with_intermediate	1,0,0,3,0,0,2,0,0	practice	ward_and_allport	1,3,2,0,0,0,0,0,0	82.0	1.0	1.92	1,2,0,3,0,0,0,0,0	to_board	s483
22.957	0.894	0	UA_with_intermediate	1,0,0,0,0,0,2,0,0	practice	ward_and_allport	1,3,2,0,0,0,0,0,0	71.0	1.0	0.894	1,2,0,3,0,0,0,0,0	to_hand	s483
23.852	0.284	0	UA_with_intermediate	1,3,0,0,0,0,2,0,0	practice	ward_and_allport	1,3,2,0,0,0,0,0,0	89.0	1.0	0.284	1,2,0,3,0,0,0,0,0	to_board	s483
24.138	1.154	0	UA_with_intermediate	1,3,0,0,0,0,0,0,0	practice	ward_and_allport	1,3,2,0,0,0,0,0,0	82.0	1.0	1.154	1,2,0,3,0,0,0,0,0	to_hand	s483
25.293	0.221	0	UA_with_intermediate	1,3,2,0,0,0,0,0,0	practice	ward_and_allport	1,3,2,0,0,0,0,0,0	89.0	1.0	0.221	1,2,0,3,0,0,0,0,0	to_board	s483
25.517	1.0	0	UA_with_intermediate	n/a	practice	ward_and_allport	n/a	-1.0	1.0	n/a	n/a	feedback	s483
26.517	1.1	0	UA_with_intermediate	n/a	practice	ward_and_allport	n/a	-1.0	1.0	n/a	n/a	ITI	s483
27.618	2.856	1	UA_without_intermediate	0,0,0,1,2,0,0,0,0	practice	ward_and_allport	3,2,1,0,0,0,0,0,0	82.0	2.0	2.856	0,0,0,1,2,0,3,0,0	to_hand	s483
30.475	0.323	0	UA_without_intermediate	3,0,0,1,2,0,0,0,0	practice	ward_and_allport	3,2,1,0,0,0,0,0,0	89.0	2.0	0.323	0,0,0,1,2,0,3,0,0	to_board	s483
30.801	2.131	0	UA_without_intermediate	3,0,0,1,0,0,0,0,0	practice	ward_and_allport	3,2,1,0,0,0,0,0,0	71.0	2.0	2.131	0,0,0,1,2,0,3,0,0	to_hand	s483
32.932	0.934	0	UA_without_intermediate	3,2,0,1,0,0,0,0,0	practice	ward_and_allport	3,2,1,0,0,0,0,0,0	89.0	2.0	0.934	0,0,0,1,2,0,3,0,0	to_board	s483
33.868	0.493	0	UA_without_intermediate	3,2,0,0,0,0,0,0,0	practice	ward_and_allport	3,2,1,0,0,0,0,0,0	71.0	2.0	0.493	0,0,0,1,2,0,3,0,0	to_hand	s483
34.362	0.19	0	UA_without_intermediate	3,2,1,0,0,0,0,0,0	practice	ward_and_allport	3,2,1,0,0,0,0,0,0	89.0	2.0	0.19	0,0,0,1,2,0,3,0,0	to_board	s483
34.555	1.0	0	UA_without_intermediate	n/a	practice	ward_and_allport	n/a	-1.0	2.0	n/a	n/a	feedback	s483
35.555	1.2	0	UA_without_intermediate	n/a	practice	ward_and_allport	n/a	-1.0	2.0	n/a	n/a	ITI	s483
36.757	2.404	1	UA_without_intermediate	0,0,0,1,0,0,3,0,0	practice	ward_and_allport	2,3,1,0,0,0,0,0,0	71.0	3.0	2.404	0,0,0,1,2,0,3,0,0	to_hand	s483
39.162	0.206	0	UA_without_intermediate	2,0,0,1,0,0,3,0,0	practice	ward_and_allport	2,3,1,0,0,0,0,0,0	89.0	3.0	0.206	0,0,0,1,2,0,3,0,0	to_board	s483
39.369	1.622	0	UA_without_intermediate	2,0,0,1,0,0,0,0,0	practice	ward_and_allport	2,3,1,0,0,0,0,0,0	82.0	3.0	1.622	0,0,0,1,2,0,3,0,0	to_hand	s483
40.993	0.206	0	UA_without_intermediate	2,3,0,1,0,0,0,0,0	practice	ward_and_allport	2,3,1,0,0,0,0,0,0	89.0	3.0	0.206	0,0,0,1,2,0,3,0,0	to_board	s483
41.201	1.091	0	UA_without_intermediate	2,3,0,0,0,0,0,0,0	practice	ward_and_allport	2,3,1,0,0,0,0,0,0	71.0	3.0	1.091	0,0,0,1,2,0,3,0,0	to_hand	s483
42.293	0.111	0	UA_without_intermediate	2,3,1,0,0,0,0,0,0	practice	ward_and_allport	2,3,1,0,0,0,0,0,0	89.0	3.0	0.111	0,0,0,1,2,0,3,0,0	to_board	s483
42.407	1.0	0	UA_without_intermediate	n/a	practice	ward_and_allport	n/a	-1.0	3.0	n/a	n/a	feedback	s483
43.407	1.0	0	UA_without_intermediate	n/a	practice	ward_and_allport	n/a	-1.0	3.0	n/a	n/a	ITI	s483
46.414	3.836	1	PA_without_intermediate	0,0,0,1,2,0,0,0,0	test	ward_and_allport	2,0,0,0,0,0,3,1,0	71.0	0.0	3.836	0,0,0,1,2,3,0,0,0	to_hand	s483
50.251	0.871	0	PA_without_intermediate	0,0,0,1,2,0,3,0,0	test	ward_and_allport	2,0,0,0,0,0,3,1,0	82.0	0.0	0.871	0,0,0,1,2,3,0,0,0	to_board	s483
51.124	0.727	0	PA_without_intermediate	0,0,0,1,0,0,3,0,0	test	ward_and_allport	2,0,0,0,0,0,3,1,0	71.0	0.0	0.727	0,0,0,1,2,3,0,0,0	to_hand	s483
51.852	0.201	0	PA_without_intermediate	2,0,0,1,0,0,3,0,0	test	ward_and_allport	2,0,0,0,0,0,3,1,0	89.0	0.0	0.201	0,0,0,1,2,3,0,0,0	to_board	s483
52.055	0.676	0	PA_without_intermediate	2,0,0,0,0,0,3,0,0	test	ward_and_allport	2,0,0,0,0,0,3,1,0	71.0	0.0	0.676	0,0,0,1,2,3,0,0,0	to_hand	s483
52.731	0.219	0	PA_without_intermediate	2,0,0,0,0,0,3,1,0	test	ward_and_allport	2,0,0,0,0,0,3,1,0	82.0	0.0	0.219	0,0,0,1,2,3,0,0,0	to_board	s483
52.953	1.0	0	PA_without_intermediate	n/a	test	ward_and_allport	n/a	-1.0	0.0	n/a	n/a	feedback	s483
53.953	2.088	0	PA_without_intermediate	n/a	test	ward_and_allport	n/a	-1.0	0.0	n/a	n/a	ITI	s483
56.043	3.944	1	PA_with_intermediate	1,2,0,0,0,0,0,0,0	test	ward_and_allport	1,0,0,0,0,0,2,3,0	89.0	1.0	3.944	1,2,3,0,0,0,0,0,0	to_hand	s483
59.987	0.244	0	PA_with_intermediate	1,2,0,3,0,0,0,0,0	test	ward_and_allport	1,0,0,0,0,0,2,3,0	71.0	1.0	0.244	1,2,3,0,0,0,0,0,0	to_board	s483
60.234	1.283	0	PA_with_intermediate	1,0,0,3,0,0,0,0,0	test	ward_and_allport	1,0,0,0,0,0,2,3,0	89.0	1.0	1.283	1,2,3,0,0,0,0,0,0	to_hand	s483
61.518	0.398	0	PA_with_intermediate	1,0,0,3,0,0,2,0,0	test	ward_and_allport	1,0,0,0,0,0,2,3,0	82.0	1.0	0.398	1,2,3,0,0,0,0,0,0	to_board	s483
61.919	0.97	0	PA_with_intermediate	1,0,0,0,0,0,2,0,0	test	ward_and_allport	1,0,0,0,0,0,2,3,0	71.0	1.0	0.97	1,2,3,0,0,0,0,0,0	to_hand	s483
62.89	0.219	0	PA_with_intermediate	1,0,0,0,0,0,2,3,0	test	ward_and_allport	1,0,0,0,0,0,2,3,0	82.0	1.0	0.219	1,2,3,0,0,0,0,0,0	to_board	s483
63.112	1.0	0	PA_with_intermediate	n/a	test	ward_and_allport	n/a	-1.0	1.0	n/a	n/a	feedback	s483
64.112	1.0	0	PA_with_intermediate	n/a	test	ward_and_allport	n/a	-1.0	1.0	n/a	n/a	ITI	s483
65.114	1.87	1	PA_without_intermediate	1,2,0,0,0,0,0,0,0	test	ward_and_allport	0,0,0,2,0,0,3,1,0	89.0	2.0	1.87	1,2,3,0,0,0,0,0,0	to_hand	s483
66.986	0.373	0	PA_without_intermediate	1,2,0,0,0,0,3,0,0	test	ward_and_allport	0,0,0,2,0,0,3,1,0	82.0	2.0	0.373	1,2,3,0,0,0,0,0,0	to_board	s483
67.362	1.149	0	PA_without_intermediate	1,0,0,0,0,0,3,0,0	test	ward_and_allport	0,0,0,2,0,0,3,1,0	89.0	2.0	1.149	1,2,3,0,0,0,0,0,0	to_hand	s483
68.513	0.182	0	PA_without_intermediate	1,0,0,2,0,0,3,0,0	test	ward_and_allport	0,0,0,2,0,0,3,1,0	71.0	2.0	0.182	1,2,3,0,0,0,0,0,0	to_board	s483
68.697	0.38	0	PA_without_intermediate	0,0,0,2,0,0,3,0,0	test	ward_and_allport	0,0,0,2,0,0,3,1,0	89.0	2.0	0.38	1,2,3,0,0,0,0,0,0	to_hand	s483
69.077	0.144	0	PA_without_intermediate	0,0,0,2,0,0,3,1,0	test	ward_and_allport	0,0,0,2,0,0,3,1,0	82.0	2.0	0.144	1,2,3,0,0,0,0,0,0	to_board	s483
69.225	1.0	0	PA_without_intermediate	n/a	test	ward_and_allport	n/a	-1.0	2.0	n/a	n/a	feedback	s483
70.225	1.0	0	PA_without_intermediate	n/a	test	ward_and_allport	n/a	-1.0	2.0	n/a	n/a	ITI	s483
71.228	3.693	1	PA_without_intermediate	0,0,0,0,0,0,1,2,0	test	ward_and_allport	1,0,0,3,2,0,0,0,0	82.0	3.0	3.693	0,0,0,0,0,0,1,2,3	to_hand	s483
74.922	0.172	0	PA_without_intermediate	0,0,0,3,0,0,1,2,0	test	ward_and_allport	1,0,0,3,2,0,0,0,0	71.0	3.0	0.172	0,0,0,0,0,0,1,2,3	to_board	s483
75.096	1.241	0	PA_without_intermediate	0,0,0,3,0,0,1,0,0	test	ward_and_allport	1,0,0,3,2,0,0,0,0	82.0	3.0	1.241	0,0,0,0,0,0,1,2,3	to_hand	s483
76.338	0.242	0	PA_without_intermediate	0,0,0,3,2,0,1,0,0	test	ward_and_allport	1,0,0,3,2,0,0,0,0	71.0	3.0	0.242	0,0,0,0,0,0,1,2,3	to_board	s483
76.583	1.137	0	PA_without_intermediate	0,0,0,3,2,0,0,0,0	test	ward_and_allport	1,0,0,3,2,0,0,0,0	82.0	3.0	1.137	0,0,0,0,0,0,1,2,3	to_hand	s483
77.721	0.215	0	PA_without_intermediate	1,0,0,3,2,0,0,0,0	test	ward_and_allport	1,0,0,3,2,0,0,0,0	89.0	3.0	0.215	0,0,0,0,0,0,1,2,3	to_board	s483
77.94	1.0	0	PA_without_intermediate	n/a	test	ward_and_allport	n/a	-1.0	3.0	n/a	n/a	feedback	s483
78.94	1.0	0	PA_without_intermediate	n/a	test	ward_and_allport	n/a	-1.0	3.0	n/a	n/a	ITI	s483
79.942	1.774	1	PA_with_intermediate	0,0,0,1,2,0,0,0,0	test	ward_and_allport	2,3,0,1,0,0,0,0,0	71.0	4.0	1.774	0,0,0,1,2,3,0,0,0	to_hand	s483
81.718	0.155	0	PA_with_intermediate	3,0,0,1,2,0,0,0,0	test	ward_and_allport	2,3,0,1,0,0,0,0,0	89.0	4.0	0.155	0,0,0,1,2,3,0,0,0	to_board	s483
81.875	3.057	0	PA_with_intermediate	0,0,0,1,2,0,0,0,0	test	ward_and_allport	2,3,0,1,0,0,0,0,0	89.0	4.0	3.057	0,0,0,1,2,3,0,0,0	to_hand	s483
84.934	0.257	0	PA_with_intermediate	0,0,0,1,2,0,3,0,0	test	ward_and_allport	2,3,0,1,0,0,0,0,0	82.0	4.0	0.257	0,0,0,1,2,3,0,0,0	to_board	s483
85.194	1.09	0	PA_with_intermediate	0,0,0,1,0,0,3,0,0	test	ward_and_allport	2,3,0,1,0,0,0,0,0	71.0	4.0	1.09	0,0,0,1,2,3,0,0,0	to_hand	s483
86.285	0.173	0	PA_with_intermediate	2,0,0,1,0,0,3,0,0	test	ward_and_allport	2,3,0,1,0,0,0,0,0	89.0	4.0	0.173	0,0,0,1,2,3,0,0,0	to_board	s483
86.46	2.166	0	PA_with_intermediate	2,0,0,1,0,0,0,0,0	test	ward_and_allport	2,3,0,1,0,0,0,0,0	82.0	4.0	2.166	0,0,0,1,2,3,0,0,0	to_hand	s483
88.627	0.227	0	PA_with_intermediate	2,3,0,1,0,0,0,0,0	test	ward_and_allport	2,3,0,1,0,0,0,0,0	89.0	4.0	0.227	0,0,0,1,2,3,0,0,0	to_board	s483
88.857	1.0	0	PA_with_intermediate	n/a	test	ward_and_allport	n/a	-1.0	4.0	n/a	n/a	feedback	s483
89.857	1.544	0	PA_with_intermediate	n/a	test	ward_and_allport	n/a	-1.0	4.0	n/a	n/a	ITI	s483
91.403	2.349	1	PA_without_intermediate	0,0,0,1,2,0,0,0,0	test	ward_and_allport	1,0,0,0,0,0,3,2,0	71.0	5.0	2.349	0,0,0,1,2,3,0,0,0	to_hand	s483
93.754	0.145	0	PA_without_intermediate	0,0,0,1,2,0,3,0,0	test	ward_and_allport	1,0,0,0,0,0,3,2,0	82.0	5.0	0.145	0,0,0,1,2,3,0,0,0	to_board	s483
93.901	0.975	0	PA_without_intermediate	0,0,0,1,0,0,3,0,0	test	ward_and_allport	1,0,0,0,0,0,3,2,0	71.0	5.0	0.975	0,0,0,1,2,3,0,0,0	to_hand	s483
94.877	0.225	0	PA_without_intermediate	0,0,0,1,0,0,3,2,0	test	ward_and_allport	1,0,0,0,0,0,3,2,0	82.0	5.0	0.225	0,0,0,1,2,3,0,0,0	to_board	s483
95.106	0.276	0	PA_without_intermediate	0,0,0,0,0,0,3,2,0	test	ward_and_allport	1,0,0,0,0,0,3,2,0	71.0	5.0	0.276	0,0,0,1,2,3,0,0,0	to_hand	s483
95.382	0.2	0	PA_without_intermediate	1,0,0,0,0,0,3,2,0	test	ward_and_allport	1,0,0,0,0,0,3,2,0	89.0	5.0	0.2	0,0,0,1,2,3,0,0,0	to_board	s483
95.586	1.0	0	PA_without_intermediate	n/a	test	ward_and_allport	n/a	-1.0	5.0	n/a	n/a	feedback	s483
96.586	1.272	0	PA_without_intermediate	n/a	test	ward_and_allport	n/a	-1.0	5.0	n/a	n/a	ITI	s483
97.862	3.854	1	PA_with_intermediate	1,2,0,0,0,0,0,0,0	test	ward_and_allport	1,3,0,0,0,0,2,0,0	89.0	6.0	3.854	1,2,3,0,0,0,0,0,0	to_hand	s483
101.717	0.298	0	PA_with_intermediate	1,2,0,3,0,0,0,0,0	test	ward_and_allport	1,3,0,0,0,0,2,0,0	71.0	6.0	0.298	1,2,3,0,0,0,0,0,0	to_board	s483
102.018	0.33	0	PA_with_intermediate	1,0,0,3,0,0,0,0,0	test	ward_and_allport	1,3,0,0,0,0,2,0,0	89.0	6.0	0.33	1,2,3,0,0,0,0,0,0	to_hand	s483
102.349	0.668	0	PA_with_intermediate	1,0,0,3,0,0,2,0,0	test	ward_and_allport	1,3,0,0,0,0,2,0,0	82.0	6.0	0.668	1,2,3,0,0,0,0,0,0	to_board	s483
103.021	0.806	0	PA_with_intermediate	1,0,0,0,0,0,2,0,0	test	ward_and_allport	1,3,0,0,0,0,2,0,0	71.0	6.0	0.806	1,2,3,0,0,0,0,0,0	to_hand	s483
103.827	0.161	0	PA_with_intermediate	1,3,0,0,0,0,2,0,0	test	ward_and_allport	1,3,0,0,0,0,2,0,0	89.0	6.0	0.161	1,2,3,0,0,0,0,0,0	to_board	s483
103.992	1.0	0	PA_with_intermediate	n/a	test	ward_and_allport	n/a	-1.0	6.0	n/a	n/a	feedback	s483
104.992	3.04	0	PA_with_intermediate	n/a	test	ward_and_allport	n/a	-1.0	6.0	n/a	n/a	ITI	s483
108.036	3.055	1	PA_with_intermediate	0,0,0,0,0,0,1,2,0	test	ward_and_allport	2,0,0,0,0,0,1,3,0	82.0	7.0	3.055	0,0,0,0,0,0,1,2,3	to_hand	s483
111.092	0.986	0	PA_with_intermediate	0,0,0,3,0,0,1,2,0	test	ward_and_allport	2,0,0,0,0,0,1,3,0	71.0	7.0	0.986	0,0,0,0,0,0,1,2,3	to_board	s483
112.081	0.373	0	PA_with_intermediate	0,0,0,3,0,0,1,0,0	test	ward_and_allport	2,0,0,0,0,0,1,3,0	82.0	7.0	0.373	0,0,0,0,0,0,1,2,3	to_hand	s483
112.456	0.343	0	PA_with_intermediate	2,0,0,3,0,0,1,0,0	test	ward_and_allport	2,0,0,0,0,0,1,3,0	89.0	7.0	0.343	0,0,0,0,0,0,1,2,3	to_board	s483
112.803	0.889	0	PA_with_intermediate	2,0,0,0,0,0,1,0,0	test	ward_and_allport	2,0,0,0,0,0,1,3,0	71.0	7.0	0.889	0,0,0,0,0,0,1,2,3	to_hand	s483
113.692	0.127	0	PA_with_intermediate	2,0,0,0,0,0,1,3,0	test	ward_and_allport	2,0,0,0,0,0,1,3,0	82.0	7.0	0.127	0,0,0,0,0,0,1,2,3	to_board	s483
113.824	1.0	0	PA_with_intermediate	n/a	test	ward_and_allport	n/a	-1.0	7.0	n/a	n/a	feedback	s483
114.824	1.272	0	PA_with_intermediate	n/a	test	ward_and_allport	n/a	-1.0	7.0	n/a	n/a	ITI	s483
116.1	2.746	1	PA_with_intermediate	0,0,0,1,2,0,0,0,0	test	ward_and_allport	2,0,0,1,3,0,0,0,0	71.0	8.0	2.746	0,0,0,1,2,3,0,0,0	to_hand	s483
118.848	0.284	0	PA_with_intermediate	0,0,0,1,2,0,3,0,0	test	ward_and_allport	2,0,0,1,3,0,0,0,0	82.0	8.0	0.284	0,0,0,1,2,3,0,0,0	to_board	s483
119.134	0.633	0	PA_with_intermediate	0,0,0,1,0,0,3,0,0	test	ward_and_allport	2,0,0,1,3,0,0,0,0	71.0	8.0	0.633	0,0,0,1,2,3,0,0,0	to_hand	s483
119.768	0.175	0	PA_with_intermediate	2,0,0,1,0,0,3,0,0	test	ward_and_allport	2,0,0,1,3,0,0,0,0	89.0	8.0	0.175	0,0,0,1,2,3,0,0,0	to_board	s483
119.947	1.585	0	PA_with_intermediate	2,0,0,1,0,0,0,0,0	test	ward_and_allport	2,0,0,1,3,0,0,0,0	82.0	8.0	1.585	0,0,0,1,2,3,0,0,0	to_hand	s483
121.533	0.026	0	PA_with_intermediate	2,0,0,1,3,0,0,0,0	test	ward_and_allport	2,0,0,1,3,0,0,0,0	71.0	8.0	0.026	0,0,0,1,2,3,0,0,0	to_board	s483
121.564	1.0	0	PA_with_intermediate	n/a	test	ward_and_allport	n/a	-1.0	8.0	n/a	n/a	feedback	s483
122.564	1.136	0	PA_with_intermediate	n/a	test	ward_and_allport	n/a	-1.0	8.0	n/a	n/a	ITI	s483
123.703	4.475	1	PA_with_intermediate	0,0,0,0,0,0,1,2,0	test	ward_and_allport	0,0,0,2,3,0,1,0,0	82.0	9.0	4.475	0,0,0,0,0,0,1,2,3	to_hand	s483
128.18	0.222	0	PA_with_intermediate	3,0,0,0,0,0,1,2,0	test	ward_and_allport	0,0,0,2,3,0,1,0,0	89.0	9.0	0.222	0,0,0,0,0,0,1,2,3	to_board	s483
128.404	0.346	0	PA_with_intermediate	3,0,0,0,0,0,1,0,0	test	ward_and_allport	0,0,0,2,3,0,1,0,0	82.0	9.0	0.346	0,0,0,0,0,0,1,2,3	to_hand	s483
128.752	0.307	0	PA_with_intermediate	3,0,0,2,0,0,1,0,0	test	ward_and_allport	0,0,0,2,3,0,1,0,0	71.0	9.0	0.307	0,0,0,0,0,0,1,2,3	to_board	s483
129.062	0.518	0	PA_with_intermediate	0,0,0,2,0,0,1,0,0	test	ward_and_allport	0,0,0,2,3,0,1,0,0	89.0	9.0	0.518	0,0,0,0,0,0,1,2,3	to_hand	s483
129.58	0.19	0	PA_with_intermediate	0,0,0,2,3,0,1,0,0	test	ward_and_allport	0,0,0,2,3,0,1,0,0	71.0	9.0	0.19	0,0,0,0,0,0,1,2,3	to_board	s483
129.775	1.0	0	PA_with_intermediate	n/a	test	ward_and_allport	n/a	-1.0	9.0	n/a	n/a	feedback	s483
130.775	1.0	0	PA_with_intermediate	n/a	test	ward_and_allport	n/a	-1.0	9.0	n/a	n/a	ITI	s483
131.779	3.048	1	PA_with_intermediate	0,0,0,1,2,0,0,0,0	test	ward_and_allport	2,0,0,1,3,0,0,0,0	71.0	10.0	3.048	0,0,0,1,2,3,0,0,0	to_hand	s483
134.829	0.145	0	PA_with_intermediate	0,0,0,1,2,0,3,0,0	test	ward_and_allport	2,0,0,1,3,0,0,0,0	82.0	10.0	0.145	0,0,0,1,2,3,0,0,0	to_board	s483
134.979	0.896	0	PA_with_intermediate	0,0,0,1,0,0,3,0,0	test	ward_and_allport	2,0,0,1,3,0,0,0,0	71.0	10.0	0.896	0,0,0,1,2,3,0,0,0	to_hand	s483
135.875	0.073	0	PA_with_intermediate	2,0,0,1,0,0,3,0,0	test	ward_and_allport	2,0,0,1,3,0,0,0,0	89.0	10.0	0.073	0,0,0,1,2,3,0,0,0	to_board	s483
135.952	0.736	0	PA_with_intermediate	2,0,0,0,0,0,3,0,0	test	ward_and_allport	2,0,0,1,3,0,0,0,0	71.0	10.0	0.736	0,0,0,1,2,3,0,0,0	to_hand	s483
136.689	1.187	0	PA_with_intermediate	2,0,0,1,0,0,3,0,0	test	ward_and_allport	2,0,0,1,3,0,0,0,0	71.0	10.0	1.187	0,0,0,1,2,3,0,0,0	to_board	s483
137.881	0.784	0	PA_with_intermediate	2,0,0,1,0,0,0,0,0	test	ward_and_allport	2,0,0,1,3,0,0,0,0	82.0	10.0	0.784	0,0,0,1,2,3,0,0,0	to_hand	s483
138.666	0.192	0	PA_with_intermediate	2,0,0,1,3,0,0,0,0	test	ward_and_allport	2,0,0,1,3,0,0,0,0	71.0	10.0	0.192	0,0,0,1,2,3,0,0,0	to_board	s483
138.865	1.0	0	PA_with_intermediate	n/a	test	ward_and_allport	n/a	-1.0	10.0	n/a	n/a	feedback	s483
139.865	1.0	0	PA_with_intermediate	n/a	test	ward_and_allport	n/a	-1.0	10.0	n/a	n/a	ITI	s483
140.868	1.806	1	PA_without_intermediate	0,0,0,1,2,0,0,0,0	test	ward_and_allport	2,0,0,0,0,0,3,1,0	71.0	11.0	1.806	0,0,0,1,2,3,0,0,0	to_hand	s483
142.675	0.273	0	PA_without_intermediate	0,0,0,1,2,0,3,0,0	test	ward_and_allport	2,0,0,0,0,0,3,1,0	82.0	11.0	0.273	0,0,0,1,2,3,0,0,0	to_board	s483
142.953	0.849	0	PA_without_intermediate	0,0,0,1,0,0,3,0,0	test	ward_and_allport	2,0,0,0,0,0,3,1,0	71.0	11.0	0.849	0,0,0,1,2,3,0,0,0	to_hand	s483
143.802	0.147	0	PA_without_intermediate	2,0,0,1,0,0,3,0,0	test	ward_and_allport	2,0,0,0,0,0,3,1,0	89.0	11.0	0.147	0,0,0,1,2,3,0,0,0	to_board	s483
143.954	0.199	0	PA_without_intermediate	2,0,0,0,0,0,3,0,0	test	ward_and_allport	2,0,0,0,0,0,3,1,0	71.0	11.0	0.199	0,0,0,1,2,3,0,0,0	to_hand	s483
144.154	0.149	0	PA_without_intermediate	2,0,0,0,0,0,3,1,0	test	ward_and_allport	2,0,0,0,0,0,3,1,0	82.0	11.0	0.149	0,0,0,1,2,3,0,0,0	to_board	s483
144.308	1.0	0	PA_without_intermediate	n/a	test	ward_and_allport	n/a	-1.0	11.0	n/a	n/a	feedback	s483
145.308	1.408	0	PA_without_intermediate	n/a	test	ward_and_allport	n/a	-1.0	11.0	n/a	n/a	ITI	s483
146.72	2.75	1	PA_with_intermediate	0,0,0,1,2,0,0,0,0	test	ward_and_allport	2,3,0,1,0,0,0,0,0	71.0	12.0	2.75	0,0,0,1,2,3,0,0,0	to_hand	s483
149.471	0.248	0	PA_with_intermediate	0,0,0,1,2,0,3,0,0	test	ward_and_allport	2,3,0,1,0,0,0,0,0	82.0	12.0	0.248	0,0,0,1,2,3,0,0,0	to_board	s483
149.722	0.611	0	PA_with_intermediate	0,0,0,1,0,0,3,0,0	test	ward_and_allport	2,3,0,1,0,0,0,0,0	71.0	12.0	0.611	0,0,0,1,2,3,0,0,0	to_hand	s483
150.334	0.168	0	PA_with_intermediate	2,0,0,1,0,0,3,0,0	test	ward_and_allport	2,3,0,1,0,0,0,0,0	89.0	12.0	0.168	0,0,0,1,2,3,0,0,0	to_board	s483
150.506	0.435	0	PA_with_intermediate	2,0,0,1,0,0,0,0,0	test	ward_and_allport	2,3,0,1,0,0,0,0,0	82.0	12.0	0.435	0,0,0,1,2,3,0,0,0	to_hand	s483
150.943	0.221	0	PA_with_intermediate	2,3,0,1,0,0,0,0,0	test	ward_and_allport	2,3,0,1,0,0,0,0,0	89.0	12.0	0.221	0,0,0,1,2,3,0,0,0	to_board	s483
151.17	1.0	0	PA_with_intermediate	n/a	test	ward_and_allport	n/a	-1.0	12.0	n/a	n/a	feedback	s483
152.17	2.768	0	PA_with_intermediate	n/a	test	ward_and_allport	n/a	-1.0	12.0	n/a	n/a	ITI	s483
154.942	2.303	1	PA_with_intermediate	0,0,0,0,0,0,1,2,0	test	ward_and_allport	2,0,0,0,0,0,1,3,0	82.0	13.0	2.303	0,0,0,0,0,0,1,2,3	to_hand	s483
157.247	0.884	0	PA_with_intermediate	0,0,0,3,0,0,1,2,0	test	ward_and_allport	2,0,0,0,0,0,1,3,0	71.0	13.0	0.884	0,0,0,0,0,0,1,2,3	to_board	s483
158.135	0.679	0	PA_with_intermediate	0,0,0,3,0,0,1,0,0	test	ward_and_allport	2,0,0,0,0,0,1,3,0	82.0	13.0	0.679	0,0,0,0,0,0,1,2,3	to_hand	s483
158.814	0.168	0	PA_with_intermediate	2,0,0,3,0,0,1,0,0	test	ward_and_allport	2,0,0,0,0,0,1,3,0	89.0	13.0	0.168	0,0,0,0,0,0,1,2,3	to_board	s483
158.987	0.868	0	PA_with_intermediate	2,0,0,0,0,0,1,0,0	test	ward_and_allport	2,0,0,0,0,0,1,3,0	71.0	13.0	0.868	0,0,0,0,0,0,1,2,3	to_hand	s483
159.856	0.154	0	PA_with_intermediate	2,0,0,0,0,0,1,3,0	test	ward_and_allport	2,0,0,0,0,0,1,3,0	82.0	13.0	0.154	0,0,0,0,0,0,1,2,3	to_board	s483
160.015	1.0	0	PA_with_intermediate	n/a	test	ward_and_allport	n/a	-1.0	13.0	n/a	n/a	feedback	s483
161.015	1.68	0	PA_with_intermediate	n/a	test	ward_and_allport	n/a	-1.0	13.0	n/a	n/a	ITI	s483
162.699	1.514	1	PA_without_intermediate	0,0,0,0,0,0,1,2,0	test	ward_and_allport	3,1,0,2,0,0,0,0,0	82.0	14.0	1.514	0,0,0,0,0,0,1,2,3	to_hand	s483
164.213	0.348	0	PA_without_intermediate	3,0,0,0,0,0,1,2,0	test	ward_and_allport	3,1,0,2,0,0,0,0,0	89.0	14.0	0.348	0,0,0,0,0,0,1,2,3	to_board	s483
164.565	1.104	0	PA_without_intermediate	3,0,0,0,0,0,1,0,0	test	ward_and_allport	3,1,0,2,0,0,0,0,0	82.0	14.0	1.104	0,0,0,0,0,0,1,2,3	to_hand	s483
165.669	0.225	0	PA_without_intermediate	3,0,0,2,0,0,1,0,0	test	ward_and_allport	3,1,0,2,0,0,0,0,0	71.0	14.0	0.225	0,0,0,0,0,0,1,2,3	to_board	s483
165.899	0.316	0	PA_without_intermediate	3,0,0,2,0,0,0,0,0	test	ward_and_allport	3,1,0,2,0,0,0,0,0	82.0	14.0	0.316	0,0,0,0,0,0,1,2,3	to_hand	s483
166.215	0.266	0	PA_without_intermediate	3,1,0,2,0,0,0,0,0	test	ward_and_allport	3,1,0,2,0,0,0,0,0	89.0	14.0	0.266	0,0,0,0,0,0,1,2,3	to_board	s483
166.487	1.0	0	PA_without_intermediate	n/a	test	ward_and_allport	n/a	-1.0	14.0	n/a	n/a	feedback	s483
167.487	2.224	0	PA_without_intermediate	n/a	test	ward_and_allport	n/a	-1.0	14.0	n/a	n/a	ITI	s483
174.717	2.306	1	PA_without_intermediate	0,0,0,0,0,0,1,2,0	test	ward_and_allport	3,2,0,1,0,0,0,0,0	82.0	15.0	2.306	0,0,0,0,0,0,1,2,3	to_hand	s483
177.024	0.176	0	PA_without_intermediate	3,0,0,0,0,0,1,2,0	test	ward_and_allport	3,2,0,1,0,0,0,0,0	89.0	15.0	0.176	0,0,0,0,0,0,1,2,3	to_board	s483
177.204	0.241	0	PA_without_intermediate	3,0,0,0,0,0,1,0,0	test	ward_and_allport	3,2,0,1,0,0,0,0,0	82.0	15.0	0.241	0,0,0,0,0,0,1,2,3	to_hand	s483
177.446	0.494	0	PA_without_intermediate	3,2,0,0,0,0,1,0,0	test	ward_and_allport	3,2,0,1,0,0,0,0,0	89.0	15.0	0.494	0,0,0,0,0,0,1,2,3	to_board	s483
177.945	0.236	0	PA_without_intermediate	3,2,0,0,0,0,0,0,0	test	ward_and_allport	3,2,0,1,0,0,0,0,0	82.0	15.0	0.236	0,0,0,0,0,0,1,2,3	to_hand	s483
178.182	0.152	0	PA_without_intermediate	3,2,0,1,0,0,0,0,0	test	ward_and_allport	3,2,0,1,0,0,0,0,0	71.0	15.0	0.152	0,0,0,0,0,0,1,2,3	to_board	s483
178.339	1.0	0	PA_without_intermediate	n/a	test	ward_and_allport	n/a	-1.0	15.0	n/a	n/a	feedback	s483
179.339	2.36	0	PA_without_intermediate	n/a	test	ward_and_allport	n/a	-1.0	15.0	n/a	n/a	ITI	s483
181.703	1.42	1	PA_without_intermediate	0,0,0,0,0,0,1,2,0	test	ward_and_allport	3,2,0,1,0,0,0,0,0	82.0	16.0	1.42	0,0,0,0,0,0,1,2,3	to_hand	s483
183.125	0.164	0	PA_without_intermediate	3,0,0,0,0,0,1,2,0	test	ward_and_allport	3,2,0,1,0,0,0,0,0	89.0	16.0	0.164	0,0,0,0,0,0,1,2,3	to_board	s483
183.293	0.203	0	PA_without_intermediate	3,0,0,0,0,0,1,0,0	test	ward_and_allport	3,2,0,1,0,0,0,0,0	82.0	16.0	0.203	0,0,0,0,0,0,1,2,3	to_hand	s483
183.497	0.203	0	PA_without_intermediate	3,2,0,0,0,0,1,0,0	test	ward_and_allport	3,2,0,1,0,0,0,0,0	89.0	16.0	0.203	0,0,0,0,0,0,1,2,3	to_board	s483
183.704	0.3	0	PA_without_intermediate	3,2,0,0,0,0,0,0,0	test	ward_and_allport	3,2,0,1,0,0,0,0,0	82.0	16.0	0.3	0,0,0,0,0,0,1,2,3	to_hand	s483
184.006	0.181	0	PA_without_intermediate	3,2,0,1,0,0,0,0,0	test	ward_and_allport	3,2,0,1,0,0,0,0,0	71.0	16.0	0.181	0,0,0,0,0,0,1,2,3	to_board	s483
184.192	1.0	0	PA_without_intermediate	n/a	test	ward_and_allport	n/a	-1.0	16.0	n/a	n/a	feedback	s483
185.192	1.0	0	PA_without_intermediate	n/a	test	ward_and_allport	n/a	-1.0	16.0	n/a	n/a	ITI	s483
186.199	1.798	1	PA_without_intermediate	0,0,0,1,2,0,0,0,0	test	ward_and_allport	3,2,0,0,0,0,1,0,0	71.0	17.0	1.798	0,0,0,1,2,3,0,0,0	to_hand	s483
187.998	0.162	0	PA_without_intermediate	3,0,0,1,2,0,0,0,0	test	ward_and_allport	3,2,0,0,0,0,1,0,0	89.0	17.0	0.162	0,0,0,1,2,3,0,0,0	to_board	s483
188.165	0.503	0	PA_without_intermediate	3,0,0,1,0,0,0,0,0	test	ward_and_allport	3,2,0,0,0,0,1,0,0	71.0	17.0	0.503	0,0,0,1,2,3,0,0,0	to_hand	s483
188.669	0.216	0	PA_without_intermediate	3,2,0,1,0,0,0,0,0	test	ward_and_allport	3,2,0,0,0,0,1,0,0	89.0	17.0	0.216	0,0,0,1,2,3,0,0,0	to_board	s483
188.89	0.198	0	PA_without_intermediate	3,2,0,0,0,0,0,0,0	test	ward_and_allport	3,2,0,0,0,0,1,0,0	71.0	17.0	0.198	0,0,0,1,2,3,0,0,0	to_hand	s483
189.089	0.199	0	PA_without_intermediate	3,2,0,0,0,0,1,0,0	test	ward_and_allport	3,2,0,0,0,0,1,0,0	82.0	17.0	0.199	0,0,0,1,2,3,0,0,0	to_board	s483
189.294	1.0	0	PA_without_intermediate	n/a	test	ward_and_allport	n/a	-1.0	17.0	n/a	n/a	feedback	s483
190.294	1.408	0	PA_without_intermediate	n/a	test	ward_and_allport	n/a	-1.0	17.0	n/a	n/a	ITI	s483
191.707	3.768	1	PA_with_intermediate	1,2,0,0,0,0,0,0,0	test	ward_and_allport	1,3,0,2,0,0,0,0,0	89.0	18.0	3.768	1,2,3,0,0,0,0,0,0	to_hand	s483
195.477	0.161	0	PA_with_intermediate	1,2,0,0,0,0,3,0,0	test	ward_and_allport	1,3,0,2,0,0,0,0,0	82.0	18.0	0.161	1,2,3,0,0,0,0,0,0	to_board	s483
195.642	0.941	0	PA_with_intermediate	1,0,0,0,0,0,3,0,0	test	ward_and_allport	1,3,0,2,0,0,0,0,0	89.0	18.0	0.941	1,2,3,0,0,0,0,0,0	to_hand	s483
196.584	0.628	0	PA_with_intermediate	1,0,0,2,0,0,3,0,0	test	ward_and_allport	1,3,0,2,0,0,0,0,0	71.0	18.0	0.628	1,2,3,0,0,0,0,0,0	to_board	s483
197.217	0.349	0	PA_with_intermediate	1,0,0,2,0,0,0,0,0	test	ward_and_allport	1,3,0,2,0,0,0,0,0	82.0	18.0	0.349	1,2,3,0,0,0,0,0,0	to_hand	s483
197.567	0.245	0	PA_with_intermediate	1,3,0,2,0,0,0,0,0	test	ward_and_allport	1,3,0,2,0,0,0,0,0	89.0	18.0	0.245	1,2,3,0,0,0,0,0,0	to_board	s483
197.819	1.0	0	PA_with_intermediate	n/a	test	ward_and_allport	n/a	-1.0	18.0	n/a	n/a	feedback	s483
198.819	1.136	0	PA_with_intermediate	n/a	test	ward_and_allport	n/a	-1.0	18.0	n/a	n/a	ITI	s483
199.959	1.655	1	PA_without_intermediate	0,0,0,1,2,0,0,0,0	test	ward_and_allport	3,1,0,0,0,0,2,0,0	71.0	19.0	1.655	0,0,0,1,2,3,0,0,0	to_hand	s483
201.615	0.269	0	PA_without_intermediate	3,0,0,1,2,0,0,0,0	test	ward_and_allport	3,1,0,0,0,0,2,0,0	89.0	19.0	0.269	0,0,0,1,2,3,0,0,0	to_board	s483
201.889	0.324	0	PA_without_intermediate	3,0,0,1,0,0,0,0,0	test	ward_and_allport	3,1,0,0,0,0,2,0,0	71.0	19.0	0.324	0,0,0,1,2,3,0,0,0	to_hand	s483
202.214	0.316	0	PA_without_intermediate	3,0,0,1,0,0,2,0,0	test	ward_and_allport	3,1,0,0,0,0,2,0,0	82.0	19.0	0.316	0,0,0,1,2,3,0,0,0	to_board	s483
202.536	0.361	0	PA_without_intermediate	3,0,0,0,0,0,2,0,0	test	ward_and_allport	3,1,0,0,0,0,2,0,0	71.0	19.0	0.361	0,0,0,1,2,3,0,0,0	to_hand	s483
202.898	0.206	0	PA_without_intermediate	3,1,0,0,0,0,2,0,0	test	ward_and_allport	3,1,0,0,0,0,2,0,0	89.0	19.0	0.206	0,0,0,1,2,3,0,0,0	to_board	s483
203.11	1.0	0	PA_without_intermediate	n/a	test	ward_and_allport	n/a	-1.0	19.0	n/a	n/a	feedback	s483
204.11	4.128	0	PA_without_intermediate	n/a	test	ward_and_allport	n/a	-1.0	19.0	n/a	n/a	ITI	s483
208.242	1.636	1	PA_without_intermediate	0,0,0,0,0,0,1,2,0	test	ward_and_allport	3,1,0,2,0,0,0,0,0	82.0	20.0	1.636	0,0,0,0,0,0,1,2,3	to_hand	s483
209.88	0.253	0	PA_without_intermediate	3,0,0,0,0,0,1,2,0	test	ward_and_allport	3,1,0,2,0,0,0,0,0	89.0	20.0	0.253	0,0,0,0,0,0,1,2,3	to_board	s483
210.137	0.473	0	PA_without_intermediate	3,0,0,0,0,0,1,0,0	test	ward_and_allport	3,1,0,2,0,0,0,0,0	82.0	20.0	0.473	0,0,0,0,0,0,1,2,3	to_hand	s483
210.612	0.253	0	PA_without_intermediate	3,0,0,2,0,0,1,0,0	test	ward_and_allport	3,1,0,2,0,0,0,0,0	71.0	20.0	0.253	0,0,0,0,0,0,1,2,3	to_board	s483
210.874	0.261	0	PA_without_intermediate	3,0,0,2,0,0,0,0,0	test	ward_and_allport	3,1,0,2,0,0,0,0,0	82.0	20.0	0.261	0,0,0,0,0,0,1,2,3	to_hand	s483
211.136	0.132	0	PA_without_intermediate	3,1,0,2,0,0,0,0,0	test	ward_and_allport	3,1,0,2,0,0,0,0,0	89.0	20.0	0.132	0,0,0,0,0,0,1,2,3	to_board	s483
211.275	1.0	0	PA_without_intermediate	n/a	test	ward_and_allport	n/a	-1.0	20.0	n/a	n/a	feedback	s483
212.275	1.136	0	PA_without_intermediate	n/a	test	ward_and_allport	n/a	-1.0	20.0	n/a	n/a	ITI	s483
213.417	1.908	1	PA_without_intermediate	1,2,0,0,0,0,0,0,0	test	ward_and_allport	0,0,0,1,0,0,3,2,0	89.0	21.0	1.908	1,2,3,0,0,0,0,0,0	to_hand	s483
215.326	0.279	0	PA_without_intermediate	1,2,0,0,0,0,3,0,0	test	ward_and_allport	0,0,0,1,0,0,3,2,0	82.0	21.0	0.279	1,2,3,0,0,0,0,0,0	to_board	s483
215.61	0.318	0	PA_without_intermediate	1,0,0,0,0,0,3,0,0	test	ward_and_allport	0,0,0,1,0,0,3,2,0	89.0	21.0	0.318	1,2,3,0,0,0,0,0,0	to_hand	s483
215.929	0.326	0	PA_without_intermediate	1,0,0,0,0,0,3,2,0	test	ward_and_allport	0,0,0,1,0,0,3,2,0	82.0	21.0	0.326	1,2,3,0,0,0,0,0,0	to_board	s483
216.261	0.218	0	PA_without_intermediate	0,0,0,0,0,0,3,2,0	test	ward_and_allport	0,0,0,1,0,0,3,2,0	89.0	21.0	0.218	1,2,3,0,0,0,0,0,0	to_hand	s483
216.479	0.127	0	PA_without_intermediate	0,0,0,1,0,0,3,2,0	test	ward_and_allport	0,0,0,1,0,0,3,2,0	71.0	21.0	0.127	1,2,3,0,0,0,0,0,0	to_board	s483
216.614	1.0	0	PA_without_intermediate	n/a	test	ward_and_allport	n/a	-1.0	21.0	n/a	n/a	feedback	s483
217.614	4.264	0	PA_without_intermediate	n/a	test	ward_and_allport	n/a	-1.0	21.0	n/a	n/a	ITI	s483
221.884	2.111	1	PA_with_intermediate	1,2,0,0,0,0,0,0,0	test	ward_and_allport	1,0,0,0,0,0,2,3,0	89.0	22.0	2.111	1,2,3,0,0,0,0,0,0	to_hand	s483
223.995	0.335	0	PA_with_intermediate	1,2,0,3,0,0,0,0,0	test	ward_and_allport	1,0,0,0,0,0,2,3,0	71.0	22.0	0.335	1,2,3,0,0,0,0,0,0	to_board	s483
224.336	0.278	0	PA_with_intermediate	1,0,0,3,0,0,0,0,0	test	ward_and_allport	1,0,0,0,0,0,2,3,0	89.0	22.0	0.278	1,2,3,0,0,0,0,0,0	to_hand	s483
224.615	0.319	0	PA_with_intermediate	1,0,0,3,0,0,2,0,0	test	ward_and_allport	1,0,0,0,0,0,2,3,0	82.0	22.0	0.319	1,2,3,0,0,0,0,0,0	to_board	s483
224.94	0.522	0	PA_with_intermediate	1,0,0,0,0,0,2,0,0	test	ward_and_allport	1,0,0,0,0,0,2,3,0	71.0	22.0	0.522	1,2,3,0,0,0,0,0,0	to_hand	s483
225.462	0.313	0	PA_with_intermediate	1,0,0,0,0,0,2,3,0	test	ward_and_allport	1,0,0,0,0,0,2,3,0	82.0	22.0	0.313	1,2,3,0,0,0,0,0,0	to_board	s483
225.783	1.0	0	PA_with_intermediate	n/a	test	ward_and_allport	n/a	-1.0	22.0	n/a	n/a	feedback	s483
226.783	3.04	0	PA_with_intermediate	n/a	test	ward_and_allport	n/a	-1.0	22.0	n/a	n/a	ITI	s483
229.83	1.318	1	PA_with_intermediate	0,0,0,0,0,0,1,2,0	test	ward_and_allport	2,3,0,0,0,0,1,0,0	82.0	23.0	1.318	0,0,0,0,0,0,1,2,3	to_hand	s483
231.148	1.657	0	PA_with_intermediate	0,0,0,3,0,0,1,2,0	test	ward_and_allport	2,3,0,0,0,0,1,0,0	71.0	23.0	1.657	0,0,0,0,0,0,1,2,3	to_board	s483
232.811	0.53	0	PA_with_intermediate	0,0,0,3,0,0,1,0,0	test	ward_and_allport	2,3,0,0,0,0,1,0,0	82.0	23.0	0.53	0,0,0,0,0,0,1,2,3	to_hand	s483
233.343	0.689	0	PA_with_intermediate	2,0,0,3,0,0,1,0,0	test	ward_and_allport	2,3,0,0,0,0,1,0,0	89.0	23.0	0.689	0,0,0,0,0,0,1,2,3	to_board	s483
234.037	0.892	0	PA_with_intermediate	2,0,0,0,0,0,1,0,0	test	ward_and_allport	2,3,0,0,0,0,1,0,0	71.0	23.0	0.892	0,0,0,0,0,0,1,2,3	to_hand	s483
234.93	0.517	0	PA_with_intermediate	2,3,0,0,0,0,1,0,0	test	ward_and_allport	2,3,0,0,0,0,1,0,0	89.0	23.0	0.517	0,0,0,0,0,0,1,2,3	to_board	s483
235.455	1.0	0	PA_with_intermediate	n/a	test	ward_and_allport	n/a	-1.0	23.0	n/a	n/a	feedback	s483
236.455	1.136	0	PA_with_intermediate	n/a	test	ward_and_allport	n/a	-1.0	23.0	n/a	n/a	ITI	s483
237.598	1.758	1	PA_with_intermediate	1,2,0,0,0,0,0,0,0	test	ward_and_allport	1,0,0,2,3,0,0,0,0	89.0	24.0	1.758	1,2,3,0,0,0,0,0,0	to_hand	s483
239.357	0.275	0	PA_with_intermediate	1,2,0,0,0,0,3,0,0	test	ward_and_allport	1,0,0,2,3,0,0,0,0	82.0	24.0	0.275	1,2,3,0,0,0,0,0,0	to_board	s483
239.638	0.311	0	PA_with_intermediate	1,0,0,0,0,0,3,0,0	test	ward_and_allport	1,0,0,2,3,0,0,0,0	89.0	24.0	0.311	1,2,3,0,0,0,0,0,0	to_hand	s483
239.951	0.528	0	PA_with_intermediate	1,0,0,2,0,0,3,0,0	test	ward_and_allport	1,0,0,2,3,0,0,0,0	71.0	24.0	0.528	1,2,3,0,0,0,0,0,0	to_board	s483
240.485	0.454	0	PA_with_intermediate	1,0,0,2,0,0,0,0,0	test	ward_and_allport	1,0,0,2,3,0,0,0,0	82.0	24.0	0.454	1,2,3,0,0,0,0,0,0	to_hand	s483
240.941	0.256	0	PA_with_intermediate	1,0,0,2,3,0,0,0,0	test	ward_and_allport	1,0,0,2,3,0,0,0,0	71.0	24.0	0.256	1,2,3,0,0,0,0,0,0	to_board	s483
241.204	1.0	0	PA_with_intermediate	n/a	test	ward_and_allport	n/a	-1.0	24.0	n/a	n/a	feedback	s483
242.204	1.408	0	PA_with_intermediate	n/a	test	ward_and_allport	n/a	-1.0	24.0	n/a	n/a	ITI	s483
243.619	1.72	1	PA_without_intermediate	0,0,0,1,2,0,0,0,0	test	ward_and_allport	3,1,0,0,0,0,2,0,0	71.0	25.0	1.72	0,0,0,1,2,3,0,0,0	to_hand	s483
245.341	0.263	0	PA_without_intermediate	3,0,0,1,2,0,0,0,0	test	ward_and_allport	3,1,0,0,0,0,2,0,0	89.0	25.0	0.263	0,0,0,1,2,3,0,0,0	to_board	s483
245.611	1.608	0	PA_without_intermediate	3,0,0,1,0,0,0,0,0	test	ward_and_allport	3,1,0,0,0,0,2,0,0	71.0	25.0	1.608	0,0,0,1,2,3,0,0,0	to_hand	s483
247.22	0.414	0	PA_without_intermediate	3,0,0,1,0,0,2,0,0	test	ward_and_allport	3,1,0,0,0,0,2,0,0	82.0	25.0	0.414	0,0,0,1,2,3,0,0,0	to_board	s483
247.641	0.778	0	PA_without_intermediate	3,0,0,0,0,0,2,0,0	test	ward_and_allport	3,1,0,0,0,0,2,0,0	71.0	25.0	0.778	0,0,0,1,2,3,0,0,0	to_hand	s483
248.42	0.306	0	PA_without_intermediate	3,1,0,0,0,0,2,0,0	test	ward_and_allport	3,1,0,0,0,0,2,0,0	89.0	25.0	0.306	0,0,0,1,2,3,0,0,0	to_board	s483
248.733	1.0	0	PA_without_intermediate	n/a	test	ward_and_allport	n/a	-1.0	25.0	n/a	n/a	feedback	s483
249.733	1.68	0	PA_without_intermediate	n/a	test	ward_and_allport	n/a	-1.0	25.0	n/a	n/a	ITI	s483
251.42	1.749	1	PA_with_intermediate	0,0,0,1,2,0,0,0,0	test	ward_and_allport	0,0,0,1,0,0,2,3,0	71.0	26.0	1.749	0,0,0,1,2,3,0,0,0	to_hand	s483
253.17	0.579	0	PA_with_intermediate	3,0,0,1,2,0,0,0,0	test	ward_and_allport	0,0,0,1,0,0,2,3,0	89.0	26.0	0.579	0,0,0,1,2,3,0,0,0	to_board	s483
253.756	0.676	0	PA_with_intermediate	3,0,0,1,0,0,0,0,0	test	ward_and_allport	0,0,0,1,0,0,2,3,0	71.0	26.0	0.676	0,0,0,1,2,3,0,0,0	to_hand	s483
254.433	0.275	0	PA_with_intermediate	3,0,0,1,0,0,2,0,0	test	ward_and_allport	0,0,0,1,0,0,2,3,0	82.0	26.0	0.275	0,0,0,1,2,3,0,0,0	to_board	s483
254.714	0.259	0	PA_with_intermediate	0,0,0,1,0,0,2,0,0	test	ward_and_allport	0,0,0,1,0,0,2,3,0	89.0	26.0	0.259	0,0,0,1,2,3,0,0,0	to_hand	s483
254.975	0.207	0	PA_with_intermediate	0,0,0,1,0,0,2,3,0	test	ward_and_allport	0,0,0,1,0,0,2,3,0	82.0	26.0	0.207	0,0,0,1,2,3,0,0,0	to_board	s483
255.189	1.0	0	PA_with_intermediate	n/a	test	ward_and_allport	n/a	-1.0	26.0	n/a	n/a	feedback	s483
256.189	3.72	0	PA_with_intermediate	n/a	test	ward_and_allport	n/a	-1.0	26.0	n/a	n/a	ITI	s483
259.916	2.777	1	PA_without_intermediate	1,2,0,0,0,0,0,0,0	test	ward_and_allport	0,0,0,3,1,0,2,0,0	89.0	27.0	2.777	1,2,3,0,0,0,0,0,0	to_hand	s483
262.694	0.243	0	PA_without_intermediate	1,2,0,3,0,0,0,0,0	test	ward_and_allport	0,0,0,3,1,0,2,0,0	71.0	27.0	0.243	1,2,3,0,0,0,0,0,0	to_board	s483
262.944	0.188	0	PA_without_intermediate	1,0,0,3,0,0,0,0,0	test	ward_and_allport	0,0,0,3,1,0,2,0,0	89.0	27.0	0.188	1,2,3,0,0,0,0,0,0	to_hand	s483
263.133	0.181	0	PA_without_intermediate	1,0,0,3,0,0,2,0,0	test	ward_and_allport	0,0,0,3,1,0,2,0,0	82.0	27.0	0.181	1,2,3,0,0,0,0,0,0	to_board	s483
263.321	0.22	0	PA_without_intermediate	0,0,0,3,0,0,2,0,0	test	ward_and_allport	0,0,0,3,1,0,2,0,0	89.0	27.0	0.22	1,2,3,0,0,0,0,0,0	to_hand	s483
263.543	0.164	0	PA_without_intermediate	0,0,0,3,1,0,2,0,0	test	ward_and_allport	0,0,0,3,1,0,2,0,0	71.0	27.0	0.164	1,2,3,0,0,0,0,0,0	to_board	s483
263.715	1.0	0	PA_without_intermediate	n/a	test	ward_and_allport	n/a	-1.0	27.0	n/a	n/a	feedback	s483
264.715	2.224	0	PA_without_intermediate	n/a	test	ward_and_allport	n/a	-1.0	27.0	n/a	n/a	ITI	s483
266.946	1.322	1	PA_without_intermediate	1,2,0,0,0,0,0,0,0	test	ward_and_allport	0,0,0,3,2,0,1,0,0	89.0	28.0	1.322	1,2,3,0,0,0,0,0,0	to_hand	s483
268.269	0.212	0	PA_without_intermediate	1,2,0,3,0,0,0,0,0	test	ward_and_allport	0,0,0,3,2,0,1,0,0	71.0	28.0	0.212	1,2,3,0,0,0,0,0,0	to_board	s483
268.489	0.311	0	PA_without_intermediate	1,0,0,3,0,0,0,0,0	test	ward_and_allport	0,0,0,3,2,0,1,0,0	89.0	28.0	0.311	1,2,3,0,0,0,0,0,0	to_hand	s483
268.801	1.14	0	PA_without_intermediate	1,0,0,3,2,0,0,0,0	test	ward_and_allport	0,0,0,3,2,0,1,0,0	71.0	28.0	1.14	1,2,3,0,0,0,0,0,0	to_board	s483
269.948	0.315	0	PA_without_intermediate	0,0,0,3,2,0,0,0,0	test	ward_and_allport	0,0,0,3,2,0,1,0,0	89.0	28.0	0.315	1,2,3,0,0,0,0,0,0	to_hand	s483
270.265	0.16	0	PA_without_intermediate	0,0,0,3,2,0,1,0,0	test	ward_and_allport	0,0,0,3,2,0,1,0,0	82.0	28.0	0.16	1,2,3,0,0,0,0,0,0	to_board	s483
270.432	1.0	0	PA_without_intermediate	n/a	test	ward_and_allport	n/a	-1.0	28.0	n/a	n/a	feedback	s483
271.432	1.272	0	PA_without_intermediate	n/a	test	ward_and_allport	n/a	-1.0	28.0	n/a	n/a	ITI	s483
272.712	2.19	1	PA_with_intermediate	0,0,0,1,2,0,0,0,0	test	ward_and_allport	0,0,0,1,0,0,2,3,0	71.0	29.0	2.19	0,0,0,1,2,3,0,0,0	to_hand	s483
274.903	0.222	0	PA_with_intermediate	3,0,0,1,2,0,0,0,0	test	ward_and_allport	0,0,0,1,0,0,2,3,0	89.0	29.0	0.222	0,0,0,1,2,3,0,0,0	to_board	s483
275.133	0.302	0	PA_with_intermediate	3,0,0,1,0,0,0,0,0	test	ward_and_allport	0,0,0,1,0,0,2,3,0	71.0	29.0	0.302	0,0,0,1,2,3,0,0,0	to_hand	s483
275.437	0.285	0	PA_with_intermediate	3,0,0,1,0,0,2,0,0	test	ward_and_allport	0,0,0,1,0,0,2,3,0	82.0	29.0	0.285	0,0,0,1,2,3,0,0,0	to_board	s483
275.73	0.293	0	PA_with_intermediate	0,0,0,1,0,0,2,0,0	test	ward_and_allport	0,0,0,1,0,0,2,3,0	89.0	29.0	0.293	0,0,0,1,2,3,0,0,0	to_hand	s483
276.024	0.355	0	PA_with_intermediate	0,0,0,1,0,0,2,3,0	test	ward_and_allport	0,0,0,1,0,0,2,3,0	82.0	29.0	0.355	0,0,0,1,2,3,0,0,0	to_board	s483
276.388	1.0	0	PA_with_intermediate	n/a	test	ward_and_allport	n/a	-1.0	29.0	n/a	n/a	feedback	s483
277.388	2.632	0	PA_with_intermediate	n/a	test	ward_and_allport	n/a	-1.0	29.0	n/a	n/a	ITI	s483
285.029	1.602	1	PA_without_intermediate	0,0,0,0,0,0,1,2,0	test	ward_and_allport	1,0,0,3,2,0,0,0,0	82.0	30.0	1.602	0,0,0,0,0,0,1,2,3	to_hand	s483
286.632	0.273	0	PA_without_intermediate	0,0,0,3,0,0,1,2,0	test	ward_and_allport	1,0,0,3,2,0,0,0,0	71.0	30.0	0.273	0,0,0,0,0,0,1,2,3	to_board	s483
286.912	0.254	0	PA_without_intermediate	0,0,0,3,0,0,1,0,0	test	ward_and_allport	1,0,0,3,2,0,0,0,0	82.0	30.0	0.254	0,0,0,0,0,0,1,2,3	to_hand	s483
287.166	0.215	0	PA_without_intermediate	0,0,0,3,2,0,1,0,0	test	ward_and_allport	1,0,0,3,2,0,0,0,0	71.0	30.0	0.215	0,0,0,0,0,0,1,2,3	to_board	s483
287.388	0.642	0	PA_without_intermediate	0,0,0,3,2,0,0,0,0	test	ward_and_allport	1,0,0,3,2,0,0,0,0	82.0	30.0	0.642	0,0,0,0,0,0,1,2,3	to_hand	s483
288.031	0.122	0	PA_without_intermediate	1,0,0,3,2,0,0,0,0	test	ward_and_allport	1,0,0,3,2,0,0,0,0	89.0	30.0	0.122	0,0,0,0,0,0,1,2,3	to_board	s483
288.162	1.0	0	PA_without_intermediate	n/a	test	ward_and_allport	n/a	-1.0	30.0	n/a	n/a	feedback	s483
289.162	1.408	0	PA_without_intermediate	n/a	test	ward_and_allport	n/a	-1.0	30.0	n/a	n/a	ITI	s483
290.577	1.882	1	PA_without_intermediate	0,0,0,1,2,0,0,0,0	test	ward_and_allport	3,2,0,0,0,0,1,0,0	71.0	31.0	1.882	0,0,0,1,2,3,0,0,0	to_hand	s483
292.46	0.162	0	PA_without_intermediate	3,0,0,1,2,0,0,0,0	test	ward_and_allport	3,2,0,0,0,0,1,0,0	89.0	31.0	0.162	0,0,0,1,2,3,0,0,0	to_board	s483
292.629	0.256	0	PA_without_intermediate	3,0,0,1,0,0,0,0,0	test	ward_and_allport	3,2,0,0,0,0,1,0,0	71.0	31.0	0.256	0,0,0,1,2,3,0,0,0	to_hand	s483
292.886	0.183	0	PA_without_intermediate	3,2,0,1,0,0,0,0,0	test	ward_and_allport	3,2,0,0,0,0,1,0,0	89.0	31.0	0.183	0,0,0,1,2,3,0,0,0	to_board	s483
293.077	0.867	0	PA_without_intermediate	3,2,0,0,0,0,0,0,0	test	ward_and_allport	3,2,0,0,0,0,1,0,0	71.0	31.0	0.867	0,0,0,1,2,3,0,0,0	to_hand	s483
293.945	0.161	0	PA_without_intermediate	3,2,0,0,0,0,1,0,0	test	ward_and_allport	3,2,0,0,0,0,1,0,0	82.0	31.0	0.161	0,0,0,1,2,3,0,0,0	to_board	s483
294.116	1.0	0	PA_without_intermediate	n/a	test	ward_and_allport	n/a	-1.0	31.0	n/a	n/a	feedback	s483
295.116	1.0	0	PA_without_intermediate	n/a	test	ward_and_allport	n/a	-1.0	31.0	n/a	n/a	ITI	s483
296.123	3.841	1	PA_with_intermediate	1,2,0,0,0,0,0,0,0	test	ward_and_allport	1,3,0,2,0,0,0,0,0	89.0	32.0	3.841	1,2,3,0,0,0,0,0,0	to_hand	s483
299.964	0.233	0	PA_with_intermediate	1,2,0,0,0,0,3,0,0	test	ward_and_allport	1,3,0,2,0,0,0,0,0	82.0	32.0	0.233	1,2,3,0,0,0,0,0,0	to_board	s483
300.205	0.251	0	PA_with_intermediate	1,0,0,0,0,0,3,0,0	test	ward_and_allport	1,3,0,2,0,0,0,0,0	89.0	32.0	0.251	1,2,3,0,0,0,0,0,0	to_hand	s483
300.456	0.384	0	PA_with_intermediate	1,0,0,2,0,0,3,0,0	test	ward_and_allport	1,3,0,2,0,0,0,0,0	71.0	32.0	0.384	1,2,3,0,0,0,0,0,0	to_board	s483
300.848	1.071	0	PA_with_intermediate	1,0,0,2,0,0,0,0,0	test	ward_and_allport	1,3,0,2,0,0,0,0,0	82.0	32.0	1.071	1,2,3,0,0,0,0,0,0	to_hand	s483
301.92	0.199	0	PA_with_intermediate	1,3,0,2,0,0,0,0,0	test	ward_and_allport	1,3,0,2,0,0,0,0,0	89.0	32.0	0.199	1,2,3,0,0,0,0,0,0	to_board	s483
302.129	1.0	0	PA_with_intermediate	n/a	test	ward_and_allport	n/a	-1.0	32.0	n/a	n/a	feedback	s483
303.129	1.0	0	PA_with_intermediate	n/a	test	ward_and_allport	n/a	-1.0	32.0	n/a	n/a	ITI	s483
304.138	1.992	1	PA_with_intermediate	0,0,0,0,0,0,1,2,0	test	ward_and_allport	0,0,0,2,3,0,1,0,0	82.0	33.0	1.992	0,0,0,0,0,0,1,2,3	to_hand	s483
306.132	0.224	0	PA_with_intermediate	3,0,0,0,0,0,1,2,0	test	ward_and_allport	0,0,0,2,3,0,1,0,0	89.0	33.0	0.224	0,0,0,0,0,0,1,2,3	to_board	s483
306.364	0.265	0	PA_with_intermediate	3,0,0,0,0,0,1,0,0	test	ward_and_allport	0,0,0,2,3,0,1,0,0	82.0	33.0	0.265	0,0,0,0,0,0,1,2,3	to_hand	s483
306.63	0.24	0	PA_with_intermediate	3,0,0,2,0,0,1,0,0	test	ward_and_allport	0,0,0,2,3,0,1,0,0	71.0	33.0	0.24	0,0,0,0,0,0,1,2,3	to_board	s483
306.877	0.28	0	PA_with_intermediate	0,0,0,2,0,0,1,0,0	test	ward_and_allport	0,0,0,2,3,0,1,0,0	89.0	33.0	0.28	0,0,0,0,0,0,1,2,3	to_hand	s483
307.158	0.223	0	PA_with_intermediate	0,0,0,2,3,0,1,0,0	test	ward_and_allport	0,0,0,2,3,0,1,0,0	71.0	33.0	0.223	0,0,0,0,0,0,1,2,3	to_board	s483
307.388	1.0	0	PA_with_intermediate	n/a	test	ward_and_allport	n/a	-1.0	33.0	n/a	n/a	feedback	s483
308.388	1.0	0	PA_with_intermediate	n/a	test	ward_and_allport	n/a	-1.0	33.0	n/a	n/a	ITI	s483
309.394	2.87	1	PA_with_intermediate	0,0,0,1,2,0,0,0,0	test	ward_and_allport	0,0,0,1,3,0,2,0,0	71.0	34.0	2.87	0,0,0,1,2,3,0,0,0	to_hand	s483
312.264	0.747	0	PA_with_intermediate	3,0,0,1,2,0,0,0,0	test	ward_and_allport	0,0,0,1,3,0,2,0,0	89.0	34.0	0.747	0,0,0,1,2,3,0,0,0	to_board	s483
313.022	0.288	0	PA_with_intermediate	3,0,0,1,0,0,0,0,0	test	ward_and_allport	0,0,0,1,3,0,2,0,0	71.0	34.0	0.288	0,0,0,1,2,3,0,0,0	to_hand	s483
313.311	0.342	0	PA_with_intermediate	3,0,0,1,0,0,2,0,0	test	ward_and_allport	0,0,0,1,3,0,2,0,0	82.0	34.0	0.342	0,0,0,1,2,3,0,0,0	to_board	s483
313.661	0.244	0	PA_with_intermediate	0,0,0,1,0,0,2,0,0	test	ward_and_allport	0,0,0,1,3,0,2,0,0	89.0	34.0	0.244	0,0,0,1,2,3,0,0,0	to_hand	s483
313.906	0.129	0	PA_with_intermediate	0,0,0,1,3,0,2,0,0	test	ward_and_allport	0,0,0,1,3,0,2,0,0	71.0	34.0	0.129	0,0,0,1,2,3,0,0,0	to_board	s483
314.045	1.0	0	PA_with_intermediate	n/a	test	ward_and_allport	n/a	-1.0	34.0	n/a	n/a	feedback	s483
315.045	1.408	0	PA_with_intermediate	n/a	test	ward_and_allport	n/a	-1.0	34.0	n/a	n/a	ITI	s483
316.461	1.564	1	PA_without_intermediate	1,2,0,0,0,0,0,0,0	test	ward_and_allport	0,0,0,3,2,0,1,0,0	89.0	35.0	1.564	1,2,3,0,0,0,0,0,0	to_hand	s483
318.025	0.46	0	PA_without_intermediate	1,2,0,3,0,0,0,0,0	test	ward_and_allport	0,0,0,3,2,0,1,0,0	71.0	35.0	0.46	1,2,3,0,0,0,0,0,0	to_board	s483
318.492	0.278	0	PA_without_intermediate	1,0,0,3,0,0,0,0,0	test	ward_and_allport	0,0,0,3,2,0,1,0,0	89.0	35.0	0.278	1,2,3,0,0,0,0,0,0	to_hand	s483
318.77	0.186	0	PA_without_intermediate	1,0,0,3,2,0,0,0,0	test	ward_and_allport	0,0,0,3,2,0,1,0,0	71.0	35.0	0.186	1,2,3,0,0,0,0,0,0	to_board	s483
318.962	0.237	0	PA_without_intermediate	0,0,0,3,2,0,0,0,0	test	ward_and_allport	0,0,0,3,2,0,1,0,0	89.0	35.0	0.237	1,2,3,0,0,0,0,0,0	to_hand	s483
319.2	0.17	0	PA_without_intermediate	0,0,0,3,2,0,1,0,0	test	ward_and_allport	0,0,0,3,2,0,1,0,0	82.0	35.0	0.17	1,2,3,0,0,0,0,0,0	to_board	s483
319.378	1.0	0	PA_without_intermediate	n/a	test	ward_and_allport	n/a	-1.0	35.0	n/a	n/a	feedback	s483
320.378	1.816	0	PA_without_intermediate	n/a	test	ward_and_allport	n/a	-1.0	35.0	n/a	n/a	ITI	s483
322.199	2.495	1	PA_with_intermediate	0,0,0,0,0,0,1,2,0	test	ward_and_allport	0,0,0,2,0,0,1,3,0	82.0	36.0	2.495	0,0,0,0,0,0,1,2,3	to_hand	s483
324.695	0.197	0	PA_with_intermediate	3,0,0,0,0,0,1,2,0	test	ward_and_allport	0,0,0,2,0,0,1,3,0	89.0	36.0	0.197	0,0,0,0,0,0,1,2,3	to_board	s483
324.898	0.212	0	PA_with_intermediate	3,0,0,0,0,0,1,0,0	test	ward_and_allport	0,0,0,2,0,0,1,3,0	82.0	36.0	0.212	0,0,0,0,0,0,1,2,3	to_hand	s483
325.112	0.331	0	PA_with_intermediate	3,0,0,2,0,0,1,0,0	test	ward_and_allport	0,0,0,2,0,0,1,3,0	71.0	36.0	0.331	0,0,0,0,0,0,1,2,3	to_board	s483
325.453	0.294	0	PA_with_intermediate	0,0,0,2,0,0,1,0,0	test	ward_and_allport	0,0,0,2,0,0,1,3,0	89.0	36.0	0.294	0,0,0,0,0,0,1,2,3	to_hand	s483
325.748	0.194	0	PA_with_intermediate	0,0,0,2,0,0,1,3,0	test	ward_and_allport	0,0,0,2,0,0,1,3,0	82.0	36.0	0.194	0,0,0,0,0,0,1,2,3	to_board	s483
325.952	1.0	0	PA_with_intermediate	n/a	test	ward_and_allport	n/a	-1.0	36.0	n/a	n/a	feedback	s483
326.952	3.176	0	PA_with_intermediate	n/a	test	ward_and_allport	n/a	-1.0	36.0	n/a	n/a	ITI	s483
330.137	1.466	1	PA_with_intermediate	0,0,0,0,0,0,1,2,0	test	ward_and_allport	2,3,0,0,0,0,1,0,0	82.0	37.0	1.466	0,0,0,0,0,0,1,2,3	to_hand	s483
331.605	1.205	0	PA_with_intermediate	0,0,0,3,0,0,1,2,0	test	ward_and_allport	2,3,0,0,0,0,1,0,0	71.0	37.0	1.205	0,0,0,0,0,0,1,2,3	to_board	s483
332.816	0.684	0	PA_with_intermediate	0,0,0,3,0,0,1,0,0	test	ward_and_allport	2,3,0,0,0,0,1,0,0	82.0	37.0	0.684	0,0,0,0,0,0,1,2,3	to_hand	s483
333.5	0.198	0	PA_with_intermediate	2,0,0,3,0,0,1,0,0	test	ward_and_allport	2,3,0,0,0,0,1,0,0	89.0	37.0	0.198	0,0,0,0,0,0,1,2,3	to_board	s483
333.706	0.43	0	PA_with_intermediate	2,0,0,0,0,0,1,0,0	test	ward_and_allport	2,3,0,0,0,0,1,0,0	71.0	37.0	0.43	0,0,0,0,0,0,1,2,3	to_hand	s483
334.137	0.321	0	PA_with_intermediate	2,3,0,0,0,0,1,0,0	test	ward_and_allport	2,3,0,0,0,0,1,0,0	89.0	37.0	0.321	0,0,0,0,0,0,1,2,3	to_board	s483
334.468	1.0	0	PA_with_intermediate	n/a	test	ward_and_allport	n/a	-1.0	37.0	n/a	n/a	feedback	s483
335.468	2.36	0	PA_with_intermediate	n/a	test	ward_and_allport	n/a	-1.0	37.0	n/a	n/a	ITI	s483
337.837	4.007	1	PA_with_intermediate	0,0,0,0,0,0,1,2,0	test	ward_and_allport	0,0,0,2,0,0,1,3,0	82.0	38.0	4.007	0,0,0,0,0,0,1,2,3	to_hand	s483
341.845	0.262	0	PA_with_intermediate	3,0,0,0,0,0,1,2,0	test	ward_and_allport	0,0,0,2,0,0,1,3,0	89.0	38.0	0.262	0,0,0,0,0,0,1,2,3	to_board	s483
342.117	0.336	0	PA_with_intermediate	3,0,0,0,0,0,1,0,0	test	ward_and_allport	0,0,0,2,0,0,1,3,0	82.0	38.0	0.336	0,0,0,0,0,0,1,2,3	to_hand	s483
342.454	0.285	0	PA_with_intermediate	3,0,0,2,0,0,1,0,0	test	ward_and_allport	0,0,0,2,0,0,1,3,0	71.0	38.0	0.285	0,0,0,0,0,0,1,2,3	to_board	s483
342.749	0.354	0	PA_with_intermediate	0,0,0,2,0,0,1,0,0	test	ward_and_allport	0,0,0,2,0,0,1,3,0	89.0	38.0	0.354	0,0,0,0,0,0,1,2,3	to_hand	s483
343.104	0.147	0	PA_with_intermediate	0,0,0,2,0,0,1,3,0	test	ward_and_allport	0,0,0,2,0,0,1,3,0	82.0	38.0	0.147	0,0,0,0,0,0,1,2,3	to_board	s483
343.26	1.0	0	PA_with_intermediate	n/a	test	ward_and_allport	n/a	-1.0	38.0	n/a	n/a	feedback	s483
344.26	1.0	0	PA_with_intermediate	n/a	test	ward_and_allport	n/a	-1.0	38.0	n/a	n/a	ITI	s483
345.267	2.131	1	PA_without_intermediate	0,0,0,0,0,0,1,2,0	test	ward_and_allport	2,0,0,3,1,0,0,0,0	82.0	39.0	2.131	0,0,0,0,0,0,1,2,3	to_hand	s483
347.399	0.286	0	PA_without_intermediate	0,0,0,3,0,0,1,2,0	test	ward_and_allport	2,0,0,3,1,0,0,0,0	71.0	39.0	0.286	0,0,0,0,0,0,1,2,3	to_board	s483
347.693	0.231	0	PA_without_intermediate	0,0,0,3,0,0,1,0,0	test	ward_and_allport	2,0,0,3,1,0,0,0,0	82.0	39.0	0.231	0,0,0,0,0,0,1,2,3	to_hand	s483
347.924	0.219	0	PA_without_intermediate	2,0,0,3,0,0,1,0,0	test	ward_and_allport	2,0,0,3,1,0,0,0,0	89.0	39.0	0.219	0,0,0,0,0,0,1,2,3	to_board	s483
348.15	0.448	0	PA_without_intermediate	2,0,0,3,0,0,0,0,0	test	ward_and_allport	2,0,0,3,1,0,0,0,0	82.0	39.0	0.448	0,0,0,0,0,0,1,2,3	to_hand	s483
348.599	0.179	0	PA_without_intermediate	2,0,0,3,1,0,0,0,0	test	ward_and_allport	2,0,0,3,1,0,0,0,0	71.0	39.0	0.179	0,0,0,0,0,0,1,2,3	to_board	s483
348.786	1.0	0	PA_without_intermediate	n/a	test	ward_and_allport	n/a	-1.0	39.0	n/a	n/a	feedback	s483
349.786	1.408	0	PA_without_intermediate	n/a	test	ward_and_allport	n/a	-1.0	39.0	n/a	n/a	ITI	s483
351.2	2.973	1	PA_with_intermediate	0,0,0,1,2,0,0,0,0	test	ward_and_allport	0,0,0,1,3,0,2,0,0	71.0	40.0	2.973	0,0,0,1,2,3,0,0,0	to_hand	s483
354.174	0.225	0	PA_with_intermediate	3,0,0,1,2,0,0,0,0	test	ward_and_allport	0,0,0,1,3,0,2,0,0	89.0	40.0	0.225	0,0,0,1,2,3,0,0,0	to_board	s483
354.406	0.542	0	PA_with_intermediate	3,0,0,1,0,0,0,0,0	test	ward_and_allport	0,0,0,1,3,0,2,0,0	71.0	40.0	0.542	0,0,0,1,2,3,0,0,0	to_hand	s483
354.948	0.508	0	PA_with_intermediate	3,0,0,1,0,0,2,0,0	test	ward_and_allport	0,0,0,1,3,0,2,0,0	82.0	40.0	0.508	0,0,0,1,2,3,0,0,0	to_board	s483
355.466	0.295	0	PA_with_intermediate	0,0,0,1,0,0,2,0,0	test	ward_and_allport	0,0,0,1,3,0,2,0,0	89.0	40.0	0.295	0,0,0,1,2,3,0,0,0	to_hand	s483
355.762	0.183	0	PA_with_intermediate	0,0,0,1,3,0,2,0,0	test	ward_and_allport	0,0,0,1,3,0,2,0,0	71.0	40.0	0.183	0,0,0,1,2,3,0,0,0	to_board	s483
355.955	1.0	0	PA_with_intermediate	n/a	test	ward_and_allport	n/a	-1.0	40.0	n/a	n/a	feedback	s483
356.955	1.816	0	PA_with_intermediate	n/a	test	ward_and_allport	n/a	-1.0	40.0	n/a	n/a	ITI	s483
358.78	2.273	1	PA_without_intermediate	1,2,0,0,0,0,0,0,0	test	ward_and_allport	0,0,0,3,1,0,2,0,0	89.0	41.0	2.273	1,2,3,0,0,0,0,0,0	to_hand	s483
361.054	0.279	0	PA_without_intermediate	1,2,0,3,0,0,0,0,0	test	ward_and_allport	0,0,0,3,1,0,2,0,0	71.0	41.0	0.279	1,2,3,0,0,0,0,0,0	to_board	s483
361.34	0.193	0	PA_without_intermediate	1,0,0,3,0,0,0,0,0	test	ward_and_allport	0,0,0,3,1,0,2,0,0	89.0	41.0	0.193	1,2,3,0,0,0,0,0,0	to_hand	s483
361.533	0.177	0	PA_without_intermediate	1,0,0,3,0,0,2,0,0	test	ward_and_allport	0,0,0,3,1,0,2,0,0	82.0	41.0	0.177	1,2,3,0,0,0,0,0,0	to_board	s483
361.72	0.223	0	PA_without_intermediate	0,0,0,3,0,0,2,0,0	test	ward_and_allport	0,0,0,3,1,0,2,0,0	89.0	41.0	0.223	1,2,3,0,0,0,0,0,0	to_hand	s483
361.944	0.157	0	PA_without_intermediate	0,0,0,3,1,0,2,0,0	test	ward_and_allport	0,0,0,3,1,0,2,0,0	71.0	41.0	0.157	1,2,3,0,0,0,0,0,0	to_board	s483
362.113	1.0	0	PA_without_intermediate	n/a	test	ward_and_allport	n/a	-1.0	41.0	n/a	n/a	feedback	s483
363.113	2.088	0	PA_without_intermediate	n/a	test	ward_and_allport	n/a	-1.0	41.0	n/a	n/a	ITI	s483
365.209	1.706	1	PA_without_intermediate	1,2,0,0,0,0,0,0,0	test	ward_and_allport	0,0,0,2,0,0,3,1,0	89.0	42.0	1.706	1,2,3,0,0,0,0,0,0	to_hand	s483
366.917	0.422	0	PA_without_intermediate	1,2,0,0,0,0,3,0,0	test	ward_and_allport	0,0,0,2,0,0,3,1,0	82.0	42.0	0.422	1,2,3,0,0,0,0,0,0	to_board	s483
367.345	0.323	0	PA_without_intermediate	1,0,0,0,0,0,3,0,0	test	ward_and_allport	0,0,0,2,0,0,3,1,0	89.0	42.0	0.323	1,2,3,0,0,0,0,0,0	to_hand	s483
367.67	0.157	0	PA_without_intermediate	1,0,0,2,0,0,3,0,0	test	ward_and_allport	0,0,0,2,0,0,3,1,0	71.0	42.0	0.157	1,2,3,0,0,0,0,0,0	to_board	s483
367.835	0.17	0	PA_without_intermediate	0,0,0,2,0,0,3,0,0	test	ward_and_allport	0,0,0,2,0,0,3,1,0	89.0	42.0	0.17	1,2,3,0,0,0,0,0,0	to_hand	s483
368.005	0.136	0	PA_without_intermediate	0,0,0,2,0,0,3,1,0	test	ward_and_allport	0,0,0,2,0,0,3,1,0	82.0	42.0	0.136	1,2,3,0,0,0,0,0,0	to_board	s483
368.15	1.0	0	PA_without_intermediate	n/a	test	ward_and_allport	n/a	-1.0	42.0	n/a	n/a	feedback	s483
369.15	1.136	0	PA_without_intermediate	n/a	test	ward_and_allport	n/a	-1.0	42.0	n/a	n/a	ITI	s483
370.294	1.711	1	PA_without_intermediate	0,0,0,0,0,0,1,2,0	test	ward_and_allport	2,0,0,3,1,0,0,0,0	82.0	43.0	1.711	0,0,0,0,0,0,1,2,3	to_hand	s483
372.006	0.228	0	PA_without_intermediate	0,0,0,3,0,0,1,2,0	test	ward_and_allport	2,0,0,3,1,0,0,0,0	71.0	43.0	0.228	0,0,0,0,0,0,1,2,3	to_board	s483
372.24	0.239	0	PA_without_intermediate	0,0,0,3,0,0,1,0,0	test	ward_and_allport	2,0,0,3,1,0,0,0,0	82.0	43.0	0.239	0,0,0,0,0,0,1,2,3	to_hand	s483
372.479	0.146	0	PA_without_intermediate	2,0,0,3,0,0,1,0,0	test	ward_and_allport	2,0,0,3,1,0,0,0,0	89.0	43.0	0.146	0,0,0,0,0,0,1,2,3	to_board	s483
372.633	0.229	0	PA_without_intermediate	2,0,0,3,0,0,0,0,0	test	ward_and_allport	2,0,0,3,1,0,0,0,0	82.0	43.0	0.229	0,0,0,0,0,0,1,2,3	to_hand	s483
372.862	0.153	0	PA_without_intermediate	2,0,0,3,1,0,0,0,0	test	ward_and_allport	2,0,0,3,1,0,0,0,0	71.0	43.0	0.153	0,0,0,0,0,0,1,2,3	to_board	s483
373.027	1.0	0	PA_without_intermediate	n/a	test	ward_and_allport	n/a	-1.0	43.0	n/a	n/a	feedback	s483
374.027	6.168	0	PA_without_intermediate	n/a	test	ward_and_allport	n/a	-1.0	43.0	n/a	n/a	ITI	s483
380.202	2.045	1	PA_without_intermediate	0,0,0,1,2,0,0,0,0	test	ward_and_allport	1,0,0,0,0,0,3,2,0	71.0	44.0	2.045	0,0,0,1,2,3,0,0,0	to_hand	s483
382.248	0.269	0	PA_without_intermediate	0,0,0,1,2,0,3,0,0	test	ward_and_allport	1,0,0,0,0,0,3,2,0	82.0	44.0	0.269	0,0,0,1,2,3,0,0,0	to_board	s483
382.528	0.28	0	PA_without_intermediate	0,0,0,1,0,0,3,0,0	test	ward_and_allport	1,0,0,0,0,0,3,2,0	71.0	44.0	0.28	0,0,0,1,2,3,0,0,0	to_hand	s483
382.808	0.174	0	PA_without_intermediate	0,0,0,1,0,0,3,2,0	test	ward_and_allport	1,0,0,0,0,0,3,2,0	82.0	44.0	0.174	0,0,0,1,2,3,0,0,0	to_board	s483
382.993	0.245	0	PA_without_intermediate	0,0,0,0,0,0,3,2,0	test	ward_and_allport	1,0,0,0,0,0,3,2,0	71.0	44.0	0.245	0,0,0,1,2,3,0,0,0	to_hand	s483
383.238	0.18	0	PA_without_intermediate	1,0,0,0,0,0,3,2,0	test	ward_and_allport	1,0,0,0,0,0,3,2,0	89.0	44.0	0.18	0,0,0,1,2,3,0,0,0	to_board	s483
383.429	1.0	0	PA_without_intermediate	n/a	test	ward_and_allport	n/a	-1.0	44.0	n/a	n/a	feedback	s483
384.429	1.816	0	PA_without_intermediate	n/a	test	ward_and_allport	n/a	-1.0	44.0	n/a	n/a	ITI	s483
391.257	1.819	1	PA_with_intermediate	1,2,0,0,0,0,0,0,0	test	ward_and_allport	1,3,0,0,0,0,2,0,0	89.0	45.0	1.819	1,2,3,0,0,0,0,0,0	to_hand	s483
393.078	0.829	0	PA_with_intermediate	1,2,0,3,0,0,0,0,0	test	ward_and_allport	1,3,0,0,0,0,2,0,0	71.0	45.0	0.829	1,2,3,0,0,0,0,0,0	to_board	s483
393.918	0.227	0	PA_with_intermediate	1,0,0,3,0,0,0,0,0	test	ward_and_allport	1,3,0,0,0,0,2,0,0	89.0	45.0	0.227	1,2,3,0,0,0,0,0,0	to_hand	s483
394.146	0.395	0	PA_with_intermediate	1,0,0,3,0,0,2,0,0	test	ward_and_allport	1,3,0,0,0,0,2,0,0	82.0	45.0	0.395	1,2,3,0,0,0,0,0,0	to_board	s483
394.553	0.814	0	PA_with_intermediate	1,0,0,0,0,0,2,0,0	test	ward_and_allport	1,3,0,0,0,0,2,0,0	71.0	45.0	0.814	1,2,3,0,0,0,0,0,0	to_hand	s483
395.367	0.194	0	PA_with_intermediate	1,3,0,0,0,0,2,0,0	test	ward_and_allport	1,3,0,0,0,0,2,0,0	89.0	45.0	0.194	1,2,3,0,0,0,0,0,0	to_board	s483
395.574	1.0	0	PA_with_intermediate	n/a	test	ward_and_allport	n/a	-1.0	45.0	n/a	n/a	feedback	s483
396.574	1.952	0	PA_with_intermediate	n/a	test	ward_and_allport	n/a	-1.0	45.0	n/a	n/a	ITI	s483
398.534	2.109	1	PA_with_intermediate	1,2,0,0,0,0,0,0,0	test	ward_and_allport	1,0,0,2,3,0,0,0,0	89.0	46.0	2.109	1,2,3,0,0,0,0,0,0	to_hand	s483
400.643	0.197	0	PA_with_intermediate	1,2,0,0,0,0,3,0,0	test	ward_and_allport	1,0,0,2,3,0,0,0,0	82.0	46.0	0.197	1,2,3,0,0,0,0,0,0	to_board	s483
400.847	0.275	0	PA_with_intermediate	1,0,0,0,0,0,3,0,0	test	ward_and_allport	1,0,0,2,3,0,0,0,0	89.0	46.0	0.275	1,2,3,0,0,0,0,0,0	to_hand	s483
401.122	0.212	0	PA_with_intermediate	1,0,0,2,0,0,3,0,0	test	ward_and_allport	1,0,0,2,3,0,0,0,0	71.0	46.0	0.212	1,2,3,0,0,0,0,0,0	to_board	s483
401.343	0.26	0	PA_with_intermediate	1,0,0,2,0,0,0,0,0	test	ward_and_allport	1,0,0,2,3,0,0,0,0	82.0	46.0	0.26	1,2,3,0,0,0,0,0,0	to_hand	s483
401.604	0.239	0	PA_with_intermediate	1,0,0,2,3,0,0,0,0	test	ward_and_allport	1,0,0,2,3,0,0,0,0	71.0	46.0	0.239	1,2,3,0,0,0,0,0,0	to_board	s483
401.854	1.0	0	PA_with_intermediate	n/a	test	ward_and_allport	n/a	-1.0	46.0	n/a	n/a	feedback	s483
402.854	1.136	0	PA_with_intermediate	n/a	test	ward_and_allport	n/a	-1.0	46.0	n/a	n/a	ITI	s483
403.997	2.273	1	PA_without_intermediate	1,2,0,0,0,0,0,0,0	test	ward_and_allport	0,0,0,1,0,0,3,2,0	89.0	47.0	2.273	1,2,3,0,0,0,0,0,0	to_hand	s483
406.271	0.203	0	PA_without_intermediate	1,2,0,0,0,0,3,0,0	test	ward_and_allport	0,0,0,1,0,0,3,2,0	82.0	47.0	0.203	1,2,3,0,0,0,0,0,0	to_board	s483
406.482	0.297	0	PA_without_intermediate	1,0,0,0,0,0,3,0,0	test	ward_and_allport	0,0,0,1,0,0,3,2,0	89.0	47.0	0.297	1,2,3,0,0,0,0,0,0	to_hand	s483
406.781	0.489	0	PA_without_intermediate	1,0,0,0,0,0,3,2,0	test	ward_and_allport	0,0,0,1,0,0,3,2,0	82.0	47.0	0.489	1,2,3,0,0,0,0,0,0	to_board	s483
407.278	0.239	0	PA_without_intermediate	0,0,0,0,0,0,3,2,0	test	ward_and_allport	0,0,0,1,0,0,3,2,0	89.0	47.0	0.239	1,2,3,0,0,0,0,0,0	to_hand	s483
407.517	0.138	0	PA_without_intermediate	0,0,0,1,0,0,3,2,0	test	ward_and_allport	0,0,0,1,0,0,3,2,0	71.0	47.0	0.138	1,2,3,0,0,0,0,0,0	to_board	s483
407.666	1.0	0	PA_without_intermediate	n/a	test	ward_and_allport	n/a	-1.0	47.0	n/a	n/a	feedback	s483
408.666	1.68	0	PA_without_intermediate	n/a	test	ward_and_allport	n/a	-1.0	47.0	n/a	n/a	ITI	s483
n/a	n/a	0	n/a	n/a	n/a	n/a	n/a	n/a	n/a	n/a	n/a	ITI	n/a
