onset	duration	SS_delay	correct_response	experiment_exp_id	key_press	response_time	stopped	trial_type	worker_id
3.008	0.85	0.3	89.0	stop_signal	89.0	0.583	False	go	s558
5.533	0.85	0.3	71.0	stop_signal	71.0	0.638	False	go	s558
7.786	0.85	0.3	89.0	stop_signal	89.0	0.528	False	stop_failure	s558
10.038	0.85	0.25	89.0	stop_signal	89.0	0.492	False	go	s558
12.29	0.85	0.25	71.0	stop_signal	71.0	0.603	False	go	s558
14.542	0.85	0.25	89.0	stop_signal	89.0	0.568	False	go	s558
16.93	0.85	0.25	89.0	stop_signal	89.0	0.565	False	go	s558
19.182	0.85	0.25	89.0	stop_signal	89.0	0.633	False	stop_failure	s558
21.435	0.85	0.2	89.0	stop_signal	89.0	0.618	False	go	s558
23.687	0.85	0.2	71.0	stop_signal	71.0	0.614	False	stop_failure	s558
25.94	0.85	0.15	71.0	stop_signal	-1.0	n/a	True	stop_success	s558
28.465	0.85	0.2	89.0	stop_signal	89.0	0.487	False	go	s558
30.853	0.85	0.2	71.0	stop_signal	71.0	0.546	False	go	s558
33.377	0.85	0.2	89.0	stop_signal	-1.0	n/a	True	stop_success	s558
35.63	0.85	0.25	89.0	stop_signal	89.0	0.617	False	go	s558
38.018	0.85	0.25	71.0	stop_signal	71.0	0.539	False	go	s558
40.407	0.85	0.25	71.0	stop_signal	71.0	0.593	False	go	s558
42.659	0.85	0.25	71.0	stop_signal	71.0	0.543	False	go	s558
45.048	0.85	0.25	89.0	stop_signal	89.0	0.507	False	go	s558
47.436	0.85	0.25	71.0	stop_signal	71.0	0.62	False	stop_failure	s558
49.824	0.85	0.2	89.0	stop_signal	89.0	0.494	False	go	s558
52.485	0.85	0.2	89.0	stop_signal	89.0	0.615	False	go	s558
55.01	0.85	0.2	89.0	stop_signal	-1.0	n/a	True	stop_success	s558
57.263	0.85	0.25	71.0	stop_signal	-1.0	n/a	True	stop_success	s558
60.194	0.85	0.3	71.0	stop_signal	71.0	0.611	False	go	s558
62.447	0.85	0.3	71.0	stop_signal	71.0	0.576	False	go	s558
64.971	0.85	0.3	71.0	stop_signal	71.0	0.551	False	stop_failure	s558
67.223	0.85	0.25	71.0	stop_signal	71.0	0.683	False	go	s558
69.475	0.85	0.25	89.0	stop_signal	89.0	0.605	False	go	s558
71.727	0.85	0.25	89.0	stop_signal	89.0	0.545	False	go	s558
73.98	0.85	0.25	89.0	stop_signal	89.0	0.492	False	go	s558
76.504	0.85	0.25	89.0	stop_signal	89.0	0.471	False	stop_failure	s558
79.573	0.85	0.2	89.0	stop_signal	-1.0	n/a	True	stop_success	s558
81.824	0.85	0.25	89.0	stop_signal	89.0	0.578	False	go	s558
84.213	0.85	0.25	71.0	stop_signal	-1.0	n/a	True	stop_success	s558
86.6	0.85	0.3	71.0	stop_signal	71.0	0.583	False	go	s558
89.125	0.85	0.3	71.0	stop_signal	89.0	0.497	False	go	s558
91.514	0.85	0.3	89.0	stop_signal	89.0	0.911	False	go	s558
93.902	0.85	0.3	89.0	stop_signal	89.0	0.66	False	stop_failure	s558
96.699	0.85	0.25	71.0	stop_signal	71.0	0.566	False	go	s558
99.088	0.85	0.25	71.0	stop_signal	-1.0	n/a	True	stop_success	s558
111.848	0.85	0.3	89.0	stop_signal	89.0	0.643	False	stop_failure	s558
114.373	0.85	0.25	71.0	stop_signal	-1.0	n/a	True	stop_success	s558
116.761	0.85	0.3	89.0	stop_signal	89.0	0.549	False	go	s558
119.15	0.85	0.3	71.0	stop_signal	-1.0	n/a	True	stop_success	s558
121.402	0.85	0.35	89.0	stop_signal	89.0	0.555	False	go	s558
123.791	0.85	0.35	89.0	stop_signal	89.0	0.736	False	go	s558
126.042	0.85	0.35	89.0	stop_signal	-1.0	n/a	True	stop_success	s558
128.294	0.85	0.4	89.0	stop_signal	89.0	0.807	False	go	s558
130.546	0.85	0.4	71.0	stop_signal	71.0	0.689	False	go	s558
132.935	0.85	0.4	71.0	stop_signal	71.0	0.649	False	stop_failure	s558
135.187	0.85	0.35	89.0	stop_signal	89.0	0.623	False	stop_failure	s558
137.44	0.85	0.3	89.0	stop_signal	-1.0	n/a	True	stop_success	s558
139.828	0.85	0.35	71.0	stop_signal	71.0	0.589	False	stop_failure	s558
142.216	0.85	0.3	89.0	stop_signal	89.0	0.68	False	go	s558
144.469	0.85	0.3	71.0	stop_signal	-1.0	n/a	True	stop_success	s558
146.993	0.85	0.35	71.0	stop_signal	71.0	0.716	False	go	s558
149.245	0.85	0.35	71.0	stop_signal	71.0	0.533	False	go	s558
151.634	0.85	0.35	89.0	stop_signal	89.0	0.748	False	go	s558
153.885	0.85	0.35	71.0	stop_signal	71.0	0.703	False	stop_failure	s558
156.138	0.85	0.3	89.0	stop_signal	89.0	0.759	False	go	s558
158.527	0.85	0.3	89.0	stop_signal	89.0	0.787	False	go	s558
161.051	0.85	0.3	71.0	stop_signal	71.0	0.652	False	go	s558
163.44	0.85	0.3	89.0	stop_signal	89.0	0.734	False	go	s558
165.965	0.85	0.3	89.0	stop_signal	-1.0	n/a	True	stop_success	s558
168.897	0.85	0.35	71.0	stop_signal	71.0	0.588	False	go	s558
171.421	0.85	0.35	71.0	stop_signal	71.0	0.627	False	go	s558
173.945	0.85	0.35	89.0	stop_signal	89.0	0.702	False	go	s558
176.198	0.85	0.35	71.0	stop_signal	-1.0	n/a	True	stop_success	s558
178.722	0.85	0.4	89.0	stop_signal	89.0	0.755	False	go	s558
181.111	0.85	0.4	71.0	stop_signal	71.0	0.831	False	go	s558
183.363	0.85	0.4	71.0	stop_signal	71.0	0.702	False	go	s558
185.751	0.85	0.4	89.0	stop_signal	89.0	0.662	False	go	s558
188.003	0.85	0.4	71.0	stop_signal	71.0	0.823	False	stop_failure	s558
190.391	0.85	0.35	89.0	stop_signal	89.0	0.683	False	go	s558
192.915	0.85	0.35	89.0	stop_signal	-1.0	n/a	True	stop_success	s558
195.167	0.85	0.4	89.0	stop_signal	89.0	0.699	False	stop_failure	s558
197.555	0.85	0.35	71.0	stop_signal	71.0	0.655	False	go	s558
200.215	0.85	0.35	89.0	stop_signal	-1.0	n/a	True	stop_success	s558
202.468	0.85	0.4	71.0	stop_signal	71.0	0.734	False	go	s558
205.672	0.85	0.4	71.0	stop_signal	71.0	0.709	False	go	s558
208.061	0.85	0.4	89.0	stop_signal	89.0	0.657	False	go	s558
210.449	0.85	0.4	71.0	stop_signal	71.0	0.624	False	stop_failure	s558
223.48	0.85	0.35	71.0	stop_signal	71.0	0.525	False	go	s558
225.732	0.85	0.35	89.0	stop_signal	89.0	0.613	False	stop_failure	s558
227.985	0.85	0.3	89.0	stop_signal	-1.0	n/a	True	stop_success	s558
230.237	0.85	0.35	89.0	stop_signal	89.0	0.661	False	go	s558
233.169	0.85	0.35	71.0	stop_signal	71.0	0.757	False	go	s558
235.693	0.85	0.35	89.0	stop_signal	89.0	0.747	False	go	s558
238.217	0.85	0.35	89.0	stop_signal	89.0	0.535	False	go	s558
240.469	0.85	0.35	71.0	stop_signal	-1.0	n/a	True	stop_success	s558
242.994	0.85	0.4	89.0	stop_signal	89.0	0.601	False	stop_failure	s558
245.247	0.85	0.35	89.0	stop_signal	89.0	0.656	False	go	s558
247.635	0.85	0.35	89.0	stop_signal	-1.0	n/a	True	stop_success	s558
249.888	0.85	0.4	71.0	stop_signal	71.0	0.636	False	go	s558
252.548	0.85	0.4	89.0	stop_signal	89.0	0.62	False	go	s558
255.208	0.85	0.4	71.0	stop_signal	71.0	0.639	False	go	s558
257.46	0.85	0.4	71.0	stop_signal	71.0	0.708	False	go	s558
259.712	0.85	0.4	71.0	stop_signal	71.0	0.822	False	go	s558
262.1	0.85	0.4	89.0	stop_signal	-1.0	n/a	True	stop_success	s558
264.897	0.85	0.45	71.0	stop_signal	71.0	0.703	False	stop_failure	s558
267.284	0.85	0.4	71.0	stop_signal	71.0	0.503	False	stop_failure	s558
269.537	0.85	0.35	71.0	stop_signal	-1.0	n/a	True	stop_success	s558
271.789	0.85	0.4	71.0	stop_signal	-1.0	n/a	True	stop_success	s558
274.041	0.85	0.45	71.0	stop_signal	71.0	1.101	False	go	s558
276.701	0.85	0.45	71.0	stop_signal	71.0	0.599	False	go	s558
279.361	0.85	0.45	71.0	stop_signal	71.0	0.624	False	go	s558
281.613	0.85	0.45	71.0	stop_signal	71.0	0.645	False	go	s558
284.138	0.85	0.45	89.0	stop_signal	89.0	0.618	False	go	s558
286.391	0.85	0.45	71.0	stop_signal	71.0	0.618	False	stop_failure	s558
288.915	0.85	0.4	71.0	stop_signal	71.0	0.681	False	go	s558
291.44	0.85	0.4	89.0	stop_signal	89.0	0.629	False	stop_failure	s558
293.964	0.85	0.35	89.0	stop_signal	-1.0	n/a	True	stop_success	s558
296.352	0.85	0.4	89.0	stop_signal	-1.0	n/a	True	stop_success	s558
298.877	0.85	0.45	89.0	stop_signal	89.0	0.671	False	go	s558
301.4	0.85	0.45	71.0	stop_signal	71.0	0.534	False	go	s558
303.789	0.85	0.45	89.0	stop_signal	89.0	0.579	False	go	s558
306.041	0.85	0.45	71.0	stop_signal	71.0	0.572	False	go	s558
308.566	0.85	0.45	71.0	stop_signal	71.0	0.487	False	go	s558
311.362	0.85	0.45	89.0	stop_signal	89.0	0.701	False	stop_failure	s558
313.887	0.85	0.4	89.0	stop_signal	-1.0	n/a	True	stop_success	s558
316.276	0.85	0.45	71.0	stop_signal	71.0	0.684	False	go	s558
318.528	0.85	0.45	89.0	stop_signal	89.0	0.705	False	stop_failure	s558
320.78	0.85	0.4	71.0	stop_signal	71.0	0.663	False	stop_failure	s558
323.032	0.85	0.35	71.0	stop_signal	-1.0	n/a	True	stop_success	s558
