onset	duration	planning	condition	current_position	exp_stage	experiment_exp_id	goal_state	key_press	problem_id	response_time	start_state	trial_id	worker_id
-66.368	0.0	0	n/a	n/a	n/a	ward_and_allport	n/a	32.0	n/a	29.278	n/a	instructions	s558
3.008	4.956	1	UA_with_intermediate	1,0,0,2,0,0,0,0,0	practice	ward_and_allport	1,2,3,0,0,0,0,0,0	71.0	0.0	4.956	1,0,0,2,3,0,0,0,0	to_hand	s558
7.965	0.881	0	UA_with_intermediate	1,0,0,2,0,0,3,0,0	practice	ward_and_allport	1,2,3,0,0,0,0,0,0	82.0	0.0	0.881	1,0,0,2,3,0,0,0,0	to_board	s558
8.848	1.388	0	UA_with_intermediate	1,0,0,0,0,0,3,0,0	practice	ward_and_allport	1,2,3,0,0,0,0,0,0	71.0	0.0	1.388	1,0,0,2,3,0,0,0,0	to_hand	s558
10.237	0.963	0	UA_with_intermediate	1,2,0,0,0,0,3,0,0	practice	ward_and_allport	1,2,3,0,0,0,0,0,0	89.0	0.0	0.963	1,0,0,2,3,0,0,0,0	to_board	s558
11.201	0.852	0	UA_with_intermediate	1,2,0,0,0,0,0,0,0	practice	ward_and_allport	1,2,3,0,0,0,0,0,0	82.0	0.0	0.852	1,0,0,2,3,0,0,0,0	to_hand	s558
12.054	0.483	0	UA_with_intermediate	1,2,3,0,0,0,0,0,0	practice	ward_and_allport	1,2,3,0,0,0,0,0,0	89.0	0.0	0.483	1,0,0,2,3,0,0,0,0	to_board	s558
12.541	1.0	0	UA_with_intermediate	n/a	practice	ward_and_allport	n/a	-1.0	0.0	n/a	n/a	feedback	s558
15.043	5.386	1	UA_with_intermediate	1,0,0,3,0,0,0,0,0	practice	ward_and_allport	1,3,2,0,0,0,0,0,0	89.0	1.0	5.386	1,2,0,3,0,0,0,0,0	to_hand	s558
20.43	0.611	0	UA_with_intermediate	1,0,0,3,0,0,2,0,0	practice	ward_and_allport	1,3,2,0,0,0,0,0,0	82.0	1.0	0.611	1,2,0,3,0,0,0,0,0	to_board	s558
21.042	0.497	0	UA_with_intermediate	1,0,0,0,0,0,2,0,0	practice	ward_and_allport	1,3,2,0,0,0,0,0,0	71.0	1.0	0.497	1,2,0,3,0,0,0,0,0	to_hand	s558
21.541	0.541	0	UA_with_intermediate	1,3,0,0,0,0,2,0,0	practice	ward_and_allport	1,3,2,0,0,0,0,0,0	89.0	1.0	0.541	1,2,0,3,0,0,0,0,0	to_board	s558
22.083	0.583	0	UA_with_intermediate	1,3,0,0,0,0,0,0,0	practice	ward_and_allport	1,3,2,0,0,0,0,0,0	82.0	1.0	0.583	1,2,0,3,0,0,0,0,0	to_hand	s558
22.667	0.412	0	UA_with_intermediate	1,3,2,0,0,0,0,0,0	practice	ward_and_allport	1,3,2,0,0,0,0,0,0	89.0	1.0	0.412	1,2,0,3,0,0,0,0,0	to_board	s558
23.081	1.0	0	UA_with_intermediate	n/a	practice	ward_and_allport	n/a	-1.0	1.0	n/a	n/a	feedback	s558
24.081	1.1	0	UA_with_intermediate	n/a	practice	ward_and_allport	n/a	-1.0	1.0	n/a	n/a	ITI	s558
25.183	6.815	1	UA_without_intermediate	0,0,0,1,2,0,0,0,0	practice	ward_and_allport	3,2,1,0,0,0,0,0,0	82.0	2.0	6.815	0,0,0,1,2,0,3,0,0	to_hand	s558
32.0	0.438	0	UA_without_intermediate	3,0,0,1,2,0,0,0,0	practice	ward_and_allport	3,2,1,0,0,0,0,0,0	89.0	2.0	0.438	0,0,0,1,2,0,3,0,0	to_board	s558
32.441	0.769	0	UA_without_intermediate	3,0,0,1,0,0,0,0,0	practice	ward_and_allport	3,2,1,0,0,0,0,0,0	71.0	2.0	0.769	0,0,0,1,2,0,3,0,0	to_hand	s558
33.21	0.417	0	UA_without_intermediate	3,2,0,1,0,0,0,0,0	practice	ward_and_allport	3,2,1,0,0,0,0,0,0	89.0	2.0	0.417	0,0,0,1,2,0,3,0,0	to_board	s558
33.628	1.276	0	UA_without_intermediate	3,2,0,0,0,0,0,0,0	practice	ward_and_allport	3,2,1,0,0,0,0,0,0	71.0	2.0	1.276	0,0,0,1,2,0,3,0,0	to_hand	s558
34.905	0.281	0	UA_without_intermediate	3,2,1,0,0,0,0,0,0	practice	ward_and_allport	3,2,1,0,0,0,0,0,0	89.0	2.0	0.281	0,0,0,1,2,0,3,0,0	to_board	s558
35.19	1.0	0	UA_without_intermediate	n/a	practice	ward_and_allport	n/a	-1.0	2.0	n/a	n/a	feedback	s558
36.19	1.2	0	UA_without_intermediate	n/a	practice	ward_and_allport	n/a	-1.0	2.0	n/a	n/a	ITI	s558
37.392	5.57	1	UA_without_intermediate	0,0,0,1,0,0,3,0,0	practice	ward_and_allport	2,3,1,0,0,0,0,0,0	71.0	3.0	5.57	0,0,0,1,2,0,3,0,0	to_hand	s558
42.963	0.588	0	UA_without_intermediate	2,0,0,1,0,0,3,0,0	practice	ward_and_allport	2,3,1,0,0,0,0,0,0	89.0	3.0	0.588	0,0,0,1,2,0,3,0,0	to_board	s558
43.553	0.918	0	UA_without_intermediate	2,0,0,1,0,0,0,0,0	practice	ward_and_allport	2,3,1,0,0,0,0,0,0	82.0	3.0	0.918	0,0,0,1,2,0,3,0,0	to_hand	s558
44.472	0.402	0	UA_without_intermediate	2,3,0,1,0,0,0,0,0	practice	ward_and_allport	2,3,1,0,0,0,0,0,0	89.0	3.0	0.402	0,0,0,1,2,0,3,0,0	to_board	s558
44.876	0.4	0	UA_without_intermediate	2,3,0,0,0,0,0,0,0	practice	ward_and_allport	2,3,1,0,0,0,0,0,0	71.0	3.0	0.4	0,0,0,1,2,0,3,0,0	to_hand	s558
45.277	0.463	0	UA_without_intermediate	2,3,1,0,0,0,0,0,0	practice	ward_and_allport	2,3,1,0,0,0,0,0,0	89.0	3.0	0.463	0,0,0,1,2,0,3,0,0	to_board	s558
45.744	1.0	0	UA_without_intermediate	n/a	practice	ward_and_allport	n/a	-1.0	3.0	n/a	n/a	feedback	s558
46.744	1.0	0	UA_without_intermediate	n/a	practice	ward_and_allport	n/a	-1.0	3.0	n/a	n/a	ITI	s558
49.748	7.603	1	PA_with_intermediate	1,2,0,0,0,0,0,0,0	test	ward_and_allport	1,0,0,2,3,0,0,0,0	89.0	0.0	7.603	1,2,3,0,0,0,0,0,0	to_hand	s558
57.352	0.58	0	PA_with_intermediate	1,2,0,0,0,0,3,0,0	test	ward_and_allport	1,0,0,2,3,0,0,0,0	82.0	0.0	0.58	1,2,3,0,0,0,0,0,0	to_board	s558
57.934	1.165	0	PA_with_intermediate	1,0,0,0,0,0,3,0,0	test	ward_and_allport	1,0,0,2,3,0,0,0,0	89.0	0.0	1.165	1,2,3,0,0,0,0,0,0	to_hand	s558
59.099	0.82	0	PA_with_intermediate	1,0,0,2,0,0,3,0,0	test	ward_and_allport	1,0,0,2,3,0,0,0,0	71.0	0.0	0.82	1,2,3,0,0,0,0,0,0	to_board	s558
59.922	1.716	0	PA_with_intermediate	1,0,0,2,0,0,0,0,0	test	ward_and_allport	1,0,0,2,3,0,0,0,0	82.0	0.0	1.716	1,2,3,0,0,0,0,0,0	to_hand	s558
61.639	0.405	0	PA_with_intermediate	1,0,0,2,3,0,0,0,0	test	ward_and_allport	1,0,0,2,3,0,0,0,0	71.0	0.0	0.405	1,2,3,0,0,0,0,0,0	to_board	s558
62.046	1.0	0	PA_with_intermediate	n/a	test	ward_and_allport	n/a	-1.0	0.0	n/a	n/a	feedback	s558
63.046	2.768	0	PA_with_intermediate	n/a	test	ward_and_allport	n/a	-1.0	0.0	n/a	n/a	ITI	s558
65.816	5.505	1	PA_with_intermediate	1,2,0,0,0,0,0,0,0	test	ward_and_allport	1,0,0,0,0,0,2,3,0	89.0	1.0	5.505	1,2,3,0,0,0,0,0,0	to_hand	s558
71.322	0.619	0	PA_with_intermediate	1,2,0,3,0,0,0,0,0	test	ward_and_allport	1,0,0,0,0,0,2,3,0	71.0	1.0	0.619	1,2,3,0,0,0,0,0,0	to_board	s558
71.943	0.864	0	PA_with_intermediate	1,0,0,3,0,0,0,0,0	test	ward_and_allport	1,0,0,0,0,0,2,3,0	89.0	1.0	0.864	1,2,3,0,0,0,0,0,0	to_hand	s558
72.808	0.356	0	PA_with_intermediate	1,0,0,3,0,0,2,0,0	test	ward_and_allport	1,0,0,0,0,0,2,3,0	82.0	1.0	0.356	1,2,3,0,0,0,0,0,0	to_board	s558
73.167	0.521	0	PA_with_intermediate	1,0,0,0,0,0,2,0,0	test	ward_and_allport	1,0,0,0,0,0,2,3,0	71.0	1.0	0.521	1,2,3,0,0,0,0,0,0	to_hand	s558
73.688	0.442	0	PA_with_intermediate	1,0,0,0,0,0,2,3,0	test	ward_and_allport	1,0,0,0,0,0,2,3,0	82.0	1.0	0.442	1,2,3,0,0,0,0,0,0	to_board	s558
74.133	1.0	0	PA_with_intermediate	n/a	test	ward_and_allport	n/a	-1.0	1.0	n/a	n/a	feedback	s558
75.133	1.68	0	PA_with_intermediate	n/a	test	ward_and_allport	n/a	-1.0	1.0	n/a	n/a	ITI	s558
76.815	5.872	1	PA_without_intermediate	0,0,0,0,0,0,1,2,0	test	ward_and_allport	3,1,0,2,0,0,0,0,0	82.0	2.0	5.872	0,0,0,0,0,0,1,2,3	to_hand	s558
82.688	0.57	0	PA_without_intermediate	3,0,0,0,0,0,1,2,0	test	ward_and_allport	3,1,0,2,0,0,0,0,0	89.0	2.0	0.57	0,0,0,0,0,0,1,2,3	to_board	s558
83.261	2.629	0	PA_without_intermediate	3,0,0,0,0,0,1,0,0	test	ward_and_allport	3,1,0,2,0,0,0,0,0	82.0	2.0	2.629	0,0,0,0,0,0,1,2,3	to_hand	s558
85.891	0.389	0	PA_without_intermediate	3,0,0,2,0,0,1,0,0	test	ward_and_allport	3,1,0,2,0,0,0,0,0	71.0	2.0	0.389	0,0,0,0,0,0,1,2,3	to_board	s558
86.283	0.866	0	PA_without_intermediate	3,0,0,2,0,0,0,0,0	test	ward_and_allport	3,1,0,2,0,0,0,0,0	82.0	2.0	0.866	0,0,0,0,0,0,1,2,3	to_hand	s558
87.15	0.446	0	PA_without_intermediate	3,1,0,2,0,0,0,0,0	test	ward_and_allport	3,1,0,2,0,0,0,0,0	89.0	2.0	0.446	0,0,0,0,0,0,1,2,3	to_board	s558
87.599	1.0	0	PA_without_intermediate	n/a	test	ward_and_allport	n/a	-1.0	2.0	n/a	n/a	feedback	s558
88.599	2.224	0	PA_without_intermediate	n/a	test	ward_and_allport	n/a	-1.0	2.0	n/a	n/a	ITI	s558
90.826	5.721	1	PA_without_intermediate	1,2,0,0,0,0,0,0,0	test	ward_and_allport	0,0,0,2,0,0,3,1,0	89.0	3.0	5.721	1,2,3,0,0,0,0,0,0	to_hand	s558
96.548	0.594	0	PA_without_intermediate	1,2,0,0,0,0,3,0,0	test	ward_and_allport	0,0,0,2,0,0,3,1,0	82.0	3.0	0.594	1,2,3,0,0,0,0,0,0	to_board	s558
97.145	0.681	0	PA_without_intermediate	1,0,0,0,0,0,3,0,0	test	ward_and_allport	0,0,0,2,0,0,3,1,0	89.0	3.0	0.681	1,2,3,0,0,0,0,0,0	to_hand	s558
97.827	0.77	0	PA_without_intermediate	1,0,0,2,0,0,3,0,0	test	ward_and_allport	0,0,0,2,0,0,3,1,0	71.0	3.0	0.77	1,2,3,0,0,0,0,0,0	to_board	s558
98.599	0.849	0	PA_without_intermediate	0,0,0,2,0,0,3,0,0	test	ward_and_allport	0,0,0,2,0,0,3,1,0	89.0	3.0	0.849	1,2,3,0,0,0,0,0,0	to_hand	s558
99.449	0.392	0	PA_without_intermediate	0,0,0,2,0,0,3,1,0	test	ward_and_allport	0,0,0,2,0,0,3,1,0	82.0	3.0	0.392	1,2,3,0,0,0,0,0,0	to_board	s558
99.844	1.0	0	PA_without_intermediate	n/a	test	ward_and_allport	n/a	-1.0	3.0	n/a	n/a	feedback	s558
100.844	2.36	0	PA_without_intermediate	n/a	test	ward_and_allport	n/a	-1.0	3.0	n/a	n/a	ITI	s558
103.207	5.862	1	PA_without_intermediate	1,2,0,0,0,0,0,0,0	test	ward_and_allport	0,0,0,3,1,0,2,0,0	89.0	4.0	5.862	1,2,3,0,0,0,0,0,0	to_hand	s558
109.069	0.506	0	PA_without_intermediate	1,2,0,3,0,0,0,0,0	test	ward_and_allport	0,0,0,3,1,0,2,0,0	71.0	4.0	0.506	1,2,3,0,0,0,0,0,0	to_board	s558
109.578	1.005	0	PA_without_intermediate	1,0,0,3,0,0,0,0,0	test	ward_and_allport	0,0,0,3,1,0,2,0,0	89.0	4.0	1.005	1,2,3,0,0,0,0,0,0	to_hand	s558
110.583	0.367	0	PA_without_intermediate	1,0,0,3,0,0,2,0,0	test	ward_and_allport	0,0,0,3,1,0,2,0,0	82.0	4.0	0.367	1,2,3,0,0,0,0,0,0	to_board	s558
110.952	0.439	0	PA_without_intermediate	0,0,0,3,0,0,2,0,0	test	ward_and_allport	0,0,0,3,1,0,2,0,0	89.0	4.0	0.439	1,2,3,0,0,0,0,0,0	to_hand	s558
111.392	0.341	0	PA_without_intermediate	0,0,0,3,1,0,2,0,0	test	ward_and_allport	0,0,0,3,1,0,2,0,0	71.0	4.0	0.341	1,2,3,0,0,0,0,0,0	to_board	s558
111.737	1.0	0	PA_without_intermediate	n/a	test	ward_and_allport	n/a	-1.0	4.0	n/a	n/a	feedback	s558
112.737	1.0	0	PA_without_intermediate	n/a	test	ward_and_allport	n/a	-1.0	4.0	n/a	n/a	ITI	s558
113.74	4.203	1	PA_without_intermediate	1,2,0,0,0,0,0,0,0	test	ward_and_allport	0,0,0,3,1,0,2,0,0	89.0	5.0	4.203	1,2,3,0,0,0,0,0,0	to_hand	s558
117.944	0.47	0	PA_without_intermediate	1,2,0,3,0,0,0,0,0	test	ward_and_allport	0,0,0,3,1,0,2,0,0	71.0	5.0	0.47	1,2,3,0,0,0,0,0,0	to_board	s558
118.418	0.386	0	PA_without_intermediate	1,0,0,3,0,0,0,0,0	test	ward_and_allport	0,0,0,3,1,0,2,0,0	89.0	5.0	0.386	1,2,3,0,0,0,0,0,0	to_hand	s558
118.805	0.502	0	PA_without_intermediate	1,0,0,3,0,0,2,0,0	test	ward_and_allport	0,0,0,3,1,0,2,0,0	82.0	5.0	0.502	1,2,3,0,0,0,0,0,0	to_board	s558
119.31	0.378	0	PA_without_intermediate	0,0,0,3,0,0,2,0,0	test	ward_and_allport	0,0,0,3,1,0,2,0,0	89.0	5.0	0.378	1,2,3,0,0,0,0,0,0	to_hand	s558
119.69	0.322	0	PA_without_intermediate	0,0,0,3,1,0,2,0,0	test	ward_and_allport	0,0,0,3,1,0,2,0,0	71.0	5.0	0.322	1,2,3,0,0,0,0,0,0	to_board	s558
120.016	1.0	0	PA_without_intermediate	n/a	test	ward_and_allport	n/a	-1.0	5.0	n/a	n/a	feedback	s558
121.016	1.408	0	PA_without_intermediate	n/a	test	ward_and_allport	n/a	-1.0	5.0	n/a	n/a	ITI	s558
122.427	6.178	1	PA_with_intermediate	0,0,0,0,0,0,1,2,0	test	ward_and_allport	0,0,0,2,3,0,1,0,0	82.0	6.0	6.178	0,0,0,0,0,0,1,2,3	to_hand	s558
128.606	0.475	0	PA_with_intermediate	3,0,0,0,0,0,1,2,0	test	ward_and_allport	0,0,0,2,3,0,1,0,0	89.0	6.0	0.475	0,0,0,0,0,0,1,2,3	to_board	s558
129.085	0.878	0	PA_with_intermediate	3,0,0,0,0,0,1,0,0	test	ward_and_allport	0,0,0,2,3,0,1,0,0	82.0	6.0	0.878	0,0,0,0,0,0,1,2,3	to_hand	s558
129.964	0.308	0	PA_with_intermediate	3,0,0,2,0,0,1,0,0	test	ward_and_allport	0,0,0,2,3,0,1,0,0	71.0	6.0	0.308	0,0,0,0,0,0,1,2,3	to_board	s558
130.275	0.405	0	PA_with_intermediate	0,0,0,2,0,0,1,0,0	test	ward_and_allport	0,0,0,2,3,0,1,0,0	89.0	6.0	0.405	0,0,0,0,0,0,1,2,3	to_hand	s558
130.681	0.204	0	PA_with_intermediate	0,0,0,2,3,0,1,0,0	test	ward_and_allport	0,0,0,2,3,0,1,0,0	71.0	6.0	0.204	0,0,0,0,0,0,1,2,3	to_board	s558
130.89	1.0	0	PA_with_intermediate	n/a	test	ward_and_allport	n/a	-1.0	6.0	n/a	n/a	feedback	s558
131.89	1.136	0	PA_with_intermediate	n/a	test	ward_and_allport	n/a	-1.0	6.0	n/a	n/a	ITI	s558
133.03	7.139	1	PA_without_intermediate	0,0,0,0,0,0,1,2,0	test	ward_and_allport	3,2,0,1,0,0,0,0,0	82.0	7.0	7.139	0,0,0,0,0,0,1,2,3	to_hand	s558
140.17	0.331	0	PA_without_intermediate	3,0,0,0,0,0,1,2,0	test	ward_and_allport	3,2,0,1,0,0,0,0,0	89.0	7.0	0.331	0,0,0,0,0,0,1,2,3	to_board	s558
140.505	2.044	0	PA_without_intermediate	3,0,0,0,0,0,1,0,0	test	ward_and_allport	3,2,0,1,0,0,0,0,0	82.0	7.0	2.044	0,0,0,0,0,0,1,2,3	to_hand	s558
142.55	0.257	0	PA_without_intermediate	3,2,0,0,0,0,1,0,0	test	ward_and_allport	3,2,0,1,0,0,0,0,0	89.0	7.0	0.257	0,0,0,0,0,0,1,2,3	to_board	s558
142.811	1.347	0	PA_without_intermediate	3,2,0,0,0,0,0,0,0	test	ward_and_allport	3,2,0,1,0,0,0,0,0	82.0	7.0	1.347	0,0,0,0,0,0,1,2,3	to_hand	s558
144.159	0.246	0	PA_without_intermediate	3,2,0,1,0,0,0,0,0	test	ward_and_allport	3,2,0,1,0,0,0,0,0	71.0	7.0	0.246	0,0,0,0,0,0,1,2,3	to_board	s558
144.409	1.0	0	PA_without_intermediate	n/a	test	ward_and_allport	n/a	-1.0	7.0	n/a	n/a	feedback	s558
145.409	4.128	0	PA_without_intermediate	n/a	test	ward_and_allport	n/a	-1.0	7.0	n/a	n/a	ITI	s558
149.541	5.456	1	PA_without_intermediate	0,0,0,1,2,0,0,0,0	test	ward_and_allport	1,0,0,0,0,0,3,2,0	71.0	8.0	5.456	0,0,0,1,2,3,0,0,0	to_hand	s558
154.998	0.427	0	PA_without_intermediate	0,0,0,1,2,0,3,0,0	test	ward_and_allport	1,0,0,0,0,0,3,2,0	82.0	8.0	0.427	0,0,0,1,2,3,0,0,0	to_board	s558
155.428	0.465	0	PA_without_intermediate	0,0,0,1,0,0,3,0,0	test	ward_and_allport	1,0,0,0,0,0,3,2,0	71.0	8.0	0.465	0,0,0,1,2,3,0,0,0	to_hand	s558
155.894	0.371	0	PA_without_intermediate	0,0,0,1,0,0,3,2,0	test	ward_and_allport	1,0,0,0,0,0,3,2,0	82.0	8.0	0.371	0,0,0,1,2,3,0,0,0	to_board	s558
156.269	1.029	0	PA_without_intermediate	0,0,0,0,0,0,3,2,0	test	ward_and_allport	1,0,0,0,0,0,3,2,0	71.0	8.0	1.029	0,0,0,1,2,3,0,0,0	to_hand	s558
157.299	0.256	0	PA_without_intermediate	1,0,0,0,0,0,3,2,0	test	ward_and_allport	1,0,0,0,0,0,3,2,0	89.0	8.0	0.256	0,0,0,1,2,3,0,0,0	to_board	s558
157.559	1.0	0	PA_without_intermediate	n/a	test	ward_and_allport	n/a	-1.0	8.0	n/a	n/a	feedback	s558
158.559	1.136	0	PA_without_intermediate	n/a	test	ward_and_allport	n/a	-1.0	8.0	n/a	n/a	ITI	s558
159.698	5.924	1	PA_without_intermediate	0,0,0,1,2,0,0,0,0	test	ward_and_allport	2,0,0,0,0,0,3,1,0	71.0	9.0	5.924	0,0,0,1,2,3,0,0,0	to_hand	s558
165.623	0.377	0	PA_without_intermediate	0,0,0,1,2,0,3,0,0	test	ward_and_allport	2,0,0,0,0,0,3,1,0	82.0	9.0	0.377	0,0,0,1,2,3,0,0,0	to_board	s558
166.003	0.637	0	PA_without_intermediate	0,0,0,1,0,0,3,0,0	test	ward_and_allport	2,0,0,0,0,0,3,1,0	71.0	9.0	0.637	0,0,0,1,2,3,0,0,0	to_hand	s558
166.641	0.319	0	PA_without_intermediate	2,0,0,1,0,0,3,0,0	test	ward_and_allport	2,0,0,0,0,0,3,1,0	89.0	9.0	0.319	0,0,0,1,2,3,0,0,0	to_board	s558
166.964	0.331	0	PA_without_intermediate	2,0,0,0,0,0,3,0,0	test	ward_and_allport	2,0,0,0,0,0,3,1,0	71.0	9.0	0.331	0,0,0,1,2,3,0,0,0	to_hand	s558
167.295	0.433	0	PA_without_intermediate	2,0,0,0,0,0,3,1,0	test	ward_and_allport	2,0,0,0,0,0,3,1,0	82.0	9.0	0.433	0,0,0,1,2,3,0,0,0	to_board	s558
167.733	1.0	0	PA_without_intermediate	n/a	test	ward_and_allport	n/a	-1.0	9.0	n/a	n/a	feedback	s558
168.733	4.264	0	PA_without_intermediate	n/a	test	ward_and_allport	n/a	-1.0	9.0	n/a	n/a	ITI	s558
173.0	10.441	1	PA_with_intermediate	1,2,0,0,0,0,0,0,0	test	ward_and_allport	1,3,0,0,0,0,2,0,0	89.0	10.0	10.441	1,2,3,0,0,0,0,0,0	to_hand	s558
183.442	0.209	0	PA_with_intermediate	1,2,0,3,0,0,0,0,0	test	ward_and_allport	1,3,0,0,0,0,2,0,0	71.0	10.0	0.209	1,2,3,0,0,0,0,0,0	to_board	s558
183.656	0.33	0	PA_with_intermediate	1,0,0,3,0,0,0,0,0	test	ward_and_allport	1,3,0,0,0,0,2,0,0	89.0	10.0	0.33	1,2,3,0,0,0,0,0,0	to_hand	s558
183.987	0.383	0	PA_with_intermediate	1,0,0,3,0,0,2,0,0	test	ward_and_allport	1,3,0,0,0,0,2,0,0	82.0	10.0	0.383	1,2,3,0,0,0,0,0,0	to_board	s558
184.374	0.456	0	PA_with_intermediate	1,0,0,0,0,0,2,0,0	test	ward_and_allport	1,3,0,0,0,0,2,0,0	71.0	10.0	0.456	1,2,3,0,0,0,0,0,0	to_hand	s558
184.83	0.227	0	PA_with_intermediate	1,3,0,0,0,0,2,0,0	test	ward_and_allport	1,3,0,0,0,0,2,0,0	89.0	10.0	0.227	1,2,3,0,0,0,0,0,0	to_board	s558
185.063	1.0	0	PA_with_intermediate	n/a	test	ward_and_allport	n/a	-1.0	10.0	n/a	n/a	feedback	s558
186.063	3.04	0	PA_with_intermediate	n/a	test	ward_and_allport	n/a	-1.0	10.0	n/a	n/a	ITI	s558
189.106	4.584	1	PA_with_intermediate	0,0,0,0,0,0,1,2,0	test	ward_and_allport	0,0,0,2,3,0,1,0,0	82.0	11.0	4.584	0,0,0,0,0,0,1,2,3	to_hand	s558
193.692	0.239	0	PA_with_intermediate	3,0,0,0,0,0,1,2,0	test	ward_and_allport	0,0,0,2,3,0,1,0,0	89.0	11.0	0.239	0,0,0,0,0,0,1,2,3	to_board	s558
193.938	0.324	0	PA_with_intermediate	3,0,0,0,0,0,1,0,0	test	ward_and_allport	0,0,0,2,3,0,1,0,0	82.0	11.0	0.324	0,0,0,0,0,0,1,2,3	to_hand	s558
194.262	0.335	0	PA_with_intermediate	3,0,0,2,0,0,1,0,0	test	ward_and_allport	0,0,0,2,3,0,1,0,0	71.0	11.0	0.335	0,0,0,0,0,0,1,2,3	to_board	s558
194.602	0.37	0	PA_with_intermediate	0,0,0,2,0,0,1,0,0	test	ward_and_allport	0,0,0,2,3,0,1,0,0	89.0	11.0	0.37	0,0,0,0,0,0,1,2,3	to_hand	s558
194.973	0.217	0	PA_with_intermediate	0,0,0,2,3,0,1,0,0	test	ward_and_allport	0,0,0,2,3,0,1,0,0	71.0	11.0	0.217	0,0,0,0,0,0,1,2,3	to_board	s558
195.195	1.0	0	PA_with_intermediate	n/a	test	ward_and_allport	n/a	-1.0	11.0	n/a	n/a	feedback	s558
196.195	1.136	0	PA_with_intermediate	n/a	test	ward_and_allport	n/a	-1.0	11.0	n/a	n/a	ITI	s558
197.337	5.157	1	PA_with_intermediate	0,0,0,1,2,0,0,0,0	test	ward_and_allport	0,0,0,1,0,0,2,3,0	71.0	12.0	5.157	0,0,0,1,2,3,0,0,0	to_hand	s558
202.495	0.297	0	PA_with_intermediate	3,0,0,1,2,0,0,0,0	test	ward_and_allport	0,0,0,1,0,0,2,3,0	89.0	12.0	0.297	0,0,0,1,2,3,0,0,0	to_board	s558
202.796	0.484	0	PA_with_intermediate	3,0,0,1,0,0,0,0,0	test	ward_and_allport	0,0,0,1,0,0,2,3,0	71.0	12.0	0.484	0,0,0,1,2,3,0,0,0	to_hand	s558
203.281	0.316	0	PA_with_intermediate	3,0,0,1,0,0,2,0,0	test	ward_and_allport	0,0,0,1,0,0,2,3,0	82.0	12.0	0.316	0,0,0,1,2,3,0,0,0	to_board	s558
203.601	0.315	0	PA_with_intermediate	0,0,0,1,0,0,2,0,0	test	ward_and_allport	0,0,0,1,0,0,2,3,0	89.0	12.0	0.315	0,0,0,1,2,3,0,0,0	to_hand	s558
203.917	0.251	0	PA_with_intermediate	0,0,0,1,0,0,2,3,0	test	ward_and_allport	0,0,0,1,0,0,2,3,0	82.0	12.0	0.251	0,0,0,1,2,3,0,0,0	to_board	s558
204.174	1.0	0	PA_with_intermediate	n/a	test	ward_and_allport	n/a	-1.0	12.0	n/a	n/a	feedback	s558
205.174	1.408	0	PA_with_intermediate	n/a	test	ward_and_allport	n/a	-1.0	12.0	n/a	n/a	ITI	s558
206.586	3.79	1	PA_without_intermediate	0,0,0,0,0,0,1,2,0	test	ward_and_allport	3,2,0,1,0,0,0,0,0	82.0	13.0	3.79	0,0,0,0,0,0,1,2,3	to_hand	s558
210.377	0.528	0	PA_without_intermediate	3,0,0,0,0,0,1,2,0	test	ward_and_allport	3,2,0,1,0,0,0,0,0	89.0	13.0	0.528	0,0,0,0,0,0,1,2,3	to_board	s558
210.91	0.874	0	PA_without_intermediate	3,0,0,0,0,0,1,0,0	test	ward_and_allport	3,2,0,1,0,0,0,0,0	82.0	13.0	0.874	0,0,0,0,0,0,1,2,3	to_hand	s558
211.786	0.168	0	PA_without_intermediate	3,2,0,0,0,0,1,0,0	test	ward_and_allport	3,2,0,1,0,0,0,0,0	89.0	13.0	0.168	0,0,0,0,0,0,1,2,3	to_board	s558
211.958	1.048	0	PA_without_intermediate	3,2,0,0,0,0,0,0,0	test	ward_and_allport	3,2,0,1,0,0,0,0,0	82.0	13.0	1.048	0,0,0,0,0,0,1,2,3	to_hand	s558
213.008	0.153	0	PA_without_intermediate	3,2,0,1,0,0,0,0,0	test	ward_and_allport	3,2,0,1,0,0,0,0,0	71.0	13.0	0.153	0,0,0,0,0,0,1,2,3	to_board	s558
213.166	1.0	0	PA_without_intermediate	n/a	test	ward_and_allport	n/a	-1.0	13.0	n/a	n/a	feedback	s558
214.166	1.68	0	PA_without_intermediate	n/a	test	ward_and_allport	n/a	-1.0	13.0	n/a	n/a	ITI	s558
215.85	4.383	1	PA_with_intermediate	0,0,0,0,0,0,1,2,0	test	ward_and_allport	2,3,0,0,0,0,1,0,0	82.0	14.0	4.383	0,0,0,0,0,0,1,2,3	to_hand	s558
220.234	0.203	0	PA_with_intermediate	0,0,0,3,0,0,1,2,0	test	ward_and_allport	2,3,0,0,0,0,1,0,0	71.0	14.0	0.203	0,0,0,0,0,0,1,2,3	to_board	s558
220.441	0.395	0	PA_with_intermediate	0,0,0,3,0,0,1,0,0	test	ward_and_allport	2,3,0,0,0,0,1,0,0	82.0	14.0	0.395	0,0,0,0,0,0,1,2,3	to_hand	s558
220.838	0.475	0	PA_with_intermediate	2,0,0,3,0,0,1,0,0	test	ward_and_allport	2,3,0,0,0,0,1,0,0	89.0	14.0	0.475	0,0,0,0,0,0,1,2,3	to_board	s558
221.317	2.04	0	PA_with_intermediate	2,0,0,0,0,0,1,0,0	test	ward_and_allport	2,3,0,0,0,0,1,0,0	71.0	14.0	2.04	0,0,0,0,0,0,1,2,3	to_hand	s558
223.358	0.18	0	PA_with_intermediate	2,3,0,0,0,0,1,0,0	test	ward_and_allport	2,3,0,0,0,0,1,0,0	89.0	14.0	0.18	0,0,0,0,0,0,1,2,3	to_board	s558
223.543	1.0	0	PA_with_intermediate	n/a	test	ward_and_allport	n/a	-1.0	14.0	n/a	n/a	feedback	s558
224.543	3.72	0	PA_with_intermediate	n/a	test	ward_and_allport	n/a	-1.0	14.0	n/a	n/a	ITI	s558
233.268	3.433	1	PA_without_intermediate	0,0,0,1,2,0,0,0,0	test	ward_and_allport	3,1,0,0,0,0,2,0,0	71.0	15.0	3.433	0,0,0,1,2,3,0,0,0	to_hand	s558
236.701	0.256	0	PA_without_intermediate	3,0,0,1,2,0,0,0,0	test	ward_and_allport	3,1,0,0,0,0,2,0,0	89.0	15.0	0.256	0,0,0,1,2,3,0,0,0	to_board	s558
236.961	0.769	0	PA_without_intermediate	3,0,0,1,0,0,0,0,0	test	ward_and_allport	3,1,0,0,0,0,2,0,0	71.0	15.0	0.769	0,0,0,1,2,3,0,0,0	to_hand	s558
237.731	0.282	0	PA_without_intermediate	3,0,0,1,0,0,2,0,0	test	ward_and_allport	3,1,0,0,0,0,2,0,0	82.0	15.0	0.282	0,0,0,1,2,3,0,0,0	to_board	s558
238.018	0.386	0	PA_without_intermediate	3,0,0,0,0,0,2,0,0	test	ward_and_allport	3,1,0,0,0,0,2,0,0	71.0	15.0	0.386	0,0,0,1,2,3,0,0,0	to_hand	s558
238.405	0.207	0	PA_without_intermediate	3,1,0,0,0,0,2,0,0	test	ward_and_allport	3,1,0,0,0,0,2,0,0	89.0	15.0	0.207	0,0,0,1,2,3,0,0,0	to_board	s558
238.618	1.0	0	PA_without_intermediate	n/a	test	ward_and_allport	n/a	-1.0	15.0	n/a	n/a	feedback	s558
239.618	2.224	0	PA_without_intermediate	n/a	test	ward_and_allport	n/a	-1.0	15.0	n/a	n/a	ITI	s558
241.846	3.217	1	PA_without_intermediate	0,0,0,1,2,0,0,0,0	test	ward_and_allport	1,0,0,0,0,0,3,2,0	71.0	16.0	3.217	0,0,0,1,2,3,0,0,0	to_hand	s558
245.063	0.239	0	PA_without_intermediate	0,0,0,1,2,0,3,0,0	test	ward_and_allport	1,0,0,0,0,0,3,2,0	82.0	16.0	0.239	0,0,0,1,2,3,0,0,0	to_board	s558
245.306	0.25	0	PA_without_intermediate	0,0,0,1,0,0,3,0,0	test	ward_and_allport	1,0,0,0,0,0,3,2,0	71.0	16.0	0.25	0,0,0,1,2,3,0,0,0	to_hand	s558
245.557	0.263	0	PA_without_intermediate	0,0,0,1,0,0,3,2,0	test	ward_and_allport	1,0,0,0,0,0,3,2,0	82.0	16.0	0.263	0,0,0,1,2,3,0,0,0	to_board	s558
245.825	0.544	0	PA_without_intermediate	0,0,0,0,0,0,3,2,0	test	ward_and_allport	1,0,0,0,0,0,3,2,0	71.0	16.0	0.544	0,0,0,1,2,3,0,0,0	to_hand	s558
246.369	0.164	0	PA_without_intermediate	1,0,0,0,0,0,3,2,0	test	ward_and_allport	1,0,0,0,0,0,3,2,0	89.0	16.0	0.164	0,0,0,1,2,3,0,0,0	to_board	s558
246.539	1.0	0	PA_without_intermediate	n/a	test	ward_and_allport	n/a	-1.0	16.0	n/a	n/a	feedback	s558
247.539	1.272	0	PA_without_intermediate	n/a	test	ward_and_allport	n/a	-1.0	16.0	n/a	n/a	ITI	s558
248.815	4.666	1	PA_with_intermediate	1,2,0,0,0,0,0,0,0	test	ward_and_allport	1,0,0,0,0,0,2,3,0	89.0	17.0	4.666	1,2,3,0,0,0,0,0,0	to_hand	s558
253.482	0.212	0	PA_with_intermediate	1,2,0,3,0,0,0,0,0	test	ward_and_allport	1,0,0,0,0,0,2,3,0	71.0	17.0	0.212	1,2,3,0,0,0,0,0,0	to_board	s558
253.698	0.264	0	PA_with_intermediate	1,0,0,3,0,0,0,0,0	test	ward_and_allport	1,0,0,0,0,0,2,3,0	89.0	17.0	0.264	1,2,3,0,0,0,0,0,0	to_hand	s558
253.964	0.277	0	PA_with_intermediate	1,0,0,3,0,0,2,0,0	test	ward_and_allport	1,0,0,0,0,0,2,3,0	82.0	17.0	0.277	1,2,3,0,0,0,0,0,0	to_board	s558
254.245	0.351	0	PA_with_intermediate	1,0,0,0,0,0,2,0,0	test	ward_and_allport	1,0,0,0,0,0,2,3,0	71.0	17.0	0.351	1,2,3,0,0,0,0,0,0	to_hand	s558
254.598	0.22	0	PA_with_intermediate	1,0,0,0,0,0,2,3,0	test	ward_and_allport	1,0,0,0,0,0,2,3,0	82.0	17.0	0.22	1,2,3,0,0,0,0,0,0	to_board	s558
254.824	1.0	0	PA_with_intermediate	n/a	test	ward_and_allport	n/a	-1.0	17.0	n/a	n/a	feedback	s558
255.824	2.632	0	PA_with_intermediate	n/a	test	ward_and_allport	n/a	-1.0	17.0	n/a	n/a	ITI	s558
258.459	3.299	1	PA_without_intermediate	0,0,0,0,0,0,1,2,0	test	ward_and_allport	1,0,0,3,2,0,0,0,0	82.0	18.0	3.299	0,0,0,0,0,0,1,2,3	to_hand	s558
261.759	0.571	0	PA_without_intermediate	0,0,0,3,0,0,1,2,0	test	ward_and_allport	1,0,0,3,2,0,0,0,0	71.0	18.0	0.571	0,0,0,0,0,0,1,2,3	to_board	s558
262.335	1.296	0	PA_without_intermediate	0,0,0,3,0,0,1,0,0	test	ward_and_allport	1,0,0,3,2,0,0,0,0	82.0	18.0	1.296	0,0,0,0,0,0,1,2,3	to_hand	s558
263.631	0.228	0	PA_without_intermediate	0,0,0,3,2,0,1,0,0	test	ward_and_allport	1,0,0,3,2,0,0,0,0	71.0	18.0	0.228	0,0,0,0,0,0,1,2,3	to_board	s558
263.864	0.926	0	PA_without_intermediate	0,0,0,3,2,0,0,0,0	test	ward_and_allport	1,0,0,3,2,0,0,0,0	82.0	18.0	0.926	0,0,0,0,0,0,1,2,3	to_hand	s558
264.791	0.187	0	PA_without_intermediate	1,0,0,3,2,0,0,0,0	test	ward_and_allport	1,0,0,3,2,0,0,0,0	89.0	18.0	0.187	0,0,0,0,0,0,1,2,3	to_board	s558
264.984	1.0	0	PA_without_intermediate	n/a	test	ward_and_allport	n/a	-1.0	18.0	n/a	n/a	feedback	s558
265.984	1.408	0	PA_without_intermediate	n/a	test	ward_and_allport	n/a	-1.0	18.0	n/a	n/a	ITI	s558
267.397	4.605	1	PA_without_intermediate	0,0,0,0,0,0,1,2,0	test	ward_and_allport	3,1,0,2,0,0,0,0,0	82.0	19.0	4.605	0,0,0,0,0,0,1,2,3	to_hand	s558
272.003	0.202	0	PA_without_intermediate	3,0,0,0,0,0,1,2,0	test	ward_and_allport	3,1,0,2,0,0,0,0,0	89.0	19.0	0.202	0,0,0,0,0,0,1,2,3	to_board	s558
272.21	0.847	0	PA_without_intermediate	3,0,0,0,0,0,1,0,0	test	ward_and_allport	3,1,0,2,0,0,0,0,0	82.0	19.0	0.847	0,0,0,0,0,0,1,2,3	to_hand	s558
273.058	0.402	0	PA_without_intermediate	3,0,0,2,0,0,1,0,0	test	ward_and_allport	3,1,0,2,0,0,0,0,0	71.0	19.0	0.402	0,0,0,0,0,0,1,2,3	to_board	s558
273.465	0.84	0	PA_without_intermediate	3,0,0,2,0,0,0,0,0	test	ward_and_allport	3,1,0,2,0,0,0,0,0	82.0	19.0	0.84	0,0,0,0,0,0,1,2,3	to_hand	s558
274.305	0.296	0	PA_without_intermediate	3,1,0,2,0,0,0,0,0	test	ward_and_allport	3,1,0,2,0,0,0,0,0	89.0	19.0	0.296	0,0,0,0,0,0,1,2,3	to_board	s558
274.607	1.0	0	PA_without_intermediate	n/a	test	ward_and_allport	n/a	-1.0	19.0	n/a	n/a	feedback	s558
275.607	1.0	0	PA_without_intermediate	n/a	test	ward_and_allport	n/a	-1.0	19.0	n/a	n/a	ITI	s558
276.612	5.83	1	PA_with_intermediate	1,2,0,0,0,0,0,0,0	test	ward_and_allport	1,3,0,2,0,0,0,0,0	89.0	20.0	5.83	1,2,3,0,0,0,0,0,0	to_hand	s558
282.443	0.265	0	PA_with_intermediate	1,2,0,0,0,0,3,0,0	test	ward_and_allport	1,3,0,2,0,0,0,0,0	82.0	20.0	0.265	1,2,3,0,0,0,0,0,0	to_board	s558
282.713	0.261	0	PA_with_intermediate	1,0,0,0,0,0,3,0,0	test	ward_and_allport	1,3,0,2,0,0,0,0,0	89.0	20.0	0.261	1,2,3,0,0,0,0,0,0	to_hand	s558
282.975	0.256	0	PA_with_intermediate	1,0,0,2,0,0,3,0,0	test	ward_and_allport	1,3,0,2,0,0,0,0,0	71.0	20.0	0.256	1,2,3,0,0,0,0,0,0	to_board	s558
283.235	0.584	0	PA_with_intermediate	1,0,0,2,0,0,0,0,0	test	ward_and_allport	1,3,0,2,0,0,0,0,0	82.0	20.0	0.584	1,2,3,0,0,0,0,0,0	to_hand	s558
283.821	0.183	0	PA_with_intermediate	1,3,0,2,0,0,0,0,0	test	ward_and_allport	1,3,0,2,0,0,0,0,0	89.0	20.0	0.183	1,2,3,0,0,0,0,0,0	to_board	s558
284.01	1.0	0	PA_with_intermediate	n/a	test	ward_and_allport	n/a	-1.0	20.0	n/a	n/a	feedback	s558
285.01	1.0	0	PA_with_intermediate	n/a	test	ward_and_allport	n/a	-1.0	20.0	n/a	n/a	ITI	s558
286.015	5.309	1	PA_with_intermediate	0,0,0,1,2,0,0,0,0	test	ward_and_allport	2,3,0,1,0,0,0,0,0	71.0	21.0	5.309	0,0,0,1,2,3,0,0,0	to_hand	s558
291.325	0.268	0	PA_with_intermediate	0,0,0,1,2,0,3,0,0	test	ward_and_allport	2,3,0,1,0,0,0,0,0	82.0	21.0	0.268	0,0,0,1,2,3,0,0,0	to_board	s558
291.599	0.307	0	PA_with_intermediate	0,0,0,1,0,0,3,0,0	test	ward_and_allport	2,3,0,1,0,0,0,0,0	71.0	21.0	0.307	0,0,0,1,2,3,0,0,0	to_hand	s558
291.907	0.273	0	PA_with_intermediate	2,0,0,1,0,0,3,0,0	test	ward_and_allport	2,3,0,1,0,0,0,0,0	89.0	21.0	0.273	0,0,0,1,2,3,0,0,0	to_board	s558
292.185	0.37	0	PA_with_intermediate	2,0,0,1,0,0,0,0,0	test	ward_and_allport	2,3,0,1,0,0,0,0,0	82.0	21.0	0.37	0,0,0,1,2,3,0,0,0	to_hand	s558
292.555	0.235	0	PA_with_intermediate	2,3,0,1,0,0,0,0,0	test	ward_and_allport	2,3,0,1,0,0,0,0,0	89.0	21.0	0.235	0,0,0,1,2,3,0,0,0	to_board	s558
292.797	1.0	0	PA_with_intermediate	n/a	test	ward_and_allport	n/a	-1.0	21.0	n/a	n/a	feedback	s558
293.797	1.0	0	PA_with_intermediate	n/a	test	ward_and_allport	n/a	-1.0	21.0	n/a	n/a	ITI	s558
294.802	10.344	1	PA_with_intermediate	0,0,0,0,0,0,1,2,0	test	ward_and_allport	2,0,0,0,0,0,1,3,0	82.0	22.0	10.344	0,0,0,0,0,0,1,2,3	to_hand	s558
305.147	0.223	0	PA_with_intermediate	0,0,0,3,0,0,1,2,0	test	ward_and_allport	2,0,0,0,0,0,1,3,0	71.0	22.0	0.223	0,0,0,0,0,0,1,2,3	to_board	s558
305.376	0.325	0	PA_with_intermediate	0,0,0,3,0,0,1,0,0	test	ward_and_allport	2,0,0,0,0,0,1,3,0	82.0	22.0	0.325	0,0,0,0,0,0,1,2,3	to_hand	s558
305.703	0.22	0	PA_with_intermediate	2,0,0,3,0,0,1,0,0	test	ward_and_allport	2,0,0,0,0,0,1,3,0	89.0	22.0	0.22	0,0,0,0,0,0,1,2,3	to_board	s558
305.928	0.75	0	PA_with_intermediate	2,0,0,0,0,0,1,0,0	test	ward_and_allport	2,0,0,0,0,0,1,3,0	71.0	22.0	0.75	0,0,0,0,0,0,1,2,3	to_hand	s558
306.679	0.24	0	PA_with_intermediate	2,0,0,0,0,0,1,3,0	test	ward_and_allport	2,0,0,0,0,0,1,3,0	82.0	22.0	0.24	0,0,0,0,0,0,1,2,3	to_board	s558
306.927	1.0	0	PA_with_intermediate	n/a	test	ward_and_allport	n/a	-1.0	22.0	n/a	n/a	feedback	s558
307.927	1.408	0	PA_with_intermediate	n/a	test	ward_and_allport	n/a	-1.0	22.0	n/a	n/a	ITI	s558
309.341	4.11	1	PA_without_intermediate	0,0,0,1,2,0,0,0,0	test	ward_and_allport	2,0,0,0,0,0,3,1,0	71.0	23.0	4.11	0,0,0,1,2,3,0,0,0	to_hand	s558
313.452	0.239	0	PA_without_intermediate	0,0,0,1,2,0,3,0,0	test	ward_and_allport	2,0,0,0,0,0,3,1,0	82.0	23.0	0.239	0,0,0,1,2,3,0,0,0	to_board	s558
313.696	0.245	0	PA_without_intermediate	0,0,0,1,0,0,3,0,0	test	ward_and_allport	2,0,0,0,0,0,3,1,0	71.0	23.0	0.245	0,0,0,1,2,3,0,0,0	to_hand	s558
313.942	0.27	0	PA_without_intermediate	2,0,0,1,0,0,3,0,0	test	ward_and_allport	2,0,0,0,0,0,3,1,0	89.0	23.0	0.27	0,0,0,1,2,3,0,0,0	to_board	s558
314.218	0.581	0	PA_without_intermediate	2,0,0,0,0,0,3,0,0	test	ward_and_allport	2,0,0,0,0,0,3,1,0	71.0	23.0	0.581	0,0,0,1,2,3,0,0,0	to_hand	s558
314.8	0.159	0	PA_without_intermediate	2,0,0,0,0,0,3,1,0	test	ward_and_allport	2,0,0,0,0,0,3,1,0	82.0	23.0	0.159	0,0,0,1,2,3,0,0,0	to_board	s558
314.966	1.0	0	PA_without_intermediate	n/a	test	ward_and_allport	n/a	-1.0	23.0	n/a	n/a	feedback	s558
315.966	1.816	0	PA_without_intermediate	n/a	test	ward_and_allport	n/a	-1.0	23.0	n/a	n/a	ITI	s558
317.788	6.664	1	PA_with_intermediate	0,0,0,1,2,0,0,0,0	test	ward_and_allport	0,0,0,1,3,0,2,0,0	71.0	24.0	6.664	0,0,0,1,2,3,0,0,0	to_hand	s558
324.454	0.197	0	PA_with_intermediate	3,0,0,1,2,0,0,0,0	test	ward_and_allport	0,0,0,1,3,0,2,0,0	89.0	24.0	0.197	0,0,0,1,2,3,0,0,0	to_board	s558
324.656	0.276	0	PA_with_intermediate	3,0,0,1,0,0,0,0,0	test	ward_and_allport	0,0,0,1,3,0,2,0,0	71.0	24.0	0.276	0,0,0,1,2,3,0,0,0	to_hand	s558
324.934	0.258	0	PA_with_intermediate	3,0,0,1,0,0,2,0,0	test	ward_and_allport	0,0,0,1,3,0,2,0,0	82.0	24.0	0.258	0,0,0,1,2,3,0,0,0	to_board	s558
325.199	0.694	0	PA_with_intermediate	0,0,0,1,0,0,2,0,0	test	ward_and_allport	0,0,0,1,3,0,2,0,0	89.0	24.0	0.694	0,0,0,1,2,3,0,0,0	to_hand	s558
325.893	0.165	0	PA_with_intermediate	0,0,0,1,3,0,2,0,0	test	ward_and_allport	0,0,0,1,3,0,2,0,0	71.0	24.0	0.165	0,0,0,1,2,3,0,0,0	to_board	s558
326.065	1.0	0	PA_with_intermediate	n/a	test	ward_and_allport	n/a	-1.0	24.0	n/a	n/a	feedback	s558
327.065	3.176	0	PA_with_intermediate	n/a	test	ward_and_allport	n/a	-1.0	24.0	n/a	n/a	ITI	s558
330.248	4.404	1	PA_with_intermediate	1,2,0,0,0,0,0,0,0	test	ward_and_allport	1,3,0,0,0,0,2,0,0	89.0	25.0	4.404	1,2,3,0,0,0,0,0,0	to_hand	s558
334.653	0.185	0	PA_with_intermediate	1,2,0,3,0,0,0,0,0	test	ward_and_allport	1,3,0,0,0,0,2,0,0	71.0	25.0	0.185	1,2,3,0,0,0,0,0,0	to_board	s558
334.844	0.252	0	PA_with_intermediate	1,0,0,3,0,0,0,0,0	test	ward_and_allport	1,3,0,0,0,0,2,0,0	89.0	25.0	0.252	1,2,3,0,0,0,0,0,0	to_hand	s558
335.097	0.248	0	PA_with_intermediate	1,0,0,3,0,0,2,0,0	test	ward_and_allport	1,3,0,0,0,0,2,0,0	82.0	25.0	0.248	1,2,3,0,0,0,0,0,0	to_board	s558
335.352	0.558	0	PA_with_intermediate	1,0,0,0,0,0,2,0,0	test	ward_and_allport	1,3,0,0,0,0,2,0,0	71.0	25.0	0.558	1,2,3,0,0,0,0,0,0	to_hand	s558
335.911	0.149	0	PA_with_intermediate	1,3,0,0,0,0,2,0,0	test	ward_and_allport	1,3,0,0,0,0,2,0,0	89.0	25.0	0.149	1,2,3,0,0,0,0,0,0	to_board	s558
336.067	1.0	0	PA_with_intermediate	n/a	test	ward_and_allport	n/a	-1.0	25.0	n/a	n/a	feedback	s558
337.067	2.36	0	PA_with_intermediate	n/a	test	ward_and_allport	n/a	-1.0	25.0	n/a	n/a	ITI	s558
339.435	4.986	1	PA_with_intermediate	0,0,0,0,0,0,1,2,0	test	ward_and_allport	0,0,0,2,0,0,1,3,0	82.0	26.0	4.986	0,0,0,0,0,0,1,2,3	to_hand	s558
344.422	0.196	0	PA_with_intermediate	3,0,0,0,0,0,1,2,0	test	ward_and_allport	0,0,0,2,0,0,1,3,0	89.0	26.0	0.196	0,0,0,0,0,0,1,2,3	to_board	s558
344.624	0.482	0	PA_with_intermediate	3,0,0,0,0,0,1,0,0	test	ward_and_allport	0,0,0,2,0,0,1,3,0	82.0	26.0	0.482	0,0,0,0,0,0,1,2,3	to_hand	s558
345.108	0.197	0	PA_with_intermediate	3,0,0,2,0,0,1,0,0	test	ward_and_allport	0,0,0,2,0,0,1,3,0	71.0	26.0	0.197	0,0,0,0,0,0,1,2,3	to_board	s558
345.311	0.792	0	PA_with_intermediate	0,0,0,2,0,0,1,0,0	test	ward_and_allport	0,0,0,2,0,0,1,3,0	89.0	26.0	0.792	0,0,0,0,0,0,1,2,3	to_hand	s558
346.105	0.212	0	PA_with_intermediate	0,0,0,2,0,0,1,3,0	test	ward_and_allport	0,0,0,2,0,0,1,3,0	82.0	26.0	0.212	0,0,0,0,0,0,1,2,3	to_board	s558
346.325	1.0	0	PA_with_intermediate	n/a	test	ward_and_allport	n/a	-1.0	26.0	n/a	n/a	feedback	s558
347.325	1.0	0	PA_with_intermediate	n/a	test	ward_and_allport	n/a	-1.0	26.0	n/a	n/a	ITI	s558
348.332	2.749	1	PA_without_intermediate	1,2,0,0,0,0,0,0,0	test	ward_and_allport	0,0,0,2,0,0,3,1,0	89.0	27.0	2.749	1,2,3,0,0,0,0,0,0	to_hand	s558
351.081	0.255	0	PA_without_intermediate	1,2,0,0,0,0,3,0,0	test	ward_and_allport	0,0,0,2,0,0,3,1,0	82.0	27.0	0.255	1,2,3,0,0,0,0,0,0	to_board	s558
351.342	0.32	0	PA_without_intermediate	1,0,0,0,0,0,3,0,0	test	ward_and_allport	0,0,0,2,0,0,3,1,0	89.0	27.0	0.32	1,2,3,0,0,0,0,0,0	to_hand	s558
351.663	0.292	0	PA_without_intermediate	1,0,0,2,0,0,3,0,0	test	ward_and_allport	0,0,0,2,0,0,3,1,0	71.0	27.0	0.292	1,2,3,0,0,0,0,0,0	to_board	s558
351.961	0.722	0	PA_without_intermediate	0,0,0,2,0,0,3,0,0	test	ward_and_allport	0,0,0,2,0,0,3,1,0	89.0	27.0	0.722	1,2,3,0,0,0,0,0,0	to_hand	s558
352.684	0.219	0	PA_without_intermediate	0,0,0,2,0,0,3,1,0	test	ward_and_allport	0,0,0,2,0,0,3,1,0	82.0	27.0	0.219	1,2,3,0,0,0,0,0,0	to_board	s558
352.912	1.0	0	PA_without_intermediate	n/a	test	ward_and_allport	n/a	-1.0	27.0	n/a	n/a	feedback	s558
353.912	1.408	0	PA_without_intermediate	n/a	test	ward_and_allport	n/a	-1.0	27.0	n/a	n/a	ITI	s558
355.327	3.706	1	PA_with_intermediate	1,2,0,0,0,0,0,0,0	test	ward_and_allport	1,0,0,2,3,0,0,0,0	89.0	28.0	3.706	1,2,3,0,0,0,0,0,0	to_hand	s558
359.035	0.247	0	PA_with_intermediate	1,2,0,0,0,0,3,0,0	test	ward_and_allport	1,0,0,2,3,0,0,0,0	82.0	28.0	0.247	1,2,3,0,0,0,0,0,0	to_board	s558
359.289	0.923	0	PA_with_intermediate	1,0,0,0,0,0,3,0,0	test	ward_and_allport	1,0,0,2,3,0,0,0,0	89.0	28.0	0.923	1,2,3,0,0,0,0,0,0	to_hand	s558
360.212	0.199	0	PA_with_intermediate	1,0,0,2,0,0,3,0,0	test	ward_and_allport	1,0,0,2,3,0,0,0,0	71.0	28.0	0.199	1,2,3,0,0,0,0,0,0	to_board	s558
360.417	0.624	0	PA_with_intermediate	1,0,0,2,0,0,0,0,0	test	ward_and_allport	1,0,0,2,3,0,0,0,0	82.0	28.0	0.624	1,2,3,0,0,0,0,0,0	to_hand	s558
361.042	0.135	0	PA_with_intermediate	1,0,0,2,3,0,0,0,0	test	ward_and_allport	1,0,0,2,3,0,0,0,0	71.0	28.0	0.135	1,2,3,0,0,0,0,0,0	to_board	s558
361.186	1.0	0	PA_with_intermediate	n/a	test	ward_and_allport	n/a	-1.0	28.0	n/a	n/a	feedback	s558
362.186	1.816	0	PA_with_intermediate	n/a	test	ward_and_allport	n/a	-1.0	28.0	n/a	n/a	ITI	s558
364.009	5.622	1	PA_without_intermediate	1,2,0,0,0,0,0,0,0	test	ward_and_allport	0,0,0,3,2,0,1,0,0	89.0	29.0	5.622	1,2,3,0,0,0,0,0,0	to_hand	s558
369.632	0.196	0	PA_without_intermediate	1,2,0,3,0,0,0,0,0	test	ward_and_allport	0,0,0,3,2,0,1,0,0	71.0	29.0	0.196	1,2,3,0,0,0,0,0,0	to_board	s558
369.836	0.899	0	PA_without_intermediate	1,0,0,3,0,0,0,0,0	test	ward_and_allport	0,0,0,3,2,0,1,0,0	89.0	29.0	0.899	1,2,3,0,0,0,0,0,0	to_hand	s558
370.735	0.159	0	PA_without_intermediate	1,0,0,3,2,0,0,0,0	test	ward_and_allport	0,0,0,3,2,0,1,0,0	71.0	29.0	0.159	1,2,3,0,0,0,0,0,0	to_board	s558
370.901	0.366	0	PA_without_intermediate	0,0,0,3,2,0,0,0,0	test	ward_and_allport	0,0,0,3,2,0,1,0,0	89.0	29.0	0.366	1,2,3,0,0,0,0,0,0	to_hand	s558
371.268	0.208	0	PA_without_intermediate	0,0,0,3,2,0,1,0,0	test	ward_and_allport	0,0,0,3,2,0,1,0,0	82.0	29.0	0.208	1,2,3,0,0,0,0,0,0	to_board	s558
371.484	1.0	0	PA_without_intermediate	n/a	test	ward_and_allport	n/a	-1.0	29.0	n/a	n/a	feedback	s558
372.484	2.088	0	PA_without_intermediate	n/a	test	ward_and_allport	n/a	-1.0	29.0	n/a	n/a	ITI	s558
379.582	3.387	1	PA_without_intermediate	0,0,0,0,0,0,1,2,0	test	ward_and_allport	2,0,0,3,1,0,0,0,0	82.0	30.0	3.387	0,0,0,0,0,0,1,2,3	to_hand	s558
382.969	0.209	0	PA_without_intermediate	0,0,0,3,0,0,1,2,0	test	ward_and_allport	2,0,0,3,1,0,0,0,0	71.0	30.0	0.209	0,0,0,0,0,0,1,2,3	to_board	s558
383.185	1.066	0	PA_without_intermediate	0,0,0,3,0,0,1,0,0	test	ward_and_allport	2,0,0,3,1,0,0,0,0	82.0	30.0	1.066	0,0,0,0,0,0,1,2,3	to_hand	s558
384.252	0.202	0	PA_without_intermediate	2,0,0,3,0,0,1,0,0	test	ward_and_allport	2,0,0,3,1,0,0,0,0	89.0	30.0	0.202	0,0,0,0,0,0,1,2,3	to_board	s558
384.461	0.964	0	PA_without_intermediate	2,0,0,3,0,0,0,0,0	test	ward_and_allport	2,0,0,3,1,0,0,0,0	82.0	30.0	0.964	0,0,0,0,0,0,1,2,3	to_hand	s558
385.426	0.158	0	PA_without_intermediate	2,0,0,3,1,0,0,0,0	test	ward_and_allport	2,0,0,3,1,0,0,0,0	71.0	30.0	0.158	0,0,0,0,0,0,1,2,3	to_board	s558
385.592	1.0	0	PA_without_intermediate	n/a	test	ward_and_allport	n/a	-1.0	30.0	n/a	n/a	feedback	s558
386.592	1.136	0	PA_without_intermediate	n/a	test	ward_and_allport	n/a	-1.0	30.0	n/a	n/a	ITI	s558
387.736	3.218	1	PA_without_intermediate	0,0,0,1,2,0,0,0,0	test	ward_and_allport	3,2,0,0,0,0,1,0,0	71.0	31.0	3.218	0,0,0,1,2,3,0,0,0	to_hand	s558
390.954	0.223	0	PA_without_intermediate	3,0,0,1,2,0,0,0,0	test	ward_and_allport	3,2,0,0,0,0,1,0,0	89.0	31.0	0.223	0,0,0,1,2,3,0,0,0	to_board	s558
391.184	0.302	0	PA_without_intermediate	3,0,0,1,0,0,0,0,0	test	ward_and_allport	3,2,0,0,0,0,1,0,0	71.0	31.0	0.302	0,0,0,1,2,3,0,0,0	to_hand	s558
391.488	0.276	0	PA_without_intermediate	3,2,0,1,0,0,0,0,0	test	ward_and_allport	3,2,0,0,0,0,1,0,0	89.0	31.0	0.276	0,0,0,1,2,3,0,0,0	to_board	s558
391.771	0.422	0	PA_without_intermediate	3,2,0,0,0,0,0,0,0	test	ward_and_allport	3,2,0,0,0,0,1,0,0	71.0	31.0	0.422	0,0,0,1,2,3,0,0,0	to_hand	s558
392.194	0.248	0	PA_without_intermediate	3,2,0,0,0,0,1,0,0	test	ward_and_allport	3,2,0,0,0,0,1,0,0	82.0	31.0	0.248	0,0,0,1,2,3,0,0,0	to_board	s558
392.451	1.0	0	PA_without_intermediate	n/a	test	ward_and_allport	n/a	-1.0	31.0	n/a	n/a	feedback	s558
393.451	6.168	0	PA_without_intermediate	n/a	test	ward_and_allport	n/a	-1.0	31.0	n/a	n/a	ITI	s558
399.626	2.939	1	PA_without_intermediate	1,2,0,0,0,0,0,0,0	test	ward_and_allport	0,0,0,1,0,0,3,2,0	89.0	32.0	2.939	1,2,3,0,0,0,0,0,0	to_hand	s558
402.565	0.212	0	PA_without_intermediate	1,2,0,0,0,0,3,0,0	test	ward_and_allport	0,0,0,1,0,0,3,2,0	82.0	32.0	0.212	1,2,3,0,0,0,0,0,0	to_board	s558
402.785	0.287	0	PA_without_intermediate	1,0,0,0,0,0,3,0,0	test	ward_and_allport	0,0,0,1,0,0,3,2,0	89.0	32.0	0.287	1,2,3,0,0,0,0,0,0	to_hand	s558
403.072	0.26	0	PA_without_intermediate	1,0,0,0,0,0,3,2,0	test	ward_and_allport	0,0,0,1,0,0,3,2,0	82.0	32.0	0.26	1,2,3,0,0,0,0,0,0	to_board	s558
403.341	0.542	0	PA_without_intermediate	0,0,0,0,0,0,3,2,0	test	ward_and_allport	0,0,0,1,0,0,3,2,0	89.0	32.0	0.542	1,2,3,0,0,0,0,0,0	to_hand	s558
403.883	0.154	0	PA_without_intermediate	0,0,0,1,0,0,3,2,0	test	ward_and_allport	0,0,0,1,0,0,3,2,0	71.0	32.0	0.154	1,2,3,0,0,0,0,0,0	to_board	s558
404.047	1.0	0	PA_without_intermediate	n/a	test	ward_and_allport	n/a	-1.0	32.0	n/a	n/a	feedback	s558
405.047	1.816	0	PA_without_intermediate	n/a	test	ward_and_allport	n/a	-1.0	32.0	n/a	n/a	ITI	s558
406.872	6.604	1	PA_with_intermediate	0,0,0,0,0,0,1,2,0	test	ward_and_allport	2,0,0,0,0,0,1,3,0	82.0	33.0	6.604	0,0,0,0,0,0,1,2,3	to_hand	s558
413.476	0.169	0	PA_with_intermediate	0,0,0,3,0,0,1,2,0	test	ward_and_allport	2,0,0,0,0,0,1,3,0	71.0	33.0	0.169	0,0,0,0,0,0,1,2,3	to_board	s558
413.651	0.291	0	PA_with_intermediate	0,0,0,3,0,0,1,0,0	test	ward_and_allport	2,0,0,0,0,0,1,3,0	82.0	33.0	0.291	0,0,0,0,0,0,1,2,3	to_hand	s558
413.943	0.26	0	PA_with_intermediate	2,0,0,3,0,0,1,0,0	test	ward_and_allport	2,0,0,0,0,0,1,3,0	89.0	33.0	0.26	0,0,0,0,0,0,1,2,3	to_board	s558
414.21	1.325	0	PA_with_intermediate	2,0,0,0,0,0,1,0,0	test	ward_and_allport	2,0,0,0,0,0,1,3,0	71.0	33.0	1.325	0,0,0,0,0,0,1,2,3	to_hand	s558
415.536	0.167	0	PA_with_intermediate	2,0,0,0,0,0,1,3,0	test	ward_and_allport	2,0,0,0,0,0,1,3,0	82.0	33.0	0.167	0,0,0,0,0,0,1,2,3	to_board	s558
415.714	1.0	0	PA_with_intermediate	n/a	test	ward_and_allport	n/a	-1.0	33.0	n/a	n/a	feedback	s558
416.714	1.952	0	PA_with_intermediate	n/a	test	ward_and_allport	n/a	-1.0	33.0	n/a	n/a	ITI	s558
418.675	3.513	1	PA_with_intermediate	0,0,0,1,2,0,0,0,0	test	ward_and_allport	2,0,0,1,3,0,0,0,0	71.0	34.0	3.513	0,0,0,1,2,3,0,0,0	to_hand	s558
422.189	0.216	0	PA_with_intermediate	0,0,0,1,2,0,3,0,0	test	ward_and_allport	2,0,0,1,3,0,0,0,0	82.0	34.0	0.216	0,0,0,1,2,3,0,0,0	to_board	s558
422.412	0.269	0	PA_with_intermediate	0,0,0,1,0,0,3,0,0	test	ward_and_allport	2,0,0,1,3,0,0,0,0	71.0	34.0	0.269	0,0,0,1,2,3,0,0,0	to_hand	s558
422.682	0.241	0	PA_with_intermediate	2,0,0,1,0,0,3,0,0	test	ward_and_allport	2,0,0,1,3,0,0,0,0	89.0	34.0	0.241	0,0,0,1,2,3,0,0,0	to_board	s558
422.93	0.476	0	PA_with_intermediate	2,0,0,1,0,0,0,0,0	test	ward_and_allport	2,0,0,1,3,0,0,0,0	82.0	34.0	0.476	0,0,0,1,2,3,0,0,0	to_hand	s558
423.407	0.147	0	PA_with_intermediate	2,0,0,1,3,0,0,0,0	test	ward_and_allport	2,0,0,1,3,0,0,0,0	71.0	34.0	0.147	0,0,0,1,2,3,0,0,0	to_board	s558
423.564	1.0	0	PA_with_intermediate	n/a	test	ward_and_allport	n/a	-1.0	34.0	n/a	n/a	feedback	s558
424.564	1.136	0	PA_with_intermediate	n/a	test	ward_and_allport	n/a	-1.0	34.0	n/a	n/a	ITI	s558
425.71	3.523	1	PA_without_intermediate	0,0,0,1,2,0,0,0,0	test	ward_and_allport	3,2,0,0,0,0,1,0,0	71.0	35.0	3.523	0,0,0,1,2,3,0,0,0	to_hand	s558
429.233	0.201	0	PA_without_intermediate	3,0,0,1,2,0,0,0,0	test	ward_and_allport	3,2,0,0,0,0,1,0,0	89.0	35.0	0.201	0,0,0,1,2,3,0,0,0	to_board	s558
429.441	0.973	0	PA_without_intermediate	3,0,0,1,0,0,0,0,0	test	ward_and_allport	3,2,0,0,0,0,1,0,0	71.0	35.0	0.973	0,0,0,1,2,3,0,0,0	to_hand	s558
430.414	0.194	0	PA_without_intermediate	3,2,0,1,0,0,0,0,0	test	ward_and_allport	3,2,0,0,0,0,1,0,0	89.0	35.0	0.194	0,0,0,1,2,3,0,0,0	to_board	s558
430.616	0.349	0	PA_without_intermediate	3,2,0,0,0,0,0,0,0	test	ward_and_allport	3,2,0,0,0,0,1,0,0	71.0	35.0	0.349	0,0,0,1,2,3,0,0,0	to_hand	s558
430.965	0.255	0	PA_without_intermediate	3,2,0,0,0,0,1,0,0	test	ward_and_allport	3,2,0,0,0,0,1,0,0	82.0	35.0	0.255	0,0,0,1,2,3,0,0,0	to_board	s558
431.231	1.0	0	PA_without_intermediate	n/a	test	ward_and_allport	n/a	-1.0	35.0	n/a	n/a	feedback	s558
432.231	1.68	0	PA_without_intermediate	n/a	test	ward_and_allport	n/a	-1.0	35.0	n/a	n/a	ITI	s558
433.92	2.829	1	PA_without_intermediate	1,2,0,0,0,0,0,0,0	test	ward_and_allport	0,0,0,1,0,0,3,2,0	89.0	36.0	2.829	1,2,3,0,0,0,0,0,0	to_hand	s558
436.75	0.215	0	PA_without_intermediate	1,2,0,0,0,0,3,0,0	test	ward_and_allport	0,0,0,1,0,0,3,2,0	82.0	36.0	0.215	1,2,3,0,0,0,0,0,0	to_board	s558
436.973	0.254	0	PA_without_intermediate	1,0,0,0,0,0,3,0,0	test	ward_and_allport	0,0,0,1,0,0,3,2,0	89.0	36.0	0.254	1,2,3,0,0,0,0,0,0	to_hand	s558
437.228	0.257	0	PA_without_intermediate	1,0,0,0,0,0,3,2,0	test	ward_and_allport	0,0,0,1,0,0,3,2,0	82.0	36.0	0.257	1,2,3,0,0,0,0,0,0	to_board	s558
437.493	0.652	0	PA_without_intermediate	0,0,0,0,0,0,3,2,0	test	ward_and_allport	0,0,0,1,0,0,3,2,0	89.0	36.0	0.652	1,2,3,0,0,0,0,0,0	to_hand	s558
438.147	0.151	0	PA_without_intermediate	0,0,0,1,0,0,3,2,0	test	ward_and_allport	0,0,0,1,0,0,3,2,0	71.0	36.0	0.151	1,2,3,0,0,0,0,0,0	to_board	s558
438.307	1.0	0	PA_without_intermediate	n/a	test	ward_and_allport	n/a	-1.0	36.0	n/a	n/a	feedback	s558
439.307	2.088	0	PA_without_intermediate	n/a	test	ward_and_allport	n/a	-1.0	36.0	n/a	n/a	ITI	s558
441.403	3.601	1	PA_with_intermediate	0,0,0,1,2,0,0,0,0	test	ward_and_allport	2,0,0,1,3,0,0,0,0	71.0	37.0	3.601	0,0,0,1,2,3,0,0,0	to_hand	s558
445.005	0.223	0	PA_with_intermediate	0,0,0,1,2,0,3,0,0	test	ward_and_allport	2,0,0,1,3,0,0,0,0	82.0	37.0	0.223	0,0,0,1,2,3,0,0,0	to_board	s558
445.234	0.283	0	PA_with_intermediate	0,0,0,1,0,0,3,0,0	test	ward_and_allport	2,0,0,1,3,0,0,0,0	71.0	37.0	0.283	0,0,0,1,2,3,0,0,0	to_hand	s558
445.519	0.241	0	PA_with_intermediate	2,0,0,1,0,0,3,0,0	test	ward_and_allport	2,0,0,1,3,0,0,0,0	89.0	37.0	0.241	0,0,0,1,2,3,0,0,0	to_board	s558
445.768	0.409	0	PA_with_intermediate	2,0,0,1,0,0,0,0,0	test	ward_and_allport	2,0,0,1,3,0,0,0,0	82.0	37.0	0.409	0,0,0,1,2,3,0,0,0	to_hand	s558
446.178	0.159	0	PA_with_intermediate	2,0,0,1,3,0,0,0,0	test	ward_and_allport	2,0,0,1,3,0,0,0,0	71.0	37.0	0.159	0,0,0,1,2,3,0,0,0	to_board	s558
446.347	1.0	0	PA_with_intermediate	n/a	test	ward_and_allport	n/a	-1.0	37.0	n/a	n/a	feedback	s558
447.347	1.0	0	PA_with_intermediate	n/a	test	ward_and_allport	n/a	-1.0	37.0	n/a	n/a	ITI	s558
448.357	3.342	1	PA_without_intermediate	0,0,0,1,2,0,0,0,0	test	ward_and_allport	3,1,0,0,0,0,2,0,0	71.0	38.0	3.342	0,0,0,1,2,3,0,0,0	to_hand	s558
451.7	0.214	0	PA_without_intermediate	3,0,0,1,2,0,0,0,0	test	ward_and_allport	3,1,0,0,0,0,2,0,0	89.0	38.0	0.214	0,0,0,1,2,3,0,0,0	to_board	s558
451.922	0.287	0	PA_without_intermediate	3,0,0,1,0,0,0,0,0	test	ward_and_allport	3,1,0,0,0,0,2,0,0	71.0	38.0	0.287	0,0,0,1,2,3,0,0,0	to_hand	s558
452.21	0.207	0	PA_without_intermediate	3,0,0,1,0,0,2,0,0	test	ward_and_allport	3,1,0,0,0,0,2,0,0	82.0	38.0	0.207	0,0,0,1,2,3,0,0,0	to_board	s558
452.427	0.437	0	PA_without_intermediate	3,0,0,0,0,0,2,0,0	test	ward_and_allport	3,1,0,0,0,0,2,0,0	71.0	38.0	0.437	0,0,0,1,2,3,0,0,0	to_hand	s558
452.866	0.168	0	PA_without_intermediate	3,1,0,0,0,0,2,0,0	test	ward_and_allport	3,1,0,0,0,0,2,0,0	89.0	38.0	0.168	0,0,0,1,2,3,0,0,0	to_board	s558
453.044	1.0	0	PA_without_intermediate	n/a	test	ward_and_allport	n/a	-1.0	38.0	n/a	n/a	feedback	s558
454.044	1.0	0	PA_without_intermediate	n/a	test	ward_and_allport	n/a	-1.0	38.0	n/a	n/a	ITI	s558
455.05	3.693	1	PA_without_intermediate	1,2,0,0,0,0,0,0,0	test	ward_and_allport	0,0,0,3,2,0,1,0,0	89.0	39.0	3.693	1,2,3,0,0,0,0,0,0	to_hand	s558
458.745	0.184	0	PA_without_intermediate	1,2,0,3,0,0,0,0,0	test	ward_and_allport	0,0,0,3,2,0,1,0,0	71.0	39.0	0.184	1,2,3,0,0,0,0,0,0	to_board	s558
458.935	0.599	0	PA_without_intermediate	1,0,0,3,0,0,0,0,0	test	ward_and_allport	0,0,0,3,2,0,1,0,0	89.0	39.0	0.599	1,2,3,0,0,0,0,0,0	to_hand	s558
459.535	0.174	0	PA_without_intermediate	1,0,0,3,2,0,0,0,0	test	ward_and_allport	0,0,0,3,2,0,1,0,0	71.0	39.0	0.174	1,2,3,0,0,0,0,0,0	to_board	s558
459.717	0.663	0	PA_without_intermediate	0,0,0,3,2,0,0,0,0	test	ward_and_allport	0,0,0,3,2,0,1,0,0	89.0	39.0	0.663	1,2,3,0,0,0,0,0,0	to_hand	s558
460.381	0.162	0	PA_without_intermediate	0,0,0,3,2,0,1,0,0	test	ward_and_allport	0,0,0,3,2,0,1,0,0	82.0	39.0	0.162	1,2,3,0,0,0,0,0,0	to_board	s558
460.554	1.0	0	PA_without_intermediate	n/a	test	ward_and_allport	n/a	-1.0	39.0	n/a	n/a	feedback	s558
461.554	1.0	0	PA_without_intermediate	n/a	test	ward_and_allport	n/a	-1.0	39.0	n/a	n/a	ITI	s558
462.564	3.726	1	PA_with_intermediate	1,2,0,0,0,0,0,0,0	test	ward_and_allport	1,3,0,2,0,0,0,0,0	89.0	40.0	3.726	1,2,3,0,0,0,0,0,0	to_hand	s558
466.291	0.191	0	PA_with_intermediate	1,2,0,0,0,0,3,0,0	test	ward_and_allport	1,3,0,2,0,0,0,0,0	82.0	40.0	0.191	1,2,3,0,0,0,0,0,0	to_board	s558
466.492	0.246	0	PA_with_intermediate	1,0,0,0,0,0,3,0,0	test	ward_and_allport	1,3,0,2,0,0,0,0,0	89.0	40.0	0.246	1,2,3,0,0,0,0,0,0	to_hand	s558
466.738	0.197	0	PA_with_intermediate	1,0,0,2,0,0,3,0,0	test	ward_and_allport	1,3,0,2,0,0,0,0,0	71.0	40.0	0.197	1,2,3,0,0,0,0,0,0	to_board	s558
466.944	1.463	0	PA_with_intermediate	1,0,0,2,0,0,0,0,0	test	ward_and_allport	1,3,0,2,0,0,0,0,0	82.0	40.0	1.463	1,2,3,0,0,0,0,0,0	to_hand	s558
468.408	0.133	0	PA_with_intermediate	1,3,0,2,0,0,0,0,0	test	ward_and_allport	1,3,0,2,0,0,0,0,0	89.0	40.0	0.133	1,2,3,0,0,0,0,0,0	to_board	s558
468.549	1.0	0	PA_with_intermediate	n/a	test	ward_and_allport	n/a	-1.0	40.0	n/a	n/a	feedback	s558
469.549	1.544	0	PA_with_intermediate	n/a	test	ward_and_allport	n/a	-1.0	40.0	n/a	n/a	ITI	s558
471.1	12.155	1	PA_without_intermediate	0,0,0,0,0,0,1,2,0	test	ward_and_allport	2,0,0,3,1,0,0,0,0	82.0	41.0	12.155	0,0,0,0,0,0,1,2,3	to_hand	s558
483.255	0.186	0	PA_without_intermediate	0,0,0,3,0,0,1,2,0	test	ward_and_allport	2,0,0,3,1,0,0,0,0	71.0	41.0	0.186	0,0,0,0,0,0,1,2,3	to_board	s558
483.448	0.536	0	PA_without_intermediate	0,0,0,3,0,0,1,0,0	test	ward_and_allport	2,0,0,3,1,0,0,0,0	82.0	41.0	0.536	0,0,0,0,0,0,1,2,3	to_hand	s558
483.984	0.191	0	PA_without_intermediate	2,0,0,3,0,0,1,0,0	test	ward_and_allport	2,0,0,3,1,0,0,0,0	89.0	41.0	0.191	0,0,0,0,0,0,1,2,3	to_board	s558
484.185	1.382	0	PA_without_intermediate	2,0,0,0,0,0,1,0,0	test	ward_and_allport	2,0,0,3,1,0,0,0,0	71.0	41.0	1.382	0,0,0,0,0,0,1,2,3	to_hand	s558
485.568	0.03	0	PA_without_intermediate	2,0,0,0,0,0,1,3,0	test	ward_and_allport	2,0,0,3,1,0,0,0,0	82.0	41.0	0.03	0,0,0,0,0,0,1,2,3	to_board	s558
485.607	2.543	0	PA_without_intermediate	2,0,0,0,0,0,1,0,0	test	ward_and_allport	2,0,0,3,1,0,0,0,0	82.0	41.0	2.543	0,0,0,0,0,0,1,2,3	to_hand	s558
488.151	0.157	0	PA_without_intermediate	2,0,0,3,0,0,1,0,0	test	ward_and_allport	2,0,0,3,1,0,0,0,0	71.0	41.0	0.157	0,0,0,0,0,0,1,2,3	to_board	s558
488.317	0.474	0	PA_without_intermediate	2,0,0,3,0,0,0,0,0	test	ward_and_allport	2,0,0,3,1,0,0,0,0	82.0	41.0	0.474	0,0,0,0,0,0,1,2,3	to_hand	s558
488.792	0.197	0	PA_without_intermediate	2,0,0,3,1,0,0,0,0	test	ward_and_allport	2,0,0,3,1,0,0,0,0	71.0	41.0	0.197	0,0,0,0,0,0,1,2,3	to_board	s558
488.999	1.0	0	PA_without_intermediate	n/a	test	ward_and_allport	n/a	-1.0	41.0	n/a	n/a	feedback	s558
489.999	1.272	0	PA_without_intermediate	n/a	test	ward_and_allport	n/a	-1.0	41.0	n/a	n/a	ITI	s558
491.278	4.15	1	PA_with_intermediate	0,0,0,0,0,0,1,2,0	test	ward_and_allport	2,3,0,0,0,0,1,0,0	82.0	42.0	4.15	0,0,0,0,0,0,1,2,3	to_hand	s558
495.429	0.26	0	PA_with_intermediate	0,0,0,3,0,0,1,2,0	test	ward_and_allport	2,3,0,0,0,0,1,0,0	71.0	42.0	0.26	0,0,0,0,0,0,1,2,3	to_board	s558
495.696	0.581	0	PA_with_intermediate	0,0,0,3,0,0,1,0,0	test	ward_and_allport	2,3,0,0,0,0,1,0,0	82.0	42.0	0.581	0,0,0,0,0,0,1,2,3	to_hand	s558
496.278	0.2	0	PA_with_intermediate	2,0,0,3,0,0,1,0,0	test	ward_and_allport	2,3,0,0,0,0,1,0,0	89.0	42.0	0.2	0,0,0,0,0,0,1,2,3	to_board	s558
496.487	0.561	0	PA_with_intermediate	2,0,0,0,0,0,1,0,0	test	ward_and_allport	2,3,0,0,0,0,1,0,0	71.0	42.0	0.561	0,0,0,0,0,0,1,2,3	to_hand	s558
497.049	0.17	0	PA_with_intermediate	2,3,0,0,0,0,1,0,0	test	ward_and_allport	2,3,0,0,0,0,1,0,0	89.0	42.0	0.17	0,0,0,0,0,0,1,2,3	to_board	s558
497.231	1.0	0	PA_with_intermediate	n/a	test	ward_and_allport	n/a	-1.0	42.0	n/a	n/a	feedback	s558
498.231	3.04	0	PA_with_intermediate	n/a	test	ward_and_allport	n/a	-1.0	42.0	n/a	n/a	ITI	s558
501.281	3.439	1	PA_with_intermediate	0,0,0,1,2,0,0,0,0	test	ward_and_allport	2,3,0,1,0,0,0,0,0	71.0	43.0	3.439	0,0,0,1,2,3,0,0,0	to_hand	s558
504.721	0.266	0	PA_with_intermediate	0,0,0,1,2,0,3,0,0	test	ward_and_allport	2,3,0,1,0,0,0,0,0	82.0	43.0	0.266	0,0,0,1,2,3,0,0,0	to_board	s558
504.994	0.822	0	PA_with_intermediate	0,0,0,1,0,0,3,0,0	test	ward_and_allport	2,3,0,1,0,0,0,0,0	71.0	43.0	0.822	0,0,0,1,2,3,0,0,0	to_hand	s558
505.817	0.227	0	PA_with_intermediate	2,0,0,1,0,0,3,0,0	test	ward_and_allport	2,3,0,1,0,0,0,0,0	89.0	43.0	0.227	0,0,0,1,2,3,0,0,0	to_board	s558
506.051	1.036	0	PA_with_intermediate	2,0,0,1,0,0,0,0,0	test	ward_and_allport	2,3,0,1,0,0,0,0,0	82.0	43.0	1.036	0,0,0,1,2,3,0,0,0	to_hand	s558
507.087	0.104	0	PA_with_intermediate	2,3,0,1,0,0,0,0,0	test	ward_and_allport	2,3,0,1,0,0,0,0,0	89.0	43.0	0.104	0,0,0,1,2,3,0,0,0	to_board	s558
507.202	1.0	0	PA_with_intermediate	n/a	test	ward_and_allport	n/a	-1.0	43.0	n/a	n/a	feedback	s558
508.202	1.272	0	PA_with_intermediate	n/a	test	ward_and_allport	n/a	-1.0	43.0	n/a	n/a	ITI	s558
509.484	6.409	1	PA_with_intermediate	0,0,0,0,0,0,1,2,0	test	ward_and_allport	0,0,0,2,0,0,1,3,0	82.0	44.0	6.409	0,0,0,0,0,0,1,2,3	to_hand	s558
515.894	0.176	0	PA_with_intermediate	3,0,0,0,0,0,1,2,0	test	ward_and_allport	0,0,0,2,0,0,1,3,0	89.0	44.0	0.176	0,0,0,0,0,0,1,2,3	to_board	s558
516.08	0.491	0	PA_with_intermediate	3,0,0,0,0,0,1,0,0	test	ward_and_allport	0,0,0,2,0,0,1,3,0	82.0	44.0	0.491	0,0,0,0,0,0,1,2,3	to_hand	s558
516.572	0.164	0	PA_with_intermediate	3,0,0,2,0,0,1,0,0	test	ward_and_allport	0,0,0,2,0,0,1,3,0	71.0	44.0	0.164	0,0,0,0,0,0,1,2,3	to_board	s558
516.747	0.38	0	PA_with_intermediate	0,0,0,2,0,0,1,0,0	test	ward_and_allport	0,0,0,2,0,0,1,3,0	89.0	44.0	0.38	0,0,0,0,0,0,1,2,3	to_hand	s558
517.127	0.227	0	PA_with_intermediate	0,0,0,2,0,0,1,3,0	test	ward_and_allport	0,0,0,2,0,0,1,3,0	82.0	44.0	0.227	0,0,0,0,0,0,1,2,3	to_board	s558
517.366	1.0	0	PA_with_intermediate	n/a	test	ward_and_allport	n/a	-1.0	44.0	n/a	n/a	feedback	s558
518.366	1.136	0	PA_with_intermediate	n/a	test	ward_and_allport	n/a	-1.0	44.0	n/a	n/a	ITI	s558
524.514	5.128	1	PA_with_intermediate	0,0,0,1,2,0,0,0,0	test	ward_and_allport	0,0,0,1,3,0,2,0,0	71.0	45.0	5.128	0,0,0,1,2,3,0,0,0	to_hand	s558
529.643	0.245	0	PA_with_intermediate	3,0,0,1,2,0,0,0,0	test	ward_and_allport	0,0,0,1,3,0,2,0,0	89.0	45.0	0.245	0,0,0,1,2,3,0,0,0	to_board	s558
529.898	0.389	0	PA_with_intermediate	3,0,0,1,0,0,0,0,0	test	ward_and_allport	0,0,0,1,3,0,2,0,0	71.0	45.0	0.389	0,0,0,1,2,3,0,0,0	to_hand	s558
530.288	0.281	0	PA_with_intermediate	3,0,0,1,0,0,2,0,0	test	ward_and_allport	0,0,0,1,3,0,2,0,0	82.0	45.0	0.281	0,0,0,1,2,3,0,0,0	to_board	s558
530.581	0.31	0	PA_with_intermediate	0,0,0,1,0,0,2,0,0	test	ward_and_allport	0,0,0,1,3,0,2,0,0	89.0	45.0	0.31	0,0,0,1,2,3,0,0,0	to_hand	s558
530.891	0.222	0	PA_with_intermediate	0,0,0,1,3,0,2,0,0	test	ward_and_allport	0,0,0,1,3,0,2,0,0	71.0	45.0	0.222	0,0,0,1,2,3,0,0,0	to_board	s558
531.126	1.0	0	PA_with_intermediate	n/a	test	ward_and_allport	n/a	-1.0	45.0	n/a	n/a	feedback	s558
532.126	1.0	0	PA_with_intermediate	n/a	test	ward_and_allport	n/a	-1.0	45.0	n/a	n/a	ITI	s558
533.137	4.303	1	PA_with_intermediate	0,0,0,1,2,0,0,0,0	test	ward_and_allport	0,0,0,1,0,0,2,3,0	71.0	46.0	4.303	0,0,0,1,2,3,0,0,0	to_hand	s558
537.441	0.24	0	PA_with_intermediate	3,0,0,1,2,0,0,0,0	test	ward_and_allport	0,0,0,1,0,0,2,3,0	89.0	46.0	0.24	0,0,0,1,2,3,0,0,0	to_board	s558
537.689	0.254	0	PA_with_intermediate	3,0,0,1,0,0,0,0,0	test	ward_and_allport	0,0,0,1,0,0,2,3,0	71.0	46.0	0.254	0,0,0,1,2,3,0,0,0	to_hand	s558
537.943	0.248	0	PA_with_intermediate	3,0,0,1,0,0,2,0,0	test	ward_and_allport	0,0,0,1,0,0,2,3,0	82.0	46.0	0.248	0,0,0,1,2,3,0,0,0	to_board	s558
538.199	0.272	0	PA_with_intermediate	0,0,0,1,0,0,2,0,0	test	ward_and_allport	0,0,0,1,0,0,2,3,0	89.0	46.0	0.272	0,0,0,1,2,3,0,0,0	to_hand	s558
538.471	0.228	0	PA_with_intermediate	0,0,0,1,0,0,2,3,0	test	ward_and_allport	0,0,0,1,0,0,2,3,0	82.0	46.0	0.228	0,0,0,1,2,3,0,0,0	to_board	s558
538.71	1.0	0	PA_with_intermediate	n/a	test	ward_and_allport	n/a	-1.0	46.0	n/a	n/a	feedback	s558
539.71	1.0	0	PA_with_intermediate	n/a	test	ward_and_allport	n/a	-1.0	46.0	n/a	n/a	ITI	s558
540.721	3.315	1	PA_without_intermediate	0,0,0,0,0,0,1,2,0	test	ward_and_allport	1,0,0,3,2,0,0,0,0	82.0	47.0	3.315	0,0,0,0,0,0,1,2,3	to_hand	s558
544.036	0.177	0	PA_without_intermediate	0,0,0,3,0,0,1,2,0	test	ward_and_allport	1,0,0,3,2,0,0,0,0	71.0	47.0	0.177	0,0,0,0,0,0,1,2,3	to_board	s558
544.224	0.373	0	PA_without_intermediate	0,0,0,3,0,0,1,0,0	test	ward_and_allport	1,0,0,3,2,0,0,0,0	82.0	47.0	0.373	0,0,0,0,0,0,1,2,3	to_hand	s558
544.598	0.197	0	PA_without_intermediate	0,0,0,3,2,0,1,0,0	test	ward_and_allport	1,0,0,3,2,0,0,0,0	71.0	47.0	0.197	0,0,0,0,0,0,1,2,3	to_board	s558
544.806	0.307	0	PA_without_intermediate	0,0,0,3,2,0,0,0,0	test	ward_and_allport	1,0,0,3,2,0,0,0,0	82.0	47.0	0.307	0,0,0,0,0,0,1,2,3	to_hand	s558
545.114	0.181	0	PA_without_intermediate	1,0,0,3,2,0,0,0,0	test	ward_and_allport	1,0,0,3,2,0,0,0,0	89.0	47.0	0.181	0,0,0,0,0,0,1,2,3	to_board	s558
545.308	1.0	0	PA_without_intermediate	n/a	test	ward_and_allport	n/a	-1.0	47.0	n/a	n/a	feedback	s558
546.308	1.408	0	PA_without_intermediate	n/a	test	ward_and_allport	n/a	-1.0	47.0	n/a	n/a	ITI	s558
n/a	n/a	0	n/a	n/a	n/a	n/a	n/a	n/a	n/a	n/a	n/a	ITI	n/a
