onset	duration	SS_delay	correct_response	experiment_exp_id	key_press	response_time	stopped	trial_type	worker_id
3.013	0.85	0.4	89.0	stop_signal	89.0	0.516	False	stop_failure	s581
5.267	0.85	0.35	89.0	stop_signal	89.0	0.735	False	go	s581
7.928	0.85	0.35	71.0	stop_signal	71.0	0.738	False	go	s581
10.593	0.85	0.35	89.0	stop_signal	89.0	0.503	False	go	s581
12.844	0.85	0.35	71.0	stop_signal	71.0	0.355	False	go	s581
15.097	0.85	0.35	71.0	stop_signal	71.0	0.647	False	go	s581
17.487	0.85	0.35	89.0	stop_signal	89.0	0.68	False	stop_failure	s581
20.287	0.85	0.3	89.0	stop_signal	-1.0	n/a	True	stop_success	s581
22.678	0.85	0.35	71.0	stop_signal	71.0	0.579	False	stop_failure	s581
24.934	0.85	0.3	89.0	stop_signal	-1.0	n/a	True	stop_success	s581
27.19	0.85	0.35	71.0	stop_signal	-1.0	n/a	True	stop_success	s581
29.445	0.85	0.4	89.0	stop_signal	89.0	0.815	False	go	s581
32.106	0.85	0.4	89.0	stop_signal	89.0	0.553	False	go	s581
34.769	0.85	0.4	89.0	stop_signal	89.0	0.81	False	go	s581
37.022	0.85	0.4	89.0	stop_signal	89.0	0.766	False	go	s581
39.548	0.85	0.4	71.0	stop_signal	71.0	0.535	False	go	s581
41.804	0.85	0.4	71.0	stop_signal	-1.0	n/a	True	stop_success	s581
44.332	0.85	0.45	71.0	stop_signal	71.0	0.772	False	go	s581
46.858	0.85	0.45	71.0	stop_signal	-1.0	n/a	True	stop_success	s581
49.386	0.85	0.5	89.0	stop_signal	89.0	0.658	False	stop_failure	s581
51.778	0.85	0.45	89.0	stop_signal	-1.0	n/a	True	stop_success	s581
54.302	0.85	0.5	71.0	stop_signal	71.0	0.653	False	go	s581
56.827	0.85	0.5	89.0	stop_signal	89.0	0.71	False	go	s581
59.218	0.85	0.5	71.0	stop_signal	71.0	0.653	False	go	s581
61.474	0.85	0.5	71.0	stop_signal	89.0	0.924	False	go	s581
64.002	0.85	0.5	71.0	stop_signal	71.0	0.674	False	go	s581
66.802	0.85	0.5	89.0	stop_signal	89.0	0.62	False	stop_failure	s581
69.329	0.85	0.45	89.0	stop_signal	-1.0	n/a	True	stop_success	s581
71.72	0.85	0.5	89.0	stop_signal	71.0	0.848	False	go	s581
73.976	0.85	0.5	71.0	stop_signal	-1.0	n/a	True	stop_success	s581
76.232	0.85	0.55	89.0	stop_signal	89.0	0.786	False	stop_failure	s581
78.488	0.85	0.5	89.0	stop_signal	-1.0	n/a	True	stop_success	s581
80.741	0.85	0.55	89.0	stop_signal	89.0	0.742	False	go	s581
83.267	0.85	0.55	71.0	stop_signal	71.0	0.596	False	go	s581
85.523	0.85	0.55	89.0	stop_signal	89.0	0.627	False	stop_failure	s581
87.778	0.85	0.5	89.0	stop_signal	89.0	0.95	False	go	s581
90.031	0.85	0.5	89.0	stop_signal	89.0	1.032	False	go	s581
92.283	0.85	0.5	89.0	stop_signal	89.0	0.746	False	go	s581
94.672	0.85	0.5	89.0	stop_signal	89.0	0.557	False	go	s581
96.926	0.85	0.5	89.0	stop_signal	89.0	0.488	False	stop_failure	s581
99.178	0.85	0.45	71.0	stop_signal	89.0	0.691	False	go	s581
111.943	0.85	0.45	71.0	stop_signal	71.0	0.605	False	stop_failure	s581
114.196	0.85	0.4	89.0	stop_signal	89.0	0.554	False	stop_failure	s581
116.72	0.85	0.35	89.0	stop_signal	89.0	0.585	False	go	s581
119.111	0.85	0.35	71.0	stop_signal	71.0	0.447	False	go	s581
121.636	0.85	0.35	89.0	stop_signal	89.0	0.535	False	stop_failure	s581
123.89	0.85	0.3	71.0	stop_signal	71.0	0.877	False	go	s581
126.277	0.85	0.3	89.0	stop_signal	89.0	0.711	False	go	s581
128.666	0.85	0.3	89.0	stop_signal	89.0	0.768	False	go	s581
130.918	0.85	0.3	71.0	stop_signal	71.0	0.673	False	go	s581
133.307	0.85	0.3	71.0	stop_signal	71.0	0.58	False	go	s581
135.698	0.85	0.3	71.0	stop_signal	-1.0	n/a	True	stop_success	s581
138.088	0.85	0.35	89.0	stop_signal	89.0	0.489	False	go	s581
140.752	0.85	0.35	89.0	stop_signal	89.0	0.731	False	go	s581
143.276	0.85	0.35	71.0	stop_signal	71.0	0.527	False	stop_failure	s581
145.528	0.85	0.3	89.0	stop_signal	-1.0	n/a	True	stop_success	s581
148.463	0.85	0.35	89.0	stop_signal	89.0	0.576	False	go	s581
150.715	0.85	0.35	71.0	stop_signal	71.0	0.753	False	go	s581
153.243	0.85	0.35	71.0	stop_signal	71.0	0.627	False	stop_failure	s581
155.499	0.85	0.3	89.0	stop_signal	89.0	0.884	False	go	s581
157.755	0.85	0.3	71.0	stop_signal	71.0	0.695	False	go	s581
160.011	0.85	0.3	89.0	stop_signal	89.0	0.609	False	go	s581
162.267	0.85	0.3	89.0	stop_signal	89.0	0.599	False	go	s581
164.795	0.85	0.3	89.0	stop_signal	-1.0	n/a	True	stop_success	s581
167.866	0.85	0.35	71.0	stop_signal	71.0	0.583	False	stop_failure	s581
170.121	0.85	0.3	89.0	stop_signal	89.0	0.922	False	go	s581
172.51	0.85	0.3	89.0	stop_signal	-1.0	n/a	True	stop_success	s581
174.902	0.85	0.35	89.0	stop_signal	89.0	0.846	False	go	s581
177.427	0.85	0.35	71.0	stop_signal	71.0	0.6	False	go	s581
179.816	0.85	0.35	71.0	stop_signal	71.0	0.612	False	go	s581
182.204	0.85	0.35	71.0	stop_signal	-1.0	n/a	True	stop_success	s581
185.003	0.85	0.4	71.0	stop_signal	71.0	0.705	False	go	s581
187.393	0.85	0.4	71.0	stop_signal	71.0	0.538	False	stop_failure	s581
189.649	0.85	0.35	89.0	stop_signal	-1.0	n/a	True	stop_success	s581
192.175	0.85	0.4	71.0	stop_signal	-1.0	n/a	True	stop_success	s581
194.564	0.85	0.45	71.0	stop_signal	71.0	0.581	False	go	s581
196.956	0.85	0.45	71.0	stop_signal	71.0	0.62	False	stop_failure	s581
199.21	0.85	0.4	71.0	stop_signal	71.0	1.093	False	go	s581
201.602	0.85	0.4	89.0	stop_signal	89.0	0.578	False	go	s581
203.858	0.85	0.4	71.0	stop_signal	71.0	0.669	False	stop_failure	s581
206.114	0.85	0.35	71.0	stop_signal	71.0	0.778	False	go	s581
208.368	0.85	0.35	89.0	stop_signal	89.0	0.633	False	go	s581
210.759	0.85	0.35	89.0	stop_signal	89.0	0.562	False	stop_failure	s581
223.523	0.85	0.3	89.0	stop_signal	89.0	0.593	False	stop_failure	s581
225.776	0.85	0.25	89.0	stop_signal	-1.0	n/a	True	stop_success	s581
228.165	0.85	0.3	71.0	stop_signal	71.0	0.554	False	stop_failure	s581
230.557	0.85	0.25	71.0	stop_signal	71.0	0.848	False	go	s581
232.809	0.85	0.25	89.0	stop_signal	-1.0	n/a	True	stop_success	s581
235.336	0.85	0.3	71.0	stop_signal	71.0	0.542	False	go	s581
237.59	0.85	0.3	89.0	stop_signal	89.0	0.707	False	go	s581
239.982	0.85	0.3	71.0	stop_signal	71.0	0.725	False	go	s581
242.238	0.85	0.3	71.0	stop_signal	-1.0	n/a	True	stop_success	s581
244.491	0.85	0.35	71.0	stop_signal	71.0	1.041	False	go	s581
246.879	0.85	0.35	89.0	stop_signal	89.0	0.512	False	go	s581
249.403	0.85	0.35	71.0	stop_signal	71.0	0.624	False	go	s581
251.795	0.85	0.35	89.0	stop_signal	89.0	0.572	False	go	s581
254.32	0.85	0.35	71.0	stop_signal	-1.0	n/a	True	stop_success	s581
257.253	0.85	0.4	71.0	stop_signal	71.0	0.582	False	go	s581
259.78	0.85	0.4	89.0	stop_signal	89.0	0.494	False	go	s581
262.304	0.85	0.4	71.0	stop_signal	71.0	0.593	False	go	s581
264.558	0.85	0.4	71.0	stop_signal	-1.0	n/a	True	stop_success	s581
267.084	0.85	0.45	71.0	stop_signal	71.0	0.666	False	go	s581
269.476	0.85	0.45	89.0	stop_signal	89.0	0.559	False	go	s581
271.729	0.85	0.45	89.0	stop_signal	89.0	0.474	False	go	s581
274.118	0.85	0.45	71.0	stop_signal	71.0	0.606	False	go	s581
276.371	0.85	0.45	89.0	stop_signal	89.0	0.376	False	stop_failure	s581
278.764	0.85	0.4	71.0	stop_signal	71.0	0.779	False	go	s581
281.289	0.85	0.4	89.0	stop_signal	89.0	0.578	False	stop_failure	s581
283.543	0.85	0.35	71.0	stop_signal	-1.0	n/a	True	stop_success	s581
285.933	0.85	0.4	89.0	stop_signal	89.0	0.759	False	go	s581
288.596	0.85	0.4	89.0	stop_signal	89.0	0.561	False	stop_failure	s581
290.85	0.85	0.35	71.0	stop_signal	71.0	0.783	False	go	s581
294.055	0.85	0.35	89.0	stop_signal	89.0	0.715	False	go	s581
296.444	0.85	0.35	71.0	stop_signal	71.0	0.65	False	go	s581
298.832	0.85	0.35	71.0	stop_signal	-1.0	n/a	True	stop_success	s581
301.36	0.85	0.4	71.0	stop_signal	71.0	0.569	False	go	s581
303.617	0.85	0.4	71.0	stop_signal	71.0	0.595	False	stop_failure	s581
305.872	0.85	0.35	71.0	stop_signal	-1.0	n/a	True	stop_success	s581
308.125	0.85	0.4	71.0	stop_signal	71.0	0.968	False	go	s581
311.061	0.85	0.4	89.0	stop_signal	89.0	0.618	False	go	s581
313.59	0.85	0.4	89.0	stop_signal	89.0	0.613	False	go	s581
316.118	0.85	0.4	89.0	stop_signal	89.0	0.618	False	go	s581
318.372	0.85	0.4	71.0	stop_signal	71.0	0.656	False	stop_failure	s581
320.896	0.85	0.35	71.0	stop_signal	-1.0	n/a	True	stop_success	s581
323.15	0.85	0.4	71.0	stop_signal	71.0	0.831	False	go	s581
