onset	duration	EV	action	clicked_on_loss_card	experiment_exp_id	gain_amount	gain_probability	key_press	loss_amount	loss_probability	num_cards	num_click_in_round	num_loss_cards	risk	response_time	total_cards	trial_id	worker_id
3.012	10.103	0.8036016865733844	draw_card	0.0	columbia_card_task_fmri	12.0	0.8333333333333334	89.0	-70.0	0.1666666666666666	6.0	1.0	1.0	-3.129000638364097	10.103	n/a	stim	s581
13.119	3.052	-1.929731646759948	draw_card	1.0	columbia_card_task_fmri	12.0	0.8	89.0	-70.0	0.2	6.0	2.0	1.0	-0.8953849666374296	3.052	2.0	stim	s581
16.177	2.25	n/a	-1.0	n/a	columbia_card_task_fmri	n/a	n/a	-1.0	n/a	n/a	n/a	n/a	n/a	n/a	n/a	n/a	feedback	s581
18.427	0.204	n/a	-1.0	n/a	columbia_card_task_fmri	n/a	n/a	-1.0	n/a	n/a	n/a	n/a	n/a	n/a	n/a	n/a	ITI	s581
18.635	6.123	1.6369350199067183	draw_card	0.0	columbia_card_task_fmri	14.0	0.8333333333333334	89.0	-75.0	0.1666666666666666	6.0	1.0	1.0	-0.5280720013253699	6.123	n/a	stim	s581
24.76	2.221	-1.3297316467599485	draw_card	0.0	columbia_card_task_fmri	14.0	0.8	89.0	-75.0	0.2	6.0	2.0	1.0	1.897327332226148	2.221	n/a	stim	s581
26.983	5.926	-5.7797316467599495	draw_card	0.0	columbia_card_task_fmri	14.0	0.75	89.0	-75.0	0.25	6.0	3.0	1.0	4.828945418283283	5.926	n/a	stim	s581
32.911	2.074	-13.196398313426617	end_round	0.0	columbia_card_task_fmri	14.0	0.6666666666666667	71.0	-75.0	0.3333333333333333	6.0	4.0	1.0	8.239387722509377	2.074	3.0	stim	s581
34.99	2.25	n/a	-1.0	n/a	columbia_card_task_fmri	n/a	n/a	-1.0	n/a	n/a	n/a	n/a	n/a	n/a	n/a	n/a	feedback	s581
37.24	0.204	n/a	-1.0	n/a	columbia_card_task_fmri	n/a	n/a	-1.0	n/a	n/a	n/a	n/a	n/a	n/a	n/a	n/a	ITI	s581
37.446	7.675	3.3036016865733844	draw_card	0.0	columbia_card_task_fmri	15.0	0.8333333333333334	89.0	-70.0	0.1666666666666666	6.0	1.0	1.0	-2.0144738842535013	7.675	n/a	stim	s581
45.123	2.099	0.4702683532400504	draw_card	0.0	columbia_card_task_fmri	15.0	0.8	89.0	-70.0	0.2	6.0	2.0	1.0	0.3013453315178012	2.099	n/a	stim	s581
47.224	1.072	-3.7797316467599495	draw_card	0.0	columbia_card_task_fmri	15.0	0.75	89.0	-70.0	0.25	6.0	3.0	1.0	3.10060833104901	1.072	n/a	stim	s581
48.297	2.654	-10.86306498009328	end_round	0.0	columbia_card_task_fmri	15.0	0.6666666666666667	71.0	-70.0	0.3333333333333333	6.0	4.0	1.0	6.35718262448372	2.654	3.0	stim	s581
50.954	2.25	n/a	-1.0	n/a	columbia_card_task_fmri	n/a	n/a	-1.0	n/a	n/a	n/a	n/a	n/a	n/a	n/a	n/a	feedback	s581
53.204	0.272	n/a	-1.0	n/a	columbia_card_task_fmri	n/a	n/a	-1.0	n/a	n/a	n/a	n/a	n/a	n/a	n/a	n/a	ITI	s581
53.478	2.527	4.136935019906718	draw_card	0.0	columbia_card_task_fmri	17.0	0.8333333333333334	89.0	-75.0	0.1666666666666666	6.0	1.0	1.0	0.5869743781085717	2.527	n/a	stim	s581
56.008	1.075	1.070268353240052	draw_card	0.0	columbia_card_task_fmri	17.0	0.8	89.0	-75.0	0.2	6.0	2.0	1.0	3.0945423193666457	1.075	n/a	stim	s581
57.085	2.376	-3.529731646759949	draw_card	0.0	columbia_card_task_fmri	17.0	0.75	89.0	-75.0	0.25	6.0	3.0	1.0	6.125409525499549	2.376	n/a	stim	s581
59.463	1.643	-11.196398313426617	draw_card	0.0	columbia_card_task_fmri	17.0	0.6666666666666667	89.0	-75.0	0.3333333333333333	6.0	4.0	1.0	9.651235818055326	1.643	n/a	stim	s581
61.108	2.407	-26.52973164675995	end_round	0.0	columbia_card_task_fmri	17.0	0.5	71.0	-75.0	0.5	6.0	5.0	1.0	12.278005622005978	2.407	4.0	stim	s581
63.519	2.25	n/a	-1.0	n/a	columbia_card_task_fmri	n/a	n/a	-1.0	n/a	n/a	n/a	n/a	n/a	n/a	n/a	n/a	feedback	s581
65.769	0.204	n/a	-1.0	n/a	columbia_card_task_fmri	n/a	n/a	-1.0	n/a	n/a	n/a	n/a	n/a	n/a	n/a	n/a	ITI	s581
65.974	2.138	5.4702683532400505	draw_card	0.0	columbia_card_task_fmri	24.0	0.75	89.0	-60.0	0.25	8.0	1.0	2.0	2.6685791368573675	2.138	n/a	stim	s581
68.114	1.574	2.4702683532400505	draw_card	1.0	columbia_card_task_fmri	24.0	0.7142857142857143	89.0	-60.0	0.2857142857142857	8.0	2.0	2.0	4.239375637809083	1.574	2.0	stim	s581
69.694	2.25	n/a	-1.0	n/a	columbia_card_task_fmri	n/a	n/a	-1.0	n/a	n/a	n/a	n/a	n/a	n/a	n/a	n/a	feedback	s581
71.944	0.408	n/a	-1.0	n/a	columbia_card_task_fmri	n/a	n/a	-1.0	n/a	n/a	n/a	n/a	n/a	n/a	n/a	n/a	ITI	s581
72.353	1.581	5.4702683532400505	draw_card	0.0	columbia_card_task_fmri	29.0	0.75	89.0	-75.0	0.25	8.0	1.0	2.0	11.312747279632582	1.581	n/a	stim	s581
73.936	1.433	1.7559826389543387	draw_card	0.0	columbia_card_task_fmri	29.0	0.7142857142857143	89.0	-75.0	0.2857142857142857	8.0	2.0	2.0	13.25903256157182	1.433	n/a	stim	s581
75.371	1.881	-3.196398313426614	draw_card	0.0	columbia_card_task_fmri	29.0	0.6666666666666667	89.0	-75.0	0.3333333333333333	8.0	3.0	2.0	15.299990042586876	1.881	n/a	stim	s581
77.253	1.091	-10.12973164675995	draw_card	0.0	columbia_card_task_fmri	29.0	0.6	89.0	-75.0	0.4	8.0	4.0	2.0	17.22096150373399	1.091	n/a	stim	s581
78.347	3.688	-20.52973164675995	draw_card	1.0	columbia_card_task_fmri	29.0	0.5	89.0	-75.0	0.5	8.0	5.0	2.0	18.270367014013797	3.688	5.0	stim	s581
82.041	2.25	n/a	-1.0	n/a	columbia_card_task_fmri	n/a	n/a	-1.0	n/a	n/a	n/a	n/a	n/a	n/a	n/a	n/a	feedback	s581
84.291	0.136	n/a	-1.0	n/a	columbia_card_task_fmri	n/a	n/a	-1.0	n/a	n/a	n/a	n/a	n/a	n/a	n/a	n/a	ITI	s581
84.429	3.958	1.2480461310178308	draw_card	0.0	columbia_card_task_fmri	17.0	0.7777777777777778	89.0	-65.0	0.2222222222222222	9.0	1.0	2.0	0.391763821262252	3.958	n/a	stim	s581
88.389	1.71	-1.0297316467599495	draw_card	1.0	columbia_card_task_fmri	17.0	0.75	89.0	-65.0	0.25	9.0	2.0	2.0	1.8045924574663768	1.71	2.0	stim	s581
90.102	2.25	n/a	-1.0	n/a	columbia_card_task_fmri	n/a	n/a	-1.0	n/a	n/a	n/a	n/a	n/a	n/a	n/a	n/a	feedback	s581
92.352	0.272	n/a	-1.0	n/a	columbia_card_task_fmri	n/a	n/a	-1.0	n/a	n/a	n/a	n/a	n/a	n/a	n/a	n/a	ITI	s581
92.626	1.17	5.57026835324005	draw_card	0.0	columbia_card_task_fmri	14.0	0.9	89.0	-95.0	0.1	10.0	1.0	1.0	-0.9951017046295192	1.17	n/a	stim	s581
93.799	1.348	4.359157242128938	draw_card	0.0	columbia_card_task_fmri	14.0	0.8888888888888888	89.0	-95.0	0.1111111111111111	10.0	2.0	1.0	0.5560740697866393	1.348	n/a	stim	s581
95.15	1.579	2.8452683532400505	draw_card	0.0	columbia_card_task_fmri	14.0	0.875	89.0	-95.0	0.125	10.0	3.0	1.0	2.344626747082714	1.579	n/a	stim	s581
96.732	2.164	0.8988397818114793	draw_card	0.0	columbia_card_task_fmri	14.0	0.8571428571428572	89.0	-95.0	0.1428571428571428	10.0	4.0	1.0	4.433689097844969	2.164	n/a	stim	s581
98.898	1.568	-1.6963983134266138	draw_card	1.0	columbia_card_task_fmri	14.0	0.8333333333333334	89.0	-95.0	0.1666666666666666	10.0	5.0	1.0	6.908667158205077	1.568	5.0	stim	s581
100.471	2.25	n/a	-1.0	n/a	columbia_card_task_fmri	n/a	n/a	-1.0	n/a	n/a	n/a	n/a	n/a	n/a	n/a	n/a	feedback	s581
102.721	0.34	n/a	-1.0	n/a	columbia_card_task_fmri	n/a	n/a	-1.0	n/a	n/a	n/a	n/a	n/a	n/a	n/a	n/a	ITI	s581
103.062	1.369	1.4702683532400505	draw_card	0.0	columbia_card_task_fmri	15.0	0.8	89.0	-65.0	0.2	10.0	1.0	2.0	-1.6930695167287624	1.369	n/a	stim	s581
104.433	1.364	-0.3075094245377263	draw_card	0.0	columbia_card_task_fmri	15.0	0.7777777777777778	89.0	-65.0	0.2222222222222222	10.0	2.0	2.0	-0.4374870917651634	1.364	n/a	stim	s581
105.8	1.156	-2.529731646759949	draw_card	0.0	columbia_card_task_fmri	15.0	0.75	89.0	-65.0	0.25	10.0	3.0	2.0	0.9407073365645005	1.156	n/a	stim	s581
106.958	1.861	-5.386874503902804	draw_card	0.0	columbia_card_task_fmri	15.0	0.7142857142857143	89.0	-65.0	0.2857142857142857	10.0	4.0	2.0	2.436366649204388	1.861	n/a	stim	s581
108.82	2.001	-9.196398313426611	end_round	0.0	columbia_card_task_fmri	15.0	0.6666666666666667	71.0	-65.0	0.3333333333333333	10.0	5.0	2.0	4.004904746242907	2.001	4.0	stim	s581
110.826	2.25	n/a	-1.0	n/a	columbia_card_task_fmri	n/a	n/a	-1.0	n/a	n/a	n/a	n/a	n/a	n/a	n/a	n/a	feedback	s581
113.076	0.136	n/a	-1.0	n/a	columbia_card_task_fmri	n/a	n/a	-1.0	n/a	n/a	n/a	n/a	n/a	n/a	n/a	n/a	ITI	s581
113.214	2.381	3.070268353240052	draw_card	0.0	columbia_card_task_fmri	17.0	0.8	89.0	-65.0	0.2	10.0	1.0	2.0	-0.8953849666374296	2.381	n/a	stim	s581
115.597	1.292	1.2480461310178308	draw_card	0.0	columbia_card_task_fmri	17.0	0.7777777777777778	89.0	-65.0	0.2222222222222222	10.0	2.0	2.0	0.391763821262252	1.292	n/a	stim	s581
116.891	1.471	-1.0297316467599495	draw_card	1.0	columbia_card_task_fmri	17.0	0.75	89.0	-65.0	0.25	10.0	3.0	2.0	1.8045924574663768	1.471	3.0	stim	s581
118.365	2.25	n/a	-1.0	n/a	columbia_card_task_fmri	n/a	n/a	-1.0	n/a	n/a	n/a	n/a	n/a	n/a	n/a	n/a	feedback	s581
120.615	0.34	n/a	-1.0	n/a	columbia_card_task_fmri	n/a	n/a	-1.0	n/a	n/a	n/a	n/a	n/a	n/a	n/a	n/a	ITI	s581
120.957	1.689	1.6369350199067183	draw_card	0.0	columbia_card_task_fmri	13.0	0.8333333333333334	89.0	-70.0	0.1666666666666666	12.0	1.0	2.0	-2.7575197574247348	1.689	n/a	stim	s581
122.648	1.308	0.3793592623309569	draw_card	0.0	columbia_card_task_fmri	13.0	0.8181818181818181	89.0	-70.0	0.1818181818181818	12.0	2.0	2.0	-1.680454576237807	1.308	n/a	stim	s581
123.959	2.404	-1.1297316467599492	draw_card	1.0	columbia_card_task_fmri	13.0	0.8	89.0	-70.0	0.2	12.0	3.0	2.0	-0.4965010218292391	2.404	3.0	stim	s581
126.367	2.25	n/a	-1.0	n/a	columbia_card_task_fmri	n/a	n/a	-1.0	n/a	n/a	n/a	n/a	n/a	n/a	n/a	n/a	feedback	s581
128.617	0.068	n/a	-1.0	n/a	columbia_card_task_fmri	n/a	n/a	-1.0	n/a	n/a	n/a	n/a	n/a	n/a	n/a	n/a	ITI	s581
128.687	2.621	1.6369350199067183	draw_card	0.0	columbia_card_task_fmri	15.0	0.8333333333333334	89.0	-80.0	0.1666666666666666	12.0	1.0	2.0	1.7022087400281052	2.621	n/a	stim	s581
131.311	1.203	0.1975410805127753	draw_card	1.0	columbia_card_task_fmri	15.0	0.8181818181818181	89.0	-80.0	0.1818181818181818	12.0	2.0	2.0	2.935888665601098	1.203	2.0	stim	s581
132.52	2.25	n/a	-1.0	n/a	columbia_card_task_fmri	n/a	n/a	-1.0	n/a	n/a	n/a	n/a	n/a	n/a	n/a	n/a	feedback	s581
134.77	0.0	n/a	-1.0	n/a	columbia_card_task_fmri	n/a	n/a	-1.0	n/a	n/a	n/a	n/a	n/a	n/a	n/a	n/a	ITI	s581
134.772	1.719	0.6702683532400515	draw_card	0.0	columbia_card_task_fmri	14.0	0.8	89.0	-65.0	0.2	15.0	1.0	3.0	-2.0918680246557777	1.719	n/a	stim	s581
136.493	1.038	-0.4583030753313766	draw_card	0.0	columbia_card_task_fmri	14.0	0.7857142857142857	89.0	-65.0	0.2142857142857142	15.0	2.0	3.0	-1.2785406559639014	1.038	n/a	stim	s581
137.535	1.211	-1.7605008775291813	draw_card	0.0	columbia_card_task_fmri	14.0	0.7692307692307692	89.0	-65.0	0.2307692307692307	15.0	3.0	3.0	-0.4120553657963697	1.211	n/a	stim	s581
138.748	1.175	-3.279731646759949	draw_card	0.0	columbia_card_task_fmri	14.0	0.75	89.0	-65.0	0.25	15.0	4.0	3.0	0.508805258787568	1.175	n/a	stim	s581
139.925	1.286	-5.075186192214495	draw_card	0.0	columbia_card_task_fmri	14.0	0.7272727272727273	89.0	-65.0	0.2727272727272727	15.0	5.0	3.0	1.4819179605331383	1.286	n/a	stim	s581
141.213	1.552	-7.229731646759951	draw_card	0.0	columbia_card_task_fmri	14.0	0.7	89.0	-65.0	0.3	15.0	6.0	3.0	2.4982543685274265	1.552	n/a	stim	s581
142.768	3.219	-9.86306498009328	draw_card	1.0	columbia_card_task_fmri	14.0	0.6666666666666667	89.0	-65.0	0.3333333333333333	15.0	7.0	3.0	3.534521012030716	3.219	7.0	stim	s581
145.991	2.25	n/a	-1.0	n/a	columbia_card_task_fmri	n/a	n/a	-1.0	n/a	n/a	n/a	n/a	n/a	n/a	n/a	n/a	feedback	s581
148.241	0.204	n/a	-1.0	n/a	columbia_card_task_fmri	n/a	n/a	-1.0	n/a	n/a	n/a	n/a	n/a	n/a	n/a	n/a	ITI	s581
148.448	2.992	0.5952683532400505	draw_card	0.0	columbia_card_task_fmri	1.0	0.9375	89.0	-45.0	0.0625	16.0	1.0	1.0	-22.38272385478089	2.992	n/a	stim	s581
151.443	2.314	0.403601686573384	draw_card	0.0	columbia_card_task_fmri	1.0	0.9333333333333332	89.0	-45.0	0.0666666666666666	16.0	2.0	1.0	-22.05096508513517	2.314	n/a	stim	s581
153.759	2.742	0.1845540675257648	draw_card	0.0	columbia_card_task_fmri	1.0	0.9285714285714286	89.0	-45.0	0.0714285714285714	16.0	3.0	1.0	-21.68665690698657	2.742	n/a	stim	s581
156.504	7.117	-0.0681931852214878	end_round	0.0	columbia_card_task_fmri	1.0	0.9230769230769232	71.0	-45.0	0.0769230769230769	16.0	4.0	1.0	-21.284245958557165	7.117	3.0	stim	s581
163.626	2.25	n/a	-1.0	n/a	columbia_card_task_fmri	n/a	n/a	-1.0	n/a	n/a	n/a	n/a	n/a	n/a	n/a	n/a	feedback	s581
165.876	1.02	n/a	-1.0	n/a	columbia_card_task_fmri	n/a	n/a	-1.0	n/a	n/a	n/a	n/a	n/a	n/a	n/a	n/a	ITI	s581
166.898	4.971	1.5327683532400505	draw_card	0.0	columbia_card_task_fmri	15.0	0.8125	89.0	-70.0	0.1875	16.0	1.0	3.0	-0.5198844712800934	4.971	n/a	stim	s581
171.872	2.507	0.4702683532400504	draw_card	0.0	columbia_card_task_fmri	15.0	0.8	89.0	-70.0	0.2	16.0	2.0	3.0	0.3013453315178012	2.507	n/a	stim	s581
174.382	2.631	-0.7440173610456648	draw_card	0.0	columbia_card_task_fmri	15.0	0.7857142857142857	89.0	-70.0	0.2142857142857142	16.0	3.0	3.0	1.1767975108239952	2.631	n/a	stim	s581
177.015	1.805	-2.1451162621445663	draw_card	0.0	columbia_card_task_fmri	15.0	0.7692307692307692	89.0	-70.0	0.2307692307692307	16.0	4.0	3.0	2.1094490565629087	1.805	n/a	stim	s581
178.823	2.056	-3.7797316467599495	draw_card	0.0	columbia_card_task_fmri	15.0	0.75	89.0	-70.0	0.25	16.0	5.0	3.0	3.10060833104901	2.056	n/a	stim	s581
180.882	3.364	-5.711549828578129	draw_card	0.0	columbia_card_task_fmri	15.0	0.7272727272727273	89.0	-70.0	0.2727272727272727	16.0	6.0	3.0	4.147988183153203	3.364	n/a	stim	s581
184.248	2.829	-8.029731646759949	draw_card	0.0	columbia_card_task_fmri	15.0	0.7	89.0	-70.0	0.3	16.0	7.0	3.0	5.24186992281971	2.829	n/a	stim	s581
187.08	2.056	-10.86306498009328	end_round	0.0	columbia_card_task_fmri	15.0	0.6666666666666667	71.0	-70.0	0.3333333333333333	16.0	8.0	3.0	6.35718262448372	2.056	7.0	stim	s581
189.141	2.25	n/a	-1.0	n/a	columbia_card_task_fmri	n/a	n/a	-1.0	n/a	n/a	n/a	n/a	n/a	n/a	n/a	n/a	feedback	s581
191.391	0.0	n/a	-1.0	n/a	columbia_card_task_fmri	n/a	n/a	-1.0	n/a	n/a	n/a	n/a	n/a	n/a	n/a	n/a	ITI	s581
191.393	3.22	8.470268353240051	draw_card	0.0	columbia_card_task_fmri	30.0	0.7	89.0	-50.0	0.3	10.0	1.0	3.0	2.955462064433732	3.22	n/a	stim	s581
194.615	1.576	5.80360168657339	draw_card	0.0	columbia_card_task_fmri	30.0	0.6666666666666667	89.0	-50.0	0.3333333333333333	10.0	2.0	3.0	4.004904746242907	1.576	n/a	stim	s581
196.192	1.512	2.4702683532400505	draw_card	0.0	columbia_card_task_fmri	30.0	0.625	89.0	-50.0	0.375	10.0	3.0	3.0	5.020257731479994	1.512	n/a	stim	s581
197.707	2.312	-1.8154459324742345	end_round	0.0	columbia_card_task_fmri	30.0	0.5714285714285714	71.0	-50.0	0.4285714285714285	10.0	4.0	3.0	5.878450996219122	2.312	3.0	stim	s581
200.026	2.25	n/a	-1.0	n/a	columbia_card_task_fmri	n/a	n/a	-1.0	n/a	n/a	n/a	n/a	n/a	n/a	n/a	n/a	feedback	s581
202.276	0.0	n/a	-1.0	n/a	columbia_card_task_fmri	n/a	n/a	-1.0	n/a	n/a	n/a	n/a	n/a	n/a	n/a	n/a	ITI	s581
202.279	2.519	7.870268353240051	draw_card	0.0	columbia_card_task_fmri	17.0	0.8666666666666667	89.0	-70.0	0.1333333333333333	15.0	1.0	2.0	-4.110973643217722	2.519	n/a	stim	s581
204.801	2.762	7.041696924668623	draw_card	0.0	columbia_card_task_fmri	17.0	0.8571428571428572	89.0	-70.0	0.1428571428571428	15.0	2.0	2.0	-3.244559737078916	2.762	n/a	stim	s581
207.566	2.097	6.085652968624665	draw_card	1.0	columbia_card_task_fmri	17.0	0.8461538461538461	89.0	-70.0	0.1538461538461538	15.0	3.0	2.0	-2.3015186620703325	2.097	3.0	stim	s581
209.671	2.25	n/a	-1.0	n/a	columbia_card_task_fmri	n/a	n/a	-1.0	n/a	n/a	n/a	n/a	n/a	n/a	n/a	n/a	feedback	s581
211.921	0.068	n/a	-1.0	n/a	columbia_card_task_fmri	n/a	n/a	-1.0	n/a	n/a	n/a	n/a	n/a	n/a	n/a	n/a	ITI	s581
211.991	3.883	3.0952683532400505	end_round	0.0	columbia_card_task_fmri	7.0	0.9375	71.0	-95.0	0.0625	16.0	1.0	1.0	-8.97473852398862	3.883	0.0	stim	s581
215.882	2.25	n/a	-1.0	n/a	columbia_card_task_fmri	n/a	n/a	-1.0	n/a	n/a	n/a	n/a	n/a	n/a	n/a	n/a	feedback	s581
218.132	0.476	n/a	-1.0	n/a	columbia_card_task_fmri	n/a	n/a	-1.0	n/a	n/a	n/a	n/a	n/a	n/a	n/a	n/a	ITI	s581
218.61	2.474	4.6577683532400505	end_round	0.0	columbia_card_task_fmri	9.0	0.9375	71.0	-100.0	0.0625	16.0	1.0	1.0	-7.2881889504635	2.474	0.0	stim	s581
221.088	2.25	n/a	-1.0	n/a	columbia_card_task_fmri	n/a	n/a	-1.0	n/a	n/a	n/a	n/a	n/a	n/a	n/a	n/a	feedback	s581
223.338	0.136	n/a	-1.0	n/a	columbia_card_task_fmri	n/a	n/a	-1.0	n/a	n/a	n/a	n/a	n/a	n/a	n/a	n/a	ITI	s581
223.477	1.93	5.5952683532400505	draw_card	1.0	columbia_card_task_fmri	15.0	0.875	89.0	-80.0	0.125	16.0	1.0	2.0	-2.273015359515128	1.93	1.0	stim	s581
225.413	2.25	n/a	-1.0	n/a	columbia_card_task_fmri	n/a	n/a	-1.0	n/a	n/a	n/a	n/a	n/a	n/a	n/a	n/a	feedback	s581
227.663	0.068	n/a	-1.0	n/a	columbia_card_task_fmri	n/a	n/a	-1.0	n/a	n/a	n/a	n/a	n/a	n/a	n/a	n/a	ITI	s581
227.735	2.52	7.72026835324005	draw_card	0.0	columbia_card_task_fmri	16.0	0.875	89.0	-70.0	0.125	16.0	1.0	2.0	-5.239374562359824	2.52	n/a	stim	s581
230.258	1.679	7.003601686573384	draw_card	0.0	columbia_card_task_fmri	16.0	0.8666666666666667	89.0	-70.0	0.1333333333333333	16.0	2.0	2.0	-4.449714966771712	1.679	n/a	stim	s581
231.94	1.307	6.184554067525766	draw_card	0.0	columbia_card_task_fmri	16.0	0.8571428571428572	89.0	-70.0	0.1428571428571428	16.0	3.0	2.0	-3.593327265162962	1.307	n/a	stim	s581
233.251	2.098	5.239499122470819	draw_card	0.0	columbia_card_task_fmri	16.0	0.8461538461538461	89.0	-70.0	0.1538461538461538	16.0	4.0	2.0	-2.6611949129575123	2.098	n/a	stim	s581
235.352	1.807	4.136935019906718	draw_card	0.0	columbia_card_task_fmri	16.0	0.8333333333333334	89.0	-70.0	0.1666666666666666	16.0	5.0	2.0	-1.6429108362692162	1.807	n/a	stim	s581
237.162	1.613	2.833904716876412	draw_card	0.0	columbia_card_task_fmri	16.0	0.8181818181818181	89.0	-70.0	0.1818181818181818	16.0	6.0	2.0	-0.5266812380894095	1.613	n/a	stim	s581
238.778	3.247	1.2702683532400512	draw_card	0.0	columbia_card_task_fmri	16.0	0.8	89.0	-70.0	0.2	16.0	7.0	2.0	0.7003059249051589	3.247	n/a	stim	s581
242.028	1.425	-0.6408427578710603	end_round	0.0	columbia_card_task_fmri	16.0	0.7777777777777778	71.0	-70.0	0.2222222222222222	16.0	8.0	2.0	2.0505754477599325	1.425	7.0	stim	s581
243.459	2.25	n/a	-1.0	n/a	columbia_card_task_fmri	n/a	n/a	-1.0	n/a	n/a	n/a	n/a	n/a	n/a	n/a	n/a	feedback	s581
245.709	0.0	n/a	-1.0	n/a	columbia_card_task_fmri	n/a	n/a	-1.0	n/a	n/a	n/a	n/a	n/a	n/a	n/a	n/a	ITI	s581
245.711	2.605	9.032768353240051	draw_card	0.0	columbia_card_task_fmri	30.0	0.6875	89.0	-45.0	0.3125	16.0	1.0	5.0	1.062812613482187	2.605	n/a	stim	s581
248.318	1.487	7.470268353240054	draw_card	1.0	columbia_card_task_fmri	30.0	0.6666666666666667	89.0	-45.0	0.3333333333333333	16.0	2.0	5.0	1.653257329956226	1.487	2.0	stim	s581
249.81	2.25	n/a	-1.0	n/a	columbia_card_task_fmri	n/a	n/a	-1.0	n/a	n/a	n/a	n/a	n/a	n/a	n/a	n/a	feedback	s581
252.06	0.0	n/a	-1.0	n/a	columbia_card_task_fmri	n/a	n/a	-1.0	n/a	n/a	n/a	n/a	n/a	n/a	n/a	n/a	ITI	s581
252.063	4.43	0.8036016865733844	end_round	0.0	columbia_card_task_fmri	13.0	0.8333333333333334	71.0	-75.0	0.1666666666666666	6.0	1.0	1.0	-0.8997090491428139	4.43	0.0	stim	s581
256.502	2.25	n/a	-1.0	n/a	columbia_card_task_fmri	n/a	n/a	-1.0	n/a	n/a	n/a	n/a	n/a	n/a	n/a	n/a	feedback	s581
258.752	0.204	n/a	-1.0	n/a	columbia_card_task_fmri	n/a	n/a	-1.0	n/a	n/a	n/a	n/a	n/a	n/a	n/a	n/a	ITI	s581
258.958	4.372	2.470268353240052	end_round	0.0	columbia_card_task_fmri	14.0	0.8333333333333334	71.0	-70.0	0.1666666666666666	6.0	1.0	1.0	-2.3860105076910294	4.372	0.0	stim	s581
263.334	2.25	n/a	-1.0	n/a	columbia_card_task_fmri	n/a	n/a	-1.0	n/a	n/a	n/a	n/a	n/a	n/a	n/a	n/a	feedback	s581
265.584	0.204	n/a	-1.0	n/a	columbia_card_task_fmri	n/a	n/a	-1.0	n/a	n/a	n/a	n/a	n/a	n/a	n/a	n/a	ITI	s581
265.791	2.008	2.470268353240052	end_round	0.0	columbia_card_task_fmri	16.0	0.8333333333333334	71.0	-80.0	0.1666666666666666	6.0	1.0	1.0	2.0739922701372464	2.008	0.0	stim	s581
267.806	2.25	n/a	-1.0	n/a	columbia_card_task_fmri	n/a	n/a	-1.0	n/a	n/a	n/a	n/a	n/a	n/a	n/a	n/a	feedback	s581
270.056	0.272	n/a	-1.0	n/a	columbia_card_task_fmri	n/a	n/a	-1.0	n/a	n/a	n/a	n/a	n/a	n/a	n/a	n/a	ITI	s581
270.334	2.002	4.970268353240052	draw_card	0.0	columbia_card_task_fmri	17.0	0.8333333333333334	89.0	-70.0	0.1666666666666666	6.0	1.0	1.0	-1.2713222695781283	2.002	n/a	stim	s581
272.339	2.834	2.070268353240052	draw_card	0.0	columbia_card_task_fmri	17.0	0.8	89.0	-70.0	0.2	6.0	2.0	1.0	1.0992903217650607	2.834	n/a	stim	s581
275.175	0.988	-2.279731646759949	end_round	0.0	columbia_card_task_fmri	17.0	0.75	71.0	-70.0	0.25	6.0	3.0	1.0	3.9647343253905305	0.988	2.0	stim	s581
276.17	2.25	n/a	-1.0	n/a	columbia_card_task_fmri	n/a	n/a	-1.0	n/a	n/a	n/a	n/a	n/a	n/a	n/a	n/a	feedback	s581
278.42	0.136	n/a	-1.0	n/a	columbia_card_task_fmri	n/a	n/a	-1.0	n/a	n/a	n/a	n/a	n/a	n/a	n/a	n/a	ITI	s581
278.558	4.461	4.9702683532400505	draw_card	0.0	columbia_card_task_fmri	25.0	0.75	89.0	-65.0	0.25	8.0	1.0	2.0	5.261081111079356	4.461	n/a	stim	s581
283.03	1.084	1.7559826389543387	draw_card	1.0	columbia_card_task_fmri	25.0	0.7142857142857143	89.0	-65.0	0.2857142857142857	8.0	2.0	2.0	6.944554960821598	1.084	2.0	stim	s581
284.118	2.25	n/a	-1.0	n/a	columbia_card_task_fmri	n/a	n/a	-1.0	n/a	n/a	n/a	n/a	n/a	n/a	n/a	n/a	feedback	s581
286.368	0.204	n/a	-1.0	n/a	columbia_card_task_fmri	n/a	n/a	-1.0	n/a	n/a	n/a	n/a	n/a	n/a	n/a	n/a	ITI	s581
286.575	3.144	4.9702683532400505	draw_card	1.0	columbia_card_task_fmri	30.0	0.75	89.0	-80.0	0.25	8.0	1.0	2.0	13.907135783439948	3.144	1.0	stim	s581
289.725	2.25	n/a	-1.0	n/a	columbia_card_task_fmri	n/a	n/a	-1.0	n/a	n/a	n/a	n/a	n/a	n/a	n/a	n/a	feedback	s581
291.975	0.272	n/a	-1.0	n/a	columbia_card_task_fmri	n/a	n/a	-1.0	n/a	n/a	n/a	n/a	n/a	n/a	n/a	n/a	ITI	s581
292.251	2.445	4.670268353240052	draw_card	0.0	columbia_card_task_fmri	13.0	0.9	89.0	-95.0	0.1	10.0	1.0	1.0	-1.294241472594571	2.445	n/a	stim	s581
294.699	1.257	3.4702683532400505	draw_card	0.0	columbia_card_task_fmri	13.0	0.8888888888888888	89.0	-95.0	0.1111111111111111	10.0	2.0	1.0	0.242625875037838	1.257	n/a	stim	s581
295.959	1.071	1.9702683532400505	draw_card	0.0	columbia_card_task_fmri	13.0	0.875	89.0	-95.0	0.125	10.0	3.0	1.0	2.0146887568535874	1.071	n/a	stim	s581
297.033	4.141	0.0416969246686234	draw_card	0.0	columbia_card_task_fmri	13.0	0.8571428571428572	89.0	-95.0	0.1428571428571428	10.0	4.0	1.0	4.084500327960747	4.141	n/a	stim	s581
301.178	0.988	-2.529731646759948	draw_card	0.0	columbia_card_task_fmri	13.0	0.8333333333333334	89.0	-95.0	0.1666666666666666	10.0	5.0	1.0	6.536682684586452	0.988	n/a	stim	s581
302.17	0.976	-6.129731646759949	draw_card	0.0	columbia_card_task_fmri	13.0	0.8	89.0	-95.0	0.2	10.0	6.0	1.0	9.482294805348104	0.976	n/a	stim	s581
303.149	2.318	-11.529731646759949	draw_card	0.0	columbia_card_task_fmri	13.0	0.75	89.0	-95.0	0.25	10.0	7.0	1.0	13.042294183921308	2.318	n/a	stim	s581
305.472	0.82	-20.529731646759945	end_round	0.0	columbia_card_task_fmri	13.0	0.6666666666666667	71.0	-95.0	0.3333333333333333	10.0	8.0	1.0	17.183307364161003	0.82	7.0	stim	s581
306.297	2.25	n/a	-1.0	n/a	columbia_card_task_fmri	n/a	n/a	-1.0	n/a	n/a	n/a	n/a	n/a	n/a	n/a	n/a	feedback	s581
308.547	0.272	n/a	-1.0	n/a	columbia_card_task_fmri	n/a	n/a	-1.0	n/a	n/a	n/a	n/a	n/a	n/a	n/a	n/a	ITI	s581
308.822	3.613	6.07026835324005	draw_card	0.0	columbia_card_task_fmri	14.0	0.9	89.0	-90.0	0.1	10.0	1.0	1.0	-2.490635867313234	3.613	n/a	stim	s581
312.438	0.768	4.914712797684493	draw_card	1.0	columbia_card_task_fmri	14.0	0.8888888888888888	89.0	-90.0	0.1111111111111111	10.0	2.0	1.0	-1.0110095807225503	0.768	2.0	stim	s581
313.21	2.25	n/a	-1.0	n/a	columbia_card_task_fmri	n/a	n/a	-1.0	n/a	n/a	n/a	n/a	n/a	n/a	n/a	n/a	feedback	s581
315.46	0.34	n/a	-1.0	n/a	columbia_card_task_fmri	n/a	n/a	-1.0	n/a	n/a	n/a	n/a	n/a	n/a	n/a	n/a	ITI	s581
315.804	8.325	1.2702683532400512	draw_card	0.0	columbia_card_task_fmri	16.0	0.8	89.0	-70.0	0.2	10.0	1.0	2.0	0.7003059249051589	8.325	n/a	stim	s581
324.133	0.711	-0.6408427578710603	draw_card	0.0	columbia_card_task_fmri	16.0	0.7777777777777778	89.0	-70.0	0.2222222222222222	10.0	2.0	2.0	2.0505754477599325	0.711	n/a	stim	s581
324.848	0.689	-3.029731646759949	draw_card	0.0	columbia_card_task_fmri	16.0	0.75	89.0	-70.0	0.25	10.0	3.0	2.0	3.532660321443764	0.689	n/a	stim	s581
325.541	1.103	-6.101160218188521	end_round	0.0	columbia_card_task_fmri	16.0	0.7142857142857143	71.0	-70.0	0.2857142857142857	10.0	4.0	2.0	5.141019468716564	1.103	3.0	stim	s581
326.648	2.25	n/a	-1.0	n/a	columbia_card_task_fmri	n/a	n/a	-1.0	n/a	n/a	n/a	n/a	n/a	n/a	n/a	n/a	feedback	s581
328.898	0.204	n/a	-1.0	n/a	columbia_card_task_fmri	n/a	n/a	-1.0	n/a	n/a	n/a	n/a	n/a	n/a	n/a	n/a	ITI	s581
329.107	2.669	0.5536016865733844	end_round	0.0	columbia_card_task_fmri	7.0	0.9166666666666666	71.0	-100.0	0.0833333333333333	12.0	1.0	1.0	-4.112045375761706	2.669	0.0	stim	s581
331.782	2.25	n/a	-1.0	n/a	columbia_card_task_fmri	n/a	n/a	-1.0	n/a	n/a	n/a	n/a	n/a	n/a	n/a	n/a	feedback	s581
334.032	0.068	n/a	-1.0	n/a	columbia_card_task_fmri	n/a	n/a	-1.0	n/a	n/a	n/a	n/a	n/a	n/a	n/a	n/a	ITI	s581
334.102	2.628	0.8036016865733862	draw_card	0.0	columbia_card_task_fmri	14.0	0.8333333333333334	89.0	-80.0	0.1666666666666666	12.0	1.0	2.0	1.3304441711971862	2.628	n/a	stim	s581
336.732	0.635	-0.620640737669043	draw_card	0.0	columbia_card_task_fmri	14.0	0.8181818181818181	89.0	-80.0	0.1818181818181818	12.0	2.0	2.0	2.551076873514333	0.635	n/a	stim	s581
337.371	0.852	-2.3297316467599485	end_round	0.0	columbia_card_task_fmri	14.0	0.8	71.0	-80.0	0.2	12.0	3.0	2.0	3.892784076770447	0.852	2.0	stim	s581
338.228	2.25	n/a	-1.0	n/a	columbia_card_task_fmri	n/a	n/a	-1.0	n/a	n/a	n/a	n/a	n/a	n/a	n/a	n/a	feedback	s581
340.478	0.0	n/a	-1.0	n/a	columbia_card_task_fmri	n/a	n/a	-1.0	n/a	n/a	n/a	n/a	n/a	n/a	n/a	n/a	ITI	s581
340.481	2.405	2.4702683532400505	draw_card	0.0	columbia_card_task_fmri	15.0	0.8333333333333334	89.0	-75.0	0.1666666666666666	12.0	1.0	2.0	-0.1564119160140435	2.405	n/a	stim	s581
342.89	0.574	1.1066319896036854	draw_card	0.0	columbia_card_task_fmri	15.0	0.8181818181818181	89.0	-75.0	0.1818181818181818	12.0	2.0	2.0	1.0120251681814665	0.574	n/a	stim	s581
343.468	0.508	-0.5297316467599495	draw_card	0.0	columbia_card_task_fmri	15.0	0.8	89.0	-75.0	0.2	12.0	3.0	2.0	2.2963784371670783	0.508	n/a	stim	s581
343.979	0.783	-2.529731646759948	draw_card	0.0	columbia_card_task_fmri	15.0	0.7777777777777778	89.0	-75.0	0.2222222222222222	12.0	4.0	2.0	3.709754457669085	0.783	n/a	stim	s581
344.765	0.617	-5.0297316467599495	end_round	0.0	columbia_card_task_fmri	15.0	0.75	71.0	-75.0	0.25	12.0	5.0	2.0	5.261081111079356	0.617	4.0	stim	s581
345.388	2.25	n/a	-1.0	n/a	columbia_card_task_fmri	n/a	n/a	-1.0	n/a	n/a	n/a	n/a	n/a	n/a	n/a	n/a	feedback	s581
347.638	0.408	n/a	-1.0	n/a	columbia_card_task_fmri	n/a	n/a	-1.0	n/a	n/a	n/a	n/a	n/a	n/a	n/a	n/a	ITI	s581
348.05	2.843	1.4702683532400505	draw_card	0.0	columbia_card_task_fmri	15.0	0.8	89.0	-65.0	0.2	15.0	1.0	3.0	-1.6930695167287624	2.843	n/a	stim	s581
350.897	0.513	0.3274112103829081	draw_card	0.0	columbia_card_task_fmri	15.0	0.7857142857142857	89.0	-65.0	0.2142857142857142	15.0	2.0	3.0	-0.8693862710899865	0.513	n/a	stim	s581
351.414	0.55	-0.991270108298413	draw_card	0.0	columbia_card_task_fmri	15.0	0.7692307692307692	89.0	-65.0	0.2307692307692307	15.0	3.0	3.0	0.0081284921057047	0.55	n/a	stim	s581
351.968	0.585	-2.529731646759949	draw_card	0.0	columbia_card_task_fmri	15.0	0.75	89.0	-65.0	0.25	15.0	4.0	3.0	0.9407073365645005	0.585	n/a	stim	s581
352.557	0.635	-4.347913464941766	draw_card	0.0	columbia_card_task_fmri	15.0	0.7272727272727273	89.0	-65.0	0.2727272727272727	15.0	5.0	3.0	1.9261996763471672	0.635	n/a	stim	s581
353.196	0.78	-6.5297316467599495	draw_card	1.0	columbia_card_task_fmri	15.0	0.7	89.0	-65.0	0.3	15.0	6.0	3.0	2.955462064433732	0.78	6.0	stim	s581
353.983	2.25	n/a	-1.0	n/a	columbia_card_task_fmri	n/a	n/a	-1.0	n/a	n/a	n/a	n/a	n/a	n/a	n/a	n/a	feedback	s581
356.233	0.204	n/a	-1.0	n/a	columbia_card_task_fmri	n/a	n/a	-1.0	n/a	n/a	n/a	n/a	n/a	n/a	n/a	n/a	ITI	s581
356.439	3.715	0.7202683532400505	draw_card	0.0	columbia_card_task_fmri	14.0	0.8125	89.0	-70.0	0.1875	16.0	1.0	3.0	-0.9091065988456464	3.715	n/a	stim	s581
360.158	0.866	-0.3297316467599485	draw_card	0.0	columbia_card_task_fmri	14.0	0.8	89.0	-70.0	0.2	16.0	2.0	3.0	-0.0975906127643497	0.866	n/a	stim	s581
361.027	1.055	-1.5297316467599495	draw_card	1.0	columbia_card_task_fmri	14.0	0.7857142857142857	89.0	-70.0	0.2142857142857142	16.0	3.0	3.0	0.767509091686847	1.055	3.0	stim	s581
362.088	2.25	n/a	-1.0	n/a	columbia_card_task_fmri	n/a	n/a	-1.0	n/a	n/a	n/a	n/a	n/a	n/a	n/a	n/a	feedback	s581
364.338	0.136	n/a	-1.0	n/a	columbia_card_task_fmri	n/a	n/a	-1.0	n/a	n/a	n/a	n/a	n/a	n/a	n/a	n/a	ITI	s581
364.477	2.733	0.6577683532400505	draw_card	1.0	columbia_card_task_fmri	11.0	0.6875	89.0	-30.0	0.3125	16.0	1.0	5.0	-14.624388048653149	2.733	1.0	stim	s581
367.217	2.25	n/a	-1.0	n/a	columbia_card_task_fmri	n/a	n/a	-1.0	n/a	n/a	n/a	n/a	n/a	n/a	n/a	n/a	feedback	s581
369.467	0.34	n/a	-1.0	n/a	columbia_card_task_fmri	n/a	n/a	-1.0	n/a	n/a	n/a	n/a	n/a	n/a	n/a	n/a	ITI	s581
369.81	3.932	5.4702683532400505	draw_card	0.0	columbia_card_task_fmri	15.0	0.8666666666666667	89.0	-75.0	0.1333333333333333	15.0	1.0	2.0	-3.09459135854571	3.932	n/a	stim	s581
373.747	0.723	4.613125496097195	draw_card	0.0	columbia_card_task_fmri	15.0	0.8571428571428572	89.0	-75.0	0.1428571428571428	15.0	2.0	2.0	-2.1981032708684403	0.723	n/a	stim	s581
374.473	0.69	3.624114507086204	draw_card	0.0	columbia_card_task_fmri	15.0	0.8461538461538461	89.0	-75.0	0.1538461538461538	15.0	3.0	2.0	-1.222340579526055	0.69	n/a	stim	s581
375.166	0.723	2.4702683532400505	draw_card	0.0	columbia_card_task_fmri	15.0	0.8333333333333334	89.0	-75.0	0.1666666666666666	15.0	4.0	2.0	-0.1564119160140435	0.723	n/a	stim	s581
375.893	1.785	1.1066319896036854	draw_card	0.0	columbia_card_task_fmri	15.0	0.8181818181818181	89.0	-75.0	0.1818181818181818	15.0	5.0	2.0	1.0120251681814665	1.785	n/a	stim	s581
377.682	1.093	-0.5297316467599495	draw_card	0.0	columbia_card_task_fmri	15.0	0.8	89.0	-75.0	0.2	15.0	6.0	2.0	2.2963784371670783	1.093	n/a	stim	s581
378.779	0.958	-2.529731646759948	draw_card	0.0	columbia_card_task_fmri	15.0	0.7777777777777778	89.0	-75.0	0.2222222222222222	15.0	7.0	2.0	3.709754457669085	0.958	n/a	stim	s581
379.742	0.649	-5.0297316467599495	draw_card	1.0	columbia_card_task_fmri	15.0	0.75	89.0	-75.0	0.25	15.0	8.0	2.0	5.261081111079356	0.649	8.0	stim	s581
380.397	2.25	n/a	-1.0	n/a	columbia_card_task_fmri	n/a	n/a	-1.0	n/a	n/a	n/a	n/a	n/a	n/a	n/a	n/a	feedback	s581
382.647	0.068	n/a	-1.0	n/a	columbia_card_task_fmri	n/a	n/a	-1.0	n/a	n/a	n/a	n/a	n/a	n/a	n/a	n/a	ITI	s581
382.718	2.11	7.203601686573385	draw_card	0.0	columbia_card_task_fmri	17.0	0.8666666666666667	89.0	-75.0	0.1333333333333333	15.0	1.0	2.0	-2.416879789116173	2.11	n/a	stim	s581
384.831	0.748	6.32741121038291	draw_card	1.0	columbia_card_task_fmri	17.0	0.8571428571428572	89.0	-75.0	0.1428571428571428	15.0	2.0	2.0	-1.500345704142127	0.748	2.0	stim	s581
385.587	2.25	n/a	-1.0	n/a	columbia_card_task_fmri	n/a	n/a	-1.0	n/a	n/a	n/a	n/a	n/a	n/a	n/a	n/a	feedback	s581
387.837	0.34	n/a	-1.0	n/a	columbia_card_task_fmri	n/a	n/a	-1.0	n/a	n/a	n/a	n/a	n/a	n/a	n/a	n/a	ITI	s581
388.18	3.402	2.7827683532400505	end_round	0.0	columbia_card_task_fmri	2.0	0.9375	71.0	-25.0	0.0625	16.0	1.0	1.0	-26.80135385026912	3.402	0.0	stim	s581
391.588	2.25	n/a	-1.0	n/a	columbia_card_task_fmri	n/a	n/a	-1.0	n/a	n/a	n/a	n/a	n/a	n/a	n/a	n/a	feedback	s581
393.838	0.136	n/a	-1.0	n/a	columbia_card_task_fmri	n/a	n/a	-1.0	n/a	n/a	n/a	n/a	n/a	n/a	n/a	n/a	ITI	s581
393.977	1.434	4.9702683532400505	end_round	0.0	columbia_card_task_fmri	9.0	0.9375	71.0	-95.0	0.0625	16.0	1.0	1.0	-8.492974699640236	1.434	0.0	stim	s581
395.419	2.25	n/a	-1.0	n/a	columbia_card_task_fmri	n/a	n/a	-1.0	n/a	n/a	n/a	n/a	n/a	n/a	n/a	n/a	feedback	s581
397.669	0.068	n/a	-1.0	n/a	columbia_card_task_fmri	n/a	n/a	-1.0	n/a	n/a	n/a	n/a	n/a	n/a	n/a	n/a	ITI	s581
397.742	1.309	6.5327683532400505	end_round	0.0	columbia_card_task_fmri	11.0	0.9375	71.0	-100.0	0.0625	16.0	1.0	1.0	-6.806136269503188	1.309	0.0	stim	s581
399.058	2.25	n/a	-1.0	n/a	columbia_card_task_fmri	n/a	n/a	-1.0	n/a	n/a	n/a	n/a	n/a	n/a	n/a	n/a	feedback	s581
401.308	0.068	n/a	-1.0	n/a	columbia_card_task_fmri	n/a	n/a	-1.0	n/a	n/a	n/a	n/a	n/a	n/a	n/a	n/a	ITI	s581
401.381	1.837	7.0952683532400505	end_round	0.0	columbia_card_task_fmri	16.0	0.875	71.0	-75.0	0.125	16.0	1.0	2.0	-3.5916428923004204	1.837	0.0	stim	s581
403.222	2.25	n/a	-1.0	n/a	columbia_card_task_fmri	n/a	n/a	-1.0	n/a	n/a	n/a	n/a	n/a	n/a	n/a	n/a	feedback	s581
405.472	0.068	n/a	-1.0	n/a	columbia_card_task_fmri	n/a	n/a	-1.0	n/a	n/a	n/a	n/a	n/a	n/a	n/a	n/a	ITI	s581
405.544	2.218	7.34526835324005	draw_card	0.0	columbia_card_task_fmri	17.0	0.875	89.0	-80.0	0.125	16.0	1.0	2.0	-1.6135708057600553	2.218	n/a	stim	s581
407.766	0.603	6.536935019906719	draw_card	0.0	columbia_card_task_fmri	17.0	0.8666666666666667	89.0	-80.0	0.1333333333333333	16.0	2.0	2.0	-0.7222132914861703	0.603	n/a	stim	s581
408.373	0.522	5.613125496097196	draw_card	0.0	columbia_card_task_fmri	17.0	0.8571428571428572	89.0	-80.0	0.1428571428571428	16.0	3.0	2.0	0.2444249126669646	0.522	n/a	stim	s581
408.9	0.797	4.547191430163127	draw_card	0.0	columbia_card_task_fmri	17.0	0.8461538461538461	89.0	-80.0	0.1538461538461538	16.0	4.0	2.0	1.2965144492886722	0.797	n/a	stim	s581
409.701	0.996	3.303601686573386	draw_card	0.0	columbia_card_task_fmri	17.0	0.8333333333333334	89.0	-80.0	0.1666666666666666	16.0	5.0	2.0	2.44579417786197	0.996	n/a	stim	s581
410.702	1.248	1.833904716876412	draw_card	1.0	columbia_card_task_fmri	17.0	0.8181818181818181	89.0	-80.0	0.1818181818181818	16.0	6.0	2.0	3.705566675971809	1.248	6.0	stim	s581
411.956	2.25	n/a	-1.0	n/a	columbia_card_task_fmri	n/a	n/a	-1.0	n/a	n/a	n/a	n/a	n/a	n/a	n/a	n/a	feedback	s581
414.206	0.136	n/a	-1.0	n/a	columbia_card_task_fmri	n/a	n/a	-1.0	n/a	n/a	n/a	n/a	n/a	n/a	n/a	n/a	ITI	s581
425.349	2.328	1.6369350199067183	end_round	0.0	columbia_card_task_fmri	13.0	0.8333333333333334	71.0	-70.0	0.1666666666666666	6.0	1.0	1.0	-2.7575197574247348	2.328	0.0	stim	s581
427.682	2.25	n/a	-1.0	n/a	columbia_card_task_fmri	n/a	n/a	-1.0	n/a	n/a	n/a	n/a	n/a	n/a	n/a	n/a	feedback	s581
429.932	0.0	n/a	-1.0	n/a	columbia_card_task_fmri	n/a	n/a	-1.0	n/a	n/a	n/a	n/a	n/a	n/a	n/a	n/a	ITI	s581
429.936	2.348	1.6369350199067183	draw_card	0.0	columbia_card_task_fmri	15.0	0.8333333333333334	89.0	-80.0	0.1666666666666666	6.0	1.0	1.0	1.7022087400281052	2.348	n/a	stim	s581
432.288	1.165	-1.5297316467599495	end_round	0.0	columbia_card_task_fmri	15.0	0.8	71.0	-80.0	0.2	6.0	2.0	1.0	4.291932628290333	1.165	1.0	stim	s581
433.46	2.25	n/a	-1.0	n/a	columbia_card_task_fmri	n/a	n/a	-1.0	n/a	n/a	n/a	n/a	n/a	n/a	n/a	n/a	feedback	s581
435.71	0.136	n/a	-1.0	n/a	columbia_card_task_fmri	n/a	n/a	-1.0	n/a	n/a	n/a	n/a	n/a	n/a	n/a	n/a	ITI	s581
435.85	1.726	3.3036016865733844	draw_card	0.0	columbia_card_task_fmri	16.0	0.8333333333333334	89.0	-75.0	0.1666666666666666	6.0	1.0	1.0	0.2152704513890384	1.726	n/a	stim	s581
437.581	2.022	0.2702683532400511	draw_card	0.0	columbia_card_task_fmri	16.0	0.8	89.0	-75.0	0.2	6.0	2.0	1.0	2.6954503244116594	2.022	n/a	stim	s581
439.607	2.317	-4.2797316467599495	draw_card	0.0	columbia_card_task_fmri	16.0	0.75	89.0	-75.0	0.25	6.0	3.0	1.0	5.69323602155918	2.317	n/a	stim	s581
441.928	1.241	-11.86306498009328	end_round	0.0	columbia_card_task_fmri	16.0	0.6666666666666667	71.0	-75.0	0.3333333333333333	6.0	4.0	1.0	9.180602499912958	1.241	3.0	stim	s581
443.177	2.25	n/a	-1.0	n/a	columbia_card_task_fmri	n/a	n/a	-1.0	n/a	n/a	n/a	n/a	n/a	n/a	n/a	n/a	feedback	s581
445.427	0.34	n/a	-1.0	n/a	columbia_card_task_fmri	n/a	n/a	-1.0	n/a	n/a	n/a	n/a	n/a	n/a	n/a	n/a	ITI	s581
445.771	2.091	4.4702683532400505	draw_card	0.0	columbia_card_task_fmri	21.0	0.75	89.0	-55.0	0.25	8.0	1.0	2.0	-0.7867263286031161	2.091	n/a	stim	s581
447.865	2.33	1.755982638954337	draw_card	0.0	columbia_card_task_fmri	21.0	0.7142857142857143	89.0	-55.0	0.2857142857142857	8.0	2.0	2.0	0.6337778795137652	2.33	n/a	stim	s581
450.199	1.623	-1.86306498009328	draw_card	0.0	columbia_card_task_fmri	21.0	0.6666666666666667	89.0	-55.0	0.3333333333333333	8.0	3.0	2.0	2.123530430718205	1.623	n/a	stim	s581
451.826	1.458	-6.92973164675995	draw_card	1.0	columbia_card_task_fmri	21.0	0.6	89.0	-55.0	0.4	8.0	4.0	2.0	3.5258270697225385	1.458	4.0	stim	s581
453.291	2.25	n/a	-1.0	n/a	columbia_card_task_fmri	n/a	n/a	-1.0	n/a	n/a	n/a	n/a	n/a	n/a	n/a	n/a	feedback	s581
455.541	0.408	n/a	-1.0	n/a	columbia_card_task_fmri	n/a	n/a	-1.0	n/a	n/a	n/a	n/a	n/a	n/a	n/a	n/a	ITI	s581
455.952	3.964	5.7202683532400505	draw_card	0.0	columbia_card_task_fmri	26.0	0.75	89.0	-65.0	0.25	8.0	1.0	2.0	5.69323602155918	3.964	n/a	stim	s581
459.921	0.769	2.470268353240054	draw_card	0.0	columbia_card_task_fmri	26.0	0.7142857142857143	89.0	-65.0	0.2857142857142857	8.0	2.0	2.0	7.395486508351148	0.769	n/a	stim	s581
460.693	0.811	-1.863064980093278	draw_card	1.0	columbia_card_task_fmri	26.0	0.6666666666666667	89.0	-65.0	0.3333333333333333	8.0	3.0	2.0	9.180602499912965	0.811	3.0	stim	s581
461.51	2.25	n/a	-1.0	n/a	columbia_card_task_fmri	n/a	n/a	-1.0	n/a	n/a	n/a	n/a	n/a	n/a	n/a	n/a	feedback	s581
463.76	0.136	n/a	-1.0	n/a	columbia_card_task_fmri	n/a	n/a	-1.0	n/a	n/a	n/a	n/a	n/a	n/a	n/a	n/a	ITI	s581
463.9	2.582	0.8036016865733844	draw_card	0.0	columbia_card_task_fmri	15.0	0.7777777777777778	89.0	-60.0	0.2222222222222222	9.0	1.0	2.0	-2.5100967041239706	2.582	n/a	stim	s581
466.487	0.717	-1.2797316467599495	draw_card	0.0	columbia_card_task_fmri	15.0	0.75	89.0	-60.0	0.25	9.0	2.0	2.0	-1.2185081163570644	0.717	n/a	stim	s581
467.208	0.758	-3.9583030753313766	draw_card	0.0	columbia_card_task_fmri	15.0	0.7142857142857143	89.0	-60.0	0.2857142857142857	9.0	3.0	2.0	0.1832041856341533	0.758	n/a	stim	s581
467.97	0.941	-7.529731646759948	end_round	0.0	columbia_card_task_fmri	15.0	0.6666666666666667	71.0	-60.0	0.3333333333333333	9.0	4.0	2.0	1.653257329956233	0.941	3.0	stim	s581
468.918	2.25	n/a	-1.0	n/a	columbia_card_task_fmri	n/a	n/a	-1.0	n/a	n/a	n/a	n/a	n/a	n/a	n/a	n/a	feedback	s581
471.168	0.136	n/a	-1.0	n/a	columbia_card_task_fmri	n/a	n/a	-1.0	n/a	n/a	n/a	n/a	n/a	n/a	n/a	n/a	ITI	s581
471.308	3.67	5.170268353240052	draw_card	0.0	columbia_card_task_fmri	13.0	0.9	89.0	-90.0	0.1	10.0	1.0	1.0	-2.7896909133065257	3.67	n/a	stim	s581
474.982	0.733	4.025823908795606	draw_card	0.0	columbia_card_task_fmri	13.0	0.8888888888888888	89.0	-90.0	0.1111111111111111	10.0	2.0	1.0	-1.3243768356387309	0.733	n/a	stim	s581
475.72	0.674	2.5952683532400505	draw_card	0.0	columbia_card_task_fmri	13.0	0.875	89.0	-90.0	0.125	10.0	3.0	1.0	0.3652253963823355	0.674	n/a	stim	s581
476.398	0.838	0.7559826389543387	draw_card	0.0	columbia_card_task_fmri	13.0	0.8571428571428572	89.0	-90.0	0.1428571428571428	10.0	4.0	1.0	2.3387707989037025	0.838	n/a	stim	s581
477.241	0.781	-1.6963983134266156	draw_card	0.0	columbia_card_task_fmri	13.0	0.8333333333333334	89.0	-90.0	0.1666666666666666	10.0	5.0	1.0	4.676961709362367	0.781	n/a	stim	s581
478.027	3.705	-5.129731646759949	draw_card	0.0	columbia_card_task_fmri	13.0	0.8	89.0	-90.0	0.2	10.0	6.0	1.0	7.485714532714169	3.705	n/a	stim	s581
481.736	1.508	-10.279731646759949	end_round	0.0	columbia_card_task_fmri	13.0	0.75	71.0	-90.0	0.25	10.0	7.0	1.0	10.880390872313365	1.508	6.0	stim	s581
483.252	2.25	n/a	-1.0	n/a	columbia_card_task_fmri	n/a	n/a	-1.0	n/a	n/a	n/a	n/a	n/a	n/a	n/a	n/a	feedback	s581
485.502	0.0	n/a	-1.0	n/a	columbia_card_task_fmri	n/a	n/a	-1.0	n/a	n/a	n/a	n/a	n/a	n/a	n/a	n/a	ITI	s581
485.505	1.77	6.4702683532400505	draw_card	0.0	columbia_card_task_fmri	15.0	0.9	89.0	-95.0	0.1	10.0	1.0	1.0	-0.695946362077791	1.77	n/a	stim	s581
487.279	0.705	5.248046131017827	draw_card	0.0	columbia_card_task_fmri	15.0	0.8888888888888888	89.0	-95.0	0.1111111111111111	10.0	2.0	1.0	0.8695371431842602	0.705	n/a	stim	s581
487.988	0.601	3.7202683532400505	draw_card	1.0	columbia_card_task_fmri	15.0	0.875	89.0	-95.0	0.125	10.0	3.0	1.0	2.6745788865801003	0.601	3.0	stim	s581
488.598	2.25	n/a	-1.0	n/a	columbia_card_task_fmri	n/a	n/a	-1.0	n/a	n/a	n/a	n/a	n/a	n/a	n/a	n/a	feedback	s581
490.848	0.068	n/a	-1.0	n/a	columbia_card_task_fmri	n/a	n/a	-1.0	n/a	n/a	n/a	n/a	n/a	n/a	n/a	n/a	ITI	s581
490.92	2.183	2.270268353240051	draw_card	0.0	columbia_card_task_fmri	16.0	0.8	89.0	-65.0	0.2	10.0	1.0	2.0	-1.294241472594571	2.183	n/a	stim	s581
493.108	0.535	0.4702683532400522	draw_card	0.0	columbia_card_task_fmri	16.0	0.7777777777777778	89.0	-65.0	0.2222222222222222	10.0	2.0	2.0	-0.0228753362116194	0.535	n/a	stim	s581
493.648	0.698	-1.7797316467599495	draw_card	0.0	columbia_card_task_fmri	16.0	0.75	89.0	-65.0	0.25	10.0	3.0	2.0	1.37263673432642	0.698	n/a	stim	s581
494.35	0.835	-4.67258878961709	draw_card	0.0	columbia_card_task_fmri	16.0	0.7142857142857143	89.0	-65.0	0.2857142857142857	10.0	4.0	2.0	2.8870819215055263	0.835	n/a	stim	s581
495.19	0.964	-8.529731646759945	end_round	0.0	columbia_card_task_fmri	16.0	0.6666666666666667	71.0	-65.0	0.3333333333333333	10.0	5.0	2.0	4.475313605258009	0.964	4.0	stim	s581
496.16	2.25	n/a	-1.0	n/a	columbia_card_task_fmri	n/a	n/a	-1.0	n/a	n/a	n/a	n/a	n/a	n/a	n/a	n/a	feedback	s581
498.41	0.0	n/a	-1.0	n/a	columbia_card_task_fmri	n/a	n/a	-1.0	n/a	n/a	n/a	n/a	n/a	n/a	n/a	n/a	ITI	s581
498.415	2.193	0.9702683532400505	end_round	0.0	columbia_card_task_fmri	7.0	0.9166666666666666	71.0	-95.0	0.0833333333333333	12.0	1.0	1.0	-5.48894256473438	2.193	0.0	stim	s581
500.618	2.25	n/a	-1.0	n/a	columbia_card_task_fmri	n/a	n/a	-1.0	n/a	n/a	n/a	n/a	n/a	n/a	n/a	n/a	feedback	s581
502.868	0.0	n/a	-1.0	n/a	columbia_card_task_fmri	n/a	n/a	-1.0	n/a	n/a	n/a	n/a	n/a	n/a	n/a	n/a	ITI	s581
502.872	2.617	1.6369350199067183	draw_card	0.0	columbia_card_task_fmri	14.0	0.8333333333333334	89.0	-75.0	0.1666666666666666	12.0	1.0	2.0	-0.5280720013253699	2.617	n/a	stim	s581
505.494	0.802	0.288450171421867	draw_card	0.0	columbia_card_task_fmri	14.0	0.8181818181818181	89.0	-75.0	0.1818181818181818	12.0	2.0	2.0	0.6273143854880345	0.802	n/a	stim	s581
506.302	0.72	-1.3297316467599485	end_round	0.0	columbia_card_task_fmri	14.0	0.8	71.0	-75.0	0.2	12.0	3.0	2.0	1.897327332226148	0.72	2.0	stim	s581
507.032	2.25	n/a	-1.0	n/a	columbia_card_task_fmri	n/a	n/a	-1.0	n/a	n/a	n/a	n/a	n/a	n/a	n/a	n/a	feedback	s581
509.282	0.136	n/a	-1.0	n/a	columbia_card_task_fmri	n/a	n/a	-1.0	n/a	n/a	n/a	n/a	n/a	n/a	n/a	n/a	ITI	s581
509.421	2.472	3.3036016865733844	draw_card	0.0	columbia_card_task_fmri	15.0	0.8333333333333334	89.0	-70.0	0.1666666666666666	12.0	1.0	2.0	-2.0144738842535013	2.472	n/a	stim	s581
511.898	0.934	2.0157228986945936	draw_card	0.0	columbia_card_task_fmri	15.0	0.8181818181818181	89.0	-70.0	0.1818181818181818	12.0	2.0	2.0	-0.9112982049546332	0.934	n/a	stim	s581
512.837	0.893	0.4702683532400504	draw_card	0.0	columbia_card_task_fmri	15.0	0.8	89.0	-70.0	0.2	12.0	3.0	2.0	0.3013453315178012	0.893	n/a	stim	s581
513.734	1.178	-1.4186205356488388	draw_card	1.0	columbia_card_task_fmri	15.0	0.7777777777777778	89.0	-70.0	0.2222222222222222	12.0	4.0	2.0	1.6358360827063478	1.178	4.0	stim	s581
514.92	2.25	n/a	-1.0	n/a	columbia_card_task_fmri	n/a	n/a	-1.0	n/a	n/a	n/a	n/a	n/a	n/a	n/a	n/a	feedback	s581
517.17	0.136	n/a	-1.0	n/a	columbia_card_task_fmri	n/a	n/a	-1.0	n/a	n/a	n/a	n/a	n/a	n/a	n/a	n/a	ITI	s581
517.309	2.054	1.2702683532400512	draw_card	1.0	columbia_card_task_fmri	16.0	0.8	89.0	-70.0	0.2	15.0	1.0	3.0	0.7003059249051589	2.054	1.0	stim	s581
519.369	2.25	n/a	-1.0	n/a	columbia_card_task_fmri	n/a	n/a	-1.0	n/a	n/a	n/a	n/a	n/a	n/a	n/a	n/a	feedback	s581
521.619	0.476	n/a	-1.0	n/a	columbia_card_task_fmri	n/a	n/a	-1.0	n/a	n/a	n/a	n/a	n/a	n/a	n/a	n/a	ITI	s581
522.1	3.665	1.6577683532400505	draw_card	0.0	columbia_card_task_fmri	14.0	0.8125	89.0	-65.0	0.1875	16.0	1.0	3.0	-2.854805114590093	3.665	n/a	stim	s581
525.77	0.817	0.6702683532400515	draw_card	0.0	columbia_card_task_fmri	14.0	0.8	89.0	-65.0	0.2	16.0	2.0	3.0	-2.0918680246557777	0.817	n/a	stim	s581
526.592	0.904	-0.4583030753313766	draw_card	0.0	columbia_card_task_fmri	14.0	0.7857142857142857	89.0	-65.0	0.2142857142857142	16.0	3.0	3.0	-1.2785406559639014	0.904	n/a	stim	s581
527.501	0.941	-1.7605008775291813	draw_card	0.0	columbia_card_task_fmri	14.0	0.7692307692307692	89.0	-65.0	0.2307692307692307	16.0	4.0	3.0	-0.4120553657963697	0.941	n/a	stim	s581
528.447	0.924	-3.279731646759949	draw_card	1.0	columbia_card_task_fmri	14.0	0.75	89.0	-65.0	0.25	16.0	5.0	3.0	0.508805258787568	0.924	5.0	stim	s581
529.379	2.25	n/a	-1.0	n/a	columbia_card_task_fmri	n/a	n/a	-1.0	n/a	n/a	n/a	n/a	n/a	n/a	n/a	n/a	feedback	s581
531.629	0.204	n/a	-1.0	n/a	columbia_card_task_fmri	n/a	n/a	-1.0	n/a	n/a	n/a	n/a	n/a	n/a	n/a	n/a	ITI	s581
531.837	1.895	1.4077683532400505	draw_card	1.0	columbia_card_task_fmri	16.0	0.8125	89.0	-75.0	0.1875	16.0	1.0	3.0	1.8159495750553347	1.895	1.0	stim	s581
533.74	2.25	n/a	-1.0	n/a	columbia_card_task_fmri	n/a	n/a	-1.0	n/a	n/a	n/a	n/a	n/a	n/a	n/a	n/a	feedback	s581
535.99	0.068	n/a	-1.0	n/a	columbia_card_task_fmri	n/a	n/a	-1.0	n/a	n/a	n/a	n/a	n/a	n/a	n/a	n/a	ITI	s581
536.062	4.178	5.670268353240052	draw_card	0.0	columbia_card_task_fmri	16.0	0.8666666666666667	89.0	-80.0	0.1333333333333333	15.0	1.0	2.0	-1.061188132967665	4.178	n/a	stim	s581
540.244	0.769	4.755982638954339	draw_card	0.0	columbia_card_task_fmri	16.0	0.8571428571428572	89.0	-80.0	0.1428571428571428	15.0	2.0	2.0	-0.1045695862391298	0.769	n/a	stim	s581
541.017	0.978	3.70103758400928	draw_card	1.0	columbia_card_task_fmri	16.0	0.8461538461538461	89.0	-80.0	0.1538461538461538	15.0	3.0	2.0	0.9366179511112662	0.978	3.0	stim	s581
542.002	2.25	n/a	-1.0	n/a	columbia_card_task_fmri	n/a	n/a	-1.0	n/a	n/a	n/a	n/a	n/a	n/a	n/a	n/a	feedback	s581
544.252	0.068	n/a	-1.0	n/a	columbia_card_task_fmri	n/a	n/a	-1.0	n/a	n/a	n/a	n/a	n/a	n/a	n/a	n/a	ITI	s581
544.325	1.767	6.536935019906719	draw_card	0.0	columbia_card_task_fmri	17.0	0.8666666666666667	89.0	-80.0	0.1333333333333333	15.0	1.0	2.0	-0.7222132914861703	1.767	n/a	stim	s581
546.095	0.841	5.613125496097196	draw_card	0.0	columbia_card_task_fmri	17.0	0.8571428571428572	89.0	-80.0	0.1428571428571428	15.0	2.0	2.0	0.2444249126669646	0.841	n/a	stim	s581
546.942	0.713	4.547191430163127	draw_card	0.0	columbia_card_task_fmri	17.0	0.8461538461538461	89.0	-80.0	0.1538461538461538	15.0	3.0	2.0	1.2965144492886722	0.713	n/a	stim	s581
547.66	0.634	3.303601686573386	draw_card	0.0	columbia_card_task_fmri	17.0	0.8333333333333334	89.0	-80.0	0.1666666666666666	15.0	4.0	2.0	2.44579417786197	0.634	n/a	stim	s581
548.298	2.888	1.833904716876412	draw_card	0.0	columbia_card_task_fmri	17.0	0.8181818181818181	89.0	-80.0	0.1818181818181818	15.0	5.0	2.0	3.705566675971809	2.888	n/a	stim	s581
551.191	1.46	0.0702683532400518	draw_card	0.0	columbia_card_task_fmri	17.0	0.8	89.0	-80.0	0.2	15.0	6.0	2.0	5.090282235923219	1.46	n/a	stim	s581
552.656	1.85	-2.085287202315505	draw_card	0.0	columbia_card_task_fmri	17.0	0.7777777777777778	89.0	-80.0	0.2222222222222222	15.0	7.0	2.0	6.614065598263366	1.85	n/a	stim	s581
554.511	0.821	-4.7797316467599495	end_round	0.0	columbia_card_task_fmri	17.0	0.75	71.0	-80.0	0.25	15.0	8.0	2.0	8.286535892968118	0.821	7.0	stim	s581
555.341	2.25	n/a	-1.0	n/a	columbia_card_task_fmri	n/a	n/a	-1.0	n/a	n/a	n/a	n/a	n/a	n/a	n/a	n/a	feedback	s581
557.591	0.34	n/a	-1.0	n/a	columbia_card_task_fmri	n/a	n/a	-1.0	n/a	n/a	n/a	n/a	n/a	n/a	n/a	n/a	ITI	s581
557.936	3.664	2.4702683532400505	draw_card	0.0	columbia_card_task_fmri	1.0	0.9375	89.0	-15.0	0.0625	16.0	1.0	1.0	-29.19455927063973	3.664	n/a	stim	s581
561.605	0.574	2.403601686573384	draw_card	0.0	columbia_card_task_fmri	1.0	0.9333333333333332	89.0	-15.0	0.0666666666666666	16.0	2.0	1.0	-29.09454374889031	0.574	n/a	stim	s581
562.184	0.663	2.327411210382908	draw_card	0.0	columbia_card_task_fmri	1.0	0.9285714285714286	89.0	-15.0	0.0714285714285714	16.0	3.0	1.0	-28.983921144534268	0.663	n/a	stim	s581
562.852	0.521	2.23949912247082	draw_card	0.0	columbia_card_task_fmri	1.0	0.9230769230769232	89.0	-15.0	0.0769230769230769	16.0	4.0	1.0	-28.860827498142143	0.521	n/a	stim	s581
563.378	0.585	2.136935019906717	draw_card	0.0	columbia_card_task_fmri	1.0	0.9166666666666666	89.0	-15.0	0.0833333333333333	16.0	5.0	1.0	-28.722924113817957	0.585	n/a	stim	s581
563.97	0.902	2.015722898694596	draw_card	0.0	columbia_card_task_fmri	1.0	0.9090909090909092	89.0	-15.0	0.0909090909090909	16.0	6.0	1.0	-28.567235947669538	0.902	n/a	stim	s581
564.877	0.595	1.8702683532400504	draw_card	0.0	columbia_card_task_fmri	1.0	0.9	89.0	-15.0	0.1	16.0	7.0	1.0	-28.389921183017723	0.595	n/a	stim	s581
565.477	0.614	1.6924905754622728	draw_card	0.0	columbia_card_task_fmri	1.0	0.8888888888888888	89.0	-15.0	0.1111111111111111	16.0	8.0	1.0	-28.185938480077567	0.614	n/a	stim	s581
566.095	1.734	1.4702683532400505	draw_card	0.0	columbia_card_task_fmri	1.0	0.875	89.0	-15.0	0.125	16.0	9.0	1.0	-27.948564066583742	1.734	n/a	stim	s581
567.834	1.261	1.1845540675257649	end_round	0.0	columbia_card_task_fmri	1.0	0.8571428571428572	71.0	-15.0	0.1428571428571428	16.0	10.0	1.0	-27.668702917912505	1.261	9.0	stim	s581
569.104	2.25	n/a	-1.0	n/a	columbia_card_task_fmri	n/a	n/a	-1.0	n/a	n/a	n/a	n/a	n/a	n/a	n/a	n/a	feedback	s581
571.354	0.476	n/a	-1.0	n/a	columbia_card_task_fmri	n/a	n/a	-1.0	n/a	n/a	n/a	n/a	n/a	n/a	n/a	n/a	ITI	s581
571.836	2.439	5.5952683532400505	draw_card	0.0	columbia_card_task_fmri	10.0	0.9375	89.0	-100.0	0.0625	16.0	1.0	1.0	-7.047171959880082	2.439	n/a	stim	s581
574.279	0.932	5.136935019906717	draw_card	0.0	columbia_card_task_fmri	10.0	0.9333333333333332	89.0	-100.0	0.0666666666666666	16.0	2.0	1.0	-6.238481798943102	0.932	n/a	stim	s581
575.217	0.79	4.613125496097195	draw_card	0.0	columbia_card_task_fmri	10.0	0.9285714285714286	89.0	-100.0	0.0714285714285714	16.0	3.0	1.0	-5.351446121872609	0.79	n/a	stim	s581
576.011	0.961	4.00872989170159	draw_card	0.0	columbia_card_task_fmri	10.0	0.9230769230769232	89.0	-100.0	0.0769230769230769	16.0	4.0	1.0	-4.372738058752983	0.961	n/a	stim	s581
576.976	0.834	3.3036016865733844	draw_card	0.0	columbia_card_task_fmri	10.0	0.9166666666666666	89.0	-100.0	0.0833333333333333	16.0	5.0	1.0	-3.28568869816186	0.834	n/a	stim	s581
577.815	0.91	2.4702683532400487	draw_card	0.0	columbia_card_task_fmri	10.0	0.9090909090909092	89.0	-100.0	0.0909090909090909	16.0	6.0	1.0	-2.0691606501468023	0.91	n/a	stim	s581
578.73	1.424	1.4702683532400505	end_round	0.0	columbia_card_task_fmri	10.0	0.9	71.0	-100.0	0.1	16.0	7.0	1.0	-0.695946362077791	1.424	6.0	stim	s581
580.162	2.25	n/a	-1.0	n/a	columbia_card_task_fmri	n/a	n/a	-1.0	n/a	n/a	n/a	n/a	n/a	n/a	n/a	n/a	feedback	s581
582.412	0.272	n/a	-1.0	n/a	columbia_card_task_fmri	n/a	n/a	-1.0	n/a	n/a	n/a	n/a	n/a	n/a	n/a	n/a	ITI	s581
582.689	2.203	6.2202683532400505	draw_card	0.0	columbia_card_task_fmri	15.0	0.875	89.0	-75.0	0.125	16.0	1.0	2.0	-3.921241070299548	2.203	n/a	stim	s581
584.897	0.589	5.4702683532400505	draw_card	0.0	columbia_card_task_fmri	15.0	0.8666666666666667	89.0	-75.0	0.1333333333333333	16.0	2.0	2.0	-3.09459135854571	0.589	n/a	stim	s581
585.491	0.559	4.613125496097195	draw_card	0.0	columbia_card_task_fmri	15.0	0.8571428571428572	89.0	-75.0	0.1428571428571428	16.0	3.0	2.0	-2.1981032708684403	0.559	n/a	stim	s581
586.056	0.604	3.624114507086204	draw_card	0.0	columbia_card_task_fmri	15.0	0.8461538461538461	89.0	-75.0	0.1538461538461538	16.0	4.0	2.0	-1.222340579526055	0.604	n/a	stim	s581
586.666	0.545	2.4702683532400505	draw_card	0.0	columbia_card_task_fmri	15.0	0.8333333333333334	89.0	-75.0	0.1666666666666666	16.0	5.0	2.0	-0.1564119160140435	0.545	n/a	stim	s581
587.216	0.667	1.1066319896036854	draw_card	0.0	columbia_card_task_fmri	15.0	0.8181818181818181	89.0	-75.0	0.1818181818181818	16.0	6.0	2.0	1.0120251681814665	0.667	n/a	stim	s581
587.889	0.621	-0.5297316467599495	draw_card	1.0	columbia_card_task_fmri	15.0	0.8	89.0	-75.0	0.2	16.0	7.0	2.0	2.2963784371670783	0.621	7.0	stim	s581
588.516	2.25	n/a	-1.0	n/a	columbia_card_task_fmri	n/a	n/a	-1.0	n/a	n/a	n/a	n/a	n/a	n/a	n/a	n/a	feedback	s581
590.766	0.884	n/a	-1.0	n/a	columbia_card_task_fmri	n/a	n/a	-1.0	n/a	n/a	n/a	n/a	n/a	n/a	n/a	n/a	ITI	s581
591.655	4.848	6.4702683532400505	draw_card	0.0	columbia_card_task_fmri	16.0	0.875	89.0	-80.0	0.125	16.0	1.0	2.0	-1.9433034173935615	4.848	n/a	stim	s581
596.507	0.611	5.670268353240052	draw_card	0.0	columbia_card_task_fmri	16.0	0.8666666666666667	89.0	-80.0	0.1333333333333333	16.0	2.0	2.0	-1.061188132967665	0.611	n/a	stim	s581
597.124	0.509	4.755982638954339	draw_card	1.0	columbia_card_task_fmri	16.0	0.8571428571428572	89.0	-80.0	0.1428571428571428	16.0	3.0	2.0	-0.1045695862391298	0.509	3.0	stim	s581
597.643	2.25	n/a	-1.0	n/a	columbia_card_task_fmri	n/a	n/a	-1.0	n/a	n/a	n/a	n/a	n/a	n/a	n/a	n/a	feedback	s581
599.893	0.136	n/a	-1.0	n/a	columbia_card_task_fmri	n/a	n/a	-1.0	n/a	n/a	n/a	n/a	n/a	n/a	n/a	n/a	ITI	s581
600.034	2.476	3.6577683532400505	end_round	0.0	columbia_card_task_fmri	4.0	0.6875	71.0	-5.0	0.3125	16.0	1.0	5.0	-28.940124025952237	2.476	0.0	stim	s581
602.517	2.25	n/a	-1.0	n/a	columbia_card_task_fmri	n/a	n/a	-1.0	n/a	n/a	n/a	n/a	n/a	n/a	n/a	n/a	feedback	s581
604.767	0.136	n/a	-1.0	n/a	columbia_card_task_fmri	n/a	n/a	-1.0	n/a	n/a	n/a	n/a	n/a	n/a	n/a	n/a	ITI	s581
604.908	2.802	0.8036016865733862	draw_card	0.0	columbia_card_task_fmri	14.0	0.8333333333333334	89.0	-80.0	0.1666666666666666	6.0	1.0	1.0	1.3304441711971862	2.802	n/a	stim	s581
607.716	2.003	-2.3297316467599485	draw_card	0.0	columbia_card_task_fmri	14.0	0.8	89.0	-80.0	0.2	6.0	2.0	1.0	3.892784076770447	2.003	n/a	stim	s581
609.725	1.023	-7.0297316467599495	end_round	0.0	columbia_card_task_fmri	14.0	0.75	71.0	-80.0	0.25	6.0	3.0	1.0	6.989809949054305	1.023	2.0	stim	s581
610.756	2.25	n/a	-1.0	n/a	columbia_card_task_fmri	n/a	n/a	-1.0	n/a	n/a	n/a	n/a	n/a	n/a	n/a	n/a	feedback	s581
613.006	0.068	n/a	-1.0	n/a	columbia_card_task_fmri	n/a	n/a	-1.0	n/a	n/a	n/a	n/a	n/a	n/a	n/a	n/a	ITI	s581
613.08	1.779	2.4702683532400505	draw_card	0.0	columbia_card_task_fmri	15.0	0.8333333333333334	89.0	-75.0	0.1666666666666666	6.0	1.0	1.0	-0.1564119160140435	1.779	n/a	stim	s581
614.865	0.811	-0.5297316467599495	draw_card	0.0	columbia_card_task_fmri	15.0	0.8	89.0	-75.0	0.2	6.0	2.0	1.0	2.2963784371670783	0.811	n/a	stim	s581
615.682	1.021	-5.0297316467599495	draw_card	0.0	columbia_card_task_fmri	15.0	0.75	89.0	-75.0	0.25	6.0	3.0	1.0	5.261081111079356	1.021	n/a	stim	s581
616.708	0.969	-12.529731646759949	end_round	0.0	columbia_card_task_fmri	15.0	0.6666666666666667	71.0	-75.0	0.3333333333333333	6.0	4.0	1.0	8.709986276639846	0.969	3.0	stim	s581
617.687	2.25	n/a	-1.0	n/a	columbia_card_task_fmri	n/a	n/a	-1.0	n/a	n/a	n/a	n/a	n/a	n/a	n/a	n/a	feedback	s581
619.937	0.068	n/a	-1.0	n/a	columbia_card_task_fmri	n/a	n/a	-1.0	n/a	n/a	n/a	n/a	n/a	n/a	n/a	n/a	ITI	s581
620.011	2.34	4.136935019906718	draw_card	1.0	columbia_card_task_fmri	16.0	0.8333333333333334	89.0	-70.0	0.1666666666666666	6.0	1.0	1.0	-1.6429108362692162	2.34	1.0	stim	s581
622.36	2.25	n/a	-1.0	n/a	columbia_card_task_fmri	n/a	n/a	-1.0	n/a	n/a	n/a	n/a	n/a	n/a	n/a	n/a	feedback	s581
624.61	0.612	n/a	-1.0	n/a	columbia_card_task_fmri	n/a	n/a	-1.0	n/a	n/a	n/a	n/a	n/a	n/a	n/a	n/a	ITI	s581
625.228	2.797	4.7202683532400505	draw_card	0.0	columbia_card_task_fmri	23.0	0.75	89.0	-60.0	0.25	8.0	1.0	2.0	2.236573559021529	2.797	n/a	stim	s581
628.03	2.756	1.7559826389543387	draw_card	0.0	columbia_card_task_fmri	23.0	0.7142857142857143	89.0	-60.0	0.2857142857142857	8.0	2.0	2.0	3.78858730286953	2.756	n/a	stim	s581
630.791	2.019	-2.196398313426614	draw_card	0.0	columbia_card_task_fmri	23.0	0.6666666666666667	89.0	-60.0	0.3333333333333333	8.0	3.0	2.0	5.416203080022321	2.019	n/a	stim	s581
632.815	1.4	-7.729731646759951	draw_card	0.0	columbia_card_task_fmri	23.0	0.6	89.0	-60.0	0.4	8.0	4.0	2.0	6.948222298199127	1.4	n/a	stim	s581
634.219	0.697	-16.02973164675995	draw_card	0.0	columbia_card_task_fmri	23.0	0.5	89.0	-60.0	0.5	8.0	5.0	2.0	7.785180615891988	0.697	n/a	stim	s581
634.922	2.425	-29.86306498009328	end_round	0.0	columbia_card_task_fmri	23.0	0.3333333333333333	71.0	-60.0	0.6666666666666666	8.0	6.0	2.0	5.416203080022321	2.425	5.0	stim	s581
637.352	2.25	n/a	-1.0	n/a	columbia_card_task_fmri	n/a	n/a	-1.0	n/a	n/a	n/a	n/a	n/a	n/a	n/a	n/a	feedback	s581
639.602	0.476	n/a	-1.0	n/a	columbia_card_task_fmri	n/a	n/a	-1.0	n/a	n/a	n/a	n/a	n/a	n/a	n/a	n/a	ITI	s581
640.083	4.318	5.2202683532400505	draw_card	0.0	columbia_card_task_fmri	27.0	0.75	89.0	-70.0	0.25	8.0	1.0	2.0	8.286535892968118	4.318	n/a	stim	s581
644.406	0.88	1.7559826389543352	draw_card	0.0	columbia_card_task_fmri	27.0	0.7142857142857143	89.0	-70.0	0.2857142857142857	8.0	2.0	2.0	10.101430999303425	0.88	n/a	stim	s581
645.292	0.745	-2.863064980093278	draw_card	0.0	columbia_card_task_fmri	27.0	0.6666666666666667	89.0	-70.0	0.3333333333333333	8.0	3.0	2.0	12.004640383557188	0.745	n/a	stim	s581
646.042	2.227	-9.32973164675995	draw_card	0.0	columbia_card_task_fmri	27.0	0.6	89.0	-70.0	0.4	8.0	4.0	2.0	13.795989309099248	2.227	n/a	stim	s581
648.275	1.443	-19.02973164675995	draw_card	1.0	columbia_card_task_fmri	27.0	0.5	89.0	-70.0	0.5	8.0	5.0	2.0	14.774593629347322	1.443	5.0	stim	s581
649.727	2.25	n/a	-1.0	n/a	columbia_card_task_fmri	n/a	n/a	-1.0	n/a	n/a	n/a	n/a	n/a	n/a	n/a	n/a	feedback	s581
651.977	0.0	n/a	-1.0	n/a	columbia_card_task_fmri	n/a	n/a	-1.0	n/a	n/a	n/a	n/a	n/a	n/a	n/a	n/a	ITI	s581
651.983	2.696	0.4702683532400522	draw_card	0.0	columbia_card_task_fmri	16.0	0.7777777777777778	89.0	-65.0	0.2222222222222222	9.0	1.0	2.0	-0.0228753362116194	2.696	n/a	stim	s581
654.685	0.715	-1.7797316467599495	draw_card	0.0	columbia_card_task_fmri	16.0	0.75	89.0	-65.0	0.25	9.0	2.0	2.0	1.37263673432642	0.715	n/a	stim	s581
655.405	1.194	-4.67258878961709	draw_card	0.0	columbia_card_task_fmri	16.0	0.7142857142857143	89.0	-65.0	0.2857142857142857	9.0	3.0	2.0	2.8870819215055263	1.194	n/a	stim	s581
656.604	0.972	-8.529731646759945	draw_card	0.0	columbia_card_task_fmri	16.0	0.6666666666666667	89.0	-65.0	0.3333333333333333	9.0	4.0	2.0	4.475313605258009	0.972	n/a	stim	s581
657.581	0.861	-13.929731646759947	end_round	0.0	columbia_card_task_fmri	16.0	0.6	71.0	-65.0	0.4	9.0	5.0	2.0	5.970273922878661	0.861	4.0	stim	s581
658.449	2.25	n/a	-1.0	n/a	columbia_card_task_fmri	n/a	n/a	-1.0	n/a	n/a	n/a	n/a	n/a	n/a	n/a	n/a	feedback	s581
660.699	0.068	n/a	-1.0	n/a	columbia_card_task_fmri	n/a	n/a	-1.0	n/a	n/a	n/a	n/a	n/a	n/a	n/a	n/a	ITI	s581
660.771	1.709	5.670268353240052	draw_card	0.0	columbia_card_task_fmri	13.0	0.9	89.0	-85.0	0.1	10.0	1.0	1.0	-4.284678339943291	1.709	n/a	stim	s581
662.485	1.221	4.581379464351161	draw_card	0.0	columbia_card_task_fmri	13.0	0.8888888888888888	89.0	-85.0	0.1111111111111111	10.0	2.0	1.0	-2.890938135956564	1.221	n/a	stim	s581
663.712	0.786	3.2202683532400505	draw_card	0.0	columbia_card_task_fmri	13.0	0.875	89.0	-85.0	0.125	10.0	3.0	1.0	-1.2838181536432955	0.786	n/a	stim	s581
664.504	0.573	1.4702683532400522	draw_card	0.0	columbia_card_task_fmri	13.0	0.8571428571428572	89.0	-85.0	0.1428571428571428	10.0	4.0	1.0	0.5934383698924108	0.573	n/a	stim	s581
665.083	0.76	-0.8630649800932817	draw_card	0.0	columbia_card_task_fmri	13.0	0.8333333333333334	89.0	-85.0	0.1666666666666666	10.0	5.0	1.0	2.817613903224135	0.76	n/a	stim	s581
665.847	0.544	-4.129731646759949	draw_card	1.0	columbia_card_task_fmri	13.0	0.8	89.0	-85.0	0.2	10.0	6.0	1.0	5.48948222484136	0.544	6.0	stim	s581
666.401	2.25	n/a	-1.0	n/a	columbia_card_task_fmri	n/a	n/a	-1.0	n/a	n/a	n/a	n/a	n/a	n/a	n/a	n/a	feedback	s581
668.651	0.204	n/a	-1.0	n/a	columbia_card_task_fmri	n/a	n/a	-1.0	n/a	n/a	n/a	n/a	n/a	n/a	n/a	n/a	ITI	s581
668.861	2.295	0.6702683532400515	draw_card	0.0	columbia_card_task_fmri	14.0	0.8	89.0	-65.0	0.2	10.0	1.0	2.0	-2.0918680246557777	2.295	n/a	stim	s581
671.162	0.543	-1.0852872023155031	draw_card	0.0	columbia_card_task_fmri	14.0	0.7777777777777778	89.0	-65.0	0.2222222222222222	10.0	2.0	2.0	-0.8520704105652683	0.543	n/a	stim	s581
671.712	0.584	-3.279731646759949	draw_card	1.0	columbia_card_task_fmri	14.0	0.75	89.0	-65.0	0.25	10.0	3.0	2.0	0.508805258787568	0.584	3.0	stim	s581
672.303	2.25	n/a	-1.0	n/a	columbia_card_task_fmri	n/a	n/a	-1.0	n/a	n/a	n/a	n/a	n/a	n/a	n/a	n/a	feedback	s581
674.553	0.272	n/a	-1.0	n/a	columbia_card_task_fmri	n/a	n/a	-1.0	n/a	n/a	n/a	n/a	n/a	n/a	n/a	n/a	ITI	s581
674.831	2.665	2.070268353240052	draw_card	0.0	columbia_card_task_fmri	17.0	0.8	89.0	-70.0	0.2	10.0	1.0	2.0	1.0992903217650607	2.665	n/a	stim	s581
677.502	0.585	0.1369350199067183	draw_card	1.0	columbia_card_task_fmri	17.0	0.7777777777777778	89.0	-70.0	0.2222222222222222	10.0	2.0	2.0	2.4653377281988758	0.585	2.0	stim	s581
678.097	2.25	n/a	-1.0	n/a	columbia_card_task_fmri	n/a	n/a	-1.0	n/a	n/a	n/a	n/a	n/a	n/a	n/a	n/a	feedback	s581
680.347	0.068	n/a	-1.0	n/a	columbia_card_task_fmri	n/a	n/a	-1.0	n/a	n/a	n/a	n/a	n/a	n/a	n/a	n/a	ITI	s581
