onset	duration	planning	condition	current_position	exp_stage	experiment_exp_id	goal_state	key_press	problem_id	response_time	start_state	trial_id	worker_id
-57.882	0.0	0	n/a	n/a	n/a	ward_and_allport	n/a	32.0	n/a	21.746	n/a	instructions	s581
3.01	8.125	1	UA_with_intermediate	1,0,0,2,0,0,0,0,0	practice	ward_and_allport	1,2,3,0,0,0,0,0,0	71.0	0.0	8.125	1,0,0,2,3,0,0,0,0	to_hand	s581
11.136	0.862	0	UA_with_intermediate	1,3,0,2,0,0,0,0,0	practice	ward_and_allport	1,2,3,0,0,0,0,0,0	89.0	0.0	0.862	1,0,0,2,3,0,0,0,0	to_board	s581
12.001	9.382	0	UA_with_intermediate	1,3,0,0,0,0,0,0,0	practice	ward_and_allport	1,2,3,0,0,0,0,0,0	71.0	0.0	9.382	1,0,0,2,3,0,0,0,0	to_hand	s581
21.384	2.118	0	UA_with_intermediate	1,3,0,2,0,0,0,0,0	practice	ward_and_allport	1,2,3,0,0,0,0,0,0	71.0	0.0	2.118	1,0,0,2,3,0,0,0,0	to_board	s581
23.502	1.015	0	UA_with_intermediate	1,0,0,2,0,0,0,0,0	practice	ward_and_allport	1,2,3,0,0,0,0,0,0	89.0	0.0	1.015	1,0,0,2,3,0,0,0,0	to_hand	s581
24.519	0.993	0	UA_with_intermediate	1,0,0,2,0,0,3,0,0	practice	ward_and_allport	1,2,3,0,0,0,0,0,0	82.0	0.0	0.993	1,0,0,2,3,0,0,0,0	to_board	s581
25.514	0.985	0	UA_with_intermediate	1,0,0,0,0,0,3,0,0	practice	ward_and_allport	1,2,3,0,0,0,0,0,0	71.0	0.0	0.985	1,0,0,2,3,0,0,0,0	to_hand	s581
26.5	0.945	0	UA_with_intermediate	1,2,0,0,0,0,3,0,0	practice	ward_and_allport	1,2,3,0,0,0,0,0,0	89.0	0.0	0.945	1,0,0,2,3,0,0,0,0	to_board	s581
27.447	1.535	0	UA_with_intermediate	1,2,0,0,0,0,0,0,0	practice	ward_and_allport	1,2,3,0,0,0,0,0,0	82.0	0.0	1.535	1,0,0,2,3,0,0,0,0	to_hand	s581
28.983	0.816	0	UA_with_intermediate	1,2,0,3,0,0,0,0,0	practice	ward_and_allport	1,2,3,0,0,0,0,0,0	71.0	0.0	0.816	1,0,0,2,3,0,0,0,0	to_board	s581
29.802	1.794	0	UA_with_intermediate	1,2,0,0,0,0,0,0,0	practice	ward_and_allport	1,2,3,0,0,0,0,0,0	71.0	0.0	1.794	1,0,0,2,3,0,0,0,0	to_hand	s581
31.597	0.672	0	UA_with_intermediate	1,2,3,0,0,0,0,0,0	practice	ward_and_allport	1,2,3,0,0,0,0,0,0	89.0	0.0	0.672	1,0,0,2,3,0,0,0,0	to_board	s581
32.275	1.0	0	UA_with_intermediate	n/a	practice	ward_and_allport	n/a	-1.0	0.0	n/a	n/a	feedback	s581
34.777	5.141	1	UA_with_intermediate	1,2,0,0,0,0,0,0,0	practice	ward_and_allport	1,3,2,0,0,0,0,0,0	71.0	1.0	5.141	1,2,0,3,0,0,0,0,0	to_hand	s581
39.919	0.982	0	UA_with_intermediate	1,2,0,3,0,0,0,0,0	practice	ward_and_allport	1,3,2,0,0,0,0,0,0	71.0	1.0	0.982	1,2,0,3,0,0,0,0,0	to_board	s581
40.903	0.805	0	UA_with_intermediate	1,0,0,3,0,0,0,0,0	practice	ward_and_allport	1,3,2,0,0,0,0,0,0	89.0	1.0	0.805	1,2,0,3,0,0,0,0,0	to_hand	s581
41.71	0.893	0	UA_with_intermediate	1,0,0,3,0,0,2,0,0	practice	ward_and_allport	1,3,2,0,0,0,0,0,0	82.0	1.0	0.893	1,2,0,3,0,0,0,0,0	to_board	s581
42.605	0.868	0	UA_with_intermediate	1,0,0,0,0,0,2,0,0	practice	ward_and_allport	1,3,2,0,0,0,0,0,0	71.0	1.0	0.868	1,2,0,3,0,0,0,0,0	to_hand	s581
43.476	0.76	0	UA_with_intermediate	1,3,0,0,0,0,2,0,0	practice	ward_and_allport	1,3,2,0,0,0,0,0,0	89.0	1.0	0.76	1,2,0,3,0,0,0,0,0	to_board	s581
44.238	1.366	0	UA_with_intermediate	1,3,0,0,0,0,0,0,0	practice	ward_and_allport	1,3,2,0,0,0,0,0,0	82.0	1.0	1.366	1,2,0,3,0,0,0,0,0	to_hand	s581
45.605	0.821	0	UA_with_intermediate	1,3,2,0,0,0,0,0,0	practice	ward_and_allport	1,3,2,0,0,0,0,0,0	89.0	1.0	0.821	1,2,0,3,0,0,0,0,0	to_board	s581
46.43	1.0	0	UA_with_intermediate	n/a	practice	ward_and_allport	n/a	-1.0	1.0	n/a	n/a	feedback	s581
47.43	1.1	0	UA_with_intermediate	n/a	practice	ward_and_allport	n/a	-1.0	1.0	n/a	n/a	ITI	s581
48.533	4.035	1	UA_without_intermediate	0,0,0,1,2,0,0,0,0	practice	ward_and_allport	3,2,1,0,0,0,0,0,0	82.0	2.0	4.035	0,0,0,1,2,0,3,0,0	to_hand	s581
52.569	0.802	0	UA_without_intermediate	3,0,0,1,2,0,0,0,0	practice	ward_and_allport	3,2,1,0,0,0,0,0,0	89.0	2.0	0.802	0,0,0,1,2,0,3,0,0	to_board	s581
53.373	1.651	0	UA_without_intermediate	3,0,0,1,0,0,0,0,0	practice	ward_and_allport	3,2,1,0,0,0,0,0,0	71.0	2.0	1.651	0,0,0,1,2,0,3,0,0	to_hand	s581
55.025	0.854	0	UA_without_intermediate	3,2,0,1,0,0,0,0,0	practice	ward_and_allport	3,2,1,0,0,0,0,0,0	89.0	2.0	0.854	0,0,0,1,2,0,3,0,0	to_board	s581
55.881	0.778	0	UA_without_intermediate	3,2,0,0,0,0,0,0,0	practice	ward_and_allport	3,2,1,0,0,0,0,0,0	71.0	2.0	0.778	0,0,0,1,2,0,3,0,0	to_hand	s581
56.66	0.722	0	UA_without_intermediate	3,2,1,0,0,0,0,0,0	practice	ward_and_allport	3,2,1,0,0,0,0,0,0	89.0	2.0	0.722	0,0,0,1,2,0,3,0,0	to_board	s581
57.386	1.0	0	UA_without_intermediate	n/a	practice	ward_and_allport	n/a	-1.0	2.0	n/a	n/a	feedback	s581
58.386	1.2	0	UA_without_intermediate	n/a	practice	ward_and_allport	n/a	-1.0	2.0	n/a	n/a	ITI	s581
59.589	3.274	1	UA_without_intermediate	0,0,0,1,0,0,3,0,0	practice	ward_and_allport	2,3,1,0,0,0,0,0,0	71.0	3.0	3.274	0,0,0,1,2,0,3,0,0	to_hand	s581
62.864	1.123	0	UA_without_intermediate	2,0,0,1,0,0,3,0,0	practice	ward_and_allport	2,3,1,0,0,0,0,0,0	89.0	3.0	1.123	0,0,0,1,2,0,3,0,0	to_board	s581
63.99	0.885	0	UA_without_intermediate	2,0,0,1,0,0,0,0,0	practice	ward_and_allport	2,3,1,0,0,0,0,0,0	82.0	3.0	0.885	0,0,0,1,2,0,3,0,0	to_hand	s581
64.876	0.787	0	UA_without_intermediate	2,3,0,1,0,0,0,0,0	practice	ward_and_allport	2,3,1,0,0,0,0,0,0	89.0	3.0	0.787	0,0,0,1,2,0,3,0,0	to_board	s581
65.665	0.663	0	UA_without_intermediate	2,3,0,0,0,0,0,0,0	practice	ward_and_allport	2,3,1,0,0,0,0,0,0	71.0	3.0	0.663	0,0,0,1,2,0,3,0,0	to_hand	s581
66.33	0.672	0	UA_without_intermediate	2,3,1,0,0,0,0,0,0	practice	ward_and_allport	2,3,1,0,0,0,0,0,0	89.0	3.0	0.672	0,0,0,1,2,0,3,0,0	to_board	s581
67.005	1.0	0	UA_without_intermediate	n/a	practice	ward_and_allport	n/a	-1.0	3.0	n/a	n/a	feedback	s581
68.005	1.0	0	UA_without_intermediate	n/a	practice	ward_and_allport	n/a	-1.0	3.0	n/a	n/a	ITI	s581
71.011	8.037	1	PA_without_intermediate	1,2,0,0,0,0,0,0,0	test	ward_and_allport	0,0,0,3,2,0,1,0,0	89.0	0.0	8.037	1,2,3,0,0,0,0,0,0	to_hand	s581
79.05	1.038	0	PA_without_intermediate	1,2,0,3,0,0,0,0,0	test	ward_and_allport	0,0,0,3,2,0,1,0,0	71.0	0.0	1.038	1,2,3,0,0,0,0,0,0	to_board	s581
80.091	0.694	0	PA_without_intermediate	1,0,0,3,0,0,0,0,0	test	ward_and_allport	0,0,0,3,2,0,1,0,0	89.0	0.0	0.694	1,2,3,0,0,0,0,0,0	to_hand	s581
80.786	0.852	0	PA_without_intermediate	1,0,0,3,2,0,0,0,0	test	ward_and_allport	0,0,0,3,2,0,1,0,0	71.0	0.0	0.852	1,2,3,0,0,0,0,0,0	to_board	s581
81.641	0.981	0	PA_without_intermediate	0,0,0,3,2,0,0,0,0	test	ward_and_allport	0,0,0,3,2,0,1,0,0	89.0	0.0	0.981	1,2,3,0,0,0,0,0,0	to_hand	s581
82.624	0.695	0	PA_without_intermediate	0,0,0,3,2,0,1,0,0	test	ward_and_allport	0,0,0,3,2,0,1,0,0	82.0	0.0	0.695	1,2,3,0,0,0,0,0,0	to_board	s581
83.326	1.0	0	PA_without_intermediate	n/a	test	ward_and_allport	n/a	-1.0	0.0	n/a	n/a	feedback	s581
84.326	2.088	0	PA_without_intermediate	n/a	test	ward_and_allport	n/a	-1.0	0.0	n/a	n/a	ITI	s581
86.416	7.678	1	PA_with_intermediate	0,0,0,0,0,0,1,2,0	test	ward_and_allport	0,0,0,2,0,0,1,3,0	82.0	1.0	7.678	0,0,0,0,0,0,1,2,3	to_hand	s581
94.096	0.676	0	PA_with_intermediate	3,0,0,0,0,0,1,2,0	test	ward_and_allport	0,0,0,2,0,0,1,3,0	89.0	1.0	0.676	0,0,0,0,0,0,1,2,3	to_board	s581
94.775	1.282	0	PA_with_intermediate	3,0,0,0,0,0,1,0,0	test	ward_and_allport	0,0,0,2,0,0,1,3,0	82.0	1.0	1.282	0,0,0,0,0,0,1,2,3	to_hand	s581
96.059	1.128	0	PA_with_intermediate	3,0,0,2,0,0,1,0,0	test	ward_and_allport	0,0,0,2,0,0,1,3,0	71.0	1.0	1.128	0,0,0,0,0,0,1,2,3	to_board	s581
97.19	1.143	0	PA_with_intermediate	0,0,0,2,0,0,1,0,0	test	ward_and_allport	0,0,0,2,0,0,1,3,0	89.0	1.0	1.143	0,0,0,0,0,0,1,2,3	to_hand	s581
98.335	0.784	0	PA_with_intermediate	0,0,0,2,0,0,1,3,0	test	ward_and_allport	0,0,0,2,0,0,1,3,0	82.0	1.0	0.784	0,0,0,0,0,0,1,2,3	to_board	s581
99.124	1.0	0	PA_with_intermediate	n/a	test	ward_and_allport	n/a	-1.0	1.0	n/a	n/a	feedback	s581
100.124	1.0	0	PA_with_intermediate	n/a	test	ward_and_allport	n/a	-1.0	1.0	n/a	n/a	ITI	s581
101.127	4.223	1	PA_without_intermediate	0,0,0,1,2,0,0,0,0	test	ward_and_allport	1,0,0,0,0,0,3,2,0	71.0	2.0	4.223	0,0,0,1,2,3,0,0,0	to_hand	s581
105.35	0.898	0	PA_without_intermediate	0,0,0,1,2,0,3,0,0	test	ward_and_allport	1,0,0,0,0,0,3,2,0	82.0	2.0	0.898	0,0,0,1,2,3,0,0,0	to_board	s581
106.251	0.905	0	PA_without_intermediate	0,0,0,1,0,0,3,0,0	test	ward_and_allport	1,0,0,0,0,0,3,2,0	71.0	2.0	0.905	0,0,0,1,2,3,0,0,0	to_hand	s581
107.157	0.704	0	PA_without_intermediate	0,0,0,1,0,0,3,2,0	test	ward_and_allport	1,0,0,0,0,0,3,2,0	82.0	2.0	0.704	0,0,0,1,2,3,0,0,0	to_board	s581
107.862	1.095	0	PA_without_intermediate	0,0,0,0,0,0,3,2,0	test	ward_and_allport	1,0,0,0,0,0,3,2,0	71.0	2.0	1.095	0,0,0,1,2,3,0,0,0	to_hand	s581
108.96	0.602	0	PA_without_intermediate	1,0,0,0,0,0,3,2,0	test	ward_and_allport	1,0,0,0,0,0,3,2,0	89.0	2.0	0.602	0,0,0,1,2,3,0,0,0	to_board	s581
109.567	1.0	0	PA_without_intermediate	n/a	test	ward_and_allport	n/a	-1.0	2.0	n/a	n/a	feedback	s581
110.567	1.0	0	PA_without_intermediate	n/a	test	ward_and_allport	n/a	-1.0	2.0	n/a	n/a	ITI	s581
111.57	3.45	1	PA_without_intermediate	0,0,0,0,0,0,1,2,0	test	ward_and_allport	1,0,0,3,2,0,0,0,0	82.0	3.0	3.45	0,0,0,0,0,0,1,2,3	to_hand	s581
115.021	1.124	0	PA_without_intermediate	0,0,0,3,0,0,1,2,0	test	ward_and_allport	1,0,0,3,2,0,0,0,0	71.0	3.0	1.124	0,0,0,0,0,0,1,2,3	to_board	s581
116.149	1.065	0	PA_without_intermediate	0,0,0,3,0,0,1,0,0	test	ward_and_allport	1,0,0,3,2,0,0,0,0	82.0	3.0	1.065	0,0,0,0,0,0,1,2,3	to_hand	s581
117.215	0.816	0	PA_without_intermediate	0,0,0,3,2,0,1,0,0	test	ward_and_allport	1,0,0,3,2,0,0,0,0	71.0	3.0	0.816	0,0,0,0,0,0,1,2,3	to_board	s581
118.034	0.929	0	PA_without_intermediate	0,0,0,3,2,0,0,0,0	test	ward_and_allport	1,0,0,3,2,0,0,0,0	82.0	3.0	0.929	0,0,0,0,0,0,1,2,3	to_hand	s581
118.964	1.001	0	PA_without_intermediate	1,0,0,3,2,0,0,0,0	test	ward_and_allport	1,0,0,3,2,0,0,0,0	89.0	3.0	1.001	0,0,0,0,0,0,1,2,3	to_board	s581
119.972	1.0	0	PA_without_intermediate	n/a	test	ward_and_allport	n/a	-1.0	3.0	n/a	n/a	feedback	s581
120.972	1.0	0	PA_without_intermediate	n/a	test	ward_and_allport	n/a	-1.0	3.0	n/a	n/a	ITI	s581
121.976	4.827	1	PA_with_intermediate	0,0,0,0,0,0,1,2,0	test	ward_and_allport	0,0,0,2,0,0,1,3,0	82.0	4.0	4.827	0,0,0,0,0,0,1,2,3	to_hand	s581
126.805	0.751	0	PA_with_intermediate	3,0,0,0,0,0,1,2,0	test	ward_and_allport	0,0,0,2,0,0,1,3,0	89.0	4.0	0.751	0,0,0,0,0,0,1,2,3	to_board	s581
127.56	0.945	0	PA_with_intermediate	3,0,0,0,0,0,1,0,0	test	ward_and_allport	0,0,0,2,0,0,1,3,0	82.0	4.0	0.945	0,0,0,0,0,0,1,2,3	to_hand	s581
128.506	0.689	0	PA_with_intermediate	3,0,0,2,0,0,1,0,0	test	ward_and_allport	0,0,0,2,0,0,1,3,0	71.0	4.0	0.689	0,0,0,0,0,0,1,2,3	to_board	s581
129.199	0.739	0	PA_with_intermediate	0,0,0,2,0,0,1,0,0	test	ward_and_allport	0,0,0,2,0,0,1,3,0	89.0	4.0	0.739	0,0,0,0,0,0,1,2,3	to_hand	s581
129.94	0.947	0	PA_with_intermediate	0,0,0,2,0,0,1,3,0	test	ward_and_allport	0,0,0,2,0,0,1,3,0	82.0	4.0	0.947	0,0,0,0,0,0,1,2,3	to_board	s581
130.896	1.0	0	PA_with_intermediate	n/a	test	ward_and_allport	n/a	-1.0	4.0	n/a	n/a	feedback	s581
131.896	1.544	0	PA_with_intermediate	n/a	test	ward_and_allport	n/a	-1.0	4.0	n/a	n/a	ITI	s581
133.442	3.768	1	PA_without_intermediate	0,0,0,0,0,0,1,2,0	test	ward_and_allport	3,2,0,1,0,0,0,0,0	82.0	5.0	3.768	0,0,0,0,0,0,1,2,3	to_hand	s581
137.211	0.86	0	PA_without_intermediate	3,0,0,0,0,0,1,2,0	test	ward_and_allport	3,2,0,1,0,0,0,0,0	89.0	5.0	0.86	0,0,0,0,0,0,1,2,3	to_board	s581
138.076	1.364	0	PA_without_intermediate	3,0,0,0,0,0,1,0,0	test	ward_and_allport	3,2,0,1,0,0,0,0,0	82.0	5.0	1.364	0,0,0,0,0,0,1,2,3	to_hand	s581
139.441	0.835	0	PA_without_intermediate	3,2,0,0,0,0,1,0,0	test	ward_and_allport	3,2,0,1,0,0,0,0,0	89.0	5.0	0.835	0,0,0,0,0,0,1,2,3	to_board	s581
140.279	1.169	0	PA_without_intermediate	3,2,0,0,0,0,0,0,0	test	ward_and_allport	3,2,0,1,0,0,0,0,0	82.0	5.0	1.169	0,0,0,0,0,0,1,2,3	to_hand	s581
141.449	0.651	0	PA_without_intermediate	3,2,0,1,0,0,0,0,0	test	ward_and_allport	3,2,0,1,0,0,0,0,0	71.0	5.0	0.651	0,0,0,0,0,0,1,2,3	to_board	s581
142.107	1.0	0	PA_without_intermediate	n/a	test	ward_and_allport	n/a	-1.0	5.0	n/a	n/a	feedback	s581
143.107	1.272	0	PA_without_intermediate	n/a	test	ward_and_allport	n/a	-1.0	5.0	n/a	n/a	ITI	s581
144.382	4.545	1	PA_with_intermediate	0,0,0,1,2,0,0,0,0	test	ward_and_allport	0,0,0,1,3,0,2,0,0	71.0	6.0	4.545	0,0,0,1,2,3,0,0,0	to_hand	s581
148.929	0.71	0	PA_with_intermediate	3,0,0,1,2,0,0,0,0	test	ward_and_allport	0,0,0,1,3,0,2,0,0	89.0	6.0	0.71	0,0,0,1,2,3,0,0,0	to_board	s581
149.643	1.053	0	PA_with_intermediate	3,0,0,1,0,0,0,0,0	test	ward_and_allport	0,0,0,1,3,0,2,0,0	71.0	6.0	1.053	0,0,0,1,2,3,0,0,0	to_hand	s581
150.697	0.961	0	PA_with_intermediate	3,0,0,1,0,0,2,0,0	test	ward_and_allport	0,0,0,1,3,0,2,0,0	82.0	6.0	0.961	0,0,0,1,2,3,0,0,0	to_board	s581
151.662	0.938	0	PA_with_intermediate	0,0,0,1,0,0,2,0,0	test	ward_and_allport	0,0,0,1,3,0,2,0,0	89.0	6.0	0.938	0,0,0,1,2,3,0,0,0	to_hand	s581
152.601	0.683	0	PA_with_intermediate	0,0,0,1,3,0,2,0,0	test	ward_and_allport	0,0,0,1,3,0,2,0,0	71.0	6.0	0.683	0,0,0,1,2,3,0,0,0	to_board	s581
153.288	1.0	0	PA_with_intermediate	n/a	test	ward_and_allport	n/a	-1.0	6.0	n/a	n/a	feedback	s581
154.288	3.04	0	PA_with_intermediate	n/a	test	ward_and_allport	n/a	-1.0	6.0	n/a	n/a	ITI	s581
157.331	6.309	1	PA_with_intermediate	0,0,0,0,0,0,1,2,0	test	ward_and_allport	0,0,0,2,3,0,1,0,0	82.0	7.0	6.309	0,0,0,0,0,0,1,2,3	to_hand	s581
163.642	0.826	0	PA_with_intermediate	3,0,0,0,0,0,1,2,0	test	ward_and_allport	0,0,0,2,3,0,1,0,0	89.0	7.0	0.826	0,0,0,0,0,0,1,2,3	to_board	s581
164.47	1.068	0	PA_with_intermediate	3,0,0,0,0,0,1,0,0	test	ward_and_allport	0,0,0,2,3,0,1,0,0	82.0	7.0	1.068	0,0,0,0,0,0,1,2,3	to_hand	s581
165.539	0.725	0	PA_with_intermediate	3,0,0,2,0,0,1,0,0	test	ward_and_allport	0,0,0,2,3,0,1,0,0	71.0	7.0	0.725	0,0,0,0,0,0,1,2,3	to_board	s581
166.268	0.666	0	PA_with_intermediate	0,0,0,2,0,0,1,0,0	test	ward_and_allport	0,0,0,2,3,0,1,0,0	89.0	7.0	0.666	0,0,0,0,0,0,1,2,3	to_hand	s581
166.936	0.661	0	PA_with_intermediate	0,0,0,2,3,0,1,0,0	test	ward_and_allport	0,0,0,2,3,0,1,0,0	71.0	7.0	0.661	0,0,0,0,0,0,1,2,3	to_board	s581
167.601	1.0	0	PA_with_intermediate	n/a	test	ward_and_allport	n/a	-1.0	7.0	n/a	n/a	feedback	s581
168.601	1.272	0	PA_with_intermediate	n/a	test	ward_and_allport	n/a	-1.0	7.0	n/a	n/a	ITI	s581
169.877	5.307	1	PA_with_intermediate	1,2,0,0,0,0,0,0,0	test	ward_and_allport	1,0,0,2,3,0,0,0,0	89.0	8.0	5.307	1,2,3,0,0,0,0,0,0	to_hand	s581
175.185	0.918	0	PA_with_intermediate	1,2,0,0,0,0,3,0,0	test	ward_and_allport	1,0,0,2,3,0,0,0,0	82.0	8.0	0.918	1,2,3,0,0,0,0,0,0	to_board	s581
176.108	2.102	0	PA_with_intermediate	1,0,0,0,0,0,3,0,0	test	ward_and_allport	1,0,0,2,3,0,0,0,0	89.0	8.0	2.102	1,2,3,0,0,0,0,0,0	to_hand	s581
178.211	0.59	0	PA_with_intermediate	1,0,0,2,0,0,3,0,0	test	ward_and_allport	1,0,0,2,3,0,0,0,0	71.0	8.0	0.59	1,2,3,0,0,0,0,0,0	to_board	s581
178.805	0.861	0	PA_with_intermediate	1,0,0,2,0,0,0,0,0	test	ward_and_allport	1,0,0,2,3,0,0,0,0	82.0	8.0	0.861	1,2,3,0,0,0,0,0,0	to_hand	s581
179.668	0.797	0	PA_with_intermediate	1,0,0,2,3,0,0,0,0	test	ward_and_allport	1,0,0,2,3,0,0,0,0	71.0	8.0	0.797	1,2,3,0,0,0,0,0,0	to_board	s581
180.473	1.0	0	PA_with_intermediate	n/a	test	ward_and_allport	n/a	-1.0	8.0	n/a	n/a	feedback	s581
181.473	1.136	0	PA_with_intermediate	n/a	test	ward_and_allport	n/a	-1.0	8.0	n/a	n/a	ITI	s581
182.612	6.859	1	PA_with_intermediate	0,0,0,1,2,0,0,0,0	test	ward_and_allport	0,0,0,1,0,0,2,3,0	71.0	9.0	6.859	0,0,0,1,2,3,0,0,0	to_hand	s581
189.473	0.954	0	PA_with_intermediate	3,0,0,1,2,0,0,0,0	test	ward_and_allport	0,0,0,1,0,0,2,3,0	89.0	9.0	0.954	0,0,0,1,2,3,0,0,0	to_board	s581
190.432	1.274	0	PA_with_intermediate	3,0,0,1,0,0,0,0,0	test	ward_and_allport	0,0,0,1,0,0,2,3,0	71.0	9.0	1.274	0,0,0,1,2,3,0,0,0	to_hand	s581
191.707	0.718	0	PA_with_intermediate	3,0,0,1,0,0,2,0,0	test	ward_and_allport	0,0,0,1,0,0,2,3,0	82.0	9.0	0.718	0,0,0,1,2,3,0,0,0	to_board	s581
192.429	0.656	0	PA_with_intermediate	0,0,0,1,0,0,2,0,0	test	ward_and_allport	0,0,0,1,0,0,2,3,0	89.0	9.0	0.656	0,0,0,1,2,3,0,0,0	to_hand	s581
193.087	0.805	0	PA_with_intermediate	0,0,0,1,0,0,2,3,0	test	ward_and_allport	0,0,0,1,0,0,2,3,0	82.0	9.0	0.805	0,0,0,1,2,3,0,0,0	to_board	s581
193.9	1.0	0	PA_with_intermediate	n/a	test	ward_and_allport	n/a	-1.0	9.0	n/a	n/a	feedback	s581
194.9	1.0	0	PA_with_intermediate	n/a	test	ward_and_allport	n/a	-1.0	9.0	n/a	n/a	ITI	s581
195.906	7.041	1	PA_with_intermediate	1,2,0,0,0,0,0,0,0	test	ward_and_allport	1,3,0,2,0,0,0,0,0	89.0	10.0	7.041	1,2,3,0,0,0,0,0,0	to_hand	s581
202.949	1.028	0	PA_with_intermediate	1,2,0,0,0,0,3,0,0	test	ward_and_allport	1,3,0,2,0,0,0,0,0	82.0	10.0	1.028	1,2,3,0,0,0,0,0,0	to_board	s581
203.981	1.017	0	PA_with_intermediate	1,0,0,0,0,0,3,0,0	test	ward_and_allport	1,3,0,2,0,0,0,0,0	89.0	10.0	1.017	1,2,3,0,0,0,0,0,0	to_hand	s581
204.999	0.771	0	PA_with_intermediate	1,0,0,2,0,0,3,0,0	test	ward_and_allport	1,3,0,2,0,0,0,0,0	71.0	10.0	0.771	1,2,3,0,0,0,0,0,0	to_board	s581
205.775	1.08	0	PA_with_intermediate	1,0,0,2,0,0,0,0,0	test	ward_and_allport	1,3,0,2,0,0,0,0,0	82.0	10.0	1.08	1,2,3,0,0,0,0,0,0	to_hand	s581
206.856	0.916	0	PA_with_intermediate	1,3,0,2,0,0,0,0,0	test	ward_and_allport	1,3,0,2,0,0,0,0,0	89.0	10.0	0.916	1,2,3,0,0,0,0,0,0	to_board	s581
207.778	1.0	0	PA_with_intermediate	n/a	test	ward_and_allport	n/a	-1.0	10.0	n/a	n/a	feedback	s581
208.778	1.0	0	PA_with_intermediate	n/a	test	ward_and_allport	n/a	-1.0	10.0	n/a	n/a	ITI	s581
209.783	3.136	1	PA_without_intermediate	0,0,0,0,0,0,1,2,0	test	ward_and_allport	3,1,0,2,0,0,0,0,0	82.0	11.0	3.136	0,0,0,0,0,0,1,2,3	to_hand	s581
212.921	0.697	0	PA_without_intermediate	3,0,0,0,0,0,1,2,0	test	ward_and_allport	3,1,0,2,0,0,0,0,0	89.0	11.0	0.697	0,0,0,0,0,0,1,2,3	to_board	s581
213.622	1.7	0	PA_without_intermediate	3,0,0,0,0,0,1,0,0	test	ward_and_allport	3,1,0,2,0,0,0,0,0	82.0	11.0	1.7	0,0,0,0,0,0,1,2,3	to_hand	s581
215.324	0.797	0	PA_without_intermediate	3,0,0,2,0,0,1,0,0	test	ward_and_allport	3,1,0,2,0,0,0,0,0	71.0	11.0	0.797	0,0,0,0,0,0,1,2,3	to_board	s581
216.126	0.969	0	PA_without_intermediate	3,0,0,2,0,0,0,0,0	test	ward_and_allport	3,1,0,2,0,0,0,0,0	82.0	11.0	0.969	0,0,0,0,0,0,1,2,3	to_hand	s581
217.097	0.71	0	PA_without_intermediate	3,1,0,2,0,0,0,0,0	test	ward_and_allport	3,1,0,2,0,0,0,0,0	89.0	11.0	0.71	0,0,0,0,0,0,1,2,3	to_board	s581
217.813	1.0	0	PA_without_intermediate	n/a	test	ward_and_allport	n/a	-1.0	11.0	n/a	n/a	feedback	s581
218.813	1.408	0	PA_without_intermediate	n/a	test	ward_and_allport	n/a	-1.0	11.0	n/a	n/a	ITI	s581
220.226	2.741	1	PA_with_intermediate	0,0,0,0,0,0,1,2,0	test	ward_and_allport	2,0,0,0,0,0,1,3,0	82.0	12.0	2.741	0,0,0,0,0,0,1,2,3	to_hand	s581
222.969	7.877	0	PA_with_intermediate	0,0,0,3,0,0,1,2,0	test	ward_and_allport	2,0,0,0,0,0,1,3,0	71.0	12.0	7.877	0,0,0,0,0,0,1,2,3	to_board	s581
230.852	1.59	0	PA_with_intermediate	0,0,0,3,0,0,1,0,0	test	ward_and_allport	2,0,0,0,0,0,1,3,0	82.0	12.0	1.59	0,0,0,0,0,0,1,2,3	to_hand	s581
232.443	1.095	0	PA_with_intermediate	2,0,0,3,0,0,1,0,0	test	ward_and_allport	2,0,0,0,0,0,1,3,0	89.0	12.0	1.095	0,0,0,0,0,0,1,2,3	to_board	s581
233.543	1.084	0	PA_with_intermediate	2,0,0,0,0,0,1,0,0	test	ward_and_allport	2,0,0,0,0,0,1,3,0	71.0	12.0	1.084	0,0,0,0,0,0,1,2,3	to_hand	s581
234.628	0.784	0	PA_with_intermediate	2,0,0,0,0,0,1,3,0	test	ward_and_allport	2,0,0,0,0,0,1,3,0	82.0	12.0	0.784	0,0,0,0,0,0,1,2,3	to_board	s581
235.419	1.0	0	PA_with_intermediate	n/a	test	ward_and_allport	n/a	-1.0	12.0	n/a	n/a	feedback	s581
236.419	2.768	0	PA_with_intermediate	n/a	test	ward_and_allport	n/a	-1.0	12.0	n/a	n/a	ITI	s581
239.193	4.199	1	PA_with_intermediate	1,2,0,0,0,0,0,0,0	test	ward_and_allport	1,0,0,2,3,0,0,0,0	89.0	13.0	4.199	1,2,3,0,0,0,0,0,0	to_hand	s581
243.393	1.198	0	PA_with_intermediate	1,2,0,0,0,0,3,0,0	test	ward_and_allport	1,0,0,2,3,0,0,0,0	82.0	13.0	1.198	1,2,3,0,0,0,0,0,0	to_board	s581
244.596	1.219	0	PA_with_intermediate	1,0,0,0,0,0,3,0,0	test	ward_and_allport	1,0,0,2,3,0,0,0,0	89.0	13.0	1.219	1,2,3,0,0,0,0,0,0	to_hand	s581
245.817	0.688	0	PA_with_intermediate	1,0,0,2,0,0,3,0,0	test	ward_and_allport	1,0,0,2,3,0,0,0,0	71.0	13.0	0.688	1,2,3,0,0,0,0,0,0	to_board	s581
246.509	0.844	0	PA_with_intermediate	1,0,0,2,0,0,0,0,0	test	ward_and_allport	1,0,0,2,3,0,0,0,0	82.0	13.0	0.844	1,2,3,0,0,0,0,0,0	to_hand	s581
247.355	0.967	0	PA_with_intermediate	1,0,0,2,3,0,0,0,0	test	ward_and_allport	1,0,0,2,3,0,0,0,0	71.0	13.0	0.967	1,2,3,0,0,0,0,0,0	to_board	s581
248.331	1.0	0	PA_with_intermediate	n/a	test	ward_and_allport	n/a	-1.0	13.0	n/a	n/a	feedback	s581
249.331	1.68	0	PA_with_intermediate	n/a	test	ward_and_allport	n/a	-1.0	13.0	n/a	n/a	ITI	s581
251.016	3.18	1	PA_without_intermediate	1,2,0,0,0,0,0,0,0	test	ward_and_allport	0,0,0,1,0,0,3,2,0	89.0	14.0	3.18	1,2,3,0,0,0,0,0,0	to_hand	s581
254.196	1.196	0	PA_without_intermediate	1,2,0,0,0,0,3,0,0	test	ward_and_allport	0,0,0,1,0,0,3,2,0	82.0	14.0	1.196	1,2,3,0,0,0,0,0,0	to_board	s581
255.397	1.079	0	PA_without_intermediate	1,0,0,0,0,0,3,0,0	test	ward_and_allport	0,0,0,1,0,0,3,2,0	89.0	14.0	1.079	1,2,3,0,0,0,0,0,0	to_hand	s581
256.478	0.769	0	PA_without_intermediate	1,0,0,0,0,0,3,2,0	test	ward_and_allport	0,0,0,1,0,0,3,2,0	82.0	14.0	0.769	1,2,3,0,0,0,0,0,0	to_board	s581
257.251	0.856	0	PA_without_intermediate	0,0,0,0,0,0,3,2,0	test	ward_and_allport	0,0,0,1,0,0,3,2,0	89.0	14.0	0.856	1,2,3,0,0,0,0,0,0	to_hand	s581
258.108	0.895	0	PA_without_intermediate	0,0,0,1,0,0,3,2,0	test	ward_and_allport	0,0,0,1,0,0,3,2,0	71.0	14.0	0.895	1,2,3,0,0,0,0,0,0	to_board	s581
259.009	1.0	0	PA_without_intermediate	n/a	test	ward_and_allport	n/a	-1.0	14.0	n/a	n/a	feedback	s581
260.009	2.224	0	PA_without_intermediate	n/a	test	ward_and_allport	n/a	-1.0	14.0	n/a	n/a	ITI	s581
267.242	4.843	1	PA_without_intermediate	0,0,0,1,2,0,0,0,0	test	ward_and_allport	3,1,0,0,0,0,2,0,0	71.0	15.0	4.843	0,0,0,1,2,3,0,0,0	to_hand	s581
272.087	1.33	0	PA_without_intermediate	3,0,0,1,2,0,0,0,0	test	ward_and_allport	3,1,0,0,0,0,2,0,0	89.0	15.0	1.33	0,0,0,1,2,3,0,0,0	to_board	s581
273.423	0.994	0	PA_without_intermediate	3,0,0,1,0,0,0,0,0	test	ward_and_allport	3,1,0,0,0,0,2,0,0	71.0	15.0	0.994	0,0,0,1,2,3,0,0,0	to_hand	s581
274.419	1.072	0	PA_without_intermediate	3,0,0,1,0,0,2,0,0	test	ward_and_allport	3,1,0,0,0,0,2,0,0	82.0	15.0	1.072	0,0,0,1,2,3,0,0,0	to_board	s581
275.497	1.024	0	PA_without_intermediate	3,0,0,0,0,0,2,0,0	test	ward_and_allport	3,1,0,0,0,0,2,0,0	71.0	15.0	1.024	0,0,0,1,2,3,0,0,0	to_hand	s581
276.522	0.927	0	PA_without_intermediate	3,1,0,0,0,0,2,0,0	test	ward_and_allport	3,1,0,0,0,0,2,0,0	89.0	15.0	0.927	0,0,0,1,2,3,0,0,0	to_board	s581
277.461	1.0	0	PA_without_intermediate	n/a	test	ward_and_allport	n/a	-1.0	15.0	n/a	n/a	feedback	s581
278.461	2.36	0	PA_without_intermediate	n/a	test	ward_and_allport	n/a	-1.0	15.0	n/a	n/a	ITI	s581
280.825	4.192	1	PA_without_intermediate	0,0,0,1,2,0,0,0,0	test	ward_and_allport	3,1,0,0,0,0,2,0,0	71.0	16.0	4.192	0,0,0,1,2,3,0,0,0	to_hand	s581
285.019	0.883	0	PA_without_intermediate	3,0,0,1,2,0,0,0,0	test	ward_and_allport	3,1,0,0,0,0,2,0,0	89.0	16.0	0.883	0,0,0,1,2,3,0,0,0	to_board	s581
285.908	0.985	0	PA_without_intermediate	3,0,0,1,0,0,0,0,0	test	ward_and_allport	3,1,0,0,0,0,2,0,0	71.0	16.0	0.985	0,0,0,1,2,3,0,0,0	to_hand	s581
286.893	0.842	0	PA_without_intermediate	3,0,0,1,0,0,2,0,0	test	ward_and_allport	3,1,0,0,0,0,2,0,0	82.0	16.0	0.842	0,0,0,1,2,3,0,0,0	to_board	s581
287.741	0.823	0	PA_without_intermediate	3,0,0,0,0,0,2,0,0	test	ward_and_allport	3,1,0,0,0,0,2,0,0	71.0	16.0	0.823	0,0,0,1,2,3,0,0,0	to_hand	s581
288.565	0.678	0	PA_without_intermediate	3,1,0,0,0,0,2,0,0	test	ward_and_allport	3,1,0,0,0,0,2,0,0	89.0	16.0	0.678	0,0,0,1,2,3,0,0,0	to_board	s581
289.253	1.0	0	PA_without_intermediate	n/a	test	ward_and_allport	n/a	-1.0	16.0	n/a	n/a	feedback	s581
290.253	1.0	0	PA_without_intermediate	n/a	test	ward_and_allport	n/a	-1.0	16.0	n/a	n/a	ITI	s581
291.259	3.339	1	PA_without_intermediate	0,0,0,1,2,0,0,0,0	test	ward_and_allport	3,2,0,0,0,0,1,0,0	71.0	17.0	3.339	0,0,0,1,2,3,0,0,0	to_hand	s581
294.599	0.852	0	PA_without_intermediate	3,0,0,1,2,0,0,0,0	test	ward_and_allport	3,2,0,0,0,0,1,0,0	89.0	17.0	0.852	0,0,0,1,2,3,0,0,0	to_board	s581
295.458	0.786	0	PA_without_intermediate	3,0,0,1,0,0,0,0,0	test	ward_and_allport	3,2,0,0,0,0,1,0,0	71.0	17.0	0.786	0,0,0,1,2,3,0,0,0	to_hand	s581
296.245	0.682	0	PA_without_intermediate	3,2,0,1,0,0,0,0,0	test	ward_and_allport	3,2,0,0,0,0,1,0,0	89.0	17.0	0.682	0,0,0,1,2,3,0,0,0	to_board	s581
296.933	0.68	0	PA_without_intermediate	3,2,0,0,0,0,0,0,0	test	ward_and_allport	3,2,0,0,0,0,1,0,0	71.0	17.0	0.68	0,0,0,1,2,3,0,0,0	to_hand	s581
297.614	0.608	0	PA_without_intermediate	3,2,0,0,0,0,1,0,0	test	ward_and_allport	3,2,0,0,0,0,1,0,0	82.0	17.0	0.608	0,0,0,1,2,3,0,0,0	to_board	s581
298.232	1.0	0	PA_without_intermediate	n/a	test	ward_and_allport	n/a	-1.0	17.0	n/a	n/a	feedback	s581
299.232	1.408	0	PA_without_intermediate	n/a	test	ward_and_allport	n/a	-1.0	17.0	n/a	n/a	ITI	s581
300.646	5.064	1	PA_with_intermediate	0,0,0,1,2,0,0,0,0	test	ward_and_allport	0,0,0,1,3,0,2,0,0	71.0	18.0	5.064	0,0,0,1,2,3,0,0,0	to_hand	s581
305.711	0.778	0	PA_with_intermediate	3,0,0,1,2,0,0,0,0	test	ward_and_allport	0,0,0,1,3,0,2,0,0	89.0	18.0	0.778	0,0,0,1,2,3,0,0,0	to_board	s581
306.496	0.788	0	PA_with_intermediate	3,0,0,1,0,0,0,0,0	test	ward_and_allport	0,0,0,1,3,0,2,0,0	71.0	18.0	0.788	0,0,0,1,2,3,0,0,0	to_hand	s581
307.286	0.872	0	PA_with_intermediate	3,0,0,1,0,0,2,0,0	test	ward_and_allport	0,0,0,1,3,0,2,0,0	82.0	18.0	0.872	0,0,0,1,2,3,0,0,0	to_board	s581
308.163	0.831	0	PA_with_intermediate	0,0,0,1,0,0,2,0,0	test	ward_and_allport	0,0,0,1,3,0,2,0,0	89.0	18.0	0.831	0,0,0,1,2,3,0,0,0	to_hand	s581
308.995	0.661	0	PA_with_intermediate	0,0,0,1,3,0,2,0,0	test	ward_and_allport	0,0,0,1,3,0,2,0,0	71.0	18.0	0.661	0,0,0,1,2,3,0,0,0	to_board	s581
309.667	1.0	0	PA_with_intermediate	n/a	test	ward_and_allport	n/a	-1.0	18.0	n/a	n/a	feedback	s581
310.667	1.136	0	PA_with_intermediate	n/a	test	ward_and_allport	n/a	-1.0	18.0	n/a	n/a	ITI	s581
311.808	4.986	1	PA_without_intermediate	1,2,0,0,0,0,0,0,0	test	ward_and_allport	0,0,0,3,1,0,2,0,0	89.0	19.0	4.986	1,2,3,0,0,0,0,0,0	to_hand	s581
316.796	1.791	0	PA_without_intermediate	1,2,0,3,0,0,0,0,0	test	ward_and_allport	0,0,0,3,1,0,2,0,0	71.0	19.0	1.791	1,2,3,0,0,0,0,0,0	to_board	s581
318.593	1.128	0	PA_without_intermediate	1,2,0,0,0,0,0,0,0	test	ward_and_allport	0,0,0,3,1,0,2,0,0	71.0	19.0	1.128	1,2,3,0,0,0,0,0,0	to_hand	s581
319.722	0.786	0	PA_without_intermediate	1,2,0,3,0,0,0,0,0	test	ward_and_allport	0,0,0,3,1,0,2,0,0	71.0	19.0	0.786	1,2,3,0,0,0,0,0,0	to_board	s581
320.513	1.047	0	PA_without_intermediate	1,0,0,3,0,0,0,0,0	test	ward_and_allport	0,0,0,3,1,0,2,0,0	89.0	19.0	1.047	1,2,3,0,0,0,0,0,0	to_hand	s581
321.561	1.097	0	PA_without_intermediate	1,0,0,3,0,0,2,0,0	test	ward_and_allport	0,0,0,3,1,0,2,0,0	82.0	19.0	1.097	1,2,3,0,0,0,0,0,0	to_board	s581
322.664	1.271	0	PA_without_intermediate	0,0,0,3,0,0,2,0,0	test	ward_and_allport	0,0,0,3,1,0,2,0,0	89.0	19.0	1.271	1,2,3,0,0,0,0,0,0	to_hand	s581
323.936	0.802	0	PA_without_intermediate	0,0,0,3,1,0,2,0,0	test	ward_and_allport	0,0,0,3,1,0,2,0,0	71.0	19.0	0.802	1,2,3,0,0,0,0,0,0	to_board	s581
324.746	1.0	0	PA_without_intermediate	n/a	test	ward_and_allport	n/a	-1.0	19.0	n/a	n/a	feedback	s581
325.746	4.128	0	PA_without_intermediate	n/a	test	ward_and_allport	n/a	-1.0	19.0	n/a	n/a	ITI	s581
329.88	4.343	1	PA_without_intermediate	1,2,0,0,0,0,0,0,0	test	ward_and_allport	0,0,0,2,0,0,3,1,0	89.0	20.0	4.343	1,2,3,0,0,0,0,0,0	to_hand	s581
334.225	1.003	0	PA_without_intermediate	1,2,0,0,0,0,3,0,0	test	ward_and_allport	0,0,0,2,0,0,3,1,0	82.0	20.0	1.003	1,2,3,0,0,0,0,0,0	to_board	s581
335.233	1.031	0	PA_without_intermediate	1,0,0,0,0,0,3,0,0	test	ward_and_allport	0,0,0,2,0,0,3,1,0	89.0	20.0	1.031	1,2,3,0,0,0,0,0,0	to_hand	s581
336.265	0.851	0	PA_without_intermediate	1,0,0,2,0,0,3,0,0	test	ward_and_allport	0,0,0,2,0,0,3,1,0	71.0	20.0	0.851	1,2,3,0,0,0,0,0,0	to_board	s581
337.122	0.974	0	PA_without_intermediate	0,0,0,2,0,0,3,0,0	test	ward_and_allport	0,0,0,2,0,0,3,1,0	89.0	20.0	0.974	1,2,3,0,0,0,0,0,0	to_hand	s581
338.097	0.716	0	PA_without_intermediate	0,0,0,2,0,0,3,1,0	test	ward_and_allport	0,0,0,2,0,0,3,1,0	82.0	20.0	0.716	1,2,3,0,0,0,0,0,0	to_board	s581
338.825	1.0	0	PA_without_intermediate	n/a	test	ward_and_allport	n/a	-1.0	20.0	n/a	n/a	feedback	s581
339.825	1.136	0	PA_without_intermediate	n/a	test	ward_and_allport	n/a	-1.0	20.0	n/a	n/a	ITI	s581
340.967	3.229	1	PA_without_intermediate	1,2,0,0,0,0,0,0,0	test	ward_and_allport	0,0,0,3,1,0,2,0,0	89.0	21.0	3.229	1,2,3,0,0,0,0,0,0	to_hand	s581
344.197	1.017	0	PA_without_intermediate	1,2,0,3,0,0,0,0,0	test	ward_and_allport	0,0,0,3,1,0,2,0,0	71.0	21.0	1.017	1,2,3,0,0,0,0,0,0	to_board	s581
345.221	1.024	0	PA_without_intermediate	1,0,0,3,0,0,0,0,0	test	ward_and_allport	0,0,0,3,1,0,2,0,0	89.0	21.0	1.024	1,2,3,0,0,0,0,0,0	to_hand	s581
346.247	0.819	0	PA_without_intermediate	1,0,0,3,0,0,2,0,0	test	ward_and_allport	0,0,0,3,1,0,2,0,0	82.0	21.0	0.819	1,2,3,0,0,0,0,0,0	to_board	s581
347.073	0.945	0	PA_without_intermediate	0,0,0,3,0,0,2,0,0	test	ward_and_allport	0,0,0,3,1,0,2,0,0	89.0	21.0	0.945	1,2,3,0,0,0,0,0,0	to_hand	s581
348.02	0.745	0	PA_without_intermediate	0,0,0,3,1,0,2,0,0	test	ward_and_allport	0,0,0,3,1,0,2,0,0	71.0	21.0	0.745	1,2,3,0,0,0,0,0,0	to_board	s581
348.775	1.0	0	PA_without_intermediate	n/a	test	ward_and_allport	n/a	-1.0	21.0	n/a	n/a	feedback	s581
349.775	4.264	0	PA_without_intermediate	n/a	test	ward_and_allport	n/a	-1.0	21.0	n/a	n/a	ITI	s581
354.047	4.577	1	PA_with_intermediate	1,2,0,0,0,0,0,0,0	test	ward_and_allport	1,0,0,0,0,0,2,3,0	89.0	22.0	4.577	1,2,3,0,0,0,0,0,0	to_hand	s581
358.626	0.938	0	PA_with_intermediate	1,2,0,3,0,0,0,0,0	test	ward_and_allport	1,0,0,0,0,0,2,3,0	71.0	22.0	0.938	1,2,3,0,0,0,0,0,0	to_board	s581
359.572	0.93	0	PA_with_intermediate	1,0,0,3,0,0,0,0,0	test	ward_and_allport	1,0,0,0,0,0,2,3,0	89.0	22.0	0.93	1,2,3,0,0,0,0,0,0	to_hand	s581
360.503	0.801	0	PA_with_intermediate	1,0,0,3,0,0,2,0,0	test	ward_and_allport	1,0,0,0,0,0,2,3,0	82.0	22.0	0.801	1,2,3,0,0,0,0,0,0	to_board	s581
361.312	0.702	0	PA_with_intermediate	1,0,0,0,0,0,2,0,0	test	ward_and_allport	1,0,0,0,0,0,2,3,0	71.0	22.0	0.702	1,2,3,0,0,0,0,0,0	to_hand	s581
362.015	0.69	0	PA_with_intermediate	1,0,0,0,0,0,2,3,0	test	ward_and_allport	1,0,0,0,0,0,2,3,0	82.0	22.0	0.69	1,2,3,0,0,0,0,0,0	to_board	s581
362.714	1.0	0	PA_with_intermediate	n/a	test	ward_and_allport	n/a	-1.0	22.0	n/a	n/a	feedback	s581
363.714	3.04	0	PA_with_intermediate	n/a	test	ward_and_allport	n/a	-1.0	22.0	n/a	n/a	ITI	s581
366.761	4.273	1	PA_with_intermediate	1,2,0,0,0,0,0,0,0	test	ward_and_allport	1,0,0,0,0,0,2,3,0	89.0	23.0	4.273	1,2,3,0,0,0,0,0,0	to_hand	s581
371.035	0.702	0	PA_with_intermediate	1,2,0,3,0,0,0,0,0	test	ward_and_allport	1,0,0,0,0,0,2,3,0	71.0	23.0	0.702	1,2,3,0,0,0,0,0,0	to_board	s581
371.744	0.87	0	PA_with_intermediate	1,0,0,3,0,0,0,0,0	test	ward_and_allport	1,0,0,0,0,0,2,3,0	89.0	23.0	0.87	1,2,3,0,0,0,0,0,0	to_hand	s581
372.616	0.775	0	PA_with_intermediate	1,0,0,3,0,0,2,0,0	test	ward_and_allport	1,0,0,0,0,0,2,3,0	82.0	23.0	0.775	1,2,3,0,0,0,0,0,0	to_board	s581
373.399	0.816	0	PA_with_intermediate	1,0,0,0,0,0,2,0,0	test	ward_and_allport	1,0,0,0,0,0,2,3,0	71.0	23.0	0.816	1,2,3,0,0,0,0,0,0	to_hand	s581
374.216	0.78	0	PA_with_intermediate	1,0,0,0,0,0,2,3,0	test	ward_and_allport	1,0,0,0,0,0,2,3,0	82.0	23.0	0.78	1,2,3,0,0,0,0,0,0	to_board	s581
375.006	1.0	0	PA_with_intermediate	n/a	test	ward_and_allport	n/a	-1.0	23.0	n/a	n/a	feedback	s581
376.006	1.136	0	PA_with_intermediate	n/a	test	ward_and_allport	n/a	-1.0	23.0	n/a	n/a	ITI	s581
377.15	5.98	1	PA_with_intermediate	0,0,0,0,0,0,1,2,0	test	ward_and_allport	2,3,0,0,0,0,1,0,0	82.0	24.0	5.98	0,0,0,0,0,0,1,2,3	to_hand	s581
383.131	1.79	0	PA_with_intermediate	0,0,0,3,0,0,1,2,0	test	ward_and_allport	2,3,0,0,0,0,1,0,0	71.0	24.0	1.79	0,0,0,0,0,0,1,2,3	to_board	s581
384.929	0.891	0	PA_with_intermediate	0,0,0,3,0,0,1,0,0	test	ward_and_allport	2,3,0,0,0,0,1,0,0	82.0	24.0	0.891	0,0,0,0,0,0,1,2,3	to_hand	s581
385.821	0.838	0	PA_with_intermediate	2,0,0,3,0,0,1,0,0	test	ward_and_allport	2,3,0,0,0,0,1,0,0	89.0	24.0	0.838	0,0,0,0,0,0,1,2,3	to_board	s581
386.667	0.884	0	PA_with_intermediate	2,0,0,0,0,0,1,0,0	test	ward_and_allport	2,3,0,0,0,0,1,0,0	71.0	24.0	0.884	0,0,0,0,0,0,1,2,3	to_hand	s581
387.552	0.79	0	PA_with_intermediate	2,3,0,0,0,0,1,0,0	test	ward_and_allport	2,3,0,0,0,0,1,0,0	89.0	24.0	0.79	0,0,0,0,0,0,1,2,3	to_board	s581
388.352	1.0	0	PA_with_intermediate	n/a	test	ward_and_allport	n/a	-1.0	24.0	n/a	n/a	feedback	s581
389.352	1.408	0	PA_with_intermediate	n/a	test	ward_and_allport	n/a	-1.0	24.0	n/a	n/a	ITI	s581
390.768	4.445	1	PA_without_intermediate	1,2,0,0,0,0,0,0,0	test	ward_and_allport	0,0,0,2,0,0,3,1,0	89.0	25.0	4.445	1,2,3,0,0,0,0,0,0	to_hand	s581
395.215	0.87	0	PA_without_intermediate	1,2,0,0,0,0,3,0,0	test	ward_and_allport	0,0,0,2,0,0,3,1,0	82.0	25.0	0.87	1,2,3,0,0,0,0,0,0	to_board	s581
396.092	1.714	0	PA_without_intermediate	1,0,0,0,0,0,3,0,0	test	ward_and_allport	0,0,0,2,0,0,3,1,0	89.0	25.0	1.714	1,2,3,0,0,0,0,0,0	to_hand	s581
397.807	0.888	0	PA_without_intermediate	1,0,0,2,0,0,3,0,0	test	ward_and_allport	0,0,0,2,0,0,3,1,0	71.0	25.0	0.888	1,2,3,0,0,0,0,0,0	to_board	s581
398.703	0.88	0	PA_without_intermediate	0,0,0,2,0,0,3,0,0	test	ward_and_allport	0,0,0,2,0,0,3,1,0	89.0	25.0	0.88	1,2,3,0,0,0,0,0,0	to_hand	s581
399.584	0.64	0	PA_without_intermediate	0,0,0,2,0,0,3,1,0	test	ward_and_allport	0,0,0,2,0,0,3,1,0	82.0	25.0	0.64	1,2,3,0,0,0,0,0,0	to_board	s581
400.237	1.0	0	PA_without_intermediate	n/a	test	ward_and_allport	n/a	-1.0	25.0	n/a	n/a	feedback	s581
401.237	1.68	0	PA_without_intermediate	n/a	test	ward_and_allport	n/a	-1.0	25.0	n/a	n/a	ITI	s581
402.925	6.603	1	PA_with_intermediate	0,0,0,1,2,0,0,0,0	test	ward_and_allport	2,3,0,1,0,0,0,0,0	71.0	26.0	6.603	0,0,0,1,2,3,0,0,0	to_hand	s581
409.529	0.594	0	PA_with_intermediate	0,0,0,1,2,0,3,0,0	test	ward_and_allport	2,3,0,1,0,0,0,0,0	82.0	26.0	0.594	0,0,0,1,2,3,0,0,0	to_board	s581
410.131	1.266	0	PA_with_intermediate	0,0,0,1,0,0,3,0,0	test	ward_and_allport	2,3,0,1,0,0,0,0,0	71.0	26.0	1.266	0,0,0,1,2,3,0,0,0	to_hand	s581
411.398	0.69	0	PA_with_intermediate	2,0,0,1,0,0,3,0,0	test	ward_and_allport	2,3,0,1,0,0,0,0,0	89.0	26.0	0.69	0,0,0,1,2,3,0,0,0	to_board	s581
412.097	0.77	0	PA_with_intermediate	2,0,0,1,0,0,0,0,0	test	ward_and_allport	2,3,0,1,0,0,0,0,0	82.0	26.0	0.77	0,0,0,1,2,3,0,0,0	to_hand	s581
412.868	0.596	0	PA_with_intermediate	2,3,0,1,0,0,0,0,0	test	ward_and_allport	2,3,0,1,0,0,0,0,0	89.0	26.0	0.596	0,0,0,1,2,3,0,0,0	to_board	s581
413.474	1.0	0	PA_with_intermediate	n/a	test	ward_and_allport	n/a	-1.0	26.0	n/a	n/a	feedback	s581
414.474	3.72	0	PA_with_intermediate	n/a	test	ward_and_allport	n/a	-1.0	26.0	n/a	n/a	ITI	s581
418.203	3.451	1	PA_without_intermediate	1,2,0,0,0,0,0,0,0	test	ward_and_allport	0,0,0,3,2,0,1,0,0	89.0	27.0	3.451	1,2,3,0,0,0,0,0,0	to_hand	s581
421.655	0.953	0	PA_without_intermediate	1,2,0,3,0,0,0,0,0	test	ward_and_allport	0,0,0,3,2,0,1,0,0	71.0	27.0	0.953	1,2,3,0,0,0,0,0,0	to_board	s581
422.616	1.596	0	PA_without_intermediate	1,0,0,3,0,0,0,0,0	test	ward_and_allport	0,0,0,3,2,0,1,0,0	89.0	27.0	1.596	1,2,3,0,0,0,0,0,0	to_hand	s581
424.213	0.658	0	PA_without_intermediate	1,0,0,3,2,0,0,0,0	test	ward_and_allport	0,0,0,3,2,0,1,0,0	71.0	27.0	0.658	1,2,3,0,0,0,0,0,0	to_board	s581
424.881	0.877	0	PA_without_intermediate	0,0,0,3,2,0,0,0,0	test	ward_and_allport	0,0,0,3,2,0,1,0,0	89.0	27.0	0.877	1,2,3,0,0,0,0,0,0	to_hand	s581
425.758	0.766	0	PA_without_intermediate	0,0,0,3,2,0,1,0,0	test	ward_and_allport	0,0,0,3,2,0,1,0,0	82.0	27.0	0.766	1,2,3,0,0,0,0,0,0	to_board	s581
426.535	1.0	0	PA_without_intermediate	n/a	test	ward_and_allport	n/a	-1.0	27.0	n/a	n/a	feedback	s581
427.535	2.224	0	PA_without_intermediate	n/a	test	ward_and_allport	n/a	-1.0	27.0	n/a	n/a	ITI	s581
429.767	3.738	1	PA_without_intermediate	0,0,0,1,2,0,0,0,0	test	ward_and_allport	1,0,0,0,0,0,3,2,0	71.0	28.0	3.738	0,0,0,1,2,3,0,0,0	to_hand	s581
433.507	0.808	0	PA_without_intermediate	0,0,0,1,2,0,3,0,0	test	ward_and_allport	1,0,0,0,0,0,3,2,0	82.0	28.0	0.808	0,0,0,1,2,3,0,0,0	to_board	s581
434.324	0.723	0	PA_without_intermediate	0,0,0,1,0,0,3,0,0	test	ward_and_allport	1,0,0,0,0,0,3,2,0	71.0	28.0	0.723	0,0,0,1,2,3,0,0,0	to_hand	s581
435.048	0.665	0	PA_without_intermediate	0,0,0,1,0,0,3,2,0	test	ward_and_allport	1,0,0,0,0,0,3,2,0	82.0	28.0	0.665	0,0,0,1,2,3,0,0,0	to_board	s581
435.721	0.893	0	PA_without_intermediate	0,0,0,0,0,0,3,2,0	test	ward_and_allport	1,0,0,0,0,0,3,2,0	71.0	28.0	0.893	0,0,0,1,2,3,0,0,0	to_hand	s581
436.614	0.583	0	PA_without_intermediate	1,0,0,0,0,0,3,2,0	test	ward_and_allport	1,0,0,0,0,0,3,2,0	89.0	28.0	0.583	0,0,0,1,2,3,0,0,0	to_board	s581
437.209	1.0	0	PA_without_intermediate	n/a	test	ward_and_allport	n/a	-1.0	28.0	n/a	n/a	feedback	s581
438.209	1.272	0	PA_without_intermediate	n/a	test	ward_and_allport	n/a	-1.0	28.0	n/a	n/a	ITI	s581
439.49	6.799	1	PA_with_intermediate	1,2,0,0,0,0,0,0,0	test	ward_and_allport	1,3,0,0,0,0,2,0,0	89.0	29.0	6.799	1,2,3,0,0,0,0,0,0	to_hand	s581
446.29	0.554	0	PA_with_intermediate	1,2,0,3,0,0,0,0,0	test	ward_and_allport	1,3,0,0,0,0,2,0,0	71.0	29.0	0.554	1,2,3,0,0,0,0,0,0	to_board	s581
446.854	0.765	0	PA_with_intermediate	1,0,0,3,0,0,0,0,0	test	ward_and_allport	1,3,0,0,0,0,2,0,0	89.0	29.0	0.765	1,2,3,0,0,0,0,0,0	to_hand	s581
447.621	0.635	0	PA_with_intermediate	1,0,0,3,0,0,2,0,0	test	ward_and_allport	1,3,0,0,0,0,2,0,0	82.0	29.0	0.635	1,2,3,0,0,0,0,0,0	to_board	s581
448.265	0.918	0	PA_with_intermediate	1,0,0,0,0,0,2,0,0	test	ward_and_allport	1,3,0,0,0,0,2,0,0	71.0	29.0	0.918	1,2,3,0,0,0,0,0,0	to_hand	s581
449.185	0.567	0	PA_with_intermediate	1,3,0,0,0,0,2,0,0	test	ward_and_allport	1,3,0,0,0,0,2,0,0	89.0	29.0	0.567	1,2,3,0,0,0,0,0,0	to_board	s581
449.765	1.0	0	PA_with_intermediate	n/a	test	ward_and_allport	n/a	-1.0	29.0	n/a	n/a	feedback	s581
450.765	2.632	0	PA_with_intermediate	n/a	test	ward_and_allport	n/a	-1.0	29.0	n/a	n/a	ITI	s581
458.408	6.025	1	PA_without_intermediate	0,0,0,0,0,0,1,2,0	test	ward_and_allport	2,0,0,3,1,0,0,0,0	82.0	30.0	6.025	0,0,0,0,0,0,1,2,3	to_hand	s581
464.434	1.889	0	PA_without_intermediate	0,0,0,3,0,0,1,2,0	test	ward_and_allport	2,0,0,3,1,0,0,0,0	71.0	30.0	1.889	0,0,0,0,0,0,1,2,3	to_board	s581
466.333	1.649	0	PA_without_intermediate	0,0,0,3,0,0,1,0,0	test	ward_and_allport	2,0,0,3,1,0,0,0,0	82.0	30.0	1.649	0,0,0,0,0,0,1,2,3	to_hand	s581
467.983	0.796	0	PA_without_intermediate	2,0,0,3,0,0,1,0,0	test	ward_and_allport	2,0,0,3,1,0,0,0,0	89.0	30.0	0.796	0,0,0,0,0,0,1,2,3	to_board	s581
468.789	1.262	0	PA_without_intermediate	2,0,0,3,0,0,0,0,0	test	ward_and_allport	2,0,0,3,1,0,0,0,0	82.0	30.0	1.262	0,0,0,0,0,0,1,2,3	to_hand	s581
470.052	0.607	0	PA_without_intermediate	2,0,0,3,1,0,0,0,0	test	ward_and_allport	2,0,0,3,1,0,0,0,0	71.0	30.0	0.607	0,0,0,0,0,0,1,2,3	to_board	s581
470.67	1.0	0	PA_without_intermediate	n/a	test	ward_and_allport	n/a	-1.0	30.0	n/a	n/a	feedback	s581
471.67	1.408	0	PA_without_intermediate	n/a	test	ward_and_allport	n/a	-1.0	30.0	n/a	n/a	ITI	s581
473.089	3.154	1	PA_without_intermediate	0,0,0,0,0,0,1,2,0	test	ward_and_allport	2,0,0,3,1,0,0,0,0	82.0	31.0	3.154	0,0,0,0,0,0,1,2,3	to_hand	s581
476.244	0.799	0	PA_without_intermediate	0,0,0,3,0,0,1,2,0	test	ward_and_allport	2,0,0,3,1,0,0,0,0	71.0	31.0	0.799	0,0,0,0,0,0,1,2,3	to_board	s581
477.053	0.928	0	PA_without_intermediate	0,0,0,3,0,0,1,0,0	test	ward_and_allport	2,0,0,3,1,0,0,0,0	82.0	31.0	0.928	0,0,0,0,0,0,1,2,3	to_hand	s581
477.982	0.88	0	PA_without_intermediate	2,0,0,3,0,0,1,0,0	test	ward_and_allport	2,0,0,3,1,0,0,0,0	89.0	31.0	0.88	0,0,0,0,0,0,1,2,3	to_board	s581
478.874	0.953	0	PA_without_intermediate	2,0,0,3,0,0,0,0,0	test	ward_and_allport	2,0,0,3,1,0,0,0,0	82.0	31.0	0.953	0,0,0,0,0,0,1,2,3	to_hand	s581
479.829	0.683	0	PA_without_intermediate	2,0,0,3,1,0,0,0,0	test	ward_and_allport	2,0,0,3,1,0,0,0,0	71.0	31.0	0.683	0,0,0,0,0,0,1,2,3	to_board	s581
480.524	1.0	0	PA_without_intermediate	n/a	test	ward_and_allport	n/a	-1.0	31.0	n/a	n/a	feedback	s581
481.524	1.0	0	PA_without_intermediate	n/a	test	ward_and_allport	n/a	-1.0	31.0	n/a	n/a	ITI	s581
482.532	4.51	1	PA_with_intermediate	0,0,0,0,0,0,1,2,0	test	ward_and_allport	2,3,0,0,0,0,1,0,0	82.0	32.0	4.51	0,0,0,0,0,0,1,2,3	to_hand	s581
487.043	0.836	0	PA_with_intermediate	0,0,0,3,0,0,1,2,0	test	ward_and_allport	2,3,0,0,0,0,1,0,0	71.0	32.0	0.836	0,0,0,0,0,0,1,2,3	to_board	s581
487.887	1.322	0	PA_with_intermediate	0,0,0,3,0,0,1,0,0	test	ward_and_allport	2,3,0,0,0,0,1,0,0	82.0	32.0	1.322	0,0,0,0,0,0,1,2,3	to_hand	s581
489.21	0.591	0	PA_with_intermediate	2,0,0,3,0,0,1,0,0	test	ward_and_allport	2,3,0,0,0,0,1,0,0	89.0	32.0	0.591	0,0,0,0,0,0,1,2,3	to_board	s581
489.811	1.159	0	PA_with_intermediate	2,0,0,0,0,0,1,0,0	test	ward_and_allport	2,3,0,0,0,0,1,0,0	71.0	32.0	1.159	0,0,0,0,0,0,1,2,3	to_hand	s581
490.97	0.898	0	PA_with_intermediate	2,3,0,0,0,0,1,0,0	test	ward_and_allport	2,3,0,0,0,0,1,0,0	89.0	32.0	0.898	0,0,0,0,0,0,1,2,3	to_board	s581
491.883	1.0	0	PA_with_intermediate	n/a	test	ward_and_allport	n/a	-1.0	32.0	n/a	n/a	feedback	s581
492.883	1.0	0	PA_with_intermediate	n/a	test	ward_and_allport	n/a	-1.0	32.0	n/a	n/a	ITI	s581
493.896	4.904	1	PA_with_intermediate	0,0,0,1,2,0,0,0,0	test	ward_and_allport	0,0,0,1,0,0,2,3,0	71.0	33.0	4.904	0,0,0,1,2,3,0,0,0	to_hand	s581
498.801	0.605	0	PA_with_intermediate	3,0,0,1,2,0,0,0,0	test	ward_and_allport	0,0,0,1,0,0,2,3,0	89.0	33.0	0.605	0,0,0,1,2,3,0,0,0	to_board	s581
499.416	0.852	0	PA_with_intermediate	3,0,0,1,0,0,0,0,0	test	ward_and_allport	0,0,0,1,0,0,2,3,0	71.0	33.0	0.852	0,0,0,1,2,3,0,0,0	to_hand	s581
500.269	0.656	0	PA_with_intermediate	3,0,0,1,0,0,2,0,0	test	ward_and_allport	0,0,0,1,0,0,2,3,0	82.0	33.0	0.656	0,0,0,1,2,3,0,0,0	to_board	s581
500.937	0.794	0	PA_with_intermediate	0,0,0,1,0,0,2,0,0	test	ward_and_allport	0,0,0,1,0,0,2,3,0	89.0	33.0	0.794	0,0,0,1,2,3,0,0,0	to_hand	s581
501.732	0.578	0	PA_with_intermediate	0,0,0,1,0,0,2,3,0	test	ward_and_allport	0,0,0,1,0,0,2,3,0	82.0	33.0	0.578	0,0,0,1,2,3,0,0,0	to_board	s581
502.322	1.0	0	PA_with_intermediate	n/a	test	ward_and_allport	n/a	-1.0	33.0	n/a	n/a	feedback	s581
503.322	1.0	0	PA_with_intermediate	n/a	test	ward_and_allport	n/a	-1.0	33.0	n/a	n/a	ITI	s581
504.334	8.243	1	PA_with_intermediate	1,2,0,0,0,0,0,0,0	test	ward_and_allport	1,3,0,2,0,0,0,0,0	89.0	34.0	8.243	1,2,3,0,0,0,0,0,0	to_hand	s581
512.578	0.477	0	PA_with_intermediate	1,2,0,0,0,0,3,0,0	test	ward_and_allport	1,3,0,2,0,0,0,0,0	82.0	34.0	0.477	1,2,3,0,0,0,0,0,0	to_board	s581
513.066	0.956	0	PA_with_intermediate	1,0,0,0,0,0,3,0,0	test	ward_and_allport	1,3,0,2,0,0,0,0,0	89.0	34.0	0.956	1,2,3,0,0,0,0,0,0	to_hand	s581
514.023	0.726	0	PA_with_intermediate	1,0,0,2,0,0,3,0,0	test	ward_and_allport	1,3,0,2,0,0,0,0,0	71.0	34.0	0.726	1,2,3,0,0,0,0,0,0	to_board	s581
514.758	0.696	0	PA_with_intermediate	1,0,0,2,0,0,0,0,0	test	ward_and_allport	1,3,0,2,0,0,0,0,0	82.0	34.0	0.696	1,2,3,0,0,0,0,0,0	to_hand	s581
515.455	0.605	0	PA_with_intermediate	1,3,0,2,0,0,0,0,0	test	ward_and_allport	1,3,0,2,0,0,0,0,0	89.0	34.0	0.605	1,2,3,0,0,0,0,0,0	to_board	s581
516.074	1.0	0	PA_with_intermediate	n/a	test	ward_and_allport	n/a	-1.0	34.0	n/a	n/a	feedback	s581
517.074	1.408	0	PA_with_intermediate	n/a	test	ward_and_allport	n/a	-1.0	34.0	n/a	n/a	ITI	s581
518.493	5.761	1	PA_without_intermediate	0,0,0,0,0,0,1,2,0	test	ward_and_allport	1,0,0,3,2,0,0,0,0	82.0	35.0	5.761	0,0,0,0,0,0,1,2,3	to_hand	s581
524.255	0.725	0	PA_without_intermediate	0,0,0,3,0,0,1,2,0	test	ward_and_allport	1,0,0,3,2,0,0,0,0	71.0	35.0	0.725	0,0,0,0,0,0,1,2,3	to_board	s581
524.99	0.787	0	PA_without_intermediate	0,0,0,3,0,0,1,0,0	test	ward_and_allport	1,0,0,3,2,0,0,0,0	82.0	35.0	0.787	0,0,0,0,0,0,1,2,3	to_hand	s581
525.778	1.197	0	PA_without_intermediate	0,0,0,3,2,0,1,0,0	test	ward_and_allport	1,0,0,3,2,0,0,0,0	71.0	35.0	1.197	0,0,0,0,0,0,1,2,3	to_board	s581
526.986	0.663	0	PA_without_intermediate	0,0,0,3,2,0,0,0,0	test	ward_and_allport	1,0,0,3,2,0,0,0,0	82.0	35.0	0.663	0,0,0,0,0,0,1,2,3	to_hand	s581
527.65	0.714	0	PA_without_intermediate	1,0,0,3,2,0,0,0,0	test	ward_and_allport	1,0,0,3,2,0,0,0,0	89.0	35.0	0.714	0,0,0,0,0,0,1,2,3	to_board	s581
528.378	1.0	0	PA_without_intermediate	n/a	test	ward_and_allport	n/a	-1.0	35.0	n/a	n/a	feedback	s581
529.378	1.816	0	PA_without_intermediate	n/a	test	ward_and_allport	n/a	-1.0	35.0	n/a	n/a	ITI	s581
531.206	6.583	1	PA_with_intermediate	0,0,0,1,2,0,0,0,0	test	ward_and_allport	2,0,0,1,3,0,0,0,0	71.0	36.0	6.583	0,0,0,1,2,3,0,0,0	to_hand	s581
537.79	0.561	0	PA_with_intermediate	0,0,0,1,2,0,3,0,0	test	ward_and_allport	2,0,0,1,3,0,0,0,0	82.0	36.0	0.561	0,0,0,1,2,3,0,0,0	to_board	s581
538.362	0.707	0	PA_with_intermediate	0,0,0,1,0,0,3,0,0	test	ward_and_allport	2,0,0,1,3,0,0,0,0	71.0	36.0	0.707	0,0,0,1,2,3,0,0,0	to_hand	s581
539.07	0.593	0	PA_with_intermediate	2,0,0,1,0,0,3,0,0	test	ward_and_allport	2,0,0,1,3,0,0,0,0	89.0	36.0	0.593	0,0,0,1,2,3,0,0,0	to_board	s581
539.674	0.738	0	PA_with_intermediate	2,0,0,1,0,0,0,0,0	test	ward_and_allport	2,0,0,1,3,0,0,0,0	82.0	36.0	0.738	0,0,0,1,2,3,0,0,0	to_hand	s581
540.414	0.584	0	PA_with_intermediate	2,0,0,1,3,0,0,0,0	test	ward_and_allport	2,0,0,1,3,0,0,0,0	71.0	36.0	0.584	0,0,0,1,2,3,0,0,0	to_board	s581
541.011	1.0	0	PA_with_intermediate	n/a	test	ward_and_allport	n/a	-1.0	36.0	n/a	n/a	feedback	s581
542.011	3.176	0	PA_with_intermediate	n/a	test	ward_and_allport	n/a	-1.0	36.0	n/a	n/a	ITI	s581
545.2	3.744	1	PA_with_intermediate	0,0,0,1,2,0,0,0,0	test	ward_and_allport	2,0,0,1,3,0,0,0,0	71.0	37.0	3.744	0,0,0,1,2,3,0,0,0	to_hand	s581
548.945	0.616	0	PA_with_intermediate	0,0,0,1,2,0,3,0,0	test	ward_and_allport	2,0,0,1,3,0,0,0,0	82.0	37.0	0.616	0,0,0,1,2,3,0,0,0	to_board	s581
549.572	0.919	0	PA_with_intermediate	0,0,0,1,0,0,3,0,0	test	ward_and_allport	2,0,0,1,3,0,0,0,0	71.0	37.0	0.919	0,0,0,1,2,3,0,0,0	to_hand	s581
550.492	0.593	0	PA_with_intermediate	2,0,0,1,0,0,3,0,0	test	ward_and_allport	2,0,0,1,3,0,0,0,0	89.0	37.0	0.593	0,0,0,1,2,3,0,0,0	to_board	s581
551.096	0.975	0	PA_with_intermediate	2,0,0,1,0,0,0,0,0	test	ward_and_allport	2,0,0,1,3,0,0,0,0	82.0	37.0	0.975	0,0,0,1,2,3,0,0,0	to_hand	s581
552.072	1.02	0	PA_with_intermediate	2,0,0,1,3,0,0,0,0	test	ward_and_allport	2,0,0,1,3,0,0,0,0	71.0	37.0	1.02	0,0,0,1,2,3,0,0,0	to_board	s581
553.107	1.0	0	PA_with_intermediate	n/a	test	ward_and_allport	n/a	-1.0	37.0	n/a	n/a	feedback	s581
554.107	2.36	0	PA_with_intermediate	n/a	test	ward_and_allport	n/a	-1.0	37.0	n/a	n/a	ITI	s581
556.479	6.697	1	PA_with_intermediate	1,2,0,0,0,0,0,0,0	test	ward_and_allport	1,3,0,0,0,0,2,0,0	89.0	38.0	6.697	1,2,3,0,0,0,0,0,0	to_hand	s581
563.178	1.23	0	PA_with_intermediate	1,2,0,3,0,0,0,0,0	test	ward_and_allport	1,3,0,0,0,0,2,0,0	71.0	38.0	1.23	1,2,3,0,0,0,0,0,0	to_board	s581
564.418	0.717	0	PA_with_intermediate	1,0,0,3,0,0,0,0,0	test	ward_and_allport	1,3,0,0,0,0,2,0,0	89.0	38.0	0.717	1,2,3,0,0,0,0,0,0	to_hand	s581
565.137	0.623	0	PA_with_intermediate	1,0,0,3,0,0,2,0,0	test	ward_and_allport	1,3,0,0,0,0,2,0,0	82.0	38.0	0.623	1,2,3,0,0,0,0,0,0	to_board	s581
565.772	0.842	0	PA_with_intermediate	1,0,0,0,0,0,2,0,0	test	ward_and_allport	1,3,0,0,0,0,2,0,0	71.0	38.0	0.842	1,2,3,0,0,0,0,0,0	to_hand	s581
566.616	0.548	0	PA_with_intermediate	1,3,0,0,0,0,2,0,0	test	ward_and_allport	1,3,0,0,0,0,2,0,0	89.0	38.0	0.548	1,2,3,0,0,0,0,0,0	to_board	s581
567.177	1.0	0	PA_with_intermediate	n/a	test	ward_and_allport	n/a	-1.0	38.0	n/a	n/a	feedback	s581
568.177	1.0	0	PA_with_intermediate	n/a	test	ward_and_allport	n/a	-1.0	38.0	n/a	n/a	ITI	s581
n/a	n/a	0	n/a	n/a	n/a	n/a	n/a	n/a	n/a	n/a	n/a	ITI	n/a
