onset	duration	planning	condition	current_position	exp_stage	experiment_exp_id	goal_state	key_press	problem_id	response_time	start_state	trial_id	worker_id
-53.097	0.0	0	n/a	n/a	n/a	ward_and_allport	n/a	32.0	n/a	15.777	n/a	instructions	s626
3.015	5.126	1	UA_with_intermediate	1,0,0,2,0,0,0,0,0	practice	ward_and_allport	1,2,3,0,0,0,0,0,0	71.0	0.0	5.126	1,0,0,2,3,0,0,0,0	to_hand	s626
8.143	1.898	0	UA_with_intermediate	1,0,0,2,0,0,3,0,0	practice	ward_and_allport	1,2,3,0,0,0,0,0,0	82.0	0.0	1.898	1,0,0,2,3,0,0,0,0	to_board	s626
10.043	0.476	0	UA_with_intermediate	1,0,0,0,0,0,3,0,0	practice	ward_and_allport	1,2,3,0,0,0,0,0,0	71.0	0.0	0.476	1,0,0,2,3,0,0,0,0	to_hand	s626
10.52	0.334	0	UA_with_intermediate	1,2,0,0,0,0,3,0,0	practice	ward_and_allport	1,2,3,0,0,0,0,0,0	89.0	0.0	0.334	1,0,0,2,3,0,0,0,0	to_board	s626
10.855	0.902	0	UA_with_intermediate	1,2,0,0,0,0,0,0,0	practice	ward_and_allport	1,2,3,0,0,0,0,0,0	82.0	0.0	0.902	1,0,0,2,3,0,0,0,0	to_hand	s626
11.759	0.375	0	UA_with_intermediate	1,2,3,0,0,0,0,0,0	practice	ward_and_allport	1,2,3,0,0,0,0,0,0	89.0	0.0	0.375	1,0,0,2,3,0,0,0,0	to_board	s626
12.143	1.0	0	UA_with_intermediate	n/a	practice	ward_and_allport	n/a	-1.0	0.0	n/a	n/a	feedback	s626
14.644	3.822	1	UA_with_intermediate	1,0,0,3,0,0,0,0,0	practice	ward_and_allport	1,3,2,0,0,0,0,0,0	89.0	1.0	3.822	1,2,0,3,0,0,0,0,0	to_hand	s626
18.467	0.616	0	UA_with_intermediate	1,0,0,3,0,0,2,0,0	practice	ward_and_allport	1,3,2,0,0,0,0,0,0	82.0	1.0	0.616	1,2,0,3,0,0,0,0,0	to_board	s626
19.085	0.391	0	UA_with_intermediate	1,0,0,0,0,0,2,0,0	practice	ward_and_allport	1,3,2,0,0,0,0,0,0	71.0	1.0	0.391	1,2,0,3,0,0,0,0,0	to_hand	s626
19.477	0.318	0	UA_with_intermediate	1,3,0,0,0,0,2,0,0	practice	ward_and_allport	1,3,2,0,0,0,0,0,0	89.0	1.0	0.318	1,2,0,3,0,0,0,0,0	to_board	s626
19.795	0.451	0	UA_with_intermediate	1,3,0,0,0,0,0,0,0	practice	ward_and_allport	1,3,2,0,0,0,0,0,0	82.0	1.0	0.451	1,2,0,3,0,0,0,0,0	to_hand	s626
20.247	0.29	0	UA_with_intermediate	1,3,2,0,0,0,0,0,0	practice	ward_and_allport	1,3,2,0,0,0,0,0,0	89.0	1.0	0.29	1,2,0,3,0,0,0,0,0	to_board	s626
20.543	1.0	0	UA_with_intermediate	n/a	practice	ward_and_allport	n/a	-1.0	1.0	n/a	n/a	feedback	s626
21.543	1.1	0	UA_with_intermediate	n/a	practice	ward_and_allport	n/a	-1.0	1.0	n/a	n/a	ITI	s626
22.645	2.814	1	UA_without_intermediate	0,0,0,1,2,0,0,0,0	practice	ward_and_allport	3,2,1,0,0,0,0,0,0	82.0	2.0	2.814	0,0,0,1,2,0,3,0,0	to_hand	s626
25.459	0.428	0	UA_without_intermediate	3,0,0,1,2,0,0,0,0	practice	ward_and_allport	3,2,1,0,0,0,0,0,0	89.0	2.0	0.428	0,0,0,1,2,0,3,0,0	to_board	s626
25.889	1.521	0	UA_without_intermediate	3,0,0,1,0,0,0,0,0	practice	ward_and_allport	3,2,1,0,0,0,0,0,0	71.0	2.0	1.521	0,0,0,1,2,0,3,0,0	to_hand	s626
27.411	0.542	0	UA_without_intermediate	3,0,0,1,0,0,2,0,0	practice	ward_and_allport	3,2,1,0,0,0,0,0,0	82.0	2.0	0.542	0,0,0,1,2,0,3,0,0	to_board	s626
27.955	0.361	0	UA_without_intermediate	3,0,0,0,0,0,2,0,0	practice	ward_and_allport	3,2,1,0,0,0,0,0,0	71.0	2.0	0.361	0,0,0,1,2,0,3,0,0	to_hand	s626
28.317	0.285	0	UA_without_intermediate	3,1,0,0,0,0,2,0,0	practice	ward_and_allport	3,2,1,0,0,0,0,0,0	89.0	2.0	0.285	0,0,0,1,2,0,3,0,0	to_board	s626
28.604	0.307	0	UA_without_intermediate	3,1,0,0,0,0,0,0,0	practice	ward_and_allport	3,2,1,0,0,0,0,0,0	82.0	2.0	0.307	0,0,0,1,2,0,3,0,0	to_hand	s626
28.912	0.242	0	UA_without_intermediate	3,1,2,0,0,0,0,0,0	practice	ward_and_allport	3,2,1,0,0,0,0,0,0	89.0	2.0	0.242	0,0,0,1,2,0,3,0,0	to_board	s626
29.156	6.119	0	UA_without_intermediate	3,1,0,0,0,0,0,0,0	practice	ward_and_allport	3,2,1,0,0,0,0,0,0	89.0	2.0	6.119	0,0,0,1,2,0,3,0,0	to_hand	s626
35.276	2.132	0	UA_without_intermediate	3,1,0,0,0,0,2,0,0	practice	ward_and_allport	3,2,1,0,0,0,0,0,0	82.0	2.0	2.132	0,0,0,1,2,0,3,0,0	to_board	s626
37.41	0.529	0	UA_without_intermediate	3,0,0,0,0,0,2,0,0	practice	ward_and_allport	3,2,1,0,0,0,0,0,0	89.0	2.0	0.529	0,0,0,1,2,0,3,0,0	to_hand	s626
37.941	0.889	0	UA_without_intermediate	3,0,0,1,0,0,2,0,0	practice	ward_and_allport	3,2,1,0,0,0,0,0,0	71.0	2.0	0.889	0,0,0,1,2,0,3,0,0	to_board	s626
38.832	1.111	0	UA_without_intermediate	3,0,0,1,0,0,0,0,0	practice	ward_and_allport	3,2,1,0,0,0,0,0,0	82.0	2.0	1.111	0,0,0,1,2,0,3,0,0	to_hand	s626
39.943	0.28	0	UA_without_intermediate	3,2,0,1,0,0,0,0,0	practice	ward_and_allport	3,2,1,0,0,0,0,0,0	89.0	2.0	0.28	0,0,0,1,2,0,3,0,0	to_board	s626
40.225	0.298	0	UA_without_intermediate	3,2,0,0,0,0,0,0,0	practice	ward_and_allport	3,2,1,0,0,0,0,0,0	71.0	2.0	0.298	0,0,0,1,2,0,3,0,0	to_hand	s626
40.523	0.223	0	UA_without_intermediate	3,2,1,0,0,0,0,0,0	practice	ward_and_allport	3,2,1,0,0,0,0,0,0	89.0	2.0	0.223	0,0,0,1,2,0,3,0,0	to_board	s626
40.753	1.0	0	UA_without_intermediate	n/a	practice	ward_and_allport	n/a	-1.0	2.0	n/a	n/a	feedback	s626
41.753	1.2	0	UA_without_intermediate	n/a	practice	ward_and_allport	n/a	-1.0	2.0	n/a	n/a	ITI	s626
42.954	2.43	1	UA_without_intermediate	0,0,0,1,0,0,3,0,0	practice	ward_and_allport	2,3,1,0,0,0,0,0,0	71.0	3.0	2.43	0,0,0,1,2,0,3,0,0	to_hand	s626
45.386	1.131	0	UA_without_intermediate	2,0,0,1,0,0,3,0,0	practice	ward_and_allport	2,3,1,0,0,0,0,0,0	89.0	3.0	1.131	0,0,0,1,2,0,3,0,0	to_board	s626
46.518	1.018	0	UA_without_intermediate	2,0,0,1,0,0,0,0,0	practice	ward_and_allport	2,3,1,0,0,0,0,0,0	82.0	3.0	1.018	0,0,0,1,2,0,3,0,0	to_hand	s626
47.537	0.635	0	UA_without_intermediate	2,3,0,1,0,0,0,0,0	practice	ward_and_allport	2,3,1,0,0,0,0,0,0	89.0	3.0	0.635	0,0,0,1,2,0,3,0,0	to_board	s626
48.174	0.354	0	UA_without_intermediate	2,3,0,0,0,0,0,0,0	practice	ward_and_allport	2,3,1,0,0,0,0,0,0	71.0	3.0	0.354	0,0,0,1,2,0,3,0,0	to_hand	s626
48.529	0.277	0	UA_without_intermediate	2,3,1,0,0,0,0,0,0	practice	ward_and_allport	2,3,1,0,0,0,0,0,0	89.0	3.0	0.277	0,0,0,1,2,0,3,0,0	to_board	s626
48.809	1.0	0	UA_without_intermediate	n/a	practice	ward_and_allport	n/a	-1.0	3.0	n/a	n/a	feedback	s626
49.809	1.0	0	UA_without_intermediate	n/a	practice	ward_and_allport	n/a	-1.0	3.0	n/a	n/a	ITI	s626
52.818	4.76	1	PA_without_intermediate	1,2,0,0,0,0,0,0,0	test	ward_and_allport	0,0,0,2,0,0,3,1,0	89.0	0.0	4.76	1,2,3,0,0,0,0,0,0	to_hand	s626
57.58	0.31	0	PA_without_intermediate	1,2,0,0,0,0,3,0,0	test	ward_and_allport	0,0,0,2,0,0,3,1,0	82.0	0.0	0.31	1,2,3,0,0,0,0,0,0	to_board	s626
57.893	1.558	0	PA_without_intermediate	1,0,0,0,0,0,3,0,0	test	ward_and_allport	0,0,0,2,0,0,3,1,0	89.0	0.0	1.558	1,2,3,0,0,0,0,0,0	to_hand	s626
59.452	0.388	0	PA_without_intermediate	1,0,0,2,0,0,3,0,0	test	ward_and_allport	0,0,0,2,0,0,3,1,0	71.0	0.0	0.388	1,2,3,0,0,0,0,0,0	to_board	s626
59.843	1.375	0	PA_without_intermediate	0,0,0,2,0,0,3,0,0	test	ward_and_allport	0,0,0,2,0,0,3,1,0	89.0	0.0	1.375	1,2,3,0,0,0,0,0,0	to_hand	s626
61.219	0.405	0	PA_without_intermediate	0,0,0,2,0,0,3,1,0	test	ward_and_allport	0,0,0,2,0,0,3,1,0	82.0	0.0	0.405	1,2,3,0,0,0,0,0,0	to_board	s626
61.626	1.0	0	PA_without_intermediate	n/a	test	ward_and_allport	n/a	-1.0	0.0	n/a	n/a	feedback	s626
62.626	2.088	0	PA_without_intermediate	n/a	test	ward_and_allport	n/a	-1.0	0.0	n/a	n/a	ITI	s626
64.716	4.322	1	PA_with_intermediate	0,0,0,0,0,0,1,2,0	test	ward_and_allport	2,0,0,0,0,0,1,3,0	82.0	1.0	4.322	0,0,0,0,0,0,1,2,3	to_hand	s626
69.039	0.411	0	PA_with_intermediate	0,0,0,3,0,0,1,2,0	test	ward_and_allport	2,0,0,0,0,0,1,3,0	71.0	1.0	0.411	0,0,0,0,0,0,1,2,3	to_board	s626
69.453	1.024	0	PA_with_intermediate	0,0,0,3,0,0,1,0,0	test	ward_and_allport	2,0,0,0,0,0,1,3,0	82.0	1.0	1.024	0,0,0,0,0,0,1,2,3	to_hand	s626
70.477	0.318	0	PA_with_intermediate	2,0,0,3,0,0,1,0,0	test	ward_and_allport	2,0,0,0,0,0,1,3,0	89.0	1.0	0.318	0,0,0,0,0,0,1,2,3	to_board	s626
70.798	1.328	0	PA_with_intermediate	2,0,0,0,0,0,1,0,0	test	ward_and_allport	2,0,0,0,0,0,1,3,0	71.0	1.0	1.328	0,0,0,0,0,0,1,2,3	to_hand	s626
72.126	0.867	0	PA_with_intermediate	2,0,0,0,0,0,1,3,0	test	ward_and_allport	2,0,0,0,0,0,1,3,0	82.0	1.0	0.867	0,0,0,0,0,0,1,2,3	to_board	s626
72.997	1.0	0	PA_with_intermediate	n/a	test	ward_and_allport	n/a	-1.0	1.0	n/a	n/a	feedback	s626
73.997	1.0	0	PA_with_intermediate	n/a	test	ward_and_allport	n/a	-1.0	1.0	n/a	n/a	ITI	s626
74.999	2.333	1	PA_without_intermediate	0,0,0,1,2,0,0,0,0	test	ward_and_allport	2,0,0,0,0,0,3,1,0	71.0	2.0	2.333	0,0,0,1,2,3,0,0,0	to_hand	s626
77.333	0.409	0	PA_without_intermediate	0,0,0,1,2,0,3,0,0	test	ward_and_allport	2,0,0,0,0,0,3,1,0	82.0	2.0	0.409	0,0,0,1,2,3,0,0,0	to_board	s626
77.744	1.149	0	PA_without_intermediate	0,0,0,1,0,0,3,0,0	test	ward_and_allport	2,0,0,0,0,0,3,1,0	71.0	2.0	1.149	0,0,0,1,2,3,0,0,0	to_hand	s626
78.894	0.312	0	PA_without_intermediate	2,0,0,1,0,0,3,0,0	test	ward_and_allport	2,0,0,0,0,0,3,1,0	89.0	2.0	0.312	0,0,0,1,2,3,0,0,0	to_board	s626
79.208	0.96	0	PA_without_intermediate	2,0,0,0,0,0,3,0,0	test	ward_and_allport	2,0,0,0,0,0,3,1,0	71.0	2.0	0.96	0,0,0,1,2,3,0,0,0	to_hand	s626
80.17	0.775	0	PA_without_intermediate	2,0,0,0,0,0,3,1,0	test	ward_and_allport	2,0,0,0,0,0,3,1,0	82.0	2.0	0.775	0,0,0,1,2,3,0,0,0	to_board	s626
80.949	1.0	0	PA_without_intermediate	n/a	test	ward_and_allport	n/a	-1.0	2.0	n/a	n/a	feedback	s626
81.949	1.0	0	PA_without_intermediate	n/a	test	ward_and_allport	n/a	-1.0	2.0	n/a	n/a	ITI	s626
82.952	2.515	1	PA_without_intermediate	0,0,0,0,0,0,1,2,0	test	ward_and_allport	3,2,0,1,0,0,0,0,0	82.0	3.0	2.515	0,0,0,0,0,0,1,2,3	to_hand	s626
85.468	0.273	0	PA_without_intermediate	3,0,0,0,0,0,1,2,0	test	ward_and_allport	3,2,0,1,0,0,0,0,0	89.0	3.0	0.273	0,0,0,0,0,0,1,2,3	to_board	s626
85.742	1.885	0	PA_without_intermediate	3,0,0,0,0,0,1,0,0	test	ward_and_allport	3,2,0,1,0,0,0,0,0	82.0	3.0	1.885	0,0,0,0,0,0,1,2,3	to_hand	s626
87.627	0.314	0	PA_without_intermediate	3,2,0,0,0,0,1,0,0	test	ward_and_allport	3,2,0,1,0,0,0,0,0	89.0	3.0	0.314	0,0,0,0,0,0,1,2,3	to_board	s626
87.944	2.096	0	PA_without_intermediate	3,2,0,0,0,0,0,0,0	test	ward_and_allport	3,2,0,1,0,0,0,0,0	82.0	3.0	2.096	0,0,0,0,0,0,1,2,3	to_hand	s626
90.04	0.227	0	PA_without_intermediate	3,2,0,1,0,0,0,0,0	test	ward_and_allport	3,2,0,1,0,0,0,0,0	71.0	3.0	0.227	0,0,0,0,0,0,1,2,3	to_board	s626
90.272	1.0	0	PA_without_intermediate	n/a	test	ward_and_allport	n/a	-1.0	3.0	n/a	n/a	feedback	s626
91.272	1.0	0	PA_without_intermediate	n/a	test	ward_and_allport	n/a	-1.0	3.0	n/a	n/a	ITI	s626
92.275	3.607	1	PA_with_intermediate	1,2,0,0,0,0,0,0,0	test	ward_and_allport	1,3,0,2,0,0,0,0,0	89.0	4.0	3.607	1,2,3,0,0,0,0,0,0	to_hand	s626
95.884	0.668	0	PA_with_intermediate	1,2,0,0,0,0,3,0,0	test	ward_and_allport	1,3,0,2,0,0,0,0,0	82.0	4.0	0.668	1,2,3,0,0,0,0,0,0	to_board	s626
96.556	0.928	0	PA_with_intermediate	1,0,0,0,0,0,3,0,0	test	ward_and_allport	1,3,0,2,0,0,0,0,0	89.0	4.0	0.928	1,2,3,0,0,0,0,0,0	to_hand	s626
97.485	0.325	0	PA_with_intermediate	1,0,0,2,0,0,3,0,0	test	ward_and_allport	1,3,0,2,0,0,0,0,0	71.0	4.0	0.325	1,2,3,0,0,0,0,0,0	to_board	s626
97.812	1.208	0	PA_with_intermediate	1,0,0,2,0,0,0,0,0	test	ward_and_allport	1,3,0,2,0,0,0,0,0	82.0	4.0	1.208	1,2,3,0,0,0,0,0,0	to_hand	s626
99.021	0.268	0	PA_with_intermediate	1,3,0,2,0,0,0,0,0	test	ward_and_allport	1,3,0,2,0,0,0,0,0	89.0	4.0	0.268	1,2,3,0,0,0,0,0,0	to_board	s626
99.296	1.0	0	PA_with_intermediate	n/a	test	ward_and_allport	n/a	-1.0	4.0	n/a	n/a	feedback	s626
100.296	1.544	0	PA_with_intermediate	n/a	test	ward_and_allport	n/a	-1.0	4.0	n/a	n/a	ITI	s626
101.842	3.349	1	PA_without_intermediate	1,2,0,0,0,0,0,0,0	test	ward_and_allport	0,0,0,3,2,0,1,0,0	89.0	5.0	3.349	1,2,3,0,0,0,0,0,0	to_hand	s626
105.192	1.187	0	PA_without_intermediate	1,2,0,3,0,0,0,0,0	test	ward_and_allport	0,0,0,3,2,0,1,0,0	71.0	5.0	1.187	1,2,3,0,0,0,0,0,0	to_board	s626
106.383	0.797	0	PA_without_intermediate	1,0,0,3,0,0,0,0,0	test	ward_and_allport	0,0,0,3,2,0,1,0,0	89.0	5.0	0.797	1,2,3,0,0,0,0,0,0	to_hand	s626
107.18	0.703	0	PA_without_intermediate	1,0,0,3,2,0,0,0,0	test	ward_and_allport	0,0,0,3,2,0,1,0,0	71.0	5.0	0.703	1,2,3,0,0,0,0,0,0	to_board	s626
107.886	0.52	0	PA_without_intermediate	0,0,0,3,2,0,0,0,0	test	ward_and_allport	0,0,0,3,2,0,1,0,0	89.0	5.0	0.52	1,2,3,0,0,0,0,0,0	to_hand	s626
108.407	0.388	0	PA_without_intermediate	0,0,0,3,2,0,1,0,0	test	ward_and_allport	0,0,0,3,2,0,1,0,0	82.0	5.0	0.388	1,2,3,0,0,0,0,0,0	to_board	s626
108.801	1.0	0	PA_without_intermediate	n/a	test	ward_and_allport	n/a	-1.0	5.0	n/a	n/a	feedback	s626
109.801	1.272	0	PA_without_intermediate	n/a	test	ward_and_allport	n/a	-1.0	5.0	n/a	n/a	ITI	s626
111.075	2.014	1	PA_with_intermediate	1,2,0,0,0,0,0,0,0	test	ward_and_allport	1,3,0,0,0,0,2,0,0	89.0	6.0	2.014	1,2,3,0,0,0,0,0,0	to_hand	s626
113.091	1.593	0	PA_with_intermediate	1,2,0,3,0,0,0,0,0	test	ward_and_allport	1,3,0,0,0,0,2,0,0	71.0	6.0	1.593	1,2,3,0,0,0,0,0,0	to_board	s626
114.686	0.376	0	PA_with_intermediate	1,0,0,3,0,0,0,0,0	test	ward_and_allport	1,3,0,0,0,0,2,0,0	89.0	6.0	0.376	1,2,3,0,0,0,0,0,0	to_hand	s626
115.064	0.356	0	PA_with_intermediate	1,0,0,3,0,0,2,0,0	test	ward_and_allport	1,3,0,0,0,0,2,0,0	82.0	6.0	0.356	1,2,3,0,0,0,0,0,0	to_board	s626
115.422	1.429	0	PA_with_intermediate	1,0,0,0,0,0,2,0,0	test	ward_and_allport	1,3,0,0,0,0,2,0,0	71.0	6.0	1.429	1,2,3,0,0,0,0,0,0	to_hand	s626
116.853	0.437	0	PA_with_intermediate	1,3,0,0,0,0,2,0,0	test	ward_and_allport	1,3,0,0,0,0,2,0,0	89.0	6.0	0.437	1,2,3,0,0,0,0,0,0	to_board	s626
117.294	1.0	0	PA_with_intermediate	n/a	test	ward_and_allport	n/a	-1.0	6.0	n/a	n/a	feedback	s626
118.294	3.04	0	PA_with_intermediate	n/a	test	ward_and_allport	n/a	-1.0	6.0	n/a	n/a	ITI	s626
121.338	3.439	1	PA_with_intermediate	0,0,0,0,0,0,1,2,0	test	ward_and_allport	0,0,0,2,0,0,1,3,0	82.0	7.0	3.439	0,0,0,0,0,0,1,2,3	to_hand	s626
124.778	1.412	0	PA_with_intermediate	3,0,0,0,0,0,1,2,0	test	ward_and_allport	0,0,0,2,0,0,1,3,0	89.0	7.0	1.412	0,0,0,0,0,0,1,2,3	to_board	s626
126.193	1.841	0	PA_with_intermediate	3,0,0,0,0,0,1,0,0	test	ward_and_allport	0,0,0,2,0,0,1,3,0	82.0	7.0	1.841	0,0,0,0,0,0,1,2,3	to_hand	s626
128.034	0.304	0	PA_with_intermediate	3,0,0,2,0,0,1,0,0	test	ward_and_allport	0,0,0,2,0,0,1,3,0	71.0	7.0	0.304	0,0,0,0,0,0,1,2,3	to_board	s626
128.342	0.469	0	PA_with_intermediate	0,0,0,2,0,0,1,0,0	test	ward_and_allport	0,0,0,2,0,0,1,3,0	89.0	7.0	0.469	0,0,0,0,0,0,1,2,3	to_hand	s626
128.812	0.293	0	PA_with_intermediate	0,0,0,2,0,0,1,3,0	test	ward_and_allport	0,0,0,2,0,0,1,3,0	82.0	7.0	0.293	0,0,0,0,0,0,1,2,3	to_board	s626
129.111	1.0	0	PA_with_intermediate	n/a	test	ward_and_allport	n/a	-1.0	7.0	n/a	n/a	feedback	s626
130.111	1.272	0	PA_with_intermediate	n/a	test	ward_and_allport	n/a	-1.0	7.0	n/a	n/a	ITI	s626
131.385	2.198	1	PA_with_intermediate	1,2,0,0,0,0,0,0,0	test	ward_and_allport	1,0,0,2,3,0,0,0,0	89.0	8.0	2.198	1,2,3,0,0,0,0,0,0	to_hand	s626
133.585	0.354	0	PA_with_intermediate	1,2,0,0,0,0,3,0,0	test	ward_and_allport	1,0,0,2,3,0,0,0,0	82.0	8.0	0.354	1,2,3,0,0,0,0,0,0	to_board	s626
133.942	1.618	0	PA_with_intermediate	1,0,0,0,0,0,3,0,0	test	ward_and_allport	1,0,0,2,3,0,0,0,0	89.0	8.0	1.618	1,2,3,0,0,0,0,0,0	to_hand	s626
135.562	1.108	0	PA_with_intermediate	1,0,0,2,0,0,3,0,0	test	ward_and_allport	1,0,0,2,3,0,0,0,0	71.0	8.0	1.108	1,2,3,0,0,0,0,0,0	to_board	s626
136.672	0.729	0	PA_with_intermediate	1,0,0,2,0,0,0,0,0	test	ward_and_allport	1,0,0,2,3,0,0,0,0	82.0	8.0	0.729	1,2,3,0,0,0,0,0,0	to_hand	s626
137.402	0.366	0	PA_with_intermediate	1,0,0,2,3,0,0,0,0	test	ward_and_allport	1,0,0,2,3,0,0,0,0	71.0	8.0	0.366	1,2,3,0,0,0,0,0,0	to_board	s626
137.775	1.0	0	PA_with_intermediate	n/a	test	ward_and_allport	n/a	-1.0	8.0	n/a	n/a	feedback	s626
138.775	1.136	0	PA_with_intermediate	n/a	test	ward_and_allport	n/a	-1.0	8.0	n/a	n/a	ITI	s626
139.915	2.253	1	PA_with_intermediate	1,2,0,0,0,0,0,0,0	test	ward_and_allport	1,0,0,0,0,0,2,3,0	89.0	9.0	2.253	1,2,3,0,0,0,0,0,0	to_hand	s626
142.168	0.38	0	PA_with_intermediate	1,2,0,3,0,0,0,0,0	test	ward_and_allport	1,0,0,0,0,0,2,3,0	71.0	9.0	0.38	1,2,3,0,0,0,0,0,0	to_board	s626
142.551	1.505	0	PA_with_intermediate	1,0,0,3,0,0,0,0,0	test	ward_and_allport	1,0,0,0,0,0,2,3,0	89.0	9.0	1.505	1,2,3,0,0,0,0,0,0	to_hand	s626
144.057	0.421	0	PA_with_intermediate	1,0,0,3,0,0,2,0,0	test	ward_and_allport	1,0,0,0,0,0,2,3,0	82.0	9.0	0.421	1,2,3,0,0,0,0,0,0	to_board	s626
144.482	1.387	0	PA_with_intermediate	1,0,0,0,0,0,2,0,0	test	ward_and_allport	1,0,0,0,0,0,2,3,0	71.0	9.0	1.387	1,2,3,0,0,0,0,0,0	to_hand	s626
145.87	0.495	0	PA_with_intermediate	1,0,0,0,0,0,2,3,0	test	ward_and_allport	1,0,0,0,0,0,2,3,0	82.0	9.0	0.495	1,2,3,0,0,0,0,0,0	to_board	s626
146.37	1.0	0	PA_with_intermediate	n/a	test	ward_and_allport	n/a	-1.0	9.0	n/a	n/a	feedback	s626
147.37	1.0	0	PA_with_intermediate	n/a	test	ward_and_allport	n/a	-1.0	9.0	n/a	n/a	ITI	s626
148.374	1.637	1	PA_with_intermediate	1,2,0,0,0,0,0,0,0	test	ward_and_allport	1,3,0,0,0,0,2,0,0	89.0	10.0	1.637	1,2,3,0,0,0,0,0,0	to_hand	s626
150.012	0.418	0	PA_with_intermediate	1,2,0,3,0,0,0,0,0	test	ward_and_allport	1,3,0,0,0,0,2,0,0	71.0	10.0	0.418	1,2,3,0,0,0,0,0,0	to_board	s626
150.434	1.06	0	PA_with_intermediate	1,0,0,3,0,0,0,0,0	test	ward_and_allport	1,3,0,0,0,0,2,0,0	89.0	10.0	1.06	1,2,3,0,0,0,0,0,0	to_hand	s626
151.494	0.3	0	PA_with_intermediate	1,0,0,3,0,0,2,0,0	test	ward_and_allport	1,3,0,0,0,0,2,0,0	82.0	10.0	0.3	1,2,3,0,0,0,0,0,0	to_board	s626
151.799	0.743	0	PA_with_intermediate	1,0,0,0,0,0,2,0,0	test	ward_and_allport	1,3,0,0,0,0,2,0,0	71.0	10.0	0.743	1,2,3,0,0,0,0,0,0	to_hand	s626
152.543	0.266	0	PA_with_intermediate	1,3,0,0,0,0,2,0,0	test	ward_and_allport	1,3,0,0,0,0,2,0,0	89.0	10.0	0.266	1,2,3,0,0,0,0,0,0	to_board	s626
152.818	1.0	0	PA_with_intermediate	n/a	test	ward_and_allport	n/a	-1.0	10.0	n/a	n/a	feedback	s626
153.818	1.0	0	PA_with_intermediate	n/a	test	ward_and_allport	n/a	-1.0	10.0	n/a	n/a	ITI	s626
154.822	2.592	1	PA_without_intermediate	0,0,0,1,2,0,0,0,0	test	ward_and_allport	3,2,0,0,0,0,1,0,0	71.0	11.0	2.592	0,0,0,1,2,3,0,0,0	to_hand	s626
157.414	0.449	0	PA_without_intermediate	3,0,0,1,2,0,0,0,0	test	ward_and_allport	3,2,0,0,0,0,1,0,0	89.0	11.0	0.449	0,0,0,1,2,3,0,0,0	to_board	s626
157.868	0.353	0	PA_without_intermediate	3,0,0,1,0,0,0,0,0	test	ward_and_allport	3,2,0,0,0,0,1,0,0	71.0	11.0	0.353	0,0,0,1,2,3,0,0,0	to_hand	s626
158.222	0.324	0	PA_without_intermediate	3,2,0,1,0,0,0,0,0	test	ward_and_allport	3,2,0,0,0,0,1,0,0	89.0	11.0	0.324	0,0,0,1,2,3,0,0,0	to_board	s626
158.55	0.795	0	PA_without_intermediate	3,2,0,0,0,0,0,0,0	test	ward_and_allport	3,2,0,0,0,0,1,0,0	71.0	11.0	0.795	0,0,0,1,2,3,0,0,0	to_hand	s626
159.347	0.281	0	PA_without_intermediate	3,2,0,0,0,0,1,0,0	test	ward_and_allport	3,2,0,0,0,0,1,0,0	82.0	11.0	0.281	0,0,0,1,2,3,0,0,0	to_board	s626
159.637	1.0	0	PA_without_intermediate	n/a	test	ward_and_allport	n/a	-1.0	11.0	n/a	n/a	feedback	s626
160.637	1.408	0	PA_without_intermediate	n/a	test	ward_and_allport	n/a	-1.0	11.0	n/a	n/a	ITI	s626
162.048	2.291	1	PA_with_intermediate	1,2,0,0,0,0,0,0,0	test	ward_and_allport	1,0,0,0,0,0,2,3,0	89.0	12.0	2.291	1,2,3,0,0,0,0,0,0	to_hand	s626
164.34	0.299	0	PA_with_intermediate	1,2,0,3,0,0,0,0,0	test	ward_and_allport	1,0,0,0,0,0,2,3,0	71.0	12.0	0.299	1,2,3,0,0,0,0,0,0	to_board	s626
164.644	0.275	0	PA_with_intermediate	1,0,0,3,0,0,0,0,0	test	ward_and_allport	1,0,0,0,0,0,2,3,0	89.0	12.0	0.275	1,2,3,0,0,0,0,0,0	to_hand	s626
164.92	0.41	0	PA_with_intermediate	1,0,0,3,0,0,2,0,0	test	ward_and_allport	1,0,0,0,0,0,2,3,0	82.0	12.0	0.41	1,2,3,0,0,0,0,0,0	to_board	s626
165.334	0.784	0	PA_with_intermediate	1,0,0,0,0,0,2,0,0	test	ward_and_allport	1,0,0,0,0,0,2,3,0	71.0	12.0	0.784	1,2,3,0,0,0,0,0,0	to_hand	s626
166.12	0.342	0	PA_with_intermediate	1,0,0,0,0,0,2,3,0	test	ward_and_allport	1,0,0,0,0,0,2,3,0	82.0	12.0	0.342	1,2,3,0,0,0,0,0,0	to_board	s626
166.469	1.0	0	PA_with_intermediate	n/a	test	ward_and_allport	n/a	-1.0	12.0	n/a	n/a	feedback	s626
167.469	2.768	0	PA_with_intermediate	n/a	test	ward_and_allport	n/a	-1.0	12.0	n/a	n/a	ITI	s626
170.24	1.948	1	PA_with_intermediate	0,0,0,1,2,0,0,0,0	test	ward_and_allport	2,3,0,1,0,0,0,0,0	71.0	13.0	1.948	0,0,0,1,2,3,0,0,0	to_hand	s626
172.189	0.35	0	PA_with_intermediate	0,0,0,1,2,0,3,0,0	test	ward_and_allport	2,3,0,1,0,0,0,0,0	82.0	13.0	0.35	0,0,0,1,2,3,0,0,0	to_board	s626
172.543	0.314	0	PA_with_intermediate	0,0,0,1,0,0,3,0,0	test	ward_and_allport	2,3,0,1,0,0,0,0,0	71.0	13.0	0.314	0,0,0,1,2,3,0,0,0	to_hand	s626
172.859	0.327	0	PA_with_intermediate	2,0,0,1,0,0,3,0,0	test	ward_and_allport	2,3,0,1,0,0,0,0,0	89.0	13.0	0.327	0,0,0,1,2,3,0,0,0	to_board	s626
173.189	0.336	0	PA_with_intermediate	2,0,0,1,0,0,0,0,0	test	ward_and_allport	2,3,0,1,0,0,0,0,0	82.0	13.0	0.336	0,0,0,1,2,3,0,0,0	to_hand	s626
173.527	0.269	0	PA_with_intermediate	2,3,0,1,0,0,0,0,0	test	ward_and_allport	2,3,0,1,0,0,0,0,0	89.0	13.0	0.269	0,0,0,1,2,3,0,0,0	to_board	s626
173.803	1.0	0	PA_with_intermediate	n/a	test	ward_and_allport	n/a	-1.0	13.0	n/a	n/a	feedback	s626
174.803	1.68	0	PA_with_intermediate	n/a	test	ward_and_allport	n/a	-1.0	13.0	n/a	n/a	ITI	s626
176.486	1.793	1	PA_without_intermediate	0,0,0,1,2,0,0,0,0	test	ward_and_allport	1,0,0,0,0,0,3,2,0	71.0	14.0	1.793	0,0,0,1,2,3,0,0,0	to_hand	s626
178.281	0.422	0	PA_without_intermediate	0,0,0,1,2,0,3,0,0	test	ward_and_allport	1,0,0,0,0,0,3,2,0	82.0	14.0	0.422	0,0,0,1,2,3,0,0,0	to_board	s626
178.707	0.299	0	PA_without_intermediate	0,0,0,1,0,0,3,0,0	test	ward_and_allport	1,0,0,0,0,0,3,2,0	71.0	14.0	0.299	0,0,0,1,2,3,0,0,0	to_hand	s626
179.007	0.367	0	PA_without_intermediate	0,0,0,1,0,0,3,2,0	test	ward_and_allport	1,0,0,0,0,0,3,2,0	82.0	14.0	0.367	0,0,0,1,2,3,0,0,0	to_board	s626
179.378	0.337	0	PA_without_intermediate	0,0,0,0,0,0,3,2,0	test	ward_and_allport	1,0,0,0,0,0,3,2,0	71.0	14.0	0.337	0,0,0,1,2,3,0,0,0	to_hand	s626
179.717	0.247	0	PA_without_intermediate	1,0,0,0,0,0,3,2,0	test	ward_and_allport	1,0,0,0,0,0,3,2,0	89.0	14.0	0.247	0,0,0,1,2,3,0,0,0	to_board	s626
179.968	1.0	0	PA_without_intermediate	n/a	test	ward_and_allport	n/a	-1.0	14.0	n/a	n/a	feedback	s626
180.968	2.224	0	PA_without_intermediate	n/a	test	ward_and_allport	n/a	-1.0	14.0	n/a	n/a	ITI	s626
188.202	2.29	1	PA_without_intermediate	1,2,0,0,0,0,0,0,0	test	ward_and_allport	0,0,0,2,0,0,3,1,0	89.0	15.0	2.29	1,2,3,0,0,0,0,0,0	to_hand	s626
190.492	0.44	0	PA_without_intermediate	1,2,0,0,0,0,3,0,0	test	ward_and_allport	0,0,0,2,0,0,3,1,0	82.0	15.0	0.44	1,2,3,0,0,0,0,0,0	to_board	s626
190.936	1.033	0	PA_without_intermediate	1,0,0,0,0,0,3,0,0	test	ward_and_allport	0,0,0,2,0,0,3,1,0	89.0	15.0	1.033	1,2,3,0,0,0,0,0,0	to_hand	s626
191.97	0.246	0	PA_without_intermediate	1,0,0,2,0,0,3,0,0	test	ward_and_allport	0,0,0,2,0,0,3,1,0	71.0	15.0	0.246	1,2,3,0,0,0,0,0,0	to_board	s626
192.221	0.56	0	PA_without_intermediate	0,0,0,2,0,0,3,0,0	test	ward_and_allport	0,0,0,2,0,0,3,1,0	89.0	15.0	0.56	1,2,3,0,0,0,0,0,0	to_hand	s626
192.781	0.305	0	PA_without_intermediate	0,0,0,2,0,0,3,1,0	test	ward_and_allport	0,0,0,2,0,0,3,1,0	82.0	15.0	0.305	1,2,3,0,0,0,0,0,0	to_board	s626
193.091	1.0	0	PA_without_intermediate	n/a	test	ward_and_allport	n/a	-1.0	15.0	n/a	n/a	feedback	s626
194.091	2.36	0	PA_without_intermediate	n/a	test	ward_and_allport	n/a	-1.0	15.0	n/a	n/a	ITI	s626
196.456	2.414	1	PA_without_intermediate	0,0,0,1,2,0,0,0,0	test	ward_and_allport	1,0,0,0,0,0,3,2,0	71.0	16.0	2.414	0,0,0,1,2,3,0,0,0	to_hand	s626
198.871	0.457	0	PA_without_intermediate	0,0,0,1,2,0,3,0,0	test	ward_and_allport	1,0,0,0,0,0,3,2,0	82.0	16.0	0.457	0,0,0,1,2,3,0,0,0	to_board	s626
199.332	0.331	0	PA_without_intermediate	0,0,0,1,0,0,3,0,0	test	ward_and_allport	1,0,0,0,0,0,3,2,0	71.0	16.0	0.331	0,0,0,1,2,3,0,0,0	to_hand	s626
199.665	0.302	0	PA_without_intermediate	0,0,0,1,0,0,3,2,0	test	ward_and_allport	1,0,0,0,0,0,3,2,0	82.0	16.0	0.302	0,0,0,1,2,3,0,0,0	to_board	s626
199.971	0.245	0	PA_without_intermediate	0,0,0,0,0,0,3,2,0	test	ward_and_allport	1,0,0,0,0,0,3,2,0	71.0	16.0	0.245	0,0,0,1,2,3,0,0,0	to_hand	s626
200.217	0.228	0	PA_without_intermediate	1,0,0,0,0,0,3,2,0	test	ward_and_allport	1,0,0,0,0,0,3,2,0	89.0	16.0	0.228	0,0,0,1,2,3,0,0,0	to_board	s626
200.451	1.0	0	PA_without_intermediate	n/a	test	ward_and_allport	n/a	-1.0	16.0	n/a	n/a	feedback	s626
201.451	1.0	0	PA_without_intermediate	n/a	test	ward_and_allport	n/a	-1.0	16.0	n/a	n/a	ITI	s626
202.456	1.885	1	PA_without_intermediate	1,2,0,0,0,0,0,0,0	test	ward_and_allport	0,0,0,1,0,0,3,2,0	89.0	17.0	1.885	1,2,3,0,0,0,0,0,0	to_hand	s626
204.341	0.295	0	PA_without_intermediate	1,2,0,0,0,0,3,0,0	test	ward_and_allport	0,0,0,1,0,0,3,2,0	82.0	17.0	0.295	1,2,3,0,0,0,0,0,0	to_board	s626
204.64	0.711	0	PA_without_intermediate	1,0,0,0,0,0,3,0,0	test	ward_and_allport	0,0,0,1,0,0,3,2,0	89.0	17.0	0.711	1,2,3,0,0,0,0,0,0	to_hand	s626
205.352	0.241	0	PA_without_intermediate	1,0,0,0,0,0,3,2,0	test	ward_and_allport	0,0,0,1,0,0,3,2,0	82.0	17.0	0.241	1,2,3,0,0,0,0,0,0	to_board	s626
205.598	0.667	0	PA_without_intermediate	0,0,0,0,0,0,3,2,0	test	ward_and_allport	0,0,0,1,0,0,3,2,0	89.0	17.0	0.667	1,2,3,0,0,0,0,0,0	to_hand	s626
206.267	0.32	0	PA_without_intermediate	0,0,0,1,0,0,3,2,0	test	ward_and_allport	0,0,0,1,0,0,3,2,0	71.0	17.0	0.32	1,2,3,0,0,0,0,0,0	to_board	s626
206.593	1.0	0	PA_without_intermediate	n/a	test	ward_and_allport	n/a	-1.0	17.0	n/a	n/a	feedback	s626
207.593	1.408	0	PA_without_intermediate	n/a	test	ward_and_allport	n/a	-1.0	17.0	n/a	n/a	ITI	s626
209.006	1.959	1	PA_with_intermediate	1,2,0,0,0,0,0,0,0	test	ward_and_allport	1,0,0,2,3,0,0,0,0	89.0	18.0	1.959	1,2,3,0,0,0,0,0,0	to_hand	s626
210.966	0.255	0	PA_with_intermediate	1,2,0,0,0,0,3,0,0	test	ward_and_allport	1,0,0,2,3,0,0,0,0	82.0	18.0	0.255	1,2,3,0,0,0,0,0,0	to_board	s626
211.226	0.528	0	PA_with_intermediate	1,0,0,0,0,0,3,0,0	test	ward_and_allport	1,0,0,2,3,0,0,0,0	89.0	18.0	0.528	1,2,3,0,0,0,0,0,0	to_hand	s626
211.755	0.251	0	PA_with_intermediate	1,0,0,2,0,0,3,0,0	test	ward_and_allport	1,0,0,2,3,0,0,0,0	71.0	18.0	0.251	1,2,3,0,0,0,0,0,0	to_board	s626
212.01	0.975	0	PA_with_intermediate	1,0,0,2,0,0,0,0,0	test	ward_and_allport	1,0,0,2,3,0,0,0,0	82.0	18.0	0.975	1,2,3,0,0,0,0,0,0	to_hand	s626
212.986	0.288	0	PA_with_intermediate	1,0,0,2,3,0,0,0,0	test	ward_and_allport	1,0,0,2,3,0,0,0,0	71.0	18.0	0.288	1,2,3,0,0,0,0,0,0	to_board	s626
213.281	1.0	0	PA_with_intermediate	n/a	test	ward_and_allport	n/a	-1.0	18.0	n/a	n/a	feedback	s626
214.281	1.136	0	PA_with_intermediate	n/a	test	ward_and_allport	n/a	-1.0	18.0	n/a	n/a	ITI	s626
215.422	2.828	1	PA_without_intermediate	1,2,0,0,0,0,0,0,0	test	ward_and_allport	0,0,0,3,1,0,2,0,0	89.0	19.0	2.828	1,2,3,0,0,0,0,0,0	to_hand	s626
218.251	0.273	0	PA_without_intermediate	1,2,0,3,0,0,0,0,0	test	ward_and_allport	0,0,0,3,1,0,2,0,0	71.0	19.0	0.273	1,2,3,0,0,0,0,0,0	to_board	s626
218.529	0.498	0	PA_without_intermediate	1,0,0,3,0,0,0,0,0	test	ward_and_allport	0,0,0,3,1,0,2,0,0	89.0	19.0	0.498	1,2,3,0,0,0,0,0,0	to_hand	s626
219.028	0.311	0	PA_without_intermediate	1,0,0,3,0,0,2,0,0	test	ward_and_allport	0,0,0,3,1,0,2,0,0	82.0	19.0	0.311	1,2,3,0,0,0,0,0,0	to_board	s626
219.345	0.529	0	PA_without_intermediate	1,0,0,0,0,0,2,0,0	test	ward_and_allport	0,0,0,3,1,0,2,0,0	71.0	19.0	0.529	1,2,3,0,0,0,0,0,0	to_hand	s626
219.875	1.011	0	PA_without_intermediate	1,0,0,3,0,0,2,0,0	test	ward_and_allport	0,0,0,3,1,0,2,0,0	71.0	19.0	1.011	1,2,3,0,0,0,0,0,0	to_board	s626
220.891	1.385	0	PA_without_intermediate	0,0,0,3,0,0,2,0,0	test	ward_and_allport	0,0,0,3,1,0,2,0,0	89.0	19.0	1.385	1,2,3,0,0,0,0,0,0	to_hand	s626
222.278	0.252	0	PA_without_intermediate	0,0,0,3,1,0,2,0,0	test	ward_and_allport	0,0,0,3,1,0,2,0,0	71.0	19.0	0.252	1,2,3,0,0,0,0,0,0	to_board	s626
222.54	1.0	0	PA_without_intermediate	n/a	test	ward_and_allport	n/a	-1.0	19.0	n/a	n/a	feedback	s626
223.54	4.128	0	PA_without_intermediate	n/a	test	ward_and_allport	n/a	-1.0	19.0	n/a	n/a	ITI	s626
227.673	2.174	1	PA_without_intermediate	0,0,0,1,2,0,0,0,0	test	ward_and_allport	3,1,0,0,0,0,2,0,0	71.0	20.0	2.174	0,0,0,1,2,3,0,0,0	to_hand	s626
229.848	0.304	0	PA_without_intermediate	3,0,0,1,2,0,0,0,0	test	ward_and_allport	3,1,0,0,0,0,2,0,0	89.0	20.0	0.304	0,0,0,1,2,3,0,0,0	to_board	s626
230.157	0.222	0	PA_without_intermediate	3,0,0,1,0,0,0,0,0	test	ward_and_allport	3,1,0,0,0,0,2,0,0	71.0	20.0	0.222	0,0,0,1,2,3,0,0,0	to_hand	s626
230.381	0.296	0	PA_without_intermediate	3,0,0,1,0,0,2,0,0	test	ward_and_allport	3,1,0,0,0,0,2,0,0	82.0	20.0	0.296	0,0,0,1,2,3,0,0,0	to_board	s626
230.683	0.918	0	PA_without_intermediate	3,0,0,0,0,0,2,0,0	test	ward_and_allport	3,1,0,0,0,0,2,0,0	71.0	20.0	0.918	0,0,0,1,2,3,0,0,0	to_hand	s626
231.603	0.292	0	PA_without_intermediate	3,1,0,0,0,0,2,0,0	test	ward_and_allport	3,1,0,0,0,0,2,0,0	89.0	20.0	0.292	0,0,0,1,2,3,0,0,0	to_board	s626
231.906	1.0	0	PA_without_intermediate	n/a	test	ward_and_allport	n/a	-1.0	20.0	n/a	n/a	feedback	s626
232.906	1.136	0	PA_without_intermediate	n/a	test	ward_and_allport	n/a	-1.0	20.0	n/a	n/a	ITI	s626
234.047	2.258	1	PA_without_intermediate	0,0,0,1,2,0,0,0,0	test	ward_and_allport	2,0,0,0,0,0,3,1,0	71.0	21.0	2.258	0,0,0,1,2,3,0,0,0	to_hand	s626
236.307	0.418	0	PA_without_intermediate	0,0,0,1,2,0,3,0,0	test	ward_and_allport	2,0,0,0,0,0,3,1,0	82.0	21.0	0.418	0,0,0,1,2,3,0,0,0	to_board	s626
236.731	0.332	0	PA_without_intermediate	0,0,0,1,0,0,3,0,0	test	ward_and_allport	2,0,0,0,0,0,3,1,0	71.0	21.0	0.332	0,0,0,1,2,3,0,0,0	to_hand	s626
237.065	0.289	0	PA_without_intermediate	2,0,0,1,0,0,3,0,0	test	ward_and_allport	2,0,0,0,0,0,3,1,0	89.0	21.0	0.289	0,0,0,1,2,3,0,0,0	to_board	s626
237.358	0.28	0	PA_without_intermediate	2,0,0,0,0,0,3,0,0	test	ward_and_allport	2,0,0,0,0,0,3,1,0	71.0	21.0	0.28	0,0,0,1,2,3,0,0,0	to_hand	s626
237.639	0.287	0	PA_without_intermediate	2,0,0,0,0,0,3,1,0	test	ward_and_allport	2,0,0,0,0,0,3,1,0	82.0	21.0	0.287	0,0,0,1,2,3,0,0,0	to_board	s626
237.938	1.0	0	PA_without_intermediate	n/a	test	ward_and_allport	n/a	-1.0	21.0	n/a	n/a	feedback	s626
238.938	4.264	0	PA_without_intermediate	n/a	test	ward_and_allport	n/a	-1.0	21.0	n/a	n/a	ITI	s626
243.209	3.974	1	PA_with_intermediate	0,0,0,1,2,0,0,0,0	test	ward_and_allport	0,0,0,1,3,0,2,0,0	71.0	22.0	3.974	0,0,0,1,2,3,0,0,0	to_hand	s626
247.183	0.252	0	PA_with_intermediate	3,0,0,1,2,0,0,0,0	test	ward_and_allport	0,0,0,1,3,0,2,0,0	89.0	22.0	0.252	0,0,0,1,2,3,0,0,0	to_board	s626
247.441	0.232	0	PA_with_intermediate	3,0,0,1,0,0,0,0,0	test	ward_and_allport	0,0,0,1,3,0,2,0,0	71.0	22.0	0.232	0,0,0,1,2,3,0,0,0	to_hand	s626
247.674	0.256	0	PA_with_intermediate	3,0,0,1,0,0,2,0,0	test	ward_and_allport	0,0,0,1,3,0,2,0,0	82.0	22.0	0.256	0,0,0,1,2,3,0,0,0	to_board	s626
247.936	0.232	0	PA_with_intermediate	0,0,0,1,0,0,2,0,0	test	ward_and_allport	0,0,0,1,3,0,2,0,0	89.0	22.0	0.232	0,0,0,1,2,3,0,0,0	to_hand	s626
248.169	0.241	0	PA_with_intermediate	0,0,0,1,3,0,2,0,0	test	ward_and_allport	0,0,0,1,3,0,2,0,0	71.0	22.0	0.241	0,0,0,1,2,3,0,0,0	to_board	s626
248.421	1.0	0	PA_with_intermediate	n/a	test	ward_and_allport	n/a	-1.0	22.0	n/a	n/a	feedback	s626
249.421	3.04	0	PA_with_intermediate	n/a	test	ward_and_allport	n/a	-1.0	22.0	n/a	n/a	ITI	s626
252.468	3.634	1	PA_with_intermediate	0,0,0,0,0,0,1,2,0	test	ward_and_allport	0,0,0,2,0,0,1,3,0	82.0	23.0	3.634	0,0,0,0,0,0,1,2,3	to_hand	s626
256.102	0.253	0	PA_with_intermediate	3,0,0,0,0,0,1,2,0	test	ward_and_allport	0,0,0,2,0,0,1,3,0	89.0	23.0	0.253	0,0,0,0,0,0,1,2,3	to_board	s626
256.361	1.035	0	PA_with_intermediate	3,0,0,0,0,0,1,0,0	test	ward_and_allport	0,0,0,2,0,0,1,3,0	82.0	23.0	1.035	0,0,0,0,0,0,1,2,3	to_hand	s626
257.397	0.257	0	PA_with_intermediate	3,0,0,2,0,0,1,0,0	test	ward_and_allport	0,0,0,2,0,0,1,3,0	71.0	23.0	0.257	0,0,0,0,0,0,1,2,3	to_board	s626
257.66	0.6	0	PA_with_intermediate	0,0,0,2,0,0,1,0,0	test	ward_and_allport	0,0,0,2,0,0,1,3,0	89.0	23.0	0.6	0,0,0,0,0,0,1,2,3	to_hand	s626
258.261	0.233	0	PA_with_intermediate	0,0,0,2,0,0,1,3,0	test	ward_and_allport	0,0,0,2,0,0,1,3,0	82.0	23.0	0.233	0,0,0,0,0,0,1,2,3	to_board	s626
258.504	1.0	0	PA_with_intermediate	n/a	test	ward_and_allport	n/a	-1.0	23.0	n/a	n/a	feedback	s626
259.504	1.136	0	PA_with_intermediate	n/a	test	ward_and_allport	n/a	-1.0	23.0	n/a	n/a	ITI	s626
260.645	3.051	1	PA_with_intermediate	1,2,0,0,0,0,0,0,0	test	ward_and_allport	1,3,0,2,0,0,0,0,0	89.0	24.0	3.051	1,2,3,0,0,0,0,0,0	to_hand	s626
263.697	0.253	0	PA_with_intermediate	1,2,0,0,0,0,3,0,0	test	ward_and_allport	1,3,0,2,0,0,0,0,0	82.0	24.0	0.253	1,2,3,0,0,0,0,0,0	to_board	s626
263.956	0.212	0	PA_with_intermediate	1,0,0,0,0,0,3,0,0	test	ward_and_allport	1,3,0,2,0,0,0,0,0	89.0	24.0	0.212	1,2,3,0,0,0,0,0,0	to_hand	s626
264.169	0.262	0	PA_with_intermediate	1,0,0,2,0,0,3,0,0	test	ward_and_allport	1,3,0,2,0,0,0,0,0	71.0	24.0	0.262	1,2,3,0,0,0,0,0,0	to_board	s626
264.437	0.324	0	PA_with_intermediate	1,0,0,2,0,0,0,0,0	test	ward_and_allport	1,3,0,2,0,0,0,0,0	82.0	24.0	0.324	1,2,3,0,0,0,0,0,0	to_hand	s626
264.763	0.223	0	PA_with_intermediate	1,3,0,2,0,0,0,0,0	test	ward_and_allport	1,3,0,2,0,0,0,0,0	89.0	24.0	0.223	1,2,3,0,0,0,0,0,0	to_board	s626
264.995	1.0	0	PA_with_intermediate	n/a	test	ward_and_allport	n/a	-1.0	24.0	n/a	n/a	feedback	s626
265.995	1.408	0	PA_with_intermediate	n/a	test	ward_and_allport	n/a	-1.0	24.0	n/a	n/a	ITI	s626
267.409	1.802	1	PA_without_intermediate	1,2,0,0,0,0,0,0,0	test	ward_and_allport	0,0,0,3,1,0,2,0,0	89.0	25.0	1.802	1,2,3,0,0,0,0,0,0	to_hand	s626
269.211	0.269	0	PA_without_intermediate	1,2,0,3,0,0,0,0,0	test	ward_and_allport	0,0,0,3,1,0,2,0,0	71.0	25.0	0.269	1,2,3,0,0,0,0,0,0	to_board	s626
269.487	0.485	0	PA_without_intermediate	1,0,0,3,0,0,0,0,0	test	ward_and_allport	0,0,0,3,1,0,2,0,0	89.0	25.0	0.485	1,2,3,0,0,0,0,0,0	to_hand	s626
269.972	0.377	0	PA_without_intermediate	1,0,0,3,0,0,2,0,0	test	ward_and_allport	0,0,0,3,1,0,2,0,0	82.0	25.0	0.377	1,2,3,0,0,0,0,0,0	to_board	s626
270.356	2.093	0	PA_without_intermediate	0,0,0,3,0,0,2,0,0	test	ward_and_allport	0,0,0,3,1,0,2,0,0	89.0	25.0	2.093	1,2,3,0,0,0,0,0,0	to_hand	s626
272.45	0.476	0	PA_without_intermediate	0,0,0,3,1,0,2,0,0	test	ward_and_allport	0,0,0,3,1,0,2,0,0	71.0	25.0	0.476	1,2,3,0,0,0,0,0,0	to_board	s626
272.937	1.0	0	PA_without_intermediate	n/a	test	ward_and_allport	n/a	-1.0	25.0	n/a	n/a	feedback	s626
273.937	1.68	0	PA_without_intermediate	n/a	test	ward_and_allport	n/a	-1.0	25.0	n/a	n/a	ITI	s626
275.622	3.281	1	PA_with_intermediate	0,0,0,0,0,0,1,2,0	test	ward_and_allport	2,0,0,0,0,0,1,3,0	82.0	26.0	3.281	0,0,0,0,0,0,1,2,3	to_hand	s626
278.904	0.311	0	PA_with_intermediate	0,0,0,3,0,0,1,2,0	test	ward_and_allport	2,0,0,0,0,0,1,3,0	71.0	26.0	0.311	0,0,0,0,0,0,1,2,3	to_board	s626
279.222	0.288	0	PA_with_intermediate	0,0,0,3,0,0,1,0,0	test	ward_and_allport	2,0,0,0,0,0,1,3,0	82.0	26.0	0.288	0,0,0,0,0,0,1,2,3	to_hand	s626
279.511	0.237	0	PA_with_intermediate	2,0,0,3,0,0,1,0,0	test	ward_and_allport	2,0,0,0,0,0,1,3,0	89.0	26.0	0.237	0,0,0,0,0,0,1,2,3	to_board	s626
279.754	0.439	0	PA_with_intermediate	2,0,0,0,0,0,1,0,0	test	ward_and_allport	2,0,0,0,0,0,1,3,0	71.0	26.0	0.439	0,0,0,0,0,0,1,2,3	to_hand	s626
280.195	0.339	0	PA_with_intermediate	2,0,0,0,0,0,1,3,0	test	ward_and_allport	2,0,0,0,0,0,1,3,0	82.0	26.0	0.339	0,0,0,0,0,0,1,2,3	to_board	s626
280.545	1.0	0	PA_with_intermediate	n/a	test	ward_and_allport	n/a	-1.0	26.0	n/a	n/a	feedback	s626
281.545	3.72	0	PA_with_intermediate	n/a	test	ward_and_allport	n/a	-1.0	26.0	n/a	n/a	ITI	s626
285.272	1.67	1	PA_without_intermediate	1,2,0,0,0,0,0,0,0	test	ward_and_allport	0,0,0,3,2,0,1,0,0	89.0	27.0	1.67	1,2,3,0,0,0,0,0,0	to_hand	s626
286.942	0.257	0	PA_without_intermediate	1,2,0,3,0,0,0,0,0	test	ward_and_allport	0,0,0,3,2,0,1,0,0	71.0	27.0	0.257	1,2,3,0,0,0,0,0,0	to_board	s626
287.205	0.235	0	PA_without_intermediate	1,0,0,3,0,0,0,0,0	test	ward_and_allport	0,0,0,3,2,0,1,0,0	89.0	27.0	0.235	1,2,3,0,0,0,0,0,0	to_hand	s626
287.442	0.28	0	PA_without_intermediate	1,0,0,3,2,0,0,0,0	test	ward_and_allport	0,0,0,3,2,0,1,0,0	71.0	27.0	0.28	1,2,3,0,0,0,0,0,0	to_board	s626
287.729	0.293	0	PA_without_intermediate	0,0,0,3,2,0,0,0,0	test	ward_and_allport	0,0,0,3,2,0,1,0,0	89.0	27.0	0.293	1,2,3,0,0,0,0,0,0	to_hand	s626
288.022	0.497	0	PA_without_intermediate	0,0,0,3,2,0,1,0,0	test	ward_and_allport	0,0,0,3,2,0,1,0,0	82.0	27.0	0.497	1,2,3,0,0,0,0,0,0	to_board	s626
288.527	1.0	0	PA_without_intermediate	n/a	test	ward_and_allport	n/a	-1.0	27.0	n/a	n/a	feedback	s626
289.527	2.224	0	PA_without_intermediate	n/a	test	ward_and_allport	n/a	-1.0	27.0	n/a	n/a	ITI	s626
291.758	2.799	1	PA_without_intermediate	0,0,0,1,2,0,0,0,0	test	ward_and_allport	3,2,0,0,0,0,1,0,0	71.0	28.0	2.799	0,0,0,1,2,3,0,0,0	to_hand	s626
294.557	0.286	0	PA_without_intermediate	3,0,0,1,2,0,0,0,0	test	ward_and_allport	3,2,0,0,0,0,1,0,0	89.0	28.0	0.286	0,0,0,1,2,3,0,0,0	to_board	s626
294.85	0.431	0	PA_without_intermediate	3,0,0,1,0,0,0,0,0	test	ward_and_allport	3,2,0,0,0,0,1,0,0	71.0	28.0	0.431	0,0,0,1,2,3,0,0,0	to_hand	s626
295.282	0.23	0	PA_without_intermediate	3,2,0,1,0,0,0,0,0	test	ward_and_allport	3,2,0,0,0,0,1,0,0	89.0	28.0	0.23	0,0,0,1,2,3,0,0,0	to_board	s626
295.518	0.3	0	PA_without_intermediate	3,2,0,0,0,0,0,0,0	test	ward_and_allport	3,2,0,0,0,0,1,0,0	71.0	28.0	0.3	0,0,0,1,2,3,0,0,0	to_hand	s626
295.82	0.262	0	PA_without_intermediate	3,2,0,0,0,0,1,0,0	test	ward_and_allport	3,2,0,0,0,0,1,0,0	82.0	28.0	0.262	0,0,0,1,2,3,0,0,0	to_board	s626
296.092	1.0	0	PA_without_intermediate	n/a	test	ward_and_allport	n/a	-1.0	28.0	n/a	n/a	feedback	s626
297.092	1.272	0	PA_without_intermediate	n/a	test	ward_and_allport	n/a	-1.0	28.0	n/a	n/a	ITI	s626
298.371	2.897	1	PA_with_intermediate	0,0,0,0,0,0,1,2,0	test	ward_and_allport	0,0,0,2,3,0,1,0,0	82.0	29.0	2.897	0,0,0,0,0,0,1,2,3	to_hand	s626
301.268	0.243	0	PA_with_intermediate	3,0,0,0,0,0,1,2,0	test	ward_and_allport	0,0,0,2,3,0,1,0,0	89.0	29.0	0.243	0,0,0,0,0,0,1,2,3	to_board	s626
301.518	0.406	0	PA_with_intermediate	3,0,0,0,0,0,1,0,0	test	ward_and_allport	0,0,0,2,3,0,1,0,0	82.0	29.0	0.406	0,0,0,0,0,0,1,2,3	to_hand	s626
301.925	0.274	0	PA_with_intermediate	3,0,0,2,0,0,1,0,0	test	ward_and_allport	0,0,0,2,3,0,1,0,0	71.0	29.0	0.274	0,0,0,0,0,0,1,2,3	to_board	s626
302.206	0.385	0	PA_with_intermediate	0,0,0,2,0,0,1,0,0	test	ward_and_allport	0,0,0,2,3,0,1,0,0	89.0	29.0	0.385	0,0,0,0,0,0,1,2,3	to_hand	s626
302.592	0.542	0	PA_with_intermediate	0,0,0,2,3,0,1,0,0	test	ward_and_allport	0,0,0,2,3,0,1,0,0	71.0	29.0	0.542	0,0,0,0,0,0,1,2,3	to_board	s626
303.143	1.0	0	PA_with_intermediate	n/a	test	ward_and_allport	n/a	-1.0	29.0	n/a	n/a	feedback	s626
304.143	2.632	0	PA_with_intermediate	n/a	test	ward_and_allport	n/a	-1.0	29.0	n/a	n/a	ITI	s626
311.785	2.94	1	PA_without_intermediate	0,0,0,0,0,0,1,2,0	test	ward_and_allport	3,1,0,2,0,0,0,0,0	82.0	30.0	2.94	0,0,0,0,0,0,1,2,3	to_hand	s626
314.726	0.222	0	PA_without_intermediate	3,0,0,0,0,0,1,2,0	test	ward_and_allport	3,1,0,2,0,0,0,0,0	89.0	30.0	0.222	0,0,0,0,0,0,1,2,3	to_board	s626
314.956	0.259	0	PA_without_intermediate	3,0,0,0,0,0,1,0,0	test	ward_and_allport	3,1,0,2,0,0,0,0,0	82.0	30.0	0.259	0,0,0,0,0,0,1,2,3	to_hand	s626
315.216	0.273	0	PA_without_intermediate	3,0,0,2,0,0,1,0,0	test	ward_and_allport	3,1,0,2,0,0,0,0,0	71.0	30.0	0.273	0,0,0,0,0,0,1,2,3	to_board	s626
315.497	0.612	0	PA_without_intermediate	3,0,0,2,0,0,0,0,0	test	ward_and_allport	3,1,0,2,0,0,0,0,0	82.0	30.0	0.612	0,0,0,0,0,0,1,2,3	to_hand	s626
316.11	0.228	0	PA_without_intermediate	3,1,0,2,0,0,0,0,0	test	ward_and_allport	3,1,0,2,0,0,0,0,0	89.0	30.0	0.228	0,0,0,0,0,0,1,2,3	to_board	s626
316.346	1.0	0	PA_without_intermediate	n/a	test	ward_and_allport	n/a	-1.0	30.0	n/a	n/a	feedback	s626
317.346	1.408	0	PA_without_intermediate	n/a	test	ward_and_allport	n/a	-1.0	30.0	n/a	n/a	ITI	s626
318.76	2.141	1	PA_without_intermediate	0,0,0,0,0,0,1,2,0	test	ward_and_allport	2,0,0,3,1,0,0,0,0	82.0	31.0	2.141	0,0,0,0,0,0,1,2,3	to_hand	s626
320.902	0.452	0	PA_without_intermediate	0,0,0,3,0,0,1,2,0	test	ward_and_allport	2,0,0,3,1,0,0,0,0	71.0	31.0	0.452	0,0,0,0,0,0,1,2,3	to_board	s626
321.361	0.686	0	PA_without_intermediate	0,0,0,3,0,0,1,0,0	test	ward_and_allport	2,0,0,3,1,0,0,0,0	82.0	31.0	0.686	0,0,0,0,0,0,1,2,3	to_hand	s626
322.049	0.268	0	PA_without_intermediate	2,0,0,3,0,0,1,0,0	test	ward_and_allport	2,0,0,3,1,0,0,0,0	89.0	31.0	0.268	0,0,0,0,0,0,1,2,3	to_board	s626
322.324	0.744	0	PA_without_intermediate	2,0,0,3,0,0,0,0,0	test	ward_and_allport	2,0,0,3,1,0,0,0,0	82.0	31.0	0.744	0,0,0,0,0,0,1,2,3	to_hand	s626
323.069	0.235	0	PA_without_intermediate	2,0,0,3,1,0,0,0,0	test	ward_and_allport	2,0,0,3,1,0,0,0,0	71.0	31.0	0.235	0,0,0,0,0,0,1,2,3	to_board	s626
323.315	1.0	0	PA_without_intermediate	n/a	test	ward_and_allport	n/a	-1.0	31.0	n/a	n/a	feedback	s626
324.315	1.0	0	PA_without_intermediate	n/a	test	ward_and_allport	n/a	-1.0	31.0	n/a	n/a	ITI	s626
325.322	3.136	1	PA_with_intermediate	0,0,0,1,2,0,0,0,0	test	ward_and_allport	0,0,0,1,3,0,2,0,0	71.0	32.0	3.136	0,0,0,1,2,3,0,0,0	to_hand	s626
328.458	0.223	0	PA_with_intermediate	3,0,0,1,2,0,0,0,0	test	ward_and_allport	0,0,0,1,3,0,2,0,0	89.0	32.0	0.223	0,0,0,1,2,3,0,0,0	to_board	s626
328.689	0.196	0	PA_with_intermediate	3,0,0,1,0,0,0,0,0	test	ward_and_allport	0,0,0,1,3,0,2,0,0	71.0	32.0	0.196	0,0,0,1,2,3,0,0,0	to_hand	s626
328.887	0.266	0	PA_with_intermediate	3,0,0,1,0,0,2,0,0	test	ward_and_allport	0,0,0,1,3,0,2,0,0	82.0	32.0	0.266	0,0,0,1,2,3,0,0,0	to_board	s626
329.161	0.274	0	PA_with_intermediate	0,0,0,1,0,0,2,0,0	test	ward_and_allport	0,0,0,1,3,0,2,0,0	89.0	32.0	0.274	0,0,0,1,2,3,0,0,0	to_hand	s626
329.436	0.227	0	PA_with_intermediate	0,0,0,1,3,0,2,0,0	test	ward_and_allport	0,0,0,1,3,0,2,0,0	71.0	32.0	0.227	0,0,0,1,2,3,0,0,0	to_board	s626
329.672	1.0	0	PA_with_intermediate	n/a	test	ward_and_allport	n/a	-1.0	32.0	n/a	n/a	feedback	s626
330.672	1.0	0	PA_with_intermediate	n/a	test	ward_and_allport	n/a	-1.0	32.0	n/a	n/a	ITI	s626
331.679	2.273	1	PA_with_intermediate	0,0,0,1,2,0,0,0,0	test	ward_and_allport	0,0,0,1,0,0,2,3,0	71.0	33.0	2.273	0,0,0,1,2,3,0,0,0	to_hand	s626
333.953	0.314	0	PA_with_intermediate	3,0,0,1,2,0,0,0,0	test	ward_and_allport	0,0,0,1,0,0,2,3,0	89.0	33.0	0.314	0,0,0,1,2,3,0,0,0	to_board	s626
334.272	0.255	0	PA_with_intermediate	3,0,0,1,0,0,0,0,0	test	ward_and_allport	0,0,0,1,0,0,2,3,0	71.0	33.0	0.255	0,0,0,1,2,3,0,0,0	to_hand	s626
334.529	0.329	0	PA_with_intermediate	3,0,0,1,0,0,2,0,0	test	ward_and_allport	0,0,0,1,0,0,2,3,0	82.0	33.0	0.329	0,0,0,1,2,3,0,0,0	to_board	s626
334.864	0.285	0	PA_with_intermediate	0,0,0,1,0,0,2,0,0	test	ward_and_allport	0,0,0,1,0,0,2,3,0	89.0	33.0	0.285	0,0,0,1,2,3,0,0,0	to_hand	s626
335.149	0.315	0	PA_with_intermediate	0,0,0,1,0,0,2,3,0	test	ward_and_allport	0,0,0,1,0,0,2,3,0	82.0	33.0	0.315	0,0,0,1,2,3,0,0,0	to_board	s626
335.475	1.0	0	PA_with_intermediate	n/a	test	ward_and_allport	n/a	-1.0	33.0	n/a	n/a	feedback	s626
336.475	1.0	0	PA_with_intermediate	n/a	test	ward_and_allport	n/a	-1.0	33.0	n/a	n/a	ITI	s626
337.481	2.947	1	PA_with_intermediate	0,0,0,0,0,0,1,2,0	test	ward_and_allport	2,3,0,0,0,0,1,0,0	82.0	34.0	2.947	0,0,0,0,0,0,1,2,3	to_hand	s626
340.429	0.286	0	PA_with_intermediate	0,0,0,3,0,0,1,2,0	test	ward_and_allport	2,3,0,0,0,0,1,0,0	71.0	34.0	0.286	0,0,0,0,0,0,1,2,3	to_board	s626
340.72	0.328	0	PA_with_intermediate	0,0,0,3,0,0,1,0,0	test	ward_and_allport	2,3,0,0,0,0,1,0,0	82.0	34.0	0.328	0,0,0,0,0,0,1,2,3	to_hand	s626
341.049	0.346	0	PA_with_intermediate	2,0,0,3,0,0,1,0,0	test	ward_and_allport	2,3,0,0,0,0,1,0,0	89.0	34.0	0.346	0,0,0,0,0,0,1,2,3	to_board	s626
341.403	0.265	0	PA_with_intermediate	2,0,0,0,0,0,1,0,0	test	ward_and_allport	2,3,0,0,0,0,1,0,0	71.0	34.0	0.265	0,0,0,0,0,0,1,2,3	to_hand	s626
341.669	0.223	0	PA_with_intermediate	2,3,0,0,0,0,1,0,0	test	ward_and_allport	2,3,0,0,0,0,1,0,0	89.0	34.0	0.223	0,0,0,0,0,0,1,2,3	to_board	s626
341.904	1.0	0	PA_with_intermediate	n/a	test	ward_and_allport	n/a	-1.0	34.0	n/a	n/a	feedback	s626
342.904	1.408	0	PA_with_intermediate	n/a	test	ward_and_allport	n/a	-1.0	34.0	n/a	n/a	ITI	s626
344.32	1.529	1	PA_without_intermediate	0,0,0,1,2,0,0,0,0	test	ward_and_allport	3,1,0,0,0,0,2,0,0	71.0	35.0	1.529	0,0,0,1,2,3,0,0,0	to_hand	s626
345.851	0.408	0	PA_without_intermediate	3,0,0,1,2,0,0,0,0	test	ward_and_allport	3,1,0,0,0,0,2,0,0	89.0	35.0	0.408	0,0,0,1,2,3,0,0,0	to_board	s626
346.265	0.256	0	PA_without_intermediate	3,0,0,1,0,0,0,0,0	test	ward_and_allport	3,1,0,0,0,0,2,0,0	71.0	35.0	0.256	0,0,0,1,2,3,0,0,0	to_hand	s626
346.522	0.526	0	PA_without_intermediate	3,0,0,1,0,0,2,0,0	test	ward_and_allport	3,1,0,0,0,0,2,0,0	82.0	35.0	0.526	0,0,0,1,2,3,0,0,0	to_board	s626
347.054	0.34	0	PA_without_intermediate	3,0,0,0,0,0,2,0,0	test	ward_and_allport	3,1,0,0,0,0,2,0,0	71.0	35.0	0.34	0,0,0,1,2,3,0,0,0	to_hand	s626
347.395	0.733	0	PA_without_intermediate	3,1,0,0,0,0,2,0,0	test	ward_and_allport	3,1,0,0,0,0,2,0,0	89.0	35.0	0.733	0,0,0,1,2,3,0,0,0	to_board	s626
348.137	1.0	0	PA_without_intermediate	n/a	test	ward_and_allport	n/a	-1.0	35.0	n/a	n/a	feedback	s626
349.137	1.816	0	PA_without_intermediate	n/a	test	ward_and_allport	n/a	-1.0	35.0	n/a	n/a	ITI	s626
350.959	1.701	1	PA_with_intermediate	0,0,0,1,2,0,0,0,0	test	ward_and_allport	0,0,0,1,0,0,2,3,0	71.0	36.0	1.701	0,0,0,1,2,3,0,0,0	to_hand	s626
352.661	0.249	0	PA_with_intermediate	3,0,0,1,2,0,0,0,0	test	ward_and_allport	0,0,0,1,0,0,2,3,0	89.0	36.0	0.249	0,0,0,1,2,3,0,0,0	to_board	s626
352.917	0.169	0	PA_with_intermediate	3,0,0,1,0,0,0,0,0	test	ward_and_allport	0,0,0,1,0,0,2,3,0	71.0	36.0	0.169	0,0,0,1,2,3,0,0,0	to_hand	s626
353.087	0.293	0	PA_with_intermediate	3,0,0,1,0,0,2,0,0	test	ward_and_allport	0,0,0,1,0,0,2,3,0	82.0	36.0	0.293	0,0,0,1,2,3,0,0,0	to_board	s626
353.386	0.231	0	PA_with_intermediate	0,0,0,1,0,0,2,0,0	test	ward_and_allport	0,0,0,1,0,0,2,3,0	89.0	36.0	0.231	0,0,0,1,2,3,0,0,0	to_hand	s626
353.617	0.209	0	PA_with_intermediate	0,0,0,1,0,0,2,3,0	test	ward_and_allport	0,0,0,1,0,0,2,3,0	82.0	36.0	0.209	0,0,0,1,2,3,0,0,0	to_board	s626
353.833	1.0	0	PA_with_intermediate	n/a	test	ward_and_allport	n/a	-1.0	36.0	n/a	n/a	feedback	s626
354.833	3.176	0	PA_with_intermediate	n/a	test	ward_and_allport	n/a	-1.0	36.0	n/a	n/a	ITI	s626
358.015	2.627	1	PA_with_intermediate	0,0,0,0,0,0,1,2,0	test	ward_and_allport	2,3,0,0,0,0,1,0,0	82.0	37.0	2.627	0,0,0,0,0,0,1,2,3	to_hand	s626
360.643	0.191	0	PA_with_intermediate	0,0,0,3,0,0,1,2,0	test	ward_and_allport	2,3,0,0,0,0,1,0,0	71.0	37.0	0.191	0,0,0,0,0,0,1,2,3	to_board	s626
360.84	0.236	0	PA_with_intermediate	0,0,0,3,0,0,1,0,0	test	ward_and_allport	2,3,0,0,0,0,1,0,0	82.0	37.0	0.236	0,0,0,0,0,0,1,2,3	to_hand	s626
361.076	0.265	0	PA_with_intermediate	2,0,0,3,0,0,1,0,0	test	ward_and_allport	2,3,0,0,0,0,1,0,0	89.0	37.0	0.265	0,0,0,0,0,0,1,2,3	to_board	s626
361.351	0.265	0	PA_with_intermediate	2,0,0,0,0,0,1,0,0	test	ward_and_allport	2,3,0,0,0,0,1,0,0	71.0	37.0	0.265	0,0,0,0,0,0,1,2,3	to_hand	s626
361.617	0.171	0	PA_with_intermediate	2,3,0,0,0,0,1,0,0	test	ward_and_allport	2,3,0,0,0,0,1,0,0	89.0	37.0	0.171	0,0,0,0,0,0,1,2,3	to_board	s626
361.799	1.0	0	PA_with_intermediate	n/a	test	ward_and_allport	n/a	-1.0	37.0	n/a	n/a	feedback	s626
362.799	2.36	0	PA_with_intermediate	n/a	test	ward_and_allport	n/a	-1.0	37.0	n/a	n/a	ITI	s626
365.166	2.436	1	PA_with_intermediate	0,0,0,0,0,0,1,2,0	test	ward_and_allport	0,0,0,2,3,0,1,0,0	82.0	38.0	2.436	0,0,0,0,0,0,1,2,3	to_hand	s626
367.602	0.168	0	PA_with_intermediate	3,0,0,0,0,0,1,2,0	test	ward_and_allport	0,0,0,2,3,0,1,0,0	89.0	38.0	0.168	0,0,0,0,0,0,1,2,3	to_board	s626
367.778	0.278	0	PA_with_intermediate	3,0,0,0,0,0,1,0,0	test	ward_and_allport	0,0,0,2,3,0,1,0,0	82.0	38.0	0.278	0,0,0,0,0,0,1,2,3	to_hand	s626
368.058	0.242	0	PA_with_intermediate	3,0,0,2,0,0,1,0,0	test	ward_and_allport	0,0,0,2,3,0,1,0,0	71.0	38.0	0.242	0,0,0,0,0,0,1,2,3	to_board	s626
368.31	0.255	0	PA_with_intermediate	0,0,0,2,0,0,1,0,0	test	ward_and_allport	0,0,0,2,3,0,1,0,0	89.0	38.0	0.255	0,0,0,0,0,0,1,2,3	to_hand	s626
368.566	0.244	0	PA_with_intermediate	0,0,0,2,3,0,1,0,0	test	ward_and_allport	0,0,0,2,3,0,1,0,0	71.0	38.0	0.244	0,0,0,0,0,0,1,2,3	to_board	s626
368.82	1.0	0	PA_with_intermediate	n/a	test	ward_and_allport	n/a	-1.0	38.0	n/a	n/a	feedback	s626
369.82	1.0	0	PA_with_intermediate	n/a	test	ward_and_allport	n/a	-1.0	38.0	n/a	n/a	ITI	s626
370.826	2.708	1	PA_without_intermediate	1,2,0,0,0,0,0,0,0	test	ward_and_allport	0,0,0,1,0,0,3,2,0	89.0	39.0	2.708	1,2,3,0,0,0,0,0,0	to_hand	s626
373.535	0.244	0	PA_without_intermediate	1,2,0,0,0,0,3,0,0	test	ward_and_allport	0,0,0,1,0,0,3,2,0	82.0	39.0	0.244	1,2,3,0,0,0,0,0,0	to_board	s626
373.784	1.422	0	PA_without_intermediate	1,0,0,0,0,0,3,0,0	test	ward_and_allport	0,0,0,1,0,0,3,2,0	89.0	39.0	1.422	1,2,3,0,0,0,0,0,0	to_hand	s626
375.207	0.307	0	PA_without_intermediate	1,0,0,0,0,0,3,2,0	test	ward_and_allport	0,0,0,1,0,0,3,2,0	82.0	39.0	0.307	1,2,3,0,0,0,0,0,0	to_board	s626
375.521	0.452	0	PA_without_intermediate	1,0,0,0,0,0,3,0,0	test	ward_and_allport	0,0,0,1,0,0,3,2,0	82.0	39.0	0.452	1,2,3,0,0,0,0,0,0	to_hand	s626
375.973	0.727	0	PA_without_intermediate	1,0,0,0,0,0,3,2,0	test	ward_and_allport	0,0,0,1,0,0,3,2,0	82.0	39.0	0.727	1,2,3,0,0,0,0,0,0	to_board	s626
376.71	0.853	0	PA_without_intermediate	0,0,0,0,0,0,3,2,0	test	ward_and_allport	0,0,0,1,0,0,3,2,0	89.0	39.0	0.853	1,2,3,0,0,0,0,0,0	to_hand	s626
377.563	0.215	0	PA_without_intermediate	0,0,0,1,0,0,3,2,0	test	ward_and_allport	0,0,0,1,0,0,3,2,0	71.0	39.0	0.215	1,2,3,0,0,0,0,0,0	to_board	s626
377.788	1.0	0	PA_without_intermediate	n/a	test	ward_and_allport	n/a	-1.0	39.0	n/a	n/a	feedback	s626
378.788	1.408	0	PA_without_intermediate	n/a	test	ward_and_allport	n/a	-1.0	39.0	n/a	n/a	ITI	s626
380.203	1.956	1	PA_with_intermediate	0,0,0,1,2,0,0,0,0	test	ward_and_allport	2,3,0,1,0,0,0,0,0	71.0	40.0	1.956	0,0,0,1,2,3,0,0,0	to_hand	s626
382.161	0.25	0	PA_with_intermediate	0,0,0,1,2,0,3,0,0	test	ward_and_allport	2,3,0,1,0,0,0,0,0	82.0	40.0	0.25	0,0,0,1,2,3,0,0,0	to_board	s626
382.417	0.767	0	PA_with_intermediate	0,0,0,1,0,0,3,0,0	test	ward_and_allport	2,3,0,1,0,0,0,0,0	71.0	40.0	0.767	0,0,0,1,2,3,0,0,0	to_hand	s626
383.184	0.262	0	PA_with_intermediate	2,0,0,1,0,0,3,0,0	test	ward_and_allport	2,3,0,1,0,0,0,0,0	89.0	40.0	0.262	0,0,0,1,2,3,0,0,0	to_board	s626
383.453	0.338	0	PA_with_intermediate	2,0,0,1,0,0,0,0,0	test	ward_and_allport	2,3,0,1,0,0,0,0,0	82.0	40.0	0.338	0,0,0,1,2,3,0,0,0	to_hand	s626
383.792	0.247	0	PA_with_intermediate	2,3,0,1,0,0,0,0,0	test	ward_and_allport	2,3,0,1,0,0,0,0,0	89.0	40.0	0.247	0,0,0,1,2,3,0,0,0	to_board	s626
384.047	1.0	0	PA_with_intermediate	n/a	test	ward_and_allport	n/a	-1.0	40.0	n/a	n/a	feedback	s626
385.047	1.816	0	PA_with_intermediate	n/a	test	ward_and_allport	n/a	-1.0	40.0	n/a	n/a	ITI	s626
386.871	4.027	1	PA_without_intermediate	0,0,0,0,0,0,1,2,0	test	ward_and_allport	2,0,0,3,1,0,0,0,0	82.0	41.0	4.027	0,0,0,0,0,0,1,2,3	to_hand	s626
390.899	0.291	0	PA_without_intermediate	0,0,0,3,0,0,1,2,0	test	ward_and_allport	2,0,0,3,1,0,0,0,0	71.0	41.0	0.291	0,0,0,0,0,0,1,2,3	to_board	s626
391.196	0.793	0	PA_without_intermediate	0,0,0,3,0,0,1,0,0	test	ward_and_allport	2,0,0,3,1,0,0,0,0	82.0	41.0	0.793	0,0,0,0,0,0,1,2,3	to_hand	s626
391.99	0.212	0	PA_without_intermediate	2,0,0,3,0,0,1,0,0	test	ward_and_allport	2,0,0,3,1,0,0,0,0	89.0	41.0	0.212	0,0,0,0,0,0,1,2,3	to_board	s626
392.211	0.524	0	PA_without_intermediate	2,0,0,3,0,0,0,0,0	test	ward_and_allport	2,0,0,3,1,0,0,0,0	82.0	41.0	0.524	0,0,0,0,0,0,1,2,3	to_hand	s626
392.737	0.256	0	PA_without_intermediate	2,0,0,3,1,0,0,0,0	test	ward_and_allport	2,0,0,3,1,0,0,0,0	71.0	41.0	0.256	0,0,0,0,0,0,1,2,3	to_board	s626
393.008	1.0	0	PA_without_intermediate	n/a	test	ward_and_allport	n/a	-1.0	41.0	n/a	n/a	feedback	s626
394.008	2.088	0	PA_without_intermediate	n/a	test	ward_and_allport	n/a	-1.0	41.0	n/a	n/a	ITI	s626
396.103	2.772	1	PA_without_intermediate	0,0,0,0,0,0,1,2,0	test	ward_and_allport	1,0,0,3,2,0,0,0,0	82.0	42.0	2.772	0,0,0,0,0,0,1,2,3	to_hand	s626
398.877	0.317	0	PA_without_intermediate	0,0,0,3,0,0,1,2,0	test	ward_and_allport	1,0,0,3,2,0,0,0,0	71.0	42.0	0.317	0,0,0,0,0,0,1,2,3	to_board	s626
399.204	0.315	0	PA_without_intermediate	0,0,0,3,0,0,1,0,0	test	ward_and_allport	1,0,0,3,2,0,0,0,0	82.0	42.0	0.315	0,0,0,0,0,0,1,2,3	to_hand	s626
399.519	0.307	0	PA_without_intermediate	0,0,0,3,2,0,1,0,0	test	ward_and_allport	1,0,0,3,2,0,0,0,0	71.0	42.0	0.307	0,0,0,0,0,0,1,2,3	to_board	s626
399.835	0.359	0	PA_without_intermediate	0,0,0,3,2,0,0,0,0	test	ward_and_allport	1,0,0,3,2,0,0,0,0	82.0	42.0	0.359	0,0,0,0,0,0,1,2,3	to_hand	s626
400.195	0.208	0	PA_without_intermediate	1,0,0,3,2,0,0,0,0	test	ward_and_allport	1,0,0,3,2,0,0,0,0	89.0	42.0	0.208	0,0,0,0,0,0,1,2,3	to_board	s626
400.413	1.0	0	PA_without_intermediate	n/a	test	ward_and_allport	n/a	-1.0	42.0	n/a	n/a	feedback	s626
401.413	1.136	0	PA_without_intermediate	n/a	test	ward_and_allport	n/a	-1.0	42.0	n/a	n/a	ITI	s626
402.556	2.634	1	PA_without_intermediate	0,0,0,0,0,0,1,2,0	test	ward_and_allport	1,0,0,3,2,0,0,0,0	82.0	43.0	2.634	0,0,0,0,0,0,1,2,3	to_hand	s626
405.191	0.532	0	PA_without_intermediate	0,0,0,3,0,0,1,2,0	test	ward_and_allport	1,0,0,3,2,0,0,0,0	71.0	43.0	0.532	0,0,0,0,0,0,1,2,3	to_board	s626
405.729	0.355	0	PA_without_intermediate	0,0,0,3,0,0,1,0,0	test	ward_and_allport	1,0,0,3,2,0,0,0,0	82.0	43.0	0.355	0,0,0,0,0,0,1,2,3	to_hand	s626
406.085	0.26	0	PA_without_intermediate	0,0,0,3,2,0,1,0,0	test	ward_and_allport	1,0,0,3,2,0,0,0,0	71.0	43.0	0.26	0,0,0,0,0,0,1,2,3	to_board	s626
406.353	0.231	0	PA_without_intermediate	0,0,0,3,2,0,0,0,0	test	ward_and_allport	1,0,0,3,2,0,0,0,0	82.0	43.0	0.231	0,0,0,0,0,0,1,2,3	to_hand	s626
406.584	0.18	0	PA_without_intermediate	1,0,0,3,2,0,0,0,0	test	ward_and_allport	1,0,0,3,2,0,0,0,0	89.0	43.0	0.18	0,0,0,0,0,0,1,2,3	to_board	s626
406.774	1.0	0	PA_without_intermediate	n/a	test	ward_and_allport	n/a	-1.0	43.0	n/a	n/a	feedback	s626
407.774	6.168	0	PA_without_intermediate	n/a	test	ward_and_allport	n/a	-1.0	43.0	n/a	n/a	ITI	s626
413.949	3.074	1	PA_without_intermediate	0,0,0,0,0,0,1,2,0	test	ward_and_allport	3,1,0,2,0,0,0,0,0	82.0	44.0	3.074	0,0,0,0,0,0,1,2,3	to_hand	s626
417.025	0.281	0	PA_without_intermediate	3,0,0,0,0,0,1,2,0	test	ward_and_allport	3,1,0,2,0,0,0,0,0	89.0	44.0	0.281	0,0,0,0,0,0,1,2,3	to_board	s626
417.315	0.26	0	PA_without_intermediate	3,0,0,0,0,0,1,0,0	test	ward_and_allport	3,1,0,2,0,0,0,0,0	82.0	44.0	0.26	0,0,0,0,0,0,1,2,3	to_hand	s626
417.575	0.202	0	PA_without_intermediate	3,0,0,2,0,0,1,0,0	test	ward_and_allport	3,1,0,2,0,0,0,0,0	71.0	44.0	0.202	0,0,0,0,0,0,1,2,3	to_board	s626
417.787	0.291	0	PA_without_intermediate	3,0,0,2,0,0,0,0,0	test	ward_and_allport	3,1,0,2,0,0,0,0,0	82.0	44.0	0.291	0,0,0,0,0,0,1,2,3	to_hand	s626
418.079	0.207	0	PA_without_intermediate	3,1,0,2,0,0,0,0,0	test	ward_and_allport	3,1,0,2,0,0,0,0,0	89.0	44.0	0.207	0,0,0,0,0,0,1,2,3	to_board	s626
418.298	1.0	0	PA_without_intermediate	n/a	test	ward_and_allport	n/a	-1.0	44.0	n/a	n/a	feedback	s626
419.298	1.816	0	PA_without_intermediate	n/a	test	ward_and_allport	n/a	-1.0	44.0	n/a	n/a	ITI	s626
426.126	2.861	1	PA_with_intermediate	0,0,0,1,2,0,0,0,0	test	ward_and_allport	2,0,0,1,3,0,0,0,0	71.0	45.0	2.861	0,0,0,1,2,3,0,0,0	to_hand	s626
428.988	0.321	0	PA_with_intermediate	0,0,0,1,2,0,3,0,0	test	ward_and_allport	2,0,0,1,3,0,0,0,0	82.0	45.0	0.321	0,0,0,1,2,3,0,0,0	to_board	s626
429.319	0.312	0	PA_with_intermediate	0,0,0,1,0,0,3,0,0	test	ward_and_allport	2,0,0,1,3,0,0,0,0	71.0	45.0	0.312	0,0,0,1,2,3,0,0,0	to_hand	s626
429.633	0.267	0	PA_with_intermediate	2,0,0,1,0,0,3,0,0	test	ward_and_allport	2,0,0,1,3,0,0,0,0	89.0	45.0	0.267	0,0,0,1,2,3,0,0,0	to_board	s626
429.91	0.281	0	PA_with_intermediate	2,0,0,1,0,0,0,0,0	test	ward_and_allport	2,0,0,1,3,0,0,0,0	82.0	45.0	0.281	0,0,0,1,2,3,0,0,0	to_hand	s626
430.191	0.238	0	PA_with_intermediate	2,0,0,1,3,0,0,0,0	test	ward_and_allport	2,0,0,1,3,0,0,0,0	71.0	45.0	0.238	0,0,0,1,2,3,0,0,0	to_board	s626
430.441	1.0	0	PA_with_intermediate	n/a	test	ward_and_allport	n/a	-1.0	45.0	n/a	n/a	feedback	s626
431.441	1.952	0	PA_with_intermediate	n/a	test	ward_and_allport	n/a	-1.0	45.0	n/a	n/a	ITI	s626
433.402	2.856	1	PA_with_intermediate	0,0,0,1,2,0,0,0,0	test	ward_and_allport	2,0,0,1,3,0,0,0,0	71.0	46.0	2.856	0,0,0,1,2,3,0,0,0	to_hand	s626
436.258	0.348	0	PA_with_intermediate	0,0,0,1,2,0,3,0,0	test	ward_and_allport	2,0,0,1,3,0,0,0,0	82.0	46.0	0.348	0,0,0,1,2,3,0,0,0	to_board	s626
436.615	0.268	0	PA_with_intermediate	0,0,0,1,0,0,3,0,0	test	ward_and_allport	2,0,0,1,3,0,0,0,0	71.0	46.0	0.268	0,0,0,1,2,3,0,0,0	to_hand	s626
436.884	0.297	0	PA_with_intermediate	2,0,0,1,0,0,3,0,0	test	ward_and_allport	2,0,0,1,3,0,0,0,0	89.0	46.0	0.297	0,0,0,1,2,3,0,0,0	to_board	s626
437.19	0.284	0	PA_with_intermediate	2,0,0,1,0,0,0,0,0	test	ward_and_allport	2,0,0,1,3,0,0,0,0	82.0	46.0	0.284	0,0,0,1,2,3,0,0,0	to_hand	s626
437.475	0.214	0	PA_with_intermediate	2,0,0,1,3,0,0,0,0	test	ward_and_allport	2,0,0,1,3,0,0,0,0	71.0	46.0	0.214	0,0,0,1,2,3,0,0,0	to_board	s626
437.7	1.0	0	PA_with_intermediate	n/a	test	ward_and_allport	n/a	-1.0	46.0	n/a	n/a	feedback	s626
438.7	1.136	0	PA_with_intermediate	n/a	test	ward_and_allport	n/a	-1.0	46.0	n/a	n/a	ITI	s626
439.846	1.455	1	PA_without_intermediate	0,0,0,0,0,0,1,2,0	test	ward_and_allport	3,2,0,1,0,0,0,0,0	82.0	47.0	1.455	0,0,0,0,0,0,1,2,3	to_hand	s626
441.301	0.203	0	PA_without_intermediate	3,0,0,0,0,0,1,2,0	test	ward_and_allport	3,2,0,1,0,0,0,0,0	89.0	47.0	0.203	0,0,0,0,0,0,1,2,3	to_board	s626
441.514	0.231	0	PA_without_intermediate	3,0,0,0,0,0,1,0,0	test	ward_and_allport	3,2,0,1,0,0,0,0,0	82.0	47.0	0.231	0,0,0,0,0,0,1,2,3	to_hand	s626
441.746	0.377	0	PA_without_intermediate	3,2,0,0,0,0,1,0,0	test	ward_and_allport	3,2,0,1,0,0,0,0,0	89.0	47.0	0.377	0,0,0,0,0,0,1,2,3	to_board	s626
442.131	1.074	0	PA_without_intermediate	3,2,0,0,0,0,0,0,0	test	ward_and_allport	3,2,0,1,0,0,0,0,0	82.0	47.0	1.074	0,0,0,0,0,0,1,2,3	to_hand	s626
443.206	0.158	0	PA_without_intermediate	3,2,0,1,0,0,0,0,0	test	ward_and_allport	3,2,0,1,0,0,0,0,0	71.0	47.0	0.158	0,0,0,0,0,0,1,2,3	to_board	s626
443.375	1.0	0	PA_without_intermediate	n/a	test	ward_and_allport	n/a	-1.0	47.0	n/a	n/a	feedback	s626
444.375	1.68	0	PA_without_intermediate	n/a	test	ward_and_allport	n/a	-1.0	47.0	n/a	n/a	ITI	s626
n/a	n/a	0	n/a	n/a	n/a	n/a	n/a	n/a	n/a	n/a	n/a	ITI	n/a
