onset	duration	EV	action	clicked_on_loss_card	experiment_exp_id	gain_amount	gain_probability	key_press	loss_amount	loss_probability	num_cards	num_click_in_round	num_loss_cards	risk	response_time	total_cards	trial_id	worker_id
3.013	5.224	0.4641748335908171	draw_card	0.0	columbia_card_task_fmri	12.0	0.8333333333333334	89.0	-70.0	0.1666666666666666	6.0	1.0	1.0	-3.816310679951158	5.224	n/a	stim	s626
8.239	1.678	-2.2691584997425154	draw_card	0.0	columbia_card_task_fmri	12.0	0.8	89.0	-70.0	0.2	6.0	2.0	1.0	-1.5809634824796817	1.678	n/a	stim	s626
9.918	1.893	-6.369158499742516	draw_card	0.0	columbia_card_task_fmri	12.0	0.75	89.0	-70.0	0.25	6.0	3.0	1.0	1.1208165840650182	1.893	n/a	stim	s626
11.812	1.231	-13.202491833075849	end_round	0.0	columbia_card_task_fmri	12.0	0.6666666666666667	71.0	-70.0	0.3333333333333333	6.0	4.0	1.0	4.263751466588587	1.231	3.0	stim	s626
13.046	2.25	n/a	-1.0	n/a	columbia_card_task_fmri	n/a	n/a	-1.0	n/a	n/a	n/a	n/a	n/a	n/a	n/a	n/a	feedback	s626
15.296	0.204	n/a	-1.0	n/a	columbia_card_task_fmri	n/a	n/a	-1.0	n/a	n/a	n/a	n/a	n/a	n/a	n/a	n/a	ITI	s626
15.5	2.016	1.297508166924151	draw_card	0.0	columbia_card_task_fmri	14.0	0.8333333333333334	89.0	-75.0	0.1666666666666666	6.0	1.0	1.0	-1.2133880630288445	2.016	n/a	stim	s626
17.517	1.581	-1.6691584997425155	draw_card	0.0	columbia_card_task_fmri	14.0	0.8	89.0	-75.0	0.2	6.0	2.0	1.0	1.2136085234020155	1.581	n/a	stim	s626
19.102	0.455	-6.119158499742516	draw_card	1.0	columbia_card_task_fmri	14.0	0.75	89.0	-75.0	0.25	6.0	3.0	1.0	4.146889188271807	0.455	3.0	stim	s626
19.563	2.25	n/a	-1.0	n/a	columbia_card_task_fmri	n/a	n/a	-1.0	n/a	n/a	n/a	n/a	n/a	n/a	n/a	n/a	feedback	s626
21.813	0.204	n/a	-1.0	n/a	columbia_card_task_fmri	n/a	n/a	-1.0	n/a	n/a	n/a	n/a	n/a	n/a	n/a	n/a	ITI	s626
22.018	3.067	2.964174833590817	draw_card	0.0	columbia_card_task_fmri	15.0	0.8333333333333334	89.0	-70.0	0.1666666666666666	6.0	1.0	1.0	-2.700889465594092	3.067	n/a	stim	s626
25.086	0.848	0.1308415002574832	draw_card	0.0	columbia_card_task_fmri	15.0	0.8	89.0	-70.0	0.2	6.0	2.0	1.0	-0.3833989173880852	0.848	n/a	stim	s626
25.936	1.43	-4.119158499742516	draw_card	0.0	columbia_card_task_fmri	15.0	0.75	89.0	-70.0	0.25	6.0	3.0	1.0	2.4176039265849383	1.43	n/a	stim	s626
27.367	0.962	-11.202491833075849	end_round	0.0	columbia_card_task_fmri	15.0	0.6666666666666667	71.0	-70.0	0.3333333333333333	6.0	4.0	1.0	5.675896731165999	0.962	3.0	stim	s626
28.335	2.25	n/a	-1.0	n/a	columbia_card_task_fmri	n/a	n/a	-1.0	n/a	n/a	n/a	n/a	n/a	n/a	n/a	n/a	feedback	s626
30.585	0.272	n/a	-1.0	n/a	columbia_card_task_fmri	n/a	n/a	-1.0	n/a	n/a	n/a	n/a	n/a	n/a	n/a	n/a	ITI	s626
30.859	3.232	3.797508166924151	draw_card	0.0	columbia_card_task_fmri	17.0	0.8333333333333334	89.0	-75.0	0.1666666666666666	6.0	1.0	1.0	-0.097579347749459	3.232	n/a	stim	s626
34.093	1.912	0.7308415002574846	draw_card	0.0	columbia_card_task_fmri	17.0	0.8	89.0	-75.0	0.2	6.0	2.0	1.0	2.411534430434209	1.912	n/a	stim	s626
36.006	0.506	-3.869158499742517	draw_card	0.0	columbia_card_task_fmri	17.0	0.75	89.0	-75.0	0.25	6.0	3.0	1.0	5.444010600235551	0.506	n/a	stim	s626
36.513	1.835	-11.535825166409182	draw_card	1.0	columbia_card_task_fmri	17.0	0.6666666666666667	89.0	-75.0	0.3333333333333333	6.0	4.0	1.0	8.971425904808235	1.835	4.0	stim	s626
38.352	2.25	n/a	-1.0	n/a	columbia_card_task_fmri	n/a	n/a	-1.0	n/a	n/a	n/a	n/a	n/a	n/a	n/a	n/a	feedback	s626
40.602	0.204	n/a	-1.0	n/a	columbia_card_task_fmri	n/a	n/a	-1.0	n/a	n/a	n/a	n/a	n/a	n/a	n/a	n/a	ITI	s626
40.808	2.903	5.130841500257484	draw_card	0.0	columbia_card_task_fmri	24.0	0.75	89.0	-60.0	0.25	8.0	1.0	2.0	1.98532366190598	2.903	n/a	stim	s626
43.712	1.476	2.130841500257483	draw_card	1.0	columbia_card_task_fmri	24.0	0.7142857142857143	89.0	-60.0	0.2857142857142857	8.0	2.0	2.0	3.557005660421801	1.476	2.0	stim	s626
45.195	2.25	n/a	-1.0	n/a	columbia_card_task_fmri	n/a	n/a	-1.0	n/a	n/a	n/a	n/a	n/a	n/a	n/a	n/a	feedback	s626
47.445	0.408	n/a	-1.0	n/a	columbia_card_task_fmri	n/a	n/a	-1.0	n/a	n/a	n/a	n/a	n/a	n/a	n/a	n/a	ITI	s626
47.853	0.979	5.130841500257484	draw_card	1.0	columbia_card_task_fmri	29.0	0.75	89.0	-75.0	0.25	8.0	1.0	2.0	10.633599995775576	0.979	1.0	stim	s626
48.838	2.25	n/a	-1.0	n/a	columbia_card_task_fmri	n/a	n/a	-1.0	n/a	n/a	n/a	n/a	n/a	n/a	n/a	n/a	feedback	s626
51.088	0.136	n/a	-1.0	n/a	columbia_card_task_fmri	n/a	n/a	-1.0	n/a	n/a	n/a	n/a	n/a	n/a	n/a	n/a	ITI	s626
51.224	3.941	0.9086192780352635	draw_card	0.0	columbia_card_task_fmri	17.0	0.7777777777777778	89.0	-65.0	0.2222222222222222	9.0	1.0	2.0	-0.2929197710275915	3.941	n/a	stim	s626
55.167	1.791	-1.3691584997425168	draw_card	0.0	columbia_card_task_fmri	17.0	0.75	89.0	-65.0	0.25	9.0	2.0	2.0	1.1208165840650182	1.791	n/a	stim	s626
56.96	1.317	-4.297729928313943	draw_card	0.0	columbia_card_task_fmri	17.0	0.7142857142857143	89.0	-65.0	0.2857142857142857	9.0	3.0	2.0	2.6549534058298008	1.317	n/a	stim	s626
58.277	6.328	-8.202491833075847	draw_card	1.0	columbia_card_task_fmri	17.0	0.6666666666666667	89.0	-65.0	0.3333333333333333	9.0	4.0	2.0	4.263751466588587	6.328	4.0	stim	s626
64.611	2.25	n/a	-1.0	n/a	columbia_card_task_fmri	n/a	n/a	-1.0	n/a	n/a	n/a	n/a	n/a	n/a	n/a	n/a	feedback	s626
66.861	0.272	n/a	-1.0	n/a	columbia_card_task_fmri	n/a	n/a	-1.0	n/a	n/a	n/a	n/a	n/a	n/a	n/a	n/a	ITI	s626
67.135	0.724	5.230841500257483	draw_card	0.0	columbia_card_task_fmri	14.0	0.9	89.0	-95.0	0.1	10.0	1.0	1.0	-1.6807524863516932	0.724	n/a	stim	s626
67.861	2.469	4.019730389146371	draw_card	0.0	columbia_card_task_fmri	14.0	0.8888888888888888	89.0	-95.0	0.1111111111111111	10.0	2.0	1.0	-0.1285001144685011	2.469	n/a	stim	s626
70.332	0.545	2.505841500257483	draw_card	0.0	columbia_card_task_fmri	14.0	0.875	89.0	-95.0	0.125	10.0	3.0	1.0	1.6611790672812887	0.545	n/a	stim	s626
70.879	0.561	0.559412928828912	draw_card	0.0	columbia_card_task_fmri	14.0	0.8571428571428572	89.0	-95.0	0.1428571428571428	10.0	4.0	1.0	3.751423597133112	0.561	n/a	stim	s626
71.442	0.893	-2.035825166409181	draw_card	0.0	columbia_card_task_fmri	14.0	0.8333333333333334	89.0	-95.0	0.1666666666666666	10.0	5.0	1.0	6.227645034922503	0.893	n/a	stim	s626
72.336	2.198	-5.669158499742515	draw_card	0.0	columbia_card_task_fmri	14.0	0.8	89.0	-95.0	0.2	10.0	6.0	1.0	9.201933406908893	2.198	n/a	stim	s626
74.535	1.78	-11.119158499742516	end_round	0.0	columbia_card_task_fmri	14.0	0.75	71.0	-95.0	0.25	10.0	7.0	1.0	12.796354705865724	1.78	6.0	stim	s626
76.319	2.25	n/a	-1.0	n/a	columbia_card_task_fmri	n/a	n/a	-1.0	n/a	n/a	n/a	n/a	n/a	n/a	n/a	n/a	feedback	s626
78.569	0.34	n/a	-1.0	n/a	columbia_card_task_fmri	n/a	n/a	-1.0	n/a	n/a	n/a	n/a	n/a	n/a	n/a	n/a	ITI	s626
78.911	1.617	1.1308415002574832	draw_card	0.0	columbia_card_task_fmri	15.0	0.8	89.0	-65.0	0.2	10.0	1.0	2.0	-2.3792387095718723	1.617	n/a	stim	s626
80.53	1.399	-0.6469362775202936	draw_card	0.0	columbia_card_task_fmri	15.0	0.7777777777777778	89.0	-65.0	0.2222222222222222	10.0	2.0	2.0	-1.122739317927106	1.399	n/a	stim	s626
81.929	0.489	-2.869158499742517	draw_card	0.0	columbia_card_task_fmri	15.0	0.75	89.0	-65.0	0.25	10.0	3.0	2.0	0.2563852129632948	0.489	n/a	stim	s626
82.42	1.203	-5.7263013568853705	draw_card	1.0	columbia_card_task_fmri	15.0	0.7142857142857143	89.0	-65.0	0.2857142857142857	10.0	4.0	2.0	1.7529737490195316	1.203	4.0	stim	s626
83.628	2.25	n/a	-1.0	n/a	columbia_card_task_fmri	n/a	n/a	-1.0	n/a	n/a	n/a	n/a	n/a	n/a	n/a	n/a	feedback	s626
85.878	0.136	n/a	-1.0	n/a	columbia_card_task_fmri	n/a	n/a	-1.0	n/a	n/a	n/a	n/a	n/a	n/a	n/a	n/a	ITI	s626
86.016	2.444	2.7308415002574846	draw_card	0.0	columbia_card_task_fmri	17.0	0.8	89.0	-65.0	0.2	10.0	1.0	2.0	-1.5809634824796817	2.444	n/a	stim	s626
88.462	1.141	0.9086192780352635	draw_card	0.0	columbia_card_task_fmri	17.0	0.7777777777777778	89.0	-65.0	0.2222222222222222	10.0	2.0	2.0	-0.2929197710275915	1.141	n/a	stim	s626
89.604	1.941	-1.3691584997425168	draw_card	0.0	columbia_card_task_fmri	17.0	0.75	89.0	-65.0	0.25	10.0	3.0	2.0	1.1208165840650182	1.941	n/a	stim	s626
91.547	2.891	-4.297729928313943	draw_card	0.0	columbia_card_task_fmri	17.0	0.7142857142857143	89.0	-65.0	0.2857142857142857	10.0	4.0	2.0	2.6549534058298008	2.891	n/a	stim	s626
94.44	2.053	-8.202491833075847	end_round	0.0	columbia_card_task_fmri	17.0	0.6666666666666667	71.0	-65.0	0.3333333333333333	10.0	5.0	2.0	4.263751466588587	2.053	4.0	stim	s626
96.497	2.25	n/a	-1.0	n/a	columbia_card_task_fmri	n/a	n/a	-1.0	n/a	n/a	n/a	n/a	n/a	n/a	n/a	n/a	feedback	s626
98.747	0.34	n/a	-1.0	n/a	columbia_card_task_fmri	n/a	n/a	-1.0	n/a	n/a	n/a	n/a	n/a	n/a	n/a	n/a	ITI	s626
99.088	2.036	1.297508166924151	draw_card	0.0	columbia_card_task_fmri	13.0	0.8333333333333334	89.0	-70.0	0.1666666666666666	12.0	1.0	2.0	-3.4445245205498445	2.036	n/a	stim	s626
101.126	2.041	0.0399324093483897	draw_card	0.0	columbia_card_task_fmri	13.0	0.8181818181818181	89.0	-70.0	0.1818181818181818	12.0	2.0	2.0	-2.3666141991898257	2.041	n/a	stim	s626
103.168	0.469	-1.4691584997425164	draw_card	0.0	columbia_card_task_fmri	13.0	0.8	89.0	-70.0	0.2	12.0	3.0	2.0	-1.1817947958599788	0.469	n/a	stim	s626
103.64	0.898	-3.313602944186961	draw_card	0.0	columbia_card_task_fmri	13.0	0.7777777777777778	89.0	-70.0	0.2222222222222222	12.0	4.0	2.0	0.1220199132113677	0.898	n/a	stim	s626
104.54	1.262	-5.619158499742516	draw_card	0.0	columbia_card_task_fmri	13.0	0.75	89.0	-70.0	0.25	12.0	5.0	2.0	1.5530610004821952	1.262	n/a	stim	s626
105.803	2.43	-8.58344421402823	end_round	0.0	columbia_card_task_fmri	13.0	0.7142857142857143	71.0	-70.0	0.2857142857142857	12.0	6.0	2.0	3.1059707853392737	2.43	5.0	stim	s626
108.236	2.25	n/a	-1.0	n/a	columbia_card_task_fmri	n/a	n/a	-1.0	n/a	n/a	n/a	n/a	n/a	n/a	n/a	n/a	feedback	s626
110.486	0.068	n/a	-1.0	n/a	columbia_card_task_fmri	n/a	n/a	-1.0	n/a	n/a	n/a	n/a	n/a	n/a	n/a	n/a	ITI	s626
110.556	3.588	1.297508166924151	draw_card	0.0	columbia_card_task_fmri	15.0	0.8333333333333334	89.0	-80.0	0.1666666666666666	12.0	1.0	2.0	1.0183695179240289	3.588	n/a	stim	s626
114.146	0.456	-0.1418857724697919	draw_card	0.0	columbia_card_task_fmri	15.0	0.8181818181818181	89.0	-80.0	0.1818181818181818	12.0	2.0	2.0	2.2527892329317183	0.456	n/a	stim	s626
114.604	1.395	-1.8691584997425168	draw_card	1.0	columbia_card_task_fmri	15.0	0.8	89.0	-80.0	0.2	12.0	3.0	2.0	3.6095910145415786	1.395	3.0	stim	s626
116.006	2.25	n/a	-1.0	n/a	columbia_card_task_fmri	n/a	n/a	-1.0	n/a	n/a	n/a	n/a	n/a	n/a	n/a	n/a	feedback	s626
118.256	0.0	n/a	-1.0	n/a	columbia_card_task_fmri	n/a	n/a	-1.0	n/a	n/a	n/a	n/a	n/a	n/a	n/a	n/a	ITI	s626
118.258	4.169	0.3308415002574842	draw_card	0.0	columbia_card_task_fmri	14.0	0.8	89.0	-65.0	0.2	15.0	1.0	3.0	-2.778343683673306	4.169	n/a	stim	s626
122.428	0.738	-0.7977299283139438	draw_card	0.0	columbia_card_task_fmri	14.0	0.7857142857142857	89.0	-65.0	0.2142857142857142	15.0	2.0	3.0	-1.9643992728140347	0.738	n/a	stim	s626
123.169	1.276	-2.0999277305117485	draw_card	1.0	columbia_card_task_fmri	14.0	0.7692307692307692	89.0	-65.0	0.2307692307692307	15.0	3.0	3.0	-1.0972897324836095	1.276	3.0	stim	s626
124.452	2.25	n/a	-1.0	n/a	columbia_card_task_fmri	n/a	n/a	-1.0	n/a	n/a	n/a	n/a	n/a	n/a	n/a	n/a	feedback	s626
126.702	0.204	n/a	-1.0	n/a	columbia_card_task_fmri	n/a	n/a	-1.0	n/a	n/a	n/a	n/a	n/a	n/a	n/a	n/a	ITI	s626
126.907	4.522	0.2558415002574832	end_round	0.0	columbia_card_task_fmri	1.0	0.9375	71.0	-45.0	0.0625	16.0	1.0	1.0	-23.113224780203943	4.522	0.0	stim	s626
131.434	2.25	n/a	-1.0	n/a	columbia_card_task_fmri	n/a	n/a	-1.0	n/a	n/a	n/a	n/a	n/a	n/a	n/a	n/a	feedback	s626
133.684	1.02	n/a	-1.0	n/a	columbia_card_task_fmri	n/a	n/a	-1.0	n/a	n/a	n/a	n/a	n/a	n/a	n/a	n/a	ITI	s626
134.706	2.819	1.1933415002574832	draw_card	1.0	columbia_card_task_fmri	15.0	0.8125	89.0	-70.0	0.1875	16.0	1.0	3.0	-1.205194748893554	2.819	1.0	stim	s626
137.532	2.25	n/a	-1.0	n/a	columbia_card_task_fmri	n/a	n/a	-1.0	n/a	n/a	n/a	n/a	n/a	n/a	n/a	n/a	feedback	s626
139.782	0.0	n/a	-1.0	n/a	columbia_card_task_fmri	n/a	n/a	-1.0	n/a	n/a	n/a	n/a	n/a	n/a	n/a	n/a	ITI	s626
139.784	3.021	8.130841500257484	draw_card	0.0	columbia_card_task_fmri	30.0	0.7	89.0	-50.0	0.3	10.0	1.0	3.0	2.2723739684730617	3.021	n/a	stim	s626
142.807	1.85	5.464174833590823	draw_card	1.0	columbia_card_task_fmri	30.0	0.6666666666666667	89.0	-50.0	0.3333333333333333	10.0	2.0	3.0	3.32240726922182	1.85	2.0	stim	s626
144.662	2.25	n/a	-1.0	n/a	columbia_card_task_fmri	n/a	n/a	-1.0	n/a	n/a	n/a	n/a	n/a	n/a	n/a	n/a	feedback	s626
146.912	0.0	n/a	-1.0	n/a	columbia_card_task_fmri	n/a	n/a	-1.0	n/a	n/a	n/a	n/a	n/a	n/a	n/a	n/a	ITI	s626
146.914	0.896	7.530841500257484	draw_card	1.0	columbia_card_task_fmri	17.0	0.8666666666666667	89.0	-70.0	0.1333333333333333	15.0	1.0	2.0	-4.799127508624441	0.896	1.0	stim	s626
147.812	2.25	n/a	-1.0	n/a	columbia_card_task_fmri	n/a	n/a	-1.0	n/a	n/a	n/a	n/a	n/a	n/a	n/a	n/a	feedback	s626
150.062	0.068	n/a	-1.0	n/a	columbia_card_task_fmri	n/a	n/a	-1.0	n/a	n/a	n/a	n/a	n/a	n/a	n/a	n/a	ITI	s626
150.132	1.746	2.755841500257483	draw_card	1.0	columbia_card_task_fmri	7.0	0.9375	89.0	-95.0	0.0625	16.0	1.0	1.0	-9.668058184530466	1.746	1.0	stim	s626
151.883	2.25	n/a	-1.0	n/a	columbia_card_task_fmri	n/a	n/a	-1.0	n/a	n/a	n/a	n/a	n/a	n/a	n/a	n/a	feedback	s626
154.133	0.476	n/a	-1.0	n/a	columbia_card_task_fmri	n/a	n/a	-1.0	n/a	n/a	n/a	n/a	n/a	n/a	n/a	n/a	ITI	s626
154.611	2.144	4.318341500257484	end_round	0.0	columbia_card_task_fmri	9.0	0.9375	71.0	-100.0	0.0625	16.0	1.0	1.0	-7.979502210967436	2.144	0.0	stim	s626
156.76	2.25	n/a	-1.0	n/a	columbia_card_task_fmri	n/a	n/a	-1.0	n/a	n/a	n/a	n/a	n/a	n/a	n/a	n/a	feedback	s626
159.01	0.136	n/a	-1.0	n/a	columbia_card_task_fmri	n/a	n/a	-1.0	n/a	n/a	n/a	n/a	n/a	n/a	n/a	n/a	ITI	s626
159.149	1.267	5.255841500257484	draw_card	1.0	columbia_card_task_fmri	15.0	0.875	89.0	-80.0	0.125	16.0	1.0	2.0	-2.959632790196572	1.267	1.0	stim	s626
160.419	2.25	n/a	-1.0	n/a	columbia_card_task_fmri	n/a	n/a	-1.0	n/a	n/a	n/a	n/a	n/a	n/a	n/a	n/a	feedback	s626
162.669	0.068	n/a	-1.0	n/a	columbia_card_task_fmri	n/a	n/a	-1.0	n/a	n/a	n/a	n/a	n/a	n/a	n/a	n/a	ITI	s626
162.739	1.026	7.380841500257484	end_round	0.0	columbia_card_task_fmri	16.0	0.875	71.0	-70.0	0.125	16.0	1.0	2.0	-5.928569856718923	1.026	0.0	stim	s626
163.772	2.25	n/a	-1.0	n/a	columbia_card_task_fmri	n/a	n/a	-1.0	n/a	n/a	n/a	n/a	n/a	n/a	n/a	n/a	feedback	s626
166.022	0.0	n/a	-1.0	n/a	columbia_card_task_fmri	n/a	n/a	-1.0	n/a	n/a	n/a	n/a	n/a	n/a	n/a	n/a	ITI	s626
166.025	2.615	8.693341500257484	draw_card	0.0	columbia_card_task_fmri	30.0	0.6875	89.0	-45.0	0.3125	16.0	1.0	5.0	0.3785693441803275	2.615	n/a	stim	s626
168.643	4.813	7.130841500257487	draw_card	1.0	columbia_card_task_fmri	30.0	0.6666666666666667	89.0	-45.0	0.3333333333333333	16.0	2.0	5.0	0.9693876903011258	4.813	2.0	stim	s626
173.458	2.25	n/a	-1.0	n/a	columbia_card_task_fmri	n/a	n/a	-1.0	n/a	n/a	n/a	n/a	n/a	n/a	n/a	n/a	feedback	s626
175.708	0.0	n/a	-1.0	n/a	columbia_card_task_fmri	n/a	n/a	-1.0	n/a	n/a	n/a	n/a	n/a	n/a	n/a	n/a	ITI	s626
175.71	2.426	0.4641748335908171	draw_card	0.0	columbia_card_task_fmri	13.0	0.8333333333333334	89.0	-75.0	0.1666666666666666	6.0	1.0	1.0	-1.585290689598807	2.426	n/a	stim	s626
178.139	1.823	-2.4691584997425164	end_round	0.0	columbia_card_task_fmri	13.0	0.8	71.0	-75.0	0.2	6.0	2.0	1.0	0.8143312288588049	1.823	1.0	stim	s626
179.969	2.25	n/a	-1.0	n/a	columbia_card_task_fmri	n/a	n/a	-1.0	n/a	n/a	n/a	n/a	n/a	n/a	n/a	n/a	feedback	s626
182.219	0.204	n/a	-1.0	n/a	columbia_card_task_fmri	n/a	n/a	-1.0	n/a	n/a	n/a	n/a	n/a	n/a	n/a	n/a	ITI	s626
182.424	3.866	2.130841500257485	draw_card	0.0	columbia_card_task_fmri	14.0	0.8333333333333334	89.0	-70.0	0.1666666666666666	6.0	1.0	1.0	-3.0727172012996604	3.866	n/a	stim	s626
186.292	1.088	-0.6691584997425157	draw_card	0.0	columbia_card_task_fmri	14.0	0.8	89.0	-70.0	0.2	6.0	2.0	1.0	-0.7826063762681912	1.088	n/a	stim	s626
187.381	2.558	-4.869158499742516	draw_card	0.0	columbia_card_task_fmri	14.0	0.75	89.0	-70.0	0.25	6.0	3.0	1.0	1.98532366190598	2.558	n/a	stim	s626
189.942	0.849	-11.869158499742516	end_round	0.0	columbia_card_task_fmri	14.0	0.6666666666666667	71.0	-70.0	0.3333333333333333	6.0	4.0	1.0	5.205165263616479	0.849	3.0	stim	s626
190.796	2.25	n/a	-1.0	n/a	columbia_card_task_fmri	n/a	n/a	-1.0	n/a	n/a	n/a	n/a	n/a	n/a	n/a	n/a	feedback	s626
193.046	0.204	n/a	-1.0	n/a	columbia_card_task_fmri	n/a	n/a	-1.0	n/a	n/a	n/a	n/a	n/a	n/a	n/a	n/a	ITI	s626
193.251	1.607	2.130841500257485	draw_card	0.0	columbia_card_task_fmri	16.0	0.8333333333333334	89.0	-80.0	0.1666666666666666	6.0	1.0	1.0	1.3903813550174815	1.607	n/a	stim	s626
194.86	1.042	-1.069158499742516	draw_card	0.0	columbia_card_task_fmri	16.0	0.8	89.0	-80.0	0.2	6.0	2.0	1.0	4.008970137856394	1.042	n/a	stim	s626
195.905	1.384	-5.869158499742516	draw_card	1.0	columbia_card_task_fmri	16.0	0.75	89.0	-80.0	0.25	6.0	3.0	1.0	7.173691780192897	1.384	3.0	stim	s626
197.294	2.25	n/a	-1.0	n/a	columbia_card_task_fmri	n/a	n/a	-1.0	n/a	n/a	n/a	n/a	n/a	n/a	n/a	n/a	feedback	s626
199.544	0.272	n/a	-1.0	n/a	columbia_card_task_fmri	n/a	n/a	-1.0	n/a	n/a	n/a	n/a	n/a	n/a	n/a	n/a	ITI	s626
199.819	0.491	4.630841500257485	draw_card	0.0	columbia_card_task_fmri	17.0	0.8333333333333334	89.0	-70.0	0.1666666666666666	6.0	1.0	1.0	-1.9571755484451288	0.491	n/a	stim	s626
200.312	1.284	1.7308415002574846	draw_card	0.0	columbia_card_task_fmri	17.0	0.8	89.0	-70.0	0.2	6.0	2.0	1.0	0.4150705021998959	1.284	n/a	stim	s626
201.599	2.65	-2.619158499742517	draw_card	0.0	columbia_card_task_fmri	17.0	0.75	89.0	-70.0	0.25	6.0	3.0	1.0	3.282214845623855	2.65	n/a	stim	s626
204.253	1.688	-9.869158499742516	end_round	0.0	columbia_card_task_fmri	17.0	0.6666666666666667	71.0	-70.0	0.3333333333333333	6.0	4.0	1.0	6.617405988139801	1.688	3.0	stim	s626
205.947	2.25	n/a	-1.0	n/a	columbia_card_task_fmri	n/a	n/a	-1.0	n/a	n/a	n/a	n/a	n/a	n/a	n/a	n/a	feedback	s626
208.197	0.136	n/a	-1.0	n/a	columbia_card_task_fmri	n/a	n/a	-1.0	n/a	n/a	n/a	n/a	n/a	n/a	n/a	n/a	ITI	s626
208.336	0.883	4.630841500257484	draw_card	0.0	columbia_card_task_fmri	25.0	0.75	89.0	-65.0	0.25	8.0	1.0	2.0	4.579248826165077	0.883	n/a	stim	s626
209.221	1.81	1.4165557859717717	draw_card	0.0	columbia_card_task_fmri	25.0	0.7142857142857143	89.0	-65.0	0.2857142857142857	8.0	2.0	2.0	6.263549754654093	1.81	n/a	stim	s626
211.033	2.069	-2.869158499742513	draw_card	1.0	columbia_card_task_fmri	25.0	0.6666666666666667	89.0	-65.0	0.3333333333333333	8.0	3.0	2.0	8.029777978198233	2.069	3.0	stim	s626
213.106	2.25	n/a	-1.0	n/a	columbia_card_task_fmri	n/a	n/a	-1.0	n/a	n/a	n/a	n/a	n/a	n/a	n/a	n/a	feedback	s626
215.356	0.204	n/a	-1.0	n/a	columbia_card_task_fmri	n/a	n/a	-1.0	n/a	n/a	n/a	n/a	n/a	n/a	n/a	n/a	ITI	s626
215.561	2.536	4.630841500257484	draw_card	0.0	columbia_card_task_fmri	30.0	0.75	89.0	-80.0	0.25	8.0	1.0	2.0	13.228930796210811	2.536	n/a	stim	s626
218.099	1.529	0.7022700716860597	draw_card	0.0	columbia_card_task_fmri	30.0	0.7142857142857143	89.0	-80.0	0.2857142857142857	8.0	2.0	2.0	15.288493776176352	1.529	n/a	stim	s626
219.631	2.144	-4.535825166409177	draw_card	0.0	columbia_card_task_fmri	30.0	0.6666666666666667	89.0	-80.0	0.3333333333333333	8.0	3.0	2.0	17.44815451415122	2.144	n/a	stim	s626
221.778	1.837	-11.869158499742516	end_round	0.0	columbia_card_task_fmri	30.0	0.6	71.0	-80.0	0.4	8.0	4.0	2.0	19.480780866874998	1.837	3.0	stim	s626
223.62	2.25	n/a	-1.0	n/a	columbia_card_task_fmri	n/a	n/a	-1.0	n/a	n/a	n/a	n/a	n/a	n/a	n/a	n/a	feedback	s626
225.87	0.272	n/a	-1.0	n/a	columbia_card_task_fmri	n/a	n/a	-1.0	n/a	n/a	n/a	n/a	n/a	n/a	n/a	n/a	ITI	s626
226.143	1.051	4.330841500257485	draw_card	0.0	columbia_card_task_fmri	13.0	0.9	89.0	-95.0	0.1	10.0	1.0	1.0	-1.9801117083675592	1.051	n/a	stim	s626
227.197	0.425	3.130841500257483	draw_card	1.0	columbia_card_task_fmri	13.0	0.8888888888888888	89.0	-95.0	0.1111111111111111	10.0	2.0	1.0	-0.4421579382127447	0.425	2.0	stim	s626
227.625	2.25	n/a	-1.0	n/a	columbia_card_task_fmri	n/a	n/a	-1.0	n/a	n/a	n/a	n/a	n/a	n/a	n/a	n/a	feedback	s626
229.875	0.272	n/a	-1.0	n/a	columbia_card_task_fmri	n/a	n/a	-1.0	n/a	n/a	n/a	n/a	n/a	n/a	n/a	n/a	ITI	s626
230.15	0.748	5.730841500257483	draw_card	1.0	columbia_card_task_fmri	14.0	0.9	89.0	-90.0	0.1	10.0	1.0	1.0	-3.17742578733575	0.748	1.0	stim	s626
230.901	2.25	n/a	-1.0	n/a	columbia_card_task_fmri	n/a	n/a	-1.0	n/a	n/a	n/a	n/a	n/a	n/a	n/a	n/a	feedback	s626
233.151	0.34	n/a	-1.0	n/a	columbia_card_task_fmri	n/a	n/a	-1.0	n/a	n/a	n/a	n/a	n/a	n/a	n/a	n/a	ITI	s626
233.494	3.776	0.930841500257484	draw_card	0.0	columbia_card_task_fmri	16.0	0.8	89.0	-70.0	0.2	10.0	1.0	2.0	0.0158269192030502	3.776	n/a	stim	s626
237.272	0.849	-0.9802696108536276	draw_card	0.0	columbia_card_task_fmri	16.0	0.7777777777777778	89.0	-70.0	0.2222222222222222	10.0	2.0	2.0	1.3669502926084576	0.849	n/a	stim	s626
238.123	1.438	-3.369158499742517	draw_card	0.0	columbia_card_task_fmri	16.0	0.75	89.0	-70.0	0.25	10.0	3.0	2.0	2.8499011824918554	1.438	n/a	stim	s626
239.564	3.796	-6.440587071171088	end_round	0.0	columbia_card_task_fmri	16.0	0.7142857142857143	71.0	-70.0	0.2857142857142857	10.0	4.0	2.0	4.459125463583284	3.796	3.0	stim	s626
243.363	2.25	n/a	-1.0	n/a	columbia_card_task_fmri	n/a	n/a	-1.0	n/a	n/a	n/a	n/a	n/a	n/a	n/a	n/a	feedback	s626
245.613	0.204	n/a	-1.0	n/a	columbia_card_task_fmri	n/a	n/a	-1.0	n/a	n/a	n/a	n/a	n/a	n/a	n/a	n/a	ITI	s626
245.819	2.939	0.2141748335908171	end_round	0.0	columbia_card_task_fmri	7.0	0.9166666666666666	71.0	-100.0	0.0833333333333333	12.0	1.0	1.0	-4.800200192671401	2.939	0.0	stim	s626
248.763	2.25	n/a	-1.0	n/a	columbia_card_task_fmri	n/a	n/a	-1.0	n/a	n/a	n/a	n/a	n/a	n/a	n/a	n/a	feedback	s626
251.013	0.068	n/a	-1.0	n/a	columbia_card_task_fmri	n/a	n/a	-1.0	n/a	n/a	n/a	n/a	n/a	n/a	n/a	n/a	ITI	s626
251.084	1.889	0.4641748335908189	draw_card	0.0	columbia_card_task_fmri	14.0	0.8333333333333334	89.0	-80.0	0.1666666666666666	12.0	1.0	2.0	0.6463718156409968	1.889	n/a	stim	s626
252.976	0.479	-0.9600675906516104	draw_card	0.0	columbia_card_task_fmri	14.0	0.8181818181818181	89.0	-80.0	0.1818181818181818	12.0	2.0	2.0	1.8677520794743288	0.479	n/a	stim	s626
253.457	1.053	-2.669158499742516	draw_card	0.0	columbia_card_task_fmri	14.0	0.8	89.0	-80.0	0.2	12.0	3.0	2.0	3.210225069973241	1.053	n/a	stim	s626
254.513	1.085	-4.758047388631406	draw_card	1.0	columbia_card_task_fmri	14.0	0.7777777777777778	89.0	-80.0	0.2222222222222222	12.0	4.0	2.0	4.687477150162657	1.085	4.0	stim	s626
255.605	2.25	n/a	-1.0	n/a	columbia_card_task_fmri	n/a	n/a	-1.0	n/a	n/a	n/a	n/a	n/a	n/a	n/a	n/a	feedback	s626
257.855	0.0	n/a	-1.0	n/a	columbia_card_task_fmri	n/a	n/a	-1.0	n/a	n/a	n/a	n/a	n/a	n/a	n/a	n/a	ITI	s626
257.858	1.129	2.130841500257483	draw_card	0.0	columbia_card_task_fmri	15.0	0.8333333333333334	89.0	-75.0	0.1666666666666666	12.0	1.0	2.0	-0.8414682585713535	1.129	n/a	stim	s626
258.989	3.001	0.7672051366211181	draw_card	1.0	columbia_card_task_fmri	15.0	0.8181818181818181	89.0	-75.0	0.1818181818181818	12.0	2.0	2.0	0.3277491681628675	3.001	2.0	stim	s626
261.997	2.25	n/a	-1.0	n/a	columbia_card_task_fmri	n/a	n/a	-1.0	n/a	n/a	n/a	n/a	n/a	n/a	n/a	n/a	feedback	s626
264.247	0.408	n/a	-1.0	n/a	columbia_card_task_fmri	n/a	n/a	-1.0	n/a	n/a	n/a	n/a	n/a	n/a	n/a	n/a	ITI	s626
264.658	2.484	1.1308415002574832	draw_card	0.0	columbia_card_task_fmri	15.0	0.8	89.0	-65.0	0.2	15.0	1.0	3.0	-2.3792387095718723	2.484	n/a	stim	s626
267.145	1.053	-0.0120156425996591	draw_card	0.0	columbia_card_task_fmri	15.0	0.7857142857142857	89.0	-65.0	0.2142857142857142	15.0	2.0	3.0	-1.554946017408028	1.053	n/a	stim	s626
268.201	3.364	-1.3306969612809805	draw_card	0.0	columbia_card_task_fmri	15.0	0.7692307692307692	89.0	-65.0	0.2307692307692307	15.0	3.0	3.0	-0.6768146944002567	3.364	n/a	stim	s626
271.568	2.095	-2.869158499742517	draw_card	1.0	columbia_card_task_fmri	15.0	0.75	89.0	-65.0	0.25	15.0	4.0	3.0	0.2563852129632948	2.095	4.0	stim	s626
273.668	2.25	n/a	-1.0	n/a	columbia_card_task_fmri	n/a	n/a	-1.0	n/a	n/a	n/a	n/a	n/a	n/a	n/a	n/a	feedback	s626
275.918	0.204	n/a	-1.0	n/a	columbia_card_task_fmri	n/a	n/a	-1.0	n/a	n/a	n/a	n/a	n/a	n/a	n/a	n/a	ITI	s626
276.124	3.787	0.3808415002574832	draw_card	0.0	columbia_card_task_fmri	14.0	0.8125	89.0	-70.0	0.1875	16.0	1.0	3.0	-1.5946950328771052	3.787	n/a	stim	s626
279.914	2.039	-0.6691584997425157	draw_card	1.0	columbia_card_task_fmri	14.0	0.8	89.0	-70.0	0.2	16.0	2.0	3.0	-0.7826063762681912	2.039	2.0	stim	s626
281.96	2.25	n/a	-1.0	n/a	columbia_card_task_fmri	n/a	n/a	-1.0	n/a	n/a	n/a	n/a	n/a	n/a	n/a	n/a	feedback	s626
284.21	0.136	n/a	-1.0	n/a	columbia_card_task_fmri	n/a	n/a	-1.0	n/a	n/a	n/a	n/a	n/a	n/a	n/a	n/a	ITI	s626
284.349	5.576	0.3183415002574832	draw_card	1.0	columbia_card_task_fmri	11.0	0.6875	89.0	-30.0	0.3125	16.0	1.0	5.0	-15.32700857712556	5.576	1.0	stim	s626
289.933	2.25	n/a	-1.0	n/a	columbia_card_task_fmri	n/a	n/a	-1.0	n/a	n/a	n/a	n/a	n/a	n/a	n/a	n/a	feedback	s626
292.183	0.34	n/a	-1.0	n/a	columbia_card_task_fmri	n/a	n/a	-1.0	n/a	n/a	n/a	n/a	n/a	n/a	n/a	n/a	ITI	s626
292.525	6.823	5.130841500257484	draw_card	0.0	columbia_card_task_fmri	15.0	0.8666666666666667	89.0	-75.0	0.1333333333333333	15.0	1.0	2.0	-3.7818728120869487	6.823	n/a	stim	s626
299.351	1.583	4.273698643114628	draw_card	1.0	columbia_card_task_fmri	15.0	0.8571428571428572	89.0	-75.0	0.1428571428571428	15.0	2.0	2.0	-2.884661875572497	1.583	2.0	stim	s626
300.941	2.25	n/a	-1.0	n/a	columbia_card_task_fmri	n/a	n/a	-1.0	n/a	n/a	n/a	n/a	n/a	n/a	n/a	n/a	feedback	s626
303.191	0.068	n/a	-1.0	n/a	columbia_card_task_fmri	n/a	n/a	-1.0	n/a	n/a	n/a	n/a	n/a	n/a	n/a	n/a	ITI	s626
303.261	1.755	6.864174833590818	draw_card	0.0	columbia_card_task_fmri	17.0	0.8666666666666667	89.0	-75.0	0.1333333333333333	15.0	1.0	2.0	-3.103610980534832	1.755	n/a	stim	s626
305.02	0.427	5.987984357400343	draw_card	0.0	columbia_card_task_fmri	17.0	0.8571428571428572	89.0	-75.0	0.1428571428571428	15.0	2.0	2.0	-2.186369510161704	0.427	n/a	stim	s626
305.45	2.968	4.97699534641133	draw_card	0.0	columbia_card_task_fmri	17.0	0.8461538461538461	89.0	-75.0	0.1538461538461538	15.0	3.0	2.0	-1.1880703501161562	2.968	n/a	stim	s626
308.42	3.741	3.797508166924151	end_round	0.0	columbia_card_task_fmri	17.0	0.8333333333333334	71.0	-75.0	0.1666666666666666	15.0	4.0	2.0	-0.097579347749459	3.741	3.0	stim	s626
312.168	2.25	n/a	-1.0	n/a	columbia_card_task_fmri	n/a	n/a	-1.0	n/a	n/a	n/a	n/a	n/a	n/a	n/a	n/a	feedback	s626
314.418	0.34	n/a	-1.0	n/a	columbia_card_task_fmri	n/a	n/a	-1.0	n/a	n/a	n/a	n/a	n/a	n/a	n/a	n/a	ITI	s626
314.761	2.78	2.443341500257483	draw_card	0.0	columbia_card_task_fmri	2.0	0.9375	89.0	-25.0	0.0625	16.0	1.0	1.0	-27.57585414819571	2.78	n/a	stim	s626
317.544	0.428	2.330841500257483	draw_card	1.0	columbia_card_task_fmri	2.0	0.9333333333333332	89.0	-25.0	0.0666666666666666	16.0	2.0	1.0	-27.386077756283257	0.428	2.0	stim	s626
317.978	2.25	n/a	-1.0	n/a	columbia_card_task_fmri	n/a	n/a	-1.0	n/a	n/a	n/a	n/a	n/a	n/a	n/a	n/a	feedback	s626
320.228	0.136	n/a	-1.0	n/a	columbia_card_task_fmri	n/a	n/a	-1.0	n/a	n/a	n/a	n/a	n/a	n/a	n/a	n/a	ITI	s626
320.368	3.111	4.630841500257484	end_round	0.0	columbia_card_task_fmri	9.0	0.9375	71.0	-95.0	0.0625	16.0	1.0	1.0	-9.185693883766437	3.111	0.0	stim	s626
323.482	2.25	n/a	-1.0	n/a	columbia_card_task_fmri	n/a	n/a	-1.0	n/a	n/a	n/a	n/a	n/a	n/a	n/a	n/a	feedback	s626
325.732	0.068	n/a	-1.0	n/a	columbia_card_task_fmri	n/a	n/a	-1.0	n/a	n/a	n/a	n/a	n/a	n/a	n/a	n/a	ITI	s626
325.802	4.163	6.193341500257484	end_round	0.0	columbia_card_task_fmri	11.0	0.9375	71.0	-100.0	0.0625	16.0	1.0	1.0	-7.496922225037402	4.163	0.0	stim	s626
329.97	2.25	n/a	-1.0	n/a	columbia_card_task_fmri	n/a	n/a	-1.0	n/a	n/a	n/a	n/a	n/a	n/a	n/a	n/a	feedback	s626
332.22	0.068	n/a	-1.0	n/a	columbia_card_task_fmri	n/a	n/a	-1.0	n/a	n/a	n/a	n/a	n/a	n/a	n/a	n/a	ITI	s626
332.291	1.769	6.755841500257484	draw_card	0.0	columbia_card_task_fmri	16.0	0.875	89.0	-75.0	0.125	16.0	1.0	2.0	-4.279343643089579	1.769	n/a	stim	s626
334.063	2.719	5.997508166924151	draw_card	0.0	columbia_card_task_fmri	16.0	0.8666666666666667	89.0	-75.0	0.1333333333333333	16.0	2.0	2.0	-3.4427506970849286	2.719	n/a	stim	s626
336.785	1.246	5.130841500257485	draw_card	0.0	columbia_card_task_fmri	16.0	0.8571428571428572	89.0	-75.0	0.1428571428571428	16.0	3.0	2.0	-2.535524245738582	1.246	n/a	stim	s626
338.035	3.318	4.130841500257484	end_round	0.0	columbia_card_task_fmri	16.0	0.8461538461538461	71.0	-75.0	0.1538461538461538	16.0	4.0	2.0	-1.548122323003227	3.318	3.0	stim	s626
341.359	2.25	n/a	-1.0	n/a	columbia_card_task_fmri	n/a	n/a	-1.0	n/a	n/a	n/a	n/a	n/a	n/a	n/a	n/a	feedback	s626
343.609	0.068	n/a	-1.0	n/a	columbia_card_task_fmri	n/a	n/a	-1.0	n/a	n/a	n/a	n/a	n/a	n/a	n/a	n/a	ITI	s626
343.68	2.487	7.005841500257484	draw_card	0.0	columbia_card_task_fmri	17.0	0.875	89.0	-80.0	0.125	16.0	1.0	2.0	-2.299679815148714	2.487	n/a	stim	s626
346.169	0.543	6.197508166924152	draw_card	0.0	columbia_card_task_fmri	17.0	0.8666666666666667	89.0	-80.0	0.1333333333333333	16.0	2.0	2.0	-1.4076673446427534	0.543	n/a	stim	s626
346.715	2.166	5.2736986431146295	draw_card	0.0	columbia_card_task_fmri	17.0	0.8571428571428572	89.0	-80.0	0.1428571428571428	16.0	3.0	2.0	-0.4403576863879195	2.166	n/a	stim	s626
348.884	1.234	4.20776457718056	draw_card	0.0	columbia_card_task_fmri	17.0	0.8461538461538461	89.0	-80.0	0.1538461538461538	16.0	4.0	2.0	0.612420570145396	1.234	n/a	stim	s626
350.122	1.87	2.964174833590819	draw_card	0.0	columbia_card_task_fmri	17.0	0.8333333333333334	89.0	-80.0	0.1666666666666666	16.0	5.0	2.0	1.7624068912998323	1.87	n/a	stim	s626
351.994	1.054	1.4944778638938447	draw_card	1.0	columbia_card_task_fmri	17.0	0.8181818181818181	89.0	-80.0	0.1818181818181818	16.0	6.0	2.0	3.0229041067492872	1.054	6.0	stim	s626
353.055	2.25	n/a	-1.0	n/a	columbia_card_task_fmri	n/a	n/a	-1.0	n/a	n/a	n/a	n/a	n/a	n/a	n/a	n/a	feedback	s626
355.305	0.136	n/a	-1.0	n/a	columbia_card_task_fmri	n/a	n/a	-1.0	n/a	n/a	n/a	n/a	n/a	n/a	n/a	n/a	ITI	s626
366.445	2.243	1.297508166924151	draw_card	0.0	columbia_card_task_fmri	13.0	0.8333333333333334	89.0	-70.0	0.1666666666666666	6.0	1.0	1.0	-3.4445245205498445	2.243	n/a	stim	s626
368.692	1.305	-1.4691584997425164	draw_card	0.0	columbia_card_task_fmri	13.0	0.8	89.0	-70.0	0.2	6.0	2.0	1.0	-1.1817947958599788	1.305	n/a	stim	s626
370.0	1.634	-5.619158499742516	end_round	0.0	columbia_card_task_fmri	13.0	0.75	71.0	-70.0	0.25	6.0	3.0	1.0	1.5530610004821952	1.634	2.0	stim	s626
371.641	2.25	n/a	-1.0	n/a	columbia_card_task_fmri	n/a	n/a	-1.0	n/a	n/a	n/a	n/a	n/a	n/a	n/a	n/a	feedback	s626
373.891	0.0	n/a	-1.0	n/a	columbia_card_task_fmri	n/a	n/a	-1.0	n/a	n/a	n/a	n/a	n/a	n/a	n/a	n/a	ITI	s626
373.894	1.522	1.297508166924151	draw_card	0.0	columbia_card_task_fmri	15.0	0.8333333333333334	89.0	-80.0	0.1666666666666666	6.0	1.0	1.0	1.0183695179240289	1.522	n/a	stim	s626
375.419	2.133	-1.8691584997425168	draw_card	0.0	columbia_card_task_fmri	15.0	0.8	89.0	-80.0	0.2	6.0	2.0	1.0	3.6095910145415786	2.133	n/a	stim	s626
377.555	1.657	-6.619158499742516	end_round	0.0	columbia_card_task_fmri	15.0	0.75	71.0	-80.0	0.25	6.0	3.0	1.0	6.7412528154489735	1.657	2.0	stim	s626
379.217	2.25	n/a	-1.0	n/a	columbia_card_task_fmri	n/a	n/a	-1.0	n/a	n/a	n/a	n/a	n/a	n/a	n/a	n/a	feedback	s626
381.467	0.136	n/a	-1.0	n/a	columbia_card_task_fmri	n/a	n/a	-1.0	n/a	n/a	n/a	n/a	n/a	n/a	n/a	n/a	ITI	s626
381.605	0.717	2.964174833590817	draw_card	0.0	columbia_card_task_fmri	16.0	0.8333333333333334	89.0	-75.0	0.1666666666666666	6.0	1.0	1.0	-0.4695318402659865	0.717	n/a	stim	s626
382.326	0.998	-0.069158499742516	draw_card	0.0	columbia_card_task_fmri	16.0	0.8	89.0	-75.0	0.2	6.0	2.0	1.0	2.012210639017418	0.998	n/a	stim	s626
383.327	0.844	-4.619158499742516	draw_card	0.0	columbia_card_task_fmri	16.0	0.75	89.0	-75.0	0.25	6.0	3.0	1.0	5.011622785367898	0.844	n/a	stim	s626
384.174	0.96	-12.202491833075849	end_round	0.0	columbia_card_task_fmri	16.0	0.6666666666666667	71.0	-75.0	0.3333333333333333	6.0	4.0	1.0	8.500595573530788	0.96	3.0	stim	s626
385.141	2.25	n/a	-1.0	n/a	columbia_card_task_fmri	n/a	n/a	-1.0	n/a	n/a	n/a	n/a	n/a	n/a	n/a	n/a	feedback	s626
387.391	0.34	n/a	-1.0	n/a	columbia_card_task_fmri	n/a	n/a	-1.0	n/a	n/a	n/a	n/a	n/a	n/a	n/a	n/a	ITI	s626
387.735	2.865	4.130841500257484	draw_card	0.0	columbia_card_task_fmri	21.0	0.75	89.0	-55.0	0.25	8.0	1.0	2.0	-1.472226596015588	2.865	n/a	stim	s626
390.603	0.761	1.4165557859717697	draw_card	1.0	columbia_card_task_fmri	21.0	0.7142857142857143	89.0	-55.0	0.2857142857142857	8.0	2.0	2.0	-0.0507449288218637	0.761	2.0	stim	s626
391.367	2.25	n/a	-1.0	n/a	columbia_card_task_fmri	n/a	n/a	-1.0	n/a	n/a	n/a	n/a	n/a	n/a	n/a	n/a	feedback	s626
393.617	0.408	n/a	-1.0	n/a	columbia_card_task_fmri	n/a	n/a	-1.0	n/a	n/a	n/a	n/a	n/a	n/a	n/a	n/a	ITI	s626
394.027	2.099	5.380841500257484	draw_card	0.0	columbia_card_task_fmri	26.0	0.75	89.0	-65.0	0.25	8.0	1.0	2.0	5.011622785367898	2.099	n/a	stim	s626
396.128	2.298	2.1308415002574868	draw_card	0.0	columbia_card_task_fmri	26.0	0.7142857142857143	89.0	-65.0	0.2857142857142857	8.0	2.0	2.0	6.7146913519515365	2.298	n/a	stim	s626
398.43	2.101	-2.2024918330758454	draw_card	0.0	columbia_card_task_fmri	26.0	0.6666666666666667	89.0	-65.0	0.3333333333333333	8.0	3.0	2.0	8.500595573530788	2.101	n/a	stim	s626
400.535	1.524	-8.269158499742517	draw_card	0.0	columbia_card_task_fmri	26.0	0.6	89.0	-65.0	0.4	8.0	4.0	2.0	10.181503266344947	1.524	n/a	stim	s626
402.062	2.051	-17.369158499742518	end_round	0.0	columbia_card_task_fmri	26.0	0.5	71.0	-65.0	0.5	8.0	5.0	2.0	11.099762791713845	2.051	4.0	stim	s626
404.119	2.25	n/a	-1.0	n/a	columbia_card_task_fmri	n/a	n/a	-1.0	n/a	n/a	n/a	n/a	n/a	n/a	n/a	n/a	feedback	s626
406.369	0.136	n/a	-1.0	n/a	columbia_card_task_fmri	n/a	n/a	-1.0	n/a	n/a	n/a	n/a	n/a	n/a	n/a	n/a	ITI	s626
406.507	3.465	0.4641748335908171	draw_card	0.0	columbia_card_task_fmri	15.0	0.7777777777777778	89.0	-60.0	0.2222222222222222	9.0	1.0	2.0	-3.19690216616063	3.465	n/a	stim	s626
409.976	1.331	-1.6191584997425168	draw_card	0.0	columbia_card_task_fmri	15.0	0.75	89.0	-60.0	0.25	9.0	2.0	2.0	-1.904322411324856	1.331	n/a	stim	s626
411.31	2.298	-4.297729928313943	draw_card	0.0	columbia_card_task_fmri	15.0	0.7142857142857143	89.0	-60.0	0.2857142857142857	9.0	3.0	2.0	-0.5016198044937354	2.298	n/a	stim	s626
413.611	6.46	-7.869158499742515	draw_card	0.0	columbia_card_task_fmri	15.0	0.6666666666666667	89.0	-60.0	0.3333333333333333	9.0	4.0	2.0	0.9693876903011328	6.46	n/a	stim	s626
420.075	1.742	-12.869158499742516	draw_card	1.0	columbia_card_task_fmri	15.0	0.6	89.0	-60.0	0.4	9.0	5.0	2.0	2.3539771314268947	1.742	5.0	stim	s626
421.821	2.25	n/a	-1.0	n/a	columbia_card_task_fmri	n/a	n/a	-1.0	n/a	n/a	n/a	n/a	n/a	n/a	n/a	n/a	feedback	s626
424.071	0.136	n/a	-1.0	n/a	columbia_card_task_fmri	n/a	n/a	-1.0	n/a	n/a	n/a	n/a	n/a	n/a	n/a	n/a	ITI	s626
424.211	0.807	4.830841500257485	draw_card	0.0	columbia_card_task_fmri	13.0	0.9	89.0	-90.0	0.1	10.0	1.0	1.0	-3.476721824552918	0.807	n/a	stim	s626
425.021	0.406	3.686397055813039	draw_card	1.0	columbia_card_task_fmri	13.0	0.8888888888888888	89.0	-90.0	0.1111111111111111	10.0	2.0	1.0	-2.010269403713565	0.406	2.0	stim	s626
425.435	2.25	n/a	-1.0	n/a	columbia_card_task_fmri	n/a	n/a	-1.0	n/a	n/a	n/a	n/a	n/a	n/a	n/a	n/a	feedback	s626
427.685	0.0	n/a	-1.0	n/a	columbia_card_task_fmri	n/a	n/a	-1.0	n/a	n/a	n/a	n/a	n/a	n/a	n/a	n/a	ITI	s626
427.688	1.806	6.130841500257484	draw_card	0.0	columbia_card_task_fmri	15.0	0.9	89.0	-95.0	0.1	10.0	1.0	1.0	-1.381381650453612	1.806	n/a	stim	s626
429.496	0.792	4.90861927803526	end_round	0.0	columbia_card_task_fmri	15.0	0.8888888888888888	71.0	-95.0	0.1111111111111111	10.0	2.0	1.0	0.1851688020640693	0.792	1.0	stim	s626
430.295	2.25	n/a	-1.0	n/a	columbia_card_task_fmri	n/a	n/a	-1.0	n/a	n/a	n/a	n/a	n/a	n/a	n/a	n/a	feedback	s626
432.545	0.068	n/a	-1.0	n/a	columbia_card_task_fmri	n/a	n/a	-1.0	n/a	n/a	n/a	n/a	n/a	n/a	n/a	n/a	ITI	s626
432.617	1.5	1.930841500257484	draw_card	0.0	columbia_card_task_fmri	16.0	0.8	89.0	-65.0	0.2	10.0	1.0	2.0	-1.9801117083675663	1.5	n/a	stim	s626
434.12	1.552	0.1308415002574849	draw_card	0.0	columbia_card_task_fmri	16.0	0.7777777777777778	89.0	-65.0	0.2222222222222222	10.0	2.0	2.0	-0.707839759943802	1.552	n/a	stim	s626
435.674	2.092	-2.119158499742517	draw_card	0.0	columbia_card_task_fmri	16.0	0.75	89.0	-65.0	0.25	10.0	3.0	2.0	0.6885910859550961	2.092	n/a	stim	s626
437.771	0.553	-5.012015642599657	end_round	0.0	columbia_card_task_fmri	16.0	0.7142857142857143	71.0	-65.0	0.2857142857142857	10.0	4.0	2.0	2.2039541677269554	0.553	3.0	stim	s626
438.331	2.25	n/a	-1.0	n/a	columbia_card_task_fmri	n/a	n/a	-1.0	n/a	n/a	n/a	n/a	n/a	n/a	n/a	n/a	feedback	s626
440.581	0.0	n/a	-1.0	n/a	columbia_card_task_fmri	n/a	n/a	-1.0	n/a	n/a	n/a	n/a	n/a	n/a	n/a	n/a	ITI	s626
440.585	1.475	0.6308415002574832	end_round	0.0	columbia_card_task_fmri	7.0	0.9166666666666666	71.0	-95.0	0.0833333333333333	12.0	1.0	1.0	-6.178379423161509	1.475	0.0	stim	s626
442.065	2.25	n/a	-1.0	n/a	columbia_card_task_fmri	n/a	n/a	-1.0	n/a	n/a	n/a	n/a	n/a	n/a	n/a	n/a	feedback	s626
444.315	0.0	n/a	-1.0	n/a	columbia_card_task_fmri	n/a	n/a	-1.0	n/a	n/a	n/a	n/a	n/a	n/a	n/a	n/a	ITI	s626
444.317	1.373	1.297508166924151	draw_card	1.0	columbia_card_task_fmri	14.0	0.8333333333333334	89.0	-75.0	0.1666666666666666	12.0	1.0	2.0	-1.2133880630288445	1.373	1.0	stim	s626
445.694	2.25	n/a	-1.0	n/a	columbia_card_task_fmri	n/a	n/a	-1.0	n/a	n/a	n/a	n/a	n/a	n/a	n/a	n/a	feedback	s626
447.944	0.136	n/a	-1.0	n/a	columbia_card_task_fmri	n/a	n/a	-1.0	n/a	n/a	n/a	n/a	n/a	n/a	n/a	n/a	ITI	s626
448.083	2.895	2.964174833590817	draw_card	0.0	columbia_card_task_fmri	15.0	0.8333333333333334	89.0	-70.0	0.1666666666666666	12.0	1.0	2.0	-2.700889465594092	2.895	n/a	stim	s626
450.982	0.975	1.6762960457120264	draw_card	0.0	columbia_card_task_fmri	15.0	0.8181818181818181	89.0	-70.0	0.1818181818181818	12.0	2.0	2.0	-1.5968882238774782	0.975	n/a	stim	s626
451.961	1.965	0.1308415002574832	draw_card	1.0	columbia_card_task_fmri	15.0	0.8	89.0	-70.0	0.2	12.0	3.0	2.0	-0.3833989173880852	1.965	3.0	stim	s626
453.929	2.25	n/a	-1.0	n/a	columbia_card_task_fmri	n/a	n/a	-1.0	n/a	n/a	n/a	n/a	n/a	n/a	n/a	n/a	feedback	s626
456.179	0.136	n/a	-1.0	n/a	columbia_card_task_fmri	n/a	n/a	-1.0	n/a	n/a	n/a	n/a	n/a	n/a	n/a	n/a	ITI	s626
456.319	2.211	0.930841500257484	draw_card	1.0	columbia_card_task_fmri	16.0	0.8	89.0	-70.0	0.2	15.0	1.0	3.0	0.0158269192030502	2.211	1.0	stim	s626
458.533	2.25	n/a	-1.0	n/a	columbia_card_task_fmri	n/a	n/a	-1.0	n/a	n/a	n/a	n/a	n/a	n/a	n/a	n/a	feedback	s626
460.783	0.476	n/a	-1.0	n/a	columbia_card_task_fmri	n/a	n/a	-1.0	n/a	n/a	n/a	n/a	n/a	n/a	n/a	n/a	ITI	s626
461.263	1.52	1.3183415002574832	draw_card	0.0	columbia_card_task_fmri	14.0	0.8125	89.0	-65.0	0.1875	16.0	1.0	3.0	-3.541889116104379	1.52	n/a	stim	s626
462.787	0.432	0.3308415002574842	draw_card	1.0	columbia_card_task_fmri	14.0	0.8	89.0	-65.0	0.2	16.0	2.0	3.0	-2.778343683673306	0.432	2.0	stim	s626
463.227	2.25	n/a	-1.0	n/a	columbia_card_task_fmri	n/a	n/a	-1.0	n/a	n/a	n/a	n/a	n/a	n/a	n/a	n/a	feedback	s626
465.477	0.204	n/a	-1.0	n/a	columbia_card_task_fmri	n/a	n/a	-1.0	n/a	n/a	n/a	n/a	n/a	n/a	n/a	n/a	ITI	s626
465.684	1.843	1.0683415002574832	draw_card	0.0	columbia_card_task_fmri	16.0	0.8125	89.0	-75.0	0.1875	16.0	1.0	3.0	1.1321807062654656	1.843	n/a	stim	s626
467.53	1.32	-0.069158499742516	draw_card	0.0	columbia_card_task_fmri	16.0	0.8	89.0	-75.0	0.2	16.0	2.0	3.0	2.012210639017418	1.32	n/a	stim	s626
468.853	2.247	-1.369158499742515	draw_card	0.0	columbia_card_task_fmri	16.0	0.7857142857142857	89.0	-75.0	0.2142857142857142	16.0	3.0	3.0	2.9503022323893475	2.247	n/a	stim	s626
471.104	0.671	-2.8691584997425204	end_round	0.0	columbia_card_task_fmri	16.0	0.7692307692307692	71.0	-75.0	0.2307692307692307	16.0	4.0	3.0	3.949640578557052	0.671	3.0	stim	s626
471.784	2.25	n/a	-1.0	n/a	columbia_card_task_fmri	n/a	n/a	-1.0	n/a	n/a	n/a	n/a	n/a	n/a	n/a	n/a	feedback	s626
474.034	0.068	n/a	-1.0	n/a	columbia_card_task_fmri	n/a	n/a	-1.0	n/a	n/a	n/a	n/a	n/a	n/a	n/a	n/a	ITI	s626
474.105	1.264	5.330841500257485	draw_card	0.0	columbia_card_task_fmri	16.0	0.8666666666666667	89.0	-80.0	0.1333333333333333	15.0	1.0	2.0	-1.746887051198577	1.264	n/a	stim	s626
475.374	1.582	4.416555785971772	draw_card	1.0	columbia_card_task_fmri	16.0	0.8571428571428572	89.0	-80.0	0.1428571428571428	15.0	2.0	2.0	-0.7895901569097674	1.582	2.0	stim	s626
476.962	2.25	n/a	-1.0	n/a	columbia_card_task_fmri	n/a	n/a	-1.0	n/a	n/a	n/a	n/a	n/a	n/a	n/a	n/a	feedback	s626
479.212	0.068	n/a	-1.0	n/a	columbia_card_task_fmri	n/a	n/a	-1.0	n/a	n/a	n/a	n/a	n/a	n/a	n/a	n/a	ITI	s626
479.284	0.371	6.197508166924152	draw_card	0.0	columbia_card_task_fmri	17.0	0.8666666666666667	89.0	-80.0	0.1333333333333333	15.0	1.0	2.0	-1.4076673446427534	0.371	n/a	stim	s626
479.658	0.781	5.2736986431146295	draw_card	0.0	columbia_card_task_fmri	17.0	0.8571428571428572	89.0	-80.0	0.1428571428571428	15.0	2.0	2.0	-0.4403576863879195	0.781	n/a	stim	s626
480.443	2.792	4.20776457718056	draw_card	1.0	columbia_card_task_fmri	17.0	0.8461538461538461	89.0	-80.0	0.1538461538461538	15.0	3.0	2.0	0.612420570145396	2.792	3.0	stim	s626
483.241	2.25	n/a	-1.0	n/a	columbia_card_task_fmri	n/a	n/a	-1.0	n/a	n/a	n/a	n/a	n/a	n/a	n/a	n/a	feedback	s626
485.491	0.34	n/a	-1.0	n/a	columbia_card_task_fmri	n/a	n/a	-1.0	n/a	n/a	n/a	n/a	n/a	n/a	n/a	n/a	ITI	s626
485.835	2.224	2.130841500257483	end_round	0.0	columbia_card_task_fmri	1.0	0.9375	71.0	-15.0	0.0625	16.0	1.0	1.0	-30.029643189154324	2.224	0.0	stim	s626
488.065	2.25	n/a	-1.0	n/a	columbia_card_task_fmri	n/a	n/a	-1.0	n/a	n/a	n/a	n/a	n/a	n/a	n/a	n/a	feedback	s626
490.315	0.476	n/a	-1.0	n/a	columbia_card_task_fmri	n/a	n/a	-1.0	n/a	n/a	n/a	n/a	n/a	n/a	n/a	n/a	ITI	s626
490.794	2.609	5.255841500257484	end_round	0.0	columbia_card_task_fmri	10.0	0.9375	71.0	-100.0	0.0625	16.0	1.0	1.0	-7.738219197839868	2.609	0.0	stim	s626
493.411	2.25	n/a	-1.0	n/a	columbia_card_task_fmri	n/a	n/a	-1.0	n/a	n/a	n/a	n/a	n/a	n/a	n/a	n/a	feedback	s626
495.661	0.272	n/a	-1.0	n/a	columbia_card_task_fmri	n/a	n/a	-1.0	n/a	n/a	n/a	n/a	n/a	n/a	n/a	n/a	ITI	s626
495.937	1.607	5.880841500257484	draw_card	0.0	columbia_card_task_fmri	15.0	0.875	89.0	-75.0	0.125	16.0	1.0	2.0	-4.609227565339669	1.607	n/a	stim	s626
497.547	0.786	5.130841500257484	draw_card	0.0	columbia_card_task_fmri	15.0	0.8666666666666667	89.0	-75.0	0.1333333333333333	16.0	2.0	2.0	-3.7818728120869487	0.786	n/a	stim	s626
498.337	2.287	4.273698643114628	draw_card	0.0	columbia_card_task_fmri	15.0	0.8571428571428572	89.0	-75.0	0.1428571428571428	16.0	3.0	2.0	-2.884661875572497	2.287	n/a	stim	s626
500.627	3.045	3.2846876541036365	end_round	0.0	columbia_card_task_fmri	15.0	0.8461538461538461	71.0	-75.0	0.1538461538461538	16.0	4.0	2.0	-1.9081576991039952	3.045	3.0	stim	s626
503.679	2.25	n/a	-1.0	n/a	columbia_card_task_fmri	n/a	n/a	-1.0	n/a	n/a	n/a	n/a	n/a	n/a	n/a	n/a	feedback	s626
505.929	0.884	n/a	-1.0	n/a	columbia_card_task_fmri	n/a	n/a	-1.0	n/a	n/a	n/a	n/a	n/a	n/a	n/a	n/a	ITI	s626
506.815	0.737	6.130841500257484	draw_card	0.0	columbia_card_task_fmri	16.0	0.875	89.0	-80.0	0.125	16.0	1.0	2.0	-2.629664010259365	0.737	n/a	stim	s626
507.556	2.3	5.330841500257485	draw_card	0.0	columbia_card_task_fmri	16.0	0.8666666666666667	89.0	-80.0	0.1333333333333333	16.0	2.0	2.0	-1.746887051198577	2.3	n/a	stim	s626
509.859	1.284	4.416555785971772	draw_card	0.0	columbia_card_task_fmri	16.0	0.8571428571428572	89.0	-80.0	0.1428571428571428	16.0	3.0	2.0	-0.7895901569097674	1.284	n/a	stim	s626
511.147	3.21	3.361610731026713	end_round	0.0	columbia_card_task_fmri	16.0	0.8461538461538461	71.0	-80.0	0.1538461538461538	16.0	4.0	2.0	0.2522931770214569	3.21	3.0	stim	s626
514.363	2.25	n/a	-1.0	n/a	columbia_card_task_fmri	n/a	n/a	-1.0	n/a	n/a	n/a	n/a	n/a	n/a	n/a	n/a	feedback	s626
516.613	0.136	n/a	-1.0	n/a	columbia_card_task_fmri	n/a	n/a	-1.0	n/a	n/a	n/a	n/a	n/a	n/a	n/a	n/a	ITI	s626
516.753	3.184	3.318341500257483	draw_card	0.0	columbia_card_task_fmri	4.0	0.6875	89.0	-5.0	0.3125	16.0	1.0	5.0	-29.76578795272895	3.184	n/a	stim	s626
519.941	1.096	3.130841500257484	draw_card	1.0	columbia_card_task_fmri	4.0	0.6666666666666667	89.0	-5.0	0.3333333333333333	16.0	2.0	5.0	-29.702423206945767	1.096	2.0	stim	s626
521.043	2.25	n/a	-1.0	n/a	columbia_card_task_fmri	n/a	n/a	-1.0	n/a	n/a	n/a	n/a	n/a	n/a	n/a	n/a	feedback	s626
523.293	0.136	n/a	-1.0	n/a	columbia_card_task_fmri	n/a	n/a	-1.0	n/a	n/a	n/a	n/a	n/a	n/a	n/a	n/a	ITI	s626
523.433	1.688	0.4641748335908189	draw_card	0.0	columbia_card_task_fmri	14.0	0.8333333333333334	89.0	-80.0	0.1666666666666666	6.0	1.0	1.0	0.6463718156409968	1.688	n/a	stim	s626
525.125	1.186	-2.669158499742516	draw_card	0.0	columbia_card_task_fmri	14.0	0.8	89.0	-80.0	0.2	6.0	2.0	1.0	3.210225069973241	1.186	n/a	stim	s626
526.314	1.629	-7.369158499742516	end_round	0.0	columbia_card_task_fmri	14.0	0.75	71.0	-80.0	0.25	6.0	3.0	1.0	6.3088260331109325	1.629	2.0	stim	s626
527.952	2.25	n/a	-1.0	n/a	columbia_card_task_fmri	n/a	n/a	-1.0	n/a	n/a	n/a	n/a	n/a	n/a	n/a	n/a	feedback	s626
530.202	0.068	n/a	-1.0	n/a	columbia_card_task_fmri	n/a	n/a	-1.0	n/a	n/a	n/a	n/a	n/a	n/a	n/a	n/a	ITI	s626
530.272	3.152	2.130841500257483	draw_card	0.0	columbia_card_task_fmri	15.0	0.8333333333333334	89.0	-75.0	0.1666666666666666	6.0	1.0	1.0	-0.8414682585713535	3.152	n/a	stim	s626
533.429	0.389	-0.8691584997425168	draw_card	0.0	columbia_card_task_fmri	15.0	0.8	89.0	-75.0	0.2	6.0	2.0	1.0	1.61290183552768	0.389	n/a	stim	s626
533.822	0.647	-5.369158499742516	draw_card	0.0	columbia_card_task_fmri	15.0	0.75	89.0	-75.0	0.25	6.0	3.0	1.0	4.579248826165077	0.647	n/a	stim	s626
534.473	3.145	-12.869158499742516	end_round	0.0	columbia_card_task_fmri	15.0	0.6666666666666667	71.0	-75.0	0.3333333333333333	6.0	4.0	1.0	8.029777978198233	3.145	3.0	stim	s626
537.621	2.25	n/a	-1.0	n/a	columbia_card_task_fmri	n/a	n/a	-1.0	n/a	n/a	n/a	n/a	n/a	n/a	n/a	n/a	feedback	s626
539.871	0.068	n/a	-1.0	n/a	columbia_card_task_fmri	n/a	n/a	-1.0	n/a	n/a	n/a	n/a	n/a	n/a	n/a	n/a	ITI	s626
539.943	2.218	3.797508166924151	draw_card	0.0	columbia_card_task_fmri	16.0	0.8333333333333334	89.0	-70.0	0.1666666666666666	6.0	1.0	1.0	-2.32904202244493	2.218	n/a	stim	s626
542.165	0.489	0.930841500257484	draw_card	0.0	columbia_card_task_fmri	16.0	0.8	89.0	-70.0	0.2	6.0	2.0	1.0	0.0158269192030502	0.489	n/a	stim	s626
542.658	0.588	-3.369158499742517	draw_card	0.0	columbia_card_task_fmri	16.0	0.75	89.0	-70.0	0.25	6.0	3.0	1.0	2.8499011824918554	0.588	n/a	stim	s626
543.25	2.948	-10.53582516640918	draw_card	0.0	columbia_card_task_fmri	16.0	0.6666666666666667	89.0	-70.0	0.3333333333333333	6.0	4.0	1.0	6.14664381838498	2.948	n/a	stim	s626
546.202	0.76	-24.86915849974252	end_round	0.0	columbia_card_task_fmri	16.0	0.5	71.0	-70.0	0.5	6.0	5.0	1.0	8.602658644955767	0.76	4.0	stim	s626
546.966	2.25	n/a	-1.0	n/a	columbia_card_task_fmri	n/a	n/a	-1.0	n/a	n/a	n/a	n/a	n/a	n/a	n/a	n/a	feedback	s626
549.216	0.612	n/a	-1.0	n/a	columbia_card_task_fmri	n/a	n/a	-1.0	n/a	n/a	n/a	n/a	n/a	n/a	n/a	n/a	ITI	s626
549.831	2.206	4.380841500257484	draw_card	0.0	columbia_card_task_fmri	23.0	0.75	89.0	-60.0	0.25	8.0	1.0	2.0	1.5530610004821952	2.206	n/a	stim	s626
552.04	0.497	1.4165557859717717	draw_card	0.0	columbia_card_task_fmri	23.0	0.7142857142857143	89.0	-60.0	0.2857142857142857	8.0	2.0	2.0	3.105970785339281	0.497	n/a	stim	s626
552.541	0.463	-2.535825166409181	draw_card	0.0	columbia_card_task_fmri	23.0	0.6666666666666667	89.0	-60.0	0.3333333333333333	8.0	3.0	2.0	4.734449978662539	0.463	n/a	stim	s626
553.008	1.774	-8.069158499742517	end_round	0.0	columbia_card_task_fmri	23.0	0.6	71.0	-60.0	0.4	8.0	4.0	2.0	6.267218819094289	1.774	3.0	stim	s626
554.788	2.25	n/a	-1.0	n/a	columbia_card_task_fmri	n/a	n/a	-1.0	n/a	n/a	n/a	n/a	n/a	n/a	n/a	n/a	feedback	s626
557.038	0.476	n/a	-1.0	n/a	columbia_card_task_fmri	n/a	n/a	-1.0	n/a	n/a	n/a	n/a	n/a	n/a	n/a	n/a	ITI	s626
557.516	2.442	4.880841500257484	draw_card	0.0	columbia_card_task_fmri	27.0	0.75	89.0	-70.0	0.25	8.0	1.0	2.0	7.60614255154978	2.442	n/a	stim	s626
559.963	0.759	1.416555785971768	draw_card	0.0	columbia_card_task_fmri	27.0	0.7142857142857143	89.0	-70.0	0.2857142857142857	8.0	2.0	2.0	9.421805587159838	0.759	n/a	stim	s626
560.727	2.06	-3.2024918330758454	draw_card	1.0	columbia_card_task_fmri	27.0	0.6666666666666667	89.0	-70.0	0.3333333333333333	8.0	3.0	2.0	11.325754845385326	2.06	3.0	stim	s626
562.793	2.25	n/a	-1.0	n/a	columbia_card_task_fmri	n/a	n/a	-1.0	n/a	n/a	n/a	n/a	n/a	n/a	n/a	n/a	feedback	s626
565.043	0.0	n/a	-1.0	n/a	columbia_card_task_fmri	n/a	n/a	-1.0	n/a	n/a	n/a	n/a	n/a	n/a	n/a	n/a	ITI	s626
565.047	2.577	0.1308415002574849	draw_card	0.0	columbia_card_task_fmri	16.0	0.7777777777777778	89.0	-65.0	0.2222222222222222	9.0	1.0	2.0	-0.707839759943802	2.577	n/a	stim	s626
567.627	1.151	-2.119158499742517	draw_card	0.0	columbia_card_task_fmri	16.0	0.75	89.0	-65.0	0.25	9.0	2.0	2.0	0.6885910859550961	1.151	n/a	stim	s626
568.782	1.1	-5.012015642599657	draw_card	1.0	columbia_card_task_fmri	16.0	0.7142857142857143	89.0	-65.0	0.2857142857142857	9.0	3.0	2.0	2.2039541677269554	1.1	3.0	stim	s626
569.89	2.25	n/a	-1.0	n/a	columbia_card_task_fmri	n/a	n/a	-1.0	n/a	n/a	n/a	n/a	n/a	n/a	n/a	n/a	feedback	s626
572.14	0.068	n/a	-1.0	n/a	columbia_card_task_fmri	n/a	n/a	-1.0	n/a	n/a	n/a	n/a	n/a	n/a	n/a	n/a	ITI	s626
572.21	2.83	5.330841500257485	draw_card	0.0	columbia_card_task_fmri	13.0	0.9	89.0	-85.0	0.1	10.0	1.0	1.0	-4.9729873270107205	2.83	n/a	stim	s626
575.044	1.516	4.241952611368594	end_round	0.0	columbia_card_task_fmri	13.0	0.8888888888888888	71.0	-85.0	0.1111111111111111	10.0	2.0	1.0	-3.5780516948570917	1.516	1.0	stim	s626
576.57	2.25	n/a	-1.0	n/a	columbia_card_task_fmri	n/a	n/a	-1.0	n/a	n/a	n/a	n/a	n/a	n/a	n/a	n/a	feedback	s626
578.82	0.204	n/a	-1.0	n/a	columbia_card_task_fmri	n/a	n/a	-1.0	n/a	n/a	n/a	n/a	n/a	n/a	n/a	n/a	ITI	s626
579.027	2.53	0.3308415002574842	draw_card	0.0	columbia_card_task_fmri	14.0	0.8	89.0	-65.0	0.2	10.0	1.0	2.0	-2.778343683673306	2.53	n/a	stim	s626
581.56	0.794	-1.4247140552980704	draw_card	0.0	columbia_card_task_fmri	14.0	0.7777777777777778	89.0	-65.0	0.2222222222222222	10.0	2.0	2.0	-1.537617672311626	0.794	n/a	stim	s626
582.358	1.803	-3.619158499742517	draw_card	0.0	columbia_card_task_fmri	14.0	0.75	89.0	-65.0	0.25	10.0	3.0	2.0	-0.1758002924803463	1.803	n/a	stim	s626
584.165	3.613	-6.440587071171086	end_round	0.0	columbia_card_task_fmri	14.0	0.7142857142857143	71.0	-65.0	0.2857142857142857	10.0	4.0	2.0	1.3020128618761646	3.613	3.0	stim	s626
587.788	2.25	n/a	-1.0	n/a	columbia_card_task_fmri	n/a	n/a	-1.0	n/a	n/a	n/a	n/a	n/a	n/a	n/a	n/a	feedback	s626
590.038	0.272	n/a	-1.0	n/a	columbia_card_task_fmri	n/a	n/a	-1.0	n/a	n/a	n/a	n/a	n/a	n/a	n/a	n/a	ITI	s626
590.314	2.638	1.7308415002574846	draw_card	0.0	columbia_card_task_fmri	17.0	0.8	89.0	-70.0	0.2	10.0	1.0	2.0	0.4150705021998959	2.638	n/a	stim	s626
592.956	0.337	-0.2024918330758489	draw_card	0.0	columbia_card_task_fmri	17.0	0.7777777777777778	89.0	-70.0	0.2222222222222222	10.0	2.0	2.0	1.7819620695375349	0.337	n/a	stim	s626
593.297	1.317	-2.619158499742517	draw_card	0.0	columbia_card_task_fmri	17.0	0.75	89.0	-70.0	0.25	10.0	3.0	2.0	3.282214845623855	1.317	n/a	stim	s626
594.618	2.264	-5.726301356885374	draw_card	0.0	columbia_card_task_fmri	17.0	0.7142857142857143	89.0	-70.0	0.2857142857142857	10.0	4.0	2.0	4.910209244471233	2.264	n/a	stim	s626
596.886	3.411	-9.869158499742516	draw_card	0.0	columbia_card_task_fmri	17.0	0.6666666666666667	89.0	-70.0	0.3333333333333333	10.0	5.0	2.0	6.617405988139801	3.411	n/a	stim	s626
600.302	2.408	-15.669158499742515	end_round	0.0	columbia_card_task_fmri	17.0	0.6	71.0	-70.0	0.4	10.0	6.0	2.0	8.224248629724727	2.408	5.0	stim	s626
602.717	2.25	n/a	-1.0	n/a	columbia_card_task_fmri	n/a	n/a	-1.0	n/a	n/a	n/a	n/a	n/a	n/a	n/a	n/a	feedback	s626
604.967	0.068	n/a	-1.0	n/a	columbia_card_task_fmri	n/a	n/a	-1.0	n/a	n/a	n/a	n/a	n/a	n/a	n/a	n/a	ITI	s626
605.039	3.125	0.4641748335908171	draw_card	0.0	columbia_card_task_fmri	13.0	0.8333333333333334	89.0	-75.0	0.1666666666666666	12.0	1.0	2.0	-1.585290689598807	3.125	n/a	stim	s626
608.168	1.094	-0.8691584997425186	draw_card	0.0	columbia_card_task_fmri	13.0	0.8181818181818181	89.0	-75.0	0.1818181818181818	12.0	2.0	2.0	-0.4421579382127518	1.094	n/a	stim	s626
609.266	1.381	-2.4691584997425164	draw_card	0.0	columbia_card_task_fmri	13.0	0.8	89.0	-75.0	0.2	12.0	3.0	2.0	0.8143312288588049	1.381	n/a	stim	s626
610.651	0.851	-4.42471405529807	draw_card	0.0	columbia_card_task_fmri	13.0	0.7777777777777778	89.0	-75.0	0.2222222222222222	12.0	4.0	2.0	2.196990347946702	0.851	n/a	stim	s626
611.506	2.09	-6.869158499742516	draw_card	1.0	columbia_card_task_fmri	13.0	0.75	89.0	-75.0	0.25	12.0	5.0	2.0	3.714544358417783	2.09	5.0	stim	s626
613.602	2.25	n/a	-1.0	n/a	columbia_card_task_fmri	n/a	n/a	-1.0	n/a	n/a	n/a	n/a	n/a	n/a	n/a	n/a	feedback	s626
615.852	0.272	n/a	-1.0	n/a	columbia_card_task_fmri	n/a	n/a	-1.0	n/a	n/a	n/a	n/a	n/a	n/a	n/a	n/a	ITI	s626
616.128	0.56	2.130841500257485	draw_card	0.0	columbia_card_task_fmri	14.0	0.8333333333333334	89.0	-70.0	0.1666666666666666	12.0	1.0	2.0	-3.0727172012996604	0.56	n/a	stim	s626
616.693	1.815	0.858114227530208	draw_card	0.0	columbia_card_task_fmri	14.0	0.8181818181818181	89.0	-70.0	0.1818181818181818	12.0	2.0	2.0	-1.9817610797796088	1.815	n/a	stim	s626
618.511	1.447	-0.6691584997425157	draw_card	0.0	columbia_card_task_fmri	14.0	0.8	89.0	-70.0	0.2	12.0	3.0	2.0	-0.7826063762681912	1.447	n/a	stim	s626
619.963	0.701	-2.535825166409183	end_round	0.0	columbia_card_task_fmri	14.0	0.7777777777777778	71.0	-70.0	0.2222222222222222	12.0	4.0	2.0	0.5369785920255481	0.701	3.0	stim	s626
620.673	2.25	n/a	-1.0	n/a	columbia_card_task_fmri	n/a	n/a	-1.0	n/a	n/a	n/a	n/a	n/a	n/a	n/a	n/a	feedback	s626
622.923	0.748	n/a	-1.0	n/a	columbia_card_task_fmri	n/a	n/a	-1.0	n/a	n/a	n/a	n/a	n/a	n/a	n/a	n/a	ITI	s626
623.674	6.303	2.130841500257485	draw_card	0.0	columbia_card_task_fmri	16.0	0.8333333333333334	89.0	-80.0	0.1666666666666666	12.0	1.0	2.0	1.3903813550174815	6.303	n/a	stim	s626
629.982	0.575	0.6762960457120264	draw_card	0.0	columbia_card_task_fmri	16.0	0.8181818181818181	89.0	-80.0	0.1818181818181818	12.0	2.0	2.0	2.637840049079884	0.575	n/a	stim	s626
630.56	0.423	-1.069158499742516	draw_card	1.0	columbia_card_task_fmri	16.0	0.8	89.0	-80.0	0.2	12.0	3.0	2.0	4.008970137856394	0.423	3.0	stim	s626
630.991	2.25	n/a	-1.0	n/a	columbia_card_task_fmri	n/a	n/a	-1.0	n/a	n/a	n/a	n/a	n/a	n/a	n/a	n/a	feedback	s626
633.241	0.068	n/a	-1.0	n/a	columbia_card_task_fmri	n/a	n/a	-1.0	n/a	n/a	n/a	n/a	n/a	n/a	n/a	n/a	ITI	s626
633.312	0.559	1.930841500257484	draw_card	1.0	columbia_card_task_fmri	16.0	0.8	89.0	-65.0	0.2	15.0	1.0	3.0	-1.9801117083675663	0.559	1.0	stim	s626
633.88	2.25	n/a	-1.0	n/a	columbia_card_task_fmri	n/a	n/a	-1.0	n/a	n/a	n/a	n/a	n/a	n/a	n/a	n/a	feedback	s626
636.13	0.0	n/a	-1.0	n/a	columbia_card_task_fmri	n/a	n/a	-1.0	n/a	n/a	n/a	n/a	n/a	n/a	n/a	n/a	ITI	s626
636.134	2.041	0.2558415002574832	draw_card	1.0	columbia_card_task_fmri	15.0	0.8125	89.0	-75.0	0.1875	16.0	1.0	3.0	0.7425765912906428	2.041	1.0	stim	s626
638.183	2.25	n/a	-1.0	n/a	columbia_card_task_fmri	n/a	n/a	-1.0	n/a	n/a	n/a	n/a	n/a	n/a	n/a	n/a	feedback	s626
640.433	0.204	n/a	-1.0	n/a	columbia_card_task_fmri	n/a	n/a	-1.0	n/a	n/a	n/a	n/a	n/a	n/a	n/a	n/a	ITI	s626
640.642	1.62	0.8183415002574832	draw_card	1.0	columbia_card_task_fmri	14.0	0.6875	89.0	-35.0	0.3125	16.0	1.0	5.0	-11.638259077390362	1.62	1.0	stim	s626
642.271	2.25	n/a	-1.0	n/a	columbia_card_task_fmri	n/a	n/a	-1.0	n/a	n/a	n/a	n/a	n/a	n/a	n/a	n/a	feedback	s626
644.521	0.068	n/a	-1.0	n/a	columbia_card_task_fmri	n/a	n/a	-1.0	n/a	n/a	n/a	n/a	n/a	n/a	n/a	n/a	ITI	s626
644.594	1.564	5.997508166924151	draw_card	0.0	columbia_card_task_fmri	16.0	0.8666666666666667	89.0	-75.0	0.1333333333333333	15.0	1.0	2.0	-3.4427506970849286	1.564	n/a	stim	s626
646.163	3.628	5.130841500257485	draw_card	1.0	columbia_card_task_fmri	16.0	0.8571428571428572	89.0	-75.0	0.1428571428571428	15.0	2.0	2.0	-2.535524245738582	3.628	2.0	stim	s626
649.797	2.25	n/a	-1.0	n/a	columbia_card_task_fmri	n/a	n/a	-1.0	n/a	n/a	n/a	n/a	n/a	n/a	n/a	n/a	feedback	s626
652.047	0.068	n/a	-1.0	n/a	columbia_card_task_fmri	n/a	n/a	-1.0	n/a	n/a	n/a	n/a	n/a	n/a	n/a	n/a	ITI	s626
652.121	0.625	6.664174833590817	draw_card	1.0	columbia_card_task_fmri	16.0	0.8666666666666667	89.0	-70.0	0.1333333333333333	15.0	1.0	2.0	-5.138173038703165	0.625	1.0	stim	s626
652.756	2.25	n/a	-1.0	n/a	columbia_card_task_fmri	n/a	n/a	-1.0	n/a	n/a	n/a	n/a	n/a	n/a	n/a	n/a	feedback	s626
655.006	0.34	n/a	-1.0	n/a	columbia_card_task_fmri	n/a	n/a	-1.0	n/a	n/a	n/a	n/a	n/a	n/a	n/a	n/a	ITI	s626
655.35	3.071	4.005841500257484	end_round	0.0	columbia_card_task_fmri	8.0	0.9375	71.0	-90.0	0.0625	16.0	1.0	1.0	-10.632572697259237	3.071	0.0	stim	s626
658.43	2.25	n/a	-1.0	n/a	columbia_card_task_fmri	n/a	n/a	-1.0	n/a	n/a	n/a	n/a	n/a	n/a	n/a	n/a	feedback	s626
660.68	0.0	n/a	-1.0	n/a	columbia_card_task_fmri	n/a	n/a	-1.0	n/a	n/a	n/a	n/a	n/a	n/a	n/a	n/a	ITI	s626
660.685	3.1	5.568341500257484	end_round	0.0	columbia_card_task_fmri	10.0	0.9375	71.0	-95.0	0.0625	16.0	1.0	1.0	-8.944486743564404	3.1	0.0	stim	s626
663.791	2.25	n/a	-1.0	n/a	columbia_card_task_fmri	n/a	n/a	-1.0	n/a	n/a	n/a	n/a	n/a	n/a	n/a	n/a	feedback	s626
666.041	0.0	n/a	-1.0	n/a	columbia_card_task_fmri	n/a	n/a	-1.0	n/a	n/a	n/a	n/a	n/a	n/a	n/a	n/a	ITI	s626
666.046	1.698	6.505841500257484	draw_card	0.0	columbia_card_task_fmri	15.0	0.875	89.0	-70.0	0.125	16.0	1.0	2.0	-6.258353686111512	1.698	n/a	stim	s626
667.749	1.101	5.79750816692415	draw_card	0.0	columbia_card_task_fmri	15.0	0.8666666666666667	89.0	-70.0	0.1333333333333333	16.0	2.0	2.0	-5.477197732616098	1.101	n/a	stim	s626
668.855	0.749	4.987984357400341	draw_card	0.0	columbia_card_task_fmri	15.0	0.8571428571428572	89.0	-70.0	0.1428571428571428	16.0	3.0	2.0	-4.630072410564221	0.749	n/a	stim	s626
669.61	1.114	4.053918423334405	draw_card	0.0	columbia_card_task_fmri	15.0	0.8461538461538461	89.0	-70.0	0.1538461538461538	16.0	4.0	2.0	-3.7080652195561896	1.114	n/a	stim	s626
670.729	1.81	2.964174833590817	draw_card	0.0	columbia_card_task_fmri	15.0	0.8333333333333334	89.0	-70.0	0.1666666666666666	16.0	5.0	2.0	-2.700889465594092	1.81	n/a	stim	s626
672.544	1.904	1.6762960457120264	draw_card	1.0	columbia_card_task_fmri	15.0	0.8181818181818181	89.0	-70.0	0.1818181818181818	16.0	6.0	2.0	-1.5968882238774782	1.904	6.0	stim	s626
674.458	2.25	n/a	-1.0	n/a	columbia_card_task_fmri	n/a	n/a	-1.0	n/a	n/a	n/a	n/a	n/a	n/a	n/a	n/a	feedback	s626
676.708	0.272	n/a	-1.0	n/a	columbia_card_task_fmri	n/a	n/a	-1.0	n/a	n/a	n/a	n/a	n/a	n/a	n/a	n/a	ITI	s626
676.984	1.808	5.505841500257484	draw_card	0.0	columbia_card_task_fmri	16.0	0.875	89.0	-85.0	0.125	16.0	1.0	2.0	-0.979598001939138	1.808	n/a	stim	s626
678.797	1.466	4.664174833590817	draw_card	0.0	columbia_card_task_fmri	16.0	0.8666666666666667	89.0	-85.0	0.1333333333333333	16.0	2.0	2.0	-0.0506473687430499	1.466	n/a	stim	s626
680.268	0.803	3.702270071686056	draw_card	1.0	columbia_card_task_fmri	16.0	0.8571428571428572	89.0	-85.0	0.1428571428571428	16.0	3.0	2.0	0.956709361968187	0.803	3.0	stim	s626
681.081	2.25	n/a	-1.0	n/a	columbia_card_task_fmri	n/a	n/a	-1.0	n/a	n/a	n/a	n/a	n/a	n/a	n/a	n/a	feedback	s626
683.331	0.204	n/a	-1.0	n/a	columbia_card_task_fmri	n/a	n/a	-1.0	n/a	n/a	n/a	n/a	n/a	n/a	n/a	n/a	ITI	s626
