onset	duration	SS_delay	correct_response	experiment_exp_id	key_press	response_time	stop_response	stopped	trial_type	worker_id
3.009	0.85	0.25	71.0	motor_selective_stop_signal	71.0	0.505	71.0	False	crit_go	s594
5.365	0.85	0.25	89.0	motor_selective_stop_signal	89.0	0.537	71.0	False	noncrit_nosignal	s594
7.618	0.85	0.25	89.0	motor_selective_stop_signal	89.0	0.723	71.0	False	noncrit_signal	s594
10.07	0.85	0.25	89.0	motor_selective_stop_signal	89.0	0.486	71.0	False	noncrit_nosignal	s594
12.426	0.85	0.25	89.0	motor_selective_stop_signal	89.0	0.383	71.0	False	noncrit_signal	s594
15.082	0.85	0.25	89.0	motor_selective_stop_signal	89.0	0.398	71.0	False	noncrit_nosignal	s594
17.338	0.85	0.25	71.0	motor_selective_stop_signal	71.0	0.551	71.0	False	crit_stop_failure	s594
19.592	0.85	0.2	89.0	motor_selective_stop_signal	89.0	0.5	71.0	False	noncrit_nosignal	s594
22.044	0.85	0.2	71.0	motor_selective_stop_signal	89.0	0.361	71.0	False	crit_go	s594
24.299	0.85	0.2	71.0	motor_selective_stop_signal	-1.0	n/a	71.0	True	crit_stop_success	s594
26.853	0.85	0.25	71.0	motor_selective_stop_signal	71.0	0.5	71.0	False	crit_go	s594
29.106	0.85	0.25	89.0	motor_selective_stop_signal	89.0	0.445	71.0	False	noncrit_signal	s594
31.457	0.85	0.25	71.0	motor_selective_stop_signal	71.0	0.529	71.0	False	crit_stop_failure	s594
33.711	0.85	0.2	71.0	motor_selective_stop_signal	-1.0	n/a	71.0	True	crit_stop_success	s594
36.266	0.85	0.25	89.0	motor_selective_stop_signal	89.0	0.386	71.0	False	noncrit_nosignal	s594
38.817	0.85	0.25	89.0	motor_selective_stop_signal	89.0	0.478	71.0	False	noncrit_nosignal	s594
41.169	0.85	0.25	89.0	motor_selective_stop_signal	89.0	0.528	71.0	False	noncrit_nosignal	s594
43.522	0.85	0.25	89.0	motor_selective_stop_signal	89.0	0.472	71.0	False	noncrit_nosignal	s594
45.774	0.85	0.25	89.0	motor_selective_stop_signal	89.0	0.418	71.0	False	noncrit_signal	s594
48.228	0.85	0.25	71.0	motor_selective_stop_signal	71.0	0.613	71.0	False	crit_go	s594
50.483	0.85	0.25	89.0	motor_selective_stop_signal	89.0	0.379	71.0	False	noncrit_signal	s594
52.94	0.85	0.25	71.0	motor_selective_stop_signal	-1.0	n/a	71.0	True	crit_stop_success	s594
55.595	0.85	0.3	71.0	motor_selective_stop_signal	71.0	0.714	71.0	False	crit_go	s594
58.05	0.85	0.3	71.0	motor_selective_stop_signal	71.0	0.611	71.0	False	crit_go	s594
60.401	0.85	0.3	89.0	motor_selective_stop_signal	89.0	0.345	71.0	False	noncrit_signal	s594
62.656	0.85	0.3	89.0	motor_selective_stop_signal	89.0	0.441	71.0	False	noncrit_nosignal	s594
65.207	0.85	0.3	71.0	motor_selective_stop_signal	71.0	0.338	71.0	False	crit_go	s594
67.463	0.85	0.3	89.0	motor_selective_stop_signal	89.0	0.556	71.0	False	noncrit_nosignal	s594
69.716	0.85	0.3	89.0	motor_selective_stop_signal	89.0	0.474	71.0	False	noncrit_nosignal	s594
72.07	0.85	0.3	71.0	motor_selective_stop_signal	71.0	0.642	71.0	False	crit_go	s594
74.326	0.85	0.3	89.0	motor_selective_stop_signal	89.0	0.511	71.0	False	noncrit_signal	s594
76.979	0.85	0.3	89.0	motor_selective_stop_signal	89.0	0.492	71.0	False	noncrit_signal	s594
79.333	0.85	0.3	71.0	motor_selective_stop_signal	71.0	0.479	71.0	False	crit_go	s594
81.784	0.85	0.3	89.0	motor_selective_stop_signal	89.0	0.394	71.0	False	noncrit_signal	s594
84.136	0.85	0.3	71.0	motor_selective_stop_signal	-1.0	n/a	71.0	True	crit_stop_success	s594
86.391	0.85	0.35	71.0	motor_selective_stop_signal	71.0	0.634	71.0	False	crit_go	s594
88.643	0.85	0.35	71.0	motor_selective_stop_signal	71.0	0.58	71.0	False	crit_stop_failure	s594
90.898	0.85	0.3	89.0	motor_selective_stop_signal	89.0	0.387	71.0	False	noncrit_nosignal	s594
93.15	0.85	0.3	71.0	motor_selective_stop_signal	-1.0	n/a	71.0	True	crit_stop_success	s594
95.505	0.85	0.35	71.0	motor_selective_stop_signal	71.0	0.603	71.0	False	crit_go	s594
98.859	0.85	0.35	89.0	motor_selective_stop_signal	89.0	0.373	71.0	False	noncrit_nosignal	s594
101.412	0.85	0.35	71.0	motor_selective_stop_signal	-1.0	n/a	71.0	True	crit_stop_success	s594
104.164	0.85	0.4	71.0	motor_selective_stop_signal	71.0	0.537	71.0	False	crit_go	s594
106.92	0.85	0.4	89.0	motor_selective_stop_signal	89.0	0.46	71.0	False	noncrit_nosignal	s594
109.574	0.85	0.4	71.0	motor_selective_stop_signal	71.0	0.631	71.0	False	crit_stop_failure	s594
112.025	0.85	0.35	89.0	motor_selective_stop_signal	89.0	0.493	71.0	False	noncrit_nosignal	s594
114.277	0.85	0.35	71.0	motor_selective_stop_signal	71.0	0.552	71.0	False	crit_go	s594
116.63	0.85	0.35	89.0	motor_selective_stop_signal	89.0	0.392	71.0	False	noncrit_nosignal	s594
119.081	0.85	0.35	71.0	motor_selective_stop_signal	71.0	0.574	71.0	False	crit_go	s594
122.133	0.85	0.35	89.0	motor_selective_stop_signal	89.0	0.468	71.0	False	noncrit_nosignal	s594
134.996	0.85	0.35	89.0	motor_selective_stop_signal	89.0	0.472	71.0	False	noncrit_signal	s594
137.247	0.85	0.35	71.0	motor_selective_stop_signal	71.0	0.542	71.0	False	crit_go	s594
139.599	0.85	0.35	89.0	motor_selective_stop_signal	89.0	0.396	71.0	False	noncrit_nosignal	s594
141.952	0.85	0.35	89.0	motor_selective_stop_signal	89.0	0.339	71.0	False	noncrit_nosignal	s594
144.304	0.85	0.35	89.0	motor_selective_stop_signal	89.0	0.34	71.0	False	noncrit_signal	s594
146.656	0.85	0.35	71.0	motor_selective_stop_signal	71.0	0.512	71.0	False	crit_go	s594
149.012	0.85	0.35	89.0	motor_selective_stop_signal	89.0	0.446	71.0	False	noncrit_nosignal	s594
151.264	0.85	0.35	71.0	motor_selective_stop_signal	71.0	0.588	71.0	False	crit_stop_failure	s594
153.618	0.85	0.3	89.0	motor_selective_stop_signal	89.0	0.458	71.0	False	noncrit_nosignal	s594
156.07	0.85	0.3	71.0	motor_selective_stop_signal	71.0	0.554	71.0	False	crit_go	s594
158.423	0.85	0.3	89.0	motor_selective_stop_signal	89.0	0.369	71.0	False	noncrit_nosignal	s594
161.278	0.85	0.3	71.0	motor_selective_stop_signal	89.0	0.397	71.0	False	crit_go	s594
163.83	0.85	0.3	71.0	motor_selective_stop_signal	71.0	0.708	71.0	False	crit_go	s594
166.586	0.85	0.3	89.0	motor_selective_stop_signal	89.0	0.496	71.0	False	noncrit_signal	s594
168.838	0.85	0.3	71.0	motor_selective_stop_signal	71.0	0.509	71.0	False	crit_go	s594
171.09	0.85	0.3	71.0	motor_selective_stop_signal	89.0	0.43	71.0	False	crit_stop_failure	s594
173.943	0.85	0.25	71.0	motor_selective_stop_signal	89.0	0.379	71.0	False	crit_go	s594
176.298	0.85	0.25	71.0	motor_selective_stop_signal	71.0	0.568	71.0	False	crit_go	s594
178.55	0.85	0.25	71.0	motor_selective_stop_signal	-1.0	n/a	71.0	True	crit_stop_success	s594
180.805	0.85	0.3	89.0	motor_selective_stop_signal	89.0	0.552	71.0	False	noncrit_nosignal	s594
183.057	0.85	0.3	71.0	motor_selective_stop_signal	71.0	0.638	71.0	False	crit_go	s594
185.413	0.85	0.3	71.0	motor_selective_stop_signal	71.0	0.757	71.0	False	crit_go	s594
188.065	0.85	0.3	71.0	motor_selective_stop_signal	-1.0	n/a	71.0	True	crit_stop_success	s594
190.816	0.85	0.35	89.0	motor_selective_stop_signal	89.0	0.446	71.0	False	noncrit_nosignal	s594
193.068	0.85	0.35	71.0	motor_selective_stop_signal	71.0	0.523	71.0	False	crit_stop_failure	s594
195.825	0.85	0.3	89.0	motor_selective_stop_signal	89.0	0.43	71.0	False	noncrit_signal	s594
198.077	0.85	0.3	71.0	motor_selective_stop_signal	71.0	0.556	71.0	False	crit_go	s594
200.428	0.85	0.3	89.0	motor_selective_stop_signal	89.0	0.666	71.0	False	noncrit_nosignal	s594
202.783	0.85	0.3	89.0	motor_selective_stop_signal	89.0	0.597	71.0	False	noncrit_nosignal	s594
205.339	0.85	0.3	71.0	motor_selective_stop_signal	71.0	0.715	71.0	False	crit_go	s594
207.595	0.85	0.3	89.0	motor_selective_stop_signal	71.0	0.464	71.0	False	noncrit_signal	s594
209.851	0.85	0.3	89.0	motor_selective_stop_signal	89.0	0.56	71.0	False	noncrit_nosignal	s594
212.103	0.85	0.3	71.0	motor_selective_stop_signal	71.0	0.579	71.0	False	crit_go	s594
214.457	0.85	0.3	71.0	motor_selective_stop_signal	-1.0	n/a	71.0	True	crit_stop_success	s594
217.112	0.85	0.35	89.0	motor_selective_stop_signal	89.0	0.449	71.0	False	noncrit_nosignal	s594
219.463	0.85	0.35	89.0	motor_selective_stop_signal	89.0	0.493	71.0	False	noncrit_signal	s594
221.715	0.85	0.35	89.0	motor_selective_stop_signal	89.0	0.436	71.0	False	noncrit_nosignal	s594
224.067	0.85	0.35	71.0	motor_selective_stop_signal	71.0	0.486	71.0	False	crit_stop_failure	s594
226.419	0.85	0.3	89.0	motor_selective_stop_signal	89.0	0.503	71.0	False	noncrit_nosignal	s594
229.273	0.85	0.3	89.0	motor_selective_stop_signal	89.0	0.416	71.0	False	noncrit_nosignal	s594
231.726	0.85	0.3	71.0	motor_selective_stop_signal	71.0	0.458	71.0	False	crit_go	s594
234.082	0.85	0.3	89.0	motor_selective_stop_signal	89.0	0.409	71.0	False	noncrit_nosignal	s594
236.738	0.85	0.3	89.0	motor_selective_stop_signal	89.0	0.41	71.0	False	noncrit_nosignal	s594
238.994	0.85	0.3	89.0	motor_selective_stop_signal	71.0	0.363	71.0	False	noncrit_signal	s594
241.249	0.85	0.3	89.0	motor_selective_stop_signal	89.0	0.5	71.0	False	noncrit_nosignal	s594
243.503	0.85	0.3	71.0	motor_selective_stop_signal	71.0	0.722	71.0	False	crit_go	s594
245.955	0.85	0.3	71.0	motor_selective_stop_signal	71.0	0.63	71.0	False	crit_go	s594
248.309	0.85	0.3	71.0	motor_selective_stop_signal	71.0	0.579	71.0	False	crit_stop_failure	s594
250.563	0.85	0.25	71.0	motor_selective_stop_signal	-1.0	n/a	71.0	True	crit_stop_success	s594
252.917	0.85	0.3	89.0	motor_selective_stop_signal	89.0	0.422	71.0	False	noncrit_signal	s594
265.876	0.85	0.3	89.0	motor_selective_stop_signal	89.0	0.533	71.0	False	noncrit_nosignal	s594
268.232	0.85	0.3	71.0	motor_selective_stop_signal	71.0	0.581	71.0	False	crit_go	s594
270.486	0.85	0.3	71.0	motor_selective_stop_signal	71.0	0.605	71.0	False	crit_go	s594
272.74	0.85	0.3	89.0	motor_selective_stop_signal	89.0	0.399	71.0	False	noncrit_signal	s594
275.092	0.85	0.3	71.0	motor_selective_stop_signal	71.0	0.491	71.0	False	crit_stop_failure	s594
277.446	0.85	0.25	71.0	motor_selective_stop_signal	71.0	0.562	71.0	False	crit_go	s594
279.798	0.85	0.25	71.0	motor_selective_stop_signal	71.0	0.672	71.0	False	crit_go	s594
282.75	0.85	0.25	89.0	motor_selective_stop_signal	89.0	0.499	71.0	False	noncrit_nosignal	s594
285.002	0.85	0.25	71.0	motor_selective_stop_signal	71.0	0.558	71.0	False	crit_go	s594
287.358	0.85	0.25	89.0	motor_selective_stop_signal	89.0	0.417	71.0	False	noncrit_nosignal	s594
289.609	0.85	0.25	89.0	motor_selective_stop_signal	89.0	0.411	71.0	False	noncrit_signal	s594
292.063	0.85	0.25	89.0	motor_selective_stop_signal	89.0	0.397	71.0	False	noncrit_signal	s594
294.417	0.85	0.25	89.0	motor_selective_stop_signal	89.0	0.436	71.0	False	noncrit_signal	s594
296.968	0.85	0.25	71.0	motor_selective_stop_signal	71.0	0.63	71.0	False	crit_go	s594
299.52	0.85	0.25	89.0	motor_selective_stop_signal	89.0	0.576	71.0	False	noncrit_nosignal	s594
301.774	0.85	0.25	89.0	motor_selective_stop_signal	89.0	0.422	71.0	False	noncrit_nosignal	s594
304.026	0.85	0.25	71.0	motor_selective_stop_signal	71.0	0.546	71.0	False	crit_stop_failure	s594
306.778	0.85	0.2	71.0	motor_selective_stop_signal	71.0	0.419	71.0	False	crit_stop_failure	s594
309.13	0.85	0.15	71.0	motor_selective_stop_signal	-1.0	n/a	71.0	True	crit_stop_success	s594
311.383	0.85	0.2	71.0	motor_selective_stop_signal	71.0	0.412	71.0	False	crit_go	s594
313.839	0.85	0.2	71.0	motor_selective_stop_signal	71.0	0.546	71.0	False	crit_go	s594
316.091	0.85	0.2	71.0	motor_selective_stop_signal	71.0	0.589	71.0	False	crit_go	s594
318.442	0.85	0.2	89.0	motor_selective_stop_signal	89.0	0.497	71.0	False	noncrit_nosignal	s594
320.698	0.85	0.2	71.0	motor_selective_stop_signal	-1.0	n/a	71.0	True	crit_stop_success	s594
322.954	0.85	0.25	71.0	motor_selective_stop_signal	-1.0	n/a	71.0	True	crit_stop_success	s594
325.205	0.85	0.3	89.0	motor_selective_stop_signal	89.0	0.502	71.0	False	noncrit_nosignal	s594
327.461	0.85	0.3	71.0	motor_selective_stop_signal	71.0	0.568	71.0	False	crit_go	s594
329.712	0.85	0.3	89.0	motor_selective_stop_signal	89.0	0.413	71.0	False	noncrit_signal	s594
332.067	0.85	0.3	71.0	motor_selective_stop_signal	-1.0	n/a	71.0	True	crit_stop_success	s594
334.622	0.85	0.35	89.0	motor_selective_stop_signal	89.0	0.483	71.0	False	noncrit_nosignal	s594
337.574	0.85	0.35	71.0	motor_selective_stop_signal	71.0	0.581	71.0	False	crit_stop_failure	s594
339.825	0.85	0.3	71.0	motor_selective_stop_signal	89.0	0.498	71.0	False	crit_go	s594
342.179	0.85	0.3	71.0	motor_selective_stop_signal	71.0	0.677	71.0	False	crit_go	s594
344.732	0.85	0.3	89.0	motor_selective_stop_signal	89.0	0.508	71.0	False	noncrit_signal	s594
346.983	0.85	0.3	89.0	motor_selective_stop_signal	89.0	0.492	71.0	False	noncrit_signal	s594
349.338	0.85	0.3	89.0	motor_selective_stop_signal	89.0	0.496	71.0	False	noncrit_signal	s594
351.89	0.85	0.3	89.0	motor_selective_stop_signal	89.0	0.391	71.0	False	noncrit_signal	s594
354.343	0.85	0.3	89.0	motor_selective_stop_signal	89.0	0.404	71.0	False	noncrit_nosignal	s594
356.698	0.85	0.3	89.0	motor_selective_stop_signal	89.0	0.573	71.0	False	noncrit_nosignal	s594
359.354	0.85	0.3	89.0	motor_selective_stop_signal	89.0	0.431	71.0	False	noncrit_nosignal	s594
361.906	0.85	0.3	71.0	motor_selective_stop_signal	71.0	0.534	71.0	False	crit_stop_failure	s594
364.657	0.85	0.25	71.0	motor_selective_stop_signal	-1.0	n/a	71.0	True	crit_stop_success	s594
367.209	0.85	0.3	89.0	motor_selective_stop_signal	89.0	0.429	71.0	False	noncrit_signal	s594
369.66	0.85	0.3	89.0	motor_selective_stop_signal	89.0	0.443	71.0	False	noncrit_nosignal	s594
372.416	0.85	0.3	89.0	motor_selective_stop_signal	89.0	0.364	71.0	False	noncrit_nosignal	s594
374.968	0.85	0.3	71.0	motor_selective_stop_signal	71.0	0.699	71.0	False	crit_stop_failure	s594
377.319	0.85	0.25	71.0	motor_selective_stop_signal	71.0	0.592	71.0	False	crit_go	s594
379.574	0.85	0.25	71.0	motor_selective_stop_signal	71.0	0.563	71.0	False	crit_go	s594
382.229	0.85	0.25	71.0	motor_selective_stop_signal	71.0	0.5	71.0	False	crit_stop_failure	s594
384.483	0.85	0.2	89.0	motor_selective_stop_signal	89.0	0.446	71.0	False	noncrit_nosignal	s594
397.346	0.85	0.2	71.0	motor_selective_stop_signal	71.0	0.634	71.0	False	crit_go	s594
399.598	0.85	0.2	89.0	motor_selective_stop_signal	89.0	0.407	71.0	False	noncrit_nosignal	s594
401.95	0.85	0.2	71.0	motor_selective_stop_signal	71.0	0.68	71.0	False	crit_go	s594
404.301	0.85	0.2	89.0	motor_selective_stop_signal	71.0	0.43	71.0	False	noncrit_nosignal	s594
406.554	0.85	0.2	89.0	motor_selective_stop_signal	89.0	0.475	71.0	False	noncrit_signal	s594
409.405	0.85	0.2	71.0	motor_selective_stop_signal	71.0	0.528	71.0	False	crit_go	s594
411.757	0.85	0.2	89.0	motor_selective_stop_signal	89.0	0.327	71.0	False	noncrit_nosignal	s594
414.009	0.85	0.2	71.0	motor_selective_stop_signal	71.0	0.494	71.0	False	crit_go	s594
416.362	0.85	0.2	71.0	motor_selective_stop_signal	71.0	0.523	71.0	False	crit_go	s594
418.814	0.85	0.2	71.0	motor_selective_stop_signal	-1.0	n/a	71.0	True	crit_stop_success	s594
421.068	0.85	0.25	89.0	motor_selective_stop_signal	89.0	0.449	71.0	False	noncrit_signal	s594
423.321	0.85	0.25	71.0	motor_selective_stop_signal	71.0	0.52	71.0	False	crit_go	s594
426.072	0.85	0.25	89.0	motor_selective_stop_signal	89.0	0.439	71.0	False	noncrit_signal	s594
428.425	0.85	0.25	89.0	motor_selective_stop_signal	89.0	0.354	71.0	False	noncrit_nosignal	s594
431.179	0.85	0.25	89.0	motor_selective_stop_signal	89.0	0.501	71.0	False	noncrit_nosignal	s594
433.63	0.85	0.25	71.0	motor_selective_stop_signal	89.0	0.399	71.0	False	crit_go	s594
435.882	0.85	0.25	71.0	motor_selective_stop_signal	-1.0	n/a	71.0	True	crit_stop_success	s594
438.233	0.85	0.3	89.0	motor_selective_stop_signal	89.0	0.515	71.0	False	noncrit_nosignal	s594
440.886	0.85	0.3	71.0	motor_selective_stop_signal	71.0	0.462	71.0	False	crit_stop_failure	s594
443.338	0.85	0.25	89.0	motor_selective_stop_signal	89.0	0.434	71.0	False	noncrit_nosignal	s594
445.594	0.85	0.25	89.0	motor_selective_stop_signal	89.0	0.465	71.0	False	noncrit_signal	s594
447.949	0.85	0.25	89.0	motor_selective_stop_signal	89.0	0.445	71.0	False	noncrit_signal	s594
450.905	0.85	0.25	71.0	motor_selective_stop_signal	71.0	0.574	71.0	False	crit_go	s594
453.16	0.85	0.25	71.0	motor_selective_stop_signal	71.0	0.406	71.0	False	crit_go	s594
456.113	0.85	0.25	89.0	motor_selective_stop_signal	89.0	0.45	71.0	False	noncrit_signal	s594
458.564	0.85	0.25	71.0	motor_selective_stop_signal	-1.0	n/a	71.0	True	crit_stop_success	s594
460.817	0.85	0.3	89.0	motor_selective_stop_signal	89.0	0.42	71.0	False	noncrit_nosignal	s594
463.169	0.85	0.3	89.0	motor_selective_stop_signal	89.0	0.406	71.0	False	noncrit_nosignal	s594
465.621	0.85	0.3	71.0	motor_selective_stop_signal	89.0	0.436	71.0	False	crit_stop_failure	s594
467.874	0.85	0.25	89.0	motor_selective_stop_signal	89.0	0.517	71.0	False	noncrit_signal	s594
470.325	0.85	0.25	89.0	motor_selective_stop_signal	89.0	0.516	71.0	False	noncrit_nosignal	s594
473.076	0.85	0.25	89.0	motor_selective_stop_signal	89.0	0.51	71.0	False	noncrit_signal	s594
475.331	0.85	0.25	71.0	motor_selective_stop_signal	71.0	0.712	71.0	False	crit_go	s594
477.687	0.85	0.25	89.0	motor_selective_stop_signal	89.0	0.532	71.0	False	noncrit_signal	s594
480.139	0.85	0.25	71.0	motor_selective_stop_signal	71.0	0.549	71.0	False	crit_go	s594
482.495	0.85	0.25	89.0	motor_selective_stop_signal	89.0	0.406	71.0	False	noncrit_signal	s594
484.747	0.85	0.25	71.0	motor_selective_stop_signal	71.0	0.597	71.0	False	crit_go	s594
487.299	0.85	0.25	89.0	motor_selective_stop_signal	89.0	0.375	71.0	False	noncrit_nosignal	s594
489.75	0.85	0.25	89.0	motor_selective_stop_signal	71.0	0.35	71.0	False	noncrit_nosignal	s594
492.405	0.85	0.25	71.0	motor_selective_stop_signal	89.0	0.454	71.0	False	crit_stop_failure	s594
494.656	0.85	0.2	89.0	motor_selective_stop_signal	89.0	0.469	71.0	False	noncrit_signal	s594
497.308	0.85	0.2	89.0	motor_selective_stop_signal	89.0	0.299	71.0	False	noncrit_nosignal	s594
499.66	0.85	0.2	89.0	motor_selective_stop_signal	89.0	0.434	71.0	False	noncrit_nosignal	s594
501.914	0.85	0.2	89.0	motor_selective_stop_signal	89.0	0.421	71.0	False	noncrit_nosignal	s594
504.17	0.85	0.2	71.0	motor_selective_stop_signal	71.0	0.644	71.0	False	crit_go	s594
506.422	0.85	0.2	71.0	motor_selective_stop_signal	71.0	0.424	71.0	False	crit_go	s594
508.777	0.85	0.2	89.0	motor_selective_stop_signal	89.0	0.545	71.0	False	noncrit_signal	s594
511.329	0.85	0.2	71.0	motor_selective_stop_signal	71.0	0.56	71.0	False	crit_go	s594
513.681	0.85	0.2	71.0	motor_selective_stop_signal	-1.0	n/a	71.0	True	crit_stop_success	s594
516.136	0.85	0.25	71.0	motor_selective_stop_signal	71.0	0.486	71.0	False	crit_go	s594
529.101	0.85	0.25	71.0	motor_selective_stop_signal	-1.0	n/a	71.0	True	crit_stop_success	s594
531.457	0.85	0.3	89.0	motor_selective_stop_signal	89.0	0.417	71.0	False	noncrit_signal	s594
533.711	0.85	0.3	89.0	motor_selective_stop_signal	89.0	0.33	71.0	False	noncrit_nosignal	s594
536.266	0.85	0.3	89.0	motor_selective_stop_signal	89.0	0.383	71.0	False	noncrit_nosignal	s594
538.817	0.85	0.3	89.0	motor_selective_stop_signal	89.0	0.47	71.0	False	noncrit_signal	s594
541.068	0.85	0.3	71.0	motor_selective_stop_signal	71.0	0.582	71.0	False	crit_go	s594
543.323	0.85	0.3	71.0	motor_selective_stop_signal	71.0	0.494	71.0	False	crit_stop_failure	s594
545.775	0.85	0.25	89.0	motor_selective_stop_signal	89.0	0.393	71.0	False	noncrit_nosignal	s594
548.129	0.85	0.25	89.0	motor_selective_stop_signal	89.0	0.428	71.0	False	noncrit_nosignal	s594
550.382	0.85	0.25	71.0	motor_selective_stop_signal	71.0	0.64	71.0	False	crit_go	s594
553.533	0.85	0.25	89.0	motor_selective_stop_signal	89.0	0.448	71.0	False	noncrit_nosignal	s594
556.188	0.85	0.25	89.0	motor_selective_stop_signal	89.0	0.407	71.0	False	noncrit_signal	s594
558.441	0.85	0.25	71.0	motor_selective_stop_signal	71.0	0.568	71.0	False	crit_stop_failure	s594
560.893	0.85	0.2	89.0	motor_selective_stop_signal	89.0	0.454	71.0	False	noncrit_signal	s594
563.748	0.85	0.2	89.0	motor_selective_stop_signal	89.0	0.47	71.0	False	noncrit_nosignal	s594
566.2	0.85	0.2	71.0	motor_selective_stop_signal	71.0	0.525	71.0	False	crit_go	s594
568.455	0.85	0.2	71.0	motor_selective_stop_signal	71.0	0.602	71.0	False	crit_go	s594
570.709	0.85	0.2	89.0	motor_selective_stop_signal	89.0	0.521	71.0	False	noncrit_signal	s594
573.261	0.85	0.2	71.0	motor_selective_stop_signal	71.0	0.523	71.0	False	crit_stop_failure	s594
575.512	0.85	0.15	71.0	motor_selective_stop_signal	71.0	0.652	71.0	False	crit_go	s594
577.867	0.85	0.15	71.0	motor_selective_stop_signal	71.0	0.497	71.0	False	crit_stop_failure	s594
580.221	0.85	0.1	71.0	motor_selective_stop_signal	71.0	0.573	71.0	False	crit_go	s594
582.472	0.85	0.1	89.0	motor_selective_stop_signal	89.0	0.681	71.0	False	noncrit_signal	s594
584.824	0.85	0.1	89.0	motor_selective_stop_signal	89.0	0.425	71.0	False	noncrit_nosignal	s594
587.076	0.85	0.1	71.0	motor_selective_stop_signal	71.0	0.557	71.0	False	crit_go	s594
589.53	0.85	0.1	89.0	motor_selective_stop_signal	89.0	0.683	71.0	False	noncrit_nosignal	s594
591.785	0.85	0.1	71.0	motor_selective_stop_signal	71.0	0.523	71.0	False	crit_go	s594
594.139	0.85	0.1	89.0	motor_selective_stop_signal	89.0	0.481	71.0	False	noncrit_signal	s594
596.59	0.85	0.1	71.0	motor_selective_stop_signal	-1.0	n/a	71.0	True	crit_stop_success	s594
598.846	0.85	0.15	89.0	motor_selective_stop_signal	89.0	0.458	71.0	False	noncrit_nosignal	s594
601.099	0.85	0.15	71.0	motor_selective_stop_signal	71.0	0.499	71.0	False	crit_go	s594
603.955	0.85	0.15	71.0	motor_selective_stop_signal	71.0	0.53	71.0	False	crit_go	s594
606.211	0.85	0.15	89.0	motor_selective_stop_signal	89.0	0.49	71.0	False	noncrit_nosignal	s594
609.664	0.85	0.15	89.0	motor_selective_stop_signal	89.0	0.452	71.0	False	noncrit_signal	s594
612.015	0.85	0.15	89.0	motor_selective_stop_signal	89.0	0.427	71.0	False	noncrit_signal	s594
614.367	0.85	0.15	89.0	motor_selective_stop_signal	89.0	0.469	71.0	False	noncrit_nosignal	s594
616.72	0.85	0.15	71.0	motor_selective_stop_signal	89.0	0.724	71.0	False	crit_stop_failure	s594
619.176	0.85	0.1	89.0	motor_selective_stop_signal	89.0	0.518	71.0	False	noncrit_signal	s594
621.728	0.85	0.1	71.0	motor_selective_stop_signal	71.0	0.546	71.0	False	crit_go	s594
624.084	0.85	0.1	71.0	motor_selective_stop_signal	-1.0	n/a	71.0	True	crit_stop_success	s594
626.34	0.85	0.15	71.0	motor_selective_stop_signal	71.0	0.57	71.0	False	crit_go	s594
628.596	0.85	0.15	71.0	motor_selective_stop_signal	71.0	0.541	71.0	False	crit_go	s594
631.649	0.85	0.15	71.0	motor_selective_stop_signal	71.0	0.494	71.0	False	crit_go	s594
634.101	0.85	0.15	89.0	motor_selective_stop_signal	89.0	0.467	71.0	False	noncrit_nosignal	s594
636.458	0.85	0.15	71.0	motor_selective_stop_signal	-1.0	n/a	71.0	True	crit_stop_success	s594
638.709	0.85	0.2	71.0	motor_selective_stop_signal	-1.0	n/a	71.0	True	crit_stop_success	s594
641.961	0.85	0.25	71.0	motor_selective_stop_signal	71.0	0.44	71.0	False	crit_go	s594
644.913	0.85	0.25	71.0	motor_selective_stop_signal	89.0	0.358	71.0	False	crit_stop_failure	s594
647.467	0.85	0.2	71.0	motor_selective_stop_signal	71.0	0.702	71.0	False	crit_go	s594
649.821	0.85	0.2	71.0	motor_selective_stop_signal	71.0	0.411	71.0	False	crit_stop_failure	s594
