onset	duration	planning	condition	current_position	exp_stage	experiment_exp_id	goal_state	key_press	problem_id	response_time	start_state	trial_id	worker_id
-50.872	0.0	0	n/a	n/a	n/a	ward_and_allport	n/a	32.0	n/a	15.638	n/a	instructions	s622
3.011	6.995	1	UA_with_intermediate	1,0,0,2,0,0,0,0,0	practice	ward_and_allport	1,2,3,0,0,0,0,0,0	71.0	0.0	6.995	1,0,0,2,3,0,0,0,0	to_hand	s622
10.006	0.718	0	UA_with_intermediate	1,0,0,2,0,0,3,0,0	practice	ward_and_allport	1,2,3,0,0,0,0,0,0	82.0	0.0	0.718	1,0,0,2,3,0,0,0,0	to_board	s622
10.726	0.483	0	UA_with_intermediate	1,0,0,0,0,0,3,0,0	practice	ward_and_allport	1,2,3,0,0,0,0,0,0	71.0	0.0	0.483	1,0,0,2,3,0,0,0,0	to_hand	s622
11.211	0.384	0	UA_with_intermediate	1,2,0,0,0,0,3,0,0	practice	ward_and_allport	1,2,3,0,0,0,0,0,0	89.0	0.0	0.384	1,0,0,2,3,0,0,0,0	to_board	s622
11.595	0.526	0	UA_with_intermediate	1,2,0,0,0,0,0,0,0	practice	ward_and_allport	1,2,3,0,0,0,0,0,0	82.0	0.0	0.526	1,0,0,2,3,0,0,0,0	to_hand	s622
12.123	0.325	0	UA_with_intermediate	1,2,3,0,0,0,0,0,0	practice	ward_and_allport	1,2,3,0,0,0,0,0,0	89.0	0.0	0.325	1,0,0,2,3,0,0,0,0	to_board	s622
12.454	1.0	0	UA_with_intermediate	n/a	practice	ward_and_allport	n/a	-1.0	0.0	n/a	n/a	feedback	s622
14.956	4.525	1	UA_with_intermediate	1,2,0,0,0,0,0,0,0	practice	ward_and_allport	1,3,2,0,0,0,0,0,0	71.0	1.0	4.525	1,2,0,3,0,0,0,0,0	to_hand	s622
19.481	3.17	0	UA_with_intermediate	1,2,0,3,0,0,0,0,0	practice	ward_and_allport	1,3,2,0,0,0,0,0,0	71.0	1.0	3.17	1,2,0,3,0,0,0,0,0	to_board	s622
22.653	0.918	0	UA_with_intermediate	1,0,0,3,0,0,0,0,0	practice	ward_and_allport	1,3,2,0,0,0,0,0,0	89.0	1.0	0.918	1,2,0,3,0,0,0,0,0	to_hand	s622
23.572	0.579	0	UA_with_intermediate	1,0,0,3,0,0,2,0,0	practice	ward_and_allport	1,3,2,0,0,0,0,0,0	82.0	1.0	0.579	1,2,0,3,0,0,0,0,0	to_board	s622
24.152	0.415	0	UA_with_intermediate	1,0,0,0,0,0,2,0,0	practice	ward_and_allport	1,3,2,0,0,0,0,0,0	71.0	1.0	0.415	1,2,0,3,0,0,0,0,0	to_hand	s622
24.568	0.375	0	UA_with_intermediate	1,3,0,0,0,0,2,0,0	practice	ward_and_allport	1,3,2,0,0,0,0,0,0	89.0	1.0	0.375	1,2,0,3,0,0,0,0,0	to_board	s622
24.945	0.478	0	UA_with_intermediate	1,3,0,0,0,0,0,0,0	practice	ward_and_allport	1,3,2,0,0,0,0,0,0	82.0	1.0	0.478	1,2,0,3,0,0,0,0,0	to_hand	s622
25.424	0.77	0	UA_with_intermediate	1,3,2,0,0,0,0,0,0	practice	ward_and_allport	1,3,2,0,0,0,0,0,0	89.0	1.0	0.77	1,2,0,3,0,0,0,0,0	to_board	s622
26.198	1.0	0	UA_with_intermediate	n/a	practice	ward_and_allport	n/a	-1.0	1.0	n/a	n/a	feedback	s622
27.198	1.1	0	UA_with_intermediate	n/a	practice	ward_and_allport	n/a	-1.0	1.0	n/a	n/a	ITI	s622
28.3	2.864	1	UA_without_intermediate	0,0,0,1,2,0,0,0,0	practice	ward_and_allport	3,2,1,0,0,0,0,0,0	82.0	2.0	2.864	0,0,0,1,2,0,3,0,0	to_hand	s622
31.165	0.576	0	UA_without_intermediate	3,0,0,1,2,0,0,0,0	practice	ward_and_allport	3,2,1,0,0,0,0,0,0	89.0	2.0	0.576	0,0,0,1,2,0,3,0,0	to_board	s622
31.742	0.419	0	UA_without_intermediate	3,0,0,1,0,0,0,0,0	practice	ward_and_allport	3,2,1,0,0,0,0,0,0	71.0	2.0	0.419	0,0,0,1,2,0,3,0,0	to_hand	s622
32.163	0.876	0	UA_without_intermediate	3,2,0,1,0,0,0,0,0	practice	ward_and_allport	3,2,1,0,0,0,0,0,0	89.0	2.0	0.876	0,0,0,1,2,0,3,0,0	to_board	s622
33.041	1.078	0	UA_without_intermediate	3,2,0,0,0,0,0,0,0	practice	ward_and_allport	3,2,1,0,0,0,0,0,0	71.0	2.0	1.078	0,0,0,1,2,0,3,0,0	to_hand	s622
34.119	0.282	0	UA_without_intermediate	3,2,1,0,0,0,0,0,0	practice	ward_and_allport	3,2,1,0,0,0,0,0,0	89.0	2.0	0.282	0,0,0,1,2,0,3,0,0	to_board	s622
34.403	1.0	0	UA_without_intermediate	n/a	practice	ward_and_allport	n/a	-1.0	2.0	n/a	n/a	feedback	s622
35.403	1.2	0	UA_without_intermediate	n/a	practice	ward_and_allport	n/a	-1.0	2.0	n/a	n/a	ITI	s622
36.604	2.805	1	UA_without_intermediate	0,0,0,1,0,0,3,0,0	practice	ward_and_allport	2,3,1,0,0,0,0,0,0	71.0	3.0	2.805	0,0,0,1,2,0,3,0,0	to_hand	s622
39.41	0.442	0	UA_without_intermediate	2,0,0,1,0,0,3,0,0	practice	ward_and_allport	2,3,1,0,0,0,0,0,0	89.0	3.0	0.442	0,0,0,1,2,0,3,0,0	to_board	s622
39.853	1.69	0	UA_without_intermediate	2,0,0,1,0,0,0,0,0	practice	ward_and_allport	2,3,1,0,0,0,0,0,0	82.0	3.0	1.69	0,0,0,1,2,0,3,0,0	to_hand	s622
41.545	0.451	0	UA_without_intermediate	2,3,0,1,0,0,0,0,0	practice	ward_and_allport	2,3,1,0,0,0,0,0,0	89.0	3.0	0.451	0,0,0,1,2,0,3,0,0	to_board	s622
41.997	0.662	0	UA_without_intermediate	2,3,0,0,0,0,0,0,0	practice	ward_and_allport	2,3,1,0,0,0,0,0,0	71.0	3.0	0.662	0,0,0,1,2,0,3,0,0	to_hand	s622
42.66	0.328	0	UA_without_intermediate	2,3,1,0,0,0,0,0,0	practice	ward_and_allport	2,3,1,0,0,0,0,0,0	89.0	3.0	0.328	0,0,0,1,2,0,3,0,0	to_board	s622
42.992	1.0	0	UA_without_intermediate	n/a	practice	ward_and_allport	n/a	-1.0	3.0	n/a	n/a	feedback	s622
43.992	1.0	0	UA_without_intermediate	n/a	practice	ward_and_allport	n/a	-1.0	3.0	n/a	n/a	ITI	s622
47.003	11.117	1	PA_without_intermediate	0,0,0,1,2,0,0,0,0	test	ward_and_allport	1,0,0,0,0,0,3,2,0	71.0	0.0	11.117	0,0,0,1,2,3,0,0,0	to_hand	s622
58.12	0.756	0	PA_without_intermediate	0,0,0,1,2,0,3,0,0	test	ward_and_allport	1,0,0,0,0,0,3,2,0	82.0	0.0	0.756	0,0,0,1,2,3,0,0,0	to_board	s622
58.878	0.932	0	PA_without_intermediate	0,0,0,1,0,0,3,0,0	test	ward_and_allport	1,0,0,0,0,0,3,2,0	71.0	0.0	0.932	0,0,0,1,2,3,0,0,0	to_hand	s622
59.811	0.482	0	PA_without_intermediate	0,0,0,1,0,0,3,2,0	test	ward_and_allport	1,0,0,0,0,0,3,2,0	82.0	0.0	0.482	0,0,0,1,2,3,0,0,0	to_board	s622
60.294	1.412	0	PA_without_intermediate	0,0,0,0,0,0,3,2,0	test	ward_and_allport	1,0,0,0,0,0,3,2,0	71.0	0.0	1.412	0,0,0,1,2,3,0,0,0	to_hand	s622
61.707	0.379	0	PA_without_intermediate	1,0,0,0,0,0,3,2,0	test	ward_and_allport	1,0,0,0,0,0,3,2,0	89.0	0.0	0.379	0,0,0,1,2,3,0,0,0	to_board	s622
62.092	1.0	0	PA_without_intermediate	n/a	test	ward_and_allport	n/a	-1.0	0.0	n/a	n/a	feedback	s622
63.092	2.088	0	PA_without_intermediate	n/a	test	ward_and_allport	n/a	-1.0	0.0	n/a	n/a	ITI	s622
65.182	6.794	1	PA_with_intermediate	0,0,0,1,2,0,0,0,0	test	ward_and_allport	2,3,0,1,0,0,0,0,0	71.0	1.0	6.794	0,0,0,1,2,3,0,0,0	to_hand	s622
71.976	0.393	0	PA_with_intermediate	0,0,0,1,2,0,3,0,0	test	ward_and_allport	2,3,0,1,0,0,0,0,0	82.0	1.0	0.393	0,0,0,1,2,3,0,0,0	to_board	s622
72.371	0.966	0	PA_with_intermediate	0,0,0,1,0,0,3,0,0	test	ward_and_allport	2,3,0,1,0,0,0,0,0	71.0	1.0	0.966	0,0,0,1,2,3,0,0,0	to_hand	s622
73.339	0.466	0	PA_with_intermediate	2,0,0,1,0,0,3,0,0	test	ward_and_allport	2,3,0,1,0,0,0,0,0	89.0	1.0	0.466	0,0,0,1,2,3,0,0,0	to_board	s622
73.806	1.389	0	PA_with_intermediate	2,0,0,1,0,0,0,0,0	test	ward_and_allport	2,3,0,1,0,0,0,0,0	82.0	1.0	1.389	0,0,0,1,2,3,0,0,0	to_hand	s622
75.197	0.341	0	PA_with_intermediate	2,3,0,1,0,0,0,0,0	test	ward_and_allport	2,3,0,1,0,0,0,0,0	89.0	1.0	0.341	0,0,0,1,2,3,0,0,0	to_board	s622
75.54	1.0	0	PA_with_intermediate	n/a	test	ward_and_allport	n/a	-1.0	1.0	n/a	n/a	feedback	s622
76.54	1.0	0	PA_with_intermediate	n/a	test	ward_and_allport	n/a	-1.0	1.0	n/a	n/a	ITI	s622
77.543	6.071	1	PA_without_intermediate	1,2,0,0,0,0,0,0,0	test	ward_and_allport	0,0,0,3,2,0,1,0,0	89.0	2.0	6.071	1,2,3,0,0,0,0,0,0	to_hand	s622
83.615	1.283	0	PA_without_intermediate	1,2,0,3,0,0,0,0,0	test	ward_and_allport	0,0,0,3,2,0,1,0,0	71.0	2.0	1.283	1,2,3,0,0,0,0,0,0	to_board	s622
84.9	1.481	0	PA_without_intermediate	1,0,0,3,0,0,0,0,0	test	ward_and_allport	0,0,0,3,2,0,1,0,0	89.0	2.0	1.481	1,2,3,0,0,0,0,0,0	to_hand	s622
86.383	0.65	0	PA_without_intermediate	1,0,0,3,2,0,0,0,0	test	ward_and_allport	0,0,0,3,2,0,1,0,0	71.0	2.0	0.65	1,2,3,0,0,0,0,0,0	to_board	s622
87.034	0.403	0	PA_without_intermediate	0,0,0,3,2,0,0,0,0	test	ward_and_allport	0,0,0,3,2,0,1,0,0	89.0	2.0	0.403	1,2,3,0,0,0,0,0,0	to_hand	s622
87.439	0.475	0	PA_without_intermediate	0,0,0,3,2,0,1,0,0	test	ward_and_allport	0,0,0,3,2,0,1,0,0	82.0	2.0	0.475	1,2,3,0,0,0,0,0,0	to_board	s622
87.917	1.0	0	PA_without_intermediate	n/a	test	ward_and_allport	n/a	-1.0	2.0	n/a	n/a	feedback	s622
88.917	1.0	0	PA_without_intermediate	n/a	test	ward_and_allport	n/a	-1.0	2.0	n/a	n/a	ITI	s622
89.919	3.105	1	PA_without_intermediate	1,2,0,0,0,0,0,0,0	test	ward_and_allport	0,0,0,3,1,0,2,0,0	89.0	3.0	3.105	1,2,3,0,0,0,0,0,0	to_hand	s622
93.024	0.283	0	PA_without_intermediate	1,2,0,3,0,0,0,0,0	test	ward_and_allport	0,0,0,3,1,0,2,0,0	71.0	3.0	0.283	1,2,3,0,0,0,0,0,0	to_board	s622
93.309	1.69	0	PA_without_intermediate	1,0,0,3,0,0,0,0,0	test	ward_and_allport	0,0,0,3,1,0,2,0,0	89.0	3.0	1.69	1,2,3,0,0,0,0,0,0	to_hand	s622
95.0	0.307	0	PA_without_intermediate	1,0,0,3,0,0,2,0,0	test	ward_and_allport	0,0,0,3,1,0,2,0,0	82.0	3.0	0.307	1,2,3,0,0,0,0,0,0	to_board	s622
95.309	1.425	0	PA_without_intermediate	0,0,0,3,0,0,2,0,0	test	ward_and_allport	0,0,0,3,1,0,2,0,0	89.0	3.0	1.425	1,2,3,0,0,0,0,0,0	to_hand	s622
96.735	0.237	0	PA_without_intermediate	0,0,0,3,1,0,2,0,0	test	ward_and_allport	0,0,0,3,1,0,2,0,0	71.0	3.0	0.237	1,2,3,0,0,0,0,0,0	to_board	s622
96.978	1.0	0	PA_without_intermediate	n/a	test	ward_and_allport	n/a	-1.0	3.0	n/a	n/a	feedback	s622
97.978	1.0	0	PA_without_intermediate	n/a	test	ward_and_allport	n/a	-1.0	3.0	n/a	n/a	ITI	s622
98.98	5.87	1	PA_with_intermediate	0,0,0,1,2,0,0,0,0	test	ward_and_allport	2,0,0,1,3,0,0,0,0	71.0	4.0	5.87	0,0,0,1,2,3,0,0,0	to_hand	s622
104.852	0.386	0	PA_with_intermediate	0,0,0,1,2,0,3,0,0	test	ward_and_allport	2,0,0,1,3,0,0,0,0	82.0	4.0	0.386	0,0,0,1,2,3,0,0,0	to_board	s622
105.241	0.939	0	PA_with_intermediate	0,0,0,1,0,0,3,0,0	test	ward_and_allport	2,0,0,1,3,0,0,0,0	71.0	4.0	0.939	0,0,0,1,2,3,0,0,0	to_hand	s622
106.181	0.349	0	PA_with_intermediate	2,0,0,1,0,0,3,0,0	test	ward_and_allport	2,0,0,1,3,0,0,0,0	89.0	4.0	0.349	0,0,0,1,2,3,0,0,0	to_board	s622
106.532	1.506	0	PA_with_intermediate	2,0,0,1,0,0,0,0,0	test	ward_and_allport	2,0,0,1,3,0,0,0,0	82.0	4.0	1.506	0,0,0,1,2,3,0,0,0	to_hand	s622
108.039	0.853	0	PA_with_intermediate	2,0,0,1,3,0,0,0,0	test	ward_and_allport	2,0,0,1,3,0,0,0,0	71.0	4.0	0.853	0,0,0,1,2,3,0,0,0	to_board	s622
108.899	1.0	0	PA_with_intermediate	n/a	test	ward_and_allport	n/a	-1.0	4.0	n/a	n/a	feedback	s622
109.899	1.544	0	PA_with_intermediate	n/a	test	ward_and_allport	n/a	-1.0	4.0	n/a	n/a	ITI	s622
111.444	3.011	1	PA_without_intermediate	0,0,0,1,2,0,0,0,0	test	ward_and_allport	2,0,0,0,0,0,3,1,0	71.0	5.0	3.011	0,0,0,1,2,3,0,0,0	to_hand	s622
114.457	0.375	0	PA_without_intermediate	0,0,0,1,2,0,3,0,0	test	ward_and_allport	2,0,0,0,0,0,3,1,0	82.0	5.0	0.375	0,0,0,1,2,3,0,0,0	to_board	s622
114.834	1.975	0	PA_without_intermediate	0,0,0,1,0,0,3,0,0	test	ward_and_allport	2,0,0,0,0,0,3,1,0	71.0	5.0	1.975	0,0,0,1,2,3,0,0,0	to_hand	s622
116.811	0.63	0	PA_without_intermediate	2,0,0,1,0,0,3,0,0	test	ward_and_allport	2,0,0,0,0,0,3,1,0	89.0	5.0	0.63	0,0,0,1,2,3,0,0,0	to_board	s622
117.444	0.79	0	PA_without_intermediate	2,0,0,0,0,0,3,0,0	test	ward_and_allport	2,0,0,0,0,0,3,1,0	71.0	5.0	0.79	0,0,0,1,2,3,0,0,0	to_hand	s622
118.234	0.222	0	PA_without_intermediate	2,0,0,0,0,0,3,1,0	test	ward_and_allport	2,0,0,0,0,0,3,1,0	82.0	5.0	0.222	0,0,0,1,2,3,0,0,0	to_board	s622
118.462	1.0	0	PA_without_intermediate	n/a	test	ward_and_allport	n/a	-1.0	5.0	n/a	n/a	feedback	s622
119.462	1.272	0	PA_without_intermediate	n/a	test	ward_and_allport	n/a	-1.0	5.0	n/a	n/a	ITI	s622
120.735	6.103	1	PA_with_intermediate	0,0,0,0,0,0,1,2,0	test	ward_and_allport	2,3,0,0,0,0,1,0,0	82.0	6.0	6.103	0,0,0,0,0,0,1,2,3	to_hand	s622
126.839	0.728	0	PA_with_intermediate	0,0,0,3,0,0,1,2,0	test	ward_and_allport	2,3,0,0,0,0,1,0,0	71.0	6.0	0.728	0,0,0,0,0,0,1,2,3	to_board	s622
127.571	1.264	0	PA_with_intermediate	0,0,0,3,0,0,1,0,0	test	ward_and_allport	2,3,0,0,0,0,1,0,0	82.0	6.0	1.264	0,0,0,0,0,0,1,2,3	to_hand	s622
128.836	0.352	0	PA_with_intermediate	2,0,0,3,0,0,1,0,0	test	ward_and_allport	2,3,0,0,0,0,1,0,0	89.0	6.0	0.352	0,0,0,0,0,0,1,2,3	to_board	s622
129.189	0.732	0	PA_with_intermediate	2,0,0,0,0,0,1,0,0	test	ward_and_allport	2,3,0,0,0,0,1,0,0	71.0	6.0	0.732	0,0,0,0,0,0,1,2,3	to_hand	s622
129.922	0.401	0	PA_with_intermediate	2,3,0,0,0,0,1,0,0	test	ward_and_allport	2,3,0,0,0,0,1,0,0	89.0	6.0	0.401	0,0,0,0,0,0,1,2,3	to_board	s622
130.331	1.0	0	PA_with_intermediate	n/a	test	ward_and_allport	n/a	-1.0	6.0	n/a	n/a	feedback	s622
131.331	3.04	0	PA_with_intermediate	n/a	test	ward_and_allport	n/a	-1.0	6.0	n/a	n/a	ITI	s622
134.374	5.261	1	PA_with_intermediate	0,0,0,0,0,0,1,2,0	test	ward_and_allport	2,0,0,0,0,0,1,3,0	82.0	7.0	5.261	0,0,0,0,0,0,1,2,3	to_hand	s622
139.636	0.385	0	PA_with_intermediate	0,0,0,3,0,0,1,2,0	test	ward_and_allport	2,0,0,0,0,0,1,3,0	71.0	7.0	0.385	0,0,0,0,0,0,1,2,3	to_board	s622
140.024	0.667	0	PA_with_intermediate	0,0,0,3,0,0,1,0,0	test	ward_and_allport	2,0,0,0,0,0,1,3,0	82.0	7.0	0.667	0,0,0,0,0,0,1,2,3	to_hand	s622
140.692	0.447	0	PA_with_intermediate	2,0,0,3,0,0,1,0,0	test	ward_and_allport	2,0,0,0,0,0,1,3,0	89.0	7.0	0.447	0,0,0,0,0,0,1,2,3	to_board	s622
141.142	1.245	0	PA_with_intermediate	2,0,0,0,0,0,1,0,0	test	ward_and_allport	2,0,0,0,0,0,1,3,0	71.0	7.0	1.245	0,0,0,0,0,0,1,2,3	to_hand	s622
142.388	0.499	0	PA_with_intermediate	2,0,0,0,0,0,1,3,0	test	ward_and_allport	2,0,0,0,0,0,1,3,0	82.0	7.0	0.499	0,0,0,0,0,0,1,2,3	to_board	s622
142.895	1.0	0	PA_with_intermediate	n/a	test	ward_and_allport	n/a	-1.0	7.0	n/a	n/a	feedback	s622
143.895	1.272	0	PA_with_intermediate	n/a	test	ward_and_allport	n/a	-1.0	7.0	n/a	n/a	ITI	s622
145.169	6.452	1	PA_with_intermediate	0,0,0,0,0,0,1,2,0	test	ward_and_allport	0,0,0,2,3,0,1,0,0	82.0	8.0	6.452	0,0,0,0,0,0,1,2,3	to_hand	s622
151.623	0.628	0	PA_with_intermediate	3,0,0,0,0,0,1,2,0	test	ward_and_allport	0,0,0,2,3,0,1,0,0	89.0	8.0	0.628	0,0,0,0,0,0,1,2,3	to_board	s622
152.253	1.282	0	PA_with_intermediate	3,0,0,0,0,0,1,0,0	test	ward_and_allport	0,0,0,2,3,0,1,0,0	82.0	8.0	1.282	0,0,0,0,0,0,1,2,3	to_hand	s622
153.537	0.588	0	PA_with_intermediate	3,0,0,2,0,0,1,0,0	test	ward_and_allport	0,0,0,2,3,0,1,0,0	71.0	8.0	0.588	0,0,0,0,0,0,1,2,3	to_board	s622
154.129	1.194	0	PA_with_intermediate	0,0,0,2,0,0,1,0,0	test	ward_and_allport	0,0,0,2,3,0,1,0,0	89.0	8.0	1.194	0,0,0,0,0,0,1,2,3	to_hand	s622
155.323	0.177	0	PA_with_intermediate	0,0,0,2,3,0,1,0,0	test	ward_and_allport	0,0,0,2,3,0,1,0,0	71.0	8.0	0.177	0,0,0,0,0,0,1,2,3	to_board	s622
155.506	1.0	0	PA_with_intermediate	n/a	test	ward_and_allport	n/a	-1.0	8.0	n/a	n/a	feedback	s622
156.506	1.136	0	PA_with_intermediate	n/a	test	ward_and_allport	n/a	-1.0	8.0	n/a	n/a	ITI	s622
157.644	7.18	1	PA_with_intermediate	1,2,0,0,0,0,0,0,0	test	ward_and_allport	1,0,0,0,0,0,2,3,0	89.0	9.0	7.18	1,2,3,0,0,0,0,0,0	to_hand	s622
164.825	0.231	0	PA_with_intermediate	1,2,0,3,0,0,0,0,0	test	ward_and_allport	1,0,0,0,0,0,2,3,0	71.0	9.0	0.231	1,2,3,0,0,0,0,0,0	to_board	s622
165.06	1.06	0	PA_with_intermediate	1,0,0,3,0,0,0,0,0	test	ward_and_allport	1,0,0,0,0,0,2,3,0	89.0	9.0	1.06	1,2,3,0,0,0,0,0,0	to_hand	s622
166.121	0.255	0	PA_with_intermediate	1,0,0,3,0,0,2,0,0	test	ward_and_allport	1,0,0,0,0,0,2,3,0	82.0	9.0	0.255	1,2,3,0,0,0,0,0,0	to_board	s622
166.379	0.653	0	PA_with_intermediate	1,0,0,0,0,0,2,0,0	test	ward_and_allport	1,0,0,0,0,0,2,3,0	71.0	9.0	0.653	1,2,3,0,0,0,0,0,0	to_hand	s622
167.033	0.196	0	PA_with_intermediate	1,0,0,0,0,0,2,3,0	test	ward_and_allport	1,0,0,0,0,0,2,3,0	82.0	9.0	0.196	1,2,3,0,0,0,0,0,0	to_board	s622
167.237	1.0	0	PA_with_intermediate	n/a	test	ward_and_allport	n/a	-1.0	9.0	n/a	n/a	feedback	s622
168.237	1.0	0	PA_with_intermediate	n/a	test	ward_and_allport	n/a	-1.0	9.0	n/a	n/a	ITI	s622
169.24	5.207	1	PA_with_intermediate	0,0,0,0,0,0,1,2,0	test	ward_and_allport	2,3,0,0,0,0,1,0,0	82.0	10.0	5.207	0,0,0,0,0,0,1,2,3	to_hand	s622
174.449	0.416	0	PA_with_intermediate	0,0,0,3,0,0,1,2,0	test	ward_and_allport	2,3,0,0,0,0,1,0,0	71.0	10.0	0.416	0,0,0,0,0,0,1,2,3	to_board	s622
174.869	0.57	0	PA_with_intermediate	0,0,0,3,0,0,1,0,0	test	ward_and_allport	2,3,0,0,0,0,1,0,0	82.0	10.0	0.57	0,0,0,0,0,0,1,2,3	to_hand	s622
175.441	0.348	0	PA_with_intermediate	2,0,0,3,0,0,1,0,0	test	ward_and_allport	2,3,0,0,0,0,1,0,0	89.0	10.0	0.348	0,0,0,0,0,0,1,2,3	to_board	s622
175.793	0.357	0	PA_with_intermediate	2,0,0,0,0,0,1,0,0	test	ward_and_allport	2,3,0,0,0,0,1,0,0	71.0	10.0	0.357	0,0,0,0,0,0,1,2,3	to_hand	s622
176.151	0.289	0	PA_with_intermediate	2,3,0,0,0,0,1,0,0	test	ward_and_allport	2,3,0,0,0,0,1,0,0	89.0	10.0	0.289	0,0,0,0,0,0,1,2,3	to_board	s622
176.448	1.0	0	PA_with_intermediate	n/a	test	ward_and_allport	n/a	-1.0	10.0	n/a	n/a	feedback	s622
177.448	1.0	0	PA_with_intermediate	n/a	test	ward_and_allport	n/a	-1.0	10.0	n/a	n/a	ITI	s622
178.45	4.765	1	PA_without_intermediate	1,2,0,0,0,0,0,0,0	test	ward_and_allport	0,0,0,1,0,0,3,2,0	89.0	11.0	4.765	1,2,3,0,0,0,0,0,0	to_hand	s622
183.217	0.278	0	PA_without_intermediate	1,2,0,0,0,0,3,0,0	test	ward_and_allport	0,0,0,1,0,0,3,2,0	82.0	11.0	0.278	1,2,3,0,0,0,0,0,0	to_board	s622
183.497	0.792	0	PA_without_intermediate	1,0,0,0,0,0,3,0,0	test	ward_and_allport	0,0,0,1,0,0,3,2,0	89.0	11.0	0.792	1,2,3,0,0,0,0,0,0	to_hand	s622
184.291	0.222	0	PA_without_intermediate	1,0,0,0,0,0,3,2,0	test	ward_and_allport	0,0,0,1,0,0,3,2,0	82.0	11.0	0.222	1,2,3,0,0,0,0,0,0	to_board	s622
184.517	1.911	0	PA_without_intermediate	0,0,0,0,0,0,3,2,0	test	ward_and_allport	0,0,0,1,0,0,3,2,0	89.0	11.0	1.911	1,2,3,0,0,0,0,0,0	to_hand	s622
186.429	0.505	0	PA_without_intermediate	0,0,0,1,0,0,3,2,0	test	ward_and_allport	0,0,0,1,0,0,3,2,0	71.0	11.0	0.505	1,2,3,0,0,0,0,0,0	to_board	s622
186.941	1.0	0	PA_without_intermediate	n/a	test	ward_and_allport	n/a	-1.0	11.0	n/a	n/a	feedback	s622
187.941	1.408	0	PA_without_intermediate	n/a	test	ward_and_allport	n/a	-1.0	11.0	n/a	n/a	ITI	s622
189.354	7.624	1	PA_with_intermediate	0,0,0,1,2,0,0,0,0	test	ward_and_allport	2,0,0,1,3,0,0,0,0	71.0	12.0	7.624	0,0,0,1,2,3,0,0,0	to_hand	s622
196.978	0.292	0	PA_with_intermediate	0,0,0,1,2,0,3,0,0	test	ward_and_allport	2,0,0,1,3,0,0,0,0	82.0	12.0	0.292	0,0,0,1,2,3,0,0,0	to_board	s622
197.274	0.773	0	PA_with_intermediate	0,0,0,1,0,0,3,0,0	test	ward_and_allport	2,0,0,1,3,0,0,0,0	71.0	12.0	0.773	0,0,0,1,2,3,0,0,0	to_hand	s622
198.048	0.233	0	PA_with_intermediate	2,0,0,1,0,0,3,0,0	test	ward_and_allport	2,0,0,1,3,0,0,0,0	89.0	12.0	0.233	0,0,0,1,2,3,0,0,0	to_board	s622
198.284	0.72	0	PA_with_intermediate	2,0,0,1,0,0,0,0,0	test	ward_and_allport	2,0,0,1,3,0,0,0,0	82.0	12.0	0.72	0,0,0,1,2,3,0,0,0	to_hand	s622
199.005	0.293	0	PA_with_intermediate	2,3,0,1,0,0,0,0,0	test	ward_and_allport	2,0,0,1,3,0,0,0,0	89.0	12.0	0.293	0,0,0,1,2,3,0,0,0	to_board	s622
199.302	3.135	0	PA_with_intermediate	2,0,0,1,0,0,0,0,0	test	ward_and_allport	2,0,0,1,3,0,0,0,0	89.0	12.0	3.135	0,0,0,1,2,3,0,0,0	to_hand	s622
202.438	0.604	0	PA_with_intermediate	2,0,0,1,3,0,0,0,0	test	ward_and_allport	2,0,0,1,3,0,0,0,0	71.0	12.0	0.604	0,0,0,1,2,3,0,0,0	to_board	s622
203.049	1.0	0	PA_with_intermediate	n/a	test	ward_and_allport	n/a	-1.0	12.0	n/a	n/a	feedback	s622
204.049	2.768	0	PA_with_intermediate	n/a	test	ward_and_allport	n/a	-1.0	12.0	n/a	n/a	ITI	s622
206.821	5.811	1	PA_with_intermediate	1,2,0,0,0,0,0,0,0	test	ward_and_allport	1,3,0,2,0,0,0,0,0	89.0	13.0	5.811	1,2,3,0,0,0,0,0,0	to_hand	s622
212.633	0.386	0	PA_with_intermediate	1,2,0,0,0,0,3,0,0	test	ward_and_allport	1,3,0,2,0,0,0,0,0	82.0	13.0	0.386	1,2,3,0,0,0,0,0,0	to_board	s622
213.024	0.572	0	PA_with_intermediate	1,0,0,0,0,0,3,0,0	test	ward_and_allport	1,3,0,2,0,0,0,0,0	89.0	13.0	0.572	1,2,3,0,0,0,0,0,0	to_hand	s622
213.597	0.293	0	PA_with_intermediate	1,0,0,2,0,0,3,0,0	test	ward_and_allport	1,3,0,2,0,0,0,0,0	71.0	13.0	0.293	1,2,3,0,0,0,0,0,0	to_board	s622
213.893	2.978	0	PA_with_intermediate	1,0,0,2,0,0,0,0,0	test	ward_and_allport	1,3,0,2,0,0,0,0,0	82.0	13.0	2.978	1,2,3,0,0,0,0,0,0	to_hand	s622
216.872	0.367	0	PA_with_intermediate	1,3,0,2,0,0,0,0,0	test	ward_and_allport	1,3,0,2,0,0,0,0,0	89.0	13.0	0.367	1,2,3,0,0,0,0,0,0	to_board	s622
217.246	1.0	0	PA_with_intermediate	n/a	test	ward_and_allport	n/a	-1.0	13.0	n/a	n/a	feedback	s622
218.246	1.68	0	PA_with_intermediate	n/a	test	ward_and_allport	n/a	-1.0	13.0	n/a	n/a	ITI	s622
219.931	3.358	1	PA_without_intermediate	1,2,0,0,0,0,0,0,0	test	ward_and_allport	0,0,0,1,0,0,3,2,0	89.0	14.0	3.358	1,2,3,0,0,0,0,0,0	to_hand	s622
223.29	0.33	0	PA_without_intermediate	1,2,0,0,0,0,3,0,0	test	ward_and_allport	0,0,0,1,0,0,3,2,0	82.0	14.0	0.33	1,2,3,0,0,0,0,0,0	to_board	s622
223.624	1.916	0	PA_without_intermediate	1,0,0,0,0,0,3,0,0	test	ward_and_allport	0,0,0,1,0,0,3,2,0	89.0	14.0	1.916	1,2,3,0,0,0,0,0,0	to_hand	s622
225.541	0.328	0	PA_without_intermediate	1,0,0,0,0,0,3,2,0	test	ward_and_allport	0,0,0,1,0,0,3,2,0	82.0	14.0	0.328	1,2,3,0,0,0,0,0,0	to_board	s622
225.875	0.5	0	PA_without_intermediate	0,0,0,0,0,0,3,2,0	test	ward_and_allport	0,0,0,1,0,0,3,2,0	89.0	14.0	0.5	1,2,3,0,0,0,0,0,0	to_hand	s622
226.376	0.326	0	PA_without_intermediate	0,0,0,1,0,0,3,2,0	test	ward_and_allport	0,0,0,1,0,0,3,2,0	71.0	14.0	0.326	1,2,3,0,0,0,0,0,0	to_board	s622
226.708	1.0	0	PA_without_intermediate	n/a	test	ward_and_allport	n/a	-1.0	14.0	n/a	n/a	feedback	s622
227.708	2.224	0	PA_without_intermediate	n/a	test	ward_and_allport	n/a	-1.0	14.0	n/a	n/a	ITI	s622
234.94	6.196	1	PA_without_intermediate	0,0,0,1,2,0,0,0,0	test	ward_and_allport	3,1,0,0,0,0,2,0,0	71.0	15.0	6.196	0,0,0,1,2,3,0,0,0	to_hand	s622
241.137	0.442	0	PA_without_intermediate	3,0,0,1,2,0,0,0,0	test	ward_and_allport	3,1,0,0,0,0,2,0,0	89.0	15.0	0.442	0,0,0,1,2,3,0,0,0	to_board	s622
241.583	0.948	0	PA_without_intermediate	3,0,0,1,0,0,0,0,0	test	ward_and_allport	3,1,0,0,0,0,2,0,0	71.0	15.0	0.948	0,0,0,1,2,3,0,0,0	to_hand	s622
242.532	0.463	0	PA_without_intermediate	3,0,0,1,0,0,2,0,0	test	ward_and_allport	3,1,0,0,0,0,2,0,0	82.0	15.0	0.463	0,0,0,1,2,3,0,0,0	to_board	s622
242.998	0.914	0	PA_without_intermediate	3,0,0,0,0,0,2,0,0	test	ward_and_allport	3,1,0,0,0,0,2,0,0	71.0	15.0	0.914	0,0,0,1,2,3,0,0,0	to_hand	s622
243.913	0.356	0	PA_without_intermediate	3,1,0,0,0,0,2,0,0	test	ward_and_allport	3,1,0,0,0,0,2,0,0	89.0	15.0	0.356	0,0,0,1,2,3,0,0,0	to_board	s622
244.274	1.0	0	PA_without_intermediate	n/a	test	ward_and_allport	n/a	-1.0	15.0	n/a	n/a	feedback	s622
245.274	2.36	0	PA_without_intermediate	n/a	test	ward_and_allport	n/a	-1.0	15.0	n/a	n/a	ITI	s622
247.638	3.153	1	PA_without_intermediate	0,0,0,1,2,0,0,0,0	test	ward_and_allport	2,0,0,0,0,0,3,1,0	71.0	16.0	3.153	0,0,0,1,2,3,0,0,0	to_hand	s622
250.791	0.406	0	PA_without_intermediate	0,0,0,1,2,0,3,0,0	test	ward_and_allport	2,0,0,0,0,0,3,1,0	82.0	16.0	0.406	0,0,0,1,2,3,0,0,0	to_board	s622
251.201	1.114	0	PA_without_intermediate	0,0,0,1,0,0,3,0,0	test	ward_and_allport	2,0,0,0,0,0,3,1,0	71.0	16.0	1.114	0,0,0,1,2,3,0,0,0	to_hand	s622
252.316	0.246	0	PA_without_intermediate	2,0,0,1,0,0,3,0,0	test	ward_and_allport	2,0,0,0,0,0,3,1,0	89.0	16.0	0.246	0,0,0,1,2,3,0,0,0	to_board	s622
252.566	0.954	0	PA_without_intermediate	2,0,0,0,0,0,3,0,0	test	ward_and_allport	2,0,0,0,0,0,3,1,0	71.0	16.0	0.954	0,0,0,1,2,3,0,0,0	to_hand	s622
253.52	0.264	0	PA_without_intermediate	2,0,0,0,0,0,3,1,0	test	ward_and_allport	2,0,0,0,0,0,3,1,0	82.0	16.0	0.264	0,0,0,1,2,3,0,0,0	to_board	s622
253.789	1.0	0	PA_without_intermediate	n/a	test	ward_and_allport	n/a	-1.0	16.0	n/a	n/a	feedback	s622
254.789	1.0	0	PA_without_intermediate	n/a	test	ward_and_allport	n/a	-1.0	16.0	n/a	n/a	ITI	s622
255.793	4.313	1	PA_without_intermediate	0,0,0,0,0,0,1,2,0	test	ward_and_allport	3,2,0,1,0,0,0,0,0	82.0	17.0	4.313	0,0,0,0,0,0,1,2,3	to_hand	s622
260.107	0.369	0	PA_without_intermediate	3,0,0,0,0,0,1,2,0	test	ward_and_allport	3,2,0,1,0,0,0,0,0	89.0	17.0	0.369	0,0,0,0,0,0,1,2,3	to_board	s622
260.48	1.296	0	PA_without_intermediate	3,0,0,0,0,0,1,0,0	test	ward_and_allport	3,2,0,1,0,0,0,0,0	82.0	17.0	1.296	0,0,0,0,0,0,1,2,3	to_hand	s622
261.776	0.574	0	PA_without_intermediate	3,2,0,0,0,0,1,0,0	test	ward_and_allport	3,2,0,1,0,0,0,0,0	89.0	17.0	0.574	0,0,0,0,0,0,1,2,3	to_board	s622
262.354	0.982	0	PA_without_intermediate	3,2,0,0,0,0,0,0,0	test	ward_and_allport	3,2,0,1,0,0,0,0,0	82.0	17.0	0.982	0,0,0,0,0,0,1,2,3	to_hand	s622
263.338	0.234	0	PA_without_intermediate	3,2,0,1,0,0,0,0,0	test	ward_and_allport	3,2,0,1,0,0,0,0,0	71.0	17.0	0.234	0,0,0,0,0,0,1,2,3	to_board	s622
263.579	1.0	0	PA_without_intermediate	n/a	test	ward_and_allport	n/a	-1.0	17.0	n/a	n/a	feedback	s622
264.579	1.408	0	PA_without_intermediate	n/a	test	ward_and_allport	n/a	-1.0	17.0	n/a	n/a	ITI	s622
265.991	5.222	1	PA_with_intermediate	0,0,0,1,2,0,0,0,0	test	ward_and_allport	0,0,0,1,3,0,2,0,0	71.0	18.0	5.222	0,0,0,1,2,3,0,0,0	to_hand	s622
271.214	0.191	0	PA_with_intermediate	3,0,0,1,2,0,0,0,0	test	ward_and_allport	0,0,0,1,3,0,2,0,0	89.0	18.0	0.191	0,0,0,1,2,3,0,0,0	to_board	s622
271.41	0.491	0	PA_with_intermediate	3,0,0,1,0,0,0,0,0	test	ward_and_allport	0,0,0,1,3,0,2,0,0	71.0	18.0	0.491	0,0,0,1,2,3,0,0,0	to_hand	s622
271.901	0.255	0	PA_with_intermediate	3,0,0,1,0,0,2,0,0	test	ward_and_allport	0,0,0,1,3,0,2,0,0	82.0	18.0	0.255	0,0,0,1,2,3,0,0,0	to_board	s622
272.161	1.473	0	PA_with_intermediate	0,0,0,1,0,0,2,0,0	test	ward_and_allport	0,0,0,1,3,0,2,0,0	89.0	18.0	1.473	0,0,0,1,2,3,0,0,0	to_hand	s622
273.635	0.196	0	PA_with_intermediate	0,0,0,1,3,0,2,0,0	test	ward_and_allport	0,0,0,1,3,0,2,0,0	71.0	18.0	0.196	0,0,0,1,2,3,0,0,0	to_board	s622
273.84	1.0	0	PA_with_intermediate	n/a	test	ward_and_allport	n/a	-1.0	18.0	n/a	n/a	feedback	s622
274.84	1.136	0	PA_with_intermediate	n/a	test	ward_and_allport	n/a	-1.0	18.0	n/a	n/a	ITI	s622
275.98	5.209	1	PA_without_intermediate	0,0,0,0,0,0,1,2,0	test	ward_and_allport	2,0,0,3,1,0,0,0,0	82.0	19.0	5.209	0,0,0,0,0,0,1,2,3	to_hand	s622
281.191	0.213	0	PA_without_intermediate	3,0,0,0,0,0,1,2,0	test	ward_and_allport	2,0,0,3,1,0,0,0,0	89.0	19.0	0.213	0,0,0,0,0,0,1,2,3	to_board	s622
281.407	0.429	0	PA_without_intermediate	3,0,0,0,0,0,1,0,0	test	ward_and_allport	2,0,0,3,1,0,0,0,0	82.0	19.0	0.429	0,0,0,0,0,0,1,2,3	to_hand	s622
281.837	5.281	0	PA_without_intermediate	3,0,0,0,0,0,1,2,0	test	ward_and_allport	2,0,0,3,1,0,0,0,0	82.0	19.0	5.281	0,0,0,0,0,0,1,2,3	to_board	s622
287.123	1.202	0	PA_without_intermediate	0,0,0,0,0,0,1,2,0	test	ward_and_allport	2,0,0,3,1,0,0,0,0	89.0	19.0	1.202	0,0,0,0,0,0,1,2,3	to_hand	s622
288.326	0.327	0	PA_without_intermediate	0,0,0,3,0,0,1,2,0	test	ward_and_allport	2,0,0,3,1,0,0,0,0	71.0	19.0	0.327	0,0,0,0,0,0,1,2,3	to_board	s622
288.657	0.628	0	PA_without_intermediate	0,0,0,3,0,0,1,0,0	test	ward_and_allport	2,0,0,3,1,0,0,0,0	82.0	19.0	0.628	0,0,0,0,0,0,1,2,3	to_hand	s622
289.286	0.399	0	PA_without_intermediate	2,0,0,3,0,0,1,0,0	test	ward_and_allport	2,0,0,3,1,0,0,0,0	89.0	19.0	0.399	0,0,0,0,0,0,1,2,3	to_board	s622
289.69	0.941	0	PA_without_intermediate	2,0,0,3,0,0,0,0,0	test	ward_and_allport	2,0,0,3,1,0,0,0,0	82.0	19.0	0.941	0,0,0,0,0,0,1,2,3	to_hand	s622
290.632	0.777	0	PA_without_intermediate	2,0,0,3,1,0,0,0,0	test	ward_and_allport	2,0,0,3,1,0,0,0,0	71.0	19.0	0.777	0,0,0,0,0,0,1,2,3	to_board	s622
291.42	1.0	0	PA_without_intermediate	n/a	test	ward_and_allport	n/a	-1.0	19.0	n/a	n/a	feedback	s622
292.42	4.128	0	PA_without_intermediate	n/a	test	ward_and_allport	n/a	-1.0	19.0	n/a	n/a	ITI	s622
296.552	2.472	1	PA_without_intermediate	1,2,0,0,0,0,0,0,0	test	ward_and_allport	0,0,0,3,1,0,2,0,0	89.0	20.0	2.472	1,2,3,0,0,0,0,0,0	to_hand	s622
299.025	0.286	0	PA_without_intermediate	1,2,0,3,0,0,0,0,0	test	ward_and_allport	0,0,0,3,1,0,2,0,0	71.0	20.0	0.286	1,2,3,0,0,0,0,0,0	to_board	s622
299.317	1.194	0	PA_without_intermediate	1,0,0,3,0,0,0,0,0	test	ward_and_allport	0,0,0,3,1,0,2,0,0	89.0	20.0	1.194	1,2,3,0,0,0,0,0,0	to_hand	s622
300.511	0.214	0	PA_without_intermediate	1,0,0,3,0,0,2,0,0	test	ward_and_allport	0,0,0,3,1,0,2,0,0	82.0	20.0	0.214	1,2,3,0,0,0,0,0,0	to_board	s622
300.73	0.87	0	PA_without_intermediate	0,0,0,3,0,0,2,0,0	test	ward_and_allport	0,0,0,3,1,0,2,0,0	89.0	20.0	0.87	1,2,3,0,0,0,0,0,0	to_hand	s622
301.602	0.232	0	PA_without_intermediate	0,0,0,3,1,0,2,0,0	test	ward_and_allport	0,0,0,3,1,0,2,0,0	71.0	20.0	0.232	1,2,3,0,0,0,0,0,0	to_board	s622
301.841	1.0	0	PA_without_intermediate	n/a	test	ward_and_allport	n/a	-1.0	20.0	n/a	n/a	feedback	s622
302.841	1.136	0	PA_without_intermediate	n/a	test	ward_and_allport	n/a	-1.0	20.0	n/a	n/a	ITI	s622
303.982	4.226	1	PA_without_intermediate	0,0,0,1,2,0,0,0,0	test	ward_and_allport	3,2,0,0,0,0,1,0,0	71.0	21.0	4.226	0,0,0,1,2,3,0,0,0	to_hand	s622
308.208	0.273	0	PA_without_intermediate	0,0,0,1,2,0,3,0,0	test	ward_and_allport	3,2,0,0,0,0,1,0,0	82.0	21.0	0.273	0,0,0,1,2,3,0,0,0	to_board	s622
308.487	0.757	0	PA_without_intermediate	0,0,0,1,0,0,3,0,0	test	ward_and_allport	3,2,0,0,0,0,1,0,0	71.0	21.0	0.757	0,0,0,1,2,3,0,0,0	to_hand	s622
309.244	0.201	0	PA_without_intermediate	2,0,0,1,0,0,3,0,0	test	ward_and_allport	3,2,0,0,0,0,1,0,0	89.0	21.0	0.201	0,0,0,1,2,3,0,0,0	to_board	s622
309.452	1.777	0	PA_without_intermediate	2,0,0,1,0,0,0,0,0	test	ward_and_allport	3,2,0,0,0,0,1,0,0	82.0	21.0	1.777	0,0,0,1,2,3,0,0,0	to_hand	s622
311.23	0.366	0	PA_without_intermediate	2,3,0,1,0,0,0,0,0	test	ward_and_allport	3,2,0,0,0,0,1,0,0	89.0	21.0	0.366	0,0,0,1,2,3,0,0,0	to_board	s622
311.602	1.038	0	PA_without_intermediate	2,3,0,0,0,0,0,0,0	test	ward_and_allport	3,2,0,0,0,0,1,0,0	71.0	21.0	1.038	0,0,0,1,2,3,0,0,0	to_hand	s622
312.641	0.346	0	PA_without_intermediate	2,3,0,0,0,0,1,0,0	test	ward_and_allport	3,2,0,0,0,0,1,0,0	82.0	21.0	0.346	0,0,0,1,2,3,0,0,0	to_board	s622
312.993	7.258	0	PA_without_intermediate	2,0,0,0,0,0,1,0,0	test	ward_and_allport	3,2,0,0,0,0,1,0,0	89.0	21.0	7.258	0,0,0,1,2,3,0,0,0	to_hand	s622
320.252	0.736	0	PA_without_intermediate	2,0,0,3,0,0,1,0,0	test	ward_and_allport	3,2,0,0,0,0,1,0,0	71.0	21.0	0.736	0,0,0,1,2,3,0,0,0	to_board	s622
320.994	1.253	0	PA_without_intermediate	0,0,0,3,0,0,1,0,0	test	ward_and_allport	3,2,0,0,0,0,1,0,0	89.0	21.0	1.253	0,0,0,1,2,3,0,0,0	to_hand	s622
322.247	0.285	0	PA_without_intermediate	0,0,0,3,2,0,1,0,0	test	ward_and_allport	3,2,0,0,0,0,1,0,0	71.0	21.0	0.285	0,0,0,1,2,3,0,0,0	to_board	s622
322.538	1.121	0	PA_without_intermediate	0,0,0,3,0,0,1,0,0	test	ward_and_allport	3,2,0,0,0,0,1,0,0	71.0	21.0	1.121	0,0,0,1,2,3,0,0,0	to_hand	s622
323.66	0.229	0	PA_without_intermediate	0,0,0,3,0,0,1,2,0	test	ward_and_allport	3,2,0,0,0,0,1,0,0	82.0	21.0	0.229	0,0,0,1,2,3,0,0,0	to_board	s622
323.894	0.733	0	PA_without_intermediate	0,0,0,0,0,0,1,2,0	test	ward_and_allport	3,2,0,0,0,0,1,0,0	71.0	21.0	0.733	0,0,0,1,2,3,0,0,0	to_hand	s622
324.628	0.208	0	PA_without_intermediate	3,0,0,0,0,0,1,2,0	test	ward_and_allport	3,2,0,0,0,0,1,0,0	89.0	21.0	0.208	0,0,0,1,2,3,0,0,0	to_board	s622
324.841	0.67	0	PA_without_intermediate	3,0,0,0,0,0,1,0,0	test	ward_and_allport	3,2,0,0,0,0,1,0,0	82.0	21.0	0.67	0,0,0,1,2,3,0,0,0	to_hand	s622
325.513	0.211	0	PA_without_intermediate	3,2,0,0,0,0,1,0,0	test	ward_and_allport	3,2,0,0,0,0,1,0,0	89.0	21.0	0.211	0,0,0,1,2,3,0,0,0	to_board	s622
325.733	1.0	0	PA_without_intermediate	n/a	test	ward_and_allport	n/a	-1.0	21.0	n/a	n/a	feedback	s622
326.733	4.264	0	PA_without_intermediate	n/a	test	ward_and_allport	n/a	-1.0	21.0	n/a	n/a	ITI	s622
331.003	8.382	1	PA_with_intermediate	1,2,0,0,0,0,0,0,0	test	ward_and_allport	1,0,0,2,3,0,0,0,0	89.0	22.0	8.382	1,2,3,0,0,0,0,0,0	to_hand	s622
339.386	0.296	0	PA_with_intermediate	1,2,0,0,0,0,3,0,0	test	ward_and_allport	1,0,0,2,3,0,0,0,0	82.0	22.0	0.296	1,2,3,0,0,0,0,0,0	to_board	s622
339.69	1.462	0	PA_with_intermediate	1,0,0,0,0,0,3,0,0	test	ward_and_allport	1,0,0,2,3,0,0,0,0	89.0	22.0	1.462	1,2,3,0,0,0,0,0,0	to_hand	s622
341.153	1.119	0	PA_with_intermediate	1,0,0,2,0,0,3,0,0	test	ward_and_allport	1,0,0,2,3,0,0,0,0	71.0	22.0	1.119	1,2,3,0,0,0,0,0,0	to_board	s622
342.278	1.27	0	PA_with_intermediate	1,0,0,2,0,0,0,0,0	test	ward_and_allport	1,0,0,2,3,0,0,0,0	82.0	22.0	1.27	1,2,3,0,0,0,0,0,0	to_hand	s622
343.55	0.299	0	PA_with_intermediate	1,0,0,2,3,0,0,0,0	test	ward_and_allport	1,0,0,2,3,0,0,0,0	71.0	22.0	0.299	1,2,3,0,0,0,0,0,0	to_board	s622
343.859	1.0	0	PA_with_intermediate	n/a	test	ward_and_allport	n/a	-1.0	22.0	n/a	n/a	feedback	s622
344.859	3.04	0	PA_with_intermediate	n/a	test	ward_and_allport	n/a	-1.0	22.0	n/a	n/a	ITI	s622
347.904	5.107	1	PA_with_intermediate	0,0,0,0,0,0,1,2,0	test	ward_and_allport	0,0,0,2,3,0,1,0,0	82.0	23.0	5.107	0,0,0,0,0,0,1,2,3	to_hand	s622
353.013	0.29	0	PA_with_intermediate	3,0,0,0,0,0,1,2,0	test	ward_and_allport	0,0,0,2,3,0,1,0,0	89.0	23.0	0.29	0,0,0,0,0,0,1,2,3	to_board	s622
353.309	1.269	0	PA_with_intermediate	3,0,0,0,0,0,1,0,0	test	ward_and_allport	0,0,0,2,3,0,1,0,0	82.0	23.0	1.269	0,0,0,0,0,0,1,2,3	to_hand	s622
354.578	0.248	0	PA_with_intermediate	3,0,0,2,0,0,1,0,0	test	ward_and_allport	0,0,0,2,3,0,1,0,0	71.0	23.0	0.248	0,0,0,0,0,0,1,2,3	to_board	s622
354.832	0.848	0	PA_with_intermediate	0,0,0,2,0,0,1,0,0	test	ward_and_allport	0,0,0,2,3,0,1,0,0	89.0	23.0	0.848	0,0,0,0,0,0,1,2,3	to_hand	s622
355.681	0.214	0	PA_with_intermediate	0,0,0,2,3,0,1,0,0	test	ward_and_allport	0,0,0,2,3,0,1,0,0	71.0	23.0	0.214	0,0,0,0,0,0,1,2,3	to_board	s622
355.902	1.0	0	PA_with_intermediate	n/a	test	ward_and_allport	n/a	-1.0	23.0	n/a	n/a	feedback	s622
356.902	1.136	0	PA_with_intermediate	n/a	test	ward_and_allport	n/a	-1.0	23.0	n/a	n/a	ITI	s622
358.043	4.337	1	PA_with_intermediate	0,0,0,0,0,0,1,2,0	test	ward_and_allport	0,0,0,2,0,0,1,3,0	82.0	24.0	4.337	0,0,0,0,0,0,1,2,3	to_hand	s622
362.38	0.24	0	PA_with_intermediate	3,0,0,0,0,0,1,2,0	test	ward_and_allport	0,0,0,2,0,0,1,3,0	89.0	24.0	0.24	0,0,0,0,0,0,1,2,3	to_board	s622
362.627	0.886	0	PA_with_intermediate	3,0,0,0,0,0,1,0,0	test	ward_and_allport	0,0,0,2,0,0,1,3,0	82.0	24.0	0.886	0,0,0,0,0,0,1,2,3	to_hand	s622
363.514	0.261	0	PA_with_intermediate	3,0,0,2,0,0,1,0,0	test	ward_and_allport	0,0,0,2,0,0,1,3,0	71.0	24.0	0.261	0,0,0,0,0,0,1,2,3	to_board	s622
363.781	1.512	0	PA_with_intermediate	0,0,0,2,0,0,1,0,0	test	ward_and_allport	0,0,0,2,0,0,1,3,0	89.0	24.0	1.512	0,0,0,0,0,0,1,2,3	to_hand	s622
365.294	0.219	0	PA_with_intermediate	0,0,0,2,0,0,1,3,0	test	ward_and_allport	0,0,0,2,0,0,1,3,0	82.0	24.0	0.219	0,0,0,0,0,0,1,2,3	to_board	s622
365.524	1.0	0	PA_with_intermediate	n/a	test	ward_and_allport	n/a	-1.0	24.0	n/a	n/a	feedback	s622
366.524	1.408	0	PA_with_intermediate	n/a	test	ward_and_allport	n/a	-1.0	24.0	n/a	n/a	ITI	s622
367.938	4.993	1	PA_without_intermediate	1,2,0,0,0,0,0,0,0	test	ward_and_allport	0,0,0,3,2,0,1,0,0	89.0	25.0	4.993	1,2,3,0,0,0,0,0,0	to_hand	s622
372.931	0.712	0	PA_without_intermediate	1,2,0,3,0,0,0,0,0	test	ward_and_allport	0,0,0,3,2,0,1,0,0	71.0	25.0	0.712	1,2,3,0,0,0,0,0,0	to_board	s622
373.65	0.614	0	PA_without_intermediate	1,0,0,3,0,0,0,0,0	test	ward_and_allport	0,0,0,3,2,0,1,0,0	89.0	25.0	0.614	1,2,3,0,0,0,0,0,0	to_hand	s622
374.265	0.785	0	PA_without_intermediate	1,0,0,3,2,0,0,0,0	test	ward_and_allport	0,0,0,3,2,0,1,0,0	71.0	25.0	0.785	1,2,3,0,0,0,0,0,0	to_board	s622
375.056	0.439	0	PA_without_intermediate	0,0,0,3,2,0,0,0,0	test	ward_and_allport	0,0,0,3,2,0,1,0,0	89.0	25.0	0.439	1,2,3,0,0,0,0,0,0	to_hand	s622
375.496	0.325	0	PA_without_intermediate	0,0,0,3,2,0,1,0,0	test	ward_and_allport	0,0,0,3,2,0,1,0,0	82.0	25.0	0.325	1,2,3,0,0,0,0,0,0	to_board	s622
375.828	1.0	0	PA_without_intermediate	n/a	test	ward_and_allport	n/a	-1.0	25.0	n/a	n/a	feedback	s622
376.828	1.68	0	PA_without_intermediate	n/a	test	ward_and_allport	n/a	-1.0	25.0	n/a	n/a	ITI	s622
378.514	4.802	1	PA_with_intermediate	0,0,0,1,2,0,0,0,0	test	ward_and_allport	0,0,0,1,3,0,2,0,0	71.0	26.0	4.802	0,0,0,1,2,3,0,0,0	to_hand	s622
383.317	0.229	0	PA_with_intermediate	3,0,0,1,2,0,0,0,0	test	ward_and_allport	0,0,0,1,3,0,2,0,0	89.0	26.0	0.229	0,0,0,1,2,3,0,0,0	to_board	s622
383.552	0.497	0	PA_with_intermediate	3,0,0,1,0,0,0,0,0	test	ward_and_allport	0,0,0,1,3,0,2,0,0	71.0	26.0	0.497	0,0,0,1,2,3,0,0,0	to_hand	s622
384.05	0.67	0	PA_with_intermediate	3,0,0,1,0,0,2,0,0	test	ward_and_allport	0,0,0,1,3,0,2,0,0	82.0	26.0	0.67	0,0,0,1,2,3,0,0,0	to_board	s622
384.727	0.685	0	PA_with_intermediate	0,0,0,1,0,0,2,0,0	test	ward_and_allport	0,0,0,1,3,0,2,0,0	89.0	26.0	0.685	0,0,0,1,2,3,0,0,0	to_hand	s622
385.413	0.297	0	PA_with_intermediate	0,0,0,1,0,0,2,3,0	test	ward_and_allport	0,0,0,1,3,0,2,0,0	82.0	26.0	0.297	0,0,0,1,2,3,0,0,0	to_board	s622
385.716	2.924	0	PA_with_intermediate	0,0,0,1,0,0,2,0,0	test	ward_and_allport	0,0,0,1,3,0,2,0,0	82.0	26.0	2.924	0,0,0,1,2,3,0,0,0	to_hand	s622
388.641	0.777	0	PA_with_intermediate	0,0,0,1,3,0,2,0,0	test	ward_and_allport	0,0,0,1,3,0,2,0,0	71.0	26.0	0.777	0,0,0,1,2,3,0,0,0	to_board	s622
389.426	1.0	0	PA_with_intermediate	n/a	test	ward_and_allport	n/a	-1.0	26.0	n/a	n/a	feedback	s622
390.426	3.72	0	PA_with_intermediate	n/a	test	ward_and_allport	n/a	-1.0	26.0	n/a	n/a	ITI	s622
394.152	3.509	1	PA_without_intermediate	0,0,0,0,0,0,1,2,0	test	ward_and_allport	1,0,0,3,2,0,0,0,0	82.0	27.0	3.509	0,0,0,0,0,0,1,2,3	to_hand	s622
397.663	0.221	0	PA_without_intermediate	0,0,0,3,0,0,1,2,0	test	ward_and_allport	1,0,0,3,2,0,0,0,0	71.0	27.0	0.221	0,0,0,0,0,0,1,2,3	to_board	s622
397.891	3.229	0	PA_without_intermediate	0,0,0,3,0,0,1,0,0	test	ward_and_allport	1,0,0,3,2,0,0,0,0	82.0	27.0	3.229	0,0,0,0,0,0,1,2,3	to_hand	s622
401.12	0.477	0	PA_without_intermediate	0,0,0,3,2,0,1,0,0	test	ward_and_allport	1,0,0,3,2,0,0,0,0	71.0	27.0	0.477	0,0,0,0,0,0,1,2,3	to_board	s622
401.604	1.073	0	PA_without_intermediate	0,0,0,3,2,0,0,0,0	test	ward_and_allport	1,0,0,3,2,0,0,0,0	82.0	27.0	1.073	0,0,0,0,0,0,1,2,3	to_hand	s622
402.678	0.354	0	PA_without_intermediate	1,0,0,3,2,0,0,0,0	test	ward_and_allport	1,0,0,3,2,0,0,0,0	89.0	27.0	0.354	0,0,0,0,0,0,1,2,3	to_board	s622
403.04	1.0	0	PA_without_intermediate	n/a	test	ward_and_allport	n/a	-1.0	27.0	n/a	n/a	feedback	s622
404.04	2.224	0	PA_without_intermediate	n/a	test	ward_and_allport	n/a	-1.0	27.0	n/a	n/a	ITI	s622
406.271	3.482	1	PA_without_intermediate	1,2,0,0,0,0,0,0,0	test	ward_and_allport	0,0,0,2,0,0,3,1,0	89.0	28.0	3.482	1,2,3,0,0,0,0,0,0	to_hand	s622
409.753	0.386	0	PA_without_intermediate	1,2,0,0,0,0,3,0,0	test	ward_and_allport	0,0,0,2,0,0,3,1,0	82.0	28.0	0.386	1,2,3,0,0,0,0,0,0	to_board	s622
410.146	2.486	0	PA_without_intermediate	1,0,0,0,0,0,3,0,0	test	ward_and_allport	0,0,0,2,0,0,3,1,0	89.0	28.0	2.486	1,2,3,0,0,0,0,0,0	to_hand	s622
412.633	0.266	0	PA_without_intermediate	1,0,0,2,0,0,3,0,0	test	ward_and_allport	0,0,0,2,0,0,3,1,0	71.0	28.0	0.266	1,2,3,0,0,0,0,0,0	to_board	s622
412.905	0.303	0	PA_without_intermediate	0,0,0,2,0,0,3,0,0	test	ward_and_allport	0,0,0,2,0,0,3,1,0	89.0	28.0	0.303	1,2,3,0,0,0,0,0,0	to_hand	s622
413.209	0.34	0	PA_without_intermediate	0,0,0,2,0,0,3,1,0	test	ward_and_allport	0,0,0,2,0,0,3,1,0	82.0	28.0	0.34	1,2,3,0,0,0,0,0,0	to_board	s622
413.56	1.0	0	PA_without_intermediate	n/a	test	ward_and_allport	n/a	-1.0	28.0	n/a	n/a	feedback	s622
414.56	1.272	0	PA_without_intermediate	n/a	test	ward_and_allport	n/a	-1.0	28.0	n/a	n/a	ITI	s622
415.839	5.76	1	PA_with_intermediate	0,0,0,1,2,0,0,0,0	test	ward_and_allport	0,0,0,1,0,0,2,3,0	71.0	29.0	5.76	0,0,0,1,2,3,0,0,0	to_hand	s622
421.601	0.292	0	PA_with_intermediate	3,0,0,1,2,0,0,0,0	test	ward_and_allport	0,0,0,1,0,0,2,3,0	89.0	29.0	0.292	0,0,0,1,2,3,0,0,0	to_board	s622
421.9	0.508	0	PA_with_intermediate	3,0,0,1,0,0,0,0,0	test	ward_and_allport	0,0,0,1,0,0,2,3,0	71.0	29.0	0.508	0,0,0,1,2,3,0,0,0	to_hand	s622
422.409	0.429	0	PA_with_intermediate	3,0,0,1,0,0,2,0,0	test	ward_and_allport	0,0,0,1,0,0,2,3,0	82.0	29.0	0.429	0,0,0,1,2,3,0,0,0	to_board	s622
422.844	0.616	0	PA_with_intermediate	0,0,0,1,0,0,2,0,0	test	ward_and_allport	0,0,0,1,0,0,2,3,0	89.0	29.0	0.616	0,0,0,1,2,3,0,0,0	to_hand	s622
423.461	0.291	0	PA_with_intermediate	0,0,0,1,0,0,2,3,0	test	ward_and_allport	0,0,0,1,0,0,2,3,0	82.0	29.0	0.291	0,0,0,1,2,3,0,0,0	to_board	s622
423.763	1.0	0	PA_with_intermediate	n/a	test	ward_and_allport	n/a	-1.0	29.0	n/a	n/a	feedback	s622
424.763	2.632	0	PA_with_intermediate	n/a	test	ward_and_allport	n/a	-1.0	29.0	n/a	n/a	ITI	s622
432.404	2.748	1	PA_without_intermediate	0,0,0,0,0,0,1,2,0	test	ward_and_allport	3,2,0,1,0,0,0,0,0	82.0	30.0	2.748	0,0,0,0,0,0,1,2,3	to_hand	s622
435.154	0.306	0	PA_without_intermediate	3,0,0,0,0,0,1,2,0	test	ward_and_allport	3,2,0,1,0,0,0,0,0	89.0	30.0	0.306	0,0,0,0,0,0,1,2,3	to_board	s622
435.468	2.236	0	PA_without_intermediate	3,0,0,0,0,0,1,0,0	test	ward_and_allport	3,2,0,1,0,0,0,0,0	82.0	30.0	2.236	0,0,0,0,0,0,1,2,3	to_hand	s622
437.705	0.235	0	PA_without_intermediate	3,2,0,0,0,0,1,0,0	test	ward_and_allport	3,2,0,1,0,0,0,0,0	89.0	30.0	0.235	0,0,0,0,0,0,1,2,3	to_board	s622
437.948	1.062	0	PA_without_intermediate	3,2,0,0,0,0,0,0,0	test	ward_and_allport	3,2,0,1,0,0,0,0,0	82.0	30.0	1.062	0,0,0,0,0,0,1,2,3	to_hand	s622
439.012	0.268	0	PA_without_intermediate	3,2,0,1,0,0,0,0,0	test	ward_and_allport	3,2,0,1,0,0,0,0,0	71.0	30.0	0.268	0,0,0,0,0,0,1,2,3	to_board	s622
439.292	1.0	0	PA_without_intermediate	n/a	test	ward_and_allport	n/a	-1.0	30.0	n/a	n/a	feedback	s622
440.292	1.408	0	PA_without_intermediate	n/a	test	ward_and_allport	n/a	-1.0	30.0	n/a	n/a	ITI	s622
441.707	5.791	1	PA_without_intermediate	0,0,0,1,2,0,0,0,0	test	ward_and_allport	3,1,0,0,0,0,2,0,0	71.0	31.0	5.791	0,0,0,1,2,3,0,0,0	to_hand	s622
447.499	0.166	0	PA_without_intermediate	3,0,0,1,2,0,0,0,0	test	ward_and_allport	3,1,0,0,0,0,2,0,0	89.0	31.0	0.166	0,0,0,1,2,3,0,0,0	to_board	s622
447.672	2.562	0	PA_without_intermediate	3,0,0,1,0,0,0,0,0	test	ward_and_allport	3,1,0,0,0,0,2,0,0	71.0	31.0	2.562	0,0,0,1,2,3,0,0,0	to_hand	s622
450.236	0.208	0	PA_without_intermediate	3,0,0,1,0,0,2,0,0	test	ward_and_allport	3,1,0,0,0,0,2,0,0	82.0	31.0	0.208	0,0,0,1,2,3,0,0,0	to_board	s622
450.452	0.699	0	PA_without_intermediate	3,0,0,0,0,0,2,0,0	test	ward_and_allport	3,1,0,0,0,0,2,0,0	71.0	31.0	0.699	0,0,0,1,2,3,0,0,0	to_hand	s622
451.153	0.559	0	PA_without_intermediate	3,1,0,0,0,0,2,0,0	test	ward_and_allport	3,1,0,0,0,0,2,0,0	89.0	31.0	0.559	0,0,0,1,2,3,0,0,0	to_board	s622
451.722	1.0	0	PA_without_intermediate	n/a	test	ward_and_allport	n/a	-1.0	31.0	n/a	n/a	feedback	s622
452.722	1.0	0	PA_without_intermediate	n/a	test	ward_and_allport	n/a	-1.0	31.0	n/a	n/a	ITI	s622
453.729	5.038	1	PA_with_intermediate	1,2,0,0,0,0,0,0,0	test	ward_and_allport	1,3,0,2,0,0,0,0,0	89.0	32.0	5.038	1,2,3,0,0,0,0,0,0	to_hand	s622
458.769	0.318	0	PA_with_intermediate	1,2,0,0,0,0,3,0,0	test	ward_and_allport	1,3,0,2,0,0,0,0,0	82.0	32.0	0.318	1,2,3,0,0,0,0,0,0	to_board	s622
459.094	0.432	0	PA_with_intermediate	1,0,0,0,0,0,3,0,0	test	ward_and_allport	1,3,0,2,0,0,0,0,0	89.0	32.0	0.432	1,2,3,0,0,0,0,0,0	to_hand	s622
459.526	0.478	0	PA_with_intermediate	1,0,0,2,0,0,3,0,0	test	ward_and_allport	1,3,0,2,0,0,0,0,0	71.0	32.0	0.478	1,2,3,0,0,0,0,0,0	to_board	s622
460.012	1.387	0	PA_with_intermediate	1,0,0,2,0,0,0,0,0	test	ward_and_allport	1,3,0,2,0,0,0,0,0	82.0	32.0	1.387	1,2,3,0,0,0,0,0,0	to_hand	s622
461.4	0.179	0	PA_with_intermediate	1,3,0,2,0,0,0,0,0	test	ward_and_allport	1,3,0,2,0,0,0,0,0	89.0	32.0	0.179	1,2,3,0,0,0,0,0,0	to_board	s622
461.589	1.0	0	PA_with_intermediate	n/a	test	ward_and_allport	n/a	-1.0	32.0	n/a	n/a	feedback	s622
462.589	1.0	0	PA_with_intermediate	n/a	test	ward_and_allport	n/a	-1.0	32.0	n/a	n/a	ITI	s622
463.598	7.044	1	PA_with_intermediate	1,2,0,0,0,0,0,0,0	test	ward_and_allport	1,3,0,0,0,0,2,0,0	89.0	33.0	7.044	1,2,3,0,0,0,0,0,0	to_hand	s622
470.643	0.202	0	PA_with_intermediate	1,2,0,3,0,0,0,0,0	test	ward_and_allport	1,3,0,0,0,0,2,0,0	71.0	33.0	0.202	1,2,3,0,0,0,0,0,0	to_board	s622
470.854	0.645	0	PA_with_intermediate	1,0,0,3,0,0,0,0,0	test	ward_and_allport	1,3,0,0,0,0,2,0,0	89.0	33.0	0.645	1,2,3,0,0,0,0,0,0	to_hand	s622
471.5	0.251	0	PA_with_intermediate	1,0,0,3,0,0,2,0,0	test	ward_and_allport	1,3,0,0,0,0,2,0,0	82.0	33.0	0.251	1,2,3,0,0,0,0,0,0	to_board	s622
471.759	0.647	0	PA_with_intermediate	1,0,0,0,0,0,2,0,0	test	ward_and_allport	1,3,0,0,0,0,2,0,0	71.0	33.0	0.647	1,2,3,0,0,0,0,0,0	to_hand	s622
472.407	0.151	0	PA_with_intermediate	1,3,0,0,0,0,2,0,0	test	ward_and_allport	1,3,0,0,0,0,2,0,0	89.0	33.0	0.151	1,2,3,0,0,0,0,0,0	to_board	s622
472.57	1.0	0	PA_with_intermediate	n/a	test	ward_and_allport	n/a	-1.0	33.0	n/a	n/a	feedback	s622
473.57	1.0	0	PA_with_intermediate	n/a	test	ward_and_allport	n/a	-1.0	33.0	n/a	n/a	ITI	s622
474.579	6.361	1	PA_with_intermediate	0,0,0,1,2,0,0,0,0	test	ward_and_allport	2,3,0,1,0,0,0,0,0	71.0	34.0	6.361	0,0,0,1,2,3,0,0,0	to_hand	s622
480.942	0.214	0	PA_with_intermediate	0,0,0,1,2,0,3,0,0	test	ward_and_allport	2,3,0,1,0,0,0,0,0	82.0	34.0	0.214	0,0,0,1,2,3,0,0,0	to_board	s622
481.164	1.072	0	PA_with_intermediate	0,0,0,1,0,0,3,0,0	test	ward_and_allport	2,3,0,1,0,0,0,0,0	71.0	34.0	1.072	0,0,0,1,2,3,0,0,0	to_hand	s622
482.237	0.166	0	PA_with_intermediate	2,0,0,1,0,0,3,0,0	test	ward_and_allport	2,3,0,1,0,0,0,0,0	89.0	34.0	0.166	0,0,0,1,2,3,0,0,0	to_board	s622
482.411	1.579	0	PA_with_intermediate	2,0,0,1,0,0,0,0,0	test	ward_and_allport	2,3,0,1,0,0,0,0,0	82.0	34.0	1.579	0,0,0,1,2,3,0,0,0	to_hand	s622
483.991	0.187	0	PA_with_intermediate	2,3,0,1,0,0,0,0,0	test	ward_and_allport	2,3,0,1,0,0,0,0,0	89.0	34.0	0.187	0,0,0,1,2,3,0,0,0	to_board	s622
484.19	1.0	0	PA_with_intermediate	n/a	test	ward_and_allport	n/a	-1.0	34.0	n/a	n/a	feedback	s622
485.19	1.408	0	PA_with_intermediate	n/a	test	ward_and_allport	n/a	-1.0	34.0	n/a	n/a	ITI	s622
486.606	3.129	1	PA_without_intermediate	0,0,0,1,2,0,0,0,0	test	ward_and_allport	1,0,0,0,0,0,3,2,0	71.0	35.0	3.129	0,0,0,1,2,3,0,0,0	to_hand	s622
489.735	0.23	0	PA_without_intermediate	0,0,0,1,2,0,3,0,0	test	ward_and_allport	1,0,0,0,0,0,3,2,0	82.0	35.0	0.23	0,0,0,1,2,3,0,0,0	to_board	s622
489.971	1.732	0	PA_without_intermediate	0,0,0,1,0,0,3,0,0	test	ward_and_allport	1,0,0,0,0,0,3,2,0	71.0	35.0	1.732	0,0,0,1,2,3,0,0,0	to_hand	s622
491.704	0.207	0	PA_without_intermediate	0,0,0,1,0,0,3,2,0	test	ward_and_allport	1,0,0,0,0,0,3,2,0	82.0	35.0	0.207	0,0,0,1,2,3,0,0,0	to_board	s622
491.919	0.862	0	PA_without_intermediate	0,0,0,0,0,0,3,2,0	test	ward_and_allport	1,0,0,0,0,0,3,2,0	71.0	35.0	0.862	0,0,0,1,2,3,0,0,0	to_hand	s622
492.783	0.141	0	PA_without_intermediate	1,0,0,0,0,0,3,2,0	test	ward_and_allport	1,0,0,0,0,0,3,2,0	89.0	35.0	0.141	0,0,0,1,2,3,0,0,0	to_board	s622
492.934	1.0	0	PA_without_intermediate	n/a	test	ward_and_allport	n/a	-1.0	35.0	n/a	n/a	feedback	s622
493.934	1.816	0	PA_without_intermediate	n/a	test	ward_and_allport	n/a	-1.0	35.0	n/a	n/a	ITI	s622
495.758	7.484	1	PA_with_intermediate	0,0,0,0,0,0,1,2,0	test	ward_and_allport	0,0,0,2,0,0,1,3,0	82.0	36.0	7.484	0,0,0,0,0,0,1,2,3	to_hand	s622
503.243	0.318	0	PA_with_intermediate	3,0,0,0,0,0,1,2,0	test	ward_and_allport	0,0,0,2,0,0,1,3,0	89.0	36.0	0.318	0,0,0,0,0,0,1,2,3	to_board	s622
503.567	0.508	0	PA_with_intermediate	3,0,0,0,0,0,1,0,0	test	ward_and_allport	0,0,0,2,0,0,1,3,0	82.0	36.0	0.508	0,0,0,0,0,0,1,2,3	to_hand	s622
504.077	0.411	0	PA_with_intermediate	3,0,0,2,0,0,1,0,0	test	ward_and_allport	0,0,0,2,0,0,1,3,0	71.0	36.0	0.411	0,0,0,0,0,0,1,2,3	to_board	s622
504.498	0.386	0	PA_with_intermediate	0,0,0,2,0,0,1,0,0	test	ward_and_allport	0,0,0,2,0,0,1,3,0	89.0	36.0	0.386	0,0,0,0,0,0,1,2,3	to_hand	s622
504.885	0.387	0	PA_with_intermediate	0,0,0,2,0,0,1,3,0	test	ward_and_allport	0,0,0,2,0,0,1,3,0	82.0	36.0	0.387	0,0,0,0,0,0,1,2,3	to_board	s622
505.281	1.0	0	PA_with_intermediate	n/a	test	ward_and_allport	n/a	-1.0	36.0	n/a	n/a	feedback	s622
506.281	3.176	0	PA_with_intermediate	n/a	test	ward_and_allport	n/a	-1.0	36.0	n/a	n/a	ITI	s622
509.464	3.846	1	PA_with_intermediate	0,0,0,0,0,0,1,2,0	test	ward_and_allport	2,0,0,0,0,0,1,3,0	82.0	37.0	3.846	0,0,0,0,0,0,1,2,3	to_hand	s622
513.311	0.458	0	PA_with_intermediate	0,0,0,3,0,0,1,2,0	test	ward_and_allport	2,0,0,0,0,0,1,3,0	71.0	37.0	0.458	0,0,0,0,0,0,1,2,3	to_board	s622
513.776	2.064	0	PA_with_intermediate	0,0,0,3,0,0,1,0,0	test	ward_and_allport	2,0,0,0,0,0,1,3,0	82.0	37.0	2.064	0,0,0,0,0,0,1,2,3	to_hand	s622
515.841	0.733	0	PA_with_intermediate	2,0,0,3,0,0,1,0,0	test	ward_and_allport	2,0,0,0,0,0,1,3,0	89.0	37.0	0.733	0,0,0,0,0,0,1,2,3	to_board	s622
516.583	1.501	0	PA_with_intermediate	2,0,0,0,0,0,1,0,0	test	ward_and_allport	2,0,0,0,0,0,1,3,0	71.0	37.0	1.501	0,0,0,0,0,0,1,2,3	to_hand	s622
518.085	0.36	0	PA_with_intermediate	2,0,0,0,0,0,1,3,0	test	ward_and_allport	2,0,0,0,0,0,1,3,0	82.0	37.0	0.36	0,0,0,0,0,0,1,2,3	to_board	s622
518.46	1.0	0	PA_with_intermediate	n/a	test	ward_and_allport	n/a	-1.0	37.0	n/a	n/a	feedback	s622
519.46	2.36	0	PA_with_intermediate	n/a	test	ward_and_allport	n/a	-1.0	37.0	n/a	n/a	ITI	s622
521.83	3.853	1	PA_with_intermediate	0,0,0,1,2,0,0,0,0	test	ward_and_allport	0,0,0,1,0,0,2,3,0	71.0	38.0	3.853	0,0,0,1,2,3,0,0,0	to_hand	s622
525.684	0.46	0	PA_with_intermediate	3,0,0,1,2,0,0,0,0	test	ward_and_allport	0,0,0,1,0,0,2,3,0	89.0	38.0	0.46	0,0,0,1,2,3,0,0,0	to_board	s622
526.153	0.45	0	PA_with_intermediate	3,0,0,1,0,0,0,0,0	test	ward_and_allport	0,0,0,1,0,0,2,3,0	71.0	38.0	0.45	0,0,0,1,2,3,0,0,0	to_hand	s622
526.604	0.368	0	PA_with_intermediate	3,0,0,1,0,0,2,0,0	test	ward_and_allport	0,0,0,1,0,0,2,3,0	82.0	38.0	0.368	0,0,0,1,2,3,0,0,0	to_board	s622
526.981	0.358	0	PA_with_intermediate	0,0,0,1,0,0,2,0,0	test	ward_and_allport	0,0,0,1,0,0,2,3,0	89.0	38.0	0.358	0,0,0,1,2,3,0,0,0	to_hand	s622
527.34	0.358	0	PA_with_intermediate	0,0,0,1,0,0,2,3,0	test	ward_and_allport	0,0,0,1,0,0,2,3,0	82.0	38.0	0.358	0,0,0,1,2,3,0,0,0	to_board	s622
527.708	1.0	0	PA_with_intermediate	n/a	test	ward_and_allport	n/a	-1.0	38.0	n/a	n/a	feedback	s622
528.708	1.0	0	PA_with_intermediate	n/a	test	ward_and_allport	n/a	-1.0	38.0	n/a	n/a	ITI	s622
529.715	2.509	1	PA_without_intermediate	0,0,0,0,0,0,1,2,0	test	ward_and_allport	3,1,0,2,0,0,0,0,0	82.0	39.0	2.509	0,0,0,0,0,0,1,2,3	to_hand	s622
532.226	0.255	0	PA_without_intermediate	3,0,0,0,0,0,1,2,0	test	ward_and_allport	3,1,0,2,0,0,0,0,0	89.0	39.0	0.255	0,0,0,0,0,0,1,2,3	to_board	s622
532.487	2.056	0	PA_without_intermediate	3,0,0,0,0,0,1,0,0	test	ward_and_allport	3,1,0,2,0,0,0,0,0	82.0	39.0	2.056	0,0,0,0,0,0,1,2,3	to_hand	s622
534.544	0.918	0	PA_without_intermediate	3,0,0,2,0,0,1,0,0	test	ward_and_allport	3,1,0,2,0,0,0,0,0	71.0	39.0	0.918	0,0,0,0,0,0,1,2,3	to_board	s622
535.469	1.022	0	PA_without_intermediate	3,0,0,2,0,0,0,0,0	test	ward_and_allport	3,1,0,2,0,0,0,0,0	82.0	39.0	1.022	0,0,0,0,0,0,1,2,3	to_hand	s622
536.492	0.23	0	PA_without_intermediate	3,1,0,2,0,0,0,0,0	test	ward_and_allport	3,1,0,2,0,0,0,0,0	89.0	39.0	0.23	0,0,0,0,0,0,1,2,3	to_board	s622
536.736	1.0	0	PA_without_intermediate	n/a	test	ward_and_allport	n/a	-1.0	39.0	n/a	n/a	feedback	s622
537.736	1.408	0	PA_without_intermediate	n/a	test	ward_and_allport	n/a	-1.0	39.0	n/a	n/a	ITI	s622
539.153	4.794	1	PA_with_intermediate	1,2,0,0,0,0,0,0,0	test	ward_and_allport	1,0,0,2,3,0,0,0,0	89.0	40.0	4.794	1,2,3,0,0,0,0,0,0	to_hand	s622
543.948	0.482	0	PA_with_intermediate	1,2,0,0,0,0,3,0,0	test	ward_and_allport	1,0,0,2,3,0,0,0,0	82.0	40.0	0.482	1,2,3,0,0,0,0,0,0	to_board	s622
544.439	1.44	0	PA_with_intermediate	1,0,0,0,0,0,3,0,0	test	ward_and_allport	1,0,0,2,3,0,0,0,0	89.0	40.0	1.44	1,2,3,0,0,0,0,0,0	to_hand	s622
545.88	0.296	0	PA_with_intermediate	1,0,0,2,0,0,3,0,0	test	ward_and_allport	1,0,0,2,3,0,0,0,0	71.0	40.0	0.296	1,2,3,0,0,0,0,0,0	to_board	s622
546.186	0.597	0	PA_with_intermediate	1,0,0,2,0,0,0,0,0	test	ward_and_allport	1,0,0,2,3,0,0,0,0	82.0	40.0	0.597	1,2,3,0,0,0,0,0,0	to_hand	s622
546.784	0.924	0	PA_with_intermediate	1,0,0,2,3,0,0,0,0	test	ward_and_allport	1,0,0,2,3,0,0,0,0	71.0	40.0	0.924	1,2,3,0,0,0,0,0,0	to_board	s622
547.72	1.0	0	PA_with_intermediate	n/a	test	ward_and_allport	n/a	-1.0	40.0	n/a	n/a	feedback	s622
548.72	1.816	0	PA_with_intermediate	n/a	test	ward_and_allport	n/a	-1.0	40.0	n/a	n/a	ITI	s622
550.544	2.239	1	PA_without_intermediate	0,0,0,0,0,0,1,2,0	test	ward_and_allport	3,1,0,2,0,0,0,0,0	82.0	41.0	2.239	0,0,0,0,0,0,1,2,3	to_hand	s622
552.784	0.367	0	PA_without_intermediate	3,0,0,0,0,0,1,2,0	test	ward_and_allport	3,1,0,2,0,0,0,0,0	89.0	41.0	0.367	0,0,0,0,0,0,1,2,3	to_board	s622
553.16	3.281	0	PA_without_intermediate	3,0,0,0,0,0,1,0,0	test	ward_and_allport	3,1,0,2,0,0,0,0,0	82.0	41.0	3.281	0,0,0,0,0,0,1,2,3	to_hand	s622
556.441	0.329	0	PA_without_intermediate	3,0,0,2,0,0,1,0,0	test	ward_and_allport	3,1,0,2,0,0,0,0,0	71.0	41.0	0.329	0,0,0,0,0,0,1,2,3	to_board	s622
556.779	0.636	0	PA_without_intermediate	3,0,0,2,0,0,0,0,0	test	ward_and_allport	3,1,0,2,0,0,0,0,0	82.0	41.0	0.636	0,0,0,0,0,0,1,2,3	to_hand	s622
557.416	0.233	0	PA_without_intermediate	3,1,0,2,0,0,0,0,0	test	ward_and_allport	3,1,0,2,0,0,0,0,0	89.0	41.0	0.233	0,0,0,0,0,0,1,2,3	to_board	s622
557.662	1.0	0	PA_without_intermediate	n/a	test	ward_and_allport	n/a	-1.0	41.0	n/a	n/a	feedback	s622
558.662	2.088	0	PA_without_intermediate	n/a	test	ward_and_allport	n/a	-1.0	41.0	n/a	n/a	ITI	s622
560.758	2.049	1	PA_without_intermediate	1,2,0,0,0,0,0,0,0	test	ward_and_allport	0,0,0,2,0,0,3,1,0	89.0	42.0	2.049	1,2,3,0,0,0,0,0,0	to_hand	s622
562.808	0.531	0	PA_without_intermediate	1,2,0,0,0,0,3,0,0	test	ward_and_allport	0,0,0,2,0,0,3,1,0	82.0	42.0	0.531	1,2,3,0,0,0,0,0,0	to_board	s622
563.346	1.273	0	PA_without_intermediate	1,0,0,0,0,0,3,0,0	test	ward_and_allport	0,0,0,2,0,0,3,1,0	89.0	42.0	1.273	1,2,3,0,0,0,0,0,0	to_hand	s622
564.62	0.421	0	PA_without_intermediate	1,0,0,2,0,0,3,0,0	test	ward_and_allport	0,0,0,2,0,0,3,1,0	71.0	42.0	0.421	1,2,3,0,0,0,0,0,0	to_board	s622
565.052	0.475	0	PA_without_intermediate	0,0,0,2,0,0,3,0,0	test	ward_and_allport	0,0,0,2,0,0,3,1,0	89.0	42.0	0.475	1,2,3,0,0,0,0,0,0	to_hand	s622
565.527	0.525	0	PA_without_intermediate	0,0,0,2,0,0,3,1,0	test	ward_and_allport	0,0,0,2,0,0,3,1,0	82.0	42.0	0.525	1,2,3,0,0,0,0,0,0	to_board	s622
566.063	1.0	0	PA_without_intermediate	n/a	test	ward_and_allport	n/a	-1.0	42.0	n/a	n/a	feedback	s622
567.063	1.136	0	PA_without_intermediate	n/a	test	ward_and_allport	n/a	-1.0	42.0	n/a	n/a	ITI	s622
n/a	n/a	0	n/a	n/a	n/a	n/a	n/a	n/a	n/a	n/a	n/a	ITI	n/a
