onset	duration	planning	condition	current_position	exp_stage	experiment_exp_id	goal_state	key_press	problem_id	response_time	start_state	trial_id	worker_id
-58.499	0.0	0	n/a	n/a	n/a	ward_and_allport	n/a	32.0	n/a	21.964	n/a	instructions	s646
3.014	7.36	1	UA_with_intermediate	1,0,0,2,0,0,0,0,0	practice	ward_and_allport	1,2,3,0,0,0,0,0,0	71.0	0.0	7.36	1,0,0,2,3,0,0,0,0	to_hand	s646
10.375	0.755	0	UA_with_intermediate	1,0,0,2,0,0,3,0,0	practice	ward_and_allport	1,2,3,0,0,0,0,0,0	82.0	0.0	0.755	1,0,0,2,3,0,0,0,0	to_board	s646
11.133	0.568	0	UA_with_intermediate	1,0,0,0,0,0,3,0,0	practice	ward_and_allport	1,2,3,0,0,0,0,0,0	71.0	0.0	0.568	1,0,0,2,3,0,0,0,0	to_hand	s646
11.702	0.74	0	UA_with_intermediate	1,2,0,0,0,0,3,0,0	practice	ward_and_allport	1,2,3,0,0,0,0,0,0	89.0	0.0	0.74	1,0,0,2,3,0,0,0,0	to_board	s646
12.444	0.618	0	UA_with_intermediate	1,2,0,0,0,0,0,0,0	practice	ward_and_allport	1,2,3,0,0,0,0,0,0	82.0	0.0	0.618	1,0,0,2,3,0,0,0,0	to_hand	s646
13.063	0.494	0	UA_with_intermediate	1,2,3,0,0,0,0,0,0	practice	ward_and_allport	1,2,3,0,0,0,0,0,0	89.0	0.0	0.494	1,0,0,2,3,0,0,0,0	to_board	s646
13.564	1.0	0	UA_with_intermediate	n/a	practice	ward_and_allport	n/a	-1.0	0.0	n/a	n/a	feedback	s646
16.066	2.973	1	UA_with_intermediate	1,0,0,3,0,0,0,0,0	practice	ward_and_allport	1,3,2,0,0,0,0,0,0	89.0	1.0	2.973	1,2,0,3,0,0,0,0,0	to_hand	s646
19.04	0.797	0	UA_with_intermediate	1,0,0,3,0,0,2,0,0	practice	ward_and_allport	1,3,2,0,0,0,0,0,0	82.0	1.0	0.797	1,2,0,3,0,0,0,0,0	to_board	s646
19.839	0.563	0	UA_with_intermediate	1,0,0,0,0,0,2,0,0	practice	ward_and_allport	1,3,2,0,0,0,0,0,0	71.0	1.0	0.563	1,2,0,3,0,0,0,0,0	to_hand	s646
20.403	0.521	0	UA_with_intermediate	1,3,0,0,0,0,2,0,0	practice	ward_and_allport	1,3,2,0,0,0,0,0,0	89.0	1.0	0.521	1,2,0,3,0,0,0,0,0	to_board	s646
20.927	0.463	0	UA_with_intermediate	1,3,0,0,0,0,0,0,0	practice	ward_and_allport	1,3,2,0,0,0,0,0,0	82.0	1.0	0.463	1,2,0,3,0,0,0,0,0	to_hand	s646
21.39	0.438	0	UA_with_intermediate	1,3,2,0,0,0,0,0,0	practice	ward_and_allport	1,3,2,0,0,0,0,0,0	89.0	1.0	0.438	1,2,0,3,0,0,0,0,0	to_board	s646
21.834	1.0	0	UA_with_intermediate	n/a	practice	ward_and_allport	n/a	-1.0	1.0	n/a	n/a	feedback	s646
22.834	1.1	0	UA_with_intermediate	n/a	practice	ward_and_allport	n/a	-1.0	1.0	n/a	n/a	ITI	s646
23.936	2.331	1	UA_without_intermediate	0,0,0,1,2,0,0,0,0	practice	ward_and_allport	3,2,1,0,0,0,0,0,0	82.0	2.0	2.331	0,0,0,1,2,0,3,0,0	to_hand	s646
26.269	0.539	0	UA_without_intermediate	3,0,0,1,2,0,0,0,0	practice	ward_and_allport	3,2,1,0,0,0,0,0,0	89.0	2.0	0.539	0,0,0,1,2,0,3,0,0	to_board	s646
26.811	0.464	0	UA_without_intermediate	3,0,0,1,0,0,0,0,0	practice	ward_and_allport	3,2,1,0,0,0,0,0,0	71.0	2.0	0.464	0,0,0,1,2,0,3,0,0	to_hand	s646
27.277	0.462	0	UA_without_intermediate	3,2,0,1,0,0,0,0,0	practice	ward_and_allport	3,2,1,0,0,0,0,0,0	89.0	2.0	0.462	0,0,0,1,2,0,3,0,0	to_board	s646
27.741	1.053	0	UA_without_intermediate	3,2,0,0,0,0,0,0,0	practice	ward_and_allport	3,2,1,0,0,0,0,0,0	71.0	2.0	1.053	0,0,0,1,2,0,3,0,0	to_hand	s646
28.796	0.397	0	UA_without_intermediate	3,2,1,0,0,0,0,0,0	practice	ward_and_allport	3,2,1,0,0,0,0,0,0	89.0	2.0	0.397	0,0,0,1,2,0,3,0,0	to_board	s646
29.196	1.0	0	UA_without_intermediate	n/a	practice	ward_and_allport	n/a	-1.0	2.0	n/a	n/a	feedback	s646
30.196	1.2	0	UA_without_intermediate	n/a	practice	ward_and_allport	n/a	-1.0	2.0	n/a	n/a	ITI	s646
31.4	2.64	1	UA_without_intermediate	0,0,0,1,0,0,3,0,0	practice	ward_and_allport	2,3,1,0,0,0,0,0,0	71.0	3.0	2.64	0,0,0,1,2,0,3,0,0	to_hand	s646
34.042	0.537	0	UA_without_intermediate	2,0,0,1,0,0,3,0,0	practice	ward_and_allport	2,3,1,0,0,0,0,0,0	89.0	3.0	0.537	0,0,0,1,2,0,3,0,0	to_board	s646
34.58	0.541	0	UA_without_intermediate	2,0,0,1,0,0,0,0,0	practice	ward_and_allport	2,3,1,0,0,0,0,0,0	82.0	3.0	0.541	0,0,0,1,2,0,3,0,0	to_hand	s646
35.122	0.727	0	UA_without_intermediate	2,3,0,1,0,0,0,0,0	practice	ward_and_allport	2,3,1,0,0,0,0,0,0	89.0	3.0	0.727	0,0,0,1,2,0,3,0,0	to_board	s646
35.851	0.162	0	UA_without_intermediate	2,0,0,1,0,0,0,0,0	practice	ward_and_allport	2,3,1,0,0,0,0,0,0	89.0	3.0	0.162	0,0,0,1,2,0,3,0,0	to_hand	s646
36.014	0.302	0	UA_without_intermediate	2,0,0,1,3,0,0,0,0	practice	ward_and_allport	2,3,1,0,0,0,0,0,0	71.0	3.0	0.302	0,0,0,1,2,0,3,0,0	to_board	s646
36.319	0.555	0	UA_without_intermediate	0,0,0,1,3,0,0,0,0	practice	ward_and_allport	2,3,1,0,0,0,0,0,0	89.0	3.0	0.555	0,0,0,1,2,0,3,0,0	to_hand	s646
36.875	1.337	0	UA_without_intermediate	2,0,0,1,3,0,0,0,0	practice	ward_and_allport	2,3,1,0,0,0,0,0,0	89.0	3.0	1.337	0,0,0,1,2,0,3,0,0	to_board	s646
38.214	0.879	0	UA_without_intermediate	2,0,0,1,0,0,0,0,0	practice	ward_and_allport	2,3,1,0,0,0,0,0,0	71.0	3.0	0.879	0,0,0,1,2,0,3,0,0	to_hand	s646
39.095	0.536	0	UA_without_intermediate	2,3,0,1,0,0,0,0,0	practice	ward_and_allport	2,3,1,0,0,0,0,0,0	89.0	3.0	0.536	0,0,0,1,2,0,3,0,0	to_board	s646
39.633	1.112	0	UA_without_intermediate	2,3,0,0,0,0,0,0,0	practice	ward_and_allport	2,3,1,0,0,0,0,0,0	71.0	3.0	1.112	0,0,0,1,2,0,3,0,0	to_hand	s646
40.747	0.438	0	UA_without_intermediate	2,3,1,0,0,0,0,0,0	practice	ward_and_allport	2,3,1,0,0,0,0,0,0	89.0	3.0	0.438	0,0,0,1,2,0,3,0,0	to_board	s646
41.192	1.0	0	UA_without_intermediate	n/a	practice	ward_and_allport	n/a	-1.0	3.0	n/a	n/a	feedback	s646
42.192	1.0	0	UA_without_intermediate	n/a	practice	ward_and_allport	n/a	-1.0	3.0	n/a	n/a	ITI	s646
45.204	3.488	1	PA_with_intermediate	0,0,0,0,0,0,1,2,0	test	ward_and_allport	0,0,0,2,0,0,1,3,0	82.0	0.0	3.488	0,0,0,0,0,0,1,2,3	to_hand	s646
48.694	0.615	0	PA_with_intermediate	3,0,0,0,0,0,1,2,0	test	ward_and_allport	0,0,0,2,0,0,1,3,0	89.0	0.0	0.615	0,0,0,0,0,0,1,2,3	to_board	s646
49.313	0.96	0	PA_with_intermediate	3,0,0,0,0,0,1,0,0	test	ward_and_allport	0,0,0,2,0,0,1,3,0	82.0	0.0	0.96	0,0,0,0,0,0,1,2,3	to_hand	s646
50.275	0.524	0	PA_with_intermediate	3,0,0,2,0,0,1,0,0	test	ward_and_allport	0,0,0,2,0,0,1,3,0	71.0	0.0	0.524	0,0,0,0,0,0,1,2,3	to_board	s646
50.802	1.403	0	PA_with_intermediate	0,0,0,2,0,0,1,0,0	test	ward_and_allport	0,0,0,2,0,0,1,3,0	89.0	0.0	1.403	0,0,0,0,0,0,1,2,3	to_hand	s646
52.206	0.538	0	PA_with_intermediate	0,0,0,2,0,0,1,3,0	test	ward_and_allport	0,0,0,2,0,0,1,3,0	82.0	0.0	0.538	0,0,0,0,0,0,1,2,3	to_board	s646
52.752	1.0	0	PA_with_intermediate	n/a	test	ward_and_allport	n/a	-1.0	0.0	n/a	n/a	feedback	s646
53.752	1.408	0	PA_with_intermediate	n/a	test	ward_and_allport	n/a	-1.0	0.0	n/a	n/a	ITI	s646
55.163	4.127	1	PA_without_intermediate	0,0,0,0,0,0,1,2,0	test	ward_and_allport	1,0,0,3,2,0,0,0,0	82.0	1.0	4.127	0,0,0,0,0,0,1,2,3	to_hand	s646
59.292	0.906	0	PA_without_intermediate	0,0,0,3,0,0,1,2,0	test	ward_and_allport	1,0,0,3,2,0,0,0,0	71.0	1.0	0.906	0,0,0,0,0,0,1,2,3	to_board	s646
60.201	1.213	0	PA_without_intermediate	0,0,0,3,0,0,1,0,0	test	ward_and_allport	1,0,0,3,2,0,0,0,0	82.0	1.0	1.213	0,0,0,0,0,0,1,2,3	to_hand	s646
61.415	0.751	0	PA_without_intermediate	0,0,0,3,2,0,1,0,0	test	ward_and_allport	1,0,0,3,2,0,0,0,0	71.0	1.0	0.751	0,0,0,0,0,0,1,2,3	to_board	s646
62.168	0.965	0	PA_without_intermediate	0,0,0,3,2,0,0,0,0	test	ward_and_allport	1,0,0,3,2,0,0,0,0	82.0	1.0	0.965	0,0,0,0,0,0,1,2,3	to_hand	s646
63.135	0.812	0	PA_without_intermediate	1,0,0,3,2,0,0,0,0	test	ward_and_allport	1,0,0,3,2,0,0,0,0	89.0	1.0	0.812	0,0,0,0,0,0,1,2,3	to_board	s646
63.953	1.0	0	PA_without_intermediate	n/a	test	ward_and_allport	n/a	-1.0	1.0	n/a	n/a	feedback	s646
64.953	1.68	0	PA_without_intermediate	n/a	test	ward_and_allport	n/a	-1.0	1.0	n/a	n/a	ITI	s646
66.636	3.497	1	PA_with_intermediate	1,2,0,0,0,0,0,0,0	test	ward_and_allport	1,0,0,0,0,0,2,3,0	89.0	2.0	3.497	1,2,3,0,0,0,0,0,0	to_hand	s646
70.134	0.447	0	PA_with_intermediate	1,2,0,3,0,0,0,0,0	test	ward_and_allport	1,0,0,0,0,0,2,3,0	71.0	2.0	0.447	1,2,3,0,0,0,0,0,0	to_board	s646
70.584	0.667	0	PA_with_intermediate	1,0,0,3,0,0,0,0,0	test	ward_and_allport	1,0,0,0,0,0,2,3,0	89.0	2.0	0.667	1,2,3,0,0,0,0,0,0	to_hand	s646
71.252	0.911	0	PA_with_intermediate	1,0,0,3,0,0,2,0,0	test	ward_and_allport	1,0,0,0,0,0,2,3,0	82.0	2.0	0.911	1,2,3,0,0,0,0,0,0	to_board	s646
72.166	0.694	0	PA_with_intermediate	1,0,0,0,0,0,2,0,0	test	ward_and_allport	1,0,0,0,0,0,2,3,0	71.0	2.0	0.694	1,2,3,0,0,0,0,0,0	to_hand	s646
72.861	0.499	0	PA_with_intermediate	1,0,0,0,0,0,2,3,0	test	ward_and_allport	1,0,0,0,0,0,2,3,0	82.0	2.0	0.499	1,2,3,0,0,0,0,0,0	to_board	s646
73.368	1.0	0	PA_with_intermediate	n/a	test	ward_and_allport	n/a	-1.0	2.0	n/a	n/a	feedback	s646
74.368	3.72	0	PA_with_intermediate	n/a	test	ward_and_allport	n/a	-1.0	2.0	n/a	n/a	ITI	s646
78.092	2.546	1	PA_without_intermediate	0,0,0,0,0,0,1,2,0	test	ward_and_allport	3,2,0,1,0,0,0,0,0	82.0	3.0	2.546	0,0,0,0,0,0,1,2,3	to_hand	s646
80.639	0.967	0	PA_without_intermediate	3,0,0,0,0,0,1,2,0	test	ward_and_allport	3,2,0,1,0,0,0,0,0	89.0	3.0	0.967	0,0,0,0,0,0,1,2,3	to_board	s646
81.609	0.648	0	PA_without_intermediate	3,0,0,0,0,0,1,0,0	test	ward_and_allport	3,2,0,1,0,0,0,0,0	82.0	3.0	0.648	0,0,0,0,0,0,1,2,3	to_hand	s646
82.259	0.643	0	PA_without_intermediate	3,2,0,0,0,0,1,0,0	test	ward_and_allport	3,2,0,1,0,0,0,0,0	89.0	3.0	0.643	0,0,0,0,0,0,1,2,3	to_board	s646
82.906	0.726	0	PA_without_intermediate	3,2,0,0,0,0,0,0,0	test	ward_and_allport	3,2,0,1,0,0,0,0,0	82.0	3.0	0.726	0,0,0,0,0,0,1,2,3	to_hand	s646
83.633	1.205	0	PA_without_intermediate	3,2,0,1,0,0,0,0,0	test	ward_and_allport	3,2,0,1,0,0,0,0,0	71.0	3.0	1.205	0,0,0,0,0,0,1,2,3	to_board	s646
84.846	1.0	0	PA_without_intermediate	n/a	test	ward_and_allport	n/a	-1.0	3.0	n/a	n/a	feedback	s646
85.846	2.224	0	PA_without_intermediate	n/a	test	ward_and_allport	n/a	-1.0	3.0	n/a	n/a	ITI	s646
88.075	2.31	1	PA_without_intermediate	1,2,0,0,0,0,0,0,0	test	ward_and_allport	0,0,0,3,2,0,1,0,0	89.0	4.0	2.31	1,2,3,0,0,0,0,0,0	to_hand	s646
90.386	0.469	0	PA_without_intermediate	1,2,0,3,0,0,0,0,0	test	ward_and_allport	0,0,0,3,2,0,1,0,0	71.0	4.0	0.469	1,2,3,0,0,0,0,0,0	to_board	s646
90.859	1.685	0	PA_without_intermediate	1,0,0,3,0,0,0,0,0	test	ward_and_allport	0,0,0,3,2,0,1,0,0	89.0	4.0	1.685	1,2,3,0,0,0,0,0,0	to_hand	s646
92.546	0.437	0	PA_without_intermediate	1,0,0,3,2,0,0,0,0	test	ward_and_allport	0,0,0,3,2,0,1,0,0	71.0	4.0	0.437	1,2,3,0,0,0,0,0,0	to_board	s646
92.986	0.574	0	PA_without_intermediate	0,0,0,3,2,0,0,0,0	test	ward_and_allport	0,0,0,3,2,0,1,0,0	89.0	4.0	0.574	1,2,3,0,0,0,0,0,0	to_hand	s646
93.562	0.491	0	PA_without_intermediate	0,0,0,3,2,0,1,0,0	test	ward_and_allport	0,0,0,3,2,0,1,0,0	82.0	4.0	0.491	1,2,3,0,0,0,0,0,0	to_board	s646
94.061	1.0	0	PA_without_intermediate	n/a	test	ward_and_allport	n/a	-1.0	4.0	n/a	n/a	feedback	s646
95.061	1.272	0	PA_without_intermediate	n/a	test	ward_and_allport	n/a	-1.0	4.0	n/a	n/a	ITI	s646
96.337	4.205	1	PA_with_intermediate	1,2,0,0,0,0,0,0,0	test	ward_and_allport	1,3,0,0,0,0,2,0,0	89.0	5.0	4.205	1,2,3,0,0,0,0,0,0	to_hand	s646
100.544	0.938	0	PA_with_intermediate	1,2,0,3,0,0,0,0,0	test	ward_and_allport	1,3,0,0,0,0,2,0,0	71.0	5.0	0.938	1,2,3,0,0,0,0,0,0	to_board	s646
101.486	0.563	0	PA_with_intermediate	1,0,0,3,0,0,0,0,0	test	ward_and_allport	1,3,0,0,0,0,2,0,0	89.0	5.0	0.563	1,2,3,0,0,0,0,0,0	to_hand	s646
102.05	0.506	0	PA_with_intermediate	1,0,0,3,0,0,2,0,0	test	ward_and_allport	1,3,0,0,0,0,2,0,0	82.0	5.0	0.506	1,2,3,0,0,0,0,0,0	to_board	s646
102.559	1.699	0	PA_with_intermediate	1,0,0,0,0,0,2,0,0	test	ward_and_allport	1,3,0,0,0,0,2,0,0	71.0	5.0	1.699	1,2,3,0,0,0,0,0,0	to_hand	s646
104.259	0.591	0	PA_with_intermediate	1,3,0,0,0,0,2,0,0	test	ward_and_allport	1,3,0,0,0,0,2,0,0	89.0	5.0	0.591	1,2,3,0,0,0,0,0,0	to_board	s646
104.855	1.0	0	PA_with_intermediate	n/a	test	ward_and_allport	n/a	-1.0	5.0	n/a	n/a	feedback	s646
105.855	2.632	0	PA_with_intermediate	n/a	test	ward_and_allport	n/a	-1.0	5.0	n/a	n/a	ITI	s646
108.492	2.467	1	PA_without_intermediate	0,0,0,1,2,0,0,0,0	test	ward_and_allport	1,0,0,0,0,0,3,2,0	71.0	6.0	2.467	0,0,0,1,2,3,0,0,0	to_hand	s646
110.96	0.888	0	PA_without_intermediate	0,0,0,1,2,0,3,0,0	test	ward_and_allport	1,0,0,0,0,0,3,2,0	82.0	6.0	0.888	0,0,0,1,2,3,0,0,0	to_board	s646
111.851	0.662	0	PA_without_intermediate	0,0,0,1,0,0,3,0,0	test	ward_and_allport	1,0,0,0,0,0,3,2,0	71.0	6.0	0.662	0,0,0,1,2,3,0,0,0	to_hand	s646
112.514	0.374	0	PA_without_intermediate	0,0,0,1,0,0,3,2,0	test	ward_and_allport	1,0,0,0,0,0,3,2,0	82.0	6.0	0.374	0,0,0,1,2,3,0,0,0	to_board	s646
112.892	1.006	0	PA_without_intermediate	0,0,0,0,0,0,3,2,0	test	ward_and_allport	1,0,0,0,0,0,3,2,0	71.0	6.0	1.006	0,0,0,1,2,3,0,0,0	to_hand	s646
113.899	0.443	0	PA_without_intermediate	1,0,0,0,0,0,3,2,0	test	ward_and_allport	1,0,0,0,0,0,3,2,0	89.0	6.0	0.443	0,0,0,1,2,3,0,0,0	to_board	s646
114.35	1.0	0	PA_without_intermediate	n/a	test	ward_and_allport	n/a	-1.0	6.0	n/a	n/a	feedback	s646
115.35	1.408	0	PA_without_intermediate	n/a	test	ward_and_allport	n/a	-1.0	6.0	n/a	n/a	ITI	s646
116.763	1.55	1	PA_without_intermediate	1,2,0,0,0,0,0,0,0	test	ward_and_allport	0,0,0,2,0,0,3,1,0	89.0	7.0	1.55	1,2,3,0,0,0,0,0,0	to_hand	s646
118.315	0.483	0	PA_without_intermediate	1,2,0,0,0,0,3,0,0	test	ward_and_allport	0,0,0,2,0,0,3,1,0	82.0	7.0	0.483	1,2,3,0,0,0,0,0,0	to_board	s646
118.803	1.183	0	PA_without_intermediate	1,0,0,0,0,0,3,0,0	test	ward_and_allport	0,0,0,2,0,0,3,1,0	89.0	7.0	1.183	1,2,3,0,0,0,0,0,0	to_hand	s646
119.988	0.43	0	PA_without_intermediate	1,0,0,2,0,0,3,0,0	test	ward_and_allport	0,0,0,2,0,0,3,1,0	71.0	7.0	0.43	1,2,3,0,0,0,0,0,0	to_board	s646
120.422	0.47	0	PA_without_intermediate	0,0,0,2,0,0,3,0,0	test	ward_and_allport	0,0,0,2,0,0,3,1,0	89.0	7.0	0.47	1,2,3,0,0,0,0,0,0	to_hand	s646
120.893	0.436	0	PA_without_intermediate	0,0,0,2,0,0,3,1,0	test	ward_and_allport	0,0,0,2,0,0,3,1,0	82.0	7.0	0.436	1,2,3,0,0,0,0,0,0	to_board	s646
121.337	1.0	0	PA_without_intermediate	n/a	test	ward_and_allport	n/a	-1.0	7.0	n/a	n/a	feedback	s646
122.337	1.0	0	PA_without_intermediate	n/a	test	ward_and_allport	n/a	-1.0	7.0	n/a	n/a	ITI	s646
123.341	1.732	1	PA_with_intermediate	0,0,0,1,2,0,0,0,0	test	ward_and_allport	2,3,0,1,0,0,0,0,0	71.0	8.0	1.732	0,0,0,1,2,3,0,0,0	to_hand	s646
125.074	0.823	0	PA_with_intermediate	3,0,0,1,2,0,0,0,0	test	ward_and_allport	2,3,0,1,0,0,0,0,0	89.0	8.0	0.823	0,0,0,1,2,3,0,0,0	to_board	s646
125.902	3.438	0	PA_with_intermediate	0,0,0,1,2,0,0,0,0	test	ward_and_allport	2,3,0,1,0,0,0,0,0	89.0	8.0	3.438	0,0,0,1,2,3,0,0,0	to_hand	s646
129.34	0.369	0	PA_with_intermediate	0,0,0,1,2,0,3,0,0	test	ward_and_allport	2,3,0,1,0,0,0,0,0	82.0	8.0	0.369	0,0,0,1,2,3,0,0,0	to_board	s646
129.714	0.955	0	PA_with_intermediate	0,0,0,1,0,0,3,0,0	test	ward_and_allport	2,3,0,1,0,0,0,0,0	71.0	8.0	0.955	0,0,0,1,2,3,0,0,0	to_hand	s646
130.669	1.057	0	PA_with_intermediate	2,0,0,1,0,0,3,0,0	test	ward_and_allport	2,3,0,1,0,0,0,0,0	89.0	8.0	1.057	0,0,0,1,2,3,0,0,0	to_board	s646
131.73	0.135	0	PA_with_intermediate	0,0,0,1,0,0,3,0,0	test	ward_and_allport	2,3,0,1,0,0,0,0,0	89.0	8.0	0.135	0,0,0,1,2,3,0,0,0	to_hand	s646
131.867	2.734	0	PA_with_intermediate	2,0,0,1,0,0,3,0,0	test	ward_and_allport	2,3,0,1,0,0,0,0,0	89.0	8.0	2.734	0,0,0,1,2,3,0,0,0	to_board	s646
134.605	2.823	0	PA_with_intermediate	2,0,0,1,0,0,0,0,0	test	ward_and_allport	2,3,0,1,0,0,0,0,0	82.0	8.0	2.823	0,0,0,1,2,3,0,0,0	to_hand	s646
137.429	0.363	0	PA_with_intermediate	2,3,0,1,0,0,0,0,0	test	ward_and_allport	2,3,0,1,0,0,0,0,0	89.0	8.0	0.363	0,0,0,1,2,3,0,0,0	to_board	s646
137.798	1.0	0	PA_with_intermediate	n/a	test	ward_and_allport	n/a	-1.0	8.0	n/a	n/a	feedback	s646
138.798	1.0	0	PA_with_intermediate	n/a	test	ward_and_allport	n/a	-1.0	8.0	n/a	n/a	ITI	s646
139.804	2.806	1	PA_with_intermediate	0,0,0,0,0,0,1,2,0	test	ward_and_allport	2,3,0,0,0,0,1,0,0	82.0	9.0	2.806	0,0,0,0,0,0,1,2,3	to_hand	s646
142.611	0.686	0	PA_with_intermediate	3,0,0,0,0,0,1,2,0	test	ward_and_allport	2,3,0,0,0,0,1,0,0	89.0	9.0	0.686	0,0,0,0,0,0,1,2,3	to_board	s646
143.301	1.95	0	PA_with_intermediate	0,0,0,0,0,0,1,2,0	test	ward_and_allport	2,3,0,0,0,0,1,0,0	89.0	9.0	1.95	0,0,0,0,0,0,1,2,3	to_hand	s646
145.252	0.256	0	PA_with_intermediate	0,0,0,3,0,0,1,2,0	test	ward_and_allport	2,3,0,0,0,0,1,0,0	71.0	9.0	0.256	0,0,0,0,0,0,1,2,3	to_board	s646
145.513	0.999	0	PA_with_intermediate	0,0,0,3,0,0,1,0,0	test	ward_and_allport	2,3,0,0,0,0,1,0,0	82.0	9.0	0.999	0,0,0,0,0,0,1,2,3	to_hand	s646
146.514	0.921	0	PA_with_intermediate	2,0,0,3,0,0,1,0,0	test	ward_and_allport	2,3,0,0,0,0,1,0,0	89.0	9.0	0.921	0,0,0,0,0,0,1,2,3	to_board	s646
147.44	1.598	0	PA_with_intermediate	2,0,0,0,0,0,1,0,0	test	ward_and_allport	2,3,0,0,0,0,1,0,0	71.0	9.0	1.598	0,0,0,0,0,0,1,2,3	to_hand	s646
149.04	0.389	0	PA_with_intermediate	2,3,0,0,0,0,1,0,0	test	ward_and_allport	2,3,0,0,0,0,1,0,0	89.0	9.0	0.389	0,0,0,0,0,0,1,2,3	to_board	s646
149.435	1.0	0	PA_with_intermediate	n/a	test	ward_and_allport	n/a	-1.0	9.0	n/a	n/a	feedback	s646
150.435	1.0	0	PA_with_intermediate	n/a	test	ward_and_allport	n/a	-1.0	9.0	n/a	n/a	ITI	s646
151.441	1.451	1	PA_with_intermediate	0,0,0,0,0,0,1,2,0	test	ward_and_allport	2,3,0,0,0,0,1,0,0	82.0	10.0	1.451	0,0,0,0,0,0,1,2,3	to_hand	s646
152.893	2.309	0	PA_with_intermediate	0,0,0,3,0,0,1,2,0	test	ward_and_allport	2,3,0,0,0,0,1,0,0	71.0	10.0	2.309	0,0,0,0,0,0,1,2,3	to_board	s646
155.206	0.656	0	PA_with_intermediate	0,0,0,3,0,0,1,0,0	test	ward_and_allport	2,3,0,0,0,0,1,0,0	82.0	10.0	0.656	0,0,0,0,0,0,1,2,3	to_hand	s646
155.863	1.044	0	PA_with_intermediate	2,0,0,3,0,0,1,0,0	test	ward_and_allport	2,3,0,0,0,0,1,0,0	89.0	10.0	1.044	0,0,0,0,0,0,1,2,3	to_board	s646
156.913	1.446	0	PA_with_intermediate	2,0,0,0,0,0,1,0,0	test	ward_and_allport	2,3,0,0,0,0,1,0,0	71.0	10.0	1.446	0,0,0,0,0,0,1,2,3	to_hand	s646
158.361	0.614	0	PA_with_intermediate	2,3,0,0,0,0,1,0,0	test	ward_and_allport	2,3,0,0,0,0,1,0,0	89.0	10.0	0.614	0,0,0,0,0,0,1,2,3	to_board	s646
158.983	1.0	0	PA_with_intermediate	n/a	test	ward_and_allport	n/a	-1.0	10.0	n/a	n/a	feedback	s646
159.983	1.408	0	PA_with_intermediate	n/a	test	ward_and_allport	n/a	-1.0	10.0	n/a	n/a	ITI	s646
161.397	1.564	1	PA_without_intermediate	0,0,0,0,0,0,1,2,0	test	ward_and_allport	1,0,0,3,2,0,0,0,0	82.0	11.0	1.564	0,0,0,0,0,0,1,2,3	to_hand	s646
162.963	0.663	0	PA_without_intermediate	0,0,0,3,0,0,1,2,0	test	ward_and_allport	1,0,0,3,2,0,0,0,0	71.0	11.0	0.663	0,0,0,0,0,0,1,2,3	to_board	s646
163.631	1.018	0	PA_without_intermediate	0,0,0,3,0,0,1,0,0	test	ward_and_allport	1,0,0,3,2,0,0,0,0	82.0	11.0	1.018	0,0,0,0,0,0,1,2,3	to_hand	s646
164.649	0.814	0	PA_without_intermediate	0,0,0,3,2,0,1,0,0	test	ward_and_allport	1,0,0,3,2,0,0,0,0	71.0	11.0	0.814	0,0,0,0,0,0,1,2,3	to_board	s646
165.469	0.937	0	PA_without_intermediate	0,0,0,3,2,0,0,0,0	test	ward_and_allport	1,0,0,3,2,0,0,0,0	82.0	11.0	0.937	0,0,0,0,0,0,1,2,3	to_hand	s646
166.407	0.574	0	PA_without_intermediate	1,0,0,3,2,0,0,0,0	test	ward_and_allport	1,0,0,3,2,0,0,0,0	89.0	11.0	0.574	0,0,0,0,0,0,1,2,3	to_board	s646
166.991	1.0	0	PA_without_intermediate	n/a	test	ward_and_allport	n/a	-1.0	11.0	n/a	n/a	feedback	s646
167.991	1.816	0	PA_without_intermediate	n/a	test	ward_and_allport	n/a	-1.0	11.0	n/a	n/a	ITI	s646
169.814	1.552	1	PA_with_intermediate	0,0,0,0,0,0,1,2,0	test	ward_and_allport	0,0,0,2,3,0,1,0,0	82.0	12.0	1.552	0,0,0,0,0,0,1,2,3	to_hand	s646
171.367	2.093	0	PA_with_intermediate	3,0,0,0,0,0,1,2,0	test	ward_and_allport	0,0,0,2,3,0,1,0,0	89.0	12.0	2.093	0,0,0,0,0,0,1,2,3	to_board	s646
173.466	0.748	0	PA_with_intermediate	3,0,0,0,0,0,1,0,0	test	ward_and_allport	0,0,0,2,3,0,1,0,0	82.0	12.0	0.748	0,0,0,0,0,0,1,2,3	to_hand	s646
174.215	1.83	0	PA_with_intermediate	3,0,0,2,0,0,1,0,0	test	ward_and_allport	0,0,0,2,3,0,1,0,0	71.0	12.0	1.83	0,0,0,0,0,0,1,2,3	to_board	s646
176.051	0.72	0	PA_with_intermediate	0,0,0,2,0,0,1,0,0	test	ward_and_allport	0,0,0,2,3,0,1,0,0	89.0	12.0	0.72	0,0,0,0,0,0,1,2,3	to_hand	s646
176.773	0.588	0	PA_with_intermediate	0,0,0,2,3,0,1,0,0	test	ward_and_allport	0,0,0,2,3,0,1,0,0	71.0	12.0	0.588	0,0,0,0,0,0,1,2,3	to_board	s646
177.37	1.0	0	PA_with_intermediate	n/a	test	ward_and_allport	n/a	-1.0	12.0	n/a	n/a	feedback	s646
178.37	3.176	0	PA_with_intermediate	n/a	test	ward_and_allport	n/a	-1.0	12.0	n/a	n/a	ITI	s646
181.552	2.644	1	PA_with_intermediate	0,0,0,1,2,0,0,0,0	test	ward_and_allport	0,0,0,1,0,0,2,3,0	71.0	13.0	2.644	0,0,0,1,2,3,0,0,0	to_hand	s646
184.198	3.127	0	PA_with_intermediate	3,0,0,1,2,0,0,0,0	test	ward_and_allport	0,0,0,1,0,0,2,3,0	89.0	13.0	3.127	0,0,0,1,2,3,0,0,0	to_board	s646
187.331	0.733	0	PA_with_intermediate	3,0,0,1,0,0,0,0,0	test	ward_and_allport	0,0,0,1,0,0,2,3,0	71.0	13.0	0.733	0,0,0,1,2,3,0,0,0	to_hand	s646
188.066	0.769	0	PA_with_intermediate	3,0,0,1,0,0,2,0,0	test	ward_and_allport	0,0,0,1,0,0,2,3,0	82.0	13.0	0.769	0,0,0,1,2,3,0,0,0	to_board	s646
188.839	0.886	0	PA_with_intermediate	0,0,0,1,0,0,2,0,0	test	ward_and_allport	0,0,0,1,0,0,2,3,0	89.0	13.0	0.886	0,0,0,1,2,3,0,0,0	to_hand	s646
189.727	0.786	0	PA_with_intermediate	0,0,0,1,0,0,2,3,0	test	ward_and_allport	0,0,0,1,0,0,2,3,0	82.0	13.0	0.786	0,0,0,1,2,3,0,0,0	to_board	s646
190.521	1.0	0	PA_with_intermediate	n/a	test	ward_and_allport	n/a	-1.0	13.0	n/a	n/a	feedback	s646
191.521	2.36	0	PA_with_intermediate	n/a	test	ward_and_allport	n/a	-1.0	13.0	n/a	n/a	ITI	s646
193.885	2.842	1	PA_with_intermediate	1,2,0,0,0,0,0,0,0	test	ward_and_allport	1,0,0,2,3,0,0,0,0	89.0	14.0	2.842	1,2,3,0,0,0,0,0,0	to_hand	s646
196.728	0.814	0	PA_with_intermediate	1,2,0,0,0,0,3,0,0	test	ward_and_allport	1,0,0,2,3,0,0,0,0	82.0	14.0	0.814	1,2,3,0,0,0,0,0,0	to_board	s646
197.548	1.096	0	PA_with_intermediate	1,0,0,0,0,0,3,0,0	test	ward_and_allport	1,0,0,2,3,0,0,0,0	89.0	14.0	1.096	1,2,3,0,0,0,0,0,0	to_hand	s646
198.645	1.19	0	PA_with_intermediate	1,0,0,2,0,0,3,0,0	test	ward_and_allport	1,0,0,2,3,0,0,0,0	71.0	14.0	1.19	1,2,3,0,0,0,0,0,0	to_board	s646
199.84	1.667	0	PA_with_intermediate	1,0,0,2,0,0,0,0,0	test	ward_and_allport	1,0,0,2,3,0,0,0,0	82.0	14.0	1.667	1,2,3,0,0,0,0,0,0	to_hand	s646
201.508	0.391	0	PA_with_intermediate	1,0,0,2,3,0,0,0,0	test	ward_and_allport	1,0,0,2,3,0,0,0,0	71.0	14.0	0.391	1,2,3,0,0,0,0,0,0	to_board	s646
201.908	1.0	0	PA_with_intermediate	n/a	test	ward_and_allport	n/a	-1.0	14.0	n/a	n/a	feedback	s646
202.908	1.0	0	PA_with_intermediate	n/a	test	ward_and_allport	n/a	-1.0	14.0	n/a	n/a	ITI	s646
208.921	1.684	1	PA_without_intermediate	0,0,0,1,2,0,0,0,0	test	ward_and_allport	3,1,0,0,0,0,2,0,0	71.0	15.0	1.684	0,0,0,1,2,3,0,0,0	to_hand	s646
210.607	1.075	0	PA_without_intermediate	3,0,0,1,2,0,0,0,0	test	ward_and_allport	3,1,0,0,0,0,2,0,0	89.0	15.0	1.075	0,0,0,1,2,3,0,0,0	to_board	s646
211.688	0.742	0	PA_without_intermediate	3,0,0,1,0,0,0,0,0	test	ward_and_allport	3,1,0,0,0,0,2,0,0	71.0	15.0	0.742	0,0,0,1,2,3,0,0,0	to_hand	s646
212.432	0.512	0	PA_without_intermediate	3,0,0,1,0,0,2,0,0	test	ward_and_allport	3,1,0,0,0,0,2,0,0	82.0	15.0	0.512	0,0,0,1,2,3,0,0,0	to_board	s646
212.949	0.873	0	PA_without_intermediate	3,0,0,0,0,0,2,0,0	test	ward_and_allport	3,1,0,0,0,0,2,0,0	71.0	15.0	0.873	0,0,0,1,2,3,0,0,0	to_hand	s646
213.824	0.837	0	PA_without_intermediate	3,1,0,0,0,0,2,0,0	test	ward_and_allport	3,1,0,0,0,0,2,0,0	89.0	15.0	0.837	0,0,0,1,2,3,0,0,0	to_board	s646
214.667	1.0	0	PA_without_intermediate	n/a	test	ward_and_allport	n/a	-1.0	15.0	n/a	n/a	feedback	s646
215.667	1.408	0	PA_without_intermediate	n/a	test	ward_and_allport	n/a	-1.0	15.0	n/a	n/a	ITI	s646
217.08	6.749	1	PA_with_intermediate	0,0,0,1,2,0,0,0,0	test	ward_and_allport	0,0,0,1,3,0,2,0,0	71.0	16.0	6.749	0,0,0,1,2,3,0,0,0	to_hand	s646
223.83	0.649	0	PA_with_intermediate	3,0,0,1,2,0,0,0,0	test	ward_and_allport	0,0,0,1,3,0,2,0,0	89.0	16.0	0.649	0,0,0,1,2,3,0,0,0	to_board	s646
224.485	0.577	0	PA_with_intermediate	3,0,0,1,0,0,0,0,0	test	ward_and_allport	0,0,0,1,3,0,2,0,0	71.0	16.0	0.577	0,0,0,1,2,3,0,0,0	to_hand	s646
225.064	1.013	0	PA_with_intermediate	3,0,0,1,0,0,2,0,0	test	ward_and_allport	0,0,0,1,3,0,2,0,0	82.0	16.0	1.013	0,0,0,1,2,3,0,0,0	to_board	s646
226.081	0.735	0	PA_with_intermediate	0,0,0,1,0,0,2,0,0	test	ward_and_allport	0,0,0,1,3,0,2,0,0	89.0	16.0	0.735	0,0,0,1,2,3,0,0,0	to_hand	s646
226.818	0.498	0	PA_with_intermediate	0,0,0,1,3,0,2,0,0	test	ward_and_allport	0,0,0,1,3,0,2,0,0	71.0	16.0	0.498	0,0,0,1,2,3,0,0,0	to_board	s646
227.326	1.0	0	PA_with_intermediate	n/a	test	ward_and_allport	n/a	-1.0	16.0	n/a	n/a	feedback	s646
228.326	1.816	0	PA_with_intermediate	n/a	test	ward_and_allport	n/a	-1.0	16.0	n/a	n/a	ITI	s646
230.149	1.886	1	PA_without_intermediate	0,0,0,1,2,0,0,0,0	test	ward_and_allport	3,1,0,0,0,0,2,0,0	71.0	17.0	1.886	0,0,0,1,2,3,0,0,0	to_hand	s646
232.037	1.574	0	PA_without_intermediate	3,0,0,1,2,0,0,0,0	test	ward_and_allport	3,1,0,0,0,0,2,0,0	89.0	17.0	1.574	0,0,0,1,2,3,0,0,0	to_board	s646
233.617	0.392	0	PA_without_intermediate	3,0,0,1,0,0,0,0,0	test	ward_and_allport	3,1,0,0,0,0,2,0,0	71.0	17.0	0.392	0,0,0,1,2,3,0,0,0	to_hand	s646
234.011	0.486	0	PA_without_intermediate	3,0,0,1,0,0,2,0,0	test	ward_and_allport	3,1,0,0,0,0,2,0,0	82.0	17.0	0.486	0,0,0,1,2,3,0,0,0	to_board	s646
234.501	0.81	0	PA_without_intermediate	3,0,0,0,0,0,2,0,0	test	ward_and_allport	3,1,0,0,0,0,2,0,0	71.0	17.0	0.81	0,0,0,1,2,3,0,0,0	to_hand	s646
235.313	0.465	0	PA_without_intermediate	3,1,0,0,0,0,2,0,0	test	ward_and_allport	3,1,0,0,0,0,2,0,0	89.0	17.0	0.465	0,0,0,1,2,3,0,0,0	to_board	s646
235.784	1.0	0	PA_without_intermediate	n/a	test	ward_and_allport	n/a	-1.0	17.0	n/a	n/a	feedback	s646
236.784	2.088	0	PA_without_intermediate	n/a	test	ward_and_allport	n/a	-1.0	17.0	n/a	n/a	ITI	s646
238.879	1.679	1	PA_without_intermediate	0,0,0,1,2,0,0,0,0	test	ward_and_allport	2,0,0,0,0,0,3,1,0	71.0	18.0	1.679	0,0,0,1,2,3,0,0,0	to_hand	s646
240.559	0.678	0	PA_without_intermediate	0,0,0,1,2,0,3,0,0	test	ward_and_allport	2,0,0,0,0,0,3,1,0	82.0	18.0	0.678	0,0,0,1,2,3,0,0,0	to_board	s646
241.243	0.906	0	PA_without_intermediate	0,0,0,1,0,0,3,0,0	test	ward_and_allport	2,0,0,0,0,0,3,1,0	71.0	18.0	0.906	0,0,0,1,2,3,0,0,0	to_hand	s646
242.15	0.557	0	PA_without_intermediate	2,0,0,1,0,0,3,0,0	test	ward_and_allport	2,0,0,0,0,0,3,1,0	89.0	18.0	0.557	0,0,0,1,2,3,0,0,0	to_board	s646
242.713	1.03	0	PA_without_intermediate	2,0,0,0,0,0,3,0,0	test	ward_and_allport	2,0,0,0,0,0,3,1,0	71.0	18.0	1.03	0,0,0,1,2,3,0,0,0	to_hand	s646
243.744	0.667	0	PA_without_intermediate	2,0,0,0,0,0,3,1,0	test	ward_and_allport	2,0,0,0,0,0,3,1,0	82.0	18.0	0.667	0,0,0,1,2,3,0,0,0	to_board	s646
244.422	1.0	0	PA_without_intermediate	n/a	test	ward_and_allport	n/a	-1.0	18.0	n/a	n/a	feedback	s646
245.422	1.136	0	PA_without_intermediate	n/a	test	ward_and_allport	n/a	-1.0	18.0	n/a	n/a	ITI	s646
246.565	1.608	1	PA_without_intermediate	0,0,0,0,0,0,1,2,0	test	ward_and_allport	3,2,0,1,0,0,0,0,0	82.0	19.0	1.608	0,0,0,0,0,0,1,2,3	to_hand	s646
248.175	0.812	0	PA_without_intermediate	3,0,0,0,0,0,1,2,0	test	ward_and_allport	3,2,0,1,0,0,0,0,0	89.0	19.0	0.812	0,0,0,0,0,0,1,2,3	to_board	s646
248.994	1.098	0	PA_without_intermediate	3,0,0,0,0,0,1,0,0	test	ward_and_allport	3,2,0,1,0,0,0,0,0	82.0	19.0	1.098	0,0,0,0,0,0,1,2,3	to_hand	s646
250.094	0.925	0	PA_without_intermediate	3,2,0,0,0,0,1,0,0	test	ward_and_allport	3,2,0,1,0,0,0,0,0	89.0	19.0	0.925	0,0,0,0,0,0,1,2,3	to_board	s646
251.026	1.307	0	PA_without_intermediate	3,2,0,0,0,0,0,0,0	test	ward_and_allport	3,2,0,1,0,0,0,0,0	82.0	19.0	1.307	0,0,0,0,0,0,1,2,3	to_hand	s646
252.333	0.564	0	PA_without_intermediate	3,2,0,1,0,0,0,0,0	test	ward_and_allport	3,2,0,1,0,0,0,0,0	71.0	19.0	0.564	0,0,0,0,0,0,1,2,3	to_board	s646
252.908	1.0	0	PA_without_intermediate	n/a	test	ward_and_allport	n/a	-1.0	19.0	n/a	n/a	feedback	s646
253.908	6.168	0	PA_without_intermediate	n/a	test	ward_and_allport	n/a	-1.0	19.0	n/a	n/a	ITI	s646
260.084	1.835	1	PA_without_intermediate	0,0,0,0,0,0,1,2,0	test	ward_and_allport	2,0,0,3,1,0,0,0,0	82.0	20.0	1.835	0,0,0,0,0,0,1,2,3	to_hand	s646
261.921	0.897	0	PA_without_intermediate	0,0,0,3,0,0,1,2,0	test	ward_and_allport	2,0,0,3,1,0,0,0,0	71.0	20.0	0.897	0,0,0,0,0,0,1,2,3	to_board	s646
262.825	0.713	0	PA_without_intermediate	0,0,0,3,0,0,1,0,0	test	ward_and_allport	2,0,0,3,1,0,0,0,0	82.0	20.0	0.713	0,0,0,0,0,0,1,2,3	to_hand	s646
263.538	0.887	0	PA_without_intermediate	2,0,0,3,0,0,1,0,0	test	ward_and_allport	2,0,0,3,1,0,0,0,0	89.0	20.0	0.887	0,0,0,0,0,0,1,2,3	to_board	s646
264.432	1.305	0	PA_without_intermediate	2,0,0,3,0,0,0,0,0	test	ward_and_allport	2,0,0,3,1,0,0,0,0	82.0	20.0	1.305	0,0,0,0,0,0,1,2,3	to_hand	s646
265.738	0.542	0	PA_without_intermediate	2,0,0,3,1,0,0,0,0	test	ward_and_allport	2,0,0,3,1,0,0,0,0	71.0	20.0	0.542	0,0,0,0,0,0,1,2,3	to_board	s646
266.292	1.0	0	PA_without_intermediate	n/a	test	ward_and_allport	n/a	-1.0	20.0	n/a	n/a	feedback	s646
267.292	1.816	0	PA_without_intermediate	n/a	test	ward_and_allport	n/a	-1.0	20.0	n/a	n/a	ITI	s646
269.114	4.896	1	PA_with_intermediate	0,0,0,0,0,0,1,2,0	test	ward_and_allport	2,0,0,0,0,0,1,3,0	82.0	21.0	4.896	0,0,0,0,0,0,1,2,3	to_hand	s646
274.012	0.988	0	PA_with_intermediate	0,0,0,3,0,0,1,2,0	test	ward_and_allport	2,0,0,0,0,0,1,3,0	71.0	21.0	0.988	0,0,0,0,0,0,1,2,3	to_board	s646
275.007	0.52	0	PA_with_intermediate	0,0,0,3,0,0,1,0,0	test	ward_and_allport	2,0,0,0,0,0,1,3,0	82.0	21.0	0.52	0,0,0,0,0,0,1,2,3	to_hand	s646
275.528	0.738	0	PA_with_intermediate	2,0,0,3,0,0,1,0,0	test	ward_and_allport	2,0,0,0,0,0,1,3,0	89.0	21.0	0.738	0,0,0,0,0,0,1,2,3	to_board	s646
276.273	1.107	0	PA_with_intermediate	2,0,0,0,0,0,1,0,0	test	ward_and_allport	2,0,0,0,0,0,1,3,0	71.0	21.0	1.107	0,0,0,0,0,0,1,2,3	to_hand	s646
277.381	0.413	0	PA_with_intermediate	2,0,0,0,0,0,1,3,0	test	ward_and_allport	2,0,0,0,0,0,1,3,0	82.0	21.0	0.413	0,0,0,0,0,0,1,2,3	to_board	s646
277.802	1.0	0	PA_with_intermediate	n/a	test	ward_and_allport	n/a	-1.0	21.0	n/a	n/a	feedback	s646
278.802	1.952	0	PA_with_intermediate	n/a	test	ward_and_allport	n/a	-1.0	21.0	n/a	n/a	ITI	s646
280.762	3.298	1	PA_with_intermediate	1,2,0,0,0,0,0,0,0	test	ward_and_allport	1,3,0,0,0,0,2,0,0	89.0	22.0	3.298	1,2,3,0,0,0,0,0,0	to_hand	s646
284.061	0.41	0	PA_with_intermediate	1,2,0,3,0,0,0,0,0	test	ward_and_allport	1,3,0,0,0,0,2,0,0	71.0	22.0	0.41	1,2,3,0,0,0,0,0,0	to_board	s646
284.477	0.972	0	PA_with_intermediate	1,0,0,3,0,0,0,0,0	test	ward_and_allport	1,3,0,0,0,0,2,0,0	89.0	22.0	0.972	1,2,3,0,0,0,0,0,0	to_hand	s646
285.451	0.348	0	PA_with_intermediate	1,0,0,3,0,0,2,0,0	test	ward_and_allport	1,3,0,0,0,0,2,0,0	82.0	22.0	0.348	1,2,3,0,0,0,0,0,0	to_board	s646
285.806	0.435	0	PA_with_intermediate	1,0,0,0,0,0,2,0,0	test	ward_and_allport	1,3,0,0,0,0,2,0,0	71.0	22.0	0.435	1,2,3,0,0,0,0,0,0	to_hand	s646
286.242	0.461	0	PA_with_intermediate	1,3,0,0,0,0,2,0,0	test	ward_and_allport	1,3,0,0,0,0,2,0,0	89.0	22.0	0.461	1,2,3,0,0,0,0,0,0	to_board	s646
286.714	1.0	0	PA_with_intermediate	n/a	test	ward_and_allport	n/a	-1.0	22.0	n/a	n/a	feedback	s646
287.714	1.136	0	PA_with_intermediate	n/a	test	ward_and_allport	n/a	-1.0	22.0	n/a	n/a	ITI	s646
288.857	1.712	1	PA_without_intermediate	0,0,0,1,2,0,0,0,0	test	ward_and_allport	3,2,0,0,0,0,1,0,0	71.0	23.0	1.712	0,0,0,1,2,3,0,0,0	to_hand	s646
290.571	0.523	0	PA_without_intermediate	3,0,0,1,2,0,0,0,0	test	ward_and_allport	3,2,0,0,0,0,1,0,0	89.0	23.0	0.523	0,0,0,1,2,3,0,0,0	to_board	s646
291.1	0.572	0	PA_without_intermediate	3,0,0,1,0,0,0,0,0	test	ward_and_allport	3,2,0,0,0,0,1,0,0	71.0	23.0	0.572	0,0,0,1,2,3,0,0,0	to_hand	s646
291.674	0.468	0	PA_without_intermediate	3,2,0,1,0,0,0,0,0	test	ward_and_allport	3,2,0,0,0,0,1,0,0	89.0	23.0	0.468	0,0,0,1,2,3,0,0,0	to_board	s646
292.148	0.878	0	PA_without_intermediate	3,2,0,0,0,0,0,0,0	test	ward_and_allport	3,2,0,0,0,0,1,0,0	71.0	23.0	0.878	0,0,0,1,2,3,0,0,0	to_hand	s646
293.028	0.426	0	PA_without_intermediate	3,2,0,0,0,0,1,0,0	test	ward_and_allport	3,2,0,0,0,0,1,0,0	82.0	23.0	0.426	0,0,0,1,2,3,0,0,0	to_board	s646
293.465	1.0	0	PA_without_intermediate	n/a	test	ward_and_allport	n/a	-1.0	23.0	n/a	n/a	feedback	s646
294.465	1.68	0	PA_without_intermediate	n/a	test	ward_and_allport	n/a	-1.0	23.0	n/a	n/a	ITI	s646
296.153	1.559	1	PA_without_intermediate	1,2,0,0,0,0,0,0,0	test	ward_and_allport	0,0,0,3,2,0,1,0,0	89.0	24.0	1.559	1,2,3,0,0,0,0,0,0	to_hand	s646
297.713	0.345	0	PA_without_intermediate	1,2,0,3,0,0,0,0,0	test	ward_and_allport	0,0,0,3,2,0,1,0,0	71.0	24.0	0.345	1,2,3,0,0,0,0,0,0	to_board	s646
298.066	0.688	0	PA_without_intermediate	1,0,0,3,0,0,0,0,0	test	ward_and_allport	0,0,0,3,2,0,1,0,0	89.0	24.0	0.688	1,2,3,0,0,0,0,0,0	to_hand	s646
298.754	0.429	0	PA_without_intermediate	1,0,0,3,2,0,0,0,0	test	ward_and_allport	0,0,0,3,2,0,1,0,0	71.0	24.0	0.429	1,2,3,0,0,0,0,0,0	to_board	s646
299.191	0.553	0	PA_without_intermediate	0,0,0,3,2,0,0,0,0	test	ward_and_allport	0,0,0,3,2,0,1,0,0	89.0	24.0	0.553	1,2,3,0,0,0,0,0,0	to_hand	s646
299.746	0.387	0	PA_without_intermediate	0,0,0,3,2,0,1,0,0	test	ward_and_allport	0,0,0,3,2,0,1,0,0	82.0	24.0	0.387	1,2,3,0,0,0,0,0,0	to_board	s646
300.145	1.0	0	PA_without_intermediate	n/a	test	ward_and_allport	n/a	-1.0	24.0	n/a	n/a	feedback	s646
301.145	2.088	0	PA_without_intermediate	n/a	test	ward_and_allport	n/a	-1.0	24.0	n/a	n/a	ITI	s646
303.241	1.743	1	PA_with_intermediate	0,0,0,1,2,0,0,0,0	test	ward_and_allport	0,0,0,1,0,0,2,3,0	71.0	25.0	1.743	0,0,0,1,2,3,0,0,0	to_hand	s646
304.985	0.283	0	PA_with_intermediate	0,0,0,1,2,0,3,0,0	test	ward_and_allport	0,0,0,1,0,0,2,3,0	82.0	25.0	0.283	0,0,0,1,2,3,0,0,0	to_board	s646
305.276	2.992	0	PA_with_intermediate	0,0,0,1,2,0,0,0,0	test	ward_and_allport	0,0,0,1,0,0,2,3,0	82.0	25.0	2.992	0,0,0,1,2,3,0,0,0	to_hand	s646
308.269	0.61	0	PA_with_intermediate	3,0,0,1,2,0,0,0,0	test	ward_and_allport	0,0,0,1,0,0,2,3,0	89.0	25.0	0.61	0,0,0,1,2,3,0,0,0	to_board	s646
308.888	0.338	0	PA_with_intermediate	3,0,0,1,0,0,0,0,0	test	ward_and_allport	0,0,0,1,0,0,2,3,0	71.0	25.0	0.338	0,0,0,1,2,3,0,0,0	to_hand	s646
309.228	0.918	0	PA_with_intermediate	3,0,0,1,0,0,2,0,0	test	ward_and_allport	0,0,0,1,0,0,2,3,0	82.0	25.0	0.918	0,0,0,1,2,3,0,0,0	to_board	s646
310.153	0.955	0	PA_with_intermediate	0,0,0,1,0,0,2,0,0	test	ward_and_allport	0,0,0,1,0,0,2,3,0	89.0	25.0	0.955	0,0,0,1,2,3,0,0,0	to_hand	s646
311.11	0.822	0	PA_with_intermediate	0,0,0,1,0,0,2,3,0	test	ward_and_allport	0,0,0,1,0,0,2,3,0	82.0	25.0	0.822	0,0,0,1,2,3,0,0,0	to_board	s646
311.942	1.0	0	PA_with_intermediate	n/a	test	ward_and_allport	n/a	-1.0	25.0	n/a	n/a	feedback	s646
312.942	1.0	0	PA_with_intermediate	n/a	test	ward_and_allport	n/a	-1.0	25.0	n/a	n/a	ITI	s646
313.949	1.651	1	PA_without_intermediate	0,0,0,0,0,0,1,2,0	test	ward_and_allport	3,1,0,2,0,0,0,0,0	82.0	26.0	1.651	0,0,0,0,0,0,1,2,3	to_hand	s646
315.602	0.517	0	PA_without_intermediate	3,0,0,0,0,0,1,2,0	test	ward_and_allport	3,1,0,2,0,0,0,0,0	89.0	26.0	0.517	0,0,0,0,0,0,1,2,3	to_board	s646
316.126	1.479	0	PA_without_intermediate	3,0,0,0,0,0,1,0,0	test	ward_and_allport	3,1,0,2,0,0,0,0,0	82.0	26.0	1.479	0,0,0,0,0,0,1,2,3	to_hand	s646
317.607	0.421	0	PA_without_intermediate	3,0,0,2,0,0,1,0,0	test	ward_and_allport	3,1,0,2,0,0,0,0,0	71.0	26.0	0.421	0,0,0,0,0,0,1,2,3	to_board	s646
318.036	0.991	0	PA_without_intermediate	3,0,0,2,0,0,0,0,0	test	ward_and_allport	3,1,0,2,0,0,0,0,0	82.0	26.0	0.991	0,0,0,0,0,0,1,2,3	to_hand	s646
319.029	0.493	0	PA_without_intermediate	3,1,0,2,0,0,0,0,0	test	ward_and_allport	3,1,0,2,0,0,0,0,0	89.0	26.0	0.493	0,0,0,0,0,0,1,2,3	to_board	s646
319.531	1.0	0	PA_without_intermediate	n/a	test	ward_and_allport	n/a	-1.0	26.0	n/a	n/a	feedback	s646
320.531	1.0	0	PA_without_intermediate	n/a	test	ward_and_allport	n/a	-1.0	26.0	n/a	n/a	ITI	s646
321.54	2.061	1	PA_without_intermediate	0,0,0,0,0,0,1,2,0	test	ward_and_allport	3,1,0,2,0,0,0,0,0	82.0	27.0	2.061	0,0,0,0,0,0,1,2,3	to_hand	s646
323.603	0.673	0	PA_without_intermediate	3,0,0,0,0,0,1,2,0	test	ward_and_allport	3,1,0,2,0,0,0,0,0	89.0	27.0	0.673	0,0,0,0,0,0,1,2,3	to_board	s646
324.284	1.387	0	PA_without_intermediate	3,0,0,0,0,0,1,0,0	test	ward_and_allport	3,1,0,2,0,0,0,0,0	82.0	27.0	1.387	0,0,0,0,0,0,1,2,3	to_hand	s646
325.673	0.599	0	PA_without_intermediate	3,0,0,2,0,0,1,0,0	test	ward_and_allport	3,1,0,2,0,0,0,0,0	71.0	27.0	0.599	0,0,0,0,0,0,1,2,3	to_board	s646
326.279	1.364	0	PA_without_intermediate	3,0,0,2,0,0,0,0,0	test	ward_and_allport	3,1,0,2,0,0,0,0,0	82.0	27.0	1.364	0,0,0,0,0,0,1,2,3	to_hand	s646
327.645	0.706	0	PA_without_intermediate	3,1,0,2,0,0,0,0,0	test	ward_and_allport	3,1,0,2,0,0,0,0,0	89.0	27.0	0.706	0,0,0,0,0,0,1,2,3	to_board	s646
328.363	1.0	0	PA_without_intermediate	n/a	test	ward_and_allport	n/a	-1.0	27.0	n/a	n/a	feedback	s646
329.363	1.0	0	PA_without_intermediate	n/a	test	ward_and_allport	n/a	-1.0	27.0	n/a	n/a	ITI	s646
330.37	4.186	1	PA_with_intermediate	1,2,0,0,0,0,0,0,0	test	ward_and_allport	1,0,0,2,3,0,0,0,0	89.0	28.0	4.186	1,2,3,0,0,0,0,0,0	to_hand	s646
334.558	0.529	0	PA_with_intermediate	1,2,0,0,0,0,3,0,0	test	ward_and_allport	1,0,0,2,3,0,0,0,0	82.0	28.0	0.529	1,2,3,0,0,0,0,0,0	to_board	s646
335.095	0.866	0	PA_with_intermediate	1,0,0,0,0,0,3,0,0	test	ward_and_allport	1,0,0,2,3,0,0,0,0	89.0	28.0	0.866	1,2,3,0,0,0,0,0,0	to_hand	s646
335.963	0.486	0	PA_with_intermediate	1,0,0,2,0,0,3,0,0	test	ward_and_allport	1,0,0,2,3,0,0,0,0	71.0	28.0	0.486	1,2,3,0,0,0,0,0,0	to_board	s646
336.457	0.812	0	PA_with_intermediate	1,0,0,2,0,0,0,0,0	test	ward_and_allport	1,0,0,2,3,0,0,0,0	82.0	28.0	0.812	1,2,3,0,0,0,0,0,0	to_hand	s646
337.271	0.546	0	PA_with_intermediate	1,0,0,2,3,0,0,0,0	test	ward_and_allport	1,0,0,2,3,0,0,0,0	71.0	28.0	0.546	1,2,3,0,0,0,0,0,0	to_board	s646
337.83	1.0	0	PA_with_intermediate	n/a	test	ward_and_allport	n/a	-1.0	28.0	n/a	n/a	feedback	s646
338.83	1.544	0	PA_with_intermediate	n/a	test	ward_and_allport	n/a	-1.0	28.0	n/a	n/a	ITI	s646
340.383	1.565	1	PA_without_intermediate	1,2,0,0,0,0,0,0,0	test	ward_and_allport	0,0,0,3,1,0,2,0,0	89.0	29.0	1.565	1,2,3,0,0,0,0,0,0	to_hand	s646
341.949	0.552	0	PA_without_intermediate	1,2,0,3,0,0,0,0,0	test	ward_and_allport	0,0,0,3,1,0,2,0,0	71.0	29.0	0.552	1,2,3,0,0,0,0,0,0	to_board	s646
342.51	1.561	0	PA_without_intermediate	1,0,0,3,0,0,0,0,0	test	ward_and_allport	0,0,0,3,1,0,2,0,0	89.0	29.0	1.561	1,2,3,0,0,0,0,0,0	to_hand	s646
344.073	0.439	0	PA_without_intermediate	1,0,0,3,0,0,2,0,0	test	ward_and_allport	0,0,0,3,1,0,2,0,0	82.0	29.0	0.439	1,2,3,0,0,0,0,0,0	to_board	s646
344.52	0.708	0	PA_without_intermediate	0,0,0,3,0,0,2,0,0	test	ward_and_allport	0,0,0,3,1,0,2,0,0	89.0	29.0	0.708	1,2,3,0,0,0,0,0,0	to_hand	s646
345.229	0.776	0	PA_without_intermediate	0,0,0,3,1,0,2,0,0	test	ward_and_allport	0,0,0,3,1,0,2,0,0	71.0	29.0	0.776	1,2,3,0,0,0,0,0,0	to_board	s646
346.019	1.0	0	PA_without_intermediate	n/a	test	ward_and_allport	n/a	-1.0	29.0	n/a	n/a	feedback	s646
347.019	1.272	0	PA_without_intermediate	n/a	test	ward_and_allport	n/a	-1.0	29.0	n/a	n/a	ITI	s646
353.303	3.083	1	PA_with_intermediate	0,0,0,0,0,0,1,2,0	test	ward_and_allport	2,0,0,0,0,0,1,3,0	82.0	30.0	3.083	0,0,0,0,0,0,1,2,3	to_hand	s646
356.387	0.366	0	PA_with_intermediate	0,0,0,3,0,0,1,2,0	test	ward_and_allport	2,0,0,0,0,0,1,3,0	71.0	30.0	0.366	0,0,0,0,0,0,1,2,3	to_board	s646
356.762	0.324	0	PA_with_intermediate	0,0,0,3,0,0,1,0,0	test	ward_and_allport	2,0,0,0,0,0,1,3,0	82.0	30.0	0.324	0,0,0,0,0,0,1,2,3	to_hand	s646
357.088	0.681	0	PA_with_intermediate	2,0,0,3,0,0,1,0,0	test	ward_and_allport	2,0,0,0,0,0,1,3,0	89.0	30.0	0.681	0,0,0,0,0,0,1,2,3	to_board	s646
357.777	0.81	0	PA_with_intermediate	2,0,0,0,0,0,1,0,0	test	ward_and_allport	2,0,0,0,0,0,1,3,0	71.0	30.0	0.81	0,0,0,0,0,0,1,2,3	to_hand	s646
358.587	0.319	0	PA_with_intermediate	2,0,0,0,0,0,1,3,0	test	ward_and_allport	2,0,0,0,0,0,1,3,0	82.0	30.0	0.319	0,0,0,0,0,0,1,2,3	to_board	s646
358.919	1.0	0	PA_with_intermediate	n/a	test	ward_and_allport	n/a	-1.0	30.0	n/a	n/a	feedback	s646
359.919	3.04	0	PA_with_intermediate	n/a	test	ward_and_allport	n/a	-1.0	30.0	n/a	n/a	ITI	s646
362.968	2.527	1	PA_with_intermediate	0,0,0,1,2,0,0,0,0	test	ward_and_allport	2,0,0,1,3,0,0,0,0	71.0	31.0	2.527	0,0,0,1,2,3,0,0,0	to_hand	s646
365.496	0.331	0	PA_with_intermediate	0,0,0,1,2,0,3,0,0	test	ward_and_allport	2,0,0,1,3,0,0,0,0	82.0	31.0	0.331	0,0,0,1,2,3,0,0,0	to_board	s646
365.837	0.468	0	PA_with_intermediate	0,0,0,1,0,0,3,0,0	test	ward_and_allport	2,0,0,1,3,0,0,0,0	71.0	31.0	0.468	0,0,0,1,2,3,0,0,0	to_hand	s646
366.306	0.585	0	PA_with_intermediate	2,0,0,1,0,0,3,0,0	test	ward_and_allport	2,0,0,1,3,0,0,0,0	89.0	31.0	0.585	0,0,0,1,2,3,0,0,0	to_board	s646
366.9	1.014	0	PA_with_intermediate	2,0,0,1,0,0,0,0,0	test	ward_and_allport	2,0,0,1,3,0,0,0,0	82.0	31.0	1.014	0,0,0,1,2,3,0,0,0	to_hand	s646
367.915	0.381	0	PA_with_intermediate	2,0,0,1,3,0,0,0,0	test	ward_and_allport	2,0,0,1,3,0,0,0,0	71.0	31.0	0.381	0,0,0,1,2,3,0,0,0	to_board	s646
368.308	1.0	0	PA_with_intermediate	n/a	test	ward_and_allport	n/a	-1.0	31.0	n/a	n/a	feedback	s646
369.308	1.272	0	PA_with_intermediate	n/a	test	ward_and_allport	n/a	-1.0	31.0	n/a	n/a	ITI	s646
370.589	2.183	1	PA_with_intermediate	1,2,0,0,0,0,0,0,0	test	ward_and_allport	1,0,0,0,0,0,2,3,0	89.0	32.0	2.183	1,2,3,0,0,0,0,0,0	to_hand	s646
372.774	0.431	0	PA_with_intermediate	1,2,0,3,0,0,0,0,0	test	ward_and_allport	1,0,0,0,0,0,2,3,0	71.0	32.0	0.431	1,2,3,0,0,0,0,0,0	to_board	s646
373.212	0.481	0	PA_with_intermediate	1,0,0,3,0,0,0,0,0	test	ward_and_allport	1,0,0,0,0,0,2,3,0	89.0	32.0	0.481	1,2,3,0,0,0,0,0,0	to_hand	s646
373.695	0.388	0	PA_with_intermediate	1,0,0,3,0,0,2,0,0	test	ward_and_allport	1,0,0,0,0,0,2,3,0	82.0	32.0	0.388	1,2,3,0,0,0,0,0,0	to_board	s646
374.09	0.811	0	PA_with_intermediate	1,0,0,0,0,0,2,0,0	test	ward_and_allport	1,0,0,0,0,0,2,3,0	71.0	32.0	0.811	1,2,3,0,0,0,0,0,0	to_hand	s646
374.901	0.34	0	PA_with_intermediate	1,0,0,0,0,0,2,3,0	test	ward_and_allport	1,0,0,0,0,0,2,3,0	82.0	32.0	0.34	1,2,3,0,0,0,0,0,0	to_board	s646
375.254	1.0	0	PA_with_intermediate	n/a	test	ward_and_allport	n/a	-1.0	32.0	n/a	n/a	feedback	s646
376.254	1.136	0	PA_with_intermediate	n/a	test	ward_and_allport	n/a	-1.0	32.0	n/a	n/a	ITI	s646
377.4	2.504	1	PA_with_intermediate	0,0,0,0,0,0,1,2,0	test	ward_and_allport	0,0,0,2,3,0,1,0,0	82.0	33.0	2.504	0,0,0,0,0,0,1,2,3	to_hand	s646
379.906	0.514	0	PA_with_intermediate	3,0,0,0,0,0,1,2,0	test	ward_and_allport	0,0,0,2,3,0,1,0,0	89.0	33.0	0.514	0,0,0,0,0,0,1,2,3	to_board	s646
380.429	0.635	0	PA_with_intermediate	3,0,0,0,0,0,1,0,0	test	ward_and_allport	0,0,0,2,3,0,1,0,0	82.0	33.0	0.635	0,0,0,0,0,0,1,2,3	to_hand	s646
381.066	0.395	0	PA_with_intermediate	3,0,0,2,0,0,1,0,0	test	ward_and_allport	0,0,0,2,3,0,1,0,0	71.0	33.0	0.395	0,0,0,0,0,0,1,2,3	to_board	s646
381.47	0.561	0	PA_with_intermediate	0,0,0,2,0,0,1,0,0	test	ward_and_allport	0,0,0,2,3,0,1,0,0	89.0	33.0	0.561	0,0,0,0,0,0,1,2,3	to_hand	s646
382.033	0.519	0	PA_with_intermediate	0,0,0,2,3,0,1,0,0	test	ward_and_allport	0,0,0,2,3,0,1,0,0	71.0	33.0	0.519	0,0,0,0,0,0,1,2,3	to_board	s646
382.564	1.0	0	PA_with_intermediate	n/a	test	ward_and_allport	n/a	-1.0	33.0	n/a	n/a	feedback	s646
383.564	1.0	0	PA_with_intermediate	n/a	test	ward_and_allport	n/a	-1.0	33.0	n/a	n/a	ITI	s646
384.574	2.183	1	PA_with_intermediate	1,2,0,0,0,0,0,0,0	test	ward_and_allport	1,3,0,2,0,0,0,0,0	89.0	34.0	2.183	1,2,3,0,0,0,0,0,0	to_hand	s646
386.759	0.566	0	PA_with_intermediate	1,2,0,0,0,0,3,0,0	test	ward_and_allport	1,3,0,2,0,0,0,0,0	82.0	34.0	0.566	1,2,3,0,0,0,0,0,0	to_board	s646
387.333	1.479	0	PA_with_intermediate	1,0,0,0,0,0,3,0,0	test	ward_and_allport	1,3,0,2,0,0,0,0,0	89.0	34.0	1.479	1,2,3,0,0,0,0,0,0	to_hand	s646
388.813	0.527	0	PA_with_intermediate	1,0,0,2,0,0,3,0,0	test	ward_and_allport	1,3,0,2,0,0,0,0,0	71.0	34.0	0.527	1,2,3,0,0,0,0,0,0	to_board	s646
389.349	0.87	0	PA_with_intermediate	1,0,0,2,0,0,0,0,0	test	ward_and_allport	1,3,0,2,0,0,0,0,0	82.0	34.0	0.87	1,2,3,0,0,0,0,0,0	to_hand	s646
390.221	0.468	0	PA_with_intermediate	1,3,0,2,0,0,0,0,0	test	ward_and_allport	1,3,0,2,0,0,0,0,0	89.0	34.0	0.468	1,2,3,0,0,0,0,0,0	to_board	s646
390.704	1.0	0	PA_with_intermediate	n/a	test	ward_and_allport	n/a	-1.0	34.0	n/a	n/a	feedback	s646
391.704	1.0	0	PA_with_intermediate	n/a	test	ward_and_allport	n/a	-1.0	34.0	n/a	n/a	ITI	s646
392.714	1.561	1	PA_without_intermediate	1,2,0,0,0,0,0,0,0	test	ward_and_allport	0,0,0,1,0,0,3,2,0	89.0	35.0	1.561	1,2,3,0,0,0,0,0,0	to_hand	s646
394.277	0.994	0	PA_without_intermediate	1,2,0,0,0,0,3,0,0	test	ward_and_allport	0,0,0,1,0,0,3,2,0	82.0	35.0	0.994	1,2,3,0,0,0,0,0,0	to_board	s646
395.278	0.476	0	PA_without_intermediate	1,0,0,0,0,0,3,0,0	test	ward_and_allport	0,0,0,1,0,0,3,2,0	89.0	35.0	0.476	1,2,3,0,0,0,0,0,0	to_hand	s646
395.755	0.938	0	PA_without_intermediate	1,0,0,0,0,0,3,2,0	test	ward_and_allport	0,0,0,1,0,0,3,2,0	82.0	35.0	0.938	1,2,3,0,0,0,0,0,0	to_board	s646
396.7	0.412	0	PA_without_intermediate	0,0,0,0,0,0,3,2,0	test	ward_and_allport	0,0,0,1,0,0,3,2,0	89.0	35.0	0.412	1,2,3,0,0,0,0,0,0	to_hand	s646
397.114	0.364	0	PA_without_intermediate	0,0,0,1,0,0,3,2,0	test	ward_and_allport	0,0,0,1,0,0,3,2,0	71.0	35.0	0.364	1,2,3,0,0,0,0,0,0	to_board	s646
397.488	1.0	0	PA_without_intermediate	n/a	test	ward_and_allport	n/a	-1.0	35.0	n/a	n/a	feedback	s646
398.488	1.408	0	PA_without_intermediate	n/a	test	ward_and_allport	n/a	-1.0	35.0	n/a	n/a	ITI	s646
399.906	2.226	1	PA_with_intermediate	0,0,0,1,2,0,0,0,0	test	ward_and_allport	0,0,0,1,3,0,2,0,0	71.0	36.0	2.226	0,0,0,1,2,3,0,0,0	to_hand	s646
402.133	0.544	0	PA_with_intermediate	3,0,0,1,2,0,0,0,0	test	ward_and_allport	0,0,0,1,3,0,2,0,0	89.0	36.0	0.544	0,0,0,1,2,3,0,0,0	to_board	s646
402.686	0.348	0	PA_with_intermediate	3,0,0,1,0,0,0,0,0	test	ward_and_allport	0,0,0,1,3,0,2,0,0	71.0	36.0	0.348	0,0,0,1,2,3,0,0,0	to_hand	s646
403.036	0.44	0	PA_with_intermediate	3,0,0,1,0,0,2,0,0	test	ward_and_allport	0,0,0,1,3,0,2,0,0	82.0	36.0	0.44	0,0,0,1,2,3,0,0,0	to_board	s646
403.487	0.685	0	PA_with_intermediate	0,0,0,1,0,0,2,0,0	test	ward_and_allport	0,0,0,1,3,0,2,0,0	89.0	36.0	0.685	0,0,0,1,2,3,0,0,0	to_hand	s646
404.174	0.33	0	PA_with_intermediate	0,0,0,1,3,0,2,0,0	test	ward_and_allport	0,0,0,1,3,0,2,0,0	71.0	36.0	0.33	0,0,0,1,2,3,0,0,0	to_board	s646
404.518	1.0	0	PA_with_intermediate	n/a	test	ward_and_allport	n/a	-1.0	36.0	n/a	n/a	feedback	s646
405.518	2.768	0	PA_with_intermediate	n/a	test	ward_and_allport	n/a	-1.0	36.0	n/a	n/a	ITI	s646
408.294	1.84	1	PA_with_intermediate	0,0,0,0,0,0,1,2,0	test	ward_and_allport	0,0,0,2,0,0,1,3,0	82.0	37.0	1.84	0,0,0,0,0,0,1,2,3	to_hand	s646
410.136	0.377	0	PA_with_intermediate	3,0,0,0,0,0,1,2,0	test	ward_and_allport	0,0,0,2,0,0,1,3,0	89.0	37.0	0.377	0,0,0,0,0,0,1,2,3	to_board	s646
410.521	0.469	0	PA_with_intermediate	3,0,0,0,0,0,1,0,0	test	ward_and_allport	0,0,0,2,0,0,1,3,0	82.0	37.0	0.469	0,0,0,0,0,0,1,2,3	to_hand	s646
410.992	0.54	0	PA_with_intermediate	3,0,0,2,0,0,1,0,0	test	ward_and_allport	0,0,0,2,0,0,1,3,0	71.0	37.0	0.54	0,0,0,0,0,0,1,2,3	to_board	s646
411.542	0.539	0	PA_with_intermediate	0,0,0,2,0,0,1,0,0	test	ward_and_allport	0,0,0,2,0,0,1,3,0	89.0	37.0	0.539	0,0,0,0,0,0,1,2,3	to_hand	s646
412.082	0.491	0	PA_with_intermediate	0,0,0,2,0,0,1,3,0	test	ward_and_allport	0,0,0,2,0,0,1,3,0	82.0	37.0	0.491	0,0,0,0,0,0,1,2,3	to_board	s646
412.586	1.0	0	PA_with_intermediate	n/a	test	ward_and_allport	n/a	-1.0	37.0	n/a	n/a	feedback	s646
413.586	1.68	0	PA_with_intermediate	n/a	test	ward_and_allport	n/a	-1.0	37.0	n/a	n/a	ITI	s646
415.274	2.062	1	PA_without_intermediate	0,0,0,0,0,0,1,2,0	test	ward_and_allport	2,0,0,3,1,0,0,0,0	82.0	38.0	2.062	0,0,0,0,0,0,1,2,3	to_hand	s646
417.336	0.418	0	PA_without_intermediate	0,0,0,3,0,0,1,2,0	test	ward_and_allport	2,0,0,3,1,0,0,0,0	71.0	38.0	0.418	0,0,0,0,0,0,1,2,3	to_board	s646
417.762	0.92	0	PA_without_intermediate	0,0,0,3,0,0,1,0,0	test	ward_and_allport	2,0,0,3,1,0,0,0,0	82.0	38.0	0.92	0,0,0,0,0,0,1,2,3	to_hand	s646
418.684	0.385	0	PA_without_intermediate	2,0,0,3,0,0,1,0,0	test	ward_and_allport	2,0,0,3,1,0,0,0,0	89.0	38.0	0.385	0,0,0,0,0,0,1,2,3	to_board	s646
419.079	0.904	0	PA_without_intermediate	2,0,0,3,0,0,0,0,0	test	ward_and_allport	2,0,0,3,1,0,0,0,0	82.0	38.0	0.904	0,0,0,0,0,0,1,2,3	to_hand	s646
419.985	0.211	0	PA_without_intermediate	2,0,0,3,1,0,0,0,0	test	ward_and_allport	2,0,0,3,1,0,0,0,0	71.0	38.0	0.211	0,0,0,0,0,0,1,2,3	to_board	s646
420.208	1.0	0	PA_without_intermediate	n/a	test	ward_and_allport	n/a	-1.0	38.0	n/a	n/a	feedback	s646
421.208	2.224	0	PA_without_intermediate	n/a	test	ward_and_allport	n/a	-1.0	38.0	n/a	n/a	ITI	s646
423.441	2.635	1	PA_without_intermediate	0,0,0,1,2,0,0,0,0	test	ward_and_allport	2,0,0,0,0,0,3,1,0	71.0	39.0	2.635	0,0,0,1,2,3,0,0,0	to_hand	s646
426.077	0.361	0	PA_without_intermediate	0,0,0,1,2,0,3,0,0	test	ward_and_allport	2,0,0,0,0,0,3,1,0	82.0	39.0	0.361	0,0,0,1,2,3,0,0,0	to_board	s646
426.446	1.236	0	PA_without_intermediate	0,0,0,1,0,0,3,0,0	test	ward_and_allport	2,0,0,0,0,0,3,1,0	71.0	39.0	1.236	0,0,0,1,2,3,0,0,0	to_hand	s646
427.684	0.346	0	PA_without_intermediate	2,0,0,1,0,0,3,0,0	test	ward_and_allport	2,0,0,0,0,0,3,1,0	89.0	39.0	0.346	0,0,0,1,2,3,0,0,0	to_board	s646
428.04	0.389	0	PA_without_intermediate	2,0,0,0,0,0,3,0,0	test	ward_and_allport	2,0,0,0,0,0,3,1,0	71.0	39.0	0.389	0,0,0,1,2,3,0,0,0	to_hand	s646
428.43	0.397	0	PA_without_intermediate	2,0,0,0,0,0,3,1,0	test	ward_and_allport	2,0,0,0,0,0,3,1,0	82.0	39.0	0.397	0,0,0,1,2,3,0,0,0	to_board	s646
428.84	1.0	0	PA_without_intermediate	n/a	test	ward_and_allport	n/a	-1.0	39.0	n/a	n/a	feedback	s646
429.84	2.36	0	PA_without_intermediate	n/a	test	ward_and_allport	n/a	-1.0	39.0	n/a	n/a	ITI	s646
432.209	2.081	1	PA_without_intermediate	0,0,0,1,2,0,0,0,0	test	ward_and_allport	1,0,0,0,0,0,3,2,0	71.0	40.0	2.081	0,0,0,1,2,3,0,0,0	to_hand	s646
434.292	0.307	0	PA_without_intermediate	0,0,0,1,2,0,3,0,0	test	ward_and_allport	1,0,0,0,0,0,3,2,0	82.0	40.0	0.307	0,0,0,1,2,3,0,0,0	to_board	s646
434.608	0.743	0	PA_without_intermediate	0,0,0,1,0,0,3,0,0	test	ward_and_allport	1,0,0,0,0,0,3,2,0	71.0	40.0	0.743	0,0,0,1,2,3,0,0,0	to_hand	s646
435.353	0.268	0	PA_without_intermediate	0,0,0,1,0,0,3,2,0	test	ward_and_allport	1,0,0,0,0,0,3,2,0	82.0	40.0	0.268	0,0,0,1,2,3,0,0,0	to_board	s646
435.631	0.492	0	PA_without_intermediate	0,0,0,0,0,0,3,2,0	test	ward_and_allport	1,0,0,0,0,0,3,2,0	71.0	40.0	0.492	0,0,0,1,2,3,0,0,0	to_hand	s646
436.125	0.239	0	PA_without_intermediate	1,0,0,0,0,0,3,2,0	test	ward_and_allport	1,0,0,0,0,0,3,2,0	89.0	40.0	0.239	0,0,0,1,2,3,0,0,0	to_board	s646
436.376	1.0	0	PA_without_intermediate	n/a	test	ward_and_allport	n/a	-1.0	40.0	n/a	n/a	feedback	s646
437.376	1.0	0	PA_without_intermediate	n/a	test	ward_and_allport	n/a	-1.0	40.0	n/a	n/a	ITI	s646
438.386	1.477	1	PA_without_intermediate	1,2,0,0,0,0,0,0,0	test	ward_and_allport	0,0,0,1,0,0,3,2,0	89.0	41.0	1.477	1,2,3,0,0,0,0,0,0	to_hand	s646
439.865	0.342	0	PA_without_intermediate	1,2,0,0,0,0,3,0,0	test	ward_and_allport	0,0,0,1,0,0,3,2,0	82.0	41.0	0.342	1,2,3,0,0,0,0,0,0	to_board	s646
440.215	0.739	0	PA_without_intermediate	1,0,0,0,0,0,3,0,0	test	ward_and_allport	0,0,0,1,0,0,3,2,0	89.0	41.0	0.739	1,2,3,0,0,0,0,0,0	to_hand	s646
440.956	0.529	0	PA_without_intermediate	1,0,0,0,0,0,3,2,0	test	ward_and_allport	0,0,0,1,0,0,3,2,0	82.0	41.0	0.529	1,2,3,0,0,0,0,0,0	to_board	s646
441.493	0.355	0	PA_without_intermediate	0,0,0,0,0,0,3,2,0	test	ward_and_allport	0,0,0,1,0,0,3,2,0	89.0	41.0	0.355	1,2,3,0,0,0,0,0,0	to_hand	s646
441.85	0.234	0	PA_without_intermediate	0,0,0,1,0,0,3,2,0	test	ward_and_allport	0,0,0,1,0,0,3,2,0	71.0	41.0	0.234	1,2,3,0,0,0,0,0,0	to_board	s646
442.096	1.0	0	PA_without_intermediate	n/a	test	ward_and_allport	n/a	-1.0	41.0	n/a	n/a	feedback	s646
443.096	1.408	0	PA_without_intermediate	n/a	test	ward_and_allport	n/a	-1.0	41.0	n/a	n/a	ITI	s646
444.511	2.573	1	PA_with_intermediate	0,0,0,1,2,0,0,0,0	test	ward_and_allport	2,0,0,1,3,0,0,0,0	71.0	42.0	2.573	0,0,0,1,2,3,0,0,0	to_hand	s646
447.086	0.241	0	PA_with_intermediate	0,0,0,1,2,0,3,0,0	test	ward_and_allport	2,0,0,1,3,0,0,0,0	82.0	42.0	0.241	0,0,0,1,2,3,0,0,0	to_board	s646
447.334	0.457	0	PA_with_intermediate	0,0,0,1,0,0,3,0,0	test	ward_and_allport	2,0,0,1,3,0,0,0,0	71.0	42.0	0.457	0,0,0,1,2,3,0,0,0	to_hand	s646
447.793	0.312	0	PA_with_intermediate	2,0,0,1,0,0,3,0,0	test	ward_and_allport	2,0,0,1,3,0,0,0,0	89.0	42.0	0.312	0,0,0,1,2,3,0,0,0	to_board	s646
448.116	0.505	0	PA_with_intermediate	2,0,0,1,0,0,0,0,0	test	ward_and_allport	2,0,0,1,3,0,0,0,0	82.0	42.0	0.505	0,0,0,1,2,3,0,0,0	to_hand	s646
448.622	0.49	0	PA_with_intermediate	2,0,0,1,3,0,0,0,0	test	ward_and_allport	2,0,0,1,3,0,0,0,0	71.0	42.0	0.49	0,0,0,1,2,3,0,0,0	to_board	s646
449.125	1.0	0	PA_with_intermediate	n/a	test	ward_and_allport	n/a	-1.0	42.0	n/a	n/a	feedback	s646
450.125	1.136	0	PA_with_intermediate	n/a	test	ward_and_allport	n/a	-1.0	42.0	n/a	n/a	ITI	s646
451.27	1.371	1	PA_without_intermediate	0,0,0,1,2,0,0,0,0	test	ward_and_allport	3,2,0,0,0,0,1,0,0	71.0	43.0	1.371	0,0,0,1,2,3,0,0,0	to_hand	s646
452.642	0.246	0	PA_without_intermediate	3,0,0,1,2,0,0,0,0	test	ward_and_allport	3,2,0,0,0,0,1,0,0	89.0	43.0	0.246	0,0,0,1,2,3,0,0,0	to_board	s646
452.896	1.052	0	PA_without_intermediate	3,0,0,1,0,0,0,0,0	test	ward_and_allport	3,2,0,0,0,0,1,0,0	71.0	43.0	1.052	0,0,0,1,2,3,0,0,0	to_hand	s646
453.949	0.184	0	PA_without_intermediate	3,2,0,1,0,0,0,0,0	test	ward_and_allport	3,2,0,0,0,0,1,0,0	89.0	43.0	0.184	0,0,0,1,2,3,0,0,0	to_board	s646
454.141	0.375	0	PA_without_intermediate	3,2,0,0,0,0,0,0,0	test	ward_and_allport	3,2,0,0,0,0,1,0,0	71.0	43.0	0.375	0,0,0,1,2,3,0,0,0	to_hand	s646
454.518	0.354	0	PA_without_intermediate	3,2,0,0,0,0,1,0,0	test	ward_and_allport	3,2,0,0,0,0,1,0,0	82.0	43.0	0.354	0,0,0,1,2,3,0,0,0	to_board	s646
454.884	1.0	0	PA_without_intermediate	n/a	test	ward_and_allport	n/a	-1.0	43.0	n/a	n/a	feedback	s646
455.884	4.128	0	PA_without_intermediate	n/a	test	ward_and_allport	n/a	-1.0	43.0	n/a	n/a	ITI	s646
460.021	1.282	1	PA_without_intermediate	1,2,0,0,0,0,0,0,0	test	ward_and_allport	0,0,0,2,0,0,3,1,0	89.0	44.0	1.282	1,2,3,0,0,0,0,0,0	to_hand	s646
461.304	0.295	0	PA_without_intermediate	1,2,0,0,0,0,3,0,0	test	ward_and_allport	0,0,0,2,0,0,3,1,0	82.0	44.0	0.295	1,2,3,0,0,0,0,0,0	to_board	s646
461.61	1.632	0	PA_without_intermediate	1,0,0,0,0,0,3,0,0	test	ward_and_allport	0,0,0,2,0,0,3,1,0	89.0	44.0	1.632	1,2,3,0,0,0,0,0,0	to_hand	s646
463.244	0.192	0	PA_without_intermediate	1,0,0,2,0,0,3,0,0	test	ward_and_allport	0,0,0,2,0,0,3,1,0	71.0	44.0	0.192	1,2,3,0,0,0,0,0,0	to_board	s646
463.447	0.461	0	PA_without_intermediate	0,0,0,2,0,0,3,0,0	test	ward_and_allport	0,0,0,2,0,0,3,1,0	89.0	44.0	0.461	1,2,3,0,0,0,0,0,0	to_hand	s646
463.909	0.375	0	PA_without_intermediate	0,0,0,2,0,0,3,1,0	test	ward_and_allport	0,0,0,2,0,0,3,1,0	82.0	44.0	0.375	1,2,3,0,0,0,0,0,0	to_board	s646
464.297	1.0	0	PA_without_intermediate	n/a	test	ward_and_allport	n/a	-1.0	44.0	n/a	n/a	feedback	s646
465.297	1.136	0	PA_without_intermediate	n/a	test	ward_and_allport	n/a	-1.0	44.0	n/a	n/a	ITI	s646
471.449	2.074	1	PA_without_intermediate	1,2,0,0,0,0,0,0,0	test	ward_and_allport	0,0,0,3,1,0,2,0,0	89.0	45.0	2.074	1,2,3,0,0,0,0,0,0	to_hand	s646
473.524	0.279	0	PA_without_intermediate	1,2,0,3,0,0,0,0,0	test	ward_and_allport	0,0,0,3,1,0,2,0,0	71.0	45.0	0.279	1,2,3,0,0,0,0,0,0	to_board	s646
473.816	1.28	0	PA_without_intermediate	1,0,0,3,0,0,0,0,0	test	ward_and_allport	0,0,0,3,1,0,2,0,0	89.0	45.0	1.28	1,2,3,0,0,0,0,0,0	to_hand	s646
475.098	0.299	0	PA_without_intermediate	1,0,0,3,0,0,2,0,0	test	ward_and_allport	0,0,0,3,1,0,2,0,0	82.0	45.0	0.299	1,2,3,0,0,0,0,0,0	to_board	s646
475.409	0.919	0	PA_without_intermediate	0,0,0,3,0,0,2,0,0	test	ward_and_allport	0,0,0,3,1,0,2,0,0	89.0	45.0	0.919	1,2,3,0,0,0,0,0,0	to_hand	s646
476.33	0.317	0	PA_without_intermediate	0,0,0,3,1,0,2,0,0	test	ward_and_allport	0,0,0,3,1,0,2,0,0	71.0	45.0	0.317	1,2,3,0,0,0,0,0,0	to_board	s646
476.663	1.0	0	PA_without_intermediate	n/a	test	ward_and_allport	n/a	-1.0	45.0	n/a	n/a	feedback	s646
477.663	4.264	0	PA_without_intermediate	n/a	test	ward_and_allport	n/a	-1.0	45.0	n/a	n/a	ITI	s646
481.938	2.156	1	PA_with_intermediate	1,2,0,0,0,0,0,0,0	test	ward_and_allport	1,3,0,2,0,0,0,0,0	89.0	46.0	2.156	1,2,3,0,0,0,0,0,0	to_hand	s646
484.096	0.373	0	PA_with_intermediate	1,2,0,0,0,0,3,0,0	test	ward_and_allport	1,3,0,2,0,0,0,0,0	82.0	46.0	0.373	1,2,3,0,0,0,0,0,0	to_board	s646
484.481	0.501	0	PA_with_intermediate	1,0,0,0,0,0,3,0,0	test	ward_and_allport	1,3,0,2,0,0,0,0,0	89.0	46.0	0.501	1,2,3,0,0,0,0,0,0	to_hand	s646
484.984	0.28	0	PA_with_intermediate	1,0,0,2,0,0,3,0,0	test	ward_and_allport	1,3,0,2,0,0,0,0,0	71.0	46.0	0.28	1,2,3,0,0,0,0,0,0	to_board	s646
485.276	0.551	0	PA_with_intermediate	1,0,0,2,0,0,0,0,0	test	ward_and_allport	1,3,0,2,0,0,0,0,0	82.0	46.0	0.551	1,2,3,0,0,0,0,0,0	to_hand	s646
485.829	0.664	0	PA_with_intermediate	1,3,0,2,0,0,0,0,0	test	ward_and_allport	1,3,0,2,0,0,0,0,0	89.0	46.0	0.664	1,2,3,0,0,0,0,0,0	to_board	s646
486.51	1.0	0	PA_with_intermediate	n/a	test	ward_and_allport	n/a	-1.0	46.0	n/a	n/a	feedback	s646
487.51	3.04	0	PA_with_intermediate	n/a	test	ward_and_allport	n/a	-1.0	46.0	n/a	n/a	ITI	s646
490.561	3.753	1	PA_with_intermediate	0,0,0,1,2,0,0,0,0	test	ward_and_allport	2,3,0,1,0,0,0,0,0	71.0	47.0	3.753	0,0,0,1,2,3,0,0,0	to_hand	s646
494.316	0.284	0	PA_with_intermediate	0,0,0,1,2,0,3,0,0	test	ward_and_allport	2,3,0,1,0,0,0,0,0	82.0	47.0	0.284	0,0,0,1,2,3,0,0,0	to_board	s646
494.611	0.302	0	PA_with_intermediate	0,0,0,1,0,0,3,0,0	test	ward_and_allport	2,3,0,1,0,0,0,0,0	71.0	47.0	0.302	0,0,0,1,2,3,0,0,0	to_hand	s646
494.914	0.416	0	PA_with_intermediate	2,0,0,1,0,0,3,0,0	test	ward_and_allport	2,3,0,1,0,0,0,0,0	89.0	47.0	0.416	0,0,0,1,2,3,0,0,0	to_board	s646
495.343	0.502	0	PA_with_intermediate	2,0,0,1,0,0,0,0,0	test	ward_and_allport	2,3,0,1,0,0,0,0,0	82.0	47.0	0.502	0,0,0,1,2,3,0,0,0	to_hand	s646
495.847	0.351	0	PA_with_intermediate	2,3,0,1,0,0,0,0,0	test	ward_and_allport	2,3,0,1,0,0,0,0,0	89.0	47.0	0.351	0,0,0,1,2,3,0,0,0	to_board	s646
496.211	1.0	0	PA_with_intermediate	n/a	test	ward_and_allport	n/a	-1.0	47.0	n/a	n/a	feedback	s646
497.211	1.136	0	PA_with_intermediate	n/a	test	ward_and_allport	n/a	-1.0	47.0	n/a	n/a	ITI	s646
n/a	n/a	0	n/a	n/a	n/a	n/a	n/a	n/a	n/a	n/a	n/a	ITI	n/a
