onset	duration	EV	action	clicked_on_loss_card	experiment_exp_id	gain_amount	gain_probability	key_press	loss_amount	loss_probability	num_cards	num_click_in_round	num_loss_cards	risk	response_time	total_cards	trial_id	worker_id
3.015	4.056	-0.534176579793463	draw_card	1.0	columbia_card_task_fmri	12.0	0.8333333333333334	89.0	-70.0	0.1666666666666666	6.0	1.0	1.0	-1.3218491294929358	4.056	1.0	stim	s646
7.08	2.25	n/a	-1.0	n/a	columbia_card_task_fmri	n/a	n/a	-1.0	n/a	n/a	n/a	n/a	n/a	n/a	n/a	n/a	feedback	s646
9.33	0.0	n/a	-1.0	n/a	columbia_card_task_fmri	n/a	n/a	-1.0	n/a	n/a	n/a	n/a	n/a	n/a	n/a	n/a	ITI	s646
9.332	0.931	0.2991567535398709	draw_card	0.0	columbia_card_task_fmri	14.0	0.8333333333333334	89.0	-75.0	0.1666666666666666	6.0	1.0	1.0	1.2852479741977376	0.931	n/a	stim	s646
10.265	2.082	-2.667509913126796	draw_card	0.0	columbia_card_task_fmri	14.0	0.8	89.0	-75.0	0.2	6.0	2.0	1.0	3.715586795720213	2.082	n/a	stim	s646
12.349	1.177	-7.117509913126797	end_round	0.0	columbia_card_task_fmri	14.0	0.75	71.0	-75.0	0.25	6.0	3.0	1.0	6.65234491610439	1.177	2.0	stim	s646
13.533	2.25	n/a	-1.0	n/a	columbia_card_task_fmri	n/a	n/a	-1.0	n/a	n/a	n/a	n/a	n/a	n/a	n/a	n/a	feedback	s646
15.783	0.136	n/a	-1.0	n/a	columbia_card_task_fmri	n/a	n/a	-1.0	n/a	n/a	n/a	n/a	n/a	n/a	n/a	n/a	ITI	s646
15.921	0.889	1.965823420206537	draw_card	0.0	columbia_card_task_fmri	15.0	0.8333333333333334	89.0	-70.0	0.1666666666666666	6.0	1.0	1.0	-0.2045550221110659	0.889	n/a	stim	s646
16.815	1.524	-0.8675099131267969	draw_card	0.0	columbia_card_task_fmri	15.0	0.8	89.0	-70.0	0.2	6.0	2.0	1.0	2.116433798201733	1.524	n/a	stim	s646
18.34	1.012	-5.117509913126797	draw_card	0.0	columbia_card_task_fmri	15.0	0.75	89.0	-70.0	0.25	6.0	3.0	1.0	4.921076627096205	1.012	n/a	stim	s646
19.355	0.837	-12.200843246460128	end_round	0.0	columbia_card_task_fmri	15.0	0.6666666666666667	71.0	-70.0	0.3333333333333333	6.0	4.0	1.0	8.182963219947354	0.837	3.0	stim	s646
20.198	2.25	n/a	-1.0	n/a	columbia_card_task_fmri	n/a	n/a	-1.0	n/a	n/a	n/a	n/a	n/a	n/a	n/a	n/a	feedback	s646
22.448	0.34	n/a	-1.0	n/a	columbia_card_task_fmri	n/a	n/a	-1.0	n/a	n/a	n/a	n/a	n/a	n/a	n/a	n/a	ITI	s646
22.79	2.017	2.799156753539871	draw_card	0.0	columbia_card_task_fmri	17.0	0.8333333333333334	89.0	-75.0	0.1666666666666666	6.0	1.0	1.0	2.402652049026635	2.017	n/a	stim	s646
24.809	1.375	-0.2675099131267955	draw_card	0.0	columbia_card_task_fmri	17.0	0.8	89.0	-75.0	0.2	6.0	2.0	1.0	4.914999842612687	1.375	n/a	stim	s646
26.186	1.197	-4.867509913126797	draw_card	0.0	columbia_card_task_fmri	17.0	0.75	89.0	-75.0	0.25	6.0	3.0	1.0	7.950840759361306	1.197	n/a	stim	s646
27.385	1.685	-12.534176579793463	draw_card	1.0	columbia_card_task_fmri	17.0	0.6666666666666667	89.0	-75.0	0.3333333333333333	6.0	4.0	1.0	11.481577851540507	1.685	4.0	stim	s646
29.076	2.25	n/a	-1.0	n/a	columbia_card_task_fmri	n/a	n/a	-1.0	n/a	n/a	n/a	n/a	n/a	n/a	n/a	n/a	feedback	s646
31.326	0.408	n/a	-1.0	n/a	columbia_card_task_fmri	n/a	n/a	-1.0	n/a	n/a	n/a	n/a	n/a	n/a	n/a	n/a	ITI	s646
31.736	1.844	4.132490086873203	draw_card	0.0	columbia_card_task_fmri	24.0	0.75	89.0	-60.0	0.25	8.0	1.0	2.0	4.488271191198159	1.844	n/a	stim	s646
33.582	1.377	1.132490086873203	draw_card	0.0	columbia_card_task_fmri	24.0	0.7142857142857143	89.0	-60.0	0.2857142857142857	8.0	2.0	2.0	6.0618052630039045	1.377	n/a	stim	s646
34.96	1.545	-2.867509913126797	draw_card	0.0	columbia_card_task_fmri	24.0	0.6666666666666667	89.0	-60.0	0.3333333333333333	8.0	3.0	2.0	7.711749106487744	1.545	n/a	stim	s646
36.508	1.551	-8.467509913126799	end_round	0.0	columbia_card_task_fmri	24.0	0.6	71.0	-60.0	0.4	8.0	4.0	2.0	9.264586066963446	1.551	3.0	stim	s646
38.062	2.25	n/a	-1.0	n/a	columbia_card_task_fmri	n/a	n/a	-1.0	n/a	n/a	n/a	n/a	n/a	n/a	n/a	n/a	feedback	s646
40.312	0.136	n/a	-1.0	n/a	columbia_card_task_fmri	n/a	n/a	-1.0	n/a	n/a	n/a	n/a	n/a	n/a	n/a	n/a	ITI	s646
40.449	3.387	4.132490086873203	draw_card	1.0	columbia_card_task_fmri	29.0	0.75	89.0	-75.0	0.25	8.0	1.0	2.0	13.145136813026369	3.387	1.0	stim	s646
43.843	2.25	n/a	-1.0	n/a	columbia_card_task_fmri	n/a	n/a	-1.0	n/a	n/a	n/a	n/a	n/a	n/a	n/a	n/a	feedback	s646
46.093	0.136	n/a	-1.0	n/a	columbia_card_task_fmri	n/a	n/a	-1.0	n/a	n/a	n/a	n/a	n/a	n/a	n/a	n/a	ITI	s646
46.23	1.773	-0.0897321353490165	draw_card	0.0	columbia_card_task_fmri	17.0	0.7777777777777778	89.0	-65.0	0.2222222222222222	9.0	1.0	2.0	2.207039874495905	1.773	n/a	stim	s646
48.006	2.175	-2.367509913126797	draw_card	0.0	columbia_card_task_fmri	17.0	0.75	89.0	-65.0	0.25	9.0	2.0	2.0	3.622675473873926	2.175	n/a	stim	s646
50.183	2.697	-5.296081341698224	draw_card	0.0	columbia_card_task_fmri	17.0	0.7142857142857143	89.0	-65.0	0.2857142857142857	9.0	3.0	2.0	5.158709245698077	2.697	n/a	stim	s646
52.882	2.315	-9.200843246460128	draw_card	0.0	columbia_card_task_fmri	17.0	0.6666666666666667	89.0	-65.0	0.3333333333333333	9.0	4.0	2.0	6.769334803026915	2.315	n/a	stim	s646
55.199	2.476	-14.667509913126798	draw_card	1.0	columbia_card_task_fmri	17.0	0.6	89.0	-65.0	0.4	9.0	5.0	2.0	8.285170024456441	2.476	5.0	stim	s646
57.68	2.25	n/a	-1.0	n/a	columbia_card_task_fmri	n/a	n/a	-1.0	n/a	n/a	n/a	n/a	n/a	n/a	n/a	n/a	feedback	s646
59.93	0.0	n/a	-1.0	n/a	columbia_card_task_fmri	n/a	n/a	-1.0	n/a	n/a	n/a	n/a	n/a	n/a	n/a	n/a	ITI	s646
59.932	2.033	4.232490086873202	draw_card	0.0	columbia_card_task_fmri	14.0	0.9	89.0	-95.0	0.1	10.0	1.0	1.0	0.8171829671589279	2.033	n/a	stim	s646
61.967	3.109	3.0213789757620906	draw_card	0.0	columbia_card_task_fmri	14.0	0.8888888888888888	89.0	-95.0	0.1111111111111111	10.0	2.0	1.0	2.371688472840773	3.109	n/a	stim	s646
65.078	2.675	1.507490086873203	draw_card	0.0	columbia_card_task_fmri	14.0	0.875	89.0	-95.0	0.125	10.0	3.0	1.0	4.163724533599392	2.675	n/a	stim	s646
67.755	2.733	-0.4389384845553681	draw_card	0.0	columbia_card_task_fmri	14.0	0.8571428571428572	89.0	-95.0	0.1428571428571428	10.0	4.0	1.0	6.256441692454068	2.733	n/a	stim	s646
70.49	3.687	-3.034176579793461	draw_card	0.0	columbia_card_task_fmri	14.0	0.8333333333333334	89.0	-95.0	0.1666666666666666	10.0	5.0	1.0	8.73526299588805	3.687	n/a	stim	s646
74.18	0.874	-6.667509913126796	end_round	0.0	columbia_card_task_fmri	14.0	0.8	71.0	-95.0	0.2	10.0	6.0	1.0	11.712283711929716	0.874	5.0	stim	s646
75.057	2.25	n/a	-1.0	n/a	columbia_card_task_fmri	n/a	n/a	-1.0	n/a	n/a	n/a	n/a	n/a	n/a	n/a	n/a	feedback	s646
77.307	0.068	n/a	-1.0	n/a	columbia_card_task_fmri	n/a	n/a	-1.0	n/a	n/a	n/a	n/a	n/a	n/a	n/a	n/a	ITI	s646
77.378	3.39	0.132490086873203	draw_card	0.0	columbia_card_task_fmri	15.0	0.8	89.0	-65.0	0.2	10.0	1.0	2.0	0.1176115552205772	3.39	n/a	stim	s646
80.77	2.519	-1.6452876909045735	draw_card	1.0	columbia_card_task_fmri	15.0	0.7777777777777778	89.0	-65.0	0.2222222222222222	10.0	2.0	2.0	1.3760303224308927	2.519	2.0	stim	s646
83.295	2.25	n/a	-1.0	n/a	columbia_card_task_fmri	n/a	n/a	-1.0	n/a	n/a	n/a	n/a	n/a	n/a	n/a	n/a	feedback	s646
85.545	0.0	n/a	-1.0	n/a	columbia_card_task_fmri	n/a	n/a	-1.0	n/a	n/a	n/a	n/a	n/a	n/a	n/a	n/a	ITI	s646
85.548	2.147	1.7324900868732045	draw_card	0.0	columbia_card_task_fmri	17.0	0.8	89.0	-65.0	0.2	10.0	1.0	2.0	0.917123232284986	2.147	n/a	stim	s646
87.697	2.384	-0.0897321353490165	draw_card	0.0	columbia_card_task_fmri	17.0	0.7777777777777778	89.0	-65.0	0.2222222222222222	10.0	2.0	2.0	2.207039874495905	2.384	n/a	stim	s646
90.083	2.501	-2.367509913126797	draw_card	0.0	columbia_card_task_fmri	17.0	0.75	89.0	-65.0	0.25	10.0	3.0	2.0	3.622675473873926	2.501	n/a	stim	s646
92.587	2.236	-5.296081341698224	draw_card	1.0	columbia_card_task_fmri	17.0	0.7142857142857143	89.0	-65.0	0.2857142857142857	10.0	4.0	2.0	5.158709245698077	2.236	4.0	stim	s646
94.831	2.25	n/a	-1.0	n/a	columbia_card_task_fmri	n/a	n/a	-1.0	n/a	n/a	n/a	n/a	n/a	n/a	n/a	n/a	feedback	s646
97.081	0.0	n/a	-1.0	n/a	columbia_card_task_fmri	n/a	n/a	-1.0	n/a	n/a	n/a	n/a	n/a	n/a	n/a	n/a	ITI	s646
97.083	1.743	0.2991567535398709	draw_card	1.0	columbia_card_task_fmri	13.0	0.8333333333333334	89.0	-70.0	0.1666666666666666	12.0	1.0	2.0	-0.9494236972432546	1.743	1.0	stim	s646
98.833	2.25	n/a	-1.0	n/a	columbia_card_task_fmri	n/a	n/a	-1.0	n/a	n/a	n/a	n/a	n/a	n/a	n/a	n/a	feedback	s646
101.083	0.136	n/a	-1.0	n/a	columbia_card_task_fmri	n/a	n/a	-1.0	n/a	n/a	n/a	n/a	n/a	n/a	n/a	n/a	ITI	s646
101.222	1.357	0.2991567535398709	draw_card	0.0	columbia_card_task_fmri	15.0	0.8333333333333334	89.0	-80.0	0.1666666666666666	12.0	1.0	2.0	3.520095876375663	1.357	n/a	stim	s646
102.581	2.79	-1.140237185854072	draw_card	0.0	columbia_card_task_fmri	15.0	0.8181818181818181	89.0	-80.0	0.1818181818181818	12.0	2.0	2.0	4.756063164189655	2.79	n/a	stim	s646
105.373	2.276	-2.867509913126797	draw_card	0.0	columbia_card_task_fmri	15.0	0.8	89.0	-80.0	0.2	12.0	3.0	2.0	6.114449934731866	2.276	n/a	stim	s646
107.651	2.327	-4.97862102423791	draw_card	0.0	columbia_card_task_fmri	15.0	0.7777777777777778	89.0	-80.0	0.2222222222222222	12.0	4.0	2.0	7.60908386367992	2.327	n/a	stim	s646
109.981	3.367	-7.617509913126797	draw_card	0.0	columbia_card_task_fmri	15.0	0.75	89.0	-80.0	0.25	12.0	5.0	2.0	9.249370830668605	3.367	n/a	stim	s646
113.351	1.269	-11.010367055983936	end_round	0.0	columbia_card_task_fmri	15.0	0.7142857142857143	71.0	-80.0	0.2857142857142857	12.0	6.0	2.0	11.0291431789027	1.269	5.0	stim	s646
114.626	2.25	n/a	-1.0	n/a	columbia_card_task_fmri	n/a	n/a	-1.0	n/a	n/a	n/a	n/a	n/a	n/a	n/a	n/a	feedback	s646
116.876	0.136	n/a	-1.0	n/a	columbia_card_task_fmri	n/a	n/a	-1.0	n/a	n/a	n/a	n/a	n/a	n/a	n/a	n/a	ITI	s646
117.014	3.903	-0.6675099131267959	draw_card	0.0	columbia_card_task_fmri	14.0	0.8	89.0	-65.0	0.2	15.0	1.0	3.0	-0.2821350201324435	3.903	n/a	stim	s646
120.919	2.105	-1.796081341698224	draw_card	0.0	columbia_card_task_fmri	14.0	0.7857142857142857	89.0	-65.0	0.2142857142857142	15.0	2.0	3.0	0.5331011392686804	2.105	n/a	stim	s646
123.027	3.256	-3.0982791438960287	draw_card	1.0	columbia_card_task_fmri	14.0	0.7692307692307692	89.0	-65.0	0.2307692307692307	15.0	3.0	3.0	1.401517286026575	3.256	3.0	stim	s646
126.29	2.25	n/a	-1.0	n/a	columbia_card_task_fmri	n/a	n/a	-1.0	n/a	n/a	n/a	n/a	n/a	n/a	n/a	n/a	feedback	s646
128.54	0.476	n/a	-1.0	n/a	columbia_card_task_fmri	n/a	n/a	-1.0	n/a	n/a	n/a	n/a	n/a	n/a	n/a	n/a	ITI	s646
129.018	1.506	-0.7425099131267969	draw_card	0.0	columbia_card_task_fmri	1.0	0.9375	89.0	-45.0	0.0625	16.0	1.0	1.0	-20.710151717875465	1.506	n/a	stim	s646
130.526	2.138	-0.9341765797934634	draw_card	1.0	columbia_card_task_fmri	1.0	0.9333333333333332	89.0	-45.0	0.0666666666666666	16.0	2.0	1.0	-20.37225454893968	2.138	2.0	stim	s646
132.672	2.25	n/a	-1.0	n/a	columbia_card_task_fmri	n/a	n/a	-1.0	n/a	n/a	n/a	n/a	n/a	n/a	n/a	n/a	feedback	s646
134.922	0.204	n/a	-1.0	n/a	columbia_card_task_fmri	n/a	n/a	-1.0	n/a	n/a	n/a	n/a	n/a	n/a	n/a	n/a	ITI	s646
135.129	1.708	0.194990086873203	draw_card	0.0	columbia_card_task_fmri	15.0	0.8125	89.0	-70.0	0.1875	16.0	1.0	3.0	1.2934533941094557	1.708	n/a	stim	s646
136.84	1.679	-0.8675099131267969	draw_card	1.0	columbia_card_task_fmri	15.0	0.8	89.0	-70.0	0.2	16.0	2.0	3.0	2.116433798201733	1.679	2.0	stim	s646
138.527	2.25	n/a	-1.0	n/a	columbia_card_task_fmri	n/a	n/a	-1.0	n/a	n/a	n/a	n/a	n/a	n/a	n/a	n/a	feedback	s646
140.777	0.068	n/a	-1.0	n/a	columbia_card_task_fmri	n/a	n/a	-1.0	n/a	n/a	n/a	n/a	n/a	n/a	n/a	n/a	ITI	s646
140.847	1.108	7.132490086873203	draw_card	0.0	columbia_card_task_fmri	30.0	0.7	89.0	-50.0	0.3	10.0	1.0	3.0	4.775671612826635	1.108	n/a	stim	s646
141.956	2.549	4.465823420206542	draw_card	0.0	columbia_card_task_fmri	30.0	0.6666666666666667	89.0	-50.0	0.3333333333333333	10.0	2.0	3.0	5.826940223454237	2.549	n/a	stim	s646
144.507	1.566	1.132490086873203	draw_card	1.0	columbia_card_task_fmri	30.0	0.625	89.0	-50.0	0.375	10.0	3.0	3.0	6.843965599947765	1.566	3.0	stim	s646
146.079	2.25	n/a	-1.0	n/a	columbia_card_task_fmri	n/a	n/a	-1.0	n/a	n/a	n/a	n/a	n/a	n/a	n/a	n/a	feedback	s646
148.329	0.068	n/a	-1.0	n/a	columbia_card_task_fmri	n/a	n/a	-1.0	n/a	n/a	n/a	n/a	n/a	n/a	n/a	n/a	ITI	s646
148.4	0.915	6.532490086873203	draw_card	0.0	columbia_card_task_fmri	17.0	0.8666666666666667	89.0	-70.0	0.1333333333333333	15.0	1.0	2.0	-2.306433289774578	0.915	n/a	stim	s646
149.318	2.51	5.703918658301776	draw_card	0.0	columbia_card_task_fmri	17.0	0.8571428571428572	89.0	-70.0	0.1428571428571428	15.0	2.0	2.0	-1.4377067596510429	2.51	n/a	stim	s646
151.831	1.962	4.747874702257818	draw_card	0.0	columbia_card_task_fmri	17.0	0.8461538461538461	89.0	-70.0	0.1538461538461538	15.0	3.0	2.0	-0.4922937280928963	1.962	n/a	stim	s646
153.795	2.439	3.632490086873205	draw_card	0.0	columbia_card_task_fmri	17.0	0.8333333333333334	89.0	-70.0	0.1666666666666666	15.0	4.0	2.0	0.5403360374502597	2.439	n/a	stim	s646
156.237	1.168	2.314308268691383	end_round	0.0	columbia_card_task_fmri	17.0	0.8181818181818181	71.0	-70.0	0.1818181818181818	15.0	5.0	2.0	1.6721143595439898	1.168	4.0	stim	s646
157.412	2.25	n/a	-1.0	n/a	columbia_card_task_fmri	n/a	n/a	-1.0	n/a	n/a	n/a	n/a	n/a	n/a	n/a	n/a	feedback	s646
159.662	0.34	n/a	-1.0	n/a	columbia_card_task_fmri	n/a	n/a	-1.0	n/a	n/a	n/a	n/a	n/a	n/a	n/a	n/a	ITI	s646
160.005	2.651	1.757490086873203	draw_card	0.0	columbia_card_task_fmri	7.0	0.9375	89.0	-95.0	0.0625	16.0	1.0	1.0	-7.18619412361172	2.651	n/a	stim	s646
162.659	2.054	1.3324900868732032	draw_card	0.0	columbia_card_task_fmri	7.0	0.9333333333333332	89.0	-95.0	0.0666666666666666	16.0	2.0	1.0	-6.433960213079391	2.054	n/a	stim	s646
164.716	2.035	0.8467758011589175	draw_card	0.0	columbia_card_task_fmri	7.0	0.9285714285714286	89.0	-95.0	0.0714285714285714	16.0	3.0	1.0	-5.60900513055979	2.035	n/a	stim	s646
166.753	2.659	0.2863362407193563	draw_card	0.0	columbia_card_task_fmri	7.0	0.9230769230769232	89.0	-95.0	0.0769230769230769	16.0	4.0	1.0	-4.698964338534434	2.659	n/a	stim	s646
169.414	2.534	-0.3675099131267969	draw_card	0.0	columbia_card_task_fmri	7.0	0.9166666666666666	89.0	-95.0	0.0833333333333333	16.0	5.0	1.0	-3.6883732461445256	2.534	n/a	stim	s646
171.951	3.057	-1.1402371858540703	draw_card	0.0	columbia_card_task_fmri	7.0	0.9090909090909092	89.0	-95.0	0.0909090909090909	16.0	6.0	1.0	-2.5576224886506544	3.057	n/a	stim	s646
175.011	1.383	-2.067509913126797	end_round	0.0	columbia_card_task_fmri	7.0	0.9	71.0	-95.0	0.1	16.0	7.0	1.0	-1.281472501029203	1.383	6.0	stim	s646
176.401	2.25	n/a	-1.0	n/a	columbia_card_task_fmri	n/a	n/a	-1.0	n/a	n/a	n/a	n/a	n/a	n/a	n/a	n/a	feedback	s646
178.651	0.476	n/a	-1.0	n/a	columbia_card_task_fmri	n/a	n/a	-1.0	n/a	n/a	n/a	n/a	n/a	n/a	n/a	n/a	ITI	s646
179.131	1.371	3.319990086873203	draw_card	0.0	columbia_card_task_fmri	9.0	0.9375	89.0	-100.0	0.0625	16.0	1.0	1.0	-5.49342940306817	1.371	n/a	stim	s646
180.505	4.171	2.8658234202065365	draw_card	0.0	columbia_card_task_fmri	9.0	0.9333333333333332	89.0	-100.0	0.0666666666666666	16.0	2.0	1.0	-4.689469774347117	4.171	n/a	stim	s646
184.679	3.047	2.3467758011589184	draw_card	0.0	columbia_card_task_fmri	9.0	0.9285714285714286	89.0	-100.0	0.0714285714285714	16.0	3.0	1.0	-3.807795160820042	3.047	n/a	stim	s646
187.729	2.501	1.747874702257819	draw_card	0.0	columbia_card_task_fmri	9.0	0.9230769230769232	89.0	-100.0	0.0769230769230769	16.0	4.0	1.0	-2.835192182525006	2.501	n/a	stim	s646
190.232	2.595	1.049156753539871	draw_card	0.0	columbia_card_task_fmri	9.0	0.9166666666666666	89.0	-100.0	0.0833333333333333	16.0	5.0	1.0	-1.7551346115080335	2.595	n/a	stim	s646
192.831	2.843	0.223399177782293	draw_card	0.0	columbia_card_task_fmri	9.0	0.9090909090909092	89.0	-100.0	0.0909090909090909	16.0	6.0	1.0	-0.5466669459293811	2.843	n/a	stim	s646
195.677	3.79	-0.7675099131267973	draw_card	0.0	columbia_card_task_fmri	9.0	0.9	89.0	-100.0	0.1	16.0	7.0	1.0	0.8171829671589279	3.79	n/a	stim	s646
199.472	1.433	-1.978621024237908	end_round	0.0	columbia_card_task_fmri	9.0	0.8888888888888888	71.0	-100.0	0.1111111111111111	16.0	8.0	1.0	2.371688472840773	1.433	7.0	stim	s646
200.913	2.25	n/a	-1.0	n/a	columbia_card_task_fmri	n/a	n/a	-1.0	n/a	n/a	n/a	n/a	n/a	n/a	n/a	n/a	feedback	s646
203.163	0.272	n/a	-1.0	n/a	columbia_card_task_fmri	n/a	n/a	-1.0	n/a	n/a	n/a	n/a	n/a	n/a	n/a	n/a	ITI	s646
203.438	3.065	4.257490086873203	draw_card	0.0	columbia_card_task_fmri	15.0	0.875	89.0	-80.0	0.125	16.0	1.0	2.0	-0.4637209517114549	3.065	n/a	stim	s646
206.506	2.387	3.465823420206537	draw_card	0.0	columbia_card_task_fmri	15.0	0.8666666666666667	89.0	-80.0	0.1333333333333333	16.0	2.0	2.0	0.4112196688775853	2.387	n/a	stim	s646
208.896	2.203	2.5610615154446337	draw_card	1.0	columbia_card_task_fmri	15.0	0.8571428571428572	89.0	-80.0	0.1428571428571428	16.0	3.0	2.0	1.359937962559492	2.203	3.0	stim	s646
211.106	2.25	n/a	-1.0	n/a	columbia_card_task_fmri	n/a	n/a	-1.0	n/a	n/a	n/a	n/a	n/a	n/a	n/a	n/a	feedback	s646
213.356	0.884	n/a	-1.0	n/a	columbia_card_task_fmri	n/a	n/a	-1.0	n/a	n/a	n/a	n/a	n/a	n/a	n/a	n/a	ITI	s646
214.243	1.72	6.382490086873203	draw_card	0.0	columbia_card_task_fmri	16.0	0.875	89.0	-70.0	0.125	16.0	1.0	2.0	-3.438057485702025	1.72	n/a	stim	s646
215.966	2.514	5.665823420206536	draw_card	0.0	columbia_card_task_fmri	16.0	0.8666666666666667	89.0	-70.0	0.1333333333333333	16.0	2.0	2.0	-2.6461160735044587	2.514	n/a	stim	s646
218.485	2.588	4.846775801158918	draw_card	1.0	columbia_card_task_fmri	16.0	0.8571428571428572	89.0	-70.0	0.1428571428571428	16.0	3.0	2.0	-1.7873891917583506	2.588	3.0	stim	s646
221.081	2.25	n/a	-1.0	n/a	columbia_card_task_fmri	n/a	n/a	-1.0	n/a	n/a	n/a	n/a	n/a	n/a	n/a	n/a	feedback	s646
223.331	0.136	n/a	-1.0	n/a	columbia_card_task_fmri	n/a	n/a	-1.0	n/a	n/a	n/a	n/a	n/a	n/a	n/a	n/a	ITI	s646
223.47	1.843	7.694990086873203	draw_card	0.0	columbia_card_task_fmri	30.0	0.6875	89.0	-45.0	0.3125	16.0	1.0	5.0	2.879450346499752	1.843	n/a	stim	s646
225.317	2.646	6.132490086873206	draw_card	1.0	columbia_card_task_fmri	30.0	0.6666666666666667	89.0	-45.0	0.3333333333333333	16.0	2.0	5.0	3.4710504116368317	2.646	2.0	stim	s646
227.971	2.25	n/a	-1.0	n/a	columbia_card_task_fmri	n/a	n/a	-1.0	n/a	n/a	n/a	n/a	n/a	n/a	n/a	n/a	feedback	s646
230.221	0.136	n/a	-1.0	n/a	columbia_card_task_fmri	n/a	n/a	-1.0	n/a	n/a	n/a	n/a	n/a	n/a	n/a	n/a	ITI	s646
230.359	0.987	-0.534176579793463	draw_card	1.0	columbia_card_task_fmri	13.0	0.8333333333333334	89.0	-75.0	0.1666666666666666	6.0	1.0	1.0	0.9127894850341108	0.987	1.0	stim	s646
231.351	2.25	n/a	-1.0	n/a	columbia_card_task_fmri	n/a	n/a	-1.0	n/a	n/a	n/a	n/a	n/a	n/a	n/a	n/a	feedback	s646
233.601	0.068	n/a	-1.0	n/a	columbia_card_task_fmri	n/a	n/a	-1.0	n/a	n/a	n/a	n/a	n/a	n/a	n/a	n/a	ITI	s646
233.672	1.128	1.1324900868732048	draw_card	0.0	columbia_card_task_fmri	14.0	0.8333333333333334	89.0	-70.0	0.1666666666666666	6.0	1.0	1.0	-0.5769922575317956	1.128	n/a	stim	s646
234.802	2.336	-1.667509913126796	draw_card	1.0	columbia_card_task_fmri	14.0	0.8	89.0	-70.0	0.2	6.0	2.0	1.0	1.7166581425404883	2.336	2.0	stim	s646
237.147	2.25	n/a	-1.0	n/a	columbia_card_task_fmri	n/a	n/a	-1.0	n/a	n/a	n/a	n/a	n/a	n/a	n/a	n/a	feedback	s646
239.397	0.068	n/a	-1.0	n/a	columbia_card_task_fmri	n/a	n/a	-1.0	n/a	n/a	n/a	n/a	n/a	n/a	n/a	n/a	ITI	s646
239.468	0.809	1.1324900868732048	draw_card	1.0	columbia_card_task_fmri	16.0	0.8333333333333334	89.0	-80.0	0.1666666666666666	6.0	1.0	1.0	3.892585342580105	0.809	1.0	stim	s646
240.284	2.25	n/a	-1.0	n/a	columbia_card_task_fmri	n/a	n/a	-1.0	n/a	n/a	n/a	n/a	n/a	n/a	n/a	n/a	feedback	s646
242.534	0.612	n/a	-1.0	n/a	columbia_card_task_fmri	n/a	n/a	-1.0	n/a	n/a	n/a	n/a	n/a	n/a	n/a	n/a	ITI	s646
243.15	1.193	3.632490086873205	draw_card	0.0	columbia_card_task_fmri	17.0	0.8333333333333334	89.0	-70.0	0.1666666666666666	6.0	1.0	1.0	0.5403360374502597	1.193	n/a	stim	s646
244.345	3.097	0.7324900868732045	draw_card	0.0	columbia_card_task_fmri	17.0	0.8	89.0	-70.0	0.2	6.0	2.0	1.0	2.9160005690282844	3.097	n/a	stim	s646
247.445	1.056	-3.617509913126797	end_round	0.0	columbia_card_task_fmri	17.0	0.75	71.0	-70.0	0.25	6.0	3.0	1.0	5.786701783227471	1.056	2.0	stim	s646
248.505	2.25	n/a	-1.0	n/a	columbia_card_task_fmri	n/a	n/a	-1.0	n/a	n/a	n/a	n/a	n/a	n/a	n/a	n/a	feedback	s646
250.755	0.476	n/a	-1.0	n/a	columbia_card_task_fmri	n/a	n/a	-1.0	n/a	n/a	n/a	n/a	n/a	n/a	n/a	n/a	ITI	s646
251.234	1.042	3.632490086873203	draw_card	1.0	columbia_card_task_fmri	25.0	0.75	89.0	-65.0	0.25	8.0	1.0	2.0	7.085172849631185	1.042	1.0	stim	s646
252.283	2.25	n/a	-1.0	n/a	columbia_card_task_fmri	n/a	n/a	-1.0	n/a	n/a	n/a	n/a	n/a	n/a	n/a	n/a	feedback	s646
254.533	0.0	n/a	-1.0	n/a	columbia_card_task_fmri	n/a	n/a	-1.0	n/a	n/a	n/a	n/a	n/a	n/a	n/a	n/a	ITI	s646
254.537	2.326	3.632490086873203	draw_card	0.0	columbia_card_task_fmri	30.0	0.75	89.0	-80.0	0.25	8.0	1.0	2.0	15.742436654804813	2.326	n/a	stim	s646
256.866	2.435	-0.2960813416982204	draw_card	0.0	columbia_card_task_fmri	30.0	0.7142857142857143	89.0	-80.0	0.2857142857142857	8.0	2.0	2.0	17.80341580914508	2.435	n/a	stim	s646
259.305	2.486	-5.534176579793458	draw_card	0.0	columbia_card_task_fmri	30.0	0.6666666666666667	89.0	-80.0	0.3333333333333333	8.0	3.0	2.0	19.96444070745196	2.486	n/a	stim	s646
261.794	0.884	-12.867509913126796	end_round	0.0	columbia_card_task_fmri	30.0	0.6	71.0	-80.0	0.4	8.0	4.0	2.0	21.998251086545515	0.884	3.0	stim	s646
262.683	2.25	n/a	-1.0	n/a	columbia_card_task_fmri	n/a	n/a	-1.0	n/a	n/a	n/a	n/a	n/a	n/a	n/a	n/a	feedback	s646
264.933	0.068	n/a	-1.0	n/a	columbia_card_task_fmri	n/a	n/a	-1.0	n/a	n/a	n/a	n/a	n/a	n/a	n/a	n/a	ITI	s646
265.004	2.184	3.332490086873204	draw_card	0.0	columbia_card_task_fmri	13.0	0.9	89.0	-95.0	0.1	10.0	1.0	1.0	0.5173643821729144	2.184	n/a	stim	s646
267.192	2.8	2.132490086873203	draw_card	0.0	columbia_card_task_fmri	13.0	0.8888888888888888	89.0	-95.0	0.1111111111111111	10.0	2.0	1.0	2.057591983965473	2.8	n/a	stim	s646
269.994	2.586	0.6324900868732031	draw_card	0.0	columbia_card_task_fmri	13.0	0.875	89.0	-95.0	0.125	10.0	3.0	1.0	3.833170210391323	2.586	n/a	stim	s646
272.584	0.851	-1.296081341698224	end_round	0.0	columbia_card_task_fmri	13.0	0.8571428571428572	71.0	-95.0	0.1428571428571428	10.0	4.0	1.0	5.906670154707022	0.851	3.0	stim	s646
273.442	2.25	n/a	-1.0	n/a	columbia_card_task_fmri	n/a	n/a	-1.0	n/a	n/a	n/a	n/a	n/a	n/a	n/a	n/a	feedback	s646
275.692	0.204	n/a	-1.0	n/a	columbia_card_task_fmri	n/a	n/a	-1.0	n/a	n/a	n/a	n/a	n/a	n/a	n/a	n/a	ITI	s646
275.901	1.992	4.732490086873202	draw_card	0.0	columbia_card_task_fmri	14.0	0.9	89.0	-90.0	0.1	10.0	1.0	1.0	-0.681875103750496	1.992	n/a	stim	s646
277.896	3.595	3.576934531317646	draw_card	0.0	columbia_card_task_fmri	14.0	0.8888888888888888	89.0	-90.0	0.1111111111111111	10.0	2.0	1.0	0.8012393054206655	3.595	n/a	stim	s646
281.495	6.352	2.132490086873203	draw_card	0.0	columbia_card_task_fmri	14.0	0.875	89.0	-90.0	0.125	10.0	3.0	1.0	2.510984544610878	6.352	n/a	stim	s646
287.851	2.424	0.2753472297303472	draw_card	0.0	columbia_card_task_fmri	14.0	0.8571428571428572	89.0	-90.0	0.1428571428571428	10.0	4.0	1.0	4.5076138996023545	2.424	n/a	stim	s646
290.279	1.22	-2.200843246460129	end_round	0.0	columbia_card_task_fmri	14.0	0.8333333333333334	71.0	-90.0	0.1666666666666666	10.0	5.0	1.0	6.872631504555073	1.22	4.0	stim	s646
291.507	2.25	n/a	-1.0	n/a	columbia_card_task_fmri	n/a	n/a	-1.0	n/a	n/a	n/a	n/a	n/a	n/a	n/a	n/a	feedback	s646
293.757	0.272	n/a	-1.0	n/a	columbia_card_task_fmri	n/a	n/a	-1.0	n/a	n/a	n/a	n/a	n/a	n/a	n/a	n/a	ITI	s646
294.032	1.823	-0.0675099131267962	draw_card	0.0	columbia_card_task_fmri	16.0	0.8	89.0	-70.0	0.2	10.0	1.0	2.0	2.516214666886299	1.823	n/a	stim	s646
295.859	1.48	-1.978621024237908	draw_card	0.0	columbia_card_task_fmri	16.0	0.7777777777777778	89.0	-70.0	0.2222222222222222	10.0	2.0	2.0	3.869124490173377	1.48	n/a	stim	s646
297.343	1.868	-4.367509913126797	draw_card	0.0	columbia_card_task_fmri	16.0	0.75	89.0	-70.0	0.25	10.0	3.0	2.0	5.353886879753482	1.868	n/a	stim	s646
299.215	1.709	-7.438938484555368	draw_card	1.0	columbia_card_task_fmri	16.0	0.7142857142857143	89.0	-70.0	0.2857142857142857	10.0	4.0	2.0	6.964920425285435	1.709	4.0	stim	s646
300.932	2.25	n/a	-1.0	n/a	columbia_card_task_fmri	n/a	n/a	-1.0	n/a	n/a	n/a	n/a	n/a	n/a	n/a	n/a	feedback	s646
303.182	0.068	n/a	-1.0	n/a	columbia_card_task_fmri	n/a	n/a	-1.0	n/a	n/a	n/a	n/a	n/a	n/a	n/a	n/a	ITI	s646
303.254	0.681	-0.784176579793463	draw_card	0.0	columbia_card_task_fmri	7.0	0.9166666666666666	89.0	-100.0	0.0833333333333333	12.0	1.0	1.0	-2.307507966940648	0.681	n/a	stim	s646
303.939	1.681	-1.594782640399525	draw_card	0.0	columbia_card_task_fmri	7.0	0.9090909090909092	89.0	-100.0	0.0909090909090909	12.0	2.0	1.0	-1.1212443844275055	1.681	n/a	stim	s646
305.623	1.778	-2.567509913126797	draw_card	0.0	columbia_card_task_fmri	7.0	0.9	89.0	-100.0	0.1	12.0	3.0	1.0	0.2175491849889326	1.778	n/a	stim	s646
307.404	2.564	-3.756398802015686	draw_card	0.0	columbia_card_task_fmri	7.0	0.8888888888888888	89.0	-100.0	0.1111111111111111	12.0	4.0	1.0	1.7434987295916713	2.564	n/a	stim	s646
309.972	0.956	-5.242509913126797	end_round	0.0	columbia_card_task_fmri	7.0	0.875	71.0	-100.0	0.125	12.0	5.0	1.0	3.5026189613052168	0.956	4.0	stim	s646
310.936	2.25	n/a	-1.0	n/a	columbia_card_task_fmri	n/a	n/a	-1.0	n/a	n/a	n/a	n/a	n/a	n/a	n/a	n/a	feedback	s646
313.186	0.272	n/a	-1.0	n/a	columbia_card_task_fmri	n/a	n/a	-1.0	n/a	n/a	n/a	n/a	n/a	n/a	n/a	n/a	ITI	s646
313.462	0.953	-0.5341765797934612	draw_card	0.0	columbia_card_task_fmri	14.0	0.8333333333333334	89.0	-80.0	0.1666666666666666	12.0	1.0	2.0	3.147610418340534	0.953	n/a	stim	s646
314.418	2.161	-1.9584190040358904	draw_card	0.0	columbia_card_task_fmri	14.0	0.8181818181818181	89.0	-80.0	0.1818181818181818	12.0	2.0	2.0	4.370554606176263	2.161	n/a	stim	s646
316.583	3.072	-3.667509913126796	draw_card	1.0	columbia_card_task_fmri	14.0	0.8	89.0	-80.0	0.2	12.0	3.0	2.0	5.714629339964148	3.072	3.0	stim	s646
319.66	2.25	n/a	-1.0	n/a	columbia_card_task_fmri	n/a	n/a	-1.0	n/a	n/a	n/a	n/a	n/a	n/a	n/a	n/a	feedback	s646
321.91	0.748	n/a	-1.0	n/a	columbia_card_task_fmri	n/a	n/a	-1.0	n/a	n/a	n/a	n/a	n/a	n/a	n/a	n/a	ITI	s646
322.662	0.94	1.132490086873203	draw_card	0.0	columbia_card_task_fmri	15.0	0.8333333333333334	89.0	-75.0	0.1666666666666666	12.0	1.0	2.0	1.6577113370831214	0.94	n/a	stim	s646
323.605	1.429	-0.231146276763162	draw_card	0.0	columbia_card_task_fmri	15.0	0.8181818181818181	89.0	-75.0	0.1818181818181818	12.0	2.0	2.0	2.8285616866188903	1.429	n/a	stim	s646
325.038	2.47	-1.867509913126797	draw_card	0.0	columbia_card_task_fmri	15.0	0.8	89.0	-75.0	0.2	12.0	3.0	2.0	4.115386800096346	2.47	n/a	stim	s646
327.512	0.809	-3.867509913126795	end_round	0.0	columbia_card_task_fmri	15.0	0.7777777777777778	71.0	-75.0	0.2222222222222222	12.0	4.0	2.0	5.531286758646246	0.809	3.0	stim	s646
328.33	2.25	n/a	-1.0	n/a	columbia_card_task_fmri	n/a	n/a	-1.0	n/a	n/a	n/a	n/a	n/a	n/a	n/a	n/a	feedback	s646
330.58	0.068	n/a	-1.0	n/a	columbia_card_task_fmri	n/a	n/a	-1.0	n/a	n/a	n/a	n/a	n/a	n/a	n/a	n/a	ITI	s646
330.652	1.738	0.132490086873203	draw_card	0.0	columbia_card_task_fmri	15.0	0.8	89.0	-65.0	0.2	15.0	1.0	3.0	0.1176115552205772	1.738	n/a	stim	s646
332.393	1.881	-1.0103670559839393	draw_card	1.0	columbia_card_task_fmri	15.0	0.7857142857142857	89.0	-65.0	0.2142857142857142	15.0	2.0	3.0	0.9431799837425956	1.881	2.0	stim	s646
334.28	2.25	n/a	-1.0	n/a	columbia_card_task_fmri	n/a	n/a	-1.0	n/a	n/a	n/a	n/a	n/a	n/a	n/a	n/a	feedback	s646
336.53	0.0	n/a	-1.0	n/a	columbia_card_task_fmri	n/a	n/a	-1.0	n/a	n/a	n/a	n/a	n/a	n/a	n/a	n/a	ITI	s646
336.535	1.51	-0.6175099131267969	draw_card	1.0	columbia_card_task_fmri	14.0	0.8125	89.0	-70.0	0.1875	16.0	1.0	3.0	0.90337092209721	1.51	1.0	stim	s646
338.054	2.25	n/a	-1.0	n/a	columbia_card_task_fmri	n/a	n/a	-1.0	n/a	n/a	n/a	n/a	n/a	n/a	n/a	n/a	feedback	s646
340.304	0.204	n/a	-1.0	n/a	columbia_card_task_fmri	n/a	n/a	-1.0	n/a	n/a	n/a	n/a	n/a	n/a	n/a	n/a	ITI	s646
340.512	1.597	-0.6800099131267969	draw_card	0.0	columbia_card_task_fmri	11.0	0.6875	89.0	-30.0	0.3125	16.0	1.0	5.0	-12.864699276072962	1.597	n/a	stim	s646
342.113	1.443	-1.534176579793463	draw_card	0.0	columbia_card_task_fmri	11.0	0.6666666666666667	89.0	-30.0	0.3333333333333333	16.0	2.0	5.0	-12.54168599976452	1.443	n/a	stim	s646
343.56	1.717	-2.510367055983941	draw_card	0.0	columbia_card_task_fmri	11.0	0.6428571428571428	89.0	-30.0	0.3571428571428571	16.0	3.0	5.0	-12.224352465217514	1.717	n/a	stim	s646
345.282	1.845	-3.636740682357565	draw_card	0.0	columbia_card_task_fmri	11.0	0.6153846153846154	89.0	-30.0	0.3846153846153846	16.0	4.0	5.0	-11.923624095932889	1.845	n/a	stim	s646
347.131	1.821	-4.950843246460131	draw_card	1.0	columbia_card_task_fmri	11.0	0.5833333333333333	89.0	-30.0	0.4166666666666667	16.0	5.0	5.0	-11.657448988889325	1.821	5.0	stim	s646
348.96	2.25	n/a	-1.0	n/a	columbia_card_task_fmri	n/a	n/a	-1.0	n/a	n/a	n/a	n/a	n/a	n/a	n/a	n/a	feedback	s646
351.21	0.068	n/a	-1.0	n/a	columbia_card_task_fmri	n/a	n/a	-1.0	n/a	n/a	n/a	n/a	n/a	n/a	n/a	n/a	ITI	s646
351.282	1.27	4.132490086873203	draw_card	0.0	columbia_card_task_fmri	15.0	0.8666666666666667	89.0	-75.0	0.1333333333333333	15.0	1.0	2.0	-1.2873513939120365	1.27	n/a	stim	s646
352.555	6.528	3.275347229730347	draw_card	0.0	columbia_card_task_fmri	15.0	0.8571428571428572	89.0	-75.0	0.1428571428571428	15.0	2.0	2.0	-0.3886268725815291	6.528	n/a	stim	s646
359.087	3.336	2.2863362407193564	draw_card	1.0	columbia_card_task_fmri	15.0	0.8461538461538461	89.0	-75.0	0.1538461538461538	15.0	3.0	2.0	0.5894295773132043	3.336	3.0	stim	s646
362.43	2.25	n/a	-1.0	n/a	columbia_card_task_fmri	n/a	n/a	-1.0	n/a	n/a	n/a	n/a	n/a	n/a	n/a	n/a	feedback	s646
364.68	0.068	n/a	-1.0	n/a	columbia_card_task_fmri	n/a	n/a	-1.0	n/a	n/a	n/a	n/a	n/a	n/a	n/a	n/a	ITI	s646
364.753	2.138	5.865823420206537	draw_card	0.0	columbia_card_task_fmri	17.0	0.8666666666666667	89.0	-75.0	0.1333333333333333	15.0	1.0	2.0	-0.6079373300464219	2.138	n/a	stim	s646
366.895	1.607	4.989632944016062	draw_card	0.0	columbia_card_task_fmri	17.0	0.8571428571428572	89.0	-75.0	0.1428571428571428	15.0	2.0	2.0	0.3107851087890481	1.607	n/a	stim	s646
368.506	2.005	3.9786439330270498	draw_card	0.0	columbia_card_task_fmri	17.0	0.8461538461538461	89.0	-75.0	0.1538461538461538	15.0	3.0	2.0	1.3106030752083626	2.005	n/a	stim	s646
370.515	1.876	2.799156753539871	draw_card	0.0	columbia_card_task_fmri	17.0	0.8333333333333334	89.0	-75.0	0.1666666666666666	15.0	4.0	2.0	2.402652049026635	1.876	n/a	stim	s646
372.394	2.106	1.405217359600475	draw_card	0.0	columbia_card_task_fmri	17.0	0.8181818181818181	89.0	-75.0	0.1818181818181818	15.0	5.0	2.0	3.599549614741072	2.106	n/a	stim	s646
374.504	2.678	-0.2675099131267955	draw_card	0.0	columbia_card_task_fmri	17.0	0.8	89.0	-75.0	0.2	15.0	6.0	2.0	4.914999842612687	2.678	n/a	stim	s646
377.187	1.741	-2.311954357571238	end_round	0.0	columbia_card_task_fmri	17.0	0.7777777777777778	71.0	-75.0	0.2222222222222222	15.0	7.0	2.0	6.3623938504061215	1.741	6.0	stim	s646
378.936	2.25	n/a	-1.0	n/a	columbia_card_task_fmri	n/a	n/a	-1.0	n/a	n/a	n/a	n/a	n/a	n/a	n/a	n/a	feedback	s646
381.186	0.34	n/a	-1.0	n/a	columbia_card_task_fmri	n/a	n/a	-1.0	n/a	n/a	n/a	n/a	n/a	n/a	n/a	n/a	ITI	s646
381.531	3.143	1.444990086873203	draw_card	0.0	columbia_card_task_fmri	2.0	0.9375	89.0	-25.0	0.0625	16.0	1.0	1.0	-25.269369861590604	3.143	n/a	stim	s646
384.678	3.2	1.332490086873203	draw_card	0.0	columbia_card_task_fmri	2.0	0.9333333333333332	89.0	-25.0	0.0666666666666666	16.0	2.0	1.0	-25.07288782749634	3.2	n/a	stim	s646
387.882	2.857	1.2039186583017747	draw_card	0.0	columbia_card_task_fmri	2.0	0.9285714285714286	89.0	-25.0	0.0714285714285714	16.0	3.0	1.0	-24.8572408148717	2.857	n/a	stim	s646
390.743	4.232	1.0555670099501262	draw_card	0.0	columbia_card_task_fmri	2.0	0.9230769230769232	89.0	-25.0	0.0769230769230769	16.0	4.0	1.0	-24.619163743110114	4.232	n/a	stim	s646
394.98	4.629	0.8824900868732033	draw_card	0.0	columbia_card_task_fmri	2.0	0.9166666666666666	89.0	-25.0	0.0833333333333333	16.0	5.0	1.0	-24.354572150426755	4.629	n/a	stim	s646
399.614	2.923	0.6779446323277483	draw_card	0.0	columbia_card_task_fmri	2.0	0.9090909090909092	89.0	-25.0	0.0909090909090909	16.0	6.0	1.0	-24.058285885962757	2.923	n/a	stim	s646
402.542	2.606	0.4324900868732031	draw_card	0.0	columbia_card_task_fmri	2.0	0.9	89.0	-25.0	0.1	16.0	7.0	1.0	-23.72363617025382	2.606	n/a	stim	s646
405.153	1.908	0.132490086873203	end_round	0.0	columbia_card_task_fmri	2.0	0.8888888888888888	71.0	-25.0	0.1111111111111111	16.0	8.0	1.0	-23.34189994648921	1.908	7.0	stim	s646
407.067	2.25	n/a	-1.0	n/a	columbia_card_task_fmri	n/a	n/a	-1.0	n/a	n/a	n/a	n/a	n/a	n/a	n/a	n/a	feedback	s646
409.317	0.0	n/a	-1.0	n/a	columbia_card_task_fmri	n/a	n/a	-1.0	n/a	n/a	n/a	n/a	n/a	n/a	n/a	n/a	ITI	s646
409.322	2.965	3.632490086873203	draw_card	0.0	columbia_card_task_fmri	9.0	0.9375	89.0	-95.0	0.0625	16.0	1.0	1.0	-6.702569903899768	2.965	n/a	stim	s646
412.289	2.842	3.1991567535398704	draw_card	0.0	columbia_card_task_fmri	9.0	0.9333333333333332	89.0	-95.0	0.0666666666666666	16.0	2.0	1.0	-5.935556544536848	2.842	n/a	stim	s646
415.134	2.627	2.703918658301775	draw_card	0.0	columbia_card_task_fmri	9.0	0.9285714285714286	89.0	-95.0	0.0714285714285714	16.0	3.0	1.0	-5.094395188524757	2.627	n/a	stim	s646
417.766	2.014	2.132490086873203	draw_card	0.0	columbia_card_task_fmri	9.0	0.9230769230769232	89.0	-95.0	0.0769230769230769	16.0	4.0	1.0	-4.166478769964378	2.014	n/a	stim	s646
419.783	2.487	1.465823420206537	draw_card	0.0	columbia_card_task_fmri	9.0	0.9166666666666666	89.0	-95.0	0.0833333333333333	16.0	5.0	1.0	-3.136039370839093	2.487	n/a	stim	s646
422.274	2.519	0.677944632327748	draw_card	0.0	columbia_card_task_fmri	9.0	0.9090909090909092	89.0	-95.0	0.0909090909090909	16.0	6.0	1.0	-1.98308301317174	2.519	n/a	stim	s646
424.797	2.975	-0.2675099131267973	draw_card	0.0	columbia_card_task_fmri	9.0	0.9	89.0	-95.0	0.1	16.0	7.0	1.0	-0.681875103750496	2.975	n/a	stim	s646
427.775	1.115	-1.4230654686823525	end_round	0.0	columbia_card_task_fmri	9.0	0.8888888888888888	71.0	-95.0	0.1111111111111111	16.0	8.0	1.0	0.8012393054206655	1.115	7.0	stim	s646
428.895	2.25	n/a	-1.0	n/a	columbia_card_task_fmri	n/a	n/a	-1.0	n/a	n/a	n/a	n/a	n/a	n/a	n/a	n/a	feedback	s646
431.145	0.0	n/a	-1.0	n/a	columbia_card_task_fmri	n/a	n/a	-1.0	n/a	n/a	n/a	n/a	n/a	n/a	n/a	n/a	ITI	s646
431.149	10.116	5.194990086873203	draw_card	0.0	columbia_card_task_fmri	11.0	0.9375	89.0	-100.0	0.0625	16.0	1.0	1.0	-5.009743810340211	10.116	n/a	stim	s646
441.27	2.768	4.732490086873204	draw_card	0.0	columbia_card_task_fmri	11.0	0.9333333333333332	89.0	-100.0	0.0666666666666666	16.0	2.0	1.0	-4.191006539071147	2.768	n/a	stim	s646
444.041	1.925	4.203918658301776	draw_card	0.0	columbia_card_task_fmri	11.0	0.9285714285714286	89.0	-100.0	0.0714285714285714	16.0	3.0	1.0	-3.2931275147360672	1.925	n/a	stim	s646
445.971	1.778	3.5940285484116656	draw_card	0.0	columbia_card_task_fmri	11.0	0.9230769230769232	89.0	-100.0	0.0769230769230769	16.0	4.0	1.0	-2.302650834279543	1.778	n/a	stim	s646
447.752	2.339	2.882490086873203	draw_card	0.0	columbia_card_task_fmri	11.0	0.9166666666666666	89.0	-100.0	0.0833333333333333	16.0	5.0	1.0	-1.2027469486969693	2.339	n/a	stim	s646
450.095	0.906	2.041580995964112	end_round	0.0	columbia_card_task_fmri	11.0	0.9090909090909092	71.0	-100.0	0.0909090909090909	16.0	6.0	1.0	0.0279242500037497	0.906	5.0	stim	s646
451.007	2.25	n/a	-1.0	n/a	columbia_card_task_fmri	n/a	n/a	-1.0	n/a	n/a	n/a	n/a	n/a	n/a	n/a	n/a	feedback	s646
453.257	0.272	n/a	-1.0	n/a	columbia_card_task_fmri	n/a	n/a	-1.0	n/a	n/a	n/a	n/a	n/a	n/a	n/a	n/a	ITI	s646
453.534	2.049	5.757490086873203	draw_card	0.0	columbia_card_task_fmri	16.0	0.875	89.0	-75.0	0.125	16.0	1.0	2.0	-1.785700349378029	2.049	n/a	stim	s646
455.586	1.812	4.99915675353987	draw_card	1.0	columbia_card_task_fmri	16.0	0.8666666666666667	89.0	-75.0	0.1333333333333333	16.0	2.0	2.0	-0.9476468605922116	1.812	2.0	stim	s646
457.406	2.25	n/a	-1.0	n/a	columbia_card_task_fmri	n/a	n/a	-1.0	n/a	n/a	n/a	n/a	n/a	n/a	n/a	n/a	feedback	s646
459.656	0.204	n/a	-1.0	n/a	columbia_card_task_fmri	n/a	n/a	-1.0	n/a	n/a	n/a	n/a	n/a	n/a	n/a	n/a	ITI	s646
459.864	1.505	6.007490086873203	draw_card	1.0	columbia_card_task_fmri	17.0	0.875	89.0	-80.0	0.125	16.0	1.0	2.0	0.1972964398084897	1.505	1.0	stim	s646
461.375	2.25	n/a	-1.0	n/a	columbia_card_task_fmri	n/a	n/a	-1.0	n/a	n/a	n/a	n/a	n/a	n/a	n/a	n/a	feedback	s646
463.625	0.0	n/a	-1.0	n/a	columbia_card_task_fmri	n/a	n/a	-1.0	n/a	n/a	n/a	n/a	n/a	n/a	n/a	n/a	ITI	s646
474.636	1.993	0.2991567535398709	draw_card	1.0	columbia_card_task_fmri	13.0	0.8333333333333334	89.0	-70.0	0.1666666666666666	6.0	1.0	1.0	-0.9494236972432546	1.993	1.0	stim	s646
476.637	2.25	n/a	-1.0	n/a	columbia_card_task_fmri	n/a	n/a	-1.0	n/a	n/a	n/a	n/a	n/a	n/a	n/a	n/a	feedback	s646
478.887	0.204	n/a	-1.0	n/a	columbia_card_task_fmri	n/a	n/a	-1.0	n/a	n/a	n/a	n/a	n/a	n/a	n/a	n/a	ITI	s646
479.095	1.446	0.2991567535398709	draw_card	0.0	columbia_card_task_fmri	15.0	0.8333333333333334	89.0	-80.0	0.1666666666666666	6.0	1.0	1.0	3.520095876375663	1.446	n/a	stim	s646
480.546	1.664	-2.867509913126797	draw_card	0.0	columbia_card_task_fmri	15.0	0.8	89.0	-80.0	0.2	6.0	2.0	1.0	6.114449934731866	1.664	n/a	stim	s646
482.213	1.636	-7.617509913126797	draw_card	0.0	columbia_card_task_fmri	15.0	0.75	89.0	-80.0	0.25	6.0	3.0	1.0	9.249370830668605	1.636	n/a	stim	s646
483.854	0.836	-15.534176579793462	end_round	0.0	columbia_card_task_fmri	15.0	0.6666666666666667	71.0	-80.0	0.3333333333333333	6.0	4.0	1.0	12.895324711759628	0.836	3.0	stim	s646
484.698	2.25	n/a	-1.0	n/a	columbia_card_task_fmri	n/a	n/a	-1.0	n/a	n/a	n/a	n/a	n/a	n/a	n/a	n/a	feedback	s646
486.948	0.204	n/a	-1.0	n/a	columbia_card_task_fmri	n/a	n/a	-1.0	n/a	n/a	n/a	n/a	n/a	n/a	n/a	n/a	ITI	s646
487.156	1.562	1.965823420206537	draw_card	0.0	columbia_card_task_fmri	16.0	0.8333333333333334	89.0	-75.0	0.1666666666666666	6.0	1.0	1.0	2.030179413200095	1.562	n/a	stim	s646
488.723	3.42	-1.0675099131267962	draw_card	0.0	columbia_card_task_fmri	16.0	0.8	89.0	-75.0	0.2	6.0	2.0	1.0	4.515191196756796	3.42	n/a	stim	s646
492.147	5.364	-5.617509913126797	draw_card	0.0	columbia_card_task_fmri	16.0	0.75	89.0	-75.0	0.25	6.0	3.0	1.0	7.518004841459245	5.364	n/a	stim	s646
497.516	0.499	-13.20084324646013	end_round	0.0	columbia_card_task_fmri	16.0	0.6666666666666667	71.0	-75.0	0.3333333333333333	6.0	4.0	1.0	11.010335732751898	0.499	3.0	stim	s646
498.022	2.25	n/a	-1.0	n/a	columbia_card_task_fmri	n/a	n/a	-1.0	n/a	n/a	n/a	n/a	n/a	n/a	n/a	n/a	feedback	s646
500.272	0.272	n/a	-1.0	n/a	columbia_card_task_fmri	n/a	n/a	-1.0	n/a	n/a	n/a	n/a	n/a	n/a	n/a	n/a	ITI	s646
500.55	1.038	3.132490086873203	draw_card	1.0	columbia_card_task_fmri	21.0	0.75	89.0	-55.0	0.25	8.0	1.0	2.0	1.0260238987254624	1.038	1.0	stim	s646
501.596	2.25	n/a	-1.0	n/a	columbia_card_task_fmri	n/a	n/a	-1.0	n/a	n/a	n/a	n/a	n/a	n/a	n/a	n/a	feedback	s646
503.846	0.204	n/a	-1.0	n/a	columbia_card_task_fmri	n/a	n/a	-1.0	n/a	n/a	n/a	n/a	n/a	n/a	n/a	n/a	ITI	s646
504.055	2.087	4.382490086873203	draw_card	1.0	columbia_card_task_fmri	26.0	0.75	89.0	-65.0	0.25	8.0	1.0	2.0	7.518004841459245	2.087	1.0	stim	s646
506.149	2.25	n/a	-1.0	n/a	columbia_card_task_fmri	n/a	n/a	-1.0	n/a	n/a	n/a	n/a	n/a	n/a	n/a	n/a	feedback	s646
508.399	0.408	n/a	-1.0	n/a	columbia_card_task_fmri	n/a	n/a	-1.0	n/a	n/a	n/a	n/a	n/a	n/a	n/a	n/a	ITI	s646
508.812	0.846	-0.534176579793463	draw_card	1.0	columbia_card_task_fmri	15.0	0.7777777777777778	89.0	-60.0	0.2222222222222222	9.0	1.0	2.0	-0.7013840250551837	0.846	1.0	stim	s646
509.668	2.25	n/a	-1.0	n/a	columbia_card_task_fmri	n/a	n/a	-1.0	n/a	n/a	n/a	n/a	n/a	n/a	n/a	n/a	feedback	s646
511.918	0.136	n/a	-1.0	n/a	columbia_card_task_fmri	n/a	n/a	-1.0	n/a	n/a	n/a	n/a	n/a	n/a	n/a	n/a	ITI	s646
512.058	2.99	3.832490086873204	draw_card	0.0	columbia_card_task_fmri	13.0	0.9	89.0	-90.0	0.1	10.0	1.0	1.0	-0.9816757548053944	2.99	n/a	stim	s646
515.052	2.608	2.6880456424287584	draw_card	0.0	columbia_card_task_fmri	13.0	0.8888888888888888	89.0	-90.0	0.1111111111111111	10.0	2.0	1.0	0.4871599390633889	2.608	n/a	stim	s646
517.665	3.633	1.257490086873203	draw_card	0.0	columbia_card_task_fmri	13.0	0.875	89.0	-90.0	0.125	10.0	3.0	1.0	2.180446495022423	3.633	n/a	stim	s646
521.302	3.668	-0.5817956274125087	draw_card	0.0	columbia_card_task_fmri	13.0	0.8571428571428572	89.0	-90.0	0.1428571428571428	10.0	4.0	1.0	4.157857744756505	3.668	n/a	stim	s646
524.974	0.866	-3.034176579793463	end_round	0.0	columbia_card_task_fmri	13.0	0.8333333333333334	71.0	-90.0	0.1666666666666666	10.0	5.0	1.0	6.500114037424176	0.866	4.0	stim	s646
525.847	2.25	n/a	-1.0	n/a	columbia_card_task_fmri	n/a	n/a	-1.0	n/a	n/a	n/a	n/a	n/a	n/a	n/a	n/a	feedback	s646
528.097	0.272	n/a	-1.0	n/a	columbia_card_task_fmri	n/a	n/a	-1.0	n/a	n/a	n/a	n/a	n/a	n/a	n/a	n/a	ITI	s646
528.375	3.723	5.132490086873203	draw_card	0.0	columbia_card_task_fmri	15.0	0.9	89.0	-95.0	0.1	10.0	1.0	1.0	1.1170048476625638	3.723	n/a	stim	s646
532.102	3.737	3.91026786465098	draw_card	0.0	columbia_card_task_fmri	15.0	0.8888888888888888	89.0	-95.0	0.1111111111111111	10.0	2.0	1.0	2.6857881080997856	3.737	n/a	stim	s646
535.843	2.859	2.382490086873203	draw_card	0.0	columbia_card_task_fmri	15.0	0.875	89.0	-95.0	0.125	10.0	3.0	1.0	4.494281847172026	2.859	n/a	stim	s646
538.706	2.953	0.4182043725874895	draw_card	0.0	columbia_card_task_fmri	15.0	0.8571428571428572	89.0	-95.0	0.1428571428571428	10.0	4.0	1.0	6.6062160568650725	2.953	n/a	stim	s646
541.664	3.47	-2.200843246460129	draw_card	0.0	columbia_card_task_fmri	15.0	0.8333333333333334	89.0	-95.0	0.1666666666666666	10.0	5.0	1.0	9.107797563751989	3.47	n/a	stim	s646
545.138	0.574	-5.867509913126797	end_round	0.0	columbia_card_task_fmri	15.0	0.8	71.0	-95.0	0.2	10.0	6.0	1.0	12.11215007024238	0.574	5.0	stim	s646
545.72	2.25	n/a	-1.0	n/a	columbia_card_task_fmri	n/a	n/a	-1.0	n/a	n/a	n/a	n/a	n/a	n/a	n/a	n/a	feedback	s646
547.97	0.34	n/a	-1.0	n/a	columbia_card_task_fmri	n/a	n/a	-1.0	n/a	n/a	n/a	n/a	n/a	n/a	n/a	n/a	ITI	s646
548.315	2.309	0.9324900868732038	draw_card	1.0	columbia_card_task_fmri	16.0	0.8	89.0	-65.0	0.2	10.0	1.0	2.0	0.5173643821729144	2.309	1.0	stim	s646
550.634	2.25	n/a	-1.0	n/a	columbia_card_task_fmri	n/a	n/a	-1.0	n/a	n/a	n/a	n/a	n/a	n/a	n/a	n/a	feedback	s646
552.884	0.136	n/a	-1.0	n/a	columbia_card_task_fmri	n/a	n/a	-1.0	n/a	n/a	n/a	n/a	n/a	n/a	n/a	n/a	ITI	s646
553.025	1.954	-0.3675099131267969	draw_card	0.0	columbia_card_task_fmri	7.0	0.9166666666666666	89.0	-95.0	0.0833333333333333	12.0	1.0	1.0	-3.6883732461445256	1.954	n/a	stim	s646
554.984	1.796	-1.1402371858540703	draw_card	0.0	columbia_card_task_fmri	7.0	0.9090909090909092	89.0	-95.0	0.0909090909090909	12.0	2.0	1.0	-2.5576224886506544	1.796	n/a	stim	s646
556.784	2.881	-2.067509913126797	draw_card	0.0	columbia_card_task_fmri	7.0	0.9	89.0	-95.0	0.1	12.0	3.0	1.0	-1.281472501029203	2.881	n/a	stim	s646
559.67	2.081	-3.200843246460131	draw_card	0.0	columbia_card_task_fmri	7.0	0.8888888888888888	89.0	-95.0	0.1111111111111111	12.0	4.0	1.0	0.1730843009009035	2.081	n/a	stim	s646
561.755	1.67	-4.617509913126797	draw_card	0.0	columbia_card_task_fmri	7.0	0.875	89.0	-95.0	0.125	12.0	5.0	1.0	1.8499119888268891	1.67	n/a	stim	s646
563.43	2.17	-6.4389384845553685	draw_card	0.0	columbia_card_task_fmri	7.0	0.8571428571428572	89.0	-95.0	0.1428571428571428	12.0	6.0	1.0	3.808104939392052	2.17	n/a	stim	s646
565.605	0.742	-8.867509913126796	end_round	0.0	columbia_card_task_fmri	7.0	0.8333333333333334	71.0	-95.0	0.1666666666666666	12.0	7.0	1.0	6.127599715849655	0.742	6.0	stim	s646
566.354	2.25	n/a	-1.0	n/a	columbia_card_task_fmri	n/a	n/a	-1.0	n/a	n/a	n/a	n/a	n/a	n/a	n/a	n/a	feedback	s646
568.604	0.34	n/a	-1.0	n/a	columbia_card_task_fmri	n/a	n/a	-1.0	n/a	n/a	n/a	n/a	n/a	n/a	n/a	n/a	ITI	s646
568.949	2.454	0.2991567535398709	draw_card	0.0	columbia_card_task_fmri	14.0	0.8333333333333334	89.0	-75.0	0.1666666666666666	12.0	1.0	2.0	1.2852479741977376	2.454	n/a	stim	s646
571.406	1.636	-1.0493280949449804	draw_card	0.0	columbia_card_task_fmri	14.0	0.8181818181818181	89.0	-75.0	0.1818181818181818	12.0	2.0	2.0	2.4430744803987	1.636	n/a	stim	s646
573.046	3.274	-2.667509913126796	draw_card	0.0	columbia_card_task_fmri	14.0	0.8	89.0	-75.0	0.2	12.0	3.0	2.0	3.715586795720213	3.274	n/a	stim	s646
576.324	1.792	-4.645287690904572	draw_card	1.0	columbia_card_task_fmri	14.0	0.7777777777777778	89.0	-75.0	0.2222222222222222	12.0	4.0	2.0	5.115739483608273	1.792	4.0	stim	s646
578.124	2.25	n/a	-1.0	n/a	columbia_card_task_fmri	n/a	n/a	-1.0	n/a	n/a	n/a	n/a	n/a	n/a	n/a	n/a	feedback	s646
580.374	0.068	n/a	-1.0	n/a	columbia_card_task_fmri	n/a	n/a	-1.0	n/a	n/a	n/a	n/a	n/a	n/a	n/a	n/a	ITI	s646
580.448	1.803	1.965823420206537	draw_card	1.0	columbia_card_task_fmri	15.0	0.8333333333333334	89.0	-70.0	0.1666666666666666	12.0	1.0	2.0	-0.2045550221110659	1.803	1.0	stim	s646
582.261	2.25	n/a	-1.0	n/a	columbia_card_task_fmri	n/a	n/a	-1.0	n/a	n/a	n/a	n/a	n/a	n/a	n/a	n/a	feedback	s646
584.511	0.0	n/a	-1.0	n/a	columbia_card_task_fmri	n/a	n/a	-1.0	n/a	n/a	n/a	n/a	n/a	n/a	n/a	n/a	ITI	s646
584.516	1.717	-0.0675099131267962	draw_card	0.0	columbia_card_task_fmri	16.0	0.8	89.0	-70.0	0.2	15.0	1.0	3.0	2.516214666886299	1.717	n/a	stim	s646
586.237	2.074	-1.2960813416982258	draw_card	0.0	columbia_card_task_fmri	16.0	0.7857142857142857	89.0	-70.0	0.2142857142857142	15.0	2.0	3.0	3.403773609047576	2.074	n/a	stim	s646
588.316	3.005	-2.713663759280644	draw_card	0.0	columbia_card_task_fmri	16.0	0.7692307692307692	89.0	-70.0	0.2307692307692307	15.0	3.0	3.0	4.349225675029238	3.005	n/a	stim	s646
591.326	2.229	-4.367509913126797	draw_card	1.0	columbia_card_task_fmri	16.0	0.75	89.0	-70.0	0.25	15.0	4.0	3.0	5.353886879753482	2.229	4.0	stim	s646
593.564	2.25	n/a	-1.0	n/a	columbia_card_task_fmri	n/a	n/a	-1.0	n/a	n/a	n/a	n/a	n/a	n/a	n/a	n/a	feedback	s646
595.814	0.204	n/a	-1.0	n/a	columbia_card_task_fmri	n/a	n/a	-1.0	n/a	n/a	n/a	n/a	n/a	n/a	n/a	n/a	ITI	s646
596.025	0.524	0.3199900868732031	draw_card	0.0	columbia_card_task_fmri	14.0	0.8125	89.0	-65.0	0.1875	16.0	1.0	3.0	-1.0469542174663502	0.524	n/a	stim	s646
596.554	1.126	-0.6675099131267959	draw_card	0.0	columbia_card_task_fmri	14.0	0.8	89.0	-65.0	0.2	16.0	2.0	3.0	-0.2821350201324435	1.126	n/a	stim	s646
597.684	1.464	-1.796081341698224	draw_card	1.0	columbia_card_task_fmri	14.0	0.7857142857142857	89.0	-65.0	0.2142857142857142	16.0	3.0	3.0	0.5331011392686804	1.464	3.0	stim	s646
599.156	2.25	n/a	-1.0	n/a	columbia_card_task_fmri	n/a	n/a	-1.0	n/a	n/a	n/a	n/a	n/a	n/a	n/a	n/a	feedback	s646
601.406	1.02	n/a	-1.0	n/a	columbia_card_task_fmri	n/a	n/a	-1.0	n/a	n/a	n/a	n/a	n/a	n/a	n/a	n/a	ITI	s646
602.431	5.896	0.069990086873203	draw_card	1.0	columbia_card_task_fmri	16.0	0.8125	89.0	-75.0	0.1875	16.0	1.0	3.0	3.6340542502362174	5.896	1.0	stim	s646
608.336	2.25	n/a	-1.0	n/a	columbia_card_task_fmri	n/a	n/a	-1.0	n/a	n/a	n/a	n/a	n/a	n/a	n/a	n/a	feedback	s646
610.586	0.0	n/a	-1.0	n/a	columbia_card_task_fmri	n/a	n/a	-1.0	n/a	n/a	n/a	n/a	n/a	n/a	n/a	n/a	ITI	s646
610.591	3.925	4.332490086873204	draw_card	0.0	columbia_card_task_fmri	16.0	0.8666666666666667	89.0	-80.0	0.1333333333333333	15.0	1.0	2.0	0.7509476450417836	3.925	n/a	stim	s646
614.521	3.082	3.4182043725874918	draw_card	0.0	columbia_card_task_fmri	16.0	0.8571428571428572	89.0	-80.0	0.1428571428571428	15.0	2.0	2.0	1.7096643015914808	3.082	n/a	stim	s646
617.608	2.358	2.363259317642433	draw_card	0.0	columbia_card_task_fmri	16.0	0.8461538461538461	89.0	-80.0	0.1538461538461538	15.0	3.0	2.0	2.7530036423148303	2.358	n/a	stim	s646
619.972	5.418	1.1324900868732048	draw_card	1.0	columbia_card_task_fmri	16.0	0.8333333333333334	89.0	-80.0	0.1666666666666666	15.0	4.0	2.0	3.892585342580105	5.418	4.0	stim	s646
625.398	2.25	n/a	-1.0	n/a	columbia_card_task_fmri	n/a	n/a	-1.0	n/a	n/a	n/a	n/a	n/a	n/a	n/a	n/a	feedback	s646
627.648	0.0	n/a	-1.0	n/a	columbia_card_task_fmri	n/a	n/a	-1.0	n/a	n/a	n/a	n/a	n/a	n/a	n/a	n/a	ITI	s646
627.654	0.972	5.199156753539871	draw_card	0.0	columbia_card_task_fmri	17.0	0.8666666666666667	89.0	-80.0	0.1333333333333333	15.0	1.0	2.0	1.0906798783921443	0.972	n/a	stim	s646
628.63	2.342	4.2753472297303485	draw_card	0.0	columbia_card_task_fmri	17.0	0.8571428571428572	89.0	-80.0	0.1428571428571428	15.0	2.0	2.0	2.05939477666216	2.342	n/a	stim	s646
630.978	1.62	3.20941316379628	draw_card	1.0	columbia_card_task_fmri	17.0	0.8461538461538461	89.0	-80.0	0.1538461538461538	15.0	3.0	2.0	3.1136141402440813	1.62	3.0	stim	s646
632.608	2.25	n/a	-1.0	n/a	columbia_card_task_fmri	n/a	n/a	-1.0	n/a	n/a	n/a	n/a	n/a	n/a	n/a	n/a	feedback	s646
634.858	0.068	n/a	-1.0	n/a	columbia_card_task_fmri	n/a	n/a	-1.0	n/a	n/a	n/a	n/a	n/a	n/a	n/a	n/a	ITI	s646
634.931	1.362	1.132490086873203	draw_card	0.0	columbia_card_task_fmri	1.0	0.9375	89.0	-15.0	0.0625	16.0	1.0	1.0	-27.867259587243808	1.362	n/a	stim	s646
636.297	1.831	1.0658234202065364	draw_card	0.0	columbia_card_task_fmri	1.0	0.9333333333333332	89.0	-15.0	0.0666666666666666	16.0	2.0	1.0	-27.753756595358876	1.831	n/a	stim	s646
638.134	1.848	0.9896329440160604	draw_card	0.0	columbia_card_task_fmri	1.0	0.9285714285714286	89.0	-15.0	0.0714285714285714	16.0	3.0	1.0	-27.6290009294444	1.848	n/a	stim	s646
639.986	1.709	0.9017208561039722	draw_card	0.0	columbia_card_task_fmri	1.0	0.9230769230769232	89.0	-15.0	0.0769230769230769	16.0	4.0	1.0	-27.49106725713513	1.709	n/a	stim	s646
641.701	0.709	0.7991567535398697	end_round	0.0	columbia_card_task_fmri	1.0	0.9166666666666666	71.0	-15.0	0.0833333333333333	16.0	5.0	1.0	-27.33754615258017	0.709	4.0	stim	s646
642.419	2.25	n/a	-1.0	n/a	columbia_card_task_fmri	n/a	n/a	-1.0	n/a	n/a	n/a	n/a	n/a	n/a	n/a	n/a	feedback	s646
644.669	0.476	n/a	-1.0	n/a	columbia_card_task_fmri	n/a	n/a	-1.0	n/a	n/a	n/a	n/a	n/a	n/a	n/a	n/a	ITI	s646
645.15	1.905	4.257490086873203	draw_card	0.0	columbia_card_task_fmri	10.0	0.9375	89.0	-100.0	0.0625	16.0	1.0	1.0	-5.25158859185494	1.905	n/a	stim	s646
647.06	1.919	3.79915675353987	draw_card	0.0	columbia_card_task_fmri	10.0	0.9333333333333332	89.0	-100.0	0.0666666666666666	16.0	2.0	1.0	-4.440240083413084	1.919	n/a	stim	s646
648.983	2.03	3.275347229730347	draw_card	0.0	columbia_card_task_fmri	10.0	0.9285714285714286	89.0	-100.0	0.0714285714285714	16.0	3.0	1.0	-3.5504632042122037	2.03	n/a	stim	s646
651.018	1.824	2.6709516253347423	draw_card	0.0	columbia_card_task_fmri	10.0	0.9230769230769232	89.0	-100.0	0.0769230769230769	16.0	4.0	1.0	-2.568923312572668	1.824	n/a	stim	s646
652.847	1.828	1.965823420206537	draw_card	0.0	columbia_card_task_fmri	10.0	0.9166666666666666	89.0	-100.0	0.0833333333333333	16.0	5.0	1.0	-1.4789425198177175	1.828	n/a	stim	s646
654.681	0.989	1.1324900868732013	end_round	0.0	columbia_card_task_fmri	10.0	0.9090909090909092	71.0	-100.0	0.0909090909090909	16.0	6.0	1.0	-0.259373020802343	0.989	5.0	stim	s646
655.681	2.25	n/a	-1.0	n/a	columbia_card_task_fmri	n/a	n/a	-1.0	n/a	n/a	n/a	n/a	n/a	n/a	n/a	n/a	feedback	s646
657.931	0.136	n/a	-1.0	n/a	columbia_card_task_fmri	n/a	n/a	-1.0	n/a	n/a	n/a	n/a	n/a	n/a	n/a	n/a	ITI	s646
658.074	0.521	4.882490086873203	draw_card	1.0	columbia_card_task_fmri	15.0	0.875	89.0	-75.0	0.125	16.0	1.0	2.0	-2.1161827639803974	0.521	1.0	stim	s646
658.602	2.25	n/a	-1.0	n/a	columbia_card_task_fmri	n/a	n/a	-1.0	n/a	n/a	n/a	n/a	n/a	n/a	n/a	n/a	feedback	s646
660.852	0.068	n/a	-1.0	n/a	columbia_card_task_fmri	n/a	n/a	-1.0	n/a	n/a	n/a	n/a	n/a	n/a	n/a	n/a	ITI	s646
660.926	0.149	5.132490086873203	draw_card	0.0	columbia_card_task_fmri	16.0	0.875	89.0	-80.0	0.125	16.0	1.0	2.0	-0.1332144436362554	0.149	n/a	stim	s646
661.08	1.854	4.332490086873204	draw_card	0.0	columbia_card_task_fmri	16.0	0.8666666666666667	89.0	-80.0	0.1333333333333333	16.0	2.0	2.0	0.7509476450417836	1.854	n/a	stim	s646
662.941	1.711	3.4182043725874918	draw_card	0.0	columbia_card_task_fmri	16.0	0.8571428571428572	89.0	-80.0	0.1428571428571428	16.0	3.0	2.0	1.7096643015914808	1.711	n/a	stim	s646
664.657	1.944	2.363259317642433	draw_card	0.0	columbia_card_task_fmri	16.0	0.8461538461538461	89.0	-80.0	0.1538461538461538	16.0	4.0	2.0	2.7530036423148303	1.944	n/a	stim	s646
666.607	2.216	1.1324900868732048	draw_card	0.0	columbia_card_task_fmri	16.0	0.8333333333333334	89.0	-80.0	0.1666666666666666	16.0	5.0	2.0	3.892585342580105	2.216	n/a	stim	s646
668.829	2.252	-0.3220553676722537	draw_card	0.0	columbia_card_task_fmri	16.0	0.8181818181818181	89.0	-80.0	0.1818181818181818	16.0	6.0	2.0	5.141575595496839	2.252	n/a	stim	s646
671.086	1.174	-2.067509913126796	end_round	0.0	columbia_card_task_fmri	16.0	0.8	71.0	-80.0	0.2	16.0	7.0	2.0	6.514274264646566	1.174	6.0	stim	s646
672.27	2.25	n/a	-1.0	n/a	columbia_card_task_fmri	n/a	n/a	-1.0	n/a	n/a	n/a	n/a	n/a	n/a	n/a	n/a	feedback	s646
674.52	0.0	n/a	-1.0	n/a	columbia_card_task_fmri	n/a	n/a	-1.0	n/a	n/a	n/a	n/a	n/a	n/a	n/a	n/a	ITI	s646
674.526	2.316	2.319990086873203	draw_card	0.0	columbia_card_task_fmri	4.0	0.6875	89.0	-5.0	0.3125	16.0	1.0	5.0	-27.579820979468924	2.316	n/a	stim	s646
676.848	3.17	2.1324900868732035	draw_card	1.0	columbia_card_task_fmri	4.0	0.6666666666666667	89.0	-5.0	0.3333333333333333	16.0	2.0	5.0	-27.511233565760453	3.17	2.0	stim	s646
680.029	2.25	n/a	-1.0	n/a	columbia_card_task_fmri	n/a	n/a	-1.0	n/a	n/a	n/a	n/a	n/a	n/a	n/a	n/a	feedback	s646
682.279	0.0	n/a	-1.0	n/a	columbia_card_task_fmri	n/a	n/a	-1.0	n/a	n/a	n/a	n/a	n/a	n/a	n/a	n/a	ITI	s646
