onset	duration	SS_delay	correct_response	experiment_exp_id	key_press	response_time	stopped	trial_type	worker_id
3.022	0.85	0.3	71.0	stop_signal	-1.0	n/a	True	stop_success	s646
6.093	0.85	0.35	89.0	stop_signal	89.0	0.817	False	stop_failure	s646
8.346	0.85	0.3	71.0	stop_signal	71.0	0.665	False	go	s646
10.736	0.85	0.3	89.0	stop_signal	-1.0	n/a	True	stop_success	s646
13.124	0.85	0.35	71.0	stop_signal	71.0	0.657	False	go	s646
15.652	0.85	0.35	71.0	stop_signal	71.0	0.557	False	go	s646
18.042	0.85	0.35	71.0	stop_signal	71.0	0.689	False	go	s646
20.433	0.85	0.35	89.0	stop_signal	89.0	0.632	False	stop_failure	s646
23.234	0.85	0.3	89.0	stop_signal	89.0	0.734	False	go	s646
25.623	0.85	0.3	89.0	stop_signal	-1.0	n/a	True	stop_success	s646
27.879	0.85	0.35	71.0	stop_signal	71.0	0.687	False	stop_failure	s646
30.405	0.85	0.3	71.0	stop_signal	-1.0	n/a	True	stop_success	s646
32.793	0.85	0.35	71.0	stop_signal	71.0	0.673	False	go	s646
35.185	0.85	0.35	89.0	stop_signal	-1.0	n/a	True	stop_success	s646
37.439	0.85	0.4	71.0	stop_signal	71.0	0.683	False	go	s646
39.831	0.85	0.4	71.0	stop_signal	71.0	0.748	False	go	s646
42.089	0.85	0.4	89.0	stop_signal	-1.0	n/a	True	stop_success	s646
44.343	0.85	0.45	89.0	stop_signal	71.0	0.604	False	go	s646
46.595	0.85	0.45	89.0	stop_signal	89.0	0.698	False	go	s646
48.987	0.85	0.45	71.0	stop_signal	71.0	0.603	False	stop_failure	s646
51.244	0.85	0.4	71.0	stop_signal	-1.0	n/a	True	stop_success	s646
53.497	0.85	0.45	89.0	stop_signal	89.0	0.491	False	stop_failure	s646
55.886	0.85	0.4	89.0	stop_signal	-1.0	n/a	True	stop_success	s646
58.275	0.85	0.45	71.0	stop_signal	71.0	0.557	False	go	s646
60.528	0.85	0.45	71.0	stop_signal	71.0	0.602	False	stop_failure	s646
63.052	0.85	0.4	89.0	stop_signal	-1.0	n/a	True	go	s646
65.304	0.85	0.4	71.0	stop_signal	89.0	0.722	False	go	s646
67.696	0.85	0.4	71.0	stop_signal	89.0	0.599	False	go	s646
69.952	0.85	0.4	89.0	stop_signal	71.0	0.609	False	stop_failure	s646
72.205	0.85	0.35	89.0	stop_signal	71.0	0.634	False	go	s646
74.597	0.85	0.35	89.0	stop_signal	71.0	0.776	False	go	s646
77.122	0.85	0.35	71.0	stop_signal	-1.0	n/a	True	go	s646
79.515	0.85	0.35	71.0	stop_signal	71.0	0.582	False	go	s646
82.04	0.85	0.35	89.0	stop_signal	-1.0	n/a	True	stop_success	s646
84.975	0.85	0.4	71.0	stop_signal	89.0	1.044	False	go	s646
87.503	0.85	0.4	71.0	stop_signal	71.0	0.657	False	go	s646
90.031	0.85	0.4	89.0	stop_signal	71.0	0.57	False	go	s646
92.288	0.85	0.4	89.0	stop_signal	71.0	0.553	False	stop_failure	s646
94.813	0.85	0.35	89.0	stop_signal	71.0	0.662	False	go	s646
97.205	0.85	0.35	71.0	stop_signal	71.0	0.787	False	go	s646
99.457	0.85	0.35	71.0	stop_signal	71.0	1.282	False	go	s646
112.362	0.85	0.35	71.0	stop_signal	71.0	0.773	False	go	s646
114.614	0.85	0.35	89.0	stop_signal	-1.0	n/a	True	stop_success	s646
117.006	0.85	0.4	71.0	stop_signal	71.0	0.618	False	go	s646
119.535	0.85	0.4	71.0	stop_signal	71.0	0.567	False	stop_failure	s646
121.788	0.85	0.35	89.0	stop_signal	-1.0	n/a	True	stop_success	s646
124.176	0.85	0.4	71.0	stop_signal	89.0	0.712	False	go	s646
126.841	0.85	0.4	89.0	stop_signal	-1.0	n/a	True	stop_success	s646
129.094	0.85	0.45	71.0	stop_signal	71.0	0.657	False	go	s646
132.3	0.85	0.45	89.0	stop_signal	71.0	0.752	False	go	s646
134.689	0.85	0.45	89.0	stop_signal	89.0	0.899	False	go	s646
137.08	0.85	0.45	89.0	stop_signal	89.0	0.534	False	stop_failure	s646
139.609	0.85	0.4	89.0	stop_signal	89.0	0.544	False	go	s646
141.87	0.85	0.4	71.0	stop_signal	71.0	0.671	False	stop_failure	s646
144.126	0.85	0.35	71.0	stop_signal	89.0	0.595	False	stop_failure	s646
146.379	0.85	0.3	89.0	stop_signal	71.0	0.786	False	go	s646
149.315	0.85	0.3	89.0	stop_signal	89.0	0.921	False	go	s646
151.839	0.85	0.3	71.0	stop_signal	71.0	0.788	False	go	s646
154.365	0.85	0.3	89.0	stop_signal	89.0	0.712	False	go	s646
156.617	0.85	0.3	71.0	stop_signal	-1.0	n/a	True	stop_success	s646
159.144	0.85	0.35	71.0	stop_signal	-1.0	n/a	True	stop_success	s646
161.397	0.85	0.4	89.0	stop_signal	71.0	0.613	False	go	s646
163.789	0.85	0.4	89.0	stop_signal	-1.0	n/a	True	stop_success	s646
166.043	0.85	0.45	89.0	stop_signal	89.0	0.604	False	go	s646
168.703	0.85	0.45	71.0	stop_signal	71.0	0.697	False	go	s646
171.367	0.85	0.45	89.0	stop_signal	71.0	0.704	False	go	s646
173.623	0.85	0.45	89.0	stop_signal	89.0	0.549	False	go	s646
175.877	0.85	0.45	89.0	stop_signal	89.0	0.74	False	go	s646
178.269	0.85	0.45	89.0	stop_signal	89.0	0.761	False	stop_failure	s646
181.066	0.85	0.4	71.0	stop_signal	-1.0	n/a	True	stop_success	s646
183.458	0.85	0.45	89.0	stop_signal	-1.0	n/a	True	stop_success	s646
185.714	0.85	0.5	89.0	stop_signal	89.0	0.6	False	stop_failure	s646
187.97	0.85	0.45	89.0	stop_signal	-1.0	n/a	True	stop_success	s646
190.223	0.85	0.5	71.0	stop_signal	71.0	0.837	False	go	s646
192.884	0.85	0.5	89.0	stop_signal	89.0	0.733	False	go	s646
195.548	0.85	0.5	71.0	stop_signal	71.0	0.678	False	go	s646
197.804	0.85	0.5	89.0	stop_signal	89.0	0.684	False	go	s646
200.331	0.85	0.5	71.0	stop_signal	71.0	0.836	False	go	s646
202.588	0.85	0.5	71.0	stop_signal	89.0	0.721	False	stop_failure	s646
205.115	0.85	0.45	71.0	stop_signal	71.0	0.516	False	go	s646
207.644	0.85	0.45	89.0	stop_signal	89.0	0.555	False	stop_failure	s646
210.169	0.85	0.4	89.0	stop_signal	-1.0	n/a	True	stop_success	s646
212.561	0.85	0.45	71.0	stop_signal	-1.0	n/a	True	stop_success	s646
225.606	0.85	0.5	89.0	stop_signal	-1.0	n/a	True	go	s646
228.131	0.85	0.5	71.0	stop_signal	-1.0	n/a	True	go	s646
230.523	0.85	0.5	89.0	stop_signal	-1.0	n/a	True	go	s646
232.776	0.85	0.5	89.0	stop_signal	71.0	0.674	False	go	s646
235.301	0.85	0.5	89.0	stop_signal	89.0	0.624	False	go	s646
238.102	0.85	0.5	71.0	stop_signal	71.0	0.868	False	stop_failure	s646
240.626	0.85	0.45	71.0	stop_signal	-1.0	n/a	True	stop_success	s646
243.019	0.85	0.5	89.0	stop_signal	89.0	0.653	False	go	s646
245.271	0.85	0.5	71.0	stop_signal	71.0	0.69	False	stop_failure	s646
247.525	0.85	0.45	71.0	stop_signal	-1.0	n/a	True	stop_success	s646
249.781	0.85	0.5	71.0	stop_signal	-1.0	n/a	True	stop_success	s646
252.037	0.85	0.55	89.0	stop_signal	89.0	0.69	False	go	s646
254.565	0.85	0.55	71.0	stop_signal	71.0	0.766	False	go	s646
256.821	0.85	0.55	89.0	stop_signal	89.0	0.695	False	stop_failure	s646
259.077	0.85	0.5	71.0	stop_signal	71.0	0.822	False	go	s646
261.332	0.85	0.5	89.0	stop_signal	71.0	0.873	False	go	s646
263.586	0.85	0.5	71.0	stop_signal	71.0	0.767	False	go	s646
265.978	0.85	0.5	71.0	stop_signal	71.0	0.753	False	go	s646
268.234	0.85	0.5	71.0	stop_signal	89.0	0.71	False	stop_failure	s646
270.49	0.85	0.45	71.0	stop_signal	71.0	0.863	False	go	s646
272.746	0.85	0.45	71.0	stop_signal	71.0	0.68	False	stop_failure	s646
275.002	0.85	0.4	71.0	stop_signal	71.0	0.682	False	stop_failure	s646
277.527	0.85	0.35	89.0	stop_signal	89.0	0.591	False	go	s646
279.918	0.85	0.35	89.0	stop_signal	89.0	0.852	False	go	s646
282.447	0.85	0.35	71.0	stop_signal	-1.0	n/a	True	stop_success	s646
284.7	0.85	0.4	71.0	stop_signal	71.0	0.716	False	go	s646
287.089	0.85	0.4	71.0	stop_signal	71.0	0.772	False	go	s646
289.48	0.85	0.4	89.0	stop_signal	71.0	0.883	False	go	s646
291.734	0.85	0.4	89.0	stop_signal	89.0	0.603	False	go	s646
294.124	0.85	0.4	71.0	stop_signal	71.0	0.685	False	go	s646
296.513	0.85	0.4	89.0	stop_signal	-1.0	n/a	True	stop_success	s646
298.902	0.85	0.45	71.0	stop_signal	71.0	0.805	False	go	s646
301.566	0.85	0.45	89.0	stop_signal	89.0	0.725	False	go	s646
304.094	0.85	0.45	89.0	stop_signal	89.0	0.753	False	stop_failure	s646
306.348	0.85	0.4	71.0	stop_signal	71.0	0.696	False	stop_failure	s646
309.283	0.85	0.35	71.0	stop_signal	71.0	0.92	False	go	s646
311.539	0.85	0.35	89.0	stop_signal	89.0	1.036	False	go	s646
314.067	0.85	0.35	89.0	stop_signal	-1.0	n/a	True	stop_success	s646
316.323	0.85	0.4	71.0	stop_signal	89.0	0.738	False	go	s646
318.579	0.85	0.4	89.0	stop_signal	89.0	0.622	False	go	s646
320.835	0.85	0.4	89.0	stop_signal	89.0	0.963	False	go	s646
323.091	0.85	0.4	89.0	stop_signal	71.0	0.758	False	go	s646
