onset	duration	planning	condition	current_position	exp_stage	experiment_exp_id	goal_state	key_press	problem_id	response_time	start_state	trial_id	worker_id
-53.823	0.0	0	n/a	n/a	n/a	ward_and_allport	n/a	32.0	n/a	19.007	n/a	instructions	s594
3.013	3.392	1	UA_with_intermediate	1,0,0,2,0,0,0,0,0	practice	ward_and_allport	1,2,3,0,0,0,0,0,0	71.0	0.0	3.392	1,0,0,2,3,0,0,0,0	to_hand	s594
6.407	0.72	0	UA_with_intermediate	1,0,0,2,0,0,3,0,0	practice	ward_and_allport	1,2,3,0,0,0,0,0,0	82.0	0.0	0.72	1,0,0,2,3,0,0,0,0	to_board	s594
7.13	0.523	0	UA_with_intermediate	1,0,0,0,0,0,3,0,0	practice	ward_and_allport	1,2,3,0,0,0,0,0,0	71.0	0.0	0.523	1,0,0,2,3,0,0,0,0	to_hand	s594
7.654	0.346	0	UA_with_intermediate	1,2,0,0,0,0,3,0,0	practice	ward_and_allport	1,2,3,0,0,0,0,0,0	89.0	0.0	0.346	1,0,0,2,3,0,0,0,0	to_board	s594
8.002	0.523	0	UA_with_intermediate	1,2,0,0,0,0,0,0,0	practice	ward_and_allport	1,2,3,0,0,0,0,0,0	82.0	0.0	0.523	1,0,0,2,3,0,0,0,0	to_hand	s594
8.526	0.312	0	UA_with_intermediate	1,2,3,0,0,0,0,0,0	practice	ward_and_allport	1,2,3,0,0,0,0,0,0	89.0	0.0	0.312	1,0,0,2,3,0,0,0,0	to_board	s594
8.843	1.0	0	UA_with_intermediate	n/a	practice	ward_and_allport	n/a	-1.0	0.0	n/a	n/a	feedback	s594
11.346	2.569	1	UA_with_intermediate	1,2,0,0,0,0,0,0,0	practice	ward_and_allport	1,3,2,0,0,0,0,0,0	71.0	1.0	2.569	1,2,0,3,0,0,0,0,0	to_hand	s594
13.917	1.127	0	UA_with_intermediate	1,2,0,3,0,0,0,0,0	practice	ward_and_allport	1,3,2,0,0,0,0,0,0	71.0	1.0	1.127	1,2,0,3,0,0,0,0,0	to_board	s594
15.047	0.331	0	UA_with_intermediate	1,0,0,3,0,0,0,0,0	practice	ward_and_allport	1,3,2,0,0,0,0,0,0	89.0	1.0	0.331	1,2,0,3,0,0,0,0,0	to_hand	s594
15.378	0.403	0	UA_with_intermediate	1,0,0,3,0,0,2,0,0	practice	ward_and_allport	1,3,2,0,0,0,0,0,0	82.0	1.0	0.403	1,2,0,3,0,0,0,0,0	to_board	s594
15.783	0.473	0	UA_with_intermediate	1,0,0,0,0,0,2,0,0	practice	ward_and_allport	1,3,2,0,0,0,0,0,0	71.0	1.0	0.473	1,2,0,3,0,0,0,0,0	to_hand	s594
16.258	0.326	0	UA_with_intermediate	1,3,0,0,0,0,2,0,0	practice	ward_and_allport	1,3,2,0,0,0,0,0,0	89.0	1.0	0.326	1,2,0,3,0,0,0,0,0	to_board	s594
16.586	0.393	0	UA_with_intermediate	1,3,0,0,0,0,0,0,0	practice	ward_and_allport	1,3,2,0,0,0,0,0,0	82.0	1.0	0.393	1,2,0,3,0,0,0,0,0	to_hand	s594
16.98	0.254	0	UA_with_intermediate	1,3,2,0,0,0,0,0,0	practice	ward_and_allport	1,3,2,0,0,0,0,0,0	89.0	1.0	0.254	1,2,0,3,0,0,0,0,0	to_board	s594
17.238	1.0	0	UA_with_intermediate	n/a	practice	ward_and_allport	n/a	-1.0	1.0	n/a	n/a	feedback	s594
18.238	1.1	0	UA_with_intermediate	n/a	practice	ward_and_allport	n/a	-1.0	1.0	n/a	n/a	ITI	s594
19.34	2.027	1	UA_without_intermediate	0,0,0,1,2,0,0,0,0	practice	ward_and_allport	3,2,1,0,0,0,0,0,0	82.0	2.0	2.027	0,0,0,1,2,0,3,0,0	to_hand	s594
21.369	0.396	0	UA_without_intermediate	3,0,0,1,2,0,0,0,0	practice	ward_and_allport	3,2,1,0,0,0,0,0,0	89.0	2.0	0.396	0,0,0,1,2,0,3,0,0	to_board	s594
21.768	0.349	0	UA_without_intermediate	3,0,0,1,0,0,0,0,0	practice	ward_and_allport	3,2,1,0,0,0,0,0,0	71.0	2.0	0.349	0,0,0,1,2,0,3,0,0	to_hand	s594
22.118	0.302	0	UA_without_intermediate	3,2,0,1,0,0,0,0,0	practice	ward_and_allport	3,2,1,0,0,0,0,0,0	89.0	2.0	0.302	0,0,0,1,2,0,3,0,0	to_board	s594
22.422	0.987	0	UA_without_intermediate	3,2,0,0,0,0,0,0,0	practice	ward_and_allport	3,2,1,0,0,0,0,0,0	71.0	2.0	0.987	0,0,0,1,2,0,3,0,0	to_hand	s594
23.411	0.268	0	UA_without_intermediate	3,2,1,0,0,0,0,0,0	practice	ward_and_allport	3,2,1,0,0,0,0,0,0	89.0	2.0	0.268	0,0,0,1,2,0,3,0,0	to_board	s594
23.683	1.0	0	UA_without_intermediate	n/a	practice	ward_and_allport	n/a	-1.0	2.0	n/a	n/a	feedback	s594
24.683	1.2	0	UA_without_intermediate	n/a	practice	ward_and_allport	n/a	-1.0	2.0	n/a	n/a	ITI	s594
25.884	1.432	1	UA_without_intermediate	0,0,0,1,0,0,3,0,0	practice	ward_and_allport	2,3,1,0,0,0,0,0,0	71.0	3.0	1.432	0,0,0,1,2,0,3,0,0	to_hand	s594
27.317	0.529	0	UA_without_intermediate	2,0,0,1,0,0,3,0,0	practice	ward_and_allport	2,3,1,0,0,0,0,0,0	89.0	3.0	0.529	0,0,0,1,2,0,3,0,0	to_board	s594
27.849	0.496	0	UA_without_intermediate	2,0,0,1,0,0,0,0,0	practice	ward_and_allport	2,3,1,0,0,0,0,0,0	82.0	3.0	0.496	0,0,0,1,2,0,3,0,0	to_hand	s594
28.345	0.361	0	UA_without_intermediate	2,3,0,1,0,0,0,0,0	practice	ward_and_allport	2,3,1,0,0,0,0,0,0	89.0	3.0	0.361	0,0,0,1,2,0,3,0,0	to_board	s594
28.709	0.308	0	UA_without_intermediate	2,3,0,0,0,0,0,0,0	practice	ward_and_allport	2,3,1,0,0,0,0,0,0	71.0	3.0	0.308	0,0,0,1,2,0,3,0,0	to_hand	s594
29.017	0.271	0	UA_without_intermediate	2,3,1,0,0,0,0,0,0	practice	ward_and_allport	2,3,1,0,0,0,0,0,0	89.0	3.0	0.271	0,0,0,1,2,0,3,0,0	to_board	s594
29.291	1.0	0	UA_without_intermediate	n/a	practice	ward_and_allport	n/a	-1.0	3.0	n/a	n/a	feedback	s594
30.291	1.0	0	UA_without_intermediate	n/a	practice	ward_and_allport	n/a	-1.0	3.0	n/a	n/a	ITI	s594
33.297	5.21	1	PA_with_intermediate	0,0,0,1,2,0,0,0,0	test	ward_and_allport	0,0,0,1,3,0,2,0,0	71.0	0.0	5.21	0,0,0,1,2,3,0,0,0	to_hand	s594
38.508	0.676	0	PA_with_intermediate	3,0,0,1,2,0,0,0,0	test	ward_and_allport	0,0,0,1,3,0,2,0,0	89.0	0.0	0.676	0,0,0,1,2,3,0,0,0	to_board	s594
39.187	0.337	0	PA_with_intermediate	3,0,0,1,0,0,0,0,0	test	ward_and_allport	0,0,0,1,3,0,2,0,0	71.0	0.0	0.337	0,0,0,1,2,3,0,0,0	to_hand	s594
39.524	0.589	0	PA_with_intermediate	3,0,0,1,0,0,2,0,0	test	ward_and_allport	0,0,0,1,3,0,2,0,0	82.0	0.0	0.589	0,0,0,1,2,3,0,0,0	to_board	s594
40.116	1.939	0	PA_with_intermediate	0,0,0,1,0,0,2,0,0	test	ward_and_allport	0,0,0,1,3,0,2,0,0	89.0	0.0	1.939	0,0,0,1,2,3,0,0,0	to_hand	s594
42.056	0.789	0	PA_with_intermediate	0,0,0,1,0,0,2,3,0	test	ward_and_allport	0,0,0,1,3,0,2,0,0	82.0	0.0	0.789	0,0,0,1,2,3,0,0,0	to_board	s594
42.849	0.611	0	PA_with_intermediate	0,0,0,0,0,0,2,3,0	test	ward_and_allport	0,0,0,1,3,0,2,0,0	71.0	0.0	0.611	0,0,0,1,2,3,0,0,0	to_hand	s594
43.461	0.346	0	PA_with_intermediate	1,0,0,0,0,0,2,3,0	test	ward_and_allport	0,0,0,1,3,0,2,0,0	89.0	0.0	0.346	0,0,0,1,2,3,0,0,0	to_board	s594
43.81	0.718	0	PA_with_intermediate	1,0,0,0,0,0,2,0,0	test	ward_and_allport	0,0,0,1,3,0,2,0,0	82.0	0.0	0.718	0,0,0,1,2,3,0,0,0	to_hand	s594
44.529	2.88	0	PA_with_intermediate	1,0,0,0,0,0,2,3,0	test	ward_and_allport	0,0,0,1,3,0,2,0,0	82.0	0.0	2.88	0,0,0,1,2,3,0,0,0	to_board	s594
47.412	0.464	0	PA_with_intermediate	0,0,0,0,0,0,2,3,0	test	ward_and_allport	0,0,0,1,3,0,2,0,0	89.0	0.0	0.464	0,0,0,1,2,3,0,0,0	to_hand	s594
47.877	0.305	0	PA_with_intermediate	0,0,0,1,0,0,2,3,0	test	ward_and_allport	0,0,0,1,3,0,2,0,0	71.0	0.0	0.305	0,0,0,1,2,3,0,0,0	to_board	s594
48.185	0.415	0	PA_with_intermediate	0,0,0,1,0,0,2,0,0	test	ward_and_allport	0,0,0,1,3,0,2,0,0	82.0	0.0	0.415	0,0,0,1,2,3,0,0,0	to_hand	s594
48.602	0.694	0	PA_with_intermediate	0,0,0,1,3,0,2,0,0	test	ward_and_allport	0,0,0,1,3,0,2,0,0	71.0	0.0	0.694	0,0,0,1,2,3,0,0,0	to_board	s594
49.299	1.0	0	PA_with_intermediate	n/a	test	ward_and_allport	n/a	-1.0	0.0	n/a	n/a	feedback	s594
50.299	1.408	0	PA_with_intermediate	n/a	test	ward_and_allport	n/a	-1.0	0.0	n/a	n/a	ITI	s594
51.709	1.947	1	PA_without_intermediate	0,0,0,0,0,0,1,2,0	test	ward_and_allport	3,1,0,2,0,0,0,0,0	82.0	1.0	1.947	0,0,0,0,0,0,1,2,3	to_hand	s594
53.657	0.378	0	PA_without_intermediate	3,0,0,0,0,0,1,2,0	test	ward_and_allport	3,1,0,2,0,0,0,0,0	89.0	1.0	0.378	0,0,0,0,0,0,1,2,3	to_board	s594
54.039	0.645	0	PA_without_intermediate	3,0,0,0,0,0,1,0,0	test	ward_and_allport	3,1,0,2,0,0,0,0,0	82.0	1.0	0.645	0,0,0,0,0,0,1,2,3	to_hand	s594
54.685	0.345	0	PA_without_intermediate	3,0,0,2,0,0,1,0,0	test	ward_and_allport	3,1,0,2,0,0,0,0,0	71.0	1.0	0.345	0,0,0,0,0,0,1,2,3	to_board	s594
55.032	0.298	0	PA_without_intermediate	3,0,0,2,0,0,0,0,0	test	ward_and_allport	3,1,0,2,0,0,0,0,0	82.0	1.0	0.298	0,0,0,0,0,0,1,2,3	to_hand	s594
55.331	0.268	0	PA_without_intermediate	3,1,0,2,0,0,0,0,0	test	ward_and_allport	3,1,0,2,0,0,0,0,0	89.0	1.0	0.268	0,0,0,0,0,0,1,2,3	to_board	s594
55.603	1.0	0	PA_without_intermediate	n/a	test	ward_and_allport	n/a	-1.0	1.0	n/a	n/a	feedback	s594
56.603	1.68	0	PA_without_intermediate	n/a	test	ward_and_allport	n/a	-1.0	1.0	n/a	n/a	ITI	s594
58.287	3.27	1	PA_with_intermediate	0,0,0,1,2,0,0,0,0	test	ward_and_allport	0,0,0,1,0,0,2,3,0	71.0	2.0	3.27	0,0,0,1,2,3,0,0,0	to_hand	s594
61.558	0.47	0	PA_with_intermediate	3,0,0,1,2,0,0,0,0	test	ward_and_allport	0,0,0,1,0,0,2,3,0	89.0	2.0	0.47	0,0,0,1,2,3,0,0,0	to_board	s594
62.031	0.404	0	PA_with_intermediate	3,0,0,1,0,0,0,0,0	test	ward_and_allport	0,0,0,1,0,0,2,3,0	71.0	2.0	0.404	0,0,0,1,2,3,0,0,0	to_hand	s594
62.436	0.352	0	PA_with_intermediate	3,0,0,1,0,0,2,0,0	test	ward_and_allport	0,0,0,1,0,0,2,3,0	82.0	2.0	0.352	0,0,0,1,2,3,0,0,0	to_board	s594
62.791	0.318	0	PA_with_intermediate	0,0,0,1,0,0,2,0,0	test	ward_and_allport	0,0,0,1,0,0,2,3,0	89.0	2.0	0.318	0,0,0,1,2,3,0,0,0	to_hand	s594
63.11	0.275	0	PA_with_intermediate	0,0,0,1,0,0,2,3,0	test	ward_and_allport	0,0,0,1,0,0,2,3,0	82.0	2.0	0.275	0,0,0,1,2,3,0,0,0	to_board	s594
63.39	1.0	0	PA_with_intermediate	n/a	test	ward_and_allport	n/a	-1.0	2.0	n/a	n/a	feedback	s594
64.39	3.72	0	PA_with_intermediate	n/a	test	ward_and_allport	n/a	-1.0	2.0	n/a	n/a	ITI	s594
68.113	1.812	1	PA_without_intermediate	0,0,0,1,2,0,0,0,0	test	ward_and_allport	3,1,0,0,0,0,2,0,0	71.0	3.0	1.812	0,0,0,1,2,3,0,0,0	to_hand	s594
69.927	0.34	0	PA_without_intermediate	3,0,0,1,2,0,0,0,0	test	ward_and_allport	3,1,0,0,0,0,2,0,0	89.0	3.0	0.34	0,0,0,1,2,3,0,0,0	to_board	s594
70.27	0.32	0	PA_without_intermediate	3,0,0,1,0,0,0,0,0	test	ward_and_allport	3,1,0,0,0,0,2,0,0	71.0	3.0	0.32	0,0,0,1,2,3,0,0,0	to_hand	s594
70.591	0.284	0	PA_without_intermediate	3,0,0,1,0,0,2,0,0	test	ward_and_allport	3,1,0,0,0,0,2,0,0	82.0	3.0	0.284	0,0,0,1,2,3,0,0,0	to_board	s594
70.878	0.332	0	PA_without_intermediate	3,0,0,0,0,0,2,0,0	test	ward_and_allport	3,1,0,0,0,0,2,0,0	71.0	3.0	0.332	0,0,0,1,2,3,0,0,0	to_hand	s594
71.211	0.253	0	PA_without_intermediate	3,1,0,0,0,0,2,0,0	test	ward_and_allport	3,1,0,0,0,0,2,0,0	89.0	3.0	0.253	0,0,0,1,2,3,0,0,0	to_board	s594
71.47	1.0	0	PA_without_intermediate	n/a	test	ward_and_allport	n/a	-1.0	3.0	n/a	n/a	feedback	s594
72.47	2.224	0	PA_without_intermediate	n/a	test	ward_and_allport	n/a	-1.0	3.0	n/a	n/a	ITI	s594
74.697	1.912	1	PA_without_intermediate	0,0,0,0,0,0,1,2,0	test	ward_and_allport	1,0,0,3,2,0,0,0,0	82.0	4.0	1.912	0,0,0,0,0,0,1,2,3	to_hand	s594
76.61	0.361	0	PA_without_intermediate	0,0,0,3,0,0,1,2,0	test	ward_and_allport	1,0,0,3,2,0,0,0,0	71.0	4.0	0.361	0,0,0,0,0,0,1,2,3	to_board	s594
76.975	0.468	0	PA_without_intermediate	0,0,0,3,0,0,1,0,0	test	ward_and_allport	1,0,0,3,2,0,0,0,0	82.0	4.0	0.468	0,0,0,0,0,0,1,2,3	to_hand	s594
77.445	0.355	0	PA_without_intermediate	0,0,0,3,2,0,1,0,0	test	ward_and_allport	1,0,0,3,2,0,0,0,0	71.0	4.0	0.355	0,0,0,0,0,0,1,2,3	to_board	s594
77.804	0.314	0	PA_without_intermediate	0,0,0,3,2,0,0,0,0	test	ward_and_allport	1,0,0,3,2,0,0,0,0	82.0	4.0	0.314	0,0,0,0,0,0,1,2,3	to_hand	s594
78.119	0.288	0	PA_without_intermediate	1,0,0,3,2,0,0,0,0	test	ward_and_allport	1,0,0,3,2,0,0,0,0	89.0	4.0	0.288	0,0,0,0,0,0,1,2,3	to_board	s594
78.414	1.0	0	PA_without_intermediate	n/a	test	ward_and_allport	n/a	-1.0	4.0	n/a	n/a	feedback	s594
79.414	1.272	0	PA_without_intermediate	n/a	test	ward_and_allport	n/a	-1.0	4.0	n/a	n/a	ITI	s594
80.689	2.992	1	PA_with_intermediate	1,2,0,0,0,0,0,0,0	test	ward_and_allport	1,3,0,2,0,0,0,0,0	89.0	5.0	2.992	1,2,3,0,0,0,0,0,0	to_hand	s594
83.682	0.529	0	PA_with_intermediate	1,2,0,0,0,0,3,0,0	test	ward_and_allport	1,3,0,2,0,0,0,0,0	82.0	5.0	0.529	1,2,3,0,0,0,0,0,0	to_board	s594
84.215	0.809	0	PA_with_intermediate	1,0,0,0,0,0,3,0,0	test	ward_and_allport	1,3,0,2,0,0,0,0,0	89.0	5.0	0.809	1,2,3,0,0,0,0,0,0	to_hand	s594
85.026	0.36	0	PA_with_intermediate	1,0,0,2,0,0,3,0,0	test	ward_and_allport	1,3,0,2,0,0,0,0,0	71.0	5.0	0.36	1,2,3,0,0,0,0,0,0	to_board	s594
85.388	0.405	0	PA_with_intermediate	1,0,0,2,0,0,0,0,0	test	ward_and_allport	1,3,0,2,0,0,0,0,0	82.0	5.0	0.405	1,2,3,0,0,0,0,0,0	to_hand	s594
85.795	0.383	0	PA_with_intermediate	1,3,0,2,0,0,0,0,0	test	ward_and_allport	1,3,0,2,0,0,0,0,0	89.0	5.0	0.383	1,2,3,0,0,0,0,0,0	to_board	s594
86.183	1.0	0	PA_with_intermediate	n/a	test	ward_and_allport	n/a	-1.0	5.0	n/a	n/a	feedback	s594
87.183	2.632	0	PA_with_intermediate	n/a	test	ward_and_allport	n/a	-1.0	5.0	n/a	n/a	ITI	s594
89.819	1.429	1	PA_without_intermediate	0,0,0,0,0,0,1,2,0	test	ward_and_allport	3,2,0,1,0,0,0,0,0	82.0	6.0	1.429	0,0,0,0,0,0,1,2,3	to_hand	s594
91.249	0.37	0	PA_without_intermediate	3,0,0,0,0,0,1,2,0	test	ward_and_allport	3,2,0,1,0,0,0,0,0	89.0	6.0	0.37	0,0,0,0,0,0,1,2,3	to_board	s594
91.624	0.356	0	PA_without_intermediate	3,0,0,0,0,0,1,0,0	test	ward_and_allport	3,2,0,1,0,0,0,0,0	82.0	6.0	0.356	0,0,0,0,0,0,1,2,3	to_hand	s594
91.981	0.299	0	PA_without_intermediate	3,2,0,0,0,0,1,0,0	test	ward_and_allport	3,2,0,1,0,0,0,0,0	89.0	6.0	0.299	0,0,0,0,0,0,1,2,3	to_board	s594
92.284	0.371	0	PA_without_intermediate	3,2,0,0,0,0,0,0,0	test	ward_and_allport	3,2,0,1,0,0,0,0,0	82.0	6.0	0.371	0,0,0,0,0,0,1,2,3	to_hand	s594
92.656	0.262	0	PA_without_intermediate	3,2,0,1,0,0,0,0,0	test	ward_and_allport	3,2,0,1,0,0,0,0,0	71.0	6.0	0.262	0,0,0,0,0,0,1,2,3	to_board	s594
92.922	1.0	0	PA_without_intermediate	n/a	test	ward_and_allport	n/a	-1.0	6.0	n/a	n/a	feedback	s594
93.922	1.408	0	PA_without_intermediate	n/a	test	ward_and_allport	n/a	-1.0	6.0	n/a	n/a	ITI	s594
95.335	1.416	1	PA_without_intermediate	0,0,0,1,2,0,0,0,0	test	ward_and_allport	2,0,0,0,0,0,3,1,0	71.0	7.0	1.416	0,0,0,1,2,3,0,0,0	to_hand	s594
96.753	0.508	0	PA_without_intermediate	0,0,0,1,2,0,3,0,0	test	ward_and_allport	2,0,0,0,0,0,3,1,0	82.0	7.0	0.508	0,0,0,1,2,3,0,0,0	to_board	s594
97.265	0.43	0	PA_without_intermediate	0,0,0,1,0,0,3,0,0	test	ward_and_allport	2,0,0,0,0,0,3,1,0	71.0	7.0	0.43	0,0,0,1,2,3,0,0,0	to_hand	s594
97.696	0.284	0	PA_without_intermediate	2,0,0,1,0,0,3,0,0	test	ward_and_allport	2,0,0,0,0,0,3,1,0	89.0	7.0	0.284	0,0,0,1,2,3,0,0,0	to_board	s594
97.985	0.318	0	PA_without_intermediate	2,0,0,0,0,0,3,0,0	test	ward_and_allport	2,0,0,0,0,0,3,1,0	71.0	7.0	0.318	0,0,0,1,2,3,0,0,0	to_hand	s594
98.304	0.256	0	PA_without_intermediate	2,0,0,0,0,0,3,1,0	test	ward_and_allport	2,0,0,0,0,0,3,1,0	82.0	7.0	0.256	0,0,0,1,2,3,0,0,0	to_board	s594
98.567	1.0	0	PA_without_intermediate	n/a	test	ward_and_allport	n/a	-1.0	7.0	n/a	n/a	feedback	s594
99.567	1.0	0	PA_without_intermediate	n/a	test	ward_and_allport	n/a	-1.0	7.0	n/a	n/a	ITI	s594
100.571	2.825	1	PA_with_intermediate	1,2,0,0,0,0,0,0,0	test	ward_and_allport	1,0,0,2,3,0,0,0,0	89.0	8.0	2.825	1,2,3,0,0,0,0,0,0	to_hand	s594
103.398	0.453	0	PA_with_intermediate	1,2,0,0,0,0,3,0,0	test	ward_and_allport	1,0,0,2,3,0,0,0,0	82.0	8.0	0.453	1,2,3,0,0,0,0,0,0	to_board	s594
103.856	0.414	0	PA_with_intermediate	1,0,0,0,0,0,3,0,0	test	ward_and_allport	1,0,0,2,3,0,0,0,0	89.0	8.0	0.414	1,2,3,0,0,0,0,0,0	to_hand	s594
104.272	0.805	0	PA_with_intermediate	1,0,0,2,0,0,3,0,0	test	ward_and_allport	1,0,0,2,3,0,0,0,0	71.0	8.0	0.805	1,2,3,0,0,0,0,0,0	to_board	s594
105.082	0.372	0	PA_with_intermediate	1,0,0,2,0,0,0,0,0	test	ward_and_allport	1,0,0,2,3,0,0,0,0	82.0	8.0	0.372	1,2,3,0,0,0,0,0,0	to_hand	s594
105.456	0.336	0	PA_with_intermediate	1,0,0,2,3,0,0,0,0	test	ward_and_allport	1,0,0,2,3,0,0,0,0	71.0	8.0	0.336	1,2,3,0,0,0,0,0,0	to_board	s594
105.8	1.0	0	PA_with_intermediate	n/a	test	ward_and_allport	n/a	-1.0	8.0	n/a	n/a	feedback	s594
106.8	1.0	0	PA_with_intermediate	n/a	test	ward_and_allport	n/a	-1.0	8.0	n/a	n/a	ITI	s594
107.804	2.835	1	PA_with_intermediate	0,0,0,1,2,0,0,0,0	test	ward_and_allport	0,0,0,1,3,0,2,0,0	71.0	9.0	2.835	0,0,0,1,2,3,0,0,0	to_hand	s594
110.639	0.314	0	PA_with_intermediate	3,0,0,1,2,0,0,0,0	test	ward_and_allport	0,0,0,1,3,0,2,0,0	89.0	9.0	0.314	0,0,0,1,2,3,0,0,0	to_board	s594
110.958	0.327	0	PA_with_intermediate	3,0,0,1,0,0,0,0,0	test	ward_and_allport	0,0,0,1,3,0,2,0,0	71.0	9.0	0.327	0,0,0,1,2,3,0,0,0	to_hand	s594
111.286	0.248	0	PA_with_intermediate	3,0,0,1,0,0,2,0,0	test	ward_and_allport	0,0,0,1,3,0,2,0,0	82.0	9.0	0.248	0,0,0,1,2,3,0,0,0	to_board	s594
111.538	0.294	0	PA_with_intermediate	0,0,0,1,0,0,2,0,0	test	ward_and_allport	0,0,0,1,3,0,2,0,0	89.0	9.0	0.294	0,0,0,1,2,3,0,0,0	to_hand	s594
111.834	0.414	0	PA_with_intermediate	0,0,0,1,3,0,2,0,0	test	ward_and_allport	0,0,0,1,3,0,2,0,0	71.0	9.0	0.414	0,0,0,1,2,3,0,0,0	to_board	s594
112.255	1.0	0	PA_with_intermediate	n/a	test	ward_and_allport	n/a	-1.0	9.0	n/a	n/a	feedback	s594
113.255	1.0	0	PA_with_intermediate	n/a	test	ward_and_allport	n/a	-1.0	9.0	n/a	n/a	ITI	s594
114.26	2.295	1	PA_with_intermediate	0,0,0,0,0,0,1,2,0	test	ward_and_allport	0,0,0,2,3,0,1,0,0	82.0	10.0	2.295	0,0,0,0,0,0,1,2,3	to_hand	s594
116.557	0.368	0	PA_with_intermediate	3,0,0,0,0,0,1,2,0	test	ward_and_allport	0,0,0,2,3,0,1,0,0	89.0	10.0	0.368	0,0,0,0,0,0,1,2,3	to_board	s594
116.929	0.301	0	PA_with_intermediate	3,0,0,0,0,0,1,0,0	test	ward_and_allport	0,0,0,2,3,0,1,0,0	82.0	10.0	0.301	0,0,0,0,0,0,1,2,3	to_hand	s594
117.23	0.293	0	PA_with_intermediate	3,0,0,2,0,0,1,0,0	test	ward_and_allport	0,0,0,2,3,0,1,0,0	71.0	10.0	0.293	0,0,0,0,0,0,1,2,3	to_board	s594
117.528	0.257	0	PA_with_intermediate	0,0,0,2,0,0,1,0,0	test	ward_and_allport	0,0,0,2,3,0,1,0,0	89.0	10.0	0.257	0,0,0,0,0,0,1,2,3	to_hand	s594
117.786	0.284	0	PA_with_intermediate	0,0,0,2,3,0,1,0,0	test	ward_and_allport	0,0,0,2,3,0,1,0,0	71.0	10.0	0.284	0,0,0,0,0,0,1,2,3	to_board	s594
118.08	1.0	0	PA_with_intermediate	n/a	test	ward_and_allport	n/a	-1.0	10.0	n/a	n/a	feedback	s594
119.08	1.408	0	PA_with_intermediate	n/a	test	ward_and_allport	n/a	-1.0	10.0	n/a	n/a	ITI	s594
120.494	1.263	1	PA_without_intermediate	0,0,0,0,0,0,1,2,0	test	ward_and_allport	3,2,0,1,0,0,0,0,0	82.0	11.0	1.263	0,0,0,0,0,0,1,2,3	to_hand	s594
121.758	0.351	0	PA_without_intermediate	3,0,0,0,0,0,1,2,0	test	ward_and_allport	3,2,0,1,0,0,0,0,0	89.0	11.0	0.351	0,0,0,0,0,0,1,2,3	to_board	s594
122.114	0.67	0	PA_without_intermediate	3,0,0,0,0,0,1,0,0	test	ward_and_allport	3,2,0,1,0,0,0,0,0	82.0	11.0	0.67	0,0,0,0,0,0,1,2,3	to_hand	s594
122.785	0.372	0	PA_without_intermediate	3,2,0,0,0,0,1,0,0	test	ward_and_allport	3,2,0,1,0,0,0,0,0	89.0	11.0	0.372	0,0,0,0,0,0,1,2,3	to_board	s594
123.162	0.412	0	PA_without_intermediate	3,2,0,0,0,0,0,0,0	test	ward_and_allport	3,2,0,1,0,0,0,0,0	82.0	11.0	0.412	0,0,0,0,0,0,1,2,3	to_hand	s594
123.575	0.313	0	PA_without_intermediate	3,2,0,1,0,0,0,0,0	test	ward_and_allport	3,2,0,1,0,0,0,0,0	71.0	11.0	0.313	0,0,0,0,0,0,1,2,3	to_board	s594
123.896	1.0	0	PA_without_intermediate	n/a	test	ward_and_allport	n/a	-1.0	11.0	n/a	n/a	feedback	s594
124.896	1.816	0	PA_without_intermediate	n/a	test	ward_and_allport	n/a	-1.0	11.0	n/a	n/a	ITI	s594
126.717	2.362	1	PA_with_intermediate	0,0,0,0,0,0,1,2,0	test	ward_and_allport	0,0,0,2,0,0,1,3,0	82.0	12.0	2.362	0,0,0,0,0,0,1,2,3	to_hand	s594
129.08	0.406	0	PA_with_intermediate	3,0,0,0,0,0,1,2,0	test	ward_and_allport	0,0,0,2,0,0,1,3,0	89.0	12.0	0.406	0,0,0,0,0,0,1,2,3	to_board	s594
129.492	0.415	0	PA_with_intermediate	3,0,0,0,0,0,1,0,0	test	ward_and_allport	0,0,0,2,0,0,1,3,0	82.0	12.0	0.415	0,0,0,0,0,0,1,2,3	to_hand	s594
129.909	0.35	0	PA_with_intermediate	3,0,0,2,0,0,1,0,0	test	ward_and_allport	0,0,0,2,0,0,1,3,0	71.0	12.0	0.35	0,0,0,0,0,0,1,2,3	to_board	s594
130.264	0.819	0	PA_with_intermediate	0,0,0,2,0,0,1,0,0	test	ward_and_allport	0,0,0,2,0,0,1,3,0	89.0	12.0	0.819	0,0,0,0,0,0,1,2,3	to_hand	s594
131.085	0.288	0	PA_with_intermediate	0,0,0,2,0,0,1,3,0	test	ward_and_allport	0,0,0,2,0,0,1,3,0	82.0	12.0	0.288	0,0,0,0,0,0,1,2,3	to_board	s594
131.379	1.0	0	PA_with_intermediate	n/a	test	ward_and_allport	n/a	-1.0	12.0	n/a	n/a	feedback	s594
132.379	3.176	0	PA_with_intermediate	n/a	test	ward_and_allport	n/a	-1.0	12.0	n/a	n/a	ITI	s594
135.56	1.901	1	PA_with_intermediate	0,0,0,0,0,0,1,2,0	test	ward_and_allport	0,0,0,2,0,0,1,3,0	82.0	13.0	1.901	0,0,0,0,0,0,1,2,3	to_hand	s594
137.462	0.435	0	PA_with_intermediate	3,0,0,0,0,0,1,2,0	test	ward_and_allport	0,0,0,2,0,0,1,3,0	89.0	13.0	0.435	0,0,0,0,0,0,1,2,3	to_board	s594
137.902	0.293	0	PA_with_intermediate	3,0,0,0,0,0,1,0,0	test	ward_and_allport	0,0,0,2,0,0,1,3,0	82.0	13.0	0.293	0,0,0,0,0,0,1,2,3	to_hand	s594
138.197	0.309	0	PA_with_intermediate	3,0,0,2,0,0,1,0,0	test	ward_and_allport	0,0,0,2,0,0,1,3,0	71.0	13.0	0.309	0,0,0,0,0,0,1,2,3	to_board	s594
138.511	0.341	0	PA_with_intermediate	0,0,0,2,0,0,1,0,0	test	ward_and_allport	0,0,0,2,0,0,1,3,0	89.0	13.0	0.341	0,0,0,0,0,0,1,2,3	to_hand	s594
138.854	0.257	0	PA_with_intermediate	0,0,0,2,0,0,1,3,0	test	ward_and_allport	0,0,0,2,0,0,1,3,0	82.0	13.0	0.257	0,0,0,0,0,0,1,2,3	to_board	s594
139.118	1.0	0	PA_with_intermediate	n/a	test	ward_and_allport	n/a	-1.0	13.0	n/a	n/a	feedback	s594
140.118	2.36	0	PA_with_intermediate	n/a	test	ward_and_allport	n/a	-1.0	13.0	n/a	n/a	ITI	s594
142.484	2.72	1	PA_with_intermediate	1,2,0,0,0,0,0,0,0	test	ward_and_allport	1,3,0,0,0,0,2,0,0	89.0	14.0	2.72	1,2,3,0,0,0,0,0,0	to_hand	s594
145.204	0.337	0	PA_with_intermediate	1,2,0,3,0,0,0,0,0	test	ward_and_allport	1,3,0,0,0,0,2,0,0	71.0	14.0	0.337	1,2,3,0,0,0,0,0,0	to_board	s594
145.546	0.296	0	PA_with_intermediate	1,0,0,3,0,0,0,0,0	test	ward_and_allport	1,3,0,0,0,0,2,0,0	89.0	14.0	0.296	1,2,3,0,0,0,0,0,0	to_hand	s594
145.843	0.301	0	PA_with_intermediate	1,0,0,3,0,0,2,0,0	test	ward_and_allport	1,3,0,0,0,0,2,0,0	82.0	14.0	0.301	1,2,3,0,0,0,0,0,0	to_board	s594
146.15	0.777	0	PA_with_intermediate	1,0,0,0,0,0,2,0,0	test	ward_and_allport	1,3,0,0,0,0,2,0,0	71.0	14.0	0.777	1,2,3,0,0,0,0,0,0	to_hand	s594
146.928	0.239	0	PA_with_intermediate	1,3,0,0,0,0,2,0,0	test	ward_and_allport	1,3,0,0,0,0,2,0,0	89.0	14.0	0.239	1,2,3,0,0,0,0,0,0	to_board	s594
147.172	1.0	0	PA_with_intermediate	n/a	test	ward_and_allport	n/a	-1.0	14.0	n/a	n/a	feedback	s594
148.172	1.0	0	PA_with_intermediate	n/a	test	ward_and_allport	n/a	-1.0	14.0	n/a	n/a	ITI	s594
154.18	2.325	1	PA_without_intermediate	0,0,0,0,0,0,1,2,0	test	ward_and_allport	2,0,0,3,1,0,0,0,0	82.0	15.0	2.325	0,0,0,0,0,0,1,2,3	to_hand	s594
156.507	0.369	0	PA_without_intermediate	0,0,0,3,0,0,1,2,0	test	ward_and_allport	2,0,0,3,1,0,0,0,0	71.0	15.0	0.369	0,0,0,0,0,0,1,2,3	to_board	s594
156.882	0.323	0	PA_without_intermediate	0,0,0,3,0,0,1,0,0	test	ward_and_allport	2,0,0,3,1,0,0,0,0	82.0	15.0	0.323	0,0,0,0,0,0,1,2,3	to_hand	s594
157.206	0.268	0	PA_without_intermediate	2,0,0,3,0,0,1,0,0	test	ward_and_allport	2,0,0,3,1,0,0,0,0	89.0	15.0	0.268	0,0,0,0,0,0,1,2,3	to_board	s594
157.479	0.314	0	PA_without_intermediate	2,0,0,3,0,0,0,0,0	test	ward_and_allport	2,0,0,3,1,0,0,0,0	82.0	15.0	0.314	0,0,0,0,0,0,1,2,3	to_hand	s594
157.794	0.259	0	PA_without_intermediate	2,0,0,3,1,0,0,0,0	test	ward_and_allport	2,0,0,3,1,0,0,0,0	71.0	15.0	0.259	0,0,0,0,0,0,1,2,3	to_board	s594
158.059	1.0	0	PA_without_intermediate	n/a	test	ward_and_allport	n/a	-1.0	15.0	n/a	n/a	feedback	s594
159.059	1.408	0	PA_without_intermediate	n/a	test	ward_and_allport	n/a	-1.0	15.0	n/a	n/a	ITI	s594
160.474	1.314	1	PA_with_intermediate	1,2,0,0,0,0,0,0,0	test	ward_and_allport	1,0,0,0,0,0,2,3,0	89.0	16.0	1.314	1,2,3,0,0,0,0,0,0	to_hand	s594
161.789	0.414	0	PA_with_intermediate	1,2,0,3,0,0,0,0,0	test	ward_and_allport	1,0,0,0,0,0,2,3,0	71.0	16.0	0.414	1,2,3,0,0,0,0,0,0	to_board	s594
162.208	0.45	0	PA_with_intermediate	1,0,0,3,0,0,0,0,0	test	ward_and_allport	1,0,0,0,0,0,2,3,0	89.0	16.0	0.45	1,2,3,0,0,0,0,0,0	to_hand	s594
162.66	0.257	0	PA_with_intermediate	1,0,0,3,0,0,2,0,0	test	ward_and_allport	1,0,0,0,0,0,2,3,0	82.0	16.0	0.257	1,2,3,0,0,0,0,0,0	to_board	s594
162.923	0.262	0	PA_with_intermediate	1,0,0,0,0,0,2,0,0	test	ward_and_allport	1,0,0,0,0,0,2,3,0	71.0	16.0	0.262	1,2,3,0,0,0,0,0,0	to_hand	s594
163.187	0.302	0	PA_with_intermediate	1,0,0,0,0,0,2,3,0	test	ward_and_allport	1,0,0,0,0,0,2,3,0	82.0	16.0	0.302	1,2,3,0,0,0,0,0,0	to_board	s594
163.498	1.0	0	PA_with_intermediate	n/a	test	ward_and_allport	n/a	-1.0	16.0	n/a	n/a	feedback	s594
164.498	1.816	0	PA_with_intermediate	n/a	test	ward_and_allport	n/a	-1.0	16.0	n/a	n/a	ITI	s594
166.32	1.074	1	PA_without_intermediate	0,0,0,1,2,0,0,0,0	test	ward_and_allport	3,2,0,0,0,0,1,0,0	71.0	17.0	1.074	0,0,0,1,2,3,0,0,0	to_hand	s594
167.395	0.393	0	PA_without_intermediate	3,0,0,1,2,0,0,0,0	test	ward_and_allport	3,2,0,0,0,0,1,0,0	89.0	17.0	0.393	0,0,0,1,2,3,0,0,0	to_board	s594
167.794	0.263	0	PA_without_intermediate	3,0,0,1,0,0,0,0,0	test	ward_and_allport	3,2,0,0,0,0,1,0,0	71.0	17.0	0.263	0,0,0,1,2,3,0,0,0	to_hand	s594
168.059	0.258	0	PA_without_intermediate	3,2,0,1,0,0,0,0,0	test	ward_and_allport	3,2,0,0,0,0,1,0,0	89.0	17.0	0.258	0,0,0,1,2,3,0,0,0	to_board	s594
168.322	0.238	0	PA_without_intermediate	3,2,0,0,0,0,0,0,0	test	ward_and_allport	3,2,0,0,0,0,1,0,0	71.0	17.0	0.238	0,0,0,1,2,3,0,0,0	to_hand	s594
168.561	0.264	0	PA_without_intermediate	3,2,0,0,0,0,1,0,0	test	ward_and_allport	3,2,0,0,0,0,1,0,0	82.0	17.0	0.264	0,0,0,1,2,3,0,0,0	to_board	s594
168.831	1.0	0	PA_without_intermediate	n/a	test	ward_and_allport	n/a	-1.0	17.0	n/a	n/a	feedback	s594
169.831	2.088	0	PA_without_intermediate	n/a	test	ward_and_allport	n/a	-1.0	17.0	n/a	n/a	ITI	s594
171.924	1.122	1	PA_without_intermediate	0,0,0,1,2,0,0,0,0	test	ward_and_allport	1,0,0,0,0,0,3,2,0	71.0	18.0	1.122	0,0,0,1,2,3,0,0,0	to_hand	s594
173.048	0.354	0	PA_without_intermediate	0,0,0,1,2,0,3,0,0	test	ward_and_allport	1,0,0,0,0,0,3,2,0	82.0	18.0	0.354	0,0,0,1,2,3,0,0,0	to_board	s594
173.406	0.276	0	PA_without_intermediate	0,0,0,1,0,0,3,0,0	test	ward_and_allport	1,0,0,0,0,0,3,2,0	71.0	18.0	0.276	0,0,0,1,2,3,0,0,0	to_hand	s594
173.684	0.274	0	PA_without_intermediate	0,0,0,1,0,0,3,2,0	test	ward_and_allport	1,0,0,0,0,0,3,2,0	82.0	18.0	0.274	0,0,0,1,2,3,0,0,0	to_board	s594
173.964	0.255	0	PA_without_intermediate	0,0,0,0,0,0,3,2,0	test	ward_and_allport	1,0,0,0,0,0,3,2,0	71.0	18.0	0.255	0,0,0,1,2,3,0,0,0	to_hand	s594
174.219	0.276	0	PA_without_intermediate	1,0,0,0,0,0,3,2,0	test	ward_and_allport	1,0,0,0,0,0,3,2,0	89.0	18.0	0.276	0,0,0,1,2,3,0,0,0	to_board	s594
174.503	1.0	0	PA_without_intermediate	n/a	test	ward_and_allport	n/a	-1.0	18.0	n/a	n/a	feedback	s594
175.503	1.136	0	PA_without_intermediate	n/a	test	ward_and_allport	n/a	-1.0	18.0	n/a	n/a	ITI	s594
176.645	0.938	1	PA_without_intermediate	1,2,0,0,0,0,0,0,0	test	ward_and_allport	0,0,0,1,0,0,3,2,0	89.0	19.0	0.938	1,2,3,0,0,0,0,0,0	to_hand	s594
177.584	0.338	0	PA_without_intermediate	1,2,0,0,0,0,3,0,0	test	ward_and_allport	0,0,0,1,0,0,3,2,0	82.0	19.0	0.338	1,2,3,0,0,0,0,0,0	to_board	s594
177.927	0.341	0	PA_without_intermediate	1,0,0,0,0,0,3,0,0	test	ward_and_allport	0,0,0,1,0,0,3,2,0	89.0	19.0	0.341	1,2,3,0,0,0,0,0,0	to_hand	s594
178.269	0.953	0	PA_without_intermediate	1,0,0,0,0,0,3,2,0	test	ward_and_allport	0,0,0,1,0,0,3,2,0	82.0	19.0	0.953	1,2,3,0,0,0,0,0,0	to_board	s594
179.228	0.599	0	PA_without_intermediate	0,0,0,0,0,0,3,2,0	test	ward_and_allport	0,0,0,1,0,0,3,2,0	89.0	19.0	0.599	1,2,3,0,0,0,0,0,0	to_hand	s594
179.828	0.278	0	PA_without_intermediate	0,0,0,1,0,0,3,2,0	test	ward_and_allport	0,0,0,1,0,0,3,2,0	71.0	19.0	0.278	1,2,3,0,0,0,0,0,0	to_board	s594
180.113	1.0	0	PA_without_intermediate	n/a	test	ward_and_allport	n/a	-1.0	19.0	n/a	n/a	feedback	s594
181.113	6.168	0	PA_without_intermediate	n/a	test	ward_and_allport	n/a	-1.0	19.0	n/a	n/a	ITI	s594
187.287	1.203	1	PA_without_intermediate	1,2,0,0,0,0,0,0,0	test	ward_and_allport	0,0,0,3,1,0,2,0,0	89.0	20.0	1.203	1,2,3,0,0,0,0,0,0	to_hand	s594
188.492	0.308	0	PA_without_intermediate	1,2,0,3,0,0,0,0,0	test	ward_and_allport	0,0,0,3,1,0,2,0,0	71.0	20.0	0.308	1,2,3,0,0,0,0,0,0	to_board	s594
188.806	0.381	0	PA_without_intermediate	1,0,0,3,0,0,0,0,0	test	ward_and_allport	0,0,0,3,1,0,2,0,0	89.0	20.0	0.381	1,2,3,0,0,0,0,0,0	to_hand	s594
189.189	0.271	0	PA_without_intermediate	1,0,0,3,0,0,2,0,0	test	ward_and_allport	0,0,0,3,1,0,2,0,0	82.0	20.0	0.271	1,2,3,0,0,0,0,0,0	to_board	s594
189.466	0.314	0	PA_without_intermediate	0,0,0,3,0,0,2,0,0	test	ward_and_allport	0,0,0,3,1,0,2,0,0	89.0	20.0	0.314	1,2,3,0,0,0,0,0,0	to_hand	s594
189.782	0.226	0	PA_without_intermediate	0,0,0,3,1,0,2,0,0	test	ward_and_allport	0,0,0,3,1,0,2,0,0	71.0	20.0	0.226	1,2,3,0,0,0,0,0,0	to_board	s594
190.016	1.0	0	PA_without_intermediate	n/a	test	ward_and_allport	n/a	-1.0	20.0	n/a	n/a	feedback	s594
191.016	1.816	0	PA_without_intermediate	n/a	test	ward_and_allport	n/a	-1.0	20.0	n/a	n/a	ITI	s594
192.838	1.765	1	PA_with_intermediate	0,0,0,0,0,0,1,2,0	test	ward_and_allport	2,3,0,0,0,0,1,0,0	82.0	21.0	1.765	0,0,0,0,0,0,1,2,3	to_hand	s594
194.605	0.395	0	PA_with_intermediate	0,0,0,3,0,0,1,2,0	test	ward_and_allport	2,3,0,0,0,0,1,0,0	71.0	21.0	0.395	0,0,0,0,0,0,1,2,3	to_board	s594
195.006	0.771	0	PA_with_intermediate	0,0,0,3,0,0,1,0,0	test	ward_and_allport	2,3,0,0,0,0,1,0,0	82.0	21.0	0.771	0,0,0,0,0,0,1,2,3	to_hand	s594
195.778	0.323	0	PA_with_intermediate	2,0,0,3,0,0,1,0,0	test	ward_and_allport	2,3,0,0,0,0,1,0,0	89.0	21.0	0.323	0,0,0,0,0,0,1,2,3	to_board	s594
196.108	0.434	0	PA_with_intermediate	2,0,0,0,0,0,1,0,0	test	ward_and_allport	2,3,0,0,0,0,1,0,0	71.0	21.0	0.434	0,0,0,0,0,0,1,2,3	to_hand	s594
196.543	0.295	0	PA_with_intermediate	2,3,0,0,0,0,1,0,0	test	ward_and_allport	2,3,0,0,0,0,1,0,0	89.0	21.0	0.295	0,0,0,0,0,0,1,2,3	to_board	s594
196.851	1.0	0	PA_with_intermediate	n/a	test	ward_and_allport	n/a	-1.0	21.0	n/a	n/a	feedback	s594
197.851	1.952	0	PA_with_intermediate	n/a	test	ward_and_allport	n/a	-1.0	21.0	n/a	n/a	ITI	s594
199.81	1.837	1	PA_with_intermediate	0,0,0,1,2,0,0,0,0	test	ward_and_allport	2,0,0,1,3,0,0,0,0	71.0	22.0	1.837	0,0,0,1,2,3,0,0,0	to_hand	s594
201.648	0.589	0	PA_with_intermediate	0,0,0,1,2,0,3,0,0	test	ward_and_allport	2,0,0,1,3,0,0,0,0	82.0	22.0	0.589	0,0,0,1,2,3,0,0,0	to_board	s594
202.244	0.357	0	PA_with_intermediate	0,0,0,1,0,0,3,0,0	test	ward_and_allport	2,0,0,1,3,0,0,0,0	71.0	22.0	0.357	0,0,0,1,2,3,0,0,0	to_hand	s594
202.603	0.331	0	PA_with_intermediate	2,0,0,1,0,0,3,0,0	test	ward_and_allport	2,0,0,1,3,0,0,0,0	89.0	22.0	0.331	0,0,0,1,2,3,0,0,0	to_board	s594
202.94	0.384	0	PA_with_intermediate	2,0,0,1,0,0,0,0,0	test	ward_and_allport	2,0,0,1,3,0,0,0,0	82.0	22.0	0.384	0,0,0,1,2,3,0,0,0	to_hand	s594
203.325	0.333	0	PA_with_intermediate	2,0,0,1,3,0,0,0,0	test	ward_and_allport	2,0,0,1,3,0,0,0,0	71.0	22.0	0.333	0,0,0,1,2,3,0,0,0	to_board	s594
203.669	1.0	0	PA_with_intermediate	n/a	test	ward_and_allport	n/a	-1.0	22.0	n/a	n/a	feedback	s594
204.669	1.136	0	PA_with_intermediate	n/a	test	ward_and_allport	n/a	-1.0	22.0	n/a	n/a	ITI	s594
205.813	0.865	1	PA_without_intermediate	0,0,0,0,0,0,1,2,0	test	ward_and_allport	3,1,0,2,0,0,0,0,0	82.0	23.0	0.865	0,0,0,0,0,0,1,2,3	to_hand	s594
206.679	0.322	0	PA_without_intermediate	3,0,0,0,0,0,1,2,0	test	ward_and_allport	3,1,0,2,0,0,0,0,0	89.0	23.0	0.322	0,0,0,0,0,0,1,2,3	to_board	s594
207.008	0.478	0	PA_without_intermediate	3,0,0,0,0,0,1,0,0	test	ward_and_allport	3,1,0,2,0,0,0,0,0	82.0	23.0	0.478	0,0,0,0,0,0,1,2,3	to_hand	s594
207.488	0.289	0	PA_without_intermediate	3,0,0,2,0,0,1,0,0	test	ward_and_allport	3,1,0,2,0,0,0,0,0	71.0	23.0	0.289	0,0,0,0,0,0,1,2,3	to_board	s594
207.784	0.292	0	PA_without_intermediate	3,0,0,2,0,0,0,0,0	test	ward_and_allport	3,1,0,2,0,0,0,0,0	82.0	23.0	0.292	0,0,0,0,0,0,1,2,3	to_hand	s594
208.077	0.239	0	PA_without_intermediate	3,1,0,2,0,0,0,0,0	test	ward_and_allport	3,1,0,2,0,0,0,0,0	89.0	23.0	0.239	0,0,0,0,0,0,1,2,3	to_board	s594
208.326	1.0	0	PA_without_intermediate	n/a	test	ward_and_allport	n/a	-1.0	23.0	n/a	n/a	feedback	s594
209.326	1.68	0	PA_without_intermediate	n/a	test	ward_and_allport	n/a	-1.0	23.0	n/a	n/a	ITI	s594
211.011	0.919	1	PA_without_intermediate	1,2,0,0,0,0,0,0,0	test	ward_and_allport	0,0,0,3,2,0,1,0,0	89.0	24.0	0.919	1,2,3,0,0,0,0,0,0	to_hand	s594
211.931	0.245	0	PA_without_intermediate	1,2,0,3,0,0,0,0,0	test	ward_and_allport	0,0,0,3,2,0,1,0,0	71.0	24.0	0.245	1,2,3,0,0,0,0,0,0	to_board	s594
212.183	0.447	0	PA_without_intermediate	1,0,0,3,0,0,0,0,0	test	ward_and_allport	0,0,0,3,2,0,1,0,0	89.0	24.0	0.447	1,2,3,0,0,0,0,0,0	to_hand	s594
212.631	0.268	0	PA_without_intermediate	1,0,0,3,2,0,0,0,0	test	ward_and_allport	0,0,0,3,2,0,1,0,0	71.0	24.0	0.268	1,2,3,0,0,0,0,0,0	to_board	s594
212.906	0.267	0	PA_without_intermediate	0,0,0,3,2,0,0,0,0	test	ward_and_allport	0,0,0,3,2,0,1,0,0	89.0	24.0	0.267	1,2,3,0,0,0,0,0,0	to_hand	s594
213.174	0.231	0	PA_without_intermediate	0,0,0,3,2,0,1,0,0	test	ward_and_allport	0,0,0,3,2,0,1,0,0	82.0	24.0	0.231	1,2,3,0,0,0,0,0,0	to_board	s594
213.417	1.0	0	PA_without_intermediate	n/a	test	ward_and_allport	n/a	-1.0	24.0	n/a	n/a	feedback	s594
214.417	2.088	0	PA_without_intermediate	n/a	test	ward_and_allport	n/a	-1.0	24.0	n/a	n/a	ITI	s594
216.514	1.595	1	PA_with_intermediate	0,0,0,1,2,0,0,0,0	test	ward_and_allport	2,3,0,1,0,0,0,0,0	71.0	25.0	1.595	0,0,0,1,2,3,0,0,0	to_hand	s594
218.111	0.674	0	PA_with_intermediate	0,0,0,1,2,0,3,0,0	test	ward_and_allport	2,3,0,1,0,0,0,0,0	82.0	25.0	0.674	0,0,0,1,2,3,0,0,0	to_board	s594
218.794	0.441	0	PA_with_intermediate	0,0,0,1,0,0,3,0,0	test	ward_and_allport	2,3,0,1,0,0,0,0,0	71.0	25.0	0.441	0,0,0,1,2,3,0,0,0	to_hand	s594
219.236	0.268	0	PA_with_intermediate	2,0,0,1,0,0,3,0,0	test	ward_and_allport	2,3,0,1,0,0,0,0,0	89.0	25.0	0.268	0,0,0,1,2,3,0,0,0	to_board	s594
219.513	0.3	0	PA_with_intermediate	2,0,0,1,0,0,0,0,0	test	ward_and_allport	2,3,0,1,0,0,0,0,0	82.0	25.0	0.3	0,0,0,1,2,3,0,0,0	to_hand	s594
219.814	0.304	0	PA_with_intermediate	2,3,0,1,0,0,0,0,0	test	ward_and_allport	2,3,0,1,0,0,0,0,0	89.0	25.0	0.304	0,0,0,1,2,3,0,0,0	to_board	s594
220.129	1.0	0	PA_with_intermediate	n/a	test	ward_and_allport	n/a	-1.0	25.0	n/a	n/a	feedback	s594
221.129	1.0	0	PA_with_intermediate	n/a	test	ward_and_allport	n/a	-1.0	25.0	n/a	n/a	ITI	s594
222.136	0.868	1	PA_without_intermediate	0,0,0,1,2,0,0,0,0	test	ward_and_allport	2,0,0,0,0,0,3,1,0	71.0	26.0	0.868	0,0,0,1,2,3,0,0,0	to_hand	s594
223.006	0.464	0	PA_without_intermediate	0,0,0,1,2,0,3,0,0	test	ward_and_allport	2,0,0,0,0,0,3,1,0	82.0	26.0	0.464	0,0,0,1,2,3,0,0,0	to_board	s594
223.479	0.356	0	PA_without_intermediate	0,0,0,1,0,0,3,0,0	test	ward_and_allport	2,0,0,0,0,0,3,1,0	71.0	26.0	0.356	0,0,0,1,2,3,0,0,0	to_hand	s594
223.837	0.262	0	PA_without_intermediate	2,0,0,1,0,0,3,0,0	test	ward_and_allport	2,0,0,0,0,0,3,1,0	89.0	26.0	0.262	0,0,0,1,2,3,0,0,0	to_board	s594
224.108	0.265	0	PA_without_intermediate	2,0,0,0,0,0,3,0,0	test	ward_and_allport	2,0,0,0,0,0,3,1,0	71.0	26.0	0.265	0,0,0,1,2,3,0,0,0	to_hand	s594
224.375	0.26	0	PA_without_intermediate	2,0,0,0,0,0,3,1,0	test	ward_and_allport	2,0,0,0,0,0,3,1,0	82.0	26.0	0.26	0,0,0,1,2,3,0,0,0	to_board	s594
224.642	1.0	0	PA_without_intermediate	n/a	test	ward_and_allport	n/a	-1.0	26.0	n/a	n/a	feedback	s594
225.642	1.0	0	PA_without_intermediate	n/a	test	ward_and_allport	n/a	-1.0	26.0	n/a	n/a	ITI	s594
226.648	0.938	1	PA_without_intermediate	1,2,0,0,0,0,0,0,0	test	ward_and_allport	0,0,0,2,0,0,3,1,0	89.0	27.0	0.938	1,2,3,0,0,0,0,0,0	to_hand	s594
227.587	0.347	0	PA_without_intermediate	1,2,0,0,0,0,3,0,0	test	ward_and_allport	0,0,0,2,0,0,3,1,0	82.0	27.0	0.347	1,2,3,0,0,0,0,0,0	to_board	s594
227.941	0.431	0	PA_without_intermediate	1,0,0,0,0,0,3,0,0	test	ward_and_allport	0,0,0,2,0,0,3,1,0	89.0	27.0	0.431	1,2,3,0,0,0,0,0,0	to_hand	s594
228.373	0.29	0	PA_without_intermediate	1,0,0,2,0,0,3,0,0	test	ward_and_allport	0,0,0,2,0,0,3,1,0	71.0	27.0	0.29	1,2,3,0,0,0,0,0,0	to_board	s594
228.67	0.243	0	PA_without_intermediate	0,0,0,2,0,0,3,0,0	test	ward_and_allport	0,0,0,2,0,0,3,1,0	89.0	27.0	0.243	1,2,3,0,0,0,0,0,0	to_hand	s594
228.914	0.226	0	PA_without_intermediate	0,0,0,2,0,0,3,1,0	test	ward_and_allport	0,0,0,2,0,0,3,1,0	82.0	27.0	0.226	1,2,3,0,0,0,0,0,0	to_board	s594
229.148	1.0	0	PA_without_intermediate	n/a	test	ward_and_allport	n/a	-1.0	27.0	n/a	n/a	feedback	s594
230.148	1.0	0	PA_without_intermediate	n/a	test	ward_and_allport	n/a	-1.0	27.0	n/a	n/a	ITI	s594
231.154	0.913	1	PA_with_intermediate	1,2,0,0,0,0,0,0,0	test	ward_and_allport	1,0,0,0,0,0,2,3,0	89.0	28.0	0.913	1,2,3,0,0,0,0,0,0	to_hand	s594
232.068	0.546	0	PA_with_intermediate	1,2,0,3,0,0,0,0,0	test	ward_and_allport	1,0,0,0,0,0,2,3,0	71.0	28.0	0.546	1,2,3,0,0,0,0,0,0	to_board	s594
232.621	0.402	0	PA_with_intermediate	1,0,0,3,0,0,0,0,0	test	ward_and_allport	1,0,0,0,0,0,2,3,0	89.0	28.0	0.402	1,2,3,0,0,0,0,0,0	to_hand	s594
233.024	0.307	0	PA_with_intermediate	1,0,0,3,0,0,2,0,0	test	ward_and_allport	1,0,0,0,0,0,2,3,0	82.0	28.0	0.307	1,2,3,0,0,0,0,0,0	to_board	s594
233.339	0.274	0	PA_with_intermediate	1,0,0,0,0,0,2,0,0	test	ward_and_allport	1,0,0,0,0,0,2,3,0	71.0	28.0	0.274	1,2,3,0,0,0,0,0,0	to_hand	s594
233.614	0.27	0	PA_with_intermediate	1,0,0,0,0,0,2,3,0	test	ward_and_allport	1,0,0,0,0,0,2,3,0	82.0	28.0	0.27	1,2,3,0,0,0,0,0,0	to_board	s594
233.895	1.0	0	PA_with_intermediate	n/a	test	ward_and_allport	n/a	-1.0	28.0	n/a	n/a	feedback	s594
234.895	1.544	0	PA_with_intermediate	n/a	test	ward_and_allport	n/a	-1.0	28.0	n/a	n/a	ITI	s594
236.446	0.894	1	PA_without_intermediate	0,0,0,0,0,0,1,2,0	test	ward_and_allport	1,0,0,3,2,0,0,0,0	82.0	29.0	0.894	0,0,0,0,0,0,1,2,3	to_hand	s594
237.341	0.286	0	PA_without_intermediate	0,0,0,3,0,0,1,2,0	test	ward_and_allport	1,0,0,3,2,0,0,0,0	71.0	29.0	0.286	0,0,0,0,0,0,1,2,3	to_board	s594
237.633	0.275	0	PA_without_intermediate	0,0,0,3,0,0,1,0,0	test	ward_and_allport	1,0,0,3,2,0,0,0,0	82.0	29.0	0.275	0,0,0,0,0,0,1,2,3	to_hand	s594
237.909	0.216	0	PA_without_intermediate	0,0,0,3,2,0,1,0,0	test	ward_and_allport	1,0,0,3,2,0,0,0,0	71.0	29.0	0.216	0,0,0,0,0,0,1,2,3	to_board	s594
238.131	0.429	0	PA_without_intermediate	0,0,0,3,2,0,0,0,0	test	ward_and_allport	1,0,0,3,2,0,0,0,0	82.0	29.0	0.429	0,0,0,0,0,0,1,2,3	to_hand	s594
238.56	0.256	0	PA_without_intermediate	1,0,0,3,2,0,0,0,0	test	ward_and_allport	1,0,0,3,2,0,0,0,0	89.0	29.0	0.256	0,0,0,0,0,0,1,2,3	to_board	s594
238.828	1.0	0	PA_without_intermediate	n/a	test	ward_and_allport	n/a	-1.0	29.0	n/a	n/a	feedback	s594
239.828	1.272	0	PA_without_intermediate	n/a	test	ward_and_allport	n/a	-1.0	29.0	n/a	n/a	ITI	s594
246.11	1.039	1	PA_with_intermediate	0,0,0,0,0,0,1,2,0	test	ward_and_allport	0,0,0,2,3,0,1,0,0	82.0	30.0	1.039	0,0,0,0,0,0,1,2,3	to_hand	s594
247.15	1.159	0	PA_with_intermediate	3,0,0,0,0,0,1,2,0	test	ward_and_allport	0,0,0,2,3,0,1,0,0	89.0	30.0	1.159	0,0,0,0,0,0,1,2,3	to_board	s594
248.318	0.43	0	PA_with_intermediate	3,0,0,0,0,0,1,0,0	test	ward_and_allport	0,0,0,2,3,0,1,0,0	82.0	30.0	0.43	0,0,0,0,0,0,1,2,3	to_hand	s594
248.75	0.289	0	PA_with_intermediate	3,0,0,2,0,0,1,0,0	test	ward_and_allport	0,0,0,2,3,0,1,0,0	71.0	30.0	0.289	0,0,0,0,0,0,1,2,3	to_board	s594
249.049	0.242	0	PA_with_intermediate	0,0,0,2,0,0,1,0,0	test	ward_and_allport	0,0,0,2,3,0,1,0,0	89.0	30.0	0.242	0,0,0,0,0,0,1,2,3	to_hand	s594
249.293	0.228	0	PA_with_intermediate	0,0,0,2,3,0,1,0,0	test	ward_and_allport	0,0,0,2,3,0,1,0,0	71.0	30.0	0.228	0,0,0,0,0,0,1,2,3	to_board	s594
249.535	1.0	0	PA_with_intermediate	n/a	test	ward_and_allport	n/a	-1.0	30.0	n/a	n/a	feedback	s594
250.535	3.04	0	PA_with_intermediate	n/a	test	ward_and_allport	n/a	-1.0	30.0	n/a	n/a	ITI	s594
253.586	1.826	1	PA_with_intermediate	0,0,0,1,2,0,0,0,0	test	ward_and_allport	2,3,0,1,0,0,0,0,0	71.0	31.0	1.826	0,0,0,1,2,3,0,0,0	to_hand	s594
255.413	0.811	0	PA_with_intermediate	0,0,0,1,2,0,3,0,0	test	ward_and_allport	2,3,0,1,0,0,0,0,0	82.0	31.0	0.811	0,0,0,1,2,3,0,0,0	to_board	s594
256.231	0.256	0	PA_with_intermediate	0,0,0,1,0,0,3,0,0	test	ward_and_allport	2,3,0,1,0,0,0,0,0	71.0	31.0	0.256	0,0,0,1,2,3,0,0,0	to_hand	s594
256.489	0.248	0	PA_with_intermediate	2,0,0,1,0,0,3,0,0	test	ward_and_allport	2,3,0,1,0,0,0,0,0	89.0	31.0	0.248	0,0,0,1,2,3,0,0,0	to_board	s594
256.745	0.248	0	PA_with_intermediate	2,0,0,1,0,0,0,0,0	test	ward_and_allport	2,3,0,1,0,0,0,0,0	82.0	31.0	0.248	0,0,0,1,2,3,0,0,0	to_hand	s594
256.994	0.503	0	PA_with_intermediate	2,3,0,1,0,0,0,0,0	test	ward_and_allport	2,3,0,1,0,0,0,0,0	89.0	31.0	0.503	0,0,0,1,2,3,0,0,0	to_board	s594
257.509	1.0	0	PA_with_intermediate	n/a	test	ward_and_allport	n/a	-1.0	31.0	n/a	n/a	feedback	s594
258.509	1.272	0	PA_with_intermediate	n/a	test	ward_and_allport	n/a	-1.0	31.0	n/a	n/a	ITI	s594
259.791	1.877	1	PA_with_intermediate	0,0,0,0,0,0,1,2,0	test	ward_and_allport	2,0,0,0,0,0,1,3,0	82.0	32.0	1.877	0,0,0,0,0,0,1,2,3	to_hand	s594
261.669	0.62	0	PA_with_intermediate	0,0,0,3,0,0,1,2,0	test	ward_and_allport	2,0,0,0,0,0,1,3,0	71.0	32.0	0.62	0,0,0,0,0,0,1,2,3	to_board	s594
262.296	0.275	0	PA_with_intermediate	0,0,0,3,0,0,1,0,0	test	ward_and_allport	2,0,0,0,0,0,1,3,0	82.0	32.0	0.275	0,0,0,0,0,0,1,2,3	to_hand	s594
262.572	0.332	0	PA_with_intermediate	2,0,0,3,0,0,1,0,0	test	ward_and_allport	2,0,0,0,0,0,1,3,0	89.0	32.0	0.332	0,0,0,0,0,0,1,2,3	to_board	s594
262.912	0.371	0	PA_with_intermediate	2,0,0,0,0,0,1,0,0	test	ward_and_allport	2,0,0,0,0,0,1,3,0	71.0	32.0	0.371	0,0,0,0,0,0,1,2,3	to_hand	s594
263.284	0.244	0	PA_with_intermediate	2,0,0,0,0,0,1,3,0	test	ward_and_allport	2,0,0,0,0,0,1,3,0	82.0	32.0	0.244	0,0,0,0,0,0,1,2,3	to_board	s594
263.536	1.0	0	PA_with_intermediate	n/a	test	ward_and_allport	n/a	-1.0	32.0	n/a	n/a	feedback	s594
264.536	1.136	0	PA_with_intermediate	n/a	test	ward_and_allport	n/a	-1.0	32.0	n/a	n/a	ITI	s594
265.678	1.38	1	PA_with_intermediate	0,0,0,1,2,0,0,0,0	test	ward_and_allport	0,0,0,1,0,0,2,3,0	71.0	33.0	1.38	0,0,0,1,2,3,0,0,0	to_hand	s594
267.059	0.47	0	PA_with_intermediate	3,0,0,1,2,0,0,0,0	test	ward_and_allport	0,0,0,1,0,0,2,3,0	89.0	33.0	0.47	0,0,0,1,2,3,0,0,0	to_board	s594
267.536	0.334	0	PA_with_intermediate	3,0,0,1,0,0,0,0,0	test	ward_and_allport	0,0,0,1,0,0,2,3,0	71.0	33.0	0.334	0,0,0,1,2,3,0,0,0	to_hand	s594
267.871	0.256	0	PA_with_intermediate	3,0,0,1,0,0,2,0,0	test	ward_and_allport	0,0,0,1,0,0,2,3,0	82.0	33.0	0.256	0,0,0,1,2,3,0,0,0	to_board	s594
268.134	0.255	0	PA_with_intermediate	0,0,0,1,0,0,2,0,0	test	ward_and_allport	0,0,0,1,0,0,2,3,0	89.0	33.0	0.255	0,0,0,1,2,3,0,0,0	to_hand	s594
268.39	0.23	0	PA_with_intermediate	0,0,0,1,0,0,2,3,0	test	ward_and_allport	0,0,0,1,0,0,2,3,0	82.0	33.0	0.23	0,0,0,1,2,3,0,0,0	to_board	s594
268.626	1.0	0	PA_with_intermediate	n/a	test	ward_and_allport	n/a	-1.0	33.0	n/a	n/a	feedback	s594
269.626	1.0	0	PA_with_intermediate	n/a	test	ward_and_allport	n/a	-1.0	33.0	n/a	n/a	ITI	s594
270.633	1.552	1	PA_with_intermediate	1,2,0,0,0,0,0,0,0	test	ward_and_allport	1,3,0,2,0,0,0,0,0	89.0	34.0	1.552	1,2,3,0,0,0,0,0,0	to_hand	s594
272.186	0.937	0	PA_with_intermediate	1,2,0,0,0,0,3,0,0	test	ward_and_allport	1,3,0,2,0,0,0,0,0	82.0	34.0	0.937	1,2,3,0,0,0,0,0,0	to_board	s594
273.13	0.242	0	PA_with_intermediate	1,0,0,0,0,0,3,0,0	test	ward_and_allport	1,3,0,2,0,0,0,0,0	89.0	34.0	0.242	1,2,3,0,0,0,0,0,0	to_hand	s594
273.373	0.28	0	PA_with_intermediate	1,0,0,2,0,0,3,0,0	test	ward_and_allport	1,3,0,2,0,0,0,0,0	71.0	34.0	0.28	1,2,3,0,0,0,0,0,0	to_board	s594
273.66	0.294	0	PA_with_intermediate	1,0,0,2,0,0,0,0,0	test	ward_and_allport	1,3,0,2,0,0,0,0,0	82.0	34.0	0.294	1,2,3,0,0,0,0,0,0	to_hand	s594
273.955	0.234	0	PA_with_intermediate	1,3,0,2,0,0,0,0,0	test	ward_and_allport	1,3,0,2,0,0,0,0,0	89.0	34.0	0.234	1,2,3,0,0,0,0,0,0	to_board	s594
274.2	1.0	0	PA_with_intermediate	n/a	test	ward_and_allport	n/a	-1.0	34.0	n/a	n/a	feedback	s594
275.2	1.0	0	PA_with_intermediate	n/a	test	ward_and_allport	n/a	-1.0	34.0	n/a	n/a	ITI	s594
276.209	1.11	1	PA_without_intermediate	0,0,0,1,2,0,0,0,0	test	ward_and_allport	1,0,0,0,0,0,3,2,0	71.0	35.0	1.11	0,0,0,1,2,3,0,0,0	to_hand	s594
277.32	0.275	0	PA_without_intermediate	0,0,0,1,2,0,3,0,0	test	ward_and_allport	1,0,0,0,0,0,3,2,0	82.0	35.0	0.275	0,0,0,1,2,3,0,0,0	to_board	s594
277.603	0.291	0	PA_without_intermediate	0,0,0,1,0,0,3,0,0	test	ward_and_allport	1,0,0,0,0,0,3,2,0	71.0	35.0	0.291	0,0,0,1,2,3,0,0,0	to_hand	s594
277.895	0.257	0	PA_without_intermediate	0,0,0,1,0,0,3,2,0	test	ward_and_allport	1,0,0,0,0,0,3,2,0	82.0	35.0	0.257	0,0,0,1,2,3,0,0,0	to_board	s594
278.16	0.266	0	PA_without_intermediate	0,0,0,0,0,0,3,2,0	test	ward_and_allport	1,0,0,0,0,0,3,2,0	71.0	35.0	0.266	0,0,0,1,2,3,0,0,0	to_hand	s594
278.427	0.253	0	PA_without_intermediate	1,0,0,0,0,0,3,2,0	test	ward_and_allport	1,0,0,0,0,0,3,2,0	89.0	35.0	0.253	0,0,0,1,2,3,0,0,0	to_board	s594
278.69	1.0	0	PA_without_intermediate	n/a	test	ward_and_allport	n/a	-1.0	35.0	n/a	n/a	feedback	s594
279.69	1.408	0	PA_without_intermediate	n/a	test	ward_and_allport	n/a	-1.0	35.0	n/a	n/a	ITI	s594
281.105	1.112	1	PA_with_intermediate	1,2,0,0,0,0,0,0,0	test	ward_and_allport	1,3,0,0,0,0,2,0,0	89.0	36.0	1.112	1,2,3,0,0,0,0,0,0	to_hand	s594
282.218	0.808	0	PA_with_intermediate	1,2,0,3,0,0,0,0,0	test	ward_and_allport	1,3,0,0,0,0,2,0,0	71.0	36.0	0.808	1,2,3,0,0,0,0,0,0	to_board	s594
283.034	0.263	0	PA_with_intermediate	1,0,0,3,0,0,0,0,0	test	ward_and_allport	1,3,0,0,0,0,2,0,0	89.0	36.0	0.263	1,2,3,0,0,0,0,0,0	to_hand	s594
283.298	0.737	0	PA_with_intermediate	1,0,0,3,0,0,2,0,0	test	ward_and_allport	1,3,0,0,0,0,2,0,0	82.0	36.0	0.737	1,2,3,0,0,0,0,0,0	to_board	s594
284.042	0.389	0	PA_with_intermediate	1,0,0,0,0,0,2,0,0	test	ward_and_allport	1,3,0,0,0,0,2,0,0	71.0	36.0	0.389	1,2,3,0,0,0,0,0,0	to_hand	s594
284.432	1.083	0	PA_with_intermediate	1,3,0,0,0,0,2,0,0	test	ward_and_allport	1,3,0,0,0,0,2,0,0	89.0	36.0	1.083	1,2,3,0,0,0,0,0,0	to_board	s594
285.531	1.0	0	PA_with_intermediate	n/a	test	ward_and_allport	n/a	-1.0	36.0	n/a	n/a	feedback	s594
286.531	2.768	0	PA_with_intermediate	n/a	test	ward_and_allport	n/a	-1.0	36.0	n/a	n/a	ITI	s594
289.311	1.336	1	PA_with_intermediate	1,2,0,0,0,0,0,0,0	test	ward_and_allport	1,0,0,2,3,0,0,0,0	89.0	37.0	1.336	1,2,3,0,0,0,0,0,0	to_hand	s594
290.648	0.537	0	PA_with_intermediate	1,2,0,0,0,0,3,0,0	test	ward_and_allport	1,0,0,2,3,0,0,0,0	82.0	37.0	0.537	1,2,3,0,0,0,0,0,0	to_board	s594
291.198	0.855	0	PA_with_intermediate	1,0,0,0,0,0,3,0,0	test	ward_and_allport	1,0,0,2,3,0,0,0,0	89.0	37.0	0.855	1,2,3,0,0,0,0,0,0	to_hand	s594
292.054	0.363	0	PA_with_intermediate	1,0,0,2,0,0,3,0,0	test	ward_and_allport	1,0,0,2,3,0,0,0,0	71.0	37.0	0.363	1,2,3,0,0,0,0,0,0	to_board	s594
292.425	0.321	0	PA_with_intermediate	1,0,0,2,0,0,0,0,0	test	ward_and_allport	1,0,0,2,3,0,0,0,0	82.0	37.0	0.321	1,2,3,0,0,0,0,0,0	to_hand	s594
292.748	0.233	0	PA_with_intermediate	1,0,0,2,3,0,0,0,0	test	ward_and_allport	1,0,0,2,3,0,0,0,0	71.0	37.0	0.233	1,2,3,0,0,0,0,0,0	to_board	s594
292.993	1.0	0	PA_with_intermediate	n/a	test	ward_and_allport	n/a	-1.0	37.0	n/a	n/a	feedback	s594
293.993	1.68	0	PA_with_intermediate	n/a	test	ward_and_allport	n/a	-1.0	37.0	n/a	n/a	ITI	s594
295.681	0.933	1	PA_without_intermediate	0,0,0,1,2,0,0,0,0	test	ward_and_allport	3,2,0,0,0,0,1,0,0	71.0	38.0	0.933	0,0,0,1,2,3,0,0,0	to_hand	s594
296.615	0.241	0	PA_without_intermediate	3,0,0,1,2,0,0,0,0	test	ward_and_allport	3,2,0,0,0,0,1,0,0	89.0	38.0	0.241	0,0,0,1,2,3,0,0,0	to_board	s594
296.864	0.24	0	PA_without_intermediate	3,0,0,1,0,0,0,0,0	test	ward_and_allport	3,2,0,0,0,0,1,0,0	71.0	38.0	0.24	0,0,0,1,2,3,0,0,0	to_hand	s594
297.105	0.222	0	PA_without_intermediate	3,2,0,1,0,0,0,0,0	test	ward_and_allport	3,2,0,0,0,0,1,0,0	89.0	38.0	0.222	0,0,0,1,2,3,0,0,0	to_board	s594
297.335	0.436	0	PA_without_intermediate	3,2,0,0,0,0,0,0,0	test	ward_and_allport	3,2,0,0,0,0,1,0,0	71.0	38.0	0.436	0,0,0,1,2,3,0,0,0	to_hand	s594
297.772	0.246	0	PA_without_intermediate	3,2,0,0,0,0,1,0,0	test	ward_and_allport	3,2,0,0,0,0,1,0,0	82.0	38.0	0.246	0,0,0,1,2,3,0,0,0	to_board	s594
298.026	1.0	0	PA_without_intermediate	n/a	test	ward_and_allport	n/a	-1.0	38.0	n/a	n/a	feedback	s594
299.026	2.224	0	PA_without_intermediate	n/a	test	ward_and_allport	n/a	-1.0	38.0	n/a	n/a	ITI	s594
301.259	1.143	1	PA_without_intermediate	1,2,0,0,0,0,0,0,0	test	ward_and_allport	0,0,0,1,0,0,3,2,0	89.0	39.0	1.143	1,2,3,0,0,0,0,0,0	to_hand	s594
302.403	0.351	0	PA_without_intermediate	1,2,0,0,0,0,3,0,0	test	ward_and_allport	0,0,0,1,0,0,3,2,0	82.0	39.0	0.351	1,2,3,0,0,0,0,0,0	to_board	s594
302.762	0.557	0	PA_without_intermediate	1,0,0,0,0,0,3,0,0	test	ward_and_allport	0,0,0,1,0,0,3,2,0	89.0	39.0	0.557	1,2,3,0,0,0,0,0,0	to_hand	s594
303.32	0.254	0	PA_without_intermediate	1,0,0,0,0,0,3,2,0	test	ward_and_allport	0,0,0,1,0,0,3,2,0	82.0	39.0	0.254	1,2,3,0,0,0,0,0,0	to_board	s594
303.587	0.342	0	PA_without_intermediate	0,0,0,0,0,0,3,2,0	test	ward_and_allport	0,0,0,1,0,0,3,2,0	89.0	39.0	0.342	1,2,3,0,0,0,0,0,0	to_hand	s594
303.93	0.193	0	PA_without_intermediate	0,0,0,1,0,0,3,2,0	test	ward_and_allport	0,0,0,1,0,0,3,2,0	71.0	39.0	0.193	1,2,3,0,0,0,0,0,0	to_board	s594
304.137	1.0	0	PA_without_intermediate	n/a	test	ward_and_allport	n/a	-1.0	39.0	n/a	n/a	feedback	s594
305.137	2.36	0	PA_without_intermediate	n/a	test	ward_and_allport	n/a	-1.0	39.0	n/a	n/a	ITI	s594
307.506	0.832	1	PA_without_intermediate	0,0,0,0,0,0,1,2,0	test	ward_and_allport	2,0,0,3,1,0,0,0,0	82.0	40.0	0.832	0,0,0,0,0,0,1,2,3	to_hand	s594
308.339	0.303	0	PA_without_intermediate	0,0,0,3,0,0,1,2,0	test	ward_and_allport	2,0,0,3,1,0,0,0,0	71.0	40.0	0.303	0,0,0,0,0,0,1,2,3	to_board	s594
308.652	0.304	0	PA_without_intermediate	0,0,0,3,0,0,1,0,0	test	ward_and_allport	2,0,0,3,1,0,0,0,0	82.0	40.0	0.304	0,0,0,0,0,0,1,2,3	to_hand	s594
308.957	0.261	0	PA_without_intermediate	2,0,0,3,0,0,1,0,0	test	ward_and_allport	2,0,0,3,1,0,0,0,0	89.0	40.0	0.261	0,0,0,0,0,0,1,2,3	to_board	s594
309.226	0.536	0	PA_without_intermediate	2,0,0,3,0,0,0,0,0	test	ward_and_allport	2,0,0,3,1,0,0,0,0	82.0	40.0	0.536	0,0,0,0,0,0,1,2,3	to_hand	s594
309.763	0.329	0	PA_without_intermediate	2,0,0,3,1,0,0,0,0	test	ward_and_allport	2,0,0,3,1,0,0,0,0	71.0	40.0	0.329	0,0,0,0,0,0,1,2,3	to_board	s594
310.103	1.0	0	PA_without_intermediate	n/a	test	ward_and_allport	n/a	-1.0	40.0	n/a	n/a	feedback	s594
311.103	1.0	0	PA_without_intermediate	n/a	test	ward_and_allport	n/a	-1.0	40.0	n/a	n/a	ITI	s594
312.11	1.084	1	PA_without_intermediate	0,0,0,1,2,0,0,0,0	test	ward_and_allport	3,1,0,0,0,0,2,0,0	71.0	41.0	1.084	0,0,0,1,2,3,0,0,0	to_hand	s594
313.195	0.308	0	PA_without_intermediate	3,0,0,1,2,0,0,0,0	test	ward_and_allport	3,1,0,0,0,0,2,0,0	89.0	41.0	0.308	0,0,0,1,2,3,0,0,0	to_board	s594
313.511	0.33	0	PA_without_intermediate	3,0,0,1,0,0,0,0,0	test	ward_and_allport	3,1,0,0,0,0,2,0,0	71.0	41.0	0.33	0,0,0,1,2,3,0,0,0	to_hand	s594
313.842	0.25	0	PA_without_intermediate	3,0,0,1,0,0,2,0,0	test	ward_and_allport	3,1,0,0,0,0,2,0,0	82.0	41.0	0.25	0,0,0,1,2,3,0,0,0	to_board	s594
314.101	0.269	0	PA_without_intermediate	3,0,0,0,0,0,2,0,0	test	ward_and_allport	3,1,0,0,0,0,2,0,0	71.0	41.0	0.269	0,0,0,1,2,3,0,0,0	to_hand	s594
314.371	0.342	0	PA_without_intermediate	3,1,0,0,0,0,2,0,0	test	ward_and_allport	3,1,0,0,0,0,2,0,0	89.0	41.0	0.342	0,0,0,1,2,3,0,0,0	to_board	s594
314.727	1.0	0	PA_without_intermediate	n/a	test	ward_and_allport	n/a	-1.0	41.0	n/a	n/a	feedback	s594
315.727	1.408	0	PA_without_intermediate	n/a	test	ward_and_allport	n/a	-1.0	41.0	n/a	n/a	ITI	s594
317.142	0.744	1	PA_with_intermediate	0,0,0,0,0,0,1,2,0	test	ward_and_allport	2,3,0,0,0,0,1,0,0	82.0	42.0	0.744	0,0,0,0,0,0,1,2,3	to_hand	s594
317.887	0.582	0	PA_with_intermediate	0,0,0,3,0,0,1,2,0	test	ward_and_allport	2,3,0,0,0,0,1,0,0	71.0	42.0	0.582	0,0,0,0,0,0,1,2,3	to_board	s594
318.478	0.706	0	PA_with_intermediate	0,0,0,3,0,0,1,0,0	test	ward_and_allport	2,3,0,0,0,0,1,0,0	82.0	42.0	0.706	0,0,0,0,0,0,1,2,3	to_hand	s594
319.185	0.451	0	PA_with_intermediate	2,0,0,3,0,0,1,0,0	test	ward_and_allport	2,3,0,0,0,0,1,0,0	89.0	42.0	0.451	0,0,0,0,0,0,1,2,3	to_board	s594
319.643	0.305	0	PA_with_intermediate	2,0,0,0,0,0,1,0,0	test	ward_and_allport	2,3,0,0,0,0,1,0,0	71.0	42.0	0.305	0,0,0,0,0,0,1,2,3	to_hand	s594
319.949	0.308	0	PA_with_intermediate	2,3,0,0,0,0,1,0,0	test	ward_and_allport	2,3,0,0,0,0,1,0,0	89.0	42.0	0.308	0,0,0,0,0,0,1,2,3	to_board	s594
320.268	1.0	0	PA_with_intermediate	n/a	test	ward_and_allport	n/a	-1.0	42.0	n/a	n/a	feedback	s594
321.268	1.136	0	PA_with_intermediate	n/a	test	ward_and_allport	n/a	-1.0	42.0	n/a	n/a	ITI	s594
322.413	0.963	1	PA_without_intermediate	1,2,0,0,0,0,0,0,0	test	ward_and_allport	0,0,0,2,0,0,3,1,0	89.0	43.0	0.963	1,2,3,0,0,0,0,0,0	to_hand	s594
323.377	0.521	0	PA_without_intermediate	1,2,0,0,0,0,3,0,0	test	ward_and_allport	0,0,0,2,0,0,3,1,0	82.0	43.0	0.521	1,2,3,0,0,0,0,0,0	to_board	s594
323.907	0.485	0	PA_without_intermediate	1,0,0,0,0,0,3,0,0	test	ward_and_allport	0,0,0,2,0,0,3,1,0	89.0	43.0	0.485	1,2,3,0,0,0,0,0,0	to_hand	s594
324.394	0.269	0	PA_without_intermediate	1,0,0,2,0,0,3,0,0	test	ward_and_allport	0,0,0,2,0,0,3,1,0	71.0	43.0	0.269	1,2,3,0,0,0,0,0,0	to_board	s594
324.671	0.264	0	PA_without_intermediate	0,0,0,2,0,0,3,0,0	test	ward_and_allport	0,0,0,2,0,0,3,1,0	89.0	43.0	0.264	1,2,3,0,0,0,0,0,0	to_hand	s594
324.936	0.317	0	PA_without_intermediate	0,0,0,2,0,0,3,1,0	test	ward_and_allport	0,0,0,2,0,0,3,1,0	82.0	43.0	0.317	1,2,3,0,0,0,0,0,0	to_board	s594
325.265	1.0	0	PA_without_intermediate	n/a	test	ward_and_allport	n/a	-1.0	43.0	n/a	n/a	feedback	s594
326.265	4.128	0	PA_without_intermediate	n/a	test	ward_and_allport	n/a	-1.0	43.0	n/a	n/a	ITI	s594
330.403	1.129	1	PA_without_intermediate	1,2,0,0,0,0,0,0,0	test	ward_and_allport	0,0,0,3,1,0,2,0,0	89.0	44.0	1.129	1,2,3,0,0,0,0,0,0	to_hand	s594
331.533	0.327	0	PA_without_intermediate	1,2,0,3,0,0,0,0,0	test	ward_and_allport	0,0,0,3,1,0,2,0,0	71.0	44.0	0.327	1,2,3,0,0,0,0,0,0	to_board	s594
331.872	0.297	0	PA_without_intermediate	1,0,0,3,0,0,0,0,0	test	ward_and_allport	0,0,0,3,1,0,2,0,0	89.0	44.0	0.297	1,2,3,0,0,0,0,0,0	to_hand	s594
332.17	0.285	0	PA_without_intermediate	1,0,0,3,0,0,2,0,0	test	ward_and_allport	0,0,0,3,1,0,2,0,0	82.0	44.0	0.285	1,2,3,0,0,0,0,0,0	to_board	s594
332.469	0.317	0	PA_without_intermediate	0,0,0,3,0,0,2,0,0	test	ward_and_allport	0,0,0,3,1,0,2,0,0	89.0	44.0	0.317	1,2,3,0,0,0,0,0,0	to_hand	s594
332.787	0.26	0	PA_without_intermediate	0,0,0,3,1,0,2,0,0	test	ward_and_allport	0,0,0,3,1,0,2,0,0	71.0	44.0	0.26	1,2,3,0,0,0,0,0,0	to_board	s594
333.063	1.0	0	PA_without_intermediate	n/a	test	ward_and_allport	n/a	-1.0	44.0	n/a	n/a	feedback	s594
334.063	1.136	0	PA_without_intermediate	n/a	test	ward_and_allport	n/a	-1.0	44.0	n/a	n/a	ITI	s594
340.214	0.944	1	PA_without_intermediate	1,2,0,0,0,0,0,0,0	test	ward_and_allport	0,0,0,3,2,0,1,0,0	89.0	45.0	0.944	1,2,3,0,0,0,0,0,0	to_hand	s594
341.16	0.272	0	PA_without_intermediate	1,2,0,3,0,0,0,0,0	test	ward_and_allport	0,0,0,3,2,0,1,0,0	71.0	45.0	0.272	1,2,3,0,0,0,0,0,0	to_board	s594
341.444	0.257	0	PA_without_intermediate	1,0,0,3,0,0,0,0,0	test	ward_and_allport	0,0,0,3,2,0,1,0,0	89.0	45.0	0.257	1,2,3,0,0,0,0,0,0	to_hand	s594
341.703	0.226	0	PA_without_intermediate	1,0,0,3,2,0,0,0,0	test	ward_and_allport	0,0,0,3,2,0,1,0,0	71.0	45.0	0.226	1,2,3,0,0,0,0,0,0	to_board	s594
341.943	0.213	0	PA_without_intermediate	0,0,0,3,2,0,0,0,0	test	ward_and_allport	0,0,0,3,2,0,1,0,0	89.0	45.0	0.213	1,2,3,0,0,0,0,0,0	to_hand	s594
342.158	0.236	0	PA_without_intermediate	0,0,0,3,2,0,1,0,0	test	ward_and_allport	0,0,0,3,2,0,1,0,0	82.0	45.0	0.236	1,2,3,0,0,0,0,0,0	to_board	s594
342.411	1.0	0	PA_without_intermediate	n/a	test	ward_and_allport	n/a	-1.0	45.0	n/a	n/a	feedback	s594
343.411	4.264	0	PA_without_intermediate	n/a	test	ward_and_allport	n/a	-1.0	45.0	n/a	n/a	ITI	s594
347.687	1.465	1	PA_with_intermediate	0,0,0,1,2,0,0,0,0	test	ward_and_allport	2,0,0,1,3,0,0,0,0	71.0	46.0	1.465	0,0,0,1,2,3,0,0,0	to_hand	s594
349.153	0.328	0	PA_with_intermediate	0,0,0,1,2,0,3,0,0	test	ward_and_allport	2,0,0,1,3,0,0,0,0	82.0	46.0	0.328	0,0,0,1,2,3,0,0,0	to_board	s594
349.494	0.461	0	PA_with_intermediate	0,0,0,1,0,0,3,0,0	test	ward_and_allport	2,0,0,1,3,0,0,0,0	71.0	46.0	0.461	0,0,0,1,2,3,0,0,0	to_hand	s594
349.957	0.261	0	PA_with_intermediate	2,0,0,1,0,0,3,0,0	test	ward_and_allport	2,0,0,1,3,0,0,0,0	89.0	46.0	0.261	0,0,0,1,2,3,0,0,0	to_board	s594
350.232	0.619	0	PA_with_intermediate	2,0,0,1,0,0,0,0,0	test	ward_and_allport	2,0,0,1,3,0,0,0,0	82.0	46.0	0.619	0,0,0,1,2,3,0,0,0	to_hand	s594
350.852	0.313	0	PA_with_intermediate	2,0,0,1,3,0,0,0,0	test	ward_and_allport	2,0,0,1,3,0,0,0,0	71.0	46.0	0.313	0,0,0,1,2,3,0,0,0	to_board	s594
351.176	1.0	0	PA_with_intermediate	n/a	test	ward_and_allport	n/a	-1.0	46.0	n/a	n/a	feedback	s594
352.176	3.04	0	PA_with_intermediate	n/a	test	ward_and_allport	n/a	-1.0	46.0	n/a	n/a	ITI	s594
355.227	1.406	1	PA_with_intermediate	0,0,0,0,0,0,1,2,0	test	ward_and_allport	2,0,0,0,0,0,1,3,0	82.0	47.0	1.406	0,0,0,0,0,0,1,2,3	to_hand	s594
356.634	0.357	0	PA_with_intermediate	0,0,0,3,0,0,1,2,0	test	ward_and_allport	2,0,0,0,0,0,1,3,0	71.0	47.0	0.357	0,0,0,0,0,0,1,2,3	to_board	s594
357.004	0.235	0	PA_with_intermediate	0,0,0,3,0,0,1,0,0	test	ward_and_allport	2,0,0,0,0,0,1,3,0	82.0	47.0	0.235	0,0,0,0,0,0,1,2,3	to_hand	s594
357.24	0.221	0	PA_with_intermediate	2,0,0,3,0,0,1,0,0	test	ward_and_allport	2,0,0,0,0,0,1,3,0	89.0	47.0	0.221	0,0,0,0,0,0,1,2,3	to_board	s594
357.475	0.254	0	PA_with_intermediate	2,0,0,0,0,0,1,0,0	test	ward_and_allport	2,0,0,0,0,0,1,3,0	71.0	47.0	0.254	0,0,0,0,0,0,1,2,3	to_hand	s594
357.73	0.255	0	PA_with_intermediate	2,0,0,0,0,0,1,3,0	test	ward_and_allport	2,0,0,0,0,0,1,3,0	82.0	47.0	0.255	0,0,0,0,0,0,1,2,3	to_board	s594
357.998	1.0	0	PA_with_intermediate	n/a	test	ward_and_allport	n/a	-1.0	47.0	n/a	n/a	feedback	s594
358.998	1.136	0	PA_with_intermediate	n/a	test	ward_and_allport	n/a	-1.0	47.0	n/a	n/a	ITI	s594
n/a	n/a	0	n/a	n/a	n/a	n/a	n/a	n/a	n/a	n/a	n/a	ITI	n/a
