onset	duration	EV	action	clicked_on_loss_card	experiment_exp_id	gain_amount	gain_probability	key_press	loss_amount	loss_probability	num_cards	num_click_in_round	num_loss_cards	risk	response_time	total_cards	trial_id	worker_id
3.014	2.295	-0.6669777068505882	draw_card	1.0	columbia_card_task_fmri	12.0	0.8333333333333334	89.0	-70.0	0.1666666666666666	6.0	1.0	1.0	-1.087933313213764	2.295	1.0	stim	s594
5.314	2.25	n/a	-1.0	n/a	columbia_card_task_fmri	n/a	n/a	-1.0	n/a	n/a	n/a	n/a	n/a	n/a	n/a	n/a	feedback	s594
7.564	0.0	n/a	-1.0	n/a	columbia_card_task_fmri	n/a	n/a	-1.0	n/a	n/a	n/a	n/a	n/a	n/a	n/a	n/a	ITI	s594
7.566	2.662	0.1663556264827457	draw_card	0.0	columbia_card_task_fmri	14.0	0.8333333333333334	89.0	-75.0	0.1666666666666666	6.0	1.0	1.0	1.5195275558539194	2.662	n/a	stim	s594
10.23	1.531	-2.800311040183921	draw_card	0.0	columbia_card_task_fmri	14.0	0.8	89.0	-75.0	0.2	6.0	2.0	1.0	3.950157512114828	1.531	n/a	stim	s594
11.762	0.903	-7.250311040183922	end_round	0.0	columbia_card_task_fmri	14.0	0.75	71.0	-75.0	0.25	6.0	3.0	1.0	6.887218451561303	0.903	2.0	stim	s594
12.67	2.25	n/a	-1.0	n/a	columbia_card_task_fmri	n/a	n/a	-1.0	n/a	n/a	n/a	n/a	n/a	n/a	n/a	n/a	feedback	s594
14.92	0.136	n/a	-1.0	n/a	columbia_card_task_fmri	n/a	n/a	-1.0	n/a	n/a	n/a	n/a	n/a	n/a	n/a	n/a	ITI	s594
15.058	2.424	1.833022293149412	draw_card	0.0	columbia_card_task_fmri	15.0	0.8333333333333334	89.0	-70.0	0.1666666666666666	6.0	1.0	1.0	0.0295240175967954	2.424	n/a	stim	s594
17.484	0.953	-1.000311040183922	draw_card	0.0	columbia_card_task_fmri	15.0	0.8	89.0	-70.0	0.2	6.0	2.0	1.0	2.3508176305200905	0.953	n/a	stim	s594
18.439	2.808	-5.250311040183922	draw_card	0.0	columbia_card_task_fmri	15.0	0.75	89.0	-70.0	0.25	6.0	3.0	1.0	5.155777490640212	2.808	n/a	stim	s594
21.25	0.997	-12.333644373517252	end_round	0.0	columbia_card_task_fmri	15.0	0.6666666666666667	71.0	-70.0	0.3333333333333333	6.0	4.0	1.0	8.417976990886658	0.997	3.0	stim	s594
22.253	2.25	n/a	-1.0	n/a	columbia_card_task_fmri	n/a	n/a	-1.0	n/a	n/a	n/a	n/a	n/a	n/a	n/a	n/a	feedback	s594
24.503	0.34	n/a	-1.0	n/a	columbia_card_task_fmri	n/a	n/a	-1.0	n/a	n/a	n/a	n/a	n/a	n/a	n/a	n/a	ITI	s594
24.845	1.753	2.666355626482746	draw_card	0.0	columbia_card_task_fmri	17.0	0.8333333333333334	89.0	-75.0	0.1666666666666666	6.0	1.0	1.0	2.6370706104621107	1.753	n/a	stim	s594
26.6	0.969	-0.4003110401839207	draw_card	1.0	columbia_card_task_fmri	17.0	0.8	89.0	-75.0	0.2	6.0	2.0	1.0	5.14970007147074	0.969	2.0	stim	s594
27.572	2.25	n/a	-1.0	n/a	columbia_card_task_fmri	n/a	n/a	-1.0	n/a	n/a	n/a	n/a	n/a	n/a	n/a	n/a	feedback	s594
29.822	0.408	n/a	-1.0	n/a	columbia_card_task_fmri	n/a	n/a	-1.0	n/a	n/a	n/a	n/a	n/a	n/a	n/a	n/a	ITI	s594
30.232	1.852	3.999688959816078	draw_card	0.0	columbia_card_task_fmri	24.0	0.75	89.0	-60.0	0.25	8.0	1.0	2.0	4.722926320487282	1.852	n/a	stim	s594
32.085	1.355	0.999688959816078	draw_card	1.0	columbia_card_task_fmri	24.0	0.7142857142857143	89.0	-60.0	0.2857142857142857	8.0	2.0	2.0	6.29662166968977	1.355	2.0	stim	s594
33.444	2.25	n/a	-1.0	n/a	columbia_card_task_fmri	n/a	n/a	-1.0	n/a	n/a	n/a	n/a	n/a	n/a	n/a	n/a	feedback	s594
35.694	0.136	n/a	-1.0	n/a	columbia_card_task_fmri	n/a	n/a	-1.0	n/a	n/a	n/a	n/a	n/a	n/a	n/a	n/a	ITI	s594
35.831	2.071	3.999688959816078	draw_card	0.0	columbia_card_task_fmri	29.0	0.75	89.0	-75.0	0.25	8.0	1.0	2.0	13.380539684102402	2.071	n/a	stim	s594
37.903	1.534	0.2854032455303661	draw_card	0.0	columbia_card_task_fmri	29.0	0.7142857142857143	89.0	-75.0	0.2857142857142857	8.0	2.0	2.0	15.329169478778148	1.534	n/a	stim	s594
39.439	1.018	-4.666977706850586	end_round	0.0	columbia_card_task_fmri	29.0	0.6666666666666667	71.0	-75.0	0.3333333333333333	8.0	3.0	2.0	17.372385485115174	1.018	2.0	stim	s594
40.459	2.25	n/a	-1.0	n/a	columbia_card_task_fmri	n/a	n/a	-1.0	n/a	n/a	n/a	n/a	n/a	n/a	n/a	n/a	feedback	s594
42.709	0.136	n/a	-1.0	n/a	columbia_card_task_fmri	n/a	n/a	-1.0	n/a	n/a	n/a	n/a	n/a	n/a	n/a	n/a	ITI	s594
42.847	1.988	-0.2225332624061418	draw_card	0.0	columbia_card_task_fmri	17.0	0.7777777777777778	89.0	-65.0	0.2222222222222222	9.0	1.0	2.0	2.441434763823892	1.988	n/a	stim	s594
44.837	1.055	-2.500311040183922	draw_card	0.0	columbia_card_task_fmri	17.0	0.75	89.0	-65.0	0.25	9.0	2.0	2.0	3.857235792693501	1.055	n/a	stim	s594
45.894	1.734	-5.428882468755349	draw_card	0.0	columbia_card_task_fmri	17.0	0.7142857142857143	89.0	-65.0	0.2857142857142857	9.0	3.0	2.0	5.393434765397799	1.734	n/a	stim	s594
47.63	1.159	-9.333644373517252	end_round	0.0	columbia_card_task_fmri	17.0	0.6666666666666667	71.0	-65.0	0.3333333333333333	9.0	4.0	2.0	7.004219448984841	1.159	3.0	stim	s594
48.791	2.25	n/a	-1.0	n/a	columbia_card_task_fmri	n/a	n/a	-1.0	n/a	n/a	n/a	n/a	n/a	n/a	n/a	n/a	feedback	s594
51.041	0.0	n/a	-1.0	n/a	columbia_card_task_fmri	n/a	n/a	-1.0	n/a	n/a	n/a	n/a	n/a	n/a	n/a	n/a	ITI	s594
51.043	2.411	4.099688959816078	draw_card	1.0	columbia_card_task_fmri	14.0	0.9	89.0	-95.0	0.1	10.0	1.0	1.0	1.0514015106101835	2.411	1.0	stim	s594
53.456	2.25	n/a	-1.0	n/a	columbia_card_task_fmri	n/a	n/a	-1.0	n/a	n/a	n/a	n/a	n/a	n/a	n/a	n/a	feedback	s594
55.706	0.068	n/a	-1.0	n/a	columbia_card_task_fmri	n/a	n/a	-1.0	n/a	n/a	n/a	n/a	n/a	n/a	n/a	n/a	ITI	s594
55.777	2.372	-0.0003110401839221	draw_card	0.0	columbia_card_task_fmri	15.0	0.8	89.0	-65.0	0.2	10.0	1.0	2.0	0.3517355434062779	2.372	n/a	stim	s594
58.151	1.322	-1.778088817961699	draw_card	0.0	columbia_card_task_fmri	15.0	0.7777777777777778	89.0	-65.0	0.2222222222222222	10.0	2.0	2.0	1.6103215437523275	1.322	n/a	stim	s594
59.474	0.957	-4.000311040183922	end_round	0.0	columbia_card_task_fmri	15.0	0.75	71.0	-65.0	0.25	10.0	3.0	2.0	2.991561998499492	0.957	2.0	stim	s594
60.434	2.25	n/a	-1.0	n/a	columbia_card_task_fmri	n/a	n/a	-1.0	n/a	n/a	n/a	n/a	n/a	n/a	n/a	n/a	feedback	s594
62.684	0.0	n/a	-1.0	n/a	columbia_card_task_fmri	n/a	n/a	-1.0	n/a	n/a	n/a	n/a	n/a	n/a	n/a	n/a	ITI	s594
62.686	2.009	1.5996889598160793	draw_card	0.0	columbia_card_task_fmri	17.0	0.8	89.0	-65.0	0.2	10.0	1.0	2.0	1.1513549546989026	2.009	n/a	stim	s594
64.697	0.803	-0.2225332624061418	draw_card	0.0	columbia_card_task_fmri	17.0	0.7777777777777778	89.0	-65.0	0.2222222222222222	10.0	2.0	2.0	2.441434763823892	0.803	n/a	stim	s594
65.502	1.007	-2.500311040183922	end_round	0.0	columbia_card_task_fmri	17.0	0.75	71.0	-65.0	0.25	10.0	3.0	2.0	3.857235792693501	1.007	2.0	stim	s594
66.515	2.25	n/a	-1.0	n/a	columbia_card_task_fmri	n/a	n/a	-1.0	n/a	n/a	n/a	n/a	n/a	n/a	n/a	n/a	feedback	s594
68.765	0.0	n/a	-1.0	n/a	columbia_card_task_fmri	n/a	n/a	-1.0	n/a	n/a	n/a	n/a	n/a	n/a	n/a	n/a	ITI	s594
68.767	2.525	0.1663556264827457	draw_card	0.0	columbia_card_task_fmri	13.0	0.8333333333333334	89.0	-70.0	0.1666666666666666	12.0	1.0	2.0	-0.7154521644563303	2.525	n/a	stim	s594
71.294	0.953	-1.0912201310930156	draw_card	0.0	columbia_card_task_fmri	13.0	0.8181818181818181	89.0	-70.0	0.1818181818181818	12.0	2.0	2.0	0.3643818335979958	0.953	n/a	stim	s594
72.249	0.766	-2.6003110401839216	end_round	0.0	columbia_card_task_fmri	13.0	0.8	71.0	-70.0	0.2	12.0	3.0	2.0	1.5511715337037586	0.766	2.0	stim	s594
73.019	2.25	n/a	-1.0	n/a	columbia_card_task_fmri	n/a	n/a	-1.0	n/a	n/a	n/a	n/a	n/a	n/a	n/a	n/a	feedback	s594
75.269	0.136	n/a	-1.0	n/a	columbia_card_task_fmri	n/a	n/a	-1.0	n/a	n/a	n/a	n/a	n/a	n/a	n/a	n/a	ITI	s594
75.407	2.625	0.1663556264827457	end_round	0.0	columbia_card_task_fmri	15.0	0.8333333333333334	71.0	-80.0	0.1666666666666666	12.0	1.0	2.0	3.754644652292768	2.625	0.0	stim	s594
78.038	2.25	n/a	-1.0	n/a	columbia_card_task_fmri	n/a	n/a	-1.0	n/a	n/a	n/a	n/a	n/a	n/a	n/a	n/a	feedback	s594
80.288	0.136	n/a	-1.0	n/a	columbia_card_task_fmri	n/a	n/a	-1.0	n/a	n/a	n/a	n/a	n/a	n/a	n/a	n/a	ITI	s594
80.427	1.818	-0.8003110401839211	draw_card	0.0	columbia_card_task_fmri	14.0	0.8	89.0	-65.0	0.2	15.0	1.0	3.0	-0.048066941202844	1.818	n/a	stim	s594
82.247	0.716	-1.9288824687553487	draw_card	0.0	columbia_card_task_fmri	14.0	0.7857142857142857	89.0	-65.0	0.2142857142857142	15.0	2.0	3.0	0.7672817776890355	0.716	n/a	stim	s594
82.965	0.481	-3.2310802709531536	draw_card	0.0	columbia_card_task_fmri	14.0	0.7692307692307692	89.0	-65.0	0.2307692307692307	15.0	3.0	3.0	1.635811763750219	0.481	n/a	stim	s594
83.448	0.695	-4.750311040183922	draw_card	0.0	columbia_card_task_fmri	14.0	0.75	89.0	-65.0	0.25	15.0	4.0	3.0	2.558731773330919	0.695	n/a	stim	s594
84.145	0.7	-6.545765585638467	draw_card	1.0	columbia_card_task_fmri	14.0	0.7272727272727273	89.0	-65.0	0.2727272727272727	15.0	5.0	3.0	3.5339034820131587	0.7	5.0	stim	s594
84.85	2.25	n/a	-1.0	n/a	columbia_card_task_fmri	n/a	n/a	-1.0	n/a	n/a	n/a	n/a	n/a	n/a	n/a	n/a	feedback	s594
87.1	0.476	n/a	-1.0	n/a	columbia_card_task_fmri	n/a	n/a	-1.0	n/a	n/a	n/a	n/a	n/a	n/a	n/a	n/a	ITI	s594
87.578	2.401	-0.8753110401839221	draw_card	0.0	columbia_card_task_fmri	1.0	0.9375	89.0	-45.0	0.0625	16.0	1.0	1.0	-20.48426265331273	2.401	n/a	stim	s594
89.982	0.854	-1.0669777068505886	draw_card	0.0	columbia_card_task_fmri	1.0	0.9333333333333332	89.0	-45.0	0.0666666666666666	16.0	2.0	1.0	-20.145994169949603	0.854	n/a	stim	s594
90.838	1.077	-1.2860253258982075	draw_card	1.0	columbia_card_task_fmri	1.0	0.9285714285714286	89.0	-45.0	0.0714285714285714	16.0	3.0	1.0	-19.774960218641525	1.077	3.0	stim	s594
91.922	2.25	n/a	-1.0	n/a	columbia_card_task_fmri	n/a	n/a	-1.0	n/a	n/a	n/a	n/a	n/a	n/a	n/a	n/a	feedback	s594
94.172	0.204	n/a	-1.0	n/a	columbia_card_task_fmri	n/a	n/a	-1.0	n/a	n/a	n/a	n/a	n/a	n/a	n/a	n/a	ITI	s594
94.378	2.045	0.0621889598160778	draw_card	0.0	columbia_card_task_fmri	15.0	0.8125	89.0	-70.0	0.1875	16.0	1.0	3.0	1.5277340304417135	2.045	n/a	stim	s594
96.425	0.671	-1.000311040183922	draw_card	1.0	columbia_card_task_fmri	15.0	0.8	89.0	-70.0	0.2	16.0	2.0	3.0	2.3508176305200905	0.671	2.0	stim	s594
97.099	2.25	n/a	-1.0	n/a	columbia_card_task_fmri	n/a	n/a	-1.0	n/a	n/a	n/a	n/a	n/a	n/a	n/a	n/a	feedback	s594
99.349	0.068	n/a	-1.0	n/a	columbia_card_task_fmri	n/a	n/a	-1.0	n/a	n/a	n/a	n/a	n/a	n/a	n/a	n/a	ITI	s594
99.419	1.711	6.999688959816078	draw_card	0.0	columbia_card_task_fmri	30.0	0.7	89.0	-50.0	0.3	10.0	1.0	3.0	5.01035723193624	1.711	n/a	stim	s594
101.132	1.706	4.333022293149417	draw_card	0.0	columbia_card_task_fmri	30.0	0.6666666666666667	89.0	-50.0	0.3333333333333333	10.0	2.0	3.0	6.061733412173346	1.706	n/a	stim	s594
102.841	0.681	0.999688959816078	end_round	0.0	columbia_card_task_fmri	30.0	0.625	71.0	-50.0	0.375	10.0	3.0	3.0	7.078857298517136	0.681	2.0	stim	s594
103.528	2.25	n/a	-1.0	n/a	columbia_card_task_fmri	n/a	n/a	-1.0	n/a	n/a	n/a	n/a	n/a	n/a	n/a	n/a	feedback	s594
105.778	0.068	n/a	-1.0	n/a	columbia_card_task_fmri	n/a	n/a	-1.0	n/a	n/a	n/a	n/a	n/a	n/a	n/a	n/a	ITI	s594
105.85	1.733	6.399688959816078	draw_card	0.0	columbia_card_task_fmri	17.0	0.8666666666666667	89.0	-70.0	0.1333333333333333	15.0	1.0	2.0	-2.0726715270676266	1.733	n/a	stim	s594
107.584	0.649	5.571117531244651	draw_card	0.0	columbia_card_task_fmri	17.0	0.8571428571428572	89.0	-70.0	0.1428571428571428	15.0	2.0	2.0	-1.2038085540612329	0.649	n/a	stim	s594
108.237	0.617	4.615073575200693	draw_card	0.0	columbia_card_task_fmri	17.0	0.8461538461538461	89.0	-70.0	0.1538461538461538	15.0	3.0	2.0	-0.2582556131910287	0.617	n/a	stim	s594
108.856	2.566	3.49968895981608	draw_card	0.0	columbia_card_task_fmri	17.0	0.8333333333333334	89.0	-70.0	0.1666666666666666	15.0	4.0	2.0	0.7745176494622825	2.566	n/a	stim	s594
111.425	1.377	2.181507141634258	end_round	0.0	columbia_card_task_fmri	17.0	0.8181818181818181	71.0	-70.0	0.1818181818181818	15.0	5.0	2.0	1.90644310579188	1.377	4.0	stim	s594
112.806	2.25	n/a	-1.0	n/a	columbia_card_task_fmri	n/a	n/a	-1.0	n/a	n/a	n/a	n/a	n/a	n/a	n/a	n/a	feedback	s594
115.056	0.34	n/a	-1.0	n/a	columbia_card_task_fmri	n/a	n/a	-1.0	n/a	n/a	n/a	n/a	n/a	n/a	n/a	n/a	ITI	s594
115.399	2.109	1.624688959816078	end_round	0.0	columbia_card_task_fmri	7.0	0.9375	71.0	-95.0	0.0625	16.0	1.0	1.0	-6.953377088087354	2.109	0.0	stim	s594
117.513	2.25	n/a	-1.0	n/a	columbia_card_task_fmri	n/a	n/a	-1.0	n/a	n/a	n/a	n/a	n/a	n/a	n/a	n/a	feedback	s594
119.763	0.476	n/a	-1.0	n/a	columbia_card_task_fmri	n/a	n/a	-1.0	n/a	n/a	n/a	n/a	n/a	n/a	n/a	n/a	ITI	s594
120.241	1.988	3.187188959816078	draw_card	1.0	columbia_card_task_fmri	9.0	0.9375	89.0	-100.0	0.0625	16.0	1.0	1.0	-5.26024508562271	1.988	1.0	stim	s594
122.234	2.25	n/a	-1.0	n/a	columbia_card_task_fmri	n/a	n/a	-1.0	n/a	n/a	n/a	n/a	n/a	n/a	n/a	n/a	feedback	s594
124.484	0.272	n/a	-1.0	n/a	columbia_card_task_fmri	n/a	n/a	-1.0	n/a	n/a	n/a	n/a	n/a	n/a	n/a	n/a	ITI	s594
124.759	1.526	4.124688959816078	draw_card	0.0	columbia_card_task_fmri	15.0	0.875	89.0	-80.0	0.125	16.0	1.0	2.0	-0.2296787394225283	1.526	n/a	stim	s594
126.288	0.461	3.333022293149412	draw_card	0.0	columbia_card_task_fmri	15.0	0.8666666666666667	89.0	-80.0	0.1333333333333333	16.0	2.0	2.0	0.6453838403040848	0.461	n/a	stim	s594
126.751	0.394	2.4282603883875087	draw_card	0.0	columbia_card_task_fmri	15.0	0.8571428571428572	89.0	-80.0	0.1428571428571428	16.0	3.0	2.0	1.5942271252318108	0.394	n/a	stim	s594
127.147	0.448	1.384304344431461	draw_card	1.0	columbia_card_task_fmri	15.0	0.8461538461538461	89.0	-80.0	0.1538461538461538	16.0	4.0	2.0	2.6268144833177374	0.448	4.0	stim	s594
127.601	2.25	n/a	-1.0	n/a	columbia_card_task_fmri	n/a	n/a	-1.0	n/a	n/a	n/a	n/a	n/a	n/a	n/a	n/a	feedback	s594
129.851	0.884	n/a	-1.0	n/a	columbia_card_task_fmri	n/a	n/a	-1.0	n/a	n/a	n/a	n/a	n/a	n/a	n/a	n/a	ITI	s594
130.738	1.897	6.249688959816078	draw_card	0.0	columbia_card_task_fmri	16.0	0.875	89.0	-70.0	0.125	16.0	1.0	2.0	-3.2044859503090386	1.897	n/a	stim	s594
132.638	0.737	5.533022293149411	draw_card	1.0	columbia_card_task_fmri	16.0	0.8666666666666667	89.0	-70.0	0.1333333333333333	16.0	2.0	2.0	-2.4124098658004804	0.737	2.0	stim	s594
133.379	2.25	n/a	-1.0	n/a	columbia_card_task_fmri	n/a	n/a	-1.0	n/a	n/a	n/a	n/a	n/a	n/a	n/a	n/a	feedback	s594
135.629	0.136	n/a	-1.0	n/a	columbia_card_task_fmri	n/a	n/a	-1.0	n/a	n/a	n/a	n/a	n/a	n/a	n/a	n/a	ITI	s594
135.767	2.149	7.562188959816078	draw_card	1.0	columbia_card_task_fmri	30.0	0.6875	89.0	-45.0	0.3125	16.0	1.0	5.0	3.113925492259	2.149	1.0	stim	s594
137.923	2.25	n/a	-1.0	n/a	columbia_card_task_fmri	n/a	n/a	-1.0	n/a	n/a	n/a	n/a	n/a	n/a	n/a	n/a	feedback	s594
140.173	0.136	n/a	-1.0	n/a	columbia_card_task_fmri	n/a	n/a	-1.0	n/a	n/a	n/a	n/a	n/a	n/a	n/a	n/a	ITI	s594
140.311	1.685	-0.6669777068505882	draw_card	0.0	columbia_card_task_fmri	13.0	0.8333333333333334	89.0	-75.0	0.1666666666666666	6.0	1.0	1.0	1.1470206376290548	1.685	n/a	stim	s594
141.998	1.573	-3.6003110401839216	end_round	0.0	columbia_card_task_fmri	13.0	0.8	71.0	-75.0	0.2	6.0	2.0	1.0	3.550316919135078	1.573	1.0	stim	s594
143.575	2.25	n/a	-1.0	n/a	columbia_card_task_fmri	n/a	n/a	-1.0	n/a	n/a	n/a	n/a	n/a	n/a	n/a	n/a	feedback	s594
145.825	0.068	n/a	-1.0	n/a	columbia_card_task_fmri	n/a	n/a	-1.0	n/a	n/a	n/a	n/a	n/a	n/a	n/a	n/a	ITI	s594
145.895	1.29	0.9996889598160796	draw_card	1.0	columbia_card_task_fmri	14.0	0.8333333333333334	89.0	-70.0	0.1666666666666666	6.0	1.0	1.0	-0.3429663324785785	1.29	1.0	stim	s594
147.191	2.25	n/a	-1.0	n/a	columbia_card_task_fmri	n/a	n/a	-1.0	n/a	n/a	n/a	n/a	n/a	n/a	n/a	n/a	feedback	s594
149.441	0.068	n/a	-1.0	n/a	columbia_card_task_fmri	n/a	n/a	-1.0	n/a	n/a	n/a	n/a	n/a	n/a	n/a	n/a	ITI	s594
149.512	1.583	0.9996889598160796	draw_card	0.0	columbia_card_task_fmri	16.0	0.8333333333333334	89.0	-80.0	0.1666666666666666	6.0	1.0	1.0	4.127175717249358	1.583	n/a	stim	s594
151.097	0.791	-2.200311040183921	end_round	0.0	columbia_card_task_fmri	16.0	0.8	71.0	-80.0	0.2	6.0	2.0	1.0	6.7491346004966815	0.791	1.0	stim	s594
151.891	2.25	n/a	-1.0	n/a	columbia_card_task_fmri	n/a	n/a	-1.0	n/a	n/a	n/a	n/a	n/a	n/a	n/a	n/a	feedback	s594
154.141	0.612	n/a	-1.0	n/a	columbia_card_task_fmri	n/a	n/a	-1.0	n/a	n/a	n/a	n/a	n/a	n/a	n/a	n/a	ITI	s594
154.755	1.429	3.49968895981608	draw_card	0.0	columbia_card_task_fmri	17.0	0.8333333333333334	89.0	-70.0	0.1666666666666666	6.0	1.0	1.0	0.7745176494622825	1.429	n/a	stim	s594
156.186	0.893	0.5996889598160793	draw_card	1.0	columbia_card_task_fmri	17.0	0.8	89.0	-70.0	0.2	6.0	2.0	1.0	3.150479988443756	0.893	2.0	stim	s594
157.083	2.25	n/a	-1.0	n/a	columbia_card_task_fmri	n/a	n/a	-1.0	n/a	n/a	n/a	n/a	n/a	n/a	n/a	n/a	feedback	s594
159.333	0.476	n/a	-1.0	n/a	columbia_card_task_fmri	n/a	n/a	-1.0	n/a	n/a	n/a	n/a	n/a	n/a	n/a	n/a	ITI	s594
159.811	1.865	3.499688959816078	draw_card	0.0	columbia_card_task_fmri	25.0	0.75	89.0	-65.0	0.25	8.0	1.0	2.0	7.320087157608782	1.865	n/a	stim	s594
161.679	1.188	0.2854032455303661	draw_card	0.0	columbia_card_task_fmri	25.0	0.7142857142857143	89.0	-65.0	0.2857142857142857	8.0	2.0	2.0	9.006267941221125	1.188	n/a	stim	s594
162.869	2.785	-4.000311040183918	draw_card	0.0	columbia_card_task_fmri	25.0	0.6666666666666667	89.0	-65.0	0.3333333333333333	8.0	3.0	2.0	10.774307089728993	2.785	n/a	stim	s594
165.658	0.906	-10.000311040183922	end_round	0.0	columbia_card_task_fmri	25.0	0.6	71.0	-65.0	0.4	8.0	4.0	2.0	12.438271160770988	0.906	3.0	stim	s594
166.567	2.25	n/a	-1.0	n/a	columbia_card_task_fmri	n/a	n/a	-1.0	n/a	n/a	n/a	n/a	n/a	n/a	n/a	n/a	feedback	s594
168.817	0.0	n/a	-1.0	n/a	columbia_card_task_fmri	n/a	n/a	-1.0	n/a	n/a	n/a	n/a	n/a	n/a	n/a	n/a	ITI	s594
168.819	1.475	3.499688959816078	draw_card	0.0	columbia_card_task_fmri	30.0	0.75	89.0	-80.0	0.25	8.0	1.0	2.0	15.978010871594767	1.475	n/a	stim	s594
170.296	1.288	-0.4288824687553456	draw_card	0.0	columbia_card_task_fmri	30.0	0.7142857142857143	89.0	-80.0	0.2857142857142857	8.0	2.0	2.0	18.03911324688948	1.288	n/a	stim	s594
171.586	3.202	-5.666977706850583	draw_card	1.0	columbia_card_task_fmri	30.0	0.6666666666666667	89.0	-80.0	0.3333333333333333	8.0	3.0	2.0	20.200256829594288	3.202	3.0	stim	s594
174.792	2.25	n/a	-1.0	n/a	columbia_card_task_fmri	n/a	n/a	-1.0	n/a	n/a	n/a	n/a	n/a	n/a	n/a	n/a	feedback	s594
177.042	0.068	n/a	-1.0	n/a	columbia_card_task_fmri	n/a	n/a	-1.0	n/a	n/a	n/a	n/a	n/a	n/a	n/a	n/a	ITI	s594
177.113	2.605	3.199688959816079	draw_card	0.0	columbia_card_task_fmri	13.0	0.9	89.0	-95.0	0.1	10.0	1.0	1.0	0.7515429014157107	2.605	n/a	stim	s594
179.721	1.664	1.9996889598160776	draw_card	0.0	columbia_card_task_fmri	13.0	0.8888888888888888	89.0	-95.0	0.1111111111111111	10.0	2.0	1.0	2.291968603983939	1.664	n/a	stim	s594
181.388	0.951	0.4996889598160778	draw_card	0.0	columbia_card_task_fmri	13.0	0.875	89.0	-95.0	0.125	10.0	3.0	1.0	4.067754007858589	0.951	n/a	stim	s594
182.342	1.109	-1.4288824687553492	end_round	0.0	columbia_card_task_fmri	13.0	0.8571428571428572	71.0	-95.0	0.1428571428571428	10.0	4.0	1.0	6.14147125760347	1.109	3.0	stim	s594
183.457	2.25	n/a	-1.0	n/a	columbia_card_task_fmri	n/a	n/a	-1.0	n/a	n/a	n/a	n/a	n/a	n/a	n/a	n/a	feedback	s594
185.707	0.204	n/a	-1.0	n/a	columbia_card_task_fmri	n/a	n/a	-1.0	n/a	n/a	n/a	n/a	n/a	n/a	n/a	n/a	ITI	s594
185.915	1.711	4.599688959816078	draw_card	0.0	columbia_card_task_fmri	14.0	0.9	89.0	-90.0	0.1	10.0	1.0	1.0	-0.447864365161827	1.711	n/a	stim	s594
187.629	0.694	3.444133404260521	draw_card	0.0	columbia_card_task_fmri	14.0	0.8888888888888888	89.0	-90.0	0.1111111111111111	10.0	2.0	1.0	1.0354557389553278	0.694	n/a	stim	s594
188.326	1.54	1.9996889598160776	draw_card	0.0	columbia_card_task_fmri	14.0	0.875	89.0	-90.0	0.125	10.0	3.0	1.0	2.7454161001491144	1.54	n/a	stim	s594
189.869	0.737	0.1425461026732219	end_round	0.0	columbia_card_task_fmri	14.0	0.8571428571428572	71.0	-90.0	0.1428571428571428	10.0	4.0	1.0	4.742271096036305	0.737	3.0	stim	s594
190.612	2.25	n/a	-1.0	n/a	columbia_card_task_fmri	n/a	n/a	-1.0	n/a	n/a	n/a	n/a	n/a	n/a	n/a	n/a	feedback	s594
192.862	0.272	n/a	-1.0	n/a	columbia_card_task_fmri	n/a	n/a	-1.0	n/a	n/a	n/a	n/a	n/a	n/a	n/a	n/a	ITI	s594
193.138	3.36	-0.2003110401839214	end_round	0.0	columbia_card_task_fmri	16.0	0.8	71.0	-70.0	0.2	10.0	1.0	2.0	2.7506468476891186	3.36	0.0	stim	s594
196.504	2.25	n/a	-1.0	n/a	columbia_card_task_fmri	n/a	n/a	-1.0	n/a	n/a	n/a	n/a	n/a	n/a	n/a	n/a	feedback	s594
198.754	0.068	n/a	-1.0	n/a	columbia_card_task_fmri	n/a	n/a	-1.0	n/a	n/a	n/a	n/a	n/a	n/a	n/a	n/a	ITI	s594
198.825	1.355	-0.9169777068505882	draw_card	0.0	columbia_card_task_fmri	7.0	0.9166666666666666	89.0	-100.0	0.0833333333333333	12.0	1.0	1.0	-2.0737463779853087	1.355	n/a	stim	s594
200.182	1.763	-1.7275837674566503	draw_card	0.0	columbia_card_task_fmri	7.0	0.9090909090909092	89.0	-100.0	0.0909090909090909	12.0	2.0	1.0	-0.8872983892214883	1.763	n/a	stim	s594
201.948	1.508	-2.700311040183922	end_round	0.0	columbia_card_task_fmri	7.0	0.9	71.0	-100.0	0.1	12.0	3.0	1.0	0.4516869331369761	1.508	2.0	stim	s594
203.464	2.25	n/a	-1.0	n/a	columbia_card_task_fmri	n/a	n/a	-1.0	n/a	n/a	n/a	n/a	n/a	n/a	n/a	n/a	feedback	s594
205.714	0.272	n/a	-1.0	n/a	columbia_card_task_fmri	n/a	n/a	-1.0	n/a	n/a	n/a	n/a	n/a	n/a	n/a	n/a	ITI	s594
205.988	2.358	-0.6669777068505864	draw_card	0.0	columbia_card_task_fmri	14.0	0.8333333333333334	89.0	-80.0	0.1666666666666666	12.0	1.0	2.0	3.3821167116459208	2.358	n/a	stim	s594
208.349	0.76	-2.0912201310930154	end_round	0.0	columbia_card_task_fmri	14.0	0.8181818181818181	71.0	-80.0	0.1818181818181818	12.0	2.0	2.0	4.60519710761433	0.76	1.0	stim	s594
209.116	2.25	n/a	-1.0	n/a	columbia_card_task_fmri	n/a	n/a	-1.0	n/a	n/a	n/a	n/a	n/a	n/a	n/a	n/a	feedback	s594
211.366	0.748	n/a	-1.0	n/a	columbia_card_task_fmri	n/a	n/a	-1.0	n/a	n/a	n/a	n/a	n/a	n/a	n/a	n/a	ITI	s594
212.117	2.508	0.999688959816078	draw_card	0.0	columbia_card_task_fmri	15.0	0.8333333333333334	89.0	-75.0	0.1666666666666666	12.0	1.0	2.0	1.8920382732532064	2.508	n/a	stim	s594
214.628	0.567	-0.3639474038202872	draw_card	0.0	columbia_card_task_fmri	15.0	0.8181818181818181	89.0	-75.0	0.1818181818181818	12.0	2.0	2.0	3.063030867208859	0.567	n/a	stim	s594
215.198	1.365	-2.000311040183922	draw_card	0.0	columbia_card_task_fmri	15.0	0.8	89.0	-75.0	0.2	12.0	3.0	2.0	4.350001645402365	1.365	n/a	stim	s594
216.566	1.293	-4.00031104018392	draw_card	0.0	columbia_card_task_fmri	15.0	0.7777777777777778	89.0	-75.0	0.2222222222222222	12.0	4.0	2.0	5.766050305781675	1.293	n/a	stim	s594
217.863	1.079	-6.500311040183922	end_round	0.0	columbia_card_task_fmri	15.0	0.75	71.0	-75.0	0.25	12.0	5.0	2.0	7.320087157608782	1.079	4.0	stim	s594
218.948	2.25	n/a	-1.0	n/a	columbia_card_task_fmri	n/a	n/a	-1.0	n/a	n/a	n/a	n/a	n/a	n/a	n/a	n/a	feedback	s594
221.198	0.068	n/a	-1.0	n/a	columbia_card_task_fmri	n/a	n/a	-1.0	n/a	n/a	n/a	n/a	n/a	n/a	n/a	n/a	ITI	s594
221.268	1.916	-0.0003110401839221	draw_card	0.0	columbia_card_task_fmri	15.0	0.8	89.0	-65.0	0.2	15.0	1.0	3.0	0.3517355434062779	1.916	n/a	stim	s594
223.188	1.509	-1.1431681830410645	draw_card	0.0	columbia_card_task_fmri	15.0	0.7857142857142857	89.0	-65.0	0.2142857142857142	15.0	2.0	3.0	1.1774151290351185	1.509	n/a	stim	s594
224.7	1.534	-2.4618495017223854	end_round	0.0	columbia_card_task_fmri	15.0	0.7692307692307692	71.0	-65.0	0.2307692307692307	15.0	3.0	3.0	2.056949275980678	1.534	2.0	stim	s594
226.238	2.25	n/a	-1.0	n/a	columbia_card_task_fmri	n/a	n/a	-1.0	n/a	n/a	n/a	n/a	n/a	n/a	n/a	n/a	feedback	s594
228.488	0.0	n/a	-1.0	n/a	columbia_card_task_fmri	n/a	n/a	-1.0	n/a	n/a	n/a	n/a	n/a	n/a	n/a	n/a	ITI	s594
228.492	1.541	-0.7503110401839221	draw_card	1.0	columbia_card_task_fmri	14.0	0.8125	89.0	-70.0	0.1875	16.0	1.0	3.0	1.1376008357813987	1.541	1.0	stim	s594
230.037	2.25	n/a	-1.0	n/a	columbia_card_task_fmri	n/a	n/a	-1.0	n/a	n/a	n/a	n/a	n/a	n/a	n/a	n/a	feedback	s594
232.287	0.204	n/a	-1.0	n/a	columbia_card_task_fmri	n/a	n/a	-1.0	n/a	n/a	n/a	n/a	n/a	n/a	n/a	n/a	ITI	s594
232.495	3.326	-0.8128110401839221	draw_card	0.0	columbia_card_task_fmri	11.0	0.6875	89.0	-30.0	0.3125	16.0	1.0	5.0	-12.633591597751703	3.326	n/a	stim	s594
235.824	0.907	-1.6669777068505882	end_round	0.0	columbia_card_task_fmri	11.0	0.6666666666666667	71.0	-30.0	0.3333333333333333	16.0	2.0	5.0	-12.310454176424544	0.907	1.0	stim	s594
236.736	2.25	n/a	-1.0	n/a	columbia_card_task_fmri	n/a	n/a	-1.0	n/a	n/a	n/a	n/a	n/a	n/a	n/a	n/a	feedback	s594
238.986	0.068	n/a	-1.0	n/a	columbia_card_task_fmri	n/a	n/a	-1.0	n/a	n/a	n/a	n/a	n/a	n/a	n/a	n/a	ITI	s594
239.057	1.478	3.999688959816078	draw_card	0.0	columbia_card_task_fmri	15.0	0.8666666666666667	89.0	-75.0	0.1333333333333333	15.0	1.0	2.0	-1.0534303596376515	1.478	n/a	stim	s594
240.539	1.686	3.142546102673222	draw_card	0.0	columbia_card_task_fmri	15.0	0.8571428571428572	89.0	-75.0	0.1428571428571428	15.0	2.0	2.0	-0.1545739270995625	1.686	n/a	stim	s594
242.229	1.068	2.1535351136622314	draw_card	0.0	columbia_card_task_fmri	15.0	0.8461538461538461	89.0	-75.0	0.1538461538461538	15.0	3.0	2.0	0.8236177843292865	1.068	n/a	stim	s594
243.301	0.844	0.999688959816078	end_round	0.0	columbia_card_task_fmri	15.0	0.8333333333333334	71.0	-75.0	0.1666666666666666	15.0	4.0	2.0	1.8920382732532064	0.844	3.0	stim	s594
244.149	2.25	n/a	-1.0	n/a	columbia_card_task_fmri	n/a	n/a	-1.0	n/a	n/a	n/a	n/a	n/a	n/a	n/a	n/a	feedback	s594
246.399	0.068	n/a	-1.0	n/a	columbia_card_task_fmri	n/a	n/a	-1.0	n/a	n/a	n/a	n/a	n/a	n/a	n/a	n/a	ITI	s594
246.47	3.192	5.733022293149412	draw_card	0.0	columbia_card_task_fmri	17.0	0.8666666666666667	89.0	-75.0	0.1333333333333333	15.0	1.0	2.0	-0.3739158750825133	3.192	n/a	stim	s594
249.665	1.356	4.8568318169589375	draw_card	0.0	columbia_card_task_fmri	17.0	0.8571428571428572	89.0	-75.0	0.1428571428571428	15.0	2.0	2.0	0.5449356171746018	1.356	n/a	stim	s594
251.024	0.668	3.845842805969925	draw_card	0.0	columbia_card_task_fmri	17.0	0.8461538461538461	89.0	-75.0	0.1538461538461538	15.0	3.0	2.0	1.5448859141759144	0.668	n/a	stim	s594
251.695	0.876	2.666355626482746	draw_card	0.0	columbia_card_task_fmri	17.0	0.8333333333333334	89.0	-75.0	0.1666666666666666	15.0	4.0	2.0	2.6370706104621107	0.876	n/a	stim	s594
252.574	1.049	1.2724162325433497	end_round	0.0	columbia_card_task_fmri	17.0	0.8181818181818181	71.0	-75.0	0.1818181818181818	15.0	5.0	2.0	3.834107337118184	1.049	4.0	stim	s594
253.63	2.25	n/a	-1.0	n/a	columbia_card_task_fmri	n/a	n/a	-1.0	n/a	n/a	n/a	n/a	n/a	n/a	n/a	n/a	feedback	s594
255.88	0.34	n/a	-1.0	n/a	columbia_card_task_fmri	n/a	n/a	-1.0	n/a	n/a	n/a	n/a	n/a	n/a	n/a	n/a	ITI	s594
256.224	2.822	1.312188959816078	draw_card	0.0	columbia_card_task_fmri	2.0	0.9375	89.0	-25.0	0.0625	16.0	1.0	1.0	-25.05220278575569	2.822	n/a	stim	s594
259.05	1.13	1.1996889598160778	draw_card	0.0	columbia_card_task_fmri	2.0	0.9333333333333332	89.0	-25.0	0.0666666666666666	16.0	2.0	1.0	-24.85510379279936	1.13	n/a	stim	s594
260.189	0.542	1.0711175312446497	draw_card	0.0	columbia_card_task_fmri	2.0	0.9285714285714286	89.0	-25.0	0.0714285714285714	16.0	3.0	1.0	-24.63881942968312	0.542	n/a	stim	s594
260.738	0.455	0.922765882893001	draw_card	0.0	columbia_card_task_fmri	2.0	0.9230769230769232	89.0	-25.0	0.0769230769230769	16.0	4.0	1.0	-24.400082731829823	0.455	n/a	stim	s594
261.202	0.471	0.7496889598160781	draw_card	0.0	columbia_card_task_fmri	2.0	0.9166666666666666	89.0	-25.0	0.0833333333333333	16.0	5.0	1.0	-24.13480706218417	0.471	n/a	stim	s594
261.68	0.541	0.545143505270623	draw_card	0.0	columbia_card_task_fmri	2.0	0.9090909090909092	89.0	-25.0	0.0909090909090909	16.0	6.0	1.0	-23.8378097470056	0.541	n/a	stim	s594
262.228	0.54	0.2996889598160779	draw_card	0.0	columbia_card_task_fmri	2.0	0.9	89.0	-25.0	0.1	16.0	7.0	1.0	-23.502419073757476	0.54	n/a	stim	s594
262.776	0.445	-0.0003110401839221	draw_card	1.0	columbia_card_task_fmri	2.0	0.8888888888888888	89.0	-25.0	0.1111111111111111	16.0	8.0	1.0	-23.11990858360261	0.445	8.0	stim	s594
263.23	2.25	n/a	-1.0	n/a	columbia_card_task_fmri	n/a	n/a	-1.0	n/a	n/a	n/a	n/a	n/a	n/a	n/a	n/a	feedback	s594
265.48	0.0	n/a	-1.0	n/a	columbia_card_task_fmri	n/a	n/a	-1.0	n/a	n/a	n/a	n/a	n/a	n/a	n/a	n/a	ITI	s594
265.484	1.822	3.499688959816078	draw_card	0.0	columbia_card_task_fmri	9.0	0.9375	89.0	-95.0	0.0625	16.0	1.0	1.0	-6.469642899082743	1.822	n/a	stim	s594
267.31	0.475	3.0663556264827454	draw_card	1.0	columbia_card_task_fmri	9.0	0.9333333333333332	89.0	-95.0	0.0666666666666666	16.0	2.0	1.0	-5.702463534452043	0.475	2.0	stim	s594
267.789	2.25	n/a	-1.0	n/a	columbia_card_task_fmri	n/a	n/a	-1.0	n/a	n/a	n/a	n/a	n/a	n/a	n/a	n/a	feedback	s594
270.039	0.0	n/a	-1.0	n/a	columbia_card_task_fmri	n/a	n/a	-1.0	n/a	n/a	n/a	n/a	n/a	n/a	n/a	n/a	ITI	s594
270.043	1.806	5.062188959816078	draw_card	0.0	columbia_card_task_fmri	11.0	0.9375	89.0	-100.0	0.0625	16.0	1.0	1.0	-4.7764630428115495	1.806	n/a	stim	s594
271.853	0.879	4.599688959816079	draw_card	0.0	columbia_card_task_fmri	11.0	0.9333333333333332	89.0	-100.0	0.0666666666666666	16.0	2.0	1.0	-3.957570185347926	0.879	n/a	stim	s594
272.735	0.616	4.071117531244651	draw_card	0.0	columbia_card_task_fmri	11.0	0.9285714285714286	89.0	-100.0	0.0714285714285714	16.0	3.0	1.0	-3.059530775992325	0.616	n/a	stim	s594
273.355	0.792	3.4612274213545406	draw_card	0.0	columbia_card_task_fmri	11.0	0.9230769230769232	89.0	-100.0	0.0769230769230769	16.0	4.0	1.0	-2.06888846013328	0.792	n/a	stim	s594
274.15	1.135	2.749688959816078	draw_card	0.0	columbia_card_task_fmri	11.0	0.9166666666666666	89.0	-100.0	0.0833333333333333	16.0	5.0	1.0	-0.9688131671367372	1.135	n/a	stim	s594
275.289	0.734	1.908779868906986	draw_card	0.0	columbia_card_task_fmri	11.0	0.9090909090909092	89.0	-100.0	0.0909090909090909	16.0	6.0	1.0	0.2620358161979759	0.734	n/a	stim	s594
276.031	1.345	0.8996889598160782	draw_card	0.0	columbia_card_task_fmri	11.0	0.9	89.0	-100.0	0.1	16.0	7.0	1.0	1.6511263665043856	1.345	n/a	stim	s594
277.385	0.893	-0.333644373517256	draw_card	0.0	columbia_card_task_fmri	11.0	0.8888888888888888	89.0	-100.0	0.1111111111111111	16.0	8.0	1.0	3.2343799992719866	0.893	n/a	stim	s594
278.289	1.656	-1.875311040183922	draw_card	0.0	columbia_card_task_fmri	11.0	0.875	89.0	-100.0	0.125	16.0	9.0	1.0	5.059532858074988	1.656	n/a	stim	s594
279.954	2.676	-3.857453897326778	end_round	0.0	columbia_card_task_fmri	11.0	0.8571428571428572	71.0	-100.0	0.1428571428571428	16.0	10.0	1.0	7.190895405925595	2.676	9.0	stim	s594
282.64	2.25	n/a	-1.0	n/a	columbia_card_task_fmri	n/a	n/a	-1.0	n/a	n/a	n/a	n/a	n/a	n/a	n/a	n/a	feedback	s594
284.89	0.272	n/a	-1.0	n/a	columbia_card_task_fmri	n/a	n/a	-1.0	n/a	n/a	n/a	n/a	n/a	n/a	n/a	n/a	ITI	s594
285.166	1.682	5.624688959816078	draw_card	1.0	columbia_card_task_fmri	16.0	0.875	89.0	-75.0	0.125	16.0	1.0	2.0	-1.5518558546858898	1.682	1.0	stim	s594
286.852	2.25	n/a	-1.0	n/a	columbia_card_task_fmri	n/a	n/a	-1.0	n/a	n/a	n/a	n/a	n/a	n/a	n/a	n/a	feedback	s594
289.102	0.204	n/a	-1.0	n/a	columbia_card_task_fmri	n/a	n/a	-1.0	n/a	n/a	n/a	n/a	n/a	n/a	n/a	n/a	ITI	s594
289.309	1.24	5.874688959816078	draw_card	0.0	columbia_card_task_fmri	17.0	0.875	89.0	-80.0	0.125	16.0	1.0	2.0	0.4314314063708906	1.24	n/a	stim	s594
290.553	0.549	5.066355626482746	draw_card	0.0	columbia_card_task_fmri	17.0	0.8666666666666667	89.0	-80.0	0.1333333333333333	16.0	2.0	2.0	1.3249342976865606	0.549	n/a	stim	s594
291.106	0.432	4.142546102673224	draw_card	0.0	columbia_card_task_fmri	17.0	0.8571428571428572	89.0	-80.0	0.1428571428571428	16.0	3.0	2.0	2.293771618021914	0.432	n/a	stim	s594
291.543	0.695	3.0766120367391547	draw_card	0.0	columbia_card_task_fmri	17.0	0.8461538461538461	89.0	-80.0	0.1538461538461538	16.0	4.0	2.0	3.3481165111974605	0.695	n/a	stim	s594
292.248	1.603	1.8330222931494136	draw_card	0.0	columbia_card_task_fmri	17.0	0.8333333333333334	89.0	-80.0	0.1666666666666666	16.0	5.0	2.0	4.49970980996256	1.603	n/a	stim	s594
293.862	0.669	0.3633253234524394	end_round	0.0	columbia_card_task_fmri	17.0	0.8181818181818181	71.0	-80.0	0.1818181818181818	16.0	6.0	2.0	5.761854903602711	0.669	5.0	stim	s594
294.546	2.25	n/a	-1.0	n/a	columbia_card_task_fmri	n/a	n/a	-1.0	n/a	n/a	n/a	n/a	n/a	n/a	n/a	n/a	feedback	s594
296.796	0.0	n/a	-1.0	n/a	columbia_card_task_fmri	n/a	n/a	-1.0	n/a	n/a	n/a	n/a	n/a	n/a	n/a	n/a	ITI	s594
307.808	2.183	0.1663556264827457	draw_card	0.0	columbia_card_task_fmri	13.0	0.8333333333333334	89.0	-70.0	0.1666666666666666	6.0	1.0	1.0	-0.7154521644563303	2.183	n/a	stim	s594
309.999	0.853	-2.6003110401839216	draw_card	0.0	columbia_card_task_fmri	13.0	0.8	89.0	-70.0	0.2	6.0	2.0	1.0	1.5511715337037586	0.853	n/a	stim	s594
310.859	0.758	-6.750311040183922	draw_card	0.0	columbia_card_task_fmri	13.0	0.75	89.0	-70.0	0.25	6.0	3.0	1.0	4.290079040435032	0.758	n/a	stim	s594
311.627	0.633	-13.666977706850586	end_round	0.0	columbia_card_task_fmri	13.0	0.6666666666666667	71.0	-70.0	0.3333333333333333	6.0	4.0	1.0	7.475468301922575	0.633	3.0	stim	s594
312.268	2.25	n/a	-1.0	n/a	columbia_card_task_fmri	n/a	n/a	-1.0	n/a	n/a	n/a	n/a	n/a	n/a	n/a	n/a	feedback	s594
314.518	0.204	n/a	-1.0	n/a	columbia_card_task_fmri	n/a	n/a	-1.0	n/a	n/a	n/a	n/a	n/a	n/a	n/a	n/a	ITI	s594
314.732	1.411	0.1663556264827457	draw_card	0.0	columbia_card_task_fmri	15.0	0.8333333333333334	89.0	-80.0	0.1666666666666666	6.0	1.0	1.0	3.754644652292768	1.411	n/a	stim	s594
316.151	1.21	-3.000311040183922	draw_card	0.0	columbia_card_task_fmri	15.0	0.8	89.0	-80.0	0.2	6.0	2.0	1.0	6.349271506328556	1.21	n/a	stim	s594
317.37	0.578	-7.750311040183922	end_round	0.0	columbia_card_task_fmri	15.0	0.75	71.0	-80.0	0.25	6.0	3.0	1.0	9.48447613926306	0.578	2.0	stim	s594
317.958	2.25	n/a	-1.0	n/a	columbia_card_task_fmri	n/a	n/a	-1.0	n/a	n/a	n/a	n/a	n/a	n/a	n/a	n/a	feedback	s594
320.208	0.204	n/a	-1.0	n/a	columbia_card_task_fmri	n/a	n/a	-1.0	n/a	n/a	n/a	n/a	n/a	n/a	n/a	n/a	ITI	s594
320.42	1.186	1.833022293149412	draw_card	0.0	columbia_card_task_fmri	16.0	0.8333333333333334	89.0	-75.0	0.1666666666666666	6.0	1.0	1.0	2.2645526646899654	1.186	n/a	stim	s594
321.614	0.67	-1.2003110401839214	draw_card	0.0	columbia_card_task_fmri	16.0	0.8	89.0	-75.0	0.2	6.0	2.0	1.0	4.749849202373724	0.67	n/a	stim	s594
322.291	0.539	-5.750311040183922	draw_card	0.0	columbia_card_task_fmri	16.0	0.75	89.0	-75.0	0.25	6.0	3.0	1.0	7.752959026856196	0.539	n/a	stim	s594
322.839	2.079	-13.333644373517254	end_round	0.0	columbia_card_task_fmri	16.0	0.6666666666666667	71.0	-75.0	0.3333333333333333	6.0	4.0	1.0	11.245582237614194	2.079	3.0	stim	s594
324.929	2.25	n/a	-1.0	n/a	columbia_card_task_fmri	n/a	n/a	-1.0	n/a	n/a	n/a	n/a	n/a	n/a	n/a	n/a	feedback	s594
327.179	0.272	n/a	-1.0	n/a	columbia_card_task_fmri	n/a	n/a	-1.0	n/a	n/a	n/a	n/a	n/a	n/a	n/a	n/a	ITI	s594
327.455	2.092	2.999688959816078	draw_card	0.0	columbia_card_task_fmri	21.0	0.75	89.0	-55.0	0.25	8.0	1.0	2.0	1.2602698905994458	2.092	n/a	stim	s594
329.551	0.726	0.2854032455303643	draw_card	0.0	columbia_card_task_fmri	21.0	0.7142857142857143	89.0	-55.0	0.2857142857142857	8.0	2.0	2.0	2.6839753597119227	0.726	n/a	stim	s594
330.287	0.807	-3.3336443735172523	draw_card	0.0	columbia_card_task_fmri	21.0	0.6666666666666667	89.0	-55.0	0.3333333333333333	8.0	3.0	2.0	4.176812310763829	0.807	n/a	stim	s594
331.1	1.101	-8.400311040183922	end_round	0.0	columbia_card_task_fmri	21.0	0.6	71.0	-55.0	0.4	8.0	4.0	2.0	5.581786609630825	1.101	3.0	stim	s594
332.214	2.25	n/a	-1.0	n/a	columbia_card_task_fmri	n/a	n/a	-1.0	n/a	n/a	n/a	n/a	n/a	n/a	n/a	n/a	feedback	s594
334.464	0.204	n/a	-1.0	n/a	columbia_card_task_fmri	n/a	n/a	-1.0	n/a	n/a	n/a	n/a	n/a	n/a	n/a	n/a	ITI	s594
334.676	1.651	4.249688959816078	draw_card	0.0	columbia_card_task_fmri	26.0	0.75	89.0	-65.0	0.25	8.0	1.0	2.0	7.752959026856196	1.651	n/a	stim	s594
336.335	1.017	0.9996889598160814	draw_card	0.0	columbia_card_task_fmri	26.0	0.7142857142857143	89.0	-65.0	0.2857142857142857	8.0	2.0	2.0	9.457886897194385	1.017	n/a	stim	s594
337.36	2.56	-3.3336443735172505	end_round	0.0	columbia_card_task_fmri	26.0	0.6666666666666667	71.0	-65.0	0.3333333333333333	8.0	3.0	2.0	11.245582237614194	2.56	2.0	stim	s594
339.931	2.25	n/a	-1.0	n/a	columbia_card_task_fmri	n/a	n/a	-1.0	n/a	n/a	n/a	n/a	n/a	n/a	n/a	n/a	feedback	s594
342.181	0.408	n/a	-1.0	n/a	columbia_card_task_fmri	n/a	n/a	-1.0	n/a	n/a	n/a	n/a	n/a	n/a	n/a	n/a	ITI	s594
342.599	1.638	-0.6669777068505882	draw_card	0.0	columbia_card_task_fmri	15.0	0.7777777777777778	89.0	-60.0	0.2222222222222222	9.0	1.0	2.0	-0.4673761225162636	1.638	n/a	stim	s594
344.246	1.407	-2.750311040183922	draw_card	1.0	columbia_card_task_fmri	15.0	0.75	89.0	-60.0	0.25	9.0	2.0	2.0	0.8274594998665208	1.407	2.0	stim	s594
345.664	2.25	n/a	-1.0	n/a	columbia_card_task_fmri	n/a	n/a	-1.0	n/a	n/a	n/a	n/a	n/a	n/a	n/a	n/a	feedback	s594
347.914	0.136	n/a	-1.0	n/a	columbia_card_task_fmri	n/a	n/a	-1.0	n/a	n/a	n/a	n/a	n/a	n/a	n/a	n/a	ITI	s594
348.058	1.755	3.699688959816079	draw_card	0.0	columbia_card_task_fmri	13.0	0.9	89.0	-90.0	0.1	10.0	1.0	1.0	-0.747708993975845	1.755	n/a	stim	s594
349.821	0.817	2.555244515371633	draw_card	0.0	columbia_card_task_fmri	13.0	0.8888888888888888	89.0	-90.0	0.1111111111111111	10.0	2.0	1.0	0.7213343850790608	0.817	n/a	stim	s594
350.647	0.443	1.124688959816078	draw_card	0.0	columbia_card_task_fmri	13.0	0.875	89.0	-90.0	0.125	10.0	3.0	1.0	2.414838145153801	0.443	n/a	stim	s594
351.098	0.407	-0.7145967544696339	draw_card	0.0	columbia_card_task_fmri	13.0	0.8571428571428572	89.0	-90.0	0.1428571428571428	10.0	4.0	1.0	4.392477220393133	0.407	n/a	stim	s594
351.512	0.433	-3.166977706850588	draw_card	1.0	columbia_card_task_fmri	13.0	0.8333333333333334	89.0	-90.0	0.1666666666666666	10.0	5.0	1.0	6.734973014184135	0.433	5.0	stim	s594
351.954	2.25	n/a	-1.0	n/a	columbia_card_task_fmri	n/a	n/a	-1.0	n/a	n/a	n/a	n/a	n/a	n/a	n/a	n/a	feedback	s594
354.204	0.272	n/a	-1.0	n/a	columbia_card_task_fmri	n/a	n/a	-1.0	n/a	n/a	n/a	n/a	n/a	n/a	n/a	n/a	ITI	s594
354.484	1.595	4.999688959816078	draw_card	0.0	columbia_card_task_fmri	15.0	0.9	89.0	-95.0	0.1	10.0	1.0	1.0	1.351262688762375	1.595	n/a	stim	s594
356.087	0.938	3.777466737593855	draw_card	0.0	columbia_card_task_fmri	15.0	0.8888888888888888	89.0	-95.0	0.1111111111111111	10.0	2.0	1.0	2.920240459046916	0.938	n/a	stim	s594
357.034	0.679	2.249688959816078	draw_card	0.0	columbia_card_task_fmri	15.0	0.875	89.0	-95.0	0.125	10.0	3.0	1.0	4.728937619052047	0.679	n/a	stim	s594
357.721	0.839	0.2854032455303643	draw_card	0.0	columbia_card_task_fmri	15.0	0.8571428571428572	89.0	-95.0	0.1428571428571428	10.0	4.0	1.0	6.8410851929159975	0.839	n/a	stim	s594
358.571	0.66	-2.333644373517254	end_round	0.0	columbia_card_task_fmri	15.0	0.8333333333333334	71.0	-95.0	0.1666666666666666	10.0	5.0	1.0	9.342890994150238	0.66	4.0	stim	s594
359.242	2.25	n/a	-1.0	n/a	columbia_card_task_fmri	n/a	n/a	-1.0	n/a	n/a	n/a	n/a	n/a	n/a	n/a	n/a	feedback	s594
361.492	0.34	n/a	-1.0	n/a	columbia_card_task_fmri	n/a	n/a	-1.0	n/a	n/a	n/a	n/a	n/a	n/a	n/a	n/a	ITI	s594
361.841	1.512	0.7996889598160786	draw_card	0.0	columbia_card_task_fmri	16.0	0.8	89.0	-65.0	0.2	10.0	1.0	2.0	0.7515429014157107	1.512	n/a	stim	s594
363.361	0.921	-1.0003110401839204	draw_card	0.0	columbia_card_task_fmri	16.0	0.7777777777777778	89.0	-65.0	0.2222222222222222	10.0	2.0	2.0	2.0258758947922004	0.921	n/a	stim	s594
364.294	0.953	-3.250311040183922	draw_card	0.0	columbia_card_task_fmri	16.0	0.75	89.0	-65.0	0.25	10.0	3.0	2.0	3.4243967264884816	0.953	n/a	stim	s594
365.255	0.925	-6.143168183041063	end_round	0.0	columbia_card_task_fmri	16.0	0.7142857142857143	71.0	-65.0	0.2857142857142857	10.0	4.0	2.0	4.941847254398354	0.925	3.0	stim	s594
366.193	2.25	n/a	-1.0	n/a	columbia_card_task_fmri	n/a	n/a	-1.0	n/a	n/a	n/a	n/a	n/a	n/a	n/a	n/a	feedback	s594
368.443	0.136	n/a	-1.0	n/a	columbia_card_task_fmri	n/a	n/a	-1.0	n/a	n/a	n/a	n/a	n/a	n/a	n/a	n/a	ITI	s594
368.589	1.791	-0.5003110401839221	draw_card	0.0	columbia_card_task_fmri	7.0	0.9166666666666666	89.0	-95.0	0.0833333333333333	12.0	1.0	1.0	-3.4548458506772377	1.791	n/a	stim	s594
370.39	1.301	-1.2730383129111955	draw_card	0.0	columbia_card_task_fmri	7.0	0.9090909090909092	89.0	-95.0	0.0909090909090909	12.0	2.0	1.0	-2.323901683932089	1.301	n/a	stim	s594
371.702	0.455	-2.200311040183922	draw_card	0.0	columbia_card_task_fmri	7.0	0.9	89.0	-95.0	0.1	12.0	3.0	1.0	-1.0475505787088082	0.455	n/a	stim	s594
372.166	0.737	-3.333644373517256	draw_card	0.0	columbia_card_task_fmri	7.0	0.8888888888888888	89.0	-95.0	0.1111111111111111	12.0	4.0	1.0	0.4072159374693456	0.737	n/a	stim	s594
372.911	0.608	-4.750311040183922	end_round	0.0	columbia_card_task_fmri	7.0	0.875	71.0	-95.0	0.125	12.0	5.0	1.0	2.0842629522567364	0.608	4.0	stim	s594
373.531	2.25	n/a	-1.0	n/a	columbia_card_task_fmri	n/a	n/a	-1.0	n/a	n/a	n/a	n/a	n/a	n/a	n/a	n/a	feedback	s594
375.781	0.34	n/a	-1.0	n/a	columbia_card_task_fmri	n/a	n/a	-1.0	n/a	n/a	n/a	n/a	n/a	n/a	n/a	n/a	ITI	s594
376.131	1.091	0.1663556264827457	draw_card	0.0	columbia_card_task_fmri	14.0	0.8333333333333334	89.0	-75.0	0.1666666666666666	12.0	1.0	2.0	1.5195275558539194	1.091	n/a	stim	s594
377.232	0.65	-1.1821292220021056	draw_card	0.0	columbia_card_task_fmri	14.0	0.8181818181818181	89.0	-75.0	0.1818181818181818	12.0	2.0	2.0	2.67749789995154	0.65	n/a	stim	s594
377.892	0.761	-2.800311040183921	draw_card	0.0	columbia_card_task_fmri	14.0	0.8	89.0	-75.0	0.2	12.0	3.0	2.0	3.950157512114828	0.761	n/a	stim	s594
378.664	0.793	-4.778088817961697	draw_card	0.0	columbia_card_task_fmri	14.0	0.7777777777777778	89.0	-75.0	0.2222222222222222	12.0	4.0	2.0	5.350460568323484	0.793	n/a	stim	s594
379.468	1.046	-7.250311040183922	draw_card	0.0	columbia_card_task_fmri	14.0	0.75	89.0	-75.0	0.25	12.0	5.0	2.0	6.887218451561303	1.046	n/a	stim	s594
380.524	1.068	-10.428882468755347	end_round	0.0	columbia_card_task_fmri	14.0	0.7142857142857143	71.0	-75.0	0.2857142857142857	12.0	6.0	2.0	8.554652017463859	1.068	5.0	stim	s594
381.606	2.25	n/a	-1.0	n/a	columbia_card_task_fmri	n/a	n/a	-1.0	n/a	n/a	n/a	n/a	n/a	n/a	n/a	n/a	feedback	s594
383.856	0.068	n/a	-1.0	n/a	columbia_card_task_fmri	n/a	n/a	-1.0	n/a	n/a	n/a	n/a	n/a	n/a	n/a	n/a	ITI	s594
383.935	2.286	1.833022293149412	draw_card	0.0	columbia_card_task_fmri	15.0	0.8333333333333334	89.0	-70.0	0.1666666666666666	12.0	1.0	2.0	0.0295240175967954	2.286	n/a	stim	s594
386.234	1.231	0.545143505270621	draw_card	0.0	columbia_card_task_fmri	15.0	0.8181818181818181	89.0	-70.0	0.1818181818181818	12.0	2.0	2.0	1.1354040384055324	1.231	n/a	stim	s594
387.478	0.492	-1.000311040183922	draw_card	0.0	columbia_card_task_fmri	15.0	0.8	89.0	-70.0	0.2	12.0	3.0	2.0	2.3508176305200905	0.492	n/a	stim	s594
387.98	0.494	-2.889199929072811	draw_card	0.0	columbia_card_task_fmri	15.0	0.7777777777777778	89.0	-70.0	0.2222222222222222	12.0	4.0	2.0	3.68813688560698	0.494	n/a	stim	s594
388.485	0.823	-5.250311040183922	draw_card	0.0	columbia_card_task_fmri	15.0	0.75	89.0	-70.0	0.25	12.0	5.0	2.0	5.155777490640212	0.823	n/a	stim	s594
389.319	0.7	-8.286025325898207	draw_card	0.0	columbia_card_task_fmri	15.0	0.7142857142857143	89.0	-70.0	0.2857142857142857	12.0	6.0	2.0	6.74822078359292	0.7	n/a	stim	s594
390.03	0.869	-12.333644373517252	end_round	0.0	columbia_card_task_fmri	15.0	0.6666666666666667	71.0	-70.0	0.3333333333333333	12.0	7.0	2.0	8.417976990886658	0.869	6.0	stim	s594
390.912	2.25	n/a	-1.0	n/a	columbia_card_task_fmri	n/a	n/a	-1.0	n/a	n/a	n/a	n/a	n/a	n/a	n/a	n/a	feedback	s594
393.162	0.0	n/a	-1.0	n/a	columbia_card_task_fmri	n/a	n/a	-1.0	n/a	n/a	n/a	n/a	n/a	n/a	n/a	n/a	ITI	s594
393.173	2.022	-0.2003110401839214	draw_card	0.0	columbia_card_task_fmri	16.0	0.8	89.0	-70.0	0.2	15.0	1.0	3.0	2.7506468476891186	2.022	n/a	stim	s594
395.208	1.05	-1.428882468755351	draw_card	1.0	columbia_card_task_fmri	16.0	0.7857142857142857	89.0	-70.0	0.2142857142857142	15.0	2.0	3.0	3.6383092144816302	1.05	2.0	stim	s594
396.271	2.25	n/a	-1.0	n/a	columbia_card_task_fmri	n/a	n/a	-1.0	n/a	n/a	n/a	n/a	n/a	n/a	n/a	n/a	feedback	s594
398.521	0.204	n/a	-1.0	n/a	columbia_card_task_fmri	n/a	n/a	-1.0	n/a	n/a	n/a	n/a	n/a	n/a	n/a	n/a	ITI	s594
398.736	2.208	0.1871889598160778	draw_card	1.0	columbia_card_task_fmri	14.0	0.8125	89.0	-65.0	0.1875	16.0	1.0	3.0	-0.8129971456588052	2.208	1.0	stim	s594
400.956	2.25	n/a	-1.0	n/a	columbia_card_task_fmri	n/a	n/a	-1.0	n/a	n/a	n/a	n/a	n/a	n/a	n/a	n/a	feedback	s594
403.206	1.02	n/a	-1.0	n/a	columbia_card_task_fmri	n/a	n/a	-1.0	n/a	n/a	n/a	n/a	n/a	n/a	n/a	n/a	ITI	s594
404.237	3.201	-0.0628110401839221	draw_card	0.0	columbia_card_task_fmri	16.0	0.8125	89.0	-75.0	0.1875	16.0	1.0	3.0	3.868615845360665	3.201	n/a	stim	s594
407.45	0.681	-1.2003110401839214	end_round	0.0	columbia_card_task_fmri	16.0	0.8	71.0	-75.0	0.2	16.0	2.0	3.0	4.749849202373724	0.681	1.0	stim	s594
408.145	2.25	n/a	-1.0	n/a	columbia_card_task_fmri	n/a	n/a	-1.0	n/a	n/a	n/a	n/a	n/a	n/a	n/a	n/a	feedback	s594
410.395	0.0	n/a	-1.0	n/a	columbia_card_task_fmri	n/a	n/a	-1.0	n/a	n/a	n/a	n/a	n/a	n/a	n/a	n/a	ITI	s594
410.406	1.353	4.199688959816079	draw_card	0.0	columbia_card_task_fmri	16.0	0.8666666666666667	89.0	-80.0	0.1333333333333333	15.0	1.0	2.0	0.985157409688604	1.353	n/a	stim	s594
411.771	0.571	3.2854032455303663	draw_card	0.0	columbia_card_task_fmri	16.0	0.8571428571428572	89.0	-80.0	0.1428571428571428	15.0	2.0	2.0	1.9439977595754383	0.571	n/a	stim	s594
412.352	0.878	2.230458190585308	draw_card	0.0	columbia_card_task_fmri	16.0	0.8461538461538461	89.0	-80.0	0.1538461538461538	15.0	3.0	2.0	2.9874639336682165	0.878	n/a	stim	s594
413.241	0.841	0.9996889598160796	end_round	0.0	columbia_card_task_fmri	16.0	0.8333333333333334	71.0	-80.0	0.1666666666666666	15.0	4.0	2.0	4.127175717249358	0.841	3.0	stim	s594
414.097	2.25	n/a	-1.0	n/a	columbia_card_task_fmri	n/a	n/a	-1.0	n/a	n/a	n/a	n/a	n/a	n/a	n/a	n/a	feedback	s594
416.347	0.0	n/a	-1.0	n/a	columbia_card_task_fmri	n/a	n/a	-1.0	n/a	n/a	n/a	n/a	n/a	n/a	n/a	n/a	ITI	s594
416.358	1.6	5.066355626482746	draw_card	0.0	columbia_card_task_fmri	17.0	0.8666666666666667	89.0	-80.0	0.1333333333333333	15.0	1.0	2.0	1.3249342976865606	1.6	n/a	stim	s594
417.968	0.568	4.142546102673224	draw_card	0.0	columbia_card_task_fmri	17.0	0.8571428571428572	89.0	-80.0	0.1428571428571428	15.0	2.0	2.0	2.293771618021914	0.568	n/a	stim	s594
418.548	0.483	3.0766120367391547	draw_card	0.0	columbia_card_task_fmri	17.0	0.8461538461538461	89.0	-80.0	0.1538461538461538	15.0	3.0	2.0	3.3481165111974605	0.483	n/a	stim	s594
419.043	0.575	1.8330222931494136	draw_card	0.0	columbia_card_task_fmri	17.0	0.8333333333333334	89.0	-80.0	0.1666666666666666	15.0	4.0	2.0	4.49970980996256	0.575	n/a	stim	s594
419.63	0.686	0.3633253234524394	draw_card	0.0	columbia_card_task_fmri	17.0	0.8181818181818181	89.0	-80.0	0.1818181818181818	15.0	5.0	2.0	5.761854903602711	0.686	n/a	stim	s594
420.327	0.793	-1.4003110401839207	draw_card	1.0	columbia_card_task_fmri	17.0	0.8	89.0	-80.0	0.2	15.0	6.0	2.0	7.149000516046172	0.793	6.0	stim	s594
421.133	2.25	n/a	-1.0	n/a	columbia_card_task_fmri	n/a	n/a	-1.0	n/a	n/a	n/a	n/a	n/a	n/a	n/a	n/a	feedback	s594
423.383	0.068	n/a	-1.0	n/a	columbia_card_task_fmri	n/a	n/a	-1.0	n/a	n/a	n/a	n/a	n/a	n/a	n/a	n/a	ITI	s594
423.46	2.329	0.999688959816078	draw_card	0.0	columbia_card_task_fmri	1.0	0.9375	89.0	-15.0	0.0625	16.0	1.0	1.0	-27.663953678712627	2.329	n/a	stim	s594
425.802	1.275	0.9330222931494112	draw_card	0.0	columbia_card_task_fmri	1.0	0.9333333333333332	89.0	-15.0	0.0666666666666666	16.0	2.0	1.0	-27.54947841575423	1.275	n/a	stim	s594
427.088	0.706	0.8568318169589351	draw_card	0.0	columbia_card_task_fmri	1.0	0.9285714285714286	89.0	-15.0	0.0714285714285714	16.0	3.0	1.0	-27.42371439379923	0.706	n/a	stim	s594
427.803	0.454	0.768919729046847	draw_card	0.0	columbia_card_task_fmri	1.0	0.9230769230769232	89.0	-15.0	0.0769230769230769	16.0	4.0	1.0	-27.284732999101305	0.454	n/a	stim	s594
428.268	0.574	0.6663556264827445	draw_card	0.0	columbia_card_task_fmri	1.0	0.9166666666666666	89.0	-15.0	0.0833333333333333	16.0	5.0	1.0	-27.130121021329398	0.574	n/a	stim	s594
428.854	0.44	0.5451435052706232	draw_card	0.0	columbia_card_task_fmri	1.0	0.9090909090909092	89.0	-15.0	0.0909090909090909	16.0	6.0	1.0	-26.95681710205593	0.44	n/a	stim	s594
429.304	0.417	0.3996889598160779	draw_card	0.0	columbia_card_task_fmri	1.0	0.9	89.0	-15.0	0.1	16.0	7.0	1.0	-26.760879089664886	0.417	n/a	stim	s594
429.732	0.424	0.2219111820383001	draw_card	0.0	columbia_card_task_fmri	1.0	0.8888888888888888	89.0	-15.0	0.1111111111111111	16.0	8.0	1.0	-26.5371490371747	0.424	n/a	stim	s594
430.168	0.554	-0.0003110401839221	draw_card	0.0	columbia_card_task_fmri	1.0	0.875	89.0	-15.0	0.125	16.0	9.0	1.0	-26.278768872908937	0.554	n/a	stim	s594
430.734	0.811	-0.2860253258982077	draw_card	0.0	columbia_card_task_fmri	1.0	0.8571428571428572	89.0	-15.0	0.1428571428571428	16.0	10.0	1.0	-25.97649368578258	0.811	n/a	stim	s594
431.555	1.952	-0.6669777068505887	draw_card	0.0	columbia_card_task_fmri	1.0	0.8333333333333334	89.0	-15.0	0.1666666666666666	16.0	11.0	1.0	-25.61780831775137	1.952	n/a	stim	s594
433.519	0.816	-1.2003110401839223	draw_card	0.0	columbia_card_task_fmri	1.0	0.8	89.0	-15.0	0.2	16.0	12.0	1.0	-25.18627004384711	0.816	n/a	stim	s594
434.346	0.764	-2.000311040183922	end_round	0.0	columbia_card_task_fmri	1.0	0.75	71.0	-15.0	0.25	16.0	13.0	1.0	-24.66392035754684	0.764	12.0	stim	s594
435.12	2.25	n/a	-1.0	n/a	columbia_card_task_fmri	n/a	n/a	-1.0	n/a	n/a	n/a	n/a	n/a	n/a	n/a	n/a	feedback	s594
437.37	0.476	n/a	-1.0	n/a	columbia_card_task_fmri	n/a	n/a	-1.0	n/a	n/a	n/a	n/a	n/a	n/a	n/a	n/a	ITI	s594
437.856	1.986	4.124688959816078	draw_card	0.0	columbia_card_task_fmri	10.0	0.9375	89.0	-100.0	0.0625	16.0	1.0	1.0	-5.018355612015032	1.986	n/a	stim	s594
439.854	0.612	3.666355626482745	draw_card	0.0	columbia_card_task_fmri	10.0	0.9333333333333332	89.0	-100.0	0.0666666666666666	16.0	2.0	1.0	-4.206850109546842	0.612	n/a	stim	s594
440.477	0.569	3.142546102673222	draw_card	0.0	columbia_card_task_fmri	10.0	0.9285714285714286	89.0	-100.0	0.0714285714285714	16.0	3.0	1.0	-3.316911393663869	0.569	n/a	stim	s594
441.056	0.652	2.5381504982776173	draw_card	0.0	columbia_card_task_fmri	10.0	0.9230769230769232	89.0	-100.0	0.0769230769230769	16.0	4.0	1.0	-2.3352043670181075	0.652	n/a	stim	s594
441.719	0.585	1.833022293149412	draw_card	0.0	columbia_card_task_fmri	10.0	0.9166666666666666	89.0	-100.0	0.0833333333333333	16.0	5.0	1.0	-1.2450506145531044	0.585	n/a	stim	s594
442.316	0.635	0.999688959816076	draw_card	0.0	columbia_card_task_fmri	10.0	0.9090909090909092	89.0	-100.0	0.0909090909090909	16.0	6.0	1.0	-0.0253017204041015	0.635	n/a	stim	s594
442.962	1.131	-0.0003110401839221	draw_card	0.0	columbia_card_task_fmri	10.0	0.9	89.0	-100.0	0.1	16.0	7.0	1.0	1.351262688762375	1.131	n/a	stim	s594
444.104	0.817	-1.2225332624061436	draw_card	0.0	columbia_card_task_fmri	10.0	0.8888888888888888	89.0	-100.0	0.1111111111111111	16.0	8.0	1.0	2.9202404590469087	0.817	n/a	stim	s594
444.933	0.76	-2.750311040183922	draw_card	0.0	columbia_card_task_fmri	10.0	0.875	89.0	-100.0	0.125	16.0	9.0	1.0	4.728937619052047	0.76	n/a	stim	s594
445.704	0.624	-4.714596754469634	draw_card	1.0	columbia_card_task_fmri	10.0	0.8571428571428572	89.0	-100.0	0.1428571428571428	16.0	10.0	1.0	6.8410851929159975	0.624	10.0	stim	s594
446.341	2.25	n/a	-1.0	n/a	columbia_card_task_fmri	n/a	n/a	-1.0	n/a	n/a	n/a	n/a	n/a	n/a	n/a	n/a	feedback	s594
448.591	0.136	n/a	-1.0	n/a	columbia_card_task_fmri	n/a	n/a	-1.0	n/a	n/a	n/a	n/a	n/a	n/a	n/a	n/a	ITI	s594
448.738	1.727	4.749688959816078	draw_card	0.0	columbia_card_task_fmri	15.0	0.875	89.0	-75.0	0.125	16.0	1.0	2.0	-1.8823904395795663	1.727	n/a	stim	s594
450.475	0.398	3.999688959816078	draw_card	1.0	columbia_card_task_fmri	15.0	0.8666666666666667	89.0	-75.0	0.1333333333333333	16.0	2.0	2.0	-1.0534303596376515	0.398	2.0	stim	s594
450.889	2.25	n/a	-1.0	n/a	columbia_card_task_fmri	n/a	n/a	-1.0	n/a	n/a	n/a	n/a	n/a	n/a	n/a	n/a	feedback	s594
453.139	0.068	n/a	-1.0	n/a	columbia_card_task_fmri	n/a	n/a	-1.0	n/a	n/a	n/a	n/a	n/a	n/a	n/a	n/a	ITI	s594
453.219	0.906	4.999688959816078	draw_card	0.0	columbia_card_task_fmri	16.0	0.875	89.0	-80.0	0.125	16.0	1.0	2.0	0.1008746280652381	0.906	n/a	stim	s594
454.136	0.602	4.199688959816079	draw_card	1.0	columbia_card_task_fmri	16.0	0.8666666666666667	89.0	-80.0	0.1333333333333333	16.0	2.0	2.0	0.985157409688604	0.602	2.0	stim	s594
454.75	2.25	n/a	-1.0	n/a	columbia_card_task_fmri	n/a	n/a	-1.0	n/a	n/a	n/a	n/a	n/a	n/a	n/a	n/a	feedback	s594
457.0	0.0	n/a	-1.0	n/a	columbia_card_task_fmri	n/a	n/a	-1.0	n/a	n/a	n/a	n/a	n/a	n/a	n/a	n/a	ITI	s594
457.011	0.512	2.187188959816078	draw_card	0.0	columbia_card_task_fmri	4.0	0.6875	89.0	-5.0	0.3125	16.0	1.0	5.0	-27.374153122365296	0.512	n/a	stim	s594
457.534	0.894	1.9996889598160783	draw_card	0.0	columbia_card_task_fmri	4.0	0.6666666666666667	89.0	-5.0	0.3333333333333333	16.0	2.0	5.0	-27.305048333462054	0.894	n/a	stim	s594
458.439	0.427	1.7854032455303632	draw_card	1.0	columbia_card_task_fmri	4.0	0.6428571428571428	89.0	-5.0	0.3571428571428571	16.0	3.0	5.0	-27.23710320126743	0.427	3.0	stim	s594
458.881	2.25	n/a	-1.0	n/a	columbia_card_task_fmri	n/a	n/a	-1.0	n/a	n/a	n/a	n/a	n/a	n/a	n/a	n/a	feedback	s594
461.131	0.0	n/a	-1.0	n/a	columbia_card_task_fmri	n/a	n/a	-1.0	n/a	n/a	n/a	n/a	n/a	n/a	n/a	n/a	ITI	s594
461.143	0.583	-0.6669777068505864	draw_card	0.0	columbia_card_task_fmri	14.0	0.8333333333333334	89.0	-80.0	0.1666666666666666	6.0	1.0	1.0	3.3821167116459208	0.583	n/a	stim	s594
461.737	1.818	-3.800311040183921	draw_card	0.0	columbia_card_task_fmri	14.0	0.8	89.0	-80.0	0.2	6.0	2.0	1.0	5.949411323523272	1.818	n/a	stim	s594
463.567	0.624	-8.500311040183922	end_round	0.0	columbia_card_task_fmri	14.0	0.75	71.0	-80.0	0.25	6.0	3.0	1.0	9.051592604895056	0.624	2.0	stim	s594
464.203	2.25	n/a	-1.0	n/a	columbia_card_task_fmri	n/a	n/a	-1.0	n/a	n/a	n/a	n/a	n/a	n/a	n/a	n/a	feedback	s594
466.453	0.204	n/a	-1.0	n/a	columbia_card_task_fmri	n/a	n/a	-1.0	n/a	n/a	n/a	n/a	n/a	n/a	n/a	n/a	ITI	s594
466.672	1.024	0.999688959816078	draw_card	0.0	columbia_card_task_fmri	15.0	0.8333333333333334	89.0	-75.0	0.1666666666666666	6.0	1.0	1.0	1.8920382732532064	1.024	n/a	stim	s594
467.706	0.988	-2.000311040183922	draw_card	0.0	columbia_card_task_fmri	15.0	0.8	89.0	-75.0	0.2	6.0	2.0	1.0	4.350001645402365	0.988	n/a	stim	s594
468.707	0.533	-6.500311040183922	draw_card	1.0	columbia_card_task_fmri	15.0	0.75	89.0	-75.0	0.25	6.0	3.0	1.0	7.320087157608782	0.533	3.0	stim	s594
469.254	2.25	n/a	-1.0	n/a	columbia_card_task_fmri	n/a	n/a	-1.0	n/a	n/a	n/a	n/a	n/a	n/a	n/a	n/a	feedback	s594
471.504	0.204	n/a	-1.0	n/a	columbia_card_task_fmri	n/a	n/a	-1.0	n/a	n/a	n/a	n/a	n/a	n/a	n/a	n/a	ITI	s594
471.72	0.813	2.666355626482746	draw_card	1.0	columbia_card_task_fmri	16.0	0.8333333333333334	89.0	-70.0	0.1666666666666666	6.0	1.0	1.0	0.4020187283176639	0.813	1.0	stim	s594
472.548	2.25	n/a	-1.0	n/a	columbia_card_task_fmri	n/a	n/a	-1.0	n/a	n/a	n/a	n/a	n/a	n/a	n/a	n/a	feedback	s594
474.798	0.272	n/a	-1.0	n/a	columbia_card_task_fmri	n/a	n/a	-1.0	n/a	n/a	n/a	n/a	n/a	n/a	n/a	n/a	ITI	s594
475.081	1.153	3.249688959816078	draw_card	1.0	columbia_card_task_fmri	23.0	0.75	89.0	-60.0	0.25	8.0	1.0	2.0	4.290079040435032	1.153	1.0	stim	s594
476.251	2.25	n/a	-1.0	n/a	columbia_card_task_fmri	n/a	n/a	-1.0	n/a	n/a	n/a	n/a	n/a	n/a	n/a	n/a	feedback	s594
478.501	0.136	n/a	-1.0	n/a	columbia_card_task_fmri	n/a	n/a	-1.0	n/a	n/a	n/a	n/a	n/a	n/a	n/a	n/a	ITI	s594
478.649	1.311	3.749688959816078	draw_card	0.0	columbia_card_task_fmri	27.0	0.75	89.0	-70.0	0.25	8.0	1.0	2.0	10.350251194290207	1.311	n/a	stim	s594
479.972	0.565	0.2854032455303625	draw_card	0.0	columbia_card_task_fmri	27.0	0.7142857142857143	89.0	-70.0	0.2857142857142857	8.0	2.0	2.0	12.167659060787798	0.565	n/a	stim	s594
480.549	0.729	-4.3336443735172505	draw_card	1.0	columbia_card_task_fmri	27.0	0.6666666666666667	89.0	-70.0	0.3333333333333333	8.0	3.0	2.0	14.073289121026882	0.729	3.0	stim	s594
481.292	2.25	n/a	-1.0	n/a	columbia_card_task_fmri	n/a	n/a	-1.0	n/a	n/a	n/a	n/a	n/a	n/a	n/a	n/a	feedback	s594
483.542	0.204	n/a	-1.0	n/a	columbia_card_task_fmri	n/a	n/a	-1.0	n/a	n/a	n/a	n/a	n/a	n/a	n/a	n/a	ITI	s594
483.759	1.115	-1.0003110401839204	draw_card	1.0	columbia_card_task_fmri	16.0	0.7777777777777778	89.0	-65.0	0.2222222222222222	9.0	1.0	2.0	2.0258758947922004	1.115	1.0	stim	s594
484.887	2.25	n/a	-1.0	n/a	columbia_card_task_fmri	n/a	n/a	-1.0	n/a	n/a	n/a	n/a	n/a	n/a	n/a	n/a	feedback	s594
487.137	0.272	n/a	-1.0	n/a	columbia_card_task_fmri	n/a	n/a	-1.0	n/a	n/a	n/a	n/a	n/a	n/a	n/a	n/a	ITI	s594
487.42	1.343	4.199688959816079	end_round	0.0	columbia_card_task_fmri	13.0	0.9	71.0	-85.0	0.1	10.0	1.0	1.0	-2.2468846151811768	1.343	0.0	stim	s594
488.775	2.25	n/a	-1.0	n/a	columbia_card_task_fmri	n/a	n/a	-1.0	n/a	n/a	n/a	n/a	n/a	n/a	n/a	n/a	feedback	s594
491.025	0.272	n/a	-1.0	n/a	columbia_card_task_fmri	n/a	n/a	-1.0	n/a	n/a	n/a	n/a	n/a	n/a	n/a	n/a	ITI	s594
491.307	1.123	-0.8003110401839211	draw_card	1.0	columbia_card_task_fmri	14.0	0.8	89.0	-65.0	0.2	10.0	1.0	2.0	-0.048066941202844	1.123	1.0	stim	s594
492.442	2.25	n/a	-1.0	n/a	columbia_card_task_fmri	n/a	n/a	-1.0	n/a	n/a	n/a	n/a	n/a	n/a	n/a	n/a	feedback	s594
494.692	0.34	n/a	-1.0	n/a	columbia_card_task_fmri	n/a	n/a	-1.0	n/a	n/a	n/a	n/a	n/a	n/a	n/a	n/a	ITI	s594
495.045	1.22	0.5996889598160793	draw_card	0.0	columbia_card_task_fmri	17.0	0.8	89.0	-70.0	0.2	10.0	1.0	2.0	3.150479988443756	1.22	n/a	stim	s594
496.276	1.047	-1.3336443735172543	end_round	0.0	columbia_card_task_fmri	17.0	0.7777777777777778	71.0	-70.0	0.2222222222222222	10.0	2.0	2.0	4.519291430504666	1.047	1.0	stim	s594
497.339	2.25	n/a	-1.0	n/a	columbia_card_task_fmri	n/a	n/a	-1.0	n/a	n/a	n/a	n/a	n/a	n/a	n/a	n/a	feedback	s594
499.589	0.204	n/a	-1.0	n/a	columbia_card_task_fmri	n/a	n/a	-1.0	n/a	n/a	n/a	n/a	n/a	n/a	n/a	n/a	ITI	s594
499.806	1.329	-0.6669777068505882	draw_card	0.0	columbia_card_task_fmri	13.0	0.8333333333333334	89.0	-75.0	0.1666666666666666	12.0	1.0	2.0	1.1470206376290548	1.329	n/a	stim	s594
501.148	0.592	-2.000311040183924	draw_card	1.0	columbia_card_task_fmri	13.0	0.8181818181818181	89.0	-75.0	0.1818181818181818	12.0	2.0	2.0	2.291968603983939	0.592	2.0	stim	s594
501.754	2.25	n/a	-1.0	n/a	columbia_card_task_fmri	n/a	n/a	-1.0	n/a	n/a	n/a	n/a	n/a	n/a	n/a	n/a	feedback	s594
504.004	0.068	n/a	-1.0	n/a	columbia_card_task_fmri	n/a	n/a	-1.0	n/a	n/a	n/a	n/a	n/a	n/a	n/a	n/a	ITI	s594
504.087	1.746	0.9996889598160796	draw_card	1.0	columbia_card_task_fmri	14.0	0.8333333333333334	89.0	-70.0	0.1666666666666666	12.0	1.0	2.0	-0.3429663324785785	1.746	1.0	stim	s594
505.848	2.25	n/a	-1.0	n/a	columbia_card_task_fmri	n/a	n/a	-1.0	n/a	n/a	n/a	n/a	n/a	n/a	n/a	n/a	feedback	s594
508.098	0.0	n/a	-1.0	n/a	columbia_card_task_fmri	n/a	n/a	-1.0	n/a	n/a	n/a	n/a	n/a	n/a	n/a	n/a	ITI	s594
508.11	1.606	0.9996889598160796	end_round	0.0	columbia_card_task_fmri	16.0	0.8333333333333334	71.0	-80.0	0.1666666666666666	12.0	1.0	2.0	4.127175717249358	1.606	0.0	stim	s594
509.727	2.25	n/a	-1.0	n/a	columbia_card_task_fmri	n/a	n/a	-1.0	n/a	n/a	n/a	n/a	n/a	n/a	n/a	n/a	feedback	s594
511.977	0.408	n/a	-1.0	n/a	columbia_card_task_fmri	n/a	n/a	-1.0	n/a	n/a	n/a	n/a	n/a	n/a	n/a	n/a	ITI	s594
512.398	1.469	0.7996889598160786	draw_card	0.0	columbia_card_task_fmri	16.0	0.8	89.0	-65.0	0.2	15.0	1.0	3.0	0.7515429014157107	1.469	n/a	stim	s594
513.879	0.647	-0.357453897326778	draw_card	0.0	columbia_card_task_fmri	16.0	0.7857142857142857	89.0	-65.0	0.2142857142857142	15.0	2.0	3.0	1.5875532314871634	0.647	n/a	stim	s594
514.539	0.684	-1.6926187324916155	draw_card	0.0	columbia_card_task_fmri	16.0	0.7692307692307692	89.0	-65.0	0.2307692307692307	15.0	3.0	3.0	2.478091415615907	0.684	n/a	stim	s594
515.235	1.097	-3.250311040183922	end_round	0.0	columbia_card_task_fmri	16.0	0.75	71.0	-65.0	0.25	15.0	4.0	3.0	3.4243967264884816	1.097	3.0	stim	s594
516.346	2.25	n/a	-1.0	n/a	columbia_card_task_fmri	n/a	n/a	-1.0	n/a	n/a	n/a	n/a	n/a	n/a	n/a	n/a	feedback	s594
518.596	0.204	n/a	-1.0	n/a	columbia_card_task_fmri	n/a	n/a	-1.0	n/a	n/a	n/a	n/a	n/a	n/a	n/a	n/a	ITI	s594
518.811	1.017	-0.8753110401839221	draw_card	0.0	columbia_card_task_fmri	15.0	0.8125	89.0	-75.0	0.1875	16.0	1.0	3.0	3.4784596926656803	1.017	n/a	stim	s594
519.841	0.564	-2.000311040183922	draw_card	0.0	columbia_card_task_fmri	15.0	0.8	89.0	-75.0	0.2	16.0	2.0	3.0	4.350001645402365	0.564	n/a	stim	s594
520.418	0.47	-3.2860253258982066	draw_card	0.0	columbia_card_task_fmri	15.0	0.7857142857142857	89.0	-75.0	0.2142857142857142	16.0	3.0	3.0	5.278983843170551	0.47	n/a	stim	s594
520.901	0.687	-4.769541809414696	draw_card	0.0	columbia_card_task_fmri	15.0	0.7692307692307692	89.0	-75.0	0.2307692307692307	16.0	4.0	3.0	6.268553474155759	0.687	n/a	stim	s594
521.6	0.874	-6.500311040183922	end_round	0.0	columbia_card_task_fmri	15.0	0.75	71.0	-75.0	0.25	16.0	5.0	3.0	7.320087157608782	0.874	4.0	stim	s594
522.489	2.25	n/a	-1.0	n/a	columbia_card_task_fmri	n/a	n/a	-1.0	n/a	n/a	n/a	n/a	n/a	n/a	n/a	n/a	feedback	s594
524.739	0.136	n/a	-1.0	n/a	columbia_card_task_fmri	n/a	n/a	-1.0	n/a	n/a	n/a	n/a	n/a	n/a	n/a	n/a	ITI	s594
524.888	2.006	-0.3128110401839221	draw_card	0.0	columbia_card_task_fmri	14.0	0.6875	89.0	-35.0	0.3125	16.0	1.0	5.0	-8.9297777124286	2.006	n/a	stim	s594
526.907	0.565	-1.3336443735172543	end_round	0.0	columbia_card_task_fmri	14.0	0.6666666666666667	71.0	-35.0	0.3333333333333333	16.0	2.0	5.0	-8.543431869131805	0.565	1.0	stim	s594
527.489	2.25	n/a	-1.0	n/a	columbia_card_task_fmri	n/a	n/a	-1.0	n/a	n/a	n/a	n/a	n/a	n/a	n/a	n/a	feedback	s594
529.739	0.34	n/a	-1.0	n/a	columbia_card_task_fmri	n/a	n/a	-1.0	n/a	n/a	n/a	n/a	n/a	n/a	n/a	n/a	ITI	s594
530.091	1.077	4.866355626482745	draw_card	0.0	columbia_card_task_fmri	16.0	0.8666666666666667	89.0	-75.0	0.1333333333333333	15.0	1.0	2.0	-0.7136750651967461	1.077	n/a	stim	s594
531.179	0.583	3.99968895981608	draw_card	0.0	columbia_card_task_fmri	16.0	0.8571428571428572	89.0	-75.0	0.1428571428571428	15.0	2.0	2.0	0.1951789526562812	0.583	n/a	stim	s594
531.775	0.403	2.999688959816078	draw_card	0.0	columbia_card_task_fmri	16.0	0.8461538461538461	89.0	-75.0	0.1538461538461538	15.0	3.0	2.0	1.184250013744439	0.403	n/a	stim	s594
532.191	0.479	1.833022293149412	draw_card	0.0	columbia_card_task_fmri	16.0	0.8333333333333334	89.0	-75.0	0.1666666666666666	15.0	4.0	2.0	2.2645526646899654	0.479	n/a	stim	s594
532.684	0.692	0.4542344143615311	draw_card	0.0	columbia_card_task_fmri	16.0	0.8181818181818181	89.0	-75.0	0.1818181818181818	15.0	5.0	2.0	3.4485673848241376	0.692	n/a	stim	s594
533.389	0.563	-1.2003110401839214	end_round	0.0	columbia_card_task_fmri	16.0	0.8	71.0	-75.0	0.2	15.0	6.0	2.0	4.749849202373724	0.563	5.0	stim	s594
533.964	2.25	n/a	-1.0	n/a	columbia_card_task_fmri	n/a	n/a	-1.0	n/a	n/a	n/a	n/a	n/a	n/a	n/a	n/a	feedback	s594
536.214	0.068	n/a	-1.0	n/a	columbia_card_task_fmri	n/a	n/a	-1.0	n/a	n/a	n/a	n/a	n/a	n/a	n/a	n/a	ITI	s594
536.294	1.723	5.533022293149411	draw_card	0.0	columbia_card_task_fmri	16.0	0.8666666666666667	89.0	-70.0	0.1333333333333333	15.0	1.0	2.0	-2.4124098658004804	1.723	n/a	stim	s594
538.028	0.468	4.713974674101793	draw_card	0.0	columbia_card_task_fmri	16.0	0.8571428571428572	89.0	-70.0	0.1428571428571428	15.0	2.0	2.0	-1.5535449607571614	0.468	n/a	stim	s594
538.51	0.424	3.7689197290468464	draw_card	0.0	columbia_card_task_fmri	16.0	0.8461538461538461	89.0	-70.0	0.1538461538461538	15.0	3.0	2.0	-0.618871864540516	0.424	n/a	stim	s594
538.947	0.418	2.666355626482746	draw_card	0.0	columbia_card_task_fmri	16.0	0.8333333333333334	89.0	-70.0	0.1666666666666666	15.0	4.0	2.0	0.4020187283176639	0.418	n/a	stim	s594
539.377	0.408	1.3633253234524394	draw_card	0.0	columbia_card_task_fmri	16.0	0.8181818181818181	89.0	-70.0	0.1818181818181818	15.0	5.0	2.0	1.5209215377377134	0.408	n/a	stim	s594
539.798	1.17	-0.2003110401839214	end_round	0.0	columbia_card_task_fmri	16.0	0.8	71.0	-70.0	0.2	15.0	6.0	2.0	2.7506468476891186	1.17	5.0	stim	s594
540.983	2.25	n/a	-1.0	n/a	columbia_card_task_fmri	n/a	n/a	-1.0	n/a	n/a	n/a	n/a	n/a	n/a	n/a	n/a	feedback	s594
543.233	0.34	n/a	-1.0	n/a	columbia_card_task_fmri	n/a	n/a	-1.0	n/a	n/a	n/a	n/a	n/a	n/a	n/a	n/a	ITI	s594
543.584	2.727	2.874688959816078	draw_card	0.0	columbia_card_task_fmri	8.0	0.9375	89.0	-90.0	0.0625	16.0	1.0	1.0	-7.920797927850099	2.727	n/a	stim	s594
546.323	0.499	2.466355626482745	draw_card	1.0	columbia_card_task_fmri	8.0	0.9333333333333332	89.0	-90.0	0.0666666666666666	16.0	2.0	1.0	-7.197948597515943	0.499	2.0	stim	s594
546.84	2.25	n/a	-1.0	n/a	columbia_card_task_fmri	n/a	n/a	-1.0	n/a	n/a	n/a	n/a	n/a	n/a	n/a	n/a	feedback	s594
549.09	0.136	n/a	-1.0	n/a	columbia_card_task_fmri	n/a	n/a	-1.0	n/a	n/a	n/a	n/a	n/a	n/a	n/a	n/a	ITI	s594
549.239	1.466	4.437188959816078	draw_card	0.0	columbia_card_task_fmri	10.0	0.9375	89.0	-95.0	0.0625	16.0	1.0	1.0	-6.227770257822897	1.466	n/a	stim	s594
550.719	0.425	3.999688959816079	draw_card	0.0	columbia_card_task_fmri	10.0	0.9333333333333332	89.0	-95.0	0.0666666666666666	16.0	2.0	1.0	-5.453202950922311	0.425	n/a	stim	s594
551.158	0.364	3.499688959816079	draw_card	0.0	columbia_card_task_fmri	10.0	0.9285714285714286	89.0	-95.0	0.0714285714285714	16.0	3.0	1.0	-4.603769167162824	0.364	n/a	stim	s594
551.535	0.386	2.922765882893001	draw_card	0.0	columbia_card_task_fmri	10.0	0.9230769230769232	89.0	-95.0	0.0769230769230769	16.0	4.0	1.0	-3.666740099659627	0.386	n/a	stim	s594
551.935	0.473	2.249688959816078	draw_card	0.0	columbia_card_task_fmri	10.0	0.9166666666666666	89.0	-95.0	0.0833333333333333	16.0	5.0	1.0	-2.6261956160333	0.473	n/a	stim	s594
552.422	0.391	1.4542344143615311	draw_card	0.0	columbia_card_task_fmri	10.0	0.9090909090909092	89.0	-95.0	0.0909090909090909	16.0	6.0	1.0	-1.4619487926548125	0.391	n/a	stim	s594
552.827	0.431	0.4996889598160778	draw_card	0.0	columbia_card_task_fmri	10.0	0.9	89.0	-95.0	0.1	16.0	7.0	1.0	-0.1480167791517068	0.431	n/a	stim	s594
553.272	1.062	-0.6669777068505882	draw_card	0.0	columbia_card_task_fmri	10.0	0.8888888888888888	89.0	-95.0	0.1111111111111111	16.0	8.0	1.0	1.34957991613922	1.062	n/a	stim	s594
554.346	0.38	-2.125311040183922	draw_card	0.0	columbia_card_task_fmri	10.0	0.875	89.0	-95.0	0.125	16.0	9.0	1.0	3.075996738391865	0.38	n/a	stim	s594
554.738	0.601	-4.00031104018392	draw_card	0.0	columbia_card_task_fmri	10.0	0.8571428571428572	89.0	-95.0	0.1428571428571428	16.0	10.0	1.0	5.092067507981064	0.601	n/a	stim	s594
555.353	0.659	-6.50031104018392	draw_card	0.0	columbia_card_task_fmri	10.0	0.8333333333333334	89.0	-95.0	0.1666666666666666	16.0	11.0	1.0	7.480081177273178	0.659	n/a	stim	s594
556.026	0.752	-10.000311040183922	draw_card	0.0	columbia_card_task_fmri	10.0	0.8	89.0	-95.0	0.2	16.0	12.0	1.0	10.34801974272606	0.752	n/a	stim	s594
556.79	0.654	-15.250311040183922	end_round	0.0	columbia_card_task_fmri	10.0	0.75	71.0	-95.0	0.25	16.0	13.0	1.0	13.813446748627292	0.654	12.0	stim	s594
557.458	2.25	n/a	-1.0	n/a	columbia_card_task_fmri	n/a	n/a	-1.0	n/a	n/a	n/a	n/a	n/a	n/a	n/a	n/a	feedback	s594
559.708	0.068	n/a	-1.0	n/a	columbia_card_task_fmri	n/a	n/a	-1.0	n/a	n/a	n/a	n/a	n/a	n/a	n/a	n/a	ITI	s594
559.79	1.2	5.374688959816078	draw_card	0.0	columbia_card_task_fmri	15.0	0.875	89.0	-70.0	0.125	16.0	1.0	2.0	-3.5349983658998454	1.2	n/a	stim	s594
561.001	0.395	4.666355626482744	draw_card	0.0	columbia_card_task_fmri	15.0	0.8666666666666667	89.0	-70.0	0.1333333333333333	16.0	2.0	2.0	-2.7521435899097746	0.395	n/a	stim	s594
561.409	0.363	3.856831816958936	draw_card	0.0	columbia_card_task_fmri	15.0	0.8571428571428572	89.0	-70.0	0.1428571428571428	16.0	3.0	2.0	-1.9032768841618408	0.363	n/a	stim	s594
561.786	0.418	2.922765882893	draw_card	1.0	columbia_card_task_fmri	15.0	0.8461538461538461	89.0	-70.0	0.1538461538461538	16.0	4.0	2.0	-0.9794837672926952	0.418	4.0	stim	s594
562.221	2.25	n/a	-1.0	n/a	columbia_card_task_fmri	n/a	n/a	-1.0	n/a	n/a	n/a	n/a	n/a	n/a	n/a	n/a	feedback	s594
564.471	0.068	n/a	-1.0	n/a	columbia_card_task_fmri	n/a	n/a	-1.0	n/a	n/a	n/a	n/a	n/a	n/a	n/a	n/a	ITI	s594
564.55	1.034	4.374688959816078	draw_card	0.0	columbia_card_task_fmri	16.0	0.875	89.0	-85.0	0.125	16.0	1.0	2.0	1.753690603428069	1.034	n/a	stim	s594
565.597	0.497	3.5330222931494117	draw_card	0.0	columbia_card_task_fmri	16.0	0.8666666666666667	89.0	-85.0	0.1333333333333333	16.0	2.0	2.0	2.6840730660944487	0.497	n/a	stim	s594
566.106	0.454	2.571117531244651	draw_card	0.0	columbia_card_task_fmri	16.0	0.8571428571428572	89.0	-85.0	0.1428571428571428	16.0	3.0	2.0	3.692897379118605	0.454	n/a	stim	s594
566.571	0.822	1.4612274213545378	end_round	0.0	columbia_card_task_fmri	16.0	0.8461538461538461	71.0	-85.0	0.1538461538461538	16.0	4.0	2.0	4.79075623682391	0.822	3.0	stim	s594
567.408	2.25	n/a	-1.0	n/a	columbia_card_task_fmri	n/a	n/a	-1.0	n/a	n/a	n/a	n/a	n/a	n/a	n/a	n/a	feedback	s594
569.658	0.068	n/a	-1.0	n/a	columbia_card_task_fmri	n/a	n/a	-1.0	n/a	n/a	n/a	n/a	n/a	n/a	n/a	n/a	ITI	s594
