onset	duration	planning	condition	current_position	exp_stage	experiment_exp_id	goal_state	key_press	problem_id	response_time	start_state	trial_id	worker_id
-58.851	0.0	0	n/a	n/a	n/a	ward_and_allport	n/a	32.0	n/a	20.828	n/a	instructions	s553
3.013	6.099	1	UA_with_intermediate	1,0,0,2,0,0,0,0,0	practice	ward_and_allport	1,2,3,0,0,0,0,0,0	71.0	0.0	6.099	1,0,0,2,3,0,0,0,0	to_hand	s553
9.113	1.435	0	UA_with_intermediate	1,3,0,2,0,0,0,0,0	practice	ward_and_allport	1,2,3,0,0,0,0,0,0	89.0	0.0	1.435	1,0,0,2,3,0,0,0,0	to_board	s553
10.551	1.635	0	UA_with_intermediate	1,0,0,2,0,0,0,0,0	practice	ward_and_allport	1,2,3,0,0,0,0,0,0	89.0	0.0	1.635	1,0,0,2,3,0,0,0,0	to_hand	s553
12.187	1.594	0	UA_with_intermediate	1,0,0,2,0,0,3,0,0	practice	ward_and_allport	1,2,3,0,0,0,0,0,0	82.0	0.0	1.594	1,0,0,2,3,0,0,0,0	to_board	s553
13.783	1.543	0	UA_with_intermediate	1,0,0,0,0,0,3,0,0	practice	ward_and_allport	1,2,3,0,0,0,0,0,0	71.0	0.0	1.543	1,0,0,2,3,0,0,0,0	to_hand	s553
15.326	0.849	0	UA_with_intermediate	1,2,0,0,0,0,3,0,0	practice	ward_and_allport	1,2,3,0,0,0,0,0,0	89.0	0.0	0.849	1,0,0,2,3,0,0,0,0	to_board	s553
16.177	2.105	0	UA_with_intermediate	1,2,0,0,0,0,0,0,0	practice	ward_and_allport	1,2,3,0,0,0,0,0,0	82.0	0.0	2.105	1,0,0,2,3,0,0,0,0	to_hand	s553
18.282	1.029	0	UA_with_intermediate	1,2,3,0,0,0,0,0,0	practice	ward_and_allport	1,2,3,0,0,0,0,0,0	89.0	0.0	1.029	1,0,0,2,3,0,0,0,0	to_board	s553
19.317	1.0	0	UA_with_intermediate	n/a	practice	ward_and_allport	n/a	-1.0	0.0	n/a	n/a	feedback	s553
21.82	3.821	1	UA_with_intermediate	1,0,0,3,0,0,0,0,0	practice	ward_and_allport	1,3,2,0,0,0,0,0,0	89.0	1.0	3.821	1,2,0,3,0,0,0,0,0	to_hand	s553
25.641	1.1	0	UA_with_intermediate	1,0,0,3,0,0,2,0,0	practice	ward_and_allport	1,3,2,0,0,0,0,0,0	82.0	1.0	1.1	1,2,0,3,0,0,0,0,0	to_board	s553
26.742	1.013	0	UA_with_intermediate	1,0,0,0,0,0,2,0,0	practice	ward_and_allport	1,3,2,0,0,0,0,0,0	71.0	1.0	1.013	1,2,0,3,0,0,0,0,0	to_hand	s553
27.756	0.512	0	UA_with_intermediate	1,3,0,0,0,0,2,0,0	practice	ward_and_allport	1,3,2,0,0,0,0,0,0	89.0	1.0	0.512	1,2,0,3,0,0,0,0,0	to_board	s553
28.27	1.001	0	UA_with_intermediate	1,3,0,0,0,0,0,0,0	practice	ward_and_allport	1,3,2,0,0,0,0,0,0	82.0	1.0	1.001	1,2,0,3,0,0,0,0,0	to_hand	s553
29.272	0.503	0	UA_with_intermediate	1,3,2,0,0,0,0,0,0	practice	ward_and_allport	1,3,2,0,0,0,0,0,0	89.0	1.0	0.503	1,2,0,3,0,0,0,0,0	to_board	s553
29.781	1.0	0	UA_with_intermediate	n/a	practice	ward_and_allport	n/a	-1.0	1.0	n/a	n/a	feedback	s553
30.781	1.1	0	UA_with_intermediate	n/a	practice	ward_and_allport	n/a	-1.0	1.0	n/a	n/a	ITI	s553
31.883	2.494	1	UA_without_intermediate	0,0,0,1,2,0,0,0,0	practice	ward_and_allport	3,2,1,0,0,0,0,0,0	82.0	2.0	2.494	0,0,0,1,2,0,3,0,0	to_hand	s553
34.379	1.641	0	UA_without_intermediate	3,0,0,1,2,0,0,0,0	practice	ward_and_allport	3,2,1,0,0,0,0,0,0	89.0	2.0	1.641	0,0,0,1,2,0,3,0,0	to_board	s553
36.023	1.124	0	UA_without_intermediate	3,0,0,1,0,0,0,0,0	practice	ward_and_allport	3,2,1,0,0,0,0,0,0	71.0	2.0	1.124	0,0,0,1,2,0,3,0,0	to_hand	s553
37.147	0.905	0	UA_without_intermediate	3,2,0,1,0,0,0,0,0	practice	ward_and_allport	3,2,1,0,0,0,0,0,0	89.0	2.0	0.905	0,0,0,1,2,0,3,0,0	to_board	s553
38.055	0.57	0	UA_without_intermediate	3,2,0,0,0,0,0,0,0	practice	ward_and_allport	3,2,1,0,0,0,0,0,0	71.0	2.0	0.57	0,0,0,1,2,0,3,0,0	to_hand	s553
38.626	0.463	0	UA_without_intermediate	3,2,1,0,0,0,0,0,0	practice	ward_and_allport	3,2,1,0,0,0,0,0,0	89.0	2.0	0.463	0,0,0,1,2,0,3,0,0	to_board	s553
39.095	1.0	0	UA_without_intermediate	n/a	practice	ward_and_allport	n/a	-1.0	2.0	n/a	n/a	feedback	s553
40.095	1.2	0	UA_without_intermediate	n/a	practice	ward_and_allport	n/a	-1.0	2.0	n/a	n/a	ITI	s553
41.297	2.138	1	UA_without_intermediate	0,0,0,1,0,0,3,0,0	practice	ward_and_allport	2,3,1,0,0,0,0,0,0	71.0	3.0	2.138	0,0,0,1,2,0,3,0,0	to_hand	s553
43.437	0.87	0	UA_without_intermediate	2,0,0,1,0,0,3,0,0	practice	ward_and_allport	2,3,1,0,0,0,0,0,0	89.0	3.0	0.87	0,0,0,1,2,0,3,0,0	to_board	s553
44.31	1.33	0	UA_without_intermediate	2,0,0,0,0,0,3,0,0	practice	ward_and_allport	2,3,1,0,0,0,0,0,0	71.0	3.0	1.33	0,0,0,1,2,0,3,0,0	to_hand	s553
45.641	3.501	0	UA_without_intermediate	2,0,0,1,0,0,3,0,0	practice	ward_and_allport	2,3,1,0,0,0,0,0,0	71.0	3.0	3.501	0,0,0,1,2,0,3,0,0	to_board	s553
49.144	0.584	0	UA_without_intermediate	2,0,0,1,0,0,0,0,0	practice	ward_and_allport	2,3,1,0,0,0,0,0,0	82.0	3.0	0.584	0,0,0,1,2,0,3,0,0	to_hand	s553
49.728	0.553	0	UA_without_intermediate	2,3,0,1,0,0,0,0,0	practice	ward_and_allport	2,3,1,0,0,0,0,0,0	89.0	3.0	0.553	0,0,0,1,2,0,3,0,0	to_board	s553
50.283	0.6	0	UA_without_intermediate	2,3,0,0,0,0,0,0,0	practice	ward_and_allport	2,3,1,0,0,0,0,0,0	71.0	3.0	0.6	0,0,0,1,2,0,3,0,0	to_hand	s553
50.885	0.415	0	UA_without_intermediate	2,3,1,0,0,0,0,0,0	practice	ward_and_allport	2,3,1,0,0,0,0,0,0	89.0	3.0	0.415	0,0,0,1,2,0,3,0,0	to_board	s553
51.306	1.0	0	UA_without_intermediate	n/a	practice	ward_and_allport	n/a	-1.0	3.0	n/a	n/a	feedback	s553
52.306	1.0	0	UA_without_intermediate	n/a	practice	ward_and_allport	n/a	-1.0	3.0	n/a	n/a	ITI	s553
55.312	6.754	1	PA_with_intermediate	0,0,0,0,0,0,1,2,0	test	ward_and_allport	2,3,0,0,0,0,1,0,0	82.0	0.0	6.754	0,0,0,0,0,0,1,2,3	to_hand	s553
62.067	1.183	0	PA_with_intermediate	0,0,0,3,0,0,1,2,0	test	ward_and_allport	2,3,0,0,0,0,1,0,0	71.0	0.0	1.183	0,0,0,0,0,0,1,2,3	to_board	s553
63.252	2.83	0	PA_with_intermediate	0,0,0,3,0,0,1,0,0	test	ward_and_allport	2,3,0,0,0,0,1,0,0	82.0	0.0	2.83	0,0,0,0,0,0,1,2,3	to_hand	s553
66.083	1.132	0	PA_with_intermediate	2,0,0,3,0,0,1,0,0	test	ward_and_allport	2,3,0,0,0,0,1,0,0	89.0	0.0	1.132	0,0,0,0,0,0,1,2,3	to_board	s553
67.218	0.93	0	PA_with_intermediate	2,0,0,0,0,0,1,0,0	test	ward_and_allport	2,3,0,0,0,0,1,0,0	71.0	0.0	0.93	0,0,0,0,0,0,1,2,3	to_hand	s553
68.149	1.707	0	PA_with_intermediate	2,3,0,0,0,0,1,0,0	test	ward_and_allport	2,3,0,0,0,0,1,0,0	89.0	0.0	1.707	0,0,0,0,0,0,1,2,3	to_board	s553
69.859	1.0	0	PA_with_intermediate	n/a	test	ward_and_allport	n/a	-1.0	0.0	n/a	n/a	feedback	s553
70.859	2.768	0	PA_with_intermediate	n/a	test	ward_and_allport	n/a	-1.0	0.0	n/a	n/a	ITI	s553
73.629	3.964	1	PA_with_intermediate	1,2,0,0,0,0,0,0,0	test	ward_and_allport	1,0,0,0,0,0,2,3,0	89.0	1.0	3.964	1,2,3,0,0,0,0,0,0	to_hand	s553
77.594	1.074	0	PA_with_intermediate	1,2,0,3,0,0,0,0,0	test	ward_and_allport	1,0,0,0,0,0,2,3,0	71.0	1.0	1.074	1,2,3,0,0,0,0,0,0	to_board	s553
78.67	0.834	0	PA_with_intermediate	1,0,0,3,0,0,0,0,0	test	ward_and_allport	1,0,0,0,0,0,2,3,0	89.0	1.0	0.834	1,2,3,0,0,0,0,0,0	to_hand	s553
79.505	1.569	0	PA_with_intermediate	1,0,0,3,0,0,2,0,0	test	ward_and_allport	1,0,0,0,0,0,2,3,0	82.0	1.0	1.569	1,2,3,0,0,0,0,0,0	to_board	s553
81.077	0.864	0	PA_with_intermediate	1,0,0,0,0,0,2,0,0	test	ward_and_allport	1,0,0,0,0,0,2,3,0	71.0	1.0	0.864	1,2,3,0,0,0,0,0,0	to_hand	s553
81.942	0.598	0	PA_with_intermediate	1,0,0,0,0,0,2,3,0	test	ward_and_allport	1,0,0,0,0,0,2,3,0	82.0	1.0	0.598	1,2,3,0,0,0,0,0,0	to_board	s553
82.547	1.0	0	PA_with_intermediate	n/a	test	ward_and_allport	n/a	-1.0	1.0	n/a	n/a	feedback	s553
83.547	1.68	0	PA_with_intermediate	n/a	test	ward_and_allport	n/a	-1.0	1.0	n/a	n/a	ITI	s553
85.23	2.441	1	PA_without_intermediate	0,0,0,1,2,0,0,0,0	test	ward_and_allport	2,0,0,0,0,0,3,1,0	71.0	2.0	2.441	0,0,0,1,2,3,0,0,0	to_hand	s553
87.671	1.345	0	PA_without_intermediate	0,0,0,1,2,0,3,0,0	test	ward_and_allport	2,0,0,0,0,0,3,1,0	82.0	2.0	1.345	0,0,0,1,2,3,0,0,0	to_board	s553
89.018	1.124	0	PA_without_intermediate	0,0,0,1,0,0,3,0,0	test	ward_and_allport	2,0,0,0,0,0,3,1,0	71.0	2.0	1.124	0,0,0,1,2,3,0,0,0	to_hand	s553
90.143	1.197	0	PA_without_intermediate	2,0,0,1,0,0,3,0,0	test	ward_and_allport	2,0,0,0,0,0,3,1,0	89.0	2.0	1.197	0,0,0,1,2,3,0,0,0	to_board	s553
91.342	0.655	0	PA_without_intermediate	2,0,0,0,0,0,3,0,0	test	ward_and_allport	2,0,0,0,0,0,3,1,0	71.0	2.0	0.655	0,0,0,1,2,3,0,0,0	to_hand	s553
91.999	0.591	0	PA_without_intermediate	2,0,0,0,0,0,3,1,0	test	ward_and_allport	2,0,0,0,0,0,3,1,0	82.0	2.0	0.591	0,0,0,1,2,3,0,0,0	to_board	s553
92.595	1.0	0	PA_without_intermediate	n/a	test	ward_and_allport	n/a	-1.0	2.0	n/a	n/a	feedback	s553
93.595	2.224	0	PA_without_intermediate	n/a	test	ward_and_allport	n/a	-1.0	2.0	n/a	n/a	ITI	s553
95.822	3.48	1	PA_without_intermediate	1,2,0,0,0,0,0,0,0	test	ward_and_allport	0,0,0,3,2,0,1,0,0	89.0	3.0	3.48	1,2,3,0,0,0,0,0,0	to_hand	s553
99.303	0.593	0	PA_without_intermediate	1,2,0,3,0,0,0,0,0	test	ward_and_allport	0,0,0,3,2,0,1,0,0	71.0	3.0	0.593	1,2,3,0,0,0,0,0,0	to_board	s553
99.898	1.405	0	PA_without_intermediate	1,0,0,3,0,0,0,0,0	test	ward_and_allport	0,0,0,3,2,0,1,0,0	89.0	3.0	1.405	1,2,3,0,0,0,0,0,0	to_hand	s553
101.303	1.003	0	PA_without_intermediate	1,0,0,3,2,0,0,0,0	test	ward_and_allport	0,0,0,3,2,0,1,0,0	71.0	3.0	1.003	1,2,3,0,0,0,0,0,0	to_board	s553
102.308	0.961	0	PA_without_intermediate	0,0,0,3,2,0,0,0,0	test	ward_and_allport	0,0,0,3,2,0,1,0,0	89.0	3.0	0.961	1,2,3,0,0,0,0,0,0	to_hand	s553
103.27	0.935	0	PA_without_intermediate	0,0,0,3,2,0,1,0,0	test	ward_and_allport	0,0,0,3,2,0,1,0,0	82.0	3.0	0.935	1,2,3,0,0,0,0,0,0	to_board	s553
104.209	1.0	0	PA_without_intermediate	n/a	test	ward_and_allport	n/a	-1.0	3.0	n/a	n/a	feedback	s553
105.209	2.36	0	PA_without_intermediate	n/a	test	ward_and_allport	n/a	-1.0	3.0	n/a	n/a	ITI	s553
107.572	2.418	1	PA_without_intermediate	0,0,0,1,2,0,0,0,0	test	ward_and_allport	3,2,0,0,0,0,1,0,0	71.0	4.0	2.418	0,0,0,1,2,3,0,0,0	to_hand	s553
109.991	0.527	0	PA_without_intermediate	3,0,0,1,2,0,0,0,0	test	ward_and_allport	3,2,0,0,0,0,1,0,0	89.0	4.0	0.527	0,0,0,1,2,3,0,0,0	to_board	s553
110.52	0.795	0	PA_without_intermediate	3,0,0,1,0,0,0,0,0	test	ward_and_allport	3,2,0,0,0,0,1,0,0	71.0	4.0	0.795	0,0,0,1,2,3,0,0,0	to_hand	s553
111.317	0.524	0	PA_without_intermediate	3,2,0,1,0,0,0,0,0	test	ward_and_allport	3,2,0,0,0,0,1,0,0	89.0	4.0	0.524	0,0,0,1,2,3,0,0,0	to_board	s553
111.844	1.183	0	PA_without_intermediate	3,2,0,0,0,0,0,0,0	test	ward_and_allport	3,2,0,0,0,0,1,0,0	71.0	4.0	1.183	0,0,0,1,2,3,0,0,0	to_hand	s553
113.028	1.027	0	PA_without_intermediate	3,2,0,0,0,0,1,0,0	test	ward_and_allport	3,2,0,0,0,0,1,0,0	82.0	4.0	1.027	0,0,0,1,2,3,0,0,0	to_board	s553
114.06	1.0	0	PA_without_intermediate	n/a	test	ward_and_allport	n/a	-1.0	4.0	n/a	n/a	feedback	s553
115.06	1.0	0	PA_without_intermediate	n/a	test	ward_and_allport	n/a	-1.0	4.0	n/a	n/a	ITI	s553
116.064	1.769	1	PA_without_intermediate	0,0,0,1,2,0,0,0,0	test	ward_and_allport	3,2,0,0,0,0,1,0,0	71.0	5.0	1.769	0,0,0,1,2,3,0,0,0	to_hand	s553
117.833	0.795	0	PA_without_intermediate	3,0,0,1,2,0,0,0,0	test	ward_and_allport	3,2,0,0,0,0,1,0,0	89.0	5.0	0.795	0,0,0,1,2,3,0,0,0	to_board	s553
118.632	0.7	0	PA_without_intermediate	3,0,0,1,0,0,0,0,0	test	ward_and_allport	3,2,0,0,0,0,1,0,0	71.0	5.0	0.7	0,0,0,1,2,3,0,0,0	to_hand	s553
119.333	0.789	0	PA_without_intermediate	3,2,0,1,0,0,0,0,0	test	ward_and_allport	3,2,0,0,0,0,1,0,0	89.0	5.0	0.789	0,0,0,1,2,3,0,0,0	to_board	s553
120.125	0.655	0	PA_without_intermediate	3,2,0,0,0,0,0,0,0	test	ward_and_allport	3,2,0,0,0,0,1,0,0	71.0	5.0	0.655	0,0,0,1,2,3,0,0,0	to_hand	s553
120.781	0.779	0	PA_without_intermediate	3,2,0,0,0,0,1,0,0	test	ward_and_allport	3,2,0,0,0,0,1,0,0	82.0	5.0	0.779	0,0,0,1,2,3,0,0,0	to_board	s553
121.567	1.0	0	PA_without_intermediate	n/a	test	ward_and_allport	n/a	-1.0	5.0	n/a	n/a	feedback	s553
122.567	1.408	0	PA_without_intermediate	n/a	test	ward_and_allport	n/a	-1.0	5.0	n/a	n/a	ITI	s553
123.978	2.599	1	PA_with_intermediate	1,2,0,0,0,0,0,0,0	test	ward_and_allport	1,0,0,0,0,0,2,3,0	89.0	6.0	2.599	1,2,3,0,0,0,0,0,0	to_hand	s553
126.578	0.768	0	PA_with_intermediate	1,2,0,3,0,0,0,0,0	test	ward_and_allport	1,0,0,0,0,0,2,3,0	71.0	6.0	0.768	1,2,3,0,0,0,0,0,0	to_board	s553
127.349	0.603	0	PA_with_intermediate	1,0,0,3,0,0,0,0,0	test	ward_and_allport	1,0,0,0,0,0,2,3,0	89.0	6.0	0.603	1,2,3,0,0,0,0,0,0	to_hand	s553
127.952	0.797	0	PA_with_intermediate	1,0,0,3,0,0,2,0,0	test	ward_and_allport	1,0,0,0,0,0,2,3,0	82.0	6.0	0.797	1,2,3,0,0,0,0,0,0	to_board	s553
128.753	0.551	0	PA_with_intermediate	1,0,0,0,0,0,2,0,0	test	ward_and_allport	1,0,0,0,0,0,2,3,0	71.0	6.0	0.551	1,2,3,0,0,0,0,0,0	to_hand	s553
129.305	0.594	0	PA_with_intermediate	1,0,0,0,0,0,2,3,0	test	ward_and_allport	1,0,0,0,0,0,2,3,0	82.0	6.0	0.594	1,2,3,0,0,0,0,0,0	to_board	s553
129.903	1.0	0	PA_with_intermediate	n/a	test	ward_and_allport	n/a	-1.0	6.0	n/a	n/a	feedback	s553
130.903	1.136	0	PA_with_intermediate	n/a	test	ward_and_allport	n/a	-1.0	6.0	n/a	n/a	ITI	s553
132.042	3.344	1	PA_without_intermediate	0,0,0,0,0,0,1,2,0	test	ward_and_allport	1,0,0,3,2,0,0,0,0	82.0	7.0	3.344	0,0,0,0,0,0,1,2,3	to_hand	s553
135.387	0.739	0	PA_without_intermediate	0,0,0,3,0,0,1,2,0	test	ward_and_allport	1,0,0,3,2,0,0,0,0	71.0	7.0	0.739	0,0,0,0,0,0,1,2,3	to_board	s553
136.129	1.626	0	PA_without_intermediate	0,0,0,3,0,0,1,0,0	test	ward_and_allport	1,0,0,3,2,0,0,0,0	82.0	7.0	1.626	0,0,0,0,0,0,1,2,3	to_hand	s553
137.756	0.865	0	PA_without_intermediate	0,0,0,3,2,0,1,0,0	test	ward_and_allport	1,0,0,3,2,0,0,0,0	71.0	7.0	0.865	0,0,0,0,0,0,1,2,3	to_board	s553
138.624	0.843	0	PA_without_intermediate	0,0,0,3,2,0,0,0,0	test	ward_and_allport	1,0,0,3,2,0,0,0,0	82.0	7.0	0.843	0,0,0,0,0,0,1,2,3	to_hand	s553
139.468	0.478	0	PA_without_intermediate	1,0,0,3,2,0,0,0,0	test	ward_and_allport	1,0,0,3,2,0,0,0,0	89.0	7.0	0.478	0,0,0,0,0,0,1,2,3	to_board	s553
139.952	1.0	0	PA_without_intermediate	n/a	test	ward_and_allport	n/a	-1.0	7.0	n/a	n/a	feedback	s553
140.952	4.128	0	PA_without_intermediate	n/a	test	ward_and_allport	n/a	-1.0	7.0	n/a	n/a	ITI	s553
145.083	5.661	1	PA_without_intermediate	0,0,0,0,0,0,1,2,0	test	ward_and_allport	2,0,0,3,1,0,0,0,0	82.0	8.0	5.661	0,0,0,0,0,0,1,2,3	to_hand	s553
150.745	1.433	0	PA_without_intermediate	0,0,0,3,0,0,1,2,0	test	ward_and_allport	2,0,0,3,1,0,0,0,0	71.0	8.0	1.433	0,0,0,0,0,0,1,2,3	to_board	s553
152.182	0.862	0	PA_without_intermediate	0,0,0,3,0,0,1,0,0	test	ward_and_allport	2,0,0,3,1,0,0,0,0	82.0	8.0	0.862	0,0,0,0,0,0,1,2,3	to_hand	s553
153.045	0.63	0	PA_without_intermediate	2,0,0,3,0,0,1,0,0	test	ward_and_allport	2,0,0,3,1,0,0,0,0	89.0	8.0	0.63	0,0,0,0,0,0,1,2,3	to_board	s553
153.677	0.874	0	PA_without_intermediate	2,0,0,3,0,0,0,0,0	test	ward_and_allport	2,0,0,3,1,0,0,0,0	82.0	8.0	0.874	0,0,0,0,0,0,1,2,3	to_hand	s553
154.553	0.598	0	PA_without_intermediate	2,0,0,3,1,0,0,0,0	test	ward_and_allport	2,0,0,3,1,0,0,0,0	71.0	8.0	0.598	0,0,0,0,0,0,1,2,3	to_board	s553
155.156	1.0	0	PA_without_intermediate	n/a	test	ward_and_allport	n/a	-1.0	8.0	n/a	n/a	feedback	s553
156.156	1.136	0	PA_without_intermediate	n/a	test	ward_and_allport	n/a	-1.0	8.0	n/a	n/a	ITI	s553
157.295	3.032	1	PA_without_intermediate	0,0,0,0,0,0,1,2,0	test	ward_and_allport	3,2,0,1,0,0,0,0,0	82.0	9.0	3.032	0,0,0,0,0,0,1,2,3	to_hand	s553
160.329	0.815	0	PA_without_intermediate	3,0,0,0,0,0,1,2,0	test	ward_and_allport	3,2,0,1,0,0,0,0,0	89.0	9.0	0.815	0,0,0,0,0,0,1,2,3	to_board	s553
161.146	0.61	0	PA_without_intermediate	3,0,0,0,0,0,1,0,0	test	ward_and_allport	3,2,0,1,0,0,0,0,0	82.0	9.0	0.61	0,0,0,0,0,0,1,2,3	to_hand	s553
161.758	0.54	0	PA_without_intermediate	3,2,0,0,0,0,1,0,0	test	ward_and_allport	3,2,0,1,0,0,0,0,0	89.0	9.0	0.54	0,0,0,0,0,0,1,2,3	to_board	s553
162.301	1.696	0	PA_without_intermediate	3,2,0,0,0,0,0,0,0	test	ward_and_allport	3,2,0,1,0,0,0,0,0	82.0	9.0	1.696	0,0,0,0,0,0,1,2,3	to_hand	s553
163.998	0.558	0	PA_without_intermediate	3,2,0,1,0,0,0,0,0	test	ward_and_allport	3,2,0,1,0,0,0,0,0	71.0	9.0	0.558	0,0,0,0,0,0,1,2,3	to_board	s553
164.564	1.0	0	PA_without_intermediate	n/a	test	ward_and_allport	n/a	-1.0	9.0	n/a	n/a	feedback	s553
165.564	4.264	0	PA_without_intermediate	n/a	test	ward_and_allport	n/a	-1.0	9.0	n/a	n/a	ITI	s553
169.833	5.056	1	PA_with_intermediate	0,0,0,1,2,0,0,0,0	test	ward_and_allport	0,0,0,1,0,0,2,3,0	71.0	10.0	5.056	0,0,0,1,2,3,0,0,0	to_hand	s553
174.89	0.512	0	PA_with_intermediate	3,0,0,1,2,0,0,0,0	test	ward_and_allport	0,0,0,1,0,0,2,3,0	89.0	10.0	0.512	0,0,0,1,2,3,0,0,0	to_board	s553
175.405	1.812	0	PA_with_intermediate	3,0,0,1,0,0,0,0,0	test	ward_and_allport	0,0,0,1,0,0,2,3,0	71.0	10.0	1.812	0,0,0,1,2,3,0,0,0	to_hand	s553
177.219	0.616	0	PA_with_intermediate	3,0,0,1,0,0,2,0,0	test	ward_and_allport	0,0,0,1,0,0,2,3,0	82.0	10.0	0.616	0,0,0,1,2,3,0,0,0	to_board	s553
177.841	0.92	0	PA_with_intermediate	0,0,0,1,0,0,2,0,0	test	ward_and_allport	0,0,0,1,0,0,2,3,0	89.0	10.0	0.92	0,0,0,1,2,3,0,0,0	to_hand	s553
178.763	0.725	0	PA_with_intermediate	0,0,0,1,0,0,2,3,0	test	ward_and_allport	0,0,0,1,0,0,2,3,0	82.0	10.0	0.725	0,0,0,1,2,3,0,0,0	to_board	s553
179.494	1.0	0	PA_with_intermediate	n/a	test	ward_and_allport	n/a	-1.0	10.0	n/a	n/a	feedback	s553
180.494	3.04	0	PA_with_intermediate	n/a	test	ward_and_allport	n/a	-1.0	10.0	n/a	n/a	ITI	s553
183.539	3.074	1	PA_with_intermediate	0,0,0,1,2,0,0,0,0	test	ward_and_allport	2,3,0,1,0,0,0,0,0	71.0	11.0	3.074	0,0,0,1,2,3,0,0,0	to_hand	s553
186.615	0.527	0	PA_with_intermediate	0,0,0,1,2,0,3,0,0	test	ward_and_allport	2,3,0,1,0,0,0,0,0	82.0	11.0	0.527	0,0,0,1,2,3,0,0,0	to_board	s553
187.147	0.995	0	PA_with_intermediate	0,0,0,1,0,0,3,0,0	test	ward_and_allport	2,3,0,1,0,0,0,0,0	71.0	11.0	0.995	0,0,0,1,2,3,0,0,0	to_hand	s553
188.143	0.382	0	PA_with_intermediate	2,0,0,1,0,0,3,0,0	test	ward_and_allport	2,3,0,1,0,0,0,0,0	89.0	11.0	0.382	0,0,0,1,2,3,0,0,0	to_board	s553
188.53	0.906	0	PA_with_intermediate	2,0,0,1,0,0,0,0,0	test	ward_and_allport	2,3,0,1,0,0,0,0,0	82.0	11.0	0.906	0,0,0,1,2,3,0,0,0	to_hand	s553
189.437	0.507	0	PA_with_intermediate	2,3,0,1,0,0,0,0,0	test	ward_and_allport	2,3,0,1,0,0,0,0,0	89.0	11.0	0.507	0,0,0,1,2,3,0,0,0	to_board	s553
189.952	1.0	0	PA_with_intermediate	n/a	test	ward_and_allport	n/a	-1.0	11.0	n/a	n/a	feedback	s553
190.952	1.136	0	PA_with_intermediate	n/a	test	ward_and_allport	n/a	-1.0	11.0	n/a	n/a	ITI	s553
192.093	5.28	1	PA_with_intermediate	0,0,0,0,0,0,1,2,0	test	ward_and_allport	0,0,0,2,0,0,1,3,0	82.0	12.0	5.28	0,0,0,0,0,0,1,2,3	to_hand	s553
197.374	2.621	0	PA_with_intermediate	0,0,0,3,0,0,1,2,0	test	ward_and_allport	0,0,0,2,0,0,1,3,0	71.0	12.0	2.621	0,0,0,0,0,0,1,2,3	to_board	s553
199.999	0.658	0	PA_with_intermediate	0,0,0,3,0,0,1,0,0	test	ward_and_allport	0,0,0,2,0,0,1,3,0	82.0	12.0	0.658	0,0,0,0,0,0,1,2,3	to_hand	s553
200.658	1.641	0	PA_with_intermediate	2,0,0,3,0,0,1,0,0	test	ward_and_allport	0,0,0,2,0,0,1,3,0	89.0	12.0	1.641	0,0,0,0,0,0,1,2,3	to_board	s553
202.303	0.658	0	PA_with_intermediate	2,0,0,0,0,0,1,0,0	test	ward_and_allport	0,0,0,2,0,0,1,3,0	71.0	12.0	0.658	0,0,0,0,0,0,1,2,3	to_hand	s553
202.963	0.552	0	PA_with_intermediate	2,0,0,0,0,0,1,3,0	test	ward_and_allport	0,0,0,2,0,0,1,3,0	82.0	12.0	0.552	0,0,0,0,0,0,1,2,3	to_board	s553
203.52	1.211	0	PA_with_intermediate	0,0,0,0,0,0,1,3,0	test	ward_and_allport	0,0,0,2,0,0,1,3,0	89.0	12.0	1.211	0,0,0,0,0,0,1,2,3	to_hand	s553
204.732	0.941	0	PA_with_intermediate	0,0,0,2,0,0,1,3,0	test	ward_and_allport	0,0,0,2,0,0,1,3,0	71.0	12.0	0.941	0,0,0,0,0,0,1,2,3	to_board	s553
205.682	1.0	0	PA_with_intermediate	n/a	test	ward_and_allport	n/a	-1.0	12.0	n/a	n/a	feedback	s553
206.682	1.408	0	PA_with_intermediate	n/a	test	ward_and_allport	n/a	-1.0	12.0	n/a	n/a	ITI	s553
208.094	4.02	1	PA_without_intermediate	0,0,0,0,0,0,1,2,0	test	ward_and_allport	3,2,0,1,0,0,0,0,0	82.0	13.0	4.02	0,0,0,0,0,0,1,2,3	to_hand	s553
212.115	1.634	0	PA_without_intermediate	3,0,0,0,0,0,1,2,0	test	ward_and_allport	3,2,0,1,0,0,0,0,0	89.0	13.0	1.634	0,0,0,0,0,0,1,2,3	to_board	s553
213.753	0.824	0	PA_without_intermediate	3,0,0,0,0,0,1,0,0	test	ward_and_allport	3,2,0,1,0,0,0,0,0	82.0	13.0	0.824	0,0,0,0,0,0,1,2,3	to_hand	s553
214.577	0.591	0	PA_without_intermediate	3,2,0,0,0,0,1,0,0	test	ward_and_allport	3,2,0,1,0,0,0,0,0	89.0	13.0	0.591	0,0,0,0,0,0,1,2,3	to_board	s553
215.172	1.746	0	PA_without_intermediate	3,2,0,0,0,0,0,0,0	test	ward_and_allport	3,2,0,1,0,0,0,0,0	82.0	13.0	1.746	0,0,0,0,0,0,1,2,3	to_hand	s553
216.919	0.857	0	PA_without_intermediate	3,2,0,1,0,0,0,0,0	test	ward_and_allport	3,2,0,1,0,0,0,0,0	71.0	13.0	0.857	0,0,0,0,0,0,1,2,3	to_board	s553
217.784	1.0	0	PA_without_intermediate	n/a	test	ward_and_allport	n/a	-1.0	13.0	n/a	n/a	feedback	s553
218.784	1.68	0	PA_without_intermediate	n/a	test	ward_and_allport	n/a	-1.0	13.0	n/a	n/a	ITI	s553
220.468	4.78	1	PA_with_intermediate	0,0,0,1,2,0,0,0,0	test	ward_and_allport	2,3,0,1,0,0,0,0,0	71.0	14.0	4.78	0,0,0,1,2,3,0,0,0	to_hand	s553
225.248	1.635	0	PA_with_intermediate	0,0,0,1,2,0,3,0,0	test	ward_and_allport	2,3,0,1,0,0,0,0,0	82.0	14.0	1.635	0,0,0,1,2,3,0,0,0	to_board	s553
226.888	0.618	0	PA_with_intermediate	0,0,0,1,0,0,3,0,0	test	ward_and_allport	2,3,0,1,0,0,0,0,0	71.0	14.0	0.618	0,0,0,1,2,3,0,0,0	to_hand	s553
227.506	0.458	0	PA_with_intermediate	2,0,0,1,0,0,3,0,0	test	ward_and_allport	2,3,0,1,0,0,0,0,0	89.0	14.0	0.458	0,0,0,1,2,3,0,0,0	to_board	s553
227.968	0.534	0	PA_with_intermediate	2,0,0,1,0,0,0,0,0	test	ward_and_allport	2,3,0,1,0,0,0,0,0	82.0	14.0	0.534	0,0,0,1,2,3,0,0,0	to_hand	s553
228.503	0.65	0	PA_with_intermediate	2,3,0,1,0,0,0,0,0	test	ward_and_allport	2,3,0,1,0,0,0,0,0	89.0	14.0	0.65	0,0,0,1,2,3,0,0,0	to_board	s553
229.163	1.0	0	PA_with_intermediate	n/a	test	ward_and_allport	n/a	-1.0	14.0	n/a	n/a	feedback	s553
230.163	3.72	0	PA_with_intermediate	n/a	test	ward_and_allport	n/a	-1.0	14.0	n/a	n/a	ITI	s553
238.89	4.8	1	PA_without_intermediate	1,2,0,0,0,0,0,0,0	test	ward_and_allport	0,0,0,3,1,0,2,0,0	89.0	15.0	4.8	1,2,3,0,0,0,0,0,0	to_hand	s553
243.691	0.558	0	PA_without_intermediate	1,2,0,3,0,0,0,0,0	test	ward_and_allport	0,0,0,3,1,0,2,0,0	71.0	15.0	0.558	1,2,3,0,0,0,0,0,0	to_board	s553
244.254	1.308	0	PA_without_intermediate	1,0,0,3,0,0,0,0,0	test	ward_and_allport	0,0,0,3,1,0,2,0,0	89.0	15.0	1.308	1,2,3,0,0,0,0,0,0	to_hand	s553
245.562	2.221	0	PA_without_intermediate	1,0,0,3,0,0,2,0,0	test	ward_and_allport	0,0,0,3,1,0,2,0,0	82.0	15.0	2.221	1,2,3,0,0,0,0,0,0	to_board	s553
247.786	0.525	0	PA_without_intermediate	0,0,0,3,0,0,2,0,0	test	ward_and_allport	0,0,0,3,1,0,2,0,0	89.0	15.0	0.525	1,2,3,0,0,0,0,0,0	to_hand	s553
248.312	0.561	0	PA_without_intermediate	0,0,0,3,1,0,2,0,0	test	ward_and_allport	0,0,0,3,1,0,2,0,0	71.0	15.0	0.561	1,2,3,0,0,0,0,0,0	to_board	s553
248.878	1.0	0	PA_without_intermediate	n/a	test	ward_and_allport	n/a	-1.0	15.0	n/a	n/a	feedback	s553
249.878	2.224	0	PA_without_intermediate	n/a	test	ward_and_allport	n/a	-1.0	15.0	n/a	n/a	ITI	s553
252.107	3.594	1	PA_without_intermediate	0,0,0,0,0,0,1,2,0	test	ward_and_allport	2,0,0,3,1,0,0,0,0	82.0	16.0	3.594	0,0,0,0,0,0,1,2,3	to_hand	s553
255.701	0.912	0	PA_without_intermediate	0,0,0,3,0,0,1,2,0	test	ward_and_allport	2,0,0,3,1,0,0,0,0	71.0	16.0	0.912	0,0,0,0,0,0,1,2,3	to_board	s553
256.617	0.724	0	PA_without_intermediate	0,0,0,3,0,0,1,0,0	test	ward_and_allport	2,0,0,3,1,0,0,0,0	82.0	16.0	0.724	0,0,0,0,0,0,1,2,3	to_hand	s553
257.343	0.573	0	PA_without_intermediate	2,0,0,3,0,0,1,0,0	test	ward_and_allport	2,0,0,3,1,0,0,0,0	89.0	16.0	0.573	0,0,0,0,0,0,1,2,3	to_board	s553
257.919	0.831	0	PA_without_intermediate	2,0,0,3,0,0,0,0,0	test	ward_and_allport	2,0,0,3,1,0,0,0,0	82.0	16.0	0.831	0,0,0,0,0,0,1,2,3	to_hand	s553
258.751	0.802	0	PA_without_intermediate	2,0,0,3,1,0,0,0,0	test	ward_and_allport	2,0,0,3,1,0,0,0,0	71.0	16.0	0.802	0,0,0,0,0,0,1,2,3	to_board	s553
259.559	1.0	0	PA_without_intermediate	n/a	test	ward_and_allport	n/a	-1.0	16.0	n/a	n/a	feedback	s553
260.559	1.272	0	PA_without_intermediate	n/a	test	ward_and_allport	n/a	-1.0	16.0	n/a	n/a	ITI	s553
261.835	2.912	1	PA_with_intermediate	0,0,0,0,0,0,1,2,0	test	ward_and_allport	0,0,0,2,3,0,1,0,0	82.0	17.0	2.912	0,0,0,0,0,0,1,2,3	to_hand	s553
264.748	0.651	0	PA_with_intermediate	0,0,0,3,0,0,1,2,0	test	ward_and_allport	0,0,0,2,3,0,1,0,0	71.0	17.0	0.651	0,0,0,0,0,0,1,2,3	to_board	s553
265.404	0.626	0	PA_with_intermediate	0,0,0,3,0,0,1,0,0	test	ward_and_allport	0,0,0,2,3,0,1,0,0	82.0	17.0	0.626	0,0,0,0,0,0,1,2,3	to_hand	s553
266.031	0.967	0	PA_with_intermediate	2,0,0,3,0,0,1,0,0	test	ward_and_allport	0,0,0,2,3,0,1,0,0	89.0	17.0	0.967	0,0,0,0,0,0,1,2,3	to_board	s553
267.003	4.783	0	PA_with_intermediate	2,0,0,0,0,0,1,0,0	test	ward_and_allport	0,0,0,2,3,0,1,0,0	71.0	17.0	4.783	0,0,0,0,0,0,1,2,3	to_hand	s553
271.787	0.557	0	PA_with_intermediate	2,0,0,0,0,0,1,3,0	test	ward_and_allport	0,0,0,2,3,0,1,0,0	82.0	17.0	0.557	0,0,0,0,0,0,1,2,3	to_board	s553
272.349	0.509	0	PA_with_intermediate	0,0,0,0,0,0,1,3,0	test	ward_and_allport	0,0,0,2,3,0,1,0,0	89.0	17.0	0.509	0,0,0,0,0,0,1,2,3	to_hand	s553
272.859	0.837	0	PA_with_intermediate	0,0,0,2,0,0,1,3,0	test	ward_and_allport	0,0,0,2,3,0,1,0,0	71.0	17.0	0.837	0,0,0,0,0,0,1,2,3	to_board	s553
273.7	0.712	0	PA_with_intermediate	0,0,0,2,0,0,1,0,0	test	ward_and_allport	0,0,0,2,3,0,1,0,0	82.0	17.0	0.712	0,0,0,0,0,0,1,2,3	to_hand	s553
274.414	1.255	0	PA_with_intermediate	0,0,0,2,3,0,1,0,0	test	ward_and_allport	0,0,0,2,3,0,1,0,0	71.0	17.0	1.255	0,0,0,0,0,0,1,2,3	to_board	s553
275.676	1.0	0	PA_with_intermediate	n/a	test	ward_and_allport	n/a	-1.0	17.0	n/a	n/a	feedback	s553
276.676	2.632	0	PA_with_intermediate	n/a	test	ward_and_allport	n/a	-1.0	17.0	n/a	n/a	ITI	s553
279.313	2.668	1	PA_without_intermediate	0,0,0,1,2,0,0,0,0	test	ward_and_allport	1,0,0,0,0,0,3,2,0	71.0	18.0	2.668	0,0,0,1,2,3,0,0,0	to_hand	s553
281.983	0.634	0	PA_without_intermediate	0,0,0,1,2,0,3,0,0	test	ward_and_allport	1,0,0,0,0,0,3,2,0	82.0	18.0	0.634	0,0,0,1,2,3,0,0,0	to_board	s553
282.621	0.617	0	PA_without_intermediate	0,0,0,1,0,0,3,0,0	test	ward_and_allport	1,0,0,0,0,0,3,2,0	71.0	18.0	0.617	0,0,0,1,2,3,0,0,0	to_hand	s553
283.239	0.754	0	PA_without_intermediate	0,0,0,1,0,0,3,2,0	test	ward_and_allport	1,0,0,0,0,0,3,2,0	82.0	18.0	0.754	0,0,0,1,2,3,0,0,0	to_board	s553
283.997	0.534	0	PA_without_intermediate	0,0,0,0,0,0,3,2,0	test	ward_and_allport	1,0,0,0,0,0,3,2,0	71.0	18.0	0.534	0,0,0,1,2,3,0,0,0	to_hand	s553
284.532	0.441	0	PA_without_intermediate	1,0,0,0,0,0,3,2,0	test	ward_and_allport	1,0,0,0,0,0,3,2,0	89.0	18.0	0.441	0,0,0,1,2,3,0,0,0	to_board	s553
284.98	1.0	0	PA_without_intermediate	n/a	test	ward_and_allport	n/a	-1.0	18.0	n/a	n/a	feedback	s553
285.98	1.408	0	PA_without_intermediate	n/a	test	ward_and_allport	n/a	-1.0	18.0	n/a	n/a	ITI	s553
287.392	2.3	1	PA_without_intermediate	1,2,0,0,0,0,0,0,0	test	ward_and_allport	0,0,0,2,0,0,3,1,0	89.0	19.0	2.3	1,2,3,0,0,0,0,0,0	to_hand	s553
289.693	0.669	0	PA_without_intermediate	1,2,0,0,0,0,3,0,0	test	ward_and_allport	0,0,0,2,0,0,3,1,0	82.0	19.0	0.669	1,2,3,0,0,0,0,0,0	to_board	s553
290.368	1.033	0	PA_without_intermediate	1,0,0,0,0,0,3,0,0	test	ward_and_allport	0,0,0,2,0,0,3,1,0	89.0	19.0	1.033	1,2,3,0,0,0,0,0,0	to_hand	s553
291.402	0.671	0	PA_without_intermediate	1,0,0,2,0,0,3,0,0	test	ward_and_allport	0,0,0,2,0,0,3,1,0	71.0	19.0	0.671	1,2,3,0,0,0,0,0,0	to_board	s553
292.077	0.817	0	PA_without_intermediate	0,0,0,2,0,0,3,0,0	test	ward_and_allport	0,0,0,2,0,0,3,1,0	89.0	19.0	0.817	1,2,3,0,0,0,0,0,0	to_hand	s553
292.896	0.49	0	PA_without_intermediate	0,0,0,2,0,0,3,1,0	test	ward_and_allport	0,0,0,2,0,0,3,1,0	82.0	19.0	0.49	1,2,3,0,0,0,0,0,0	to_board	s553
293.394	1.0	0	PA_without_intermediate	n/a	test	ward_and_allport	n/a	-1.0	19.0	n/a	n/a	feedback	s553
294.394	1.0	0	PA_without_intermediate	n/a	test	ward_and_allport	n/a	-1.0	19.0	n/a	n/a	ITI	s553
295.4	2.502	1	PA_with_intermediate	1,2,0,0,0,0,0,0,0	test	ward_and_allport	1,0,0,2,3,0,0,0,0	89.0	20.0	2.502	1,2,3,0,0,0,0,0,0	to_hand	s553
297.903	0.59	0	PA_with_intermediate	1,2,0,0,0,0,3,0,0	test	ward_and_allport	1,0,0,2,3,0,0,0,0	82.0	20.0	0.59	1,2,3,0,0,0,0,0,0	to_board	s553
298.498	0.508	0	PA_with_intermediate	1,0,0,0,0,0,3,0,0	test	ward_and_allport	1,0,0,2,3,0,0,0,0	89.0	20.0	0.508	1,2,3,0,0,0,0,0,0	to_hand	s553
299.006	0.554	0	PA_with_intermediate	1,0,0,2,0,0,3,0,0	test	ward_and_allport	1,0,0,2,3,0,0,0,0	71.0	20.0	0.554	1,2,3,0,0,0,0,0,0	to_board	s553
299.566	0.521	0	PA_with_intermediate	1,0,0,2,0,0,0,0,0	test	ward_and_allport	1,0,0,2,3,0,0,0,0	82.0	20.0	0.521	1,2,3,0,0,0,0,0,0	to_hand	s553
300.089	1.038	0	PA_with_intermediate	1,0,0,2,3,0,0,0,0	test	ward_and_allport	1,0,0,2,3,0,0,0,0	71.0	20.0	1.038	1,2,3,0,0,0,0,0,0	to_board	s553
301.139	1.0	0	PA_with_intermediate	n/a	test	ward_and_allport	n/a	-1.0	20.0	n/a	n/a	feedback	s553
302.139	1.0	0	PA_with_intermediate	n/a	test	ward_and_allport	n/a	-1.0	20.0	n/a	n/a	ITI	s553
303.144	2.941	1	PA_with_intermediate	0,0,0,1,2,0,0,0,0	test	ward_and_allport	0,0,0,1,0,0,2,3,0	71.0	21.0	2.941	0,0,0,1,2,3,0,0,0	to_hand	s553
306.085	0.472	0	PA_with_intermediate	3,0,0,1,2,0,0,0,0	test	ward_and_allport	0,0,0,1,0,0,2,3,0	89.0	21.0	0.472	0,0,0,1,2,3,0,0,0	to_board	s553
306.564	0.417	0	PA_with_intermediate	3,0,0,1,0,0,0,0,0	test	ward_and_allport	0,0,0,1,0,0,2,3,0	71.0	21.0	0.417	0,0,0,1,2,3,0,0,0	to_hand	s553
306.981	0.559	0	PA_with_intermediate	3,0,0,1,0,0,2,0,0	test	ward_and_allport	0,0,0,1,0,0,2,3,0	82.0	21.0	0.559	0,0,0,1,2,3,0,0,0	to_board	s553
307.545	0.426	0	PA_with_intermediate	0,0,0,1,0,0,2,0,0	test	ward_and_allport	0,0,0,1,0,0,2,3,0	89.0	21.0	0.426	0,0,0,1,2,3,0,0,0	to_hand	s553
307.973	0.705	0	PA_with_intermediate	0,0,0,1,0,0,2,3,0	test	ward_and_allport	0,0,0,1,0,0,2,3,0	82.0	21.0	0.705	0,0,0,1,2,3,0,0,0	to_board	s553
308.686	1.0	0	PA_with_intermediate	n/a	test	ward_and_allport	n/a	-1.0	21.0	n/a	n/a	feedback	s553
309.686	1.0	0	PA_with_intermediate	n/a	test	ward_and_allport	n/a	-1.0	21.0	n/a	n/a	ITI	s553
310.691	3.327	1	PA_with_intermediate	0,0,0,1,2,0,0,0,0	test	ward_and_allport	0,0,0,1,3,0,2,0,0	71.0	22.0	3.327	0,0,0,1,2,3,0,0,0	to_hand	s553
314.02	2.218	0	PA_with_intermediate	3,0,0,1,2,0,0,0,0	test	ward_and_allport	0,0,0,1,3,0,2,0,0	89.0	22.0	2.218	0,0,0,1,2,3,0,0,0	to_board	s553
316.243	0.921	0	PA_with_intermediate	3,0,0,1,0,0,0,0,0	test	ward_and_allport	0,0,0,1,3,0,2,0,0	71.0	22.0	0.921	0,0,0,1,2,3,0,0,0	to_hand	s553
317.165	0.589	0	PA_with_intermediate	3,0,0,1,0,0,2,0,0	test	ward_and_allport	0,0,0,1,3,0,2,0,0	82.0	22.0	0.589	0,0,0,1,2,3,0,0,0	to_board	s553
317.76	1.025	0	PA_with_intermediate	0,0,0,1,0,0,2,0,0	test	ward_and_allport	0,0,0,1,3,0,2,0,0	89.0	22.0	1.025	0,0,0,1,2,3,0,0,0	to_hand	s553
318.787	1.303	0	PA_with_intermediate	0,0,0,1,0,0,2,3,0	test	ward_and_allport	0,0,0,1,3,0,2,0,0	82.0	22.0	1.303	0,0,0,1,2,3,0,0,0	to_board	s553
320.095	1.715	0	PA_with_intermediate	0,0,0,0,0,0,2,3,0	test	ward_and_allport	0,0,0,1,3,0,2,0,0	71.0	22.0	1.715	0,0,0,1,2,3,0,0,0	to_hand	s553
321.812	0.435	0	PA_with_intermediate	1,0,0,0,0,0,2,3,0	test	ward_and_allport	0,0,0,1,3,0,2,0,0	89.0	22.0	0.435	0,0,0,1,2,3,0,0,0	to_board	s553
322.252	0.734	0	PA_with_intermediate	1,0,0,0,0,0,2,0,0	test	ward_and_allport	0,0,0,1,3,0,2,0,0	82.0	22.0	0.734	0,0,0,1,2,3,0,0,0	to_hand	s553
322.987	0.845	0	PA_with_intermediate	1,3,0,0,0,0,2,0,0	test	ward_and_allport	0,0,0,1,3,0,2,0,0	89.0	22.0	0.845	0,0,0,1,2,3,0,0,0	to_board	s553
323.839	2.32	0	PA_with_intermediate	1,0,0,0,0,0,2,0,0	test	ward_and_allport	0,0,0,1,3,0,2,0,0	89.0	22.0	2.32	0,0,0,1,2,3,0,0,0	to_hand	s553
326.16	0.84	0	PA_with_intermediate	1,0,0,0,0,0,2,3,0	test	ward_and_allport	0,0,0,1,3,0,2,0,0	82.0	22.0	0.84	0,0,0,1,2,3,0,0,0	to_board	s553
327.006	0.504	0	PA_with_intermediate	0,0,0,0,0,0,2,3,0	test	ward_and_allport	0,0,0,1,3,0,2,0,0	89.0	22.0	0.504	0,0,0,1,2,3,0,0,0	to_hand	s553
327.511	0.719	0	PA_with_intermediate	0,0,0,1,0,0,2,3,0	test	ward_and_allport	0,0,0,1,3,0,2,0,0	71.0	22.0	0.719	0,0,0,1,2,3,0,0,0	to_board	s553
328.236	0.678	0	PA_with_intermediate	0,0,0,1,0,0,2,0,0	test	ward_and_allport	0,0,0,1,3,0,2,0,0	82.0	22.0	0.678	0,0,0,1,2,3,0,0,0	to_hand	s553
328.915	0.684	0	PA_with_intermediate	0,0,0,1,3,0,2,0,0	test	ward_and_allport	0,0,0,1,3,0,2,0,0	71.0	22.0	0.684	0,0,0,1,2,3,0,0,0	to_board	s553
329.606	1.0	0	PA_with_intermediate	n/a	test	ward_and_allport	n/a	-1.0	22.0	n/a	n/a	feedback	s553
330.606	1.408	0	PA_with_intermediate	n/a	test	ward_and_allport	n/a	-1.0	22.0	n/a	n/a	ITI	s553
332.021	4.093	1	PA_without_intermediate	0,0,0,0,0,0,1,2,0	test	ward_and_allport	1,0,0,3,2,0,0,0,0	82.0	23.0	4.093	0,0,0,0,0,0,1,2,3	to_hand	s553
336.115	1.533	0	PA_without_intermediate	0,0,0,3,0,0,1,2,0	test	ward_and_allport	1,0,0,3,2,0,0,0,0	71.0	23.0	1.533	0,0,0,0,0,0,1,2,3	to_board	s553
337.654	0.702	0	PA_without_intermediate	0,0,0,3,0,0,1,0,0	test	ward_and_allport	1,0,0,3,2,0,0,0,0	82.0	23.0	0.702	0,0,0,0,0,0,1,2,3	to_hand	s553
338.358	4.874	0	PA_without_intermediate	0,0,0,3,2,0,1,0,0	test	ward_and_allport	1,0,0,3,2,0,0,0,0	71.0	23.0	4.874	0,0,0,0,0,0,1,2,3	to_board	s553
343.238	1.099	0	PA_without_intermediate	0,0,0,3,2,0,0,0,0	test	ward_and_allport	1,0,0,3,2,0,0,0,0	82.0	23.0	1.099	0,0,0,0,0,0,1,2,3	to_hand	s553
344.339	1.038	0	PA_without_intermediate	1,0,0,3,2,0,0,0,0	test	ward_and_allport	1,0,0,3,2,0,0,0,0	89.0	23.0	1.038	0,0,0,0,0,0,1,2,3	to_board	s553
345.385	1.0	0	PA_without_intermediate	n/a	test	ward_and_allport	n/a	-1.0	23.0	n/a	n/a	feedback	s553
346.385	1.816	0	PA_without_intermediate	n/a	test	ward_and_allport	n/a	-1.0	23.0	n/a	n/a	ITI	s553
348.207	3.609	1	PA_with_intermediate	1,2,0,0,0,0,0,0,0	test	ward_and_allport	1,3,0,0,0,0,2,0,0	89.0	24.0	3.609	1,2,3,0,0,0,0,0,0	to_hand	s553
351.818	0.463	0	PA_with_intermediate	1,2,0,3,0,0,0,0,0	test	ward_and_allport	1,3,0,0,0,0,2,0,0	71.0	24.0	0.463	1,2,3,0,0,0,0,0,0	to_board	s553
352.287	0.661	0	PA_with_intermediate	1,0,0,3,0,0,0,0,0	test	ward_and_allport	1,3,0,0,0,0,2,0,0	89.0	24.0	0.661	1,2,3,0,0,0,0,0,0	to_hand	s553
352.949	1.967	0	PA_with_intermediate	1,0,0,3,0,0,2,0,0	test	ward_and_allport	1,3,0,0,0,0,2,0,0	82.0	24.0	1.967	1,2,3,0,0,0,0,0,0	to_board	s553
354.924	0.646	0	PA_with_intermediate	1,0,0,0,0,0,2,0,0	test	ward_and_allport	1,3,0,0,0,0,2,0,0	71.0	24.0	0.646	1,2,3,0,0,0,0,0,0	to_hand	s553
355.571	0.927	0	PA_with_intermediate	1,3,0,0,0,0,2,0,0	test	ward_and_allport	1,3,0,0,0,0,2,0,0	89.0	24.0	0.927	1,2,3,0,0,0,0,0,0	to_board	s553
356.506	1.0	0	PA_with_intermediate	n/a	test	ward_and_allport	n/a	-1.0	24.0	n/a	n/a	feedback	s553
357.506	3.176	0	PA_with_intermediate	n/a	test	ward_and_allport	n/a	-1.0	24.0	n/a	n/a	ITI	s553
360.689	3.187	1	PA_with_intermediate	1,2,0,0,0,0,0,0,0	test	ward_and_allport	1,3,0,0,0,0,2,0,0	89.0	25.0	3.187	1,2,3,0,0,0,0,0,0	to_hand	s553
363.878	0.665	0	PA_with_intermediate	1,2,0,3,0,0,0,0,0	test	ward_and_allport	1,3,0,0,0,0,2,0,0	71.0	25.0	0.665	1,2,3,0,0,0,0,0,0	to_board	s553
364.549	0.63	0	PA_with_intermediate	1,0,0,3,0,0,0,0,0	test	ward_and_allport	1,3,0,0,0,0,2,0,0	89.0	25.0	0.63	1,2,3,0,0,0,0,0,0	to_hand	s553
365.181	1.279	0	PA_with_intermediate	1,0,0,3,0,0,2,0,0	test	ward_and_allport	1,3,0,0,0,0,2,0,0	82.0	25.0	1.279	1,2,3,0,0,0,0,0,0	to_board	s553
366.467	1.7	0	PA_with_intermediate	1,0,0,0,0,0,2,0,0	test	ward_and_allport	1,3,0,0,0,0,2,0,0	71.0	25.0	1.7	1,2,3,0,0,0,0,0,0	to_hand	s553
368.167	0.44	0	PA_with_intermediate	1,3,0,0,0,0,2,0,0	test	ward_and_allport	1,3,0,0,0,0,2,0,0	89.0	25.0	0.44	1,2,3,0,0,0,0,0,0	to_board	s553
368.617	1.0	0	PA_with_intermediate	n/a	test	ward_and_allport	n/a	-1.0	25.0	n/a	n/a	feedback	s553
369.617	2.36	0	PA_with_intermediate	n/a	test	ward_and_allport	n/a	-1.0	25.0	n/a	n/a	ITI	s553
371.984	3.186	1	PA_with_intermediate	0,0,0,0,0,0,1,2,0	test	ward_and_allport	2,0,0,0,0,0,1,3,0	82.0	26.0	3.186	0,0,0,0,0,0,1,2,3	to_hand	s553
375.171	0.504	0	PA_with_intermediate	0,0,0,3,0,0,1,2,0	test	ward_and_allport	2,0,0,0,0,0,1,3,0	71.0	26.0	0.504	0,0,0,0,0,0,1,2,3	to_board	s553
375.682	0.785	0	PA_with_intermediate	0,0,0,3,0,0,1,0,0	test	ward_and_allport	2,0,0,0,0,0,1,3,0	82.0	26.0	0.785	0,0,0,0,0,0,1,2,3	to_hand	s553
376.468	1.117	0	PA_with_intermediate	2,0,0,3,0,0,1,0,0	test	ward_and_allport	2,0,0,0,0,0,1,3,0	89.0	26.0	1.117	0,0,0,0,0,0,1,2,3	to_board	s553
377.592	0.545	0	PA_with_intermediate	2,0,0,0,0,0,1,0,0	test	ward_and_allport	2,0,0,0,0,0,1,3,0	71.0	26.0	0.545	0,0,0,0,0,0,1,2,3	to_hand	s553
378.138	0.568	0	PA_with_intermediate	2,0,0,0,0,0,1,3,0	test	ward_and_allport	2,0,0,0,0,0,1,3,0	82.0	26.0	0.568	0,0,0,0,0,0,1,2,3	to_board	s553
378.714	1.0	0	PA_with_intermediate	n/a	test	ward_and_allport	n/a	-1.0	26.0	n/a	n/a	feedback	s553
379.714	1.0	0	PA_with_intermediate	n/a	test	ward_and_allport	n/a	-1.0	26.0	n/a	n/a	ITI	s553
380.721	1.657	1	PA_without_intermediate	1,2,0,0,0,0,0,0,0	test	ward_and_allport	0,0,0,2,0,0,3,1,0	89.0	27.0	1.657	1,2,3,0,0,0,0,0,0	to_hand	s553
382.379	0.79	0	PA_without_intermediate	1,2,0,0,0,0,3,0,0	test	ward_and_allport	0,0,0,2,0,0,3,1,0	82.0	27.0	0.79	1,2,3,0,0,0,0,0,0	to_board	s553
383.177	1.396	0	PA_without_intermediate	1,0,0,0,0,0,3,0,0	test	ward_and_allport	0,0,0,2,0,0,3,1,0	89.0	27.0	1.396	1,2,3,0,0,0,0,0,0	to_hand	s553
384.573	0.91	0	PA_without_intermediate	1,0,0,2,0,0,3,0,0	test	ward_and_allport	0,0,0,2,0,0,3,1,0	71.0	27.0	0.91	1,2,3,0,0,0,0,0,0	to_board	s553
385.491	0.392	0	PA_without_intermediate	0,0,0,2,0,0,3,0,0	test	ward_and_allport	0,0,0,2,0,0,3,1,0	89.0	27.0	0.392	1,2,3,0,0,0,0,0,0	to_hand	s553
385.884	0.617	0	PA_without_intermediate	0,0,0,2,0,0,3,1,0	test	ward_and_allport	0,0,0,2,0,0,3,1,0	82.0	27.0	0.617	1,2,3,0,0,0,0,0,0	to_board	s553
386.509	1.0	0	PA_without_intermediate	n/a	test	ward_and_allport	n/a	-1.0	27.0	n/a	n/a	feedback	s553
387.509	1.408	0	PA_without_intermediate	n/a	test	ward_and_allport	n/a	-1.0	27.0	n/a	n/a	ITI	s553
388.926	7.266	1	PA_with_intermediate	0,0,0,1,2,0,0,0,0	test	ward_and_allport	2,0,0,1,3,0,0,0,0	71.0	28.0	7.266	0,0,0,1,2,3,0,0,0	to_hand	s553
396.192	1.328	0	PA_with_intermediate	0,0,0,1,2,0,3,0,0	test	ward_and_allport	2,0,0,1,3,0,0,0,0	82.0	28.0	1.328	0,0,0,1,2,3,0,0,0	to_board	s553
397.527	1.637	0	PA_with_intermediate	0,0,0,1,0,0,3,0,0	test	ward_and_allport	2,0,0,1,3,0,0,0,0	71.0	28.0	1.637	0,0,0,1,2,3,0,0,0	to_hand	s553
399.165	0.527	0	PA_with_intermediate	2,0,0,1,0,0,3,0,0	test	ward_and_allport	2,0,0,1,3,0,0,0,0	89.0	28.0	0.527	0,0,0,1,2,3,0,0,0	to_board	s553
399.699	1.254	0	PA_with_intermediate	2,0,0,1,0,0,0,0,0	test	ward_and_allport	2,0,0,1,3,0,0,0,0	82.0	28.0	1.254	0,0,0,1,2,3,0,0,0	to_hand	s553
400.954	0.61	0	PA_with_intermediate	2,0,0,1,3,0,0,0,0	test	ward_and_allport	2,0,0,1,3,0,0,0,0	71.0	28.0	0.61	0,0,0,1,2,3,0,0,0	to_board	s553
401.574	1.0	0	PA_with_intermediate	n/a	test	ward_and_allport	n/a	-1.0	28.0	n/a	n/a	feedback	s553
402.574	1.816	0	PA_with_intermediate	n/a	test	ward_and_allport	n/a	-1.0	28.0	n/a	n/a	ITI	s553
404.398	2.049	1	PA_without_intermediate	1,2,0,0,0,0,0,0,0	test	ward_and_allport	0,0,0,1,0,0,3,2,0	89.0	29.0	2.049	1,2,3,0,0,0,0,0,0	to_hand	s553
406.447	1.574	0	PA_without_intermediate	1,2,0,0,0,0,3,0,0	test	ward_and_allport	0,0,0,1,0,0,3,2,0	82.0	29.0	1.574	1,2,3,0,0,0,0,0,0	to_board	s553
408.029	0.837	0	PA_without_intermediate	1,0,0,0,0,0,3,0,0	test	ward_and_allport	0,0,0,1,0,0,3,2,0	89.0	29.0	0.837	1,2,3,0,0,0,0,0,0	to_hand	s553
408.867	1.36	0	PA_without_intermediate	1,0,0,0,0,0,3,2,0	test	ward_and_allport	0,0,0,1,0,0,3,2,0	82.0	29.0	1.36	1,2,3,0,0,0,0,0,0	to_board	s553
410.236	0.559	0	PA_without_intermediate	0,0,0,0,0,0,3,2,0	test	ward_and_allport	0,0,0,1,0,0,3,2,0	89.0	29.0	0.559	1,2,3,0,0,0,0,0,0	to_hand	s553
410.796	0.679	0	PA_without_intermediate	0,0,0,1,0,0,3,2,0	test	ward_and_allport	0,0,0,1,0,0,3,2,0	71.0	29.0	0.679	1,2,3,0,0,0,0,0,0	to_board	s553
411.488	1.0	0	PA_without_intermediate	n/a	test	ward_and_allport	n/a	-1.0	29.0	n/a	n/a	feedback	s553
412.488	2.088	0	PA_without_intermediate	n/a	test	ward_and_allport	n/a	-1.0	29.0	n/a	n/a	ITI	s553
419.589	2.942	1	PA_without_intermediate	0,0,0,0,0,0,1,2,0	test	ward_and_allport	3,1,0,2,0,0,0,0,0	82.0	30.0	2.942	0,0,0,0,0,0,1,2,3	to_hand	s553
422.532	0.683	0	PA_without_intermediate	3,0,0,0,0,0,1,2,0	test	ward_and_allport	3,1,0,2,0,0,0,0,0	89.0	30.0	0.683	0,0,0,0,0,0,1,2,3	to_board	s553
423.224	2.828	0	PA_without_intermediate	3,0,0,0,0,0,1,0,0	test	ward_and_allport	3,1,0,2,0,0,0,0,0	82.0	30.0	2.828	0,0,0,0,0,0,1,2,3	to_hand	s553
426.052	0.901	0	PA_without_intermediate	3,0,0,2,0,0,1,0,0	test	ward_and_allport	3,1,0,2,0,0,0,0,0	71.0	30.0	0.901	0,0,0,0,0,0,1,2,3	to_board	s553
426.96	1.544	0	PA_without_intermediate	3,0,0,2,0,0,0,0,0	test	ward_and_allport	3,1,0,2,0,0,0,0,0	82.0	30.0	1.544	0,0,0,0,0,0,1,2,3	to_hand	s553
428.506	0.512	0	PA_without_intermediate	3,1,0,2,0,0,0,0,0	test	ward_and_allport	3,1,0,2,0,0,0,0,0	89.0	30.0	0.512	0,0,0,0,0,0,1,2,3	to_board	s553
429.028	1.0	0	PA_without_intermediate	n/a	test	ward_and_allport	n/a	-1.0	30.0	n/a	n/a	feedback	s553
430.028	1.136	0	PA_without_intermediate	n/a	test	ward_and_allport	n/a	-1.0	30.0	n/a	n/a	ITI	s553
431.172	2.047	1	PA_without_intermediate	1,2,0,0,0,0,0,0,0	test	ward_and_allport	0,0,0,3,1,0,2,0,0	89.0	31.0	2.047	1,2,3,0,0,0,0,0,0	to_hand	s553
433.221	0.994	0	PA_without_intermediate	1,2,0,3,0,0,0,0,0	test	ward_and_allport	0,0,0,3,1,0,2,0,0	71.0	31.0	0.994	1,2,3,0,0,0,0,0,0	to_board	s553
434.223	1.061	0	PA_without_intermediate	1,0,0,3,0,0,0,0,0	test	ward_and_allport	0,0,0,3,1,0,2,0,0	89.0	31.0	1.061	1,2,3,0,0,0,0,0,0	to_hand	s553
435.284	0.805	0	PA_without_intermediate	1,0,0,3,0,0,2,0,0	test	ward_and_allport	0,0,0,3,1,0,2,0,0	82.0	31.0	0.805	1,2,3,0,0,0,0,0,0	to_board	s553
436.098	0.588	0	PA_without_intermediate	0,0,0,3,0,0,2,0,0	test	ward_and_allport	0,0,0,3,1,0,2,0,0	89.0	31.0	0.588	1,2,3,0,0,0,0,0,0	to_hand	s553
436.688	0.738	0	PA_without_intermediate	0,0,0,3,1,0,2,0,0	test	ward_and_allport	0,0,0,3,1,0,2,0,0	71.0	31.0	0.738	1,2,3,0,0,0,0,0,0	to_board	s553
437.437	1.0	0	PA_without_intermediate	n/a	test	ward_and_allport	n/a	-1.0	31.0	n/a	n/a	feedback	s553
438.437	6.168	0	PA_without_intermediate	n/a	test	ward_and_allport	n/a	-1.0	31.0	n/a	n/a	ITI	s553
444.614	2.565	1	PA_without_intermediate	0,0,0,1,2,0,0,0,0	test	ward_and_allport	1,0,0,0,0,0,3,2,0	71.0	32.0	2.565	0,0,0,1,2,3,0,0,0	to_hand	s553
447.181	0.684	0	PA_without_intermediate	0,0,0,1,2,0,3,0,0	test	ward_and_allport	1,0,0,0,0,0,3,2,0	82.0	32.0	0.684	0,0,0,1,2,3,0,0,0	to_board	s553
447.875	1.324	0	PA_without_intermediate	0,0,0,1,0,0,3,0,0	test	ward_and_allport	1,0,0,0,0,0,3,2,0	71.0	32.0	1.324	0,0,0,1,2,3,0,0,0	to_hand	s553
449.2	0.548	0	PA_without_intermediate	0,0,0,1,0,0,3,2,0	test	ward_and_allport	1,0,0,0,0,0,3,2,0	82.0	32.0	0.548	0,0,0,1,2,3,0,0,0	to_board	s553
449.757	0.706	0	PA_without_intermediate	0,0,0,0,0,0,3,2,0	test	ward_and_allport	1,0,0,0,0,0,3,2,0	71.0	32.0	0.706	0,0,0,1,2,3,0,0,0	to_hand	s553
450.464	0.417	0	PA_without_intermediate	1,0,0,0,0,0,3,2,0	test	ward_and_allport	1,0,0,0,0,0,3,2,0	89.0	32.0	0.417	0,0,0,1,2,3,0,0,0	to_board	s553
450.893	1.0	0	PA_without_intermediate	n/a	test	ward_and_allport	n/a	-1.0	32.0	n/a	n/a	feedback	s553
451.893	1.816	0	PA_without_intermediate	n/a	test	ward_and_allport	n/a	-1.0	32.0	n/a	n/a	ITI	s553
453.716	4.597	1	PA_with_intermediate	1,2,0,0,0,0,0,0,0	test	ward_and_allport	1,3,0,2,0,0,0,0,0	89.0	33.0	4.597	1,2,3,0,0,0,0,0,0	to_hand	s553
458.313	0.53	0	PA_with_intermediate	1,2,0,0,0,0,3,0,0	test	ward_and_allport	1,3,0,2,0,0,0,0,0	82.0	33.0	0.53	1,2,3,0,0,0,0,0,0	to_board	s553
458.849	1.554	0	PA_with_intermediate	1,0,0,0,0,0,3,0,0	test	ward_and_allport	1,3,0,2,0,0,0,0,0	89.0	33.0	1.554	1,2,3,0,0,0,0,0,0	to_hand	s553
460.405	0.648	0	PA_with_intermediate	1,0,0,2,0,0,3,0,0	test	ward_and_allport	1,3,0,2,0,0,0,0,0	71.0	33.0	0.648	1,2,3,0,0,0,0,0,0	to_board	s553
461.061	2.23	0	PA_with_intermediate	1,0,0,2,0,0,0,0,0	test	ward_and_allport	1,3,0,2,0,0,0,0,0	82.0	33.0	2.23	1,2,3,0,0,0,0,0,0	to_hand	s553
463.292	0.604	0	PA_with_intermediate	1,3,0,2,0,0,0,0,0	test	ward_and_allport	1,3,0,2,0,0,0,0,0	89.0	33.0	0.604	1,2,3,0,0,0,0,0,0	to_board	s553
463.909	1.0	0	PA_with_intermediate	n/a	test	ward_and_allport	n/a	-1.0	33.0	n/a	n/a	feedback	s553
464.909	1.952	0	PA_with_intermediate	n/a	test	ward_and_allport	n/a	-1.0	33.0	n/a	n/a	ITI	s553
466.871	2.898	1	PA_with_intermediate	1,2,0,0,0,0,0,0,0	test	ward_and_allport	1,3,0,2,0,0,0,0,0	89.0	34.0	2.898	1,2,3,0,0,0,0,0,0	to_hand	s553
469.769	0.78	0	PA_with_intermediate	1,2,0,0,0,0,3,0,0	test	ward_and_allport	1,3,0,2,0,0,0,0,0	82.0	34.0	0.78	1,2,3,0,0,0,0,0,0	to_board	s553
470.558	1.438	0	PA_with_intermediate	1,0,0,0,0,0,3,0,0	test	ward_and_allport	1,3,0,2,0,0,0,0,0	89.0	34.0	1.438	1,2,3,0,0,0,0,0,0	to_hand	s553
471.997	1.765	0	PA_with_intermediate	1,0,0,2,0,0,3,0,0	test	ward_and_allport	1,3,0,2,0,0,0,0,0	71.0	34.0	1.765	1,2,3,0,0,0,0,0,0	to_board	s553
473.771	0.555	0	PA_with_intermediate	1,0,0,2,0,0,0,0,0	test	ward_and_allport	1,3,0,2,0,0,0,0,0	82.0	34.0	0.555	1,2,3,0,0,0,0,0,0	to_hand	s553
474.328	0.495	0	PA_with_intermediate	1,3,0,2,0,0,0,0,0	test	ward_and_allport	1,3,0,2,0,0,0,0,0	89.0	34.0	0.495	1,2,3,0,0,0,0,0,0	to_board	s553
474.838	1.0	0	PA_with_intermediate	n/a	test	ward_and_allport	n/a	-1.0	34.0	n/a	n/a	feedback	s553
475.838	1.136	0	PA_with_intermediate	n/a	test	ward_and_allport	n/a	-1.0	34.0	n/a	n/a	ITI	s553
476.982	3.405	1	PA_without_intermediate	0,0,0,1,2,0,0,0,0	test	ward_and_allport	3,1,0,0,0,0,2,0,0	71.0	35.0	3.405	0,0,0,1,2,3,0,0,0	to_hand	s553
480.389	0.521	0	PA_without_intermediate	3,0,0,1,2,0,0,0,0	test	ward_and_allport	3,1,0,0,0,0,2,0,0	89.0	35.0	0.521	0,0,0,1,2,3,0,0,0	to_board	s553
480.918	1.149	0	PA_without_intermediate	3,0,0,1,0,0,0,0,0	test	ward_and_allport	3,1,0,0,0,0,2,0,0	71.0	35.0	1.149	0,0,0,1,2,3,0,0,0	to_hand	s553
482.067	0.538	0	PA_without_intermediate	3,0,0,1,0,0,2,0,0	test	ward_and_allport	3,1,0,0,0,0,2,0,0	82.0	35.0	0.538	0,0,0,1,2,3,0,0,0	to_board	s553
482.614	0.805	0	PA_without_intermediate	3,0,0,0,0,0,2,0,0	test	ward_and_allport	3,1,0,0,0,0,2,0,0	71.0	35.0	0.805	0,0,0,1,2,3,0,0,0	to_hand	s553
483.42	0.437	0	PA_without_intermediate	3,1,0,0,0,0,2,0,0	test	ward_and_allport	3,1,0,0,0,0,2,0,0	89.0	35.0	0.437	0,0,0,1,2,3,0,0,0	to_board	s553
483.867	1.0	0	PA_without_intermediate	n/a	test	ward_and_allport	n/a	-1.0	35.0	n/a	n/a	feedback	s553
484.867	1.68	0	PA_without_intermediate	n/a	test	ward_and_allport	n/a	-1.0	35.0	n/a	n/a	ITI	s553
486.556	1.95	1	PA_without_intermediate	1,2,0,0,0,0,0,0,0	test	ward_and_allport	0,0,0,1,0,0,3,2,0	89.0	36.0	1.95	1,2,3,0,0,0,0,0,0	to_hand	s553
488.506	0.628	0	PA_without_intermediate	1,2,0,0,0,0,3,0,0	test	ward_and_allport	0,0,0,1,0,0,3,2,0	82.0	36.0	0.628	1,2,3,0,0,0,0,0,0	to_board	s553
489.141	1.802	0	PA_without_intermediate	1,0,0,0,0,0,3,0,0	test	ward_and_allport	0,0,0,1,0,0,3,2,0	89.0	36.0	1.802	1,2,3,0,0,0,0,0,0	to_hand	s553
490.944	0.663	0	PA_without_intermediate	1,0,0,0,0,0,3,2,0	test	ward_and_allport	0,0,0,1,0,0,3,2,0	82.0	36.0	0.663	1,2,3,0,0,0,0,0,0	to_board	s553
491.615	0.897	0	PA_without_intermediate	0,0,0,0,0,0,3,2,0	test	ward_and_allport	0,0,0,1,0,0,3,2,0	89.0	36.0	0.897	1,2,3,0,0,0,0,0,0	to_hand	s553
492.512	0.655	0	PA_without_intermediate	0,0,0,1,0,0,3,2,0	test	ward_and_allport	0,0,0,1,0,0,3,2,0	71.0	36.0	0.655	1,2,3,0,0,0,0,0,0	to_board	s553
493.177	1.0	0	PA_without_intermediate	n/a	test	ward_and_allport	n/a	-1.0	36.0	n/a	n/a	feedback	s553
494.177	2.088	0	PA_without_intermediate	n/a	test	ward_and_allport	n/a	-1.0	36.0	n/a	n/a	ITI	s553
496.274	2.741	1	PA_with_intermediate	1,2,0,0,0,0,0,0,0	test	ward_and_allport	1,0,0,2,3,0,0,0,0	89.0	37.0	2.741	1,2,3,0,0,0,0,0,0	to_hand	s553
499.017	0.645	0	PA_with_intermediate	1,2,0,3,0,0,0,0,0	test	ward_and_allport	1,0,0,2,3,0,0,0,0	71.0	37.0	0.645	1,2,3,0,0,0,0,0,0	to_board	s553
499.671	0.437	0	PA_with_intermediate	1,0,0,3,0,0,0,0,0	test	ward_and_allport	1,0,0,2,3,0,0,0,0	89.0	37.0	0.437	1,2,3,0,0,0,0,0,0	to_hand	s553
500.109	1.995	0	PA_with_intermediate	1,0,0,3,0,0,2,0,0	test	ward_and_allport	1,0,0,2,3,0,0,0,0	82.0	37.0	1.995	1,2,3,0,0,0,0,0,0	to_board	s553
502.114	0.713	0	PA_with_intermediate	1,0,0,0,0,0,2,0,0	test	ward_and_allport	1,0,0,2,3,0,0,0,0	71.0	37.0	0.713	1,2,3,0,0,0,0,0,0	to_hand	s553
502.828	0.836	0	PA_with_intermediate	1,3,0,0,0,0,2,0,0	test	ward_and_allport	1,0,0,2,3,0,0,0,0	89.0	37.0	0.836	1,2,3,0,0,0,0,0,0	to_board	s553
503.672	0.589	0	PA_with_intermediate	1,3,0,0,0,0,0,0,0	test	ward_and_allport	1,0,0,2,3,0,0,0,0	82.0	37.0	0.589	1,2,3,0,0,0,0,0,0	to_hand	s553
504.263	0.853	0	PA_with_intermediate	1,3,0,2,0,0,0,0,0	test	ward_and_allport	1,0,0,2,3,0,0,0,0	71.0	37.0	0.853	1,2,3,0,0,0,0,0,0	to_board	s553
505.123	0.77	0	PA_with_intermediate	1,0,0,2,0,0,0,0,0	test	ward_and_allport	1,0,0,2,3,0,0,0,0	89.0	37.0	0.77	1,2,3,0,0,0,0,0,0	to_hand	s553
505.894	0.641	0	PA_with_intermediate	1,0,0,2,3,0,0,0,0	test	ward_and_allport	1,0,0,2,3,0,0,0,0	71.0	37.0	0.641	1,2,3,0,0,0,0,0,0	to_board	s553
506.543	1.0	0	PA_with_intermediate	n/a	test	ward_and_allport	n/a	-1.0	37.0	n/a	n/a	feedback	s553
507.543	1.0	0	PA_with_intermediate	n/a	test	ward_and_allport	n/a	-1.0	37.0	n/a	n/a	ITI	s553
508.55	3.046	1	PA_without_intermediate	0,0,0,1,2,0,0,0,0	test	ward_and_allport	3,1,0,0,0,0,2,0,0	71.0	38.0	3.046	0,0,0,1,2,3,0,0,0	to_hand	s553
511.596	0.484	0	PA_without_intermediate	3,0,0,1,2,0,0,0,0	test	ward_and_allport	3,1,0,0,0,0,2,0,0	89.0	38.0	0.484	0,0,0,1,2,3,0,0,0	to_board	s553
512.086	1.565	0	PA_without_intermediate	3,0,0,1,0,0,0,0,0	test	ward_and_allport	3,1,0,0,0,0,2,0,0	71.0	38.0	1.565	0,0,0,1,2,3,0,0,0	to_hand	s553
513.653	0.863	0	PA_without_intermediate	3,0,0,1,0,0,2,0,0	test	ward_and_allport	3,1,0,0,0,0,2,0,0	82.0	38.0	0.863	0,0,0,1,2,3,0,0,0	to_board	s553
514.524	0.579	0	PA_without_intermediate	3,0,0,0,0,0,2,0,0	test	ward_and_allport	3,1,0,0,0,0,2,0,0	71.0	38.0	0.579	0,0,0,1,2,3,0,0,0	to_hand	s553
515.104	0.747	0	PA_without_intermediate	3,1,0,0,0,0,2,0,0	test	ward_and_allport	3,1,0,0,0,0,2,0,0	89.0	38.0	0.747	0,0,0,1,2,3,0,0,0	to_board	s553
515.866	1.0	0	PA_without_intermediate	n/a	test	ward_and_allport	n/a	-1.0	38.0	n/a	n/a	feedback	s553
516.866	1.0	0	PA_without_intermediate	n/a	test	ward_and_allport	n/a	-1.0	38.0	n/a	n/a	ITI	s553
517.877	1.914	1	PA_without_intermediate	0,0,0,1,2,0,0,0,0	test	ward_and_allport	2,0,0,0,0,0,3,1,0	71.0	39.0	1.914	0,0,0,1,2,3,0,0,0	to_hand	s553
519.793	0.549	0	PA_without_intermediate	0,0,0,1,2,0,3,0,0	test	ward_and_allport	2,0,0,0,0,0,3,1,0	82.0	39.0	0.549	0,0,0,1,2,3,0,0,0	to_board	s553
520.349	0.471	0	PA_without_intermediate	0,0,0,1,0,0,3,0,0	test	ward_and_allport	2,0,0,0,0,0,3,1,0	71.0	39.0	0.471	0,0,0,1,2,3,0,0,0	to_hand	s553
520.821	0.686	0	PA_without_intermediate	2,0,0,1,0,0,3,0,0	test	ward_and_allport	2,0,0,0,0,0,3,1,0	89.0	39.0	0.686	0,0,0,1,2,3,0,0,0	to_board	s553
521.514	0.598	0	PA_without_intermediate	2,0,0,0,0,0,3,0,0	test	ward_and_allport	2,0,0,0,0,0,3,1,0	71.0	39.0	0.598	0,0,0,1,2,3,0,0,0	to_hand	s553
522.113	0.543	0	PA_without_intermediate	2,0,0,0,0,0,3,1,0	test	ward_and_allport	2,0,0,0,0,0,3,1,0	82.0	39.0	0.543	0,0,0,1,2,3,0,0,0	to_board	s553
522.666	1.0	0	PA_without_intermediate	n/a	test	ward_and_allport	n/a	-1.0	39.0	n/a	n/a	feedback	s553
523.666	1.0	0	PA_without_intermediate	n/a	test	ward_and_allport	n/a	-1.0	39.0	n/a	n/a	ITI	s553
524.673	2.283	1	PA_with_intermediate	0,0,0,1,2,0,0,0,0	test	ward_and_allport	2,0,0,1,3,0,0,0,0	71.0	40.0	2.283	0,0,0,1,2,3,0,0,0	to_hand	s553
526.958	0.454	0	PA_with_intermediate	0,0,0,1,2,0,3,0,0	test	ward_and_allport	2,0,0,1,3,0,0,0,0	82.0	40.0	0.454	0,0,0,1,2,3,0,0,0	to_board	s553
527.42	0.778	0	PA_with_intermediate	0,0,0,1,0,0,3,0,0	test	ward_and_allport	2,0,0,1,3,0,0,0,0	71.0	40.0	0.778	0,0,0,1,2,3,0,0,0	to_hand	s553
528.198	0.39	0	PA_with_intermediate	2,0,0,1,0,0,3,0,0	test	ward_and_allport	2,0,0,1,3,0,0,0,0	89.0	40.0	0.39	0,0,0,1,2,3,0,0,0	to_board	s553
528.598	1.705	0	PA_with_intermediate	2,0,0,1,0,0,0,0,0	test	ward_and_allport	2,0,0,1,3,0,0,0,0	82.0	40.0	1.705	0,0,0,1,2,3,0,0,0	to_hand	s553
530.304	0.459	0	PA_with_intermediate	2,0,0,1,3,0,0,0,0	test	ward_and_allport	2,0,0,1,3,0,0,0,0	71.0	40.0	0.459	0,0,0,1,2,3,0,0,0	to_board	s553
530.773	1.0	0	PA_with_intermediate	n/a	test	ward_and_allport	n/a	-1.0	40.0	n/a	n/a	feedback	s553
531.773	1.544	0	PA_with_intermediate	n/a	test	ward_and_allport	n/a	-1.0	40.0	n/a	n/a	ITI	s553
533.323	2.896	1	PA_without_intermediate	0,0,0,0,0,0,1,2,0	test	ward_and_allport	3,1,0,2,0,0,0,0,0	82.0	41.0	2.896	0,0,0,0,0,0,1,2,3	to_hand	s553
536.22	0.336	0	PA_without_intermediate	3,0,0,0,0,0,1,2,0	test	ward_and_allport	3,1,0,2,0,0,0,0,0	89.0	41.0	0.336	0,0,0,0,0,0,1,2,3	to_board	s553
536.562	1.154	0	PA_without_intermediate	3,0,0,0,0,0,1,0,0	test	ward_and_allport	3,1,0,2,0,0,0,0,0	82.0	41.0	1.154	0,0,0,0,0,0,1,2,3	to_hand	s553
537.718	0.84	0	PA_without_intermediate	3,0,0,2,0,0,1,0,0	test	ward_and_allport	3,1,0,2,0,0,0,0,0	71.0	41.0	0.84	0,0,0,0,0,0,1,2,3	to_board	s553
538.567	0.544	0	PA_without_intermediate	3,0,0,2,0,0,0,0,0	test	ward_and_allport	3,1,0,2,0,0,0,0,0	82.0	41.0	0.544	0,0,0,0,0,0,1,2,3	to_hand	s553
539.113	0.837	0	PA_without_intermediate	3,1,0,2,0,0,0,0,0	test	ward_and_allport	3,1,0,2,0,0,0,0,0	89.0	41.0	0.837	0,0,0,0,0,0,1,2,3	to_board	s553
539.96	1.0	0	PA_without_intermediate	n/a	test	ward_and_allport	n/a	-1.0	41.0	n/a	n/a	feedback	s553
540.96	1.272	0	PA_without_intermediate	n/a	test	ward_and_allport	n/a	-1.0	41.0	n/a	n/a	ITI	s553
542.243	4.205	1	PA_with_intermediate	0,0,0,0,0,0,1,2,0	test	ward_and_allport	0,0,0,2,0,0,1,3,0	82.0	42.0	4.205	0,0,0,0,0,0,1,2,3	to_hand	s553
546.448	1.749	0	PA_with_intermediate	3,0,0,0,0,0,1,2,0	test	ward_and_allport	0,0,0,2,0,0,1,3,0	89.0	42.0	1.749	0,0,0,0,0,0,1,2,3	to_board	s553
548.206	0.785	0	PA_with_intermediate	3,0,0,0,0,0,1,0,0	test	ward_and_allport	0,0,0,2,0,0,1,3,0	82.0	42.0	0.785	0,0,0,0,0,0,1,2,3	to_hand	s553
548.993	0.868	0	PA_with_intermediate	3,0,0,2,0,0,1,0,0	test	ward_and_allport	0,0,0,2,0,0,1,3,0	71.0	42.0	0.868	0,0,0,0,0,0,1,2,3	to_board	s553
549.87	0.711	0	PA_with_intermediate	0,0,0,2,0,0,1,0,0	test	ward_and_allport	0,0,0,2,0,0,1,3,0	89.0	42.0	0.711	0,0,0,0,0,0,1,2,3	to_hand	s553
550.583	0.607	0	PA_with_intermediate	0,0,0,2,0,0,1,3,0	test	ward_and_allport	0,0,0,2,0,0,1,3,0	82.0	42.0	0.607	0,0,0,0,0,0,1,2,3	to_board	s553
551.203	1.0	0	PA_with_intermediate	n/a	test	ward_and_allport	n/a	-1.0	42.0	n/a	n/a	feedback	s553
552.203	3.04	0	PA_with_intermediate	n/a	test	ward_and_allport	n/a	-1.0	42.0	n/a	n/a	ITI	s553
555.253	3.976	1	PA_with_intermediate	0,0,0,0,0,0,1,2,0	test	ward_and_allport	0,0,0,2,3,0,1,0,0	82.0	43.0	3.976	0,0,0,0,0,0,1,2,3	to_hand	s553
559.23	0.984	0	PA_with_intermediate	3,0,0,0,0,0,1,2,0	test	ward_and_allport	0,0,0,2,3,0,1,0,0	89.0	43.0	0.984	0,0,0,0,0,0,1,2,3	to_board	s553
560.226	0.531	0	PA_with_intermediate	3,0,0,0,0,0,1,0,0	test	ward_and_allport	0,0,0,2,3,0,1,0,0	82.0	43.0	0.531	0,0,0,0,0,0,1,2,3	to_hand	s553
560.758	0.968	0	PA_with_intermediate	3,0,0,2,0,0,1,0,0	test	ward_and_allport	0,0,0,2,3,0,1,0,0	71.0	43.0	0.968	0,0,0,0,0,0,1,2,3	to_board	s553
561.736	0.976	0	PA_with_intermediate	0,0,0,2,0,0,1,0,0	test	ward_and_allport	0,0,0,2,3,0,1,0,0	89.0	43.0	0.976	0,0,0,0,0,0,1,2,3	to_hand	s553
562.713	0.62	0	PA_with_intermediate	0,0,0,2,3,0,1,0,0	test	ward_and_allport	0,0,0,2,3,0,1,0,0	71.0	43.0	0.62	0,0,0,0,0,0,1,2,3	to_board	s553
563.345	1.0	0	PA_with_intermediate	n/a	test	ward_and_allport	n/a	-1.0	43.0	n/a	n/a	feedback	s553
564.345	1.272	0	PA_with_intermediate	n/a	test	ward_and_allport	n/a	-1.0	43.0	n/a	n/a	ITI	s553
n/a	n/a	0	n/a	n/a	n/a	n/a	n/a	n/a	n/a	n/a	n/a	ITI	n/a
