onset	duration	planning	condition	current_position	exp_stage	experiment_exp_id	goal_state	key_press	problem_id	response_time	start_state	trial_id	worker_id
-66.46	0.0	0	n/a	n/a	n/a	ward_and_allport	n/a	32.0	n/a	27.329	n/a	instructions	s554
3.008	3.674	1	UA_with_intermediate	1,0,0,2,0,0,0,0,0	practice	ward_and_allport	1,2,3,0,0,0,0,0,0	71.0	0.0	3.674	1,0,0,2,3,0,0,0,0	to_hand	s554
6.683	0.701	0	UA_with_intermediate	1,0,0,2,0,0,3,0,0	practice	ward_and_allport	1,2,3,0,0,0,0,0,0	82.0	0.0	0.701	1,0,0,2,3,0,0,0,0	to_board	s554
7.386	0.658	0	UA_with_intermediate	1,0,0,0,0,0,3,0,0	practice	ward_and_allport	1,2,3,0,0,0,0,0,0	71.0	0.0	0.658	1,0,0,2,3,0,0,0,0	to_hand	s554
8.045	0.564	0	UA_with_intermediate	1,2,0,0,0,0,3,0,0	practice	ward_and_allport	1,2,3,0,0,0,0,0,0	89.0	0.0	0.564	1,0,0,2,3,0,0,0,0	to_board	s554
8.611	0.685	0	UA_with_intermediate	1,2,0,0,0,0,0,0,0	practice	ward_and_allport	1,2,3,0,0,0,0,0,0	82.0	0.0	0.685	1,0,0,2,3,0,0,0,0	to_hand	s554
9.296	0.504	0	UA_with_intermediate	1,2,3,0,0,0,0,0,0	practice	ward_and_allport	1,2,3,0,0,0,0,0,0	89.0	0.0	0.504	1,0,0,2,3,0,0,0,0	to_board	s554
9.804	1.0	0	UA_with_intermediate	n/a	practice	ward_and_allport	n/a	-1.0	0.0	n/a	n/a	feedback	s554
12.306	4.907	1	UA_with_intermediate	1,0,0,3,0,0,0,0,0	practice	ward_and_allport	1,3,2,0,0,0,0,0,0	89.0	1.0	4.907	1,2,0,3,0,0,0,0,0	to_hand	s554
17.214	1.173	0	UA_with_intermediate	1,0,0,3,0,0,2,0,0	practice	ward_and_allport	1,3,2,0,0,0,0,0,0	82.0	1.0	1.173	1,2,0,3,0,0,0,0,0	to_board	s554
18.388	0.487	0	UA_with_intermediate	1,0,0,0,0,0,2,0,0	practice	ward_and_allport	1,3,2,0,0,0,0,0,0	71.0	1.0	0.487	1,2,0,3,0,0,0,0,0	to_hand	s554
18.875	0.46	0	UA_with_intermediate	1,3,0,0,0,0,2,0,0	practice	ward_and_allport	1,3,2,0,0,0,0,0,0	89.0	1.0	0.46	1,2,0,3,0,0,0,0,0	to_board	s554
19.336	0.475	0	UA_with_intermediate	1,3,0,0,0,0,0,0,0	practice	ward_and_allport	1,3,2,0,0,0,0,0,0	82.0	1.0	0.475	1,2,0,3,0,0,0,0,0	to_hand	s554
19.812	0.393	0	UA_with_intermediate	1,3,2,0,0,0,0,0,0	practice	ward_and_allport	1,3,2,0,0,0,0,0,0	89.0	1.0	0.393	1,2,0,3,0,0,0,0,0	to_board	s554
20.208	1.0	0	UA_with_intermediate	n/a	practice	ward_and_allport	n/a	-1.0	1.0	n/a	n/a	feedback	s554
21.208	1.1	0	UA_with_intermediate	n/a	practice	ward_and_allport	n/a	-1.0	1.0	n/a	n/a	ITI	s554
22.309	2.0	1	UA_without_intermediate	0,0,0,1,2,0,0,0,0	practice	ward_and_allport	3,2,1,0,0,0,0,0,0	82.0	2.0	2.0	0,0,0,1,2,0,3,0,0	to_hand	s554
24.31	0.587	0	UA_without_intermediate	3,0,0,1,2,0,0,0,0	practice	ward_and_allport	3,2,1,0,0,0,0,0,0	89.0	2.0	0.587	0,0,0,1,2,0,3,0,0	to_board	s554
24.899	0.412	0	UA_without_intermediate	3,0,0,1,0,0,0,0,0	practice	ward_and_allport	3,2,1,0,0,0,0,0,0	71.0	2.0	0.412	0,0,0,1,2,0,3,0,0	to_hand	s554
25.312	0.352	0	UA_without_intermediate	3,2,0,1,0,0,0,0,0	practice	ward_and_allport	3,2,1,0,0,0,0,0,0	89.0	2.0	0.352	0,0,0,1,2,0,3,0,0	to_board	s554
25.668	0.707	0	UA_without_intermediate	3,2,0,0,0,0,0,0,0	practice	ward_and_allport	3,2,1,0,0,0,0,0,0	71.0	2.0	0.707	0,0,0,1,2,0,3,0,0	to_hand	s554
26.375	0.324	0	UA_without_intermediate	3,2,1,0,0,0,0,0,0	practice	ward_and_allport	3,2,1,0,0,0,0,0,0	89.0	2.0	0.324	0,0,0,1,2,0,3,0,0	to_board	s554
26.702	1.0	0	UA_without_intermediate	n/a	practice	ward_and_allport	n/a	-1.0	2.0	n/a	n/a	feedback	s554
27.702	1.2	0	UA_without_intermediate	n/a	practice	ward_and_allport	n/a	-1.0	2.0	n/a	n/a	ITI	s554
28.903	1.407	1	UA_without_intermediate	0,0,0,1,0,0,3,0,0	practice	ward_and_allport	2,3,1,0,0,0,0,0,0	71.0	3.0	1.407	0,0,0,1,2,0,3,0,0	to_hand	s554
30.311	0.544	0	UA_without_intermediate	2,0,0,1,0,0,3,0,0	practice	ward_and_allport	2,3,1,0,0,0,0,0,0	89.0	3.0	0.544	0,0,0,1,2,0,3,0,0	to_board	s554
30.858	1.098	0	UA_without_intermediate	2,0,0,1,0,0,0,0,0	practice	ward_and_allport	2,3,1,0,0,0,0,0,0	82.0	3.0	1.098	0,0,0,1,2,0,3,0,0	to_hand	s554
31.957	0.415	0	UA_without_intermediate	2,3,0,1,0,0,0,0,0	practice	ward_and_allport	2,3,1,0,0,0,0,0,0	89.0	3.0	0.415	0,0,0,1,2,0,3,0,0	to_board	s554
32.373	0.359	0	UA_without_intermediate	2,3,0,0,0,0,0,0,0	practice	ward_and_allport	2,3,1,0,0,0,0,0,0	71.0	3.0	0.359	0,0,0,1,2,0,3,0,0	to_hand	s554
32.733	0.381	0	UA_without_intermediate	2,3,1,0,0,0,0,0,0	practice	ward_and_allport	2,3,1,0,0,0,0,0,0	89.0	3.0	0.381	0,0,0,1,2,0,3,0,0	to_board	s554
33.117	1.0	0	UA_without_intermediate	n/a	practice	ward_and_allport	n/a	-1.0	3.0	n/a	n/a	feedback	s554
34.117	1.0	0	UA_without_intermediate	n/a	practice	ward_and_allport	n/a	-1.0	3.0	n/a	n/a	ITI	s554
37.123	5.684	1	PA_with_intermediate	0,0,0,0,0,0,1,2,0	test	ward_and_allport	2,3,0,0,0,0,1,0,0	82.0	0.0	5.684	0,0,0,0,0,0,1,2,3	to_hand	s554
42.808	0.932	0	PA_with_intermediate	0,0,0,3,0,0,1,2,0	test	ward_and_allport	2,3,0,0,0,0,1,0,0	71.0	0.0	0.932	0,0,0,0,0,0,1,2,3	to_board	s554
43.741	0.988	0	PA_with_intermediate	0,0,0,3,0,0,1,0,0	test	ward_and_allport	2,3,0,0,0,0,1,0,0	82.0	0.0	0.988	0,0,0,0,0,0,1,2,3	to_hand	s554
44.732	0.406	0	PA_with_intermediate	2,0,0,3,0,0,1,0,0	test	ward_and_allport	2,3,0,0,0,0,1,0,0	89.0	0.0	0.406	0,0,0,0,0,0,1,2,3	to_board	s554
45.141	0.412	0	PA_with_intermediate	2,0,0,0,0,0,1,0,0	test	ward_and_allport	2,3,0,0,0,0,1,0,0	71.0	0.0	0.412	0,0,0,0,0,0,1,2,3	to_hand	s554
45.555	0.338	0	PA_with_intermediate	2,3,0,0,0,0,1,0,0	test	ward_and_allport	2,3,0,0,0,0,1,0,0	89.0	0.0	0.338	0,0,0,0,0,0,1,2,3	to_board	s554
45.895	1.0	0	PA_with_intermediate	n/a	test	ward_and_allport	n/a	-1.0	0.0	n/a	n/a	feedback	s554
46.895	2.768	0	PA_with_intermediate	n/a	test	ward_and_allport	n/a	-1.0	0.0	n/a	n/a	ITI	s554
49.666	2.574	1	PA_with_intermediate	0,0,0,1,2,0,0,0,0	test	ward_and_allport	0,0,0,1,3,0,2,0,0	71.0	1.0	2.574	0,0,0,1,2,3,0,0,0	to_hand	s554
52.241	0.5	0	PA_with_intermediate	3,0,0,1,2,0,0,0,0	test	ward_and_allport	0,0,0,1,3,0,2,0,0	89.0	1.0	0.5	0,0,0,1,2,3,0,0,0	to_board	s554
52.742	0.55	0	PA_with_intermediate	3,0,0,1,0,0,0,0,0	test	ward_and_allport	0,0,0,1,3,0,2,0,0	71.0	1.0	0.55	0,0,0,1,2,3,0,0,0	to_hand	s554
53.293	0.386	0	PA_with_intermediate	3,0,0,1,0,0,2,0,0	test	ward_and_allport	0,0,0,1,3,0,2,0,0	82.0	1.0	0.386	0,0,0,1,2,3,0,0,0	to_board	s554
53.681	0.783	0	PA_with_intermediate	0,0,0,1,0,0,2,0,0	test	ward_and_allport	0,0,0,1,3,0,2,0,0	89.0	1.0	0.783	0,0,0,1,2,3,0,0,0	to_hand	s554
54.466	0.435	0	PA_with_intermediate	0,0,0,1,3,0,2,0,0	test	ward_and_allport	0,0,0,1,3,0,2,0,0	71.0	1.0	0.435	0,0,0,1,2,3,0,0,0	to_board	s554
54.903	1.0	0	PA_with_intermediate	n/a	test	ward_and_allport	n/a	-1.0	1.0	n/a	n/a	feedback	s554
55.903	1.68	0	PA_with_intermediate	n/a	test	ward_and_allport	n/a	-1.0	1.0	n/a	n/a	ITI	s554
57.585	2.265	1	PA_without_intermediate	0,0,0,1,2,0,0,0,0	test	ward_and_allport	3,1,0,0,0,0,2,0,0	71.0	2.0	2.265	0,0,0,1,2,3,0,0,0	to_hand	s554
59.851	0.514	0	PA_without_intermediate	3,0,0,1,2,0,0,0,0	test	ward_and_allport	3,1,0,0,0,0,2,0,0	89.0	2.0	0.514	0,0,0,1,2,3,0,0,0	to_board	s554
60.368	0.472	0	PA_without_intermediate	3,0,0,1,0,0,0,0,0	test	ward_and_allport	3,1,0,0,0,0,2,0,0	71.0	2.0	0.472	0,0,0,1,2,3,0,0,0	to_hand	s554
60.841	0.504	0	PA_without_intermediate	3,0,0,1,0,0,2,0,0	test	ward_and_allport	3,1,0,0,0,0,2,0,0	82.0	2.0	0.504	0,0,0,1,2,3,0,0,0	to_board	s554
61.348	0.471	0	PA_without_intermediate	3,0,0,0,0,0,2,0,0	test	ward_and_allport	3,1,0,0,0,0,2,0,0	71.0	2.0	0.471	0,0,0,1,2,3,0,0,0	to_hand	s554
61.82	0.431	0	PA_without_intermediate	3,1,0,0,0,0,2,0,0	test	ward_and_allport	3,1,0,0,0,0,2,0,0	89.0	2.0	0.431	0,0,0,1,2,3,0,0,0	to_board	s554
62.255	1.0	0	PA_without_intermediate	n/a	test	ward_and_allport	n/a	-1.0	2.0	n/a	n/a	feedback	s554
63.255	2.224	0	PA_without_intermediate	n/a	test	ward_and_allport	n/a	-1.0	2.0	n/a	n/a	ITI	s554
65.482	2.839	1	PA_without_intermediate	0,0,0,0,0,0,1,2,0	test	ward_and_allport	3,1,0,2,0,0,0,0,0	82.0	3.0	2.839	0,0,0,0,0,0,1,2,3	to_hand	s554
68.322	0.491	0	PA_without_intermediate	3,0,0,0,0,0,1,2,0	test	ward_and_allport	3,1,0,2,0,0,0,0,0	89.0	3.0	0.491	0,0,0,0,0,0,1,2,3	to_board	s554
68.816	0.647	0	PA_without_intermediate	3,0,0,0,0,0,1,0,0	test	ward_and_allport	3,1,0,2,0,0,0,0,0	82.0	3.0	0.647	0,0,0,0,0,0,1,2,3	to_hand	s554
69.464	0.689	0	PA_without_intermediate	3,0,0,2,0,0,1,0,0	test	ward_and_allport	3,1,0,2,0,0,0,0,0	71.0	3.0	0.689	0,0,0,0,0,0,1,2,3	to_board	s554
70.156	0.682	0	PA_without_intermediate	3,0,0,2,0,0,0,0,0	test	ward_and_allport	3,1,0,2,0,0,0,0,0	82.0	3.0	0.682	0,0,0,0,0,0,1,2,3	to_hand	s554
70.839	0.598	0	PA_without_intermediate	3,1,0,2,0,0,0,0,0	test	ward_and_allport	3,1,0,2,0,0,0,0,0	89.0	3.0	0.598	0,0,0,0,0,0,1,2,3	to_board	s554
71.44	1.0	0	PA_without_intermediate	n/a	test	ward_and_allport	n/a	-1.0	3.0	n/a	n/a	feedback	s554
72.44	2.36	0	PA_without_intermediate	n/a	test	ward_and_allport	n/a	-1.0	3.0	n/a	n/a	ITI	s554
74.803	2.232	1	PA_without_intermediate	0,0,0,1,2,0,0,0,0	test	ward_and_allport	2,0,0,0,0,0,3,1,0	71.0	4.0	2.232	0,0,0,1,2,3,0,0,0	to_hand	s554
77.037	0.669	0	PA_without_intermediate	0,0,0,1,2,0,3,0,0	test	ward_and_allport	2,0,0,0,0,0,3,1,0	82.0	4.0	0.669	0,0,0,1,2,3,0,0,0	to_board	s554
77.708	0.63	0	PA_without_intermediate	0,0,0,1,0,0,3,0,0	test	ward_and_allport	2,0,0,0,0,0,3,1,0	71.0	4.0	0.63	0,0,0,1,2,3,0,0,0	to_hand	s554
78.338	0.488	0	PA_without_intermediate	2,0,0,1,0,0,3,0,0	test	ward_and_allport	2,0,0,0,0,0,3,1,0	89.0	4.0	0.488	0,0,0,1,2,3,0,0,0	to_board	s554
78.828	0.448	0	PA_without_intermediate	2,0,0,0,0,0,3,0,0	test	ward_and_allport	2,0,0,0,0,0,3,1,0	71.0	4.0	0.448	0,0,0,1,2,3,0,0,0	to_hand	s554
79.276	0.42	0	PA_without_intermediate	2,0,0,0,0,0,3,1,0	test	ward_and_allport	2,0,0,0,0,0,3,1,0	82.0	4.0	0.42	0,0,0,1,2,3,0,0,0	to_board	s554
79.701	1.0	0	PA_without_intermediate	n/a	test	ward_and_allport	n/a	-1.0	4.0	n/a	n/a	feedback	s554
80.701	1.0	0	PA_without_intermediate	n/a	test	ward_and_allport	n/a	-1.0	4.0	n/a	n/a	ITI	s554
81.704	2.701	1	PA_without_intermediate	1,2,0,0,0,0,0,0,0	test	ward_and_allport	0,0,0,3,1,0,2,0,0	89.0	5.0	2.701	1,2,3,0,0,0,0,0,0	to_hand	s554
84.405	0.582	0	PA_without_intermediate	1,2,0,3,0,0,0,0,0	test	ward_and_allport	0,0,0,3,1,0,2,0,0	71.0	5.0	0.582	1,2,3,0,0,0,0,0,0	to_board	s554
84.99	1.016	0	PA_without_intermediate	1,0,0,3,0,0,0,0,0	test	ward_and_allport	0,0,0,3,1,0,2,0,0	89.0	5.0	1.016	1,2,3,0,0,0,0,0,0	to_hand	s554
86.007	0.65	0	PA_without_intermediate	1,0,0,3,0,0,2,0,0	test	ward_and_allport	0,0,0,3,1,0,2,0,0	82.0	5.0	0.65	1,2,3,0,0,0,0,0,0	to_board	s554
86.659	0.536	0	PA_without_intermediate	0,0,0,3,0,0,2,0,0	test	ward_and_allport	0,0,0,3,1,0,2,0,0	89.0	5.0	0.536	1,2,3,0,0,0,0,0,0	to_hand	s554
87.197	0.485	0	PA_without_intermediate	0,0,0,3,1,0,2,0,0	test	ward_and_allport	0,0,0,3,1,0,2,0,0	71.0	5.0	0.485	1,2,3,0,0,0,0,0,0	to_board	s554
87.687	1.0	0	PA_without_intermediate	n/a	test	ward_and_allport	n/a	-1.0	5.0	n/a	n/a	feedback	s554
88.687	1.408	0	PA_without_intermediate	n/a	test	ward_and_allport	n/a	-1.0	5.0	n/a	n/a	ITI	s554
90.097	3.104	1	PA_with_intermediate	0,0,0,1,2,0,0,0,0	test	ward_and_allport	2,3,0,1,0,0,0,0,0	71.0	6.0	3.104	0,0,0,1,2,3,0,0,0	to_hand	s554
93.203	0.709	0	PA_with_intermediate	0,0,0,1,2,0,3,0,0	test	ward_and_allport	2,3,0,1,0,0,0,0,0	82.0	6.0	0.709	0,0,0,1,2,3,0,0,0	to_board	s554
93.915	0.582	0	PA_with_intermediate	0,0,0,1,0,0,3,0,0	test	ward_and_allport	2,3,0,1,0,0,0,0,0	71.0	6.0	0.582	0,0,0,1,2,3,0,0,0	to_hand	s554
94.498	0.578	0	PA_with_intermediate	2,0,0,1,0,0,3,0,0	test	ward_and_allport	2,3,0,1,0,0,0,0,0	89.0	6.0	0.578	0,0,0,1,2,3,0,0,0	to_board	s554
95.079	0.61	0	PA_with_intermediate	2,0,0,1,0,0,0,0,0	test	ward_and_allport	2,3,0,1,0,0,0,0,0	82.0	6.0	0.61	0,0,0,1,2,3,0,0,0	to_hand	s554
95.69	0.558	0	PA_with_intermediate	2,3,0,1,0,0,0,0,0	test	ward_and_allport	2,3,0,1,0,0,0,0,0	89.0	6.0	0.558	0,0,0,1,2,3,0,0,0	to_board	s554
96.253	1.0	0	PA_with_intermediate	n/a	test	ward_and_allport	n/a	-1.0	6.0	n/a	n/a	feedback	s554
97.253	1.136	0	PA_with_intermediate	n/a	test	ward_and_allport	n/a	-1.0	6.0	n/a	n/a	ITI	s554
98.392	1.627	1	PA_without_intermediate	1,2,0,0,0,0,0,0,0	test	ward_and_allport	0,0,0,2,0,0,3,1,0	89.0	7.0	1.627	1,2,3,0,0,0,0,0,0	to_hand	s554
100.02	1.1	0	PA_without_intermediate	1,2,0,0,0,0,3,0,0	test	ward_and_allport	0,0,0,2,0,0,3,1,0	82.0	7.0	1.1	1,2,3,0,0,0,0,0,0	to_board	s554
101.123	0.991	0	PA_without_intermediate	1,0,0,0,0,0,3,0,0	test	ward_and_allport	0,0,0,2,0,0,3,1,0	89.0	7.0	0.991	1,2,3,0,0,0,0,0,0	to_hand	s554
102.115	0.427	0	PA_without_intermediate	1,0,0,2,0,0,3,0,0	test	ward_and_allport	0,0,0,2,0,0,3,1,0	71.0	7.0	0.427	1,2,3,0,0,0,0,0,0	to_board	s554
102.545	0.409	0	PA_without_intermediate	0,0,0,2,0,0,3,0,0	test	ward_and_allport	0,0,0,2,0,0,3,1,0	89.0	7.0	0.409	1,2,3,0,0,0,0,0,0	to_hand	s554
102.955	0.511	0	PA_without_intermediate	0,0,0,2,0,0,3,1,0	test	ward_and_allport	0,0,0,2,0,0,3,1,0	82.0	7.0	0.511	1,2,3,0,0,0,0,0,0	to_board	s554
103.47	1.0	0	PA_without_intermediate	n/a	test	ward_and_allport	n/a	-1.0	7.0	n/a	n/a	feedback	s554
104.47	4.128	0	PA_without_intermediate	n/a	test	ward_and_allport	n/a	-1.0	7.0	n/a	n/a	ITI	s554
108.6	1.765	1	PA_without_intermediate	0,0,0,0,0,0,1,2,0	test	ward_and_allport	2,0,0,3,1,0,0,0,0	82.0	8.0	1.765	0,0,0,0,0,0,1,2,3	to_hand	s554
110.366	0.714	0	PA_without_intermediate	0,0,0,3,0,0,1,2,0	test	ward_and_allport	2,0,0,3,1,0,0,0,0	71.0	8.0	0.714	0,0,0,0,0,0,1,2,3	to_board	s554
111.084	0.735	0	PA_without_intermediate	0,0,0,3,0,0,1,0,0	test	ward_and_allport	2,0,0,3,1,0,0,0,0	82.0	8.0	0.735	0,0,0,0,0,0,1,2,3	to_hand	s554
111.821	0.399	0	PA_without_intermediate	2,0,0,3,0,0,1,0,0	test	ward_and_allport	2,0,0,3,1,0,0,0,0	89.0	8.0	0.399	0,0,0,0,0,0,1,2,3	to_board	s554
112.222	0.459	0	PA_without_intermediate	2,0,0,3,0,0,0,0,0	test	ward_and_allport	2,0,0,3,1,0,0,0,0	82.0	8.0	0.459	0,0,0,0,0,0,1,2,3	to_hand	s554
112.682	0.371	0	PA_without_intermediate	2,0,0,3,1,0,0,0,0	test	ward_and_allport	2,0,0,3,1,0,0,0,0	71.0	8.0	0.371	0,0,0,0,0,0,1,2,3	to_board	s554
113.057	1.0	0	PA_without_intermediate	n/a	test	ward_and_allport	n/a	-1.0	8.0	n/a	n/a	feedback	s554
114.057	1.136	0	PA_without_intermediate	n/a	test	ward_and_allport	n/a	-1.0	8.0	n/a	n/a	ITI	s554
115.198	1.141	1	PA_without_intermediate	0,0,0,0,0,0,1,2,0	test	ward_and_allport	3,2,0,1,0,0,0,0,0	82.0	9.0	1.141	0,0,0,0,0,0,1,2,3	to_hand	s554
116.339	0.465	0	PA_without_intermediate	3,0,0,0,0,0,1,2,0	test	ward_and_allport	3,2,0,1,0,0,0,0,0	89.0	9.0	0.465	0,0,0,0,0,0,1,2,3	to_board	s554
116.808	0.607	0	PA_without_intermediate	3,0,0,0,0,0,1,0,0	test	ward_and_allport	3,2,0,1,0,0,0,0,0	82.0	9.0	0.607	0,0,0,0,0,0,1,2,3	to_hand	s554
117.415	0.503	0	PA_without_intermediate	3,2,0,0,0,0,1,0,0	test	ward_and_allport	3,2,0,1,0,0,0,0,0	89.0	9.0	0.503	0,0,0,0,0,0,1,2,3	to_board	s554
117.921	1.245	0	PA_without_intermediate	3,2,0,0,0,0,0,0,0	test	ward_and_allport	3,2,0,1,0,0,0,0,0	82.0	9.0	1.245	0,0,0,0,0,0,1,2,3	to_hand	s554
119.167	0.502	0	PA_without_intermediate	3,2,0,1,0,0,0,0,0	test	ward_and_allport	3,2,0,1,0,0,0,0,0	71.0	9.0	0.502	0,0,0,0,0,0,1,2,3	to_board	s554
119.674	1.0	0	PA_without_intermediate	n/a	test	ward_and_allport	n/a	-1.0	9.0	n/a	n/a	feedback	s554
120.674	4.264	0	PA_without_intermediate	n/a	test	ward_and_allport	n/a	-1.0	9.0	n/a	n/a	ITI	s554
124.942	2.407	1	PA_with_intermediate	1,2,0,0,0,0,0,0,0	test	ward_and_allport	1,3,0,0,0,0,2,0,0	89.0	10.0	2.407	1,2,3,0,0,0,0,0,0	to_hand	s554
127.349	0.656	0	PA_with_intermediate	1,2,0,3,0,0,0,0,0	test	ward_and_allport	1,3,0,0,0,0,2,0,0	71.0	10.0	0.656	1,2,3,0,0,0,0,0,0	to_board	s554
128.009	0.469	0	PA_with_intermediate	1,0,0,3,0,0,0,0,0	test	ward_and_allport	1,3,0,0,0,0,2,0,0	89.0	10.0	0.469	1,2,3,0,0,0,0,0,0	to_hand	s554
128.479	0.393	0	PA_with_intermediate	1,0,0,3,0,0,2,0,0	test	ward_and_allport	1,3,0,0,0,0,2,0,0	82.0	10.0	0.393	1,2,3,0,0,0,0,0,0	to_board	s554
128.876	0.404	0	PA_with_intermediate	1,0,0,0,0,0,2,0,0	test	ward_and_allport	1,3,0,0,0,0,2,0,0	71.0	10.0	0.404	1,2,3,0,0,0,0,0,0	to_hand	s554
129.281	0.342	0	PA_with_intermediate	1,3,0,0,0,0,2,0,0	test	ward_and_allport	1,3,0,0,0,0,2,0,0	89.0	10.0	0.342	1,2,3,0,0,0,0,0,0	to_board	s554
129.628	1.0	0	PA_with_intermediate	n/a	test	ward_and_allport	n/a	-1.0	10.0	n/a	n/a	feedback	s554
130.628	3.04	0	PA_with_intermediate	n/a	test	ward_and_allport	n/a	-1.0	10.0	n/a	n/a	ITI	s554
133.672	2.209	1	PA_with_intermediate	0,0,0,1,2,0,0,0,0	test	ward_and_allport	2,0,0,1,3,0,0,0,0	71.0	11.0	2.209	0,0,0,1,2,3,0,0,0	to_hand	s554
135.882	0.553	0	PA_with_intermediate	0,0,0,1,2,0,3,0,0	test	ward_and_allport	2,0,0,1,3,0,0,0,0	82.0	11.0	0.553	0,0,0,1,2,3,0,0,0	to_board	s554
136.441	0.317	0	PA_with_intermediate	0,0,0,1,0,0,3,0,0	test	ward_and_allport	2,0,0,1,3,0,0,0,0	71.0	11.0	0.317	0,0,0,1,2,3,0,0,0	to_hand	s554
136.76	0.281	0	PA_with_intermediate	2,0,0,1,0,0,3,0,0	test	ward_and_allport	2,0,0,1,3,0,0,0,0	89.0	11.0	0.281	0,0,0,1,2,3,0,0,0	to_board	s554
137.044	0.473	0	PA_with_intermediate	2,0,0,1,0,0,0,0,0	test	ward_and_allport	2,0,0,1,3,0,0,0,0	82.0	11.0	0.473	0,0,0,1,2,3,0,0,0	to_hand	s554
137.517	0.277	0	PA_with_intermediate	2,0,0,1,3,0,0,0,0	test	ward_and_allport	2,0,0,1,3,0,0,0,0	71.0	11.0	0.277	0,0,0,1,2,3,0,0,0	to_board	s554
137.799	1.0	0	PA_with_intermediate	n/a	test	ward_and_allport	n/a	-1.0	11.0	n/a	n/a	feedback	s554
138.799	1.136	0	PA_with_intermediate	n/a	test	ward_and_allport	n/a	-1.0	11.0	n/a	n/a	ITI	s554
139.94	1.625	1	PA_with_intermediate	1,2,0,0,0,0,0,0,0	test	ward_and_allport	1,0,0,0,0,0,2,3,0	89.0	12.0	1.625	1,2,3,0,0,0,0,0,0	to_hand	s554
141.565	0.412	0	PA_with_intermediate	1,2,0,3,0,0,0,0,0	test	ward_and_allport	1,0,0,0,0,0,2,3,0	71.0	12.0	0.412	1,2,3,0,0,0,0,0,0	to_board	s554
141.981	0.53	0	PA_with_intermediate	1,0,0,3,0,0,0,0,0	test	ward_and_allport	1,0,0,0,0,0,2,3,0	89.0	12.0	0.53	1,2,3,0,0,0,0,0,0	to_hand	s554
142.512	0.392	0	PA_with_intermediate	1,0,0,3,0,0,2,0,0	test	ward_and_allport	1,0,0,0,0,0,2,3,0	82.0	12.0	0.392	1,2,3,0,0,0,0,0,0	to_board	s554
142.909	0.458	0	PA_with_intermediate	1,0,0,0,0,0,2,0,0	test	ward_and_allport	1,0,0,0,0,0,2,3,0	71.0	12.0	0.458	1,2,3,0,0,0,0,0,0	to_hand	s554
143.367	0.353	0	PA_with_intermediate	1,0,0,0,0,0,2,3,0	test	ward_and_allport	1,0,0,0,0,0,2,3,0	82.0	12.0	0.353	1,2,3,0,0,0,0,0,0	to_board	s554
143.726	1.0	0	PA_with_intermediate	n/a	test	ward_and_allport	n/a	-1.0	12.0	n/a	n/a	feedback	s554
144.726	1.408	0	PA_with_intermediate	n/a	test	ward_and_allport	n/a	-1.0	12.0	n/a	n/a	ITI	s554
146.139	1.159	1	PA_without_intermediate	1,2,0,0,0,0,0,0,0	test	ward_and_allport	0,0,0,1,0,0,3,2,0	89.0	13.0	1.159	1,2,3,0,0,0,0,0,0	to_hand	s554
147.299	0.306	0	PA_without_intermediate	1,2,0,0,0,0,3,0,0	test	ward_and_allport	0,0,0,1,0,0,3,2,0	82.0	13.0	0.306	1,2,3,0,0,0,0,0,0	to_board	s554
147.609	0.337	0	PA_without_intermediate	1,0,0,0,0,0,3,0,0	test	ward_and_allport	0,0,0,1,0,0,3,2,0	89.0	13.0	0.337	1,2,3,0,0,0,0,0,0	to_hand	s554
147.948	1.281	0	PA_without_intermediate	1,0,0,0,0,0,3,2,0	test	ward_and_allport	0,0,0,1,0,0,3,2,0	82.0	13.0	1.281	1,2,3,0,0,0,0,0,0	to_board	s554
149.234	0.427	0	PA_without_intermediate	0,0,0,0,0,0,3,2,0	test	ward_and_allport	0,0,0,1,0,0,3,2,0	89.0	13.0	0.427	1,2,3,0,0,0,0,0,0	to_hand	s554
149.663	0.45	0	PA_without_intermediate	0,0,0,1,0,0,3,2,0	test	ward_and_allport	0,0,0,1,0,0,3,2,0	71.0	13.0	0.45	1,2,3,0,0,0,0,0,0	to_board	s554
150.118	1.0	0	PA_without_intermediate	n/a	test	ward_and_allport	n/a	-1.0	13.0	n/a	n/a	feedback	s554
151.118	1.68	0	PA_without_intermediate	n/a	test	ward_and_allport	n/a	-1.0	13.0	n/a	n/a	ITI	s554
152.802	1.996	1	PA_with_intermediate	0,0,0,0,0,0,1,2,0	test	ward_and_allport	0,0,0,2,3,0,1,0,0	82.0	14.0	1.996	0,0,0,0,0,0,1,2,3	to_hand	s554
154.798	0.497	0	PA_with_intermediate	3,0,0,0,0,0,1,2,0	test	ward_and_allport	0,0,0,2,3,0,1,0,0	89.0	14.0	0.497	0,0,0,0,0,0,1,2,3	to_board	s554
155.3	0.487	0	PA_with_intermediate	3,0,0,0,0,0,1,0,0	test	ward_and_allport	0,0,0,2,3,0,1,0,0	82.0	14.0	0.487	0,0,0,0,0,0,1,2,3	to_hand	s554
155.788	0.556	0	PA_with_intermediate	3,0,0,2,0,0,1,0,0	test	ward_and_allport	0,0,0,2,3,0,1,0,0	71.0	14.0	0.556	0,0,0,0,0,0,1,2,3	to_board	s554
156.347	0.62	0	PA_with_intermediate	0,0,0,2,0,0,1,0,0	test	ward_and_allport	0,0,0,2,3,0,1,0,0	89.0	14.0	0.62	0,0,0,0,0,0,1,2,3	to_hand	s554
156.969	0.462	0	PA_with_intermediate	0,0,0,2,3,0,1,0,0	test	ward_and_allport	0,0,0,2,3,0,1,0,0	71.0	14.0	0.462	0,0,0,0,0,0,1,2,3	to_board	s554
157.436	1.0	0	PA_with_intermediate	n/a	test	ward_and_allport	n/a	-1.0	14.0	n/a	n/a	feedback	s554
158.436	3.72	0	PA_with_intermediate	n/a	test	ward_and_allport	n/a	-1.0	14.0	n/a	n/a	ITI	s554
167.162	1.575	1	PA_without_intermediate	1,2,0,0,0,0,0,0,0	test	ward_and_allport	0,0,0,3,2,0,1,0,0	89.0	15.0	1.575	1,2,3,0,0,0,0,0,0	to_hand	s554
168.739	0.515	0	PA_without_intermediate	1,2,0,3,0,0,0,0,0	test	ward_and_allport	0,0,0,3,2,0,1,0,0	71.0	15.0	0.515	1,2,3,0,0,0,0,0,0	to_board	s554
169.258	0.445	0	PA_without_intermediate	1,0,0,3,0,0,0,0,0	test	ward_and_allport	0,0,0,3,2,0,1,0,0	89.0	15.0	0.445	1,2,3,0,0,0,0,0,0	to_hand	s554
169.704	0.315	0	PA_without_intermediate	1,0,0,3,2,0,0,0,0	test	ward_and_allport	0,0,0,3,2,0,1,0,0	71.0	15.0	0.315	1,2,3,0,0,0,0,0,0	to_board	s554
170.024	0.284	0	PA_without_intermediate	0,0,0,3,2,0,0,0,0	test	ward_and_allport	0,0,0,3,2,0,1,0,0	89.0	15.0	0.284	1,2,3,0,0,0,0,0,0	to_hand	s554
170.308	0.262	0	PA_without_intermediate	0,0,0,3,2,0,1,0,0	test	ward_and_allport	0,0,0,3,2,0,1,0,0	82.0	15.0	0.262	1,2,3,0,0,0,0,0,0	to_board	s554
170.576	1.0	0	PA_without_intermediate	n/a	test	ward_and_allport	n/a	-1.0	15.0	n/a	n/a	feedback	s554
171.576	2.224	0	PA_without_intermediate	n/a	test	ward_and_allport	n/a	-1.0	15.0	n/a	n/a	ITI	s554
173.803	1.705	1	PA_without_intermediate	0,0,0,1,2,0,0,0,0	test	ward_and_allport	3,1,0,0,0,0,2,0,0	71.0	16.0	1.705	0,0,0,1,2,3,0,0,0	to_hand	s554
175.509	0.404	0	PA_without_intermediate	3,0,0,1,2,0,0,0,0	test	ward_and_allport	3,1,0,0,0,0,2,0,0	89.0	16.0	0.404	0,0,0,1,2,3,0,0,0	to_board	s554
175.917	0.665	0	PA_without_intermediate	3,0,0,1,0,0,0,0,0	test	ward_and_allport	3,1,0,0,0,0,2,0,0	71.0	16.0	0.665	0,0,0,1,2,3,0,0,0	to_hand	s554
176.583	0.281	0	PA_without_intermediate	3,0,0,1,0,0,2,0,0	test	ward_and_allport	3,1,0,0,0,0,2,0,0	82.0	16.0	0.281	0,0,0,1,2,3,0,0,0	to_board	s554
176.868	0.346	0	PA_without_intermediate	3,0,0,0,0,0,2,0,0	test	ward_and_allport	3,1,0,0,0,0,2,0,0	71.0	16.0	0.346	0,0,0,1,2,3,0,0,0	to_hand	s554
177.215	0.342	0	PA_without_intermediate	3,1,0,0,0,0,2,0,0	test	ward_and_allport	3,1,0,0,0,0,2,0,0	89.0	16.0	0.342	0,0,0,1,2,3,0,0,0	to_board	s554
177.564	1.0	0	PA_without_intermediate	n/a	test	ward_and_allport	n/a	-1.0	16.0	n/a	n/a	feedback	s554
178.564	1.272	0	PA_without_intermediate	n/a	test	ward_and_allport	n/a	-1.0	16.0	n/a	n/a	ITI	s554
179.841	1.714	1	PA_with_intermediate	0,0,0,1,2,0,0,0,0	test	ward_and_allport	2,0,0,1,3,0,0,0,0	71.0	17.0	1.714	0,0,0,1,2,3,0,0,0	to_hand	s554
181.556	0.277	0	PA_with_intermediate	0,0,0,1,2,0,3,0,0	test	ward_and_allport	2,0,0,1,3,0,0,0,0	82.0	17.0	0.277	0,0,0,1,2,3,0,0,0	to_board	s554
181.838	0.267	0	PA_with_intermediate	0,0,0,1,0,0,3,0,0	test	ward_and_allport	2,0,0,1,3,0,0,0,0	71.0	17.0	0.267	0,0,0,1,2,3,0,0,0	to_hand	s554
182.105	0.245	0	PA_with_intermediate	2,0,0,1,0,0,3,0,0	test	ward_and_allport	2,0,0,1,3,0,0,0,0	89.0	17.0	0.245	0,0,0,1,2,3,0,0,0	to_board	s554
182.356	0.431	0	PA_with_intermediate	2,0,0,1,0,0,0,0,0	test	ward_and_allport	2,0,0,1,3,0,0,0,0	82.0	17.0	0.431	0,0,0,1,2,3,0,0,0	to_hand	s554
182.788	0.239	0	PA_with_intermediate	2,0,0,1,3,0,0,0,0	test	ward_and_allport	2,0,0,1,3,0,0,0,0	71.0	17.0	0.239	0,0,0,1,2,3,0,0,0	to_board	s554
183.032	1.0	0	PA_with_intermediate	n/a	test	ward_and_allport	n/a	-1.0	17.0	n/a	n/a	feedback	s554
184.032	2.632	0	PA_with_intermediate	n/a	test	ward_and_allport	n/a	-1.0	17.0	n/a	n/a	ITI	s554
186.669	1.6	1	PA_without_intermediate	0,0,0,1,2,0,0,0,0	test	ward_and_allport	2,0,0,0,0,0,3,1,0	71.0	18.0	1.6	0,0,0,1,2,3,0,0,0	to_hand	s554
188.27	0.339	0	PA_without_intermediate	0,0,0,1,2,0,3,0,0	test	ward_and_allport	2,0,0,0,0,0,3,1,0	82.0	18.0	0.339	0,0,0,1,2,3,0,0,0	to_board	s554
188.615	0.415	0	PA_without_intermediate	0,0,0,1,0,0,3,0,0	test	ward_and_allport	2,0,0,0,0,0,3,1,0	71.0	18.0	0.415	0,0,0,1,2,3,0,0,0	to_hand	s554
189.031	0.4	0	PA_without_intermediate	2,0,0,1,0,0,3,0,0	test	ward_and_allport	2,0,0,0,0,0,3,1,0	89.0	18.0	0.4	0,0,0,1,2,3,0,0,0	to_board	s554
189.436	0.378	0	PA_without_intermediate	2,0,0,0,0,0,3,0,0	test	ward_and_allport	2,0,0,0,0,0,3,1,0	71.0	18.0	0.378	0,0,0,1,2,3,0,0,0	to_hand	s554
189.815	0.506	0	PA_without_intermediate	2,0,0,0,0,0,3,1,0	test	ward_and_allport	2,0,0,0,0,0,3,1,0	82.0	18.0	0.506	0,0,0,1,2,3,0,0,0	to_board	s554
190.327	1.0	0	PA_without_intermediate	n/a	test	ward_and_allport	n/a	-1.0	18.0	n/a	n/a	feedback	s554
191.327	1.408	0	PA_without_intermediate	n/a	test	ward_and_allport	n/a	-1.0	18.0	n/a	n/a	ITI	s554
192.739	1.147	1	PA_without_intermediate	0,0,0,0,0,0,1,2,0	test	ward_and_allport	2,0,0,3,1,0,0,0,0	82.0	19.0	1.147	0,0,0,0,0,0,1,2,3	to_hand	s554
193.888	0.518	0	PA_without_intermediate	0,0,0,3,0,0,1,2,0	test	ward_and_allport	2,0,0,3,1,0,0,0,0	71.0	19.0	0.518	0,0,0,0,0,0,1,2,3	to_board	s554
194.41	0.794	0	PA_without_intermediate	0,0,0,3,0,0,1,0,0	test	ward_and_allport	2,0,0,3,1,0,0,0,0	82.0	19.0	0.794	0,0,0,0,0,0,1,2,3	to_hand	s554
195.205	0.262	0	PA_without_intermediate	2,0,0,3,0,0,1,0,0	test	ward_and_allport	2,0,0,3,1,0,0,0,0	89.0	19.0	0.262	0,0,0,0,0,0,1,2,3	to_board	s554
195.471	0.36	0	PA_without_intermediate	2,0,0,3,0,0,0,0,0	test	ward_and_allport	2,0,0,3,1,0,0,0,0	82.0	19.0	0.36	0,0,0,0,0,0,1,2,3	to_hand	s554
195.832	0.276	0	PA_without_intermediate	2,0,0,3,1,0,0,0,0	test	ward_and_allport	2,0,0,3,1,0,0,0,0	71.0	19.0	0.276	0,0,0,0,0,0,1,2,3	to_board	s554
196.115	1.0	0	PA_without_intermediate	n/a	test	ward_and_allport	n/a	-1.0	19.0	n/a	n/a	feedback	s554
197.115	1.0	0	PA_without_intermediate	n/a	test	ward_and_allport	n/a	-1.0	19.0	n/a	n/a	ITI	s554
198.119	1.089	1	PA_with_intermediate	1,2,0,0,0,0,0,0,0	test	ward_and_allport	1,3,0,2,0,0,0,0,0	89.0	20.0	1.089	1,2,3,0,0,0,0,0,0	to_hand	s554
199.209	1.082	0	PA_with_intermediate	1,2,0,3,0,0,0,0,0	test	ward_and_allport	1,3,0,2,0,0,0,0,0	71.0	20.0	1.082	1,2,3,0,0,0,0,0,0	to_board	s554
200.297	0.337	0	PA_with_intermediate	1,0,0,3,0,0,0,0,0	test	ward_and_allport	1,3,0,2,0,0,0,0,0	89.0	20.0	0.337	1,2,3,0,0,0,0,0,0	to_hand	s554
200.634	4.482	0	PA_with_intermediate	1,0,0,3,0,0,2,0,0	test	ward_and_allport	1,3,0,2,0,0,0,0,0	82.0	20.0	4.482	1,2,3,0,0,0,0,0,0	to_board	s554
205.121	0.362	0	PA_with_intermediate	1,0,0,0,0,0,2,0,0	test	ward_and_allport	1,3,0,2,0,0,0,0,0	71.0	20.0	0.362	1,2,3,0,0,0,0,0,0	to_hand	s554
205.484	0.238	0	PA_with_intermediate	1,3,0,0,0,0,2,0,0	test	ward_and_allport	1,3,0,2,0,0,0,0,0	89.0	20.0	0.238	1,2,3,0,0,0,0,0,0	to_board	s554
205.727	0.331	0	PA_with_intermediate	1,3,0,0,0,0,0,0,0	test	ward_and_allport	1,3,0,2,0,0,0,0,0	82.0	20.0	0.331	1,2,3,0,0,0,0,0,0	to_hand	s554
206.059	0.262	0	PA_with_intermediate	1,3,0,2,0,0,0,0,0	test	ward_and_allport	1,3,0,2,0,0,0,0,0	71.0	20.0	0.262	1,2,3,0,0,0,0,0,0	to_board	s554
206.328	1.0	0	PA_with_intermediate	n/a	test	ward_and_allport	n/a	-1.0	20.0	n/a	n/a	feedback	s554
207.328	1.0	0	PA_with_intermediate	n/a	test	ward_and_allport	n/a	-1.0	20.0	n/a	n/a	ITI	s554
208.332	2.055	1	PA_with_intermediate	0,0,0,1,2,0,0,0,0	test	ward_and_allport	0,0,0,1,3,0,2,0,0	71.0	21.0	2.055	0,0,0,1,2,3,0,0,0	to_hand	s554
210.388	0.348	0	PA_with_intermediate	3,0,0,1,2,0,0,0,0	test	ward_and_allport	0,0,0,1,3,0,2,0,0	89.0	21.0	0.348	0,0,0,1,2,3,0,0,0	to_board	s554
210.742	0.335	0	PA_with_intermediate	3,0,0,1,0,0,0,0,0	test	ward_and_allport	0,0,0,1,3,0,2,0,0	71.0	21.0	0.335	0,0,0,1,2,3,0,0,0	to_hand	s554
211.077	0.204	0	PA_with_intermediate	3,0,0,1,0,0,2,0,0	test	ward_and_allport	0,0,0,1,3,0,2,0,0	82.0	21.0	0.204	0,0,0,1,2,3,0,0,0	to_board	s554
211.287	0.344	0	PA_with_intermediate	3,0,0,0,0,0,2,0,0	test	ward_and_allport	0,0,0,1,3,0,2,0,0	71.0	21.0	0.344	0,0,0,1,2,3,0,0,0	to_hand	s554
211.632	0.796	0	PA_with_intermediate	3,0,0,1,0,0,2,0,0	test	ward_and_allport	0,0,0,1,3,0,2,0,0	71.0	21.0	0.796	0,0,0,1,2,3,0,0,0	to_board	s554
212.434	0.293	0	PA_with_intermediate	0,0,0,1,0,0,2,0,0	test	ward_and_allport	0,0,0,1,3,0,2,0,0	89.0	21.0	0.293	0,0,0,1,2,3,0,0,0	to_hand	s554
212.728	0.221	0	PA_with_intermediate	0,0,0,1,3,0,2,0,0	test	ward_and_allport	0,0,0,1,3,0,2,0,0	71.0	21.0	0.221	0,0,0,1,2,3,0,0,0	to_board	s554
212.956	1.0	0	PA_with_intermediate	n/a	test	ward_and_allport	n/a	-1.0	21.0	n/a	n/a	feedback	s554
213.956	1.0	0	PA_with_intermediate	n/a	test	ward_and_allport	n/a	-1.0	21.0	n/a	n/a	ITI	s554
214.962	1.697	1	PA_with_intermediate	0,0,0,0,0,0,1,2,0	test	ward_and_allport	2,0,0,0,0,0,1,3,0	82.0	22.0	1.697	0,0,0,0,0,0,1,2,3	to_hand	s554
216.661	0.519	0	PA_with_intermediate	0,0,0,3,0,0,1,2,0	test	ward_and_allport	2,0,0,0,0,0,1,3,0	71.0	22.0	0.519	0,0,0,0,0,0,1,2,3	to_board	s554
217.186	0.741	0	PA_with_intermediate	0,0,0,3,0,0,1,0,0	test	ward_and_allport	2,0,0,0,0,0,1,3,0	82.0	22.0	0.741	0,0,0,0,0,0,1,2,3	to_hand	s554
217.928	0.54	0	PA_with_intermediate	2,0,0,3,0,0,1,0,0	test	ward_and_allport	2,0,0,0,0,0,1,3,0	89.0	22.0	0.54	0,0,0,0,0,0,1,2,3	to_board	s554
218.474	0.849	0	PA_with_intermediate	2,0,0,0,0,0,1,0,0	test	ward_and_allport	2,0,0,0,0,0,1,3,0	71.0	22.0	0.849	0,0,0,0,0,0,1,2,3	to_hand	s554
219.323	0.34	0	PA_with_intermediate	2,0,0,0,0,0,1,3,0	test	ward_and_allport	2,0,0,0,0,0,1,3,0	82.0	22.0	0.34	0,0,0,0,0,0,1,2,3	to_board	s554
219.671	1.0	0	PA_with_intermediate	n/a	test	ward_and_allport	n/a	-1.0	22.0	n/a	n/a	feedback	s554
220.671	1.408	0	PA_with_intermediate	n/a	test	ward_and_allport	n/a	-1.0	22.0	n/a	n/a	ITI	s554
222.085	1.367	1	PA_without_intermediate	0,0,0,0,0,0,1,2,0	test	ward_and_allport	1,0,0,3,2,0,0,0,0	82.0	23.0	1.367	0,0,0,0,0,0,1,2,3	to_hand	s554
223.453	0.819	0	PA_without_intermediate	0,0,0,3,0,0,1,2,0	test	ward_and_allport	1,0,0,3,2,0,0,0,0	71.0	23.0	0.819	0,0,0,0,0,0,1,2,3	to_board	s554
224.279	0.607	0	PA_without_intermediate	0,0,0,3,0,0,1,0,0	test	ward_and_allport	1,0,0,3,2,0,0,0,0	82.0	23.0	0.607	0,0,0,0,0,0,1,2,3	to_hand	s554
224.887	0.726	0	PA_without_intermediate	0,0,0,3,2,0,1,0,0	test	ward_and_allport	1,0,0,3,2,0,0,0,0	71.0	23.0	0.726	0,0,0,0,0,0,1,2,3	to_board	s554
225.619	0.606	0	PA_without_intermediate	0,0,0,3,2,0,0,0,0	test	ward_and_allport	1,0,0,3,2,0,0,0,0	82.0	23.0	0.606	0,0,0,0,0,0,1,2,3	to_hand	s554
226.225	0.558	0	PA_without_intermediate	1,0,0,3,2,0,0,0,0	test	ward_and_allport	1,0,0,3,2,0,0,0,0	89.0	23.0	0.558	0,0,0,0,0,0,1,2,3	to_board	s554
226.791	1.0	0	PA_without_intermediate	n/a	test	ward_and_allport	n/a	-1.0	23.0	n/a	n/a	feedback	s554
227.791	1.816	0	PA_without_intermediate	n/a	test	ward_and_allport	n/a	-1.0	23.0	n/a	n/a	ITI	s554
229.613	1.761	1	PA_with_intermediate	0,0,0,0,0,0,1,2,0	test	ward_and_allport	0,0,0,2,0,0,1,3,0	82.0	24.0	1.761	0,0,0,0,0,0,1,2,3	to_hand	s554
231.375	0.455	0	PA_with_intermediate	3,0,0,0,0,0,1,2,0	test	ward_and_allport	0,0,0,2,0,0,1,3,0	89.0	24.0	0.455	0,0,0,0,0,0,1,2,3	to_board	s554
231.836	0.567	0	PA_with_intermediate	3,0,0,0,0,0,1,0,0	test	ward_and_allport	0,0,0,2,0,0,1,3,0	82.0	24.0	0.567	0,0,0,0,0,0,1,2,3	to_hand	s554
232.404	0.649	0	PA_with_intermediate	3,0,0,2,0,0,1,0,0	test	ward_and_allport	0,0,0,2,0,0,1,3,0	71.0	24.0	0.649	0,0,0,0,0,0,1,2,3	to_board	s554
233.061	0.532	0	PA_with_intermediate	0,0,0,2,0,0,1,0,0	test	ward_and_allport	0,0,0,2,0,0,1,3,0	89.0	24.0	0.532	0,0,0,0,0,0,1,2,3	to_hand	s554
233.593	0.408	0	PA_with_intermediate	0,0,0,2,0,0,1,3,0	test	ward_and_allport	0,0,0,2,0,0,1,3,0	82.0	24.0	0.408	0,0,0,0,0,0,1,2,3	to_board	s554
234.009	1.0	0	PA_with_intermediate	n/a	test	ward_and_allport	n/a	-1.0	24.0	n/a	n/a	feedback	s554
235.009	3.176	0	PA_with_intermediate	n/a	test	ward_and_allport	n/a	-1.0	24.0	n/a	n/a	ITI	s554
238.192	1.9	1	PA_with_intermediate	0,0,0,0,0,0,1,2,0	test	ward_and_allport	2,3,0,0,0,0,1,0,0	82.0	25.0	1.9	0,0,0,0,0,0,1,2,3	to_hand	s554
240.093	0.745	0	PA_with_intermediate	0,0,0,3,0,0,1,2,0	test	ward_and_allport	2,3,0,0,0,0,1,0,0	71.0	25.0	0.745	0,0,0,0,0,0,1,2,3	to_board	s554
240.844	0.353	0	PA_with_intermediate	0,0,0,3,0,0,1,0,0	test	ward_and_allport	2,3,0,0,0,0,1,0,0	82.0	25.0	0.353	0,0,0,0,0,0,1,2,3	to_hand	s554
241.198	0.302	0	PA_with_intermediate	2,0,0,3,0,0,1,0,0	test	ward_and_allport	2,3,0,0,0,0,1,0,0	89.0	25.0	0.302	0,0,0,0,0,0,1,2,3	to_board	s554
241.508	0.455	0	PA_with_intermediate	2,0,0,0,0,0,1,0,0	test	ward_and_allport	2,3,0,0,0,0,1,0,0	71.0	25.0	0.455	0,0,0,0,0,0,1,2,3	to_hand	s554
241.964	0.198	0	PA_with_intermediate	2,3,0,0,0,0,1,0,0	test	ward_and_allport	2,3,0,0,0,0,1,0,0	89.0	25.0	0.198	0,0,0,0,0,0,1,2,3	to_board	s554
242.17	1.0	0	PA_with_intermediate	n/a	test	ward_and_allport	n/a	-1.0	25.0	n/a	n/a	feedback	s554
243.17	2.36	0	PA_with_intermediate	n/a	test	ward_and_allport	n/a	-1.0	25.0	n/a	n/a	ITI	s554
245.537	1.517	1	PA_with_intermediate	1,2,0,0,0,0,0,0,0	test	ward_and_allport	1,0,0,2,3,0,0,0,0	89.0	26.0	1.517	1,2,3,0,0,0,0,0,0	to_hand	s554
247.055	0.24	0	PA_with_intermediate	1,2,0,0,0,0,3,0,0	test	ward_and_allport	1,0,0,2,3,0,0,0,0	82.0	26.0	0.24	1,2,3,0,0,0,0,0,0	to_board	s554
247.302	0.412	0	PA_with_intermediate	1,0,0,0,0,0,3,0,0	test	ward_and_allport	1,0,0,2,3,0,0,0,0	89.0	26.0	0.412	1,2,3,0,0,0,0,0,0	to_hand	s554
247.715	0.218	0	PA_with_intermediate	1,0,0,2,0,0,3,0,0	test	ward_and_allport	1,0,0,2,3,0,0,0,0	71.0	26.0	0.218	1,2,3,0,0,0,0,0,0	to_board	s554
247.94	0.6	0	PA_with_intermediate	1,0,0,2,0,0,0,0,0	test	ward_and_allport	1,0,0,2,3,0,0,0,0	82.0	26.0	0.6	1,2,3,0,0,0,0,0,0	to_hand	s554
248.541	0.284	0	PA_with_intermediate	1,0,0,2,3,0,0,0,0	test	ward_and_allport	1,0,0,2,3,0,0,0,0	71.0	26.0	0.284	1,2,3,0,0,0,0,0,0	to_board	s554
248.833	1.0	0	PA_with_intermediate	n/a	test	ward_and_allport	n/a	-1.0	26.0	n/a	n/a	feedback	s554
249.833	1.0	0	PA_with_intermediate	n/a	test	ward_and_allport	n/a	-1.0	26.0	n/a	n/a	ITI	s554
250.84	1.196	1	PA_without_intermediate	0,0,0,0,0,0,1,2,0	test	ward_and_allport	3,1,0,2,0,0,0,0,0	82.0	27.0	1.196	0,0,0,0,0,0,1,2,3	to_hand	s554
252.037	0.388	0	PA_without_intermediate	3,0,0,0,0,0,1,2,0	test	ward_and_allport	3,1,0,2,0,0,0,0,0	89.0	27.0	0.388	0,0,0,0,0,0,1,2,3	to_board	s554
252.433	0.665	0	PA_without_intermediate	3,0,0,0,0,0,1,0,0	test	ward_and_allport	3,1,0,2,0,0,0,0,0	82.0	27.0	0.665	0,0,0,0,0,0,1,2,3	to_hand	s554
253.099	0.396	0	PA_without_intermediate	3,0,0,2,0,0,1,0,0	test	ward_and_allport	3,1,0,2,0,0,0,0,0	71.0	27.0	0.396	0,0,0,0,0,0,1,2,3	to_board	s554
253.502	0.447	0	PA_without_intermediate	3,0,0,2,0,0,0,0,0	test	ward_and_allport	3,1,0,2,0,0,0,0,0	82.0	27.0	0.447	0,0,0,0,0,0,1,2,3	to_hand	s554
253.95	0.336	0	PA_without_intermediate	3,1,0,2,0,0,0,0,0	test	ward_and_allport	3,1,0,2,0,0,0,0,0	89.0	27.0	0.336	0,0,0,0,0,0,1,2,3	to_board	s554
254.293	1.0	0	PA_without_intermediate	n/a	test	ward_and_allport	n/a	-1.0	27.0	n/a	n/a	feedback	s554
255.293	1.408	0	PA_without_intermediate	n/a	test	ward_and_allport	n/a	-1.0	27.0	n/a	n/a	ITI	s554
256.709	1.117	1	PA_with_intermediate	0,0,0,0,0,0,1,2,0	test	ward_and_allport	0,0,0,2,3,0,1,0,0	82.0	28.0	1.117	0,0,0,0,0,0,1,2,3	to_hand	s554
257.826	0.228	0	PA_with_intermediate	3,0,0,0,0,0,1,2,0	test	ward_and_allport	0,0,0,2,3,0,1,0,0	89.0	28.0	0.228	0,0,0,0,0,0,1,2,3	to_board	s554
258.061	0.396	0	PA_with_intermediate	3,0,0,0,0,0,1,0,0	test	ward_and_allport	0,0,0,2,3,0,1,0,0	82.0	28.0	0.396	0,0,0,0,0,0,1,2,3	to_hand	s554
258.458	0.246	0	PA_with_intermediate	3,0,0,2,0,0,1,0,0	test	ward_and_allport	0,0,0,2,3,0,1,0,0	71.0	28.0	0.246	0,0,0,0,0,0,1,2,3	to_board	s554
258.711	0.505	0	PA_with_intermediate	0,0,0,2,0,0,1,0,0	test	ward_and_allport	0,0,0,2,3,0,1,0,0	89.0	28.0	0.505	0,0,0,0,0,0,1,2,3	to_hand	s554
259.217	0.222	0	PA_with_intermediate	0,0,0,2,3,0,1,0,0	test	ward_and_allport	0,0,0,2,3,0,1,0,0	71.0	28.0	0.222	0,0,0,0,0,0,1,2,3	to_board	s554
259.448	1.0	0	PA_with_intermediate	n/a	test	ward_and_allport	n/a	-1.0	28.0	n/a	n/a	feedback	s554
260.448	1.816	0	PA_with_intermediate	n/a	test	ward_and_allport	n/a	-1.0	28.0	n/a	n/a	ITI	s554
262.271	1.485	1	PA_without_intermediate	0,0,0,1,2,0,0,0,0	test	ward_and_allport	3,2,0,0,0,0,1,0,0	71.0	29.0	1.485	0,0,0,1,2,3,0,0,0	to_hand	s554
263.757	0.82	0	PA_without_intermediate	3,0,0,1,2,0,0,0,0	test	ward_and_allport	3,2,0,0,0,0,1,0,0	89.0	29.0	0.82	0,0,0,1,2,3,0,0,0	to_board	s554
264.583	0.464	0	PA_without_intermediate	3,0,0,1,0,0,0,0,0	test	ward_and_allport	3,2,0,0,0,0,1,0,0	71.0	29.0	0.464	0,0,0,1,2,3,0,0,0	to_hand	s554
265.048	0.353	0	PA_without_intermediate	3,2,0,1,0,0,0,0,0	test	ward_and_allport	3,2,0,0,0,0,1,0,0	89.0	29.0	0.353	0,0,0,1,2,3,0,0,0	to_board	s554
265.408	0.355	0	PA_without_intermediate	3,2,0,0,0,0,0,0,0	test	ward_and_allport	3,2,0,0,0,0,1,0,0	71.0	29.0	0.355	0,0,0,1,2,3,0,0,0	to_hand	s554
265.764	0.333	0	PA_without_intermediate	3,2,0,0,0,0,1,0,0	test	ward_and_allport	3,2,0,0,0,0,1,0,0	82.0	29.0	0.333	0,0,0,1,2,3,0,0,0	to_board	s554
266.106	1.0	0	PA_without_intermediate	n/a	test	ward_and_allport	n/a	-1.0	29.0	n/a	n/a	feedback	s554
267.106	2.088	0	PA_without_intermediate	n/a	test	ward_and_allport	n/a	-1.0	29.0	n/a	n/a	ITI	s554
274.203	1.256	1	PA_without_intermediate	0,0,0,1,2,0,0,0,0	test	ward_and_allport	1,0,0,0,0,0,3,2,0	71.0	30.0	1.256	0,0,0,1,2,3,0,0,0	to_hand	s554
275.46	0.301	0	PA_without_intermediate	0,0,0,1,2,0,3,0,0	test	ward_and_allport	1,0,0,0,0,0,3,2,0	82.0	30.0	0.301	0,0,0,1,2,3,0,0,0	to_board	s554
275.769	0.378	0	PA_without_intermediate	0,0,0,1,0,0,3,0,0	test	ward_and_allport	1,0,0,0,0,0,3,2,0	71.0	30.0	0.378	0,0,0,1,2,3,0,0,0	to_hand	s554
276.148	0.219	0	PA_without_intermediate	0,0,0,1,0,0,3,2,0	test	ward_and_allport	1,0,0,0,0,0,3,2,0	82.0	30.0	0.219	0,0,0,1,2,3,0,0,0	to_board	s554
276.374	0.319	0	PA_without_intermediate	0,0,0,0,0,0,3,2,0	test	ward_and_allport	1,0,0,0,0,0,3,2,0	71.0	30.0	0.319	0,0,0,1,2,3,0,0,0	to_hand	s554
276.695	0.197	0	PA_without_intermediate	1,0,0,0,0,0,3,2,0	test	ward_and_allport	1,0,0,0,0,0,3,2,0	89.0	30.0	0.197	0,0,0,1,2,3,0,0,0	to_board	s554
276.9	1.0	0	PA_without_intermediate	n/a	test	ward_and_allport	n/a	-1.0	30.0	n/a	n/a	feedback	s554
277.9	1.136	0	PA_without_intermediate	n/a	test	ward_and_allport	n/a	-1.0	30.0	n/a	n/a	ITI	s554
279.045	2.025	1	PA_without_intermediate	1,2,0,0,0,0,0,0,0	test	ward_and_allport	0,0,0,3,1,0,2,0,0	89.0	31.0	2.025	1,2,3,0,0,0,0,0,0	to_hand	s554
281.071	0.627	0	PA_without_intermediate	1,2,0,3,0,0,0,0,0	test	ward_and_allport	0,0,0,3,1,0,2,0,0	71.0	31.0	0.627	1,2,3,0,0,0,0,0,0	to_board	s554
281.706	0.586	0	PA_without_intermediate	1,0,0,3,0,0,0,0,0	test	ward_and_allport	0,0,0,3,1,0,2,0,0	89.0	31.0	0.586	1,2,3,0,0,0,0,0,0	to_hand	s554
282.293	0.295	0	PA_without_intermediate	1,0,0,3,0,0,2,0,0	test	ward_and_allport	0,0,0,3,1,0,2,0,0	82.0	31.0	0.295	1,2,3,0,0,0,0,0,0	to_board	s554
282.596	0.344	0	PA_without_intermediate	0,0,0,3,0,0,2,0,0	test	ward_and_allport	0,0,0,3,1,0,2,0,0	89.0	31.0	0.344	1,2,3,0,0,0,0,0,0	to_hand	s554
282.942	0.245	0	PA_without_intermediate	0,0,0,3,1,0,2,0,0	test	ward_and_allport	0,0,0,3,1,0,2,0,0	71.0	31.0	0.245	1,2,3,0,0,0,0,0,0	to_board	s554
283.197	1.0	0	PA_without_intermediate	n/a	test	ward_and_allport	n/a	-1.0	31.0	n/a	n/a	feedback	s554
284.197	6.168	0	PA_without_intermediate	n/a	test	ward_and_allport	n/a	-1.0	31.0	n/a	n/a	ITI	s554
290.374	1.243	1	PA_without_intermediate	0,0,0,0,0,0,1,2,0	test	ward_and_allport	3,2,0,1,0,0,0,0,0	82.0	32.0	1.243	0,0,0,0,0,0,1,2,3	to_hand	s554
291.618	0.392	0	PA_without_intermediate	3,0,0,0,0,0,1,2,0	test	ward_and_allport	3,2,0,1,0,0,0,0,0	89.0	32.0	0.392	0,0,0,0,0,0,1,2,3	to_board	s554
292.019	0.518	0	PA_without_intermediate	3,0,0,0,0,0,1,0,0	test	ward_and_allport	3,2,0,1,0,0,0,0,0	82.0	32.0	0.518	0,0,0,0,0,0,1,2,3	to_hand	s554
292.539	0.348	0	PA_without_intermediate	3,2,0,0,0,0,1,0,0	test	ward_and_allport	3,2,0,1,0,0,0,0,0	89.0	32.0	0.348	0,0,0,0,0,0,1,2,3	to_board	s554
292.895	0.553	0	PA_without_intermediate	3,2,0,0,0,0,0,0,0	test	ward_and_allport	3,2,0,1,0,0,0,0,0	82.0	32.0	0.553	0,0,0,0,0,0,1,2,3	to_hand	s554
293.448	0.341	0	PA_without_intermediate	3,2,0,1,0,0,0,0,0	test	ward_and_allport	3,2,0,1,0,0,0,0,0	71.0	32.0	0.341	0,0,0,0,0,0,1,2,3	to_board	s554
293.798	1.0	0	PA_without_intermediate	n/a	test	ward_and_allport	n/a	-1.0	32.0	n/a	n/a	feedback	s554
294.798	1.816	0	PA_without_intermediate	n/a	test	ward_and_allport	n/a	-1.0	32.0	n/a	n/a	ITI	s554
296.622	2.602	1	PA_with_intermediate	1,2,0,0,0,0,0,0,0	test	ward_and_allport	1,3,0,0,0,0,2,0,0	89.0	33.0	2.602	1,2,3,0,0,0,0,0,0	to_hand	s554
299.224	0.417	0	PA_with_intermediate	1,2,0,3,0,0,0,0,0	test	ward_and_allport	1,3,0,0,0,0,2,0,0	71.0	33.0	0.417	1,2,3,0,0,0,0,0,0	to_board	s554
299.647	0.415	0	PA_with_intermediate	1,0,0,3,0,0,0,0,0	test	ward_and_allport	1,3,0,0,0,0,2,0,0	89.0	33.0	0.415	1,2,3,0,0,0,0,0,0	to_hand	s554
300.063	0.282	0	PA_with_intermediate	1,0,0,3,0,0,2,0,0	test	ward_and_allport	1,3,0,0,0,0,2,0,0	82.0	33.0	0.282	1,2,3,0,0,0,0,0,0	to_board	s554
300.355	0.313	0	PA_with_intermediate	1,0,0,0,0,0,2,0,0	test	ward_and_allport	1,3,0,0,0,0,2,0,0	71.0	33.0	0.313	1,2,3,0,0,0,0,0,0	to_hand	s554
300.668	0.212	0	PA_with_intermediate	1,3,0,0,0,0,2,0,0	test	ward_and_allport	1,3,0,0,0,0,2,0,0	89.0	33.0	0.212	1,2,3,0,0,0,0,0,0	to_board	s554
300.891	1.0	0	PA_with_intermediate	n/a	test	ward_and_allport	n/a	-1.0	33.0	n/a	n/a	feedback	s554
301.891	1.952	0	PA_with_intermediate	n/a	test	ward_and_allport	n/a	-1.0	33.0	n/a	n/a	ITI	s554
303.851	1.687	1	PA_with_intermediate	0,0,0,1,2,0,0,0,0	test	ward_and_allport	0,0,0,1,0,0,2,3,0	71.0	34.0	1.687	0,0,0,1,2,3,0,0,0	to_hand	s554
305.539	0.197	0	PA_with_intermediate	3,0,0,1,2,0,0,0,0	test	ward_and_allport	0,0,0,1,0,0,2,3,0	89.0	34.0	0.197	0,0,0,1,2,3,0,0,0	to_board	s554
305.742	0.349	0	PA_with_intermediate	3,0,0,1,0,0,0,0,0	test	ward_and_allport	0,0,0,1,0,0,2,3,0	71.0	34.0	0.349	0,0,0,1,2,3,0,0,0	to_hand	s554
306.091	0.19	0	PA_with_intermediate	3,0,0,1,0,0,2,0,0	test	ward_and_allport	0,0,0,1,0,0,2,3,0	82.0	34.0	0.19	0,0,0,1,2,3,0,0,0	to_board	s554
306.288	0.372	0	PA_with_intermediate	0,0,0,1,0,0,2,0,0	test	ward_and_allport	0,0,0,1,0,0,2,3,0	89.0	34.0	0.372	0,0,0,1,2,3,0,0,0	to_hand	s554
306.661	0.245	0	PA_with_intermediate	0,0,0,1,0,0,2,3,0	test	ward_and_allport	0,0,0,1,0,0,2,3,0	82.0	34.0	0.245	0,0,0,1,2,3,0,0,0	to_board	s554
306.913	1.0	0	PA_with_intermediate	n/a	test	ward_and_allport	n/a	-1.0	34.0	n/a	n/a	feedback	s554
307.913	1.136	0	PA_with_intermediate	n/a	test	ward_and_allport	n/a	-1.0	34.0	n/a	n/a	ITI	s554
309.055	1.495	1	PA_without_intermediate	1,2,0,0,0,0,0,0,0	test	ward_and_allport	0,0,0,1,0,0,3,2,0	89.0	35.0	1.495	1,2,3,0,0,0,0,0,0	to_hand	s554
310.551	0.279	0	PA_without_intermediate	1,2,0,0,0,0,3,0,0	test	ward_and_allport	0,0,0,1,0,0,3,2,0	82.0	35.0	0.279	1,2,3,0,0,0,0,0,0	to_board	s554
310.836	0.473	0	PA_without_intermediate	1,0,0,0,0,0,3,0,0	test	ward_and_allport	0,0,0,1,0,0,3,2,0	89.0	35.0	0.473	1,2,3,0,0,0,0,0,0	to_hand	s554
311.309	0.749	0	PA_without_intermediate	1,0,0,0,0,0,3,2,0	test	ward_and_allport	0,0,0,1,0,0,3,2,0	82.0	35.0	0.749	1,2,3,0,0,0,0,0,0	to_board	s554
312.064	0.969	0	PA_without_intermediate	0,0,0,0,0,0,3,2,0	test	ward_and_allport	0,0,0,1,0,0,3,2,0	89.0	35.0	0.969	1,2,3,0,0,0,0,0,0	to_hand	s554
313.034	0.284	0	PA_without_intermediate	0,0,0,1,0,0,3,2,0	test	ward_and_allport	0,0,0,1,0,0,3,2,0	71.0	35.0	0.284	1,2,3,0,0,0,0,0,0	to_board	s554
313.327	1.0	0	PA_without_intermediate	n/a	test	ward_and_allport	n/a	-1.0	35.0	n/a	n/a	feedback	s554
314.327	1.68	0	PA_without_intermediate	n/a	test	ward_and_allport	n/a	-1.0	35.0	n/a	n/a	ITI	s554
316.016	1.341	1	PA_without_intermediate	0,0,0,0,0,0,1,2,0	test	ward_and_allport	1,0,0,3,2,0,0,0,0	82.0	36.0	1.341	0,0,0,0,0,0,1,2,3	to_hand	s554
317.358	0.535	0	PA_without_intermediate	0,0,0,3,0,0,1,2,0	test	ward_and_allport	1,0,0,3,2,0,0,0,0	71.0	36.0	0.535	0,0,0,0,0,0,1,2,3	to_board	s554
317.903	0.579	0	PA_without_intermediate	0,0,0,3,0,0,1,0,0	test	ward_and_allport	1,0,0,3,2,0,0,0,0	82.0	36.0	0.579	0,0,0,0,0,0,1,2,3	to_hand	s554
318.483	0.71	0	PA_without_intermediate	0,0,0,3,2,0,1,0,0	test	ward_and_allport	1,0,0,3,2,0,0,0,0	71.0	36.0	0.71	0,0,0,0,0,0,1,2,3	to_board	s554
319.202	0.468	0	PA_without_intermediate	0,0,0,3,2,0,0,0,0	test	ward_and_allport	1,0,0,3,2,0,0,0,0	82.0	36.0	0.468	0,0,0,0,0,0,1,2,3	to_hand	s554
319.671	0.457	0	PA_without_intermediate	1,0,0,3,2,0,0,0,0	test	ward_and_allport	1,0,0,3,2,0,0,0,0	89.0	36.0	0.457	0,0,0,0,0,0,1,2,3	to_board	s554
320.136	1.0	0	PA_without_intermediate	n/a	test	ward_and_allport	n/a	-1.0	36.0	n/a	n/a	feedback	s554
321.136	2.088	0	PA_without_intermediate	n/a	test	ward_and_allport	n/a	-1.0	36.0	n/a	n/a	ITI	s554
323.23	1.009	1	PA_with_intermediate	1,2,0,0,0,0,0,0,0	test	ward_and_allport	1,3,0,2,0,0,0,0,0	89.0	37.0	1.009	1,2,3,0,0,0,0,0,0	to_hand	s554
324.24	1.339	0	PA_with_intermediate	1,2,0,0,0,0,3,0,0	test	ward_and_allport	1,3,0,2,0,0,0,0,0	82.0	37.0	1.339	1,2,3,0,0,0,0,0,0	to_board	s554
325.587	0.331	0	PA_with_intermediate	1,0,0,0,0,0,3,0,0	test	ward_and_allport	1,3,0,2,0,0,0,0,0	89.0	37.0	0.331	1,2,3,0,0,0,0,0,0	to_hand	s554
325.918	0.336	0	PA_with_intermediate	1,0,0,2,0,0,3,0,0	test	ward_and_allport	1,3,0,2,0,0,0,0,0	71.0	37.0	0.336	1,2,3,0,0,0,0,0,0	to_board	s554
326.263	0.464	0	PA_with_intermediate	1,0,0,2,0,0,0,0,0	test	ward_and_allport	1,3,0,2,0,0,0,0,0	82.0	37.0	0.464	1,2,3,0,0,0,0,0,0	to_hand	s554
326.727	0.274	0	PA_with_intermediate	1,3,0,2,0,0,0,0,0	test	ward_and_allport	1,3,0,2,0,0,0,0,0	89.0	37.0	0.274	1,2,3,0,0,0,0,0,0	to_board	s554
327.012	1.0	0	PA_with_intermediate	n/a	test	ward_and_allport	n/a	-1.0	37.0	n/a	n/a	feedback	s554
328.012	1.0	0	PA_with_intermediate	n/a	test	ward_and_allport	n/a	-1.0	37.0	n/a	n/a	ITI	s554
329.021	0.931	1	PA_without_intermediate	1,2,0,0,0,0,0,0,0	test	ward_and_allport	0,0,0,3,2,0,1,0,0	89.0	38.0	0.931	1,2,3,0,0,0,0,0,0	to_hand	s554
329.954	0.314	0	PA_without_intermediate	1,2,0,3,0,0,0,0,0	test	ward_and_allport	0,0,0,3,2,0,1,0,0	71.0	38.0	0.314	1,2,3,0,0,0,0,0,0	to_board	s554
330.276	0.356	0	PA_without_intermediate	1,0,0,3,0,0,0,0,0	test	ward_and_allport	0,0,0,3,2,0,1,0,0	89.0	38.0	0.356	1,2,3,0,0,0,0,0,0	to_hand	s554
330.632	0.216	0	PA_without_intermediate	1,0,0,3,2,0,0,0,0	test	ward_and_allport	0,0,0,3,2,0,1,0,0	71.0	38.0	0.216	1,2,3,0,0,0,0,0,0	to_board	s554
330.855	0.381	0	PA_without_intermediate	0,0,0,3,2,0,0,0,0	test	ward_and_allport	0,0,0,3,2,0,1,0,0	89.0	38.0	0.381	1,2,3,0,0,0,0,0,0	to_hand	s554
331.237	0.195	0	PA_without_intermediate	0,0,0,3,2,0,1,0,0	test	ward_and_allport	0,0,0,3,2,0,1,0,0	82.0	38.0	0.195	1,2,3,0,0,0,0,0,0	to_board	s554
331.439	1.0	0	PA_without_intermediate	n/a	test	ward_and_allport	n/a	-1.0	38.0	n/a	n/a	feedback	s554
332.439	1.0	0	PA_without_intermediate	n/a	test	ward_and_allport	n/a	-1.0	38.0	n/a	n/a	ITI	s554
333.445	1.412	1	PA_without_intermediate	0,0,0,1,2,0,0,0,0	test	ward_and_allport	3,2,0,0,0,0,1,0,0	71.0	39.0	1.412	0,0,0,1,2,3,0,0,0	to_hand	s554
334.858	0.316	0	PA_without_intermediate	3,0,0,1,2,0,0,0,0	test	ward_and_allport	3,2,0,0,0,0,1,0,0	89.0	39.0	0.316	0,0,0,1,2,3,0,0,0	to_board	s554
335.18	0.246	0	PA_without_intermediate	3,0,0,1,0,0,0,0,0	test	ward_and_allport	3,2,0,0,0,0,1,0,0	71.0	39.0	0.246	0,0,0,1,2,3,0,0,0	to_hand	s554
335.427	0.252	0	PA_without_intermediate	3,2,0,1,0,0,0,0,0	test	ward_and_allport	3,2,0,0,0,0,1,0,0	89.0	39.0	0.252	0,0,0,1,2,3,0,0,0	to_board	s554
335.686	0.419	0	PA_without_intermediate	3,2,0,0,0,0,0,0,0	test	ward_and_allport	3,2,0,0,0,0,1,0,0	71.0	39.0	0.419	0,0,0,1,2,3,0,0,0	to_hand	s554
336.106	0.475	0	PA_without_intermediate	3,2,0,0,0,0,1,0,0	test	ward_and_allport	3,2,0,0,0,0,1,0,0	82.0	39.0	0.475	0,0,0,1,2,3,0,0,0	to_board	s554
336.589	1.0	0	PA_without_intermediate	n/a	test	ward_and_allport	n/a	-1.0	39.0	n/a	n/a	feedback	s554
337.589	1.0	0	PA_without_intermediate	n/a	test	ward_and_allport	n/a	-1.0	39.0	n/a	n/a	ITI	s554
338.596	2.457	1	PA_with_intermediate	1,2,0,0,0,0,0,0,0	test	ward_and_allport	1,0,0,2,3,0,0,0,0	89.0	40.0	2.457	1,2,3,0,0,0,0,0,0	to_hand	s554
341.054	0.2	0	PA_with_intermediate	1,2,0,0,0,0,3,0,0	test	ward_and_allport	1,0,0,2,3,0,0,0,0	82.0	40.0	0.2	1,2,3,0,0,0,0,0,0	to_board	s554
341.26	0.311	0	PA_with_intermediate	1,0,0,0,0,0,3,0,0	test	ward_and_allport	1,0,0,2,3,0,0,0,0	89.0	40.0	0.311	1,2,3,0,0,0,0,0,0	to_hand	s554
341.573	0.192	0	PA_with_intermediate	1,0,0,2,0,0,3,0,0	test	ward_and_allport	1,0,0,2,3,0,0,0,0	71.0	40.0	0.192	1,2,3,0,0,0,0,0,0	to_board	s554
341.773	0.46	0	PA_with_intermediate	1,0,0,2,0,0,0,0,0	test	ward_and_allport	1,0,0,2,3,0,0,0,0	82.0	40.0	0.46	1,2,3,0,0,0,0,0,0	to_hand	s554
342.233	0.237	0	PA_with_intermediate	1,3,0,2,0,0,0,0,0	test	ward_and_allport	1,0,0,2,3,0,0,0,0	89.0	40.0	0.237	1,2,3,0,0,0,0,0,0	to_board	s554
342.48	1.537	0	PA_with_intermediate	1,0,0,2,0,0,0,0,0	test	ward_and_allport	1,0,0,2,3,0,0,0,0	89.0	40.0	1.537	1,2,3,0,0,0,0,0,0	to_hand	s554
344.018	0.255	0	PA_with_intermediate	1,0,0,2,3,0,0,0,0	test	ward_and_allport	1,0,0,2,3,0,0,0,0	71.0	40.0	0.255	1,2,3,0,0,0,0,0,0	to_board	s554
344.284	1.0	0	PA_with_intermediate	n/a	test	ward_and_allport	n/a	-1.0	40.0	n/a	n/a	feedback	s554
345.284	1.544	0	PA_with_intermediate	n/a	test	ward_and_allport	n/a	-1.0	40.0	n/a	n/a	ITI	s554
346.835	1.011	1	PA_without_intermediate	1,2,0,0,0,0,0,0,0	test	ward_and_allport	0,0,0,2,0,0,3,1,0	89.0	41.0	1.011	1,2,3,0,0,0,0,0,0	to_hand	s554
347.846	0.216	0	PA_without_intermediate	1,2,0,0,0,0,3,0,0	test	ward_and_allport	0,0,0,2,0,0,3,1,0	82.0	41.0	0.216	1,2,3,0,0,0,0,0,0	to_board	s554
348.069	0.869	0	PA_without_intermediate	1,0,0,0,0,0,3,0,0	test	ward_and_allport	0,0,0,2,0,0,3,1,0	89.0	41.0	0.869	1,2,3,0,0,0,0,0,0	to_hand	s554
348.939	0.354	0	PA_without_intermediate	1,0,0,2,0,0,3,0,0	test	ward_and_allport	0,0,0,2,0,0,3,1,0	71.0	41.0	0.354	1,2,3,0,0,0,0,0,0	to_board	s554
349.3	0.398	0	PA_without_intermediate	0,0,0,2,0,0,3,0,0	test	ward_and_allport	0,0,0,2,0,0,3,1,0	89.0	41.0	0.398	1,2,3,0,0,0,0,0,0	to_hand	s554
349.699	0.521	0	PA_without_intermediate	0,0,0,2,0,0,3,1,0	test	ward_and_allport	0,0,0,2,0,0,3,1,0	82.0	41.0	0.521	1,2,3,0,0,0,0,0,0	to_board	s554
350.23	1.0	0	PA_without_intermediate	n/a	test	ward_and_allport	n/a	-1.0	41.0	n/a	n/a	feedback	s554
351.23	1.272	0	PA_without_intermediate	n/a	test	ward_and_allport	n/a	-1.0	41.0	n/a	n/a	ITI	s554
352.51	0.961	1	PA_with_intermediate	0,0,0,1,2,0,0,0,0	test	ward_and_allport	2,3,0,1,0,0,0,0,0	71.0	42.0	0.961	0,0,0,1,2,3,0,0,0	to_hand	s554
353.471	0.648	0	PA_with_intermediate	0,0,0,1,2,0,3,0,0	test	ward_and_allport	2,3,0,1,0,0,0,0,0	82.0	42.0	0.648	0,0,0,1,2,3,0,0,0	to_board	s554
354.126	0.441	0	PA_with_intermediate	0,0,0,1,0,0,3,0,0	test	ward_and_allport	2,3,0,1,0,0,0,0,0	71.0	42.0	0.441	0,0,0,1,2,3,0,0,0	to_hand	s554
354.568	0.297	0	PA_with_intermediate	2,0,0,1,0,0,3,0,0	test	ward_and_allport	2,3,0,1,0,0,0,0,0	89.0	42.0	0.297	0,0,0,1,2,3,0,0,0	to_board	s554
354.873	0.464	0	PA_with_intermediate	2,0,0,1,0,0,0,0,0	test	ward_and_allport	2,3,0,1,0,0,0,0,0	82.0	42.0	0.464	0,0,0,1,2,3,0,0,0	to_hand	s554
355.338	0.555	0	PA_with_intermediate	2,3,0,1,0,0,0,0,0	test	ward_and_allport	2,3,0,1,0,0,0,0,0	89.0	42.0	0.555	0,0,0,1,2,3,0,0,0	to_board	s554
355.901	1.0	0	PA_with_intermediate	n/a	test	ward_and_allport	n/a	-1.0	42.0	n/a	n/a	feedback	s554
356.901	3.04	0	PA_with_intermediate	n/a	test	ward_and_allport	n/a	-1.0	42.0	n/a	n/a	ITI	s554
359.948	1.04	1	PA_with_intermediate	0,0,0,1,2,0,0,0,0	test	ward_and_allport	0,0,0,1,0,0,2,3,0	71.0	43.0	1.04	0,0,0,1,2,3,0,0,0	to_hand	s554
360.989	0.303	0	PA_with_intermediate	3,0,0,1,2,0,0,0,0	test	ward_and_allport	0,0,0,1,0,0,2,3,0	89.0	43.0	0.303	0,0,0,1,2,3,0,0,0	to_board	s554
361.3	0.347	0	PA_with_intermediate	3,0,0,1,0,0,0,0,0	test	ward_and_allport	0,0,0,1,0,0,2,3,0	71.0	43.0	0.347	0,0,0,1,2,3,0,0,0	to_hand	s554
361.648	0.27	0	PA_with_intermediate	3,0,0,1,0,0,2,0,0	test	ward_and_allport	0,0,0,1,0,0,2,3,0	82.0	43.0	0.27	0,0,0,1,2,3,0,0,0	to_board	s554
361.927	0.52	0	PA_with_intermediate	0,0,0,1,0,0,2,0,0	test	ward_and_allport	0,0,0,1,0,0,2,3,0	89.0	43.0	0.52	0,0,0,1,2,3,0,0,0	to_hand	s554
362.449	0.356	0	PA_with_intermediate	0,0,0,1,0,0,2,3,0	test	ward_and_allport	0,0,0,1,0,0,2,3,0	82.0	43.0	0.356	0,0,0,1,2,3,0,0,0	to_board	s554
362.814	1.0	0	PA_with_intermediate	n/a	test	ward_and_allport	n/a	-1.0	43.0	n/a	n/a	feedback	s554
363.814	1.272	0	PA_with_intermediate	n/a	test	ward_and_allport	n/a	-1.0	43.0	n/a	n/a	ITI	s554
365.094	2.47	1	PA_with_intermediate	0,0,0,0,0,0,1,2,0	test	ward_and_allport	2,0,0,0,0,0,1,3,0	82.0	44.0	2.47	0,0,0,0,0,0,1,2,3	to_hand	s554
367.565	0.39	0	PA_with_intermediate	0,0,0,3,0,0,1,2,0	test	ward_and_allport	2,0,0,0,0,0,1,3,0	71.0	44.0	0.39	0,0,0,0,0,0,1,2,3	to_board	s554
367.963	0.396	0	PA_with_intermediate	0,0,0,3,0,0,1,0,0	test	ward_and_allport	2,0,0,0,0,0,1,3,0	82.0	44.0	0.396	0,0,0,0,0,0,1,2,3	to_hand	s554
368.36	0.439	0	PA_with_intermediate	2,0,0,3,0,0,1,0,0	test	ward_and_allport	2,0,0,0,0,0,1,3,0	89.0	44.0	0.439	0,0,0,0,0,0,1,2,3	to_board	s554
368.809	0.408	0	PA_with_intermediate	2,0,0,0,0,0,1,0,0	test	ward_and_allport	2,0,0,0,0,0,1,3,0	71.0	44.0	0.408	0,0,0,0,0,0,1,2,3	to_hand	s554
369.217	0.537	0	PA_with_intermediate	2,0,0,0,0,0,1,3,0	test	ward_and_allport	2,0,0,0,0,0,1,3,0	82.0	44.0	0.537	0,0,0,0,0,0,1,2,3	to_board	s554
369.764	1.0	0	PA_with_intermediate	n/a	test	ward_and_allport	n/a	-1.0	44.0	n/a	n/a	feedback	s554
370.764	1.136	0	PA_with_intermediate	n/a	test	ward_and_allport	n/a	-1.0	44.0	n/a	n/a	ITI	s554
376.909	1.403	1	PA_with_intermediate	1,2,0,0,0,0,0,0,0	test	ward_and_allport	1,0,0,0,0,0,2,3,0	89.0	45.0	1.403	1,2,3,0,0,0,0,0,0	to_hand	s554
378.313	0.224	0	PA_with_intermediate	1,2,0,3,0,0,0,0,0	test	ward_and_allport	1,0,0,0,0,0,2,3,0	71.0	45.0	0.224	1,2,3,0,0,0,0,0,0	to_board	s554
378.548	0.428	0	PA_with_intermediate	1,0,0,3,0,0,0,0,0	test	ward_and_allport	1,0,0,0,0,0,2,3,0	89.0	45.0	0.428	1,2,3,0,0,0,0,0,0	to_hand	s554
378.977	0.223	0	PA_with_intermediate	1,0,0,3,0,0,2,0,0	test	ward_and_allport	1,0,0,0,0,0,2,3,0	82.0	45.0	0.223	1,2,3,0,0,0,0,0,0	to_board	s554
379.211	0.369	0	PA_with_intermediate	1,0,0,0,0,0,2,0,0	test	ward_and_allport	1,0,0,0,0,0,2,3,0	71.0	45.0	0.369	1,2,3,0,0,0,0,0,0	to_hand	s554
379.581	0.235	0	PA_with_intermediate	1,0,0,0,0,0,2,3,0	test	ward_and_allport	1,0,0,0,0,0,2,3,0	82.0	45.0	0.235	1,2,3,0,0,0,0,0,0	to_board	s554
379.83	1.0	0	PA_with_intermediate	n/a	test	ward_and_allport	n/a	-1.0	45.0	n/a	n/a	feedback	s554
380.83	1.0	0	PA_with_intermediate	n/a	test	ward_and_allport	n/a	-1.0	45.0	n/a	n/a	ITI	s554
381.839	2.625	1	PA_with_intermediate	0,0,0,0,0,0,1,2,0	test	ward_and_allport	0,0,0,2,0,0,1,3,0	82.0	46.0	2.625	0,0,0,0,0,0,1,2,3	to_hand	s554
384.465	0.472	0	PA_with_intermediate	3,0,0,0,0,0,1,2,0	test	ward_and_allport	0,0,0,2,0,0,1,3,0	89.0	46.0	0.472	0,0,0,0,0,0,1,2,3	to_board	s554
384.945	0.819	0	PA_with_intermediate	3,0,0,0,0,0,1,0,0	test	ward_and_allport	0,0,0,2,0,0,1,3,0	82.0	46.0	0.819	0,0,0,0,0,0,1,2,3	to_hand	s554
385.764	0.369	0	PA_with_intermediate	3,0,0,2,0,0,1,0,0	test	ward_and_allport	0,0,0,2,0,0,1,3,0	71.0	46.0	0.369	0,0,0,0,0,0,1,2,3	to_board	s554
386.143	0.534	0	PA_with_intermediate	0,0,0,2,0,0,1,0,0	test	ward_and_allport	0,0,0,2,0,0,1,3,0	89.0	46.0	0.534	0,0,0,0,0,0,1,2,3	to_hand	s554
386.678	0.283	0	PA_with_intermediate	0,0,0,2,0,0,1,3,0	test	ward_and_allport	0,0,0,2,0,0,1,3,0	82.0	46.0	0.283	0,0,0,0,0,0,1,2,3	to_board	s554
386.973	1.0	0	PA_with_intermediate	n/a	test	ward_and_allport	n/a	-1.0	46.0	n/a	n/a	feedback	s554
387.973	1.0	0	PA_with_intermediate	n/a	test	ward_and_allport	n/a	-1.0	46.0	n/a	n/a	ITI	s554
388.983	1.13	1	PA_without_intermediate	0,0,0,1,2,0,0,0,0	test	ward_and_allport	1,0,0,0,0,0,3,2,0	71.0	47.0	1.13	0,0,0,1,2,3,0,0,0	to_hand	s554
390.114	0.235	0	PA_without_intermediate	0,0,0,1,2,0,3,0,0	test	ward_and_allport	1,0,0,0,0,0,3,2,0	82.0	47.0	0.235	0,0,0,1,2,3,0,0,0	to_board	s554
390.36	0.33	0	PA_without_intermediate	0,0,0,1,0,0,3,0,0	test	ward_and_allport	1,0,0,0,0,0,3,2,0	71.0	47.0	0.33	0,0,0,1,2,3,0,0,0	to_hand	s554
390.69	0.188	0	PA_without_intermediate	0,0,0,1,0,0,3,2,0	test	ward_and_allport	1,0,0,0,0,0,3,2,0	82.0	47.0	0.188	0,0,0,1,2,3,0,0,0	to_board	s554
390.885	0.289	0	PA_without_intermediate	0,0,0,0,0,0,3,2,0	test	ward_and_allport	1,0,0,0,0,0,3,2,0	71.0	47.0	0.289	0,0,0,1,2,3,0,0,0	to_hand	s554
391.176	0.246	0	PA_without_intermediate	1,0,0,0,0,0,3,2,0	test	ward_and_allport	1,0,0,0,0,0,3,2,0	89.0	47.0	0.246	0,0,0,1,2,3,0,0,0	to_board	s554
391.431	1.0	0	PA_without_intermediate	n/a	test	ward_and_allport	n/a	-1.0	47.0	n/a	n/a	feedback	s554
392.431	1.408	0	PA_without_intermediate	n/a	test	ward_and_allport	n/a	-1.0	47.0	n/a	n/a	ITI	s554
n/a	n/a	0	n/a	n/a	n/a	n/a	n/a	n/a	n/a	n/a	n/a	ITI	n/a
