onset	duration	EV	action	clicked_on_loss_card	experiment_exp_id	gain_amount	gain_probability	key_press	loss_amount	loss_probability	num_cards	num_click_in_round	num_loss_cards	risk	response_time	total_cards	trial_id	worker_id
3.009	2.538	0.4963351798919619	draw_card	0.0	columbia_card_task_fmri	12.0	0.8333333333333334	89.0	-70.0	0.1666666666666666	6.0	1.0	1.0	-3.2457653484339666	2.538	n/a	stim	s554
5.549	0.765	-2.2369981534413705	draw_card	1.0	columbia_card_task_fmri	12.0	0.8	89.0	-70.0	0.2	6.0	2.0	1.0	-1.010571417730972	0.765	2.0	stim	s554
6.318	2.25	n/a	-1.0	n/a	columbia_card_task_fmri	n/a	n/a	-1.0	n/a	n/a	n/a	n/a	n/a	n/a	n/a	n/a	feedback	s554
8.568	0.204	n/a	-1.0	n/a	columbia_card_task_fmri	n/a	n/a	-1.0	n/a	n/a	n/a	n/a	n/a	n/a	n/a	n/a	ITI	s554
8.773	2.302	1.329668513225296	draw_card	0.0	columbia_card_task_fmri	14.0	0.8333333333333334	89.0	-75.0	0.1666666666666666	6.0	1.0	1.0	-0.6430192275584972	2.302	n/a	stim	s554
11.076	0.713	-1.636998153441371	draw_card	0.0	columbia_card_task_fmri	14.0	0.8	89.0	-75.0	0.2	6.0	2.0	1.0	1.783835999897775	0.713	n/a	stim	s554
11.792	0.767	-6.086998153441372	draw_card	0.0	columbia_card_task_fmri	14.0	0.75	89.0	-75.0	0.25	6.0	3.0	1.0	4.716969542727362	0.767	n/a	stim	s554
12.561	1.775	-13.50366482010804	draw_card	0.0	columbia_card_task_fmri	14.0	0.6666666666666667	89.0	-75.0	0.3333333333333333	6.0	4.0	1.0	8.12890861265209	1.775	n/a	stim	s554
14.338	1.165	-28.33699815344137	end_round	0.0	columbia_card_task_fmri	14.0	0.5	71.0	-75.0	0.5	6.0	5.0	1.0	10.670723448906934	1.165	4.0	stim	s554
15.505	2.25	n/a	-1.0	n/a	columbia_card_task_fmri	n/a	n/a	-1.0	n/a	n/a	n/a	n/a	n/a	n/a	n/a	n/a	feedback	s554
17.755	0.204	n/a	-1.0	n/a	columbia_card_task_fmri	n/a	n/a	-1.0	n/a	n/a	n/a	n/a	n/a	n/a	n/a	n/a	ITI	s554
17.961	2.552	2.996335179891962	draw_card	0.0	columbia_card_task_fmri	15.0	0.8333333333333334	89.0	-70.0	0.1666666666666666	6.0	1.0	1.0	-2.1304233104772905	2.552	n/a	stim	s554
20.515	0.943	0.163001846558628	draw_card	0.0	columbia_card_task_fmri	15.0	0.8	89.0	-70.0	0.2	6.0	2.0	1.0	0.1869193098312678	0.943	n/a	stim	s554
21.46	0.848	-4.086998153441372	draw_card	1.0	columbia_card_task_fmri	15.0	0.75	89.0	-70.0	0.25	6.0	3.0	1.0	2.9877681830350085	0.848	3.0	stim	s554
22.31	2.25	n/a	-1.0	n/a	columbia_card_task_fmri	n/a	n/a	-1.0	n/a	n/a	n/a	n/a	n/a	n/a	n/a	n/a	feedback	s554
24.56	0.272	n/a	-1.0	n/a	columbia_card_task_fmri	n/a	n/a	-1.0	n/a	n/a	n/a	n/a	n/a	n/a	n/a	n/a	ITI	s554
24.835	1.374	3.829668513225296	draw_card	0.0	columbia_card_task_fmri	17.0	0.8333333333333334	89.0	-75.0	0.1666666666666666	6.0	1.0	1.0	0.472722017759736	1.374	n/a	stim	s554
26.212	0.52	0.7630018465586295	draw_card	0.0	columbia_card_task_fmri	17.0	0.8	89.0	-75.0	0.2	6.0	2.0	1.0	2.981698995228392	0.52	n/a	stim	s554
26.734	1.132	-3.836998153441372	draw_card	1.0	columbia_card_task_fmri	17.0	0.75	89.0	-75.0	0.25	6.0	3.0	1.0	6.014032794477743	1.132	3.0	stim	s554
27.868	2.25	n/a	-1.0	n/a	columbia_card_task_fmri	n/a	n/a	-1.0	n/a	n/a	n/a	n/a	n/a	n/a	n/a	n/a	feedback	s554
30.118	0.136	n/a	-1.0	n/a	columbia_card_task_fmri	n/a	n/a	-1.0	n/a	n/a	n/a	n/a	n/a	n/a	n/a	n/a	ITI	s554
30.256	2.83	5.163001846558628	draw_card	0.0	columbia_card_task_fmri	24.0	0.75	89.0	-60.0	0.25	8.0	1.0	2.0	2.5555101360407875	2.83	n/a	stim	s554
33.087	0.59	2.163001846558628	draw_card	0.0	columbia_card_task_fmri	24.0	0.7142857142857143	89.0	-60.0	0.2857142857142857	8.0	2.0	2.0	4.127113777096362	0.59	n/a	stim	s554
33.678	1.846	-1.836998153441372	draw_card	0.0	columbia_card_task_fmri	24.0	0.6666666666666667	89.0	-60.0	0.3333333333333333	8.0	3.0	2.0	5.775197881404715	1.846	n/a	stim	s554
35.527	1.087	-7.436998153441373	draw_card	0.0	columbia_card_task_fmri	24.0	0.6	89.0	-60.0	0.4	8.0	4.0	2.0	7.326420515981319	1.087	n/a	stim	s554
36.615	1.787	-15.836998153441373	end_round	0.0	columbia_card_task_fmri	24.0	0.5	71.0	-60.0	0.5	8.0	5.0	2.0	8.17384664433257	1.787	4.0	stim	s554
38.405	2.25	n/a	-1.0	n/a	columbia_card_task_fmri	n/a	n/a	-1.0	n/a	n/a	n/a	n/a	n/a	n/a	n/a	n/a	feedback	s554
40.655	0.204	n/a	-1.0	n/a	columbia_card_task_fmri	n/a	n/a	-1.0	n/a	n/a	n/a	n/a	n/a	n/a	n/a	n/a	ITI	s554
40.86	3.415	5.163001846558628	draw_card	0.0	columbia_card_task_fmri	29.0	0.75	89.0	-75.0	0.25	8.0	1.0	2.0	11.20342297763306	3.415	n/a	stim	s554
44.277	1.332	1.4487161322729163	draw_card	0.0	columbia_card_task_fmri	29.0	0.7142857142857143	89.0	-75.0	0.2857142857142857	8.0	2.0	2.0	13.150361505822694	1.332	n/a	stim	s554
45.611	1.348	-3.5036648201080363	draw_card	0.0	columbia_card_task_fmri	29.0	0.6666666666666667	89.0	-75.0	0.3333333333333333	8.0	3.0	2.0	15.191948341301334	1.348	n/a	stim	s554
46.961	2.231	-10.436998153441372	draw_card	1.0	columbia_card_task_fmri	29.0	0.6	89.0	-75.0	0.4	8.0	4.0	2.0	17.113466129355324	2.231	4.0	stim	s554
49.194	2.25	n/a	-1.0	n/a	columbia_card_task_fmri	n/a	n/a	-1.0	n/a	n/a	n/a	n/a	n/a	n/a	n/a	n/a	feedback	s554
51.444	0.272	n/a	-1.0	n/a	columbia_card_task_fmri	n/a	n/a	-1.0	n/a	n/a	n/a	n/a	n/a	n/a	n/a	n/a	ITI	s554
51.718	2.13	0.9407796243364084	draw_card	0.0	columbia_card_task_fmri	17.0	0.7777777777777778	89.0	-65.0	0.2222222222222222	9.0	1.0	2.0	0.2773930879195276	2.13	n/a	stim	s554
53.849	2.614	-1.336998153441372	draw_card	0.0	columbia_card_task_fmri	17.0	0.75	89.0	-65.0	0.25	9.0	2.0	2.0	1.691049110545059	2.614	n/a	stim	s554
56.465	1.313	-4.265569582012799	draw_card	0.0	columbia_card_task_fmri	17.0	0.7142857142857143	89.0	-65.0	0.2857142857142857	9.0	3.0	2.0	3.225105683487321	1.313	n/a	stim	s554
57.781	1.313	-8.170331486774703	draw_card	0.0	columbia_card_task_fmri	17.0	0.6666666666666667	89.0	-65.0	0.3333333333333333	9.0	4.0	2.0	4.8338264214485065	1.313	n/a	stim	s554
59.096	1.327	-13.636998153441372	end_round	0.0	columbia_card_task_fmri	17.0	0.6	71.0	-65.0	0.4	9.0	5.0	2.0	6.348008166764416	1.327	4.0	stim	s554
60.425	2.25	n/a	-1.0	n/a	columbia_card_task_fmri	n/a	n/a	-1.0	n/a	n/a	n/a	n/a	n/a	n/a	n/a	n/a	feedback	s554
62.675	0.272	n/a	-1.0	n/a	columbia_card_task_fmri	n/a	n/a	-1.0	n/a	n/a	n/a	n/a	n/a	n/a	n/a	n/a	ITI	s554
62.949	3.14	5.263001846558628	draw_card	0.0	columbia_card_task_fmri	14.0	0.9	89.0	-95.0	0.1	10.0	1.0	1.0	-1.1103540254091442	3.14	n/a	stim	s554
66.091	1.063	4.051890735447516	draw_card	0.0	columbia_card_task_fmri	14.0	0.8888888888888888	89.0	-95.0	0.1111111111111111	10.0	2.0	1.0	0.4418030616416999	1.063	n/a	stim	s554
67.156	0.647	2.538001846558628	draw_card	0.0	columbia_card_task_fmri	14.0	0.875	89.0	-95.0	0.125	10.0	3.0	1.0	2.2313825502559865	0.647	n/a	stim	s554
67.805	0.554	0.5915732751300569	draw_card	0.0	columbia_card_task_fmri	14.0	0.8571428571428572	89.0	-95.0	0.1428571428571428	10.0	4.0	1.0	4.321522469025886	0.554	n/a	stim	s554
68.361	0.548	-2.0036648201080363	draw_card	0.0	columbia_card_task_fmri	14.0	0.8333333333333334	89.0	-95.0	0.1666666666666666	10.0	5.0	1.0	6.797633889829385	0.548	n/a	stim	s554
68.911	0.657	-5.636998153441371	draw_card	0.0	columbia_card_task_fmri	14.0	0.8	89.0	-95.0	0.2	10.0	6.0	1.0	9.77180661513848	0.657	n/a	stim	s554
69.569	1.614	-11.086998153441373	end_round	0.0	columbia_card_task_fmri	14.0	0.75	71.0	-95.0	0.25	10.0	7.0	1.0	13.366107585115202	1.614	6.0	stim	s554
71.186	2.25	n/a	-1.0	n/a	columbia_card_task_fmri	n/a	n/a	-1.0	n/a	n/a	n/a	n/a	n/a	n/a	n/a	n/a	feedback	s554
73.436	0.34	n/a	-1.0	n/a	columbia_card_task_fmri	n/a	n/a	-1.0	n/a	n/a	n/a	n/a	n/a	n/a	n/a	n/a	ITI	s554
73.777	2.455	1.163001846558628	draw_card	0.0	columbia_card_task_fmri	15.0	0.8	89.0	-65.0	0.2	10.0	1.0	2.0	-1.8087943633480563	2.455	n/a	stim	s554
76.233	1.015	-0.6147759312191488	draw_card	1.0	columbia_card_task_fmri	15.0	0.7777777777777778	89.0	-65.0	0.2222222222222222	10.0	2.0	2.0	-0.5523761323337908	1.015	2.0	stim	s554
77.251	2.25	n/a	-1.0	n/a	columbia_card_task_fmri	n/a	n/a	-1.0	n/a	n/a	n/a	n/a	n/a	n/a	n/a	n/a	feedback	s554
79.501	0.204	n/a	-1.0	n/a	columbia_card_task_fmri	n/a	n/a	-1.0	n/a	n/a	n/a	n/a	n/a	n/a	n/a	n/a	ITI	s554
79.708	4.629	2.763001846558629	draw_card	0.0	columbia_card_task_fmri	17.0	0.8	89.0	-65.0	0.2	10.0	1.0	2.0	-1.010571417730972	4.629	n/a	stim	s554
84.339	1.266	0.9407796243364084	draw_card	1.0	columbia_card_task_fmri	17.0	0.7777777777777778	89.0	-65.0	0.2222222222222222	10.0	2.0	2.0	0.2773930879195276	1.266	2.0	stim	s554
85.609	2.25	n/a	-1.0	n/a	columbia_card_task_fmri	n/a	n/a	-1.0	n/a	n/a	n/a	n/a	n/a	n/a	n/a	n/a	feedback	s554
87.859	0.068	n/a	-1.0	n/a	columbia_card_task_fmri	n/a	n/a	-1.0	n/a	n/a	n/a	n/a	n/a	n/a	n/a	n/a	ITI	s554
87.93	1.321	1.329668513225296	draw_card	0.0	columbia_card_task_fmri	13.0	0.8333333333333334	89.0	-70.0	0.1666666666666666	12.0	1.0	2.0	-2.8740062125647263	1.321	n/a	stim	s554
89.253	0.702	0.0720927556495345	draw_card	0.0	columbia_card_task_fmri	13.0	0.8181818181818181	89.0	-70.0	0.1818181818181818	12.0	2.0	2.0	-1.7961707000284548	0.702	n/a	stim	s554
89.956	0.622	-1.4369981534413716	draw_card	0.0	columbia_card_task_fmri	13.0	0.8	89.0	-70.0	0.2	12.0	3.0	2.0	-0.611427933002723	0.622	n/a	stim	s554
90.581	0.575	-3.2814425978858166	draw_card	0.0	columbia_card_task_fmri	13.0	0.7777777777777778	89.0	-70.0	0.2222222222222222	12.0	4.0	2.0	0.6923085130049529	0.575	n/a	stim	s554
91.159	0.531	-5.586998153441372	draw_card	0.0	columbia_card_task_fmri	13.0	0.75	89.0	-70.0	0.25	12.0	5.0	2.0	2.12327022484574	0.531	n/a	stim	s554
91.692	2.727	-8.551283867727086	draw_card	0.0	columbia_card_task_fmri	13.0	0.7142857142857143	89.0	-70.0	0.2857142857142857	12.0	6.0	2.0	3.676100717779484	2.727	n/a	stim	s554
94.421	0.694	-12.503664820108035	draw_card	0.0	columbia_card_task_fmri	13.0	0.6666666666666667	89.0	-70.0	0.3333333333333333	12.0	7.0	2.0	5.30450351109257	0.694	n/a	stim	s554
95.117	2.474	-18.03699815344137	end_round	0.0	columbia_card_task_fmri	13.0	0.6	71.0	-70.0	0.4	12.0	8.0	2.0	6.837206024391534	2.474	7.0	stim	s554
97.595	2.25	n/a	-1.0	n/a	columbia_card_task_fmri	n/a	n/a	-1.0	n/a	n/a	n/a	n/a	n/a	n/a	n/a	n/a	feedback	s554
99.845	0.0	n/a	-1.0	n/a	columbia_card_task_fmri	n/a	n/a	-1.0	n/a	n/a	n/a	n/a	n/a	n/a	n/a	n/a	ITI	s554
99.846	2.275	1.329668513225296	draw_card	0.0	columbia_card_task_fmri	15.0	0.8333333333333334	89.0	-80.0	0.1666666666666666	12.0	1.0	2.0	1.58860765053398	2.275	n/a	stim	s554
102.123	0.925	-0.1097254261686471	draw_card	1.0	columbia_card_task_fmri	15.0	0.8181818181818181	89.0	-80.0	0.1818181818181818	12.0	2.0	2.0	2.8229618985518456	0.925	2.0	stim	s554
103.051	2.25	n/a	-1.0	n/a	columbia_card_task_fmri	n/a	n/a	-1.0	n/a	n/a	n/a	n/a	n/a	n/a	n/a	n/a	feedback	s554
105.301	0.408	n/a	-1.0	n/a	columbia_card_task_fmri	n/a	n/a	-1.0	n/a	n/a	n/a	n/a	n/a	n/a	n/a	n/a	ITI	s554
105.711	3.866	0.3630018465586291	draw_card	0.0	columbia_card_task_fmri	14.0	0.8	89.0	-65.0	0.2	15.0	1.0	3.0	-2.2078722107560225	3.866	n/a	stim	s554
109.578	0.763	-0.765569582012799	draw_card	1.0	columbia_card_task_fmri	14.0	0.7857142857142857	89.0	-65.0	0.2142857142857142	15.0	2.0	3.0	-1.3939824163392132	0.763	2.0	stim	s554
110.345	2.25	n/a	-1.0	n/a	columbia_card_task_fmri	n/a	n/a	-1.0	n/a	n/a	n/a	n/a	n/a	n/a	n/a	n/a	feedback	s554
112.595	0.204	n/a	-1.0	n/a	columbia_card_task_fmri	n/a	n/a	-1.0	n/a	n/a	n/a	n/a	n/a	n/a	n/a	n/a	ITI	s554
112.801	2.197	0.288001846558628	end_round	0.0	columbia_card_task_fmri	1.0	0.9375	71.0	-45.0	0.0625	16.0	1.0	1.0	-22.53884454313078	2.197	0.0	stim	s554
115.001	2.25	n/a	-1.0	n/a	columbia_card_task_fmri	n/a	n/a	-1.0	n/a	n/a	n/a	n/a	n/a	n/a	n/a	n/a	feedback	s554
117.251	0.136	n/a	-1.0	n/a	columbia_card_task_fmri	n/a	n/a	-1.0	n/a	n/a	n/a	n/a	n/a	n/a	n/a	n/a	ITI	s554
117.39	1.637	1.225501846558628	draw_card	0.0	columbia_card_task_fmri	15.0	0.8125	89.0	-70.0	0.1875	16.0	1.0	3.0	-0.6348264253555058	1.637	n/a	stim	s554
119.029	1.649	0.163001846558628	draw_card	0.0	columbia_card_task_fmri	15.0	0.8	89.0	-70.0	0.2	16.0	2.0	3.0	0.1869193098312678	1.649	n/a	stim	s554
120.68	2.409	-1.0512838677270873	draw_card	1.0	columbia_card_task_fmri	15.0	0.7857142857142857	89.0	-70.0	0.2142857142857142	16.0	3.0	3.0	1.0628947738123244	2.409	3.0	stim	s554
123.093	2.25	n/a	-1.0	n/a	columbia_card_task_fmri	n/a	n/a	-1.0	n/a	n/a	n/a	n/a	n/a	n/a	n/a	n/a	feedback	s554
125.343	0.34	n/a	-1.0	n/a	columbia_card_task_fmri	n/a	n/a	-1.0	n/a	n/a	n/a	n/a	n/a	n/a	n/a	n/a	ITI	s554
125.684	2.151	8.163001846558629	draw_card	1.0	columbia_card_task_fmri	30.0	0.7	89.0	-50.0	0.3	10.0	1.0	3.0	2.8425456308899086	2.151	1.0	stim	s554
127.839	2.25	n/a	-1.0	n/a	columbia_card_task_fmri	n/a	n/a	-1.0	n/a	n/a	n/a	n/a	n/a	n/a	n/a	n/a	feedback	s554
130.089	0.068	n/a	-1.0	n/a	columbia_card_task_fmri	n/a	n/a	-1.0	n/a	n/a	n/a	n/a	n/a	n/a	n/a	n/a	ITI	s554
130.158	2.077	7.563001846558628	draw_card	1.0	columbia_card_task_fmri	17.0	0.8666666666666667	89.0	-70.0	0.1333333333333333	15.0	1.0	2.0	-4.228507477184738	2.077	1.0	stim	s554
132.239	2.25	n/a	-1.0	n/a	columbia_card_task_fmri	n/a	n/a	-1.0	n/a	n/a	n/a	n/a	n/a	n/a	n/a	n/a	feedback	s554
134.489	0.34	n/a	-1.0	n/a	columbia_card_task_fmri	n/a	n/a	-1.0	n/a	n/a	n/a	n/a	n/a	n/a	n/a	n/a	ITI	s554
134.831	3.669	2.788001846558628	draw_card	0.0	columbia_card_task_fmri	7.0	0.9375	89.0	-95.0	0.0625	16.0	1.0	1.0	-9.09698071487454	3.669	n/a	stim	s554
138.503	0.524	2.363001846558628	draw_card	0.0	columbia_card_task_fmri	7.0	0.9333333333333332	89.0	-95.0	0.0666666666666666	16.0	2.0	1.0	-8.346767764612505	0.524	n/a	stim	s554
139.028	0.432	1.8772875608443425	draw_card	0.0	columbia_card_task_fmri	7.0	0.9285714285714286	89.0	-95.0	0.0714285714285714	16.0	3.0	1.0	-7.523896574083704	0.432	n/a	stim	s554
139.463	1.235	1.3168480004047811	draw_card	0.0	columbia_card_task_fmri	7.0	0.9230769230769232	89.0	-95.0	0.0769230769230769	16.0	4.0	1.0	-6.61600851032361	1.235	n/a	stim	s554
140.7	0.729	0.663001846558628	draw_card	0.0	columbia_card_task_fmri	7.0	0.9166666666666666	89.0	-95.0	0.0833333333333333	16.0	5.0	1.0	-5.607645802930612	0.729	n/a	stim	s554
141.43	1.637	-0.1097254261686453	draw_card	0.0	columbia_card_task_fmri	7.0	0.9090909090909092	89.0	-95.0	0.0909090909090909	16.0	6.0	1.0	-4.479207000127122	1.637	n/a	stim	s554
143.07	1.308	-1.036998153441372	draw_card	0.0	columbia_card_task_fmri	7.0	0.9	89.0	-95.0	0.1	16.0	7.0	1.0	-3.205461737926204	1.308	n/a	stim	s554
144.381	3.851	-2.170331486774706	draw_card	0.0	columbia_card_task_fmri	7.0	0.8888888888888888	89.0	-95.0	0.1111111111111111	16.0	8.0	1.0	-1.7534131031503437	3.851	n/a	stim	s554
148.234	1.48	-3.586998153441372	end_round	0.0	columbia_card_task_fmri	7.0	0.875	71.0	-95.0	0.125	16.0	9.0	1.0	-0.0792092299538254	1.48	8.0	stim	s554
149.718	2.25	n/a	-1.0	n/a	columbia_card_task_fmri	n/a	n/a	-1.0	n/a	n/a	n/a	n/a	n/a	n/a	n/a	n/a	feedback	s554
151.968	0.136	n/a	-1.0	n/a	columbia_card_task_fmri	n/a	n/a	-1.0	n/a	n/a	n/a	n/a	n/a	n/a	n/a	n/a	ITI	s554
152.107	4.478	4.350501846558628	draw_card	0.0	columbia_card_task_fmri	9.0	0.9375	89.0	-100.0	0.0625	16.0	1.0	1.0	-7.408602439378676	4.478	n/a	stim	s554
156.588	0.564	3.8963351798919614	draw_card	0.0	columbia_card_task_fmri	9.0	0.9333333333333332	89.0	-100.0	0.0666666666666666	16.0	2.0	1.0	-6.606535649516658	0.564	n/a	stim	s554
157.154	0.622	3.377287560844344	draw_card	0.0	columbia_card_task_fmri	9.0	0.9285714285714286	89.0	-100.0	0.0714285714285714	16.0	3.0	1.0	-5.72681271431259	0.622	n/a	stim	s554
157.778	0.548	2.778386461943244	draw_card	0.0	columbia_card_task_fmri	9.0	0.9230769230769232	89.0	-100.0	0.0769230769230769	16.0	4.0	1.0	-4.756225777271954	0.548	n/a	stim	s554
158.329	0.549	2.079668513225296	draw_card	0.0	columbia_card_task_fmri	9.0	0.9166666666666666	89.0	-100.0	0.0833333333333333	16.0	5.0	1.0	-3.678254990764589	0.549	n/a	stim	s554
158.88	0.616	1.253910937467718	draw_card	0.0	columbia_card_task_fmri	9.0	0.9090909090909092	89.0	-100.0	0.0909090909090909	16.0	6.0	1.0	-2.4719522553348163	0.616	n/a	stim	s554
159.5	0.589	0.2630018465586277	draw_card	0.0	columbia_card_task_fmri	9.0	0.9	89.0	-100.0	0.1	16.0	7.0	1.0	-1.1103540254091442	0.589	n/a	stim	s554
160.091	1.447	-0.9481092645524828	draw_card	0.0	columbia_card_task_fmri	9.0	0.8888888888888888	89.0	-100.0	0.1111111111111111	16.0	8.0	1.0	0.4418030616416928	1.447	n/a	stim	s554
161.541	0.745	-2.461998153441372	draw_card	0.0	columbia_card_task_fmri	9.0	0.875	89.0	-100.0	0.125	16.0	9.0	1.0	2.2313825502559865	0.745	n/a	stim	s554
162.288	1.437	-4.408426724869941	draw_card	0.0	columbia_card_task_fmri	9.0	0.8571428571428572	89.0	-100.0	0.1428571428571428	16.0	10.0	1.0	4.321522469025886	1.437	n/a	stim	s554
163.727	1.572	-7.003664820108036	end_round	0.0	columbia_card_task_fmri	9.0	0.8333333333333334	71.0	-100.0	0.1666666666666666	16.0	11.0	1.0	6.797633889829385	1.572	10.0	stim	s554
165.302	2.25	n/a	-1.0	n/a	columbia_card_task_fmri	n/a	n/a	-1.0	n/a	n/a	n/a	n/a	n/a	n/a	n/a	n/a	feedback	s554
167.552	0.068	n/a	-1.0	n/a	columbia_card_task_fmri	n/a	n/a	-1.0	n/a	n/a	n/a	n/a	n/a	n/a	n/a	n/a	ITI	s554
167.622	4.138	5.288001846558628	draw_card	0.0	columbia_card_task_fmri	15.0	0.875	89.0	-80.0	0.125	16.0	1.0	2.0	-2.389148768192257	4.138	n/a	stim	s554
171.762	0.756	4.496335179891962	draw_card	0.0	columbia_card_task_fmri	15.0	0.8666666666666667	89.0	-80.0	0.1333333333333333	16.0	2.0	2.0	-1.5156669075795932	0.756	n/a	stim	s554
172.52	0.552	3.591573275130058	draw_card	0.0	columbia_card_task_fmri	15.0	0.8571428571428572	89.0	-80.0	0.1428571428571428	16.0	3.0	2.0	-0.568443863087218	0.552	n/a	stim	s554
173.075	0.64	2.5476172311740117	draw_card	0.0	columbia_card_task_fmri	15.0	0.8461538461538461	89.0	-80.0	0.1538461538461538	16.0	4.0	2.0	0.4624818938191311	0.64	n/a	stim	s554
173.716	0.792	1.329668513225296	draw_card	0.0	columbia_card_task_fmri	15.0	0.8333333333333334	89.0	-80.0	0.1666666666666666	16.0	5.0	2.0	1.58860765053398	0.792	n/a	stim	s554
174.51	0.525	-0.1097254261686471	draw_card	0.0	columbia_card_task_fmri	15.0	0.8181818181818181	89.0	-80.0	0.1818181818181818	16.0	6.0	2.0	2.8229618985518456	0.525	n/a	stim	s554
175.038	0.605	-1.836998153441372	draw_card	0.0	columbia_card_task_fmri	15.0	0.8	89.0	-80.0	0.2	16.0	7.0	2.0	4.179696621408425	0.605	n/a	stim	s554
175.645	0.464	-3.948109264552485	draw_card	0.0	columbia_card_task_fmri	15.0	0.7777777777777778	89.0	-80.0	0.2222222222222222	16.0	8.0	2.0	5.6726438339102	0.464	n/a	stim	s554
176.113	0.412	-6.586998153441372	draw_card	1.0	columbia_card_task_fmri	15.0	0.75	89.0	-80.0	0.25	16.0	9.0	2.0	7.311220507287821	0.412	9.0	stim	s554
176.529	2.25	n/a	-1.0	n/a	columbia_card_task_fmri	n/a	n/a	-1.0	n/a	n/a	n/a	n/a	n/a	n/a	n/a	n/a	feedback	s554
178.779	0.068	n/a	-1.0	n/a	columbia_card_task_fmri	n/a	n/a	-1.0	n/a	n/a	n/a	n/a	n/a	n/a	n/a	n/a	ITI	s554
178.85	2.562	7.413001846558628	draw_card	0.0	columbia_card_task_fmri	16.0	0.875	89.0	-70.0	0.125	16.0	1.0	2.0	-5.357857624232178	2.562	n/a	stim	s554
181.415	0.417	6.696335179891961	draw_card	0.0	columbia_card_task_fmri	16.0	0.8666666666666667	89.0	-70.0	0.1333333333333333	16.0	2.0	2.0	-4.56752607581447	0.417	n/a	stim	s554
181.835	0.375	5.877287560844343	draw_card	0.0	columbia_card_task_fmri	16.0	0.8571428571428572	89.0	-70.0	0.1428571428571428	16.0	3.0	2.0	-3.710449413938729	0.375	n/a	stim	s554
182.214	0.356	4.932232615789396	draw_card	1.0	columbia_card_task_fmri	16.0	0.8461538461538461	89.0	-70.0	0.1538461538461538	16.0	4.0	2.0	-2.7776103022648826	0.356	4.0	stim	s554
182.576	2.25	n/a	-1.0	n/a	columbia_card_task_fmri	n/a	n/a	-1.0	n/a	n/a	n/a	n/a	n/a	n/a	n/a	n/a	feedback	s554
184.826	0.068	n/a	-1.0	n/a	columbia_card_task_fmri	n/a	n/a	-1.0	n/a	n/a	n/a	n/a	n/a	n/a	n/a	n/a	ITI	s554
184.896	2.846	8.725501846558629	draw_card	0.0	columbia_card_task_fmri	30.0	0.6875	89.0	-45.0	0.3125	16.0	1.0	5.0	0.9488432341459756	2.846	n/a	stim	s554
187.746	1.488	7.163001846558632	draw_card	0.0	columbia_card_task_fmri	30.0	0.6666666666666667	89.0	-45.0	0.3333333333333333	16.0	2.0	5.0	1.5396285147634998	1.488	n/a	stim	s554
189.236	1.538	5.37728756084434	end_round	0.0	columbia_card_task_fmri	30.0	0.6428571428571428	71.0	-45.0	0.3571428571428571	16.0	3.0	5.0	2.1200286149233847	1.538	2.0	stim	s554
190.778	2.25	n/a	-1.0	n/a	columbia_card_task_fmri	n/a	n/a	-1.0	n/a	n/a	n/a	n/a	n/a	n/a	n/a	n/a	feedback	s554
193.028	0.136	n/a	-1.0	n/a	columbia_card_task_fmri	n/a	n/a	-1.0	n/a	n/a	n/a	n/a	n/a	n/a	n/a	n/a	ITI	s554
193.167	1.492	0.4963351798919619	draw_card	0.0	columbia_card_task_fmri	13.0	0.8333333333333334	89.0	-75.0	0.1666666666666666	6.0	1.0	1.0	-1.0148983482938905	1.492	n/a	stim	s554
194.662	1.163	-2.436998153441372	draw_card	0.0	columbia_card_task_fmri	13.0	0.8	89.0	-75.0	0.2	6.0	2.0	1.0	1.3845806239263112	1.163	n/a	stim	s554
195.828	1.005	-6.836998153441372	draw_card	0.0	columbia_card_task_fmri	13.0	0.75	89.0	-75.0	0.25	6.0	3.0	1.0	4.284644976719655	1.005	n/a	stim	s554
196.835	1.276	-14.170331486774703	end_round	0.0	columbia_card_task_fmri	13.0	0.6666666666666667	71.0	-75.0	0.3333333333333333	6.0	4.0	1.0	7.6581364204474625	1.276	3.0	stim	s554
198.115	2.25	n/a	-1.0	n/a	columbia_card_task_fmri	n/a	n/a	-1.0	n/a	n/a	n/a	n/a	n/a	n/a	n/a	n/a	feedback	s554
200.365	0.0	n/a	-1.0	n/a	columbia_card_task_fmri	n/a	n/a	-1.0	n/a	n/a	n/a	n/a	n/a	n/a	n/a	n/a	ITI	s554
200.368	1.975	2.16300184655863	draw_card	0.0	columbia_card_task_fmri	14.0	0.8333333333333334	89.0	-70.0	0.1666666666666666	6.0	1.0	1.0	-2.5022252780022605	1.975	n/a	stim	s554
202.346	0.668	-0.6369981534413709	draw_card	0.0	columbia_card_task_fmri	14.0	0.8	89.0	-70.0	0.2	6.0	2.0	1.0	-0.2122641189617482	0.668	n/a	stim	s554
203.016	1.668	-4.836998153441372	draw_card	0.0	columbia_card_task_fmri	14.0	0.75	89.0	-70.0	0.25	6.0	3.0	1.0	2.5555101360407875	1.668	n/a	stim	s554
204.686	1.467	-11.836998153441373	draw_card	0.0	columbia_card_task_fmri	14.0	0.6666666666666667	89.0	-70.0	0.3333333333333333	6.0	4.0	1.0	5.775197881404715	1.467	n/a	stim	s554
206.157	0.708	-25.83699815344137	end_round	0.0	columbia_card_task_fmri	14.0	0.5	71.0	-70.0	0.5	6.0	5.0	1.0	8.17384664433257	0.708	4.0	stim	s554
206.868	2.25	n/a	-1.0	n/a	columbia_card_task_fmri	n/a	n/a	-1.0	n/a	n/a	n/a	n/a	n/a	n/a	n/a	n/a	feedback	s554
209.118	0.136	n/a	-1.0	n/a	columbia_card_task_fmri	n/a	n/a	-1.0	n/a	n/a	n/a	n/a	n/a	n/a	n/a	n/a	ITI	s554
209.257	2.872	2.16300184655863	draw_card	0.0	columbia_card_task_fmri	16.0	0.8333333333333334	89.0	-80.0	0.1666666666666666	6.0	1.0	1.0	1.960599283417117	2.872	n/a	stim	s554
212.131	1.843	-1.0369981534413713	draw_card	0.0	columbia_card_task_fmri	16.0	0.8	89.0	-80.0	0.2	6.0	2.0	1.0	4.5790569070443965	1.843	n/a	stim	s554
213.977	1.671	-5.836998153441372	draw_card	0.0	columbia_card_task_fmri	16.0	0.75	89.0	-80.0	0.25	6.0	3.0	1.0	7.743642058466627	1.671	n/a	stim	s554
215.651	1.954	-13.836998153441368	draw_card	1.0	columbia_card_task_fmri	16.0	0.6666666666666667	89.0	-80.0	0.3333333333333333	6.0	4.0	1.0	11.42468215021588	1.954	4.0	stim	s554
217.608	2.25	n/a	-1.0	n/a	columbia_card_task_fmri	n/a	n/a	-1.0	n/a	n/a	n/a	n/a	n/a	n/a	n/a	n/a	feedback	s554
219.858	0.34	n/a	-1.0	n/a	columbia_card_task_fmri	n/a	n/a	-1.0	n/a	n/a	n/a	n/a	n/a	n/a	n/a	n/a	ITI	s554
220.201	1.714	4.66300184655863	draw_card	0.0	columbia_card_task_fmri	17.0	0.8333333333333334	89.0	-70.0	0.1666666666666666	6.0	1.0	1.0	-1.3867591644403632	1.714	n/a	stim	s554
221.917	1.082	1.7630018465586297	draw_card	0.0	columbia_card_task_fmri	17.0	0.8	89.0	-70.0	0.2	6.0	2.0	1.0	0.985342316880704	1.082	n/a	stim	s554
223.002	0.672	-2.586998153441372	draw_card	0.0	columbia_card_task_fmri	17.0	0.75	89.0	-70.0	0.25	6.0	3.0	1.0	3.852336191370874	0.672	n/a	stim	s554
223.676	0.878	-9.836998153441373	end_round	0.0	columbia_card_task_fmri	17.0	0.6666666666666667	71.0	-70.0	0.3333333333333333	6.0	4.0	1.0	7.187378734624311	0.878	3.0	stim	s554
224.559	2.25	n/a	-1.0	n/a	columbia_card_task_fmri	n/a	n/a	-1.0	n/a	n/a	n/a	n/a	n/a	n/a	n/a	n/a	feedback	s554
226.809	0.408	n/a	-1.0	n/a	columbia_card_task_fmri	n/a	n/a	-1.0	n/a	n/a	n/a	n/a	n/a	n/a	n/a	n/a	ITI	s554
227.219	2.034	4.663001846558628	draw_card	0.0	columbia_card_task_fmri	25.0	0.75	89.0	-65.0	0.25	8.0	1.0	2.0	5.1493093650150215	2.034	n/a	stim	s554
229.257	1.792	1.4487161322729163	draw_card	1.0	columbia_card_task_fmri	25.0	0.7142857142857143	89.0	-65.0	0.2857142857142857	8.0	2.0	2.0	6.833537112759238	1.792	2.0	stim	s554
231.052	2.25	n/a	-1.0	n/a	columbia_card_task_fmri	n/a	n/a	-1.0	n/a	n/a	n/a	n/a	n/a	n/a	n/a	n/a	feedback	s554
233.302	0.136	n/a	-1.0	n/a	columbia_card_task_fmri	n/a	n/a	-1.0	n/a	n/a	n/a	n/a	n/a	n/a	n/a	n/a	ITI	s554
233.441	2.123	4.663001846558628	draw_card	1.0	columbia_card_task_fmri	30.0	0.75	89.0	-80.0	0.25	8.0	1.0	2.0	13.798670417316655	2.123	1.0	stim	s554
235.568	2.25	n/a	-1.0	n/a	columbia_card_task_fmri	n/a	n/a	-1.0	n/a	n/a	n/a	n/a	n/a	n/a	n/a	n/a	feedback	s554
237.818	0.136	n/a	-1.0	n/a	columbia_card_task_fmri	n/a	n/a	-1.0	n/a	n/a	n/a	n/a	n/a	n/a	n/a	n/a	ITI	s554
237.957	2.807	4.363001846558629	draw_card	0.0	columbia_card_task_fmri	13.0	0.9	89.0	-95.0	0.1	10.0	1.0	1.0	-1.4096938234898817	2.807	n/a	stim	s554
240.767	1.023	3.163001846558628	draw_card	0.0	columbia_card_task_fmri	13.0	0.8888888888888888	89.0	-95.0	0.1111111111111111	10.0	2.0	1.0	0.1281637905706745	1.023	n/a	stim	s554
241.792	2.429	1.663001846558628	draw_card	0.0	columbia_card_task_fmri	13.0	0.875	89.0	-95.0	0.125	10.0	3.0	1.0	1.901262865436955	2.429	n/a	stim	s554
244.224	1.226	-0.265569582012799	draw_card	0.0	columbia_card_task_fmri	13.0	0.8571428571428572	89.0	-95.0	0.1428571428571428	10.0	4.0	1.0	3.972161863408971	1.226	n/a	stim	s554
245.453	1.707	-2.83699815344137	draw_card	0.0	columbia_card_task_fmri	13.0	0.8333333333333334	89.0	-95.0	0.1666666666666666	10.0	5.0	1.0	6.42548796375803	1.707	n/a	stim	s554
247.163	0.833	-6.436998153441372	end_round	0.0	columbia_card_task_fmri	13.0	0.8	71.0	-95.0	0.2	10.0	6.0	1.0	9.372302482314636	0.833	5.0	stim	s554
248.0	2.25	n/a	-1.0	n/a	columbia_card_task_fmri	n/a	n/a	-1.0	n/a	n/a	n/a	n/a	n/a	n/a	n/a	n/a	feedback	s554
250.25	0.0	n/a	-1.0	n/a	columbia_card_task_fmri	n/a	n/a	-1.0	n/a	n/a	n/a	n/a	n/a	n/a	n/a	n/a	ITI	s554
250.254	2.279	5.763001846558628	draw_card	1.0	columbia_card_task_fmri	14.0	0.9	89.0	-90.0	0.1	10.0	1.0	1.0	-2.606926497024407	2.279	1.0	stim	s554
252.537	2.25	n/a	-1.0	n/a	columbia_card_task_fmri	n/a	n/a	-1.0	n/a	n/a	n/a	n/a	n/a	n/a	n/a	n/a	feedback	s554
254.787	0.068	n/a	-1.0	n/a	columbia_card_task_fmri	n/a	n/a	-1.0	n/a	n/a	n/a	n/a	n/a	n/a	n/a	n/a	ITI	s554
254.857	1.617	0.9630018465586287	draw_card	0.0	columbia_card_task_fmri	16.0	0.8	89.0	-70.0	0.2	10.0	1.0	2.0	0.5861216718834683	1.617	n/a	stim	s554
256.477	1.987	-0.9481092645524828	draw_card	0.0	columbia_card_task_fmri	16.0	0.7777777777777778	89.0	-70.0	0.2222222222222222	10.0	2.0	2.0	1.9371694811808169	1.987	n/a	stim	s554
258.467	1.339	-3.336998153441372	draw_card	1.0	columbia_card_task_fmri	16.0	0.75	89.0	-70.0	0.25	10.0	3.0	2.0	3.4200437353494597	1.339	3.0	stim	s554
259.811	2.25	n/a	-1.0	n/a	columbia_card_task_fmri	n/a	n/a	-1.0	n/a	n/a	n/a	n/a	n/a	n/a	n/a	n/a	feedback	s554
262.061	0.0	n/a	-1.0	n/a	columbia_card_task_fmri	n/a	n/a	-1.0	n/a	n/a	n/a	n/a	n/a	n/a	n/a	n/a	ITI	s554
262.063	1.895	0.2463351798919619	end_round	0.0	columbia_card_task_fmri	7.0	0.9166666666666666	71.0	-100.0	0.0833333333333333	12.0	1.0	1.0	-4.229580076996189	1.895	0.0	stim	s554
263.964	2.25	n/a	-1.0	n/a	columbia_card_task_fmri	n/a	n/a	-1.0	n/a	n/a	n/a	n/a	n/a	n/a	n/a	n/a	feedback	s554
266.214	0.0	n/a	-1.0	n/a	columbia_card_task_fmri	n/a	n/a	-1.0	n/a	n/a	n/a	n/a	n/a	n/a	n/a	n/a	ITI	s554
266.217	3.728	0.4963351798919637	draw_card	1.0	columbia_card_task_fmri	14.0	0.8333333333333334	89.0	-80.0	0.1666666666666666	12.0	1.0	2.0	1.2166305799503547	3.728	1.0	stim	s554
269.95	2.25	n/a	-1.0	n/a	columbia_card_task_fmri	n/a	n/a	-1.0	n/a	n/a	n/a	n/a	n/a	n/a	n/a	n/a	feedback	s554
272.2	0.136	n/a	-1.0	n/a	columbia_card_task_fmri	n/a	n/a	-1.0	n/a	n/a	n/a	n/a	n/a	n/a	n/a	n/a	ITI	s554
272.34	2.472	2.163001846558628	draw_card	0.0	columbia_card_task_fmri	15.0	0.8333333333333334	89.0	-75.0	0.1666666666666666	12.0	1.0	2.0	-0.2711224098171314	2.472	n/a	stim	s554
274.816	0.978	0.799365482922263	draw_card	1.0	columbia_card_task_fmri	15.0	0.8181818181818181	89.0	-75.0	0.1818181818181818	12.0	2.0	2.0	0.8980259547798042	0.978	2.0	stim	s554
275.798	2.25	n/a	-1.0	n/a	columbia_card_task_fmri	n/a	n/a	-1.0	n/a	n/a	n/a	n/a	n/a	n/a	n/a	n/a	feedback	s554
278.048	0.136	n/a	-1.0	n/a	columbia_card_task_fmri	n/a	n/a	-1.0	n/a	n/a	n/a	n/a	n/a	n/a	n/a	n/a	ITI	s554
278.188	1.714	1.163001846558628	draw_card	0.0	columbia_card_task_fmri	15.0	0.8	89.0	-65.0	0.2	15.0	1.0	3.0	-1.8087943633480563	1.714	n/a	stim	s554
279.905	1.312	0.0201447037014856	draw_card	0.0	columbia_card_task_fmri	15.0	0.7857142857142857	89.0	-65.0	0.2142857142857142	15.0	2.0	3.0	-0.9845556139282294	1.312	n/a	stim	s554
281.221	1.537	-1.2985366149798354	draw_card	0.0	columbia_card_task_fmri	15.0	0.7692307692307692	89.0	-65.0	0.2307692307692307	15.0	3.0	3.0	-0.1064788604891333	1.537	n/a	stim	s554
282.761	1.333	-2.836998153441372	draw_card	1.0	columbia_card_task_fmri	15.0	0.75	89.0	-65.0	0.25	15.0	4.0	3.0	0.8266660815057634	1.333	4.0	stim	s554
284.098	2.25	n/a	-1.0	n/a	columbia_card_task_fmri	n/a	n/a	-1.0	n/a	n/a	n/a	n/a	n/a	n/a	n/a	n/a	feedback	s554
286.348	0.476	n/a	-1.0	n/a	columbia_card_task_fmri	n/a	n/a	-1.0	n/a	n/a	n/a	n/a	n/a	n/a	n/a	n/a	ITI	s554
286.827	1.704	0.413001846558628	draw_card	0.0	columbia_card_task_fmri	14.0	0.8125	89.0	-70.0	0.1875	16.0	1.0	3.0	-1.0243020902798676	1.704	n/a	stim	s554
288.533	1.094	-0.6369981534413709	draw_card	1.0	columbia_card_task_fmri	14.0	0.8	89.0	-70.0	0.2	16.0	2.0	3.0	-0.2122641189617482	1.094	2.0	stim	s554
289.632	2.25	n/a	-1.0	n/a	columbia_card_task_fmri	n/a	n/a	-1.0	n/a	n/a	n/a	n/a	n/a	n/a	n/a	n/a	feedback	s554
291.882	0.204	n/a	-1.0	n/a	columbia_card_task_fmri	n/a	n/a	-1.0	n/a	n/a	n/a	n/a	n/a	n/a	n/a	n/a	ITI	s554
292.089	2.321	0.350501846558628	draw_card	0.0	columbia_card_task_fmri	11.0	0.6875	89.0	-30.0	0.3125	16.0	1.0	5.0	-14.755106816831256	2.321	n/a	stim	s554
294.413	1.976	-0.503664820108038	draw_card	1.0	columbia_card_task_fmri	11.0	0.6666666666666667	89.0	-30.0	0.3333333333333333	16.0	2.0	5.0	-14.433571416342868	1.976	2.0	stim	s554
296.394	2.25	n/a	-1.0	n/a	columbia_card_task_fmri	n/a	n/a	-1.0	n/a	n/a	n/a	n/a	n/a	n/a	n/a	n/a	feedback	s554
298.644	0.068	n/a	-1.0	n/a	columbia_card_task_fmri	n/a	n/a	-1.0	n/a	n/a	n/a	n/a	n/a	n/a	n/a	n/a	ITI	s554
298.715	1.482	5.163001846558628	draw_card	0.0	columbia_card_task_fmri	15.0	0.8666666666666667	89.0	-75.0	0.1333333333333333	15.0	1.0	2.0	-3.211330011241145	1.482	n/a	stim	s554
300.201	1.75	4.305858989415772	draw_card	0.0	columbia_card_task_fmri	15.0	0.8571428571428572	89.0	-75.0	0.1428571428571428	15.0	2.0	2.0	-2.314183060638065	1.75	n/a	stim	s554
301.954	1.199	3.3168480004047813	draw_card	0.0	columbia_card_task_fmri	15.0	0.8461538461538461	89.0	-75.0	0.1538461538461538	15.0	3.0	2.0	-1.337744515587353	1.199	n/a	stim	s554
303.156	1.199	2.163001846558628	draw_card	0.0	columbia_card_task_fmri	15.0	0.8333333333333334	89.0	-75.0	0.1666666666666666	15.0	4.0	2.0	-0.2711224098171314	1.199	n/a	stim	s554
304.359	1.029	0.799365482922263	end_round	0.0	columbia_card_task_fmri	15.0	0.8181818181818181	71.0	-75.0	0.1818181818181818	15.0	5.0	2.0	0.8980259547798042	1.029	4.0	stim	s554
305.391	2.25	n/a	-1.0	n/a	columbia_card_task_fmri	n/a	n/a	-1.0	n/a	n/a	n/a	n/a	n/a	n/a	n/a	n/a	feedback	s554
307.641	0.068	n/a	-1.0	n/a	columbia_card_task_fmri	n/a	n/a	-1.0	n/a	n/a	n/a	n/a	n/a	n/a	n/a	n/a	ITI	s554
307.713	1.607	6.896335179891962	draw_card	0.0	columbia_card_task_fmri	17.0	0.8666666666666667	89.0	-75.0	0.1333333333333333	15.0	1.0	2.0	-2.533116888752243	1.607	n/a	stim	s554
309.324	1.861	6.020144703701488	draw_card	0.0	columbia_card_task_fmri	17.0	0.8571428571428572	89.0	-75.0	0.1428571428571428	15.0	2.0	2.0	-1.615938032528291	1.861	n/a	stim	s554
311.19	1.328	5.009155692712475	draw_card	0.0	columbia_card_task_fmri	17.0	0.8461538461538461	89.0	-75.0	0.1538461538461538	15.0	3.0	2.0	-0.6177030957255241	1.328	n/a	stim	s554
312.522	1.634	3.829668513225296	draw_card	0.0	columbia_card_task_fmri	17.0	0.8333333333333334	89.0	-75.0	0.1666666666666666	15.0	4.0	2.0	0.472722017759736	1.634	n/a	stim	s554
314.16	1.245	2.4357291192859	draw_card	0.0	columbia_card_task_fmri	17.0	0.8181818181818181	89.0	-75.0	0.1818181818181818	15.0	5.0	2.0	1.6679543239952397	1.245	n/a	stim	s554
315.408	2.59	0.7630018465586295	draw_card	1.0	columbia_card_task_fmri	17.0	0.8	89.0	-75.0	0.2	15.0	6.0	2.0	2.981698995228392	2.59	6.0	stim	s554
318.003	2.25	n/a	-1.0	n/a	columbia_card_task_fmri	n/a	n/a	-1.0	n/a	n/a	n/a	n/a	n/a	n/a	n/a	n/a	feedback	s554
320.253	0.34	n/a	-1.0	n/a	columbia_card_task_fmri	n/a	n/a	-1.0	n/a	n/a	n/a	n/a	n/a	n/a	n/a	n/a	ITI	s554
320.597	1.956	2.475501846558628	draw_card	0.0	columbia_card_task_fmri	2.0	0.9375	89.0	-25.0	0.0625	16.0	1.0	1.0	-26.997525857176385	1.956	n/a	stim	s554
322.556	1.152	2.363001846558628	draw_card	0.0	columbia_card_task_fmri	2.0	0.9333333333333332	89.0	-25.0	0.0666666666666666	16.0	2.0	1.0	-26.808018727862944	1.152	n/a	stim	s554
323.712	0.543	2.2344304179872	draw_card	1.0	columbia_card_task_fmri	2.0	0.9285714285714286	89.0	-25.0	0.0714285714285714	16.0	3.0	1.0	-26.599601393657352	0.543	3.0	stim	s554
324.259	2.25	n/a	-1.0	n/a	columbia_card_task_fmri	n/a	n/a	-1.0	n/a	n/a	n/a	n/a	n/a	n/a	n/a	n/a	feedback	s554
326.509	0.476	n/a	-1.0	n/a	columbia_card_task_fmri	n/a	n/a	-1.0	n/a	n/a	n/a	n/a	n/a	n/a	n/a	n/a	ITI	s554
326.99	2.282	4.663001846558628	draw_card	0.0	columbia_card_task_fmri	9.0	0.9375	89.0	-95.0	0.0625	16.0	1.0	1.0	-8.614669599686849	2.282	n/a	stim	s554
329.276	1.217	4.229668513225295	draw_card	0.0	columbia_card_task_fmri	9.0	0.9333333333333332	89.0	-95.0	0.0666666666666666	16.0	2.0	1.0	-7.849638870381717	1.217	n/a	stim	s554
330.497	0.919	3.7344304179872	draw_card	0.0	columbia_card_task_fmri	9.0	0.9285714285714286	89.0	-95.0	0.0714285714285714	16.0	3.0	1.0	-7.010521849644832	0.919	n/a	stim	s554
331.418	0.665	3.163001846558628	end_round	0.0	columbia_card_task_fmri	9.0	0.9230769230769232	71.0	-95.0	0.0769230769230769	16.0	4.0	1.0	-6.084717261972557	0.665	3.0	stim	s554
332.088	2.25	n/a	-1.0	n/a	columbia_card_task_fmri	n/a	n/a	-1.0	n/a	n/a	n/a	n/a	n/a	n/a	n/a	n/a	feedback	s554
334.338	0.272	n/a	-1.0	n/a	columbia_card_task_fmri	n/a	n/a	-1.0	n/a	n/a	n/a	n/a	n/a	n/a	n/a	n/a	ITI	s554
334.614	1.972	6.225501846558628	draw_card	0.0	columbia_card_task_fmri	11.0	0.9375	89.0	-100.0	0.0625	16.0	1.0	1.0	-6.92606914833047	1.972	n/a	stim	s554
336.589	0.962	5.763001846558629	draw_card	0.0	columbia_card_task_fmri	11.0	0.9333333333333332	89.0	-100.0	0.0666666666666666	16.0	2.0	1.0	-6.109191022427549	0.962	n/a	stim	s554
337.555	1.736	5.234430417987201	draw_card	0.0	columbia_card_task_fmri	11.0	0.9285714285714286	89.0	-100.0	0.0714285714285714	16.0	3.0	1.0	-5.213228910173964	1.736	n/a	stim	s554
339.295	2.178	4.624540308097091	draw_card	0.0	columbia_card_task_fmri	11.0	0.9230769230769232	89.0	-100.0	0.0769230769230769	16.0	4.0	1.0	-4.224732331992776	2.178	n/a	stim	s554
341.477	1.715	3.913001846558628	draw_card	0.0	columbia_card_task_fmri	11.0	0.9166666666666666	89.0	-100.0	0.0833333333333333	16.0	5.0	1.0	-3.126878003719291	1.715	n/a	stim	s554
343.195	0.855	3.0720927556495363	end_round	0.0	columbia_card_task_fmri	11.0	0.9090909090909092	71.0	-100.0	0.0909090909090909	16.0	6.0	1.0	-1.898333085776084	0.855	5.0	stim	s554
344.055	2.25	n/a	-1.0	n/a	columbia_card_task_fmri	n/a	n/a	-1.0	n/a	n/a	n/a	n/a	n/a	n/a	n/a	n/a	feedback	s554
346.305	0.884	n/a	-1.0	n/a	columbia_card_task_fmri	n/a	n/a	-1.0	n/a	n/a	n/a	n/a	n/a	n/a	n/a	n/a	ITI	s554
347.191	2.215	6.788001846558628	draw_card	0.0	columbia_card_task_fmri	16.0	0.875	89.0	-75.0	0.125	16.0	1.0	2.0	-3.708763724556871	2.215	n/a	stim	s554
349.41	1.515	6.029668513225295	draw_card	0.0	columbia_card_task_fmri	16.0	0.8666666666666667	89.0	-75.0	0.1333333333333333	16.0	2.0	2.0	-2.87223251647826	1.515	n/a	stim	s554
350.928	1.375	5.16300184655863	draw_card	0.0	columbia_card_task_fmri	16.0	0.8571428571428572	89.0	-75.0	0.1428571428571428	16.0	3.0	2.0	-1.9650693577840637	1.375	n/a	stim	s554
352.306	1.637	4.163001846558628	draw_card	0.0	columbia_card_task_fmri	16.0	0.8461538461538461	89.0	-75.0	0.1538461538461538	16.0	4.0	2.0	-0.9777323547955632	1.637	n/a	stim	s554
353.947	1.163	2.996335179891962	draw_card	0.0	columbia_card_task_fmri	16.0	0.8333333333333334	89.0	-75.0	0.1666666666666666	16.0	5.0	2.0	0.1007915239158876	1.163	n/a	stim	s554
355.115	1.126	1.6175473011040813	end_round	0.0	columbia_card_task_fmri	16.0	0.8181818181818181	71.0	-75.0	0.1818181818181818	16.0	6.0	2.0	1.2829821355434987	1.126	5.0	stim	s554
356.248	2.25	n/a	-1.0	n/a	columbia_card_task_fmri	n/a	n/a	-1.0	n/a	n/a	n/a	n/a	n/a	n/a	n/a	n/a	feedback	s554
358.498	0.136	n/a	-1.0	n/a	columbia_card_task_fmri	n/a	n/a	-1.0	n/a	n/a	n/a	n/a	n/a	n/a	n/a	n/a	ITI	s554
358.638	2.696	7.038001846558628	draw_card	0.0	columbia_card_task_fmri	17.0	0.875	89.0	-80.0	0.125	16.0	1.0	2.0	-1.7292407959484208	2.696	n/a	stim	s554
361.338	1.532	6.229668513225296	draw_card	0.0	columbia_card_task_fmri	17.0	0.8666666666666667	89.0	-80.0	0.1333333333333333	16.0	2.0	2.0	-0.8372862958943443	1.532	n/a	stim	s554
362.873	0.905	5.305858989415774	draw_card	0.0	columbia_card_task_fmri	17.0	0.8571428571428572	89.0	-80.0	0.1428571428571428	16.0	3.0	2.0	0.1299639349353469	0.905	n/a	stim	s554
363.781	1.169	4.239924923481705	draw_card	0.0	columbia_card_task_fmri	17.0	0.8461538461538461	89.0	-80.0	0.1538461538461538	16.0	4.0	2.0	1.182681239254627	1.169	n/a	stim	s554
364.954	1.401	2.996335179891964	end_round	0.0	columbia_card_task_fmri	17.0	0.8333333333333334	71.0	-80.0	0.1666666666666666	16.0	5.0	2.0	2.3326050298514147	1.401	4.0	stim	s554
366.36	2.25	n/a	-1.0	n/a	columbia_card_task_fmri	n/a	n/a	-1.0	n/a	n/a	n/a	n/a	n/a	n/a	n/a	n/a	feedback	s554
368.61	0.136	n/a	-1.0	n/a	columbia_card_task_fmri	n/a	n/a	-1.0	n/a	n/a	n/a	n/a	n/a	n/a	n/a	n/a	ITI	s554
379.753	3.283	1.329668513225296	draw_card	0.0	columbia_card_task_fmri	13.0	0.8333333333333334	89.0	-70.0	0.1666666666666666	6.0	1.0	1.0	-2.8740062125647263	3.283	n/a	stim	s554
383.041	1.365	-1.4369981534413716	draw_card	0.0	columbia_card_task_fmri	13.0	0.8	89.0	-70.0	0.2	6.0	2.0	1.0	-0.611427933002723	1.365	n/a	stim	s554
384.41	1.782	-5.586998153441372	draw_card	0.0	columbia_card_task_fmri	13.0	0.75	89.0	-70.0	0.25	6.0	3.0	1.0	2.12327022484574	1.782	n/a	stim	s554
386.195	1.696	-12.503664820108035	draw_card	0.0	columbia_card_task_fmri	13.0	0.6666666666666667	89.0	-70.0	0.3333333333333333	6.0	4.0	1.0	5.30450351109257	1.696	n/a	stim	s554
387.895	0.75	-26.33699815344137	end_round	0.0	columbia_card_task_fmri	13.0	0.5	71.0	-70.0	0.5	6.0	5.0	1.0	7.67451634869996	0.75	4.0	stim	s554
388.651	2.25	n/a	-1.0	n/a	columbia_card_task_fmri	n/a	n/a	-1.0	n/a	n/a	n/a	n/a	n/a	n/a	n/a	n/a	feedback	s554
390.901	0.068	n/a	-1.0	n/a	columbia_card_task_fmri	n/a	n/a	-1.0	n/a	n/a	n/a	n/a	n/a	n/a	n/a	n/a	ITI	s554
390.973	3.624	1.329668513225296	draw_card	0.0	columbia_card_task_fmri	15.0	0.8333333333333334	89.0	-80.0	0.1666666666666666	6.0	1.0	1.0	1.58860765053398	3.624	n/a	stim	s554
394.6	0.997	-1.836998153441372	draw_card	1.0	columbia_card_task_fmri	15.0	0.8	89.0	-80.0	0.2	6.0	2.0	1.0	4.179696621408425	0.997	2.0	stim	s554
395.603	2.25	n/a	-1.0	n/a	columbia_card_task_fmri	n/a	n/a	-1.0	n/a	n/a	n/a	n/a	n/a	n/a	n/a	n/a	feedback	s554
397.853	0.068	n/a	-1.0	n/a	columbia_card_task_fmri	n/a	n/a	-1.0	n/a	n/a	n/a	n/a	n/a	n/a	n/a	n/a	ITI	s554
397.925	1.701	2.996335179891962	draw_card	0.0	columbia_card_task_fmri	16.0	0.8333333333333334	89.0	-75.0	0.1666666666666666	6.0	1.0	1.0	0.1007915239158876	1.701	n/a	stim	s554
399.63	1.051	-0.0369981534413712	draw_card	0.0	columbia_card_task_fmri	16.0	0.8	89.0	-75.0	0.2	6.0	2.0	1.0	2.58239571589327	1.051	n/a	stim	s554
400.686	0.801	-4.586998153441372	draw_card	0.0	columbia_card_task_fmri	16.0	0.75	89.0	-75.0	0.25	6.0	3.0	1.0	5.581663942164809	0.801	n/a	stim	s554
401.492	0.799	-12.170331486774703	end_round	0.0	columbia_card_task_fmri	16.0	0.6666666666666667	71.0	-75.0	0.3333333333333333	6.0	4.0	1.0	9.070494608251494	0.799	3.0	stim	s554
402.296	2.25	n/a	-1.0	n/a	columbia_card_task_fmri	n/a	n/a	-1.0	n/a	n/a	n/a	n/a	n/a	n/a	n/a	n/a	feedback	s554
404.546	0.612	n/a	-1.0	n/a	columbia_card_task_fmri	n/a	n/a	-1.0	n/a	n/a	n/a	n/a	n/a	n/a	n/a	n/a	ITI	s554
405.162	1.591	4.163001846558628	draw_card	0.0	columbia_card_task_fmri	21.0	0.75	89.0	-55.0	0.25	8.0	1.0	2.0	-0.9018414569279544	1.591	n/a	stim	s554
406.757	1.266	1.4487161322729143	draw_card	0.0	columbia_card_task_fmri	21.0	0.7142857142857143	89.0	-55.0	0.2857142857142857	8.0	2.0	2.0	0.5195537004425432	1.266	n/a	stim	s554
408.027	1.524	-2.1703314867747023	draw_card	0.0	columbia_card_task_fmri	21.0	0.6666666666666667	89.0	-55.0	0.3333333333333333	8.0	3.0	2.0	2.010164846990264	1.524	n/a	stim	s554
409.555	0.96	-7.236998153441372	end_round	0.0	columbia_card_task_fmri	21.0	0.6	71.0	-55.0	0.4	8.0	4.0	2.0	3.413206988139592	0.96	3.0	stim	s554
410.52	2.25	n/a	-1.0	n/a	columbia_card_task_fmri	n/a	n/a	-1.0	n/a	n/a	n/a	n/a	n/a	n/a	n/a	n/a	feedback	s554
412.77	0.476	n/a	-1.0	n/a	columbia_card_task_fmri	n/a	n/a	-1.0	n/a	n/a	n/a	n/a	n/a	n/a	n/a	n/a	ITI	s554
413.25	1.79	5.413001846558628	draw_card	0.0	columbia_card_task_fmri	26.0	0.75	89.0	-65.0	0.25	8.0	1.0	2.0	5.581663942164809	1.79	n/a	stim	s554
415.043	1.555	2.163001846558632	draw_card	1.0	columbia_card_task_fmri	26.0	0.7142857142857143	89.0	-65.0	0.2857142857142857	8.0	2.0	2.0	7.284660125299801	1.555	2.0	stim	s554
416.604	2.25	n/a	-1.0	n/a	columbia_card_task_fmri	n/a	n/a	-1.0	n/a	n/a	n/a	n/a	n/a	n/a	n/a	n/a	feedback	s554
418.854	0.0	n/a	-1.0	n/a	columbia_card_task_fmri	n/a	n/a	-1.0	n/a	n/a	n/a	n/a	n/a	n/a	n/a	n/a	ITI	s554
418.858	1.642	0.4963351798919619	draw_card	1.0	columbia_card_task_fmri	15.0	0.7777777777777778	89.0	-60.0	0.2222222222222222	9.0	1.0	2.0	-2.626401500099405	1.642	1.0	stim	s554
420.507	2.25	n/a	-1.0	n/a	columbia_card_task_fmri	n/a	n/a	-1.0	n/a	n/a	n/a	n/a	n/a	n/a	n/a	n/a	feedback	s554
422.757	0.068	n/a	-1.0	n/a	columbia_card_task_fmri	n/a	n/a	-1.0	n/a	n/a	n/a	n/a	n/a	n/a	n/a	n/a	ITI	s554
422.828	2.142	4.863001846558629	draw_card	0.0	columbia_card_task_fmri	13.0	0.9	89.0	-90.0	0.1	10.0	1.0	1.0	-2.906201201940505	2.142	n/a	stim	s554
424.974	0.815	3.718557402114184	draw_card	0.0	columbia_card_task_fmri	13.0	0.8888888888888888	89.0	-90.0	0.1111111111111111	10.0	2.0	1.0	-1.4398495421779742	0.815	n/a	stim	s554
425.793	0.589	2.288001846558628	draw_card	0.0	columbia_card_task_fmri	13.0	0.875	89.0	-90.0	0.125	10.0	3.0	1.0	0.2508384659243816	0.589	n/a	stim	s554
426.385	1.239	0.4487161322729163	draw_card	0.0	columbia_card_task_fmri	13.0	0.8571428571428572	89.0	-90.0	0.1428571428571428	10.0	4.0	1.0	2.225523406198945	1.239	n/a	stim	s554
427.628	0.961	-2.003664820108038	end_round	0.0	columbia_card_task_fmri	13.0	0.8333333333333334	71.0	-90.0	0.1666666666666666	10.0	5.0	1.0	4.5649129497083365	0.961	4.0	stim	s554
428.593	2.25	n/a	-1.0	n/a	columbia_card_task_fmri	n/a	n/a	-1.0	n/a	n/a	n/a	n/a	n/a	n/a	n/a	n/a	feedback	s554
430.843	0.204	n/a	-1.0	n/a	columbia_card_task_fmri	n/a	n/a	-1.0	n/a	n/a	n/a	n/a	n/a	n/a	n/a	n/a	ITI	s554
431.051	1.833	6.163001846558628	draw_card	0.0	columbia_card_task_fmri	15.0	0.9	89.0	-95.0	0.1	10.0	1.0	1.0	-0.8110022625371514	1.833	n/a	stim	s554
432.889	1.415	4.940779624336405	draw_card	0.0	columbia_card_task_fmri	15.0	0.8888888888888888	89.0	-95.0	0.1111111111111111	10.0	2.0	1.0	0.7554537608603127	1.415	n/a	stim	s554
434.308	1.302	3.413001846558628	draw_card	1.0	columbia_card_task_fmri	15.0	0.875	89.0	-95.0	0.125	10.0	3.0	1.0	2.5615131010904904	1.302	3.0	stim	s554
435.615	2.25	n/a	-1.0	n/a	columbia_card_task_fmri	n/a	n/a	-1.0	n/a	n/a	n/a	n/a	n/a	n/a	n/a	n/a	feedback	s554
437.865	0.272	n/a	-1.0	n/a	columbia_card_task_fmri	n/a	n/a	-1.0	n/a	n/a	n/a	n/a	n/a	n/a	n/a	n/a	ITI	s554
438.141	2.086	1.9630018465586287	draw_card	1.0	columbia_card_task_fmri	16.0	0.8	89.0	-65.0	0.2	10.0	1.0	2.0	-1.4096938234898886	2.086	1.0	stim	s554
440.232	2.25	n/a	-1.0	n/a	columbia_card_task_fmri	n/a	n/a	-1.0	n/a	n/a	n/a	n/a	n/a	n/a	n/a	n/a	feedback	s554
442.482	0.068	n/a	-1.0	n/a	columbia_card_task_fmri	n/a	n/a	-1.0	n/a	n/a	n/a	n/a	n/a	n/a	n/a	n/a	ITI	s554
442.554	2.581	0.663001846558628	draw_card	0.0	columbia_card_task_fmri	7.0	0.9166666666666666	89.0	-95.0	0.0833333333333333	12.0	1.0	1.0	-5.607645802930612	2.581	n/a	stim	s554
445.139	0.47	-0.1097254261686453	draw_card	0.0	columbia_card_task_fmri	7.0	0.9090909090909092	89.0	-95.0	0.0909090909090909	12.0	2.0	1.0	-4.479207000127122	0.47	n/a	stim	s554
445.614	0.551	-1.036998153441372	draw_card	0.0	columbia_card_task_fmri	7.0	0.9	89.0	-95.0	0.1	12.0	3.0	1.0	-3.205461737926204	0.551	n/a	stim	s554
446.17	0.563	-2.170331486774706	draw_card	0.0	columbia_card_task_fmri	7.0	0.8888888888888888	89.0	-95.0	0.1111111111111111	12.0	4.0	1.0	-1.7534131031503437	0.563	n/a	stim	s554
446.736	0.675	-3.586998153441372	end_round	0.0	columbia_card_task_fmri	7.0	0.875	71.0	-95.0	0.125	12.0	5.0	1.0	-0.0792092299538254	0.675	4.0	stim	s554
447.417	2.25	n/a	-1.0	n/a	columbia_card_task_fmri	n/a	n/a	-1.0	n/a	n/a	n/a	n/a	n/a	n/a	n/a	n/a	feedback	s554
449.667	0.272	n/a	-1.0	n/a	columbia_card_task_fmri	n/a	n/a	-1.0	n/a	n/a	n/a	n/a	n/a	n/a	n/a	n/a	ITI	s554
449.943	1.952	1.329668513225296	draw_card	0.0	columbia_card_task_fmri	14.0	0.8333333333333334	89.0	-75.0	0.1666666666666666	12.0	1.0	2.0	-0.6430192275584972	1.952	n/a	stim	s554
451.9	1.233	-0.0188163352595553	draw_card	0.0	columbia_card_task_fmri	14.0	0.8181818181818181	89.0	-75.0	0.1818181818181818	12.0	2.0	2.0	0.5130863191900872	1.233	n/a	stim	s554
453.138	1.949	-1.636998153441371	draw_card	0.0	columbia_card_task_fmri	14.0	0.8	89.0	-75.0	0.2	12.0	3.0	2.0	1.783835999897775	1.949	n/a	stim	s554
455.091	1.441	-3.614775931219147	draw_card	0.0	columbia_card_task_fmri	14.0	0.7777777777777778	89.0	-75.0	0.2222222222222222	12.0	4.0	2.0	3.182189005842502	1.441	n/a	stim	s554
456.537	1.619	-6.086998153441372	draw_card	0.0	columbia_card_task_fmri	14.0	0.75	89.0	-75.0	0.25	12.0	5.0	2.0	4.716969542727362	1.619	n/a	stim	s554
458.159	0.799	-9.265569582012798	end_round	0.0	columbia_card_task_fmri	14.0	0.7142857142857143	71.0	-75.0	0.2857142857142857	12.0	6.0	2.0	6.382428248263686	0.799	5.0	stim	s554
458.964	2.25	n/a	-1.0	n/a	columbia_card_task_fmri	n/a	n/a	-1.0	n/a	n/a	n/a	n/a	n/a	n/a	n/a	n/a	feedback	s554
461.214	0.748	n/a	-1.0	n/a	columbia_card_task_fmri	n/a	n/a	-1.0	n/a	n/a	n/a	n/a	n/a	n/a	n/a	n/a	ITI	s554
461.967	2.023	2.996335179891962	draw_card	0.0	columbia_card_task_fmri	15.0	0.8333333333333334	89.0	-70.0	0.1666666666666666	12.0	1.0	2.0	-2.1304233104772905	2.023	n/a	stim	s554
463.995	1.679	1.7084563920131712	draw_card	0.0	columbia_card_task_fmri	15.0	0.8181818181818181	89.0	-70.0	0.1818181818181818	12.0	2.0	2.0	-1.026495141003096	1.679	n/a	stim	s554
465.677	1.429	0.163001846558628	draw_card	0.0	columbia_card_task_fmri	15.0	0.8	89.0	-70.0	0.2	12.0	3.0	2.0	0.1869193098312678	1.429	n/a	stim	s554
467.11	1.847	-1.7258870423302612	draw_card	1.0	columbia_card_task_fmri	15.0	0.7777777777777778	89.0	-70.0	0.2222222222222222	12.0	4.0	2.0	1.5221973817508356	1.847	4.0	stim	s554
468.963	2.25	n/a	-1.0	n/a	columbia_card_task_fmri	n/a	n/a	-1.0	n/a	n/a	n/a	n/a	n/a	n/a	n/a	n/a	feedback	s554
471.213	0.068	n/a	-1.0	n/a	columbia_card_task_fmri	n/a	n/a	-1.0	n/a	n/a	n/a	n/a	n/a	n/a	n/a	n/a	ITI	s554
471.286	1.928	0.9630018465586287	draw_card	1.0	columbia_card_task_fmri	16.0	0.8	89.0	-70.0	0.2	15.0	1.0	3.0	0.5861216718834683	1.928	1.0	stim	s554
473.22	2.25	n/a	-1.0	n/a	columbia_card_task_fmri	n/a	n/a	-1.0	n/a	n/a	n/a	n/a	n/a	n/a	n/a	n/a	feedback	s554
475.47	0.0	n/a	-1.0	n/a	columbia_card_task_fmri	n/a	n/a	-1.0	n/a	n/a	n/a	n/a	n/a	n/a	n/a	n/a	ITI	s554
475.475	1.031	1.350501846558628	draw_card	0.0	columbia_card_task_fmri	14.0	0.8125	89.0	-65.0	0.1875	16.0	1.0	3.0	-2.9713637939339463	1.031	n/a	stim	s554
476.509	0.829	0.3630018465586291	draw_card	0.0	columbia_card_task_fmri	14.0	0.8	89.0	-65.0	0.2	16.0	2.0	3.0	-2.2078722107560225	0.829	n/a	stim	s554
477.342	1.197	-0.765569582012799	draw_card	0.0	columbia_card_task_fmri	14.0	0.7857142857142857	89.0	-65.0	0.2142857142857142	16.0	3.0	3.0	-1.3939824163392132	1.197	n/a	stim	s554
478.543	0.82	-2.067767384210604	draw_card	0.0	columbia_card_task_fmri	14.0	0.7692307692307692	89.0	-65.0	0.2307692307692307	16.0	4.0	3.0	-0.5269281275692563	0.82	n/a	stim	s554
479.368	1.489	-3.586998153441372	draw_card	1.0	columbia_card_task_fmri	14.0	0.75	89.0	-65.0	0.25	16.0	5.0	3.0	0.394505659666585	1.489	5.0	stim	s554
480.862	2.25	n/a	-1.0	n/a	columbia_card_task_fmri	n/a	n/a	-1.0	n/a	n/a	n/a	n/a	n/a	n/a	n/a	n/a	feedback	s554
483.112	0.204	n/a	-1.0	n/a	columbia_card_task_fmri	n/a	n/a	-1.0	n/a	n/a	n/a	n/a	n/a	n/a	n/a	n/a	ITI	s554
483.32	2.117	1.100501846558628	draw_card	0.0	columbia_card_task_fmri	16.0	0.8125	89.0	-75.0	0.1875	16.0	1.0	3.0	1.7024126128645278	2.117	n/a	stim	s554
485.442	1.368	-0.0369981534413712	draw_card	0.0	columbia_card_task_fmri	16.0	0.8	89.0	-75.0	0.2	16.0	2.0	3.0	2.58239571589327	1.368	n/a	stim	s554
486.815	0.581	-1.3369981534413702	draw_card	1.0	columbia_card_task_fmri	16.0	0.7857142857142857	89.0	-75.0	0.2142857142857142	16.0	3.0	3.0	3.5204398163763457	0.581	3.0	stim	s554
487.402	2.25	n/a	-1.0	n/a	columbia_card_task_fmri	n/a	n/a	-1.0	n/a	n/a	n/a	n/a	n/a	n/a	n/a	n/a	feedback	s554
489.652	0.068	n/a	-1.0	n/a	columbia_card_task_fmri	n/a	n/a	-1.0	n/a	n/a	n/a	n/a	n/a	n/a	n/a	n/a	ITI	s554
489.725	1.737	5.363001846558629	draw_card	0.0	columbia_card_task_fmri	16.0	0.8666666666666667	89.0	-80.0	0.1333333333333333	15.0	1.0	2.0	-1.176484329711677	1.737	n/a	stim	s554
491.466	0.725	4.448716132272916	draw_card	0.0	columbia_card_task_fmri	16.0	0.8571428571428572	89.0	-80.0	0.1428571428571428	15.0	2.0	2.0	-0.2192474741458099	0.725	n/a	stim	s554
492.198	0.559	3.393771077327858	draw_card	0.0	columbia_card_task_fmri	16.0	0.8461538461538461	89.0	-80.0	0.1538461538461538	15.0	3.0	2.0	0.8225742801319527	0.559	n/a	stim	s554
492.762	0.69	2.16300184655863	draw_card	0.0	columbia_card_task_fmri	16.0	0.8333333333333334	89.0	-80.0	0.1666666666666666	15.0	4.0	2.0	1.960599283417117	0.69	n/a	stim	s554
493.457	1.046	0.7084563920131712	draw_card	0.0	columbia_card_task_fmri	16.0	0.8181818181818181	89.0	-80.0	0.1818181818181818	15.0	5.0	2.0	3.207993185303124	1.046	n/a	stim	s554
494.507	1.289	-1.0369981534413713	draw_card	0.0	columbia_card_task_fmri	16.0	0.8	89.0	-80.0	0.2	15.0	6.0	2.0	4.5790569070443965	1.289	n/a	stim	s554
495.804	1.051	-3.170331486774706	draw_card	0.0	columbia_card_task_fmri	16.0	0.7777777777777778	89.0	-80.0	0.2222222222222222	15.0	7.0	2.0	6.087767938820107	1.051	n/a	stim	s554
496.86	1.088	-5.836998153441372	draw_card	0.0	columbia_card_task_fmri	16.0	0.75	89.0	-80.0	0.25	15.0	8.0	2.0	7.743642058466627	1.088	n/a	stim	s554
497.953	0.592	-9.265569582012798	draw_card	0.0	columbia_card_task_fmri	16.0	0.7142857142857143	89.0	-80.0	0.2857142857142857	15.0	9.0	2.0	9.540471974568495	0.592	n/a	stim	s554
498.55	1.061	-13.836998153441368	draw_card	1.0	columbia_card_task_fmri	16.0	0.6666666666666667	89.0	-80.0	0.3333333333333333	15.0	10.0	2.0	11.42468215021588	1.061	10.0	stim	s554
499.617	2.25	n/a	-1.0	n/a	columbia_card_task_fmri	n/a	n/a	-1.0	n/a	n/a	n/a	n/a	n/a	n/a	n/a	n/a	feedback	s554
501.867	0.068	n/a	-1.0	n/a	columbia_card_task_fmri	n/a	n/a	-1.0	n/a	n/a	n/a	n/a	n/a	n/a	n/a	n/a	ITI	s554
501.94	3.718	6.229668513225296	draw_card	0.0	columbia_card_task_fmri	17.0	0.8666666666666667	89.0	-80.0	0.1333333333333333	15.0	1.0	2.0	-0.8372862958943443	3.718	n/a	stim	s554
505.664	0.877	5.305858989415774	draw_card	1.0	columbia_card_task_fmri	17.0	0.8571428571428572	89.0	-80.0	0.1428571428571428	15.0	2.0	2.0	0.1299639349353469	0.877	2.0	stim	s554
506.547	2.25	n/a	-1.0	n/a	columbia_card_task_fmri	n/a	n/a	-1.0	n/a	n/a	n/a	n/a	n/a	n/a	n/a	n/a	feedback	s554
508.797	0.34	n/a	-1.0	n/a	columbia_card_task_fmri	n/a	n/a	-1.0	n/a	n/a	n/a	n/a	n/a	n/a	n/a	n/a	ITI	s554
509.143	3.598	2.163001846558628	end_round	0.0	columbia_card_task_fmri	1.0	0.9375	71.0	-15.0	0.0625	16.0	1.0	1.0	-29.44575960492536	3.598	0.0	stim	s554
512.747	2.25	n/a	-1.0	n/a	columbia_card_task_fmri	n/a	n/a	-1.0	n/a	n/a	n/a	n/a	n/a	n/a	n/a	n/a	feedback	s554
514.997	0.0	n/a	-1.0	n/a	columbia_card_task_fmri	n/a	n/a	-1.0	n/a	n/a	n/a	n/a	n/a	n/a	n/a	n/a	ITI	s554
515.004	2.063	5.288001846558628	draw_card	0.0	columbia_card_task_fmri	10.0	0.9375	89.0	-100.0	0.0625	16.0	1.0	1.0	-7.167342983884804	2.063	n/a	stim	s554
517.072	0.758	4.829668513225295	draw_card	0.0	columbia_card_task_fmri	10.0	0.9333333333333332	89.0	-100.0	0.0666666666666666	16.0	2.0	1.0	-6.35787031721463	0.758	n/a	stim	s554
517.835	0.636	4.305858989415772	draw_card	0.0	columbia_card_task_fmri	10.0	0.9285714285714286	89.0	-100.0	0.0714285714285714	16.0	3.0	1.0	-5.470027577914308	0.636	n/a	stim	s554
518.475	0.582	3.7014633850201673	draw_card	0.0	columbia_card_task_fmri	10.0	0.9230769230769232	89.0	-100.0	0.0769230769230769	16.0	4.0	1.0	-4.490485597319388	0.582	n/a	stim	s554
519.063	1.184	2.996335179891962	draw_card	0.0	columbia_card_task_fmri	10.0	0.9166666666666666	89.0	-100.0	0.0833333333333333	16.0	5.0	1.0	-3.402572808806397	1.184	n/a	stim	s554
520.252	1.29	2.1630018465586263	draw_card	1.0	columbia_card_task_fmri	10.0	0.9090909090909092	89.0	-100.0	0.0909090909090909	16.0	6.0	1.0	-2.1851487420165974	1.29	6.0	stim	s554
521.547	2.25	n/a	-1.0	n/a	columbia_card_task_fmri	n/a	n/a	-1.0	n/a	n/a	n/a	n/a	n/a	n/a	n/a	n/a	feedback	s554
523.797	0.0	n/a	-1.0	n/a	columbia_card_task_fmri	n/a	n/a	-1.0	n/a	n/a	n/a	n/a	n/a	n/a	n/a	n/a	ITI	s554
523.801	1.563	5.913001846558628	draw_card	0.0	columbia_card_task_fmri	15.0	0.875	89.0	-75.0	0.125	16.0	1.0	2.0	-4.038622350900841	1.563	n/a	stim	s554
525.37	0.689	5.163001846558628	draw_card	0.0	columbia_card_task_fmri	15.0	0.8666666666666667	89.0	-75.0	0.1333333333333333	16.0	2.0	2.0	-3.211330011241145	0.689	n/a	stim	s554
526.065	0.587	4.305858989415772	draw_card	0.0	columbia_card_task_fmri	15.0	0.8571428571428572	89.0	-75.0	0.1428571428571428	16.0	3.0	2.0	-2.314183060638065	0.587	n/a	stim	s554
526.657	0.565	3.3168480004047813	draw_card	1.0	columbia_card_task_fmri	15.0	0.8461538461538461	89.0	-75.0	0.1538461538461538	16.0	4.0	2.0	-1.337744515587353	0.565	4.0	stim	s554
527.227	2.25	n/a	-1.0	n/a	columbia_card_task_fmri	n/a	n/a	-1.0	n/a	n/a	n/a	n/a	n/a	n/a	n/a	n/a	feedback	s554
529.477	0.272	n/a	-1.0	n/a	columbia_card_task_fmri	n/a	n/a	-1.0	n/a	n/a	n/a	n/a	n/a	n/a	n/a	n/a	ITI	s554
529.754	1.292	6.163001846558628	draw_card	0.0	columbia_card_task_fmri	16.0	0.875	89.0	-80.0	0.125	16.0	1.0	2.0	-2.059202722446095	1.292	n/a	stim	s554
531.05	0.659	5.363001846558629	draw_card	0.0	columbia_card_task_fmri	16.0	0.8666666666666667	89.0	-80.0	0.1333333333333333	16.0	2.0	2.0	-1.176484329711677	0.659	n/a	stim	s554
531.713	0.644	4.448716132272916	draw_card	1.0	columbia_card_task_fmri	16.0	0.8571428571428572	89.0	-80.0	0.1428571428571428	16.0	3.0	2.0	-0.2192474741458099	0.644	3.0	stim	s554
532.363	2.25	n/a	-1.0	n/a	columbia_card_task_fmri	n/a	n/a	-1.0	n/a	n/a	n/a	n/a	n/a	n/a	n/a	n/a	feedback	s554
534.613	0.204	n/a	-1.0	n/a	columbia_card_task_fmri	n/a	n/a	-1.0	n/a	n/a	n/a	n/a	n/a	n/a	n/a	n/a	ITI	s554
534.822	2.523	3.350501846558628	draw_card	1.0	columbia_card_task_fmri	4.0	0.6875	89.0	-5.0	0.3125	16.0	1.0	5.0	-29.182779796955938	2.523	1.0	stim	s554
537.352	2.25	n/a	-1.0	n/a	columbia_card_task_fmri	n/a	n/a	-1.0	n/a	n/a	n/a	n/a	n/a	n/a	n/a	n/a	feedback	s554
539.602	0.0	n/a	-1.0	n/a	columbia_card_task_fmri	n/a	n/a	-1.0	n/a	n/a	n/a	n/a	n/a	n/a	n/a	n/a	ITI	s554
539.606	1.569	0.4963351798919637	draw_card	0.0	columbia_card_task_fmri	14.0	0.8333333333333334	89.0	-80.0	0.1666666666666666	6.0	1.0	1.0	1.2166305799503547	1.569	n/a	stim	s554
541.179	1.076	-2.636998153441371	draw_card	0.0	columbia_card_task_fmri	14.0	0.8	89.0	-80.0	0.2	6.0	2.0	1.0	3.7803499133871767	1.076	n/a	stim	s554
542.26	1.524	-7.336998153441372	draw_card	0.0	columbia_card_task_fmri	14.0	0.75	89.0	-80.0	0.25	6.0	3.0	1.0	6.878811507490418	1.524	n/a	stim	s554
543.79	0.84	-15.1703314867747	end_round	0.0	columbia_card_task_fmri	14.0	0.6666666666666667	71.0	-80.0	0.3333333333333333	6.0	4.0	1.0	10.482971005945416	0.84	3.0	stim	s554
544.636	2.25	n/a	-1.0	n/a	columbia_card_task_fmri	n/a	n/a	-1.0	n/a	n/a	n/a	n/a	n/a	n/a	n/a	n/a	feedback	s554
546.886	0.204	n/a	-1.0	n/a	columbia_card_task_fmri	n/a	n/a	-1.0	n/a	n/a	n/a	n/a	n/a	n/a	n/a	n/a	ITI	s554
547.095	1.536	2.163001846558628	draw_card	0.0	columbia_card_task_fmri	15.0	0.8333333333333334	89.0	-75.0	0.1666666666666666	6.0	1.0	1.0	-0.2711224098171314	1.536	n/a	stim	s554
548.635	1.137	-0.836998153441372	draw_card	0.0	columbia_card_task_fmri	15.0	0.8	89.0	-75.0	0.2	6.0	2.0	1.0	2.183107877912392	1.137	n/a	stim	s554
549.776	1.152	-5.336998153441372	end_round	0.0	columbia_card_task_fmri	15.0	0.75	71.0	-75.0	0.25	6.0	3.0	1.0	5.1493093650150215	1.152	2.0	stim	s554
550.933	2.25	n/a	-1.0	n/a	columbia_card_task_fmri	n/a	n/a	-1.0	n/a	n/a	n/a	n/a	n/a	n/a	n/a	n/a	feedback	s554
553.183	0.204	n/a	-1.0	n/a	columbia_card_task_fmri	n/a	n/a	-1.0	n/a	n/a	n/a	n/a	n/a	n/a	n/a	n/a	ITI	s554
553.392	1.52	3.829668513225296	draw_card	0.0	columbia_card_task_fmri	16.0	0.8333333333333334	89.0	-70.0	0.1666666666666666	6.0	1.0	1.0	-1.7586010403118593	1.52	n/a	stim	s554
554.918	1.233	0.9630018465586287	draw_card	0.0	columbia_card_task_fmri	16.0	0.8	89.0	-70.0	0.2	6.0	2.0	1.0	0.5861216718834683	1.233	n/a	stim	s554
556.155	0.79	-3.336998153441372	draw_card	0.0	columbia_card_task_fmri	16.0	0.75	89.0	-70.0	0.25	6.0	3.0	1.0	3.4200437353494597	0.79	n/a	stim	s554
556.951	1.348	-10.503664820108035	end_round	0.0	columbia_card_task_fmri	16.0	0.6666666666666667	71.0	-70.0	0.3333333333333333	6.0	4.0	1.0	6.716636059807129	1.348	3.0	stim	s554
558.305	2.25	n/a	-1.0	n/a	columbia_card_task_fmri	n/a	n/a	-1.0	n/a	n/a	n/a	n/a	n/a	n/a	n/a	n/a	feedback	s554
560.555	0.272	n/a	-1.0	n/a	columbia_card_task_fmri	n/a	n/a	-1.0	n/a	n/a	n/a	n/a	n/a	n/a	n/a	n/a	ITI	s554
560.832	1.459	4.413001846558628	draw_card	1.0	columbia_card_task_fmri	23.0	0.75	89.0	-60.0	0.25	8.0	1.0	2.0	2.12327022484574	1.459	1.0	stim	s554
562.297	2.25	n/a	-1.0	n/a	columbia_card_task_fmri	n/a	n/a	-1.0	n/a	n/a	n/a	n/a	n/a	n/a	n/a	n/a	feedback	s554
564.547	0.204	n/a	-1.0	n/a	columbia_card_task_fmri	n/a	n/a	-1.0	n/a	n/a	n/a	n/a	n/a	n/a	n/a	n/a	ITI	s554
564.757	2.221	4.913001846558628	draw_card	0.0	columbia_card_task_fmri	27.0	0.75	89.0	-70.0	0.25	8.0	1.0	2.0	8.17607577388275	2.221	n/a	stim	s554
566.983	0.636	1.4487161322729127	draw_card	1.0	columbia_card_task_fmri	27.0	0.7142857142857143	89.0	-70.0	0.2857142857142857	8.0	2.0	2.0	9.99167086868561	0.636	2.0	stim	s554
567.625	2.25	n/a	-1.0	n/a	columbia_card_task_fmri	n/a	n/a	-1.0	n/a	n/a	n/a	n/a	n/a	n/a	n/a	n/a	feedback	s554
569.875	0.408	n/a	-1.0	n/a	columbia_card_task_fmri	n/a	n/a	-1.0	n/a	n/a	n/a	n/a	n/a	n/a	n/a	n/a	ITI	s554
570.288	1.337	0.1630018465586298	draw_card	0.0	columbia_card_task_fmri	16.0	0.7777777777777778	89.0	-65.0	0.2222222222222222	9.0	1.0	2.0	-0.1375020464452205	1.337	n/a	stim	s554
571.63	0.921	-2.086998153441372	draw_card	1.0	columbia_card_task_fmri	16.0	0.75	89.0	-65.0	0.25	9.0	2.0	2.0	1.2588474867296782	0.921	2.0	stim	s554
572.558	2.25	n/a	-1.0	n/a	columbia_card_task_fmri	n/a	n/a	-1.0	n/a	n/a	n/a	n/a	n/a	n/a	n/a	n/a	feedback	s554
574.808	0.136	n/a	-1.0	n/a	columbia_card_task_fmri	n/a	n/a	-1.0	n/a	n/a	n/a	n/a	n/a	n/a	n/a	n/a	ITI	s554
574.949	1.559	5.363001846558629	draw_card	0.0	columbia_card_task_fmri	13.0	0.9	89.0	-85.0	0.1	10.0	1.0	1.0	-4.40235356272219	1.559	n/a	stim	s554
576.513	0.526	4.274112957669739	draw_card	0.0	columbia_card_task_fmri	13.0	0.8888888888888888	89.0	-85.0	0.1111111111111111	10.0	2.0	1.0	-3.007523756253086	0.526	n/a	stim	s554
577.044	0.881	2.913001846558628	draw_card	0.0	columbia_card_task_fmri	13.0	0.875	89.0	-85.0	0.125	10.0	3.0	1.0	-1.3992634726553916	0.881	n/a	stim	s554
577.929	1.035	1.1630018465586298	draw_card	0.0	columbia_card_task_fmri	13.0	0.8571428571428572	89.0	-85.0	0.1428571428571428	10.0	4.0	1.0	0.4791899062065212	1.035	n/a	stim	s554
578.97	1.01	-1.170331486774704	end_round	0.0	columbia_card_task_fmri	13.0	0.8333333333333334	71.0	-85.0	0.1666666666666666	10.0	5.0	1.0	2.7046244593230924	1.01	4.0	stim	s554
579.986	2.25	n/a	-1.0	n/a	columbia_card_task_fmri	n/a	n/a	-1.0	n/a	n/a	n/a	n/a	n/a	n/a	n/a	n/a	feedback	s554
582.236	0.272	n/a	-1.0	n/a	columbia_card_task_fmri	n/a	n/a	-1.0	n/a	n/a	n/a	n/a	n/a	n/a	n/a	n/a	ITI	s554
582.514	1.895	0.3630018465586291	draw_card	0.0	columbia_card_task_fmri	14.0	0.8	89.0	-65.0	0.2	10.0	1.0	2.0	-2.2078722107560225	1.895	n/a	stim	s554
584.414	1.166	-1.3925537089969255	draw_card	1.0	columbia_card_task_fmri	14.0	0.7777777777777778	89.0	-65.0	0.2222222222222222	10.0	2.0	2.0	-0.967228373825428	1.166	2.0	stim	s554
585.586	2.25	n/a	-1.0	n/a	columbia_card_task_fmri	n/a	n/a	-1.0	n/a	n/a	n/a	n/a	n/a	n/a	n/a	n/a	feedback	s554
587.836	0.34	n/a	-1.0	n/a	columbia_card_task_fmri	n/a	n/a	-1.0	n/a	n/a	n/a	n/a	n/a	n/a	n/a	n/a	ITI	s554
588.182	1.321	1.7630018465586297	draw_card	0.0	columbia_card_task_fmri	17.0	0.8	89.0	-70.0	0.2	10.0	1.0	2.0	0.985342316880704	1.321	n/a	stim	s554
589.509	1.032	-0.1703314867747041	draw_card	0.0	columbia_card_task_fmri	17.0	0.7777777777777778	89.0	-70.0	0.2222222222222222	10.0	2.0	2.0	2.352159179095594	1.032	n/a	stim	s554
590.546	1.026	-2.586998153441372	draw_card	0.0	columbia_card_task_fmri	17.0	0.75	89.0	-70.0	0.25	10.0	3.0	2.0	3.852336191370874	1.026	n/a	stim	s554
591.577	3.03	-5.69414101058423	draw_card	0.0	columbia_card_task_fmri	17.0	0.7142857142857143	89.0	-70.0	0.2857142857142857	10.0	4.0	2.0	5.480254909115956	3.03	n/a	stim	s554
594.612	0.763	-9.836998153441373	end_round	0.0	columbia_card_task_fmri	17.0	0.6666666666666667	71.0	-70.0	0.3333333333333333	10.0	5.0	2.0	7.187378734624311	0.763	4.0	stim	s554
595.381	2.25	n/a	-1.0	n/a	columbia_card_task_fmri	n/a	n/a	-1.0	n/a	n/a	n/a	n/a	n/a	n/a	n/a	n/a	feedback	s554
597.631	0.136	n/a	-1.0	n/a	columbia_card_task_fmri	n/a	n/a	-1.0	n/a	n/a	n/a	n/a	n/a	n/a	n/a	n/a	ITI	s554
597.772	1.574	0.4963351798919619	draw_card	0.0	columbia_card_task_fmri	13.0	0.8333333333333334	89.0	-75.0	0.1666666666666666	12.0	1.0	2.0	-1.0148983482938905	1.574	n/a	stim	s554
599.351	1.011	-0.8369981534413737	draw_card	1.0	columbia_card_task_fmri	13.0	0.8181818181818181	89.0	-75.0	0.1818181818181818	12.0	2.0	2.0	0.1281637905706816	1.011	2.0	stim	s554
600.369	2.25	n/a	-1.0	n/a	columbia_card_task_fmri	n/a	n/a	-1.0	n/a	n/a	n/a	n/a	n/a	n/a	n/a	n/a	feedback	s554
602.619	0.34	n/a	-1.0	n/a	columbia_card_task_fmri	n/a	n/a	-1.0	n/a	n/a	n/a	n/a	n/a	n/a	n/a	n/a	ITI	s554
602.963	1.65	2.16300184655863	draw_card	1.0	columbia_card_task_fmri	14.0	0.8333333333333334	89.0	-70.0	0.1666666666666666	12.0	1.0	2.0	-2.5022252780022605	1.65	1.0	stim	s554
604.62	2.25	n/a	-1.0	n/a	columbia_card_task_fmri	n/a	n/a	-1.0	n/a	n/a	n/a	n/a	n/a	n/a	n/a	n/a	feedback	s554
606.87	0.068	n/a	-1.0	n/a	columbia_card_task_fmri	n/a	n/a	-1.0	n/a	n/a	n/a	n/a	n/a	n/a	n/a	n/a	ITI	s554
606.943	2.245	2.16300184655863	draw_card	1.0	columbia_card_task_fmri	16.0	0.8333333333333334	89.0	-80.0	0.1666666666666666	12.0	1.0	2.0	1.960599283417117	2.245	1.0	stim	s554
609.195	2.25	n/a	-1.0	n/a	columbia_card_task_fmri	n/a	n/a	-1.0	n/a	n/a	n/a	n/a	n/a	n/a	n/a	n/a	feedback	s554
611.445	0.0	n/a	-1.0	n/a	columbia_card_task_fmri	n/a	n/a	-1.0	n/a	n/a	n/a	n/a	n/a	n/a	n/a	n/a	ITI	s554
611.451	2.724	1.9630018465586287	draw_card	0.0	columbia_card_task_fmri	16.0	0.8	89.0	-65.0	0.2	15.0	1.0	3.0	-1.4096938234898886	2.724	n/a	stim	s554
614.18	1.686	0.8058589894157722	draw_card	0.0	columbia_card_task_fmri	16.0	0.7857142857142857	89.0	-65.0	0.2142857142857142	15.0	2.0	3.0	-0.5751066826214668	1.686	n/a	stim	s554
615.871	0.388	-0.5293058457490654	draw_card	1.0	columbia_card_task_fmri	16.0	0.7692307692307692	89.0	-65.0	0.2307692307692307	15.0	3.0	3.0	0.3139919649934555	0.388	3.0	stim	s554
616.266	2.25	n/a	-1.0	n/a	columbia_card_task_fmri	n/a	n/a	-1.0	n/a	n/a	n/a	n/a	n/a	n/a	n/a	n/a	feedback	s554
618.516	0.204	n/a	-1.0	n/a	columbia_card_task_fmri	n/a	n/a	-1.0	n/a	n/a	n/a	n/a	n/a	n/a	n/a	n/a	ITI	s554
618.726	0.353	0.288001846558628	draw_card	0.0	columbia_card_task_fmri	15.0	0.8125	89.0	-75.0	0.1875	16.0	1.0	3.0	1.3128299780897947	0.353	n/a	stim	s554
619.084	1.6	-0.836998153441372	draw_card	0.0	columbia_card_task_fmri	15.0	0.8	89.0	-75.0	0.2	16.0	2.0	3.0	2.183107877912392	1.6	n/a	stim	s554
620.69	2.164	-2.1227124391556567	draw_card	0.0	columbia_card_task_fmri	15.0	0.7857142857142857	89.0	-75.0	0.2142857142857142	16.0	3.0	3.0	3.1108082455268686	2.164	n/a	stim	s554
622.86	1.506	-3.6062289226721456	draw_card	0.0	columbia_card_task_fmri	15.0	0.7692307692307692	89.0	-75.0	0.2307692307692307	16.0	4.0	3.0	4.099081371746756	1.506	n/a	stim	s554
624.372	1.712	-5.336998153441372	draw_card	0.0	columbia_card_task_fmri	15.0	0.75	89.0	-75.0	0.25	16.0	5.0	3.0	5.1493093650150215	1.712	n/a	stim	s554
626.089	1.171	-7.382452698895915	end_round	0.0	columbia_card_task_fmri	15.0	0.7272727272727273	71.0	-75.0	0.2727272727272727	16.0	6.0	3.0	6.259064936380867	1.171	5.0	stim	s554
627.267	2.25	n/a	-1.0	n/a	columbia_card_task_fmri	n/a	n/a	-1.0	n/a	n/a	n/a	n/a	n/a	n/a	n/a	n/a	feedback	s554
629.517	1.02	n/a	-1.0	n/a	columbia_card_task_fmri	n/a	n/a	-1.0	n/a	n/a	n/a	n/a	n/a	n/a	n/a	n/a	ITI	s554
630.543	3.76	0.850501846558628	draw_card	0.0	columbia_card_task_fmri	14.0	0.6875	89.0	-35.0	0.3125	16.0	1.0	5.0	-11.066941021886532	3.76	n/a	stim	s554
634.31	1.321	-0.1703314867747041	draw_card	0.0	columbia_card_task_fmri	14.0	0.6666666666666667	89.0	-35.0	0.3333333333333333	16.0	2.0	5.0	-10.681940272917974	1.321	n/a	stim	s554
635.636	1.601	-1.336998153441372	draw_card	1.0	columbia_card_task_fmri	14.0	0.6428571428571428	89.0	-35.0	0.3571428571428571	16.0	3.0	5.0	-10.303676127511068	1.601	3.0	stim	s554
637.244	2.25	n/a	-1.0	n/a	columbia_card_task_fmri	n/a	n/a	-1.0	n/a	n/a	n/a	n/a	n/a	n/a	n/a	n/a	feedback	s554
639.494	0.0	n/a	-1.0	n/a	columbia_card_task_fmri	n/a	n/a	-1.0	n/a	n/a	n/a	n/a	n/a	n/a	n/a	n/a	ITI	s554
639.501	2.991	6.029668513225295	draw_card	0.0	columbia_card_task_fmri	16.0	0.8666666666666667	89.0	-75.0	0.1333333333333333	15.0	1.0	2.0	-2.87223251647826	2.991	n/a	stim	s554
642.498	0.647	5.16300184655863	draw_card	1.0	columbia_card_task_fmri	16.0	0.8571428571428572	89.0	-75.0	0.1428571428571428	15.0	2.0	2.0	-1.9650693577840637	0.647	2.0	stim	s554
643.153	2.25	n/a	-1.0	n/a	columbia_card_task_fmri	n/a	n/a	-1.0	n/a	n/a	n/a	n/a	n/a	n/a	n/a	n/a	feedback	s554
645.403	0.0	n/a	-1.0	n/a	columbia_card_task_fmri	n/a	n/a	-1.0	n/a	n/a	n/a	n/a	n/a	n/a	n/a	n/a	ITI	s554
645.408	1.491	6.696335179891961	draw_card	1.0	columbia_card_task_fmri	16.0	0.8666666666666667	89.0	-70.0	0.1333333333333333	15.0	1.0	2.0	-4.56752607581447	1.491	1.0	stim	s554
646.907	2.25	n/a	-1.0	n/a	columbia_card_task_fmri	n/a	n/a	-1.0	n/a	n/a	n/a	n/a	n/a	n/a	n/a	n/a	feedback	s554
649.157	0.068	n/a	-1.0	n/a	columbia_card_task_fmri	n/a	n/a	-1.0	n/a	n/a	n/a	n/a	n/a	n/a	n/a	n/a	ITI	s554
649.232	1.632	4.038001846558628	draw_card	0.0	columbia_card_task_fmri	8.0	0.9375	89.0	-90.0	0.0625	16.0	1.0	1.0	-10.061382420746106	1.632	n/a	stim	s554
650.87	1.057	3.629668513225295	draw_card	0.0	columbia_card_task_fmri	8.0	0.9333333333333332	89.0	-90.0	0.0666666666666666	16.0	2.0	1.0	-9.340811410347944	1.057	n/a	stim	s554
651.933	1.602	3.163001846558629	draw_card	0.0	columbia_card_task_fmri	8.0	0.9285714285714286	89.0	-90.0	0.0714285714285714	16.0	3.0	1.0	-8.550438471427597	1.602	n/a	stim	s554
653.541	0.73	2.6245403080970897	end_round	0.0	columbia_card_task_fmri	8.0	0.9230769230769232	71.0	-90.0	0.0769230769230769	16.0	4.0	1.0	-7.678390275455968	0.73	3.0	stim	s554
654.279	2.25	n/a	-1.0	n/a	columbia_card_task_fmri	n/a	n/a	-1.0	n/a	n/a	n/a	n/a	n/a	n/a	n/a	n/a	feedback	s554
656.529	0.476	n/a	-1.0	n/a	columbia_card_task_fmri	n/a	n/a	-1.0	n/a	n/a	n/a	n/a	n/a	n/a	n/a	n/a	ITI	s554
657.011	1.901	5.600501846558628	draw_card	0.0	columbia_card_task_fmri	10.0	0.9375	89.0	-95.0	0.0625	16.0	1.0	1.0	-8.373488300658376	1.901	n/a	stim	s554
658.918	2.358	5.163001846558629	draw_card	0.0	columbia_card_task_fmri	10.0	0.9333333333333332	89.0	-95.0	0.0666666666666666	16.0	2.0	1.0	-7.601049427528707	2.358	n/a	stim	s554
661.283	0.978	4.663001846558629	draw_card	0.0	columbia_card_task_fmri	10.0	0.9285714285714286	89.0	-95.0	0.0714285714285714	16.0	3.0	1.0	-6.753810261782487	0.978	n/a	stim	s554
662.267	1.094	4.086078769635551	draw_card	0.0	columbia_card_task_fmri	10.0	0.9230769230769232	89.0	-95.0	0.0769230769230769	16.0	4.0	1.0	-5.81904820890346	1.094	n/a	stim	s554
663.367	0.884	3.413001846558628	draw_card	0.0	columbia_card_task_fmri	10.0	0.9166666666666666	89.0	-95.0	0.0833333333333333	16.0	5.0	1.0	-4.780850312591955	0.884	n/a	stim	s554
664.258	0.88	2.6175473011040813	draw_card	0.0	columbia_card_task_fmri	10.0	0.9090909090909092	89.0	-95.0	0.0909090909090909	16.0	6.0	1.0	-3.6190379748180384	0.88	n/a	stim	s554
665.144	1.055	1.663001846558628	draw_card	0.0	columbia_card_task_fmri	10.0	0.9	89.0	-95.0	0.1	16.0	7.0	1.0	-2.307638026077008	1.055	n/a	stim	s554
666.206	1.186	0.4963351798919619	draw_card	0.0	columbia_card_task_fmri	10.0	0.8888888888888888	89.0	-95.0	0.1111111111111111	16.0	8.0	1.0	-0.8126822021588254	1.186	n/a	stim	s554
667.398	1.313	-0.961998153441372	draw_card	0.0	columbia_card_task_fmri	10.0	0.875	89.0	-95.0	0.125	16.0	9.0	1.0	0.9109720999782382	1.313	n/a	stim	s554
668.716	1.647	-2.83699815344137	draw_card	0.0	columbia_card_task_fmri	10.0	0.8571428571428572	89.0	-95.0	0.1428571428571428	16.0	10.0	1.0	2.924144625316522	1.647	n/a	stim	s554
670.368	1.564	-5.33699815344137	draw_card	0.0	columbia_card_task_fmri	10.0	0.8333333333333334	89.0	-95.0	0.1666666666666666	16.0	11.0	1.0	5.309110857585864	1.564	n/a	stim	s554
671.939	2.236	-8.836998153441371	draw_card	0.0	columbia_card_task_fmri	10.0	0.8	89.0	-95.0	0.2	16.0	12.0	1.0	8.17384664433257	2.236	n/a	stim	s554
674.182	0.862	-14.086998153441373	end_round	0.0	columbia_card_task_fmri	10.0	0.75	71.0	-95.0	0.25	16.0	13.0	1.0	11.635941804587922	0.862	12.0	stim	s554
675.052	2.25	n/a	-1.0	n/a	columbia_card_task_fmri	n/a	n/a	-1.0	n/a	n/a	n/a	n/a	n/a	n/a	n/a	n/a	feedback	s554
677.302	0.136	n/a	-1.0	n/a	columbia_card_task_fmri	n/a	n/a	-1.0	n/a	n/a	n/a	n/a	n/a	n/a	n/a	n/a	ITI	s554
677.446	5.358	6.538001846558628	draw_card	0.0	columbia_card_task_fmri	15.0	0.875	89.0	-70.0	0.125	16.0	1.0	2.0	-5.687613138702549	5.358	n/a	stim	s554
682.811	1.196	5.829668513225294	draw_card	0.0	columbia_card_task_fmri	15.0	0.8666666666666667	89.0	-70.0	0.1333333333333333	16.0	2.0	2.0	-4.906523209756312	1.196	n/a	stim	s554
684.014	1.464	5.020144703701486	draw_card	0.0	columbia_card_task_fmri	15.0	0.8571428571428572	89.0	-70.0	0.1428571428571428	16.0	3.0	2.0	-4.0594655789194185	1.464	n/a	stim	s554
685.484	1.456	4.08607876963555	draw_card	0.0	columbia_card_task_fmri	15.0	0.8461538461538461	89.0	-70.0	0.1538461538461538	16.0	4.0	2.0	-3.1375278233758763	1.456	n/a	stim	s554
686.947	1.331	2.996335179891962	draw_card	0.0	columbia_card_task_fmri	15.0	0.8333333333333334	89.0	-70.0	0.1666666666666666	16.0	5.0	2.0	-2.1304233104772905	1.331	n/a	stim	s554
688.283	1.526	1.7084563920131712	draw_card	1.0	columbia_card_task_fmri	15.0	0.8181818181818181	89.0	-70.0	0.1818181818181818	16.0	6.0	2.0	-1.026495141003096	1.526	6.0	stim	s554
689.818	2.25	n/a	-1.0	n/a	columbia_card_task_fmri	n/a	n/a	-1.0	n/a	n/a	n/a	n/a	n/a	n/a	n/a	n/a	feedback	s554
692.068	0.068	n/a	-1.0	n/a	columbia_card_task_fmri	n/a	n/a	-1.0	n/a	n/a	n/a	n/a	n/a	n/a	n/a	n/a	ITI	s554
