onset	duration	EV	action	clicked_on_loss_card	experiment_exp_id	gain_amount	gain_probability	key_press	loss_amount	loss_probability	num_cards	num_click_in_round	num_loss_cards	risk	response_time	total_cards	trial_id	worker_id
3.011	1.665	-0.3295457049525097	draw_card	0.0	columbia_card_task_fmri	12.0	0.8333333333333334	89.0	-70.0	0.1666666666666666	6.0	1.0	1.0	-1.143285726724805	1.665	n/a	stim	s614
4.68	2.549	-3.062879038285842	draw_card	0.0	columbia_card_task_fmri	12.0	0.8	89.0	-70.0	0.2	6.0	2.0	1.0	1.0951231582470309	2.549	n/a	stim	s614
7.23	1.597	-7.162879038285844	draw_card	0.0	columbia_card_task_fmri	12.0	0.75	89.0	-70.0	0.25	6.0	3.0	1.0	3.8000892395786856	1.597	n/a	stim	s614
8.829	1.682	-13.996212371619176	end_round	0.0	columbia_card_task_fmri	12.0	0.6666666666666667	71.0	-70.0	0.3333333333333333	6.0	4.0	1.0	6.946169979704383	1.682	3.0	stim	s614
10.517	2.25	n/a	-1.0	n/a	columbia_card_task_fmri	n/a	n/a	-1.0	n/a	n/a	n/a	n/a	n/a	n/a	n/a	n/a	feedback	s614
12.767	0.204	n/a	-1.0	n/a	columbia_card_task_fmri	n/a	n/a	-1.0	n/a	n/a	n/a	n/a	n/a	n/a	n/a	n/a	ITI	s614
12.974	1.587	0.5037876283808242	draw_card	0.0	columbia_card_task_fmri	14.0	0.8333333333333334	89.0	-75.0	0.1666666666666666	6.0	1.0	1.0	1.4631625303491766	1.587	n/a	stim	s614
14.563	0.735	-2.4628790382858425	draw_card	0.0	columbia_card_task_fmri	14.0	0.8	89.0	-75.0	0.2	6.0	2.0	1.0	3.8929820131558337	0.735	n/a	stim	s614
15.3	0.927	-6.912879038285844	draw_card	0.0	columbia_card_task_fmri	14.0	0.75	89.0	-75.0	0.25	6.0	3.0	1.0	6.829199914243805	0.927	n/a	stim	s614
16.229	1.929	-14.32954570495251	draw_card	1.0	columbia_card_task_fmri	14.0	0.6666666666666667	89.0	-75.0	0.3333333333333333	6.0	4.0	1.0	10.244184218510757	1.929	4.0	stim	s614
18.163	2.25	n/a	-1.0	n/a	columbia_card_task_fmri	n/a	n/a	-1.0	n/a	n/a	n/a	n/a	n/a	n/a	n/a	n/a	feedback	s614
20.413	0.204	n/a	-1.0	n/a	columbia_card_task_fmri	n/a	n/a	-1.0	n/a	n/a	n/a	n/a	n/a	n/a	n/a	n/a	ITI	s614
20.619	1.455	2.1704542950474903	draw_card	0.0	columbia_card_task_fmri	15.0	0.8333333333333334	89.0	-70.0	0.1666666666666666	6.0	1.0	1.0	-0.0262827525466065	1.455	n/a	stim	s614
22.076	0.304	-0.6628790382858436	draw_card	0.0	columbia_card_task_fmri	15.0	0.8	89.0	-70.0	0.2	6.0	2.0	1.0	2.29416239175875	0.304	n/a	stim	s614
22.382	0.262	-4.912879038285844	draw_card	1.0	columbia_card_task_fmri	15.0	0.75	89.0	-70.0	0.25	6.0	3.0	1.0	5.098239670806446	0.262	3.0	stim	s614
22.646	2.25	n/a	-1.0	n/a	columbia_card_task_fmri	n/a	n/a	-1.0	n/a	n/a	n/a	n/a	n/a	n/a	n/a	n/a	feedback	s614
24.896	0.272	n/a	-1.0	n/a	columbia_card_task_fmri	n/a	n/a	-1.0	n/a	n/a	n/a	n/a	n/a	n/a	n/a	n/a	ITI	s614
25.171	0.761	3.003787628380824	draw_card	0.0	columbia_card_task_fmri	17.0	0.8333333333333334	89.0	-75.0	0.1666666666666666	6.0	1.0	1.0	2.5803186916341225	0.761	n/a	stim	s614
25.934	0.723	-0.0628790382858421	draw_card	0.0	columbia_card_task_fmri	17.0	0.8	89.0	-75.0	0.2	6.0	2.0	1.0	5.092164018576636	0.723	n/a	stim	s614
26.659	1.315	-4.662879038285844	end_round	0.0	columbia_card_task_fmri	17.0	0.75	71.0	-75.0	0.25	6.0	3.0	1.0	8.127482275542395	1.315	2.0	stim	s614
27.979	2.25	n/a	-1.0	n/a	columbia_card_task_fmri	n/a	n/a	-1.0	n/a	n/a	n/a	n/a	n/a	n/a	n/a	n/a	feedback	s614
30.229	0.136	n/a	-1.0	n/a	columbia_card_task_fmri	n/a	n/a	-1.0	n/a	n/a	n/a	n/a	n/a	n/a	n/a	n/a	ITI	s614
30.367	2.261	4.337120961714156	draw_card	0.0	columbia_card_task_fmri	24.0	0.75	89.0	-60.0	0.25	8.0	1.0	2.0	4.665515822523478	2.261	n/a	stim	s614
32.63	1.066	1.3371209617141564	draw_card	0.0	columbia_card_task_fmri	24.0	0.7142857142857143	89.0	-60.0	0.2857142857142857	8.0	2.0	2.0	6.238762179801785	1.066	n/a	stim	s614
33.699	2.401	-2.662879038285844	draw_card	0.0	columbia_card_task_fmri	24.0	0.6666666666666667	89.0	-60.0	0.3333333333333333	8.0	3.0	2.0	7.88842888006776	2.401	n/a	stim	s614
36.102	2.034	-8.262879038285845	end_round	0.0	columbia_card_task_fmri	24.0	0.6	71.0	-60.0	0.4	8.0	4.0	2.0	9.441025296426094	2.034	3.0	stim	s614
38.142	2.25	n/a	-1.0	n/a	columbia_card_task_fmri	n/a	n/a	-1.0	n/a	n/a	n/a	n/a	n/a	n/a	n/a	n/a	feedback	s614
40.392	0.204	n/a	-1.0	n/a	columbia_card_task_fmri	n/a	n/a	-1.0	n/a	n/a	n/a	n/a	n/a	n/a	n/a	n/a	ITI	s614
40.598	2.139	4.337120961714156	draw_card	0.0	columbia_card_task_fmri	29.0	0.75	89.0	-75.0	0.25	8.0	1.0	2.0	13.32104741037762	2.139	n/a	stim	s614
42.739	0.556	0.6228352474284446	draw_card	0.0	columbia_card_task_fmri	29.0	0.7142857142857143	89.0	-75.0	0.2857142857142857	8.0	2.0	2.0	15.26931436680096	0.556	n/a	stim	s614
43.297	3.075	-4.329545704952508	draw_card	0.0	columbia_card_task_fmri	29.0	0.6666666666666667	89.0	-75.0	0.3333333333333333	8.0	3.0	2.0	17.312180885760693	3.075	n/a	stim	s614
46.374	2.37	-11.262879038285844	draw_card	1.0	columbia_card_task_fmri	29.0	0.6	89.0	-75.0	0.4	8.0	4.0	2.0	19.23480941379186	2.37	4.0	stim	s614
48.747	2.25	n/a	-1.0	n/a	columbia_card_task_fmri	n/a	n/a	-1.0	n/a	n/a	n/a	n/a	n/a	n/a	n/a	n/a	feedback	s614
50.997	0.272	n/a	-1.0	n/a	columbia_card_task_fmri	n/a	n/a	-1.0	n/a	n/a	n/a	n/a	n/a	n/a	n/a	n/a	ITI	s614
51.272	1.172	0.1148987394919367	draw_card	1.0	columbia_card_task_fmri	17.0	0.7777777777777778	89.0	-65.0	0.2222222222222222	9.0	1.0	2.0	2.38474874424995	1.172	1.0	stim	s614
52.448	2.25	n/a	-1.0	n/a	columbia_card_task_fmri	n/a	n/a	-1.0	n/a	n/a	n/a	n/a	n/a	n/a	n/a	n/a	feedback	s614
54.698	0.272	n/a	-1.0	n/a	columbia_card_task_fmri	n/a	n/a	-1.0	n/a	n/a	n/a	n/a	n/a	n/a	n/a	n/a	ITI	s614
54.971	1.263	4.437120961714156	draw_card	0.0	columbia_card_task_fmri	14.0	0.9	89.0	-95.0	0.1	10.0	1.0	1.0	0.995206401157848	1.263	n/a	stim	s614
56.235	1.234	3.226009850603044	draw_card	0.0	columbia_card_task_fmri	14.0	0.8888888888888888	89.0	-95.0	0.1111111111111111	10.0	2.0	1.0	2.549361767510785	1.234	n/a	stim	s614
57.471	0.716	1.7121209617141564	draw_card	0.0	columbia_card_task_fmri	14.0	0.875	89.0	-95.0	0.125	10.0	3.0	1.0	4.341031629156337	0.716	n/a	stim	s614
58.189	1.633	-0.2343076097144147	draw_card	1.0	columbia_card_task_fmri	14.0	0.8571428571428572	89.0	-95.0	0.1428571428571428	10.0	4.0	1.0	6.4333646693758375	1.633	4.0	stim	s614
59.828	2.25	n/a	-1.0	n/a	columbia_card_task_fmri	n/a	n/a	-1.0	n/a	n/a	n/a	n/a	n/a	n/a	n/a	n/a	feedback	s614
62.078	0.34	n/a	-1.0	n/a	columbia_card_task_fmri	n/a	n/a	-1.0	n/a	n/a	n/a	n/a	n/a	n/a	n/a	n/a	ITI	s614
62.421	1.558	0.3371209617141564	draw_card	0.0	columbia_card_task_fmri	15.0	0.8	89.0	-65.0	0.2	10.0	1.0	2.0	0.2958036502876489	1.558	n/a	stim	s614
63.981	1.466	-1.4406568160636204	draw_card	0.0	columbia_card_task_fmri	15.0	0.7777777777777778	89.0	-65.0	0.2222222222222222	10.0	2.0	2.0	1.553924115957809	1.466	n/a	stim	s614
65.449	1.727	-3.662879038285844	draw_card	0.0	columbia_card_task_fmri	15.0	0.75	89.0	-65.0	0.25	10.0	3.0	2.0	2.934692565065138	1.727	n/a	stim	s614
67.178	1.204	-6.520021895428698	end_round	0.0	columbia_card_task_fmri	15.0	0.7142857142857143	71.0	-65.0	0.2857142857142857	10.0	4.0	2.0	4.432923100240149	1.204	3.0	stim	s614
68.388	2.25	n/a	-1.0	n/a	columbia_card_task_fmri	n/a	n/a	-1.0	n/a	n/a	n/a	n/a	n/a	n/a	n/a	n/a	feedback	s614
70.638	0.204	n/a	-1.0	n/a	columbia_card_task_fmri	n/a	n/a	-1.0	n/a	n/a	n/a	n/a	n/a	n/a	n/a	n/a	ITI	s614
70.844	2.873	1.9371209617141576	draw_card	0.0	columbia_card_task_fmri	17.0	0.8	89.0	-65.0	0.2	10.0	1.0	2.0	1.0951231582470309	2.873	n/a	stim	s614
73.72	0.946	0.1148987394919367	draw_card	0.0	columbia_card_task_fmri	17.0	0.7777777777777778	89.0	-65.0	0.2222222222222222	10.0	2.0	2.0	2.38474874424995	0.946	n/a	stim	s614
74.668	1.173	-2.162879038285844	draw_card	0.0	columbia_card_task_fmri	17.0	0.75	89.0	-65.0	0.25	10.0	3.0	2.0	3.8000892395786856	1.173	n/a	stim	s614
75.843	1.425	-5.091450466857271	draw_card	1.0	columbia_card_task_fmri	17.0	0.7142857142857143	89.0	-65.0	0.2857142857142857	10.0	4.0	2.0	5.335828303712408	1.425	4.0	stim	s614
77.271	2.25	n/a	-1.0	n/a	columbia_card_task_fmri	n/a	n/a	-1.0	n/a	n/a	n/a	n/a	n/a	n/a	n/a	n/a	feedback	s614
79.521	0.068	n/a	-1.0	n/a	columbia_card_task_fmri	n/a	n/a	-1.0	n/a	n/a	n/a	n/a	n/a	n/a	n/a	n/a	ITI	s614
79.592	1.558	0.5037876283808242	draw_card	0.0	columbia_card_task_fmri	13.0	0.8333333333333334	89.0	-70.0	0.1666666666666666	12.0	1.0	2.0	-0.7709596716980336	1.558	n/a	stim	s614
81.152	0.686	-0.7537881291949371	draw_card	0.0	columbia_card_task_fmri	13.0	0.8181818181818181	89.0	-70.0	0.1818181818181818	12.0	2.0	2.0	0.3084450809153942	0.686	n/a	stim	s614
81.84	0.753	-2.2628790382858432	draw_card	0.0	columbia_card_task_fmri	13.0	0.8	89.0	-70.0	0.2	12.0	3.0	2.0	1.494795195089775	0.753	n/a	stim	s614
82.595	1.012	-4.107323482730289	end_round	0.0	columbia_card_task_fmri	13.0	0.7777777777777778	71.0	-70.0	0.2222222222222222	12.0	4.0	2.0	2.800172878439785	1.012	3.0	stim	s614
83.612	2.25	n/a	-1.0	n/a	columbia_card_task_fmri	n/a	n/a	-1.0	n/a	n/a	n/a	n/a	n/a	n/a	n/a	n/a	feedback	s614
85.862	0.0	n/a	-1.0	n/a	columbia_card_task_fmri	n/a	n/a	-1.0	n/a	n/a	n/a	n/a	n/a	n/a	n/a	n/a	ITI	s614
85.864	1.534	0.5037876283808242	draw_card	0.0	columbia_card_task_fmri	15.0	0.8333333333333334	89.0	-80.0	0.1666666666666666	12.0	1.0	2.0	3.697530233449914	1.534	n/a	stim	s614
87.4	0.422	-0.9356063110131188	draw_card	0.0	columbia_card_task_fmri	15.0	0.8181818181818181	89.0	-80.0	0.1818181818181818	12.0	2.0	2.0	4.933257087212606	0.422	n/a	stim	s614
87.825	0.528	-2.662879038285844	draw_card	0.0	columbia_card_task_fmri	15.0	0.8	89.0	-80.0	0.2	12.0	3.0	2.0	6.291397637297035	0.528	n/a	stim	s614
88.356	0.542	-4.7739901493969565	draw_card	0.0	columbia_card_task_fmri	15.0	0.7777777777777778	89.0	-80.0	0.2222222222222222	12.0	4.0	2.0	7.785780206930109	0.542	n/a	stim	s614
88.9	1.372	-7.412879038285844	draw_card	0.0	columbia_card_task_fmri	15.0	0.75	89.0	-80.0	0.25	12.0	5.0	2.0	9.425812329020058	1.372	n/a	stim	s614
90.274	2.488	-10.805736181142985	draw_card	0.0	columbia_card_task_fmri	15.0	0.7142857142857143	89.0	-80.0	0.2857142857142857	12.0	6.0	2.0	11.20533018446135	2.488	n/a	stim	s614
92.764	2.055	-15.329545704952508	end_round	0.0	columbia_card_task_fmri	15.0	0.6666666666666667	71.0	-80.0	0.3333333333333333	12.0	7.0	2.0	13.071266582446937	2.055	6.0	stim	s614
94.826	2.25	n/a	-1.0	n/a	columbia_card_task_fmri	n/a	n/a	-1.0	n/a	n/a	n/a	n/a	n/a	n/a	n/a	n/a	feedback	s614
97.076	0.408	n/a	-1.0	n/a	columbia_card_task_fmri	n/a	n/a	-1.0	n/a	n/a	n/a	n/a	n/a	n/a	n/a	n/a	ITI	s614
97.487	2.035	-0.4628790382858425	draw_card	0.0	columbia_card_task_fmri	14.0	0.8	89.0	-65.0	0.2	15.0	1.0	3.0	-0.1038431999964366	2.035	n/a	stim	s614
99.524	0.432	-1.5914504668572709	draw_card	0.0	columbia_card_task_fmri	14.0	0.7857142857142857	89.0	-65.0	0.2142857142857142	15.0	2.0	3.0	0.711192186103883	0.432	n/a	stim	s614
99.959	0.322	-2.8936482690550758	draw_card	0.0	columbia_card_task_fmri	14.0	0.7692307692307692	89.0	-65.0	0.2307692307692307	15.0	3.0	3.0	1.579405270831206	0.322	n/a	stim	s614
100.284	0.656	-4.412879038285844	draw_card	0.0	columbia_card_task_fmri	14.0	0.75	89.0	-65.0	0.25	15.0	4.0	3.0	2.502006152268546	0.656	n/a	stim	s614
100.942	0.593	-6.208333583740389	draw_card	0.0	columbia_card_task_fmri	14.0	0.7272727272727273	89.0	-65.0	0.2727272727272727	15.0	5.0	3.0	3.47685884001972	0.593	n/a	stim	s614
101.538	0.912	-8.362879038285845	draw_card	0.0	columbia_card_task_fmri	14.0	0.7	89.0	-65.0	0.3	15.0	6.0	3.0	4.494912633992303	0.912	n/a	stim	s614
102.451	0.635	-10.996212371619174	draw_card	0.0	columbia_card_task_fmri	14.0	0.6666666666666667	89.0	-65.0	0.3333333333333333	15.0	7.0	3.0	5.532833808931901	0.635	n/a	stim	s614
103.089	2.415	-14.287879038285844	draw_card	1.0	columbia_card_task_fmri	14.0	0.625	89.0	-65.0	0.375	15.0	8.0	3.0	6.536957184073881	2.415	8.0	stim	s614
105.509	2.25	n/a	-1.0	n/a	columbia_card_task_fmri	n/a	n/a	-1.0	n/a	n/a	n/a	n/a	n/a	n/a	n/a	n/a	feedback	s614
107.759	0.204	n/a	-1.0	n/a	columbia_card_task_fmri	n/a	n/a	-1.0	n/a	n/a	n/a	n/a	n/a	n/a	n/a	n/a	ITI	s614
107.965	1.136	-0.5378790382858436	draw_card	0.0	columbia_card_task_fmri	1.0	0.9375	89.0	-45.0	0.0625	16.0	1.0	1.0	-20.517296426923416	1.136	n/a	stim	s614
109.103	1.158	-0.72954570495251	draw_card	0.0	columbia_card_task_fmri	1.0	0.9333333333333332	89.0	-45.0	0.0666666666666666	16.0	2.0	1.0	-20.18005892819348	1.158	n/a	stim	s614
110.264	0.317	-0.9485933240001292	draw_card	0.0	columbia_card_task_fmri	1.0	0.9285714285714286	89.0	-45.0	0.0714285714285714	16.0	3.0	1.0	-19.81008864749012	0.317	n/a	stim	s614
110.584	0.259	-1.201340576747382	draw_card	0.0	columbia_card_task_fmri	1.0	0.9230769230769232	89.0	-45.0	0.0769230769230769	16.0	4.0	1.0	-19.40181531941624	0.259	n/a	stim	s614
110.845	0.234	-1.496212371619177	draw_card	0.0	columbia_card_task_fmri	1.0	0.9166666666666666	89.0	-45.0	0.0833333333333333	16.0	5.0	1.0	-18.948271529865856	0.234	n/a	stim	s614
111.081	0.36	-1.8446972201040253	draw_card	0.0	columbia_card_task_fmri	1.0	0.9090909090909092	89.0	-45.0	0.0909090909090909	16.0	6.0	1.0	-18.44062174396055	0.36	n/a	stim	s614
111.444	0.378	-2.262879038285844	draw_card	0.0	columbia_card_task_fmri	1.0	0.9	89.0	-45.0	0.1	16.0	7.0	1.0	-17.867492603339144	0.378	n/a	stim	s614
111.824	0.38	-2.7739901493969543	draw_card	0.0	columbia_card_task_fmri	1.0	0.8888888888888888	89.0	-45.0	0.1111111111111111	16.0	8.0	1.0	-17.214008993838405	0.38	n/a	stim	s614
112.206	0.81	-3.412879038285844	draw_card	1.0	columbia_card_task_fmri	1.0	0.875	89.0	-45.0	0.125	16.0	9.0	1.0	-16.460401272659404	0.81	9.0	stim	s614
113.023	2.25	n/a	-1.0	n/a	columbia_card_task_fmri	n/a	n/a	-1.0	n/a	n/a	n/a	n/a	n/a	n/a	n/a	n/a	feedback	s614
115.273	0.136	n/a	-1.0	n/a	columbia_card_task_fmri	n/a	n/a	-1.0	n/a	n/a	n/a	n/a	n/a	n/a	n/a	n/a	ITI	s614
115.412	1.899	0.3996209617141564	draw_card	0.0	columbia_card_task_fmri	15.0	0.8125	89.0	-70.0	0.1875	16.0	1.0	3.0	1.471366068951287	1.899	n/a	stim	s614
117.313	0.435	-0.6628790382858436	draw_card	0.0	columbia_card_task_fmri	15.0	0.8	89.0	-70.0	0.2	16.0	2.0	3.0	2.29416239175875	0.435	n/a	stim	s614
117.751	0.778	-1.877164752571559	draw_card	0.0	columbia_card_task_fmri	15.0	0.7857142857142857	89.0	-70.0	0.2142857142857142	16.0	3.0	3.0	3.171203266710972	0.778	n/a	stim	s614
118.532	1.989	-3.2782636536704604	end_round	0.0	columbia_card_task_fmri	15.0	0.7692307692307692	71.0	-70.0	0.2307692307692307	16.0	4.0	3.0	4.105461840183342	1.989	3.0	stim	s614
120.526	2.25	n/a	-1.0	n/a	columbia_card_task_fmri	n/a	n/a	-1.0	n/a	n/a	n/a	n/a	n/a	n/a	n/a	n/a	feedback	s614
122.776	0.34	n/a	-1.0	n/a	columbia_card_task_fmri	n/a	n/a	-1.0	n/a	n/a	n/a	n/a	n/a	n/a	n/a	n/a	ITI	s614
123.12	2.056	7.337120961714156	draw_card	1.0	columbia_card_task_fmri	30.0	0.7	89.0	-50.0	0.3	10.0	1.0	3.0	4.952861851937183	2.056	1.0	stim	s614
125.18	2.25	n/a	-1.0	n/a	columbia_card_task_fmri	n/a	n/a	-1.0	n/a	n/a	n/a	n/a	n/a	n/a	n/a	n/a	feedback	s614
127.43	0.068	n/a	-1.0	n/a	columbia_card_task_fmri	n/a	n/a	-1.0	n/a	n/a	n/a	n/a	n/a	n/a	n/a	n/a	ITI	s614
127.501	1.417	6.737120961714156	draw_card	0.0	columbia_card_task_fmri	17.0	0.8666666666666667	89.0	-70.0	0.1333333333333333	15.0	1.0	2.0	-2.127595121497261	1.417	n/a	stim	s614
128.921	0.403	5.908549533142729	draw_card	0.0	columbia_card_task_fmri	17.0	0.8571428571428572	89.0	-70.0	0.1428571428571428	15.0	2.0	2.0	-1.2591119463728155	0.403	n/a	stim	s614
129.327	0.412	4.952505577098771	draw_card	0.0	columbia_card_task_fmri	17.0	0.8461538461538461	89.0	-70.0	0.1538461538461538	15.0	3.0	2.0	-0.3139484618708117	0.412	n/a	stim	s614
129.742	0.429	3.837120961714158	draw_card	0.0	columbia_card_task_fmri	17.0	0.8333333333333334	89.0	-70.0	0.1666666666666666	15.0	4.0	2.0	0.7184253476563036	0.429	n/a	stim	s614
130.175	0.877	2.5189391435323363	draw_card	0.0	columbia_card_task_fmri	17.0	0.8181818181818181	89.0	-70.0	0.1818181818181818	15.0	5.0	2.0	1.849941216373136	0.877	n/a	stim	s614
131.056	1.77	0.9371209617141578	draw_card	0.0	columbia_card_task_fmri	17.0	0.8	89.0	-70.0	0.2	15.0	6.0	2.0	3.0935586498947494	1.77	n/a	stim	s614
132.829	2.057	-0.9962123716191758	end_round	0.0	columbia_card_task_fmri	17.0	0.7777777777777778	71.0	-70.0	0.2222222222222222	15.0	7.0	2.0	4.461941884315461	2.057	6.0	stim	s614
134.89	2.25	n/a	-1.0	n/a	columbia_card_task_fmri	n/a	n/a	-1.0	n/a	n/a	n/a	n/a	n/a	n/a	n/a	n/a	feedback	s614
137.14	0.34	n/a	-1.0	n/a	columbia_card_task_fmri	n/a	n/a	-1.0	n/a	n/a	n/a	n/a	n/a	n/a	n/a	n/a	ITI	s614
137.482	2.193	1.9621209617141564	draw_card	0.0	columbia_card_task_fmri	7.0	0.9375	89.0	-95.0	0.0625	16.0	1.0	1.0	-7.005671242697787	2.193	n/a	stim	s614
139.678	0.308	1.5371209617141566	draw_card	0.0	columbia_card_task_fmri	7.0	0.9333333333333332	89.0	-95.0	0.0666666666666666	16.0	2.0	1.0	-6.253739102301488	0.308	n/a	stim	s614
139.988	0.237	1.0514066759998708	draw_card	0.0	columbia_card_task_fmri	7.0	0.9285714285714286	89.0	-95.0	0.0714285714285714	16.0	3.0	1.0	-5.429095122987771	0.237	n/a	stim	s614
140.228	0.215	0.4909671155603097	draw_card	0.0	columbia_card_task_fmri	7.0	0.9230769230769232	89.0	-95.0	0.0769230769230769	16.0	4.0	1.0	-4.519375644713648	0.215	n/a	stim	s614
140.447	0.203	-0.1628790382858436	draw_card	0.0	columbia_card_task_fmri	7.0	0.9166666666666666	89.0	-95.0	0.0833333333333333	16.0	5.0	1.0	-3.509117090248786	0.203	n/a	stim	s614
140.652	0.28	-0.935606311013117	draw_card	0.0	columbia_card_task_fmri	7.0	0.9090909090909092	89.0	-95.0	0.0909090909090909	16.0	6.0	1.0	-2.378711270880125	0.28	n/a	stim	s614
140.935	0.376	-1.862879038285844	draw_card	0.0	columbia_card_task_fmri	7.0	0.9	89.0	-95.0	0.1	16.0	7.0	1.0	-1.1029199890607906	0.376	n/a	stim	s614
141.314	0.662	-2.996212371619177	draw_card	0.0	columbia_card_task_fmri	7.0	0.8888888888888888	89.0	-95.0	0.1111111111111111	16.0	8.0	1.0	0.3512627534712713	0.662	n/a	stim	s614
141.979	0.677	-4.412879038285844	draw_card	0.0	columbia_card_task_fmri	7.0	0.875	89.0	-95.0	0.125	16.0	9.0	1.0	2.027699214509571	0.677	n/a	stim	s614
142.659	0.888	-6.234307609714415	draw_card	0.0	columbia_card_task_fmri	7.0	0.8571428571428572	89.0	-95.0	0.1428571428571428	16.0	10.0	1.0	3.985481782927384	0.888	n/a	stim	s614
143.55	1.883	-8.662879038285842	draw_card	1.0	columbia_card_task_fmri	7.0	0.8333333333333334	89.0	-95.0	0.1666666666666666	16.0	11.0	1.0	6.304545120830465	1.883	11.0	stim	s614
145.441	2.25	n/a	-1.0	n/a	columbia_card_task_fmri	n/a	n/a	-1.0	n/a	n/a	n/a	n/a	n/a	n/a	n/a	n/a	feedback	s614
147.691	0.136	n/a	-1.0	n/a	columbia_card_task_fmri	n/a	n/a	-1.0	n/a	n/a	n/a	n/a	n/a	n/a	n/a	n/a	ITI	s614
147.831	0.543	3.5246209617141564	draw_card	0.0	columbia_card_task_fmri	9.0	0.9375	89.0	-100.0	0.0625	16.0	1.0	1.0	-5.313561429477812	0.543	n/a	stim	s614
148.377	0.312	3.07045429504749	draw_card	0.0	columbia_card_task_fmri	9.0	0.9333333333333332	89.0	-100.0	0.0666666666666666	16.0	2.0	1.0	-4.509884319614098	0.312	n/a	stim	s614
148.693	0.288	2.551406675999872	draw_card	0.0	columbia_card_task_fmri	9.0	0.9285714285714286	89.0	-100.0	0.0714285714285714	16.0	3.0	1.0	-3.628500954677424	0.288	n/a	stim	s614
148.984	0.285	1.9525055770987725	draw_card	0.0	columbia_card_task_fmri	9.0	0.9230769230769232	89.0	-100.0	0.0769230769230769	16.0	4.0	1.0	-2.656198775686708	0.285	n/a	stim	s614
149.273	0.657	1.2537876283808242	draw_card	0.0	columbia_card_task_fmri	9.0	0.9166666666666666	89.0	-100.0	0.0833333333333333	16.0	5.0	1.0	-1.5764525030607075	0.657	n/a	stim	s614
149.935	0.876	0.4280300526232463	draw_card	0.0	columbia_card_task_fmri	9.0	0.9090909090909092	89.0	-100.0	0.0909090909090909	16.0	6.0	1.0	-0.368307735279398	0.876	n/a	stim	s614
150.815	1.257	-0.562879038285844	draw_card	0.0	columbia_card_task_fmri	9.0	0.9	89.0	-100.0	0.1	16.0	7.0	1.0	0.995206401157848	1.257	n/a	stim	s614
152.075	3.694	-1.7739901493969543	end_round	0.0	columbia_card_task_fmri	9.0	0.8888888888888888	71.0	-100.0	0.1111111111111111	16.0	8.0	1.0	2.549361767510785	3.694	7.0	stim	s614
155.776	2.25	n/a	-1.0	n/a	columbia_card_task_fmri	n/a	n/a	-1.0	n/a	n/a	n/a	n/a	n/a	n/a	n/a	n/a	feedback	s614
158.026	0.068	n/a	-1.0	n/a	columbia_card_task_fmri	n/a	n/a	-1.0	n/a	n/a	n/a	n/a	n/a	n/a	n/a	n/a	ITI	s614
158.098	5.714	4.462120961714156	draw_card	0.0	columbia_card_task_fmri	15.0	0.875	89.0	-80.0	0.125	16.0	1.0	2.0	-0.2853829938710142	5.714	n/a	stim	s614
163.815	3.001	3.6704542950474894	draw_card	0.0	columbia_card_task_fmri	15.0	0.8666666666666667	89.0	-80.0	0.1333333333333333	16.0	2.0	2.0	0.5893400883937581	3.001	n/a	stim	s614
166.819	2.795	2.765692390285587	draw_card	0.0	columbia_card_task_fmri	15.0	0.8571428571428572	89.0	-80.0	0.1428571428571428	16.0	3.0	2.0	1.5378354282719222	2.795	n/a	stim	s614
169.617	4.771	1.7217363463295396	end_round	0.0	columbia_card_task_fmri	15.0	0.8461538461538461	71.0	-80.0	0.1538461538461538	16.0	4.0	2.0	2.570066000563134	4.771	3.0	stim	s614
174.395	2.25	n/a	-1.0	n/a	columbia_card_task_fmri	n/a	n/a	-1.0	n/a	n/a	n/a	n/a	n/a	n/a	n/a	n/a	feedback	s614
176.645	0.068	n/a	-1.0	n/a	columbia_card_task_fmri	n/a	n/a	-1.0	n/a	n/a	n/a	n/a	n/a	n/a	n/a	n/a	ITI	s614
176.717	5.099	6.587120961714156	draw_card	0.0	columbia_card_task_fmri	16.0	0.875	89.0	-70.0	0.125	16.0	1.0	2.0	-3.258880049992211	5.099	n/a	stim	s614
181.819	1.023	5.870454295047489	draw_card	0.0	columbia_card_task_fmri	16.0	0.8666666666666667	89.0	-70.0	0.1333333333333333	16.0	2.0	2.0	-2.467178821835628	1.023	n/a	stim	s614
182.845	6.03	5.051406675999871	draw_card	0.0	columbia_card_task_fmri	16.0	0.8571428571428572	89.0	-70.0	0.1428571428571428	16.0	3.0	2.0	-1.608698110091673	6.03	n/a	stim	s614
188.877	0.561	4.106351730944924	draw_card	0.0	columbia_card_task_fmri	16.0	0.8461538461538461	89.0	-70.0	0.1538461538461538	16.0	4.0	2.0	-0.6744189786718451	0.561	n/a	stim	s614
189.442	1.481	3.003787628380824	end_round	0.0	columbia_card_task_fmri	16.0	0.8333333333333334	71.0	-70.0	0.1666666666666666	16.0	5.0	2.0	0.3460675356489169	1.481	4.0	stim	s614
190.929	2.25	n/a	-1.0	n/a	columbia_card_task_fmri	n/a	n/a	-1.0	n/a	n/a	n/a	n/a	n/a	n/a	n/a	n/a	feedback	s614
193.179	0.068	n/a	-1.0	n/a	columbia_card_task_fmri	n/a	n/a	-1.0	n/a	n/a	n/a	n/a	n/a	n/a	n/a	n/a	ITI	s614
193.251	3.722	7.899620961714156	draw_card	0.0	columbia_card_task_fmri	30.0	0.6875	89.0	-45.0	0.3125	16.0	1.0	5.0	3.057016050996271	3.722	n/a	stim	s614
196.977	6.084	6.33712096171416	draw_card	0.0	columbia_card_task_fmri	30.0	0.6666666666666667	89.0	-45.0	0.3333333333333333	16.0	2.0	5.0	3.648494656065889	6.084	n/a	stim	s614
203.065	1.009	4.551406675999868	end_round	0.0	columbia_card_task_fmri	30.0	0.6428571428571428	71.0	-45.0	0.3571428571428571	16.0	3.0	5.0	4.229553697002562	1.009	2.0	stim	s614
204.079	2.25	n/a	-1.0	n/a	columbia_card_task_fmri	n/a	n/a	-1.0	n/a	n/a	n/a	n/a	n/a	n/a	n/a	n/a	feedback	s614
206.329	0.136	n/a	-1.0	n/a	columbia_card_task_fmri	n/a	n/a	-1.0	n/a	n/a	n/a	n/a	n/a	n/a	n/a	n/a	ITI	s614
206.468	3.305	-0.3295457049525097	draw_card	0.0	columbia_card_task_fmri	13.0	0.8333333333333334	89.0	-75.0	0.1666666666666666	6.0	1.0	1.0	1.0907904274150615	3.305	n/a	stim	s614
209.776	3.992	-3.2628790382858432	draw_card	0.0	columbia_card_task_fmri	13.0	0.8	89.0	-75.0	0.2	6.0	2.0	1.0	3.493267058721546	3.992	n/a	stim	s614
213.771	0.948	-7.662879038285844	end_round	0.0	columbia_card_task_fmri	13.0	0.75	71.0	-75.0	0.25	6.0	3.0	1.0	6.396450567446312	0.948	2.0	stim	s614
214.723	2.25	n/a	-1.0	n/a	columbia_card_task_fmri	n/a	n/a	-1.0	n/a	n/a	n/a	n/a	n/a	n/a	n/a	n/a	feedback	s614
216.973	0.0	n/a	-1.0	n/a	columbia_card_task_fmri	n/a	n/a	-1.0	n/a	n/a	n/a	n/a	n/a	n/a	n/a	n/a	ITI	s614
216.976	2.463	1.3371209617141582	draw_card	0.0	columbia_card_task_fmri	14.0	0.8333333333333334	89.0	-70.0	0.1666666666666666	6.0	1.0	1.0	-0.3986252487035457	2.463	n/a	stim	s614
219.444	2.332	-1.4628790382858423	draw_card	0.0	columbia_card_task_fmri	14.0	0.8	89.0	-70.0	0.2	6.0	2.0	1.0	1.8944750312055767	2.332	n/a	stim	s614
221.779	1.576	-5.662879038285844	end_round	0.0	columbia_card_task_fmri	14.0	0.75	71.0	-70.0	0.25	6.0	3.0	1.0	4.665515822523478	1.576	2.0	stim	s614
223.358	2.25	n/a	-1.0	n/a	columbia_card_task_fmri	n/a	n/a	-1.0	n/a	n/a	n/a	n/a	n/a	n/a	n/a	n/a	feedback	s614
225.608	0.136	n/a	-1.0	n/a	columbia_card_task_fmri	n/a	n/a	-1.0	n/a	n/a	n/a	n/a	n/a	n/a	n/a	n/a	ITI	s614
225.748	2.202	1.3371209617141582	draw_card	0.0	columbia_card_task_fmri	16.0	0.8333333333333334	89.0	-80.0	0.1666666666666666	6.0	1.0	1.0	4.069945491429902	2.202	n/a	stim	s614
227.953	2.647	-1.862879038285843	draw_card	0.0	columbia_card_task_fmri	16.0	0.8	89.0	-80.0	0.2	6.0	2.0	1.0	6.69115281121238	2.647	n/a	stim	s614
230.604	1.042	-6.662879038285844	end_round	0.0	columbia_card_task_fmri	16.0	0.75	71.0	-80.0	0.25	6.0	3.0	1.0	9.858598839809904	1.042	2.0	stim	s614
231.65	2.25	n/a	-1.0	n/a	columbia_card_task_fmri	n/a	n/a	-1.0	n/a	n/a	n/a	n/a	n/a	n/a	n/a	n/a	feedback	s614
233.9	0.34	n/a	-1.0	n/a	columbia_card_task_fmri	n/a	n/a	-1.0	n/a	n/a	n/a	n/a	n/a	n/a	n/a	n/a	ITI	s614
234.243	1.775	3.837120961714158	draw_card	0.0	columbia_card_task_fmri	17.0	0.8333333333333334	89.0	-70.0	0.1666666666666666	6.0	1.0	1.0	0.7184253476563036	1.775	n/a	stim	s614
236.021	1.292	0.9371209617141578	draw_card	0.0	columbia_card_task_fmri	17.0	0.8	89.0	-70.0	0.2	6.0	2.0	1.0	3.0935586498947494	1.292	n/a	stim	s614
237.316	1.247	-3.412879038285844	end_round	0.0	columbia_card_task_fmri	17.0	0.75	71.0	-70.0	0.25	6.0	3.0	1.0	5.963707269139622	1.247	2.0	stim	s614
238.567	2.25	n/a	-1.0	n/a	columbia_card_task_fmri	n/a	n/a	-1.0	n/a	n/a	n/a	n/a	n/a	n/a	n/a	n/a	feedback	s614
240.817	0.408	n/a	-1.0	n/a	columbia_card_task_fmri	n/a	n/a	-1.0	n/a	n/a	n/a	n/a	n/a	n/a	n/a	n/a	ITI	s614
241.228	1.844	3.837120961714157	draw_card	1.0	columbia_card_task_fmri	25.0	0.75	89.0	-65.0	0.25	8.0	1.0	2.0	7.261955108156858	1.844	1.0	stim	s614
243.08	2.25	n/a	-1.0	n/a	columbia_card_task_fmri	n/a	n/a	-1.0	n/a	n/a	n/a	n/a	n/a	n/a	n/a	n/a	feedback	s614
245.33	0.136	n/a	-1.0	n/a	columbia_card_task_fmri	n/a	n/a	-1.0	n/a	n/a	n/a	n/a	n/a	n/a	n/a	n/a	ITI	s614
245.47	1.516	3.837120961714157	draw_card	0.0	columbia_card_task_fmri	30.0	0.75	89.0	-80.0	0.25	8.0	1.0	2.0	15.918041529412069	1.516	n/a	stim	s614
246.989	1.507	-0.0914504668572671	draw_card	0.0	columbia_card_task_fmri	30.0	0.7142857142857143	89.0	-80.0	0.2857142857142857	8.0	2.0	2.0	17.978800821665313	1.507	n/a	stim	s614
248.5	1.57	-5.329545704952505	draw_card	1.0	columbia_card_task_fmri	30.0	0.6666666666666667	89.0	-80.0	0.3333333333333333	8.0	3.0	2.0	20.13961394811724	1.57	3.0	stim	s614
250.077	2.25	n/a	-1.0	n/a	columbia_card_task_fmri	n/a	n/a	-1.0	n/a	n/a	n/a	n/a	n/a	n/a	n/a	n/a	feedback	s614
252.327	0.136	n/a	-1.0	n/a	columbia_card_task_fmri	n/a	n/a	-1.0	n/a	n/a	n/a	n/a	n/a	n/a	n/a	n/a	ITI	s614
252.467	0.559	3.537120961714157	draw_card	0.0	columbia_card_task_fmri	13.0	0.9	89.0	-95.0	0.1	10.0	1.0	1.0	0.6954592090569882	0.559	n/a	stim	s614
253.03	0.515	2.3371209617141564	draw_card	0.0	columbia_card_task_fmri	13.0	0.8888888888888888	89.0	-95.0	0.1111111111111111	10.0	2.0	1.0	2.2353334429958487	0.515	n/a	stim	s614
253.549	3.975	0.8371209617141564	draw_card	0.0	columbia_card_task_fmri	13.0	0.875	89.0	-95.0	0.125	10.0	3.0	1.0	4.0105420923931625	3.975	n/a	stim	s614
257.527	1.066	-1.0914504668572709	end_round	0.0	columbia_card_task_fmri	13.0	0.8571428571428572	71.0	-95.0	0.1428571428571428	10.0	4.0	1.0	6.083654373497875	1.066	3.0	stim	s614
258.6	2.25	n/a	-1.0	n/a	columbia_card_task_fmri	n/a	n/a	-1.0	n/a	n/a	n/a	n/a	n/a	n/a	n/a	n/a	feedback	s614
260.85	0.0	n/a	-1.0	n/a	columbia_card_task_fmri	n/a	n/a	-1.0	n/a	n/a	n/a	n/a	n/a	n/a	n/a	n/a	ITI	s614
260.853	0.923	4.937120961714156	draw_card	0.0	columbia_card_task_fmri	14.0	0.9	89.0	-90.0	0.1	10.0	1.0	1.0	-0.5034810074560951	0.923	n/a	stim	s614
261.781	1.055	3.7815654061585993	draw_card	0.0	columbia_card_task_fmri	14.0	0.8888888888888888	89.0	-90.0	0.1111111111111111	10.0	2.0	1.0	0.9792665029859542	1.055	n/a	stim	s614
262.841	2.979	2.3371209617141564	draw_card	0.0	columbia_card_task_fmri	14.0	0.875	89.0	-90.0	0.125	10.0	3.0	1.0	2.688628007772568	2.979	n/a	stim	s614
265.824	1.176	0.4799781045713005	draw_card	0.0	columbia_card_task_fmri	14.0	0.8571428571428572	89.0	-90.0	0.1428571428571428	10.0	4.0	1.0	4.684854843263448	1.176	n/a	stim	s614
267.004	1.212	-1.996212371619176	end_round	0.0	columbia_card_task_fmri	14.0	0.8333333333333334	71.0	-90.0	0.1666666666666666	10.0	5.0	1.0	7.049449279194281	1.212	4.0	stim	s614
268.225	2.25	n/a	-1.0	n/a	columbia_card_task_fmri	n/a	n/a	-1.0	n/a	n/a	n/a	n/a	n/a	n/a	n/a	n/a	feedback	s614
270.475	0.068	n/a	-1.0	n/a	columbia_card_task_fmri	n/a	n/a	-1.0	n/a	n/a	n/a	n/a	n/a	n/a	n/a	n/a	ITI	s614
270.546	0.856	0.1371209617141571	draw_card	1.0	columbia_card_task_fmri	16.0	0.8	89.0	-70.0	0.2	10.0	1.0	2.0	2.6938570146719734	0.856	1.0	stim	s614
271.411	2.25	n/a	-1.0	n/a	columbia_card_task_fmri	n/a	n/a	-1.0	n/a	n/a	n/a	n/a	n/a	n/a	n/a	n/a	feedback	s614
273.661	0.0	n/a	-1.0	n/a	columbia_card_task_fmri	n/a	n/a	-1.0	n/a	n/a	n/a	n/a	n/a	n/a	n/a	n/a	ITI	s614
273.665	1.961	-0.5795457049525097	draw_card	0.0	columbia_card_task_fmri	7.0	0.9166666666666666	89.0	-100.0	0.0833333333333333	12.0	1.0	1.0	-2.128669488771638	1.961	n/a	stim	s614
275.63	3.212	-1.390151765558572	draw_card	0.0	columbia_card_task_fmri	7.0	0.9090909090909092	89.0	-100.0	0.0909090909090909	12.0	2.0	1.0	-0.9427348092890676	3.212	n/a	stim	s614
278.846	3.483	-2.362879038285844	draw_card	0.0	columbia_card_task_fmri	7.0	0.9	89.0	-100.0	0.1	12.0	3.0	1.0	0.3957167362542328	3.483	n/a	stim	s614
282.333	3.109	-3.551767927174733	end_round	0.0	columbia_card_task_fmri	7.0	0.8888888888888888	71.0	-100.0	0.1111111111111111	12.0	4.0	1.0	1.921309624515299	3.109	3.0	stim	s614
285.449	2.25	n/a	-1.0	n/a	columbia_card_task_fmri	n/a	n/a	-1.0	n/a	n/a	n/a	n/a	n/a	n/a	n/a	n/a	feedback	s614
287.699	0.0	n/a	-1.0	n/a	columbia_card_task_fmri	n/a	n/a	-1.0	n/a	n/a	n/a	n/a	n/a	n/a	n/a	n/a	ITI	s614
287.701	2.328	-0.3295457049525079	draw_card	0.0	columbia_card_task_fmri	14.0	0.8333333333333334	89.0	-80.0	0.1666666666666666	12.0	1.0	2.0	3.325120559609605	2.328	n/a	stim	s614
290.033	1.146	-1.753788129194937	draw_card	0.0	columbia_card_task_fmri	14.0	0.8181818181818181	89.0	-80.0	0.1818181818181818	12.0	2.0	2.0	4.547821764803555	1.146	n/a	stim	s614
291.182	0.506	-3.4628790382858425	draw_card	0.0	columbia_card_task_fmri	14.0	0.8	89.0	-80.0	0.2	12.0	3.0	2.0	5.891647667563877	0.506	n/a	stim	s614
291.692	0.933	-5.551767927174733	draw_card	0.0	columbia_card_task_fmri	14.0	0.7777777777777778	89.0	-80.0	0.2222222222222222	12.0	4.0	2.0	7.370281078281277	0.933	n/a	stim	s614
292.628	3.399	-8.162879038285844	end_round	0.0	columbia_card_task_fmri	14.0	0.75	71.0	-80.0	0.25	12.0	5.0	2.0	8.993030626956209	3.399	4.0	stim	s614
296.033	2.25	n/a	-1.0	n/a	columbia_card_task_fmri	n/a	n/a	-1.0	n/a	n/a	n/a	n/a	n/a	n/a	n/a	n/a	feedback	s614
298.283	0.136	n/a	-1.0	n/a	columbia_card_task_fmri	n/a	n/a	-1.0	n/a	n/a	n/a	n/a	n/a	n/a	n/a	n/a	ITI	s614
298.423	1.923	1.3371209617141564	draw_card	0.0	columbia_card_task_fmri	15.0	0.8333333333333334	89.0	-75.0	0.1666666666666666	12.0	1.0	2.0	1.8355414227305964	1.923	n/a	stim	s614
300.35	0.564	-0.0265154019222086	draw_card	0.0	columbia_card_task_fmri	15.0	0.8181818181818181	89.0	-75.0	0.1818181818181818	12.0	2.0	2.0	3.0061380321650155	0.564	n/a	stim	s614
300.918	0.896	-1.6628790382858436	draw_card	0.0	columbia_card_task_fmri	15.0	0.8	89.0	-75.0	0.2	12.0	3.0	2.0	4.292703295316425	0.896	n/a	stim	s614
301.818	0.874	-3.662879038285842	end_round	0.0	columbia_card_task_fmri	15.0	0.7777777777777778	71.0	-75.0	0.2222222222222222	12.0	4.0	2.0	5.708337976602994	0.874	3.0	stim	s614
302.698	2.25	n/a	-1.0	n/a	columbia_card_task_fmri	n/a	n/a	-1.0	n/a	n/a	n/a	n/a	n/a	n/a	n/a	n/a	feedback	s614
304.948	0.136	n/a	-1.0	n/a	columbia_card_task_fmri	n/a	n/a	-1.0	n/a	n/a	n/a	n/a	n/a	n/a	n/a	n/a	ITI	s614
305.089	0.924	0.3371209617141564	draw_card	1.0	columbia_card_task_fmri	15.0	0.8	89.0	-65.0	0.2	15.0	1.0	3.0	0.2958036502876489	0.924	1.0	stim	s614
306.019	2.25	n/a	-1.0	n/a	columbia_card_task_fmri	n/a	n/a	-1.0	n/a	n/a	n/a	n/a	n/a	n/a	n/a	n/a	feedback	s614
308.269	0.476	n/a	-1.0	n/a	columbia_card_task_fmri	n/a	n/a	-1.0	n/a	n/a	n/a	n/a	n/a	n/a	n/a	n/a	ITI	s614
308.749	1.263	-0.4128790382858436	draw_card	0.0	columbia_card_task_fmri	14.0	0.8125	89.0	-70.0	0.1875	16.0	1.0	3.0	1.081374074394116	1.263	n/a	stim	s614
310.016	0.389	-1.4628790382858423	end_round	0.0	columbia_card_task_fmri	14.0	0.8	71.0	-70.0	0.2	16.0	2.0	3.0	1.8944750312055767	0.389	1.0	stim	s614
310.41	2.25	n/a	-1.0	n/a	columbia_card_task_fmri	n/a	n/a	-1.0	n/a	n/a	n/a	n/a	n/a	n/a	n/a	n/a	feedback	s614
312.66	0.204	n/a	-1.0	n/a	columbia_card_task_fmri	n/a	n/a	-1.0	n/a	n/a	n/a	n/a	n/a	n/a	n/a	n/a	ITI	s614
312.868	1.845	-0.4753790382858436	draw_card	0.0	columbia_card_task_fmri	11.0	0.6875	89.0	-30.0	0.3125	16.0	1.0	5.0	-12.681129560100874	1.845	n/a	stim	s614
314.718	1.817	-1.3295457049525097	draw_card	0.0	columbia_card_task_fmri	11.0	0.6666666666666667	89.0	-30.0	0.3333333333333333	16.0	2.0	5.0	-12.358337494883024	1.817	n/a	stim	s614
316.539	1.75	-2.305736181142988	draw_card	1.0	columbia_card_task_fmri	11.0	0.6428571428571428	89.0	-30.0	0.3571428571428571	16.0	3.0	5.0	-12.041214216878224	1.75	3.0	stim	s614
318.294	2.25	n/a	-1.0	n/a	columbia_card_task_fmri	n/a	n/a	-1.0	n/a	n/a	n/a	n/a	n/a	n/a	n/a	n/a	feedback	s614
320.544	0.068	n/a	-1.0	n/a	columbia_card_task_fmri	n/a	n/a	-1.0	n/a	n/a	n/a	n/a	n/a	n/a	n/a	n/a	ITI	s614
320.615	0.712	4.337120961714156	draw_card	0.0	columbia_card_task_fmri	15.0	0.8666666666666667	89.0	-75.0	0.1333333333333333	15.0	1.0	2.0	-1.1087972980142382	0.712	n/a	stim	s614
321.331	1.794	3.4799781045713005	draw_card	0.0	columbia_card_task_fmri	15.0	0.8571428571428572	89.0	-75.0	0.1428571428571428	15.0	2.0	2.0	-0.2103080592408197	1.794	n/a	stim	s614
323.129	0.463	2.4909671155603097	draw_card	0.0	columbia_card_task_fmri	15.0	0.8461538461538461	89.0	-75.0	0.1538461538461538	15.0	3.0	2.0	0.767507123770752	0.463	n/a	stim	s614
323.595	0.431	1.3371209617141564	draw_card	1.0	columbia_card_task_fmri	15.0	0.8333333333333334	89.0	-75.0	0.1666666666666666	15.0	4.0	2.0	1.8355414227305964	0.431	4.0	stim	s614
324.033	2.25	n/a	-1.0	n/a	columbia_card_task_fmri	n/a	n/a	-1.0	n/a	n/a	n/a	n/a	n/a	n/a	n/a	n/a	feedback	s614
326.283	0.068	n/a	-1.0	n/a	columbia_card_task_fmri	n/a	n/a	-1.0	n/a	n/a	n/a	n/a	n/a	n/a	n/a	n/a	ITI	s614
326.355	0.591	6.07045429504749	draw_card	0.0	columbia_card_task_fmri	17.0	0.8666666666666667	89.0	-75.0	0.1333333333333333	15.0	1.0	2.0	-0.4295623480941088	0.591	n/a	stim	s614
326.95	0.287	5.194263818857015	draw_card	0.0	columbia_card_task_fmri	17.0	0.8571428571428572	89.0	-75.0	0.1428571428571428	15.0	2.0	2.0	0.488929899394666	0.287	n/a	stim	s614
327.241	0.633	4.183274807868003	draw_card	0.0	columbia_card_task_fmri	17.0	0.8461538461538461	89.0	-75.0	0.1538461538461538	15.0	3.0	2.0	1.4885118210327697	0.633	n/a	stim	s614
327.878	2.749	3.003787628380824	end_round	0.0	columbia_card_task_fmri	17.0	0.8333333333333334	71.0	-75.0	0.1666666666666666	15.0	4.0	2.0	2.5803186916341225	2.749	3.0	stim	s614
330.632	2.25	n/a	-1.0	n/a	columbia_card_task_fmri	n/a	n/a	-1.0	n/a	n/a	n/a	n/a	n/a	n/a	n/a	n/a	feedback	s614
332.882	0.34	n/a	-1.0	n/a	columbia_card_task_fmri	n/a	n/a	-1.0	n/a	n/a	n/a	n/a	n/a	n/a	n/a	n/a	ITI	s614
333.226	0.806	1.6496209617141564	draw_card	0.0	columbia_card_task_fmri	2.0	0.9375	89.0	-25.0	0.0625	16.0	1.0	1.0	-25.06108286923475	0.806	n/a	stim	s614
334.036	0.303	1.5371209617141564	draw_card	0.0	columbia_card_task_fmri	2.0	0.9333333333333332	89.0	-25.0	0.0666666666666666	16.0	2.0	1.0	-24.865687690901485	0.303	n/a	stim	s614
334.343	0.348	1.408549533142728	draw_card	0.0	columbia_card_task_fmri	2.0	0.9285714285714286	89.0	-25.0	0.0714285714285714	16.0	3.0	1.0	-24.651164310428936	0.348	n/a	stim	s614
334.696	0.85	1.2601978847910795	draw_card	0.0	columbia_card_task_fmri	2.0	0.9230769230769232	89.0	-25.0	0.0769230769230769	16.0	4.0	1.0	-24.41425102895816	0.85	n/a	stim	s614
335.551	2.889	1.0871209617141566	draw_card	0.0	columbia_card_task_fmri	2.0	0.9166666666666666	89.0	-25.0	0.0833333333333333	16.0	5.0	1.0	-24.150867288532982	2.889	n/a	stim	s614
338.445	1.98	0.8825755071687016	draw_card	0.0	columbia_card_task_fmri	2.0	0.9090909090909092	89.0	-25.0	0.0909090909090909	16.0	6.0	1.0	-23.855837465228166	1.98	n/a	stim	s614
340.43	1.135	0.6371209617141564	end_round	0.0	columbia_card_task_fmri	2.0	0.9	71.0	-25.0	0.1	16.0	7.0	1.0	-23.522498042051016	1.135	6.0	stim	s614
341.572	2.25	n/a	-1.0	n/a	columbia_card_task_fmri	n/a	n/a	-1.0	n/a	n/a	n/a	n/a	n/a	n/a	n/a	n/a	feedback	s614
343.822	0.476	n/a	-1.0	n/a	columbia_card_task_fmri	n/a	n/a	-1.0	n/a	n/a	n/a	n/a	n/a	n/a	n/a	n/a	ITI	s614
344.302	0.983	3.837120961714157	draw_card	0.0	columbia_card_task_fmri	9.0	0.9375	89.0	-95.0	0.0625	16.0	1.0	1.0	-6.522243103021488	0.983	n/a	stim	s614
345.289	0.413	3.403787628380824	draw_card	0.0	columbia_card_task_fmri	9.0	0.9333333333333332	89.0	-95.0	0.0666666666666666	16.0	2.0	1.0	-5.755525751763951	0.413	n/a	stim	s614
345.706	0.362	2.9085495331427285	draw_card	1.0	columbia_card_task_fmri	9.0	0.9285714285714286	89.0	-95.0	0.0714285714285714	16.0	3.0	1.0	-4.914669556172534	0.362	3.0	stim	s614
346.074	2.25	n/a	-1.0	n/a	columbia_card_task_fmri	n/a	n/a	-1.0	n/a	n/a	n/a	n/a	n/a	n/a	n/a	n/a	feedback	s614
348.324	0.272	n/a	-1.0	n/a	columbia_card_task_fmri	n/a	n/a	-1.0	n/a	n/a	n/a	n/a	n/a	n/a	n/a	n/a	ITI	s614
348.601	0.989	5.399620961714156	draw_card	0.0	columbia_card_task_fmri	11.0	0.9375	89.0	-100.0	0.0625	16.0	1.0	1.0	-4.8300478315325215	0.989	n/a	stim	s614
349.593	0.421	4.937120961714157	draw_card	0.0	columbia_card_task_fmri	11.0	0.9333333333333332	89.0	-100.0	0.0666666666666666	16.0	2.0	1.0	-4.011588020436879	0.421	n/a	stim	s614
350.02	1.214	4.408549533142729	draw_card	1.0	columbia_card_task_fmri	11.0	0.9285714285714286	89.0	-100.0	0.0714285714285714	16.0	3.0	1.0	-3.113995027734948	1.214	3.0	stim	s614
351.239	2.25	n/a	-1.0	n/a	columbia_card_task_fmri	n/a	n/a	-1.0	n/a	n/a	n/a	n/a	n/a	n/a	n/a	n/a	feedback	s614
353.489	0.884	n/a	-1.0	n/a	columbia_card_task_fmri	n/a	n/a	-1.0	n/a	n/a	n/a	n/a	n/a	n/a	n/a	n/a	ITI	s614
354.378	0.87	5.962120961714156	draw_card	0.0	columbia_card_task_fmri	16.0	0.875	89.0	-75.0	0.125	16.0	1.0	2.0	-1.6070097380236916	0.87	n/a	stim	s614
355.252	0.375	5.203787628380823	draw_card	0.0	columbia_card_task_fmri	16.0	0.8666666666666667	89.0	-75.0	0.1333333333333333	16.0	2.0	2.0	-0.769183303445061	0.375	n/a	stim	s614
355.631	0.337	4.337120961714158	draw_card	0.0	columbia_card_task_fmri	16.0	0.8571428571428572	89.0	-75.0	0.1428571428571428	16.0	3.0	2.0	0.1393075385390112	0.337	n/a	stim	s614
355.973	1.468	3.3371209617141564	end_round	0.0	columbia_card_task_fmri	16.0	0.8461538461538461	71.0	-75.0	0.1538461538461538	16.0	4.0	2.0	1.1280061922650295	1.468	3.0	stim	s614
357.449	2.25	n/a	-1.0	n/a	columbia_card_task_fmri	n/a	n/a	-1.0	n/a	n/a	n/a	n/a	n/a	n/a	n/a	n/a	feedback	s614
359.699	0.136	n/a	-1.0	n/a	columbia_card_task_fmri	n/a	n/a	-1.0	n/a	n/a	n/a	n/a	n/a	n/a	n/a	n/a	ITI	s614
359.84	1.059	6.212120961714156	draw_card	0.0	columbia_card_task_fmri	17.0	0.875	89.0	-80.0	0.125	16.0	1.0	2.0	0.3754689526269068	1.059	n/a	stim	s614
360.904	0.517	5.403787628380824	draw_card	0.0	columbia_card_task_fmri	17.0	0.8666666666666667	89.0	-80.0	0.1333333333333333	16.0	2.0	2.0	1.2686393185017373	0.517	n/a	stim	s614
361.426	2.819	4.479978104571302	draw_card	0.0	columbia_card_task_fmri	17.0	0.8571428571428572	89.0	-80.0	0.1428571428571428	16.0	3.0	2.0	2.237135840858979	2.819	n/a	stim	s614
364.25	1.148	3.414044038637233	draw_card	0.0	columbia_card_task_fmri	17.0	0.8461538461538461	89.0	-80.0	0.1538461538461538	16.0	4.0	2.0	3.2911312785088107	1.148	n/a	stim	s614
365.404	1.167	2.170454295047492	end_round	0.0	columbia_card_task_fmri	17.0	0.8333333333333334	71.0	-80.0	0.1666666666666666	16.0	5.0	2.0	4.442366161083914	1.167	4.0	stim	s614
366.579	2.25	n/a	-1.0	n/a	columbia_card_task_fmri	n/a	n/a	-1.0	n/a	n/a	n/a	n/a	n/a	n/a	n/a	n/a	feedback	s614
368.829	0.136	n/a	-1.0	n/a	columbia_card_task_fmri	n/a	n/a	-1.0	n/a	n/a	n/a	n/a	n/a	n/a	n/a	n/a	ITI	s614
379.979	0.97	0.5037876283808242	draw_card	1.0	columbia_card_task_fmri	13.0	0.8333333333333334	89.0	-70.0	0.1666666666666666	6.0	1.0	1.0	-0.7709596716980336	0.97	1.0	stim	s614
380.957	2.25	n/a	-1.0	n/a	columbia_card_task_fmri	n/a	n/a	-1.0	n/a	n/a	n/a	n/a	n/a	n/a	n/a	n/a	feedback	s614
383.207	0.068	n/a	-1.0	n/a	columbia_card_task_fmri	n/a	n/a	-1.0	n/a	n/a	n/a	n/a	n/a	n/a	n/a	n/a	ITI	s614
383.279	0.559	0.5037876283808242	draw_card	0.0	columbia_card_task_fmri	15.0	0.8333333333333334	89.0	-80.0	0.1666666666666666	6.0	1.0	1.0	3.697530233449914	0.559	n/a	stim	s614
383.842	0.356	-2.662879038285844	draw_card	0.0	columbia_card_task_fmri	15.0	0.8	89.0	-80.0	0.2	6.0	2.0	1.0	6.291397637297035	0.356	n/a	stim	s614
384.203	0.346	-7.412879038285844	end_round	0.0	columbia_card_task_fmri	15.0	0.75	71.0	-80.0	0.25	6.0	3.0	1.0	9.425812329020058	0.346	2.0	stim	s614
384.554	2.25	n/a	-1.0	n/a	columbia_card_task_fmri	n/a	n/a	-1.0	n/a	n/a	n/a	n/a	n/a	n/a	n/a	n/a	feedback	s614
386.804	0.068	n/a	-1.0	n/a	columbia_card_task_fmri	n/a	n/a	-1.0	n/a	n/a	n/a	n/a	n/a	n/a	n/a	n/a	ITI	s614
386.876	0.899	2.1704542950474903	draw_card	0.0	columbia_card_task_fmri	16.0	0.8333333333333334	89.0	-75.0	0.1666666666666666	6.0	1.0	1.0	2.2079268810846493	0.899	n/a	stim	s614
387.779	1.411	-0.8628790382858429	draw_card	0.0	columbia_card_task_fmri	16.0	0.8	89.0	-75.0	0.2	6.0	2.0	1.0	4.692430696882806	1.411	n/a	stim	s614
389.194	0.758	-5.412879038285844	draw_card	0.0	columbia_card_task_fmri	16.0	0.75	89.0	-75.0	0.25	6.0	3.0	1.0	7.694715956648888	0.758	n/a	stim	s614
389.957	1.489	-12.996212371619176	end_round	0.0	columbia_card_task_fmri	16.0	0.6666666666666667	71.0	-75.0	0.3333333333333333	6.0	4.0	1.0	11.186525317285192	1.489	3.0	stim	s614
391.454	2.25	n/a	-1.0	n/a	columbia_card_task_fmri	n/a	n/a	-1.0	n/a	n/a	n/a	n/a	n/a	n/a	n/a	n/a	feedback	s614
393.704	0.612	n/a	-1.0	n/a	columbia_card_task_fmri	n/a	n/a	-1.0	n/a	n/a	n/a	n/a	n/a	n/a	n/a	n/a	ITI	s614
394.32	0.564	3.3371209617141564	draw_card	0.0	columbia_card_task_fmri	21.0	0.75	89.0	-55.0	0.25	8.0	1.0	2.0	1.2039983713818394	0.564	n/a	stim	s614
394.888	0.297	0.6228352474284429	draw_card	0.0	columbia_card_task_fmri	21.0	0.7142857142857143	89.0	-55.0	0.2857142857142857	8.0	2.0	2.0	2.6272077526928364	0.297	n/a	stim	s614
395.189	0.619	-2.996212371619174	draw_card	1.0	columbia_card_task_fmri	21.0	0.6666666666666667	89.0	-55.0	0.3333333333333333	8.0	3.0	2.0	4.119566836319965	0.619	3.0	stim	s614
395.814	2.25	n/a	-1.0	n/a	columbia_card_task_fmri	n/a	n/a	-1.0	n/a	n/a	n/a	n/a	n/a	n/a	n/a	n/a	feedback	s614
398.064	0.476	n/a	-1.0	n/a	columbia_card_task_fmri	n/a	n/a	-1.0	n/a	n/a	n/a	n/a	n/a	n/a	n/a	n/a	ITI	s614
398.544	0.558	4.587120961714156	draw_card	0.0	columbia_card_task_fmri	26.0	0.75	89.0	-65.0	0.25	8.0	1.0	2.0	7.694715956648888	0.558	n/a	stim	s614
399.106	0.269	1.33712096171416	draw_card	1.0	columbia_card_task_fmri	26.0	0.7142857142857143	89.0	-65.0	0.2857142857142857	8.0	2.0	2.0	9.39922928007422	0.269	2.0	stim	s614
399.384	2.25	n/a	-1.0	n/a	columbia_card_task_fmri	n/a	n/a	-1.0	n/a	n/a	n/a	n/a	n/a	n/a	n/a	n/a	feedback	s614
401.634	0.0	n/a	-1.0	n/a	columbia_card_task_fmri	n/a	n/a	-1.0	n/a	n/a	n/a	n/a	n/a	n/a	n/a	n/a	ITI	s614
401.638	0.628	-0.3295457049525097	draw_card	0.0	columbia_card_task_fmri	15.0	0.7777777777777778	89.0	-60.0	0.2222222222222222	9.0	1.0	2.0	-0.5229848702288074	0.628	n/a	stim	s614
402.271	0.305	-2.412879038285844	draw_card	1.0	columbia_card_task_fmri	15.0	0.75	89.0	-60.0	0.25	9.0	2.0	2.0	0.7713474052131879	0.305	2.0	stim	s614
402.585	2.25	n/a	-1.0	n/a	columbia_card_task_fmri	n/a	n/a	-1.0	n/a	n/a	n/a	n/a	n/a	n/a	n/a	n/a	feedback	s614
404.835	0.068	n/a	-1.0	n/a	columbia_card_task_fmri	n/a	n/a	-1.0	n/a	n/a	n/a	n/a	n/a	n/a	n/a	n/a	ITI	s614
404.907	0.45	4.037120961714157	draw_card	0.0	columbia_card_task_fmri	13.0	0.9	89.0	-90.0	0.1	10.0	1.0	1.0	-0.8032032178303474	0.45	n/a	stim	s614
405.362	0.308	2.892676517269712	draw_card	0.0	columbia_card_task_fmri	13.0	0.8888888888888888	89.0	-90.0	0.1111111111111111	10.0	2.0	1.0	0.6652620314950077	0.308	n/a	stim	s614
405.675	1.96	1.4621209617141564	draw_card	0.0	columbia_card_task_fmri	13.0	0.875	89.0	-90.0	0.125	10.0	3.0	1.0	2.3581611429514986	1.96	n/a	stim	s614
407.64	1.172	-0.3771647525715553	end_round	0.0	columbia_card_task_fmri	13.0	0.8571428571428572	71.0	-90.0	0.1428571428571428	10.0	4.0	1.0	4.335165979814708	1.172	3.0	stim	s614
408.817	2.25	n/a	-1.0	n/a	columbia_card_task_fmri	n/a	n/a	-1.0	n/a	n/a	n/a	n/a	n/a	n/a	n/a	n/a	feedback	s614
411.067	0.204	n/a	-1.0	n/a	columbia_card_task_fmri	n/a	n/a	-1.0	n/a	n/a	n/a	n/a	n/a	n/a	n/a	n/a	ITI	s614
411.276	0.505	5.337120961714156	draw_card	0.0	columbia_card_task_fmri	15.0	0.9	89.0	-95.0	0.1	10.0	1.0	1.0	1.294958184062576	0.505	n/a	stim	s614
411.786	0.546	4.114898739491933	draw_card	0.0	columbia_card_task_fmri	15.0	0.8888888888888888	89.0	-95.0	0.1111111111111111	10.0	2.0	1.0	2.8633944753544007	0.546	n/a	stim	s614
412.337	2.093	2.5871209617141564	draw_card	0.0	columbia_card_task_fmri	15.0	0.875	89.0	-95.0	0.125	10.0	3.0	1.0	4.67152533215334	2.093	n/a	stim	s614
414.435	0.956	0.6228352474284429	end_round	0.0	columbia_card_task_fmri	15.0	0.8571428571428572	71.0	-95.0	0.1428571428571428	10.0	4.0	1.0	6.783078903661515	0.956	3.0	stim	s614
415.396	2.25	n/a	-1.0	n/a	columbia_card_task_fmri	n/a	n/a	-1.0	n/a	n/a	n/a	n/a	n/a	n/a	n/a	n/a	feedback	s614
417.646	0.272	n/a	-1.0	n/a	columbia_card_task_fmri	n/a	n/a	-1.0	n/a	n/a	n/a	n/a	n/a	n/a	n/a	n/a	ITI	s614
417.923	0.687	1.137120961714157	draw_card	1.0	columbia_card_task_fmri	16.0	0.8	89.0	-65.0	0.2	10.0	1.0	2.0	0.6954592090569953	0.687	1.0	stim	s614
418.616	2.25	n/a	-1.0	n/a	columbia_card_task_fmri	n/a	n/a	-1.0	n/a	n/a	n/a	n/a	n/a	n/a	n/a	n/a	feedback	s614
420.866	0.068	n/a	-1.0	n/a	columbia_card_task_fmri	n/a	n/a	-1.0	n/a	n/a	n/a	n/a	n/a	n/a	n/a	n/a	ITI	s614
420.939	0.531	-0.1628790382858436	draw_card	0.0	columbia_card_task_fmri	7.0	0.9166666666666666	89.0	-95.0	0.0833333333333333	12.0	1.0	1.0	-3.509117090248786	0.531	n/a	stim	s614
421.475	0.326	-0.935606311013117	draw_card	0.0	columbia_card_task_fmri	7.0	0.9090909090909092	89.0	-95.0	0.0909090909090909	12.0	2.0	1.0	-2.378711270880125	0.326	n/a	stim	s614
421.806	2.299	-1.862879038285844	draw_card	0.0	columbia_card_task_fmri	7.0	0.9	89.0	-95.0	0.1	12.0	3.0	1.0	-1.1029199890607906	2.299	n/a	stim	s614
424.11	0.684	-2.996212371619177	end_round	0.0	columbia_card_task_fmri	7.0	0.8888888888888888	71.0	-95.0	0.1111111111111111	12.0	4.0	1.0	0.3512627534712713	0.684	3.0	stim	s614
424.803	2.25	n/a	-1.0	n/a	columbia_card_task_fmri	n/a	n/a	-1.0	n/a	n/a	n/a	n/a	n/a	n/a	n/a	n/a	feedback	s614
427.053	0.272	n/a	-1.0	n/a	columbia_card_task_fmri	n/a	n/a	-1.0	n/a	n/a	n/a	n/a	n/a	n/a	n/a	n/a	ITI	s614
427.329	0.873	0.5037876283808242	draw_card	0.0	columbia_card_task_fmri	14.0	0.8333333333333334	89.0	-75.0	0.1666666666666666	12.0	1.0	2.0	1.4631625303491766	0.873	n/a	stim	s614
428.207	0.862	-0.844697220104027	draw_card	0.0	columbia_card_task_fmri	14.0	0.8181818181818181	89.0	-75.0	0.1818181818181818	12.0	2.0	2.0	2.6207324568936663	0.862	n/a	stim	s614
429.074	2.461	-2.4628790382858425	draw_card	0.0	columbia_card_task_fmri	14.0	0.8	89.0	-75.0	0.2	12.0	3.0	2.0	3.8929820131558337	2.461	n/a	stim	s614
431.54	0.808	-4.440656816063619	draw_card	1.0	columbia_card_task_fmri	14.0	0.7777777777777778	89.0	-75.0	0.2222222222222222	12.0	4.0	2.0	5.292866453493669	0.808	4.0	stim	s614
432.354	2.25	n/a	-1.0	n/a	columbia_card_task_fmri	n/a	n/a	-1.0	n/a	n/a	n/a	n/a	n/a	n/a	n/a	n/a	feedback	s614
434.604	0.748	n/a	-1.0	n/a	columbia_card_task_fmri	n/a	n/a	-1.0	n/a	n/a	n/a	n/a	n/a	n/a	n/a	n/a	ITI	s614
435.357	0.78	2.1704542950474903	draw_card	0.0	columbia_card_task_fmri	15.0	0.8333333333333334	89.0	-70.0	0.1666666666666666	12.0	1.0	2.0	-0.0262827525466065	0.78	n/a	stim	s614
436.142	0.496	0.8825755071686996	draw_card	0.0	columbia_card_task_fmri	15.0	0.8181818181818181	89.0	-70.0	0.1818181818181818	12.0	2.0	2.0	1.0791780816058072	0.496	n/a	stim	s614
436.643	0.862	-0.6628790382858436	draw_card	1.0	columbia_card_task_fmri	15.0	0.8	89.0	-70.0	0.2	12.0	3.0	2.0	2.29416239175875	0.862	3.0	stim	s614
437.515	2.25	n/a	-1.0	n/a	columbia_card_task_fmri	n/a	n/a	-1.0	n/a	n/a	n/a	n/a	n/a	n/a	n/a	n/a	feedback	s614
439.765	0.068	n/a	-1.0	n/a	columbia_card_task_fmri	n/a	n/a	-1.0	n/a	n/a	n/a	n/a	n/a	n/a	n/a	n/a	ITI	s614
439.837	0.56	0.1371209617141571	draw_card	1.0	columbia_card_task_fmri	16.0	0.8	89.0	-70.0	0.2	15.0	1.0	3.0	2.6938570146719734	0.56	1.0	stim	s614
440.404	2.25	n/a	-1.0	n/a	columbia_card_task_fmri	n/a	n/a	-1.0	n/a	n/a	n/a	n/a	n/a	n/a	n/a	n/a	feedback	s614
442.654	0.0	n/a	-1.0	n/a	columbia_card_task_fmri	n/a	n/a	-1.0	n/a	n/a	n/a	n/a	n/a	n/a	n/a	n/a	ITI	s614
442.659	0.725	0.5246209617141564	draw_card	0.0	columbia_card_task_fmri	14.0	0.8125	89.0	-65.0	0.1875	16.0	1.0	3.0	-0.868464398847081	0.725	n/a	stim	s614
443.39	0.424	-0.4628790382858425	draw_card	0.0	columbia_card_task_fmri	14.0	0.8	89.0	-65.0	0.2	16.0	2.0	3.0	-0.1038431999964366	0.424	n/a	stim	s614
443.819	1.981	-1.5914504668572709	draw_card	0.0	columbia_card_task_fmri	14.0	0.7857142857142857	89.0	-65.0	0.2142857142857142	16.0	3.0	3.0	0.711192186103883	1.981	n/a	stim	s614
445.806	0.76	-2.8936482690550758	end_round	0.0	columbia_card_task_fmri	14.0	0.7692307692307692	71.0	-65.0	0.2307692307692307	16.0	4.0	3.0	1.579405270831206	0.76	3.0	stim	s614
446.574	2.25	n/a	-1.0	n/a	columbia_card_task_fmri	n/a	n/a	-1.0	n/a	n/a	n/a	n/a	n/a	n/a	n/a	n/a	feedback	s614
448.824	0.204	n/a	-1.0	n/a	columbia_card_task_fmri	n/a	n/a	-1.0	n/a	n/a	n/a	n/a	n/a	n/a	n/a	n/a	ITI	s614
449.033	0.643	0.2746209617141564	draw_card	1.0	columbia_card_task_fmri	16.0	0.8125	89.0	-75.0	0.1875	16.0	1.0	3.0	3.8114657391388422	0.643	1.0	stim	s614
449.686	2.25	n/a	-1.0	n/a	columbia_card_task_fmri	n/a	n/a	-1.0	n/a	n/a	n/a	n/a	n/a	n/a	n/a	n/a	feedback	s614
451.936	0.068	n/a	-1.0	n/a	columbia_card_task_fmri	n/a	n/a	-1.0	n/a	n/a	n/a	n/a	n/a	n/a	n/a	n/a	ITI	s614
452.008	0.512	4.537120961714157	draw_card	0.0	columbia_card_task_fmri	16.0	0.8666666666666667	89.0	-80.0	0.1333333333333333	15.0	1.0	2.0	0.9289867382307015	0.512	n/a	stim	s614
452.525	0.328	3.6228352474284446	draw_card	1.0	columbia_card_task_fmri	16.0	0.8571428571428572	89.0	-80.0	0.1428571428571428	15.0	2.0	2.0	1.8874827536149503	0.328	2.0	stim	s614
452.859	2.25	n/a	-1.0	n/a	columbia_card_task_fmri	n/a	n/a	-1.0	n/a	n/a	n/a	n/a	n/a	n/a	n/a	n/a	feedback	s614
455.109	0.068	n/a	-1.0	n/a	columbia_card_task_fmri	n/a	n/a	-1.0	n/a	n/a	n/a	n/a	n/a	n/a	n/a	n/a	ITI	s614
455.181	0.456	5.403787628380824	draw_card	0.0	columbia_card_task_fmri	17.0	0.8666666666666667	89.0	-80.0	0.1333333333333333	15.0	1.0	2.0	1.2686393185017373	0.456	n/a	stim	s614
455.643	0.349	4.479978104571302	draw_card	0.0	columbia_card_task_fmri	17.0	0.8571428571428572	89.0	-80.0	0.1428571428571428	15.0	2.0	2.0	2.237135840858979	0.349	n/a	stim	s614
455.997	0.509	3.414044038637233	draw_card	0.0	columbia_card_task_fmri	17.0	0.8461538461538461	89.0	-80.0	0.1538461538461538	15.0	3.0	2.0	3.2911312785088107	0.509	n/a	stim	s614
456.512	1.277	2.170454295047492	draw_card	0.0	columbia_card_task_fmri	17.0	0.8333333333333334	89.0	-80.0	0.1666666666666666	15.0	4.0	2.0	4.442366161083914	1.277	n/a	stim	s614
457.794	2.476	0.7007573253505179	draw_card	0.0	columbia_card_task_fmri	17.0	0.8181818181818181	89.0	-80.0	0.1818181818181818	15.0	5.0	2.0	5.704143754692222	2.476	n/a	stim	s614
460.275	2.169	-1.0628790382858422	draw_card	1.0	columbia_card_task_fmri	17.0	0.8	89.0	-80.0	0.2	15.0	6.0	2.0	7.090913028549768	2.169	6.0	stim	s614
462.454	2.25	n/a	-1.0	n/a	columbia_card_task_fmri	n/a	n/a	-1.0	n/a	n/a	n/a	n/a	n/a	n/a	n/a	n/a	feedback	s614
464.704	0.34	n/a	-1.0	n/a	columbia_card_task_fmri	n/a	n/a	-1.0	n/a	n/a	n/a	n/a	n/a	n/a	n/a	n/a	ITI	s614
465.049	0.431	1.3371209617141564	draw_card	0.0	columbia_card_task_fmri	1.0	0.9375	89.0	-15.0	0.0625	16.0	1.0	1.0	-27.63481691392742	0.431	n/a	stim	s614
465.485	0.649	1.2704542950474895	draw_card	0.0	columbia_card_task_fmri	1.0	0.9333333333333332	89.0	-15.0	0.0666666666666666	16.0	2.0	1.0	-27.522989273696798	0.649	n/a	stim	s614
466.14	0.393	1.1942638188570136	draw_card	0.0	columbia_card_task_fmri	1.0	0.9285714285714286	89.0	-15.0	0.0714285714285714	16.0	3.0	1.0	-27.39997452433269	0.393	n/a	stim	s614
466.539	0.285	1.1063517309449256	draw_card	0.0	columbia_card_task_fmri	1.0	0.9230769230769232	89.0	-15.0	0.0769230769230769	16.0	4.0	1.0	-27.263853291055725	0.285	n/a	stim	s614
466.83	0.336	1.003787628380823	draw_card	0.0	columbia_card_task_fmri	1.0	0.9166666666666666	89.0	-15.0	0.0833333333333333	16.0	5.0	1.0	-27.112223015315884	0.336	n/a	stim	s614
467.171	0.462	0.8825755071687017	draw_card	0.0	columbia_card_task_fmri	1.0	0.9090909090909092	89.0	-15.0	0.0909090909090909	16.0	6.0	1.0	-26.942034678044333	0.462	n/a	stim	s614
467.639	0.993	0.7371209617141564	draw_card	1.0	columbia_card_task_fmri	1.0	0.9	89.0	-15.0	0.1	16.0	7.0	1.0	-26.74936046300295	0.993	7.0	stim	s614
468.64	2.25	n/a	-1.0	n/a	columbia_card_task_fmri	n/a	n/a	-1.0	n/a	n/a	n/a	n/a	n/a	n/a	n/a	n/a	feedback	s614
470.89	0.0	n/a	-1.0	n/a	columbia_card_task_fmri	n/a	n/a	-1.0	n/a	n/a	n/a	n/a	n/a	n/a	n/a	n/a	ITI	s614
470.897	0.509	4.462120961714156	draw_card	0.0	columbia_card_task_fmri	10.0	0.9375	89.0	-100.0	0.0625	16.0	1.0	1.0	-5.071807394916544	0.509	n/a	stim	s614
471.411	0.227	4.003787628380824	draw_card	0.0	columbia_card_task_fmri	10.0	0.9333333333333332	89.0	-100.0	0.0666666666666666	16.0	2.0	1.0	-4.260738853213688	0.227	n/a	stim	s614
471.643	0.28	3.4799781045713005	draw_card	0.0	columbia_card_task_fmri	10.0	0.9285714285714286	89.0	-100.0	0.0714285714285714	16.0	3.0	1.0	-3.371250590622104	0.28	n/a	stim	s614
471.927	0.38	2.875582500175696	draw_card	1.0	columbia_card_task_fmri	10.0	0.9230769230769232	89.0	-100.0	0.0769230769230769	16.0	4.0	1.0	-2.3900087789614908	0.38	4.0	stim	s614
472.314	2.25	n/a	-1.0	n/a	columbia_card_task_fmri	n/a	n/a	-1.0	n/a	n/a	n/a	n/a	n/a	n/a	n/a	n/a	feedback	s614
474.564	0.0	n/a	-1.0	n/a	columbia_card_task_fmri	n/a	n/a	-1.0	n/a	n/a	n/a	n/a	n/a	n/a	n/a	n/a	ITI	s614
474.568	0.626	5.087120961714156	draw_card	0.0	columbia_card_task_fmri	15.0	0.875	89.0	-75.0	0.125	16.0	1.0	2.0	-1.9373991037216167	0.626	n/a	stim	s614
475.198	0.282	4.337120961714156	draw_card	0.0	columbia_card_task_fmri	15.0	0.8666666666666667	89.0	-75.0	0.1333333333333333	16.0	2.0	2.0	-1.1087972980142382	0.282	n/a	stim	s614
475.485	0.219	3.4799781045713005	draw_card	0.0	columbia_card_task_fmri	15.0	0.8571428571428572	89.0	-75.0	0.1428571428571428	16.0	3.0	2.0	-0.2103080592408197	0.219	n/a	stim	s614
475.709	0.614	2.4909671155603097	draw_card	0.0	columbia_card_task_fmri	15.0	0.8461538461538461	89.0	-75.0	0.1538461538461538	16.0	4.0	2.0	0.767507123770752	0.614	n/a	stim	s614
476.327	1.211	1.3371209617141564	draw_card	1.0	columbia_card_task_fmri	15.0	0.8333333333333334	89.0	-75.0	0.1666666666666666	16.0	5.0	2.0	1.8355414227305964	1.211	5.0	stim	s614
477.545	2.25	n/a	-1.0	n/a	columbia_card_task_fmri	n/a	n/a	-1.0	n/a	n/a	n/a	n/a	n/a	n/a	n/a	n/a	feedback	s614
479.795	0.272	n/a	-1.0	n/a	columbia_card_task_fmri	n/a	n/a	-1.0	n/a	n/a	n/a	n/a	n/a	n/a	n/a	n/a	ITI	s614
480.072	0.416	5.337120961714156	draw_card	0.0	columbia_card_task_fmri	16.0	0.875	89.0	-80.0	0.125	16.0	1.0	2.0	0.0450399319660057	0.416	n/a	stim	s614
480.493	0.302	4.537120961714157	draw_card	0.0	columbia_card_task_fmri	16.0	0.8666666666666667	89.0	-80.0	0.1333333333333333	16.0	2.0	2.0	0.9289867382307015	0.302	n/a	stim	s614
480.8	0.312	3.6228352474284446	draw_card	0.0	columbia_card_task_fmri	16.0	0.8571428571428572	89.0	-80.0	0.1428571428571428	16.0	3.0	2.0	1.8874827536149503	0.312	n/a	stim	s614
481.118	0.377	2.5678901924833863	draw_card	0.0	columbia_card_task_fmri	16.0	0.8461538461538461	89.0	-80.0	0.1538461538461538	16.0	4.0	2.0	2.930595845020082	0.377	n/a	stim	s614
481.501	1.044	1.3371209617141582	draw_card	0.0	columbia_card_task_fmri	16.0	0.8333333333333334	89.0	-80.0	0.1666666666666666	16.0	5.0	2.0	4.069945491429902	1.044	n/a	stim	s614
482.55	1.633	-0.1174244928313004	end_round	0.0	columbia_card_task_fmri	16.0	0.8181818181818181	71.0	-80.0	0.1818181818181818	16.0	6.0	2.0	5.318697806070215	1.633	5.0	stim	s614
484.191	2.25	n/a	-1.0	n/a	columbia_card_task_fmri	n/a	n/a	-1.0	n/a	n/a	n/a	n/a	n/a	n/a	n/a	n/a	feedback	s614
486.441	0.204	n/a	-1.0	n/a	columbia_card_task_fmri	n/a	n/a	-1.0	n/a	n/a	n/a	n/a	n/a	n/a	n/a	n/a	ITI	s614
486.65	0.854	2.5246209617141564	draw_card	0.0	columbia_card_task_fmri	4.0	0.6875	89.0	-5.0	0.3125	16.0	1.0	5.0	-27.351453802154424	0.854	n/a	stim	s614
487.508	0.493	2.337120961714157	draw_card	0.0	columbia_card_task_fmri	4.0	0.6666666666666667	89.0	-5.0	0.3333333333333333	16.0	2.0	5.0	-27.28376158494262	0.493	n/a	stim	s614
488.007	1.103	2.122835247428441	end_round	0.0	columbia_card_task_fmri	4.0	0.6428571428571428	71.0	-5.0	0.3571428571428571	16.0	3.0	5.0	-27.217163591998165	1.103	2.0	stim	s614
489.116	2.25	n/a	-1.0	n/a	columbia_card_task_fmri	n/a	n/a	-1.0	n/a	n/a	n/a	n/a	n/a	n/a	n/a	n/a	feedback	s614
491.366	0.0	n/a	-1.0	n/a	columbia_card_task_fmri	n/a	n/a	-1.0	n/a	n/a	n/a	n/a	n/a	n/a	n/a	n/a	ITI	s614
491.371	1.412	-0.3295457049525079	draw_card	0.0	columbia_card_task_fmri	14.0	0.8333333333333334	89.0	-80.0	0.1666666666666666	6.0	1.0	1.0	3.325120559609605	1.412	n/a	stim	s614
492.789	0.941	-3.4628790382858425	draw_card	0.0	columbia_card_task_fmri	14.0	0.8	89.0	-80.0	0.2	6.0	2.0	1.0	5.891647667563877	0.941	n/a	stim	s614
493.736	1.142	-8.162879038285844	end_round	0.0	columbia_card_task_fmri	14.0	0.75	71.0	-80.0	0.25	6.0	3.0	1.0	8.993030626956209	1.142	2.0	stim	s614
494.884	2.25	n/a	-1.0	n/a	columbia_card_task_fmri	n/a	n/a	-1.0	n/a	n/a	n/a	n/a	n/a	n/a	n/a	n/a	feedback	s614
497.134	0.204	n/a	-1.0	n/a	columbia_card_task_fmri	n/a	n/a	-1.0	n/a	n/a	n/a	n/a	n/a	n/a	n/a	n/a	ITI	s614
497.344	1.688	1.3371209617141564	draw_card	0.0	columbia_card_task_fmri	15.0	0.8333333333333334	89.0	-75.0	0.1666666666666666	6.0	1.0	1.0	1.8355414227305964	1.688	n/a	stim	s614
499.037	0.368	-1.6628790382858436	draw_card	0.0	columbia_card_task_fmri	15.0	0.8	89.0	-75.0	0.2	6.0	2.0	1.0	4.292703295316425	0.368	n/a	stim	s614
499.41	1.25	-6.162879038285844	end_round	0.0	columbia_card_task_fmri	15.0	0.75	71.0	-75.0	0.25	6.0	3.0	1.0	7.261955108156858	1.25	2.0	stim	s614
500.666	2.25	n/a	-1.0	n/a	columbia_card_task_fmri	n/a	n/a	-1.0	n/a	n/a	n/a	n/a	n/a	n/a	n/a	n/a	feedback	s614
502.916	0.204	n/a	-1.0	n/a	columbia_card_task_fmri	n/a	n/a	-1.0	n/a	n/a	n/a	n/a	n/a	n/a	n/a	n/a	ITI	s614
503.125	0.645	3.003787628380824	draw_card	0.0	columbia_card_task_fmri	16.0	0.8333333333333334	89.0	-70.0	0.1666666666666666	6.0	1.0	1.0	0.3460675356489169	0.645	n/a	stim	s614
503.775	0.304	0.1371209617141571	draw_card	1.0	columbia_card_task_fmri	16.0	0.8	89.0	-70.0	0.2	6.0	2.0	1.0	2.6938570146719734	0.304	2.0	stim	s614
504.086	2.25	n/a	-1.0	n/a	columbia_card_task_fmri	n/a	n/a	-1.0	n/a	n/a	n/a	n/a	n/a	n/a	n/a	n/a	feedback	s614
506.336	0.272	n/a	-1.0	n/a	columbia_card_task_fmri	n/a	n/a	-1.0	n/a	n/a	n/a	n/a	n/a	n/a	n/a	n/a	ITI	s614
506.614	0.594	3.5871209617141564	draw_card	0.0	columbia_card_task_fmri	23.0	0.75	89.0	-60.0	0.25	8.0	1.0	2.0	4.232798927437084	0.594	n/a	stim	s614
507.214	0.297	0.6228352474284446	draw_card	1.0	columbia_card_task_fmri	23.0	0.7142857142857143	89.0	-60.0	0.2857142857142857	8.0	2.0	2.0	5.78729178705883	0.297	2.0	stim	s614
507.518	2.25	n/a	-1.0	n/a	columbia_card_task_fmri	n/a	n/a	-1.0	n/a	n/a	n/a	n/a	n/a	n/a	n/a	n/a	feedback	s614
509.768	0.204	n/a	-1.0	n/a	columbia_card_task_fmri	n/a	n/a	-1.0	n/a	n/a	n/a	n/a	n/a	n/a	n/a	n/a	ITI	s614
509.979	0.637	4.087120961714156	draw_card	1.0	columbia_card_task_fmri	27.0	0.75	89.0	-70.0	0.25	8.0	1.0	2.0	10.291390010755196	0.637	1.0	stim	s614
510.623	2.25	n/a	-1.0	n/a	columbia_card_task_fmri	n/a	n/a	-1.0	n/a	n/a	n/a	n/a	n/a	n/a	n/a	n/a	feedback	s614
512.873	0.408	n/a	-1.0	n/a	columbia_card_task_fmri	n/a	n/a	-1.0	n/a	n/a	n/a	n/a	n/a	n/a	n/a	n/a	ITI	s614
513.285	0.67	-0.6628790382858418	draw_card	0.0	columbia_card_task_fmri	16.0	0.7777777777777778	89.0	-65.0	0.2222222222222222	9.0	1.0	2.0	1.9693323929572168	0.67	n/a	stim	s614
513.961	0.314	-2.912879038285844	draw_card	0.0	columbia_card_task_fmri	16.0	0.75	89.0	-65.0	0.25	9.0	2.0	2.0	3.3673870255022145	0.314	n/a	stim	s614
514.281	0.986	-5.805736181142985	end_round	0.0	columbia_card_task_fmri	16.0	0.7142857142857143	71.0	-65.0	0.2857142857142857	9.0	3.0	2.0	4.884371985330983	0.986	2.0	stim	s614
515.274	2.25	n/a	-1.0	n/a	columbia_card_task_fmri	n/a	n/a	-1.0	n/a	n/a	n/a	n/a	n/a	n/a	n/a	n/a	feedback	s614
517.524	0.136	n/a	-1.0	n/a	columbia_card_task_fmri	n/a	n/a	-1.0	n/a	n/a	n/a	n/a	n/a	n/a	n/a	n/a	ITI	s614
517.666	0.707	4.537120961714157	draw_card	0.0	columbia_card_task_fmri	13.0	0.9	89.0	-85.0	0.1	10.0	1.0	1.0	-2.3017293590810475	0.707	n/a	stim	s614
518.378	0.254	3.448232072825267	draw_card	1.0	columbia_card_task_fmri	13.0	0.8888888888888888	89.0	-85.0	0.1111111111111111	10.0	2.0	1.0	-0.9046792500427792	0.254	2.0	stim	s614
518.642	2.25	n/a	-1.0	n/a	columbia_card_task_fmri	n/a	n/a	-1.0	n/a	n/a	n/a	n/a	n/a	n/a	n/a	n/a	feedback	s614
520.892	0.272	n/a	-1.0	n/a	columbia_card_task_fmri	n/a	n/a	-1.0	n/a	n/a	n/a	n/a	n/a	n/a	n/a	n/a	ITI	s614
521.169	0.478	-0.4628790382858425	end_round	0.0	columbia_card_task_fmri	14.0	0.8	71.0	-65.0	0.2	10.0	1.0	2.0	-0.1038431999964366	0.478	0.0	stim	s614
521.656	2.25	n/a	-1.0	n/a	columbia_card_task_fmri	n/a	n/a	-1.0	n/a	n/a	n/a	n/a	n/a	n/a	n/a	n/a	feedback	s614
523.906	0.34	n/a	-1.0	n/a	columbia_card_task_fmri	n/a	n/a	-1.0	n/a	n/a	n/a	n/a	n/a	n/a	n/a	n/a	ITI	s614
524.252	0.647	0.9371209617141578	draw_card	0.0	columbia_card_task_fmri	17.0	0.8	89.0	-70.0	0.2	10.0	1.0	2.0	3.0935586498947494	0.647	n/a	stim	s614
524.905	0.27	-0.9962123716191758	draw_card	0.0	columbia_card_task_fmri	17.0	0.7777777777777778	89.0	-70.0	0.2222222222222222	10.0	2.0	2.0	4.461941884315461	0.27	n/a	stim	s614
525.181	2.875	-3.412879038285844	draw_card	0.0	columbia_card_task_fmri	17.0	0.75	89.0	-70.0	0.25	10.0	3.0	2.0	5.963707269139622	2.875	n/a	stim	s614
528.061	0.711	-6.520021895428702	end_round	0.0	columbia_card_task_fmri	17.0	0.7142857142857143	71.0	-70.0	0.2857142857142857	10.0	4.0	2.0	7.593212434713447	0.711	3.0	stim	s614
528.779	2.25	n/a	-1.0	n/a	columbia_card_task_fmri	n/a	n/a	-1.0	n/a	n/a	n/a	n/a	n/a	n/a	n/a	n/a	feedback	s614
531.029	0.136	n/a	-1.0	n/a	columbia_card_task_fmri	n/a	n/a	-1.0	n/a	n/a	n/a	n/a	n/a	n/a	n/a	n/a	ITI	s614
531.17	0.627	-0.3295457049525097	draw_card	0.0	columbia_card_task_fmri	13.0	0.8333333333333334	89.0	-75.0	0.1666666666666666	12.0	1.0	2.0	1.0907904274150615	0.627	n/a	stim	s614
531.802	0.502	-1.6628790382858454	draw_card	0.0	columbia_card_task_fmri	13.0	0.8181818181818181	89.0	-75.0	0.1818181818181818	12.0	2.0	2.0	2.2353334429958416	0.502	n/a	stim	s614
532.309	0.622	-3.2628790382858432	draw_card	0.0	columbia_card_task_fmri	13.0	0.8	89.0	-75.0	0.2	12.0	3.0	2.0	3.493267058721546	0.622	n/a	stim	s614
532.937	1.593	-5.218434593841398	draw_card	0.0	columbia_card_task_fmri	13.0	0.7777777777777778	89.0	-75.0	0.2222222222222222	12.0	4.0	2.0	4.877401019501892	1.593	n/a	stim	s614
534.535	0.654	-7.662879038285844	end_round	0.0	columbia_card_task_fmri	13.0	0.75	71.0	-75.0	0.25	12.0	5.0	2.0	6.396450567446312	0.654	4.0	stim	s614
535.198	2.25	n/a	-1.0	n/a	columbia_card_task_fmri	n/a	n/a	-1.0	n/a	n/a	n/a	n/a	n/a	n/a	n/a	n/a	feedback	s614
537.448	0.34	n/a	-1.0	n/a	columbia_card_task_fmri	n/a	n/a	-1.0	n/a	n/a	n/a	n/a	n/a	n/a	n/a	n/a	ITI	s614
537.794	1.762	1.3371209617141582	draw_card	0.0	columbia_card_task_fmri	14.0	0.8333333333333334	89.0	-70.0	0.1666666666666666	12.0	1.0	2.0	-0.3986252487035457	1.762	n/a	stim	s614
539.561	0.502	0.0643936889868812	draw_card	0.0	columbia_card_task_fmri	14.0	0.8181818181818181	89.0	-70.0	0.1818181818181818	12.0	2.0	2.0	0.6938076802006599	0.502	n/a	stim	s614
540.069	0.734	-1.4628790382858423	draw_card	0.0	columbia_card_task_fmri	14.0	0.8	89.0	-70.0	0.2	12.0	3.0	2.0	1.8944750312055767	0.734	n/a	stim	s614
540.809	1.199	-3.3295457049525097	draw_card	0.0	columbia_card_task_fmri	14.0	0.7777777777777778	89.0	-70.0	0.2222222222222222	12.0	4.0	2.0	3.21560451798047	1.199	n/a	stim	s614
542.014	0.704	-5.662879038285844	end_round	0.0	columbia_card_task_fmri	14.0	0.75	71.0	-70.0	0.25	12.0	5.0	2.0	4.665515822523478	0.704	4.0	stim	s614
542.725	2.25	n/a	-1.0	n/a	columbia_card_task_fmri	n/a	n/a	-1.0	n/a	n/a	n/a	n/a	n/a	n/a	n/a	n/a	feedback	s614
544.975	0.068	n/a	-1.0	n/a	columbia_card_task_fmri	n/a	n/a	-1.0	n/a	n/a	n/a	n/a	n/a	n/a	n/a	n/a	ITI	s614
545.05	0.952	1.3371209617141582	draw_card	0.0	columbia_card_task_fmri	16.0	0.8333333333333334	89.0	-80.0	0.1666666666666666	12.0	1.0	2.0	4.069945491429902	0.952	n/a	stim	s614
546.011	0.297	-0.1174244928313004	draw_card	0.0	columbia_card_task_fmri	16.0	0.8181818181818181	89.0	-80.0	0.1818181818181818	12.0	2.0	2.0	5.318697806070215	0.297	n/a	stim	s614
546.314	0.291	-1.862879038285843	draw_card	0.0	columbia_card_task_fmri	16.0	0.8	89.0	-80.0	0.2	12.0	3.0	2.0	6.69115281121238	0.291	n/a	stim	s614
546.612	0.666	-3.9962123716191775	draw_card	0.0	columbia_card_task_fmri	16.0	0.7777777777777778	89.0	-80.0	0.2222222222222222	12.0	4.0	2.0	8.201284343423392	0.666	n/a	stim	s614
547.282	0.622	-6.662879038285844	end_round	0.0	columbia_card_task_fmri	16.0	0.75	71.0	-80.0	0.25	12.0	5.0	2.0	9.858598839809904	0.622	4.0	stim	s614
547.912	2.25	n/a	-1.0	n/a	columbia_card_task_fmri	n/a	n/a	-1.0	n/a	n/a	n/a	n/a	n/a	n/a	n/a	n/a	feedback	s614
550.162	0.0	n/a	-1.0	n/a	columbia_card_task_fmri	n/a	n/a	-1.0	n/a	n/a	n/a	n/a	n/a	n/a	n/a	n/a	ITI	s614
550.17	1.037	1.137120961714157	draw_card	0.0	columbia_card_task_fmri	16.0	0.8	89.0	-65.0	0.2	15.0	1.0	3.0	0.6954592090569953	1.037	n/a	stim	s614
551.212	0.338	-0.0200218954286994	draw_card	0.0	columbia_card_task_fmri	16.0	0.7857142857142857	89.0	-65.0	0.2142857142857142	15.0	2.0	3.0	1.5311639125663596	0.338	n/a	stim	s614
551.556	0.555	-1.355186730593537	draw_card	0.0	columbia_card_task_fmri	16.0	0.7692307692307692	89.0	-65.0	0.2307692307692307	15.0	3.0	3.0	2.4213929909096485	0.555	n/a	stim	s614
552.116	0.709	-2.912879038285844	draw_card	0.0	columbia_card_task_fmri	16.0	0.75	89.0	-65.0	0.25	15.0	4.0	3.0	3.3673870255022145	0.709	n/a	stim	s614
552.831	2.007	-4.753788129194934	end_round	0.0	columbia_card_task_fmri	16.0	0.7272727272727273	71.0	-65.0	0.2727272727272727	15.0	5.0	3.0	4.366955685696507	2.007	4.0	stim	s614
554.844	2.25	n/a	-1.0	n/a	columbia_card_task_fmri	n/a	n/a	-1.0	n/a	n/a	n/a	n/a	n/a	n/a	n/a	n/a	feedback	s614
557.094	0.204	n/a	-1.0	n/a	columbia_card_task_fmri	n/a	n/a	-1.0	n/a	n/a	n/a	n/a	n/a	n/a	n/a	n/a	ITI	s614
557.304	0.714	-0.5378790382858436	draw_card	0.0	columbia_card_task_fmri	15.0	0.8125	89.0	-75.0	0.1875	16.0	1.0	3.0	3.42143271426728	0.714	n/a	stim	s614
558.024	0.42	-1.6628790382858436	draw_card	0.0	columbia_card_task_fmri	15.0	0.8	89.0	-75.0	0.2	16.0	2.0	3.0	4.292703295316425	0.42	n/a	stim	s614
558.451	0.62	-2.9485933240001283	draw_card	0.0	columbia_card_task_fmri	15.0	0.7857142857142857	89.0	-75.0	0.2142857142857142	16.0	3.0	3.0	5.221410327810919	0.62	n/a	stim	s614
559.078	0.942	-4.432109807516618	draw_card	0.0	columbia_card_task_fmri	15.0	0.7692307692307692	89.0	-75.0	0.2307692307692307	16.0	4.0	3.0	6.210701666249637	0.942	n/a	stim	s614
560.027	1.828	-6.162879038285844	end_round	0.0	columbia_card_task_fmri	15.0	0.75	71.0	-75.0	0.25	16.0	5.0	3.0	7.261955108156858	1.828	4.0	stim	s614
561.863	2.25	n/a	-1.0	n/a	columbia_card_task_fmri	n/a	n/a	-1.0	n/a	n/a	n/a	n/a	n/a	n/a	n/a	n/a	feedback	s614
564.113	1.02	n/a	-1.0	n/a	columbia_card_task_fmri	n/a	n/a	-1.0	n/a	n/a	n/a	n/a	n/a	n/a	n/a	n/a	ITI	s614
565.139	0.694	0.0246209617141563	draw_card	0.0	columbia_card_task_fmri	14.0	0.6875	89.0	-35.0	0.3125	16.0	1.0	5.0	-8.980686268406764	0.694	n/a	stim	s614
565.84	0.486	-0.9962123716191758	draw_card	0.0	columbia_card_task_fmri	14.0	0.6666666666666667	89.0	-35.0	0.3333333333333333	16.0	2.0	5.0	-8.594629888510589	0.486	n/a	stim	s614
566.333	0.687	-2.162879038285844	draw_card	0.0	columbia_card_task_fmri	14.0	0.6428571428571428	89.0	-35.0	0.3571428571428571	16.0	3.0	5.0	-8.215362291630338	0.687	n/a	stim	s614
567.027	0.464	-3.5090328844396885	draw_card	0.0	columbia_card_task_fmri	14.0	0.6153846153846154	89.0	-35.0	0.3846153846153846	16.0	4.0	5.0	-7.855941143392616	0.464	n/a	stim	s614
567.499	0.561	-5.079545704952512	draw_card	0.0	columbia_card_task_fmri	14.0	0.5833333333333333	89.0	-35.0	0.4166666666666667	16.0	5.0	5.0	-7.537817323094437	0.561	n/a	stim	s614
568.069	2.099	-6.935606311013117	end_round	0.0	columbia_card_task_fmri	14.0	0.5454545454545454	71.0	-35.0	0.4545454545454545	16.0	6.0	5.0	-7.296957849160613	2.099	5.0	stim	s614
570.178	2.25	n/a	-1.0	n/a	columbia_card_task_fmri	n/a	n/a	-1.0	n/a	n/a	n/a	n/a	n/a	n/a	n/a	n/a	feedback	s614
572.428	0.0	n/a	-1.0	n/a	columbia_card_task_fmri	n/a	n/a	-1.0	n/a	n/a	n/a	n/a	n/a	n/a	n/a	n/a	ITI	s614
572.435	0.997	5.203787628380823	draw_card	0.0	columbia_card_task_fmri	16.0	0.8666666666666667	89.0	-75.0	0.1333333333333333	15.0	1.0	2.0	-0.769183303445061	0.997	n/a	stim	s614
573.44	0.445	4.337120961714158	draw_card	1.0	columbia_card_task_fmri	16.0	0.8571428571428572	89.0	-75.0	0.1428571428571428	15.0	2.0	2.0	0.1393075385390112	0.445	2.0	stim	s614
573.892	2.25	n/a	-1.0	n/a	columbia_card_task_fmri	n/a	n/a	-1.0	n/a	n/a	n/a	n/a	n/a	n/a	n/a	n/a	feedback	s614
576.142	0.0	n/a	-1.0	n/a	columbia_card_task_fmri	n/a	n/a	-1.0	n/a	n/a	n/a	n/a	n/a	n/a	n/a	n/a	ITI	s614
576.149	0.587	5.870454295047489	draw_card	0.0	columbia_card_task_fmri	16.0	0.8666666666666667	89.0	-70.0	0.1333333333333333	15.0	1.0	2.0	-2.467178821835628	0.587	n/a	stim	s614
576.744	0.475	5.051406675999871	draw_card	0.0	columbia_card_task_fmri	16.0	0.8571428571428572	89.0	-70.0	0.1428571428571428	15.0	2.0	2.0	-1.608698110091673	0.475	n/a	stim	s614
577.227	1.065	4.106351730944924	draw_card	0.0	columbia_card_task_fmri	16.0	0.8461538461538461	89.0	-70.0	0.1538461538461538	15.0	3.0	2.0	-0.6744189786718451	1.065	n/a	stim	s614
578.298	0.454	3.003787628380824	draw_card	1.0	columbia_card_task_fmri	16.0	0.8333333333333334	89.0	-70.0	0.1666666666666666	15.0	4.0	2.0	0.3460675356489169	0.454	4.0	stim	s614
578.759	2.25	n/a	-1.0	n/a	columbia_card_task_fmri	n/a	n/a	-1.0	n/a	n/a	n/a	n/a	n/a	n/a	n/a	n/a	feedback	s614
581.009	0.068	n/a	-1.0	n/a	columbia_card_task_fmri	n/a	n/a	-1.0	n/a	n/a	n/a	n/a	n/a	n/a	n/a	n/a	ITI	s614
581.082	0.668	3.2121209617141564	draw_card	0.0	columbia_card_task_fmri	8.0	0.9375	89.0	-90.0	0.0625	16.0	1.0	1.0	-7.972442642744983	0.668	n/a	stim	s614
581.756	0.325	2.803787628380823	draw_card	0.0	columbia_card_task_fmri	8.0	0.9333333333333332	89.0	-90.0	0.0666666666666666	16.0	2.0	1.0	-7.250083414720162	0.325	n/a	stim	s614
582.087	0.407	2.3371209617141573	draw_card	0.0	columbia_card_task_fmri	8.0	0.9285714285714286	89.0	-90.0	0.0714285714285714	16.0	3.0	1.0	-6.457866437083752	0.407	n/a	stim	s614
582.499	0.36	1.798659423252618	draw_card	0.0	columbia_card_task_fmri	8.0	0.9230769230769232	89.0	-90.0	0.0769230769230769	16.0	4.0	1.0	-5.583913147731341	0.36	n/a	stim	s614
582.864	1.103	1.1704542950474894	draw_card	0.0	columbia_card_task_fmri	8.0	0.9166666666666666	89.0	-90.0	0.0833333333333333	16.0	5.0	1.0	-4.613366671310811	1.103	n/a	stim	s614
583.974	1.916	0.4280300526232472	draw_card	0.0	columbia_card_task_fmri	8.0	0.9090909090909092	89.0	-90.0	0.0909090909090909	16.0	6.0	1.0	-3.527388100763929	1.916	n/a	stim	s614
585.896	0.929	-0.4628790382858434	draw_card	0.0	columbia_card_task_fmri	8.0	0.9	89.0	-90.0	0.1	16.0	7.0	1.0	-2.3017293590810475	0.929	n/a	stim	s614
586.83	0.702	-1.5517679271747329	draw_card	0.0	columbia_card_task_fmri	8.0	0.8888888888888888	89.0	-90.0	0.1111111111111111	16.0	8.0	1.0	-0.9046792500427792	0.702	n/a	stim	s614
587.537	0.941	-2.912879038285844	end_round	0.0	columbia_card_task_fmri	8.0	0.875	71.0	-90.0	0.125	16.0	9.0	1.0	0.7059038818574344	0.941	8.0	stim	s614
588.488	2.25	n/a	-1.0	n/a	columbia_card_task_fmri	n/a	n/a	-1.0	n/a	n/a	n/a	n/a	n/a	n/a	n/a	n/a	feedback	s614
590.738	0.476	n/a	-1.0	n/a	columbia_card_task_fmri	n/a	n/a	-1.0	n/a	n/a	n/a	n/a	n/a	n/a	n/a	n/a	ITI	s614
591.22	1.994	4.774620961714156	draw_card	0.0	columbia_card_task_fmri	10.0	0.9375	89.0	-95.0	0.0625	16.0	1.0	1.0	-6.28051912859172	1.994	n/a	stim	s614
593.22	0.449	4.337120961714158	draw_card	0.0	columbia_card_task_fmri	10.0	0.9333333333333332	89.0	-95.0	0.0666666666666666	16.0	2.0	1.0	-5.506409462651387	0.449	n/a	stim	s614
593.677	0.363	3.837120961714157	draw_card	0.0	columbia_card_task_fmri	10.0	0.9285714285714286	89.0	-95.0	0.0714285714285714	16.0	3.0	1.0	-4.6574474588188615	0.363	n/a	stim	s614
594.048	0.779	3.26019788479108	draw_card	0.0	columbia_card_task_fmri	10.0	0.9230769230769232	89.0	-95.0	0.0769230769230769	16.0	4.0	1.0	-3.720905639955184	0.779	n/a	stim	s614
594.834	0.68	2.5871209617141564	draw_card	0.0	columbia_card_task_fmri	10.0	0.9166666666666666	89.0	-95.0	0.0833333333333333	16.0	5.0	1.0	-2.680865409765097	0.68	n/a	stim	s614
595.522	1.009	1.7916664162596097	draw_card	0.0	columbia_card_task_fmri	10.0	0.9090909090909092	89.0	-95.0	0.0909090909090909	16.0	6.0	1.0	-1.5171416268140518	1.009	n/a	stim	s614
596.538	0.965	0.8371209617141564	draw_card	0.0	columbia_card_task_fmri	10.0	0.9	89.0	-95.0	0.1	16.0	7.0	1.0	-0.2037535130585723	0.965	n/a	stim	s614
597.509	0.802	-0.3295457049525097	draw_card	0.0	columbia_card_task_fmri	10.0	0.8888888888888888	89.0	-95.0	0.1111111111111111	16.0	8.0	1.0	1.293276019806104	0.802	n/a	stim	s614
598.317	2.419	-1.7878790382858436	end_round	0.0	columbia_card_task_fmri	10.0	0.875	71.0	-95.0	0.125	16.0	9.0	1.0	3.019099668145227	2.419	8.0	stim	s614
600.743	2.25	n/a	-1.0	n/a	columbia_card_task_fmri	n/a	n/a	-1.0	n/a	n/a	n/a	n/a	n/a	n/a	n/a	n/a	feedback	s614
602.993	0.136	n/a	-1.0	n/a	columbia_card_task_fmri	n/a	n/a	-1.0	n/a	n/a	n/a	n/a	n/a	n/a	n/a	n/a	ITI	s614
603.136	1.297	5.712120961714156	draw_card	0.0	columbia_card_task_fmri	15.0	0.875	89.0	-70.0	0.125	16.0	1.0	2.0	-3.589229810084923	1.297	n/a	stim	s614
604.441	0.482	5.003787628380822	draw_card	0.0	columbia_card_task_fmri	15.0	0.8666666666666667	89.0	-70.0	0.1333333333333333	16.0	2.0	2.0	-2.806754277989416	0.482	n/a	stim	s614
604.93	0.686	4.194263818857014	draw_card	0.0	columbia_card_task_fmri	15.0	0.8571428571428572	89.0	-70.0	0.1428571428571428	16.0	3.0	2.0	-1.958276263633465	0.686	n/a	stim	s614
605.623	1.056	3.260197884791078	draw_card	0.0	columbia_card_task_fmri	15.0	0.8461538461538461	89.0	-70.0	0.1538461538461538	16.0	4.0	2.0	-1.0348817253491165	1.056	n/a	stim	s614
606.686	0.69	2.1704542950474903	end_round	0.0	columbia_card_task_fmri	15.0	0.8333333333333334	71.0	-70.0	0.1666666666666666	16.0	5.0	2.0	-0.0262827525466065	0.69	4.0	stim	s614
607.388	2.25	n/a	-1.0	n/a	columbia_card_task_fmri	n/a	n/a	-1.0	n/a	n/a	n/a	n/a	n/a	n/a	n/a	n/a	feedback	s614
609.638	0.068	n/a	-1.0	n/a	columbia_card_task_fmri	n/a	n/a	-1.0	n/a	n/a	n/a	n/a	n/a	n/a	n/a	n/a	ITI	s614
609.711	0.489	4.712120961714156	draw_card	0.0	columbia_card_task_fmri	16.0	0.875	89.0	-85.0	0.125	16.0	1.0	2.0	1.697242368840744	0.489	n/a	stim	s614
610.206	0.43	3.8704542950474896	draw_card	1.0	columbia_card_task_fmri	16.0	0.8666666666666667	89.0	-85.0	0.1333333333333333	16.0	2.0	2.0	2.627305426440291	0.43	2.0	stim	s614
610.645	2.25	n/a	-1.0	n/a	columbia_card_task_fmri	n/a	n/a	-1.0	n/a	n/a	n/a	n/a	n/a	n/a	n/a	n/a	feedback	s614
612.895	0.0	n/a	-1.0	n/a	columbia_card_task_fmri	n/a	n/a	-1.0	n/a	n/a	n/a	n/a	n/a	n/a	n/a	n/a	ITI	s614
