onset	duration	planning	condition	current_position	exp_stage	experiment_exp_id	goal_state	key_press	problem_id	response_time	start_state	trial_id	worker_id
-56.435	0.0	0	n/a	n/a	n/a	ward_and_allport	n/a	32.0	n/a	19.359	n/a	instructions	s614
3.012	6.889	1	UA_with_intermediate	1,0,0,2,0,0,0,0,0	practice	ward_and_allport	1,2,3,0,0,0,0,0,0	71.0	0.0	6.889	1,0,0,2,3,0,0,0,0	to_hand	s614
9.903	1.592	0	UA_with_intermediate	1,3,0,2,0,0,0,0,0	practice	ward_and_allport	1,2,3,0,0,0,0,0,0	89.0	0.0	1.592	1,0,0,2,3,0,0,0,0	to_board	s614
11.498	3.425	0	UA_with_intermediate	1,3,0,0,0,0,0,0,0	practice	ward_and_allport	1,2,3,0,0,0,0,0,0	71.0	0.0	3.425	1,0,0,2,3,0,0,0,0	to_hand	s614
14.925	13.351	0	UA_with_intermediate	1,3,0,0,0,0,2,0,0	practice	ward_and_allport	1,2,3,0,0,0,0,0,0	82.0	0.0	13.351	1,0,0,2,3,0,0,0,0	to_board	s614
28.278	5.057	0	UA_with_intermediate	1,0,0,0,0,0,2,0,0	practice	ward_and_allport	1,2,3,0,0,0,0,0,0	89.0	0.0	5.057	1,0,0,2,3,0,0,0,0	to_hand	s614
33.337	1.832	0	UA_with_intermediate	1,0,0,3,0,0,2,0,0	practice	ward_and_allport	1,2,3,0,0,0,0,0,0	71.0	0.0	1.832	1,0,0,2,3,0,0,0,0	to_board	s614
35.171	1.727	0	UA_with_intermediate	1,0,0,3,0,0,0,0,0	practice	ward_and_allport	1,2,3,0,0,0,0,0,0	82.0	0.0	1.727	1,0,0,2,3,0,0,0,0	to_hand	s614
36.9	1.086	0	UA_with_intermediate	1,2,0,3,0,0,0,0,0	practice	ward_and_allport	1,2,3,0,0,0,0,0,0	89.0	0.0	1.086	1,0,0,2,3,0,0,0,0	to_board	s614
37.989	1.389	0	UA_with_intermediate	1,2,0,0,0,0,0,0,0	practice	ward_and_allport	1,2,3,0,0,0,0,0,0	71.0	0.0	1.389	1,0,0,2,3,0,0,0,0	to_hand	s614
39.38	0.626	0	UA_with_intermediate	1,2,3,0,0,0,0,0,0	practice	ward_and_allport	1,2,3,0,0,0,0,0,0	89.0	0.0	0.626	1,0,0,2,3,0,0,0,0	to_board	s614
40.011	1.0	0	UA_with_intermediate	n/a	practice	ward_and_allport	n/a	-1.0	0.0	n/a	n/a	feedback	s614
42.513	7.989	1	UA_with_intermediate	1,0,0,3,0,0,0,0,0	practice	ward_and_allport	1,3,2,0,0,0,0,0,0	89.0	1.0	7.989	1,2,0,3,0,0,0,0,0	to_hand	s614
50.503	1.473	0	UA_with_intermediate	1,0,0,3,0,0,2,0,0	practice	ward_and_allport	1,3,2,0,0,0,0,0,0	82.0	1.0	1.473	1,2,0,3,0,0,0,0,0	to_board	s614
51.978	1.434	0	UA_with_intermediate	1,0,0,0,0,0,2,0,0	practice	ward_and_allport	1,3,2,0,0,0,0,0,0	71.0	1.0	1.434	1,2,0,3,0,0,0,0,0	to_hand	s614
53.413	1.012	0	UA_with_intermediate	1,3,0,0,0,0,2,0,0	practice	ward_and_allport	1,3,2,0,0,0,0,0,0	89.0	1.0	1.012	1,2,0,3,0,0,0,0,0	to_board	s614
54.427	2.849	0	UA_with_intermediate	1,3,0,0,0,0,0,0,0	practice	ward_and_allport	1,3,2,0,0,0,0,0,0	82.0	1.0	2.849	1,2,0,3,0,0,0,0,0	to_hand	s614
57.277	0.903	0	UA_with_intermediate	1,3,2,0,0,0,0,0,0	practice	ward_and_allport	1,3,2,0,0,0,0,0,0	89.0	1.0	0.903	1,2,0,3,0,0,0,0,0	to_board	s614
58.187	1.0	0	UA_with_intermediate	n/a	practice	ward_and_allport	n/a	-1.0	1.0	n/a	n/a	feedback	s614
59.187	1.1	0	UA_with_intermediate	n/a	practice	ward_and_allport	n/a	-1.0	1.0	n/a	n/a	ITI	s614
60.288	13.464	1	UA_without_intermediate	0,0,0,1,2,0,0,0,0	practice	ward_and_allport	3,2,1,0,0,0,0,0,0	82.0	2.0	13.464	0,0,0,1,2,0,3,0,0	to_hand	s614
73.753	3.846	0	UA_without_intermediate	3,0,0,1,2,0,0,0,0	practice	ward_and_allport	3,2,1,0,0,0,0,0,0	89.0	2.0	3.846	0,0,0,1,2,0,3,0,0	to_board	s614
77.602	1.338	0	UA_without_intermediate	3,0,0,1,0,0,0,0,0	practice	ward_and_allport	3,2,1,0,0,0,0,0,0	71.0	2.0	1.338	0,0,0,1,2,0,3,0,0	to_hand	s614
78.941	1.477	0	UA_without_intermediate	3,2,0,1,0,0,0,0,0	practice	ward_and_allport	3,2,1,0,0,0,0,0,0	89.0	2.0	1.477	0,0,0,1,2,0,3,0,0	to_board	s614
80.42	2.133	0	UA_without_intermediate	3,2,0,0,0,0,0,0,0	practice	ward_and_allport	3,2,1,0,0,0,0,0,0	71.0	2.0	2.133	0,0,0,1,2,0,3,0,0	to_hand	s614
82.554	0.643	0	UA_without_intermediate	3,2,1,0,0,0,0,0,0	practice	ward_and_allport	3,2,1,0,0,0,0,0,0	89.0	2.0	0.643	0,0,0,1,2,0,3,0,0	to_board	s614
83.203	1.0	0	UA_without_intermediate	n/a	practice	ward_and_allport	n/a	-1.0	2.0	n/a	n/a	feedback	s614
84.203	1.2	0	UA_without_intermediate	n/a	practice	ward_and_allport	n/a	-1.0	2.0	n/a	n/a	ITI	s614
85.405	4.671	1	UA_without_intermediate	0,0,0,1,0,0,3,0,0	practice	ward_and_allport	2,3,1,0,0,0,0,0,0	71.0	3.0	4.671	0,0,0,1,2,0,3,0,0	to_hand	s614
90.078	0.768	0	UA_without_intermediate	2,0,0,1,0,0,3,0,0	practice	ward_and_allport	2,3,1,0,0,0,0,0,0	89.0	3.0	0.768	0,0,0,1,2,0,3,0,0	to_board	s614
90.85	2.068	0	UA_without_intermediate	2,0,0,1,0,0,0,0,0	practice	ward_and_allport	2,3,1,0,0,0,0,0,0	82.0	3.0	2.068	0,0,0,1,2,0,3,0,0	to_hand	s614
92.92	1.143	0	UA_without_intermediate	2,3,0,1,0,0,0,0,0	practice	ward_and_allport	2,3,1,0,0,0,0,0,0	89.0	3.0	1.143	0,0,0,1,2,0,3,0,0	to_board	s614
94.066	0.828	0	UA_without_intermediate	2,3,0,0,0,0,0,0,0	practice	ward_and_allport	2,3,1,0,0,0,0,0,0	71.0	3.0	0.828	0,0,0,1,2,0,3,0,0	to_hand	s614
94.895	0.545	0	UA_without_intermediate	2,3,1,0,0,0,0,0,0	practice	ward_and_allport	2,3,1,0,0,0,0,0,0	89.0	3.0	0.545	0,0,0,1,2,0,3,0,0	to_board	s614
95.446	1.0	0	UA_without_intermediate	n/a	practice	ward_and_allport	n/a	-1.0	3.0	n/a	n/a	feedback	s614
96.446	1.0	0	UA_without_intermediate	n/a	practice	ward_and_allport	n/a	-1.0	3.0	n/a	n/a	ITI	s614
99.453	7.295	1	PA_with_intermediate	0,0,0,1,2,0,0,0,0	test	ward_and_allport	2,3,0,1,0,0,0,0,0	71.0	0.0	7.295	0,0,0,1,2,3,0,0,0	to_hand	s614
106.749	0.922	0	PA_with_intermediate	0,0,0,1,2,0,3,0,0	test	ward_and_allport	2,3,0,1,0,0,0,0,0	82.0	0.0	0.922	0,0,0,1,2,3,0,0,0	to_board	s614
107.674	1.597	0	PA_with_intermediate	0,0,0,1,0,0,3,0,0	test	ward_and_allport	2,3,0,1,0,0,0,0,0	71.0	0.0	1.597	0,0,0,1,2,3,0,0,0	to_hand	s614
109.272	0.924	0	PA_with_intermediate	2,0,0,1,0,0,3,0,0	test	ward_and_allport	2,3,0,1,0,0,0,0,0	89.0	0.0	0.924	0,0,0,1,2,3,0,0,0	to_board	s614
110.198	1.491	0	PA_with_intermediate	2,0,0,1,0,0,0,0,0	test	ward_and_allport	2,3,0,1,0,0,0,0,0	82.0	0.0	1.491	0,0,0,1,2,3,0,0,0	to_hand	s614
111.69	1.161	0	PA_with_intermediate	2,3,0,1,0,0,0,0,0	test	ward_and_allport	2,3,0,1,0,0,0,0,0	89.0	0.0	1.161	0,0,0,1,2,3,0,0,0	to_board	s614
112.858	1.0	0	PA_with_intermediate	n/a	test	ward_and_allport	n/a	-1.0	0.0	n/a	n/a	feedback	s614
113.858	2.768	0	PA_with_intermediate	n/a	test	ward_and_allport	n/a	-1.0	0.0	n/a	n/a	ITI	s614
116.63	8.296	1	PA_with_intermediate	0,0,0,0,0,0,1,2,0	test	ward_and_allport	2,0,0,0,0,0,1,3,0	82.0	1.0	8.296	0,0,0,0,0,0,1,2,3	to_hand	s614
124.926	3.885	0	PA_with_intermediate	0,0,0,3,0,0,1,2,0	test	ward_and_allport	2,0,0,0,0,0,1,3,0	71.0	1.0	3.885	0,0,0,0,0,0,1,2,3	to_board	s614
128.814	4.892	0	PA_with_intermediate	0,0,0,3,0,0,1,0,0	test	ward_and_allport	2,0,0,0,0,0,1,3,0	82.0	1.0	4.892	0,0,0,0,0,0,1,2,3	to_hand	s614
133.707	1.983	0	PA_with_intermediate	2,0,0,3,0,0,1,0,0	test	ward_and_allport	2,0,0,0,0,0,1,3,0	89.0	1.0	1.983	0,0,0,0,0,0,1,2,3	to_board	s614
135.693	2.754	0	PA_with_intermediate	2,0,0,0,0,0,1,0,0	test	ward_and_allport	2,0,0,0,0,0,1,3,0	71.0	1.0	2.754	0,0,0,0,0,0,1,2,3	to_hand	s614
138.448	0.992	0	PA_with_intermediate	2,0,0,0,0,0,1,3,0	test	ward_and_allport	2,0,0,0,0,0,1,3,0	82.0	1.0	0.992	0,0,0,0,0,0,1,2,3	to_board	s614
139.444	1.0	0	PA_with_intermediate	n/a	test	ward_and_allport	n/a	-1.0	1.0	n/a	n/a	feedback	s614
140.444	1.68	0	PA_with_intermediate	n/a	test	ward_and_allport	n/a	-1.0	1.0	n/a	n/a	ITI	s614
142.127	3.82	1	PA_without_intermediate	0,0,0,1,2,0,0,0,0	test	ward_and_allport	3,2,0,0,0,0,1,0,0	71.0	2.0	3.82	0,0,0,1,2,3,0,0,0	to_hand	s614
145.948	0.841	0	PA_without_intermediate	3,0,0,1,2,0,0,0,0	test	ward_and_allport	3,2,0,0,0,0,1,0,0	89.0	2.0	0.841	0,0,0,1,2,3,0,0,0	to_board	s614
146.792	2.488	0	PA_without_intermediate	3,0,0,1,0,0,0,0,0	test	ward_and_allport	3,2,0,0,0,0,1,0,0	71.0	2.0	2.488	0,0,0,1,2,3,0,0,0	to_hand	s614
149.281	0.708	0	PA_without_intermediate	3,2,0,1,0,0,0,0,0	test	ward_and_allport	3,2,0,0,0,0,1,0,0	89.0	2.0	0.708	0,0,0,1,2,3,0,0,0	to_board	s614
149.991	2.814	0	PA_without_intermediate	3,2,0,0,0,0,0,0,0	test	ward_and_allport	3,2,0,0,0,0,1,0,0	71.0	2.0	2.814	0,0,0,1,2,3,0,0,0	to_hand	s614
152.806	0.998	0	PA_without_intermediate	3,2,0,0,0,0,1,0,0	test	ward_and_allport	3,2,0,0,0,0,1,0,0	82.0	2.0	0.998	0,0,0,1,2,3,0,0,0	to_board	s614
153.809	1.0	0	PA_without_intermediate	n/a	test	ward_and_allport	n/a	-1.0	2.0	n/a	n/a	feedback	s614
154.809	2.224	0	PA_without_intermediate	n/a	test	ward_and_allport	n/a	-1.0	2.0	n/a	n/a	ITI	s614
157.036	4.339	1	PA_without_intermediate	1,2,0,0,0,0,0,0,0	test	ward_and_allport	0,0,0,1,0,0,3,2,0	89.0	3.0	4.339	1,2,3,0,0,0,0,0,0	to_hand	s614
161.376	1.016	0	PA_without_intermediate	1,2,0,0,0,0,3,0,0	test	ward_and_allport	0,0,0,1,0,0,3,2,0	82.0	3.0	1.016	1,2,3,0,0,0,0,0,0	to_board	s614
162.396	2.037	0	PA_without_intermediate	1,0,0,0,0,0,3,0,0	test	ward_and_allport	0,0,0,1,0,0,3,2,0	89.0	3.0	2.037	1,2,3,0,0,0,0,0,0	to_hand	s614
164.434	1.455	0	PA_without_intermediate	1,0,0,0,0,0,3,2,0	test	ward_and_allport	0,0,0,1,0,0,3,2,0	82.0	3.0	1.455	1,2,3,0,0,0,0,0,0	to_board	s614
165.892	2.317	0	PA_without_intermediate	0,0,0,0,0,0,3,2,0	test	ward_and_allport	0,0,0,1,0,0,3,2,0	89.0	3.0	2.317	1,2,3,0,0,0,0,0,0	to_hand	s614
168.21	6.966	0	PA_without_intermediate	0,0,0,1,0,0,3,2,0	test	ward_and_allport	0,0,0,1,0,0,3,2,0	71.0	3.0	6.966	1,2,3,0,0,0,0,0,0	to_board	s614
175.183	1.0	0	PA_without_intermediate	n/a	test	ward_and_allport	n/a	-1.0	3.0	n/a	n/a	feedback	s614
176.183	2.36	0	PA_without_intermediate	n/a	test	ward_and_allport	n/a	-1.0	3.0	n/a	n/a	ITI	s614
178.546	2.693	1	PA_without_intermediate	0,0,0,1,2,0,0,0,0	test	ward_and_allport	3,1,0,0,0,0,2,0,0	71.0	4.0	2.693	0,0,0,1,2,3,0,0,0	to_hand	s614
181.24	0.469	0	PA_without_intermediate	3,0,0,1,2,0,0,0,0	test	ward_and_allport	3,1,0,0,0,0,2,0,0	89.0	4.0	0.469	0,0,0,1,2,3,0,0,0	to_board	s614
181.713	2.097	0	PA_without_intermediate	3,0,0,1,0,0,0,0,0	test	ward_and_allport	3,1,0,0,0,0,2,0,0	71.0	4.0	2.097	0,0,0,1,2,3,0,0,0	to_hand	s614
183.811	0.85	0	PA_without_intermediate	3,0,0,1,0,0,2,0,0	test	ward_and_allport	3,1,0,0,0,0,2,0,0	82.0	4.0	0.85	0,0,0,1,2,3,0,0,0	to_board	s614
184.665	1.887	0	PA_without_intermediate	3,0,0,0,0,0,2,0,0	test	ward_and_allport	3,1,0,0,0,0,2,0,0	71.0	4.0	1.887	0,0,0,1,2,3,0,0,0	to_hand	s614
186.553	0.465	0	PA_without_intermediate	3,1,0,0,0,0,2,0,0	test	ward_and_allport	3,1,0,0,0,0,2,0,0	89.0	4.0	0.465	0,0,0,1,2,3,0,0,0	to_board	s614
187.023	1.0	0	PA_without_intermediate	n/a	test	ward_and_allport	n/a	-1.0	4.0	n/a	n/a	feedback	s614
188.023	1.0	0	PA_without_intermediate	n/a	test	ward_and_allport	n/a	-1.0	4.0	n/a	n/a	ITI	s614
189.027	4.782	1	PA_without_intermediate	1,2,0,0,0,0,0,0,0	test	ward_and_allport	0,0,0,3,2,0,1,0,0	89.0	5.0	4.782	1,2,3,0,0,0,0,0,0	to_hand	s614
193.811	0.616	0	PA_without_intermediate	1,2,0,3,0,0,0,0,0	test	ward_and_allport	0,0,0,3,2,0,1,0,0	71.0	5.0	0.616	1,2,3,0,0,0,0,0,0	to_board	s614
194.43	2.277	0	PA_without_intermediate	1,0,0,3,0,0,0,0,0	test	ward_and_allport	0,0,0,3,2,0,1,0,0	89.0	5.0	2.277	1,2,3,0,0,0,0,0,0	to_hand	s614
196.709	0.705	0	PA_without_intermediate	1,0,0,3,2,0,0,0,0	test	ward_and_allport	0,0,0,3,2,0,1,0,0	71.0	5.0	0.705	1,2,3,0,0,0,0,0,0	to_board	s614
197.418	1.706	0	PA_without_intermediate	0,0,0,3,2,0,0,0,0	test	ward_and_allport	0,0,0,3,2,0,1,0,0	89.0	5.0	1.706	1,2,3,0,0,0,0,0,0	to_hand	s614
199.126	1.581	0	PA_without_intermediate	0,0,0,3,2,0,1,0,0	test	ward_and_allport	0,0,0,3,2,0,1,0,0	82.0	5.0	1.581	1,2,3,0,0,0,0,0,0	to_board	s614
200.712	1.0	0	PA_without_intermediate	n/a	test	ward_and_allport	n/a	-1.0	5.0	n/a	n/a	feedback	s614
201.712	1.408	0	PA_without_intermediate	n/a	test	ward_and_allport	n/a	-1.0	5.0	n/a	n/a	ITI	s614
203.124	8.513	1	PA_with_intermediate	0,0,0,0,0,0,1,2,0	test	ward_and_allport	2,3,0,0,0,0,1,0,0	82.0	6.0	8.513	0,0,0,0,0,0,1,2,3	to_hand	s614
211.638	1.533	0	PA_with_intermediate	0,0,0,3,0,0,1,2,0	test	ward_and_allport	2,3,0,0,0,0,1,0,0	71.0	6.0	1.533	0,0,0,0,0,0,1,2,3	to_board	s614
213.174	1.369	0	PA_with_intermediate	0,0,0,0,0,0,1,2,0	test	ward_and_allport	2,3,0,0,0,0,1,0,0	71.0	6.0	1.369	0,0,0,0,0,0,1,2,3	to_hand	s614
214.544	2.371	0	PA_with_intermediate	0,0,0,3,0,0,1,2,0	test	ward_and_allport	2,3,0,0,0,0,1,0,0	71.0	6.0	2.371	0,0,0,0,0,0,1,2,3	to_board	s614
216.919	2.803	0	PA_with_intermediate	0,0,0,3,0,0,1,0,0	test	ward_and_allport	2,3,0,0,0,0,1,0,0	82.0	6.0	2.803	0,0,0,0,0,0,1,2,3	to_hand	s614
219.724	1.288	0	PA_with_intermediate	2,0,0,3,0,0,1,0,0	test	ward_and_allport	2,3,0,0,0,0,1,0,0	89.0	6.0	1.288	0,0,0,0,0,0,1,2,3	to_board	s614
221.016	0.969	0	PA_with_intermediate	2,0,0,0,0,0,1,0,0	test	ward_and_allport	2,3,0,0,0,0,1,0,0	71.0	6.0	0.969	0,0,0,0,0,0,1,2,3	to_hand	s614
221.986	1.112	0	PA_with_intermediate	2,3,0,0,0,0,1,0,0	test	ward_and_allport	2,3,0,0,0,0,1,0,0	89.0	6.0	1.112	0,0,0,0,0,0,1,2,3	to_board	s614
223.104	1.0	0	PA_with_intermediate	n/a	test	ward_and_allport	n/a	-1.0	6.0	n/a	n/a	feedback	s614
224.104	1.136	0	PA_with_intermediate	n/a	test	ward_and_allport	n/a	-1.0	6.0	n/a	n/a	ITI	s614
225.243	2.631	1	PA_without_intermediate	0,0,0,1,2,0,0,0,0	test	ward_and_allport	2,0,0,0,0,0,3,1,0	71.0	7.0	2.631	0,0,0,1,2,3,0,0,0	to_hand	s614
227.876	1.111	0	PA_without_intermediate	0,0,0,1,2,0,3,0,0	test	ward_and_allport	2,0,0,0,0,0,3,1,0	82.0	7.0	1.111	0,0,0,1,2,3,0,0,0	to_board	s614
228.991	2.276	0	PA_without_intermediate	0,0,0,1,0,0,3,0,0	test	ward_and_allport	2,0,0,0,0,0,3,1,0	71.0	7.0	2.276	0,0,0,1,2,3,0,0,0	to_hand	s614
231.269	1.979	0	PA_without_intermediate	2,0,0,1,0,0,3,0,0	test	ward_and_allport	2,0,0,0,0,0,3,1,0	89.0	7.0	1.979	0,0,0,1,2,3,0,0,0	to_board	s614
233.252	3.068	0	PA_without_intermediate	2,0,0,0,0,0,3,0,0	test	ward_and_allport	2,0,0,0,0,0,3,1,0	71.0	7.0	3.068	0,0,0,1,2,3,0,0,0	to_hand	s614
236.32	0.851	0	PA_without_intermediate	2,0,0,0,0,0,3,1,0	test	ward_and_allport	2,0,0,0,0,0,3,1,0	82.0	7.0	0.851	0,0,0,1,2,3,0,0,0	to_board	s614
237.177	1.0	0	PA_without_intermediate	n/a	test	ward_and_allport	n/a	-1.0	7.0	n/a	n/a	feedback	s614
238.177	4.128	0	PA_without_intermediate	n/a	test	ward_and_allport	n/a	-1.0	7.0	n/a	n/a	ITI	s614
242.31	5.393	1	PA_without_intermediate	1,2,0,0,0,0,0,0,0	test	ward_and_allport	0,0,0,2,0,0,3,1,0	89.0	8.0	5.393	1,2,3,0,0,0,0,0,0	to_hand	s614
247.704	3.983	0	PA_without_intermediate	1,2,0,0,0,0,3,0,0	test	ward_and_allport	0,0,0,2,0,0,3,1,0	82.0	8.0	3.983	1,2,3,0,0,0,0,0,0	to_board	s614
251.69	3.269	0	PA_without_intermediate	1,0,0,0,0,0,3,0,0	test	ward_and_allport	0,0,0,2,0,0,3,1,0	89.0	8.0	3.269	1,2,3,0,0,0,0,0,0	to_hand	s614
254.96	0.924	0	PA_without_intermediate	1,0,0,2,0,0,3,0,0	test	ward_and_allport	0,0,0,2,0,0,3,1,0	71.0	8.0	0.924	1,2,3,0,0,0,0,0,0	to_board	s614
255.888	1.81	0	PA_without_intermediate	0,0,0,2,0,0,3,0,0	test	ward_and_allport	0,0,0,2,0,0,3,1,0	89.0	8.0	1.81	1,2,3,0,0,0,0,0,0	to_hand	s614
257.7	1.077	0	PA_without_intermediate	0,0,0,2,0,0,3,1,0	test	ward_and_allport	0,0,0,2,0,0,3,1,0	82.0	8.0	1.077	1,2,3,0,0,0,0,0,0	to_board	s614
258.783	1.0	0	PA_without_intermediate	n/a	test	ward_and_allport	n/a	-1.0	8.0	n/a	n/a	feedback	s614
259.783	1.136	0	PA_without_intermediate	n/a	test	ward_and_allport	n/a	-1.0	8.0	n/a	n/a	ITI	s614
260.925	4.026	1	PA_without_intermediate	0,0,0,0,0,0,1,2,0	test	ward_and_allport	3,1,0,2,0,0,0,0,0	82.0	9.0	4.026	0,0,0,0,0,0,1,2,3	to_hand	s614
264.952	0.892	0	PA_without_intermediate	3,0,0,0,0,0,1,2,0	test	ward_and_allport	3,1,0,2,0,0,0,0,0	89.0	9.0	0.892	0,0,0,0,0,0,1,2,3	to_board	s614
265.848	3.107	0	PA_without_intermediate	3,0,0,0,0,0,1,0,0	test	ward_and_allport	3,1,0,2,0,0,0,0,0	82.0	9.0	3.107	0,0,0,0,0,0,1,2,3	to_hand	s614
268.957	0.867	0	PA_without_intermediate	3,0,0,2,0,0,1,0,0	test	ward_and_allport	3,1,0,2,0,0,0,0,0	71.0	9.0	0.867	0,0,0,0,0,0,1,2,3	to_board	s614
269.83	1.4	0	PA_without_intermediate	3,0,0,2,0,0,0,0,0	test	ward_and_allport	3,1,0,2,0,0,0,0,0	82.0	9.0	1.4	0,0,0,0,0,0,1,2,3	to_hand	s614
271.231	0.994	0	PA_without_intermediate	3,1,0,2,0,0,0,0,0	test	ward_and_allport	3,1,0,2,0,0,0,0,0	89.0	9.0	0.994	0,0,0,0,0,0,1,2,3	to_board	s614
272.234	1.0	0	PA_without_intermediate	n/a	test	ward_and_allport	n/a	-1.0	9.0	n/a	n/a	feedback	s614
273.234	4.264	0	PA_without_intermediate	n/a	test	ward_and_allport	n/a	-1.0	9.0	n/a	n/a	ITI	s614
277.503	4.9	1	PA_with_intermediate	1,2,0,0,0,0,0,0,0	test	ward_and_allport	1,3,0,2,0,0,0,0,0	89.0	10.0	4.9	1,2,3,0,0,0,0,0,0	to_hand	s614
282.405	2.124	0	PA_with_intermediate	1,2,0,3,0,0,0,0,0	test	ward_and_allport	1,3,0,2,0,0,0,0,0	71.0	10.0	2.124	1,2,3,0,0,0,0,0,0	to_board	s614
284.535	1.55	0	PA_with_intermediate	1,0,0,3,0,0,0,0,0	test	ward_and_allport	1,3,0,2,0,0,0,0,0	89.0	10.0	1.55	1,2,3,0,0,0,0,0,0	to_hand	s614
286.088	4.507	0	PA_with_intermediate	1,0,0,3,0,0,2,0,0	test	ward_and_allport	1,3,0,2,0,0,0,0,0	82.0	10.0	4.507	1,2,3,0,0,0,0,0,0	to_board	s614
290.599	2.091	0	PA_with_intermediate	1,0,0,0,0,0,2,0,0	test	ward_and_allport	1,3,0,2,0,0,0,0,0	71.0	10.0	2.091	1,2,3,0,0,0,0,0,0	to_hand	s614
292.692	0.754	0	PA_with_intermediate	1,3,0,0,0,0,2,0,0	test	ward_and_allport	1,3,0,2,0,0,0,0,0	89.0	10.0	0.754	1,2,3,0,0,0,0,0,0	to_board	s614
293.451	3.851	0	PA_with_intermediate	1,3,0,0,0,0,0,0,0	test	ward_and_allport	1,3,0,2,0,0,0,0,0	82.0	10.0	3.851	1,2,3,0,0,0,0,0,0	to_hand	s614
297.303	0.922	0	PA_with_intermediate	1,3,0,2,0,0,0,0,0	test	ward_and_allport	1,3,0,2,0,0,0,0,0	71.0	10.0	0.922	1,2,3,0,0,0,0,0,0	to_board	s614
298.23	1.0	0	PA_with_intermediate	n/a	test	ward_and_allport	n/a	-1.0	10.0	n/a	n/a	feedback	s614
299.23	3.04	0	PA_with_intermediate	n/a	test	ward_and_allport	n/a	-1.0	10.0	n/a	n/a	ITI	s614
302.275	6.834	1	PA_with_intermediate	0,0,0,1,2,0,0,0,0	test	ward_and_allport	0,0,0,1,0,0,2,3,0	71.0	11.0	6.834	0,0,0,1,2,3,0,0,0	to_hand	s614
309.11	0.824	0	PA_with_intermediate	3,0,0,1,2,0,0,0,0	test	ward_and_allport	0,0,0,1,0,0,2,3,0	89.0	11.0	0.824	0,0,0,1,2,3,0,0,0	to_board	s614
309.939	2.069	0	PA_with_intermediate	3,0,0,1,0,0,0,0,0	test	ward_and_allport	0,0,0,1,0,0,2,3,0	71.0	11.0	2.069	0,0,0,1,2,3,0,0,0	to_hand	s614
312.009	1.122	0	PA_with_intermediate	3,0,0,1,0,0,2,0,0	test	ward_and_allport	0,0,0,1,0,0,2,3,0	82.0	11.0	1.122	0,0,0,1,2,3,0,0,0	to_board	s614
313.136	1.499	0	PA_with_intermediate	0,0,0,1,0,0,2,0,0	test	ward_and_allport	0,0,0,1,0,0,2,3,0	89.0	11.0	1.499	0,0,0,1,2,3,0,0,0	to_hand	s614
314.637	1.073	0	PA_with_intermediate	0,0,0,1,0,0,2,3,0	test	ward_and_allport	0,0,0,1,0,0,2,3,0	82.0	11.0	1.073	0,0,0,1,2,3,0,0,0	to_board	s614
315.719	1.0	0	PA_with_intermediate	n/a	test	ward_and_allport	n/a	-1.0	11.0	n/a	n/a	feedback	s614
316.719	1.136	0	PA_with_intermediate	n/a	test	ward_and_allport	n/a	-1.0	11.0	n/a	n/a	ITI	s614
317.86	7.062	1	PA_with_intermediate	1,2,0,0,0,0,0,0,0	test	ward_and_allport	1,0,0,0,0,0,2,3,0	89.0	12.0	7.062	1,2,3,0,0,0,0,0,0	to_hand	s614
324.923	0.964	0	PA_with_intermediate	1,2,0,3,0,0,0,0,0	test	ward_and_allport	1,0,0,0,0,0,2,3,0	71.0	12.0	0.964	1,2,3,0,0,0,0,0,0	to_board	s614
325.893	2.867	0	PA_with_intermediate	1,0,0,3,0,0,0,0,0	test	ward_and_allport	1,0,0,0,0,0,2,3,0	89.0	12.0	2.867	1,2,3,0,0,0,0,0,0	to_hand	s614
328.762	1.214	0	PA_with_intermediate	1,0,0,3,0,0,2,0,0	test	ward_and_allport	1,0,0,0,0,0,2,3,0	82.0	12.0	1.214	1,2,3,0,0,0,0,0,0	to_board	s614
329.982	1.707	0	PA_with_intermediate	1,0,0,0,0,0,2,0,0	test	ward_and_allport	1,0,0,0,0,0,2,3,0	71.0	12.0	1.707	1,2,3,0,0,0,0,0,0	to_hand	s614
331.69	0.796	0	PA_with_intermediate	1,0,0,0,0,0,2,3,0	test	ward_and_allport	1,0,0,0,0,0,2,3,0	82.0	12.0	0.796	1,2,3,0,0,0,0,0,0	to_board	s614
332.493	1.0	0	PA_with_intermediate	n/a	test	ward_and_allport	n/a	-1.0	12.0	n/a	n/a	feedback	s614
333.493	1.408	0	PA_with_intermediate	n/a	test	ward_and_allport	n/a	-1.0	12.0	n/a	n/a	ITI	s614
334.905	5.232	1	PA_without_intermediate	1,2,0,0,0,0,0,0,0	test	ward_and_allport	0,0,0,3,2,0,1,0,0	89.0	13.0	5.232	1,2,3,0,0,0,0,0,0	to_hand	s614
340.139	0.778	0	PA_without_intermediate	1,2,0,3,0,0,0,0,0	test	ward_and_allport	0,0,0,3,2,0,1,0,0	71.0	13.0	0.778	1,2,3,0,0,0,0,0,0	to_board	s614
340.922	1.429	0	PA_without_intermediate	1,0,0,3,0,0,0,0,0	test	ward_and_allport	0,0,0,3,2,0,1,0,0	89.0	13.0	1.429	1,2,3,0,0,0,0,0,0	to_hand	s614
342.352	0.699	0	PA_without_intermediate	1,0,0,3,2,0,0,0,0	test	ward_and_allport	0,0,0,3,2,0,1,0,0	71.0	13.0	0.699	1,2,3,0,0,0,0,0,0	to_board	s614
343.055	2.306	0	PA_without_intermediate	0,0,0,3,2,0,0,0,0	test	ward_and_allport	0,0,0,3,2,0,1,0,0	89.0	13.0	2.306	1,2,3,0,0,0,0,0,0	to_hand	s614
345.362	0.788	0	PA_without_intermediate	0,0,0,3,2,0,1,0,0	test	ward_and_allport	0,0,0,3,2,0,1,0,0	82.0	13.0	0.788	1,2,3,0,0,0,0,0,0	to_board	s614
346.157	1.0	0	PA_without_intermediate	n/a	test	ward_and_allport	n/a	-1.0	13.0	n/a	n/a	feedback	s614
347.157	1.68	0	PA_without_intermediate	n/a	test	ward_and_allport	n/a	-1.0	13.0	n/a	n/a	ITI	s614
348.842	9.378	1	PA_with_intermediate	0,0,0,0,0,0,1,2,0	test	ward_and_allport	2,3,0,0,0,0,1,0,0	82.0	14.0	9.378	0,0,0,0,0,0,1,2,3	to_hand	s614
358.221	1.847	0	PA_with_intermediate	0,0,0,3,0,0,1,2,0	test	ward_and_allport	2,3,0,0,0,0,1,0,0	71.0	14.0	1.847	0,0,0,0,0,0,1,2,3	to_board	s614
360.073	2.484	0	PA_with_intermediate	0,0,0,3,0,0,1,0,0	test	ward_and_allport	2,3,0,0,0,0,1,0,0	82.0	14.0	2.484	0,0,0,0,0,0,1,2,3	to_hand	s614
362.559	1.021	0	PA_with_intermediate	2,0,0,3,0,0,1,0,0	test	ward_and_allport	2,3,0,0,0,0,1,0,0	89.0	14.0	1.021	0,0,0,0,0,0,1,2,3	to_board	s614
363.584	2.019	0	PA_with_intermediate	2,0,0,0,0,0,1,0,0	test	ward_and_allport	2,3,0,0,0,0,1,0,0	71.0	14.0	2.019	0,0,0,0,0,0,1,2,3	to_hand	s614
365.605	0.54	0	PA_with_intermediate	2,3,0,0,0,0,1,0,0	test	ward_and_allport	2,3,0,0,0,0,1,0,0	89.0	14.0	0.54	0,0,0,0,0,0,1,2,3	to_board	s614
366.15	1.0	0	PA_with_intermediate	n/a	test	ward_and_allport	n/a	-1.0	14.0	n/a	n/a	feedback	s614
367.15	3.72	0	PA_with_intermediate	n/a	test	ward_and_allport	n/a	-1.0	14.0	n/a	n/a	ITI	s614
375.877	7.984	1	PA_without_intermediate	0,0,0,0,0,0,1,2,0	test	ward_and_allport	2,0,0,3,1,0,0,0,0	82.0	15.0	7.984	0,0,0,0,0,0,1,2,3	to_hand	s614
383.863	0.909	0	PA_without_intermediate	0,0,0,3,0,0,1,2,0	test	ward_and_allport	2,0,0,3,1,0,0,0,0	71.0	15.0	0.909	0,0,0,0,0,0,1,2,3	to_board	s614
384.777	5.525	0	PA_without_intermediate	0,0,0,3,0,0,1,0,0	test	ward_and_allport	2,0,0,3,1,0,0,0,0	82.0	15.0	5.525	0,0,0,0,0,0,1,2,3	to_hand	s614
390.304	1.011	0	PA_without_intermediate	2,0,0,3,0,0,1,0,0	test	ward_and_allport	2,0,0,3,1,0,0,0,0	89.0	15.0	1.011	0,0,0,0,0,0,1,2,3	to_board	s614
391.321	1.662	0	PA_without_intermediate	2,0,0,3,0,0,0,0,0	test	ward_and_allport	2,0,0,3,1,0,0,0,0	82.0	15.0	1.662	0,0,0,0,0,0,1,2,3	to_hand	s614
392.984	1.04	0	PA_without_intermediate	2,0,0,3,1,0,0,0,0	test	ward_and_allport	2,0,0,3,1,0,0,0,0	71.0	15.0	1.04	0,0,0,0,0,0,1,2,3	to_board	s614
394.031	1.0	0	PA_without_intermediate	n/a	test	ward_and_allport	n/a	-1.0	15.0	n/a	n/a	feedback	s614
395.031	2.224	0	PA_without_intermediate	n/a	test	ward_and_allport	n/a	-1.0	15.0	n/a	n/a	ITI	s614
397.261	4.568	1	PA_without_intermediate	1,2,0,0,0,0,0,0,0	test	ward_and_allport	0,0,0,3,1,0,2,0,0	89.0	16.0	4.568	1,2,3,0,0,0,0,0,0	to_hand	s614
401.83	1.165	0	PA_without_intermediate	1,2,0,3,0,0,0,0,0	test	ward_and_allport	0,0,0,3,1,0,2,0,0	71.0	16.0	1.165	1,2,3,0,0,0,0,0,0	to_board	s614
403.0	1.438	0	PA_without_intermediate	1,0,0,3,0,0,0,0,0	test	ward_and_allport	0,0,0,3,1,0,2,0,0	89.0	16.0	1.438	1,2,3,0,0,0,0,0,0	to_hand	s614
404.44	1.198	0	PA_without_intermediate	1,0,0,3,0,0,2,0,0	test	ward_and_allport	0,0,0,3,1,0,2,0,0	82.0	16.0	1.198	1,2,3,0,0,0,0,0,0	to_board	s614
405.644	2.018	0	PA_without_intermediate	0,0,0,3,0,0,2,0,0	test	ward_and_allport	0,0,0,3,1,0,2,0,0	89.0	16.0	2.018	1,2,3,0,0,0,0,0,0	to_hand	s614
407.663	0.844	0	PA_without_intermediate	0,0,0,3,1,0,2,0,0	test	ward_and_allport	0,0,0,3,1,0,2,0,0	71.0	16.0	0.844	1,2,3,0,0,0,0,0,0	to_board	s614
408.514	1.0	0	PA_without_intermediate	n/a	test	ward_and_allport	n/a	-1.0	16.0	n/a	n/a	feedback	s614
409.514	1.272	0	PA_without_intermediate	n/a	test	ward_and_allport	n/a	-1.0	16.0	n/a	n/a	ITI	s614
410.792	6.683	1	PA_with_intermediate	1,2,0,0,0,0,0,0,0	test	ward_and_allport	1,3,0,0,0,0,2,0,0	89.0	17.0	6.683	1,2,3,0,0,0,0,0,0	to_hand	s614
417.477	0.731	0	PA_with_intermediate	1,2,0,3,0,0,0,0,0	test	ward_and_allport	1,3,0,0,0,0,2,0,0	71.0	17.0	0.731	1,2,3,0,0,0,0,0,0	to_board	s614
418.214	1.942	0	PA_with_intermediate	1,0,0,3,0,0,0,0,0	test	ward_and_allport	1,3,0,0,0,0,2,0,0	89.0	17.0	1.942	1,2,3,0,0,0,0,0,0	to_hand	s614
420.157	1.106	0	PA_with_intermediate	1,0,0,3,0,0,2,0,0	test	ward_and_allport	1,3,0,0,0,0,2,0,0	82.0	17.0	1.106	1,2,3,0,0,0,0,0,0	to_board	s614
421.269	1.313	0	PA_with_intermediate	1,0,0,0,0,0,2,0,0	test	ward_and_allport	1,3,0,0,0,0,2,0,0	71.0	17.0	1.313	1,2,3,0,0,0,0,0,0	to_hand	s614
422.583	0.903	0	PA_with_intermediate	1,3,0,0,0,0,2,0,0	test	ward_and_allport	1,3,0,0,0,0,2,0,0	89.0	17.0	0.903	1,2,3,0,0,0,0,0,0	to_board	s614
423.494	1.0	0	PA_with_intermediate	n/a	test	ward_and_allport	n/a	-1.0	17.0	n/a	n/a	feedback	s614
424.494	2.632	0	PA_with_intermediate	n/a	test	ward_and_allport	n/a	-1.0	17.0	n/a	n/a	ITI	s614
427.133	5.568	1	PA_without_intermediate	1,2,0,0,0,0,0,0,0	test	ward_and_allport	0,0,0,2,0,0,3,1,0	89.0	18.0	5.568	1,2,3,0,0,0,0,0,0	to_hand	s614
432.703	0.77	0	PA_without_intermediate	1,2,0,0,0,0,3,0,0	test	ward_and_allport	0,0,0,2,0,0,3,1,0	82.0	18.0	0.77	1,2,3,0,0,0,0,0,0	to_board	s614
433.479	2.137	0	PA_without_intermediate	1,0,0,0,0,0,3,0,0	test	ward_and_allport	0,0,0,2,0,0,3,1,0	89.0	18.0	2.137	1,2,3,0,0,0,0,0,0	to_hand	s614
435.618	1.26	0	PA_without_intermediate	1,0,0,2,0,0,3,0,0	test	ward_and_allport	0,0,0,2,0,0,3,1,0	71.0	18.0	1.26	1,2,3,0,0,0,0,0,0	to_board	s614
436.883	1.684	0	PA_without_intermediate	0,0,0,2,0,0,3,0,0	test	ward_and_allport	0,0,0,2,0,0,3,1,0	89.0	18.0	1.684	1,2,3,0,0,0,0,0,0	to_hand	s614
438.569	1.423	0	PA_without_intermediate	0,0,0,2,0,0,3,1,0	test	ward_and_allport	0,0,0,2,0,0,3,1,0	82.0	18.0	1.423	1,2,3,0,0,0,0,0,0	to_board	s614
440.001	1.0	0	PA_without_intermediate	n/a	test	ward_and_allport	n/a	-1.0	18.0	n/a	n/a	feedback	s614
441.001	1.408	0	PA_without_intermediate	n/a	test	ward_and_allport	n/a	-1.0	18.0	n/a	n/a	ITI	s614
442.415	5.093	1	PA_without_intermediate	0,0,0,1,2,0,0,0,0	test	ward_and_allport	3,2,0,0,0,0,1,0,0	71.0	19.0	5.093	0,0,0,1,2,3,0,0,0	to_hand	s614
447.509	0.733	0	PA_without_intermediate	3,0,0,1,2,0,0,0,0	test	ward_and_allport	3,2,0,0,0,0,1,0,0	89.0	19.0	0.733	0,0,0,1,2,3,0,0,0	to_board	s614
448.248	2.634	0	PA_without_intermediate	3,0,0,1,0,0,0,0,0	test	ward_and_allport	3,2,0,0,0,0,1,0,0	71.0	19.0	2.634	0,0,0,1,2,3,0,0,0	to_hand	s614
450.883	0.63	0	PA_without_intermediate	3,2,0,1,0,0,0,0,0	test	ward_and_allport	3,2,0,0,0,0,1,0,0	89.0	19.0	0.63	0,0,0,1,2,3,0,0,0	to_board	s614
451.519	2.015	0	PA_without_intermediate	3,2,0,0,0,0,0,0,0	test	ward_and_allport	3,2,0,0,0,0,1,0,0	71.0	19.0	2.015	0,0,0,1,2,3,0,0,0	to_hand	s614
453.534	0.743	0	PA_without_intermediate	3,2,0,0,0,0,1,0,0	test	ward_and_allport	3,2,0,0,0,0,1,0,0	82.0	19.0	0.743	0,0,0,1,2,3,0,0,0	to_board	s614
454.284	1.0	0	PA_without_intermediate	n/a	test	ward_and_allport	n/a	-1.0	19.0	n/a	n/a	feedback	s614
455.284	1.0	0	PA_without_intermediate	n/a	test	ward_and_allport	n/a	-1.0	19.0	n/a	n/a	ITI	s614
456.289	5.353	1	PA_with_intermediate	1,2,0,0,0,0,0,0,0	test	ward_and_allport	1,0,0,2,3,0,0,0,0	89.0	20.0	5.353	1,2,3,0,0,0,0,0,0	to_hand	s614
461.644	0.736	0	PA_with_intermediate	1,2,0,0,0,0,3,0,0	test	ward_and_allport	1,0,0,2,3,0,0,0,0	82.0	20.0	0.736	1,2,3,0,0,0,0,0,0	to_board	s614
462.387	1.834	0	PA_with_intermediate	1,0,0,0,0,0,3,0,0	test	ward_and_allport	1,0,0,2,3,0,0,0,0	89.0	20.0	1.834	1,2,3,0,0,0,0,0,0	to_hand	s614
464.222	1.057	0	PA_with_intermediate	1,0,0,2,0,0,3,0,0	test	ward_and_allport	1,0,0,2,3,0,0,0,0	71.0	20.0	1.057	1,2,3,0,0,0,0,0,0	to_board	s614
465.285	1.873	0	PA_with_intermediate	1,0,0,2,0,0,0,0,0	test	ward_and_allport	1,0,0,2,3,0,0,0,0	82.0	20.0	1.873	1,2,3,0,0,0,0,0,0	to_hand	s614
467.158	1.763	0	PA_with_intermediate	1,0,0,2,3,0,0,0,0	test	ward_and_allport	1,0,0,2,3,0,0,0,0	71.0	20.0	1.763	1,2,3,0,0,0,0,0,0	to_board	s614
468.927	1.0	0	PA_with_intermediate	n/a	test	ward_and_allport	n/a	-1.0	20.0	n/a	n/a	feedback	s614
469.927	1.0	0	PA_with_intermediate	n/a	test	ward_and_allport	n/a	-1.0	20.0	n/a	n/a	ITI	s614
470.934	4.509	1	PA_with_intermediate	1,2,0,0,0,0,0,0,0	test	ward_and_allport	1,0,0,2,3,0,0,0,0	89.0	21.0	4.509	1,2,3,0,0,0,0,0,0	to_hand	s614
475.445	0.738	0	PA_with_intermediate	1,2,0,0,0,0,3,0,0	test	ward_and_allport	1,0,0,2,3,0,0,0,0	82.0	21.0	0.738	1,2,3,0,0,0,0,0,0	to_board	s614
476.192	1.248	0	PA_with_intermediate	1,0,0,0,0,0,3,0,0	test	ward_and_allport	1,0,0,2,3,0,0,0,0	89.0	21.0	1.248	1,2,3,0,0,0,0,0,0	to_hand	s614
477.44	0.977	0	PA_with_intermediate	1,0,0,2,0,0,3,0,0	test	ward_and_allport	1,0,0,2,3,0,0,0,0	71.0	21.0	0.977	1,2,3,0,0,0,0,0,0	to_board	s614
478.425	1.364	0	PA_with_intermediate	1,0,0,2,0,0,0,0,0	test	ward_and_allport	1,0,0,2,3,0,0,0,0	82.0	21.0	1.364	1,2,3,0,0,0,0,0,0	to_hand	s614
479.79	0.66	0	PA_with_intermediate	1,0,0,2,3,0,0,0,0	test	ward_and_allport	1,0,0,2,3,0,0,0,0	71.0	21.0	0.66	1,2,3,0,0,0,0,0,0	to_board	s614
480.458	1.0	0	PA_with_intermediate	n/a	test	ward_and_allport	n/a	-1.0	21.0	n/a	n/a	feedback	s614
481.458	1.0	0	PA_with_intermediate	n/a	test	ward_and_allport	n/a	-1.0	21.0	n/a	n/a	ITI	s614
482.465	6.68	1	PA_with_intermediate	0,0,0,0,0,0,1,2,0	test	ward_and_allport	2,0,0,0,0,0,1,3,0	82.0	22.0	6.68	0,0,0,0,0,0,1,2,3	to_hand	s614
489.147	0.665	0	PA_with_intermediate	0,0,0,3,0,0,1,2,0	test	ward_and_allport	2,0,0,0,0,0,1,3,0	71.0	22.0	0.665	0,0,0,0,0,0,1,2,3	to_board	s614
489.819	1.378	0	PA_with_intermediate	0,0,0,3,0,0,1,0,0	test	ward_and_allport	2,0,0,0,0,0,1,3,0	82.0	22.0	1.378	0,0,0,0,0,0,1,2,3	to_hand	s614
491.198	1.279	0	PA_with_intermediate	2,0,0,3,0,0,1,0,0	test	ward_and_allport	2,0,0,0,0,0,1,3,0	89.0	22.0	1.279	0,0,0,0,0,0,1,2,3	to_board	s614
492.484	1.323	0	PA_with_intermediate	2,0,0,0,0,0,1,0,0	test	ward_and_allport	2,0,0,0,0,0,1,3,0	71.0	22.0	1.323	0,0,0,0,0,0,1,2,3	to_hand	s614
493.808	0.768	0	PA_with_intermediate	2,0,0,0,0,0,1,3,0	test	ward_and_allport	2,0,0,0,0,0,1,3,0	82.0	22.0	0.768	0,0,0,0,0,0,1,2,3	to_board	s614
494.584	1.0	0	PA_with_intermediate	n/a	test	ward_and_allport	n/a	-1.0	22.0	n/a	n/a	feedback	s614
495.584	1.408	0	PA_with_intermediate	n/a	test	ward_and_allport	n/a	-1.0	22.0	n/a	n/a	ITI	s614
497.001	4.278	1	PA_without_intermediate	0,0,0,0,0,0,1,2,0	test	ward_and_allport	3,2,0,1,0,0,0,0,0	82.0	23.0	4.278	0,0,0,0,0,0,1,2,3	to_hand	s614
501.28	0.718	0	PA_without_intermediate	3,0,0,0,0,0,1,2,0	test	ward_and_allport	3,2,0,1,0,0,0,0,0	89.0	23.0	0.718	0,0,0,0,0,0,1,2,3	to_board	s614
502.006	2.61	0	PA_without_intermediate	3,0,0,0,0,0,1,0,0	test	ward_and_allport	3,2,0,1,0,0,0,0,0	82.0	23.0	2.61	0,0,0,0,0,0,1,2,3	to_hand	s614
504.617	0.826	0	PA_without_intermediate	3,2,0,0,0,0,1,0,0	test	ward_and_allport	3,2,0,1,0,0,0,0,0	89.0	23.0	0.826	0,0,0,0,0,0,1,2,3	to_board	s614
505.452	2.063	0	PA_without_intermediate	3,2,0,0,0,0,0,0,0	test	ward_and_allport	3,2,0,1,0,0,0,0,0	82.0	23.0	2.063	0,0,0,0,0,0,1,2,3	to_hand	s614
507.516	0.955	0	PA_without_intermediate	3,2,0,1,0,0,0,0,0	test	ward_and_allport	3,2,0,1,0,0,0,0,0	71.0	23.0	0.955	0,0,0,0,0,0,1,2,3	to_board	s614
508.481	1.0	0	PA_without_intermediate	n/a	test	ward_and_allport	n/a	-1.0	23.0	n/a	n/a	feedback	s614
509.481	1.816	0	PA_without_intermediate	n/a	test	ward_and_allport	n/a	-1.0	23.0	n/a	n/a	ITI	s614
511.304	6.008	1	PA_with_intermediate	0,0,0,1,2,0,0,0,0	test	ward_and_allport	2,3,0,1,0,0,0,0,0	71.0	24.0	6.008	0,0,0,1,2,3,0,0,0	to_hand	s614
517.314	1.863	0	PA_with_intermediate	0,0,0,1,2,0,3,0,0	test	ward_and_allport	2,3,0,1,0,0,0,0,0	82.0	24.0	1.863	0,0,0,1,2,3,0,0,0	to_board	s614
519.184	1.244	0	PA_with_intermediate	0,0,0,1,0,0,3,0,0	test	ward_and_allport	2,3,0,1,0,0,0,0,0	71.0	24.0	1.244	0,0,0,1,2,3,0,0,0	to_hand	s614
520.429	1.035	0	PA_with_intermediate	2,0,0,1,0,0,3,0,0	test	ward_and_allport	2,3,0,1,0,0,0,0,0	89.0	24.0	1.035	0,0,0,1,2,3,0,0,0	to_board	s614
521.472	1.254	0	PA_with_intermediate	2,0,0,1,0,0,0,0,0	test	ward_and_allport	2,3,0,1,0,0,0,0,0	82.0	24.0	1.254	0,0,0,1,2,3,0,0,0	to_hand	s614
522.727	0.981	0	PA_with_intermediate	2,3,0,1,0,0,0,0,0	test	ward_and_allport	2,3,0,1,0,0,0,0,0	89.0	24.0	0.981	0,0,0,1,2,3,0,0,0	to_board	s614
523.719	1.0	0	PA_with_intermediate	n/a	test	ward_and_allport	n/a	-1.0	24.0	n/a	n/a	feedback	s614
524.719	3.176	0	PA_with_intermediate	n/a	test	ward_and_allport	n/a	-1.0	24.0	n/a	n/a	ITI	s614
527.904	6.835	1	PA_with_intermediate	0,0,0,0,0,0,1,2,0	test	ward_and_allport	0,0,0,2,0,0,1,3,0	82.0	25.0	6.835	0,0,0,0,0,0,1,2,3	to_hand	s614
534.74	1.021	0	PA_with_intermediate	3,0,0,0,0,0,1,2,0	test	ward_and_allport	0,0,0,2,0,0,1,3,0	89.0	25.0	1.021	0,0,0,0,0,0,1,2,3	to_board	s614
535.769	2.579	0	PA_with_intermediate	3,0,0,0,0,0,1,0,0	test	ward_and_allport	0,0,0,2,0,0,1,3,0	82.0	25.0	2.579	0,0,0,0,0,0,1,2,3	to_hand	s614
538.35	0.72	0	PA_with_intermediate	3,0,0,2,0,0,1,0,0	test	ward_and_allport	0,0,0,2,0,0,1,3,0	71.0	25.0	0.72	0,0,0,0,0,0,1,2,3	to_board	s614
539.079	3.226	0	PA_with_intermediate	0,0,0,2,0,0,1,0,0	test	ward_and_allport	0,0,0,2,0,0,1,3,0	89.0	25.0	3.226	0,0,0,0,0,0,1,2,3	to_hand	s614
542.307	0.735	0	PA_with_intermediate	0,0,0,2,0,0,1,3,0	test	ward_and_allport	0,0,0,2,0,0,1,3,0	82.0	25.0	0.735	0,0,0,0,0,0,1,2,3	to_board	s614
543.053	1.0	0	PA_with_intermediate	n/a	test	ward_and_allport	n/a	-1.0	25.0	n/a	n/a	feedback	s614
544.053	2.36	0	PA_with_intermediate	n/a	test	ward_and_allport	n/a	-1.0	25.0	n/a	n/a	ITI	s614
546.421	4.198	1	PA_with_intermediate	0,0,0,0,0,0,1,2,0	test	ward_and_allport	0,0,0,2,3,0,1,0,0	82.0	26.0	4.198	0,0,0,0,0,0,1,2,3	to_hand	s614
550.62	1.545	0	PA_with_intermediate	3,0,0,0,0,0,1,2,0	test	ward_and_allport	0,0,0,2,3,0,1,0,0	89.0	26.0	1.545	0,0,0,0,0,0,1,2,3	to_board	s614
552.174	2.393	0	PA_with_intermediate	3,0,0,0,0,0,1,0,0	test	ward_and_allport	0,0,0,2,3,0,1,0,0	82.0	26.0	2.393	0,0,0,0,0,0,1,2,3	to_hand	s614
554.568	0.64	0	PA_with_intermediate	3,0,0,2,0,0,1,0,0	test	ward_and_allport	0,0,0,2,3,0,1,0,0	71.0	26.0	0.64	0,0,0,0,0,0,1,2,3	to_board	s614
555.216	3.742	0	PA_with_intermediate	0,0,0,2,0,0,1,0,0	test	ward_and_allport	0,0,0,2,3,0,1,0,0	89.0	26.0	3.742	0,0,0,0,0,0,1,2,3	to_hand	s614
558.959	0.713	0	PA_with_intermediate	0,0,0,2,3,0,1,0,0	test	ward_and_allport	0,0,0,2,3,0,1,0,0	71.0	26.0	0.713	0,0,0,0,0,0,1,2,3	to_board	s614
559.682	1.0	0	PA_with_intermediate	n/a	test	ward_and_allport	n/a	-1.0	26.0	n/a	n/a	feedback	s614
560.682	1.0	0	PA_with_intermediate	n/a	test	ward_and_allport	n/a	-1.0	26.0	n/a	n/a	ITI	s614
561.69	6.761	1	PA_without_intermediate	0,0,0,0,0,0,1,2,0	test	ward_and_allport	2,0,0,3,1,0,0,0,0	82.0	27.0	6.761	0,0,0,0,0,0,1,2,3	to_hand	s614
568.452	0.788	0	PA_without_intermediate	0,0,0,3,0,0,1,2,0	test	ward_and_allport	2,0,0,3,1,0,0,0,0	71.0	27.0	0.788	0,0,0,0,0,0,1,2,3	to_board	s614
569.249	2.382	0	PA_without_intermediate	0,0,0,3,0,0,1,0,0	test	ward_and_allport	2,0,0,3,1,0,0,0,0	82.0	27.0	2.382	0,0,0,0,0,0,1,2,3	to_hand	s614
571.631	1.511	0	PA_without_intermediate	2,0,0,3,0,0,1,0,0	test	ward_and_allport	2,0,0,3,1,0,0,0,0	89.0	27.0	1.511	0,0,0,0,0,0,1,2,3	to_board	s614
573.15	2.687	0	PA_without_intermediate	2,0,0,3,0,0,0,0,0	test	ward_and_allport	2,0,0,3,1,0,0,0,0	82.0	27.0	2.687	0,0,0,0,0,0,1,2,3	to_hand	s614
575.838	0.636	0	PA_without_intermediate	2,0,0,3,1,0,0,0,0	test	ward_and_allport	2,0,0,3,1,0,0,0,0	71.0	27.0	0.636	0,0,0,0,0,0,1,2,3	to_board	s614
576.487	1.0	0	PA_without_intermediate	n/a	test	ward_and_allport	n/a	-1.0	27.0	n/a	n/a	feedback	s614
577.487	1.408	0	PA_without_intermediate	n/a	test	ward_and_allport	n/a	-1.0	27.0	n/a	n/a	ITI	s614
n/a	n/a	0	n/a	n/a	n/a	n/a	n/a	n/a	n/a	n/a	n/a	ITI	n/a
