onset	duration	planning	condition	current_position	exp_stage	experiment_exp_id	goal_state	key_press	problem_id	response_time	start_state	trial_id	worker_id
-51.174	0.0	0	n/a	n/a	n/a	ward_and_allport	n/a	32.0	n/a	17.587	n/a	instructions	s557
3.014	4.48	1	UA_with_intermediate	1,0,0,2,0,0,0,0,0	practice	ward_and_allport	1,2,3,0,0,0,0,0,0	71.0	0.0	4.48	1,0,0,2,3,0,0,0,0	to_hand	s557
7.496	0.52	0	UA_with_intermediate	1,0,0,2,0,0,3,0,0	practice	ward_and_allport	1,2,3,0,0,0,0,0,0	82.0	0.0	0.52	1,0,0,2,3,0,0,0,0	to_board	s557
8.018	1.681	0	UA_with_intermediate	1,0,0,0,0,0,3,0,0	practice	ward_and_allport	1,2,3,0,0,0,0,0,0	71.0	0.0	1.681	1,0,0,2,3,0,0,0,0	to_hand	s557
9.7	0.446	0	UA_with_intermediate	1,2,0,0,0,0,3,0,0	practice	ward_and_allport	1,2,3,0,0,0,0,0,0	89.0	0.0	0.446	1,0,0,2,3,0,0,0,0	to_board	s557
10.146	1.731	0	UA_with_intermediate	1,2,0,0,0,0,0,0,0	practice	ward_and_allport	1,2,3,0,0,0,0,0,0	82.0	0.0	1.731	1,0,0,2,3,0,0,0,0	to_hand	s557
11.878	0.588	0	UA_with_intermediate	1,2,3,0,0,0,0,0,0	practice	ward_and_allport	1,2,3,0,0,0,0,0,0	89.0	0.0	0.588	1,0,0,2,3,0,0,0,0	to_board	s557
12.47	1.0	0	UA_with_intermediate	n/a	practice	ward_and_allport	n/a	-1.0	0.0	n/a	n/a	feedback	s557
14.973	6.468	1	UA_with_intermediate	1,0,0,3,0,0,0,0,0	practice	ward_and_allport	1,3,2,0,0,0,0,0,0	89.0	1.0	6.468	1,2,0,3,0,0,0,0,0	to_hand	s557
21.442	0.523	0	UA_with_intermediate	1,0,0,3,0,0,2,0,0	practice	ward_and_allport	1,3,2,0,0,0,0,0,0	82.0	1.0	0.523	1,2,0,3,0,0,0,0,0	to_board	s557
21.966	0.556	0	UA_with_intermediate	1,0,0,0,0,0,2,0,0	practice	ward_and_allport	1,3,2,0,0,0,0,0,0	71.0	1.0	0.556	1,2,0,3,0,0,0,0,0	to_hand	s557
22.523	0.532	0	UA_with_intermediate	1,3,0,0,0,0,2,0,0	practice	ward_and_allport	1,3,2,0,0,0,0,0,0	89.0	1.0	0.532	1,2,0,3,0,0,0,0,0	to_board	s557
23.057	0.542	0	UA_with_intermediate	1,3,0,0,0,0,0,0,0	practice	ward_and_allport	1,3,2,0,0,0,0,0,0	82.0	1.0	0.542	1,2,0,3,0,0,0,0,0	to_hand	s557
23.601	0.459	0	UA_with_intermediate	1,3,2,0,0,0,0,0,0	practice	ward_and_allport	1,3,2,0,0,0,0,0,0	89.0	1.0	0.459	1,2,0,3,0,0,0,0,0	to_board	s557
24.064	1.0	0	UA_with_intermediate	n/a	practice	ward_and_allport	n/a	-1.0	1.0	n/a	n/a	feedback	s557
25.064	1.1	0	UA_with_intermediate	n/a	practice	ward_and_allport	n/a	-1.0	1.0	n/a	n/a	ITI	s557
26.165	5.384	1	UA_without_intermediate	0,0,0,1,2,0,0,0,0	practice	ward_and_allport	3,2,1,0,0,0,0,0,0	82.0	2.0	5.384	0,0,0,1,2,0,3,0,0	to_hand	s557
31.551	0.476	0	UA_without_intermediate	3,0,0,1,2,0,0,0,0	practice	ward_and_allport	3,2,1,0,0,0,0,0,0	89.0	2.0	0.476	0,0,0,1,2,0,3,0,0	to_board	s557
32.028	0.701	0	UA_without_intermediate	3,0,0,1,0,0,0,0,0	practice	ward_and_allport	3,2,1,0,0,0,0,0,0	71.0	2.0	0.701	0,0,0,1,2,0,3,0,0	to_hand	s557
32.73	0.435	0	UA_without_intermediate	3,2,0,1,0,0,0,0,0	practice	ward_and_allport	3,2,1,0,0,0,0,0,0	89.0	2.0	0.435	0,0,0,1,2,0,3,0,0	to_board	s557
33.168	0.647	0	UA_without_intermediate	3,2,0,0,0,0,0,0,0	practice	ward_and_allport	3,2,1,0,0,0,0,0,0	71.0	2.0	0.647	0,0,0,1,2,0,3,0,0	to_hand	s557
33.816	0.413	0	UA_without_intermediate	3,2,1,0,0,0,0,0,0	practice	ward_and_allport	3,2,1,0,0,0,0,0,0	89.0	2.0	0.413	0,0,0,1,2,0,3,0,0	to_board	s557
34.232	1.0	0	UA_without_intermediate	n/a	practice	ward_and_allport	n/a	-1.0	2.0	n/a	n/a	feedback	s557
35.232	1.2	0	UA_without_intermediate	n/a	practice	ward_and_allport	n/a	-1.0	2.0	n/a	n/a	ITI	s557
36.434	4.877	1	UA_without_intermediate	0,0,0,1,0,0,3,0,0	practice	ward_and_allport	2,3,1,0,0,0,0,0,0	71.0	3.0	4.877	0,0,0,1,2,0,3,0,0	to_hand	s557
41.311	0.451	0	UA_without_intermediate	2,0,0,1,0,0,3,0,0	practice	ward_and_allport	2,3,1,0,0,0,0,0,0	89.0	3.0	0.451	0,0,0,1,2,0,3,0,0	to_board	s557
41.765	0.975	0	UA_without_intermediate	2,0,0,1,0,0,0,0,0	practice	ward_and_allport	2,3,1,0,0,0,0,0,0	82.0	3.0	0.975	0,0,0,1,2,0,3,0,0	to_hand	s557
42.741	0.499	0	UA_without_intermediate	2,3,0,1,0,0,0,0,0	practice	ward_and_allport	2,3,1,0,0,0,0,0,0	89.0	3.0	0.499	0,0,0,1,2,0,3,0,0	to_board	s557
43.241	0.483	0	UA_without_intermediate	2,3,0,0,0,0,0,0,0	practice	ward_and_allport	2,3,1,0,0,0,0,0,0	71.0	3.0	0.483	0,0,0,1,2,0,3,0,0	to_hand	s557
43.725	0.461	0	UA_without_intermediate	2,3,1,0,0,0,0,0,0	practice	ward_and_allport	2,3,1,0,0,0,0,0,0	89.0	3.0	0.461	0,0,0,1,2,0,3,0,0	to_board	s557
44.192	1.0	0	UA_without_intermediate	n/a	practice	ward_and_allport	n/a	-1.0	3.0	n/a	n/a	feedback	s557
45.192	1.0	0	UA_without_intermediate	n/a	practice	ward_and_allport	n/a	-1.0	3.0	n/a	n/a	ITI	s557
48.198	7.783	1	PA_with_intermediate	1,2,0,0,0,0,0,0,0	test	ward_and_allport	1,3,0,2,0,0,0,0,0	89.0	0.0	7.783	1,2,3,0,0,0,0,0,0	to_hand	s557
55.982	0.471	0	PA_with_intermediate	1,2,0,0,0,0,3,0,0	test	ward_and_allport	1,3,0,2,0,0,0,0,0	82.0	0.0	0.471	1,2,3,0,0,0,0,0,0	to_board	s557
56.455	1.575	0	PA_with_intermediate	1,0,0,0,0,0,3,0,0	test	ward_and_allport	1,3,0,2,0,0,0,0,0	89.0	0.0	1.575	1,2,3,0,0,0,0,0,0	to_hand	s557
58.031	1.07	0	PA_with_intermediate	1,0,0,2,0,0,3,0,0	test	ward_and_allport	1,3,0,2,0,0,0,0,0	71.0	0.0	1.07	1,2,3,0,0,0,0,0,0	to_board	s557
59.102	2.081	0	PA_with_intermediate	1,0,0,2,0,0,0,0,0	test	ward_and_allport	1,3,0,2,0,0,0,0,0	82.0	0.0	2.081	1,2,3,0,0,0,0,0,0	to_hand	s557
61.185	0.403	0	PA_with_intermediate	1,3,0,2,0,0,0,0,0	test	ward_and_allport	1,3,0,2,0,0,0,0,0	89.0	0.0	0.403	1,2,3,0,0,0,0,0,0	to_board	s557
61.593	1.0	0	PA_with_intermediate	n/a	test	ward_and_allport	n/a	-1.0	0.0	n/a	n/a	feedback	s557
62.593	2.768	0	PA_with_intermediate	n/a	test	ward_and_allport	n/a	-1.0	0.0	n/a	n/a	ITI	s557
65.363	4.371	1	PA_with_intermediate	1,2,0,0,0,0,0,0,0	test	ward_and_allport	1,3,0,0,0,0,2,0,0	89.0	1.0	4.371	1,2,3,0,0,0,0,0,0	to_hand	s557
69.734	0.651	0	PA_with_intermediate	1,2,0,3,0,0,0,0,0	test	ward_and_allport	1,3,0,0,0,0,2,0,0	71.0	1.0	0.651	1,2,3,0,0,0,0,0,0	to_board	s557
70.388	0.674	0	PA_with_intermediate	1,0,0,3,0,0,0,0,0	test	ward_and_allport	1,3,0,0,0,0,2,0,0	89.0	1.0	0.674	1,2,3,0,0,0,0,0,0	to_hand	s557
71.063	0.49	0	PA_with_intermediate	1,0,0,3,0,0,2,0,0	test	ward_and_allport	1,3,0,0,0,0,2,0,0	82.0	1.0	0.49	1,2,3,0,0,0,0,0,0	to_board	s557
71.554	0.633	0	PA_with_intermediate	1,0,0,0,0,0,2,0,0	test	ward_and_allport	1,3,0,0,0,0,2,0,0	71.0	1.0	0.633	1,2,3,0,0,0,0,0,0	to_hand	s557
72.189	0.439	0	PA_with_intermediate	1,3,0,0,0,0,2,0,0	test	ward_and_allport	1,3,0,0,0,0,2,0,0	89.0	1.0	0.439	1,2,3,0,0,0,0,0,0	to_board	s557
72.633	1.0	0	PA_with_intermediate	n/a	test	ward_and_allport	n/a	-1.0	1.0	n/a	n/a	feedback	s557
73.633	1.68	0	PA_with_intermediate	n/a	test	ward_and_allport	n/a	-1.0	1.0	n/a	n/a	ITI	s557
75.314	4.785	1	PA_without_intermediate	0,0,0,0,0,0,1,2,0	test	ward_and_allport	1,0,0,3,2,0,0,0,0	82.0	2.0	4.785	0,0,0,0,0,0,1,2,3	to_hand	s557
80.101	0.486	0	PA_without_intermediate	0,0,0,3,0,0,1,2,0	test	ward_and_allport	1,0,0,3,2,0,0,0,0	71.0	2.0	0.486	0,0,0,0,0,0,1,2,3	to_board	s557
80.589	0.723	0	PA_without_intermediate	0,0,0,3,0,0,1,0,0	test	ward_and_allport	1,0,0,3,2,0,0,0,0	82.0	2.0	0.723	0,0,0,0,0,0,1,2,3	to_hand	s557
81.314	0.604	0	PA_without_intermediate	0,0,0,3,2,0,1,0,0	test	ward_and_allport	1,0,0,3,2,0,0,0,0	71.0	2.0	0.604	0,0,0,0,0,0,1,2,3	to_board	s557
81.92	1.204	0	PA_without_intermediate	0,0,0,3,2,0,0,0,0	test	ward_and_allport	1,0,0,3,2,0,0,0,0	82.0	2.0	1.204	0,0,0,0,0,0,1,2,3	to_hand	s557
83.125	0.437	0	PA_without_intermediate	1,0,0,3,2,0,0,0,0	test	ward_and_allport	1,0,0,3,2,0,0,0,0	89.0	2.0	0.437	0,0,0,0,0,0,1,2,3	to_board	s557
83.567	1.0	0	PA_without_intermediate	n/a	test	ward_and_allport	n/a	-1.0	2.0	n/a	n/a	feedback	s557
84.567	2.224	0	PA_without_intermediate	n/a	test	ward_and_allport	n/a	-1.0	2.0	n/a	n/a	ITI	s557
86.793	2.081	1	PA_without_intermediate	0,0,0,1,2,0,0,0,0	test	ward_and_allport	3,2,0,0,0,0,1,0,0	71.0	3.0	2.081	0,0,0,1,2,3,0,0,0	to_hand	s557
88.875	0.488	0	PA_without_intermediate	3,0,0,1,2,0,0,0,0	test	ward_and_allport	3,2,0,0,0,0,1,0,0	89.0	3.0	0.488	0,0,0,1,2,3,0,0,0	to_board	s557
89.366	0.626	0	PA_without_intermediate	3,0,0,1,0,0,0,0,0	test	ward_and_allport	3,2,0,0,0,0,1,0,0	71.0	3.0	0.626	0,0,0,1,2,3,0,0,0	to_hand	s557
89.993	0.551	0	PA_without_intermediate	3,2,0,1,0,0,0,0,0	test	ward_and_allport	3,2,0,0,0,0,1,0,0	89.0	3.0	0.551	0,0,0,1,2,3,0,0,0	to_board	s557
90.547	1.029	0	PA_without_intermediate	3,2,0,0,0,0,0,0,0	test	ward_and_allport	3,2,0,0,0,0,1,0,0	71.0	3.0	1.029	0,0,0,1,2,3,0,0,0	to_hand	s557
91.576	0.453	0	PA_without_intermediate	3,2,0,0,0,0,1,0,0	test	ward_and_allport	3,2,0,0,0,0,1,0,0	82.0	3.0	0.453	0,0,0,1,2,3,0,0,0	to_board	s557
92.033	1.0	0	PA_without_intermediate	n/a	test	ward_and_allport	n/a	-1.0	3.0	n/a	n/a	feedback	s557
93.033	2.36	0	PA_without_intermediate	n/a	test	ward_and_allport	n/a	-1.0	3.0	n/a	n/a	ITI	s557
95.395	3.066	1	PA_without_intermediate	1,2,0,0,0,0,0,0,0	test	ward_and_allport	0,0,0,3,1,0,2,0,0	89.0	4.0	3.066	1,2,3,0,0,0,0,0,0	to_hand	s557
98.463	0.484	0	PA_without_intermediate	1,2,0,3,0,0,0,0,0	test	ward_and_allport	0,0,0,3,1,0,2,0,0	71.0	4.0	0.484	1,2,3,0,0,0,0,0,0	to_board	s557
98.949	1.155	0	PA_without_intermediate	1,0,0,3,0,0,0,0,0	test	ward_and_allport	0,0,0,3,1,0,2,0,0	89.0	4.0	1.155	1,2,3,0,0,0,0,0,0	to_hand	s557
100.105	0.499	0	PA_without_intermediate	1,0,0,3,0,0,2,0,0	test	ward_and_allport	0,0,0,3,1,0,2,0,0	82.0	4.0	0.499	1,2,3,0,0,0,0,0,0	to_board	s557
100.608	0.613	0	PA_without_intermediate	0,0,0,3,0,0,2,0,0	test	ward_and_allport	0,0,0,3,1,0,2,0,0	89.0	4.0	0.613	1,2,3,0,0,0,0,0,0	to_hand	s557
101.221	0.382	0	PA_without_intermediate	0,0,0,3,1,0,2,0,0	test	ward_and_allport	0,0,0,3,1,0,2,0,0	71.0	4.0	0.382	1,2,3,0,0,0,0,0,0	to_board	s557
101.607	1.0	0	PA_without_intermediate	n/a	test	ward_and_allport	n/a	-1.0	4.0	n/a	n/a	feedback	s557
102.607	1.0	0	PA_without_intermediate	n/a	test	ward_and_allport	n/a	-1.0	4.0	n/a	n/a	ITI	s557
103.609	2.326	1	PA_without_intermediate	0,0,0,1,2,0,0,0,0	test	ward_and_allport	2,0,0,0,0,0,3,1,0	71.0	5.0	2.326	0,0,0,1,2,3,0,0,0	to_hand	s557
105.936	0.48	0	PA_without_intermediate	0,0,0,1,2,0,3,0,0	test	ward_and_allport	2,0,0,0,0,0,3,1,0	82.0	5.0	0.48	0,0,0,1,2,3,0,0,0	to_board	s557
106.418	2.616	0	PA_without_intermediate	0,0,0,1,0,0,3,0,0	test	ward_and_allport	2,0,0,0,0,0,3,1,0	71.0	5.0	2.616	0,0,0,1,2,3,0,0,0	to_hand	s557
109.035	0.324	0	PA_without_intermediate	2,0,0,1,0,0,3,0,0	test	ward_and_allport	2,0,0,0,0,0,3,1,0	89.0	5.0	0.324	0,0,0,1,2,3,0,0,0	to_board	s557
109.362	0.615	0	PA_without_intermediate	2,0,0,0,0,0,3,0,0	test	ward_and_allport	2,0,0,0,0,0,3,1,0	71.0	5.0	0.615	0,0,0,1,2,3,0,0,0	to_hand	s557
109.978	0.622	0	PA_without_intermediate	2,0,0,0,0,0,3,1,0	test	ward_and_allport	2,0,0,0,0,0,3,1,0	82.0	5.0	0.622	0,0,0,1,2,3,0,0,0	to_board	s557
110.607	1.0	0	PA_without_intermediate	n/a	test	ward_and_allport	n/a	-1.0	5.0	n/a	n/a	feedback	s557
111.607	1.408	0	PA_without_intermediate	n/a	test	ward_and_allport	n/a	-1.0	5.0	n/a	n/a	ITI	s557
113.019	3.98	1	PA_with_intermediate	0,0,0,1,2,0,0,0,0	test	ward_and_allport	0,0,0,1,0,0,2,3,0	71.0	6.0	3.98	0,0,0,1,2,3,0,0,0	to_hand	s557
116.999	0.567	0	PA_with_intermediate	3,0,0,1,2,0,0,0,0	test	ward_and_allport	0,0,0,1,0,0,2,3,0	89.0	6.0	0.567	0,0,0,1,2,3,0,0,0	to_board	s557
117.568	0.629	0	PA_with_intermediate	3,0,0,1,0,0,0,0,0	test	ward_and_allport	0,0,0,1,0,0,2,3,0	71.0	6.0	0.629	0,0,0,1,2,3,0,0,0	to_hand	s557
118.199	0.387	0	PA_with_intermediate	3,0,0,1,0,0,2,0,0	test	ward_and_allport	0,0,0,1,0,0,2,3,0	82.0	6.0	0.387	0,0,0,1,2,3,0,0,0	to_board	s557
118.589	1.183	0	PA_with_intermediate	0,0,0,1,0,0,2,0,0	test	ward_and_allport	0,0,0,1,0,0,2,3,0	89.0	6.0	1.183	0,0,0,1,2,3,0,0,0	to_hand	s557
119.772	0.557	0	PA_with_intermediate	0,0,0,1,0,0,2,3,0	test	ward_and_allport	0,0,0,1,0,0,2,3,0	82.0	6.0	0.557	0,0,0,1,2,3,0,0,0	to_board	s557
120.335	1.0	0	PA_with_intermediate	n/a	test	ward_and_allport	n/a	-1.0	6.0	n/a	n/a	feedback	s557
121.335	1.136	0	PA_with_intermediate	n/a	test	ward_and_allport	n/a	-1.0	6.0	n/a	n/a	ITI	s557
122.475	4.619	1	PA_without_intermediate	0,0,0,0,0,0,1,2,0	test	ward_and_allport	3,1,0,2,0,0,0,0,0	82.0	7.0	4.619	0,0,0,0,0,0,1,2,3	to_hand	s557
127.095	0.461	0	PA_without_intermediate	3,0,0,0,0,0,1,2,0	test	ward_and_allport	3,1,0,2,0,0,0,0,0	89.0	7.0	0.461	0,0,0,0,0,0,1,2,3	to_board	s557
127.559	1.012	0	PA_without_intermediate	3,0,0,0,0,0,1,0,0	test	ward_and_allport	3,1,0,2,0,0,0,0,0	82.0	7.0	1.012	0,0,0,0,0,0,1,2,3	to_hand	s557
128.572	0.622	0	PA_without_intermediate	3,0,0,2,0,0,1,0,0	test	ward_and_allport	3,1,0,2,0,0,0,0,0	71.0	7.0	0.622	0,0,0,0,0,0,1,2,3	to_board	s557
129.198	0.521	0	PA_without_intermediate	3,0,0,2,0,0,0,0,0	test	ward_and_allport	3,1,0,2,0,0,0,0,0	82.0	7.0	0.521	0,0,0,0,0,0,1,2,3	to_hand	s557
129.721	0.481	0	PA_without_intermediate	3,1,0,2,0,0,0,0,0	test	ward_and_allport	3,1,0,2,0,0,0,0,0	89.0	7.0	0.481	0,0,0,0,0,0,1,2,3	to_board	s557
130.208	1.0	0	PA_without_intermediate	n/a	test	ward_and_allport	n/a	-1.0	7.0	n/a	n/a	feedback	s557
131.208	4.128	0	PA_without_intermediate	n/a	test	ward_and_allport	n/a	-1.0	7.0	n/a	n/a	ITI	s557
135.34	1.807	1	PA_without_intermediate	1,2,0,0,0,0,0,0,0	test	ward_and_allport	0,0,0,2,0,0,3,1,0	89.0	8.0	1.807	1,2,3,0,0,0,0,0,0	to_hand	s557
137.148	0.298	0	PA_without_intermediate	1,2,0,0,0,0,3,0,0	test	ward_and_allport	0,0,0,2,0,0,3,1,0	82.0	8.0	0.298	1,2,3,0,0,0,0,0,0	to_board	s557
137.449	1.28	0	PA_without_intermediate	1,0,0,0,0,0,3,0,0	test	ward_and_allport	0,0,0,2,0,0,3,1,0	89.0	8.0	1.28	1,2,3,0,0,0,0,0,0	to_hand	s557
138.73	0.687	0	PA_without_intermediate	1,0,0,2,0,0,3,0,0	test	ward_and_allport	0,0,0,2,0,0,3,1,0	71.0	8.0	0.687	1,2,3,0,0,0,0,0,0	to_board	s557
139.42	0.44	0	PA_without_intermediate	0,0,0,2,0,0,3,0,0	test	ward_and_allport	0,0,0,2,0,0,3,1,0	89.0	8.0	0.44	1,2,3,0,0,0,0,0,0	to_hand	s557
139.86	0.844	0	PA_without_intermediate	0,0,0,2,0,0,3,1,0	test	ward_and_allport	0,0,0,2,0,0,3,1,0	82.0	8.0	0.844	1,2,3,0,0,0,0,0,0	to_board	s557
140.709	1.0	0	PA_without_intermediate	n/a	test	ward_and_allport	n/a	-1.0	8.0	n/a	n/a	feedback	s557
141.709	1.136	0	PA_without_intermediate	n/a	test	ward_and_allport	n/a	-1.0	8.0	n/a	n/a	ITI	s557
142.847	1.915	1	PA_without_intermediate	0,0,0,0,0,0,1,2,0	test	ward_and_allport	2,0,0,3,1,0,0,0,0	82.0	9.0	1.915	0,0,0,0,0,0,1,2,3	to_hand	s557
144.763	0.372	0	PA_without_intermediate	0,0,0,3,0,0,1,2,0	test	ward_and_allport	2,0,0,3,1,0,0,0,0	71.0	9.0	0.372	0,0,0,0,0,0,1,2,3	to_board	s557
145.139	1.328	0	PA_without_intermediate	0,0,0,3,0,0,1,0,0	test	ward_and_allport	2,0,0,3,1,0,0,0,0	82.0	9.0	1.328	0,0,0,0,0,0,1,2,3	to_hand	s557
146.467	0.332	0	PA_without_intermediate	2,0,0,3,0,0,1,0,0	test	ward_and_allport	2,0,0,3,1,0,0,0,0	89.0	9.0	0.332	0,0,0,0,0,0,1,2,3	to_board	s557
146.803	1.12	0	PA_without_intermediate	2,0,0,3,0,0,0,0,0	test	ward_and_allport	2,0,0,3,1,0,0,0,0	82.0	9.0	1.12	0,0,0,0,0,0,1,2,3	to_hand	s557
147.924	0.33	0	PA_without_intermediate	2,0,0,3,1,0,0,0,0	test	ward_and_allport	2,0,0,3,1,0,0,0,0	71.0	9.0	0.33	0,0,0,0,0,0,1,2,3	to_board	s557
148.261	1.0	0	PA_without_intermediate	n/a	test	ward_and_allport	n/a	-1.0	9.0	n/a	n/a	feedback	s557
149.261	4.264	0	PA_without_intermediate	n/a	test	ward_and_allport	n/a	-1.0	9.0	n/a	n/a	ITI	s557
153.528	3.297	1	PA_with_intermediate	1,2,0,0,0,0,0,0,0	test	ward_and_allport	1,3,0,0,0,0,2,0,0	89.0	10.0	3.297	1,2,3,0,0,0,0,0,0	to_hand	s557
156.827	0.469	0	PA_with_intermediate	1,2,0,3,0,0,0,0,0	test	ward_and_allport	1,3,0,0,0,0,2,0,0	71.0	10.0	0.469	1,2,3,0,0,0,0,0,0	to_board	s557
157.298	0.607	0	PA_with_intermediate	1,0,0,3,0,0,0,0,0	test	ward_and_allport	1,3,0,0,0,0,2,0,0	89.0	10.0	0.607	1,2,3,0,0,0,0,0,0	to_hand	s557
157.907	0.512	0	PA_with_intermediate	1,0,0,3,0,0,2,0,0	test	ward_and_allport	1,3,0,0,0,0,2,0,0	82.0	10.0	0.512	1,2,3,0,0,0,0,0,0	to_board	s557
158.424	0.573	0	PA_with_intermediate	1,0,0,0,0,0,2,0,0	test	ward_and_allport	1,3,0,0,0,0,2,0,0	71.0	10.0	0.573	1,2,3,0,0,0,0,0,0	to_hand	s557
158.997	0.405	0	PA_with_intermediate	1,3,0,0,0,0,2,0,0	test	ward_and_allport	1,3,0,0,0,0,2,0,0	89.0	10.0	0.405	1,2,3,0,0,0,0,0,0	to_board	s557
159.408	1.0	0	PA_with_intermediate	n/a	test	ward_and_allport	n/a	-1.0	10.0	n/a	n/a	feedback	s557
160.408	3.04	0	PA_with_intermediate	n/a	test	ward_and_allport	n/a	-1.0	10.0	n/a	n/a	ITI	s557
163.452	1.387	1	PA_with_intermediate	0,0,0,1,2,0,0,0,0	test	ward_and_allport	2,3,0,1,0,0,0,0,0	71.0	11.0	1.387	0,0,0,1,2,3,0,0,0	to_hand	s557
164.841	2.002	0	PA_with_intermediate	0,0,0,1,2,0,3,0,0	test	ward_and_allport	2,3,0,1,0,0,0,0,0	82.0	11.0	2.002	0,0,0,1,2,3,0,0,0	to_board	s557
166.848	0.789	0	PA_with_intermediate	0,0,0,1,0,0,3,0,0	test	ward_and_allport	2,3,0,1,0,0,0,0,0	71.0	11.0	0.789	0,0,0,1,2,3,0,0,0	to_hand	s557
167.638	0.669	0	PA_with_intermediate	2,0,0,1,0,0,3,0,0	test	ward_and_allport	2,3,0,1,0,0,0,0,0	89.0	11.0	0.669	0,0,0,1,2,3,0,0,0	to_board	s557
168.31	0.653	0	PA_with_intermediate	2,0,0,1,0,0,0,0,0	test	ward_and_allport	2,3,0,1,0,0,0,0,0	82.0	11.0	0.653	0,0,0,1,2,3,0,0,0	to_hand	s557
168.965	1.009	0	PA_with_intermediate	2,3,0,1,0,0,0,0,0	test	ward_and_allport	2,3,0,1,0,0,0,0,0	89.0	11.0	1.009	0,0,0,1,2,3,0,0,0	to_board	s557
169.979	1.0	0	PA_with_intermediate	n/a	test	ward_and_allport	n/a	-1.0	11.0	n/a	n/a	feedback	s557
170.979	1.136	0	PA_with_intermediate	n/a	test	ward_and_allport	n/a	-1.0	11.0	n/a	n/a	ITI	s557
172.12	3.568	1	PA_with_intermediate	0,0,0,1,2,0,0,0,0	test	ward_and_allport	0,0,0,1,0,0,2,3,0	71.0	12.0	3.568	0,0,0,1,2,3,0,0,0	to_hand	s557
175.69	0.495	0	PA_with_intermediate	3,0,0,1,2,0,0,0,0	test	ward_and_allport	0,0,0,1,0,0,2,3,0	89.0	12.0	0.495	0,0,0,1,2,3,0,0,0	to_board	s557
176.188	0.813	0	PA_with_intermediate	3,0,0,1,0,0,0,0,0	test	ward_and_allport	0,0,0,1,0,0,2,3,0	71.0	12.0	0.813	0,0,0,1,2,3,0,0,0	to_hand	s557
177.003	0.514	0	PA_with_intermediate	3,0,0,1,0,0,2,0,0	test	ward_and_allport	0,0,0,1,0,0,2,3,0	82.0	12.0	0.514	0,0,0,1,2,3,0,0,0	to_board	s557
177.521	1.185	0	PA_with_intermediate	0,0,0,1,0,0,2,0,0	test	ward_and_allport	0,0,0,1,0,0,2,3,0	89.0	12.0	1.185	0,0,0,1,2,3,0,0,0	to_hand	s557
178.707	0.468	0	PA_with_intermediate	0,0,0,1,0,0,2,3,0	test	ward_and_allport	0,0,0,1,0,0,2,3,0	82.0	12.0	0.468	0,0,0,1,2,3,0,0,0	to_board	s557
179.18	1.0	0	PA_with_intermediate	n/a	test	ward_and_allport	n/a	-1.0	12.0	n/a	n/a	feedback	s557
180.18	1.408	0	PA_with_intermediate	n/a	test	ward_and_allport	n/a	-1.0	12.0	n/a	n/a	ITI	s557
181.591	1.72	1	PA_without_intermediate	0,0,0,0,0,0,1,2,0	test	ward_and_allport	3,2,0,1,0,0,0,0,0	82.0	13.0	1.72	0,0,0,0,0,0,1,2,3	to_hand	s557
183.313	0.313	0	PA_without_intermediate	3,0,0,0,0,0,1,2,0	test	ward_and_allport	3,2,0,1,0,0,0,0,0	89.0	13.0	0.313	0,0,0,0,0,0,1,2,3	to_board	s557
183.629	0.473	0	PA_without_intermediate	3,0,0,0,0,0,1,0,0	test	ward_and_allport	3,2,0,1,0,0,0,0,0	82.0	13.0	0.473	0,0,0,0,0,0,1,2,3	to_hand	s557
184.104	1.181	0	PA_without_intermediate	3,2,0,0,0,0,1,0,0	test	ward_and_allport	3,2,0,1,0,0,0,0,0	89.0	13.0	1.181	0,0,0,0,0,0,1,2,3	to_board	s557
185.288	1.277	0	PA_without_intermediate	3,2,0,0,0,0,0,0,0	test	ward_and_allport	3,2,0,1,0,0,0,0,0	82.0	13.0	1.277	0,0,0,0,0,0,1,2,3	to_hand	s557
186.568	0.316	0	PA_without_intermediate	3,2,0,1,0,0,0,0,0	test	ward_and_allport	3,2,0,1,0,0,0,0,0	71.0	13.0	0.316	0,0,0,0,0,0,1,2,3	to_board	s557
186.889	1.0	0	PA_without_intermediate	n/a	test	ward_and_allport	n/a	-1.0	13.0	n/a	n/a	feedback	s557
187.889	1.68	0	PA_without_intermediate	n/a	test	ward_and_allport	n/a	-1.0	13.0	n/a	n/a	ITI	s557
189.573	4.331	1	PA_with_intermediate	0,0,0,0,0,0,1,2,0	test	ward_and_allport	2,3,0,0,0,0,1,0,0	82.0	14.0	4.331	0,0,0,0,0,0,1,2,3	to_hand	s557
193.905	0.421	0	PA_with_intermediate	3,0,0,0,0,0,1,2,0	test	ward_and_allport	2,3,0,0,0,0,1,0,0	89.0	14.0	0.421	0,0,0,0,0,0,1,2,3	to_board	s557
194.329	0.515	0	PA_with_intermediate	3,0,0,0,0,0,1,0,0	test	ward_and_allport	2,3,0,0,0,0,1,0,0	82.0	14.0	0.515	0,0,0,0,0,0,1,2,3	to_hand	s557
194.846	3.003	0	PA_with_intermediate	3,0,0,2,0,0,1,0,0	test	ward_and_allport	2,3,0,0,0,0,1,0,0	71.0	14.0	3.003	0,0,0,0,0,0,1,2,3	to_board	s557
197.855	0.496	0	PA_with_intermediate	0,0,0,2,0,0,1,0,0	test	ward_and_allport	2,3,0,0,0,0,1,0,0	89.0	14.0	0.496	0,0,0,0,0,0,1,2,3	to_hand	s557
198.352	0.395	0	PA_with_intermediate	0,0,0,2,0,0,1,3,0	test	ward_and_allport	2,3,0,0,0,0,1,0,0	82.0	14.0	0.395	0,0,0,0,0,0,1,2,3	to_board	s557
198.751	0.503	0	PA_with_intermediate	0,0,0,0,0,0,1,3,0	test	ward_and_allport	2,3,0,0,0,0,1,0,0	71.0	14.0	0.503	0,0,0,0,0,0,1,2,3	to_hand	s557
199.256	0.304	0	PA_with_intermediate	2,0,0,0,0,0,1,3,0	test	ward_and_allport	2,3,0,0,0,0,1,0,0	89.0	14.0	0.304	0,0,0,0,0,0,1,2,3	to_board	s557
199.564	1.162	0	PA_with_intermediate	2,0,0,0,0,0,1,0,0	test	ward_and_allport	2,3,0,0,0,0,1,0,0	82.0	14.0	1.162	0,0,0,0,0,0,1,2,3	to_hand	s557
200.727	0.424	0	PA_with_intermediate	2,3,0,0,0,0,1,0,0	test	ward_and_allport	2,3,0,0,0,0,1,0,0	89.0	14.0	0.424	0,0,0,0,0,0,1,2,3	to_board	s557
201.156	1.0	0	PA_with_intermediate	n/a	test	ward_and_allport	n/a	-1.0	14.0	n/a	n/a	feedback	s557
202.156	3.72	0	PA_with_intermediate	n/a	test	ward_and_allport	n/a	-1.0	14.0	n/a	n/a	ITI	s557
210.883	4.045	1	PA_without_intermediate	0,0,0,1,2,0,0,0,0	test	ward_and_allport	1,0,0,0,0,0,3,2,0	71.0	15.0	4.045	0,0,0,1,2,3,0,0,0	to_hand	s557
214.929	0.235	0	PA_without_intermediate	0,0,0,1,2,0,3,0,0	test	ward_and_allport	1,0,0,0,0,0,3,2,0	82.0	15.0	0.235	0,0,0,1,2,3,0,0,0	to_board	s557
215.167	0.479	0	PA_without_intermediate	0,0,0,1,0,0,3,0,0	test	ward_and_allport	1,0,0,0,0,0,3,2,0	71.0	15.0	0.479	0,0,0,1,2,3,0,0,0	to_hand	s557
215.647	0.284	0	PA_without_intermediate	0,0,0,1,0,0,3,2,0	test	ward_and_allport	1,0,0,0,0,0,3,2,0	82.0	15.0	0.284	0,0,0,1,2,3,0,0,0	to_board	s557
215.934	0.576	0	PA_without_intermediate	0,0,0,0,0,0,3,2,0	test	ward_and_allport	1,0,0,0,0,0,3,2,0	71.0	15.0	0.576	0,0,0,1,2,3,0,0,0	to_hand	s557
216.511	0.175	0	PA_without_intermediate	1,0,0,0,0,0,3,2,0	test	ward_and_allport	1,0,0,0,0,0,3,2,0	89.0	15.0	0.175	0,0,0,1,2,3,0,0,0	to_board	s557
216.695	1.0	0	PA_without_intermediate	n/a	test	ward_and_allport	n/a	-1.0	15.0	n/a	n/a	feedback	s557
217.695	2.224	0	PA_without_intermediate	n/a	test	ward_and_allport	n/a	-1.0	15.0	n/a	n/a	ITI	s557
219.922	2.06	1	PA_without_intermediate	0,0,0,0,0,0,1,2,0	test	ward_and_allport	1,0,0,3,2,0,0,0,0	82.0	16.0	2.06	0,0,0,0,0,0,1,2,3	to_hand	s557
221.984	0.405	0	PA_without_intermediate	0,0,0,3,0,0,1,2,0	test	ward_and_allport	1,0,0,3,2,0,0,0,0	71.0	16.0	0.405	0,0,0,0,0,0,1,2,3	to_board	s557
222.392	0.658	0	PA_without_intermediate	0,0,0,3,0,0,1,0,0	test	ward_and_allport	1,0,0,3,2,0,0,0,0	82.0	16.0	0.658	0,0,0,0,0,0,1,2,3	to_hand	s557
223.051	0.375	0	PA_without_intermediate	0,0,0,3,2,0,1,0,0	test	ward_and_allport	1,0,0,3,2,0,0,0,0	71.0	16.0	0.375	0,0,0,0,0,0,1,2,3	to_board	s557
223.429	0.701	0	PA_without_intermediate	0,0,0,3,2,0,0,0,0	test	ward_and_allport	1,0,0,3,2,0,0,0,0	82.0	16.0	0.701	0,0,0,0,0,0,1,2,3	to_hand	s557
224.132	0.301	0	PA_without_intermediate	1,0,0,3,2,0,0,0,0	test	ward_and_allport	1,0,0,3,2,0,0,0,0	89.0	16.0	0.301	0,0,0,0,0,0,1,2,3	to_board	s557
224.439	1.0	0	PA_without_intermediate	n/a	test	ward_and_allport	n/a	-1.0	16.0	n/a	n/a	feedback	s557
225.439	1.272	0	PA_without_intermediate	n/a	test	ward_and_allport	n/a	-1.0	16.0	n/a	n/a	ITI	s557
226.716	1.233	1	PA_with_intermediate	0,0,0,1,2,0,0,0,0	test	ward_and_allport	2,0,0,1,3,0,0,0,0	71.0	17.0	1.233	0,0,0,1,2,3,0,0,0	to_hand	s557
227.951	1.421	0	PA_with_intermediate	0,0,0,1,2,0,3,0,0	test	ward_and_allport	2,0,0,1,3,0,0,0,0	82.0	17.0	1.421	0,0,0,1,2,3,0,0,0	to_board	s557
229.375	1.175	0	PA_with_intermediate	0,0,0,1,0,0,3,0,0	test	ward_and_allport	2,0,0,1,3,0,0,0,0	71.0	17.0	1.175	0,0,0,1,2,3,0,0,0	to_hand	s557
230.551	0.357	0	PA_with_intermediate	2,0,0,1,0,0,3,0,0	test	ward_and_allport	2,0,0,1,3,0,0,0,0	89.0	17.0	0.357	0,0,0,1,2,3,0,0,0	to_board	s557
230.913	1.55	0	PA_with_intermediate	2,0,0,1,0,0,0,0,0	test	ward_and_allport	2,0,0,1,3,0,0,0,0	82.0	17.0	1.55	0,0,0,1,2,3,0,0,0	to_hand	s557
232.463	0.292	0	PA_with_intermediate	2,0,0,1,3,0,0,0,0	test	ward_and_allport	2,0,0,1,3,0,0,0,0	71.0	17.0	0.292	0,0,0,1,2,3,0,0,0	to_board	s557
232.762	1.0	0	PA_with_intermediate	n/a	test	ward_and_allport	n/a	-1.0	17.0	n/a	n/a	feedback	s557
233.762	2.632	0	PA_with_intermediate	n/a	test	ward_and_allport	n/a	-1.0	17.0	n/a	n/a	ITI	s557
236.399	3.47	1	PA_without_intermediate	0,0,0,1,2,0,0,0,0	test	ward_and_allport	2,0,0,0,0,0,3,1,0	71.0	18.0	3.47	0,0,0,1,2,3,0,0,0	to_hand	s557
239.87	0.345	0	PA_without_intermediate	0,0,0,1,2,0,3,0,0	test	ward_and_allport	2,0,0,0,0,0,3,1,0	82.0	18.0	0.345	0,0,0,1,2,3,0,0,0	to_board	s557
240.219	0.342	0	PA_without_intermediate	0,0,0,1,0,0,3,0,0	test	ward_and_allport	2,0,0,0,0,0,3,1,0	71.0	18.0	0.342	0,0,0,1,2,3,0,0,0	to_hand	s557
240.562	0.423	0	PA_without_intermediate	2,0,0,1,0,0,3,0,0	test	ward_and_allport	2,0,0,0,0,0,3,1,0	89.0	18.0	0.423	0,0,0,1,2,3,0,0,0	to_board	s557
240.989	0.393	0	PA_without_intermediate	2,0,0,0,0,0,3,0,0	test	ward_and_allport	2,0,0,0,0,0,3,1,0	71.0	18.0	0.393	0,0,0,1,2,3,0,0,0	to_hand	s557
241.383	0.384	0	PA_without_intermediate	2,0,0,0,0,0,3,1,0	test	ward_and_allport	2,0,0,0,0,0,3,1,0	82.0	18.0	0.384	0,0,0,1,2,3,0,0,0	to_board	s557
241.773	1.0	0	PA_without_intermediate	n/a	test	ward_and_allport	n/a	-1.0	18.0	n/a	n/a	feedback	s557
242.773	1.408	0	PA_without_intermediate	n/a	test	ward_and_allport	n/a	-1.0	18.0	n/a	n/a	ITI	s557
244.186	2.663	1	PA_without_intermediate	0,0,0,0,0,0,1,2,0	test	ward_and_allport	3,2,0,1,0,0,0,0,0	82.0	19.0	2.663	0,0,0,0,0,0,1,2,3	to_hand	s557
246.851	0.25	0	PA_without_intermediate	3,0,0,0,0,0,1,2,0	test	ward_and_allport	3,2,0,1,0,0,0,0,0	89.0	19.0	0.25	0,0,0,0,0,0,1,2,3	to_board	s557
247.105	0.58	0	PA_without_intermediate	3,0,0,0,0,0,1,0,0	test	ward_and_allport	3,2,0,1,0,0,0,0,0	82.0	19.0	0.58	0,0,0,0,0,0,1,2,3	to_hand	s557
247.687	0.299	0	PA_without_intermediate	3,2,0,0,0,0,1,0,0	test	ward_and_allport	3,2,0,1,0,0,0,0,0	89.0	19.0	0.299	0,0,0,0,0,0,1,2,3	to_board	s557
247.99	0.862	0	PA_without_intermediate	3,2,0,0,0,0,0,0,0	test	ward_and_allport	3,2,0,1,0,0,0,0,0	82.0	19.0	0.862	0,0,0,0,0,0,1,2,3	to_hand	s557
248.853	0.225	0	PA_without_intermediate	3,2,0,1,0,0,0,0,0	test	ward_and_allport	3,2,0,1,0,0,0,0,0	71.0	19.0	0.225	0,0,0,0,0,0,1,2,3	to_board	s557
249.083	1.0	0	PA_without_intermediate	n/a	test	ward_and_allport	n/a	-1.0	19.0	n/a	n/a	feedback	s557
250.083	1.0	0	PA_without_intermediate	n/a	test	ward_and_allport	n/a	-1.0	19.0	n/a	n/a	ITI	s557
251.087	5.001	1	PA_with_intermediate	0,0,0,0,0,0,1,2,0	test	ward_and_allport	0,0,0,2,0,0,1,3,0	82.0	20.0	5.001	0,0,0,0,0,0,1,2,3	to_hand	s557
256.089	0.375	0	PA_with_intermediate	3,0,0,0,0,0,1,2,0	test	ward_and_allport	0,0,0,2,0,0,1,3,0	89.0	20.0	0.375	0,0,0,0,0,0,1,2,3	to_board	s557
256.469	0.87	0	PA_with_intermediate	3,0,0,0,0,0,1,0,0	test	ward_and_allport	0,0,0,2,0,0,1,3,0	82.0	20.0	0.87	0,0,0,0,0,0,1,2,3	to_hand	s557
257.34	0.359	0	PA_with_intermediate	3,0,0,2,0,0,1,0,0	test	ward_and_allport	0,0,0,2,0,0,1,3,0	71.0	20.0	0.359	0,0,0,0,0,0,1,2,3	to_board	s557
257.703	1.934	0	PA_with_intermediate	0,0,0,2,0,0,1,0,0	test	ward_and_allport	0,0,0,2,0,0,1,3,0	89.0	20.0	1.934	0,0,0,0,0,0,1,2,3	to_hand	s557
259.639	0.204	0	PA_with_intermediate	0,0,0,2,0,0,1,3,0	test	ward_and_allport	0,0,0,2,0,0,1,3,0	82.0	20.0	0.204	0,0,0,0,0,0,1,2,3	to_board	s557
259.851	1.0	0	PA_with_intermediate	n/a	test	ward_and_allport	n/a	-1.0	20.0	n/a	n/a	feedback	s557
260.851	1.0	0	PA_with_intermediate	n/a	test	ward_and_allport	n/a	-1.0	20.0	n/a	n/a	ITI	s557
261.856	3.181	1	PA_with_intermediate	0,0,0,1,2,0,0,0,0	test	ward_and_allport	0,0,0,1,3,0,2,0,0	71.0	21.0	3.181	0,0,0,1,2,3,0,0,0	to_hand	s557
265.039	0.391	0	PA_with_intermediate	3,0,0,1,2,0,0,0,0	test	ward_and_allport	0,0,0,1,3,0,2,0,0	89.0	21.0	0.391	0,0,0,1,2,3,0,0,0	to_board	s557
265.434	0.453	0	PA_with_intermediate	3,0,0,1,0,0,0,0,0	test	ward_and_allport	0,0,0,1,3,0,2,0,0	71.0	21.0	0.453	0,0,0,1,2,3,0,0,0	to_hand	s557
265.887	0.42	0	PA_with_intermediate	3,0,0,1,0,0,2,0,0	test	ward_and_allport	0,0,0,1,3,0,2,0,0	82.0	21.0	0.42	0,0,0,1,2,3,0,0,0	to_board	s557
266.311	0.687	0	PA_with_intermediate	0,0,0,1,0,0,2,0,0	test	ward_and_allport	0,0,0,1,3,0,2,0,0	89.0	21.0	0.687	0,0,0,1,2,3,0,0,0	to_hand	s557
266.999	0.345	0	PA_with_intermediate	0,0,0,1,3,0,2,0,0	test	ward_and_allport	0,0,0,1,3,0,2,0,0	71.0	21.0	0.345	0,0,0,1,2,3,0,0,0	to_board	s557
267.35	1.0	0	PA_with_intermediate	n/a	test	ward_and_allport	n/a	-1.0	21.0	n/a	n/a	feedback	s557
268.35	1.0	0	PA_with_intermediate	n/a	test	ward_and_allport	n/a	-1.0	21.0	n/a	n/a	ITI	s557
269.354	2.781	1	PA_with_intermediate	0,0,0,1,2,0,0,0,0	test	ward_and_allport	2,0,0,1,3,0,0,0,0	71.0	22.0	2.781	0,0,0,1,2,3,0,0,0	to_hand	s557
272.135	0.769	0	PA_with_intermediate	0,0,0,1,2,0,3,0,0	test	ward_and_allport	2,0,0,1,3,0,0,0,0	82.0	22.0	0.769	0,0,0,1,2,3,0,0,0	to_board	s557
272.909	0.614	0	PA_with_intermediate	0,0,0,1,0,0,3,0,0	test	ward_and_allport	2,0,0,1,3,0,0,0,0	71.0	22.0	0.614	0,0,0,1,2,3,0,0,0	to_hand	s557
273.525	0.427	0	PA_with_intermediate	2,0,0,1,0,0,3,0,0	test	ward_and_allport	2,0,0,1,3,0,0,0,0	89.0	22.0	0.427	0,0,0,1,2,3,0,0,0	to_board	s557
273.958	0.625	0	PA_with_intermediate	2,0,0,1,0,0,0,0,0	test	ward_and_allport	2,0,0,1,3,0,0,0,0	82.0	22.0	0.625	0,0,0,1,2,3,0,0,0	to_hand	s557
274.583	0.331	0	PA_with_intermediate	2,0,0,1,3,0,0,0,0	test	ward_and_allport	2,0,0,1,3,0,0,0,0	71.0	22.0	0.331	0,0,0,1,2,3,0,0,0	to_board	s557
274.921	1.0	0	PA_with_intermediate	n/a	test	ward_and_allport	n/a	-1.0	22.0	n/a	n/a	feedback	s557
275.921	1.408	0	PA_with_intermediate	n/a	test	ward_and_allport	n/a	-1.0	22.0	n/a	n/a	ITI	s557
277.335	5.344	1	PA_without_intermediate	0,0,0,1,2,0,0,0,0	test	ward_and_allport	3,1,0,0,0,0,2,0,0	71.0	23.0	5.344	0,0,0,1,2,3,0,0,0	to_hand	s557
282.679	0.384	0	PA_without_intermediate	3,0,0,1,2,0,0,0,0	test	ward_and_allport	3,1,0,0,0,0,2,0,0	89.0	23.0	0.384	0,0,0,1,2,3,0,0,0	to_board	s557
283.068	0.479	0	PA_without_intermediate	3,0,0,1,0,0,0,0,0	test	ward_and_allport	3,1,0,0,0,0,2,0,0	71.0	23.0	0.479	0,0,0,1,2,3,0,0,0	to_hand	s557
283.548	0.411	0	PA_without_intermediate	3,0,0,1,0,0,2,0,0	test	ward_and_allport	3,1,0,0,0,0,2,0,0	82.0	23.0	0.411	0,0,0,1,2,3,0,0,0	to_board	s557
283.965	0.809	0	PA_without_intermediate	3,0,0,0,0,0,2,0,0	test	ward_and_allport	3,1,0,0,0,0,2,0,0	71.0	23.0	0.809	0,0,0,1,2,3,0,0,0	to_hand	s557
284.774	0.352	0	PA_without_intermediate	3,1,0,0,0,0,2,0,0	test	ward_and_allport	3,1,0,0,0,0,2,0,0	89.0	23.0	0.352	0,0,0,1,2,3,0,0,0	to_board	s557
285.137	1.0	0	PA_without_intermediate	n/a	test	ward_and_allport	n/a	-1.0	23.0	n/a	n/a	feedback	s557
286.137	1.816	0	PA_without_intermediate	n/a	test	ward_and_allport	n/a	-1.0	23.0	n/a	n/a	ITI	s557
287.959	3.412	1	PA_with_intermediate	0,0,0,0,0,0,1,2,0	test	ward_and_allport	0,0,0,2,0,0,1,3,0	82.0	24.0	3.412	0,0,0,0,0,0,1,2,3	to_hand	s557
291.372	0.395	0	PA_with_intermediate	3,0,0,0,0,0,1,2,0	test	ward_and_allport	0,0,0,2,0,0,1,3,0	89.0	24.0	0.395	0,0,0,0,0,0,1,2,3	to_board	s557
291.773	1.619	0	PA_with_intermediate	3,0,0,0,0,0,1,0,0	test	ward_and_allport	0,0,0,2,0,0,1,3,0	82.0	24.0	1.619	0,0,0,0,0,0,1,2,3	to_hand	s557
293.394	0.395	0	PA_with_intermediate	3,0,0,2,0,0,1,0,0	test	ward_and_allport	0,0,0,2,0,0,1,3,0	71.0	24.0	0.395	0,0,0,0,0,0,1,2,3	to_board	s557
293.794	1.259	0	PA_with_intermediate	0,0,0,2,0,0,1,0,0	test	ward_and_allport	0,0,0,2,0,0,1,3,0	89.0	24.0	1.259	0,0,0,0,0,0,1,2,3	to_hand	s557
295.055	0.372	0	PA_with_intermediate	0,0,0,2,0,0,1,3,0	test	ward_and_allport	0,0,0,2,0,0,1,3,0	82.0	24.0	0.372	0,0,0,0,0,0,1,2,3	to_board	s557
295.436	1.0	0	PA_with_intermediate	n/a	test	ward_and_allport	n/a	-1.0	24.0	n/a	n/a	feedback	s557
296.436	3.176	0	PA_with_intermediate	n/a	test	ward_and_allport	n/a	-1.0	24.0	n/a	n/a	ITI	s557
299.618	2.774	1	PA_with_intermediate	1,2,0,0,0,0,0,0,0	test	ward_and_allport	1,3,0,2,0,0,0,0,0	89.0	25.0	2.774	1,2,3,0,0,0,0,0,0	to_hand	s557
302.392	0.371	0	PA_with_intermediate	1,2,0,0,0,0,3,0,0	test	ward_and_allport	1,3,0,2,0,0,0,0,0	82.0	25.0	0.371	1,2,3,0,0,0,0,0,0	to_board	s557
302.77	1.028	0	PA_with_intermediate	1,0,0,0,0,0,3,0,0	test	ward_and_allport	1,3,0,2,0,0,0,0,0	89.0	25.0	1.028	1,2,3,0,0,0,0,0,0	to_hand	s557
303.799	0.373	0	PA_with_intermediate	1,0,0,2,0,0,3,0,0	test	ward_and_allport	1,3,0,2,0,0,0,0,0	71.0	25.0	0.373	1,2,3,0,0,0,0,0,0	to_board	s557
304.177	0.699	0	PA_with_intermediate	1,0,0,2,0,0,0,0,0	test	ward_and_allport	1,3,0,2,0,0,0,0,0	82.0	25.0	0.699	1,2,3,0,0,0,0,0,0	to_hand	s557
304.877	0.272	0	PA_with_intermediate	1,3,0,2,0,0,0,0,0	test	ward_and_allport	1,3,0,2,0,0,0,0,0	89.0	25.0	0.272	1,2,3,0,0,0,0,0,0	to_board	s557
305.159	1.0	0	PA_with_intermediate	n/a	test	ward_and_allport	n/a	-1.0	25.0	n/a	n/a	feedback	s557
306.159	2.36	0	PA_with_intermediate	n/a	test	ward_and_allport	n/a	-1.0	25.0	n/a	n/a	ITI	s557
308.524	1.304	1	PA_with_intermediate	1,2,0,0,0,0,0,0,0	test	ward_and_allport	1,0,0,0,0,0,2,3,0	89.0	26.0	1.304	1,2,3,0,0,0,0,0,0	to_hand	s557
309.83	1.64	0	PA_with_intermediate	1,2,0,3,0,0,0,0,0	test	ward_and_allport	1,0,0,0,0,0,2,3,0	71.0	26.0	1.64	1,2,3,0,0,0,0,0,0	to_board	s557
311.475	0.65	0	PA_with_intermediate	1,0,0,3,0,0,0,0,0	test	ward_and_allport	1,0,0,0,0,0,2,3,0	89.0	26.0	0.65	1,2,3,0,0,0,0,0,0	to_hand	s557
312.125	0.342	0	PA_with_intermediate	1,0,0,3,0,0,2,0,0	test	ward_and_allport	1,0,0,0,0,0,2,3,0	82.0	26.0	0.342	1,2,3,0,0,0,0,0,0	to_board	s557
312.473	0.539	0	PA_with_intermediate	1,0,0,0,0,0,2,0,0	test	ward_and_allport	1,0,0,0,0,0,2,3,0	71.0	26.0	0.539	1,2,3,0,0,0,0,0,0	to_hand	s557
313.013	0.393	0	PA_with_intermediate	1,0,0,0,0,0,2,3,0	test	ward_and_allport	1,0,0,0,0,0,2,3,0	82.0	26.0	0.393	1,2,3,0,0,0,0,0,0	to_board	s557
313.415	1.0	0	PA_with_intermediate	n/a	test	ward_and_allport	n/a	-1.0	26.0	n/a	n/a	feedback	s557
314.415	1.0	0	PA_with_intermediate	n/a	test	ward_and_allport	n/a	-1.0	26.0	n/a	n/a	ITI	s557
315.422	1.717	1	PA_without_intermediate	1,2,0,0,0,0,0,0,0	test	ward_and_allport	0,0,0,2,0,0,3,1,0	89.0	27.0	1.717	1,2,3,0,0,0,0,0,0	to_hand	s557
317.14	0.351	0	PA_without_intermediate	1,2,0,0,0,0,3,0,0	test	ward_and_allport	0,0,0,2,0,0,3,1,0	82.0	27.0	0.351	1,2,3,0,0,0,0,0,0	to_board	s557
317.498	1.32	0	PA_without_intermediate	1,0,0,0,0,0,3,0,0	test	ward_and_allport	0,0,0,2,0,0,3,1,0	89.0	27.0	1.32	1,2,3,0,0,0,0,0,0	to_hand	s557
318.819	0.324	0	PA_without_intermediate	1,0,0,2,0,0,3,0,0	test	ward_and_allport	0,0,0,2,0,0,3,1,0	71.0	27.0	0.324	1,2,3,0,0,0,0,0,0	to_board	s557
319.149	0.748	0	PA_without_intermediate	0,0,0,2,0,0,3,0,0	test	ward_and_allport	0,0,0,2,0,0,3,1,0	89.0	27.0	0.748	1,2,3,0,0,0,0,0,0	to_hand	s557
319.898	0.397	0	PA_without_intermediate	0,0,0,2,0,0,3,1,0	test	ward_and_allport	0,0,0,2,0,0,3,1,0	82.0	27.0	0.397	1,2,3,0,0,0,0,0,0	to_board	s557
320.303	1.0	0	PA_without_intermediate	n/a	test	ward_and_allport	n/a	-1.0	27.0	n/a	n/a	feedback	s557
321.303	1.408	0	PA_without_intermediate	n/a	test	ward_and_allport	n/a	-1.0	27.0	n/a	n/a	ITI	s557
322.718	2.426	1	PA_with_intermediate	0,0,0,0,0,0,1,2,0	test	ward_and_allport	2,3,0,0,0,0,1,0,0	82.0	28.0	2.426	0,0,0,0,0,0,1,2,3	to_hand	s557
325.145	1.075	0	PA_with_intermediate	0,0,0,3,0,0,1,2,0	test	ward_and_allport	2,3,0,0,0,0,1,0,0	71.0	28.0	1.075	0,0,0,0,0,0,1,2,3	to_board	s557
326.226	0.547	0	PA_with_intermediate	0,0,0,3,0,0,1,0,0	test	ward_and_allport	2,3,0,0,0,0,1,0,0	82.0	28.0	0.547	0,0,0,0,0,0,1,2,3	to_hand	s557
326.774	0.464	0	PA_with_intermediate	2,0,0,3,0,0,1,0,0	test	ward_and_allport	2,3,0,0,0,0,1,0,0	89.0	28.0	0.464	0,0,0,0,0,0,1,2,3	to_board	s557
327.246	0.785	0	PA_with_intermediate	2,0,0,0,0,0,1,0,0	test	ward_and_allport	2,3,0,0,0,0,1,0,0	71.0	28.0	0.785	0,0,0,0,0,0,1,2,3	to_hand	s557
328.032	0.421	0	PA_with_intermediate	2,3,0,0,0,0,1,0,0	test	ward_and_allport	2,3,0,0,0,0,1,0,0	89.0	28.0	0.421	0,0,0,0,0,0,1,2,3	to_board	s557
328.461	1.0	0	PA_with_intermediate	n/a	test	ward_and_allport	n/a	-1.0	28.0	n/a	n/a	feedback	s557
329.461	1.816	0	PA_with_intermediate	n/a	test	ward_and_allport	n/a	-1.0	28.0	n/a	n/a	ITI	s557
331.284	1.51	1	PA_without_intermediate	1,2,0,0,0,0,0,0,0	test	ward_and_allport	0,0,0,3,2,0,1,0,0	89.0	29.0	1.51	1,2,3,0,0,0,0,0,0	to_hand	s557
332.794	0.435	0	PA_without_intermediate	1,2,0,0,0,0,3,0,0	test	ward_and_allport	0,0,0,3,2,0,1,0,0	82.0	29.0	0.435	1,2,3,0,0,0,0,0,0	to_board	s557
333.235	0.938	0	PA_without_intermediate	1,0,0,0,0,0,3,0,0	test	ward_and_allport	0,0,0,3,2,0,1,0,0	89.0	29.0	0.938	1,2,3,0,0,0,0,0,0	to_hand	s557
334.175	3.237	0	PA_without_intermediate	1,2,0,0,0,0,3,0,0	test	ward_and_allport	0,0,0,3,2,0,1,0,0	89.0	29.0	3.237	1,2,3,0,0,0,0,0,0	to_board	s557
337.418	0.8	0	PA_without_intermediate	1,2,0,0,0,0,0,0,0	test	ward_and_allport	0,0,0,3,2,0,1,0,0	82.0	29.0	0.8	1,2,3,0,0,0,0,0,0	to_hand	s557
338.22	1.815	0	PA_without_intermediate	1,2,0,3,0,0,0,0,0	test	ward_and_allport	0,0,0,3,2,0,1,0,0	71.0	29.0	1.815	1,2,3,0,0,0,0,0,0	to_board	s557
340.042	0.749	0	PA_without_intermediate	1,0,0,3,0,0,0,0,0	test	ward_and_allport	0,0,0,3,2,0,1,0,0	89.0	29.0	0.749	1,2,3,0,0,0,0,0,0	to_hand	s557
340.792	0.348	0	PA_without_intermediate	1,0,0,3,0,0,2,0,0	test	ward_and_allport	0,0,0,3,2,0,1,0,0	82.0	29.0	0.348	1,2,3,0,0,0,0,0,0	to_board	s557
341.146	1.117	0	PA_without_intermediate	1,0,0,3,0,0,0,0,0	test	ward_and_allport	0,0,0,3,2,0,1,0,0	82.0	29.0	1.117	1,2,3,0,0,0,0,0,0	to_hand	s557
342.265	0.255	0	PA_without_intermediate	1,0,0,3,2,0,0,0,0	test	ward_and_allport	0,0,0,3,2,0,1,0,0	71.0	29.0	0.255	1,2,3,0,0,0,0,0,0	to_board	s557
342.527	0.426	0	PA_without_intermediate	0,0,0,3,2,0,0,0,0	test	ward_and_allport	0,0,0,3,2,0,1,0,0	89.0	29.0	0.426	1,2,3,0,0,0,0,0,0	to_hand	s557
342.953	0.193	0	PA_without_intermediate	0,0,0,3,2,0,1,0,0	test	ward_and_allport	0,0,0,3,2,0,1,0,0	82.0	29.0	0.193	1,2,3,0,0,0,0,0,0	to_board	s557
343.154	1.0	0	PA_without_intermediate	n/a	test	ward_and_allport	n/a	-1.0	29.0	n/a	n/a	feedback	s557
344.154	2.088	0	PA_without_intermediate	n/a	test	ward_and_allport	n/a	-1.0	29.0	n/a	n/a	ITI	s557
351.255	3.586	1	PA_without_intermediate	1,2,0,0,0,0,0,0,0	test	ward_and_allport	0,0,0,1,0,0,3,2,0	89.0	30.0	3.586	1,2,3,0,0,0,0,0,0	to_hand	s557
354.842	0.318	0	PA_without_intermediate	1,2,0,0,0,0,3,0,0	test	ward_and_allport	0,0,0,1,0,0,3,2,0	82.0	30.0	0.318	1,2,3,0,0,0,0,0,0	to_board	s557
355.167	0.452	0	PA_without_intermediate	1,0,0,0,0,0,3,0,0	test	ward_and_allport	0,0,0,1,0,0,3,2,0	89.0	30.0	0.452	1,2,3,0,0,0,0,0,0	to_hand	s557
355.62	0.309	0	PA_without_intermediate	1,0,0,0,0,0,3,2,0	test	ward_and_allport	0,0,0,1,0,0,3,2,0	82.0	30.0	0.309	1,2,3,0,0,0,0,0,0	to_board	s557
355.937	0.71	0	PA_without_intermediate	0,0,0,0,0,0,3,2,0	test	ward_and_allport	0,0,0,1,0,0,3,2,0	89.0	30.0	0.71	1,2,3,0,0,0,0,0,0	to_hand	s557
356.649	0.211	0	PA_without_intermediate	0,0,0,1,0,0,3,2,0	test	ward_and_allport	0,0,0,1,0,0,3,2,0	71.0	30.0	0.211	1,2,3,0,0,0,0,0,0	to_board	s557
356.87	1.0	0	PA_without_intermediate	n/a	test	ward_and_allport	n/a	-1.0	30.0	n/a	n/a	feedback	s557
357.87	1.136	0	PA_without_intermediate	n/a	test	ward_and_allport	n/a	-1.0	30.0	n/a	n/a	ITI	s557
359.014	4.898	1	PA_without_intermediate	0,0,0,1,2,0,0,0,0	test	ward_and_allport	3,1,0,0,0,0,2,0,0	71.0	31.0	4.898	0,0,0,1,2,3,0,0,0	to_hand	s557
363.913	0.276	0	PA_without_intermediate	3,0,0,1,2,0,0,0,0	test	ward_and_allport	3,1,0,0,0,0,2,0,0	89.0	31.0	0.276	0,0,0,1,2,3,0,0,0	to_board	s557
364.198	0.458	0	PA_without_intermediate	3,0,0,1,0,0,0,0,0	test	ward_and_allport	3,1,0,0,0,0,2,0,0	71.0	31.0	0.458	0,0,0,1,2,3,0,0,0	to_hand	s557
364.657	0.367	0	PA_without_intermediate	3,0,0,1,0,0,2,0,0	test	ward_and_allport	3,1,0,0,0,0,2,0,0	82.0	31.0	0.367	0,0,0,1,2,3,0,0,0	to_board	s557
365.03	0.627	0	PA_without_intermediate	3,0,0,0,0,0,2,0,0	test	ward_and_allport	3,1,0,0,0,0,2,0,0	71.0	31.0	0.627	0,0,0,1,2,3,0,0,0	to_hand	s557
365.658	0.301	0	PA_without_intermediate	3,1,0,0,0,0,2,0,0	test	ward_and_allport	3,1,0,0,0,0,2,0,0	89.0	31.0	0.301	0,0,0,1,2,3,0,0,0	to_board	s557
365.971	1.0	0	PA_without_intermediate	n/a	test	ward_and_allport	n/a	-1.0	31.0	n/a	n/a	feedback	s557
366.971	6.168	0	PA_without_intermediate	n/a	test	ward_and_allport	n/a	-1.0	31.0	n/a	n/a	ITI	s557
373.147	1.891	1	PA_without_intermediate	0,0,0,1,2,0,0,0,0	test	ward_and_allport	3,2,0,0,0,0,1,0,0	71.0	32.0	1.891	0,0,0,1,2,3,0,0,0	to_hand	s557
375.039	0.268	0	PA_without_intermediate	3,0,0,1,2,0,0,0,0	test	ward_and_allport	3,2,0,0,0,0,1,0,0	89.0	32.0	0.268	0,0,0,1,2,3,0,0,0	to_board	s557
375.313	0.406	0	PA_without_intermediate	3,0,0,1,0,0,0,0,0	test	ward_and_allport	3,2,0,0,0,0,1,0,0	71.0	32.0	0.406	0,0,0,1,2,3,0,0,0	to_hand	s557
375.72	0.254	0	PA_without_intermediate	3,2,0,1,0,0,0,0,0	test	ward_and_allport	3,2,0,0,0,0,1,0,0	89.0	32.0	0.254	0,0,0,1,2,3,0,0,0	to_board	s557
375.982	0.753	0	PA_without_intermediate	3,2,0,0,0,0,0,0,0	test	ward_and_allport	3,2,0,0,0,0,1,0,0	71.0	32.0	0.753	0,0,0,1,2,3,0,0,0	to_hand	s557
376.736	0.284	0	PA_without_intermediate	3,2,0,0,0,0,1,0,0	test	ward_and_allport	3,2,0,0,0,0,1,0,0	82.0	32.0	0.284	0,0,0,1,2,3,0,0,0	to_board	s557
377.033	1.0	0	PA_without_intermediate	n/a	test	ward_and_allport	n/a	-1.0	32.0	n/a	n/a	feedback	s557
378.033	1.816	0	PA_without_intermediate	n/a	test	ward_and_allport	n/a	-1.0	32.0	n/a	n/a	ITI	s557
379.855	2.104	1	PA_with_intermediate	1,2,0,0,0,0,0,0,0	test	ward_and_allport	1,0,0,2,3,0,0,0,0	89.0	33.0	2.104	1,2,3,0,0,0,0,0,0	to_hand	s557
381.96	2.316	0	PA_with_intermediate	1,2,0,0,0,0,3,0,0	test	ward_and_allport	1,0,0,2,3,0,0,0,0	82.0	33.0	2.316	1,2,3,0,0,0,0,0,0	to_board	s557
384.281	0.721	0	PA_with_intermediate	1,0,0,0,0,0,3,0,0	test	ward_and_allport	1,0,0,2,3,0,0,0,0	89.0	33.0	0.721	1,2,3,0,0,0,0,0,0	to_hand	s557
385.003	0.433	0	PA_with_intermediate	1,0,0,2,0,0,3,0,0	test	ward_and_allport	1,0,0,2,3,0,0,0,0	71.0	33.0	0.433	1,2,3,0,0,0,0,0,0	to_board	s557
385.445	0.458	0	PA_with_intermediate	1,0,0,2,0,0,0,0,0	test	ward_and_allport	1,0,0,2,3,0,0,0,0	82.0	33.0	0.458	1,2,3,0,0,0,0,0,0	to_hand	s557
385.904	0.181	0	PA_with_intermediate	1,0,0,2,3,0,0,0,0	test	ward_and_allport	1,0,0,2,3,0,0,0,0	71.0	33.0	0.181	1,2,3,0,0,0,0,0,0	to_board	s557
386.097	1.0	0	PA_with_intermediate	n/a	test	ward_and_allport	n/a	-1.0	33.0	n/a	n/a	feedback	s557
387.097	1.952	0	PA_with_intermediate	n/a	test	ward_and_allport	n/a	-1.0	33.0	n/a	n/a	ITI	s557
389.055	3.665	1	PA_with_intermediate	0,0,0,1,2,0,0,0,0	test	ward_and_allport	0,0,0,1,3,0,2,0,0	71.0	34.0	3.665	0,0,0,1,2,3,0,0,0	to_hand	s557
392.722	0.348	0	PA_with_intermediate	3,0,0,1,2,0,0,0,0	test	ward_and_allport	0,0,0,1,3,0,2,0,0	89.0	34.0	0.348	0,0,0,1,2,3,0,0,0	to_board	s557
393.078	0.445	0	PA_with_intermediate	3,0,0,1,0,0,0,0,0	test	ward_and_allport	0,0,0,1,3,0,2,0,0	71.0	34.0	0.445	0,0,0,1,2,3,0,0,0	to_hand	s557
393.525	0.332	0	PA_with_intermediate	3,0,0,1,0,0,2,0,0	test	ward_and_allport	0,0,0,1,3,0,2,0,0	82.0	34.0	0.332	0,0,0,1,2,3,0,0,0	to_board	s557
393.864	0.365	0	PA_with_intermediate	0,0,0,1,0,0,2,0,0	test	ward_and_allport	0,0,0,1,3,0,2,0,0	89.0	34.0	0.365	0,0,0,1,2,3,0,0,0	to_hand	s557
394.231	0.213	0	PA_with_intermediate	0,0,0,1,3,0,2,0,0	test	ward_and_allport	0,0,0,1,3,0,2,0,0	71.0	34.0	0.213	0,0,0,1,2,3,0,0,0	to_board	s557
394.454	1.0	0	PA_with_intermediate	n/a	test	ward_and_allport	n/a	-1.0	34.0	n/a	n/a	feedback	s557
395.454	1.136	0	PA_with_intermediate	n/a	test	ward_and_allport	n/a	-1.0	34.0	n/a	n/a	ITI	s557
396.598	1.647	1	PA_without_intermediate	1,2,0,0,0,0,0,0,0	test	ward_and_allport	0,0,0,1,0,0,3,2,0	89.0	35.0	1.647	1,2,3,0,0,0,0,0,0	to_hand	s557
398.246	0.268	0	PA_without_intermediate	1,2,0,0,0,0,3,0,0	test	ward_and_allport	0,0,0,1,0,0,3,2,0	82.0	35.0	0.268	1,2,3,0,0,0,0,0,0	to_board	s557
398.518	0.631	0	PA_without_intermediate	1,0,0,0,0,0,3,0,0	test	ward_and_allport	0,0,0,1,0,0,3,2,0	89.0	35.0	0.631	1,2,3,0,0,0,0,0,0	to_hand	s557
399.15	0.913	0	PA_without_intermediate	1,0,0,0,0,0,3,2,0	test	ward_and_allport	0,0,0,1,0,0,3,2,0	82.0	35.0	0.913	1,2,3,0,0,0,0,0,0	to_board	s557
400.069	0.532	0	PA_without_intermediate	0,0,0,0,0,0,3,2,0	test	ward_and_allport	0,0,0,1,0,0,3,2,0	89.0	35.0	0.532	1,2,3,0,0,0,0,0,0	to_hand	s557
400.603	0.213	0	PA_without_intermediate	0,0,0,1,0,0,3,2,0	test	ward_and_allport	0,0,0,1,0,0,3,2,0	71.0	35.0	0.213	1,2,3,0,0,0,0,0,0	to_board	s557
400.823	1.0	0	PA_without_intermediate	n/a	test	ward_and_allport	n/a	-1.0	35.0	n/a	n/a	feedback	s557
401.823	1.68	0	PA_without_intermediate	n/a	test	ward_and_allport	n/a	-1.0	35.0	n/a	n/a	ITI	s557
403.51	1.869	1	PA_without_intermediate	0,0,0,1,2,0,0,0,0	test	ward_and_allport	1,0,0,0,0,0,3,2,0	71.0	36.0	1.869	0,0,0,1,2,3,0,0,0	to_hand	s557
405.381	0.364	0	PA_without_intermediate	0,0,0,1,2,0,3,0,0	test	ward_and_allport	1,0,0,0,0,0,3,2,0	82.0	36.0	0.364	0,0,0,1,2,3,0,0,0	to_board	s557
405.753	0.714	0	PA_without_intermediate	0,0,0,1,0,0,3,0,0	test	ward_and_allport	1,0,0,0,0,0,3,2,0	71.0	36.0	0.714	0,0,0,1,2,3,0,0,0	to_hand	s557
406.468	0.797	0	PA_without_intermediate	0,0,0,1,0,0,3,2,0	test	ward_and_allport	1,0,0,0,0,0,3,2,0	82.0	36.0	0.797	0,0,0,1,2,3,0,0,0	to_board	s557
407.273	0.417	0	PA_without_intermediate	0,0,0,0,0,0,3,2,0	test	ward_and_allport	1,0,0,0,0,0,3,2,0	71.0	36.0	0.417	0,0,0,1,2,3,0,0,0	to_hand	s557
407.691	0.216	0	PA_without_intermediate	1,0,0,0,0,0,3,2,0	test	ward_and_allport	1,0,0,0,0,0,3,2,0	89.0	36.0	0.216	0,0,0,1,2,3,0,0,0	to_board	s557
407.919	1.0	0	PA_without_intermediate	n/a	test	ward_and_allport	n/a	-1.0	36.0	n/a	n/a	feedback	s557
408.919	2.088	0	PA_without_intermediate	n/a	test	ward_and_allport	n/a	-1.0	36.0	n/a	n/a	ITI	s557
411.013	3.168	1	PA_with_intermediate	1,2,0,0,0,0,0,0,0	test	ward_and_allport	1,0,0,2,3,0,0,0,0	89.0	37.0	3.168	1,2,3,0,0,0,0,0,0	to_hand	s557
414.183	0.287	0	PA_with_intermediate	1,2,0,0,0,0,3,0,0	test	ward_and_allport	1,0,0,2,3,0,0,0,0	82.0	37.0	0.287	1,2,3,0,0,0,0,0,0	to_board	s557
414.475	0.841	0	PA_with_intermediate	1,0,0,0,0,0,3,0,0	test	ward_and_allport	1,0,0,2,3,0,0,0,0	89.0	37.0	0.841	1,2,3,0,0,0,0,0,0	to_hand	s557
415.317	0.213	0	PA_with_intermediate	1,0,0,2,0,0,3,0,0	test	ward_and_allport	1,0,0,2,3,0,0,0,0	71.0	37.0	0.213	1,2,3,0,0,0,0,0,0	to_board	s557
415.538	1.209	0	PA_with_intermediate	1,0,0,2,0,0,0,0,0	test	ward_and_allport	1,0,0,2,3,0,0,0,0	82.0	37.0	1.209	1,2,3,0,0,0,0,0,0	to_hand	s557
416.747	0.297	0	PA_with_intermediate	1,0,0,2,3,0,0,0,0	test	ward_and_allport	1,0,0,2,3,0,0,0,0	71.0	37.0	0.297	1,2,3,0,0,0,0,0,0	to_board	s557
417.055	1.0	0	PA_with_intermediate	n/a	test	ward_and_allport	n/a	-1.0	37.0	n/a	n/a	feedback	s557
418.055	1.0	0	PA_with_intermediate	n/a	test	ward_and_allport	n/a	-1.0	37.0	n/a	n/a	ITI	s557
419.062	2.022	1	PA_without_intermediate	1,2,0,0,0,0,0,0,0	test	ward_and_allport	0,0,0,3,2,0,1,0,0	89.0	38.0	2.022	1,2,3,0,0,0,0,0,0	to_hand	s557
421.085	0.39	0	PA_without_intermediate	1,2,0,0,0,0,3,0,0	test	ward_and_allport	0,0,0,3,2,0,1,0,0	82.0	38.0	0.39	1,2,3,0,0,0,0,0,0	to_board	s557
421.483	2.932	0	PA_without_intermediate	1,2,0,0,0,0,0,0,0	test	ward_and_allport	0,0,0,3,2,0,1,0,0	82.0	38.0	2.932	1,2,3,0,0,0,0,0,0	to_hand	s557
424.416	0.188	0	PA_without_intermediate	1,2,0,3,0,0,0,0,0	test	ward_and_allport	0,0,0,3,2,0,1,0,0	71.0	38.0	0.188	1,2,3,0,0,0,0,0,0	to_board	s557
424.612	0.892	0	PA_without_intermediate	1,0,0,3,0,0,0,0,0	test	ward_and_allport	0,0,0,3,2,0,1,0,0	89.0	38.0	0.892	1,2,3,0,0,0,0,0,0	to_hand	s557
425.504	0.368	0	PA_without_intermediate	1,0,0,3,2,0,0,0,0	test	ward_and_allport	0,0,0,3,2,0,1,0,0	71.0	38.0	0.368	1,2,3,0,0,0,0,0,0	to_board	s557
425.883	0.667	0	PA_without_intermediate	0,0,0,3,2,0,0,0,0	test	ward_and_allport	0,0,0,3,2,0,1,0,0	89.0	38.0	0.667	1,2,3,0,0,0,0,0,0	to_hand	s557
426.55	0.272	0	PA_without_intermediate	0,0,0,3,2,0,1,0,0	test	ward_and_allport	0,0,0,3,2,0,1,0,0	82.0	38.0	0.272	1,2,3,0,0,0,0,0,0	to_board	s557
426.831	1.0	0	PA_without_intermediate	n/a	test	ward_and_allport	n/a	-1.0	38.0	n/a	n/a	feedback	s557
427.831	1.0	0	PA_without_intermediate	n/a	test	ward_and_allport	n/a	-1.0	38.0	n/a	n/a	ITI	s557
428.839	4.895	1	PA_without_intermediate	0,0,0,0,0,0,1,2,0	test	ward_and_allport	3,1,0,2,0,0,0,0,0	82.0	39.0	4.895	0,0,0,0,0,0,1,2,3	to_hand	s557
433.735	0.323	0	PA_without_intermediate	3,0,0,0,0,0,1,2,0	test	ward_and_allport	3,1,0,2,0,0,0,0,0	89.0	39.0	0.323	0,0,0,0,0,0,1,2,3	to_board	s557
434.067	0.49	0	PA_without_intermediate	3,0,0,0,0,0,1,0,0	test	ward_and_allport	3,1,0,2,0,0,0,0,0	82.0	39.0	0.49	0,0,0,0,0,0,1,2,3	to_hand	s557
434.558	0.341	0	PA_without_intermediate	3,0,0,2,0,0,1,0,0	test	ward_and_allport	3,1,0,2,0,0,0,0,0	71.0	39.0	0.341	0,0,0,0,0,0,1,2,3	to_board	s557
434.909	0.377	0	PA_without_intermediate	3,0,0,2,0,0,0,0,0	test	ward_and_allport	3,1,0,2,0,0,0,0,0	82.0	39.0	0.377	0,0,0,0,0,0,1,2,3	to_hand	s557
435.286	0.298	0	PA_without_intermediate	3,1,0,2,0,0,0,0,0	test	ward_and_allport	3,1,0,2,0,0,0,0,0	89.0	39.0	0.298	0,0,0,0,0,0,1,2,3	to_board	s557
435.594	1.0	0	PA_without_intermediate	n/a	test	ward_and_allport	n/a	-1.0	39.0	n/a	n/a	feedback	s557
436.594	1.0	0	PA_without_intermediate	n/a	test	ward_and_allport	n/a	-1.0	39.0	n/a	n/a	ITI	s557
437.601	2.746	1	PA_with_intermediate	0,0,0,0,0,0,1,2,0	test	ward_and_allport	0,0,0,2,3,0,1,0,0	82.0	40.0	2.746	0,0,0,0,0,0,1,2,3	to_hand	s557
440.348	0.355	0	PA_with_intermediate	3,0,0,0,0,0,1,2,0	test	ward_and_allport	0,0,0,2,3,0,1,0,0	89.0	40.0	0.355	0,0,0,0,0,0,1,2,3	to_board	s557
440.709	1.008	0	PA_with_intermediate	0,0,0,0,0,0,1,2,0	test	ward_and_allport	0,0,0,2,3,0,1,0,0	89.0	40.0	1.008	0,0,0,0,0,0,1,2,3	to_hand	s557
441.719	0.141	0	PA_with_intermediate	0,0,0,3,0,0,1,2,0	test	ward_and_allport	0,0,0,2,3,0,1,0,0	71.0	40.0	0.141	0,0,0,0,0,0,1,2,3	to_board	s557
441.867	0.623	0	PA_with_intermediate	0,0,0,3,0,0,1,0,0	test	ward_and_allport	0,0,0,2,3,0,1,0,0	82.0	40.0	0.623	0,0,0,0,0,0,1,2,3	to_hand	s557
442.492	0.261	0	PA_with_intermediate	0,0,0,3,2,0,1,0,0	test	ward_and_allport	0,0,0,2,3,0,1,0,0	71.0	40.0	0.261	0,0,0,0,0,0,1,2,3	to_board	s557
442.763	0.567	0	PA_with_intermediate	0,0,0,3,2,0,0,0,0	test	ward_and_allport	0,0,0,2,3,0,1,0,0	82.0	40.0	0.567	0,0,0,0,0,0,1,2,3	to_hand	s557
443.331	0.276	0	PA_with_intermediate	1,0,0,3,2,0,0,0,0	test	ward_and_allport	0,0,0,2,3,0,1,0,0	89.0	40.0	0.276	0,0,0,0,0,0,1,2,3	to_board	s557
443.615	0.95	0	PA_with_intermediate	0,0,0,3,2,0,0,0,0	test	ward_and_allport	0,0,0,2,3,0,1,0,0	89.0	40.0	0.95	0,0,0,0,0,0,1,2,3	to_hand	s557
444.565	0.24	0	PA_with_intermediate	0,0,0,3,2,0,1,0,0	test	ward_and_allport	0,0,0,2,3,0,1,0,0	82.0	40.0	0.24	0,0,0,0,0,0,1,2,3	to_board	s557
444.811	3.396	0	PA_with_intermediate	0,0,0,3,0,0,1,0,0	test	ward_and_allport	0,0,0,2,3,0,1,0,0	71.0	40.0	3.396	0,0,0,0,0,0,1,2,3	to_hand	s557
448.208	0.347	0	PA_with_intermediate	2,0,0,3,0,0,1,0,0	test	ward_and_allport	0,0,0,2,3,0,1,0,0	89.0	40.0	0.347	0,0,0,0,0,0,1,2,3	to_board	s557
448.562	2.658	0	PA_with_intermediate	2,0,0,0,0,0,1,0,0	test	ward_and_allport	0,0,0,2,3,0,1,0,0	71.0	40.0	2.658	0,0,0,0,0,0,1,2,3	to_hand	s557
451.221	0.353	0	PA_with_intermediate	2,0,0,0,0,0,1,3,0	test	ward_and_allport	0,0,0,2,3,0,1,0,0	82.0	40.0	0.353	0,0,0,0,0,0,1,2,3	to_board	s557
451.58	0.393	0	PA_with_intermediate	0,0,0,0,0,0,1,3,0	test	ward_and_allport	0,0,0,2,3,0,1,0,0	89.0	40.0	0.393	0,0,0,0,0,0,1,2,3	to_hand	s557
451.974	0.256	0	PA_with_intermediate	0,0,0,2,0,0,1,3,0	test	ward_and_allport	0,0,0,2,3,0,1,0,0	71.0	40.0	0.256	0,0,0,0,0,0,1,2,3	to_board	s557
452.238	0.749	0	PA_with_intermediate	0,0,0,2,0,0,1,0,0	test	ward_and_allport	0,0,0,2,3,0,1,0,0	82.0	40.0	0.749	0,0,0,0,0,0,1,2,3	to_hand	s557
452.989	0.18	0	PA_with_intermediate	0,0,0,2,3,0,1,0,0	test	ward_and_allport	0,0,0,2,3,0,1,0,0	71.0	40.0	0.18	0,0,0,0,0,0,1,2,3	to_board	s557
453.179	1.0	0	PA_with_intermediate	n/a	test	ward_and_allport	n/a	-1.0	40.0	n/a	n/a	feedback	s557
454.179	1.544	0	PA_with_intermediate	n/a	test	ward_and_allport	n/a	-1.0	40.0	n/a	n/a	ITI	s557
455.731	4.138	1	PA_without_intermediate	1,2,0,0,0,0,0,0,0	test	ward_and_allport	0,0,0,3,1,0,2,0,0	89.0	41.0	4.138	1,2,3,0,0,0,0,0,0	to_hand	s557
459.87	2.078	0	PA_without_intermediate	1,2,0,3,0,0,0,0,0	test	ward_and_allport	0,0,0,3,1,0,2,0,0	71.0	41.0	2.078	1,2,3,0,0,0,0,0,0	to_board	s557
461.954	1.064	0	PA_without_intermediate	1,0,0,3,0,0,0,0,0	test	ward_and_allport	0,0,0,3,1,0,2,0,0	89.0	41.0	1.064	1,2,3,0,0,0,0,0,0	to_hand	s557
463.019	0.473	0	PA_without_intermediate	1,0,0,3,0,0,2,0,0	test	ward_and_allport	0,0,0,3,1,0,2,0,0	82.0	41.0	0.473	1,2,3,0,0,0,0,0,0	to_board	s557
463.5	0.897	0	PA_without_intermediate	0,0,0,3,0,0,2,0,0	test	ward_and_allport	0,0,0,3,1,0,2,0,0	89.0	41.0	0.897	1,2,3,0,0,0,0,0,0	to_hand	s557
464.398	1.077	0	PA_without_intermediate	0,0,0,3,1,0,2,0,0	test	ward_and_allport	0,0,0,3,1,0,2,0,0	71.0	41.0	1.077	1,2,3,0,0,0,0,0,0	to_board	s557
465.488	1.0	0	PA_without_intermediate	n/a	test	ward_and_allport	n/a	-1.0	41.0	n/a	n/a	feedback	s557
466.488	1.272	0	PA_without_intermediate	n/a	test	ward_and_allport	n/a	-1.0	41.0	n/a	n/a	ITI	s557
467.769	2.787	1	PA_with_intermediate	0,0,0,0,0,0,1,2,0	test	ward_and_allport	2,0,0,0,0,0,1,3,0	82.0	42.0	2.787	0,0,0,0,0,0,1,2,3	to_hand	s557
470.557	0.645	0	PA_with_intermediate	0,0,0,3,0,0,1,2,0	test	ward_and_allport	2,0,0,0,0,0,1,3,0	71.0	42.0	0.645	0,0,0,0,0,0,1,2,3	to_board	s557
471.213	0.76	0	PA_with_intermediate	0,0,0,3,0,0,1,0,0	test	ward_and_allport	2,0,0,0,0,0,1,3,0	82.0	42.0	0.76	0,0,0,0,0,0,1,2,3	to_hand	s557
471.974	0.346	0	PA_with_intermediate	2,0,0,3,0,0,1,0,0	test	ward_and_allport	2,0,0,0,0,0,1,3,0	89.0	42.0	0.346	0,0,0,0,0,0,1,2,3	to_board	s557
472.328	0.435	0	PA_with_intermediate	2,0,0,0,0,0,1,0,0	test	ward_and_allport	2,0,0,0,0,0,1,3,0	71.0	42.0	0.435	0,0,0,0,0,0,1,2,3	to_hand	s557
472.764	0.273	0	PA_with_intermediate	2,0,0,0,0,0,1,3,0	test	ward_and_allport	2,0,0,0,0,0,1,3,0	82.0	42.0	0.273	0,0,0,0,0,0,1,2,3	to_board	s557
473.049	1.0	0	PA_with_intermediate	n/a	test	ward_and_allport	n/a	-1.0	42.0	n/a	n/a	feedback	s557
474.049	3.04	0	PA_with_intermediate	n/a	test	ward_and_allport	n/a	-1.0	42.0	n/a	n/a	ITI	s557
477.096	4.963	1	PA_with_intermediate	0,0,0,0,0,0,1,2,0	test	ward_and_allport	0,0,0,2,3,0,1,0,0	82.0	43.0	4.963	0,0,0,0,0,0,1,2,3	to_hand	s557
482.06	0.339	0	PA_with_intermediate	3,0,0,0,0,0,1,2,0	test	ward_and_allport	0,0,0,2,3,0,1,0,0	89.0	43.0	0.339	0,0,0,0,0,0,1,2,3	to_board	s557
482.409	0.645	0	PA_with_intermediate	3,0,0,0,0,0,1,0,0	test	ward_and_allport	0,0,0,2,3,0,1,0,0	82.0	43.0	0.645	0,0,0,0,0,0,1,2,3	to_hand	s557
483.055	0.354	0	PA_with_intermediate	3,0,0,2,0,0,1,0,0	test	ward_and_allport	0,0,0,2,3,0,1,0,0	71.0	43.0	0.354	0,0,0,0,0,0,1,2,3	to_board	s557
483.42	0.756	0	PA_with_intermediate	0,0,0,2,0,0,1,0,0	test	ward_and_allport	0,0,0,2,3,0,1,0,0	89.0	43.0	0.756	0,0,0,0,0,0,1,2,3	to_hand	s557
484.177	0.403	0	PA_with_intermediate	0,0,0,2,3,0,1,0,0	test	ward_and_allport	0,0,0,2,3,0,1,0,0	71.0	43.0	0.403	0,0,0,0,0,0,1,2,3	to_board	s557
484.593	1.0	0	PA_with_intermediate	n/a	test	ward_and_allport	n/a	-1.0	43.0	n/a	n/a	feedback	s557
485.593	1.272	0	PA_with_intermediate	n/a	test	ward_and_allport	n/a	-1.0	43.0	n/a	n/a	ITI	s557
486.874	3.715	1	PA_with_intermediate	1,2,0,0,0,0,0,0,0	test	ward_and_allport	1,0,0,0,0,0,2,3,0	89.0	44.0	3.715	1,2,3,0,0,0,0,0,0	to_hand	s557
490.591	0.426	0	PA_with_intermediate	1,2,0,3,0,0,0,0,0	test	ward_and_allport	1,0,0,0,0,0,2,3,0	71.0	44.0	0.426	1,2,3,0,0,0,0,0,0	to_board	s557
491.024	0.613	0	PA_with_intermediate	1,0,0,3,0,0,0,0,0	test	ward_and_allport	1,0,0,0,0,0,2,3,0	89.0	44.0	0.613	1,2,3,0,0,0,0,0,0	to_hand	s557
491.638	0.336	0	PA_with_intermediate	1,0,0,3,0,0,2,0,0	test	ward_and_allport	1,0,0,0,0,0,2,3,0	82.0	44.0	0.336	1,2,3,0,0,0,0,0,0	to_board	s557
491.981	0.575	0	PA_with_intermediate	1,0,0,0,0,0,2,0,0	test	ward_and_allport	1,0,0,0,0,0,2,3,0	71.0	44.0	0.575	1,2,3,0,0,0,0,0,0	to_hand	s557
492.558	0.41	0	PA_with_intermediate	1,0,0,0,0,0,2,3,0	test	ward_and_allport	1,0,0,0,0,0,2,3,0	82.0	44.0	0.41	1,2,3,0,0,0,0,0,0	to_board	s557
492.98	1.0	0	PA_with_intermediate	n/a	test	ward_and_allport	n/a	-1.0	44.0	n/a	n/a	feedback	s557
493.98	1.136	0	PA_with_intermediate	n/a	test	ward_and_allport	n/a	-1.0	44.0	n/a	n/a	ITI	s557
500.127	4.303	1	PA_with_intermediate	0,0,0,1,2,0,0,0,0	test	ward_and_allport	2,3,0,1,0,0,0,0,0	71.0	45.0	4.303	0,0,0,1,2,3,0,0,0	to_hand	s557
504.431	0.389	0	PA_with_intermediate	3,0,0,1,2,0,0,0,0	test	ward_and_allport	2,3,0,1,0,0,0,0,0	89.0	45.0	0.389	0,0,0,1,2,3,0,0,0	to_board	s557
504.831	3.159	0	PA_with_intermediate	3,0,0,1,0,0,0,0,0	test	ward_and_allport	2,3,0,1,0,0,0,0,0	71.0	45.0	3.159	0,0,0,1,2,3,0,0,0	to_hand	s557
507.99	0.328	0	PA_with_intermediate	3,0,0,1,0,0,2,0,0	test	ward_and_allport	2,3,0,1,0,0,0,0,0	82.0	45.0	0.328	0,0,0,1,2,3,0,0,0	to_board	s557
508.33	2.276	0	PA_with_intermediate	0,0,0,1,0,0,2,0,0	test	ward_and_allport	2,3,0,1,0,0,0,0,0	89.0	45.0	2.276	0,0,0,1,2,3,0,0,0	to_hand	s557
510.606	0.309	0	PA_with_intermediate	0,0,0,1,3,0,2,0,0	test	ward_and_allport	2,3,0,1,0,0,0,0,0	71.0	45.0	0.309	0,0,0,1,2,3,0,0,0	to_board	s557
510.927	0.658	0	PA_with_intermediate	0,0,0,1,3,0,0,0,0	test	ward_and_allport	2,3,0,1,0,0,0,0,0	82.0	45.0	0.658	0,0,0,1,2,3,0,0,0	to_hand	s557
511.587	0.414	0	PA_with_intermediate	2,0,0,1,3,0,0,0,0	test	ward_and_allport	2,3,0,1,0,0,0,0,0	89.0	45.0	0.414	0,0,0,1,2,3,0,0,0	to_board	s557
512.01	0.747	0	PA_with_intermediate	2,0,0,1,0,0,0,0,0	test	ward_and_allport	2,3,0,1,0,0,0,0,0	71.0	45.0	0.747	0,0,0,1,2,3,0,0,0	to_hand	s557
512.758	0.185	0	PA_with_intermediate	2,3,0,1,0,0,0,0,0	test	ward_and_allport	2,3,0,1,0,0,0,0,0	89.0	45.0	0.185	0,0,0,1,2,3,0,0,0	to_board	s557
512.956	1.0	0	PA_with_intermediate	n/a	test	ward_and_allport	n/a	-1.0	45.0	n/a	n/a	feedback	s557
513.956	1.0	0	PA_with_intermediate	n/a	test	ward_and_allport	n/a	-1.0	45.0	n/a	n/a	ITI	s557
514.964	4.084	1	PA_with_intermediate	0,0,0,0,0,0,1,2,0	test	ward_and_allport	2,0,0,0,0,0,1,3,0	82.0	46.0	4.084	0,0,0,0,0,0,1,2,3	to_hand	s557
519.048	0.245	0	PA_with_intermediate	0,0,0,3,0,0,1,2,0	test	ward_and_allport	2,0,0,0,0,0,1,3,0	71.0	46.0	0.245	0,0,0,0,0,0,1,2,3	to_board	s557
519.303	0.849	0	PA_with_intermediate	0,0,0,3,0,0,1,0,0	test	ward_and_allport	2,0,0,0,0,0,1,3,0	82.0	46.0	0.849	0,0,0,0,0,0,1,2,3	to_hand	s557
520.153	0.254	0	PA_with_intermediate	2,0,0,3,0,0,1,0,0	test	ward_and_allport	2,0,0,0,0,0,1,3,0	89.0	46.0	0.254	0,0,0,0,0,0,1,2,3	to_board	s557
520.417	0.578	0	PA_with_intermediate	2,0,0,0,0,0,1,0,0	test	ward_and_allport	2,0,0,0,0,0,1,3,0	71.0	46.0	0.578	0,0,0,0,0,0,1,2,3	to_hand	s557
520.997	0.262	0	PA_with_intermediate	2,0,0,0,0,0,1,3,0	test	ward_and_allport	2,0,0,0,0,0,1,3,0	82.0	46.0	0.262	0,0,0,0,0,0,1,2,3	to_board	s557
521.271	1.0	0	PA_with_intermediate	n/a	test	ward_and_allport	n/a	-1.0	46.0	n/a	n/a	feedback	s557
522.271	1.0	0	PA_with_intermediate	n/a	test	ward_and_allport	n/a	-1.0	46.0	n/a	n/a	ITI	s557
523.278	4.118	1	PA_without_intermediate	0,0,0,0,0,0,1,2,0	test	ward_and_allport	2,0,0,3,1,0,0,0,0	82.0	47.0	4.118	0,0,0,0,0,0,1,2,3	to_hand	s557
527.398	0.223	0	PA_without_intermediate	0,0,0,3,0,0,1,2,0	test	ward_and_allport	2,0,0,3,1,0,0,0,0	71.0	47.0	0.223	0,0,0,0,0,0,1,2,3	to_board	s557
527.63	0.607	0	PA_without_intermediate	0,0,0,3,0,0,1,0,0	test	ward_and_allport	2,0,0,3,1,0,0,0,0	82.0	47.0	0.607	0,0,0,0,0,0,1,2,3	to_hand	s557
528.238	0.336	0	PA_without_intermediate	2,0,0,3,0,0,1,0,0	test	ward_and_allport	2,0,0,3,1,0,0,0,0	89.0	47.0	0.336	0,0,0,0,0,0,1,2,3	to_board	s557
528.585	0.584	0	PA_without_intermediate	2,0,0,3,0,0,0,0,0	test	ward_and_allport	2,0,0,3,1,0,0,0,0	82.0	47.0	0.584	0,0,0,0,0,0,1,2,3	to_hand	s557
529.17	0.251	0	PA_without_intermediate	2,0,0,3,1,0,0,0,0	test	ward_and_allport	2,0,0,3,1,0,0,0,0	71.0	47.0	0.251	0,0,0,0,0,0,1,2,3	to_board	s557
529.434	1.0	0	PA_without_intermediate	n/a	test	ward_and_allport	n/a	-1.0	47.0	n/a	n/a	feedback	s557
530.434	1.408	0	PA_without_intermediate	n/a	test	ward_and_allport	n/a	-1.0	47.0	n/a	n/a	ITI	s557
n/a	n/a	0	n/a	n/a	n/a	n/a	n/a	n/a	n/a	n/a	n/a	ITI	n/a
