onset	duration	SS_delay	correct_response	experiment_exp_id	key_press	response_time	stopped	trial_type	worker_id
3.021	0.85	0.4	89.0	stop_signal	89.0	0.609	False	go	s557
5.549	0.85	0.4	89.0	stop_signal	89.0	0.569	False	go	s557
7.805	0.85	0.4	89.0	stop_signal	89.0	0.496	False	stop_failure	s557
10.061	0.85	0.35	71.0	stop_signal	71.0	0.575	False	go	s557
12.317	0.85	0.35	71.0	stop_signal	71.0	0.676	False	go	s557
14.571	0.85	0.35	71.0	stop_signal	71.0	0.775	False	go	s557
16.963	0.85	0.35	89.0	stop_signal	89.0	0.722	False	go	s557
19.219	0.85	0.35	71.0	stop_signal	-1.0	n/a	True	stop_success	s557
21.475	0.85	0.4	71.0	stop_signal	71.0	0.687	False	go	s557
23.731	0.85	0.4	89.0	stop_signal	89.0	0.637	False	stop_failure	s557
25.987	0.85	0.35	89.0	stop_signal	-1.0	n/a	True	stop_success	s557
28.512	0.85	0.4	71.0	stop_signal	71.0	0.68	False	go	s557
30.905	0.85	0.4	89.0	stop_signal	89.0	0.89	False	go	s557
33.433	0.85	0.4	71.0	stop_signal	-1.0	n/a	True	stop_success	s557
35.686	0.85	0.45	71.0	stop_signal	71.0	0.932	False	go	s557
38.077	0.85	0.45	71.0	stop_signal	71.0	0.737	False	go	s557
40.467	0.85	0.45	71.0	stop_signal	71.0	0.527	False	go	s557
42.721	0.85	0.45	89.0	stop_signal	89.0	0.742	False	go	s557
45.11	0.85	0.45	89.0	stop_signal	89.0	0.757	False	go	s557
47.5	0.85	0.45	89.0	stop_signal	89.0	0.614	False	stop_failure	s557
49.889	0.85	0.4	71.0	stop_signal	71.0	0.946	False	go	s557
52.553	0.85	0.4	71.0	stop_signal	71.0	0.89	False	go	s557
55.081	0.85	0.4	89.0	stop_signal	89.0	0.704	False	stop_failure	s557
57.335	0.85	0.35	71.0	stop_signal	-1.0	n/a	True	stop_success	s557
60.271	0.85	0.4	89.0	stop_signal	89.0	0.767	False	go	s557
62.526	0.85	0.4	89.0	stop_signal	89.0	0.79	False	go	s557
65.05	0.85	0.4	89.0	stop_signal	-1.0	n/a	True	stop_success	s557
67.305	0.85	0.45	71.0	stop_signal	71.0	0.964	False	go	s557
69.561	0.85	0.45	71.0	stop_signal	71.0	0.89	False	go	s557
71.818	0.85	0.45	89.0	stop_signal	89.0	0.859	False	go	s557
74.074	0.85	0.45	71.0	stop_signal	-1.0	n/a	True	go	s557
76.602	0.85	0.45	71.0	stop_signal	-1.0	n/a	True	stop_success	s557
79.669	0.85	0.5	89.0	stop_signal	89.0	0.532	False	stop_failure	s557
81.922	0.85	0.45	71.0	stop_signal	71.0	0.986	False	go	s557
84.311	0.85	0.45	71.0	stop_signal	-1.0	n/a	True	stop_success	s557
86.701	0.85	0.5	89.0	stop_signal	89.0	0.823	False	go	s557
89.225	0.85	0.5	71.0	stop_signal	71.0	1.259	False	go	s557
91.613	0.85	0.5	89.0	stop_signal	89.0	0.712	False	go	s557
94.0	0.85	0.5	89.0	stop_signal	89.0	0.568	False	stop_failure	s557
96.797	0.85	0.45	71.0	stop_signal	71.0	0.747	False	go	s557
99.189	0.85	0.45	71.0	stop_signal	-1.0	n/a	True	stop_success	s557
111.947	0.85	0.5	71.0	stop_signal	-1.0	n/a	True	stop_success	s557
114.472	0.85	0.55	71.0	stop_signal	-1.0	n/a	True	stop_success	s557
116.861	0.85	0.6	89.0	stop_signal	89.0	0.618	False	go	s557
119.25	0.85	0.6	71.0	stop_signal	71.0	0.695	False	stop_failure	s557
121.501	0.85	0.55	89.0	stop_signal	89.0	1.032	False	go	s557
123.889	0.85	0.55	89.0	stop_signal	89.0	0.684	False	go	s557
126.144	0.85	0.55	89.0	stop_signal	89.0	0.733	False	stop_failure	s557
128.4	0.85	0.5	89.0	stop_signal	89.0	0.826	False	go	s557
130.656	0.85	0.5	71.0	stop_signal	71.0	1.006	False	go	s557
133.046	0.85	0.5	71.0	stop_signal	-1.0	n/a	True	stop_success	s557
135.302	0.85	0.55	71.0	stop_signal	-1.0	n/a	True	stop_success	s557
137.556	0.85	0.6	89.0	stop_signal	89.0	0.78	False	stop_failure	s557
139.945	0.85	0.55	89.0	stop_signal	89.0	0.862	False	stop_failure	s557
142.335	0.85	0.5	71.0	stop_signal	71.0	1.206	False	go	s557
144.588	0.85	0.5	89.0	stop_signal	-1.0	n/a	True	stop_success	s557
147.115	0.85	0.55	71.0	stop_signal	71.0	0.909	False	go	s557
149.369	0.85	0.55	71.0	stop_signal	71.0	0.886	False	go	s557
151.761	0.85	0.55	89.0	stop_signal	89.0	0.696	False	go	s557
154.017	0.85	0.55	71.0	stop_signal	71.0	0.731	False	stop_failure	s557
156.27	0.85	0.5	89.0	stop_signal	89.0	0.922	False	go	s557
158.658	0.85	0.5	89.0	stop_signal	89.0	0.79	False	go	s557
161.183	0.85	0.5	89.0	stop_signal	89.0	0.681	False	go	s557
163.573	0.85	0.5	71.0	stop_signal	89.0	0.813	False	go	s557
166.1	0.85	0.5	89.0	stop_signal	-1.0	n/a	True	stop_success	s557
169.036	0.85	0.55	71.0	stop_signal	71.0	1.08	False	go	s557
171.56	0.85	0.55	89.0	stop_signal	89.0	0.653	False	go	s557
174.087	0.85	0.55	71.0	stop_signal	71.0	0.671	False	go	s557
176.338	0.85	0.55	89.0	stop_signal	-1.0	n/a	True	stop_success	s557
178.863	0.85	0.6	71.0	stop_signal	71.0	0.771	False	go	s557
181.255	0.85	0.6	71.0	stop_signal	71.0	0.979	False	go	s557
183.508	0.85	0.6	89.0	stop_signal	89.0	0.7	False	go	s557
185.9	0.85	0.6	89.0	stop_signal	89.0	0.576	False	go	s557
188.154	0.85	0.6	89.0	stop_signal	89.0	0.607	False	stop_failure	s557
190.546	0.85	0.55	89.0	stop_signal	89.0	0.494	False	go	s557
193.074	0.85	0.55	71.0	stop_signal	71.0	0.564	False	stop_failure	s557
195.327	0.85	0.5	71.0	stop_signal	71.0	0.705	False	stop_failure	s557
197.717	0.85	0.45	71.0	stop_signal	71.0	0.993	False	go	s557
200.381	0.85	0.45	89.0	stop_signal	89.0	0.559	False	stop_failure	s557
202.634	0.85	0.4	71.0	stop_signal	71.0	1.089	False	go	s557
205.84	0.85	0.4	71.0	stop_signal	71.0	0.878	False	go	s557
208.229	0.85	0.4	89.0	stop_signal	89.0	1.156	False	go	s557
210.621	0.85	0.4	89.0	stop_signal	-1.0	n/a	True	stop_success	s557
223.656	0.85	0.45	89.0	stop_signal	89.0	0.907	False	go	s557
225.912	0.85	0.45	89.0	stop_signal	89.0	0.56	False	stop_failure	s557
228.168	0.85	0.4	89.0	stop_signal	-1.0	n/a	True	stop_success	s557
230.422	0.85	0.45	89.0	stop_signal	89.0	0.599	False	go	s557
233.356	0.85	0.45	89.0	stop_signal	89.0	0.739	False	go	s557
235.88	0.85	0.45	89.0	stop_signal	89.0	0.63	False	go	s557
238.404	0.85	0.45	71.0	stop_signal	71.0	0.633	False	go	s557
240.659	0.85	0.45	71.0	stop_signal	-1.0	n/a	True	stop_success	s557
243.187	0.85	0.5	71.0	stop_signal	71.0	0.624	False	stop_failure	s557
245.441	0.85	0.45	71.0	stop_signal	71.0	0.921	False	go	s557
247.833	0.85	0.45	71.0	stop_signal	-1.0	n/a	True	stop_success	s557
250.086	0.85	0.5	89.0	stop_signal	89.0	0.624	False	go	s557
252.748	0.85	0.5	71.0	stop_signal	89.0	0.93	False	go	s557
255.412	0.85	0.5	89.0	stop_signal	89.0	0.836	False	go	s557
257.668	0.85	0.5	89.0	stop_signal	89.0	0.734	False	go	s557
259.921	0.85	0.5	71.0	stop_signal	71.0	0.626	False	go	s557
262.313	0.85	0.5	71.0	stop_signal	71.0	0.556	False	stop_failure	s557
265.111	0.85	0.45	71.0	stop_signal	-1.0	n/a	True	stop_success	s557
267.503	0.85	0.5	71.0	stop_signal	-1.0	n/a	True	stop_success	s557
269.756	0.85	0.55	89.0	stop_signal	89.0	0.684	False	stop_failure	s557
272.009	0.85	0.5	71.0	stop_signal	-1.0	n/a	True	stop_success	s557
274.263	0.85	0.55	71.0	stop_signal	71.0	0.998	False	go	s557
276.924	0.85	0.55	89.0	stop_signal	89.0	1.044	False	go	s557
279.588	0.85	0.55	89.0	stop_signal	89.0	0.932	False	go	s557
281.844	0.85	0.55	71.0	stop_signal	71.0	0.886	False	go	s557
284.369	0.85	0.55	71.0	stop_signal	71.0	0.963	False	go	s557
286.623	0.85	0.55	89.0	stop_signal	-1.0	n/a	True	stop_success	s557
289.151	0.85	0.6	71.0	stop_signal	71.0	1.354	False	go	s557
291.679	0.85	0.6	89.0	stop_signal	89.0	0.899	False	stop_failure	s557
294.204	0.85	0.55	71.0	stop_signal	-1.0	n/a	True	stop_success	s557
296.597	0.85	0.6	89.0	stop_signal	-1.0	n/a	True	stop_success	s557
299.125	0.85	0.65	71.0	stop_signal	71.0	1.268	False	go	s557
301.653	0.85	0.65	71.0	stop_signal	71.0	0.977	False	go	s557
304.042	0.85	0.65	89.0	stop_signal	89.0	1.041	False	go	s557
306.298	0.85	0.65	89.0	stop_signal	89.0	1.008	False	go	s557
308.826	0.85	0.65	89.0	stop_signal	89.0	1.08	False	go	s557
311.623	0.85	0.65	89.0	stop_signal	-1.0	n/a	True	stop_success	s557
314.147	0.85	0.7	71.0	stop_signal	-1.0	n/a	True	stop_success	s557
316.538	0.85	0.75	89.0	stop_signal	89.0	0.939	False	go	s557
318.794	0.85	0.75	89.0	stop_signal	89.0	0.776	False	stop_failure	s557
321.051	0.85	0.7	71.0	stop_signal	71.0	0.949	False	stop_failure	s557
323.307	0.85	0.65	89.0	stop_signal	-1.0	n/a	True	stop_success	s557
