onset	duration	planning	condition	current_position	exp_stage	experiment_exp_id	goal_state	key_press	problem_id	response_time	start_state	trial_id	worker_id
-98.808	0.0	0	n/a	n/a	n/a	ward_and_allport	n/a	32.0	n/a	11.908	n/a	instructions	s061
3.013	4.893	1	UA_with_intermediate	1,0,0,2,0,0,0,0,0	practice	ward_and_allport	1,2,3,0,0,0,0,0,0	71.0	0.0	4.893	1,0,0,2,3,0,0,0,0	to_hand	s061
7.909	2.216	0	UA_with_intermediate	1,0,0,2,3,0,0,0,0	practice	ward_and_allport	1,2,3,0,0,0,0,0,0	71.0	0.0	2.216	1,0,0,2,3,0,0,0,0	to_board	s061
10.13	0.786	0	UA_with_intermediate	1,0,0,2,0,0,0,0,0	practice	ward_and_allport	1,2,3,0,0,0,0,0,0	71.0	0.0	0.786	1,0,0,2,3,0,0,0,0	to_hand	s061
10.918	1.006	0	UA_with_intermediate	1,0,0,2,0,0,3,0,0	practice	ward_and_allport	1,2,3,0,0,0,0,0,0	82.0	0.0	1.006	1,0,0,2,3,0,0,0,0	to_board	s061
11.926	0.595	0	UA_with_intermediate	1,0,0,0,0,0,3,0,0	practice	ward_and_allport	1,2,3,0,0,0,0,0,0	71.0	0.0	0.595	1,0,0,2,3,0,0,0,0	to_hand	s061
12.523	0.487	0	UA_with_intermediate	1,2,0,0,0,0,3,0,0	practice	ward_and_allport	1,2,3,0,0,0,0,0,0	89.0	0.0	0.487	1,0,0,2,3,0,0,0,0	to_board	s061
13.015	0.921	0	UA_with_intermediate	1,2,0,0,0,0,0,0,0	practice	ward_and_allport	1,2,3,0,0,0,0,0,0	82.0	0.0	0.921	1,0,0,2,3,0,0,0,0	to_hand	s061
13.939	0.893	0	UA_with_intermediate	1,2,3,0,0,0,0,0,0	practice	ward_and_allport	1,2,3,0,0,0,0,0,0	89.0	0.0	0.893	1,0,0,2,3,0,0,0,0	to_board	s061
14.839	1.0	0	UA_with_intermediate	n/a	practice	ward_and_allport	n/a	-1.0	0.0	n/a	n/a	feedback	s061
17.343	4.654	1	UA_with_intermediate	1,0,0,3,0,0,0,0,0	practice	ward_and_allport	1,3,2,0,0,0,0,0,0	89.0	1.0	4.654	1,2,0,3,0,0,0,0,0	to_hand	s061
21.999	1.079	0	UA_with_intermediate	1,0,0,3,0,0,2,0,0	practice	ward_and_allport	1,3,2,0,0,0,0,0,0	82.0	1.0	1.079	1,2,0,3,0,0,0,0,0	to_board	s061
23.081	0.689	0	UA_with_intermediate	1,0,0,0,0,0,2,0,0	practice	ward_and_allport	1,3,2,0,0,0,0,0,0	71.0	1.0	0.689	1,2,0,3,0,0,0,0,0	to_hand	s061
23.772	0.42	0	UA_with_intermediate	1,3,0,0,0,0,2,0,0	practice	ward_and_allport	1,3,2,0,0,0,0,0,0	89.0	1.0	0.42	1,2,0,3,0,0,0,0,0	to_board	s061
24.196	1.075	0	UA_with_intermediate	1,3,0,0,0,0,0,0,0	practice	ward_and_allport	1,3,2,0,0,0,0,0,0	82.0	1.0	1.075	1,2,0,3,0,0,0,0,0	to_hand	s061
25.273	0.449	0	UA_with_intermediate	1,3,2,0,0,0,0,0,0	practice	ward_and_allport	1,3,2,0,0,0,0,0,0	89.0	1.0	0.449	1,2,0,3,0,0,0,0,0	to_board	s061
25.727	1.0	0	UA_with_intermediate	n/a	practice	ward_and_allport	n/a	-1.0	1.0	n/a	n/a	feedback	s061
26.727	1.1	0	UA_with_intermediate	n/a	practice	ward_and_allport	n/a	-1.0	1.0	n/a	n/a	ITI	s061
27.831	2.893	1	UA_without_intermediate	0,0,0,1,0,0,3,0,0	practice	ward_and_allport	3,2,1,0,0,0,0,0,0	71.0	2.0	2.893	0,0,0,1,2,0,3,0,0	to_hand	s061
30.726	0.44	0	UA_without_intermediate	0,0,0,1,0,0,3,2,0	practice	ward_and_allport	3,2,1,0,0,0,0,0,0	82.0	2.0	0.44	0,0,0,1,2,0,3,0,0	to_board	s061
31.171	0.447	0	UA_without_intermediate	0,0,0,0,0,0,3,2,0	practice	ward_and_allport	3,2,1,0,0,0,0,0,0	71.0	2.0	0.447	0,0,0,1,2,0,3,0,0	to_hand	s061
31.62	0.343	0	UA_without_intermediate	0,0,0,0,0,0,3,2,1	practice	ward_and_allport	3,2,1,0,0,0,0,0,0	82.0	2.0	0.343	0,0,0,1,2,0,3,0,0	to_board	s061
31.968	4.082	0	UA_without_intermediate	0,0,0,0,0,0,3,2,0	practice	ward_and_allport	3,2,1,0,0,0,0,0,0	82.0	2.0	4.082	0,0,0,1,2,0,3,0,0	to_hand	s061
36.053	0.831	0	UA_without_intermediate	0,0,0,1,0,0,3,2,0	practice	ward_and_allport	3,2,1,0,0,0,0,0,0	71.0	2.0	0.831	0,0,0,1,2,0,3,0,0	to_board	s061
36.887	0.636	0	UA_without_intermediate	0,0,0,1,0,0,3,0,0	practice	ward_and_allport	3,2,1,0,0,0,0,0,0	82.0	2.0	0.636	0,0,0,1,2,0,3,0,0	to_hand	s061
37.526	0.802	0	UA_without_intermediate	0,0,0,1,2,0,3,0,0	practice	ward_and_allport	3,2,1,0,0,0,0,0,0	71.0	2.0	0.802	0,0,0,1,2,0,3,0,0	to_board	s061
38.336	0.446	0	UA_without_intermediate	0,0,0,1,2,0,0,0,0	practice	ward_and_allport	3,2,1,0,0,0,0,0,0	82.0	2.0	0.446	0,0,0,1,2,0,3,0,0	to_hand	s061
38.784	0.595	0	UA_without_intermediate	3,0,0,1,2,0,0,0,0	practice	ward_and_allport	3,2,1,0,0,0,0,0,0	89.0	2.0	0.595	0,0,0,1,2,0,3,0,0	to_board	s061
39.386	1.496	0	UA_without_intermediate	3,0,0,1,0,0,0,0,0	practice	ward_and_allport	3,2,1,0,0,0,0,0,0	71.0	2.0	1.496	0,0,0,1,2,0,3,0,0	to_hand	s061
40.884	0.413	0	UA_without_intermediate	3,2,0,1,0,0,0,0,0	practice	ward_and_allport	3,2,1,0,0,0,0,0,0	89.0	2.0	0.413	0,0,0,1,2,0,3,0,0	to_board	s061
41.302	0.622	0	UA_without_intermediate	3,2,0,0,0,0,0,0,0	practice	ward_and_allport	3,2,1,0,0,0,0,0,0	71.0	2.0	0.622	0,0,0,1,2,0,3,0,0	to_hand	s061
41.928	0.388	0	UA_without_intermediate	3,2,1,0,0,0,0,0,0	practice	ward_and_allport	3,2,1,0,0,0,0,0,0	89.0	2.0	0.388	0,0,0,1,2,0,3,0,0	to_board	s061
42.323	1.0	0	UA_without_intermediate	n/a	practice	ward_and_allport	n/a	-1.0	2.0	n/a	n/a	feedback	s061
43.323	1.2	0	UA_without_intermediate	n/a	practice	ward_and_allport	n/a	-1.0	2.0	n/a	n/a	ITI	s061
44.527	2.66	1	UA_without_intermediate	0,0,0,1,0,0,3,0,0	practice	ward_and_allport	2,3,1,0,0,0,0,0,0	71.0	3.0	2.66	0,0,0,1,2,0,3,0,0	to_hand	s061
47.189	0.438	0	UA_without_intermediate	2,0,0,1,0,0,3,0,0	practice	ward_and_allport	2,3,1,0,0,0,0,0,0	89.0	3.0	0.438	0,0,0,1,2,0,3,0,0	to_board	s061
47.631	1.038	0	UA_without_intermediate	2,0,0,0,0,0,3,0,0	practice	ward_and_allport	2,3,1,0,0,0,0,0,0	71.0	3.0	1.038	0,0,0,1,2,0,3,0,0	to_hand	s061
48.67	0.421	0	UA_without_intermediate	2,1,0,0,0,0,3,0,0	practice	ward_and_allport	2,3,1,0,0,0,0,0,0	89.0	3.0	0.421	0,0,0,1,2,0,3,0,0	to_board	s061
49.096	0.416	0	UA_without_intermediate	2,1,0,0,0,0,0,0,0	practice	ward_and_allport	2,3,1,0,0,0,0,0,0	82.0	3.0	0.416	0,0,0,1,2,0,3,0,0	to_hand	s061
49.514	0.309	0	UA_without_intermediate	2,1,3,0,0,0,0,0,0	practice	ward_and_allport	2,3,1,0,0,0,0,0,0	89.0	3.0	0.309	0,0,0,1,2,0,3,0,0	to_board	s061
49.828	3.873	0	UA_without_intermediate	2,1,0,0,0,0,0,0,0	practice	ward_and_allport	2,3,1,0,0,0,0,0,0	89.0	3.0	3.873	0,0,0,1,2,0,3,0,0	to_hand	s061
53.703	0.789	0	UA_without_intermediate	2,1,0,3,0,0,0,0,0	practice	ward_and_allport	2,3,1,0,0,0,0,0,0	71.0	3.0	0.789	0,0,0,1,2,0,3,0,0	to_board	s061
54.497	1.034	0	UA_without_intermediate	2,0,0,3,0,0,0,0,0	practice	ward_and_allport	2,3,1,0,0,0,0,0,0	89.0	3.0	1.034	0,0,0,1,2,0,3,0,0	to_hand	s061
55.533	1.117	0	UA_without_intermediate	2,0,0,3,0,0,1,0,0	practice	ward_and_allport	2,3,1,0,0,0,0,0,0	82.0	3.0	1.117	0,0,0,1,2,0,3,0,0	to_board	s061
56.657	0.812	0	UA_without_intermediate	2,0,0,0,0,0,1,0,0	practice	ward_and_allport	2,3,1,0,0,0,0,0,0	71.0	3.0	0.812	0,0,0,1,2,0,3,0,0	to_hand	s061
57.471	0.367	0	UA_without_intermediate	2,3,0,0,0,0,1,0,0	practice	ward_and_allport	2,3,1,0,0,0,0,0,0	89.0	3.0	0.367	0,0,0,1,2,0,3,0,0	to_board	s061
57.842	0.531	0	UA_without_intermediate	2,3,0,0,0,0,0,0,0	practice	ward_and_allport	2,3,1,0,0,0,0,0,0	82.0	3.0	0.531	0,0,0,1,2,0,3,0,0	to_hand	s061
58.376	0.355	0	UA_without_intermediate	2,3,1,0,0,0,0,0,0	practice	ward_and_allport	2,3,1,0,0,0,0,0,0	89.0	3.0	0.355	0,0,0,1,2,0,3,0,0	to_board	s061
58.737	1.0	0	UA_without_intermediate	n/a	practice	ward_and_allport	n/a	-1.0	3.0	n/a	n/a	feedback	s061
59.737	1.0	0	UA_without_intermediate	n/a	practice	ward_and_allport	n/a	-1.0	3.0	n/a	n/a	ITI	s061
62.746	2.077	1	PA_without_intermediate	0,0,0,1,2,0,0,0,0	test	ward_and_allport	2,0,0,0,0,0,3,1,0	71.0	0.0	2.077	0,0,0,1,2,3,0,0,0	to_hand	s061
64.825	0.724	0	PA_without_intermediate	0,0,0,1,2,0,3,0,0	test	ward_and_allport	2,0,0,0,0,0,3,1,0	82.0	0.0	0.724	0,0,0,1,2,3,0,0,0	to_board	s061
65.555	0.576	0	PA_without_intermediate	0,0,0,1,0,0,3,0,0	test	ward_and_allport	2,0,0,0,0,0,3,1,0	71.0	0.0	0.576	0,0,0,1,2,3,0,0,0	to_hand	s061
66.133	0.924	0	PA_without_intermediate	2,0,0,1,0,0,3,0,0	test	ward_and_allport	2,0,0,0,0,0,3,1,0	89.0	0.0	0.924	0,0,0,1,2,3,0,0,0	to_board	s061
67.062	2.14	0	PA_without_intermediate	2,0,0,0,0,0,3,0,0	test	ward_and_allport	2,0,0,0,0,0,3,1,0	71.0	0.0	2.14	0,0,0,1,2,3,0,0,0	to_hand	s061
69.205	0.366	0	PA_without_intermediate	2,0,0,0,0,0,3,1,0	test	ward_and_allport	2,0,0,0,0,0,3,1,0	82.0	0.0	0.366	0,0,0,1,2,3,0,0,0	to_board	s061
69.578	1.0	0	PA_without_intermediate	n/a	test	ward_and_allport	n/a	-1.0	0.0	n/a	n/a	feedback	s061
70.578	2.088	0	PA_without_intermediate	n/a	test	ward_and_allport	n/a	-1.0	0.0	n/a	n/a	ITI	s061
72.671	4.157	1	PA_with_intermediate	0,0,0,0,0,0,1,2,0	test	ward_and_allport	2,0,0,0,0,0,1,3,0	82.0	1.0	4.157	0,0,0,0,0,0,1,2,3	to_hand	s061
76.83	3.332	0	PA_with_intermediate	0,0,0,3,0,0,1,2,0	test	ward_and_allport	2,0,0,0,0,0,1,3,0	71.0	1.0	3.332	0,0,0,0,0,0,1,2,3	to_board	s061
80.17	1.355	0	PA_with_intermediate	0,0,0,3,0,0,1,0,0	test	ward_and_allport	2,0,0,0,0,0,1,3,0	82.0	1.0	1.355	0,0,0,0,0,0,1,2,3	to_hand	s061
81.527	1.105	0	PA_with_intermediate	2,0,0,3,0,0,1,0,0	test	ward_and_allport	2,0,0,0,0,0,1,3,0	89.0	1.0	1.105	0,0,0,0,0,0,1,2,3	to_board	s061
82.638	0.766	0	PA_with_intermediate	2,0,0,0,0,0,1,0,0	test	ward_and_allport	2,0,0,0,0,0,1,3,0	71.0	1.0	0.766	0,0,0,0,0,0,1,2,3	to_hand	s061
83.406	0.471	0	PA_with_intermediate	2,0,0,0,0,0,1,3,0	test	ward_and_allport	2,0,0,0,0,0,1,3,0	82.0	1.0	0.471	0,0,0,0,0,0,1,2,3	to_board	s061
83.885	1.0	0	PA_with_intermediate	n/a	test	ward_and_allport	n/a	-1.0	1.0	n/a	n/a	feedback	s061
84.885	1.0	0	PA_with_intermediate	n/a	test	ward_and_allport	n/a	-1.0	1.0	n/a	n/a	ITI	s061
85.89	3.025	1	PA_without_intermediate	0,0,0,1,2,0,0,0,0	test	ward_and_allport	2,0,0,0,0,0,3,1,0	71.0	2.0	3.025	0,0,0,1,2,3,0,0,0	to_hand	s061
88.918	1.089	0	PA_without_intermediate	0,0,0,1,2,0,3,0,0	test	ward_and_allport	2,0,0,0,0,0,3,1,0	82.0	2.0	1.089	0,0,0,1,2,3,0,0,0	to_board	s061
90.016	0.762	0	PA_without_intermediate	0,0,0,1,0,0,3,0,0	test	ward_and_allport	2,0,0,0,0,0,3,1,0	71.0	2.0	0.762	0,0,0,1,2,3,0,0,0	to_hand	s061
90.78	0.756	0	PA_without_intermediate	2,0,0,1,0,0,3,0,0	test	ward_and_allport	2,0,0,0,0,0,3,1,0	89.0	2.0	0.756	0,0,0,1,2,3,0,0,0	to_board	s061
91.544	0.494	0	PA_without_intermediate	2,0,0,0,0,0,3,0,0	test	ward_and_allport	2,0,0,0,0,0,3,1,0	71.0	2.0	0.494	0,0,0,1,2,3,0,0,0	to_hand	s061
92.041	0.542	0	PA_without_intermediate	2,0,0,0,0,0,3,1,0	test	ward_and_allport	2,0,0,0,0,0,3,1,0	82.0	2.0	0.542	0,0,0,1,2,3,0,0,0	to_board	s061
92.593	1.0	0	PA_without_intermediate	n/a	test	ward_and_allport	n/a	-1.0	2.0	n/a	n/a	feedback	s061
93.593	1.0	0	PA_without_intermediate	n/a	test	ward_and_allport	n/a	-1.0	2.0	n/a	n/a	ITI	s061
94.6	4.387	1	PA_without_intermediate	1,2,0,0,0,0,0,0,0	test	ward_and_allport	0,0,0,3,2,0,1,0,0	89.0	3.0	4.387	1,2,3,0,0,0,0,0,0	to_hand	s061
98.989	1.507	0	PA_without_intermediate	1,2,0,3,0,0,0,0,0	test	ward_and_allport	0,0,0,3,2,0,1,0,0	71.0	3.0	1.507	1,2,3,0,0,0,0,0,0	to_board	s061
100.505	3.038	0	PA_without_intermediate	1,2,0,0,0,0,0,0,0	test	ward_and_allport	0,0,0,3,2,0,1,0,0	71.0	3.0	3.038	1,2,3,0,0,0,0,0,0	to_hand	s061
103.545	1.039	0	PA_without_intermediate	1,2,0,3,0,0,0,0,0	test	ward_and_allport	0,0,0,3,2,0,1,0,0	71.0	3.0	1.039	1,2,3,0,0,0,0,0,0	to_board	s061
104.592	0.582	0	PA_without_intermediate	1,0,0,3,0,0,0,0,0	test	ward_and_allport	0,0,0,3,2,0,1,0,0	89.0	3.0	0.582	1,2,3,0,0,0,0,0,0	to_hand	s061
105.176	1.216	0	PA_without_intermediate	1,0,0,3,2,0,0,0,0	test	ward_and_allport	0,0,0,3,2,0,1,0,0	71.0	3.0	1.216	1,2,3,0,0,0,0,0,0	to_board	s061
106.401	0.868	0	PA_without_intermediate	0,0,0,3,2,0,0,0,0	test	ward_and_allport	0,0,0,3,2,0,1,0,0	89.0	3.0	0.868	1,2,3,0,0,0,0,0,0	to_hand	s061
107.271	0.398	0	PA_without_intermediate	0,0,0,3,2,0,1,0,0	test	ward_and_allport	0,0,0,3,2,0,1,0,0	82.0	3.0	0.398	1,2,3,0,0,0,0,0,0	to_board	s061
107.678	1.0	0	PA_without_intermediate	n/a	test	ward_and_allport	n/a	-1.0	3.0	n/a	n/a	feedback	s061
108.678	1.0	0	PA_without_intermediate	n/a	test	ward_and_allport	n/a	-1.0	3.0	n/a	n/a	ITI	s061
109.687	3.4	1	PA_with_intermediate	0,0,0,0,0,0,1,2,0	test	ward_and_allport	0,0,0,2,0,0,1,3,0	82.0	4.0	3.4	0,0,0,0,0,0,1,2,3	to_hand	s061
113.089	1.708	0	PA_with_intermediate	3,0,0,0,0,0,1,2,0	test	ward_and_allport	0,0,0,2,0,0,1,3,0	89.0	4.0	1.708	0,0,0,0,0,0,1,2,3	to_board	s061
114.806	0.991	0	PA_with_intermediate	3,0,0,0,0,0,1,0,0	test	ward_and_allport	0,0,0,2,0,0,1,3,0	82.0	4.0	0.991	0,0,0,0,0,0,1,2,3	to_hand	s061
115.799	0.917	0	PA_with_intermediate	3,0,0,2,0,0,1,0,0	test	ward_and_allport	0,0,0,2,0,0,1,3,0	71.0	4.0	0.917	0,0,0,0,0,0,1,2,3	to_board	s061
116.724	0.693	0	PA_with_intermediate	0,0,0,2,0,0,1,0,0	test	ward_and_allport	0,0,0,2,0,0,1,3,0	89.0	4.0	0.693	0,0,0,0,0,0,1,2,3	to_hand	s061
117.419	0.366	0	PA_with_intermediate	0,0,0,2,0,0,1,3,0	test	ward_and_allport	0,0,0,2,0,0,1,3,0	82.0	4.0	0.366	0,0,0,0,0,0,1,2,3	to_board	s061
117.793	1.0	0	PA_with_intermediate	n/a	test	ward_and_allport	n/a	-1.0	4.0	n/a	n/a	feedback	s061
118.793	1.544	0	PA_with_intermediate	n/a	test	ward_and_allport	n/a	-1.0	4.0	n/a	n/a	ITI	s061
120.345	2.49	1	PA_without_intermediate	0,0,0,1,2,0,0,0,0	test	ward_and_allport	1,0,0,0,0,0,3,2,0	71.0	5.0	2.49	0,0,0,1,2,3,0,0,0	to_hand	s061
122.837	0.827	0	PA_without_intermediate	0,0,0,1,2,0,3,0,0	test	ward_and_allport	1,0,0,0,0,0,3,2,0	82.0	5.0	0.827	0,0,0,1,2,3,0,0,0	to_board	s061
123.672	0.672	0	PA_without_intermediate	0,0,0,1,0,0,3,0,0	test	ward_and_allport	1,0,0,0,0,0,3,2,0	71.0	5.0	0.672	0,0,0,1,2,3,0,0,0	to_hand	s061
124.346	0.994	0	PA_without_intermediate	0,0,0,1,0,0,3,2,0	test	ward_and_allport	1,0,0,0,0,0,3,2,0	82.0	5.0	0.994	0,0,0,1,2,3,0,0,0	to_board	s061
125.349	0.468	0	PA_without_intermediate	0,0,0,0,0,0,3,2,0	test	ward_and_allport	1,0,0,0,0,0,3,2,0	71.0	5.0	0.468	0,0,0,1,2,3,0,0,0	to_hand	s061
125.819	0.329	0	PA_without_intermediate	1,0,0,0,0,0,3,2,0	test	ward_and_allport	1,0,0,0,0,0,3,2,0	89.0	5.0	0.329	0,0,0,1,2,3,0,0,0	to_board	s061
126.16	1.0	0	PA_without_intermediate	n/a	test	ward_and_allport	n/a	-1.0	5.0	n/a	n/a	feedback	s061
127.16	1.272	0	PA_without_intermediate	n/a	test	ward_and_allport	n/a	-1.0	5.0	n/a	n/a	ITI	s061
128.441	2.243	1	PA_with_intermediate	0,0,0,1,2,0,0,0,0	test	ward_and_allport	2,0,0,1,3,0,0,0,0	71.0	6.0	2.243	0,0,0,1,2,3,0,0,0	to_hand	s061
130.686	2.51	0	PA_with_intermediate	0,0,0,1,2,0,3,0,0	test	ward_and_allport	2,0,0,1,3,0,0,0,0	82.0	6.0	2.51	0,0,0,1,2,3,0,0,0	to_board	s061
133.205	0.482	0	PA_with_intermediate	0,0,0,1,0,0,3,0,0	test	ward_and_allport	2,0,0,1,3,0,0,0,0	71.0	6.0	0.482	0,0,0,1,2,3,0,0,0	to_hand	s061
133.689	0.763	0	PA_with_intermediate	2,0,0,1,0,0,3,0,0	test	ward_and_allport	2,0,0,1,3,0,0,0,0	89.0	6.0	0.763	0,0,0,1,2,3,0,0,0	to_board	s061
134.46	1.184	0	PA_with_intermediate	2,0,0,1,0,0,0,0,0	test	ward_and_allport	2,0,0,1,3,0,0,0,0	82.0	6.0	1.184	0,0,0,1,2,3,0,0,0	to_hand	s061
135.645	0.64	0	PA_with_intermediate	2,0,0,1,3,0,0,0,0	test	ward_and_allport	2,0,0,1,3,0,0,0,0	71.0	6.0	0.64	0,0,0,1,2,3,0,0,0	to_board	s061
136.295	1.0	0	PA_with_intermediate	n/a	test	ward_and_allport	n/a	-1.0	6.0	n/a	n/a	feedback	s061
137.295	3.04	0	PA_with_intermediate	n/a	test	ward_and_allport	n/a	-1.0	6.0	n/a	n/a	ITI	s061
140.346	3.656	1	PA_with_intermediate	1,2,0,0,0,0,0,0,0	test	ward_and_allport	1,3,0,2,0,0,0,0,0	89.0	7.0	3.656	1,2,3,0,0,0,0,0,0	to_hand	s061
144.004	1.822	0	PA_with_intermediate	1,2,0,0,0,0,3,0,0	test	ward_and_allport	1,3,0,2,0,0,0,0,0	82.0	7.0	1.822	1,2,3,0,0,0,0,0,0	to_board	s061
145.835	1.199	0	PA_with_intermediate	1,0,0,0,0,0,3,0,0	test	ward_and_allport	1,3,0,2,0,0,0,0,0	89.0	7.0	1.199	1,2,3,0,0,0,0,0,0	to_hand	s061
147.036	0.56	0	PA_with_intermediate	1,0,0,2,0,0,3,0,0	test	ward_and_allport	1,3,0,2,0,0,0,0,0	71.0	7.0	0.56	1,2,3,0,0,0,0,0,0	to_board	s061
147.606	1.26	0	PA_with_intermediate	1,0,0,2,0,0,0,0,0	test	ward_and_allport	1,3,0,2,0,0,0,0,0	82.0	7.0	1.26	1,2,3,0,0,0,0,0,0	to_hand	s061
148.87	0.391	0	PA_with_intermediate	1,3,0,2,0,0,0,0,0	test	ward_and_allport	1,3,0,2,0,0,0,0,0	89.0	7.0	0.391	1,2,3,0,0,0,0,0,0	to_board	s061
149.272	1.0	0	PA_with_intermediate	n/a	test	ward_and_allport	n/a	-1.0	7.0	n/a	n/a	feedback	s061
150.272	1.272	0	PA_with_intermediate	n/a	test	ward_and_allport	n/a	-1.0	7.0	n/a	n/a	ITI	s061
151.555	4.657	1	PA_with_intermediate	1,2,0,0,0,0,0,0,0	test	ward_and_allport	1,0,0,2,3,0,0,0,0	89.0	8.0	4.657	1,2,3,0,0,0,0,0,0	to_hand	s061
156.214	1.334	0	PA_with_intermediate	1,2,0,0,0,0,3,0,0	test	ward_and_allport	1,0,0,2,3,0,0,0,0	82.0	8.0	1.334	1,2,3,0,0,0,0,0,0	to_board	s061
157.558	0.979	0	PA_with_intermediate	1,0,0,0,0,0,3,0,0	test	ward_and_allport	1,0,0,2,3,0,0,0,0	89.0	8.0	0.979	1,2,3,0,0,0,0,0,0	to_hand	s061
158.54	0.509	0	PA_with_intermediate	1,0,0,2,0,0,3,0,0	test	ward_and_allport	1,0,0,2,3,0,0,0,0	71.0	8.0	0.509	1,2,3,0,0,0,0,0,0	to_board	s061
159.058	1.055	0	PA_with_intermediate	1,0,0,2,0,0,0,0,0	test	ward_and_allport	1,0,0,2,3,0,0,0,0	82.0	8.0	1.055	1,2,3,0,0,0,0,0,0	to_hand	s061
160.115	0.514	0	PA_with_intermediate	1,0,0,2,3,0,0,0,0	test	ward_and_allport	1,0,0,2,3,0,0,0,0	71.0	8.0	0.514	1,2,3,0,0,0,0,0,0	to_board	s061
160.64	1.0	0	PA_with_intermediate	n/a	test	ward_and_allport	n/a	-1.0	8.0	n/a	n/a	feedback	s061
161.64	1.136	0	PA_with_intermediate	n/a	test	ward_and_allport	n/a	-1.0	8.0	n/a	n/a	ITI	s061
162.787	3.235	1	PA_with_intermediate	0,0,0,1,2,0,0,0,0	test	ward_and_allport	0,0,0,1,0,0,2,3,0	71.0	9.0	3.235	0,0,0,1,2,3,0,0,0	to_hand	s061
166.024	1.018	0	PA_with_intermediate	3,0,0,1,2,0,0,0,0	test	ward_and_allport	0,0,0,1,0,0,2,3,0	89.0	9.0	1.018	0,0,0,1,2,3,0,0,0	to_board	s061
167.053	0.472	0	PA_with_intermediate	3,0,0,1,0,0,0,0,0	test	ward_and_allport	0,0,0,1,0,0,2,3,0	71.0	9.0	0.472	0,0,0,1,2,3,0,0,0	to_hand	s061
167.527	0.413	0	PA_with_intermediate	3,0,0,1,0,0,2,0,0	test	ward_and_allport	0,0,0,1,0,0,2,3,0	82.0	9.0	0.413	0,0,0,1,2,3,0,0,0	to_board	s061
167.952	0.948	0	PA_with_intermediate	0,0,0,1,0,0,2,0,0	test	ward_and_allport	0,0,0,1,0,0,2,3,0	89.0	9.0	0.948	0,0,0,1,2,3,0,0,0	to_hand	s061
168.902	0.482	0	PA_with_intermediate	0,0,0,1,0,0,2,3,0	test	ward_and_allport	0,0,0,1,0,0,2,3,0	82.0	9.0	0.482	0,0,0,1,2,3,0,0,0	to_board	s061
169.396	1.0	0	PA_with_intermediate	n/a	test	ward_and_allport	n/a	-1.0	9.0	n/a	n/a	feedback	s061
170.396	1.0	0	PA_with_intermediate	n/a	test	ward_and_allport	n/a	-1.0	9.0	n/a	n/a	ITI	s061
171.407	2.087	1	PA_with_intermediate	0,0,0,1,2,0,0,0,0	test	ward_and_allport	0,0,0,1,3,0,2,0,0	71.0	10.0	2.087	0,0,0,1,2,3,0,0,0	to_hand	s061
173.497	1.595	0	PA_with_intermediate	3,0,0,1,2,0,0,0,0	test	ward_and_allport	0,0,0,1,3,0,2,0,0	89.0	10.0	1.595	0,0,0,1,2,3,0,0,0	to_board	s061
175.104	0.524	0	PA_with_intermediate	3,0,0,1,0,0,0,0,0	test	ward_and_allport	0,0,0,1,3,0,2,0,0	71.0	10.0	0.524	0,0,0,1,2,3,0,0,0	to_hand	s061
175.629	0.435	0	PA_with_intermediate	3,0,0,1,0,0,2,0,0	test	ward_and_allport	0,0,0,1,3,0,2,0,0	82.0	10.0	0.435	0,0,0,1,2,3,0,0,0	to_board	s061
176.075	0.631	0	PA_with_intermediate	0,0,0,1,0,0,2,0,0	test	ward_and_allport	0,0,0,1,3,0,2,0,0	89.0	10.0	0.631	0,0,0,1,2,3,0,0,0	to_hand	s061
176.709	1.098	0	PA_with_intermediate	0,0,0,1,3,0,2,0,0	test	ward_and_allport	0,0,0,1,3,0,2,0,0	71.0	10.0	1.098	0,0,0,1,2,3,0,0,0	to_board	s061
177.82	1.0	0	PA_with_intermediate	n/a	test	ward_and_allport	n/a	-1.0	10.0	n/a	n/a	feedback	s061
178.82	1.0	0	PA_with_intermediate	n/a	test	ward_and_allport	n/a	-1.0	10.0	n/a	n/a	ITI	s061
179.831	4.364	1	PA_without_intermediate	0,0,0,0,0,0,1,2,0	test	ward_and_allport	3,1,0,2,0,0,0,0,0	82.0	11.0	4.364	0,0,0,0,0,0,1,2,3	to_hand	s061
184.197	0.404	0	PA_without_intermediate	3,0,0,0,0,0,1,2,0	test	ward_and_allport	3,1,0,2,0,0,0,0,0	89.0	11.0	0.404	0,0,0,0,0,0,1,2,3	to_board	s061
184.614	0.984	0	PA_without_intermediate	3,0,0,0,0,0,1,0,0	test	ward_and_allport	3,1,0,2,0,0,0,0,0	82.0	11.0	0.984	0,0,0,0,0,0,1,2,3	to_hand	s061
185.601	0.596	0	PA_without_intermediate	3,0,0,2,0,0,1,0,0	test	ward_and_allport	3,1,0,2,0,0,0,0,0	71.0	11.0	0.596	0,0,0,0,0,0,1,2,3	to_board	s061
186.205	2.062	0	PA_without_intermediate	3,0,0,2,0,0,0,0,0	test	ward_and_allport	3,1,0,2,0,0,0,0,0	82.0	11.0	2.062	0,0,0,0,0,0,1,2,3	to_hand	s061
188.269	0.554	0	PA_without_intermediate	3,1,0,2,0,0,0,0,0	test	ward_and_allport	3,1,0,2,0,0,0,0,0	89.0	11.0	0.554	0,0,0,0,0,0,1,2,3	to_board	s061
188.834	1.0	0	PA_without_intermediate	n/a	test	ward_and_allport	n/a	-1.0	11.0	n/a	n/a	feedback	s061
189.834	1.408	0	PA_without_intermediate	n/a	test	ward_and_allport	n/a	-1.0	11.0	n/a	n/a	ITI	s061
191.256	3.945	1	PA_with_intermediate	1,2,0,0,0,0,0,0,0	test	ward_and_allport	1,3,0,0,0,0,2,0,0	89.0	12.0	3.945	1,2,3,0,0,0,0,0,0	to_hand	s061
195.202	0.402	0	PA_with_intermediate	1,2,0,3,0,0,0,0,0	test	ward_and_allport	1,3,0,0,0,0,2,0,0	71.0	12.0	0.402	1,2,3,0,0,0,0,0,0	to_board	s061
195.615	0.657	0	PA_with_intermediate	1,0,0,3,0,0,0,0,0	test	ward_and_allport	1,3,0,0,0,0,2,0,0	89.0	12.0	0.657	1,2,3,0,0,0,0,0,0	to_hand	s061
196.274	0.47	0	PA_with_intermediate	1,0,0,3,0,0,2,0,0	test	ward_and_allport	1,3,0,0,0,0,2,0,0	82.0	12.0	0.47	1,2,3,0,0,0,0,0,0	to_board	s061
196.757	1.322	0	PA_with_intermediate	1,0,0,0,0,0,2,0,0	test	ward_and_allport	1,3,0,0,0,0,2,0,0	71.0	12.0	1.322	1,2,3,0,0,0,0,0,0	to_hand	s061
198.082	0.435	0	PA_with_intermediate	1,3,0,0,0,0,2,0,0	test	ward_and_allport	1,3,0,0,0,0,2,0,0	89.0	12.0	0.435	1,2,3,0,0,0,0,0,0	to_board	s061
198.531	1.0	0	PA_with_intermediate	n/a	test	ward_and_allport	n/a	-1.0	12.0	n/a	n/a	feedback	s061
199.531	2.768	0	PA_with_intermediate	n/a	test	ward_and_allport	n/a	-1.0	12.0	n/a	n/a	ITI	s061
202.314	2.367	1	PA_with_intermediate	0,0,0,0,0,0,1,2,0	test	ward_and_allport	2,3,0,0,0,0,1,0,0	82.0	13.0	2.367	0,0,0,0,0,0,1,2,3	to_hand	s061
204.683	1.267	0	PA_with_intermediate	0,0,0,3,0,0,1,2,0	test	ward_and_allport	2,3,0,0,0,0,1,0,0	71.0	13.0	1.267	0,0,0,0,0,0,1,2,3	to_board	s061
205.962	3.314	0	PA_with_intermediate	0,0,0,3,0,0,1,0,0	test	ward_and_allport	2,3,0,0,0,0,1,0,0	82.0	13.0	3.314	0,0,0,0,0,0,1,2,3	to_hand	s061
209.278	0.576	0	PA_with_intermediate	2,0,0,3,0,0,1,0,0	test	ward_and_allport	2,3,0,0,0,0,1,0,0	89.0	13.0	0.576	0,0,0,0,0,0,1,2,3	to_board	s061
209.865	0.426	0	PA_with_intermediate	2,0,0,0,0,0,1,0,0	test	ward_and_allport	2,3,0,0,0,0,1,0,0	71.0	13.0	0.426	0,0,0,0,0,0,1,2,3	to_hand	s061
210.293	0.344	0	PA_with_intermediate	2,3,0,0,0,0,1,0,0	test	ward_and_allport	2,3,0,0,0,0,1,0,0	89.0	13.0	0.344	0,0,0,0,0,0,1,2,3	to_board	s061
210.649	1.0	0	PA_with_intermediate	n/a	test	ward_and_allport	n/a	-1.0	13.0	n/a	n/a	feedback	s061
211.649	1.68	0	PA_with_intermediate	n/a	test	ward_and_allport	n/a	-1.0	13.0	n/a	n/a	ITI	s061
213.341	3.363	1	PA_without_intermediate	0,0,0,0,0,0,1,2,0	test	ward_and_allport	2,0,0,3,1,0,0,0,0	82.0	14.0	3.363	0,0,0,0,0,0,1,2,3	to_hand	s061
216.708	1.055	0	PA_without_intermediate	0,0,0,3,0,0,1,2,0	test	ward_and_allport	2,0,0,3,1,0,0,0,0	71.0	14.0	1.055	0,0,0,0,0,0,1,2,3	to_board	s061
217.776	1.505	0	PA_without_intermediate	0,0,0,3,0,0,1,0,0	test	ward_and_allport	2,0,0,3,1,0,0,0,0	82.0	14.0	1.505	0,0,0,0,0,0,1,2,3	to_hand	s061
219.284	0.57	0	PA_without_intermediate	2,0,0,3,0,0,1,0,0	test	ward_and_allport	2,0,0,3,1,0,0,0,0	89.0	14.0	0.57	0,0,0,0,0,0,1,2,3	to_board	s061
219.866	0.862	0	PA_without_intermediate	2,0,0,3,0,0,0,0,0	test	ward_and_allport	2,0,0,3,1,0,0,0,0	82.0	14.0	0.862	0,0,0,0,0,0,1,2,3	to_hand	s061
220.73	0.366	0	PA_without_intermediate	2,0,0,3,1,0,0,0,0	test	ward_and_allport	2,0,0,3,1,0,0,0,0	71.0	14.0	0.366	0,0,0,0,0,0,1,2,3	to_board	s061
221.108	1.0	0	PA_without_intermediate	n/a	test	ward_and_allport	n/a	-1.0	14.0	n/a	n/a	feedback	s061
222.108	2.224	0	PA_without_intermediate	n/a	test	ward_and_allport	n/a	-1.0	14.0	n/a	n/a	ITI	s061
229.349	3.733	1	PA_without_intermediate	1,2,0,0,0,0,0,0,0	test	ward_and_allport	0,0,0,1,0,0,3,2,0	89.0	15.0	3.733	1,2,3,0,0,0,0,0,0	to_hand	s061
233.085	0.478	0	PA_without_intermediate	1,2,0,0,0,0,3,0,0	test	ward_and_allport	0,0,0,1,0,0,3,2,0	82.0	15.0	0.478	1,2,3,0,0,0,0,0,0	to_board	s061
233.573	0.762	0	PA_without_intermediate	1,0,0,0,0,0,3,0,0	test	ward_and_allport	0,0,0,1,0,0,3,2,0	89.0	15.0	0.762	1,2,3,0,0,0,0,0,0	to_hand	s061
234.337	0.622	0	PA_without_intermediate	1,0,0,0,0,0,3,2,0	test	ward_and_allport	0,0,0,1,0,0,3,2,0	82.0	15.0	0.622	1,2,3,0,0,0,0,0,0	to_board	s061
234.973	0.898	0	PA_without_intermediate	0,0,0,0,0,0,3,2,0	test	ward_and_allport	0,0,0,1,0,0,3,2,0	89.0	15.0	0.898	1,2,3,0,0,0,0,0,0	to_hand	s061
235.873	0.311	0	PA_without_intermediate	0,0,0,1,0,0,3,2,0	test	ward_and_allport	0,0,0,1,0,0,3,2,0	71.0	15.0	0.311	1,2,3,0,0,0,0,0,0	to_board	s061
236.196	1.0	0	PA_without_intermediate	n/a	test	ward_and_allport	n/a	-1.0	15.0	n/a	n/a	feedback	s061
237.196	2.36	0	PA_without_intermediate	n/a	test	ward_and_allport	n/a	-1.0	15.0	n/a	n/a	ITI	s061
239.57	3.382	1	PA_without_intermediate	0,0,0,0,0,0,1,2,0	test	ward_and_allport	2,0,0,3,1,0,0,0,0	82.0	16.0	3.382	0,0,0,0,0,0,1,2,3	to_hand	s061
242.955	0.377	0	PA_without_intermediate	0,0,0,3,0,0,1,2,0	test	ward_and_allport	2,0,0,3,1,0,0,0,0	71.0	16.0	0.377	0,0,0,0,0,0,1,2,3	to_board	s061
243.345	1.132	0	PA_without_intermediate	0,0,0,3,0,0,1,0,0	test	ward_and_allport	2,0,0,3,1,0,0,0,0	82.0	16.0	1.132	0,0,0,0,0,0,1,2,3	to_hand	s061
244.48	0.385	0	PA_without_intermediate	2,0,0,3,0,0,1,0,0	test	ward_and_allport	2,0,0,3,1,0,0,0,0	89.0	16.0	0.385	0,0,0,0,0,0,1,2,3	to_board	s061
244.877	0.506	0	PA_without_intermediate	2,0,0,3,0,0,0,0,0	test	ward_and_allport	2,0,0,3,1,0,0,0,0	82.0	16.0	0.506	0,0,0,0,0,0,1,2,3	to_hand	s061
245.386	0.378	0	PA_without_intermediate	2,0,0,3,1,0,0,0,0	test	ward_and_allport	2,0,0,3,1,0,0,0,0	71.0	16.0	0.378	0,0,0,0,0,0,1,2,3	to_board	s061
245.776	1.0	0	PA_without_intermediate	n/a	test	ward_and_allport	n/a	-1.0	16.0	n/a	n/a	feedback	s061
246.776	1.0	0	PA_without_intermediate	n/a	test	ward_and_allport	n/a	-1.0	16.0	n/a	n/a	ITI	s061
247.787	2.279	1	PA_without_intermediate	0,0,0,1,2,0,0,0,0	test	ward_and_allport	3,1,0,0,0,0,2,0,0	71.0	17.0	2.279	0,0,0,1,2,3,0,0,0	to_hand	s061
250.069	0.426	0	PA_without_intermediate	3,0,0,1,2,0,0,0,0	test	ward_and_allport	3,1,0,0,0,0,2,0,0	89.0	17.0	0.426	0,0,0,1,2,3,0,0,0	to_board	s061
250.509	0.71	0	PA_without_intermediate	3,0,0,1,0,0,0,0,0	test	ward_and_allport	3,1,0,0,0,0,2,0,0	71.0	17.0	0.71	0,0,0,1,2,3,0,0,0	to_hand	s061
251.221	0.473	0	PA_without_intermediate	3,0,0,1,0,0,2,0,0	test	ward_and_allport	3,1,0,0,0,0,2,0,0	82.0	17.0	0.473	0,0,0,1,2,3,0,0,0	to_board	s061
251.71	0.596	0	PA_without_intermediate	3,0,0,0,0,0,2,0,0	test	ward_and_allport	3,1,0,0,0,0,2,0,0	71.0	17.0	0.596	0,0,0,1,2,3,0,0,0	to_hand	s061
252.309	0.302	0	PA_without_intermediate	3,1,0,0,0,0,2,0,0	test	ward_and_allport	3,1,0,0,0,0,2,0,0	89.0	17.0	0.302	0,0,0,1,2,3,0,0,0	to_board	s061
252.625	1.0	0	PA_without_intermediate	n/a	test	ward_and_allport	n/a	-1.0	17.0	n/a	n/a	feedback	s061
253.625	1.408	0	PA_without_intermediate	n/a	test	ward_and_allport	n/a	-1.0	17.0	n/a	n/a	ITI	s061
255.048	2.528	1	PA_with_intermediate	0,0,0,0,0,0,1,2,0	test	ward_and_allport	0,0,0,2,3,0,1,0,0	82.0	18.0	2.528	0,0,0,0,0,0,1,2,3	to_hand	s061
257.577	0.582	0	PA_with_intermediate	3,0,0,0,0,0,1,2,0	test	ward_and_allport	0,0,0,2,3,0,1,0,0	89.0	18.0	0.582	0,0,0,0,0,0,1,2,3	to_board	s061
258.171	0.793	0	PA_with_intermediate	3,0,0,0,0,0,1,0,0	test	ward_and_allport	0,0,0,2,3,0,1,0,0	82.0	18.0	0.793	0,0,0,0,0,0,1,2,3	to_hand	s061
258.966	0.408	0	PA_with_intermediate	3,0,0,2,0,0,1,0,0	test	ward_and_allport	0,0,0,2,3,0,1,0,0	71.0	18.0	0.408	0,0,0,0,0,0,1,2,3	to_board	s061
259.386	1.366	0	PA_with_intermediate	0,0,0,2,0,0,1,0,0	test	ward_and_allport	0,0,0,2,3,0,1,0,0	89.0	18.0	1.366	0,0,0,0,0,0,1,2,3	to_hand	s061
260.754	0.365	0	PA_with_intermediate	0,0,0,2,3,0,1,0,0	test	ward_and_allport	0,0,0,2,3,0,1,0,0	71.0	18.0	0.365	0,0,0,0,0,0,1,2,3	to_board	s061
261.135	1.0	0	PA_with_intermediate	n/a	test	ward_and_allport	n/a	-1.0	18.0	n/a	n/a	feedback	s061
262.135	1.136	0	PA_with_intermediate	n/a	test	ward_and_allport	n/a	-1.0	18.0	n/a	n/a	ITI	s061
263.286	2.074	1	PA_without_intermediate	1,2,0,0,0,0,0,0,0	test	ward_and_allport	0,0,0,2,0,0,3,1,0	89.0	19.0	2.074	1,2,3,0,0,0,0,0,0	to_hand	s061
265.363	0.921	0	PA_without_intermediate	1,2,0,0,0,0,3,0,0	test	ward_and_allport	0,0,0,2,0,0,3,1,0	82.0	19.0	0.921	1,2,3,0,0,0,0,0,0	to_board	s061
266.298	1.353	0	PA_without_intermediate	1,0,0,0,0,0,3,0,0	test	ward_and_allport	0,0,0,2,0,0,3,1,0	89.0	19.0	1.353	1,2,3,0,0,0,0,0,0	to_hand	s061
267.653	0.346	0	PA_without_intermediate	1,0,0,2,0,0,3,0,0	test	ward_and_allport	0,0,0,2,0,0,3,1,0	71.0	19.0	0.346	1,2,3,0,0,0,0,0,0	to_board	s061
268.015	0.408	0	PA_without_intermediate	0,0,0,2,0,0,3,0,0	test	ward_and_allport	0,0,0,2,0,0,3,1,0	89.0	19.0	0.408	1,2,3,0,0,0,0,0,0	to_hand	s061
268.425	0.333	0	PA_without_intermediate	0,0,0,2,0,0,3,1,0	test	ward_and_allport	0,0,0,2,0,0,3,1,0	82.0	19.0	0.333	1,2,3,0,0,0,0,0,0	to_board	s061
268.776	1.0	0	PA_without_intermediate	n/a	test	ward_and_allport	n/a	-1.0	19.0	n/a	n/a	feedback	s061
269.776	4.128	0	PA_without_intermediate	n/a	test	ward_and_allport	n/a	-1.0	19.0	n/a	n/a	ITI	s061
273.919	2.493	1	PA_without_intermediate	1,2,0,0,0,0,0,0,0	test	ward_and_allport	0,0,0,3,1,0,2,0,0	89.0	20.0	2.493	1,2,3,0,0,0,0,0,0	to_hand	s061
276.414	0.79	0	PA_without_intermediate	1,2,0,3,0,0,0,0,0	test	ward_and_allport	0,0,0,3,1,0,2,0,0	71.0	20.0	0.79	1,2,3,0,0,0,0,0,0	to_board	s061
277.218	0.675	0	PA_without_intermediate	1,0,0,3,0,0,0,0,0	test	ward_and_allport	0,0,0,3,1,0,2,0,0	89.0	20.0	0.675	1,2,3,0,0,0,0,0,0	to_hand	s061
277.895	0.692	0	PA_without_intermediate	1,0,0,3,0,0,2,0,0	test	ward_and_allport	0,0,0,3,1,0,2,0,0	82.0	20.0	0.692	1,2,3,0,0,0,0,0,0	to_board	s061
278.605	0.354	0	PA_without_intermediate	0,0,0,3,0,0,2,0,0	test	ward_and_allport	0,0,0,3,1,0,2,0,0	89.0	20.0	0.354	1,2,3,0,0,0,0,0,0	to_hand	s061
278.96	0.292	0	PA_without_intermediate	0,0,0,3,1,0,2,0,0	test	ward_and_allport	0,0,0,3,1,0,2,0,0	71.0	20.0	0.292	1,2,3,0,0,0,0,0,0	to_board	s061
279.267	1.0	0	PA_without_intermediate	n/a	test	ward_and_allport	n/a	-1.0	20.0	n/a	n/a	feedback	s061
280.267	1.136	0	PA_without_intermediate	n/a	test	ward_and_allport	n/a	-1.0	20.0	n/a	n/a	ITI	s061
281.417	2.113	1	PA_without_intermediate	0,0,0,0,0,0,1,2,0	test	ward_and_allport	3,2,0,1,0,0,0,0,0	82.0	21.0	2.113	0,0,0,0,0,0,1,2,3	to_hand	s061
283.532	0.406	0	PA_without_intermediate	3,0,0,0,0,0,1,2,0	test	ward_and_allport	3,2,0,1,0,0,0,0,0	89.0	21.0	0.406	0,0,0,0,0,0,1,2,3	to_board	s061
283.953	1.674	0	PA_without_intermediate	3,0,0,0,0,0,1,0,0	test	ward_and_allport	3,2,0,1,0,0,0,0,0	82.0	21.0	1.674	0,0,0,0,0,0,1,2,3	to_hand	s061
285.629	0.941	0	PA_without_intermediate	3,2,0,0,0,0,1,0,0	test	ward_and_allport	3,2,0,1,0,0,0,0,0	89.0	21.0	0.941	0,0,0,0,0,0,1,2,3	to_board	s061
286.587	1.197	0	PA_without_intermediate	3,2,0,0,0,0,0,0,0	test	ward_and_allport	3,2,0,1,0,0,0,0,0	82.0	21.0	1.197	0,0,0,0,0,0,1,2,3	to_hand	s061
287.786	0.308	0	PA_without_intermediate	3,2,0,1,0,0,0,0,0	test	ward_and_allport	3,2,0,1,0,0,0,0,0	71.0	21.0	0.308	0,0,0,0,0,0,1,2,3	to_board	s061
288.112	1.0	0	PA_without_intermediate	n/a	test	ward_and_allport	n/a	-1.0	21.0	n/a	n/a	feedback	s061
289.112	4.264	0	PA_without_intermediate	n/a	test	ward_and_allport	n/a	-1.0	21.0	n/a	n/a	ITI	s061
293.393	2.93	1	PA_with_intermediate	0,0,0,0,0,0,1,2,0	test	ward_and_allport	0,0,0,2,0,0,1,3,0	82.0	22.0	2.93	0,0,0,0,0,0,1,2,3	to_hand	s061
296.326	0.862	0	PA_with_intermediate	3,0,0,0,0,0,1,2,0	test	ward_and_allport	0,0,0,2,0,0,1,3,0	89.0	22.0	0.862	0,0,0,0,0,0,1,2,3	to_board	s061
297.203	0.452	0	PA_with_intermediate	3,0,0,0,0,0,1,0,0	test	ward_and_allport	0,0,0,2,0,0,1,3,0	82.0	22.0	0.452	0,0,0,0,0,0,1,2,3	to_hand	s061
297.657	0.697	0	PA_with_intermediate	3,0,0,2,0,0,1,0,0	test	ward_and_allport	0,0,0,2,0,0,1,3,0	71.0	22.0	0.697	0,0,0,0,0,0,1,2,3	to_board	s061
298.369	0.456	0	PA_with_intermediate	0,0,0,2,0,0,1,0,0	test	ward_and_allport	0,0,0,2,0,0,1,3,0	89.0	22.0	0.456	0,0,0,0,0,0,1,2,3	to_hand	s061
298.827	0.343	0	PA_with_intermediate	0,0,0,2,0,0,1,3,0	test	ward_and_allport	0,0,0,2,0,0,1,3,0	82.0	22.0	0.343	0,0,0,0,0,0,1,2,3	to_board	s061
299.188	1.0	0	PA_with_intermediate	n/a	test	ward_and_allport	n/a	-1.0	22.0	n/a	n/a	feedback	s061
300.188	3.04	0	PA_with_intermediate	n/a	test	ward_and_allport	n/a	-1.0	22.0	n/a	n/a	ITI	s061
303.244	3.213	1	PA_with_intermediate	1,2,0,0,0,0,0,0,0	test	ward_and_allport	1,3,0,0,0,0,2,0,0	89.0	23.0	3.213	1,2,3,0,0,0,0,0,0	to_hand	s061
306.459	0.391	0	PA_with_intermediate	1,2,0,3,0,0,0,0,0	test	ward_and_allport	1,3,0,0,0,0,2,0,0	71.0	23.0	0.391	1,2,3,0,0,0,0,0,0	to_board	s061
306.865	0.407	0	PA_with_intermediate	1,0,0,3,0,0,0,0,0	test	ward_and_allport	1,3,0,0,0,0,2,0,0	89.0	23.0	0.407	1,2,3,0,0,0,0,0,0	to_hand	s061
307.273	0.425	0	PA_with_intermediate	1,0,0,3,0,0,2,0,0	test	ward_and_allport	1,3,0,0,0,0,2,0,0	82.0	23.0	0.425	1,2,3,0,0,0,0,0,0	to_board	s061
307.716	0.403	0	PA_with_intermediate	1,0,0,0,0,0,2,0,0	test	ward_and_allport	1,3,0,0,0,0,2,0,0	71.0	23.0	0.403	1,2,3,0,0,0,0,0,0	to_hand	s061
308.12	0.251	0	PA_with_intermediate	1,3,0,0,0,0,2,0,0	test	ward_and_allport	1,3,0,0,0,0,2,0,0	89.0	23.0	0.251	1,2,3,0,0,0,0,0,0	to_board	s061
308.388	1.0	0	PA_with_intermediate	n/a	test	ward_and_allport	n/a	-1.0	23.0	n/a	n/a	feedback	s061
309.388	1.136	0	PA_with_intermediate	n/a	test	ward_and_allport	n/a	-1.0	23.0	n/a	n/a	ITI	s061
310.541	2.435	1	PA_with_intermediate	1,2,0,0,0,0,0,0,0	test	ward_and_allport	1,0,0,0,0,0,2,3,0	89.0	24.0	2.435	1,2,3,0,0,0,0,0,0	to_hand	s061
312.979	0.446	0	PA_with_intermediate	1,2,0,3,0,0,0,0,0	test	ward_and_allport	1,0,0,0,0,0,2,3,0	71.0	24.0	0.446	1,2,3,0,0,0,0,0,0	to_board	s061
313.442	0.359	0	PA_with_intermediate	1,0,0,3,0,0,0,0,0	test	ward_and_allport	1,0,0,0,0,0,2,3,0	89.0	24.0	0.359	1,2,3,0,0,0,0,0,0	to_hand	s061
313.803	0.449	0	PA_with_intermediate	1,0,0,3,0,0,2,0,0	test	ward_and_allport	1,0,0,0,0,0,2,3,0	82.0	24.0	0.449	1,2,3,0,0,0,0,0,0	to_board	s061
314.271	0.663	0	PA_with_intermediate	1,0,0,0,0,0,2,0,0	test	ward_and_allport	1,0,0,0,0,0,2,3,0	71.0	24.0	0.663	1,2,3,0,0,0,0,0,0	to_hand	s061
314.935	0.346	0	PA_with_intermediate	1,0,0,0,0,0,2,3,0	test	ward_and_allport	1,0,0,0,0,0,2,3,0	82.0	24.0	0.346	1,2,3,0,0,0,0,0,0	to_board	s061
315.304	1.0	0	PA_with_intermediate	n/a	test	ward_and_allport	n/a	-1.0	24.0	n/a	n/a	feedback	s061
316.304	1.408	0	PA_with_intermediate	n/a	test	ward_and_allport	n/a	-1.0	24.0	n/a	n/a	ITI	s061
317.732	2.216	1	PA_without_intermediate	1,2,0,0,0,0,0,0,0	test	ward_and_allport	0,0,0,1,0,0,3,2,0	89.0	25.0	2.216	1,2,3,0,0,0,0,0,0	to_hand	s061
319.949	0.375	0	PA_without_intermediate	1,2,0,0,0,0,3,0,0	test	ward_and_allport	0,0,0,1,0,0,3,2,0	82.0	25.0	0.375	1,2,3,0,0,0,0,0,0	to_board	s061
320.342	0.376	0	PA_without_intermediate	1,0,0,0,0,0,3,0,0	test	ward_and_allport	0,0,0,1,0,0,3,2,0	89.0	25.0	0.376	1,2,3,0,0,0,0,0,0	to_hand	s061
320.719	0.419	0	PA_without_intermediate	1,0,0,0,0,0,3,2,0	test	ward_and_allport	0,0,0,1,0,0,3,2,0	82.0	25.0	0.419	1,2,3,0,0,0,0,0,0	to_board	s061
321.154	0.689	0	PA_without_intermediate	0,0,0,0,0,0,3,2,0	test	ward_and_allport	0,0,0,1,0,0,3,2,0	89.0	25.0	0.689	1,2,3,0,0,0,0,0,0	to_hand	s061
321.845	0.3	0	PA_without_intermediate	0,0,0,1,0,0,3,2,0	test	ward_and_allport	0,0,0,1,0,0,3,2,0	71.0	25.0	0.3	1,2,3,0,0,0,0,0,0	to_board	s061
322.163	1.0	0	PA_without_intermediate	n/a	test	ward_and_allport	n/a	-1.0	25.0	n/a	n/a	feedback	s061
323.163	1.68	0	PA_without_intermediate	n/a	test	ward_and_allport	n/a	-1.0	25.0	n/a	n/a	ITI	s061
324.861	3.244	1	PA_with_intermediate	0,0,0,1,2,0,0,0,0	test	ward_and_allport	2,0,0,1,3,0,0,0,0	71.0	26.0	3.244	0,0,0,1,2,3,0,0,0	to_hand	s061
328.107	0.363	0	PA_with_intermediate	0,0,0,1,2,0,3,0,0	test	ward_and_allport	2,0,0,1,3,0,0,0,0	82.0	26.0	0.363	0,0,0,1,2,3,0,0,0	to_board	s061
328.488	0.312	0	PA_with_intermediate	0,0,0,1,0,0,3,0,0	test	ward_and_allport	2,0,0,1,3,0,0,0,0	71.0	26.0	0.312	0,0,0,1,2,3,0,0,0	to_hand	s061
328.803	0.319	0	PA_with_intermediate	2,0,0,1,0,0,3,0,0	test	ward_and_allport	2,0,0,1,3,0,0,0,0	89.0	26.0	0.319	0,0,0,1,2,3,0,0,0	to_board	s061
329.142	1.052	0	PA_with_intermediate	2,0,0,1,0,0,0,0,0	test	ward_and_allport	2,0,0,1,3,0,0,0,0	82.0	26.0	1.052	0,0,0,1,2,3,0,0,0	to_hand	s061
330.196	0.34	0	PA_with_intermediate	2,0,0,1,3,0,0,0,0	test	ward_and_allport	2,0,0,1,3,0,0,0,0	71.0	26.0	0.34	0,0,0,1,2,3,0,0,0	to_board	s061
330.554	1.0	0	PA_with_intermediate	n/a	test	ward_and_allport	n/a	-1.0	26.0	n/a	n/a	feedback	s061
331.554	3.72	0	PA_with_intermediate	n/a	test	ward_and_allport	n/a	-1.0	26.0	n/a	n/a	ITI	s061
335.291	3.162	1	PA_without_intermediate	0,0,0,0,0,0,1,2,0	test	ward_and_allport	1,0,0,3,2,0,0,0,0	82.0	27.0	3.162	0,0,0,0,0,0,1,2,3	to_hand	s061
338.456	0.57	0	PA_without_intermediate	0,0,0,3,0,0,1,2,0	test	ward_and_allport	1,0,0,3,2,0,0,0,0	71.0	27.0	0.57	0,0,0,0,0,0,1,2,3	to_board	s061
339.045	0.415	0	PA_without_intermediate	0,0,0,3,0,0,1,0,0	test	ward_and_allport	1,0,0,3,2,0,0,0,0	82.0	27.0	0.415	0,0,0,0,0,0,1,2,3	to_hand	s061
339.462	0.623	0	PA_without_intermediate	0,0,0,3,2,0,1,0,0	test	ward_and_allport	1,0,0,3,2,0,0,0,0	71.0	27.0	0.623	0,0,0,0,0,0,1,2,3	to_board	s061
340.106	0.323	0	PA_without_intermediate	0,0,0,3,2,0,0,0,0	test	ward_and_allport	1,0,0,3,2,0,0,0,0	82.0	27.0	0.323	0,0,0,0,0,0,1,2,3	to_hand	s061
340.431	0.261	0	PA_without_intermediate	1,0,0,3,2,0,0,0,0	test	ward_and_allport	1,0,0,3,2,0,0,0,0	89.0	27.0	0.261	0,0,0,0,0,0,1,2,3	to_board	s061
340.714	1.0	0	PA_without_intermediate	n/a	test	ward_and_allport	n/a	-1.0	27.0	n/a	n/a	feedback	s061
341.714	2.224	0	PA_without_intermediate	n/a	test	ward_and_allport	n/a	-1.0	27.0	n/a	n/a	ITI	s061
343.958	1.901	1	PA_without_intermediate	0,0,0,1,2,0,0,0,0	test	ward_and_allport	3,2,0,0,0,0,1,0,0	71.0	28.0	1.901	0,0,0,1,2,3,0,0,0	to_hand	s061
345.861	0.439	0	PA_without_intermediate	3,0,0,1,2,0,0,0,0	test	ward_and_allport	3,2,0,0,0,0,1,0,0	89.0	28.0	0.439	0,0,0,1,2,3,0,0,0	to_board	s061
346.319	0.429	0	PA_without_intermediate	3,0,0,1,0,0,0,0,0	test	ward_and_allport	3,2,0,0,0,0,1,0,0	71.0	28.0	0.429	0,0,0,1,2,3,0,0,0	to_hand	s061
346.751	0.354	0	PA_without_intermediate	3,2,0,1,0,0,0,0,0	test	ward_and_allport	3,2,0,0,0,0,1,0,0	89.0	28.0	0.354	0,0,0,1,2,3,0,0,0	to_board	s061
347.124	0.324	0	PA_without_intermediate	3,2,0,0,0,0,0,0,0	test	ward_and_allport	3,2,0,0,0,0,1,0,0	71.0	28.0	0.324	0,0,0,1,2,3,0,0,0	to_hand	s061
347.45	0.268	0	PA_without_intermediate	3,2,0,0,0,0,1,0,0	test	ward_and_allport	3,2,0,0,0,0,1,0,0	82.0	28.0	0.268	0,0,0,1,2,3,0,0,0	to_board	s061
347.739	1.0	0	PA_without_intermediate	n/a	test	ward_and_allport	n/a	-1.0	28.0	n/a	n/a	feedback	s061
348.739	1.272	0	PA_without_intermediate	n/a	test	ward_and_allport	n/a	-1.0	28.0	n/a	n/a	ITI	s061
350.034	2.191	1	PA_with_intermediate	0,0,0,1,2,0,0,0,0	test	ward_and_allport	0,0,0,1,3,0,2,0,0	71.0	29.0	2.191	0,0,0,1,2,3,0,0,0	to_hand	s061
352.227	0.394	0	PA_with_intermediate	3,0,0,1,2,0,0,0,0	test	ward_and_allport	0,0,0,1,3,0,2,0,0	89.0	29.0	0.394	0,0,0,1,2,3,0,0,0	to_board	s061
352.645	0.47	0	PA_with_intermediate	3,0,0,1,0,0,0,0,0	test	ward_and_allport	0,0,0,1,3,0,2,0,0	71.0	29.0	0.47	0,0,0,1,2,3,0,0,0	to_hand	s061
353.117	0.412	0	PA_with_intermediate	3,0,0,1,0,0,2,0,0	test	ward_and_allport	0,0,0,1,3,0,2,0,0	82.0	29.0	0.412	0,0,0,1,2,3,0,0,0	to_board	s061
353.547	0.743	0	PA_with_intermediate	0,0,0,1,0,0,2,0,0	test	ward_and_allport	0,0,0,1,3,0,2,0,0	89.0	29.0	0.743	0,0,0,1,2,3,0,0,0	to_hand	s061
354.291	0.259	0	PA_with_intermediate	0,0,0,1,3,0,2,0,0	test	ward_and_allport	0,0,0,1,3,0,2,0,0	71.0	29.0	0.259	0,0,0,1,2,3,0,0,0	to_board	s061
354.57	1.0	0	PA_with_intermediate	n/a	test	ward_and_allport	n/a	-1.0	29.0	n/a	n/a	feedback	s061
355.57	2.632	0	PA_with_intermediate	n/a	test	ward_and_allport	n/a	-1.0	29.0	n/a	n/a	ITI	s061
363.218	1.72	1	PA_without_intermediate	0,0,0,1,2,0,0,0,0	test	ward_and_allport	3,2,0,0,0,0,1,0,0	71.0	30.0	1.72	0,0,0,1,2,3,0,0,0	to_hand	s061
364.941	0.406	0	PA_without_intermediate	3,0,0,1,2,0,0,0,0	test	ward_and_allport	3,2,0,0,0,0,1,0,0	89.0	30.0	0.406	0,0,0,1,2,3,0,0,0	to_board	s061
365.369	0.346	0	PA_without_intermediate	3,0,0,1,0,0,0,0,0	test	ward_and_allport	3,2,0,0,0,0,1,0,0	71.0	30.0	0.346	0,0,0,1,2,3,0,0,0	to_hand	s061
365.717	0.312	0	PA_without_intermediate	3,2,0,1,0,0,0,0,0	test	ward_and_allport	3,2,0,0,0,0,1,0,0	89.0	30.0	0.312	0,0,0,1,2,3,0,0,0	to_board	s061
366.049	0.308	0	PA_without_intermediate	3,2,0,0,0,0,0,0,0	test	ward_and_allport	3,2,0,0,0,0,1,0,0	71.0	30.0	0.308	0,0,0,1,2,3,0,0,0	to_hand	s061
366.359	0.3	0	PA_without_intermediate	3,2,0,0,0,0,1,0,0	test	ward_and_allport	3,2,0,0,0,0,1,0,0	82.0	30.0	0.3	0,0,0,1,2,3,0,0,0	to_board	s061
366.678	1.0	0	PA_without_intermediate	n/a	test	ward_and_allport	n/a	-1.0	30.0	n/a	n/a	feedback	s061
367.678	1.408	0	PA_without_intermediate	n/a	test	ward_and_allport	n/a	-1.0	30.0	n/a	n/a	ITI	s061
369.11	2.081	1	PA_without_intermediate	1,2,0,0,0,0,0,0,0	test	ward_and_allport	0,0,0,3,1,0,2,0,0	89.0	31.0	2.081	1,2,3,0,0,0,0,0,0	to_hand	s061
371.193	0.407	0	PA_without_intermediate	1,2,0,3,0,0,0,0,0	test	ward_and_allport	0,0,0,3,1,0,2,0,0	71.0	31.0	0.407	1,2,3,0,0,0,0,0,0	to_board	s061
371.615	0.551	0	PA_without_intermediate	1,0,0,3,0,0,0,0,0	test	ward_and_allport	0,0,0,3,1,0,2,0,0	89.0	31.0	0.551	1,2,3,0,0,0,0,0,0	to_hand	s061
372.169	0.329	0	PA_without_intermediate	1,0,0,3,0,0,2,0,0	test	ward_and_allport	0,0,0,3,1,0,2,0,0	82.0	31.0	0.329	1,2,3,0,0,0,0,0,0	to_board	s061
372.518	0.287	0	PA_without_intermediate	0,0,0,3,0,0,2,0,0	test	ward_and_allport	0,0,0,3,1,0,2,0,0	89.0	31.0	0.287	1,2,3,0,0,0,0,0,0	to_hand	s061
372.808	0.257	0	PA_without_intermediate	0,0,0,3,1,0,2,0,0	test	ward_and_allport	0,0,0,3,1,0,2,0,0	71.0	31.0	0.257	1,2,3,0,0,0,0,0,0	to_board	s061
373.087	1.0	0	PA_without_intermediate	n/a	test	ward_and_allport	n/a	-1.0	31.0	n/a	n/a	feedback	s061
374.087	1.0	0	PA_without_intermediate	n/a	test	ward_and_allport	n/a	-1.0	31.0	n/a	n/a	ITI	s061
375.108	2.51	1	PA_with_intermediate	0,0,0,1,2,0,0,0,0	test	ward_and_allport	2,3,0,1,0,0,0,0,0	71.0	32.0	2.51	0,0,0,1,2,3,0,0,0	to_hand	s061
377.62	0.35	0	PA_with_intermediate	0,0,0,1,2,0,3,0,0	test	ward_and_allport	2,3,0,1,0,0,0,0,0	82.0	32.0	0.35	0,0,0,1,2,3,0,0,0	to_board	s061
377.991	0.297	0	PA_with_intermediate	0,0,0,1,0,0,3,0,0	test	ward_and_allport	2,3,0,1,0,0,0,0,0	71.0	32.0	0.297	0,0,0,1,2,3,0,0,0	to_hand	s061
378.289	0.314	0	PA_with_intermediate	2,0,0,1,0,0,3,0,0	test	ward_and_allport	2,3,0,1,0,0,0,0,0	89.0	32.0	0.314	0,0,0,1,2,3,0,0,0	to_board	s061
378.621	0.345	0	PA_with_intermediate	2,0,0,1,0,0,0,0,0	test	ward_and_allport	2,3,0,1,0,0,0,0,0	82.0	32.0	0.345	0,0,0,1,2,3,0,0,0	to_hand	s061
378.968	0.32	0	PA_with_intermediate	2,3,0,1,0,0,0,0,0	test	ward_and_allport	2,3,0,1,0,0,0,0,0	89.0	32.0	0.32	0,0,0,1,2,3,0,0,0	to_board	s061
379.307	1.0	0	PA_with_intermediate	n/a	test	ward_and_allport	n/a	-1.0	32.0	n/a	n/a	feedback	s061
380.307	1.0	0	PA_with_intermediate	n/a	test	ward_and_allport	n/a	-1.0	32.0	n/a	n/a	ITI	s061
381.341	3.514	1	PA_with_intermediate	0,0,0,0,0,0,1,2,0	test	ward_and_allport	2,0,0,0,0,0,1,3,0	82.0	33.0	3.514	0,0,0,0,0,0,1,2,3	to_hand	s061
384.857	0.305	0	PA_with_intermediate	3,0,0,0,0,0,1,2,0	test	ward_and_allport	2,0,0,0,0,0,1,3,0	89.0	33.0	0.305	0,0,0,0,0,0,1,2,3	to_board	s061
385.176	0.732	0	PA_with_intermediate	3,0,0,0,0,0,1,0,0	test	ward_and_allport	2,0,0,0,0,0,1,3,0	82.0	33.0	0.732	0,0,0,0,0,0,1,2,3	to_hand	s061
385.909	1.587	0	PA_with_intermediate	3,0,0,2,0,0,1,0,0	test	ward_and_allport	2,0,0,0,0,0,1,3,0	71.0	33.0	1.587	0,0,0,0,0,0,1,2,3	to_board	s061
387.517	0.575	0	PA_with_intermediate	0,0,0,2,0,0,1,0,0	test	ward_and_allport	2,0,0,0,0,0,1,3,0	89.0	33.0	0.575	0,0,0,0,0,0,1,2,3	to_hand	s061
388.094	1.212	0	PA_with_intermediate	0,0,0,2,0,0,1,3,0	test	ward_and_allport	2,0,0,0,0,0,1,3,0	82.0	33.0	1.212	0,0,0,0,0,0,1,2,3	to_board	s061
389.33	0.953	0	PA_with_intermediate	0,0,0,0,0,0,1,3,0	test	ward_and_allport	2,0,0,0,0,0,1,3,0	71.0	33.0	0.953	0,0,0,0,0,0,1,2,3	to_hand	s061
390.285	0.296	0	PA_with_intermediate	2,0,0,0,0,0,1,3,0	test	ward_and_allport	2,0,0,0,0,0,1,3,0	89.0	33.0	0.296	0,0,0,0,0,0,1,2,3	to_board	s061
390.603	1.0	0	PA_with_intermediate	n/a	test	ward_and_allport	n/a	-1.0	33.0	n/a	n/a	feedback	s061
391.603	1.0	0	PA_with_intermediate	n/a	test	ward_and_allport	n/a	-1.0	33.0	n/a	n/a	ITI	s061
392.625	3.028	1	PA_with_intermediate	0,0,0,0,0,0,1,2,0	test	ward_and_allport	2,3,0,0,0,0,1,0,0	82.0	34.0	3.028	0,0,0,0,0,0,1,2,3	to_hand	s061
395.654	0.696	0	PA_with_intermediate	0,0,0,3,0,0,1,2,0	test	ward_and_allport	2,3,0,0,0,0,1,0,0	71.0	34.0	0.696	0,0,0,0,0,0,1,2,3	to_board	s061
396.366	1.033	0	PA_with_intermediate	0,0,0,3,0,0,1,0,0	test	ward_and_allport	2,3,0,0,0,0,1,0,0	82.0	34.0	1.033	0,0,0,0,0,0,1,2,3	to_hand	s061
397.401	0.485	0	PA_with_intermediate	2,0,0,3,0,0,1,0,0	test	ward_and_allport	2,3,0,0,0,0,1,0,0	89.0	34.0	0.485	0,0,0,0,0,0,1,2,3	to_board	s061
397.907	1.13	0	PA_with_intermediate	2,0,0,0,0,0,1,0,0	test	ward_and_allport	2,3,0,0,0,0,1,0,0	71.0	34.0	1.13	0,0,0,0,0,0,1,2,3	to_hand	s061
399.039	0.317	0	PA_with_intermediate	2,3,0,0,0,0,1,0,0	test	ward_and_allport	2,3,0,0,0,0,1,0,0	89.0	34.0	0.317	0,0,0,0,0,0,1,2,3	to_board	s061
399.381	1.0	0	PA_with_intermediate	n/a	test	ward_and_allport	n/a	-1.0	34.0	n/a	n/a	feedback	s061
400.381	1.408	0	PA_with_intermediate	n/a	test	ward_and_allport	n/a	-1.0	34.0	n/a	n/a	ITI	s061
401.813	2.115	1	PA_without_intermediate	0,0,0,1,2,0,0,0,0	test	ward_and_allport	1,0,0,0,0,0,3,2,0	71.0	35.0	2.115	0,0,0,1,2,3,0,0,0	to_hand	s061
403.93	0.575	0	PA_without_intermediate	0,0,0,1,2,0,3,0,0	test	ward_and_allport	1,0,0,0,0,0,3,2,0	82.0	35.0	0.575	0,0,0,1,2,3,0,0,0	to_board	s061
404.524	0.753	0	PA_without_intermediate	0,0,0,1,0,0,3,0,0	test	ward_and_allport	1,0,0,0,0,0,3,2,0	71.0	35.0	0.753	0,0,0,1,2,3,0,0,0	to_hand	s061
405.28	0.747	0	PA_without_intermediate	0,0,0,1,0,0,3,2,0	test	ward_and_allport	1,0,0,0,0,0,3,2,0	82.0	35.0	0.747	0,0,0,1,2,3,0,0,0	to_board	s061
406.051	0.369	0	PA_without_intermediate	0,0,0,0,0,0,3,2,0	test	ward_and_allport	1,0,0,0,0,0,3,2,0	71.0	35.0	0.369	0,0,0,1,2,3,0,0,0	to_hand	s061
406.423	0.412	0	PA_without_intermediate	1,0,0,0,0,0,3,2,0	test	ward_and_allport	1,0,0,0,0,0,3,2,0	89.0	35.0	0.412	0,0,0,1,2,3,0,0,0	to_board	s061
406.859	1.0	0	PA_without_intermediate	n/a	test	ward_and_allport	n/a	-1.0	35.0	n/a	n/a	feedback	s061
407.859	1.816	0	PA_without_intermediate	n/a	test	ward_and_allport	n/a	-1.0	35.0	n/a	n/a	ITI	s061
409.697	2.794	1	PA_with_intermediate	0,0,0,0,0,0,1,2,0	test	ward_and_allport	0,0,0,2,3,0,1,0,0	82.0	36.0	2.794	0,0,0,0,0,0,1,2,3	to_hand	s061
412.494	0.404	0	PA_with_intermediate	3,0,0,0,0,0,1,2,0	test	ward_and_allport	0,0,0,2,3,0,1,0,0	89.0	36.0	0.404	0,0,0,0,0,0,1,2,3	to_board	s061
412.917	0.862	0	PA_with_intermediate	3,0,0,0,0,0,1,0,0	test	ward_and_allport	0,0,0,2,3,0,1,0,0	82.0	36.0	0.862	0,0,0,0,0,0,1,2,3	to_hand	s061
413.782	0.465	0	PA_with_intermediate	3,0,0,2,0,0,1,0,0	test	ward_and_allport	0,0,0,2,3,0,1,0,0	71.0	36.0	0.465	0,0,0,0,0,0,1,2,3	to_board	s061
414.267	0.388	0	PA_with_intermediate	0,0,0,2,0,0,1,0,0	test	ward_and_allport	0,0,0,2,3,0,1,0,0	89.0	36.0	0.388	0,0,0,0,0,0,1,2,3	to_hand	s061
414.657	0.321	0	PA_with_intermediate	0,0,0,2,3,0,1,0,0	test	ward_and_allport	0,0,0,2,3,0,1,0,0	71.0	36.0	0.321	0,0,0,0,0,0,1,2,3	to_board	s061
415.002	1.0	0	PA_with_intermediate	n/a	test	ward_and_allport	n/a	-1.0	36.0	n/a	n/a	feedback	s061
416.002	3.176	0	PA_with_intermediate	n/a	test	ward_and_allport	n/a	-1.0	36.0	n/a	n/a	ITI	s061
419.205	2.717	1	PA_with_intermediate	1,2,0,0,0,0,0,0,0	test	ward_and_allport	1,3,0,2,0,0,0,0,0	89.0	37.0	2.717	1,2,3,0,0,0,0,0,0	to_hand	s061
421.924	1.234	0	PA_with_intermediate	1,2,0,0,0,0,3,0,0	test	ward_and_allport	1,3,0,2,0,0,0,0,0	82.0	37.0	1.234	1,2,3,0,0,0,0,0,0	to_board	s061
423.182	0.735	0	PA_with_intermediate	1,0,0,0,0,0,3,0,0	test	ward_and_allport	1,3,0,2,0,0,0,0,0	89.0	37.0	0.735	1,2,3,0,0,0,0,0,0	to_hand	s061
423.92	0.39	0	PA_with_intermediate	1,0,0,2,0,0,3,0,0	test	ward_and_allport	1,3,0,2,0,0,0,0,0	71.0	37.0	0.39	1,2,3,0,0,0,0,0,0	to_board	s061
424.338	0.426	0	PA_with_intermediate	1,0,0,2,0,0,0,0,0	test	ward_and_allport	1,3,0,2,0,0,0,0,0	82.0	37.0	0.426	1,2,3,0,0,0,0,0,0	to_hand	s061
424.766	0.313	0	PA_with_intermediate	1,3,0,2,0,0,0,0,0	test	ward_and_allport	1,3,0,2,0,0,0,0,0	89.0	37.0	0.313	1,2,3,0,0,0,0,0,0	to_board	s061
425.102	1.0	0	PA_with_intermediate	n/a	test	ward_and_allport	n/a	-1.0	37.0	n/a	n/a	feedback	s061
426.102	2.36	0	PA_with_intermediate	n/a	test	ward_and_allport	n/a	-1.0	37.0	n/a	n/a	ITI	s061
428.485	2.657	1	PA_with_intermediate	0,0,0,1,2,0,0,0,0	test	ward_and_allport	0,0,0,1,0,0,2,3,0	71.0	38.0	2.657	0,0,0,1,2,3,0,0,0	to_hand	s061
431.144	0.838	0	PA_with_intermediate	3,0,0,1,2,0,0,0,0	test	ward_and_allport	0,0,0,1,0,0,2,3,0	89.0	38.0	0.838	0,0,0,1,2,3,0,0,0	to_board	s061
432.001	0.854	0	PA_with_intermediate	3,0,0,1,0,0,0,0,0	test	ward_and_allport	0,0,0,1,0,0,2,3,0	71.0	38.0	0.854	0,0,0,1,2,3,0,0,0	to_hand	s061
432.857	0.398	0	PA_with_intermediate	3,0,0,1,0,0,2,0,0	test	ward_and_allport	0,0,0,1,0,0,2,3,0	82.0	38.0	0.398	0,0,0,1,2,3,0,0,0	to_board	s061
433.277	0.357	0	PA_with_intermediate	0,0,0,1,0,0,2,0,0	test	ward_and_allport	0,0,0,1,0,0,2,3,0	89.0	38.0	0.357	0,0,0,1,2,3,0,0,0	to_hand	s061
433.635	0.324	0	PA_with_intermediate	0,0,0,1,0,0,2,3,0	test	ward_and_allport	0,0,0,1,0,0,2,3,0	82.0	38.0	0.324	0,0,0,1,2,3,0,0,0	to_board	s061
433.984	1.0	0	PA_with_intermediate	n/a	test	ward_and_allport	n/a	-1.0	38.0	n/a	n/a	feedback	s061
434.984	1.0	0	PA_with_intermediate	n/a	test	ward_and_allport	n/a	-1.0	38.0	n/a	n/a	ITI	s061
436.004	1.906	1	PA_without_intermediate	1,2,0,0,0,0,0,0,0	test	ward_and_allport	0,0,0,2,0,0,3,1,0	89.0	39.0	1.906	1,2,3,0,0,0,0,0,0	to_hand	s061
437.912	0.492	0	PA_without_intermediate	1,2,0,0,0,0,3,0,0	test	ward_and_allport	0,0,0,2,0,0,3,1,0	82.0	39.0	0.492	1,2,3,0,0,0,0,0,0	to_board	s061
438.422	1.036	0	PA_without_intermediate	1,0,0,0,0,0,3,0,0	test	ward_and_allport	0,0,0,2,0,0,3,1,0	89.0	39.0	1.036	1,2,3,0,0,0,0,0,0	to_hand	s061
439.46	0.45	0	PA_without_intermediate	1,0,0,2,0,0,3,0,0	test	ward_and_allport	0,0,0,2,0,0,3,1,0	71.0	39.0	0.45	1,2,3,0,0,0,0,0,0	to_board	s061
439.93	0.434	0	PA_without_intermediate	0,0,0,2,0,0,3,0,0	test	ward_and_allport	0,0,0,2,0,0,3,1,0	89.0	39.0	0.434	1,2,3,0,0,0,0,0,0	to_hand	s061
440.366	0.333	0	PA_without_intermediate	0,0,0,2,0,0,3,1,0	test	ward_and_allport	0,0,0,2,0,0,3,1,0	82.0	39.0	0.333	1,2,3,0,0,0,0,0,0	to_board	s061
440.726	1.0	0	PA_without_intermediate	n/a	test	ward_and_allport	n/a	-1.0	39.0	n/a	n/a	feedback	s061
441.726	1.408	0	PA_without_intermediate	n/a	test	ward_and_allport	n/a	-1.0	39.0	n/a	n/a	ITI	s061
443.16	2.278	1	PA_with_intermediate	1,2,0,0,0,0,0,0,0	test	ward_and_allport	1,0,0,2,3,0,0,0,0	89.0	40.0	2.278	1,2,3,0,0,0,0,0,0	to_hand	s061
445.441	0.412	0	PA_with_intermediate	1,2,0,0,0,0,3,0,0	test	ward_and_allport	1,0,0,2,3,0,0,0,0	82.0	40.0	0.412	1,2,3,0,0,0,0,0,0	to_board	s061
445.873	0.324	0	PA_with_intermediate	1,0,0,0,0,0,3,0,0	test	ward_and_allport	1,0,0,2,3,0,0,0,0	89.0	40.0	0.324	1,2,3,0,0,0,0,0,0	to_hand	s061
446.2	0.361	0	PA_with_intermediate	1,0,0,2,0,0,3,0,0	test	ward_and_allport	1,0,0,2,3,0,0,0,0	71.0	40.0	0.361	1,2,3,0,0,0,0,0,0	to_board	s061
446.584	0.801	0	PA_with_intermediate	1,0,0,2,0,0,0,0,0	test	ward_and_allport	1,0,0,2,3,0,0,0,0	82.0	40.0	0.801	1,2,3,0,0,0,0,0,0	to_hand	s061
447.387	0.661	0	PA_with_intermediate	1,0,0,2,3,0,0,0,0	test	ward_and_allport	1,0,0,2,3,0,0,0,0	71.0	40.0	0.661	1,2,3,0,0,0,0,0,0	to_board	s061
448.068	1.0	0	PA_with_intermediate	n/a	test	ward_and_allport	n/a	-1.0	40.0	n/a	n/a	feedback	s061
449.068	1.816	0	PA_with_intermediate	n/a	test	ward_and_allport	n/a	-1.0	40.0	n/a	n/a	ITI	s061
450.904	2.059	1	PA_without_intermediate	0,0,0,0,0,0,1,2,0	test	ward_and_allport	1,0,0,3,2,0,0,0,0	82.0	41.0	2.059	0,0,0,0,0,0,1,2,3	to_hand	s061
452.966	0.717	0	PA_without_intermediate	0,0,0,3,0,0,1,2,0	test	ward_and_allport	1,0,0,3,2,0,0,0,0	71.0	41.0	0.717	0,0,0,0,0,0,1,2,3	to_board	s061
453.712	0.419	0	PA_without_intermediate	0,0,0,3,0,0,1,0,0	test	ward_and_allport	1,0,0,3,2,0,0,0,0	82.0	41.0	0.419	0,0,0,0,0,0,1,2,3	to_hand	s061
454.134	0.503	0	PA_without_intermediate	0,0,0,3,2,0,1,0,0	test	ward_and_allport	1,0,0,3,2,0,0,0,0	71.0	41.0	0.503	0,0,0,0,0,0,1,2,3	to_board	s061
454.665	0.364	0	PA_without_intermediate	0,0,0,3,2,0,0,0,0	test	ward_and_allport	1,0,0,3,2,0,0,0,0	82.0	41.0	0.364	0,0,0,0,0,0,1,2,3	to_hand	s061
455.03	0.294	0	PA_without_intermediate	1,0,0,3,2,0,0,0,0	test	ward_and_allport	1,0,0,3,2,0,0,0,0	89.0	41.0	0.294	0,0,0,0,0,0,1,2,3	to_board	s061
455.35	1.0	0	PA_without_intermediate	n/a	test	ward_and_allport	n/a	-1.0	41.0	n/a	n/a	feedback	s061
456.35	2.088	0	PA_without_intermediate	n/a	test	ward_and_allport	n/a	-1.0	41.0	n/a	n/a	ITI	s061
458.454	1.692	1	PA_without_intermediate	0,0,0,0,0,0,1,2,0	test	ward_and_allport	3,2,0,1,0,0,0,0,0	82.0	42.0	1.692	0,0,0,0,0,0,1,2,3	to_hand	s061
460.148	0.394	0	PA_without_intermediate	3,0,0,0,0,0,1,2,0	test	ward_and_allport	3,2,0,1,0,0,0,0,0	89.0	42.0	0.394	0,0,0,0,0,0,1,2,3	to_board	s061
460.564	0.423	0	PA_without_intermediate	3,0,0,0,0,0,1,0,0	test	ward_and_allport	3,2,0,1,0,0,0,0,0	82.0	42.0	0.423	0,0,0,0,0,0,1,2,3	to_hand	s061
460.989	0.335	0	PA_without_intermediate	3,2,0,0,0,0,1,0,0	test	ward_and_allport	3,2,0,1,0,0,0,0,0	89.0	42.0	0.335	0,0,0,0,0,0,1,2,3	to_board	s061
461.347	0.476	0	PA_without_intermediate	3,2,0,0,0,0,0,0,0	test	ward_and_allport	3,2,0,1,0,0,0,0,0	82.0	42.0	0.476	0,0,0,0,0,0,1,2,3	to_hand	s061
461.825	0.275	0	PA_without_intermediate	3,2,0,1,0,0,0,0,0	test	ward_and_allport	3,2,0,1,0,0,0,0,0	71.0	42.0	0.275	0,0,0,0,0,0,1,2,3	to_board	s061
462.127	1.0	0	PA_without_intermediate	n/a	test	ward_and_allport	n/a	-1.0	42.0	n/a	n/a	feedback	s061
463.127	1.136	0	PA_without_intermediate	n/a	test	ward_and_allport	n/a	-1.0	42.0	n/a	n/a	ITI	s061
464.283	1.658	1	PA_without_intermediate	0,0,0,1,2,0,0,0,0	test	ward_and_allport	3,1,0,0,0,0,2,0,0	71.0	43.0	1.658	0,0,0,1,2,3,0,0,0	to_hand	s061
465.943	0.473	0	PA_without_intermediate	3,0,0,1,2,0,0,0,0	test	ward_and_allport	3,1,0,0,0,0,2,0,0	89.0	43.0	0.473	0,0,0,1,2,3,0,0,0	to_board	s061
466.44	0.439	0	PA_without_intermediate	3,0,0,1,0,0,0,0,0	test	ward_and_allport	3,1,0,0,0,0,2,0,0	71.0	43.0	0.439	0,0,0,1,2,3,0,0,0	to_hand	s061
466.88	0.365	0	PA_without_intermediate	3,0,0,1,0,0,2,0,0	test	ward_and_allport	3,1,0,0,0,0,2,0,0	82.0	43.0	0.365	0,0,0,1,2,3,0,0,0	to_board	s061
467.266	0.404	0	PA_without_intermediate	3,0,0,0,0,0,2,0,0	test	ward_and_allport	3,1,0,0,0,0,2,0,0	71.0	43.0	0.404	0,0,0,1,2,3,0,0,0	to_hand	s061
467.672	0.286	0	PA_without_intermediate	3,1,0,0,0,0,2,0,0	test	ward_and_allport	3,1,0,0,0,0,2,0,0	89.0	43.0	0.286	0,0,0,1,2,3,0,0,0	to_board	s061
467.984	1.0	0	PA_without_intermediate	n/a	test	ward_and_allport	n/a	-1.0	43.0	n/a	n/a	feedback	s061
468.984	6.168	0	PA_without_intermediate	n/a	test	ward_and_allport	n/a	-1.0	43.0	n/a	n/a	ITI	s061
475.173	1.762	1	PA_without_intermediate	0,0,0,0,0,0,1,2,0	test	ward_and_allport	3,1,0,2,0,0,0,0,0	82.0	44.0	1.762	0,0,0,0,0,0,1,2,3	to_hand	s061
476.937	0.42	0	PA_without_intermediate	3,0,0,0,0,0,1,2,0	test	ward_and_allport	3,1,0,2,0,0,0,0,0	89.0	44.0	0.42	0,0,0,0,0,0,1,2,3	to_board	s061
477.378	0.588	0	PA_without_intermediate	3,0,0,0,0,0,1,0,0	test	ward_and_allport	3,1,0,2,0,0,0,0,0	82.0	44.0	0.588	0,0,0,0,0,0,1,2,3	to_hand	s061
477.967	0.369	0	PA_without_intermediate	3,0,0,2,0,0,1,0,0	test	ward_and_allport	3,1,0,2,0,0,0,0,0	71.0	44.0	0.369	0,0,0,0,0,0,1,2,3	to_board	s061
478.362	0.354	0	PA_without_intermediate	3,0,0,2,0,0,0,0,0	test	ward_and_allport	3,1,0,2,0,0,0,0,0	82.0	44.0	0.354	0,0,0,0,0,0,1,2,3	to_hand	s061
478.72	0.259	0	PA_without_intermediate	3,1,0,2,0,0,0,0,0	test	ward_and_allport	3,1,0,2,0,0,0,0,0	89.0	44.0	0.259	0,0,0,0,0,0,1,2,3	to_board	s061
479.016	1.0	0	PA_without_intermediate	n/a	test	ward_and_allport	n/a	-1.0	44.0	n/a	n/a	feedback	s061
480.016	1.816	0	PA_without_intermediate	n/a	test	ward_and_allport	n/a	-1.0	44.0	n/a	n/a	ITI	s061
486.865	2.798	1	PA_with_intermediate	1,2,0,0,0,0,0,0,0	test	ward_and_allport	1,0,0,0,0,0,2,3,0	89.0	45.0	2.798	1,2,3,0,0,0,0,0,0	to_hand	s061
489.665	0.419	0	PA_with_intermediate	1,2,0,0,0,0,3,0,0	test	ward_and_allport	1,0,0,0,0,0,2,3,0	82.0	45.0	0.419	1,2,3,0,0,0,0,0,0	to_board	s061
490.115	1.103	0	PA_with_intermediate	1,0,0,0,0,0,3,0,0	test	ward_and_allport	1,0,0,0,0,0,2,3,0	89.0	45.0	1.103	1,2,3,0,0,0,0,0,0	to_hand	s061
491.221	0.418	0	PA_with_intermediate	1,0,0,0,0,0,3,2,0	test	ward_and_allport	1,0,0,0,0,0,2,3,0	82.0	45.0	0.418	1,2,3,0,0,0,0,0,0	to_board	s061
491.667	2.157	0	PA_with_intermediate	1,0,0,0,0,0,3,0,0	test	ward_and_allport	1,0,0,0,0,0,2,3,0	82.0	45.0	2.157	1,2,3,0,0,0,0,0,0	to_hand	s061
493.825	0.408	0	PA_with_intermediate	1,0,0,2,0,0,3,0,0	test	ward_and_allport	1,0,0,0,0,0,2,3,0	71.0	45.0	0.408	1,2,3,0,0,0,0,0,0	to_board	s061
494.26	0.935	0	PA_with_intermediate	1,0,0,2,0,0,0,0,0	test	ward_and_allport	1,0,0,0,0,0,2,3,0	82.0	45.0	0.935	1,2,3,0,0,0,0,0,0	to_hand	s061
495.198	0.544	0	PA_with_intermediate	1,3,0,2,0,0,0,0,0	test	ward_and_allport	1,0,0,0,0,0,2,3,0	89.0	45.0	0.544	1,2,3,0,0,0,0,0,0	to_board	s061
495.766	1.912	0	PA_with_intermediate	1,3,0,0,0,0,0,0,0	test	ward_and_allport	1,0,0,0,0,0,2,3,0	71.0	45.0	1.912	1,2,3,0,0,0,0,0,0	to_hand	s061
497.68	0.358	0	PA_with_intermediate	1,3,0,0,0,0,2,0,0	test	ward_and_allport	1,0,0,0,0,0,2,3,0	82.0	45.0	0.358	1,2,3,0,0,0,0,0,0	to_board	s061
498.057	0.457	0	PA_with_intermediate	1,0,0,0,0,0,2,0,0	test	ward_and_allport	1,0,0,0,0,0,2,3,0	89.0	45.0	0.457	1,2,3,0,0,0,0,0,0	to_hand	s061
498.516	0.357	0	PA_with_intermediate	1,0,0,0,0,0,2,3,0	test	ward_and_allport	1,0,0,0,0,0,2,3,0	82.0	45.0	0.357	1,2,3,0,0,0,0,0,0	to_board	s061
498.904	1.0	0	PA_with_intermediate	n/a	test	ward_and_allport	n/a	-1.0	45.0	n/a	n/a	feedback	s061
499.904	1.952	0	PA_with_intermediate	n/a	test	ward_and_allport	n/a	-1.0	45.0	n/a	n/a	ITI	s061
501.887	1.918	1	PA_with_intermediate	0,0,0,1,2,0,0,0,0	test	ward_and_allport	2,3,0,1,0,0,0,0,0	71.0	46.0	1.918	0,0,0,1,2,3,0,0,0	to_hand	s061
503.808	0.376	0	PA_with_intermediate	0,0,0,1,2,0,3,0,0	test	ward_and_allport	2,3,0,1,0,0,0,0,0	82.0	46.0	0.376	0,0,0,1,2,3,0,0,0	to_board	s061
504.214	0.335	0	PA_with_intermediate	0,0,0,1,0,0,3,0,0	test	ward_and_allport	2,3,0,1,0,0,0,0,0	71.0	46.0	0.335	0,0,0,1,2,3,0,0,0	to_hand	s061
504.551	0.486	0	PA_with_intermediate	2,0,0,1,0,0,3,0,0	test	ward_and_allport	2,3,0,1,0,0,0,0,0	89.0	46.0	0.486	0,0,0,1,2,3,0,0,0	to_board	s061
505.062	1.961	0	PA_with_intermediate	2,0,0,1,0,0,0,0,0	test	ward_and_allport	2,3,0,1,0,0,0,0,0	82.0	46.0	1.961	0,0,0,1,2,3,0,0,0	to_hand	s061
507.025	0.334	0	PA_with_intermediate	2,3,0,1,0,0,0,0,0	test	ward_and_allport	2,3,0,1,0,0,0,0,0	89.0	46.0	0.334	0,0,0,1,2,3,0,0,0	to_board	s061
507.386	1.0	0	PA_with_intermediate	n/a	test	ward_and_allport	n/a	-1.0	46.0	n/a	n/a	feedback	s061
508.386	1.136	0	PA_with_intermediate	n/a	test	ward_and_allport	n/a	-1.0	46.0	n/a	n/a	ITI	s061
509.546	2.099	1	PA_without_intermediate	1,2,0,0,0,0,0,0,0	test	ward_and_allport	0,0,0,3,2,0,1,0,0	89.0	47.0	2.099	1,2,3,0,0,0,0,0,0	to_hand	s061
511.647	0.697	0	PA_without_intermediate	1,2,0,3,0,0,0,0,0	test	ward_and_allport	0,0,0,3,2,0,1,0,0	71.0	47.0	0.697	1,2,3,0,0,0,0,0,0	to_board	s061
512.368	0.402	0	PA_without_intermediate	1,0,0,3,0,0,0,0,0	test	ward_and_allport	0,0,0,3,2,0,1,0,0	89.0	47.0	0.402	1,2,3,0,0,0,0,0,0	to_hand	s061
512.773	0.475	0	PA_without_intermediate	1,0,0,3,2,0,0,0,0	test	ward_and_allport	0,0,0,3,2,0,1,0,0	71.0	47.0	0.475	1,2,3,0,0,0,0,0,0	to_board	s061
513.273	0.369	0	PA_without_intermediate	0,0,0,3,2,0,0,0,0	test	ward_and_allport	0,0,0,3,2,0,1,0,0	89.0	47.0	0.369	1,2,3,0,0,0,0,0,0	to_hand	s061
513.644	0.416	0	PA_without_intermediate	0,0,0,3,2,0,1,0,0	test	ward_and_allport	0,0,0,3,2,0,1,0,0	82.0	47.0	0.416	1,2,3,0,0,0,0,0,0	to_board	s061
514.085	1.0	0	PA_without_intermediate	n/a	test	ward_and_allport	n/a	-1.0	47.0	n/a	n/a	feedback	s061
515.085	1.68	0	PA_without_intermediate	n/a	test	ward_and_allport	n/a	-1.0	47.0	n/a	n/a	ITI	s061
n/a	n/a	0	n/a	n/a	n/a	n/a	n/a	n/a	n/a	n/a	n/a	ITI	n/a
