onset	duration	CTI	correct	correct_response	cue	cue_switch	experiment_exp_id	key_press	response_time	stim_color	stim_number	switch_type	task_type	task_switch	worker_id	first_trial_of_block
3.618	1.0	0.1	True	89.0	Magnitude	stay	twobytwo	89.0	1.098	blue	8.0	cue_stay	magnitude	stay	s061	1
6.948	1.0	0.1	True	71.0	Color	n/a	twobytwo	71.0	1.399	orange	7.0	task_switch	color	switch	s061	0
10.263	1.0	0.9	True	71.0	Magnitude	n/a	twobytwo	71.0	0.739	orange	3.0	task_switch	magnitude	switch	s061	0
13.188	1.0	0.1	True	71.0	Color	n/a	twobytwo	71.0	0.882	orange	2.0	task_switch	color	switch	s061	0
16.505	1.0	0.9	True	89.0	High-Low	n/a	twobytwo	89.0	1.065	blue	8.0	task_switch	magnitude	switch	s061	0
18.749	1.0	0.1	True	71.0	High-Low	stay	twobytwo	71.0	1.068	blue	2.0	cue_stay	magnitude	stay	s061	0
20.992	1.0	0.1	True	89.0	Magnitude	switch	twobytwo	89.0	1.157	orange	9.0	cue_switch	magnitude	stay	s061	0
23.9	1.0	0.9	True	71.0	High-Low	switch	twobytwo	71.0	0.784	orange	3.0	cue_switch	magnitude	stay	s061	0
26.008	1.0	0.1	True	71.0	Orange-Blue	n/a	twobytwo	71.0	1.031	orange	8.0	task_switch	color	switch	s061	0
29.188	1.0	0.9	True	89.0	High-Low	n/a	twobytwo	89.0	0.672	orange	7.0	task_switch	magnitude	switch	s061	0
32.503	1.0	0.9	True	89.0	Orange-Blue	n/a	twobytwo	89.0	0.556	blue	2.0	task_switch	color	switch	s061	0
34.613	1.0	0.1	True	71.0	Color	switch	twobytwo	71.0	0.891	orange	1.0	cue_switch	color	stay	s061	0
37.657	1.0	0.9	True	71.0	High-Low	n/a	twobytwo	71.0	0.936	blue	2.0	task_switch	magnitude	switch	s061	0
40.571	1.0	0.9	True	89.0	Orange-Blue	n/a	twobytwo	89.0	0.864	blue	8.0	task_switch	color	switch	s061	0
43.084	1.0	0.1	True	89.0	Color	switch	twobytwo	89.0	1.013	blue	8.0	cue_switch	color	stay	s061	0
45.463	1.0	0.1	True	89.0	High-Low	n/a	twobytwo	89.0	1.1	orange	7.0	task_switch	magnitude	switch	s061	0
47.569	1.0	0.1	True	71.0	Magnitude	switch	twobytwo	71.0	1.123	orange	3.0	cue_switch	magnitude	stay	s061	0
49.948	1.0	0.1	True	71.0	Orange-Blue	n/a	twobytwo	71.0	1.057	orange	9.0	task_switch	color	switch	s061	0
52.856	1.0	0.9	False	71.0	High-Low	n/a	twobytwo	89.0	0.82	orange	3.0	task_switch	magnitude	switch	s061	0
54.968	1.0	0.1	True	89.0	High-Low	stay	twobytwo	89.0	1.172	orange	9.0	cue_stay	magnitude	stay	s061	0
58.145	1.0	0.9	True	89.0	Color	n/a	twobytwo	89.0	0.581	blue	2.0	task_switch	color	switch	s061	0
61.188	1.0	0.9	True	89.0	High-Low	n/a	twobytwo	89.0	0.783	orange	9.0	task_switch	magnitude	switch	s061	0
64.096	1.0	0.9	True	89.0	High-Low	stay	twobytwo	89.0	0.793	blue	7.0	cue_stay	magnitude	stay	s061	0
66.203	1.0	0.1	True	89.0	Orange-Blue	n/a	twobytwo	89.0	1.128	blue	7.0	task_switch	color	switch	s061	0
68.31	1.0	0.1	True	71.0	Color	switch	twobytwo	71.0	0.856	orange	4.0	cue_switch	color	stay	s061	0
71.218	1.0	0.9	True	71.0	Color	stay	twobytwo	71.0	0.576	orange	2.0	cue_stay	color	stay	s061	0
74.124	1.0	0.9	True	71.0	Magnitude	n/a	twobytwo	71.0	0.8	orange	2.0	task_switch	magnitude	switch	s061	0
76.367	1.0	0.1	True	89.0	Magnitude	stay	twobytwo	89.0	0.814	orange	8.0	cue_stay	magnitude	stay	s061	0
79.273	1.0	0.9	True	89.0	Orange-Blue	n/a	twobytwo	89.0	0.624	blue	4.0	task_switch	color	switch	s061	0
81.38	1.0	0.1	True	71.0	Color	switch	twobytwo	71.0	1.158	orange	4.0	cue_switch	color	stay	s061	0
83.621	1.0	0.1	True	71.0	Orange-Blue	switch	twobytwo	71.0	0.863	orange	4.0	cue_switch	color	stay	s061	0
86.53	1.0	0.9	True	71.0	High-Low	n/a	twobytwo	71.0	0.719	orange	4.0	task_switch	magnitude	switch	s061	0
89.573	1.0	0.9	True	71.0	Color	n/a	twobytwo	71.0	0.81	orange	9.0	task_switch	color	switch	s061	0
92.363	1.0	0.1	True	71.0	Color	stay	twobytwo	71.0	0.916	orange	2.0	cue_stay	color	stay	s061	0
95.541	1.0	0.9	True	89.0	Color	stay	twobytwo	89.0	0.469	blue	3.0	cue_stay	color	stay	s061	0
97.787	1.0	0.1	True	71.0	High-Low	n/a	twobytwo	71.0	1.038	orange	3.0	task_switch	magnitude	switch	s061	0
99.893	1.0	0.1	True	71.0	Color	n/a	twobytwo	71.0	1.045	orange	3.0	task_switch	color	switch	s061	0
102.937	1.0	0.9	True	71.0	Magnitude	n/a	twobytwo	71.0	0.941	blue	1.0	task_switch	magnitude	switch	s061	0
106.524	1.0	0.9	True	89.0	Color	n/a	twobytwo	89.0	0.489	blue	4.0	task_switch	color	switch	s061	0
108.903	1.0	0.1	True	71.0	Orange-Blue	switch	twobytwo	71.0	0.801	orange	6.0	cue_switch	color	stay	s061	0
111.811	1.0	0.9	True	89.0	High-Low	n/a	twobytwo	89.0	0.583	orange	8.0	task_switch	magnitude	switch	s061	0
114.718	1.0	0.9	True	89.0	High-Low	stay	twobytwo	89.0	0.671	orange	9.0	cue_stay	magnitude	stay	s061	0
116.959	1.0	0.1	True	89.0	High-Low	stay	twobytwo	89.0	0.817	blue	9.0	cue_stay	magnitude	stay	s061	0
119.866	1.0	0.9	True	71.0	High-Low	stay	twobytwo	71.0	0.583	blue	4.0	cue_stay	magnitude	stay	s061	0
122.774	1.0	0.9	True	89.0	Magnitude	switch	twobytwo	89.0	0.686	blue	8.0	cue_switch	magnitude	stay	s061	0
124.882	1.0	0.1	False	89.0	Color	n/a	twobytwo	71.0	0.888	blue	4.0	task_switch	color	switch	s061	0
127.26	1.0	0.1	True	89.0	Magnitude	n/a	twobytwo	89.0	1.28	blue	6.0	task_switch	magnitude	switch	s061	0
130.574	1.0	0.9	True	89.0	Magnitude	stay	twobytwo	89.0	0.697	blue	8.0	cue_stay	magnitude	stay	s061	0
133.481	1.0	0.9	True	89.0	Magnitude	stay	twobytwo	89.0	0.659	blue	8.0	cue_stay	magnitude	stay	s061	0
136.389	1.0	0.9	True	71.0	Color	n/a	twobytwo	71.0	0.62	orange	3.0	task_switch	color	switch	s061	0
139.297	1.0	0.9	True	89.0	High-Low	n/a	twobytwo	89.0	0.906	blue	9.0	task_switch	magnitude	switch	s061	0
142.476	1.0	0.9	True	71.0	High-Low	stay	twobytwo	71.0	0.9	orange	2.0	cue_stay	magnitude	stay	s061	0
145.522	1.0	0.9	True	71.0	Color	n/a	twobytwo	71.0	0.608	orange	7.0	task_switch	color	switch	s061	0
147.628	1.0	0.1	True	89.0	Orange-Blue	switch	twobytwo	89.0	1.251	blue	4.0	cue_switch	color	stay	s061	0
150.279	1.0	0.1	True	89.0	Magnitude	n/a	twobytwo	89.0	1.077	blue	9.0	task_switch	magnitude	switch	s061	0
153.459	1.0	0.9	True	71.0	Magnitude	stay	twobytwo	71.0	0.698	orange	1.0	cue_stay	magnitude	stay	s061	0
156.64	1.0	0.9	True	71.0	High-Low	switch	twobytwo	71.0	0.74	orange	1.0	cue_switch	magnitude	stay	s061	0
159.546	1.0	0.9	True	71.0	High-Low	stay	twobytwo	71.0	0.699	orange	3.0	cue_stay	magnitude	stay	s061	0
161.652	1.0	0.1	True	71.0	Color	n/a	twobytwo	71.0	0.856	orange	7.0	task_switch	color	switch	s061	0
164.697	1.0	0.9	True	71.0	High-Low	n/a	twobytwo	71.0	0.97	blue	2.0	task_switch	magnitude	switch	s061	0
166.803	1.0	0.1	True	71.0	Magnitude	switch	twobytwo	71.0	1.053	orange	2.0	cue_switch	magnitude	stay	s061	0
169.044	1.0	0.1	True	71.0	Orange-Blue	n/a	twobytwo	71.0	0.809	orange	1.0	task_switch	color	switch	s061	0
171.423	1.0	0.1	True	89.0	High-Low	n/a	twobytwo	89.0	1.367	orange	6.0	task_switch	magnitude	switch	s061	0
174.468	1.0	0.9	True	71.0	High-Low	stay	twobytwo	71.0	0.664	orange	2.0	cue_stay	magnitude	stay	s061	0
177.648	1.0	0.9	True	71.0	Orange-Blue	n/a	twobytwo	71.0	0.53	orange	4.0	task_switch	color	switch	s061	0
179.755	1.0	0.1	True	71.0	Orange-Blue	stay	twobytwo	71.0	0.895	orange	6.0	cue_stay	color	stay	s061	0
183.479	1.0	0.9	True	71.0	Color	switch	twobytwo	71.0	0.572	orange	9.0	cue_switch	color	stay	s061	0
186.797	1.0	0.9	True	71.0	Color	stay	twobytwo	71.0	0.553	orange	3.0	cue_stay	color	stay	s061	0
188.905	1.0	0.1	True	89.0	Color	stay	twobytwo	89.0	0.749	blue	4.0	cue_stay	color	stay	s061	0
191.556	1.0	0.1	True	71.0	High-Low	n/a	twobytwo	71.0	1.011	orange	3.0	task_switch	magnitude	switch	s061	0
194.6	1.0	0.9	True	89.0	Orange-Blue	n/a	twobytwo	89.0	0.526	blue	3.0	task_switch	color	switch	s061	0
196.711	1.0	0.1	True	89.0	Orange-Blue	stay	twobytwo	89.0	1.016	blue	7.0	cue_stay	color	stay	s061	0
198.817	1.0	0.1	True	89.0	Color	switch	twobytwo	89.0	0.864	blue	4.0	cue_switch	color	stay	s061	0
201.06	1.0	0.1	True	71.0	Color	stay	twobytwo	71.0	0.752	orange	6.0	cue_stay	color	stay	s061	0
204.103	1.0	0.9	True	71.0	High-Low	n/a	twobytwo	71.0	0.714	blue	2.0	task_switch	magnitude	switch	s061	0
206.483	1.0	0.1	True	89.0	Magnitude	switch	twobytwo	89.0	0.893	blue	8.0	cue_switch	magnitude	stay	s061	0
210.615	1.0	0.9	True	71.0	High-Low	switch	twobytwo	71.0	0.791	blue	1.0	cue_switch	magnitude	stay	s061	0
212.722	1.0	0.1	True	89.0	Orange-Blue	n/a	twobytwo	89.0	0.891	blue	8.0	task_switch	color	switch	s061	0
214.827	1.0	0.1	True	89.0	Magnitude	n/a	twobytwo	89.0	1.196	orange	6.0	task_switch	magnitude	switch	s061	0
218.005	1.0	0.9	True	71.0	Color	n/a	twobytwo	71.0	0.528	orange	1.0	task_switch	color	switch	s061	0
233.762	1.0	0.1	True	89.0	Color	stay	twobytwo	89.0	0.923	blue	8.0	cue_stay	color	stay	s061	1
235.869	1.0	0.1	True	89.0	High-Low	n/a	twobytwo	89.0	1.246	orange	7.0	task_switch	magnitude	switch	s061	0
238.778	1.0	0.9	True	71.0	Color	n/a	twobytwo	71.0	0.545	orange	3.0	task_switch	color	switch	s061	0
240.884	1.0	0.1	True	71.0	Magnitude	n/a	twobytwo	71.0	1.007	orange	2.0	task_switch	magnitude	switch	s061	0
244.472	1.0	0.9	True	89.0	Orange-Blue	n/a	twobytwo	89.0	0.47	blue	8.0	task_switch	color	switch	s061	0
246.58	1.0	0.1	True	89.0	Orange-Blue	stay	twobytwo	89.0	0.806	blue	2.0	cue_stay	color	stay	s061	0
248.958	1.0	0.1	True	71.0	Color	switch	twobytwo	71.0	0.74	orange	9.0	cue_switch	color	stay	s061	0
251.864	1.0	0.9	True	71.0	Orange-Blue	switch	twobytwo	71.0	0.51	orange	3.0	cue_switch	color	stay	s061	0
254.244	1.0	0.1	True	89.0	High-Low	n/a	twobytwo	89.0	1.128	orange	8.0	task_switch	magnitude	switch	s061	0
258.104	1.0	0.9	True	71.0	Color	n/a	twobytwo	71.0	0.516	orange	7.0	task_switch	color	switch	s061	0
261.012	1.0	0.9	True	71.0	High-Low	n/a	twobytwo	71.0	1.191	blue	2.0	task_switch	magnitude	switch	s061	0
263.128	1.0	0.1	True	71.0	Magnitude	switch	twobytwo	71.0	0.988	orange	1.0	cue_switch	magnitude	stay	s061	0
266.036	1.0	0.9	True	89.0	Orange-Blue	n/a	twobytwo	89.0	0.775	blue	2.0	task_switch	color	switch	s061	0
268.943	1.0	0.9	True	89.0	High-Low	n/a	twobytwo	89.0	1.108	blue	8.0	task_switch	magnitude	switch	s061	0
271.184	1.0	0.1	True	89.0	Magnitude	switch	twobytwo	89.0	0.859	blue	8.0	cue_switch	magnitude	stay	s061	0
273.292	1.0	0.1	True	71.0	Orange-Blue	n/a	twobytwo	71.0	0.752	orange	7.0	task_switch	color	switch	s061	0
275.399	1.0	0.1	True	71.0	Color	switch	twobytwo	71.0	0.972	orange	3.0	cue_switch	color	stay	s061	0
277.506	1.0	0.1	False	89.0	Magnitude	n/a	twobytwo	71.0	0.904	orange	9.0	task_switch	magnitude	switch	s061	0
280.685	1.0	0.9	True	71.0	Orange-Blue	n/a	twobytwo	71.0	1.145	orange	3.0	task_switch	color	switch	s061	0
282.928	1.0	0.1	True	71.0	Orange-Blue	stay	twobytwo	71.0	0.914	orange	9.0	cue_stay	color	stay	s061	0
285.836	1.0	0.9	True	71.0	Magnitude	n/a	twobytwo	71.0	0.866	blue	2.0	task_switch	magnitude	switch	s061	0
288.879	1.0	0.9	True	71.0	Color	n/a	twobytwo	71.0	0.735	orange	9.0	task_switch	color	switch	s061	0
292.602	1.0	0.9	True	89.0	Color	stay	twobytwo	89.0	0.664	blue	7.0	cue_stay	color	stay	s061	0
295.12	1.0	0.1	True	89.0	Magnitude	n/a	twobytwo	89.0	1.255	blue	7.0	task_switch	magnitude	switch	s061	0
297.227	1.0	0.1	True	71.0	High-Low	switch	twobytwo	71.0	1.002	orange	4.0	cue_switch	magnitude	stay	s061	0
300.272	1.0	0.9	True	71.0	High-Low	stay	twobytwo	71.0	0.619	orange	2.0	cue_stay	magnitude	stay	s061	0
303.314	1.0	0.9	True	71.0	Color	n/a	twobytwo	71.0	0.507	orange	2.0	task_switch	color	switch	s061	0
305.556	1.0	0.1	True	71.0	Color	stay	twobytwo	71.0	0.851	orange	8.0	cue_stay	color	stay	s061	0
309.006	1.0	0.9	True	71.0	Magnitude	n/a	twobytwo	71.0	0.734	blue	4.0	task_switch	magnitude	switch	s061	0
311.249	1.0	0.1	True	71.0	High-Low	switch	twobytwo	71.0	0.957	orange	4.0	cue_switch	magnitude	stay	s061	0
313.356	1.0	0.1	True	71.0	Magnitude	switch	twobytwo	71.0	0.953	orange	4.0	cue_switch	magnitude	stay	s061	0
316.266	1.0	0.9	True	71.0	Color	n/a	twobytwo	71.0	0.46	orange	4.0	task_switch	color	switch	s061	0
319.174	1.0	0.9	False	89.0	Magnitude	n/a	twobytwo	71.0	0.771	orange	9.0	task_switch	magnitude	switch	s061	0
321.28	1.0	0.1	True	71.0	Magnitude	stay	twobytwo	71.0	1.387	orange	2.0	cue_stay	magnitude	stay	s061	0
324.324	1.0	0.9	True	71.0	Magnitude	stay	twobytwo	71.0	1.239	blue	3.0	cue_stay	magnitude	stay	s061	0
326.431	1.0	0.1	True	71.0	Orange-Blue	n/a	twobytwo	71.0	0.839	orange	3.0	task_switch	color	switch	s061	0
328.538	1.0	0.1	False	71.0	Magnitude	n/a	twobytwo	89.0	1.197	orange	3.0	task_switch	magnitude	switch	s061	0
331.445	1.0	0.9	True	89.0	Color	n/a	twobytwo	89.0	0.806	blue	1.0	task_switch	color	switch	s061	0
334.488	1.0	0.9	True	71.0	Magnitude	n/a	twobytwo	71.0	1.273	blue	4.0	task_switch	magnitude	switch	s061	0
336.73	1.0	0.1	False	89.0	High-Low	switch	twobytwo	71.0	2.054	orange	6.0	cue_switch	magnitude	stay	s061	0
339.774	1.0	0.9	True	71.0	Color	n/a	twobytwo	71.0	0.946	orange	8.0	task_switch	color	switch	s061	0
342.817	1.0	0.9	True	71.0	Color	stay	twobytwo	71.0	0.493	orange	9.0	cue_stay	color	stay	s061	0
345.608	1.0	0.1	True	89.0	Color	stay	twobytwo	89.0	1.008	blue	9.0	cue_stay	color	stay	s061	0
349.06	1.0	0.9	True	89.0	Color	stay	twobytwo	89.0	0.689	blue	4.0	cue_stay	color	stay	s061	0
352.238	1.0	0.9	True	89.0	Orange-Blue	switch	twobytwo	89.0	0.562	blue	8.0	cue_switch	color	stay	s061	0
354.616	1.0	0.1	True	71.0	Magnitude	n/a	twobytwo	71.0	0.893	blue	4.0	task_switch	magnitude	switch	s061	0
357.133	1.0	0.1	True	89.0	Color	n/a	twobytwo	89.0	1.04	blue	6.0	task_switch	color	switch	s061	0
360.178	1.0	0.9	True	89.0	Color	stay	twobytwo	89.0	0.615	blue	8.0	cue_stay	color	stay	s061	0
363.358	1.0	0.9	True	89.0	Color	stay	twobytwo	89.0	0.632	blue	8.0	cue_stay	color	stay	s061	0
366.264	1.0	0.9	True	71.0	Magnitude	n/a	twobytwo	71.0	0.754	orange	3.0	task_switch	magnitude	switch	s061	0
369.307	1.0	0.9	True	89.0	Color	n/a	twobytwo	89.0	0.682	blue	9.0	task_switch	color	switch	s061	0
372.488	1.0	0.9	True	71.0	Color	stay	twobytwo	71.0	0.582	orange	2.0	cue_stay	color	stay	s061	0
375.396	1.0	0.9	True	89.0	High-Low	n/a	twobytwo	89.0	0.709	orange	7.0	task_switch	magnitude	switch	s061	0
378.182	1.0	0.1	True	71.0	Magnitude	switch	twobytwo	71.0	1.033	blue	4.0	cue_switch	magnitude	stay	s061	0
380.287	1.0	0.1	True	89.0	Orange-Blue	n/a	twobytwo	89.0	1.013	blue	9.0	task_switch	color	switch	s061	0
383.194	1.0	0.9	True	71.0	Orange-Blue	stay	twobytwo	71.0	0.464	orange	1.0	cue_stay	color	stay	s061	0
386.102	1.0	0.9	True	71.0	Color	switch	twobytwo	71.0	0.496	orange	1.0	cue_switch	color	stay	s061	0
389.281	1.0	0.9	True	71.0	Color	stay	twobytwo	71.0	0.548	orange	3.0	cue_stay	color	stay	s061	0
391.388	1.0	0.1	True	89.0	Magnitude	n/a	twobytwo	89.0	1.206	orange	7.0	task_switch	magnitude	switch	s061	0
394.294	1.0	0.9	True	89.0	Orange-Blue	n/a	twobytwo	89.0	0.628	blue	2.0	task_switch	color	switch	s061	0
396.403	1.0	0.1	True	71.0	Color	switch	twobytwo	71.0	0.991	orange	2.0	cue_switch	color	stay	s061	0
399.193	1.0	0.1	True	71.0	High-Low	n/a	twobytwo	71.0	0.891	orange	1.0	task_switch	magnitude	switch	s061	0
401.3	1.0	0.1	True	71.0	Color	n/a	twobytwo	71.0	0.924	orange	6.0	task_switch	color	switch	s061	0
404.343	1.0	0.9	True	71.0	Color	stay	twobytwo	71.0	0.55	orange	2.0	cue_stay	color	stay	s061	0
407.657	1.0	0.9	True	71.0	High-Low	n/a	twobytwo	71.0	0.96	orange	4.0	task_switch	magnitude	switch	s061	0
409.9	1.0	0.1	True	89.0	High-Low	stay	twobytwo	89.0	1.18	orange	6.0	cue_stay	magnitude	stay	s061	0
412.807	1.0	0.9	True	89.0	Magnitude	switch	twobytwo	89.0	0.795	orange	9.0	cue_switch	magnitude	stay	s061	0
415.716	1.0	0.9	True	71.0	Magnitude	stay	twobytwo	71.0	0.659	orange	3.0	cue_stay	magnitude	stay	s061	0
418.367	1.0	0.1	True	71.0	Magnitude	stay	twobytwo	71.0	0.969	blue	4.0	cue_stay	magnitude	stay	s061	0
420.61	1.0	0.1	True	71.0	Color	n/a	twobytwo	71.0	0.655	orange	3.0	task_switch	color	switch	s061	0
424.061	1.0	0.9	False	71.0	Magnitude	n/a	twobytwo	89.0	1.044	blue	3.0	task_switch	magnitude	switch	s061	0
426.848	1.0	0.1	True	89.0	Magnitude	stay	twobytwo	89.0	1.142	blue	7.0	cue_stay	magnitude	stay	s061	0
428.958	1.0	0.1	True	71.0	High-Low	switch	twobytwo	71.0	1.667	blue	4.0	cue_switch	magnitude	stay	s061	0
431.336	1.0	0.1	True	89.0	High-Low	stay	twobytwo	89.0	1.28	orange	6.0	cue_stay	magnitude	stay	s061	0
435.332	1.0	0.9	True	89.0	Orange-Blue	n/a	twobytwo	89.0	0.642	blue	2.0	task_switch	color	switch	s061	0
437.44	1.0	0.1	True	89.0	Color	switch	twobytwo	89.0	0.731	blue	8.0	cue_switch	color	stay	s061	0
440.487	1.0	0.9	True	89.0	Orange-Blue	switch	twobytwo	89.0	0.681	blue	1.0	cue_switch	color	stay	s061	0
442.728	1.0	0.1	True	89.0	High-Low	n/a	twobytwo	89.0	1.451	blue	8.0	task_switch	magnitude	switch	s061	0
444.835	1.0	0.1	True	71.0	Orange-Blue	n/a	twobytwo	71.0	0.987	orange	6.0	task_switch	color	switch	s061	0
448.016	1.0	0.9	True	71.0	Magnitude	n/a	twobytwo	71.0	0.748	orange	1.0	task_switch	magnitude	switch	s061	0
463.64	1.0	0.1	True	89.0	Magnitude	stay	twobytwo	89.0	1.265	blue	8.0	cue_stay	magnitude	stay	s061	1
465.884	1.0	0.1	True	71.0	Color	n/a	twobytwo	71.0	0.851	orange	7.0	task_switch	color	switch	s061	0
468.925	1.0	0.9	False	71.0	Magnitude	n/a	twobytwo	89.0	0.987	orange	3.0	task_switch	magnitude	switch	s061	0
471.577	1.0	0.1	True	71.0	Color	n/a	twobytwo	71.0	1.005	orange	2.0	task_switch	color	switch	s061	0
474.486	1.0	0.9	True	89.0	High-Low	n/a	twobytwo	89.0	0.611	blue	8.0	task_switch	magnitude	switch	s061	0
476.728	1.0	0.1	True	71.0	High-Low	stay	twobytwo	71.0	1.316	blue	2.0	cue_stay	magnitude	stay	s061	0
478.97	1.0	0.1	True	89.0	Magnitude	switch	twobytwo	89.0	1.06	orange	9.0	cue_switch	magnitude	stay	s061	0
482.013	1.0	0.9	True	71.0	High-Low	switch	twobytwo	71.0	0.611	orange	3.0	cue_switch	magnitude	stay	s061	0
484.121	1.0	0.1	True	71.0	Color	n/a	twobytwo	71.0	0.89	orange	8.0	task_switch	color	switch	s061	0
487.166	1.0	0.9	True	89.0	High-Low	n/a	twobytwo	89.0	0.617	orange	7.0	task_switch	magnitude	switch	s061	0
490.077	1.0	0.9	True	89.0	Orange-Blue	n/a	twobytwo	89.0	0.468	blue	2.0	task_switch	color	switch	s061	0
492.319	1.0	0.1	True	71.0	Color	switch	twobytwo	71.0	0.773	orange	1.0	cue_switch	color	stay	s061	0
496.044	1.0	0.9	True	71.0	Magnitude	n/a	twobytwo	71.0	0.604	blue	2.0	task_switch	magnitude	switch	s061	0
499.088	1.0	0.9	True	89.0	Orange-Blue	n/a	twobytwo	89.0	0.522	blue	8.0	task_switch	color	switch	s061	0
501.195	1.0	0.1	True	89.0	Color	switch	twobytwo	89.0	0.883	blue	8.0	cue_switch	color	stay	s061	0
503.3	1.0	0.1	False	89.0	Magnitude	n/a	twobytwo	71.0	1.032	orange	7.0	task_switch	magnitude	switch	s061	0
505.68	1.0	0.1	True	71.0	High-Low	switch	twobytwo	71.0	1.167	orange	3.0	cue_switch	magnitude	stay	s061	0
507.788	1.0	0.1	True	71.0	Color	n/a	twobytwo	71.0	1.055	orange	9.0	task_switch	color	switch	s061	0
510.694	1.0	0.9	True	71.0	Magnitude	n/a	twobytwo	71.0	0.999	orange	3.0	task_switch	magnitude	switch	s061	0
512.799	1.0	0.1	True	89.0	Magnitude	stay	twobytwo	89.0	1.132	orange	9.0	cue_stay	magnitude	stay	s061	0
516.113	1.0	0.9	True	89.0	Color	n/a	twobytwo	89.0	0.524	blue	2.0	task_switch	color	switch	s061	0
519.294	1.0	0.9	True	89.0	High-Low	n/a	twobytwo	89.0	0.618	orange	9.0	task_switch	magnitude	switch	s061	0
522.336	1.0	0.9	True	89.0	High-Low	stay	twobytwo	89.0	0.78	blue	7.0	cue_stay	magnitude	stay	s061	0
524.443	1.0	0.1	True	89.0	Orange-Blue	n/a	twobytwo	89.0	1.149	blue	7.0	task_switch	color	switch	s061	0
526.55	1.0	0.1	True	71.0	Color	switch	twobytwo	71.0	0.701	orange	4.0	cue_switch	color	stay	s061	0
529.591	1.0	0.9	True	71.0	Color	stay	twobytwo	71.0	0.616	orange	2.0	cue_stay	color	stay	s061	0
532.5	1.0	0.9	True	71.0	Magnitude	n/a	twobytwo	71.0	0.87	orange	2.0	task_switch	magnitude	switch	s061	0
534.743	1.0	0.1	True	89.0	Magnitude	stay	twobytwo	89.0	1.037	orange	8.0	cue_stay	magnitude	stay	s061	0
538.059	1.0	0.9	True	89.0	Orange-Blue	n/a	twobytwo	89.0	0.612	blue	4.0	task_switch	color	switch	s061	0
540.301	1.0	0.1	True	71.0	Color	switch	twobytwo	71.0	0.736	orange	4.0	cue_switch	color	stay	s061	0
542.407	1.0	0.1	True	71.0	Orange-Blue	switch	twobytwo	71.0	1.016	orange	4.0	cue_switch	color	stay	s061	0
545.451	1.0	0.9	True	71.0	High-Low	n/a	twobytwo	71.0	0.714	orange	4.0	task_switch	magnitude	switch	s061	0
548.63	1.0	0.9	True	71.0	Color	n/a	twobytwo	71.0	0.635	orange	9.0	task_switch	color	switch	s061	0
550.738	1.0	0.1	True	71.0	Color	stay	twobytwo	71.0	0.769	orange	2.0	cue_stay	color	stay	s061	0
554.052	1.0	0.9	True	89.0	Color	stay	twobytwo	89.0	0.485	blue	3.0	cue_stay	color	stay	s061	0
556.158	1.0	0.1	True	71.0	Magnitude	n/a	twobytwo	71.0	1.249	orange	3.0	task_switch	magnitude	switch	s061	0
558.401	1.0	0.1	True	71.0	Orange-Blue	n/a	twobytwo	71.0	1.348	orange	3.0	task_switch	color	switch	s061	0
561.717	1.0	0.9	True	71.0	High-Low	n/a	twobytwo	71.0	0.704	blue	1.0	task_switch	magnitude	switch	s061	0
564.76	1.0	0.9	True	89.0	Orange-Blue	n/a	twobytwo	89.0	0.605	blue	4.0	task_switch	color	switch	s061	0
567.275	1.0	0.1	True	71.0	Color	switch	twobytwo	71.0	0.815	orange	6.0	cue_switch	color	stay	s061	0
570.32	1.0	0.9	True	89.0	Magnitude	n/a	twobytwo	89.0	0.688	orange	8.0	task_switch	magnitude	switch	s061	0
573.227	1.0	0.9	True	89.0	Magnitude	stay	twobytwo	89.0	0.725	orange	9.0	cue_stay	magnitude	stay	s061	0
575.606	1.0	0.1	True	89.0	Magnitude	stay	twobytwo	89.0	0.883	blue	9.0	cue_stay	magnitude	stay	s061	0
578.515	1.0	0.9	True	71.0	Magnitude	stay	twobytwo	71.0	0.496	blue	4.0	cue_stay	magnitude	stay	s061	0
581.694	1.0	0.9	True	89.0	High-Low	switch	twobytwo	89.0	0.668	blue	8.0	cue_switch	magnitude	stay	s061	0
584.074	1.0	0.1	True	89.0	Orange-Blue	n/a	twobytwo	89.0	1.151	blue	4.0	task_switch	color	switch	s061	0
587.133	1.0	0.1	True	89.0	High-Low	n/a	twobytwo	89.0	1.187	blue	6.0	task_switch	magnitude	switch	s061	0
590.72	1.0	0.9	True	89.0	High-Low	stay	twobytwo	89.0	0.653	blue	8.0	cue_stay	magnitude	stay	s061	0
593.762	1.0	0.9	True	89.0	High-Low	stay	twobytwo	89.0	0.669	blue	8.0	cue_stay	magnitude	stay	s061	0
596.941	1.0	0.9	True	71.0	Orange-Blue	n/a	twobytwo	71.0	0.536	orange	3.0	task_switch	color	switch	s061	0
600.12	1.0	0.9	True	89.0	Magnitude	n/a	twobytwo	89.0	0.614	blue	9.0	task_switch	magnitude	switch	s061	0
603.162	1.0	0.9	True	71.0	Magnitude	stay	twobytwo	71.0	0.676	orange	2.0	cue_stay	magnitude	stay	s061	0
606.476	1.0	0.9	True	71.0	Color	n/a	twobytwo	71.0	0.509	orange	7.0	task_switch	color	switch	s061	0
608.718	1.0	0.1	True	89.0	Orange-Blue	switch	twobytwo	89.0	0.961	blue	4.0	cue_switch	color	stay	s061	0
610.961	1.0	0.1	True	89.0	Magnitude	n/a	twobytwo	89.0	1.021	blue	9.0	task_switch	magnitude	switch	s061	0
613.868	1.0	0.9	True	71.0	Magnitude	stay	twobytwo	71.0	0.527	orange	1.0	cue_stay	magnitude	stay	s061	0
616.774	1.0	0.9	True	71.0	High-Low	switch	twobytwo	71.0	0.492	orange	1.0	cue_switch	magnitude	stay	s061	0
619.681	1.0	0.9	True	71.0	High-Low	stay	twobytwo	71.0	0.542	orange	3.0	cue_stay	magnitude	stay	s061	0
621.787	1.0	0.1	True	71.0	Color	n/a	twobytwo	71.0	0.835	orange	7.0	task_switch	color	switch	s061	0
624.693	1.0	0.9	True	71.0	High-Low	n/a	twobytwo	71.0	0.881	blue	2.0	task_switch	magnitude	switch	s061	0
627.071	1.0	0.1	True	71.0	Magnitude	switch	twobytwo	71.0	0.822	orange	2.0	cue_switch	magnitude	stay	s061	0
629.588	1.0	0.1	True	71.0	Color	n/a	twobytwo	71.0	0.869	orange	1.0	task_switch	color	switch	s061	0
631.695	1.0	0.1	True	89.0	High-Low	n/a	twobytwo	89.0	1.133	orange	6.0	task_switch	magnitude	switch	s061	0
634.738	1.0	0.9	True	71.0	High-Low	stay	twobytwo	71.0	0.599	orange	2.0	cue_stay	magnitude	stay	s061	0
637.646	1.0	0.9	True	71.0	Orange-Blue	n/a	twobytwo	71.0	0.536	orange	4.0	task_switch	color	switch	s061	0
639.888	1.0	0.1	True	71.0	Orange-Blue	stay	twobytwo	71.0	0.869	orange	6.0	cue_stay	color	stay	s061	0
643.339	1.0	0.9	True	71.0	Color	switch	twobytwo	71.0	0.582	orange	9.0	cue_switch	color	stay	s061	0
646.928	1.0	0.9	True	71.0	Color	stay	twobytwo	71.0	0.529	orange	3.0	cue_stay	color	stay	s061	0
650.124	1.0	0.1	True	89.0	Color	stay	twobytwo	89.0	0.839	blue	4.0	cue_stay	color	stay	s061	0
652.365	1.0	0.1	True	71.0	Magnitude	n/a	twobytwo	71.0	0.989	orange	3.0	task_switch	magnitude	switch	s061	0
655.814	1.0	0.9	True	89.0	Orange-Blue	n/a	twobytwo	89.0	0.525	blue	3.0	task_switch	color	switch	s061	0
657.927	1.0	0.1	True	89.0	Orange-Blue	stay	twobytwo	89.0	1.079	blue	7.0	cue_stay	color	stay	s061	0
660.17	1.0	0.1	True	89.0	Color	switch	twobytwo	89.0	0.85	blue	4.0	cue_switch	color	stay	s061	0
662.278	1.0	0.1	True	71.0	Color	stay	twobytwo	71.0	1.097	orange	6.0	cue_stay	color	stay	s061	0
665.593	1.0	0.9	True	71.0	High-Low	n/a	twobytwo	71.0	1.147	blue	2.0	task_switch	magnitude	switch	s061	0
667.701	1.0	0.1	True	89.0	Magnitude	switch	twobytwo	89.0	0.931	blue	8.0	cue_switch	magnitude	stay	s061	0
670.61	1.0	0.9	True	71.0	High-Low	switch	twobytwo	71.0	0.993	blue	1.0	cue_switch	magnitude	stay	s061	0
672.717	1.0	0.1	True	89.0	Orange-Blue	n/a	twobytwo	89.0	1.041	blue	8.0	task_switch	color	switch	s061	0
675.504	1.0	0.1	True	89.0	Magnitude	n/a	twobytwo	89.0	1.042	orange	6.0	task_switch	magnitude	switch	s061	0
678.683	1.0	0.9	True	71.0	Orange-Blue	n/a	twobytwo	71.0	0.511	orange	1.0	task_switch	color	switch	s061	0
