onset	duration	planning	condition	current_position	exp_stage	experiment_exp_id	goal_state	key_press	problem_id	response_time	start_state	trial_id	worker_id
-61.635	0.0	0	n/a	n/a	n/a	ward_and_allport	n/a	32.0	n/a	28.386	n/a	instructions	s590
3.012	5.065	1	UA_with_intermediate	1,0,0,2,0,0,0,0,0	practice	ward_and_allport	1,2,3,0,0,0,0,0,0	71.0	0.0	5.065	1,0,0,2,3,0,0,0,0	to_hand	s590
8.079	1.9	0	UA_with_intermediate	1,0,0,2,0,0,3,0,0	practice	ward_and_allport	1,2,3,0,0,0,0,0,0	82.0	0.0	1.9	1,0,0,2,3,0,0,0,0	to_board	s590
9.981	1.685	0	UA_with_intermediate	1,0,0,0,0,0,3,0,0	practice	ward_and_allport	1,2,3,0,0,0,0,0,0	71.0	0.0	1.685	1,0,0,2,3,0,0,0,0	to_hand	s590
11.668	0.837	0	UA_with_intermediate	1,2,0,0,0,0,3,0,0	practice	ward_and_allport	1,2,3,0,0,0,0,0,0	89.0	0.0	0.837	1,0,0,2,3,0,0,0,0	to_board	s590
12.506	0.675	0	UA_with_intermediate	1,2,0,0,0,0,0,0,0	practice	ward_and_allport	1,2,3,0,0,0,0,0,0	82.0	0.0	0.675	1,0,0,2,3,0,0,0,0	to_hand	s590
13.182	0.493	0	UA_with_intermediate	1,2,3,0,0,0,0,0,0	practice	ward_and_allport	1,2,3,0,0,0,0,0,0	89.0	0.0	0.493	1,0,0,2,3,0,0,0,0	to_board	s590
13.68	1.0	0	UA_with_intermediate	n/a	practice	ward_and_allport	n/a	-1.0	0.0	n/a	n/a	feedback	s590
16.183	3.79	1	UA_with_intermediate	1,0,0,3,0,0,0,0,0	practice	ward_and_allport	1,3,2,0,0,0,0,0,0	89.0	1.0	3.79	1,2,0,3,0,0,0,0,0	to_hand	s590
19.975	1.047	0	UA_with_intermediate	1,0,0,3,0,0,2,0,0	practice	ward_and_allport	1,3,2,0,0,0,0,0,0	82.0	1.0	1.047	1,2,0,3,0,0,0,0,0	to_board	s590
21.024	0.668	0	UA_with_intermediate	1,0,0,0,0,0,2,0,0	practice	ward_and_allport	1,3,2,0,0,0,0,0,0	71.0	1.0	0.668	1,2,0,3,0,0,0,0,0	to_hand	s590
21.694	0.477	0	UA_with_intermediate	1,3,0,0,0,0,2,0,0	practice	ward_and_allport	1,3,2,0,0,0,0,0,0	89.0	1.0	0.477	1,2,0,3,0,0,0,0,0	to_board	s590
22.173	0.778	0	UA_with_intermediate	1,3,0,0,0,0,0,0,0	practice	ward_and_allport	1,3,2,0,0,0,0,0,0	82.0	1.0	0.778	1,2,0,3,0,0,0,0,0	to_hand	s590
22.952	0.436	0	UA_with_intermediate	1,3,2,0,0,0,0,0,0	practice	ward_and_allport	1,3,2,0,0,0,0,0,0	89.0	1.0	0.436	1,2,0,3,0,0,0,0,0	to_board	s590
23.391	1.0	0	UA_with_intermediate	n/a	practice	ward_and_allport	n/a	-1.0	1.0	n/a	n/a	feedback	s590
24.391	1.1	0	UA_with_intermediate	n/a	practice	ward_and_allport	n/a	-1.0	1.0	n/a	n/a	ITI	s590
25.494	2.386	1	UA_without_intermediate	0,0,0,1,2,0,0,0,0	practice	ward_and_allport	3,2,1,0,0,0,0,0,0	82.0	2.0	2.386	0,0,0,1,2,0,3,0,0	to_hand	s590
27.881	0.617	0	UA_without_intermediate	3,0,0,1,2,0,0,0,0	practice	ward_and_allport	3,2,1,0,0,0,0,0,0	89.0	2.0	0.617	0,0,0,1,2,0,3,0,0	to_board	s590
28.501	1.992	0	UA_without_intermediate	3,0,0,1,0,0,0,0,0	practice	ward_and_allport	3,2,1,0,0,0,0,0,0	71.0	2.0	1.992	0,0,0,1,2,0,3,0,0	to_hand	s590
30.495	0.387	0	UA_without_intermediate	3,2,0,1,0,0,0,0,0	practice	ward_and_allport	3,2,1,0,0,0,0,0,0	89.0	2.0	0.387	0,0,0,1,2,0,3,0,0	to_board	s590
30.885	0.749	0	UA_without_intermediate	3,2,0,0,0,0,0,0,0	practice	ward_and_allport	3,2,1,0,0,0,0,0,0	71.0	2.0	0.749	0,0,0,1,2,0,3,0,0	to_hand	s590
31.636	0.353	0	UA_without_intermediate	3,2,1,0,0,0,0,0,0	practice	ward_and_allport	3,2,1,0,0,0,0,0,0	89.0	2.0	0.353	0,0,0,1,2,0,3,0,0	to_board	s590
31.996	1.0	0	UA_without_intermediate	n/a	practice	ward_and_allport	n/a	-1.0	2.0	n/a	n/a	feedback	s590
32.996	1.2	0	UA_without_intermediate	n/a	practice	ward_and_allport	n/a	-1.0	2.0	n/a	n/a	ITI	s590
34.197	2.344	1	UA_without_intermediate	0,0,0,1,0,0,3,0,0	practice	ward_and_allport	2,3,1,0,0,0,0,0,0	71.0	3.0	2.344	0,0,0,1,2,0,3,0,0	to_hand	s590
36.543	0.632	0	UA_without_intermediate	2,0,0,1,0,0,3,0,0	practice	ward_and_allport	2,3,1,0,0,0,0,0,0	89.0	3.0	0.632	0,0,0,1,2,0,3,0,0	to_board	s590
37.177	0.586	0	UA_without_intermediate	2,0,0,1,0,0,0,0,0	practice	ward_and_allport	2,3,1,0,0,0,0,0,0	82.0	3.0	0.586	0,0,0,1,2,0,3,0,0	to_hand	s590
37.764	0.658	0	UA_without_intermediate	2,3,0,1,0,0,0,0,0	practice	ward_and_allport	2,3,1,0,0,0,0,0,0	89.0	3.0	0.658	0,0,0,1,2,0,3,0,0	to_board	s590
38.425	0.799	0	UA_without_intermediate	2,3,0,0,0,0,0,0,0	practice	ward_and_allport	2,3,1,0,0,0,0,0,0	71.0	3.0	0.799	0,0,0,1,2,0,3,0,0	to_hand	s590
39.224	0.487	0	UA_without_intermediate	2,3,1,0,0,0,0,0,0	practice	ward_and_allport	2,3,1,0,0,0,0,0,0	89.0	3.0	0.487	0,0,0,1,2,0,3,0,0	to_board	s590
39.715	1.0	0	UA_without_intermediate	n/a	practice	ward_and_allport	n/a	-1.0	3.0	n/a	n/a	feedback	s590
40.715	1.0	0	UA_without_intermediate	n/a	practice	ward_and_allport	n/a	-1.0	3.0	n/a	n/a	ITI	s590
43.722	4.23	1	PA_with_intermediate	1,2,0,0,0,0,0,0,0	test	ward_and_allport	1,0,0,0,0,0,2,3,0	89.0	0.0	4.23	1,2,3,0,0,0,0,0,0	to_hand	s590
47.953	1.643	0	PA_with_intermediate	1,2,0,3,0,0,0,0,0	test	ward_and_allport	1,0,0,0,0,0,2,3,0	71.0	0.0	1.643	1,2,3,0,0,0,0,0,0	to_board	s590
49.598	1.294	0	PA_with_intermediate	1,0,0,3,0,0,0,0,0	test	ward_and_allport	1,0,0,0,0,0,2,3,0	89.0	0.0	1.294	1,2,3,0,0,0,0,0,0	to_hand	s590
50.893	0.393	0	PA_with_intermediate	1,0,0,3,0,0,2,0,0	test	ward_and_allport	1,0,0,0,0,0,2,3,0	82.0	0.0	0.393	1,2,3,0,0,0,0,0,0	to_board	s590
51.288	0.735	0	PA_with_intermediate	1,0,0,0,0,0,2,0,0	test	ward_and_allport	1,0,0,0,0,0,2,3,0	71.0	0.0	0.735	1,2,3,0,0,0,0,0,0	to_hand	s590
52.025	0.459	0	PA_with_intermediate	1,0,0,0,0,0,2,3,0	test	ward_and_allport	1,0,0,0,0,0,2,3,0	82.0	0.0	0.459	1,2,3,0,0,0,0,0,0	to_board	s590
52.488	1.0	0	PA_with_intermediate	n/a	test	ward_and_allport	n/a	-1.0	0.0	n/a	n/a	feedback	s590
53.488	2.768	0	PA_with_intermediate	n/a	test	ward_and_allport	n/a	-1.0	0.0	n/a	n/a	ITI	s590
56.258	4.067	1	PA_with_intermediate	1,2,0,0,0,0,0,0,0	test	ward_and_allport	1,3,0,0,0,0,2,0,0	89.0	1.0	4.067	1,2,3,0,0,0,0,0,0	to_hand	s590
60.327	1.345	0	PA_with_intermediate	1,2,0,3,0,0,0,0,0	test	ward_and_allport	1,3,0,0,0,0,2,0,0	71.0	1.0	1.345	1,2,3,0,0,0,0,0,0	to_board	s590
61.675	0.851	0	PA_with_intermediate	1,0,0,3,0,0,0,0,0	test	ward_and_allport	1,3,0,0,0,0,2,0,0	89.0	1.0	0.851	1,2,3,0,0,0,0,0,0	to_hand	s590
62.527	0.436	0	PA_with_intermediate	1,0,0,3,0,0,2,0,0	test	ward_and_allport	1,3,0,0,0,0,2,0,0	82.0	1.0	0.436	1,2,3,0,0,0,0,0,0	to_board	s590
62.965	1.472	0	PA_with_intermediate	1,0,0,0,0,0,2,0,0	test	ward_and_allport	1,3,0,0,0,0,2,0,0	71.0	1.0	1.472	1,2,3,0,0,0,0,0,0	to_hand	s590
64.438	0.37	0	PA_with_intermediate	1,3,0,0,0,0,2,0,0	test	ward_and_allport	1,3,0,0,0,0,2,0,0	89.0	1.0	0.37	1,2,3,0,0,0,0,0,0	to_board	s590
64.813	1.0	0	PA_with_intermediate	n/a	test	ward_and_allport	n/a	-1.0	1.0	n/a	n/a	feedback	s590
65.813	1.68	0	PA_with_intermediate	n/a	test	ward_and_allport	n/a	-1.0	1.0	n/a	n/a	ITI	s590
67.496	4.347	1	PA_without_intermediate	0,0,0,1,2,0,0,0,0	test	ward_and_allport	3,2,0,0,0,0,1,0,0	71.0	2.0	4.347	0,0,0,1,2,3,0,0,0	to_hand	s590
71.845	0.403	0	PA_without_intermediate	3,0,0,1,2,0,0,0,0	test	ward_and_allport	3,2,0,0,0,0,1,0,0	89.0	2.0	0.403	0,0,0,1,2,3,0,0,0	to_board	s590
72.25	1.481	0	PA_without_intermediate	3,0,0,1,0,0,0,0,0	test	ward_and_allport	3,2,0,0,0,0,1,0,0	71.0	2.0	1.481	0,0,0,1,2,3,0,0,0	to_hand	s590
73.733	0.395	0	PA_without_intermediate	3,2,0,1,0,0,0,0,0	test	ward_and_allport	3,2,0,0,0,0,1,0,0	89.0	2.0	0.395	0,0,0,1,2,3,0,0,0	to_board	s590
74.131	1.722	0	PA_without_intermediate	3,2,0,0,0,0,0,0,0	test	ward_and_allport	3,2,0,0,0,0,1,0,0	71.0	2.0	1.722	0,0,0,1,2,3,0,0,0	to_hand	s590
75.854	0.384	0	PA_without_intermediate	3,2,0,0,0,0,1,0,0	test	ward_and_allport	3,2,0,0,0,0,1,0,0	82.0	2.0	0.384	0,0,0,1,2,3,0,0,0	to_board	s590
76.244	1.0	0	PA_without_intermediate	n/a	test	ward_and_allport	n/a	-1.0	2.0	n/a	n/a	feedback	s590
77.244	2.224	0	PA_without_intermediate	n/a	test	ward_and_allport	n/a	-1.0	2.0	n/a	n/a	ITI	s590
79.471	3.223	1	PA_without_intermediate	0,0,0,1,2,0,0,0,0	test	ward_and_allport	3,2,0,0,0,0,1,0,0	71.0	3.0	3.223	0,0,0,1,2,3,0,0,0	to_hand	s590
82.695	0.598	0	PA_without_intermediate	3,0,0,1,2,0,0,0,0	test	ward_and_allport	3,2,0,0,0,0,1,0,0	89.0	3.0	0.598	0,0,0,1,2,3,0,0,0	to_board	s590
83.296	1.435	0	PA_without_intermediate	3,0,0,1,0,0,0,0,0	test	ward_and_allport	3,2,0,0,0,0,1,0,0	71.0	3.0	1.435	0,0,0,1,2,3,0,0,0	to_hand	s590
84.733	0.351	0	PA_without_intermediate	3,2,0,1,0,0,0,0,0	test	ward_and_allport	3,2,0,0,0,0,1,0,0	89.0	3.0	0.351	0,0,0,1,2,3,0,0,0	to_board	s590
85.087	1.084	0	PA_without_intermediate	3,2,0,0,0,0,0,0,0	test	ward_and_allport	3,2,0,0,0,0,1,0,0	71.0	3.0	1.084	0,0,0,1,2,3,0,0,0	to_hand	s590
86.173	0.377	0	PA_without_intermediate	3,2,0,0,0,0,1,0,0	test	ward_and_allport	3,2,0,0,0,0,1,0,0	82.0	3.0	0.377	0,0,0,1,2,3,0,0,0	to_board	s590
86.556	1.0	0	PA_without_intermediate	n/a	test	ward_and_allport	n/a	-1.0	3.0	n/a	n/a	feedback	s590
87.556	2.36	0	PA_without_intermediate	n/a	test	ward_and_allport	n/a	-1.0	3.0	n/a	n/a	ITI	s590
89.919	4.349	1	PA_without_intermediate	0,0,0,0,0,0,1,2,0	test	ward_and_allport	3,1,0,2,0,0,0,0,0	82.0	4.0	4.349	0,0,0,0,0,0,1,2,3	to_hand	s590
94.269	0.897	0	PA_without_intermediate	3,0,0,0,0,0,1,2,0	test	ward_and_allport	3,1,0,2,0,0,0,0,0	89.0	4.0	0.897	0,0,0,0,0,0,1,2,3	to_board	s590
95.169	1.038	0	PA_without_intermediate	3,0,0,0,0,0,1,0,0	test	ward_and_allport	3,1,0,2,0,0,0,0,0	82.0	4.0	1.038	0,0,0,0,0,0,1,2,3	to_hand	s590
96.208	0.535	0	PA_without_intermediate	3,0,0,2,0,0,1,0,0	test	ward_and_allport	3,1,0,2,0,0,0,0,0	71.0	4.0	0.535	0,0,0,0,0,0,1,2,3	to_board	s590
96.746	1.196	0	PA_without_intermediate	3,0,0,2,0,0,0,0,0	test	ward_and_allport	3,1,0,2,0,0,0,0,0	82.0	4.0	1.196	0,0,0,0,0,0,1,2,3	to_hand	s590
97.943	0.396	0	PA_without_intermediate	3,1,0,2,0,0,0,0,0	test	ward_and_allport	3,1,0,2,0,0,0,0,0	89.0	4.0	0.396	0,0,0,0,0,0,1,2,3	to_board	s590
98.347	1.0	0	PA_without_intermediate	n/a	test	ward_and_allport	n/a	-1.0	4.0	n/a	n/a	feedback	s590
99.347	1.0	0	PA_without_intermediate	n/a	test	ward_and_allport	n/a	-1.0	4.0	n/a	n/a	ITI	s590
100.351	7.342	1	PA_without_intermediate	0,0,0,0,0,0,1,2,0	test	ward_and_allport	3,2,0,1,0,0,0,0,0	82.0	5.0	7.342	0,0,0,0,0,0,1,2,3	to_hand	s590
107.694	0.761	0	PA_without_intermediate	0,0,0,3,0,0,1,2,0	test	ward_and_allport	3,2,0,1,0,0,0,0,0	71.0	5.0	0.761	0,0,0,0,0,0,1,2,3	to_board	s590
108.459	1.007	0	PA_without_intermediate	0,0,0,3,0,0,1,0,0	test	ward_and_allport	3,2,0,1,0,0,0,0,0	82.0	5.0	1.007	0,0,0,0,0,0,1,2,3	to_hand	s590
109.467	0.506	0	PA_without_intermediate	2,0,0,3,0,0,1,0,0	test	ward_and_allport	3,2,0,1,0,0,0,0,0	89.0	5.0	0.506	0,0,0,0,0,0,1,2,3	to_board	s590
109.976	1.619	0	PA_without_intermediate	0,0,0,3,0,0,1,0,0	test	ward_and_allport	3,2,0,1,0,0,0,0,0	89.0	5.0	1.619	0,0,0,0,0,0,1,2,3	to_hand	s590
111.597	1.133	0	PA_without_intermediate	0,0,0,3,0,0,1,2,0	test	ward_and_allport	3,2,0,1,0,0,0,0,0	82.0	5.0	1.133	0,0,0,0,0,0,1,2,3	to_board	s590
112.733	0.67	0	PA_without_intermediate	0,0,0,0,0,0,1,2,0	test	ward_and_allport	3,2,0,1,0,0,0,0,0	71.0	5.0	0.67	0,0,0,0,0,0,1,2,3	to_hand	s590
113.405	0.403	0	PA_without_intermediate	3,0,0,0,0,0,1,2,0	test	ward_and_allport	3,2,0,1,0,0,0,0,0	89.0	5.0	0.403	0,0,0,0,0,0,1,2,3	to_board	s590
113.811	1.278	0	PA_without_intermediate	3,0,0,0,0,0,1,0,0	test	ward_and_allport	3,2,0,1,0,0,0,0,0	82.0	5.0	1.278	0,0,0,0,0,0,1,2,3	to_hand	s590
115.091	0.385	0	PA_without_intermediate	3,2,0,0,0,0,1,0,0	test	ward_and_allport	3,2,0,1,0,0,0,0,0	89.0	5.0	0.385	0,0,0,0,0,0,1,2,3	to_board	s590
115.48	1.056	0	PA_without_intermediate	3,2,0,0,0,0,0,0,0	test	ward_and_allport	3,2,0,1,0,0,0,0,0	82.0	5.0	1.056	0,0,0,0,0,0,1,2,3	to_hand	s590
116.538	0.34	0	PA_without_intermediate	3,2,0,1,0,0,0,0,0	test	ward_and_allport	3,2,0,1,0,0,0,0,0	71.0	5.0	0.34	0,0,0,0,0,0,1,2,3	to_board	s590
116.884	1.0	0	PA_without_intermediate	n/a	test	ward_and_allport	n/a	-1.0	5.0	n/a	n/a	feedback	s590
117.884	1.408	0	PA_without_intermediate	n/a	test	ward_and_allport	n/a	-1.0	5.0	n/a	n/a	ITI	s590
119.296	4.448	1	PA_with_intermediate	0,0,0,1,2,0,0,0,0	test	ward_and_allport	0,0,0,1,0,0,2,3,0	71.0	6.0	4.448	0,0,0,1,2,3,0,0,0	to_hand	s590
123.744	0.614	0	PA_with_intermediate	3,0,0,1,2,0,0,0,0	test	ward_and_allport	0,0,0,1,0,0,2,3,0	89.0	6.0	0.614	0,0,0,1,2,3,0,0,0	to_board	s590
124.362	0.833	0	PA_with_intermediate	3,0,0,1,0,0,0,0,0	test	ward_and_allport	0,0,0,1,0,0,2,3,0	71.0	6.0	0.833	0,0,0,1,2,3,0,0,0	to_hand	s590
125.196	0.359	0	PA_with_intermediate	3,0,0,1,0,0,2,0,0	test	ward_and_allport	0,0,0,1,0,0,2,3,0	82.0	6.0	0.359	0,0,0,1,2,3,0,0,0	to_board	s590
125.559	0.449	0	PA_with_intermediate	0,0,0,1,0,0,2,0,0	test	ward_and_allport	0,0,0,1,0,0,2,3,0	89.0	6.0	0.449	0,0,0,1,2,3,0,0,0	to_hand	s590
126.009	0.277	0	PA_with_intermediate	0,0,0,1,0,0,2,3,0	test	ward_and_allport	0,0,0,1,0,0,2,3,0	82.0	6.0	0.277	0,0,0,1,2,3,0,0,0	to_board	s590
126.292	1.0	0	PA_with_intermediate	n/a	test	ward_and_allport	n/a	-1.0	6.0	n/a	n/a	feedback	s590
127.292	1.136	0	PA_with_intermediate	n/a	test	ward_and_allport	n/a	-1.0	6.0	n/a	n/a	ITI	s590
128.432	4.936	1	PA_without_intermediate	1,2,0,0,0,0,0,0,0	test	ward_and_allport	0,0,0,3,1,0,2,0,0	89.0	7.0	4.936	1,2,3,0,0,0,0,0,0	to_hand	s590
133.369	0.663	0	PA_without_intermediate	1,2,0,3,0,0,0,0,0	test	ward_and_allport	0,0,0,3,1,0,2,0,0	71.0	7.0	0.663	1,2,3,0,0,0,0,0,0	to_board	s590
134.036	0.868	0	PA_without_intermediate	1,0,0,3,0,0,0,0,0	test	ward_and_allport	0,0,0,3,1,0,2,0,0	89.0	7.0	0.868	1,2,3,0,0,0,0,0,0	to_hand	s590
134.905	0.454	0	PA_without_intermediate	1,0,0,3,0,0,2,0,0	test	ward_and_allport	0,0,0,3,1,0,2,0,0	82.0	7.0	0.454	1,2,3,0,0,0,0,0,0	to_board	s590
135.363	0.813	0	PA_without_intermediate	0,0,0,3,0,0,2,0,0	test	ward_and_allport	0,0,0,3,1,0,2,0,0	89.0	7.0	0.813	1,2,3,0,0,0,0,0,0	to_hand	s590
136.177	0.643	0	PA_without_intermediate	0,0,0,3,1,0,2,0,0	test	ward_and_allport	0,0,0,3,1,0,2,0,0	71.0	7.0	0.643	1,2,3,0,0,0,0,0,0	to_board	s590
136.826	1.0	0	PA_without_intermediate	n/a	test	ward_and_allport	n/a	-1.0	7.0	n/a	n/a	feedback	s590
137.826	4.128	0	PA_without_intermediate	n/a	test	ward_and_allport	n/a	-1.0	7.0	n/a	n/a	ITI	s590
141.958	3.441	1	PA_without_intermediate	1,2,0,0,0,0,0,0,0	test	ward_and_allport	0,0,0,1,0,0,3,2,0	89.0	8.0	3.441	1,2,3,0,0,0,0,0,0	to_hand	s590
145.401	0.62	0	PA_without_intermediate	1,2,0,0,0,0,3,0,0	test	ward_and_allport	0,0,0,1,0,0,3,2,0	82.0	8.0	0.62	1,2,3,0,0,0,0,0,0	to_board	s590
146.026	1.309	0	PA_without_intermediate	1,0,0,0,0,0,3,0,0	test	ward_and_allport	0,0,0,1,0,0,3,2,0	89.0	8.0	1.309	1,2,3,0,0,0,0,0,0	to_hand	s590
147.337	0.454	0	PA_without_intermediate	1,0,0,0,0,0,3,2,0	test	ward_and_allport	0,0,0,1,0,0,3,2,0	82.0	8.0	0.454	1,2,3,0,0,0,0,0,0	to_board	s590
147.796	0.614	0	PA_without_intermediate	0,0,0,0,0,0,3,2,0	test	ward_and_allport	0,0,0,1,0,0,3,2,0	89.0	8.0	0.614	1,2,3,0,0,0,0,0,0	to_hand	s590
148.412	0.416	0	PA_without_intermediate	0,0,0,1,0,0,3,2,0	test	ward_and_allport	0,0,0,1,0,0,3,2,0	71.0	8.0	0.416	1,2,3,0,0,0,0,0,0	to_board	s590
148.833	1.0	0	PA_without_intermediate	n/a	test	ward_and_allport	n/a	-1.0	8.0	n/a	n/a	feedback	s590
149.833	1.136	0	PA_without_intermediate	n/a	test	ward_and_allport	n/a	-1.0	8.0	n/a	n/a	ITI	s590
150.973	3.983	1	PA_without_intermediate	1,2,0,0,0,0,0,0,0	test	ward_and_allport	0,0,0,3,1,0,2,0,0	89.0	9.0	3.983	1,2,3,0,0,0,0,0,0	to_hand	s590
154.958	0.549	0	PA_without_intermediate	1,2,0,3,0,0,0,0,0	test	ward_and_allport	0,0,0,3,1,0,2,0,0	71.0	9.0	0.549	1,2,3,0,0,0,0,0,0	to_board	s590
155.511	0.71	0	PA_without_intermediate	1,0,0,3,0,0,0,0,0	test	ward_and_allport	0,0,0,3,1,0,2,0,0	89.0	9.0	0.71	1,2,3,0,0,0,0,0,0	to_hand	s590
156.223	0.975	0	PA_without_intermediate	1,0,0,3,0,0,2,0,0	test	ward_and_allport	0,0,0,3,1,0,2,0,0	82.0	9.0	0.975	1,2,3,0,0,0,0,0,0	to_board	s590
157.202	0.83	0	PA_without_intermediate	0,0,0,3,0,0,2,0,0	test	ward_and_allport	0,0,0,3,1,0,2,0,0	89.0	9.0	0.83	1,2,3,0,0,0,0,0,0	to_hand	s590
158.034	0.574	0	PA_without_intermediate	0,0,0,3,1,0,2,0,0	test	ward_and_allport	0,0,0,3,1,0,2,0,0	71.0	9.0	0.574	1,2,3,0,0,0,0,0,0	to_board	s590
158.616	1.0	0	PA_without_intermediate	n/a	test	ward_and_allport	n/a	-1.0	9.0	n/a	n/a	feedback	s590
159.616	4.264	0	PA_without_intermediate	n/a	test	ward_and_allport	n/a	-1.0	9.0	n/a	n/a	ITI	s590
163.885	6.489	1	PA_with_intermediate	0,0,0,0,0,0,1,2,0	test	ward_and_allport	2,3,0,0,0,0,1,0,0	82.0	10.0	6.489	0,0,0,0,0,0,1,2,3	to_hand	s590
170.375	0.533	0	PA_with_intermediate	0,0,0,3,0,0,1,2,0	test	ward_and_allport	2,3,0,0,0,0,1,0,0	71.0	10.0	0.533	0,0,0,0,0,0,1,2,3	to_board	s590
170.914	0.912	0	PA_with_intermediate	0,0,0,3,0,0,1,0,0	test	ward_and_allport	2,3,0,0,0,0,1,0,0	82.0	10.0	0.912	0,0,0,0,0,0,1,2,3	to_hand	s590
171.828	0.366	0	PA_with_intermediate	2,0,0,3,0,0,1,0,0	test	ward_and_allport	2,3,0,0,0,0,1,0,0	89.0	10.0	0.366	0,0,0,0,0,0,1,2,3	to_board	s590
172.199	1.165	0	PA_with_intermediate	2,0,0,0,0,0,1,0,0	test	ward_and_allport	2,3,0,0,0,0,1,0,0	71.0	10.0	1.165	0,0,0,0,0,0,1,2,3	to_hand	s590
173.366	0.324	0	PA_with_intermediate	2,3,0,0,0,0,1,0,0	test	ward_and_allport	2,3,0,0,0,0,1,0,0	89.0	10.0	0.324	0,0,0,0,0,0,1,2,3	to_board	s590
173.697	1.0	0	PA_with_intermediate	n/a	test	ward_and_allport	n/a	-1.0	10.0	n/a	n/a	feedback	s590
174.697	3.04	0	PA_with_intermediate	n/a	test	ward_and_allport	n/a	-1.0	10.0	n/a	n/a	ITI	s590
177.741	5.82	1	PA_with_intermediate	0,0,0,0,0,0,1,2,0	test	ward_and_allport	0,0,0,2,3,0,1,0,0	82.0	11.0	5.82	0,0,0,0,0,0,1,2,3	to_hand	s590
183.562	0.375	0	PA_with_intermediate	3,0,0,0,0,0,1,2,0	test	ward_and_allport	0,0,0,2,3,0,1,0,0	89.0	11.0	0.375	0,0,0,0,0,0,1,2,3	to_board	s590
183.942	0.807	0	PA_with_intermediate	3,0,0,0,0,0,1,0,0	test	ward_and_allport	0,0,0,2,3,0,1,0,0	82.0	11.0	0.807	0,0,0,0,0,0,1,2,3	to_hand	s590
184.75	0.428	0	PA_with_intermediate	3,0,0,2,0,0,1,0,0	test	ward_and_allport	0,0,0,2,3,0,1,0,0	71.0	11.0	0.428	0,0,0,0,0,0,1,2,3	to_board	s590
185.184	0.812	0	PA_with_intermediate	0,0,0,2,0,0,1,0,0	test	ward_and_allport	0,0,0,2,3,0,1,0,0	89.0	11.0	0.812	0,0,0,0,0,0,1,2,3	to_hand	s590
185.996	0.464	0	PA_with_intermediate	0,0,0,2,3,0,1,0,0	test	ward_and_allport	0,0,0,2,3,0,1,0,0	71.0	11.0	0.464	0,0,0,0,0,0,1,2,3	to_board	s590
186.467	1.0	0	PA_with_intermediate	n/a	test	ward_and_allport	n/a	-1.0	11.0	n/a	n/a	feedback	s590
187.467	1.136	0	PA_with_intermediate	n/a	test	ward_and_allport	n/a	-1.0	11.0	n/a	n/a	ITI	s590
188.609	4.078	1	PA_with_intermediate	1,2,0,0,0,0,0,0,0	test	ward_and_allport	1,3,0,2,0,0,0,0,0	89.0	12.0	4.078	1,2,3,0,0,0,0,0,0	to_hand	s590
192.688	0.463	0	PA_with_intermediate	1,2,0,0,0,0,3,0,0	test	ward_and_allport	1,3,0,2,0,0,0,0,0	82.0	12.0	0.463	1,2,3,0,0,0,0,0,0	to_board	s590
193.156	1.444	0	PA_with_intermediate	1,0,0,0,0,0,3,0,0	test	ward_and_allport	1,3,0,2,0,0,0,0,0	89.0	12.0	1.444	1,2,3,0,0,0,0,0,0	to_hand	s590
194.602	0.413	0	PA_with_intermediate	1,0,0,2,0,0,3,0,0	test	ward_and_allport	1,3,0,2,0,0,0,0,0	71.0	12.0	0.413	1,2,3,0,0,0,0,0,0	to_board	s590
195.021	0.757	0	PA_with_intermediate	1,0,0,2,0,0,0,0,0	test	ward_and_allport	1,3,0,2,0,0,0,0,0	82.0	12.0	0.757	1,2,3,0,0,0,0,0,0	to_hand	s590
195.779	0.265	0	PA_with_intermediate	1,3,0,2,0,0,0,0,0	test	ward_and_allport	1,3,0,2,0,0,0,0,0	89.0	12.0	0.265	1,2,3,0,0,0,0,0,0	to_board	s590
196.053	1.0	0	PA_with_intermediate	n/a	test	ward_and_allport	n/a	-1.0	12.0	n/a	n/a	feedback	s590
197.053	1.408	0	PA_with_intermediate	n/a	test	ward_and_allport	n/a	-1.0	12.0	n/a	n/a	ITI	s590
198.466	3.011	1	PA_without_intermediate	0,0,0,0,0,0,1,2,0	test	ward_and_allport	1,0,0,3,2,0,0,0,0	82.0	13.0	3.011	0,0,0,0,0,0,1,2,3	to_hand	s590
201.479	0.563	0	PA_without_intermediate	0,0,0,3,0,0,1,2,0	test	ward_and_allport	1,0,0,3,2,0,0,0,0	71.0	13.0	0.563	0,0,0,0,0,0,1,2,3	to_board	s590
202.047	0.746	0	PA_without_intermediate	0,0,0,3,0,0,1,0,0	test	ward_and_allport	1,0,0,3,2,0,0,0,0	82.0	13.0	0.746	0,0,0,0,0,0,1,2,3	to_hand	s590
202.794	0.359	0	PA_without_intermediate	0,0,0,3,2,0,1,0,0	test	ward_and_allport	1,0,0,3,2,0,0,0,0	71.0	13.0	0.359	0,0,0,0,0,0,1,2,3	to_board	s590
203.159	1.653	0	PA_without_intermediate	0,0,0,3,2,0,0,0,0	test	ward_and_allport	1,0,0,3,2,0,0,0,0	82.0	13.0	1.653	0,0,0,0,0,0,1,2,3	to_hand	s590
204.814	0.268	0	PA_without_intermediate	1,0,0,3,2,0,0,0,0	test	ward_and_allport	1,0,0,3,2,0,0,0,0	89.0	13.0	0.268	0,0,0,0,0,0,1,2,3	to_board	s590
205.09	1.0	0	PA_without_intermediate	n/a	test	ward_and_allport	n/a	-1.0	13.0	n/a	n/a	feedback	s590
206.09	1.68	0	PA_without_intermediate	n/a	test	ward_and_allport	n/a	-1.0	13.0	n/a	n/a	ITI	s590
207.775	3.446	1	PA_with_intermediate	1,2,0,0,0,0,0,0,0	test	ward_and_allport	1,0,0,2,3,0,0,0,0	89.0	14.0	3.446	1,2,3,0,0,0,0,0,0	to_hand	s590
211.222	0.502	0	PA_with_intermediate	1,2,0,0,0,0,3,0,0	test	ward_and_allport	1,0,0,2,3,0,0,0,0	82.0	14.0	0.502	1,2,3,0,0,0,0,0,0	to_board	s590
211.729	1.346	0	PA_with_intermediate	1,0,0,0,0,0,3,0,0	test	ward_and_allport	1,0,0,2,3,0,0,0,0	89.0	14.0	1.346	1,2,3,0,0,0,0,0,0	to_hand	s590
213.077	0.418	0	PA_with_intermediate	1,0,0,2,0,0,3,0,0	test	ward_and_allport	1,0,0,2,3,0,0,0,0	71.0	14.0	0.418	1,2,3,0,0,0,0,0,0	to_board	s590
213.499	0.642	0	PA_with_intermediate	1,0,0,2,0,0,0,0,0	test	ward_and_allport	1,0,0,2,3,0,0,0,0	82.0	14.0	0.642	1,2,3,0,0,0,0,0,0	to_hand	s590
214.142	0.423	0	PA_with_intermediate	1,0,0,2,3,0,0,0,0	test	ward_and_allport	1,0,0,2,3,0,0,0,0	71.0	14.0	0.423	1,2,3,0,0,0,0,0,0	to_board	s590
214.571	1.0	0	PA_with_intermediate	n/a	test	ward_and_allport	n/a	-1.0	14.0	n/a	n/a	feedback	s590
215.571	3.72	0	PA_with_intermediate	n/a	test	ward_and_allport	n/a	-1.0	14.0	n/a	n/a	ITI	s590
224.297	3.849	1	PA_without_intermediate	0,0,0,1,2,0,0,0,0	test	ward_and_allport	1,0,0,0,0,0,3,2,0	71.0	15.0	3.849	0,0,0,1,2,3,0,0,0	to_hand	s590
228.147	0.584	0	PA_without_intermediate	0,0,0,1,2,0,3,0,0	test	ward_and_allport	1,0,0,0,0,0,3,2,0	82.0	15.0	0.584	0,0,0,1,2,3,0,0,0	to_board	s590
228.737	1.149	0	PA_without_intermediate	0,0,0,1,0,0,3,0,0	test	ward_and_allport	1,0,0,0,0,0,3,2,0	71.0	15.0	1.149	0,0,0,1,2,3,0,0,0	to_hand	s590
229.887	0.466	0	PA_without_intermediate	0,0,0,1,0,0,3,2,0	test	ward_and_allport	1,0,0,0,0,0,3,2,0	82.0	15.0	0.466	0,0,0,1,2,3,0,0,0	to_board	s590
230.359	0.59	0	PA_without_intermediate	0,0,0,0,0,0,3,2,0	test	ward_and_allport	1,0,0,0,0,0,3,2,0	71.0	15.0	0.59	0,0,0,1,2,3,0,0,0	to_hand	s590
230.951	0.308	0	PA_without_intermediate	1,0,0,0,0,0,3,2,0	test	ward_and_allport	1,0,0,0,0,0,3,2,0	89.0	15.0	0.308	0,0,0,1,2,3,0,0,0	to_board	s590
231.267	1.0	0	PA_without_intermediate	n/a	test	ward_and_allport	n/a	-1.0	15.0	n/a	n/a	feedback	s590
232.267	2.224	0	PA_without_intermediate	n/a	test	ward_and_allport	n/a	-1.0	15.0	n/a	n/a	ITI	s590
234.496	2.974	1	PA_without_intermediate	0,0,0,1,2,0,0,0,0	test	ward_and_allport	2,0,0,0,0,0,3,1,0	71.0	16.0	2.974	0,0,0,1,2,3,0,0,0	to_hand	s590
237.471	0.468	0	PA_without_intermediate	0,0,0,1,2,0,3,0,0	test	ward_and_allport	2,0,0,0,0,0,3,1,0	82.0	16.0	0.468	0,0,0,1,2,3,0,0,0	to_board	s590
237.944	1.097	0	PA_without_intermediate	0,0,0,1,0,0,3,0,0	test	ward_and_allport	2,0,0,0,0,0,3,1,0	71.0	16.0	1.097	0,0,0,1,2,3,0,0,0	to_hand	s590
239.043	0.339	0	PA_without_intermediate	2,0,0,1,0,0,3,0,0	test	ward_and_allport	2,0,0,0,0,0,3,1,0	89.0	16.0	0.339	0,0,0,1,2,3,0,0,0	to_board	s590
239.387	0.527	0	PA_without_intermediate	2,0,0,0,0,0,3,0,0	test	ward_and_allport	2,0,0,0,0,0,3,1,0	71.0	16.0	0.527	0,0,0,1,2,3,0,0,0	to_hand	s590
239.916	0.282	0	PA_without_intermediate	2,0,0,0,0,0,3,1,0	test	ward_and_allport	2,0,0,0,0,0,3,1,0	82.0	16.0	0.282	0,0,0,1,2,3,0,0,0	to_board	s590
240.203	1.0	0	PA_without_intermediate	n/a	test	ward_and_allport	n/a	-1.0	16.0	n/a	n/a	feedback	s590
241.203	1.272	0	PA_without_intermediate	n/a	test	ward_and_allport	n/a	-1.0	16.0	n/a	n/a	ITI	s590
242.481	3.24	1	PA_with_intermediate	0,0,0,0,0,0,1,2,0	test	ward_and_allport	0,0,0,2,3,0,1,0,0	82.0	17.0	3.24	0,0,0,0,0,0,1,2,3	to_hand	s590
245.722	0.291	0	PA_with_intermediate	3,0,0,0,0,0,1,2,0	test	ward_and_allport	0,0,0,2,3,0,1,0,0	89.0	17.0	0.291	0,0,0,0,0,0,1,2,3	to_board	s590
246.02	0.588	0	PA_with_intermediate	3,0,0,0,0,0,1,0,0	test	ward_and_allport	0,0,0,2,3,0,1,0,0	82.0	17.0	0.588	0,0,0,0,0,0,1,2,3	to_hand	s590
246.609	0.334	0	PA_with_intermediate	3,0,0,2,0,0,1,0,0	test	ward_and_allport	0,0,0,2,3,0,1,0,0	71.0	17.0	0.334	0,0,0,0,0,0,1,2,3	to_board	s590
246.949	1.023	0	PA_with_intermediate	0,0,0,2,0,0,1,0,0	test	ward_and_allport	0,0,0,2,3,0,1,0,0	89.0	17.0	1.023	0,0,0,0,0,0,1,2,3	to_hand	s590
247.972	0.261	0	PA_with_intermediate	0,0,0,2,3,0,1,0,0	test	ward_and_allport	0,0,0,2,3,0,1,0,0	71.0	17.0	0.261	0,0,0,0,0,0,1,2,3	to_board	s590
248.241	1.0	0	PA_with_intermediate	n/a	test	ward_and_allport	n/a	-1.0	17.0	n/a	n/a	feedback	s590
249.241	2.632	0	PA_with_intermediate	n/a	test	ward_and_allport	n/a	-1.0	17.0	n/a	n/a	ITI	s590
251.879	5.286	1	PA_without_intermediate	0,0,0,0,0,0,1,2,0	test	ward_and_allport	1,0,0,3,2,0,0,0,0	82.0	18.0	5.286	0,0,0,0,0,0,1,2,3	to_hand	s590
257.167	0.4	0	PA_without_intermediate	0,0,0,3,0,0,1,2,0	test	ward_and_allport	1,0,0,3,2,0,0,0,0	71.0	18.0	0.4	0,0,0,0,0,0,1,2,3	to_board	s590
257.574	0.89	0	PA_without_intermediate	0,0,0,3,0,0,1,0,0	test	ward_and_allport	1,0,0,3,2,0,0,0,0	82.0	18.0	0.89	0,0,0,0,0,0,1,2,3	to_hand	s590
258.466	0.64	0	PA_without_intermediate	0,0,0,3,2,0,1,0,0	test	ward_and_allport	1,0,0,3,2,0,0,0,0	71.0	18.0	0.64	0,0,0,0,0,0,1,2,3	to_board	s590
259.112	1.013	0	PA_without_intermediate	0,0,0,3,2,0,0,0,0	test	ward_and_allport	1,0,0,3,2,0,0,0,0	82.0	18.0	1.013	0,0,0,0,0,0,1,2,3	to_hand	s590
260.126	0.295	0	PA_without_intermediate	1,0,0,3,2,0,0,0,0	test	ward_and_allport	1,0,0,3,2,0,0,0,0	89.0	18.0	0.295	0,0,0,0,0,0,1,2,3	to_board	s590
260.431	1.0	0	PA_without_intermediate	n/a	test	ward_and_allport	n/a	-1.0	18.0	n/a	n/a	feedback	s590
261.431	1.408	0	PA_without_intermediate	n/a	test	ward_and_allport	n/a	-1.0	18.0	n/a	n/a	ITI	s590
262.844	3.266	1	PA_without_intermediate	0,0,0,1,2,0,0,0,0	test	ward_and_allport	2,0,0,0,0,0,3,1,0	71.0	19.0	3.266	0,0,0,1,2,3,0,0,0	to_hand	s590
266.112	0.302	0	PA_without_intermediate	0,0,0,1,2,0,3,0,0	test	ward_and_allport	2,0,0,0,0,0,3,1,0	82.0	19.0	0.302	0,0,0,1,2,3,0,0,0	to_board	s590
266.42	0.804	0	PA_without_intermediate	0,0,0,1,0,0,3,0,0	test	ward_and_allport	2,0,0,0,0,0,3,1,0	71.0	19.0	0.804	0,0,0,1,2,3,0,0,0	to_hand	s590
267.224	0.274	0	PA_without_intermediate	2,0,0,1,0,0,3,0,0	test	ward_and_allport	2,0,0,0,0,0,3,1,0	89.0	19.0	0.274	0,0,0,1,2,3,0,0,0	to_board	s590
267.504	0.69	0	PA_without_intermediate	2,0,0,0,0,0,3,0,0	test	ward_and_allport	2,0,0,0,0,0,3,1,0	71.0	19.0	0.69	0,0,0,1,2,3,0,0,0	to_hand	s590
268.194	0.263	0	PA_without_intermediate	2,0,0,0,0,0,3,1,0	test	ward_and_allport	2,0,0,0,0,0,3,1,0	82.0	19.0	0.263	0,0,0,1,2,3,0,0,0	to_board	s590
268.466	1.0	0	PA_without_intermediate	n/a	test	ward_and_allport	n/a	-1.0	19.0	n/a	n/a	feedback	s590
269.466	1.0	0	PA_without_intermediate	n/a	test	ward_and_allport	n/a	-1.0	19.0	n/a	n/a	ITI	s590
270.472	2.963	1	PA_with_intermediate	0,0,0,1,2,0,0,0,0	test	ward_and_allport	0,0,0,1,3,0,2,0,0	71.0	20.0	2.963	0,0,0,1,2,3,0,0,0	to_hand	s590
273.436	0.31	0	PA_with_intermediate	3,0,0,1,2,0,0,0,0	test	ward_and_allport	0,0,0,1,3,0,2,0,0	89.0	20.0	0.31	0,0,0,1,2,3,0,0,0	to_board	s590
273.753	0.639	0	PA_with_intermediate	3,0,0,1,0,0,0,0,0	test	ward_and_allport	0,0,0,1,3,0,2,0,0	71.0	20.0	0.639	0,0,0,1,2,3,0,0,0	to_hand	s590
274.393	0.362	0	PA_with_intermediate	3,0,0,1,0,0,2,0,0	test	ward_and_allport	0,0,0,1,3,0,2,0,0	82.0	20.0	0.362	0,0,0,1,2,3,0,0,0	to_board	s590
274.761	0.876	0	PA_with_intermediate	0,0,0,1,0,0,2,0,0	test	ward_and_allport	0,0,0,1,3,0,2,0,0	89.0	20.0	0.876	0,0,0,1,2,3,0,0,0	to_hand	s590
275.639	0.28	0	PA_with_intermediate	0,0,0,1,3,0,2,0,0	test	ward_and_allport	0,0,0,1,3,0,2,0,0	71.0	20.0	0.28	0,0,0,1,2,3,0,0,0	to_board	s590
275.927	1.0	0	PA_with_intermediate	n/a	test	ward_and_allport	n/a	-1.0	20.0	n/a	n/a	feedback	s590
276.927	1.0	0	PA_with_intermediate	n/a	test	ward_and_allport	n/a	-1.0	20.0	n/a	n/a	ITI	s590
277.934	4.575	1	PA_with_intermediate	0,0,0,0,0,0,1,2,0	test	ward_and_allport	2,0,0,0,0,0,1,3,0	82.0	21.0	4.575	0,0,0,0,0,0,1,2,3	to_hand	s590
282.511	0.544	0	PA_with_intermediate	0,0,0,3,0,0,1,2,0	test	ward_and_allport	2,0,0,0,0,0,1,3,0	71.0	21.0	0.544	0,0,0,0,0,0,1,2,3	to_board	s590
283.061	0.543	0	PA_with_intermediate	0,0,0,3,0,0,1,0,0	test	ward_and_allport	2,0,0,0,0,0,1,3,0	82.0	21.0	0.543	0,0,0,0,0,0,1,2,3	to_hand	s590
283.605	0.391	0	PA_with_intermediate	2,0,0,3,0,0,1,0,0	test	ward_and_allport	2,0,0,0,0,0,1,3,0	89.0	21.0	0.391	0,0,0,0,0,0,1,2,3	to_board	s590
284.004	0.427	0	PA_with_intermediate	2,0,0,0,0,0,1,0,0	test	ward_and_allport	2,0,0,0,0,0,1,3,0	71.0	21.0	0.427	0,0,0,0,0,0,1,2,3	to_hand	s590
284.431	0.42	0	PA_with_intermediate	2,0,0,0,0,0,1,3,0	test	ward_and_allport	2,0,0,0,0,0,1,3,0	82.0	21.0	0.42	0,0,0,0,0,0,1,2,3	to_board	s590
284.86	1.0	0	PA_with_intermediate	n/a	test	ward_and_allport	n/a	-1.0	21.0	n/a	n/a	feedback	s590
285.86	1.0	0	PA_with_intermediate	n/a	test	ward_and_allport	n/a	-1.0	21.0	n/a	n/a	ITI	s590
286.868	4.735	1	PA_with_intermediate	0,0,0,0,0,0,1,2,0	test	ward_and_allport	2,0,0,0,0,0,1,3,0	82.0	22.0	4.735	0,0,0,0,0,0,1,2,3	to_hand	s590
291.605	0.39	0	PA_with_intermediate	0,0,0,3,0,0,1,2,0	test	ward_and_allport	2,0,0,0,0,0,1,3,0	71.0	22.0	0.39	0,0,0,0,0,0,1,2,3	to_board	s590
292.002	0.437	0	PA_with_intermediate	0,0,0,3,0,0,1,0,0	test	ward_and_allport	2,0,0,0,0,0,1,3,0	82.0	22.0	0.437	0,0,0,0,0,0,1,2,3	to_hand	s590
292.44	0.294	0	PA_with_intermediate	2,0,0,3,0,0,1,0,0	test	ward_and_allport	2,0,0,0,0,0,1,3,0	89.0	22.0	0.294	0,0,0,0,0,0,1,2,3	to_board	s590
292.742	0.435	0	PA_with_intermediate	2,0,0,0,0,0,1,0,0	test	ward_and_allport	2,0,0,0,0,0,1,3,0	71.0	22.0	0.435	0,0,0,0,0,0,1,2,3	to_hand	s590
293.177	0.43	0	PA_with_intermediate	2,0,0,0,0,0,1,3,0	test	ward_and_allport	2,0,0,0,0,0,1,3,0	82.0	22.0	0.43	0,0,0,0,0,0,1,2,3	to_board	s590
293.616	1.0	0	PA_with_intermediate	n/a	test	ward_and_allport	n/a	-1.0	22.0	n/a	n/a	feedback	s590
294.616	1.408	0	PA_with_intermediate	n/a	test	ward_and_allport	n/a	-1.0	22.0	n/a	n/a	ITI	s590
296.032	3.804	1	PA_without_intermediate	0,0,0,0,0,0,1,2,0	test	ward_and_allport	2,0,0,3,1,0,0,0,0	82.0	23.0	3.804	0,0,0,0,0,0,1,2,3	to_hand	s590
299.837	0.35	0	PA_without_intermediate	0,0,0,3,0,0,1,2,0	test	ward_and_allport	2,0,0,3,1,0,0,0,0	71.0	23.0	0.35	0,0,0,0,0,0,1,2,3	to_board	s590
300.195	0.371	0	PA_without_intermediate	0,0,0,3,0,0,1,0,0	test	ward_and_allport	2,0,0,3,1,0,0,0,0	82.0	23.0	0.371	0,0,0,0,0,0,1,2,3	to_hand	s590
300.567	0.375	0	PA_without_intermediate	2,0,0,3,0,0,1,0,0	test	ward_and_allport	2,0,0,3,1,0,0,0,0	89.0	23.0	0.375	0,0,0,0,0,0,1,2,3	to_board	s590
300.95	0.365	0	PA_without_intermediate	2,0,0,3,0,0,0,0,0	test	ward_and_allport	2,0,0,3,1,0,0,0,0	82.0	23.0	0.365	0,0,0,0,0,0,1,2,3	to_hand	s590
301.316	0.396	0	PA_without_intermediate	2,0,0,3,1,0,0,0,0	test	ward_and_allport	2,0,0,3,1,0,0,0,0	71.0	23.0	0.396	0,0,0,0,0,0,1,2,3	to_board	s590
301.726	1.0	0	PA_without_intermediate	n/a	test	ward_and_allport	n/a	-1.0	23.0	n/a	n/a	feedback	s590
302.726	1.816	0	PA_without_intermediate	n/a	test	ward_and_allport	n/a	-1.0	23.0	n/a	n/a	ITI	s590
304.55	2.35	1	PA_with_intermediate	0,0,0,1,2,0,0,0,0	test	ward_and_allport	0,0,0,1,0,0,2,3,0	71.0	24.0	2.35	0,0,0,1,2,3,0,0,0	to_hand	s590
306.901	0.314	0	PA_with_intermediate	3,0,0,1,2,0,0,0,0	test	ward_and_allport	0,0,0,1,0,0,2,3,0	89.0	24.0	0.314	0,0,0,1,2,3,0,0,0	to_board	s590
307.223	0.642	0	PA_with_intermediate	3,0,0,1,0,0,0,0,0	test	ward_and_allport	0,0,0,1,0,0,2,3,0	71.0	24.0	0.642	0,0,0,1,2,3,0,0,0	to_hand	s590
307.867	0.525	0	PA_with_intermediate	3,0,0,1,0,0,2,0,0	test	ward_and_allport	0,0,0,1,0,0,2,3,0	82.0	24.0	0.525	0,0,0,1,2,3,0,0,0	to_board	s590
308.4	0.543	0	PA_with_intermediate	0,0,0,1,0,0,2,0,0	test	ward_and_allport	0,0,0,1,0,0,2,3,0	89.0	24.0	0.543	0,0,0,1,2,3,0,0,0	to_hand	s590
308.944	0.396	0	PA_with_intermediate	0,0,0,1,0,0,2,3,0	test	ward_and_allport	0,0,0,1,0,0,2,3,0	82.0	24.0	0.396	0,0,0,1,2,3,0,0,0	to_board	s590
309.349	1.0	0	PA_with_intermediate	n/a	test	ward_and_allport	n/a	-1.0	24.0	n/a	n/a	feedback	s590
310.349	3.176	0	PA_with_intermediate	n/a	test	ward_and_allport	n/a	-1.0	24.0	n/a	n/a	ITI	s590
313.533	3.53	1	PA_with_intermediate	0,0,0,0,0,0,1,2,0	test	ward_and_allport	0,0,0,2,0,0,1,3,0	82.0	25.0	3.53	0,0,0,0,0,0,1,2,3	to_hand	s590
317.065	0.433	0	PA_with_intermediate	3,0,0,0,0,0,1,2,0	test	ward_and_allport	0,0,0,2,0,0,1,3,0	89.0	25.0	0.433	0,0,0,0,0,0,1,2,3	to_board	s590
317.506	0.845	0	PA_with_intermediate	3,0,0,0,0,0,1,0,0	test	ward_and_allport	0,0,0,2,0,0,1,3,0	82.0	25.0	0.845	0,0,0,0,0,0,1,2,3	to_hand	s590
318.352	0.427	0	PA_with_intermediate	3,0,0,2,0,0,1,0,0	test	ward_and_allport	0,0,0,2,0,0,1,3,0	71.0	25.0	0.427	0,0,0,0,0,0,1,2,3	to_board	s590
318.787	0.54	0	PA_with_intermediate	0,0,0,2,0,0,1,0,0	test	ward_and_allport	0,0,0,2,0,0,1,3,0	89.0	25.0	0.54	0,0,0,0,0,0,1,2,3	to_hand	s590
319.328	0.328	0	PA_with_intermediate	0,0,0,2,0,0,1,3,0	test	ward_and_allport	0,0,0,2,0,0,1,3,0	82.0	25.0	0.328	0,0,0,0,0,0,1,2,3	to_board	s590
319.665	1.0	0	PA_with_intermediate	n/a	test	ward_and_allport	n/a	-1.0	25.0	n/a	n/a	feedback	s590
320.665	2.36	0	PA_with_intermediate	n/a	test	ward_and_allport	n/a	-1.0	25.0	n/a	n/a	ITI	s590
323.033	5.705	1	PA_with_intermediate	1,2,0,0,0,0,0,0,0	test	ward_and_allport	1,0,0,2,3,0,0,0,0	89.0	26.0	5.705	1,2,3,0,0,0,0,0,0	to_hand	s590
328.74	0.321	0	PA_with_intermediate	1,2,0,0,0,0,3,0,0	test	ward_and_allport	1,0,0,2,3,0,0,0,0	82.0	26.0	0.321	1,2,3,0,0,0,0,0,0	to_board	s590
329.069	0.874	0	PA_with_intermediate	1,0,0,0,0,0,3,0,0	test	ward_and_allport	1,0,0,2,3,0,0,0,0	89.0	26.0	0.874	1,2,3,0,0,0,0,0,0	to_hand	s590
329.944	0.354	0	PA_with_intermediate	1,0,0,2,0,0,3,0,0	test	ward_and_allport	1,0,0,2,3,0,0,0,0	71.0	26.0	0.354	1,2,3,0,0,0,0,0,0	to_board	s590
330.306	0.444	0	PA_with_intermediate	1,0,0,2,0,0,0,0,0	test	ward_and_allport	1,0,0,2,3,0,0,0,0	82.0	26.0	0.444	1,2,3,0,0,0,0,0,0	to_hand	s590
330.751	0.315	0	PA_with_intermediate	1,0,0,2,3,0,0,0,0	test	ward_and_allport	1,0,0,2,3,0,0,0,0	71.0	26.0	0.315	1,2,3,0,0,0,0,0,0	to_board	s590
331.076	1.0	0	PA_with_intermediate	n/a	test	ward_and_allport	n/a	-1.0	26.0	n/a	n/a	feedback	s590
332.076	1.0	0	PA_with_intermediate	n/a	test	ward_and_allport	n/a	-1.0	26.0	n/a	n/a	ITI	s590
333.084	5.654	1	PA_without_intermediate	1,2,0,0,0,0,0,0,0	test	ward_and_allport	0,0,0,2,0,0,3,1,0	89.0	27.0	5.654	1,2,3,0,0,0,0,0,0	to_hand	s590
338.74	0.331	0	PA_without_intermediate	1,2,0,0,0,0,3,0,0	test	ward_and_allport	0,0,0,2,0,0,3,1,0	82.0	27.0	0.331	1,2,3,0,0,0,0,0,0	to_board	s590
339.08	0.726	0	PA_without_intermediate	1,0,0,0,0,0,3,0,0	test	ward_and_allport	0,0,0,2,0,0,3,1,0	89.0	27.0	0.726	1,2,3,0,0,0,0,0,0	to_hand	s590
339.808	0.322	0	PA_without_intermediate	1,0,0,2,0,0,3,0,0	test	ward_and_allport	0,0,0,2,0,0,3,1,0	71.0	27.0	0.322	1,2,3,0,0,0,0,0,0	to_board	s590
340.139	0.508	0	PA_without_intermediate	0,0,0,2,0,0,3,0,0	test	ward_and_allport	0,0,0,2,0,0,3,1,0	89.0	27.0	0.508	1,2,3,0,0,0,0,0,0	to_hand	s590
340.648	0.285	0	PA_without_intermediate	0,0,0,2,0,0,3,1,0	test	ward_and_allport	0,0,0,2,0,0,3,1,0	82.0	27.0	0.285	1,2,3,0,0,0,0,0,0	to_board	s590
340.946	1.0	0	PA_without_intermediate	n/a	test	ward_and_allport	n/a	-1.0	27.0	n/a	n/a	feedback	s590
341.946	1.408	0	PA_without_intermediate	n/a	test	ward_and_allport	n/a	-1.0	27.0	n/a	n/a	ITI	s590
343.362	4.966	1	PA_with_intermediate	0,0,0,1,2,0,0,0,0	test	ward_and_allport	2,3,0,1,0,0,0,0,0	71.0	28.0	4.966	0,0,0,1,2,3,0,0,0	to_hand	s590
348.33	0.31	0	PA_with_intermediate	0,0,0,1,2,0,3,0,0	test	ward_and_allport	2,3,0,1,0,0,0,0,0	82.0	28.0	0.31	0,0,0,1,2,3,0,0,0	to_board	s590
348.649	0.771	0	PA_with_intermediate	0,0,0,1,0,0,3,0,0	test	ward_and_allport	2,3,0,1,0,0,0,0,0	71.0	28.0	0.771	0,0,0,1,2,3,0,0,0	to_hand	s590
349.42	0.262	0	PA_with_intermediate	2,0,0,1,0,0,3,0,0	test	ward_and_allport	2,3,0,1,0,0,0,0,0	89.0	28.0	0.262	0,0,0,1,2,3,0,0,0	to_board	s590
349.691	0.507	0	PA_with_intermediate	2,0,0,1,0,0,0,0,0	test	ward_and_allport	2,3,0,1,0,0,0,0,0	82.0	28.0	0.507	0,0,0,1,2,3,0,0,0	to_hand	s590
350.198	0.268	0	PA_with_intermediate	2,3,0,1,0,0,0,0,0	test	ward_and_allport	2,3,0,1,0,0,0,0,0	89.0	28.0	0.268	0,0,0,1,2,3,0,0,0	to_board	s590
350.475	1.0	0	PA_with_intermediate	n/a	test	ward_and_allport	n/a	-1.0	28.0	n/a	n/a	feedback	s590
351.475	1.816	0	PA_with_intermediate	n/a	test	ward_and_allport	n/a	-1.0	28.0	n/a	n/a	ITI	s590
353.301	6.338	1	PA_without_intermediate	1,2,0,0,0,0,0,0,0	test	ward_and_allport	0,0,0,3,2,0,1,0,0	89.0	29.0	6.338	1,2,3,0,0,0,0,0,0	to_hand	s590
359.64	0.617	0	PA_without_intermediate	1,2,0,3,0,0,0,0,0	test	ward_and_allport	0,0,0,3,2,0,1,0,0	71.0	29.0	0.617	1,2,3,0,0,0,0,0,0	to_board	s590
360.266	0.731	0	PA_without_intermediate	1,0,0,3,0,0,0,0,0	test	ward_and_allport	0,0,0,3,2,0,1,0,0	89.0	29.0	0.731	1,2,3,0,0,0,0,0,0	to_hand	s590
360.998	0.342	0	PA_without_intermediate	1,0,0,3,2,0,0,0,0	test	ward_and_allport	0,0,0,3,2,0,1,0,0	71.0	29.0	0.342	1,2,3,0,0,0,0,0,0	to_board	s590
361.349	0.59	0	PA_without_intermediate	0,0,0,3,2,0,0,0,0	test	ward_and_allport	0,0,0,3,2,0,1,0,0	89.0	29.0	0.59	1,2,3,0,0,0,0,0,0	to_hand	s590
361.94	0.249	0	PA_without_intermediate	0,0,0,3,2,0,1,0,0	test	ward_and_allport	0,0,0,3,2,0,1,0,0	82.0	29.0	0.249	1,2,3,0,0,0,0,0,0	to_board	s590
362.198	1.0	0	PA_without_intermediate	n/a	test	ward_and_allport	n/a	-1.0	29.0	n/a	n/a	feedback	s590
363.198	2.088	0	PA_without_intermediate	n/a	test	ward_and_allport	n/a	-1.0	29.0	n/a	n/a	ITI	s590
370.297	2.945	1	PA_without_intermediate	1,2,0,0,0,0,0,0,0	test	ward_and_allport	0,0,0,3,2,0,1,0,0	89.0	30.0	2.945	1,2,3,0,0,0,0,0,0	to_hand	s590
373.243	0.592	0	PA_without_intermediate	1,2,0,3,0,0,0,0,0	test	ward_and_allport	0,0,0,3,2,0,1,0,0	71.0	30.0	0.592	1,2,3,0,0,0,0,0,0	to_board	s590
373.845	0.498	0	PA_without_intermediate	1,0,0,3,0,0,0,0,0	test	ward_and_allport	0,0,0,3,2,0,1,0,0	89.0	30.0	0.498	1,2,3,0,0,0,0,0,0	to_hand	s590
374.345	0.686	0	PA_without_intermediate	1,0,0,3,2,0,0,0,0	test	ward_and_allport	0,0,0,3,2,0,1,0,0	71.0	30.0	0.686	1,2,3,0,0,0,0,0,0	to_board	s590
375.039	0.441	0	PA_without_intermediate	0,0,0,3,2,0,0,0,0	test	ward_and_allport	0,0,0,3,2,0,1,0,0	89.0	30.0	0.441	1,2,3,0,0,0,0,0,0	to_hand	s590
375.481	0.42	0	PA_without_intermediate	0,0,0,3,2,0,1,0,0	test	ward_and_allport	0,0,0,3,2,0,1,0,0	82.0	30.0	0.42	1,2,3,0,0,0,0,0,0	to_board	s590
375.914	1.0	0	PA_without_intermediate	n/a	test	ward_and_allport	n/a	-1.0	30.0	n/a	n/a	feedback	s590
376.914	1.136	0	PA_without_intermediate	n/a	test	ward_and_allport	n/a	-1.0	30.0	n/a	n/a	ITI	s590
378.06	3.556	1	PA_without_intermediate	1,2,0,0,0,0,0,0,0	test	ward_and_allport	0,0,0,2,0,0,3,1,0	89.0	31.0	3.556	1,2,3,0,0,0,0,0,0	to_hand	s590
381.617	0.382	0	PA_without_intermediate	1,2,0,0,0,0,3,0,0	test	ward_and_allport	0,0,0,2,0,0,3,1,0	82.0	31.0	0.382	1,2,3,0,0,0,0,0,0	to_board	s590
382.01	0.906	0	PA_without_intermediate	1,0,0,0,0,0,3,0,0	test	ward_and_allport	0,0,0,2,0,0,3,1,0	89.0	31.0	0.906	1,2,3,0,0,0,0,0,0	to_hand	s590
382.917	0.315	0	PA_without_intermediate	1,0,0,2,0,0,3,0,0	test	ward_and_allport	0,0,0,2,0,0,3,1,0	71.0	31.0	0.315	1,2,3,0,0,0,0,0,0	to_board	s590
383.243	0.308	0	PA_without_intermediate	0,0,0,2,0,0,3,0,0	test	ward_and_allport	0,0,0,2,0,0,3,1,0	89.0	31.0	0.308	1,2,3,0,0,0,0,0,0	to_hand	s590
383.552	0.369	0	PA_without_intermediate	0,0,0,2,0,0,3,1,0	test	ward_and_allport	0,0,0,2,0,0,3,1,0	82.0	31.0	0.369	1,2,3,0,0,0,0,0,0	to_board	s590
383.937	1.0	0	PA_without_intermediate	n/a	test	ward_and_allport	n/a	-1.0	31.0	n/a	n/a	feedback	s590
384.937	6.168	0	PA_without_intermediate	n/a	test	ward_and_allport	n/a	-1.0	31.0	n/a	n/a	ITI	s590
391.117	2.482	1	PA_without_intermediate	1,2,0,0,0,0,0,0,0	test	ward_and_allport	0,0,0,1,0,0,3,2,0	89.0	32.0	2.482	1,2,3,0,0,0,0,0,0	to_hand	s590
393.601	0.402	0	PA_without_intermediate	1,2,0,0,0,0,3,0,0	test	ward_and_allport	0,0,0,1,0,0,3,2,0	82.0	32.0	0.402	1,2,3,0,0,0,0,0,0	to_board	s590
394.015	0.86	0	PA_without_intermediate	1,0,0,0,0,0,3,0,0	test	ward_and_allport	0,0,0,1,0,0,3,2,0	89.0	32.0	0.86	1,2,3,0,0,0,0,0,0	to_hand	s590
394.877	0.387	0	PA_without_intermediate	1,0,0,0,0,0,3,2,0	test	ward_and_allport	0,0,0,1,0,0,3,2,0	82.0	32.0	0.387	1,2,3,0,0,0,0,0,0	to_board	s590
395.275	1.01	0	PA_without_intermediate	0,0,0,0,0,0,3,2,0	test	ward_and_allport	0,0,0,1,0,0,3,2,0	89.0	32.0	1.01	1,2,3,0,0,0,0,0,0	to_hand	s590
396.287	0.372	0	PA_without_intermediate	0,0,0,1,0,0,3,2,0	test	ward_and_allport	0,0,0,1,0,0,3,2,0	71.0	32.0	0.372	1,2,3,0,0,0,0,0,0	to_board	s590
396.673	1.0	0	PA_without_intermediate	n/a	test	ward_and_allport	n/a	-1.0	32.0	n/a	n/a	feedback	s590
397.673	1.816	0	PA_without_intermediate	n/a	test	ward_and_allport	n/a	-1.0	32.0	n/a	n/a	ITI	s590
399.496	4.185	1	PA_with_intermediate	0,0,0,1,2,0,0,0,0	test	ward_and_allport	2,0,0,1,3,0,0,0,0	71.0	33.0	4.185	0,0,0,1,2,3,0,0,0	to_hand	s590
403.682	0.836	0	PA_with_intermediate	0,0,0,1,2,0,3,0,0	test	ward_and_allport	2,0,0,1,3,0,0,0,0	82.0	33.0	0.836	0,0,0,1,2,3,0,0,0	to_board	s590
404.525	0.742	0	PA_with_intermediate	0,0,0,1,0,0,3,0,0	test	ward_and_allport	2,0,0,1,3,0,0,0,0	71.0	33.0	0.742	0,0,0,1,2,3,0,0,0	to_hand	s590
405.269	0.277	0	PA_with_intermediate	2,0,0,1,0,0,3,0,0	test	ward_and_allport	2,0,0,1,3,0,0,0,0	89.0	33.0	0.277	0,0,0,1,2,3,0,0,0	to_board	s590
405.557	0.356	0	PA_with_intermediate	2,0,0,1,0,0,0,0,0	test	ward_and_allport	2,0,0,1,3,0,0,0,0	82.0	33.0	0.356	0,0,0,1,2,3,0,0,0	to_hand	s590
405.914	0.345	0	PA_with_intermediate	2,0,0,1,3,0,0,0,0	test	ward_and_allport	2,0,0,1,3,0,0,0,0	71.0	33.0	0.345	0,0,0,1,2,3,0,0,0	to_board	s590
406.276	1.0	0	PA_with_intermediate	n/a	test	ward_and_allport	n/a	-1.0	33.0	n/a	n/a	feedback	s590
407.276	1.952	0	PA_with_intermediate	n/a	test	ward_and_allport	n/a	-1.0	33.0	n/a	n/a	ITI	s590
409.238	5.18	1	PA_with_intermediate	1,2,0,0,0,0,0,0,0	test	ward_and_allport	1,3,0,2,0,0,0,0,0	89.0	34.0	5.18	1,2,3,0,0,0,0,0,0	to_hand	s590
414.419	0.268	0	PA_with_intermediate	1,2,0,0,0,0,3,0,0	test	ward_and_allport	1,3,0,2,0,0,0,0,0	82.0	34.0	0.268	1,2,3,0,0,0,0,0,0	to_board	s590
414.698	0.725	0	PA_with_intermediate	1,0,0,0,0,0,3,0,0	test	ward_and_allport	1,3,0,2,0,0,0,0,0	89.0	34.0	0.725	1,2,3,0,0,0,0,0,0	to_hand	s590
415.424	0.3	0	PA_with_intermediate	1,0,0,2,0,0,3,0,0	test	ward_and_allport	1,3,0,2,0,0,0,0,0	71.0	34.0	0.3	1,2,3,0,0,0,0,0,0	to_board	s590
415.736	0.369	0	PA_with_intermediate	1,0,0,2,0,0,0,0,0	test	ward_and_allport	1,3,0,2,0,0,0,0,0	82.0	34.0	0.369	1,2,3,0,0,0,0,0,0	to_hand	s590
416.107	0.235	0	PA_with_intermediate	1,3,0,2,0,0,0,0,0	test	ward_and_allport	1,3,0,2,0,0,0,0,0	89.0	34.0	0.235	1,2,3,0,0,0,0,0,0	to_board	s590
416.356	1.0	0	PA_with_intermediate	n/a	test	ward_and_allport	n/a	-1.0	34.0	n/a	n/a	feedback	s590
417.356	1.136	0	PA_with_intermediate	n/a	test	ward_and_allport	n/a	-1.0	34.0	n/a	n/a	ITI	s590
418.505	4.85	1	PA_without_intermediate	0,0,0,0,0,0,1,2,0	test	ward_and_allport	3,1,0,2,0,0,0,0,0	82.0	35.0	4.85	0,0,0,0,0,0,1,2,3	to_hand	s590
423.356	0.275	0	PA_without_intermediate	3,0,0,0,0,0,1,2,0	test	ward_and_allport	3,1,0,2,0,0,0,0,0	89.0	35.0	0.275	0,0,0,0,0,0,1,2,3	to_board	s590
423.641	1.317	0	PA_without_intermediate	3,0,0,0,0,0,1,0,0	test	ward_and_allport	3,1,0,2,0,0,0,0,0	82.0	35.0	1.317	0,0,0,0,0,0,1,2,3	to_hand	s590
424.959	0.303	0	PA_without_intermediate	3,0,0,2,0,0,1,0,0	test	ward_and_allport	3,1,0,2,0,0,0,0,0	71.0	35.0	0.303	0,0,0,0,0,0,1,2,3	to_board	s590
425.274	0.429	0	PA_without_intermediate	3,0,0,2,0,0,0,0,0	test	ward_and_allport	3,1,0,2,0,0,0,0,0	82.0	35.0	0.429	0,0,0,0,0,0,1,2,3	to_hand	s590
425.705	0.258	0	PA_without_intermediate	3,1,0,2,0,0,0,0,0	test	ward_and_allport	3,1,0,2,0,0,0,0,0	89.0	35.0	0.258	0,0,0,0,0,0,1,2,3	to_board	s590
425.975	1.0	0	PA_without_intermediate	n/a	test	ward_and_allport	n/a	-1.0	35.0	n/a	n/a	feedback	s590
426.975	1.68	0	PA_without_intermediate	n/a	test	ward_and_allport	n/a	-1.0	35.0	n/a	n/a	ITI	s590
428.666	2.578	1	PA_without_intermediate	0,0,0,0,0,0,1,2,0	test	ward_and_allport	2,0,0,3,1,0,0,0,0	82.0	36.0	2.578	0,0,0,0,0,0,1,2,3	to_hand	s590
431.245	1.248	0	PA_without_intermediate	0,0,0,3,0,0,1,2,0	test	ward_and_allport	2,0,0,3,1,0,0,0,0	71.0	36.0	1.248	0,0,0,0,0,0,1,2,3	to_board	s590
432.502	0.421	0	PA_without_intermediate	0,0,0,3,0,0,1,0,0	test	ward_and_allport	2,0,0,3,1,0,0,0,0	82.0	36.0	0.421	0,0,0,0,0,0,1,2,3	to_hand	s590
432.925	0.419	0	PA_without_intermediate	2,0,0,3,0,0,1,0,0	test	ward_and_allport	2,0,0,3,1,0,0,0,0	89.0	36.0	0.419	0,0,0,0,0,0,1,2,3	to_board	s590
433.354	0.656	0	PA_without_intermediate	2,0,0,3,0,0,0,0,0	test	ward_and_allport	2,0,0,3,1,0,0,0,0	82.0	36.0	0.656	0,0,0,0,0,0,1,2,3	to_hand	s590
434.012	0.44	0	PA_without_intermediate	2,0,0,3,1,0,0,0,0	test	ward_and_allport	2,0,0,3,1,0,0,0,0	71.0	36.0	0.44	0,0,0,0,0,0,1,2,3	to_board	s590
434.466	1.0	0	PA_without_intermediate	n/a	test	ward_and_allport	n/a	-1.0	36.0	n/a	n/a	feedback	s590
435.466	2.088	0	PA_without_intermediate	n/a	test	ward_and_allport	n/a	-1.0	36.0	n/a	n/a	ITI	s590
437.562	3.031	1	PA_with_intermediate	0,0,0,1,2,0,0,0,0	test	ward_and_allport	2,3,0,1,0,0,0,0,0	71.0	37.0	3.031	0,0,0,1,2,3,0,0,0	to_hand	s590
440.594	0.411	0	PA_with_intermediate	0,0,0,1,2,0,3,0,0	test	ward_and_allport	2,3,0,1,0,0,0,0,0	82.0	37.0	0.411	0,0,0,1,2,3,0,0,0	to_board	s590
441.013	0.364	0	PA_with_intermediate	0,0,0,1,0,0,3,0,0	test	ward_and_allport	2,3,0,1,0,0,0,0,0	71.0	37.0	0.364	0,0,0,1,2,3,0,0,0	to_hand	s590
441.378	0.346	0	PA_with_intermediate	2,0,0,1,0,0,3,0,0	test	ward_and_allport	2,3,0,1,0,0,0,0,0	89.0	37.0	0.346	0,0,0,1,2,3,0,0,0	to_board	s590
441.736	0.322	0	PA_with_intermediate	2,0,0,1,0,0,0,0,0	test	ward_and_allport	2,3,0,1,0,0,0,0,0	82.0	37.0	0.322	0,0,0,1,2,3,0,0,0	to_hand	s590
442.059	0.256	0	PA_with_intermediate	2,3,0,1,0,0,0,0,0	test	ward_and_allport	2,3,0,1,0,0,0,0,0	89.0	37.0	0.256	0,0,0,1,2,3,0,0,0	to_board	s590
442.328	1.0	0	PA_with_intermediate	n/a	test	ward_and_allport	n/a	-1.0	37.0	n/a	n/a	feedback	s590
443.328	1.0	0	PA_with_intermediate	n/a	test	ward_and_allport	n/a	-1.0	37.0	n/a	n/a	ITI	s590
444.338	2.268	1	PA_without_intermediate	0,0,0,1,2,0,0,0,0	test	ward_and_allport	1,0,0,0,0,0,3,2,0	71.0	38.0	2.268	0,0,0,1,2,3,0,0,0	to_hand	s590
446.607	0.309	0	PA_without_intermediate	0,0,0,1,2,0,3,0,0	test	ward_and_allport	1,0,0,0,0,0,3,2,0	82.0	38.0	0.309	0,0,0,1,2,3,0,0,0	to_board	s590
446.924	0.829	0	PA_without_intermediate	0,0,0,1,0,0,3,0,0	test	ward_and_allport	1,0,0,0,0,0,3,2,0	71.0	38.0	0.829	0,0,0,1,2,3,0,0,0	to_hand	s590
447.754	0.341	0	PA_without_intermediate	0,0,0,1,0,0,3,2,0	test	ward_and_allport	1,0,0,0,0,0,3,2,0	82.0	38.0	0.341	0,0,0,1,2,3,0,0,0	to_board	s590
448.103	0.524	0	PA_without_intermediate	0,0,0,0,0,0,3,2,0	test	ward_and_allport	1,0,0,0,0,0,3,2,0	71.0	38.0	0.524	0,0,0,1,2,3,0,0,0	to_hand	s590
448.629	0.306	0	PA_without_intermediate	1,0,0,0,0,0,3,2,0	test	ward_and_allport	1,0,0,0,0,0,3,2,0	89.0	38.0	0.306	0,0,0,1,2,3,0,0,0	to_board	s590
448.947	1.0	0	PA_without_intermediate	n/a	test	ward_and_allport	n/a	-1.0	38.0	n/a	n/a	feedback	s590
449.947	1.0	0	PA_without_intermediate	n/a	test	ward_and_allport	n/a	-1.0	38.0	n/a	n/a	ITI	s590
450.957	1.477	1	PA_without_intermediate	0,0,0,0,0,0,1,2,0	test	ward_and_allport	3,2,0,1,0,0,0,0,0	82.0	39.0	1.477	0,0,0,0,0,0,1,2,3	to_hand	s590
452.435	0.38	0	PA_without_intermediate	3,0,0,0,0,0,1,2,0	test	ward_and_allport	3,2,0,1,0,0,0,0,0	89.0	39.0	0.38	0,0,0,0,0,0,1,2,3	to_board	s590
452.823	0.754	0	PA_without_intermediate	3,0,0,0,0,0,1,0,0	test	ward_and_allport	3,2,0,1,0,0,0,0,0	82.0	39.0	0.754	0,0,0,0,0,0,1,2,3	to_hand	s590
453.578	0.385	0	PA_without_intermediate	3,2,0,0,0,0,1,0,0	test	ward_and_allport	3,2,0,1,0,0,0,0,0	89.0	39.0	0.385	0,0,0,0,0,0,1,2,3	to_board	s590
453.972	1.082	0	PA_without_intermediate	3,2,0,0,0,0,0,0,0	test	ward_and_allport	3,2,0,1,0,0,0,0,0	82.0	39.0	1.082	0,0,0,0,0,0,1,2,3	to_hand	s590
455.056	0.329	0	PA_without_intermediate	3,2,0,1,0,0,0,0,0	test	ward_and_allport	3,2,0,1,0,0,0,0,0	71.0	39.0	0.329	0,0,0,0,0,0,1,2,3	to_board	s590
455.395	1.0	0	PA_without_intermediate	n/a	test	ward_and_allport	n/a	-1.0	39.0	n/a	n/a	feedback	s590
456.395	1.0	0	PA_without_intermediate	n/a	test	ward_and_allport	n/a	-1.0	39.0	n/a	n/a	ITI	s590
457.405	3.468	1	PA_with_intermediate	1,2,0,0,0,0,0,0,0	test	ward_and_allport	1,3,0,0,0,0,2,0,0	89.0	40.0	3.468	1,2,3,0,0,0,0,0,0	to_hand	s590
460.875	0.397	0	PA_with_intermediate	1,2,0,3,0,0,0,0,0	test	ward_and_allport	1,3,0,0,0,0,2,0,0	71.0	40.0	0.397	1,2,3,0,0,0,0,0,0	to_board	s590
461.28	0.632	0	PA_with_intermediate	1,0,0,3,0,0,0,0,0	test	ward_and_allport	1,3,0,0,0,0,2,0,0	89.0	40.0	0.632	1,2,3,0,0,0,0,0,0	to_hand	s590
461.913	0.343	0	PA_with_intermediate	1,0,0,3,0,0,2,0,0	test	ward_and_allport	1,3,0,0,0,0,2,0,0	82.0	40.0	0.343	1,2,3,0,0,0,0,0,0	to_board	s590
462.265	0.681	0	PA_with_intermediate	1,0,0,0,0,0,2,0,0	test	ward_and_allport	1,3,0,0,0,0,2,0,0	71.0	40.0	0.681	1,2,3,0,0,0,0,0,0	to_hand	s590
462.948	0.472	0	PA_with_intermediate	1,3,0,0,0,0,2,0,0	test	ward_and_allport	1,3,0,0,0,0,2,0,0	89.0	40.0	0.472	1,2,3,0,0,0,0,0,0	to_board	s590
463.432	1.0	0	PA_with_intermediate	n/a	test	ward_and_allport	n/a	-1.0	40.0	n/a	n/a	feedback	s590
464.432	1.544	0	PA_with_intermediate	n/a	test	ward_and_allport	n/a	-1.0	40.0	n/a	n/a	ITI	s590
465.988	3.562	1	PA_without_intermediate	0,0,0,1,2,0,0,0,0	test	ward_and_allport	3,1,0,0,0,0,2,0,0	71.0	41.0	3.562	0,0,0,1,2,3,0,0,0	to_hand	s590
469.552	0.341	0	PA_without_intermediate	3,0,0,1,2,0,0,0,0	test	ward_and_allport	3,1,0,0,0,0,2,0,0	89.0	41.0	0.341	0,0,0,1,2,3,0,0,0	to_board	s590
469.904	0.57	0	PA_without_intermediate	3,0,0,1,0,0,0,0,0	test	ward_and_allport	3,1,0,0,0,0,2,0,0	71.0	41.0	0.57	0,0,0,1,2,3,0,0,0	to_hand	s590
470.475	0.336	0	PA_without_intermediate	3,0,0,1,0,0,2,0,0	test	ward_and_allport	3,1,0,0,0,0,2,0,0	82.0	41.0	0.336	0,0,0,1,2,3,0,0,0	to_board	s590
470.823	0.559	0	PA_without_intermediate	3,0,0,0,0,0,2,0,0	test	ward_and_allport	3,1,0,0,0,0,2,0,0	71.0	41.0	0.559	0,0,0,1,2,3,0,0,0	to_hand	s590
471.383	0.239	0	PA_without_intermediate	3,1,0,0,0,0,2,0,0	test	ward_and_allport	3,1,0,0,0,0,2,0,0	89.0	41.0	0.239	0,0,0,1,2,3,0,0,0	to_board	s590
471.639	1.0	0	PA_without_intermediate	n/a	test	ward_and_allport	n/a	-1.0	41.0	n/a	n/a	feedback	s590
472.639	1.272	0	PA_without_intermediate	n/a	test	ward_and_allport	n/a	-1.0	41.0	n/a	n/a	ITI	s590
473.919	2.354	1	PA_with_intermediate	0,0,0,1,2,0,0,0,0	test	ward_and_allport	0,0,0,1,3,0,2,0,0	71.0	42.0	2.354	0,0,0,1,2,3,0,0,0	to_hand	s590
476.275	7.627	0	PA_with_intermediate	3,0,0,1,2,0,0,0,0	test	ward_and_allport	0,0,0,1,3,0,2,0,0	89.0	42.0	7.627	0,0,0,1,2,3,0,0,0	to_board	s590
483.912	0.451	0	PA_with_intermediate	3,0,0,1,0,0,0,0,0	test	ward_and_allport	0,0,0,1,3,0,2,0,0	71.0	42.0	0.451	0,0,0,1,2,3,0,0,0	to_hand	s590
484.364	0.3	0	PA_with_intermediate	3,0,0,1,0,0,2,0,0	test	ward_and_allport	0,0,0,1,3,0,2,0,0	82.0	42.0	0.3	0,0,0,1,2,3,0,0,0	to_board	s590
484.675	0.334	0	PA_with_intermediate	0,0,0,1,0,0,2,0,0	test	ward_and_allport	0,0,0,1,3,0,2,0,0	89.0	42.0	0.334	0,0,0,1,2,3,0,0,0	to_hand	s590
485.01	0.228	0	PA_with_intermediate	0,0,0,1,3,0,2,0,0	test	ward_and_allport	0,0,0,1,3,0,2,0,0	71.0	42.0	0.228	0,0,0,1,2,3,0,0,0	to_board	s590
485.255	1.0	0	PA_with_intermediate	n/a	test	ward_and_allport	n/a	-1.0	42.0	n/a	n/a	feedback	s590
486.255	3.04	0	PA_with_intermediate	n/a	test	ward_and_allport	n/a	-1.0	42.0	n/a	n/a	ITI	s590
489.306	3.876	1	PA_with_intermediate	1,2,0,0,0,0,0,0,0	test	ward_and_allport	1,0,0,0,0,0,2,3,0	89.0	43.0	3.876	1,2,3,0,0,0,0,0,0	to_hand	s590
493.184	0.329	0	PA_with_intermediate	1,2,0,3,0,0,0,0,0	test	ward_and_allport	1,0,0,0,0,0,2,3,0	71.0	43.0	0.329	1,2,3,0,0,0,0,0,0	to_board	s590
493.522	0.734	0	PA_with_intermediate	1,0,0,3,0,0,0,0,0	test	ward_and_allport	1,0,0,0,0,0,2,3,0	89.0	43.0	0.734	1,2,3,0,0,0,0,0,0	to_hand	s590
494.258	0.35	0	PA_with_intermediate	1,0,0,3,0,0,2,0,0	test	ward_and_allport	1,0,0,0,0,0,2,3,0	82.0	43.0	0.35	1,2,3,0,0,0,0,0,0	to_board	s590
494.621	0.355	0	PA_with_intermediate	1,0,0,0,0,0,2,0,0	test	ward_and_allport	1,0,0,0,0,0,2,3,0	71.0	43.0	0.355	1,2,3,0,0,0,0,0,0	to_hand	s590
494.978	0.316	0	PA_with_intermediate	1,0,0,0,0,0,2,3,0	test	ward_and_allport	1,0,0,0,0,0,2,3,0	82.0	43.0	0.316	1,2,3,0,0,0,0,0,0	to_board	s590
495.311	1.0	0	PA_with_intermediate	n/a	test	ward_and_allport	n/a	-1.0	43.0	n/a	n/a	feedback	s590
496.311	1.272	0	PA_with_intermediate	n/a	test	ward_and_allport	n/a	-1.0	43.0	n/a	n/a	ITI	s590
497.593	3.967	1	PA_with_intermediate	0,0,0,0,0,0,1,2,0	test	ward_and_allport	0,0,0,2,0,0,1,3,0	82.0	44.0	3.967	0,0,0,0,0,0,1,2,3	to_hand	s590
501.561	0.393	0	PA_with_intermediate	3,0,0,0,0,0,1,2,0	test	ward_and_allport	0,0,0,2,0,0,1,3,0	89.0	44.0	0.393	0,0,0,0,0,0,1,2,3	to_board	s590
501.962	0.629	0	PA_with_intermediate	3,0,0,0,0,0,1,0,0	test	ward_and_allport	0,0,0,2,0,0,1,3,0	82.0	44.0	0.629	0,0,0,0,0,0,1,2,3	to_hand	s590
502.592	0.327	0	PA_with_intermediate	3,0,0,2,0,0,1,0,0	test	ward_and_allport	0,0,0,2,0,0,1,3,0	71.0	44.0	0.327	0,0,0,0,0,0,1,2,3	to_board	s590
502.93	0.378	0	PA_with_intermediate	0,0,0,2,0,0,1,0,0	test	ward_and_allport	0,0,0,2,0,0,1,3,0	89.0	44.0	0.378	0,0,0,0,0,0,1,2,3	to_hand	s590
503.31	0.253	0	PA_with_intermediate	0,0,0,2,0,0,1,3,0	test	ward_and_allport	0,0,0,2,0,0,1,3,0	82.0	44.0	0.253	0,0,0,0,0,0,1,2,3	to_board	s590
503.575	1.0	0	PA_with_intermediate	n/a	test	ward_and_allport	n/a	-1.0	44.0	n/a	n/a	feedback	s590
504.575	1.136	0	PA_with_intermediate	n/a	test	ward_and_allport	n/a	-1.0	44.0	n/a	n/a	ITI	s590
510.725	3.012	1	PA_with_intermediate	0,0,0,1,2,0,0,0,0	test	ward_and_allport	2,0,0,1,3,0,0,0,0	71.0	45.0	3.012	0,0,0,1,2,3,0,0,0	to_hand	s590
513.738	0.383	0	PA_with_intermediate	0,0,0,1,2,0,3,0,0	test	ward_and_allport	2,0,0,1,3,0,0,0,0	82.0	45.0	0.383	0,0,0,1,2,3,0,0,0	to_board	s590
514.136	0.419	0	PA_with_intermediate	0,0,0,1,0,0,3,0,0	test	ward_and_allport	2,0,0,1,3,0,0,0,0	71.0	45.0	0.419	0,0,0,1,2,3,0,0,0	to_hand	s590
514.556	0.287	0	PA_with_intermediate	2,0,0,1,0,0,3,0,0	test	ward_and_allport	2,0,0,1,3,0,0,0,0	89.0	45.0	0.287	0,0,0,1,2,3,0,0,0	to_board	s590
514.856	0.292	0	PA_with_intermediate	2,0,0,1,0,0,0,0,0	test	ward_and_allport	2,0,0,1,3,0,0,0,0	82.0	45.0	0.292	0,0,0,1,2,3,0,0,0	to_hand	s590
515.149	0.225	0	PA_with_intermediate	2,3,0,1,0,0,0,0,0	test	ward_and_allport	2,0,0,1,3,0,0,0,0	89.0	45.0	0.225	0,0,0,1,2,3,0,0,0	to_board	s590
515.388	1.299	0	PA_with_intermediate	2,0,0,1,0,0,0,0,0	test	ward_and_allport	2,0,0,1,3,0,0,0,0	89.0	45.0	1.299	0,0,0,1,2,3,0,0,0	to_hand	s590
516.689	0.204	0	PA_with_intermediate	2,0,0,1,0,0,3,0,0	test	ward_and_allport	2,0,0,1,3,0,0,0,0	82.0	45.0	0.204	0,0,0,1,2,3,0,0,0	to_board	s590
516.905	1.606	0	PA_with_intermediate	2,0,0,1,0,0,0,0,0	test	ward_and_allport	2,0,0,1,3,0,0,0,0	82.0	45.0	1.606	0,0,0,1,2,3,0,0,0	to_hand	s590
518.513	0.194	0	PA_with_intermediate	2,0,0,1,3,0,0,0,0	test	ward_and_allport	2,0,0,1,3,0,0,0,0	71.0	45.0	0.194	0,0,0,1,2,3,0,0,0	to_board	s590
518.72	1.0	0	PA_with_intermediate	n/a	test	ward_and_allport	n/a	-1.0	45.0	n/a	n/a	feedback	s590
519.72	1.0	0	PA_with_intermediate	n/a	test	ward_and_allport	n/a	-1.0	45.0	n/a	n/a	ITI	s590
520.73	6.184	1	PA_with_intermediate	0,0,0,0,0,0,1,2,0	test	ward_and_allport	2,3,0,0,0,0,1,0,0	82.0	46.0	6.184	0,0,0,0,0,0,1,2,3	to_hand	s590
526.915	0.597	0	PA_with_intermediate	0,0,0,3,0,0,1,2,0	test	ward_and_allport	2,3,0,0,0,0,1,0,0	71.0	46.0	0.597	0,0,0,0,0,0,1,2,3	to_board	s590
527.521	0.5	0	PA_with_intermediate	0,0,0,3,0,0,1,0,0	test	ward_and_allport	2,3,0,0,0,0,1,0,0	82.0	46.0	0.5	0,0,0,0,0,0,1,2,3	to_hand	s590
528.023	0.264	0	PA_with_intermediate	2,0,0,3,0,0,1,0,0	test	ward_and_allport	2,3,0,0,0,0,1,0,0	89.0	46.0	0.264	0,0,0,0,0,0,1,2,3	to_board	s590
528.299	0.451	0	PA_with_intermediate	2,0,0,0,0,0,1,0,0	test	ward_and_allport	2,3,0,0,0,0,1,0,0	71.0	46.0	0.451	0,0,0,0,0,0,1,2,3	to_hand	s590
528.752	0.374	0	PA_with_intermediate	2,3,0,0,0,0,1,0,0	test	ward_and_allport	2,3,0,0,0,0,1,0,0	89.0	46.0	0.374	0,0,0,0,0,0,1,2,3	to_board	s590
529.141	1.0	0	PA_with_intermediate	n/a	test	ward_and_allport	n/a	-1.0	46.0	n/a	n/a	feedback	s590
530.141	1.0	0	PA_with_intermediate	n/a	test	ward_and_allport	n/a	-1.0	46.0	n/a	n/a	ITI	s590
531.155	3.719	1	PA_without_intermediate	0,0,0,1,2,0,0,0,0	test	ward_and_allport	3,1,0,0,0,0,2,0,0	71.0	47.0	3.719	0,0,0,1,2,3,0,0,0	to_hand	s590
534.875	0.531	0	PA_without_intermediate	3,0,0,1,2,0,0,0,0	test	ward_and_allport	3,1,0,0,0,0,2,0,0	89.0	47.0	0.531	0,0,0,1,2,3,0,0,0	to_board	s590
535.415	1.855	0	PA_without_intermediate	3,0,0,1,0,0,0,0,0	test	ward_and_allport	3,1,0,0,0,0,2,0,0	71.0	47.0	1.855	0,0,0,1,2,3,0,0,0	to_hand	s590
537.272	0.373	0	PA_without_intermediate	3,0,0,1,0,0,2,0,0	test	ward_and_allport	3,1,0,0,0,0,2,0,0	82.0	47.0	0.373	0,0,0,1,2,3,0,0,0	to_board	s590
537.657	0.387	0	PA_without_intermediate	3,0,0,0,0,0,2,0,0	test	ward_and_allport	3,1,0,0,0,0,2,0,0	71.0	47.0	0.387	0,0,0,1,2,3,0,0,0	to_hand	s590
538.045	0.317	0	PA_without_intermediate	3,1,0,0,0,0,2,0,0	test	ward_and_allport	3,1,0,0,0,0,2,0,0	89.0	47.0	0.317	0,0,0,1,2,3,0,0,0	to_board	s590
538.378	1.0	0	PA_without_intermediate	n/a	test	ward_and_allport	n/a	-1.0	47.0	n/a	n/a	feedback	s590
539.378	1.408	0	PA_without_intermediate	n/a	test	ward_and_allport	n/a	-1.0	47.0	n/a	n/a	ITI	s590
n/a	n/a	0	n/a	n/a	n/a	n/a	n/a	n/a	n/a	n/a	n/a	ITI	n/a
