onset	duration	planning	condition	current_position	exp_stage	experiment_exp_id	goal_state	key_press	problem_id	response_time	start_state	trial_id	worker_id
-55.818	0.0	0	n/a	n/a	n/a	ward_and_allport	n/a	32.0	n/a	19.767	n/a	instructions	s568
3.007	4.187	1	UA_with_intermediate	1,0,0,2,0,0,0,0,0	practice	ward_and_allport	1,2,3,0,0,0,0,0,0	71.0	0.0	4.187	1,0,0,2,3,0,0,0,0	to_hand	s568
7.195	2.046	0	UA_with_intermediate	1,0,0,2,0,0,3,0,0	practice	ward_and_allport	1,2,3,0,0,0,0,0,0	82.0	0.0	2.046	1,0,0,2,3,0,0,0,0	to_board	s568
9.244	0.952	0	UA_with_intermediate	1,0,0,0,0,0,3,0,0	practice	ward_and_allport	1,2,3,0,0,0,0,0,0	71.0	0.0	0.952	1,0,0,2,3,0,0,0,0	to_hand	s568
10.198	0.905	0	UA_with_intermediate	1,2,0,0,0,0,3,0,0	practice	ward_and_allport	1,2,3,0,0,0,0,0,0	89.0	0.0	0.905	1,0,0,2,3,0,0,0,0	to_board	s568
11.104	1.466	0	UA_with_intermediate	1,2,0,0,0,0,0,0,0	practice	ward_and_allport	1,2,3,0,0,0,0,0,0	82.0	0.0	1.466	1,0,0,2,3,0,0,0,0	to_hand	s568
12.571	0.684	0	UA_with_intermediate	1,2,3,0,0,0,0,0,0	practice	ward_and_allport	1,2,3,0,0,0,0,0,0	89.0	0.0	0.684	1,0,0,2,3,0,0,0,0	to_board	s568
13.258	1.0	0	UA_with_intermediate	n/a	practice	ward_and_allport	n/a	-1.0	0.0	n/a	n/a	feedback	s568
15.761	4.666	1	UA_with_intermediate	1,0,0,3,0,0,0,0,0	practice	ward_and_allport	1,3,2,0,0,0,0,0,0	89.0	1.0	4.666	1,2,0,3,0,0,0,0,0	to_hand	s568
20.428	0.465	0	UA_with_intermediate	1,0,0,3,0,0,2,0,0	practice	ward_and_allport	1,3,2,0,0,0,0,0,0	82.0	1.0	0.465	1,2,0,3,0,0,0,0,0	to_board	s568
20.895	0.83	0	UA_with_intermediate	1,0,0,0,0,0,2,0,0	practice	ward_and_allport	1,3,2,0,0,0,0,0,0	71.0	1.0	0.83	1,2,0,3,0,0,0,0,0	to_hand	s568
21.726	0.82	0	UA_with_intermediate	1,3,0,0,0,0,2,0,0	practice	ward_and_allport	1,3,2,0,0,0,0,0,0	89.0	1.0	0.82	1,2,0,3,0,0,0,0,0	to_board	s568
22.548	1.058	0	UA_with_intermediate	1,3,0,0,0,0,0,0,0	practice	ward_and_allport	1,3,2,0,0,0,0,0,0	82.0	1.0	1.058	1,2,0,3,0,0,0,0,0	to_hand	s568
23.607	0.447	0	UA_with_intermediate	1,3,2,0,0,0,0,0,0	practice	ward_and_allport	1,3,2,0,0,0,0,0,0	89.0	1.0	0.447	1,2,0,3,0,0,0,0,0	to_board	s568
24.057	1.0	0	UA_with_intermediate	n/a	practice	ward_and_allport	n/a	-1.0	1.0	n/a	n/a	feedback	s568
25.057	1.1	0	UA_with_intermediate	n/a	practice	ward_and_allport	n/a	-1.0	1.0	n/a	n/a	ITI	s568
26.159	4.114	1	UA_without_intermediate	0,0,0,1,0,0,3,0,0	practice	ward_and_allport	3,2,1,0,0,0,0,0,0	71.0	2.0	4.114	0,0,0,1,2,0,3,0,0	to_hand	s568
30.275	4.072	0	UA_without_intermediate	0,0,0,1,0,0,3,2,0	practice	ward_and_allport	3,2,1,0,0,0,0,0,0	82.0	2.0	4.072	0,0,0,1,2,0,3,0,0	to_board	s568
34.349	4.897	0	UA_without_intermediate	0,0,0,1,0,0,3,0,0	practice	ward_and_allport	3,2,1,0,0,0,0,0,0	82.0	2.0	4.897	0,0,0,1,2,0,3,0,0	to_hand	s568
39.247	1.65	0	UA_without_intermediate	0,0,0,1,2,0,3,0,0	practice	ward_and_allport	3,2,1,0,0,0,0,0,0	71.0	2.0	1.65	0,0,0,1,2,0,3,0,0	to_board	s568
40.9	0.69	0	UA_without_intermediate	0,0,0,1,2,0,0,0,0	practice	ward_and_allport	3,2,1,0,0,0,0,0,0	82.0	2.0	0.69	0,0,0,1,2,0,3,0,0	to_hand	s568
41.59	0.714	0	UA_without_intermediate	3,0,0,1,2,0,0,0,0	practice	ward_and_allport	3,2,1,0,0,0,0,0,0	89.0	2.0	0.714	0,0,0,1,2,0,3,0,0	to_board	s568
42.307	1.316	0	UA_without_intermediate	3,0,0,1,0,0,0,0,0	practice	ward_and_allport	3,2,1,0,0,0,0,0,0	71.0	2.0	1.316	0,0,0,1,2,0,3,0,0	to_hand	s568
43.623	0.665	0	UA_without_intermediate	3,2,0,1,0,0,0,0,0	practice	ward_and_allport	3,2,1,0,0,0,0,0,0	89.0	2.0	0.665	0,0,0,1,2,0,3,0,0	to_board	s568
44.29	0.839	0	UA_without_intermediate	3,2,0,0,0,0,0,0,0	practice	ward_and_allport	3,2,1,0,0,0,0,0,0	71.0	2.0	0.839	0,0,0,1,2,0,3,0,0	to_hand	s568
45.131	0.359	0	UA_without_intermediate	3,2,1,0,0,0,0,0,0	practice	ward_and_allport	3,2,1,0,0,0,0,0,0	89.0	2.0	0.359	0,0,0,1,2,0,3,0,0	to_board	s568
45.493	1.0	0	UA_without_intermediate	n/a	practice	ward_and_allport	n/a	-1.0	2.0	n/a	n/a	feedback	s568
46.493	1.2	0	UA_without_intermediate	n/a	practice	ward_and_allport	n/a	-1.0	2.0	n/a	n/a	ITI	s568
47.695	3.149	1	UA_without_intermediate	0,0,0,1,0,0,3,0,0	practice	ward_and_allport	2,3,1,0,0,0,0,0,0	71.0	3.0	3.149	0,0,0,1,2,0,3,0,0	to_hand	s568
50.844	0.722	0	UA_without_intermediate	2,0,0,1,0,0,3,0,0	practice	ward_and_allport	2,3,1,0,0,0,0,0,0	89.0	3.0	0.722	0,0,0,1,2,0,3,0,0	to_board	s568
51.568	1.382	0	UA_without_intermediate	2,0,0,1,0,0,0,0,0	practice	ward_and_allport	2,3,1,0,0,0,0,0,0	82.0	3.0	1.382	0,0,0,1,2,0,3,0,0	to_hand	s568
52.952	0.497	0	UA_without_intermediate	2,3,0,1,0,0,0,0,0	practice	ward_and_allport	2,3,1,0,0,0,0,0,0	89.0	3.0	0.497	0,0,0,1,2,0,3,0,0	to_board	s568
53.451	0.972	0	UA_without_intermediate	2,3,0,0,0,0,0,0,0	practice	ward_and_allport	2,3,1,0,0,0,0,0,0	71.0	3.0	0.972	0,0,0,1,2,0,3,0,0	to_hand	s568
54.423	0.352	0	UA_without_intermediate	2,3,1,0,0,0,0,0,0	practice	ward_and_allport	2,3,1,0,0,0,0,0,0	89.0	3.0	0.352	0,0,0,1,2,0,3,0,0	to_board	s568
54.778	1.0	0	UA_without_intermediate	n/a	practice	ward_and_allport	n/a	-1.0	3.0	n/a	n/a	feedback	s568
55.778	1.0	0	UA_without_intermediate	n/a	practice	ward_and_allport	n/a	-1.0	3.0	n/a	n/a	ITI	s568
58.783	5.88	1	PA_with_intermediate	0,0,0,0,0,0,1,2,0	test	ward_and_allport	0,0,0,2,0,0,1,3,0	82.0	0.0	5.88	0,0,0,0,0,0,1,2,3	to_hand	s568
64.664	0.595	0	PA_with_intermediate	3,0,0,0,0,0,1,2,0	test	ward_and_allport	0,0,0,2,0,0,1,3,0	89.0	0.0	0.595	0,0,0,0,0,0,1,2,3	to_board	s568
65.261	1.11	0	PA_with_intermediate	3,0,0,0,0,0,1,0,0	test	ward_and_allport	0,0,0,2,0,0,1,3,0	82.0	0.0	1.11	0,0,0,0,0,0,1,2,3	to_hand	s568
66.372	1.441	0	PA_with_intermediate	3,0,0,2,0,0,1,0,0	test	ward_and_allport	0,0,0,2,0,0,1,3,0	71.0	0.0	1.441	0,0,0,0,0,0,1,2,3	to_board	s568
67.815	0.906	0	PA_with_intermediate	0,0,0,2,0,0,1,0,0	test	ward_and_allport	0,0,0,2,0,0,1,3,0	89.0	0.0	0.906	0,0,0,0,0,0,1,2,3	to_hand	s568
68.722	0.429	0	PA_with_intermediate	0,0,0,2,0,0,1,3,0	test	ward_and_allport	0,0,0,2,0,0,1,3,0	82.0	0.0	0.429	0,0,0,0,0,0,1,2,3	to_board	s568
69.154	1.0	0	PA_with_intermediate	n/a	test	ward_and_allport	n/a	-1.0	0.0	n/a	n/a	feedback	s568
70.154	1.408	0	PA_with_intermediate	n/a	test	ward_and_allport	n/a	-1.0	0.0	n/a	n/a	ITI	s568
71.564	5.815	1	PA_without_intermediate	0,0,0,1,2,0,0,0,0	test	ward_and_allport	3,1,0,0,0,0,2,0,0	71.0	1.0	5.815	0,0,0,1,2,3,0,0,0	to_hand	s568
77.38	0.713	0	PA_without_intermediate	3,0,0,1,2,0,0,0,0	test	ward_and_allport	3,1,0,0,0,0,2,0,0	89.0	1.0	0.713	0,0,0,1,2,3,0,0,0	to_board	s568
78.095	1.074	0	PA_without_intermediate	3,0,0,1,0,0,0,0,0	test	ward_and_allport	3,1,0,0,0,0,2,0,0	71.0	1.0	1.074	0,0,0,1,2,3,0,0,0	to_hand	s568
79.17	0.64	0	PA_without_intermediate	3,0,0,1,0,0,2,0,0	test	ward_and_allport	3,1,0,0,0,0,2,0,0	82.0	1.0	0.64	0,0,0,1,2,3,0,0,0	to_board	s568
79.812	0.528	0	PA_without_intermediate	3,0,0,0,0,0,2,0,0	test	ward_and_allport	3,1,0,0,0,0,2,0,0	71.0	1.0	0.528	0,0,0,1,2,3,0,0,0	to_hand	s568
80.342	0.335	0	PA_without_intermediate	3,1,0,0,0,0,2,0,0	test	ward_and_allport	3,1,0,0,0,0,2,0,0	89.0	1.0	0.335	0,0,0,1,2,3,0,0,0	to_board	s568
80.681	1.0	0	PA_without_intermediate	n/a	test	ward_and_allport	n/a	-1.0	1.0	n/a	n/a	feedback	s568
81.681	1.68	0	PA_without_intermediate	n/a	test	ward_and_allport	n/a	-1.0	1.0	n/a	n/a	ITI	s568
83.363	4.116	1	PA_with_intermediate	1,2,0,0,0,0,0,0,0	test	ward_and_allport	1,0,0,2,3,0,0,0,0	89.0	2.0	4.116	1,2,3,0,0,0,0,0,0	to_hand	s568
87.481	0.716	0	PA_with_intermediate	1,2,0,0,0,0,3,0,0	test	ward_and_allport	1,0,0,2,3,0,0,0,0	82.0	2.0	0.716	1,2,3,0,0,0,0,0,0	to_board	s568
88.199	0.891	0	PA_with_intermediate	1,0,0,0,0,0,3,0,0	test	ward_and_allport	1,0,0,2,3,0,0,0,0	89.0	2.0	0.891	1,2,3,0,0,0,0,0,0	to_hand	s568
89.092	0.559	0	PA_with_intermediate	1,0,0,2,0,0,3,0,0	test	ward_and_allport	1,0,0,2,3,0,0,0,0	71.0	2.0	0.559	1,2,3,0,0,0,0,0,0	to_board	s568
89.652	0.817	0	PA_with_intermediate	1,0,0,2,0,0,0,0,0	test	ward_and_allport	1,0,0,2,3,0,0,0,0	82.0	2.0	0.817	1,2,3,0,0,0,0,0,0	to_hand	s568
90.469	0.956	0	PA_with_intermediate	1,0,0,2,3,0,0,0,0	test	ward_and_allport	1,0,0,2,3,0,0,0,0	71.0	2.0	0.956	1,2,3,0,0,0,0,0,0	to_board	s568
91.43	1.0	0	PA_with_intermediate	n/a	test	ward_and_allport	n/a	-1.0	2.0	n/a	n/a	feedback	s568
92.43	3.72	0	PA_with_intermediate	n/a	test	ward_and_allport	n/a	-1.0	2.0	n/a	n/a	ITI	s568
96.152	3.666	1	PA_without_intermediate	1,2,0,0,0,0,0,0,0	test	ward_and_allport	0,0,0,3,2,0,1,0,0	89.0	3.0	3.666	1,2,3,0,0,0,0,0,0	to_hand	s568
99.82	0.385	0	PA_without_intermediate	1,2,0,3,0,0,0,0,0	test	ward_and_allport	0,0,0,3,2,0,1,0,0	71.0	3.0	0.385	1,2,3,0,0,0,0,0,0	to_board	s568
100.207	1.209	0	PA_without_intermediate	1,0,0,3,0,0,0,0,0	test	ward_and_allport	0,0,0,3,2,0,1,0,0	89.0	3.0	1.209	1,2,3,0,0,0,0,0,0	to_hand	s568
101.416	0.793	0	PA_without_intermediate	1,0,0,3,2,0,0,0,0	test	ward_and_allport	0,0,0,3,2,0,1,0,0	71.0	3.0	0.793	1,2,3,0,0,0,0,0,0	to_board	s568
102.211	0.768	0	PA_without_intermediate	0,0,0,3,2,0,0,0,0	test	ward_and_allport	0,0,0,3,2,0,1,0,0	89.0	3.0	0.768	1,2,3,0,0,0,0,0,0	to_hand	s568
102.981	0.469	0	PA_without_intermediate	0,0,0,3,2,0,1,0,0	test	ward_and_allport	0,0,0,3,2,0,1,0,0	82.0	3.0	0.469	1,2,3,0,0,0,0,0,0	to_board	s568
103.453	1.0	0	PA_without_intermediate	n/a	test	ward_and_allport	n/a	-1.0	3.0	n/a	n/a	feedback	s568
104.453	2.224	0	PA_without_intermediate	n/a	test	ward_and_allport	n/a	-1.0	3.0	n/a	n/a	ITI	s568
106.681	2.611	1	PA_without_intermediate	0,0,0,1,2,0,0,0,0	test	ward_and_allport	2,0,0,0,0,0,3,1,0	71.0	4.0	2.611	0,0,0,1,2,3,0,0,0	to_hand	s568
109.293	0.682	0	PA_without_intermediate	0,0,0,1,2,0,3,0,0	test	ward_and_allport	2,0,0,0,0,0,3,1,0	82.0	4.0	0.682	0,0,0,1,2,3,0,0,0	to_board	s568
109.978	0.549	0	PA_without_intermediate	0,0,0,1,0,0,3,0,0	test	ward_and_allport	2,0,0,0,0,0,3,1,0	71.0	4.0	0.549	0,0,0,1,2,3,0,0,0	to_hand	s568
110.528	0.448	0	PA_without_intermediate	2,0,0,1,0,0,3,0,0	test	ward_and_allport	2,0,0,0,0,0,3,1,0	89.0	4.0	0.448	0,0,0,1,2,3,0,0,0	to_board	s568
110.979	0.609	0	PA_without_intermediate	2,0,0,0,0,0,3,0,0	test	ward_and_allport	2,0,0,0,0,0,3,1,0	71.0	4.0	0.609	0,0,0,1,2,3,0,0,0	to_hand	s568
111.588	0.477	0	PA_without_intermediate	2,0,0,0,0,0,3,1,0	test	ward_and_allport	2,0,0,0,0,0,3,1,0	82.0	4.0	0.477	0,0,0,1,2,3,0,0,0	to_board	s568
112.069	1.0	0	PA_without_intermediate	n/a	test	ward_and_allport	n/a	-1.0	4.0	n/a	n/a	feedback	s568
113.069	1.272	0	PA_without_intermediate	n/a	test	ward_and_allport	n/a	-1.0	4.0	n/a	n/a	ITI	s568
114.345	4.107	1	PA_with_intermediate	0,0,0,0,0,0,1,2,0	test	ward_and_allport	2,3,0,0,0,0,1,0,0	82.0	5.0	4.107	0,0,0,0,0,0,1,2,3	to_hand	s568
118.453	1.061	0	PA_with_intermediate	0,0,0,3,0,0,1,2,0	test	ward_and_allport	2,3,0,0,0,0,1,0,0	71.0	5.0	1.061	0,0,0,0,0,0,1,2,3	to_board	s568
119.516	0.591	0	PA_with_intermediate	0,0,0,3,0,0,1,0,0	test	ward_and_allport	2,3,0,0,0,0,1,0,0	82.0	5.0	0.591	0,0,0,0,0,0,1,2,3	to_hand	s568
120.108	0.658	0	PA_with_intermediate	2,0,0,3,0,0,1,0,0	test	ward_and_allport	2,3,0,0,0,0,1,0,0	89.0	5.0	0.658	0,0,0,0,0,0,1,2,3	to_board	s568
120.77	1.01	0	PA_with_intermediate	2,0,0,0,0,0,1,0,0	test	ward_and_allport	2,3,0,0,0,0,1,0,0	71.0	5.0	1.01	0,0,0,0,0,0,1,2,3	to_hand	s568
121.781	0.402	0	PA_with_intermediate	2,3,0,0,0,0,1,0,0	test	ward_and_allport	2,3,0,0,0,0,1,0,0	89.0	5.0	0.402	0,0,0,0,0,0,1,2,3	to_board	s568
122.187	1.0	0	PA_with_intermediate	n/a	test	ward_and_allport	n/a	-1.0	5.0	n/a	n/a	feedback	s568
123.187	2.632	0	PA_with_intermediate	n/a	test	ward_and_allport	n/a	-1.0	5.0	n/a	n/a	ITI	s568
125.821	2.93	1	PA_without_intermediate	1,2,0,0,0,0,0,0,0	test	ward_and_allport	0,0,0,3,1,0,2,0,0	89.0	6.0	2.93	1,2,3,0,0,0,0,0,0	to_hand	s568
128.751	0.576	0	PA_without_intermediate	1,2,0,3,0,0,0,0,0	test	ward_and_allport	0,0,0,3,1,0,2,0,0	71.0	6.0	0.576	1,2,3,0,0,0,0,0,0	to_board	s568
129.33	1.023	0	PA_without_intermediate	1,0,0,3,0,0,0,0,0	test	ward_and_allport	0,0,0,3,1,0,2,0,0	89.0	6.0	1.023	1,2,3,0,0,0,0,0,0	to_hand	s568
130.354	0.582	0	PA_without_intermediate	1,0,0,3,0,0,2,0,0	test	ward_and_allport	0,0,0,3,1,0,2,0,0	82.0	6.0	0.582	1,2,3,0,0,0,0,0,0	to_board	s568
130.94	0.799	0	PA_without_intermediate	0,0,0,3,0,0,2,0,0	test	ward_and_allport	0,0,0,3,1,0,2,0,0	89.0	6.0	0.799	1,2,3,0,0,0,0,0,0	to_hand	s568
131.74	0.392	0	PA_without_intermediate	0,0,0,3,1,0,2,0,0	test	ward_and_allport	0,0,0,3,1,0,2,0,0	71.0	6.0	0.392	1,2,3,0,0,0,0,0,0	to_board	s568
132.136	1.0	0	PA_without_intermediate	n/a	test	ward_and_allport	n/a	-1.0	6.0	n/a	n/a	feedback	s568
133.136	1.408	0	PA_without_intermediate	n/a	test	ward_and_allport	n/a	-1.0	6.0	n/a	n/a	ITI	s568
134.548	2.772	1	PA_without_intermediate	1,2,0,0,0,0,0,0,0	test	ward_and_allport	0,0,0,2,0,0,3,1,0	89.0	7.0	2.772	1,2,3,0,0,0,0,0,0	to_hand	s568
137.32	1.106	0	PA_without_intermediate	1,2,0,0,0,0,3,0,0	test	ward_and_allport	0,0,0,2,0,0,3,1,0	82.0	7.0	1.106	1,2,3,0,0,0,0,0,0	to_board	s568
138.429	1.582	0	PA_without_intermediate	1,0,0,0,0,0,3,0,0	test	ward_and_allport	0,0,0,2,0,0,3,1,0	89.0	7.0	1.582	1,2,3,0,0,0,0,0,0	to_hand	s568
140.012	0.34	0	PA_without_intermediate	1,0,0,2,0,0,3,0,0	test	ward_and_allport	0,0,0,2,0,0,3,1,0	71.0	7.0	0.34	1,2,3,0,0,0,0,0,0	to_board	s568
140.355	0.649	0	PA_without_intermediate	0,0,0,2,0,0,3,0,0	test	ward_and_allport	0,0,0,2,0,0,3,1,0	89.0	7.0	0.649	1,2,3,0,0,0,0,0,0	to_hand	s568
141.005	0.381	0	PA_without_intermediate	0,0,0,2,0,0,3,1,0	test	ward_and_allport	0,0,0,2,0,0,3,1,0	82.0	7.0	0.381	1,2,3,0,0,0,0,0,0	to_board	s568
141.391	1.0	0	PA_without_intermediate	n/a	test	ward_and_allport	n/a	-1.0	7.0	n/a	n/a	feedback	s568
142.391	1.0	0	PA_without_intermediate	n/a	test	ward_and_allport	n/a	-1.0	7.0	n/a	n/a	ITI	s568
143.394	2.449	1	PA_with_intermediate	1,2,0,0,0,0,0,0,0	test	ward_and_allport	1,0,0,2,3,0,0,0,0	89.0	8.0	2.449	1,2,3,0,0,0,0,0,0	to_hand	s568
145.844	1.552	0	PA_with_intermediate	1,2,0,0,0,0,3,0,0	test	ward_and_allport	1,0,0,2,3,0,0,0,0	82.0	8.0	1.552	1,2,3,0,0,0,0,0,0	to_board	s568
147.399	0.408	0	PA_with_intermediate	1,0,0,0,0,0,3,0,0	test	ward_and_allport	1,0,0,2,3,0,0,0,0	89.0	8.0	0.408	1,2,3,0,0,0,0,0,0	to_hand	s568
147.807	0.625	0	PA_with_intermediate	1,0,0,2,0,0,3,0,0	test	ward_and_allport	1,0,0,2,3,0,0,0,0	71.0	8.0	0.625	1,2,3,0,0,0,0,0,0	to_board	s568
148.435	1.965	0	PA_with_intermediate	1,0,0,2,0,0,0,0,0	test	ward_and_allport	1,0,0,2,3,0,0,0,0	82.0	8.0	1.965	1,2,3,0,0,0,0,0,0	to_hand	s568
150.4	0.42	0	PA_with_intermediate	1,0,0,2,3,0,0,0,0	test	ward_and_allport	1,0,0,2,3,0,0,0,0	71.0	8.0	0.42	1,2,3,0,0,0,0,0,0	to_board	s568
150.824	1.0	0	PA_with_intermediate	n/a	test	ward_and_allport	n/a	-1.0	8.0	n/a	n/a	feedback	s568
151.824	1.0	0	PA_with_intermediate	n/a	test	ward_and_allport	n/a	-1.0	8.0	n/a	n/a	ITI	s568
152.827	4.813	1	PA_with_intermediate	0,0,0,0,0,0,1,2,0	test	ward_and_allport	0,0,0,2,3,0,1,0,0	82.0	9.0	4.813	0,0,0,0,0,0,1,2,3	to_hand	s568
157.641	0.692	0	PA_with_intermediate	3,0,0,0,0,0,1,2,0	test	ward_and_allport	0,0,0,2,3,0,1,0,0	89.0	9.0	0.692	0,0,0,0,0,0,1,2,3	to_board	s568
158.336	0.73	0	PA_with_intermediate	3,0,0,0,0,0,1,0,0	test	ward_and_allport	0,0,0,2,3,0,1,0,0	82.0	9.0	0.73	0,0,0,0,0,0,1,2,3	to_hand	s568
159.067	0.556	0	PA_with_intermediate	3,0,0,2,0,0,1,0,0	test	ward_and_allport	0,0,0,2,3,0,1,0,0	71.0	9.0	0.556	0,0,0,0,0,0,1,2,3	to_board	s568
159.627	0.712	0	PA_with_intermediate	0,0,0,2,0,0,1,0,0	test	ward_and_allport	0,0,0,2,3,0,1,0,0	89.0	9.0	0.712	0,0,0,0,0,0,1,2,3	to_hand	s568
160.341	0.721	0	PA_with_intermediate	0,0,0,2,0,0,1,3,0	test	ward_and_allport	0,0,0,2,3,0,1,0,0	82.0	9.0	0.721	0,0,0,0,0,0,1,2,3	to_board	s568
161.066	2.904	0	PA_with_intermediate	0,0,0,0,0,0,1,3,0	test	ward_and_allport	0,0,0,2,3,0,1,0,0	71.0	9.0	2.904	0,0,0,0,0,0,1,2,3	to_hand	s568
163.972	1.584	0	PA_with_intermediate	0,0,0,2,0,0,1,3,0	test	ward_and_allport	0,0,0,2,3,0,1,0,0	71.0	9.0	1.584	0,0,0,0,0,0,1,2,3	to_board	s568
165.56	0.586	0	PA_with_intermediate	0,0,0,2,0,0,1,0,0	test	ward_and_allport	0,0,0,2,3,0,1,0,0	82.0	9.0	0.586	0,0,0,0,0,0,1,2,3	to_hand	s568
166.148	0.707	0	PA_with_intermediate	0,0,0,2,3,0,1,0,0	test	ward_and_allport	0,0,0,2,3,0,1,0,0	71.0	9.0	0.707	0,0,0,0,0,0,1,2,3	to_board	s568
166.859	1.0	0	PA_with_intermediate	n/a	test	ward_and_allport	n/a	-1.0	9.0	n/a	n/a	feedback	s568
167.859	1.0	0	PA_with_intermediate	n/a	test	ward_and_allport	n/a	-1.0	9.0	n/a	n/a	ITI	s568
168.863	3.948	1	PA_with_intermediate	1,2,0,0,0,0,0,0,0	test	ward_and_allport	1,3,0,0,0,0,2,0,0	89.0	10.0	3.948	1,2,3,0,0,0,0,0,0	to_hand	s568
172.813	1.093	0	PA_with_intermediate	1,2,0,3,0,0,0,0,0	test	ward_and_allport	1,3,0,0,0,0,2,0,0	71.0	10.0	1.093	1,2,3,0,0,0,0,0,0	to_board	s568
173.91	0.574	0	PA_with_intermediate	1,0,0,3,0,0,0,0,0	test	ward_and_allport	1,3,0,0,0,0,2,0,0	89.0	10.0	0.574	1,2,3,0,0,0,0,0,0	to_hand	s568
174.485	0.439	0	PA_with_intermediate	1,0,0,3,0,0,2,0,0	test	ward_and_allport	1,3,0,0,0,0,2,0,0	82.0	10.0	0.439	1,2,3,0,0,0,0,0,0	to_board	s568
174.928	0.517	0	PA_with_intermediate	1,0,0,0,0,0,2,0,0	test	ward_and_allport	1,3,0,0,0,0,2,0,0	71.0	10.0	0.517	1,2,3,0,0,0,0,0,0	to_hand	s568
175.446	0.567	0	PA_with_intermediate	1,3,0,0,0,0,2,0,0	test	ward_and_allport	1,3,0,0,0,0,2,0,0	89.0	10.0	0.567	1,2,3,0,0,0,0,0,0	to_board	s568
176.019	1.0	0	PA_with_intermediate	n/a	test	ward_and_allport	n/a	-1.0	10.0	n/a	n/a	feedback	s568
177.019	1.408	0	PA_with_intermediate	n/a	test	ward_and_allport	n/a	-1.0	10.0	n/a	n/a	ITI	s568
178.432	3.505	1	PA_without_intermediate	0,0,0,0,0,0,1,2,0	test	ward_and_allport	3,2,0,1,0,0,0,0,0	82.0	11.0	3.505	0,0,0,0,0,0,1,2,3	to_hand	s568
181.937	0.632	0	PA_without_intermediate	3,0,0,0,0,0,1,2,0	test	ward_and_allport	3,2,0,1,0,0,0,0,0	89.0	11.0	0.632	0,0,0,0,0,0,1,2,3	to_board	s568
182.574	0.743	0	PA_without_intermediate	3,0,0,0,0,0,1,0,0	test	ward_and_allport	3,2,0,1,0,0,0,0,0	82.0	11.0	0.743	0,0,0,0,0,0,1,2,3	to_hand	s568
183.317	0.842	0	PA_without_intermediate	3,2,0,0,0,0,1,0,0	test	ward_and_allport	3,2,0,1,0,0,0,0,0	89.0	11.0	0.842	0,0,0,0,0,0,1,2,3	to_board	s568
184.164	1.671	0	PA_without_intermediate	3,2,0,0,0,0,0,0,0	test	ward_and_allport	3,2,0,1,0,0,0,0,0	82.0	11.0	1.671	0,0,0,0,0,0,1,2,3	to_hand	s568
185.836	0.462	0	PA_without_intermediate	3,2,0,1,0,0,0,0,0	test	ward_and_allport	3,2,0,1,0,0,0,0,0	71.0	11.0	0.462	0,0,0,0,0,0,1,2,3	to_board	s568
186.303	1.0	0	PA_without_intermediate	n/a	test	ward_and_allport	n/a	-1.0	11.0	n/a	n/a	feedback	s568
187.303	1.816	0	PA_without_intermediate	n/a	test	ward_and_allport	n/a	-1.0	11.0	n/a	n/a	ITI	s568
189.124	3.18	1	PA_with_intermediate	0,0,0,1,2,0,0,0,0	test	ward_and_allport	2,3,0,1,0,0,0,0,0	71.0	12.0	3.18	0,0,0,1,2,3,0,0,0	to_hand	s568
192.304	0.825	0	PA_with_intermediate	0,0,0,1,2,0,3,0,0	test	ward_and_allport	2,3,0,1,0,0,0,0,0	82.0	12.0	0.825	0,0,0,1,2,3,0,0,0	to_board	s568
193.134	0.412	0	PA_with_intermediate	0,0,0,1,0,0,3,0,0	test	ward_and_allport	2,3,0,1,0,0,0,0,0	71.0	12.0	0.412	0,0,0,1,2,3,0,0,0	to_hand	s568
193.547	0.382	0	PA_with_intermediate	2,0,0,1,0,0,3,0,0	test	ward_and_allport	2,3,0,1,0,0,0,0,0	89.0	12.0	0.382	0,0,0,1,2,3,0,0,0	to_board	s568
193.933	0.794	0	PA_with_intermediate	2,0,0,1,0,0,0,0,0	test	ward_and_allport	2,3,0,1,0,0,0,0,0	82.0	12.0	0.794	0,0,0,1,2,3,0,0,0	to_hand	s568
194.728	0.521	0	PA_with_intermediate	2,3,0,1,0,0,0,0,0	test	ward_and_allport	2,3,0,1,0,0,0,0,0	89.0	12.0	0.521	0,0,0,1,2,3,0,0,0	to_board	s568
195.255	1.0	0	PA_with_intermediate	n/a	test	ward_and_allport	n/a	-1.0	12.0	n/a	n/a	feedback	s568
196.255	3.176	0	PA_with_intermediate	n/a	test	ward_and_allport	n/a	-1.0	12.0	n/a	n/a	ITI	s568
199.434	3.252	1	PA_with_intermediate	0,0,0,0,0,0,1,2,0	test	ward_and_allport	0,0,0,2,3,0,1,0,0	82.0	13.0	3.252	0,0,0,0,0,0,1,2,3	to_hand	s568
202.688	2.654	0	PA_with_intermediate	3,0,0,0,0,0,1,2,0	test	ward_and_allport	0,0,0,2,3,0,1,0,0	89.0	13.0	2.654	0,0,0,0,0,0,1,2,3	to_board	s568
205.346	0.656	0	PA_with_intermediate	3,0,0,0,0,0,1,0,0	test	ward_and_allport	0,0,0,2,3,0,1,0,0	82.0	13.0	0.656	0,0,0,0,0,0,1,2,3	to_hand	s568
206.003	0.8	0	PA_with_intermediate	3,0,0,2,0,0,1,0,0	test	ward_and_allport	0,0,0,2,3,0,1,0,0	71.0	13.0	0.8	0,0,0,0,0,0,1,2,3	to_board	s568
206.808	0.672	0	PA_with_intermediate	0,0,0,2,0,0,1,0,0	test	ward_and_allport	0,0,0,2,3,0,1,0,0	89.0	13.0	0.672	0,0,0,0,0,0,1,2,3	to_hand	s568
207.482	0.476	0	PA_with_intermediate	0,0,0,2,3,0,1,0,0	test	ward_and_allport	0,0,0,2,3,0,1,0,0	71.0	13.0	0.476	0,0,0,0,0,0,1,2,3	to_board	s568
207.963	1.0	0	PA_with_intermediate	n/a	test	ward_and_allport	n/a	-1.0	13.0	n/a	n/a	feedback	s568
208.963	2.36	0	PA_with_intermediate	n/a	test	ward_and_allport	n/a	-1.0	13.0	n/a	n/a	ITI	s568
211.328	3.515	1	PA_with_intermediate	0,0,0,0,0,0,1,2,0	test	ward_and_allport	2,0,0,0,0,0,1,3,0	82.0	14.0	3.515	0,0,0,0,0,0,1,2,3	to_hand	s568
214.843	1.023	0	PA_with_intermediate	0,0,0,3,0,0,1,2,0	test	ward_and_allport	2,0,0,0,0,0,1,3,0	71.0	14.0	1.023	0,0,0,0,0,0,1,2,3	to_board	s568
215.871	0.524	0	PA_with_intermediate	0,0,0,3,0,0,1,0,0	test	ward_and_allport	2,0,0,0,0,0,1,3,0	82.0	14.0	0.524	0,0,0,0,0,0,1,2,3	to_hand	s568
216.395	0.573	0	PA_with_intermediate	2,0,0,3,0,0,1,0,0	test	ward_and_allport	2,0,0,0,0,0,1,3,0	89.0	14.0	0.573	0,0,0,0,0,0,1,2,3	to_board	s568
216.972	1.304	0	PA_with_intermediate	2,0,0,0,0,0,1,0,0	test	ward_and_allport	2,0,0,0,0,0,1,3,0	71.0	14.0	1.304	0,0,0,0,0,0,1,2,3	to_hand	s568
218.277	0.425	0	PA_with_intermediate	2,0,0,0,0,0,1,3,0	test	ward_and_allport	2,0,0,0,0,0,1,3,0	82.0	14.0	0.425	0,0,0,0,0,0,1,2,3	to_board	s568
218.707	1.0	0	PA_with_intermediate	n/a	test	ward_and_allport	n/a	-1.0	14.0	n/a	n/a	feedback	s568
219.707	1.0	0	PA_with_intermediate	n/a	test	ward_and_allport	n/a	-1.0	14.0	n/a	n/a	ITI	s568
225.713	2.819	1	PA_without_intermediate	0,0,0,1,2,0,0,0,0	test	ward_and_allport	3,2,0,0,0,0,1,0,0	71.0	15.0	2.819	0,0,0,1,2,3,0,0,0	to_hand	s568
228.534	0.418	0	PA_without_intermediate	3,0,0,1,2,0,0,0,0	test	ward_and_allport	3,2,0,0,0,0,1,0,0	89.0	15.0	0.418	0,0,0,1,2,3,0,0,0	to_board	s568
228.957	0.709	0	PA_without_intermediate	3,0,0,1,0,0,0,0,0	test	ward_and_allport	3,2,0,0,0,0,1,0,0	71.0	15.0	0.709	0,0,0,1,2,3,0,0,0	to_hand	s568
229.667	0.524	0	PA_without_intermediate	3,2,0,1,0,0,0,0,0	test	ward_and_allport	3,2,0,0,0,0,1,0,0	89.0	15.0	0.524	0,0,0,1,2,3,0,0,0	to_board	s568
230.195	0.754	0	PA_without_intermediate	3,2,0,0,0,0,0,0,0	test	ward_and_allport	3,2,0,0,0,0,1,0,0	71.0	15.0	0.754	0,0,0,1,2,3,0,0,0	to_hand	s568
230.951	0.557	0	PA_without_intermediate	3,2,0,0,0,0,1,0,0	test	ward_and_allport	3,2,0,0,0,0,1,0,0	82.0	15.0	0.557	0,0,0,1,2,3,0,0,0	to_board	s568
231.513	1.0	0	PA_without_intermediate	n/a	test	ward_and_allport	n/a	-1.0	15.0	n/a	n/a	feedback	s568
232.513	1.408	0	PA_without_intermediate	n/a	test	ward_and_allport	n/a	-1.0	15.0	n/a	n/a	ITI	s568
233.927	4.022	1	PA_with_intermediate	1,2,0,0,0,0,0,0,0	test	ward_and_allport	1,3,0,2,0,0,0,0,0	89.0	16.0	4.022	1,2,3,0,0,0,0,0,0	to_hand	s568
237.951	2.026	0	PA_with_intermediate	1,2,0,0,0,0,3,0,0	test	ward_and_allport	1,3,0,2,0,0,0,0,0	82.0	16.0	2.026	1,2,3,0,0,0,0,0,0	to_board	s568
239.98	0.405	0	PA_with_intermediate	1,0,0,0,0,0,3,0,0	test	ward_and_allport	1,3,0,2,0,0,0,0,0	89.0	16.0	0.405	1,2,3,0,0,0,0,0,0	to_hand	s568
240.386	0.494	0	PA_with_intermediate	1,0,0,2,0,0,3,0,0	test	ward_and_allport	1,3,0,2,0,0,0,0,0	71.0	16.0	0.494	1,2,3,0,0,0,0,0,0	to_board	s568
240.884	1.082	0	PA_with_intermediate	1,0,0,2,0,0,0,0,0	test	ward_and_allport	1,3,0,2,0,0,0,0,0	82.0	16.0	1.082	1,2,3,0,0,0,0,0,0	to_hand	s568
241.967	0.32	0	PA_with_intermediate	1,3,0,2,0,0,0,0,0	test	ward_and_allport	1,3,0,2,0,0,0,0,0	89.0	16.0	0.32	1,2,3,0,0,0,0,0,0	to_board	s568
242.293	1.0	0	PA_with_intermediate	n/a	test	ward_and_allport	n/a	-1.0	16.0	n/a	n/a	feedback	s568
243.293	1.816	0	PA_with_intermediate	n/a	test	ward_and_allport	n/a	-1.0	16.0	n/a	n/a	ITI	s568
245.114	3.095	1	PA_without_intermediate	0,0,0,0,0,0,1,2,0	test	ward_and_allport	2,0,0,3,1,0,0,0,0	82.0	17.0	3.095	0,0,0,0,0,0,1,2,3	to_hand	s568
248.211	0.733	0	PA_without_intermediate	0,0,0,3,0,0,1,2,0	test	ward_and_allport	2,0,0,3,1,0,0,0,0	71.0	17.0	0.733	0,0,0,0,0,0,1,2,3	to_board	s568
248.949	0.793	0	PA_without_intermediate	0,0,0,3,0,0,1,0,0	test	ward_and_allport	2,0,0,3,1,0,0,0,0	82.0	17.0	0.793	0,0,0,0,0,0,1,2,3	to_hand	s568
249.743	0.38	0	PA_without_intermediate	2,0,0,3,0,0,1,0,0	test	ward_and_allport	2,0,0,3,1,0,0,0,0	89.0	17.0	0.38	0,0,0,0,0,0,1,2,3	to_board	s568
250.128	0.617	0	PA_without_intermediate	2,0,0,3,0,0,0,0,0	test	ward_and_allport	2,0,0,3,1,0,0,0,0	82.0	17.0	0.617	0,0,0,0,0,0,1,2,3	to_hand	s568
250.745	1.332	0	PA_without_intermediate	2,0,0,3,1,0,0,0,0	test	ward_and_allport	2,0,0,3,1,0,0,0,0	71.0	17.0	1.332	0,0,0,0,0,0,1,2,3	to_board	s568
252.083	1.0	0	PA_without_intermediate	n/a	test	ward_and_allport	n/a	-1.0	17.0	n/a	n/a	feedback	s568
253.083	2.088	0	PA_without_intermediate	n/a	test	ward_and_allport	n/a	-1.0	17.0	n/a	n/a	ITI	s568
255.177	3.271	1	PA_without_intermediate	1,2,0,0,0,0,0,0,0	test	ward_and_allport	0,0,0,1,0,0,3,2,0	89.0	18.0	3.271	1,2,3,0,0,0,0,0,0	to_hand	s568
258.449	0.411	0	PA_without_intermediate	1,2,0,0,0,0,3,0,0	test	ward_and_allport	0,0,0,1,0,0,3,2,0	82.0	18.0	0.411	1,2,3,0,0,0,0,0,0	to_board	s568
258.864	1.355	0	PA_without_intermediate	1,0,0,0,0,0,3,0,0	test	ward_and_allport	0,0,0,1,0,0,3,2,0	89.0	18.0	1.355	1,2,3,0,0,0,0,0,0	to_hand	s568
260.219	0.511	0	PA_without_intermediate	1,0,0,0,0,0,3,2,0	test	ward_and_allport	0,0,0,1,0,0,3,2,0	82.0	18.0	0.511	1,2,3,0,0,0,0,0,0	to_board	s568
260.736	1.184	0	PA_without_intermediate	0,0,0,0,0,0,3,2,0	test	ward_and_allport	0,0,0,1,0,0,3,2,0	89.0	18.0	1.184	1,2,3,0,0,0,0,0,0	to_hand	s568
261.92	0.504	0	PA_without_intermediate	0,0,0,1,0,0,3,2,0	test	ward_and_allport	0,0,0,1,0,0,3,2,0	71.0	18.0	0.504	1,2,3,0,0,0,0,0,0	to_board	s568
262.43	1.0	0	PA_without_intermediate	n/a	test	ward_and_allport	n/a	-1.0	18.0	n/a	n/a	feedback	s568
263.43	1.136	0	PA_without_intermediate	n/a	test	ward_and_allport	n/a	-1.0	18.0	n/a	n/a	ITI	s568
264.572	2.174	1	PA_without_intermediate	0,0,0,0,0,0,1,2,0	test	ward_and_allport	1,0,0,3,2,0,0,0,0	82.0	19.0	2.174	0,0,0,0,0,0,1,2,3	to_hand	s568
266.746	0.791	0	PA_without_intermediate	0,0,0,3,0,0,1,2,0	test	ward_and_allport	1,0,0,3,2,0,0,0,0	71.0	19.0	0.791	0,0,0,0,0,0,1,2,3	to_board	s568
267.543	0.5	0	PA_without_intermediate	0,0,0,3,0,0,1,0,0	test	ward_and_allport	1,0,0,3,2,0,0,0,0	82.0	19.0	0.5	0,0,0,0,0,0,1,2,3	to_hand	s568
268.043	0.475	0	PA_without_intermediate	0,0,0,3,2,0,1,0,0	test	ward_and_allport	1,0,0,3,2,0,0,0,0	71.0	19.0	0.475	0,0,0,0,0,0,1,2,3	to_board	s568
268.524	0.522	0	PA_without_intermediate	0,0,0,3,2,0,0,0,0	test	ward_and_allport	1,0,0,3,2,0,0,0,0	82.0	19.0	0.522	0,0,0,0,0,0,1,2,3	to_hand	s568
269.047	0.485	0	PA_without_intermediate	1,0,0,3,2,0,0,0,0	test	ward_and_allport	1,0,0,3,2,0,0,0,0	89.0	19.0	0.485	0,0,0,0,0,0,1,2,3	to_board	s568
269.538	1.0	0	PA_without_intermediate	n/a	test	ward_and_allport	n/a	-1.0	19.0	n/a	n/a	feedback	s568
270.538	6.168	0	PA_without_intermediate	n/a	test	ward_and_allport	n/a	-1.0	19.0	n/a	n/a	ITI	s568
276.712	3.17	1	PA_without_intermediate	0,0,0,1,2,0,0,0,0	test	ward_and_allport	3,1,0,0,0,0,2,0,0	71.0	20.0	3.17	0,0,0,1,2,3,0,0,0	to_hand	s568
279.883	0.429	0	PA_without_intermediate	3,0,0,1,2,0,0,0,0	test	ward_and_allport	3,1,0,0,0,0,2,0,0	89.0	20.0	0.429	0,0,0,1,2,3,0,0,0	to_board	s568
280.317	0.449	0	PA_without_intermediate	3,0,0,1,0,0,0,0,0	test	ward_and_allport	3,1,0,0,0,0,2,0,0	71.0	20.0	0.449	0,0,0,1,2,3,0,0,0	to_hand	s568
280.767	0.464	0	PA_without_intermediate	3,0,0,1,0,0,2,0,0	test	ward_and_allport	3,1,0,0,0,0,2,0,0	82.0	20.0	0.464	0,0,0,1,2,3,0,0,0	to_board	s568
281.237	0.577	0	PA_without_intermediate	3,0,0,0,0,0,2,0,0	test	ward_and_allport	3,1,0,0,0,0,2,0,0	71.0	20.0	0.577	0,0,0,1,2,3,0,0,0	to_hand	s568
281.814	0.382	0	PA_without_intermediate	3,1,0,0,0,0,2,0,0	test	ward_and_allport	3,1,0,0,0,0,2,0,0	89.0	20.0	0.382	0,0,0,1,2,3,0,0,0	to_board	s568
282.203	1.0	0	PA_without_intermediate	n/a	test	ward_and_allport	n/a	-1.0	20.0	n/a	n/a	feedback	s568
283.203	1.816	0	PA_without_intermediate	n/a	test	ward_and_allport	n/a	-1.0	20.0	n/a	n/a	ITI	s568
285.023	2.492	1	PA_with_intermediate	1,2,0,0,0,0,0,0,0	test	ward_and_allport	1,3,0,2,0,0,0,0,0	89.0	21.0	2.492	1,2,3,0,0,0,0,0,0	to_hand	s568
287.515	1.622	0	PA_with_intermediate	1,2,0,0,0,0,3,0,0	test	ward_and_allport	1,3,0,2,0,0,0,0,0	82.0	21.0	1.622	1,2,3,0,0,0,0,0,0	to_board	s568
289.142	0.849	0	PA_with_intermediate	1,0,0,0,0,0,3,0,0	test	ward_and_allport	1,3,0,2,0,0,0,0,0	89.0	21.0	0.849	1,2,3,0,0,0,0,0,0	to_hand	s568
289.991	0.464	0	PA_with_intermediate	1,0,0,2,0,0,3,0,0	test	ward_and_allport	1,3,0,2,0,0,0,0,0	71.0	21.0	0.464	1,2,3,0,0,0,0,0,0	to_board	s568
290.461	0.708	0	PA_with_intermediate	1,0,0,2,0,0,0,0,0	test	ward_and_allport	1,3,0,2,0,0,0,0,0	82.0	21.0	0.708	1,2,3,0,0,0,0,0,0	to_hand	s568
291.17	0.384	0	PA_with_intermediate	1,3,0,2,0,0,0,0,0	test	ward_and_allport	1,3,0,2,0,0,0,0,0	89.0	21.0	0.384	1,2,3,0,0,0,0,0,0	to_board	s568
291.562	1.0	0	PA_with_intermediate	n/a	test	ward_and_allport	n/a	-1.0	21.0	n/a	n/a	feedback	s568
292.562	1.952	0	PA_with_intermediate	n/a	test	ward_and_allport	n/a	-1.0	21.0	n/a	n/a	ITI	s568
294.519	2.979	1	PA_with_intermediate	0,0,0,1,2,0,0,0,0	test	ward_and_allport	0,0,0,1,0,0,2,3,0	71.0	22.0	2.979	0,0,0,1,2,3,0,0,0	to_hand	s568
297.499	0.497	0	PA_with_intermediate	3,0,0,1,2,0,0,0,0	test	ward_and_allport	0,0,0,1,0,0,2,3,0	89.0	22.0	0.497	0,0,0,1,2,3,0,0,0	to_board	s568
298.002	0.479	0	PA_with_intermediate	3,0,0,1,0,0,0,0,0	test	ward_and_allport	0,0,0,1,0,0,2,3,0	71.0	22.0	0.479	0,0,0,1,2,3,0,0,0	to_hand	s568
298.481	0.465	0	PA_with_intermediate	3,0,0,1,0,0,2,0,0	test	ward_and_allport	0,0,0,1,0,0,2,3,0	82.0	22.0	0.465	0,0,0,1,2,3,0,0,0	to_board	s568
298.952	0.884	0	PA_with_intermediate	0,0,0,1,0,0,2,0,0	test	ward_and_allport	0,0,0,1,0,0,2,3,0	89.0	22.0	0.884	0,0,0,1,2,3,0,0,0	to_hand	s568
299.838	0.367	0	PA_with_intermediate	0,0,0,1,0,0,2,3,0	test	ward_and_allport	0,0,0,1,0,0,2,3,0	82.0	22.0	0.367	0,0,0,1,2,3,0,0,0	to_board	s568
300.212	1.0	0	PA_with_intermediate	n/a	test	ward_and_allport	n/a	-1.0	22.0	n/a	n/a	feedback	s568
301.212	1.136	0	PA_with_intermediate	n/a	test	ward_and_allport	n/a	-1.0	22.0	n/a	n/a	ITI	s568
302.353	2.282	1	PA_without_intermediate	0,0,0,0,0,0,1,2,0	test	ward_and_allport	3,2,0,1,0,0,0,0,0	82.0	23.0	2.282	0,0,0,0,0,0,1,2,3	to_hand	s568
304.636	0.41	0	PA_without_intermediate	3,0,0,0,0,0,1,2,0	test	ward_and_allport	3,2,0,1,0,0,0,0,0	89.0	23.0	0.41	0,0,0,0,0,0,1,2,3	to_board	s568
305.053	0.487	0	PA_without_intermediate	3,0,0,0,0,0,1,0,0	test	ward_and_allport	3,2,0,1,0,0,0,0,0	82.0	23.0	0.487	0,0,0,0,0,0,1,2,3	to_hand	s568
305.54	0.407	0	PA_without_intermediate	3,2,0,0,0,0,1,0,0	test	ward_and_allport	3,2,0,1,0,0,0,0,0	89.0	23.0	0.407	0,0,0,0,0,0,1,2,3	to_board	s568
305.953	0.675	0	PA_without_intermediate	3,2,0,0,0,0,0,0,0	test	ward_and_allport	3,2,0,1,0,0,0,0,0	82.0	23.0	0.675	0,0,0,0,0,0,1,2,3	to_hand	s568
306.629	0.392	0	PA_without_intermediate	3,2,0,1,0,0,0,0,0	test	ward_and_allport	3,2,0,1,0,0,0,0,0	71.0	23.0	0.392	0,0,0,0,0,0,1,2,3	to_board	s568
307.028	1.0	0	PA_without_intermediate	n/a	test	ward_and_allport	n/a	-1.0	23.0	n/a	n/a	feedback	s568
308.028	1.68	0	PA_without_intermediate	n/a	test	ward_and_allport	n/a	-1.0	23.0	n/a	n/a	ITI	s568
309.714	1.885	1	PA_without_intermediate	1,2,0,0,0,0,0,0,0	test	ward_and_allport	0,0,0,1,0,0,3,2,0	89.0	24.0	1.885	1,2,3,0,0,0,0,0,0	to_hand	s568
311.601	0.486	0	PA_without_intermediate	1,2,0,0,0,0,3,0,0	test	ward_and_allport	0,0,0,1,0,0,3,2,0	82.0	24.0	0.486	1,2,3,0,0,0,0,0,0	to_board	s568
312.093	0.523	0	PA_without_intermediate	1,0,0,0,0,0,3,0,0	test	ward_and_allport	0,0,0,1,0,0,3,2,0	89.0	24.0	0.523	1,2,3,0,0,0,0,0,0	to_hand	s568
312.617	0.451	0	PA_without_intermediate	1,0,0,0,0,0,3,2,0	test	ward_and_allport	0,0,0,1,0,0,3,2,0	82.0	24.0	0.451	1,2,3,0,0,0,0,0,0	to_board	s568
313.075	0.619	0	PA_without_intermediate	0,0,0,0,0,0,3,2,0	test	ward_and_allport	0,0,0,1,0,0,3,2,0	89.0	24.0	0.619	1,2,3,0,0,0,0,0,0	to_hand	s568
313.694	0.32	0	PA_without_intermediate	0,0,0,1,0,0,3,2,0	test	ward_and_allport	0,0,0,1,0,0,3,2,0	71.0	24.0	0.32	1,2,3,0,0,0,0,0,0	to_board	s568
314.023	1.0	0	PA_without_intermediate	n/a	test	ward_and_allport	n/a	-1.0	24.0	n/a	n/a	feedback	s568
315.023	2.088	0	PA_without_intermediate	n/a	test	ward_and_allport	n/a	-1.0	24.0	n/a	n/a	ITI	s568
317.118	2.351	1	PA_with_intermediate	0,0,0,1,2,0,0,0,0	test	ward_and_allport	0,0,0,1,3,0,2,0,0	71.0	25.0	2.351	0,0,0,1,2,3,0,0,0	to_hand	s568
319.47	1.345	0	PA_with_intermediate	3,0,0,1,2,0,0,0,0	test	ward_and_allport	0,0,0,1,3,0,2,0,0	89.0	25.0	1.345	0,0,0,1,2,3,0,0,0	to_board	s568
320.821	0.522	0	PA_with_intermediate	3,0,0,1,0,0,0,0,0	test	ward_and_allport	0,0,0,1,3,0,2,0,0	71.0	25.0	0.522	0,0,0,1,2,3,0,0,0	to_hand	s568
321.343	0.456	0	PA_with_intermediate	3,0,0,1,0,0,2,0,0	test	ward_and_allport	0,0,0,1,3,0,2,0,0	82.0	25.0	0.456	0,0,0,1,2,3,0,0,0	to_board	s568
321.806	0.63	0	PA_with_intermediate	0,0,0,1,0,0,2,0,0	test	ward_and_allport	0,0,0,1,3,0,2,0,0	89.0	25.0	0.63	0,0,0,1,2,3,0,0,0	to_hand	s568
322.436	0.29	0	PA_with_intermediate	0,0,0,1,3,0,2,0,0	test	ward_and_allport	0,0,0,1,3,0,2,0,0	71.0	25.0	0.29	0,0,0,1,2,3,0,0,0	to_board	s568
322.734	1.0	0	PA_with_intermediate	n/a	test	ward_and_allport	n/a	-1.0	25.0	n/a	n/a	feedback	s568
323.734	1.0	0	PA_with_intermediate	n/a	test	ward_and_allport	n/a	-1.0	25.0	n/a	n/a	ITI	s568
324.74	1.688	1	PA_without_intermediate	0,0,0,1,2,0,0,0,0	test	ward_and_allport	3,2,0,0,0,0,1,0,0	71.0	26.0	1.688	0,0,0,1,2,3,0,0,0	to_hand	s568
326.429	0.298	0	PA_without_intermediate	3,0,0,1,2,0,0,0,0	test	ward_and_allport	3,2,0,0,0,0,1,0,0	89.0	26.0	0.298	0,0,0,1,2,3,0,0,0	to_board	s568
326.733	2.005	0	PA_without_intermediate	3,0,0,1,0,0,0,0,0	test	ward_and_allport	3,2,0,0,0,0,1,0,0	71.0	26.0	2.005	0,0,0,1,2,3,0,0,0	to_hand	s568
328.739	0.324	0	PA_without_intermediate	3,2,0,1,0,0,0,0,0	test	ward_and_allport	3,2,0,0,0,0,1,0,0	89.0	26.0	0.324	0,0,0,1,2,3,0,0,0	to_board	s568
329.071	0.494	0	PA_without_intermediate	3,2,0,0,0,0,0,0,0	test	ward_and_allport	3,2,0,0,0,0,1,0,0	71.0	26.0	0.494	0,0,0,1,2,3,0,0,0	to_hand	s568
329.565	0.534	0	PA_without_intermediate	3,2,0,0,0,0,1,0,0	test	ward_and_allport	3,2,0,0,0,0,1,0,0	82.0	26.0	0.534	0,0,0,1,2,3,0,0,0	to_board	s568
330.108	1.0	0	PA_without_intermediate	n/a	test	ward_and_allport	n/a	-1.0	26.0	n/a	n/a	feedback	s568
331.108	1.0	0	PA_without_intermediate	n/a	test	ward_and_allport	n/a	-1.0	26.0	n/a	n/a	ITI	s568
332.115	2.12	1	PA_without_intermediate	0,0,0,0,0,0,1,2,0	test	ward_and_allport	1,0,0,3,2,0,0,0,0	82.0	27.0	2.12	0,0,0,0,0,0,1,2,3	to_hand	s568
334.235	0.398	0	PA_without_intermediate	0,0,0,3,0,0,1,2,0	test	ward_and_allport	1,0,0,3,2,0,0,0,0	71.0	27.0	0.398	0,0,0,0,0,0,1,2,3	to_board	s568
334.641	1.022	0	PA_without_intermediate	0,0,0,3,0,0,1,0,0	test	ward_and_allport	1,0,0,3,2,0,0,0,0	82.0	27.0	1.022	0,0,0,0,0,0,1,2,3	to_hand	s568
335.664	0.356	0	PA_without_intermediate	0,0,0,3,2,0,1,0,0	test	ward_and_allport	1,0,0,3,2,0,0,0,0	71.0	27.0	0.356	0,0,0,0,0,0,1,2,3	to_board	s568
336.027	0.761	0	PA_without_intermediate	0,0,0,3,2,0,0,0,0	test	ward_and_allport	1,0,0,3,2,0,0,0,0	82.0	27.0	0.761	0,0,0,0,0,0,1,2,3	to_hand	s568
336.788	0.844	0	PA_without_intermediate	1,0,0,3,2,0,0,0,0	test	ward_and_allport	1,0,0,3,2,0,0,0,0	89.0	27.0	0.844	0,0,0,0,0,0,1,2,3	to_board	s568
337.641	1.0	0	PA_without_intermediate	n/a	test	ward_and_allport	n/a	-1.0	27.0	n/a	n/a	feedback	s568
338.641	1.0	0	PA_without_intermediate	n/a	test	ward_and_allport	n/a	-1.0	27.0	n/a	n/a	ITI	s568
339.648	1.398	1	PA_with_intermediate	0,0,0,1,2,0,0,0,0	test	ward_and_allport	0,0,0,1,0,0,2,3,0	71.0	28.0	1.398	0,0,0,1,2,3,0,0,0	to_hand	s568
341.047	0.647	0	PA_with_intermediate	0,0,0,1,2,0,3,0,0	test	ward_and_allport	0,0,0,1,0,0,2,3,0	82.0	28.0	0.647	0,0,0,1,2,3,0,0,0	to_board	s568
341.701	2.985	0	PA_with_intermediate	0,0,0,1,2,0,0,0,0	test	ward_and_allport	0,0,0,1,0,0,2,3,0	82.0	28.0	2.985	0,0,0,1,2,3,0,0,0	to_hand	s568
344.688	0.905	0	PA_with_intermediate	3,0,0,1,2,0,0,0,0	test	ward_and_allport	0,0,0,1,0,0,2,3,0	89.0	28.0	0.905	0,0,0,1,2,3,0,0,0	to_board	s568
345.599	0.513	0	PA_with_intermediate	3,0,0,1,0,0,0,0,0	test	ward_and_allport	0,0,0,1,0,0,2,3,0	71.0	28.0	0.513	0,0,0,1,2,3,0,0,0	to_hand	s568
346.114	0.541	0	PA_with_intermediate	3,0,0,1,0,0,2,0,0	test	ward_and_allport	0,0,0,1,0,0,2,3,0	82.0	28.0	0.541	0,0,0,1,2,3,0,0,0	to_board	s568
346.662	0.769	0	PA_with_intermediate	0,0,0,1,0,0,2,0,0	test	ward_and_allport	0,0,0,1,0,0,2,3,0	89.0	28.0	0.769	0,0,0,1,2,3,0,0,0	to_hand	s568
347.432	0.486	0	PA_with_intermediate	0,0,0,1,0,0,2,3,0	test	ward_and_allport	0,0,0,1,0,0,2,3,0	82.0	28.0	0.486	0,0,0,1,2,3,0,0,0	to_board	s568
347.926	1.0	0	PA_with_intermediate	n/a	test	ward_and_allport	n/a	-1.0	28.0	n/a	n/a	feedback	s568
348.926	1.544	0	PA_with_intermediate	n/a	test	ward_and_allport	n/a	-1.0	28.0	n/a	n/a	ITI	s568
350.477	2.332	1	PA_without_intermediate	1,2,0,0,0,0,0,0,0	test	ward_and_allport	0,0,0,2,0,0,3,1,0	89.0	29.0	2.332	1,2,3,0,0,0,0,0,0	to_hand	s568
352.809	0.397	0	PA_without_intermediate	1,2,0,0,0,0,3,0,0	test	ward_and_allport	0,0,0,2,0,0,3,1,0	82.0	29.0	0.397	1,2,3,0,0,0,0,0,0	to_board	s568
353.214	1.107	0	PA_without_intermediate	1,0,0,0,0,0,3,0,0	test	ward_and_allport	0,0,0,2,0,0,3,1,0	89.0	29.0	1.107	1,2,3,0,0,0,0,0,0	to_hand	s568
354.321	0.398	0	PA_without_intermediate	1,0,0,2,0,0,3,0,0	test	ward_and_allport	0,0,0,2,0,0,3,1,0	71.0	29.0	0.398	1,2,3,0,0,0,0,0,0	to_board	s568
354.726	0.416	0	PA_without_intermediate	0,0,0,2,0,0,3,0,0	test	ward_and_allport	0,0,0,2,0,0,3,1,0	89.0	29.0	0.416	1,2,3,0,0,0,0,0,0	to_hand	s568
355.144	0.364	0	PA_without_intermediate	0,0,0,2,0,0,3,1,0	test	ward_and_allport	0,0,0,2,0,0,3,1,0	82.0	29.0	0.364	1,2,3,0,0,0,0,0,0	to_board	s568
355.516	1.0	0	PA_without_intermediate	n/a	test	ward_and_allport	n/a	-1.0	29.0	n/a	n/a	feedback	s568
356.516	1.272	0	PA_without_intermediate	n/a	test	ward_and_allport	n/a	-1.0	29.0	n/a	n/a	ITI	s568
362.798	1.353	1	PA_with_intermediate	0,0,0,1,2,0,0,0,0	test	ward_and_allport	2,3,0,1,0,0,0,0,0	71.0	30.0	1.353	0,0,0,1,2,3,0,0,0	to_hand	s568
364.151	1.207	0	PA_with_intermediate	0,0,0,1,2,0,3,0,0	test	ward_and_allport	2,3,0,1,0,0,0,0,0	82.0	30.0	1.207	0,0,0,1,2,3,0,0,0	to_board	s568
365.366	0.468	0	PA_with_intermediate	0,0,0,1,0,0,3,0,0	test	ward_and_allport	2,3,0,1,0,0,0,0,0	71.0	30.0	0.468	0,0,0,1,2,3,0,0,0	to_hand	s568
365.835	0.374	0	PA_with_intermediate	2,0,0,1,0,0,3,0,0	test	ward_and_allport	2,3,0,1,0,0,0,0,0	89.0	30.0	0.374	0,0,0,1,2,3,0,0,0	to_board	s568
366.218	0.891	0	PA_with_intermediate	2,0,0,1,0,0,0,0,0	test	ward_and_allport	2,3,0,1,0,0,0,0,0	82.0	30.0	0.891	0,0,0,1,2,3,0,0,0	to_hand	s568
367.11	0.684	0	PA_with_intermediate	2,3,0,1,0,0,0,0,0	test	ward_and_allport	2,3,0,1,0,0,0,0,0	89.0	30.0	0.684	0,0,0,1,2,3,0,0,0	to_board	s568
367.804	1.0	0	PA_with_intermediate	n/a	test	ward_and_allport	n/a	-1.0	30.0	n/a	n/a	feedback	s568
368.804	3.04	0	PA_with_intermediate	n/a	test	ward_and_allport	n/a	-1.0	30.0	n/a	n/a	ITI	s568
371.852	2.158	1	PA_with_intermediate	0,0,0,1,2,0,0,0,0	test	ward_and_allport	0,0,0,1,3,0,2,0,0	71.0	31.0	2.158	0,0,0,1,2,3,0,0,0	to_hand	s568
374.01	1.526	0	PA_with_intermediate	3,0,0,1,2,0,0,0,0	test	ward_and_allport	0,0,0,1,3,0,2,0,0	89.0	31.0	1.526	0,0,0,1,2,3,0,0,0	to_board	s568
375.545	0.371	0	PA_with_intermediate	3,0,0,1,0,0,0,0,0	test	ward_and_allport	0,0,0,1,3,0,2,0,0	71.0	31.0	0.371	0,0,0,1,2,3,0,0,0	to_hand	s568
375.917	0.385	0	PA_with_intermediate	3,0,0,1,0,0,2,0,0	test	ward_and_allport	0,0,0,1,3,0,2,0,0	82.0	31.0	0.385	0,0,0,1,2,3,0,0,0	to_board	s568
376.311	0.86	0	PA_with_intermediate	0,0,0,1,0,0,2,0,0	test	ward_and_allport	0,0,0,1,3,0,2,0,0	89.0	31.0	0.86	0,0,0,1,2,3,0,0,0	to_hand	s568
377.171	0.453	0	PA_with_intermediate	0,0,0,1,3,0,2,0,0	test	ward_and_allport	0,0,0,1,3,0,2,0,0	71.0	31.0	0.453	0,0,0,1,2,3,0,0,0	to_board	s568
377.633	1.0	0	PA_with_intermediate	n/a	test	ward_and_allport	n/a	-1.0	31.0	n/a	n/a	feedback	s568
378.633	1.272	0	PA_with_intermediate	n/a	test	ward_and_allport	n/a	-1.0	31.0	n/a	n/a	ITI	s568
379.911	2.02	1	PA_with_intermediate	0,0,0,0,0,0,1,2,0	test	ward_and_allport	2,3,0,0,0,0,1,0,0	82.0	32.0	2.02	0,0,0,0,0,0,1,2,3	to_hand	s568
381.933	1.02	0	PA_with_intermediate	0,0,0,3,0,0,1,2,0	test	ward_and_allport	2,3,0,0,0,0,1,0,0	71.0	32.0	1.02	0,0,0,0,0,0,1,2,3	to_board	s568
382.959	0.578	0	PA_with_intermediate	0,0,0,3,0,0,1,0,0	test	ward_and_allport	2,3,0,0,0,0,1,0,0	82.0	32.0	0.578	0,0,0,0,0,0,1,2,3	to_hand	s568
383.539	0.404	0	PA_with_intermediate	2,0,0,3,0,0,1,0,0	test	ward_and_allport	2,3,0,0,0,0,1,0,0	89.0	32.0	0.404	0,0,0,0,0,0,1,2,3	to_board	s568
383.951	1.216	0	PA_with_intermediate	2,0,0,0,0,0,1,0,0	test	ward_and_allport	2,3,0,0,0,0,1,0,0	71.0	32.0	1.216	0,0,0,0,0,0,1,2,3	to_hand	s568
385.168	0.388	0	PA_with_intermediate	2,3,0,0,0,0,1,0,0	test	ward_and_allport	2,3,0,0,0,0,1,0,0	89.0	32.0	0.388	0,0,0,0,0,0,1,2,3	to_board	s568
385.566	1.0	0	PA_with_intermediate	n/a	test	ward_and_allport	n/a	-1.0	32.0	n/a	n/a	feedback	s568
386.566	1.136	0	PA_with_intermediate	n/a	test	ward_and_allport	n/a	-1.0	32.0	n/a	n/a	ITI	s568
387.709	2.478	1	PA_with_intermediate	0,0,0,0,0,0,1,2,0	test	ward_and_allport	0,0,0,2,0,0,1,3,0	82.0	33.0	2.478	0,0,0,0,0,0,1,2,3	to_hand	s568
390.189	1.436	0	PA_with_intermediate	0,0,0,3,0,0,1,2,0	test	ward_and_allport	0,0,0,2,0,0,1,3,0	71.0	33.0	1.436	0,0,0,0,0,0,1,2,3	to_board	s568
391.63	1.435	0	PA_with_intermediate	0,0,0,0,0,0,1,2,0	test	ward_and_allport	0,0,0,2,0,0,1,3,0	71.0	33.0	1.435	0,0,0,0,0,0,1,2,3	to_hand	s568
393.066	0.368	0	PA_with_intermediate	3,0,0,0,0,0,1,2,0	test	ward_and_allport	0,0,0,2,0,0,1,3,0	89.0	33.0	0.368	0,0,0,0,0,0,1,2,3	to_board	s568
393.442	0.723	0	PA_with_intermediate	3,0,0,0,0,0,1,0,0	test	ward_and_allport	0,0,0,2,0,0,1,3,0	82.0	33.0	0.723	0,0,0,0,0,0,1,2,3	to_hand	s568
394.165	0.42	0	PA_with_intermediate	3,0,0,2,0,0,1,0,0	test	ward_and_allport	0,0,0,2,0,0,1,3,0	71.0	33.0	0.42	0,0,0,0,0,0,1,2,3	to_board	s568
394.595	0.613	0	PA_with_intermediate	0,0,0,2,0,0,1,0,0	test	ward_and_allport	0,0,0,2,0,0,1,3,0	89.0	33.0	0.613	0,0,0,0,0,0,1,2,3	to_hand	s568
395.209	0.301	0	PA_with_intermediate	0,0,0,2,0,0,1,3,0	test	ward_and_allport	0,0,0,2,0,0,1,3,0	82.0	33.0	0.301	0,0,0,0,0,0,1,2,3	to_board	s568
395.518	1.0	0	PA_with_intermediate	n/a	test	ward_and_allport	n/a	-1.0	33.0	n/a	n/a	feedback	s568
396.518	1.0	0	PA_with_intermediate	n/a	test	ward_and_allport	n/a	-1.0	33.0	n/a	n/a	ITI	s568
397.524	3.447	1	PA_with_intermediate	0,0,0,1,2,0,0,0,0	test	ward_and_allport	2,0,0,1,3,0,0,0,0	71.0	34.0	3.447	0,0,0,1,2,3,0,0,0	to_hand	s568
400.972	0.522	0	PA_with_intermediate	0,0,0,1,2,0,3,0,0	test	ward_and_allport	2,0,0,1,3,0,0,0,0	82.0	34.0	0.522	0,0,0,1,2,3,0,0,0	to_board	s568
401.5	0.453	0	PA_with_intermediate	0,0,0,1,0,0,3,0,0	test	ward_and_allport	2,0,0,1,3,0,0,0,0	71.0	34.0	0.453	0,0,0,1,2,3,0,0,0	to_hand	s568
401.954	0.356	0	PA_with_intermediate	2,0,0,1,0,0,3,0,0	test	ward_and_allport	2,0,0,1,3,0,0,0,0	89.0	34.0	0.356	0,0,0,1,2,3,0,0,0	to_board	s568
402.319	0.911	0	PA_with_intermediate	2,0,0,1,0,0,0,0,0	test	ward_and_allport	2,0,0,1,3,0,0,0,0	82.0	34.0	0.911	0,0,0,1,2,3,0,0,0	to_hand	s568
403.231	0.248	0	PA_with_intermediate	2,0,0,1,3,0,0,0,0	test	ward_and_allport	2,0,0,1,3,0,0,0,0	71.0	34.0	0.248	0,0,0,1,2,3,0,0,0	to_board	s568
403.489	1.0	0	PA_with_intermediate	n/a	test	ward_and_allport	n/a	-1.0	34.0	n/a	n/a	feedback	s568
404.489	1.0	0	PA_with_intermediate	n/a	test	ward_and_allport	n/a	-1.0	34.0	n/a	n/a	ITI	s568
405.499	2.29	1	PA_without_intermediate	0,0,0,1,2,0,0,0,0	test	ward_and_allport	1,0,0,0,0,0,3,2,0	71.0	35.0	2.29	0,0,0,1,2,3,0,0,0	to_hand	s568
407.79	0.353	0	PA_without_intermediate	0,0,0,1,2,0,3,0,0	test	ward_and_allport	1,0,0,0,0,0,3,2,0	82.0	35.0	0.353	0,0,0,1,2,3,0,0,0	to_board	s568
408.15	0.446	0	PA_without_intermediate	0,0,0,1,0,0,3,0,0	test	ward_and_allport	1,0,0,0,0,0,3,2,0	71.0	35.0	0.446	0,0,0,1,2,3,0,0,0	to_hand	s568
408.598	0.356	0	PA_without_intermediate	0,0,0,1,0,0,3,2,0	test	ward_and_allport	1,0,0,0,0,0,3,2,0	82.0	35.0	0.356	0,0,0,1,2,3,0,0,0	to_board	s568
408.96	1.189	0	PA_without_intermediate	0,0,0,0,0,0,3,2,0	test	ward_and_allport	1,0,0,0,0,0,3,2,0	71.0	35.0	1.189	0,0,0,1,2,3,0,0,0	to_hand	s568
410.149	0.341	0	PA_without_intermediate	1,0,0,0,0,0,3,2,0	test	ward_and_allport	1,0,0,0,0,0,3,2,0	89.0	35.0	0.341	0,0,0,1,2,3,0,0,0	to_board	s568
410.497	1.0	0	PA_without_intermediate	n/a	test	ward_and_allport	n/a	-1.0	35.0	n/a	n/a	feedback	s568
411.497	1.408	0	PA_without_intermediate	n/a	test	ward_and_allport	n/a	-1.0	35.0	n/a	n/a	ITI	s568
412.914	3.071	1	PA_with_intermediate	1,2,0,0,0,0,0,0,0	test	ward_and_allport	1,0,0,0,0,0,2,3,0	89.0	36.0	3.071	1,2,3,0,0,0,0,0,0	to_hand	s568
415.986	0.373	0	PA_with_intermediate	1,2,0,3,0,0,0,0,0	test	ward_and_allport	1,0,0,0,0,0,2,3,0	71.0	36.0	0.373	1,2,3,0,0,0,0,0,0	to_board	s568
416.369	0.479	0	PA_with_intermediate	1,0,0,3,0,0,0,0,0	test	ward_and_allport	1,0,0,0,0,0,2,3,0	89.0	36.0	0.479	1,2,3,0,0,0,0,0,0	to_hand	s568
416.848	0.631	0	PA_with_intermediate	1,0,0,3,0,0,2,0,0	test	ward_and_allport	1,0,0,0,0,0,2,3,0	82.0	36.0	0.631	1,2,3,0,0,0,0,0,0	to_board	s568
417.488	0.776	0	PA_with_intermediate	1,0,0,0,0,0,2,0,0	test	ward_and_allport	1,0,0,0,0,0,2,3,0	71.0	36.0	0.776	1,2,3,0,0,0,0,0,0	to_hand	s568
418.265	0.537	0	PA_with_intermediate	1,0,0,0,0,0,2,3,0	test	ward_and_allport	1,0,0,0,0,0,2,3,0	82.0	36.0	0.537	1,2,3,0,0,0,0,0,0	to_board	s568
418.811	1.0	0	PA_with_intermediate	n/a	test	ward_and_allport	n/a	-1.0	36.0	n/a	n/a	feedback	s568
419.811	2.768	0	PA_with_intermediate	n/a	test	ward_and_allport	n/a	-1.0	36.0	n/a	n/a	ITI	s568
422.587	3.159	1	PA_with_intermediate	0,0,0,1,2,0,0,0,0	test	ward_and_allport	2,0,0,1,3,0,0,0,0	71.0	37.0	3.159	0,0,0,1,2,3,0,0,0	to_hand	s568
425.747	0.858	0	PA_with_intermediate	0,0,0,1,2,0,3,0,0	test	ward_and_allport	2,0,0,1,3,0,0,0,0	82.0	37.0	0.858	0,0,0,1,2,3,0,0,0	to_board	s568
426.613	0.316	0	PA_with_intermediate	0,0,0,1,0,0,3,0,0	test	ward_and_allport	2,0,0,1,3,0,0,0,0	71.0	37.0	0.316	0,0,0,1,2,3,0,0,0	to_hand	s568
426.929	0.323	0	PA_with_intermediate	2,0,0,1,0,0,3,0,0	test	ward_and_allport	2,0,0,1,3,0,0,0,0	89.0	37.0	0.323	0,0,0,1,2,3,0,0,0	to_board	s568
427.261	0.568	0	PA_with_intermediate	2,0,0,1,0,0,0,0,0	test	ward_and_allport	2,0,0,1,3,0,0,0,0	82.0	37.0	0.568	0,0,0,1,2,3,0,0,0	to_hand	s568
427.831	0.339	0	PA_with_intermediate	2,0,0,1,3,0,0,0,0	test	ward_and_allport	2,0,0,1,3,0,0,0,0	71.0	37.0	0.339	0,0,0,1,2,3,0,0,0	to_board	s568
428.179	1.0	0	PA_with_intermediate	n/a	test	ward_and_allport	n/a	-1.0	37.0	n/a	n/a	feedback	s568
429.179	1.68	0	PA_with_intermediate	n/a	test	ward_and_allport	n/a	-1.0	37.0	n/a	n/a	ITI	s568
430.867	2.983	1	PA_without_intermediate	0,0,0,0,0,0,1,2,0	test	ward_and_allport	3,1,0,2,0,0,0,0,0	82.0	38.0	2.983	0,0,0,0,0,0,1,2,3	to_hand	s568
433.85	1.134	0	PA_without_intermediate	3,0,0,0,0,0,1,2,0	test	ward_and_allport	3,1,0,2,0,0,0,0,0	89.0	38.0	1.134	0,0,0,0,0,0,1,2,3	to_board	s568
434.993	0.967	0	PA_without_intermediate	3,0,0,0,0,0,1,0,0	test	ward_and_allport	3,1,0,2,0,0,0,0,0	82.0	38.0	0.967	0,0,0,0,0,0,1,2,3	to_hand	s568
435.961	0.548	0	PA_without_intermediate	3,0,0,2,0,0,1,0,0	test	ward_and_allport	3,1,0,2,0,0,0,0,0	71.0	38.0	0.548	0,0,0,0,0,0,1,2,3	to_board	s568
436.518	0.436	0	PA_without_intermediate	3,0,0,2,0,0,0,0,0	test	ward_and_allport	3,1,0,2,0,0,0,0,0	82.0	38.0	0.436	0,0,0,0,0,0,1,2,3	to_hand	s568
436.955	0.438	0	PA_without_intermediate	3,1,0,2,0,0,0,0,0	test	ward_and_allport	3,1,0,2,0,0,0,0,0	89.0	38.0	0.438	0,0,0,0,0,0,1,2,3	to_board	s568
437.404	1.0	0	PA_without_intermediate	n/a	test	ward_and_allport	n/a	-1.0	38.0	n/a	n/a	feedback	s568
438.404	2.224	0	PA_without_intermediate	n/a	test	ward_and_allport	n/a	-1.0	38.0	n/a	n/a	ITI	s568
440.635	2.853	1	PA_without_intermediate	0,0,0,1,2,0,0,0,0	test	ward_and_allport	1,0,0,0,0,0,3,2,0	71.0	39.0	2.853	0,0,0,1,2,3,0,0,0	to_hand	s568
443.489	0.377	0	PA_without_intermediate	0,0,0,1,2,0,3,0,0	test	ward_and_allport	1,0,0,0,0,0,3,2,0	82.0	39.0	0.377	0,0,0,1,2,3,0,0,0	to_board	s568
443.874	0.572	0	PA_without_intermediate	0,0,0,1,0,0,3,0,0	test	ward_and_allport	1,0,0,0,0,0,3,2,0	71.0	39.0	0.572	0,0,0,1,2,3,0,0,0	to_hand	s568
444.447	0.313	0	PA_without_intermediate	0,0,0,1,0,0,3,2,0	test	ward_and_allport	1,0,0,0,0,0,3,2,0	82.0	39.0	0.313	0,0,0,1,2,3,0,0,0	to_board	s568
444.769	1.49	0	PA_without_intermediate	0,0,0,0,0,0,3,2,0	test	ward_and_allport	1,0,0,0,0,0,3,2,0	71.0	39.0	1.49	0,0,0,1,2,3,0,0,0	to_hand	s568
446.259	0.239	0	PA_without_intermediate	1,0,0,0,0,0,3,2,0	test	ward_and_allport	1,0,0,0,0,0,3,2,0	89.0	39.0	0.239	0,0,0,1,2,3,0,0,0	to_board	s568
446.509	1.0	0	PA_without_intermediate	n/a	test	ward_and_allport	n/a	-1.0	39.0	n/a	n/a	feedback	s568
447.509	2.36	0	PA_without_intermediate	n/a	test	ward_and_allport	n/a	-1.0	39.0	n/a	n/a	ITI	s568
449.877	2.425	1	PA_without_intermediate	1,2,0,0,0,0,0,0,0	test	ward_and_allport	0,0,0,3,2,0,1,0,0	89.0	40.0	2.425	1,2,3,0,0,0,0,0,0	to_hand	s568
452.303	0.245	0	PA_without_intermediate	1,2,0,3,0,0,0,0,0	test	ward_and_allport	0,0,0,3,2,0,1,0,0	71.0	40.0	0.245	1,2,3,0,0,0,0,0,0	to_board	s568
452.557	0.554	0	PA_without_intermediate	1,0,0,3,0,0,0,0,0	test	ward_and_allport	0,0,0,3,2,0,1,0,0	89.0	40.0	0.554	1,2,3,0,0,0,0,0,0	to_hand	s568
453.111	0.208	0	PA_without_intermediate	1,0,0,3,2,0,0,0,0	test	ward_and_allport	0,0,0,3,2,0,1,0,0	71.0	40.0	0.208	1,2,3,0,0,0,0,0,0	to_board	s568
453.328	0.597	0	PA_without_intermediate	0,0,0,3,2,0,0,0,0	test	ward_and_allport	0,0,0,3,2,0,1,0,0	89.0	40.0	0.597	1,2,3,0,0,0,0,0,0	to_hand	s568
453.926	0.217	0	PA_without_intermediate	0,0,0,3,2,1,0,0,0	test	ward_and_allport	0,0,0,3,2,0,1,0,0	71.0	40.0	0.217	1,2,3,0,0,0,0,0,0	to_board	s568
454.152	1.804	0	PA_without_intermediate	0,0,0,3,2,0,0,0,0	test	ward_and_allport	0,0,0,3,2,0,1,0,0	71.0	40.0	1.804	1,2,3,0,0,0,0,0,0	to_hand	s568
455.957	0.265	0	PA_without_intermediate	0,0,0,3,2,0,1,0,0	test	ward_and_allport	0,0,0,3,2,0,1,0,0	82.0	40.0	0.265	1,2,3,0,0,0,0,0,0	to_board	s568
456.233	1.0	0	PA_without_intermediate	n/a	test	ward_and_allport	n/a	-1.0	40.0	n/a	n/a	feedback	s568
457.233	1.0	0	PA_without_intermediate	n/a	test	ward_and_allport	n/a	-1.0	40.0	n/a	n/a	ITI	s568
458.243	1.743	1	PA_without_intermediate	0,0,0,1,2,0,0,0,0	test	ward_and_allport	2,0,0,0,0,0,3,1,0	71.0	41.0	1.743	0,0,0,1,2,3,0,0,0	to_hand	s568
459.987	0.261	0	PA_without_intermediate	0,0,0,1,2,0,3,0,0	test	ward_and_allport	2,0,0,0,0,0,3,1,0	82.0	41.0	0.261	0,0,0,1,2,3,0,0,0	to_board	s568
460.254	0.993	0	PA_without_intermediate	0,0,0,1,0,0,3,0,0	test	ward_and_allport	2,0,0,0,0,0,3,1,0	71.0	41.0	0.993	0,0,0,1,2,3,0,0,0	to_hand	s568
461.248	0.323	0	PA_without_intermediate	2,0,0,1,0,0,3,0,0	test	ward_and_allport	2,0,0,0,0,0,3,1,0	89.0	41.0	0.323	0,0,0,1,2,3,0,0,0	to_board	s568
461.579	0.529	0	PA_without_intermediate	2,0,0,0,0,0,3,0,0	test	ward_and_allport	2,0,0,0,0,0,3,1,0	71.0	41.0	0.529	0,0,0,1,2,3,0,0,0	to_hand	s568
462.109	0.516	0	PA_without_intermediate	2,0,0,0,0,0,3,1,0	test	ward_and_allport	2,0,0,0,0,0,3,1,0	82.0	41.0	0.516	0,0,0,1,2,3,0,0,0	to_board	s568
462.633	1.0	0	PA_without_intermediate	n/a	test	ward_and_allport	n/a	-1.0	41.0	n/a	n/a	feedback	s568
463.633	1.408	0	PA_without_intermediate	n/a	test	ward_and_allport	n/a	-1.0	41.0	n/a	n/a	ITI	s568
465.048	3.361	1	PA_with_intermediate	0,0,0,0,0,0,1,2,0	test	ward_and_allport	2,0,0,0,0,0,1,3,0	82.0	42.0	3.361	0,0,0,0,0,0,1,2,3	to_hand	s568
468.411	0.347	0	PA_with_intermediate	0,0,0,3,0,0,1,2,0	test	ward_and_allport	2,0,0,0,0,0,1,3,0	71.0	42.0	0.347	0,0,0,0,0,0,1,2,3	to_board	s568
468.764	0.917	0	PA_with_intermediate	0,0,0,3,0,0,1,0,0	test	ward_and_allport	2,0,0,0,0,0,1,3,0	82.0	42.0	0.917	0,0,0,0,0,0,1,2,3	to_hand	s568
469.682	0.336	0	PA_with_intermediate	2,0,0,3,0,0,1,0,0	test	ward_and_allport	2,0,0,0,0,0,1,3,0	89.0	42.0	0.336	0,0,0,0,0,0,1,2,3	to_board	s568
470.024	1.288	0	PA_with_intermediate	2,0,0,0,0,0,1,0,0	test	ward_and_allport	2,0,0,0,0,0,1,3,0	71.0	42.0	1.288	0,0,0,0,0,0,1,2,3	to_hand	s568
471.313	0.354	0	PA_with_intermediate	2,0,0,0,0,0,1,3,0	test	ward_and_allport	2,0,0,0,0,0,1,3,0	82.0	42.0	0.354	0,0,0,0,0,0,1,2,3	to_board	s568
471.679	1.0	0	PA_with_intermediate	n/a	test	ward_and_allport	n/a	-1.0	42.0	n/a	n/a	feedback	s568
472.679	1.136	0	PA_with_intermediate	n/a	test	ward_and_allport	n/a	-1.0	42.0	n/a	n/a	ITI	s568
473.825	2.049	1	PA_without_intermediate	0,0,0,0,0,0,1,2,0	test	ward_and_allport	2,0,0,3,1,0,0,0,0	82.0	43.0	2.049	0,0,0,0,0,0,1,2,3	to_hand	s568
475.874	0.315	0	PA_without_intermediate	0,0,0,3,0,0,1,2,0	test	ward_and_allport	2,0,0,3,1,0,0,0,0	71.0	43.0	0.315	0,0,0,0,0,0,1,2,3	to_board	s568
476.198	1.223	0	PA_without_intermediate	0,0,0,3,0,0,1,0,0	test	ward_and_allport	2,0,0,3,1,0,0,0,0	82.0	43.0	1.223	0,0,0,0,0,0,1,2,3	to_hand	s568
477.422	0.364	0	PA_without_intermediate	2,0,0,3,0,0,1,0,0	test	ward_and_allport	2,0,0,3,1,0,0,0,0	89.0	43.0	0.364	0,0,0,0,0,0,1,2,3	to_board	s568
477.793	0.817	0	PA_without_intermediate	2,0,0,3,0,0,0,0,0	test	ward_and_allport	2,0,0,3,1,0,0,0,0	82.0	43.0	0.817	0,0,0,0,0,0,1,2,3	to_hand	s568
478.61	0.359	0	PA_without_intermediate	2,0,0,3,1,0,0,0,0	test	ward_and_allport	2,0,0,3,1,0,0,0,0	71.0	43.0	0.359	0,0,0,0,0,0,1,2,3	to_board	s568
478.978	1.0	0	PA_without_intermediate	n/a	test	ward_and_allport	n/a	-1.0	43.0	n/a	n/a	feedback	s568
479.978	4.128	0	PA_without_intermediate	n/a	test	ward_and_allport	n/a	-1.0	43.0	n/a	n/a	ITI	s568
484.114	1.996	1	PA_without_intermediate	1,2,0,0,0,0,0,0,0	test	ward_and_allport	0,0,0,3,1,0,2,0,0	89.0	44.0	1.996	1,2,3,0,0,0,0,0,0	to_hand	s568
486.111	0.512	0	PA_without_intermediate	1,2,0,3,0,0,0,0,0	test	ward_and_allport	0,0,0,3,1,0,2,0,0	71.0	44.0	0.512	1,2,3,0,0,0,0,0,0	to_board	s568
486.631	0.694	0	PA_without_intermediate	1,0,0,3,0,0,0,0,0	test	ward_and_allport	0,0,0,3,1,0,2,0,0	89.0	44.0	0.694	1,2,3,0,0,0,0,0,0	to_hand	s568
487.325	0.379	0	PA_without_intermediate	1,0,0,3,0,0,2,0,0	test	ward_and_allport	0,0,0,3,1,0,2,0,0	82.0	44.0	0.379	1,2,3,0,0,0,0,0,0	to_board	s568
487.715	0.538	0	PA_without_intermediate	0,0,0,3,0,0,2,0,0	test	ward_and_allport	0,0,0,3,1,0,2,0,0	89.0	44.0	0.538	1,2,3,0,0,0,0,0,0	to_hand	s568
488.254	0.363	0	PA_without_intermediate	0,0,0,3,1,0,2,0,0	test	ward_and_allport	0,0,0,3,1,0,2,0,0	71.0	44.0	0.363	1,2,3,0,0,0,0,0,0	to_board	s568
488.629	1.0	0	PA_without_intermediate	n/a	test	ward_and_allport	n/a	-1.0	44.0	n/a	n/a	feedback	s568
489.629	1.136	0	PA_without_intermediate	n/a	test	ward_and_allport	n/a	-1.0	44.0	n/a	n/a	ITI	s568
495.779	1.553	1	PA_without_intermediate	0,0,0,0,0,0,1,2,0	test	ward_and_allport	3,1,0,2,0,0,0,0,0	82.0	45.0	1.553	0,0,0,0,0,0,1,2,3	to_hand	s568
497.333	0.346	0	PA_without_intermediate	3,0,0,0,0,0,1,2,0	test	ward_and_allport	3,1,0,2,0,0,0,0,0	89.0	45.0	0.346	0,0,0,0,0,0,1,2,3	to_board	s568
497.69	0.607	0	PA_without_intermediate	3,0,0,0,0,0,1,0,0	test	ward_and_allport	3,1,0,2,0,0,0,0,0	82.0	45.0	0.607	0,0,0,0,0,0,1,2,3	to_hand	s568
498.299	0.519	0	PA_without_intermediate	3,0,0,2,0,0,1,0,0	test	ward_and_allport	3,1,0,2,0,0,0,0,0	71.0	45.0	0.519	0,0,0,0,0,0,1,2,3	to_board	s568
498.829	0.492	0	PA_without_intermediate	3,0,0,2,0,0,0,0,0	test	ward_and_allport	3,1,0,2,0,0,0,0,0	82.0	45.0	0.492	0,0,0,0,0,0,1,2,3	to_hand	s568
499.322	0.489	0	PA_without_intermediate	3,1,0,2,0,0,0,0,0	test	ward_and_allport	3,1,0,2,0,0,0,0,0	89.0	45.0	0.489	0,0,0,0,0,0,1,2,3	to_board	s568
499.822	1.0	0	PA_without_intermediate	n/a	test	ward_and_allport	n/a	-1.0	45.0	n/a	n/a	feedback	s568
500.822	4.264	0	PA_without_intermediate	n/a	test	ward_and_allport	n/a	-1.0	45.0	n/a	n/a	ITI	s568
505.096	2.042	1	PA_with_intermediate	1,2,0,0,0,0,0,0,0	test	ward_and_allport	1,3,0,0,0,0,2,0,0	89.0	46.0	2.042	1,2,3,0,0,0,0,0,0	to_hand	s568
507.14	0.498	0	PA_with_intermediate	1,2,0,3,0,0,0,0,0	test	ward_and_allport	1,3,0,0,0,0,2,0,0	71.0	46.0	0.498	1,2,3,0,0,0,0,0,0	to_board	s568
507.649	0.333	0	PA_with_intermediate	1,0,0,3,0,0,0,0,0	test	ward_and_allport	1,3,0,0,0,0,2,0,0	89.0	46.0	0.333	1,2,3,0,0,0,0,0,0	to_hand	s568
507.982	0.438	0	PA_with_intermediate	1,0,0,3,0,0,2,0,0	test	ward_and_allport	1,3,0,0,0,0,2,0,0	82.0	46.0	0.438	1,2,3,0,0,0,0,0,0	to_board	s568
508.432	0.422	0	PA_with_intermediate	0,0,0,3,0,0,2,0,0	test	ward_and_allport	1,3,0,0,0,0,2,0,0	89.0	46.0	0.422	1,2,3,0,0,0,0,0,0	to_hand	s568
508.854	1.608	0	PA_with_intermediate	1,0,0,3,0,0,2,0,0	test	ward_and_allport	1,3,0,0,0,0,2,0,0	89.0	46.0	1.608	1,2,3,0,0,0,0,0,0	to_board	s568
510.474	0.808	0	PA_with_intermediate	1,0,0,0,0,0,2,0,0	test	ward_and_allport	1,3,0,0,0,0,2,0,0	71.0	46.0	0.808	1,2,3,0,0,0,0,0,0	to_hand	s568
511.282	0.242	0	PA_with_intermediate	1,3,0,0,0,0,2,0,0	test	ward_and_allport	1,3,0,0,0,0,2,0,0	89.0	46.0	0.242	1,2,3,0,0,0,0,0,0	to_board	s568
511.532	1.0	0	PA_with_intermediate	n/a	test	ward_and_allport	n/a	-1.0	46.0	n/a	n/a	feedback	s568
512.532	3.04	0	PA_with_intermediate	n/a	test	ward_and_allport	n/a	-1.0	46.0	n/a	n/a	ITI	s568
515.579	3.65	1	PA_with_intermediate	1,2,0,0,0,0,0,0,0	test	ward_and_allport	1,0,0,0,0,0,2,3,0	89.0	47.0	3.65	1,2,3,0,0,0,0,0,0	to_hand	s568
519.23	1.151	0	PA_with_intermediate	1,2,0,3,0,0,0,0,0	test	ward_and_allport	1,0,0,0,0,0,2,3,0	71.0	47.0	1.151	1,2,3,0,0,0,0,0,0	to_board	s568
520.393	0.482	0	PA_with_intermediate	1,0,0,3,0,0,0,0,0	test	ward_and_allport	1,0,0,0,0,0,2,3,0	89.0	47.0	0.482	1,2,3,0,0,0,0,0,0	to_hand	s568
520.875	0.416	0	PA_with_intermediate	1,0,0,3,0,0,2,0,0	test	ward_and_allport	1,0,0,0,0,0,2,3,0	82.0	47.0	0.416	1,2,3,0,0,0,0,0,0	to_board	s568
521.302	0.74	0	PA_with_intermediate	1,0,0,0,0,0,2,0,0	test	ward_and_allport	1,0,0,0,0,0,2,3,0	71.0	47.0	0.74	1,2,3,0,0,0,0,0,0	to_hand	s568
522.042	0.35	0	PA_with_intermediate	1,0,0,0,0,0,2,3,0	test	ward_and_allport	1,0,0,0,0,0,2,3,0	82.0	47.0	0.35	1,2,3,0,0,0,0,0,0	to_board	s568
522.403	1.0	0	PA_with_intermediate	n/a	test	ward_and_allport	n/a	-1.0	47.0	n/a	n/a	feedback	s568
523.403	1.136	0	PA_with_intermediate	n/a	test	ward_and_allport	n/a	-1.0	47.0	n/a	n/a	ITI	s568
n/a	n/a	0	n/a	n/a	n/a	n/a	n/a	n/a	n/a	n/a	n/a	ITI	n/a
