onset	duration	planning	condition	current_position	exp_stage	experiment_exp_id	goal_state	key_press	problem_id	response_time	start_state	trial_id	worker_id
-93.185	0.0	0	n/a	n/a	n/a	ward_and_allport	n/a	32.0	n/a	37.589	n/a	instructions	s606
3.011	7.823	1	UA_with_intermediate	1,0,0,2,0,0,0,0,0	practice	ward_and_allport	1,2,3,0,0,0,0,0,0	71.0	0.0	7.823	1,0,0,2,3,0,0,0,0	to_hand	s606
10.836	1.52	0	UA_with_intermediate	1,0,0,2,0,0,3,0,0	practice	ward_and_allport	1,2,3,0,0,0,0,0,0	82.0	0.0	1.52	1,0,0,2,3,0,0,0,0	to_board	s606
12.359	2.082	0	UA_with_intermediate	1,0,0,0,0,0,3,0,0	practice	ward_and_allport	1,2,3,0,0,0,0,0,0	71.0	0.0	2.082	1,0,0,2,3,0,0,0,0	to_hand	s606
14.443	0.527	0	UA_with_intermediate	1,2,0,0,0,0,3,0,0	practice	ward_and_allport	1,2,3,0,0,0,0,0,0	89.0	0.0	0.527	1,0,0,2,3,0,0,0,0	to_board	s606
14.972	0.924	0	UA_with_intermediate	1,2,0,0,0,0,0,0,0	practice	ward_and_allport	1,2,3,0,0,0,0,0,0	82.0	0.0	0.924	1,0,0,2,3,0,0,0,0	to_hand	s606
15.898	0.473	0	UA_with_intermediate	1,2,3,0,0,0,0,0,0	practice	ward_and_allport	1,2,3,0,0,0,0,0,0	89.0	0.0	0.473	1,0,0,2,3,0,0,0,0	to_board	s606
16.376	1.0	0	UA_with_intermediate	n/a	practice	ward_and_allport	n/a	-1.0	0.0	n/a	n/a	feedback	s606
18.879	12.972	1	UA_with_intermediate	1,0,0,3,0,0,0,0,0	practice	ward_and_allport	1,3,2,0,0,0,0,0,0	89.0	1.0	12.972	1,2,0,3,0,0,0,0,0	to_hand	s606
31.852	3.848	0	UA_with_intermediate	1,0,0,3,0,0,2,0,0	practice	ward_and_allport	1,3,2,0,0,0,0,0,0	82.0	1.0	3.848	1,2,0,3,0,0,0,0,0	to_board	s606
35.702	1.046	0	UA_with_intermediate	1,0,0,0,0,0,2,0,0	practice	ward_and_allport	1,3,2,0,0,0,0,0,0	71.0	1.0	1.046	1,2,0,3,0,0,0,0,0	to_hand	s606
36.748	0.376	0	UA_with_intermediate	1,3,0,0,0,0,2,0,0	practice	ward_and_allport	1,3,2,0,0,0,0,0,0	89.0	1.0	0.376	1,2,0,3,0,0,0,0,0	to_board	s606
37.127	0.674	0	UA_with_intermediate	1,3,0,0,0,0,0,0,0	practice	ward_and_allport	1,3,2,0,0,0,0,0,0	82.0	1.0	0.674	1,2,0,3,0,0,0,0,0	to_hand	s606
37.802	0.346	0	UA_with_intermediate	1,3,2,0,0,0,0,0,0	practice	ward_and_allport	1,3,2,0,0,0,0,0,0	89.0	1.0	0.346	1,2,0,3,0,0,0,0,0	to_board	s606
38.154	1.0	0	UA_with_intermediate	n/a	practice	ward_and_allport	n/a	-1.0	1.0	n/a	n/a	feedback	s606
39.154	1.1	0	UA_with_intermediate	n/a	practice	ward_and_allport	n/a	-1.0	1.0	n/a	n/a	ITI	s606
40.256	3.426	1	UA_without_intermediate	0,0,0,1,2,0,0,0,0	practice	ward_and_allport	3,2,1,0,0,0,0,0,0	82.0	2.0	3.426	0,0,0,1,2,0,3,0,0	to_hand	s606
43.684	0.434	0	UA_without_intermediate	3,0,0,1,2,0,0,0,0	practice	ward_and_allport	3,2,1,0,0,0,0,0,0	89.0	2.0	0.434	0,0,0,1,2,0,3,0,0	to_board	s606
44.121	1.537	0	UA_without_intermediate	3,0,0,1,0,0,0,0,0	practice	ward_and_allport	3,2,1,0,0,0,0,0,0	71.0	2.0	1.537	0,0,0,1,2,0,3,0,0	to_hand	s606
45.659	0.366	0	UA_without_intermediate	3,2,0,1,0,0,0,0,0	practice	ward_and_allport	3,2,1,0,0,0,0,0,0	89.0	2.0	0.366	0,0,0,1,2,0,3,0,0	to_board	s606
46.029	1.822	0	UA_without_intermediate	3,2,0,0,0,0,0,0,0	practice	ward_and_allport	3,2,1,0,0,0,0,0,0	71.0	2.0	1.822	0,0,0,1,2,0,3,0,0	to_hand	s606
47.852	0.317	0	UA_without_intermediate	3,2,1,0,0,0,0,0,0	practice	ward_and_allport	3,2,1,0,0,0,0,0,0	89.0	2.0	0.317	0,0,0,1,2,0,3,0,0	to_board	s606
48.176	1.0	0	UA_without_intermediate	n/a	practice	ward_and_allport	n/a	-1.0	2.0	n/a	n/a	feedback	s606
49.176	1.2	0	UA_without_intermediate	n/a	practice	ward_and_allport	n/a	-1.0	2.0	n/a	n/a	ITI	s606
50.379	2.481	1	UA_without_intermediate	0,0,0,1,0,0,3,0,0	practice	ward_and_allport	2,3,1,0,0,0,0,0,0	71.0	3.0	2.481	0,0,0,1,2,0,3,0,0	to_hand	s606
52.862	0.315	0	UA_without_intermediate	2,0,0,1,0,0,3,0,0	practice	ward_and_allport	2,3,1,0,0,0,0,0,0	89.0	3.0	0.315	0,0,0,1,2,0,3,0,0	to_board	s606
53.179	1.731	0	UA_without_intermediate	2,0,0,1,0,0,0,0,0	practice	ward_and_allport	2,3,1,0,0,0,0,0,0	82.0	3.0	1.731	0,0,0,1,2,0,3,0,0	to_hand	s606
54.912	0.588	0	UA_without_intermediate	2,3,0,1,0,0,0,0,0	practice	ward_and_allport	2,3,1,0,0,0,0,0,0	89.0	3.0	0.588	0,0,0,1,2,0,3,0,0	to_board	s606
55.502	0.457	0	UA_without_intermediate	2,3,0,0,0,0,0,0,0	practice	ward_and_allport	2,3,1,0,0,0,0,0,0	71.0	3.0	0.457	0,0,0,1,2,0,3,0,0	to_hand	s606
55.961	0.313	0	UA_without_intermediate	2,3,1,0,0,0,0,0,0	practice	ward_and_allport	2,3,1,0,0,0,0,0,0	89.0	3.0	0.313	0,0,0,1,2,0,3,0,0	to_board	s606
56.28	1.0	0	UA_without_intermediate	n/a	practice	ward_and_allport	n/a	-1.0	3.0	n/a	n/a	feedback	s606
57.28	1.0	0	UA_without_intermediate	n/a	practice	ward_and_allport	n/a	-1.0	3.0	n/a	n/a	ITI	s606
60.286	10.494	1	PA_with_intermediate	1,2,0,0,0,0,0,0,0	test	ward_and_allport	1,3,0,0,0,0,2,0,0	89.0	0.0	10.494	1,2,3,0,0,0,0,0,0	to_hand	s606
70.781	2.746	0	PA_with_intermediate	1,2,3,0,0,0,0,0,0	test	ward_and_allport	1,3,0,0,0,0,2,0,0	89.0	0.0	2.746	1,2,3,0,0,0,0,0,0	to_board	s606
73.529	0.685	0	PA_with_intermediate	1,2,0,0,0,0,0,0,0	test	ward_and_allport	1,3,0,0,0,0,2,0,0	89.0	0.0	0.685	1,2,3,0,0,0,0,0,0	to_hand	s606
74.215	2.807	0	PA_with_intermediate	1,2,0,3,0,0,0,0,0	test	ward_and_allport	1,3,0,0,0,0,2,0,0	71.0	0.0	2.807	1,2,3,0,0,0,0,0,0	to_board	s606
77.025	0.905	0	PA_with_intermediate	1,0,0,3,0,0,0,0,0	test	ward_and_allport	1,3,0,0,0,0,2,0,0	89.0	0.0	0.905	1,2,3,0,0,0,0,0,0	to_hand	s606
77.932	0.44	0	PA_with_intermediate	1,0,0,3,0,0,2,0,0	test	ward_and_allport	1,3,0,0,0,0,2,0,0	82.0	0.0	0.44	1,2,3,0,0,0,0,0,0	to_board	s606
78.374	8.874	0	PA_with_intermediate	1,0,0,0,0,0,2,0,0	test	ward_and_allport	1,3,0,0,0,0,2,0,0	71.0	0.0	8.874	1,2,3,0,0,0,0,0,0	to_hand	s606
87.25	0.321	0	PA_with_intermediate	1,3,0,0,0,0,2,0,0	test	ward_and_allport	1,3,0,0,0,0,2,0,0	89.0	0.0	0.321	1,2,3,0,0,0,0,0,0	to_board	s606
87.574	1.0	0	PA_with_intermediate	n/a	test	ward_and_allport	n/a	-1.0	0.0	n/a	n/a	feedback	s606
88.574	2.768	0	PA_with_intermediate	n/a	test	ward_and_allport	n/a	-1.0	0.0	n/a	n/a	ITI	s606
91.344	6.397	1	PA_with_intermediate	0,0,0,0,0,0,1,2,0	test	ward_and_allport	0,0,0,2,3,0,1,0,0	82.0	1.0	6.397	0,0,0,0,0,0,1,2,3	to_hand	s606
97.743	0.541	0	PA_with_intermediate	3,0,0,0,0,0,1,2,0	test	ward_and_allport	0,0,0,2,3,0,1,0,0	89.0	1.0	0.541	0,0,0,0,0,0,1,2,3	to_board	s606
98.287	3.167	0	PA_with_intermediate	3,0,0,0,0,0,1,0,0	test	ward_and_allport	0,0,0,2,3,0,1,0,0	82.0	1.0	3.167	0,0,0,0,0,0,1,2,3	to_hand	s606
101.455	0.594	0	PA_with_intermediate	3,0,0,2,0,0,1,0,0	test	ward_and_allport	0,0,0,2,3,0,1,0,0	71.0	1.0	0.594	0,0,0,0,0,0,1,2,3	to_board	s606
102.053	1.649	0	PA_with_intermediate	0,0,0,2,0,0,1,0,0	test	ward_and_allport	0,0,0,2,3,0,1,0,0	89.0	1.0	1.649	0,0,0,0,0,0,1,2,3	to_hand	s606
103.703	0.53	0	PA_with_intermediate	0,0,0,2,3,0,1,0,0	test	ward_and_allport	0,0,0,2,3,0,1,0,0	71.0	1.0	0.53	0,0,0,0,0,0,1,2,3	to_board	s606
104.236	1.0	0	PA_with_intermediate	n/a	test	ward_and_allport	n/a	-1.0	1.0	n/a	n/a	feedback	s606
105.236	1.68	0	PA_with_intermediate	n/a	test	ward_and_allport	n/a	-1.0	1.0	n/a	n/a	ITI	s606
106.92	3.178	1	PA_without_intermediate	0,0,0,0,0,0,1,2,0	test	ward_and_allport	3,2,0,1,0,0,0,0,0	82.0	2.0	3.178	0,0,0,0,0,0,1,2,3	to_hand	s606
110.099	0.847	0	PA_without_intermediate	3,0,0,0,0,0,1,2,0	test	ward_and_allport	3,2,0,1,0,0,0,0,0	89.0	2.0	0.847	0,0,0,0,0,0,1,2,3	to_board	s606
110.949	2.604	0	PA_without_intermediate	3,0,0,0,0,0,1,0,0	test	ward_and_allport	3,2,0,1,0,0,0,0,0	82.0	2.0	2.604	0,0,0,0,0,0,1,2,3	to_hand	s606
113.555	0.715	0	PA_without_intermediate	3,2,0,0,0,0,1,0,0	test	ward_and_allport	3,2,0,1,0,0,0,0,0	89.0	2.0	0.715	0,0,0,0,0,0,1,2,3	to_board	s606
114.273	1.549	0	PA_without_intermediate	3,2,0,0,0,0,0,0,0	test	ward_and_allport	3,2,0,1,0,0,0,0,0	82.0	2.0	1.549	0,0,0,0,0,0,1,2,3	to_hand	s606
115.824	0.385	0	PA_without_intermediate	3,2,0,1,0,0,0,0,0	test	ward_and_allport	3,2,0,1,0,0,0,0,0	71.0	2.0	0.385	0,0,0,0,0,0,1,2,3	to_board	s606
116.215	1.0	0	PA_without_intermediate	n/a	test	ward_and_allport	n/a	-1.0	2.0	n/a	n/a	feedback	s606
117.215	2.224	0	PA_without_intermediate	n/a	test	ward_and_allport	n/a	-1.0	2.0	n/a	n/a	ITI	s606
119.442	4.53	1	PA_without_intermediate	0,0,0,1,2,0,0,0,0	test	ward_and_allport	2,0,0,0,0,0,3,1,0	71.0	3.0	4.53	0,0,0,1,2,3,0,0,0	to_hand	s606
123.974	0.413	0	PA_without_intermediate	0,0,0,1,2,0,3,0,0	test	ward_and_allport	2,0,0,0,0,0,3,1,0	82.0	3.0	0.413	0,0,0,1,2,3,0,0,0	to_board	s606
124.388	1.226	0	PA_without_intermediate	0,0,0,1,0,0,3,0,0	test	ward_and_allport	2,0,0,0,0,0,3,1,0	71.0	3.0	1.226	0,0,0,1,2,3,0,0,0	to_hand	s606
125.616	0.333	0	PA_without_intermediate	2,0,0,1,0,0,3,0,0	test	ward_and_allport	2,0,0,0,0,0,3,1,0	89.0	3.0	0.333	0,0,0,1,2,3,0,0,0	to_board	s606
125.952	1.876	0	PA_without_intermediate	2,0,0,0,0,0,3,0,0	test	ward_and_allport	2,0,0,0,0,0,3,1,0	71.0	3.0	1.876	0,0,0,1,2,3,0,0,0	to_hand	s606
127.83	0.549	0	PA_without_intermediate	2,0,0,0,0,0,3,1,0	test	ward_and_allport	2,0,0,0,0,0,3,1,0	82.0	3.0	0.549	0,0,0,1,2,3,0,0,0	to_board	s606
128.384	1.0	0	PA_without_intermediate	n/a	test	ward_and_allport	n/a	-1.0	3.0	n/a	n/a	feedback	s606
129.384	2.36	0	PA_without_intermediate	n/a	test	ward_and_allport	n/a	-1.0	3.0	n/a	n/a	ITI	s606
131.747	6.029	1	PA_without_intermediate	0,0,0,1,2,0,0,0,0	test	ward_and_allport	1,0,0,0,0,0,3,2,0	71.0	4.0	6.029	0,0,0,1,2,3,0,0,0	to_hand	s606
137.777	0.359	0	PA_without_intermediate	0,0,0,1,2,0,3,0,0	test	ward_and_allport	1,0,0,0,0,0,3,2,0	82.0	4.0	0.359	0,0,0,1,2,3,0,0,0	to_board	s606
138.139	1.091	0	PA_without_intermediate	0,0,0,1,0,0,3,0,0	test	ward_and_allport	1,0,0,0,0,0,3,2,0	71.0	4.0	1.091	0,0,0,1,2,3,0,0,0	to_hand	s606
139.231	0.457	0	PA_without_intermediate	0,0,0,1,0,0,3,2,0	test	ward_and_allport	1,0,0,0,0,0,3,2,0	82.0	4.0	0.457	0,0,0,1,2,3,0,0,0	to_board	s606
139.691	0.969	0	PA_without_intermediate	0,0,0,0,0,0,3,2,0	test	ward_and_allport	1,0,0,0,0,0,3,2,0	71.0	4.0	0.969	0,0,0,1,2,3,0,0,0	to_hand	s606
140.661	0.316	0	PA_without_intermediate	1,0,0,0,0,0,3,2,0	test	ward_and_allport	1,0,0,0,0,0,3,2,0	89.0	4.0	0.316	0,0,0,1,2,3,0,0,0	to_board	s606
140.981	1.0	0	PA_without_intermediate	n/a	test	ward_and_allport	n/a	-1.0	4.0	n/a	n/a	feedback	s606
141.981	1.0	0	PA_without_intermediate	n/a	test	ward_and_allport	n/a	-1.0	4.0	n/a	n/a	ITI	s606
142.984	7.018	1	PA_without_intermediate	0,0,0,1,2,0,0,0,0	test	ward_and_allport	3,2,0,0,0,0,1,0,0	71.0	5.0	7.018	0,0,0,1,2,3,0,0,0	to_hand	s606
150.004	0.32	0	PA_without_intermediate	0,0,0,1,2,0,3,0,0	test	ward_and_allport	3,2,0,0,0,0,1,0,0	82.0	5.0	0.32	0,0,0,1,2,3,0,0,0	to_board	s606
150.328	1.352	0	PA_without_intermediate	0,0,0,1,0,0,3,0,0	test	ward_and_allport	3,2,0,0,0,0,1,0,0	71.0	5.0	1.352	0,0,0,1,2,3,0,0,0	to_hand	s606
151.682	0.56	0	PA_without_intermediate	2,0,0,1,0,0,3,0,0	test	ward_and_allport	3,2,0,0,0,0,1,0,0	89.0	5.0	0.56	0,0,0,1,2,3,0,0,0	to_board	s606
152.244	11.965	0	PA_without_intermediate	2,0,0,1,0,0,0,0,0	test	ward_and_allport	3,2,0,0,0,0,1,0,0	82.0	5.0	11.965	0,0,0,1,2,3,0,0,0	to_hand	s606
164.21	0.865	0	PA_without_intermediate	2,3,0,1,0,0,0,0,0	test	ward_and_allport	3,2,0,0,0,0,1,0,0	89.0	5.0	0.865	0,0,0,1,2,3,0,0,0	to_board	s606
165.08	0.956	0	PA_without_intermediate	2,3,0,0,0,0,0,0,0	test	ward_and_allport	3,2,0,0,0,0,1,0,0	71.0	5.0	0.956	0,0,0,1,2,3,0,0,0	to_hand	s606
166.037	0.502	0	PA_without_intermediate	2,3,0,0,0,0,1,0,0	test	ward_and_allport	3,2,0,0,0,0,1,0,0	82.0	5.0	0.502	0,0,0,1,2,3,0,0,0	to_board	s606
166.542	2.151	0	PA_without_intermediate	2,0,0,0,0,0,1,0,0	test	ward_and_allport	3,2,0,0,0,0,1,0,0	89.0	5.0	2.151	0,0,0,1,2,3,0,0,0	to_hand	s606
168.694	1.884	0	PA_without_intermediate	2,0,0,0,0,0,1,3,0	test	ward_and_allport	3,2,0,0,0,0,1,0,0	82.0	5.0	1.884	0,0,0,1,2,3,0,0,0	to_board	s606
170.582	0.869	0	PA_without_intermediate	0,0,0,0,0,0,1,3,0	test	ward_and_allport	3,2,0,0,0,0,1,0,0	89.0	5.0	0.869	0,0,0,1,2,3,0,0,0	to_hand	s606
171.452	3.773	0	PA_without_intermediate	0,0,0,2,0,0,1,3,0	test	ward_and_allport	3,2,0,0,0,0,1,0,0	71.0	5.0	3.773	0,0,0,1,2,3,0,0,0	to_board	s606
175.228	0.426	0	PA_without_intermediate	0,0,0,2,0,0,1,0,0	test	ward_and_allport	3,2,0,0,0,0,1,0,0	82.0	5.0	0.426	0,0,0,1,2,3,0,0,0	to_hand	s606
175.655	0.394	0	PA_without_intermediate	3,0,0,2,0,0,1,0,0	test	ward_and_allport	3,2,0,0,0,0,1,0,0	89.0	5.0	0.394	0,0,0,1,2,3,0,0,0	to_board	s606
176.053	0.435	0	PA_without_intermediate	3,0,0,0,0,0,1,0,0	test	ward_and_allport	3,2,0,0,0,0,1,0,0	71.0	5.0	0.435	0,0,0,1,2,3,0,0,0	to_hand	s606
176.489	0.356	0	PA_without_intermediate	3,2,0,0,0,0,1,0,0	test	ward_and_allport	3,2,0,0,0,0,1,0,0	89.0	5.0	0.356	0,0,0,1,2,3,0,0,0	to_board	s606
176.849	1.0	0	PA_without_intermediate	n/a	test	ward_and_allport	n/a	-1.0	5.0	n/a	n/a	feedback	s606
177.849	1.408	0	PA_without_intermediate	n/a	test	ward_and_allport	n/a	-1.0	5.0	n/a	n/a	ITI	s606
179.262	3.424	1	PA_with_intermediate	0,0,0,0,0,0,1,2,0	test	ward_and_allport	2,0,0,0,0,0,1,3,0	82.0	6.0	3.424	0,0,0,0,0,0,1,2,3	to_hand	s606
182.687	4.22	0	PA_with_intermediate	0,0,0,3,0,0,1,2,0	test	ward_and_allport	2,0,0,0,0,0,1,3,0	71.0	6.0	4.22	0,0,0,0,0,0,1,2,3	to_board	s606
186.911	1.568	0	PA_with_intermediate	0,0,0,3,0,0,1,0,0	test	ward_and_allport	2,0,0,0,0,0,1,3,0	82.0	6.0	1.568	0,0,0,0,0,0,1,2,3	to_hand	s606
188.48	0.358	0	PA_with_intermediate	2,0,0,3,0,0,1,0,0	test	ward_and_allport	2,0,0,0,0,0,1,3,0	89.0	6.0	0.358	0,0,0,0,0,0,1,2,3	to_board	s606
188.841	0.702	0	PA_with_intermediate	2,0,0,0,0,0,1,0,0	test	ward_and_allport	2,0,0,0,0,0,1,3,0	71.0	6.0	0.702	0,0,0,0,0,0,1,2,3	to_hand	s606
189.544	0.547	0	PA_with_intermediate	2,0,0,0,0,0,1,3,0	test	ward_and_allport	2,0,0,0,0,0,1,3,0	82.0	6.0	0.547	0,0,0,0,0,0,1,2,3	to_board	s606
190.1	1.0	0	PA_with_intermediate	n/a	test	ward_and_allport	n/a	-1.0	6.0	n/a	n/a	feedback	s606
191.1	1.136	0	PA_with_intermediate	n/a	test	ward_and_allport	n/a	-1.0	6.0	n/a	n/a	ITI	s606
192.239	1.547	1	PA_without_intermediate	0,0,0,1,2,0,0,0,0	test	ward_and_allport	3,2,0,0,0,0,1,0,0	71.0	7.0	1.547	0,0,0,1,2,3,0,0,0	to_hand	s606
193.787	0.348	0	PA_without_intermediate	3,0,0,1,2,0,0,0,0	test	ward_and_allport	3,2,0,0,0,0,1,0,0	89.0	7.0	0.348	0,0,0,1,2,3,0,0,0	to_board	s606
194.14	0.947	0	PA_without_intermediate	3,0,0,1,0,0,0,0,0	test	ward_and_allport	3,2,0,0,0,0,1,0,0	71.0	7.0	0.947	0,0,0,1,2,3,0,0,0	to_hand	s606
195.088	0.259	0	PA_without_intermediate	3,2,0,1,0,0,0,0,0	test	ward_and_allport	3,2,0,0,0,0,1,0,0	89.0	7.0	0.259	0,0,0,1,2,3,0,0,0	to_board	s606
195.35	1.12	0	PA_without_intermediate	3,2,0,0,0,0,0,0,0	test	ward_and_allport	3,2,0,0,0,0,1,0,0	71.0	7.0	1.12	0,0,0,1,2,3,0,0,0	to_hand	s606
196.472	0.283	0	PA_without_intermediate	3,2,0,0,0,0,1,0,0	test	ward_and_allport	3,2,0,0,0,0,1,0,0	82.0	7.0	0.283	0,0,0,1,2,3,0,0,0	to_board	s606
196.762	1.0	0	PA_without_intermediate	n/a	test	ward_and_allport	n/a	-1.0	7.0	n/a	n/a	feedback	s606
197.762	4.128	0	PA_without_intermediate	n/a	test	ward_and_allport	n/a	-1.0	7.0	n/a	n/a	ITI	s606
201.894	2.461	1	PA_without_intermediate	0,0,0,1,2,0,0,0,0	test	ward_and_allport	3,1,0,0,0,0,2,0,0	71.0	8.0	2.461	0,0,0,1,2,3,0,0,0	to_hand	s606
204.355	0.326	0	PA_without_intermediate	3,0,0,1,2,0,0,0,0	test	ward_and_allport	3,1,0,0,0,0,2,0,0	89.0	8.0	0.326	0,0,0,1,2,3,0,0,0	to_board	s606
204.686	1.318	0	PA_without_intermediate	3,0,0,1,0,0,0,0,0	test	ward_and_allport	3,1,0,0,0,0,2,0,0	71.0	8.0	1.318	0,0,0,1,2,3,0,0,0	to_hand	s606
206.005	0.344	0	PA_without_intermediate	3,0,0,1,0,0,2,0,0	test	ward_and_allport	3,1,0,0,0,0,2,0,0	82.0	8.0	0.344	0,0,0,1,2,3,0,0,0	to_board	s606
206.354	0.739	0	PA_without_intermediate	3,0,0,0,0,0,2,0,0	test	ward_and_allport	3,1,0,0,0,0,2,0,0	71.0	8.0	0.739	0,0,0,1,2,3,0,0,0	to_hand	s606
207.095	0.262	0	PA_without_intermediate	3,1,0,0,0,0,2,0,0	test	ward_and_allport	3,1,0,0,0,0,2,0,0	89.0	8.0	0.262	0,0,0,1,2,3,0,0,0	to_board	s606
207.365	1.0	0	PA_without_intermediate	n/a	test	ward_and_allport	n/a	-1.0	8.0	n/a	n/a	feedback	s606
208.365	1.136	0	PA_without_intermediate	n/a	test	ward_and_allport	n/a	-1.0	8.0	n/a	n/a	ITI	s606
209.505	4.99	1	PA_without_intermediate	0,0,0,0,0,0,1,2,0	test	ward_and_allport	2,0,0,3,1,0,0,0,0	82.0	9.0	4.99	0,0,0,0,0,0,1,2,3	to_hand	s606
214.498	0.414	0	PA_without_intermediate	0,0,0,3,0,0,1,2,0	test	ward_and_allport	2,0,0,3,1,0,0,0,0	71.0	9.0	0.414	0,0,0,0,0,0,1,2,3	to_board	s606
214.916	3.384	0	PA_without_intermediate	0,0,0,3,0,0,1,0,0	test	ward_and_allport	2,0,0,3,1,0,0,0,0	82.0	9.0	3.384	0,0,0,0,0,0,1,2,3	to_hand	s606
218.303	0.337	0	PA_without_intermediate	2,0,0,3,0,0,1,0,0	test	ward_and_allport	2,0,0,3,1,0,0,0,0	89.0	9.0	0.337	0,0,0,0,0,0,1,2,3	to_board	s606
218.646	1.079	0	PA_without_intermediate	2,0,0,3,0,0,0,0,0	test	ward_and_allport	2,0,0,3,1,0,0,0,0	82.0	9.0	1.079	0,0,0,0,0,0,1,2,3	to_hand	s606
219.726	0.293	0	PA_without_intermediate	2,0,0,3,1,0,0,0,0	test	ward_and_allport	2,0,0,3,1,0,0,0,0	71.0	9.0	0.293	0,0,0,0,0,0,1,2,3	to_board	s606
220.029	1.0	0	PA_without_intermediate	n/a	test	ward_and_allport	n/a	-1.0	9.0	n/a	n/a	feedback	s606
221.029	4.264	0	PA_without_intermediate	n/a	test	ward_and_allport	n/a	-1.0	9.0	n/a	n/a	ITI	s606
225.298	5.503	1	PA_with_intermediate	1,2,0,0,0,0,0,0,0	test	ward_and_allport	1,0,0,2,3,0,0,0,0	89.0	10.0	5.503	1,2,3,0,0,0,0,0,0	to_hand	s606
230.802	1.299	0	PA_with_intermediate	1,2,0,0,0,0,3,0,0	test	ward_and_allport	1,0,0,2,3,0,0,0,0	82.0	10.0	1.299	1,2,3,0,0,0,0,0,0	to_board	s606
232.107	1.172	0	PA_with_intermediate	1,0,0,0,0,0,3,0,0	test	ward_and_allport	1,0,0,2,3,0,0,0,0	89.0	10.0	1.172	1,2,3,0,0,0,0,0,0	to_hand	s606
233.28	0.491	0	PA_with_intermediate	1,0,0,2,0,0,3,0,0	test	ward_and_allport	1,0,0,2,3,0,0,0,0	71.0	10.0	0.491	1,2,3,0,0,0,0,0,0	to_board	s606
233.776	0.541	0	PA_with_intermediate	1,0,0,2,0,0,0,0,0	test	ward_and_allport	1,0,0,2,3,0,0,0,0	82.0	10.0	0.541	1,2,3,0,0,0,0,0,0	to_hand	s606
234.318	0.639	0	PA_with_intermediate	1,0,0,2,3,0,0,0,0	test	ward_and_allport	1,0,0,2,3,0,0,0,0	71.0	10.0	0.639	1,2,3,0,0,0,0,0,0	to_board	s606
234.966	1.0	0	PA_with_intermediate	n/a	test	ward_and_allport	n/a	-1.0	10.0	n/a	n/a	feedback	s606
235.966	3.04	0	PA_with_intermediate	n/a	test	ward_and_allport	n/a	-1.0	10.0	n/a	n/a	ITI	s606
239.011	9.486	1	PA_with_intermediate	0,0,0,1,2,0,0,0,0	test	ward_and_allport	0,0,0,1,3,0,2,0,0	71.0	11.0	9.486	0,0,0,1,2,3,0,0,0	to_hand	s606
248.499	3.928	0	PA_with_intermediate	3,0,0,1,2,0,0,0,0	test	ward_and_allport	0,0,0,1,3,0,2,0,0	89.0	11.0	3.928	0,0,0,1,2,3,0,0,0	to_board	s606
252.433	0.974	0	PA_with_intermediate	3,0,0,1,0,0,0,0,0	test	ward_and_allport	0,0,0,1,3,0,2,0,0	71.0	11.0	0.974	0,0,0,1,2,3,0,0,0	to_hand	s606
253.408	0.575	0	PA_with_intermediate	3,0,0,1,0,0,2,0,0	test	ward_and_allport	0,0,0,1,3,0,2,0,0	82.0	11.0	0.575	0,0,0,1,2,3,0,0,0	to_board	s606
253.987	0.788	0	PA_with_intermediate	0,0,0,1,0,0,2,0,0	test	ward_and_allport	0,0,0,1,3,0,2,0,0	89.0	11.0	0.788	0,0,0,1,2,3,0,0,0	to_hand	s606
254.776	0.35	0	PA_with_intermediate	0,0,0,1,3,0,2,0,0	test	ward_and_allport	0,0,0,1,3,0,2,0,0	71.0	11.0	0.35	0,0,0,1,2,3,0,0,0	to_board	s606
255.131	1.0	0	PA_with_intermediate	n/a	test	ward_and_allport	n/a	-1.0	11.0	n/a	n/a	feedback	s606
256.131	1.136	0	PA_with_intermediate	n/a	test	ward_and_allport	n/a	-1.0	11.0	n/a	n/a	ITI	s606
257.273	7.492	1	PA_with_intermediate	0,0,0,1,2,0,0,0,0	test	ward_and_allport	2,0,0,1,3,0,0,0,0	71.0	12.0	7.492	0,0,0,1,2,3,0,0,0	to_hand	s606
264.766	0.469	0	PA_with_intermediate	0,0,0,1,2,0,3,0,0	test	ward_and_allport	2,0,0,1,3,0,0,0,0	82.0	12.0	0.469	0,0,0,1,2,3,0,0,0	to_board	s606
265.24	0.911	0	PA_with_intermediate	0,0,0,1,0,0,3,0,0	test	ward_and_allport	2,0,0,1,3,0,0,0,0	71.0	12.0	0.911	0,0,0,1,2,3,0,0,0	to_hand	s606
266.152	0.337	0	PA_with_intermediate	2,0,0,1,0,0,3,0,0	test	ward_and_allport	2,0,0,1,3,0,0,0,0	89.0	12.0	0.337	0,0,0,1,2,3,0,0,0	to_board	s606
266.494	0.616	0	PA_with_intermediate	2,0,0,1,0,0,0,0,0	test	ward_and_allport	2,0,0,1,3,0,0,0,0	82.0	12.0	0.616	0,0,0,1,2,3,0,0,0	to_hand	s606
267.111	0.448	0	PA_with_intermediate	2,0,0,1,3,0,0,0,0	test	ward_and_allport	2,0,0,1,3,0,0,0,0	71.0	12.0	0.448	0,0,0,1,2,3,0,0,0	to_board	s606
267.564	1.0	0	PA_with_intermediate	n/a	test	ward_and_allport	n/a	-1.0	12.0	n/a	n/a	feedback	s606
268.564	1.408	0	PA_with_intermediate	n/a	test	ward_and_allport	n/a	-1.0	12.0	n/a	n/a	ITI	s606
269.978	3.152	1	PA_without_intermediate	1,2,0,0,0,0,0,0,0	test	ward_and_allport	0,0,0,1,0,0,3,2,0	89.0	13.0	3.152	1,2,3,0,0,0,0,0,0	to_hand	s606
273.131	0.608	0	PA_without_intermediate	1,2,0,0,0,0,3,0,0	test	ward_and_allport	0,0,0,1,0,0,3,2,0	82.0	13.0	0.608	1,2,3,0,0,0,0,0,0	to_board	s606
273.744	1.176	0	PA_without_intermediate	1,0,0,0,0,0,3,0,0	test	ward_and_allport	0,0,0,1,0,0,3,2,0	89.0	13.0	1.176	1,2,3,0,0,0,0,0,0	to_hand	s606
274.921	0.404	0	PA_without_intermediate	1,0,0,0,0,0,3,2,0	test	ward_and_allport	0,0,0,1,0,0,3,2,0	82.0	13.0	0.404	1,2,3,0,0,0,0,0,0	to_board	s606
275.33	1.481	0	PA_without_intermediate	0,0,0,0,0,0,3,2,0	test	ward_and_allport	0,0,0,1,0,0,3,2,0	89.0	13.0	1.481	1,2,3,0,0,0,0,0,0	to_hand	s606
276.813	0.363	0	PA_without_intermediate	0,0,0,1,0,0,3,2,0	test	ward_and_allport	0,0,0,1,0,0,3,2,0	71.0	13.0	0.363	1,2,3,0,0,0,0,0,0	to_board	s606
277.186	1.0	0	PA_without_intermediate	n/a	test	ward_and_allport	n/a	-1.0	13.0	n/a	n/a	feedback	s606
278.186	1.68	0	PA_without_intermediate	n/a	test	ward_and_allport	n/a	-1.0	13.0	n/a	n/a	ITI	s606
279.87	3.608	1	PA_with_intermediate	0,0,0,0,0,0,1,2,0	test	ward_and_allport	2,3,0,0,0,0,1,0,0	82.0	14.0	3.608	0,0,0,0,0,0,1,2,3	to_hand	s606
283.479	0.809	0	PA_with_intermediate	3,0,0,0,0,0,1,2,0	test	ward_and_allport	2,3,0,0,0,0,1,0,0	89.0	14.0	0.809	0,0,0,0,0,0,1,2,3	to_board	s606
284.294	1.708	0	PA_with_intermediate	3,0,0,0,0,0,1,0,0	test	ward_and_allport	2,3,0,0,0,0,1,0,0	82.0	14.0	1.708	0,0,0,0,0,0,1,2,3	to_hand	s606
286.003	0.466	0	PA_with_intermediate	3,2,0,0,0,0,1,0,0	test	ward_and_allport	2,3,0,0,0,0,1,0,0	89.0	14.0	0.466	0,0,0,0,0,0,1,2,3	to_board	s606
286.474	4.547	0	PA_with_intermediate	3,2,0,0,0,0,0,0,0	test	ward_and_allport	2,3,0,0,0,0,1,0,0	82.0	14.0	4.547	0,0,0,0,0,0,1,2,3	to_hand	s606
291.022	3.802	0	PA_with_intermediate	3,2,0,0,0,0,1,0,0	test	ward_and_allport	2,3,0,0,0,0,1,0,0	82.0	14.0	3.802	0,0,0,0,0,0,1,2,3	to_board	s606
294.829	0.915	0	PA_with_intermediate	3,0,0,0,0,0,1,0,0	test	ward_and_allport	2,3,0,0,0,0,1,0,0	89.0	14.0	0.915	0,0,0,0,0,0,1,2,3	to_hand	s606
295.746	3.5	0	PA_with_intermediate	3,0,0,2,0,0,1,0,0	test	ward_and_allport	2,3,0,0,0,0,1,0,0	71.0	14.0	3.5	0,0,0,0,0,0,1,2,3	to_board	s606
299.251	3.203	0	PA_with_intermediate	0,0,0,2,0,0,1,0,0	test	ward_and_allport	2,3,0,0,0,0,1,0,0	89.0	14.0	3.203	0,0,0,0,0,0,1,2,3	to_hand	s606
302.455	0.77	0	PA_with_intermediate	0,0,0,2,0,0,1,3,0	test	ward_and_allport	2,3,0,0,0,0,1,0,0	82.0	14.0	0.77	0,0,0,0,0,0,1,2,3	to_board	s606
303.231	1.065	0	PA_with_intermediate	0,0,0,0,0,0,1,3,0	test	ward_and_allport	2,3,0,0,0,0,1,0,0	71.0	14.0	1.065	0,0,0,0,0,0,1,2,3	to_hand	s606
304.298	0.381	0	PA_with_intermediate	2,0,0,0,0,0,1,3,0	test	ward_and_allport	2,3,0,0,0,0,1,0,0	89.0	14.0	0.381	0,0,0,0,0,0,1,2,3	to_board	s606
304.686	0.81	0	PA_with_intermediate	2,0,0,0,0,0,1,0,0	test	ward_and_allport	2,3,0,0,0,0,1,0,0	82.0	14.0	0.81	0,0,0,0,0,0,1,2,3	to_hand	s606
305.497	0.327	0	PA_with_intermediate	2,3,0,0,0,0,1,0,0	test	ward_and_allport	2,3,0,0,0,0,1,0,0	89.0	14.0	0.327	0,0,0,0,0,0,1,2,3	to_board	s606
305.834	1.0	0	PA_with_intermediate	n/a	test	ward_and_allport	n/a	-1.0	14.0	n/a	n/a	feedback	s606
306.834	3.72	0	PA_with_intermediate	n/a	test	ward_and_allport	n/a	-1.0	14.0	n/a	n/a	ITI	s606
315.561	6.102	1	PA_without_intermediate	1,2,0,0,0,0,0,0,0	test	ward_and_allport	0,0,0,3,2,0,1,0,0	89.0	15.0	6.102	1,2,3,0,0,0,0,0,0	to_hand	s606
321.664	1.429	0	PA_without_intermediate	1,2,0,3,0,0,0,0,0	test	ward_and_allport	0,0,0,3,2,0,1,0,0	71.0	15.0	1.429	1,2,3,0,0,0,0,0,0	to_board	s606
323.098	0.837	0	PA_without_intermediate	1,0,0,3,0,0,0,0,0	test	ward_and_allport	0,0,0,3,2,0,1,0,0	89.0	15.0	0.837	1,2,3,0,0,0,0,0,0	to_hand	s606
323.936	0.418	0	PA_without_intermediate	1,0,0,3,2,0,0,0,0	test	ward_and_allport	0,0,0,3,2,0,1,0,0	71.0	15.0	0.418	1,2,3,0,0,0,0,0,0	to_board	s606
324.36	0.555	0	PA_without_intermediate	0,0,0,3,2,0,0,0,0	test	ward_and_allport	0,0,0,3,2,0,1,0,0	89.0	15.0	0.555	1,2,3,0,0,0,0,0,0	to_hand	s606
324.916	0.333	0	PA_without_intermediate	0,0,0,3,2,0,1,0,0	test	ward_and_allport	0,0,0,3,2,0,1,0,0	82.0	15.0	0.333	1,2,3,0,0,0,0,0,0	to_board	s606
325.256	1.0	0	PA_without_intermediate	n/a	test	ward_and_allport	n/a	-1.0	15.0	n/a	n/a	feedback	s606
326.256	2.224	0	PA_without_intermediate	n/a	test	ward_and_allport	n/a	-1.0	15.0	n/a	n/a	ITI	s606
328.486	2.727	1	PA_without_intermediate	1,2,0,0,0,0,0,0,0	test	ward_and_allport	0,0,0,3,2,0,1,0,0	89.0	16.0	2.727	1,2,3,0,0,0,0,0,0	to_hand	s606
331.214	0.878	0	PA_without_intermediate	1,2,0,3,0,0,0,0,0	test	ward_and_allport	0,0,0,3,2,0,1,0,0	71.0	16.0	0.878	1,2,3,0,0,0,0,0,0	to_board	s606
332.098	0.795	0	PA_without_intermediate	1,0,0,3,0,0,0,0,0	test	ward_and_allport	0,0,0,3,2,0,1,0,0	89.0	16.0	0.795	1,2,3,0,0,0,0,0,0	to_hand	s606
332.894	0.413	0	PA_without_intermediate	1,0,0,3,2,0,0,0,0	test	ward_and_allport	0,0,0,3,2,0,1,0,0	71.0	16.0	0.413	1,2,3,0,0,0,0,0,0	to_board	s606
333.313	0.672	0	PA_without_intermediate	0,0,0,3,2,0,0,0,0	test	ward_and_allport	0,0,0,3,2,0,1,0,0	89.0	16.0	0.672	1,2,3,0,0,0,0,0,0	to_hand	s606
333.986	0.39	0	PA_without_intermediate	0,0,0,3,2,0,1,0,0	test	ward_and_allport	0,0,0,3,2,0,1,0,0	82.0	16.0	0.39	1,2,3,0,0,0,0,0,0	to_board	s606
334.383	1.0	0	PA_without_intermediate	n/a	test	ward_and_allport	n/a	-1.0	16.0	n/a	n/a	feedback	s606
335.383	1.272	0	PA_without_intermediate	n/a	test	ward_and_allport	n/a	-1.0	16.0	n/a	n/a	ITI	s606
336.661	2.403	1	PA_with_intermediate	0,0,0,1,2,0,0,0,0	test	ward_and_allport	0,0,0,1,0,0,2,3,0	71.0	17.0	2.403	0,0,0,1,2,3,0,0,0	to_hand	s606
339.066	0.581	0	PA_with_intermediate	0,0,0,1,2,0,3,0,0	test	ward_and_allport	0,0,0,1,0,0,2,3,0	82.0	17.0	0.581	0,0,0,1,2,3,0,0,0	to_board	s606
339.653	0.702	0	PA_with_intermediate	0,0,0,1,0,0,3,0,0	test	ward_and_allport	0,0,0,1,0,0,2,3,0	71.0	17.0	0.702	0,0,0,1,2,3,0,0,0	to_hand	s606
340.357	0.33	0	PA_with_intermediate	0,0,0,1,0,0,3,2,0	test	ward_and_allport	0,0,0,1,0,0,2,3,0	82.0	17.0	0.33	0,0,0,1,2,3,0,0,0	to_board	s606
340.693	5.04	0	PA_with_intermediate	0,0,0,0,0,0,3,2,0	test	ward_and_allport	0,0,0,1,0,0,2,3,0	71.0	17.0	5.04	0,0,0,1,2,3,0,0,0	to_hand	s606
345.734	2.145	0	PA_with_intermediate	0,0,0,1,0,0,3,2,0	test	ward_and_allport	0,0,0,1,0,0,2,3,0	71.0	17.0	2.145	0,0,0,1,2,3,0,0,0	to_board	s606
347.884	0.929	0	PA_with_intermediate	0,0,0,1,0,0,3,0,0	test	ward_and_allport	0,0,0,1,0,0,2,3,0	82.0	17.0	0.929	0,0,0,1,2,3,0,0,0	to_hand	s606
348.814	0.452	0	PA_with_intermediate	0,0,0,1,2,0,3,0,0	test	ward_and_allport	0,0,0,1,0,0,2,3,0	71.0	17.0	0.452	0,0,0,1,2,3,0,0,0	to_board	s606
349.272	2.89	0	PA_with_intermediate	0,0,0,1,2,0,0,0,0	test	ward_and_allport	0,0,0,1,0,0,2,3,0	82.0	17.0	2.89	0,0,0,1,2,3,0,0,0	to_hand	s606
352.163	0.416	0	PA_with_intermediate	3,0,0,1,2,0,0,0,0	test	ward_and_allport	0,0,0,1,0,0,2,3,0	89.0	17.0	0.416	0,0,0,1,2,3,0,0,0	to_board	s606
352.586	0.424	0	PA_with_intermediate	3,0,0,1,0,0,0,0,0	test	ward_and_allport	0,0,0,1,0,0,2,3,0	71.0	17.0	0.424	0,0,0,1,2,3,0,0,0	to_hand	s606
353.011	0.338	0	PA_with_intermediate	3,0,0,1,0,0,2,0,0	test	ward_and_allport	0,0,0,1,0,0,2,3,0	82.0	17.0	0.338	0,0,0,1,2,3,0,0,0	to_board	s606
353.355	0.449	0	PA_with_intermediate	0,0,0,1,0,0,2,0,0	test	ward_and_allport	0,0,0,1,0,0,2,3,0	89.0	17.0	0.449	0,0,0,1,2,3,0,0,0	to_hand	s606
353.806	0.301	0	PA_with_intermediate	0,0,0,1,0,0,2,3,0	test	ward_and_allport	0,0,0,1,0,0,2,3,0	82.0	17.0	0.301	0,0,0,1,2,3,0,0,0	to_board	s606
354.118	1.0	0	PA_with_intermediate	n/a	test	ward_and_allport	n/a	-1.0	17.0	n/a	n/a	feedback	s606
355.118	2.632	0	PA_with_intermediate	n/a	test	ward_and_allport	n/a	-1.0	17.0	n/a	n/a	ITI	s606
357.756	4.242	1	PA_without_intermediate	0,0,0,0,0,0,1,2,0	test	ward_and_allport	1,0,0,3,2,0,0,0,0	82.0	18.0	4.242	0,0,0,0,0,0,1,2,3	to_hand	s606
361.999	0.617	0	PA_without_intermediate	0,0,0,3,0,0,1,2,0	test	ward_and_allport	1,0,0,3,2,0,0,0,0	71.0	18.0	0.617	0,0,0,0,0,0,1,2,3	to_board	s606
362.623	1.627	0	PA_without_intermediate	0,0,0,3,0,0,1,0,0	test	ward_and_allport	1,0,0,3,2,0,0,0,0	82.0	18.0	1.627	0,0,0,0,0,0,1,2,3	to_hand	s606
364.251	0.389	0	PA_without_intermediate	0,0,0,3,2,0,1,0,0	test	ward_and_allport	1,0,0,3,2,0,0,0,0	71.0	18.0	0.389	0,0,0,0,0,0,1,2,3	to_board	s606
364.648	1.061	0	PA_without_intermediate	0,0,0,3,2,0,0,0,0	test	ward_and_allport	1,0,0,3,2,0,0,0,0	82.0	18.0	1.061	0,0,0,0,0,0,1,2,3	to_hand	s606
365.71	0.32	0	PA_without_intermediate	1,0,0,3,2,0,0,0,0	test	ward_and_allport	1,0,0,3,2,0,0,0,0	89.0	18.0	0.32	0,0,0,0,0,0,1,2,3	to_board	s606
366.042	1.0	0	PA_without_intermediate	n/a	test	ward_and_allport	n/a	-1.0	18.0	n/a	n/a	feedback	s606
367.042	1.408	0	PA_without_intermediate	n/a	test	ward_and_allport	n/a	-1.0	18.0	n/a	n/a	ITI	s606
368.457	2.305	1	PA_without_intermediate	1,2,0,0,0,0,0,0,0	test	ward_and_allport	0,0,0,2,0,0,3,1,0	89.0	19.0	2.305	1,2,3,0,0,0,0,0,0	to_hand	s606
370.763	0.371	0	PA_without_intermediate	1,2,0,0,0,0,3,0,0	test	ward_and_allport	0,0,0,2,0,0,3,1,0	82.0	19.0	0.371	1,2,3,0,0,0,0,0,0	to_board	s606
371.142	0.915	0	PA_without_intermediate	1,0,0,0,0,0,3,0,0	test	ward_and_allport	0,0,0,2,0,0,3,1,0	89.0	19.0	0.915	1,2,3,0,0,0,0,0,0	to_hand	s606
372.059	0.325	0	PA_without_intermediate	1,0,0,2,0,0,3,0,0	test	ward_and_allport	0,0,0,2,0,0,3,1,0	71.0	19.0	0.325	1,2,3,0,0,0,0,0,0	to_board	s606
372.392	0.669	0	PA_without_intermediate	0,0,0,2,0,0,3,0,0	test	ward_and_allport	0,0,0,2,0,0,3,1,0	89.0	19.0	0.669	1,2,3,0,0,0,0,0,0	to_hand	s606
373.062	0.516	0	PA_without_intermediate	0,0,0,2,0,0,3,1,0	test	ward_and_allport	0,0,0,2,0,0,3,1,0	82.0	19.0	0.516	1,2,3,0,0,0,0,0,0	to_board	s606
373.586	1.0	0	PA_without_intermediate	n/a	test	ward_and_allport	n/a	-1.0	19.0	n/a	n/a	feedback	s606
374.586	1.0	0	PA_without_intermediate	n/a	test	ward_and_allport	n/a	-1.0	19.0	n/a	n/a	ITI	s606
375.594	3.254	1	PA_with_intermediate	1,2,0,0,0,0,0,0,0	test	ward_and_allport	1,3,0,2,0,0,0,0,0	89.0	20.0	3.254	1,2,3,0,0,0,0,0,0	to_hand	s606
378.85	1.146	0	PA_with_intermediate	1,2,0,0,0,0,3,0,0	test	ward_and_allport	1,3,0,2,0,0,0,0,0	82.0	20.0	1.146	1,2,3,0,0,0,0,0,0	to_board	s606
380.004	0.96	0	PA_with_intermediate	1,0,0,0,0,0,3,0,0	test	ward_and_allport	1,3,0,2,0,0,0,0,0	89.0	20.0	0.96	1,2,3,0,0,0,0,0,0	to_hand	s606
380.966	0.328	0	PA_with_intermediate	1,0,0,2,0,0,3,0,0	test	ward_and_allport	1,3,0,2,0,0,0,0,0	71.0	20.0	0.328	1,2,3,0,0,0,0,0,0	to_board	s606
381.302	0.444	0	PA_with_intermediate	1,0,0,2,0,0,0,0,0	test	ward_and_allport	1,3,0,2,0,0,0,0,0	82.0	20.0	0.444	1,2,3,0,0,0,0,0,0	to_hand	s606
381.748	0.323	0	PA_with_intermediate	1,3,0,2,0,0,0,0,0	test	ward_and_allport	1,3,0,2,0,0,0,0,0	89.0	20.0	0.323	1,2,3,0,0,0,0,0,0	to_board	s606
382.082	1.0	0	PA_with_intermediate	n/a	test	ward_and_allport	n/a	-1.0	20.0	n/a	n/a	feedback	s606
383.082	1.0	0	PA_with_intermediate	n/a	test	ward_and_allport	n/a	-1.0	20.0	n/a	n/a	ITI	s606
384.089	3.792	1	PA_with_intermediate	0,0,0,0,0,0,1,2,0	test	ward_and_allport	2,3,0,0,0,0,1,0,0	82.0	21.0	3.792	0,0,0,0,0,0,1,2,3	to_hand	s606
387.883	0.407	0	PA_with_intermediate	3,0,0,0,0,0,1,2,0	test	ward_and_allport	2,3,0,0,0,0,1,0,0	89.0	21.0	0.407	0,0,0,0,0,0,1,2,3	to_board	s606
388.297	0.956	0	PA_with_intermediate	0,0,0,0,0,0,1,2,0	test	ward_and_allport	2,3,0,0,0,0,1,0,0	89.0	21.0	0.956	0,0,0,0,0,0,1,2,3	to_hand	s606
389.254	0.747	0	PA_with_intermediate	0,0,0,3,0,0,1,2,0	test	ward_and_allport	2,3,0,0,0,0,1,0,0	71.0	21.0	0.747	0,0,0,0,0,0,1,2,3	to_board	s606
390.01	0.414	0	PA_with_intermediate	0,0,0,3,0,0,1,0,0	test	ward_and_allport	2,3,0,0,0,0,1,0,0	82.0	21.0	0.414	0,0,0,0,0,0,1,2,3	to_hand	s606
390.425	0.917	0	PA_with_intermediate	2,0,0,3,0,0,1,0,0	test	ward_and_allport	2,3,0,0,0,0,1,0,0	89.0	21.0	0.917	0,0,0,0,0,0,1,2,3	to_board	s606
391.35	1.027	0	PA_with_intermediate	2,0,0,0,0,0,1,0,0	test	ward_and_allport	2,3,0,0,0,0,1,0,0	71.0	21.0	1.027	0,0,0,0,0,0,1,2,3	to_hand	s606
392.377	0.38	0	PA_with_intermediate	2,3,0,0,0,0,1,0,0	test	ward_and_allport	2,3,0,0,0,0,1,0,0	89.0	21.0	0.38	0,0,0,0,0,0,1,2,3	to_board	s606
392.77	1.0	0	PA_with_intermediate	n/a	test	ward_and_allport	n/a	-1.0	21.0	n/a	n/a	feedback	s606
393.77	1.0	0	PA_with_intermediate	n/a	test	ward_and_allport	n/a	-1.0	21.0	n/a	n/a	ITI	s606
394.779	2.035	1	PA_with_intermediate	0,0,0,1,2,0,0,0,0	test	ward_and_allport	2,3,0,1,0,0,0,0,0	71.0	22.0	2.035	0,0,0,1,2,3,0,0,0	to_hand	s606
396.815	0.381	0	PA_with_intermediate	0,0,0,1,2,0,3,0,0	test	ward_and_allport	2,3,0,1,0,0,0,0,0	82.0	22.0	0.381	0,0,0,1,2,3,0,0,0	to_board	s606
397.204	0.952	0	PA_with_intermediate	0,0,0,1,0,0,3,0,0	test	ward_and_allport	2,3,0,1,0,0,0,0,0	71.0	22.0	0.952	0,0,0,1,2,3,0,0,0	to_hand	s606
398.157	0.291	0	PA_with_intermediate	2,0,0,1,0,0,3,0,0	test	ward_and_allport	2,3,0,1,0,0,0,0,0	89.0	22.0	0.291	0,0,0,1,2,3,0,0,0	to_board	s606
398.457	1.291	0	PA_with_intermediate	2,0,0,1,0,0,0,0,0	test	ward_and_allport	2,3,0,1,0,0,0,0,0	82.0	22.0	1.291	0,0,0,1,2,3,0,0,0	to_hand	s606
399.749	0.399	0	PA_with_intermediate	2,3,0,1,0,0,0,0,0	test	ward_and_allport	2,3,0,1,0,0,0,0,0	89.0	22.0	0.399	0,0,0,1,2,3,0,0,0	to_board	s606
400.157	1.0	0	PA_with_intermediate	n/a	test	ward_and_allport	n/a	-1.0	22.0	n/a	n/a	feedback	s606
401.157	1.408	0	PA_with_intermediate	n/a	test	ward_and_allport	n/a	-1.0	22.0	n/a	n/a	ITI	s606
402.573	2.113	1	PA_without_intermediate	1,2,0,0,0,0,0,0,0	test	ward_and_allport	0,0,0,3,1,0,2,0,0	89.0	23.0	2.113	1,2,3,0,0,0,0,0,0	to_hand	s606
404.687	2.549	0	PA_without_intermediate	1,2,0,3,0,0,0,0,0	test	ward_and_allport	0,0,0,3,1,0,2,0,0	71.0	23.0	2.549	1,2,3,0,0,0,0,0,0	to_board	s606
407.245	1.374	0	PA_without_intermediate	1,0,0,3,0,0,0,0,0	test	ward_and_allport	0,0,0,3,1,0,2,0,0	89.0	23.0	1.374	1,2,3,0,0,0,0,0,0	to_hand	s606
408.62	0.284	0	PA_without_intermediate	1,0,0,3,0,0,2,0,0	test	ward_and_allport	0,0,0,3,1,0,2,0,0	82.0	23.0	0.284	1,2,3,0,0,0,0,0,0	to_board	s606
408.913	0.43	0	PA_without_intermediate	0,0,0,3,0,0,2,0,0	test	ward_and_allport	0,0,0,3,1,0,2,0,0	89.0	23.0	0.43	1,2,3,0,0,0,0,0,0	to_hand	s606
409.344	0.326	0	PA_without_intermediate	0,0,0,3,1,0,2,0,0	test	ward_and_allport	0,0,0,3,1,0,2,0,0	71.0	23.0	0.326	1,2,3,0,0,0,0,0,0	to_board	s606
409.678	1.0	0	PA_without_intermediate	n/a	test	ward_and_allport	n/a	-1.0	23.0	n/a	n/a	feedback	s606
410.678	1.816	0	PA_without_intermediate	n/a	test	ward_and_allport	n/a	-1.0	23.0	n/a	n/a	ITI	s606
412.502	5.826	1	PA_with_intermediate	0,0,0,1,2,0,0,0,0	test	ward_and_allport	2,3,0,1,0,0,0,0,0	71.0	24.0	5.826	0,0,0,1,2,3,0,0,0	to_hand	s606
418.33	0.496	0	PA_with_intermediate	0,0,0,1,2,0,3,0,0	test	ward_and_allport	2,3,0,1,0,0,0,0,0	82.0	24.0	0.496	0,0,0,1,2,3,0,0,0	to_board	s606
418.834	0.822	0	PA_with_intermediate	0,0,0,1,0,0,3,0,0	test	ward_and_allport	2,3,0,1,0,0,0,0,0	71.0	24.0	0.822	0,0,0,1,2,3,0,0,0	to_hand	s606
419.657	0.363	0	PA_with_intermediate	2,0,0,1,0,0,3,0,0	test	ward_and_allport	2,3,0,1,0,0,0,0,0	89.0	24.0	0.363	0,0,0,1,2,3,0,0,0	to_board	s606
420.028	0.686	0	PA_with_intermediate	2,0,0,1,0,0,0,0,0	test	ward_and_allport	2,3,0,1,0,0,0,0,0	82.0	24.0	0.686	0,0,0,1,2,3,0,0,0	to_hand	s606
420.717	0.392	0	PA_with_intermediate	2,3,0,1,0,0,0,0,0	test	ward_and_allport	2,3,0,1,0,0,0,0,0	89.0	24.0	0.392	0,0,0,1,2,3,0,0,0	to_board	s606
421.118	1.0	0	PA_with_intermediate	n/a	test	ward_and_allport	n/a	-1.0	24.0	n/a	n/a	feedback	s606
422.118	3.176	0	PA_with_intermediate	n/a	test	ward_and_allport	n/a	-1.0	24.0	n/a	n/a	ITI	s606
425.304	4.47	1	PA_with_intermediate	0,0,0,1,2,0,0,0,0	test	ward_and_allport	2,0,0,1,3,0,0,0,0	71.0	25.0	4.47	0,0,0,1,2,3,0,0,0	to_hand	s606
429.775	0.4	0	PA_with_intermediate	0,0,0,1,2,0,3,0,0	test	ward_and_allport	2,0,0,1,3,0,0,0,0	82.0	25.0	0.4	0,0,0,1,2,3,0,0,0	to_board	s606
430.184	0.822	0	PA_with_intermediate	0,0,0,1,0,0,3,0,0	test	ward_and_allport	2,0,0,1,3,0,0,0,0	71.0	25.0	0.822	0,0,0,1,2,3,0,0,0	to_hand	s606
431.007	0.297	0	PA_with_intermediate	2,0,0,1,0,0,3,0,0	test	ward_and_allport	2,0,0,1,3,0,0,0,0	89.0	25.0	0.297	0,0,0,1,2,3,0,0,0	to_board	s606
431.313	0.411	0	PA_with_intermediate	2,0,0,1,0,0,0,0,0	test	ward_and_allport	2,0,0,1,3,0,0,0,0	82.0	25.0	0.411	0,0,0,1,2,3,0,0,0	to_hand	s606
431.725	0.295	0	PA_with_intermediate	2,3,0,1,0,0,0,0,0	test	ward_and_allport	2,0,0,1,3,0,0,0,0	89.0	25.0	0.295	0,0,0,1,2,3,0,0,0	to_board	s606
432.029	2.268	0	PA_with_intermediate	2,3,0,0,0,0,0,0,0	test	ward_and_allport	2,0,0,1,3,0,0,0,0	71.0	25.0	2.268	0,0,0,1,2,3,0,0,0	to_hand	s606
434.298	1.13	0	PA_with_intermediate	2,3,0,1,0,0,0,0,0	test	ward_and_allport	2,0,0,1,3,0,0,0,0	71.0	25.0	1.13	0,0,0,1,2,3,0,0,0	to_board	s606
435.437	1.07	0	PA_with_intermediate	2,0,0,1,0,0,0,0,0	test	ward_and_allport	2,0,0,1,3,0,0,0,0	89.0	25.0	1.07	0,0,0,1,2,3,0,0,0	to_hand	s606
436.508	0.255	0	PA_with_intermediate	2,0,0,1,3,0,0,0,0	test	ward_and_allport	2,0,0,1,3,0,0,0,0	71.0	25.0	0.255	0,0,0,1,2,3,0,0,0	to_board	s606
436.774	1.0	0	PA_with_intermediate	n/a	test	ward_and_allport	n/a	-1.0	25.0	n/a	n/a	feedback	s606
437.774	2.36	0	PA_with_intermediate	n/a	test	ward_and_allport	n/a	-1.0	25.0	n/a	n/a	ITI	s606
440.144	3.183	1	PA_with_intermediate	1,2,0,0,0,0,0,0,0	test	ward_and_allport	1,0,0,2,3,0,0,0,0	89.0	26.0	3.183	1,2,3,0,0,0,0,0,0	to_hand	s606
443.328	0.407	0	PA_with_intermediate	1,2,0,0,0,0,3,0,0	test	ward_and_allport	1,0,0,2,3,0,0,0,0	82.0	26.0	0.407	1,2,3,0,0,0,0,0,0	to_board	s606
443.746	1.336	0	PA_with_intermediate	1,0,0,0,0,0,3,0,0	test	ward_and_allport	1,0,0,2,3,0,0,0,0	89.0	26.0	1.336	1,2,3,0,0,0,0,0,0	to_hand	s606
445.084	0.785	0	PA_with_intermediate	1,0,0,2,0,0,3,0,0	test	ward_and_allport	1,0,0,2,3,0,0,0,0	71.0	26.0	0.785	1,2,3,0,0,0,0,0,0	to_board	s606
445.88	0.394	0	PA_with_intermediate	1,0,0,2,0,0,0,0,0	test	ward_and_allport	1,0,0,2,3,0,0,0,0	82.0	26.0	0.394	1,2,3,0,0,0,0,0,0	to_hand	s606
446.275	0.711	0	PA_with_intermediate	1,0,0,2,3,0,0,0,0	test	ward_and_allport	1,0,0,2,3,0,0,0,0	71.0	26.0	0.711	1,2,3,0,0,0,0,0,0	to_board	s606
447.001	1.0	0	PA_with_intermediate	n/a	test	ward_and_allport	n/a	-1.0	26.0	n/a	n/a	feedback	s606
448.001	1.0	0	PA_with_intermediate	n/a	test	ward_and_allport	n/a	-1.0	26.0	n/a	n/a	ITI	s606
449.013	3.627	1	PA_without_intermediate	1,2,0,0,0,0,0,0,0	test	ward_and_allport	0,0,0,3,1,0,2,0,0	89.0	27.0	3.627	1,2,3,0,0,0,0,0,0	to_hand	s606
452.642	0.589	0	PA_without_intermediate	1,2,0,3,0,0,0,0,0	test	ward_and_allport	0,0,0,3,1,0,2,0,0	71.0	27.0	0.589	1,2,3,0,0,0,0,0,0	to_board	s606
453.239	0.596	0	PA_without_intermediate	1,0,0,3,0,0,0,0,0	test	ward_and_allport	0,0,0,3,1,0,2,0,0	89.0	27.0	0.596	1,2,3,0,0,0,0,0,0	to_hand	s606
453.835	0.456	0	PA_without_intermediate	1,0,0,3,0,0,2,0,0	test	ward_and_allport	0,0,0,3,1,0,2,0,0	82.0	27.0	0.456	1,2,3,0,0,0,0,0,0	to_board	s606
454.3	1.134	0	PA_without_intermediate	0,0,0,3,0,0,2,0,0	test	ward_and_allport	0,0,0,3,1,0,2,0,0	89.0	27.0	1.134	1,2,3,0,0,0,0,0,0	to_hand	s606
455.436	0.38	0	PA_without_intermediate	0,0,0,3,1,0,2,0,0	test	ward_and_allport	0,0,0,3,1,0,2,0,0	71.0	27.0	0.38	1,2,3,0,0,0,0,0,0	to_board	s606
455.831	1.0	0	PA_without_intermediate	n/a	test	ward_and_allport	n/a	-1.0	27.0	n/a	n/a	feedback	s606
456.831	1.408	0	PA_without_intermediate	n/a	test	ward_and_allport	n/a	-1.0	27.0	n/a	n/a	ITI	s606
458.25	4.79	1	PA_with_intermediate	0,0,0,0,0,0,1,2,0	test	ward_and_allport	0,0,0,2,3,0,1,0,0	82.0	28.0	4.79	0,0,0,0,0,0,1,2,3	to_hand	s606
463.041	0.392	0	PA_with_intermediate	3,0,0,0,0,0,1,2,0	test	ward_and_allport	0,0,0,2,3,0,1,0,0	89.0	28.0	0.392	0,0,0,0,0,0,1,2,3	to_board	s606
463.442	0.83	0	PA_with_intermediate	3,0,0,0,0,0,1,0,0	test	ward_and_allport	0,0,0,2,3,0,1,0,0	82.0	28.0	0.83	0,0,0,0,0,0,1,2,3	to_hand	s606
464.273	0.406	0	PA_with_intermediate	3,0,0,2,0,0,1,0,0	test	ward_and_allport	0,0,0,2,3,0,1,0,0	71.0	28.0	0.406	0,0,0,0,0,0,1,2,3	to_board	s606
464.691	0.962	0	PA_with_intermediate	0,0,0,2,0,0,1,0,0	test	ward_and_allport	0,0,0,2,3,0,1,0,0	89.0	28.0	0.962	0,0,0,0,0,0,1,2,3	to_hand	s606
465.654	0.654	0	PA_with_intermediate	0,0,0,2,3,0,1,0,0	test	ward_and_allport	0,0,0,2,3,0,1,0,0	71.0	28.0	0.654	0,0,0,0,0,0,1,2,3	to_board	s606
466.324	1.0	0	PA_with_intermediate	n/a	test	ward_and_allport	n/a	-1.0	28.0	n/a	n/a	feedback	s606
467.324	1.816	0	PA_with_intermediate	n/a	test	ward_and_allport	n/a	-1.0	28.0	n/a	n/a	ITI	s606
469.15	2.795	1	PA_without_intermediate	0,0,0,0,0,0,1,2,0	test	ward_and_allport	3,2,0,1,0,0,0,0,0	82.0	29.0	2.795	0,0,0,0,0,0,1,2,3	to_hand	s606
471.947	0.344	0	PA_without_intermediate	3,0,0,0,0,0,1,2,0	test	ward_and_allport	3,2,0,1,0,0,0,0,0	89.0	29.0	0.344	0,0,0,0,0,0,1,2,3	to_board	s606
472.3	2.88	0	PA_without_intermediate	3,0,0,0,0,0,1,0,0	test	ward_and_allport	3,2,0,1,0,0,0,0,0	82.0	29.0	2.88	0,0,0,0,0,0,1,2,3	to_hand	s606
475.182	0.416	0	PA_without_intermediate	3,2,0,0,0,0,1,0,0	test	ward_and_allport	3,2,0,1,0,0,0,0,0	89.0	29.0	0.416	0,0,0,0,0,0,1,2,3	to_board	s606
475.609	1.443	0	PA_without_intermediate	3,2,0,0,0,0,0,0,0	test	ward_and_allport	3,2,0,1,0,0,0,0,0	82.0	29.0	1.443	0,0,0,0,0,0,1,2,3	to_hand	s606
477.053	0.404	0	PA_without_intermediate	3,2,0,1,0,0,0,0,0	test	ward_and_allport	3,2,0,1,0,0,0,0,0	71.0	29.0	0.404	0,0,0,0,0,0,1,2,3	to_board	s606
477.472	1.0	0	PA_without_intermediate	n/a	test	ward_and_allport	n/a	-1.0	29.0	n/a	n/a	feedback	s606
478.472	2.088	0	PA_without_intermediate	n/a	test	ward_and_allport	n/a	-1.0	29.0	n/a	n/a	ITI	s606
485.572	2.893	1	PA_without_intermediate	0,0,0,0,0,0,1,2,0	test	ward_and_allport	1,0,0,3,2,0,0,0,0	82.0	30.0	2.893	0,0,0,0,0,0,1,2,3	to_hand	s606
488.466	0.927	0	PA_without_intermediate	0,0,0,3,0,0,1,2,0	test	ward_and_allport	1,0,0,3,2,0,0,0,0	71.0	30.0	0.927	0,0,0,0,0,0,1,2,3	to_board	s606
489.405	1.53	0	PA_without_intermediate	0,0,0,3,0,0,1,0,0	test	ward_and_allport	1,0,0,3,2,0,0,0,0	82.0	30.0	1.53	0,0,0,0,0,0,1,2,3	to_hand	s606
490.936	0.366	0	PA_without_intermediate	0,0,0,3,2,0,1,0,0	test	ward_and_allport	1,0,0,3,2,0,0,0,0	71.0	30.0	0.366	0,0,0,0,0,0,1,2,3	to_board	s606
491.313	1.266	0	PA_without_intermediate	0,0,0,3,2,0,0,0,0	test	ward_and_allport	1,0,0,3,2,0,0,0,0	82.0	30.0	1.266	0,0,0,0,0,0,1,2,3	to_hand	s606
492.58	0.269	0	PA_without_intermediate	1,0,0,3,2,0,0,0,0	test	ward_and_allport	1,0,0,3,2,0,0,0,0	89.0	30.0	0.269	0,0,0,0,0,0,1,2,3	to_board	s606
492.862	1.0	0	PA_without_intermediate	n/a	test	ward_and_allport	n/a	-1.0	30.0	n/a	n/a	feedback	s606
493.862	1.136	0	PA_without_intermediate	n/a	test	ward_and_allport	n/a	-1.0	30.0	n/a	n/a	ITI	s606
495.008	3.107	1	PA_without_intermediate	0,0,0,0,0,0,1,2,0	test	ward_and_allport	3,1,0,2,0,0,0,0,0	82.0	31.0	3.107	0,0,0,0,0,0,1,2,3	to_hand	s606
498.116	0.382	0	PA_without_intermediate	3,0,0,0,0,0,1,2,0	test	ward_and_allport	3,1,0,2,0,0,0,0,0	89.0	31.0	0.382	0,0,0,0,0,0,1,2,3	to_board	s606
498.511	1.061	0	PA_without_intermediate	3,0,0,0,0,0,1,0,0	test	ward_and_allport	3,1,0,2,0,0,0,0,0	82.0	31.0	1.061	0,0,0,0,0,0,1,2,3	to_hand	s606
499.574	0.288	0	PA_without_intermediate	3,0,0,2,0,0,1,0,0	test	ward_and_allport	3,1,0,2,0,0,0,0,0	71.0	31.0	0.288	0,0,0,0,0,0,1,2,3	to_board	s606
499.874	0.846	0	PA_without_intermediate	3,0,0,2,0,0,0,0,0	test	ward_and_allport	3,1,0,2,0,0,0,0,0	82.0	31.0	0.846	0,0,0,0,0,0,1,2,3	to_hand	s606
500.721	0.315	0	PA_without_intermediate	3,1,0,2,0,0,0,0,0	test	ward_and_allport	3,1,0,2,0,0,0,0,0	89.0	31.0	0.315	0,0,0,0,0,0,1,2,3	to_board	s606
501.051	1.0	0	PA_without_intermediate	n/a	test	ward_and_allport	n/a	-1.0	31.0	n/a	n/a	feedback	s606
502.051	6.168	0	PA_without_intermediate	n/a	test	ward_and_allport	n/a	-1.0	31.0	n/a	n/a	ITI	s606
508.226	4.783	1	PA_without_intermediate	0,0,0,1,2,0,0,0,0	test	ward_and_allport	3,1,0,0,0,0,2,0,0	71.0	32.0	4.783	0,0,0,1,2,3,0,0,0	to_hand	s606
513.01	0.41	0	PA_without_intermediate	3,0,0,1,2,0,0,0,0	test	ward_and_allport	3,1,0,0,0,0,2,0,0	89.0	32.0	0.41	0,0,0,1,2,3,0,0,0	to_board	s606
513.431	1.762	0	PA_without_intermediate	3,0,0,1,0,0,0,0,0	test	ward_and_allport	3,1,0,0,0,0,2,0,0	71.0	32.0	1.762	0,0,0,1,2,3,0,0,0	to_hand	s606
515.194	0.366	0	PA_without_intermediate	3,0,0,1,0,0,2,0,0	test	ward_and_allport	3,1,0,0,0,0,2,0,0	82.0	32.0	0.366	0,0,0,1,2,3,0,0,0	to_board	s606
515.573	0.559	0	PA_without_intermediate	3,0,0,0,0,0,2,0,0	test	ward_and_allport	3,1,0,0,0,0,2,0,0	71.0	32.0	0.559	0,0,0,1,2,3,0,0,0	to_hand	s606
516.132	0.24	0	PA_without_intermediate	3,1,0,0,0,0,2,0,0	test	ward_and_allport	3,1,0,0,0,0,2,0,0	89.0	32.0	0.24	0,0,0,1,2,3,0,0,0	to_board	s606
516.385	1.0	0	PA_without_intermediate	n/a	test	ward_and_allport	n/a	-1.0	32.0	n/a	n/a	feedback	s606
517.385	1.816	0	PA_without_intermediate	n/a	test	ward_and_allport	n/a	-1.0	32.0	n/a	n/a	ITI	s606
519.213	8.421	1	PA_with_intermediate	1,2,0,0,0,0,0,0,0	test	ward_and_allport	1,3,0,0,0,0,2,0,0	89.0	33.0	8.421	1,2,3,0,0,0,0,0,0	to_hand	s606
527.635	0.916	0	PA_with_intermediate	1,2,0,3,0,0,0,0,0	test	ward_and_allport	1,3,0,0,0,0,2,0,0	71.0	33.0	0.916	1,2,3,0,0,0,0,0,0	to_board	s606
528.562	1.223	0	PA_with_intermediate	1,0,0,3,0,0,0,0,0	test	ward_and_allport	1,3,0,0,0,0,2,0,0	89.0	33.0	1.223	1,2,3,0,0,0,0,0,0	to_hand	s606
529.786	0.41	0	PA_with_intermediate	1,0,0,3,0,0,2,0,0	test	ward_and_allport	1,3,0,0,0,0,2,0,0	82.0	33.0	0.41	1,2,3,0,0,0,0,0,0	to_board	s606
530.209	0.59	0	PA_with_intermediate	1,0,0,0,0,0,2,0,0	test	ward_and_allport	1,3,0,0,0,0,2,0,0	71.0	33.0	0.59	1,2,3,0,0,0,0,0,0	to_hand	s606
530.8	0.278	0	PA_with_intermediate	1,3,0,0,0,0,2,0,0	test	ward_and_allport	1,3,0,0,0,0,2,0,0	89.0	33.0	0.278	1,2,3,0,0,0,0,0,0	to_board	s606
531.093	1.0	0	PA_with_intermediate	n/a	test	ward_and_allport	n/a	-1.0	33.0	n/a	n/a	feedback	s606
532.093	1.952	0	PA_with_intermediate	n/a	test	ward_and_allport	n/a	-1.0	33.0	n/a	n/a	ITI	s606
534.058	2.409	1	PA_with_intermediate	1,2,0,0,0,0,0,0,0	test	ward_and_allport	1,0,0,0,0,0,2,3,0	89.0	34.0	2.409	1,2,3,0,0,0,0,0,0	to_hand	s606
536.468	2.533	0	PA_with_intermediate	1,2,0,3,0,0,0,0,0	test	ward_and_allport	1,0,0,0,0,0,2,3,0	71.0	34.0	2.533	1,2,3,0,0,0,0,0,0	to_board	s606
539.012	0.446	0	PA_with_intermediate	1,0,0,3,0,0,0,0,0	test	ward_and_allport	1,0,0,0,0,0,2,3,0	89.0	34.0	0.446	1,2,3,0,0,0,0,0,0	to_hand	s606
539.459	0.294	0	PA_with_intermediate	1,0,0,3,0,0,2,0,0	test	ward_and_allport	1,0,0,0,0,0,2,3,0	82.0	34.0	0.294	1,2,3,0,0,0,0,0,0	to_board	s606
539.767	0.599	0	PA_with_intermediate	1,0,0,0,0,0,2,0,0	test	ward_and_allport	1,0,0,0,0,0,2,3,0	71.0	34.0	0.599	1,2,3,0,0,0,0,0,0	to_hand	s606
540.368	0.258	0	PA_with_intermediate	1,0,0,0,0,0,2,3,0	test	ward_and_allport	1,0,0,0,0,0,2,3,0	82.0	34.0	0.258	1,2,3,0,0,0,0,0,0	to_board	s606
540.638	1.0	0	PA_with_intermediate	n/a	test	ward_and_allport	n/a	-1.0	34.0	n/a	n/a	feedback	s606
541.638	1.136	0	PA_with_intermediate	n/a	test	ward_and_allport	n/a	-1.0	34.0	n/a	n/a	ITI	s606
542.783	2.398	1	PA_without_intermediate	0,0,0,0,0,0,1,2,0	test	ward_and_allport	3,1,0,2,0,0,0,0,0	82.0	35.0	2.398	0,0,0,0,0,0,1,2,3	to_hand	s606
545.183	0.619	0	PA_without_intermediate	3,0,0,0,0,0,1,2,0	test	ward_and_allport	3,1,0,2,0,0,0,0,0	89.0	35.0	0.619	0,0,0,0,0,0,1,2,3	to_board	s606
545.811	1.049	0	PA_without_intermediate	3,0,0,0,0,0,1,0,0	test	ward_and_allport	3,1,0,2,0,0,0,0,0	82.0	35.0	1.049	0,0,0,0,0,0,1,2,3	to_hand	s606
546.861	0.456	0	PA_without_intermediate	3,0,0,2,0,0,1,0,0	test	ward_and_allport	3,1,0,2,0,0,0,0,0	71.0	35.0	0.456	0,0,0,0,0,0,1,2,3	to_board	s606
547.327	0.811	0	PA_without_intermediate	3,0,0,2,0,0,0,0,0	test	ward_and_allport	3,1,0,2,0,0,0,0,0	82.0	35.0	0.811	0,0,0,0,0,0,1,2,3	to_hand	s606
548.139	0.348	0	PA_without_intermediate	3,1,0,2,0,0,0,0,0	test	ward_and_allport	3,1,0,2,0,0,0,0,0	89.0	35.0	0.348	0,0,0,0,0,0,1,2,3	to_board	s606
548.5	1.0	0	PA_without_intermediate	n/a	test	ward_and_allport	n/a	-1.0	35.0	n/a	n/a	feedback	s606
549.5	1.68	0	PA_without_intermediate	n/a	test	ward_and_allport	n/a	-1.0	35.0	n/a	n/a	ITI	s606
n/a	n/a	0	n/a	n/a	n/a	n/a	n/a	n/a	n/a	n/a	n/a	ITI	n/a
