onset	duration	planning	condition	current_position	exp_stage	experiment_exp_id	goal_state	key_press	problem_id	response_time	start_state	trial_id	worker_id
-56.855	0.0	0	n/a	n/a	n/a	ward_and_allport	n/a	32.0	n/a	20.409	n/a	instructions	s601
3.016	6.327	1	UA_with_intermediate	1,0,0,2,0,0,0,0,0	practice	ward_and_allport	1,2,3,0,0,0,0,0,0	71.0	0.0	6.327	1,0,0,2,3,0,0,0,0	to_hand	s601
9.345	3.05	0	UA_with_intermediate	1,0,0,2,0,0,3,0,0	practice	ward_and_allport	1,2,3,0,0,0,0,0,0	82.0	0.0	3.05	1,0,0,2,3,0,0,0,0	to_board	s601
12.398	0.883	0	UA_with_intermediate	1,0,0,0,0,0,3,0,0	practice	ward_and_allport	1,2,3,0,0,0,0,0,0	71.0	0.0	0.883	1,0,0,2,3,0,0,0,0	to_hand	s601
13.282	0.557	0	UA_with_intermediate	1,2,0,0,0,0,3,0,0	practice	ward_and_allport	1,2,3,0,0,0,0,0,0	89.0	0.0	0.557	1,0,0,2,3,0,0,0,0	to_board	s601
13.841	1.078	0	UA_with_intermediate	1,2,0,0,0,0,0,0,0	practice	ward_and_allport	1,2,3,0,0,0,0,0,0	82.0	0.0	1.078	1,0,0,2,3,0,0,0,0	to_hand	s601
14.921	0.807	0	UA_with_intermediate	1,2,3,0,0,0,0,0,0	practice	ward_and_allport	1,2,3,0,0,0,0,0,0	89.0	0.0	0.807	1,0,0,2,3,0,0,0,0	to_board	s601
15.734	1.0	0	UA_with_intermediate	n/a	practice	ward_and_allport	n/a	-1.0	0.0	n/a	n/a	feedback	s601
18.237	14.963	1	UA_with_intermediate	1,0,0,3,0,0,0,0,0	practice	ward_and_allport	1,3,2,0,0,0,0,0,0	89.0	1.0	14.963	1,2,0,3,0,0,0,0,0	to_hand	s601
33.202	0.498	0	UA_with_intermediate	1,0,0,3,0,0,2,0,0	practice	ward_and_allport	1,3,2,0,0,0,0,0,0	82.0	1.0	0.498	1,2,0,3,0,0,0,0,0	to_board	s601
33.703	0.897	0	UA_with_intermediate	1,0,0,0,0,0,2,0,0	practice	ward_and_allport	1,3,2,0,0,0,0,0,0	71.0	1.0	0.897	1,2,0,3,0,0,0,0,0	to_hand	s601
34.602	0.434	0	UA_with_intermediate	1,3,0,0,0,0,2,0,0	practice	ward_and_allport	1,3,2,0,0,0,0,0,0	89.0	1.0	0.434	1,2,0,3,0,0,0,0,0	to_board	s601
35.038	0.947	0	UA_with_intermediate	1,3,0,0,0,0,0,0,0	practice	ward_and_allport	1,3,2,0,0,0,0,0,0	82.0	1.0	0.947	1,2,0,3,0,0,0,0,0	to_hand	s601
35.987	0.313	0	UA_with_intermediate	1,3,2,0,0,0,0,0,0	practice	ward_and_allport	1,3,2,0,0,0,0,0,0	89.0	1.0	0.313	1,2,0,3,0,0,0,0,0	to_board	s601
36.305	1.0	0	UA_with_intermediate	n/a	practice	ward_and_allport	n/a	-1.0	1.0	n/a	n/a	feedback	s601
37.305	1.1	0	UA_with_intermediate	n/a	practice	ward_and_allport	n/a	-1.0	1.0	n/a	n/a	ITI	s601
38.407	4.745	1	UA_without_intermediate	0,0,0,1,2,0,0,0,0	practice	ward_and_allport	3,2,1,0,0,0,0,0,0	82.0	2.0	4.745	0,0,0,1,2,0,3,0,0	to_hand	s601
43.154	1.129	0	UA_without_intermediate	3,0,0,1,2,0,0,0,0	practice	ward_and_allport	3,2,1,0,0,0,0,0,0	89.0	2.0	1.129	0,0,0,1,2,0,3,0,0	to_board	s601
44.286	3.472	0	UA_without_intermediate	3,0,0,1,0,0,0,0,0	practice	ward_and_allport	3,2,1,0,0,0,0,0,0	71.0	2.0	3.472	0,0,0,1,2,0,3,0,0	to_hand	s601
47.759	0.691	0	UA_without_intermediate	3,0,0,1,0,0,2,0,0	practice	ward_and_allport	3,2,1,0,0,0,0,0,0	82.0	2.0	0.691	0,0,0,1,2,0,3,0,0	to_board	s601
48.452	0.491	0	UA_without_intermediate	3,0,0,0,0,0,2,0,0	practice	ward_and_allport	3,2,1,0,0,0,0,0,0	71.0	2.0	0.491	0,0,0,1,2,0,3,0,0	to_hand	s601
48.944	0.39	0	UA_without_intermediate	3,1,0,0,0,0,2,0,0	practice	ward_and_allport	3,2,1,0,0,0,0,0,0	89.0	2.0	0.39	0,0,0,1,2,0,3,0,0	to_board	s601
49.336	0.617	0	UA_without_intermediate	3,1,0,0,0,0,0,0,0	practice	ward_and_allport	3,2,1,0,0,0,0,0,0	82.0	2.0	0.617	0,0,0,1,2,0,3,0,0	to_hand	s601
49.955	0.428	0	UA_without_intermediate	3,1,2,0,0,0,0,0,0	practice	ward_and_allport	3,2,1,0,0,0,0,0,0	89.0	2.0	0.428	0,0,0,1,2,0,3,0,0	to_board	s601
50.385	7.048	0	UA_without_intermediate	3,1,0,0,0,0,0,0,0	practice	ward_and_allport	3,2,1,0,0,0,0,0,0	89.0	2.0	7.048	0,0,0,1,2,0,3,0,0	to_hand	s601
57.434	4.042	0	UA_without_intermediate	3,1,0,0,0,0,2,0,0	practice	ward_and_allport	3,2,1,0,0,0,0,0,0	82.0	2.0	4.042	0,0,0,1,2,0,3,0,0	to_board	s601
61.478	0.657	0	UA_without_intermediate	3,0,0,0,0,0,2,0,0	practice	ward_and_allport	3,2,1,0,0,0,0,0,0	89.0	2.0	0.657	0,0,0,1,2,0,3,0,0	to_hand	s601
62.137	0.58	0	UA_without_intermediate	3,0,0,1,0,0,2,0,0	practice	ward_and_allport	3,2,1,0,0,0,0,0,0	71.0	2.0	0.58	0,0,0,1,2,0,3,0,0	to_board	s601
62.719	1.007	0	UA_without_intermediate	3,0,0,1,0,0,0,0,0	practice	ward_and_allport	3,2,1,0,0,0,0,0,0	82.0	2.0	1.007	0,0,0,1,2,0,3,0,0	to_hand	s601
63.727	0.505	0	UA_without_intermediate	3,2,0,1,0,0,0,0,0	practice	ward_and_allport	3,2,1,0,0,0,0,0,0	89.0	2.0	0.505	0,0,0,1,2,0,3,0,0	to_board	s601
64.236	0.762	0	UA_without_intermediate	3,2,0,0,0,0,0,0,0	practice	ward_and_allport	3,2,1,0,0,0,0,0,0	71.0	2.0	0.762	0,0,0,1,2,0,3,0,0	to_hand	s601
64.999	0.355	0	UA_without_intermediate	3,2,1,0,0,0,0,0,0	practice	ward_and_allport	3,2,1,0,0,0,0,0,0	89.0	2.0	0.355	0,0,0,1,2,0,3,0,0	to_board	s601
65.358	1.0	0	UA_without_intermediate	n/a	practice	ward_and_allport	n/a	-1.0	2.0	n/a	n/a	feedback	s601
66.358	1.2	0	UA_without_intermediate	n/a	practice	ward_and_allport	n/a	-1.0	2.0	n/a	n/a	ITI	s601
67.56	5.952	1	UA_without_intermediate	0,0,0,1,0,0,3,0,0	practice	ward_and_allport	2,3,1,0,0,0,0,0,0	71.0	3.0	5.952	0,0,0,1,2,0,3,0,0	to_hand	s601
73.513	0.698	0	UA_without_intermediate	2,0,0,1,0,0,3,0,0	practice	ward_and_allport	2,3,1,0,0,0,0,0,0	89.0	3.0	0.698	0,0,0,1,2,0,3,0,0	to_board	s601
74.213	0.452	0	UA_without_intermediate	2,0,0,1,0,0,0,0,0	practice	ward_and_allport	2,3,1,0,0,0,0,0,0	82.0	3.0	0.452	0,0,0,1,2,0,3,0,0	to_hand	s601
74.666	1.019	0	UA_without_intermediate	2,3,0,1,0,0,0,0,0	practice	ward_and_allport	2,3,1,0,0,0,0,0,0	89.0	3.0	1.019	0,0,0,1,2,0,3,0,0	to_board	s601
75.688	0.684	0	UA_without_intermediate	2,3,0,0,0,0,0,0,0	practice	ward_and_allport	2,3,1,0,0,0,0,0,0	71.0	3.0	0.684	0,0,0,1,2,0,3,0,0	to_hand	s601
76.373	0.293	0	UA_without_intermediate	2,3,1,0,0,0,0,0,0	practice	ward_and_allport	2,3,1,0,0,0,0,0,0	89.0	3.0	0.293	0,0,0,1,2,0,3,0,0	to_board	s601
76.672	1.0	0	UA_without_intermediate	n/a	practice	ward_and_allport	n/a	-1.0	3.0	n/a	n/a	feedback	s601
77.672	1.0	0	UA_without_intermediate	n/a	practice	ward_and_allport	n/a	-1.0	3.0	n/a	n/a	ITI	s601
80.678	16.136	1	PA_with_intermediate	0,0,0,1,2,0,0,0,0	test	ward_and_allport	0,0,0,1,0,0,2,3,0	71.0	0.0	16.136	0,0,0,1,2,3,0,0,0	to_hand	s601
96.815	0.529	0	PA_with_intermediate	3,0,0,1,2,0,0,0,0	test	ward_and_allport	0,0,0,1,0,0,2,3,0	89.0	0.0	0.529	0,0,0,1,2,3,0,0,0	to_board	s601
97.347	0.79	0	PA_with_intermediate	3,0,0,1,0,0,0,0,0	test	ward_and_allport	0,0,0,1,0,0,2,3,0	71.0	0.0	0.79	0,0,0,1,2,3,0,0,0	to_hand	s601
98.138	0.773	0	PA_with_intermediate	3,0,0,1,0,0,2,0,0	test	ward_and_allport	0,0,0,1,0,0,2,3,0	82.0	0.0	0.773	0,0,0,1,2,3,0,0,0	to_board	s601
98.913	1.361	0	PA_with_intermediate	0,0,0,1,0,0,2,0,0	test	ward_and_allport	0,0,0,1,0,0,2,3,0	89.0	0.0	1.361	0,0,0,1,2,3,0,0,0	to_hand	s601
100.276	0.463	0	PA_with_intermediate	0,0,0,1,0,0,2,3,0	test	ward_and_allport	0,0,0,1,0,0,2,3,0	82.0	0.0	0.463	0,0,0,1,2,3,0,0,0	to_board	s601
100.743	1.0	0	PA_with_intermediate	n/a	test	ward_and_allport	n/a	-1.0	0.0	n/a	n/a	feedback	s601
101.743	1.408	0	PA_with_intermediate	n/a	test	ward_and_allport	n/a	-1.0	0.0	n/a	n/a	ITI	s601
103.154	9.511	1	PA_without_intermediate	1,2,0,0,0,0,0,0,0	test	ward_and_allport	0,0,0,3,1,0,2,0,0	89.0	1.0	9.511	1,2,3,0,0,0,0,0,0	to_hand	s601
112.667	1.494	0	PA_without_intermediate	1,2,0,3,0,0,0,0,0	test	ward_and_allport	0,0,0,3,1,0,2,0,0	71.0	1.0	1.494	1,2,3,0,0,0,0,0,0	to_board	s601
114.164	1.511	0	PA_without_intermediate	1,0,0,3,0,0,0,0,0	test	ward_and_allport	0,0,0,3,1,0,2,0,0	89.0	1.0	1.511	1,2,3,0,0,0,0,0,0	to_hand	s601
115.677	0.535	0	PA_without_intermediate	1,0,0,3,0,0,2,0,0	test	ward_and_allport	0,0,0,3,1,0,2,0,0	82.0	1.0	0.535	1,2,3,0,0,0,0,0,0	to_board	s601
116.215	0.89	0	PA_without_intermediate	0,0,0,3,0,0,2,0,0	test	ward_and_allport	0,0,0,3,1,0,2,0,0	89.0	1.0	0.89	1,2,3,0,0,0,0,0,0	to_hand	s601
117.107	0.437	0	PA_without_intermediate	0,0,0,3,1,0,2,0,0	test	ward_and_allport	0,0,0,3,1,0,2,0,0	71.0	1.0	0.437	1,2,3,0,0,0,0,0,0	to_board	s601
117.551	1.0	0	PA_without_intermediate	n/a	test	ward_and_allport	n/a	-1.0	1.0	n/a	n/a	feedback	s601
118.551	1.68	0	PA_without_intermediate	n/a	test	ward_and_allport	n/a	-1.0	1.0	n/a	n/a	ITI	s601
120.234	15.737	1	PA_with_intermediate	0,0,0,1,2,0,0,0,0	test	ward_and_allport	0,0,0,1,3,0,2,0,0	71.0	2.0	15.737	0,0,0,1,2,3,0,0,0	to_hand	s601
135.972	2.408	0	PA_with_intermediate	3,0,0,1,2,0,0,0,0	test	ward_and_allport	0,0,0,1,3,0,2,0,0	89.0	2.0	2.408	0,0,0,1,2,3,0,0,0	to_board	s601
138.383	1.453	0	PA_with_intermediate	3,0,0,1,0,0,0,0,0	test	ward_and_allport	0,0,0,1,3,0,2,0,0	71.0	2.0	1.453	0,0,0,1,2,3,0,0,0	to_hand	s601
139.837	4.077	0	PA_with_intermediate	3,0,0,1,0,0,2,0,0	test	ward_and_allport	0,0,0,1,3,0,2,0,0	82.0	2.0	4.077	0,0,0,1,2,3,0,0,0	to_board	s601
143.917	0.895	0	PA_with_intermediate	0,0,0,1,0,0,2,0,0	test	ward_and_allport	0,0,0,1,3,0,2,0,0	89.0	2.0	0.895	0,0,0,1,2,3,0,0,0	to_hand	s601
144.814	0.471	0	PA_with_intermediate	0,0,0,1,3,0,2,0,0	test	ward_and_allport	0,0,0,1,3,0,2,0,0	71.0	2.0	0.471	0,0,0,1,2,3,0,0,0	to_board	s601
145.288	1.0	0	PA_with_intermediate	n/a	test	ward_and_allport	n/a	-1.0	2.0	n/a	n/a	feedback	s601
146.288	3.72	0	PA_with_intermediate	n/a	test	ward_and_allport	n/a	-1.0	2.0	n/a	n/a	ITI	s601
150.011	6.345	1	PA_without_intermediate	0,0,0,1,2,0,0,0,0	test	ward_and_allport	1,0,0,0,0,0,3,2,0	71.0	3.0	6.345	0,0,0,1,2,3,0,0,0	to_hand	s601
156.358	0.496	0	PA_without_intermediate	0,0,0,1,2,0,3,0,0	test	ward_and_allport	1,0,0,0,0,0,3,2,0	82.0	3.0	0.496	0,0,0,1,2,3,0,0,0	to_board	s601
156.858	1.258	0	PA_without_intermediate	0,0,0,1,0,0,3,0,0	test	ward_and_allport	1,0,0,0,0,0,3,2,0	71.0	3.0	1.258	0,0,0,1,2,3,0,0,0	to_hand	s601
158.117	1.653	0	PA_without_intermediate	0,0,0,1,0,0,3,2,0	test	ward_and_allport	1,0,0,0,0,0,3,2,0	82.0	3.0	1.653	0,0,0,1,2,3,0,0,0	to_board	s601
159.774	0.631	0	PA_without_intermediate	0,0,0,0,0,0,3,2,0	test	ward_and_allport	1,0,0,0,0,0,3,2,0	71.0	3.0	0.631	0,0,0,1,2,3,0,0,0	to_hand	s601
160.406	0.35	0	PA_without_intermediate	1,0,0,0,0,0,3,2,0	test	ward_and_allport	1,0,0,0,0,0,3,2,0	89.0	3.0	0.35	0,0,0,1,2,3,0,0,0	to_board	s601
160.763	1.0	0	PA_without_intermediate	n/a	test	ward_and_allport	n/a	-1.0	3.0	n/a	n/a	feedback	s601
161.763	2.224	0	PA_without_intermediate	n/a	test	ward_and_allport	n/a	-1.0	3.0	n/a	n/a	ITI	s601
163.991	3.966	1	PA_without_intermediate	1,2,0,0,0,0,0,0,0	test	ward_and_allport	0,0,0,2,0,0,3,1,0	89.0	4.0	3.966	1,2,3,0,0,0,0,0,0	to_hand	s601
167.958	0.542	0	PA_without_intermediate	1,2,0,0,0,0,3,0,0	test	ward_and_allport	0,0,0,2,0,0,3,1,0	82.0	4.0	0.542	1,2,3,0,0,0,0,0,0	to_board	s601
168.504	3.426	0	PA_without_intermediate	1,0,0,0,0,0,3,0,0	test	ward_and_allport	0,0,0,2,0,0,3,1,0	89.0	4.0	3.426	1,2,3,0,0,0,0,0,0	to_hand	s601
171.931	0.369	0	PA_without_intermediate	1,0,0,2,0,0,3,0,0	test	ward_and_allport	0,0,0,2,0,0,3,1,0	71.0	4.0	0.369	1,2,3,0,0,0,0,0,0	to_board	s601
172.304	1.001	0	PA_without_intermediate	0,0,0,2,0,0,3,0,0	test	ward_and_allport	0,0,0,2,0,0,3,1,0	89.0	4.0	1.001	1,2,3,0,0,0,0,0,0	to_hand	s601
173.306	0.31	0	PA_without_intermediate	0,0,0,2,0,0,3,1,0	test	ward_and_allport	0,0,0,2,0,0,3,1,0	82.0	4.0	0.31	1,2,3,0,0,0,0,0,0	to_board	s601
173.619	1.0	0	PA_without_intermediate	n/a	test	ward_and_allport	n/a	-1.0	4.0	n/a	n/a	feedback	s601
174.619	1.272	0	PA_without_intermediate	n/a	test	ward_and_allport	n/a	-1.0	4.0	n/a	n/a	ITI	s601
175.895	5.957	1	PA_with_intermediate	1,2,0,0,0,0,0,0,0	test	ward_and_allport	1,0,0,0,0,0,2,3,0	89.0	5.0	5.957	1,2,3,0,0,0,0,0,0	to_hand	s601
181.853	0.438	0	PA_with_intermediate	1,2,0,3,0,0,0,0,0	test	ward_and_allport	1,0,0,0,0,0,2,3,0	71.0	5.0	0.438	1,2,3,0,0,0,0,0,0	to_board	s601
182.295	1.014	0	PA_with_intermediate	1,0,0,3,0,0,0,0,0	test	ward_and_allport	1,0,0,0,0,0,2,3,0	89.0	5.0	1.014	1,2,3,0,0,0,0,0,0	to_hand	s601
183.31	1.276	0	PA_with_intermediate	1,0,0,3,0,0,2,0,0	test	ward_and_allport	1,0,0,0,0,0,2,3,0	82.0	5.0	1.276	1,2,3,0,0,0,0,0,0	to_board	s601
184.59	0.789	0	PA_with_intermediate	1,0,0,0,0,0,2,0,0	test	ward_and_allport	1,0,0,0,0,0,2,3,0	71.0	5.0	0.789	1,2,3,0,0,0,0,0,0	to_hand	s601
185.381	1.998	0	PA_with_intermediate	1,0,0,0,0,0,2,3,0	test	ward_and_allport	1,0,0,0,0,0,2,3,0	82.0	5.0	1.998	1,2,3,0,0,0,0,0,0	to_board	s601
187.385	1.0	0	PA_with_intermediate	n/a	test	ward_and_allport	n/a	-1.0	5.0	n/a	n/a	feedback	s601
188.385	2.632	0	PA_with_intermediate	n/a	test	ward_and_allport	n/a	-1.0	5.0	n/a	n/a	ITI	s601
191.021	4.595	1	PA_without_intermediate	1,2,0,0,0,0,0,0,0	test	ward_and_allport	0,0,0,3,1,0,2,0,0	89.0	6.0	4.595	1,2,3,0,0,0,0,0,0	to_hand	s601
195.618	1.125	0	PA_without_intermediate	1,2,0,3,0,0,0,0,0	test	ward_and_allport	0,0,0,3,1,0,2,0,0	71.0	6.0	1.125	1,2,3,0,0,0,0,0,0	to_board	s601
196.747	1.218	0	PA_without_intermediate	1,0,0,3,0,0,0,0,0	test	ward_and_allport	0,0,0,3,1,0,2,0,0	89.0	6.0	1.218	1,2,3,0,0,0,0,0,0	to_hand	s601
197.966	0.383	0	PA_without_intermediate	1,0,0,3,0,0,2,0,0	test	ward_and_allport	0,0,0,3,1,0,2,0,0	82.0	6.0	0.383	1,2,3,0,0,0,0,0,0	to_board	s601
198.353	1.066	0	PA_without_intermediate	0,0,0,3,0,0,2,0,0	test	ward_and_allport	0,0,0,3,1,0,2,0,0	89.0	6.0	1.066	1,2,3,0,0,0,0,0,0	to_hand	s601
199.42	0.845	0	PA_without_intermediate	0,0,0,3,1,0,2,0,0	test	ward_and_allport	0,0,0,3,1,0,2,0,0	71.0	6.0	0.845	1,2,3,0,0,0,0,0,0	to_board	s601
200.27	1.0	0	PA_without_intermediate	n/a	test	ward_and_allport	n/a	-1.0	6.0	n/a	n/a	feedback	s601
201.27	1.408	0	PA_without_intermediate	n/a	test	ward_and_allport	n/a	-1.0	6.0	n/a	n/a	ITI	s601
202.682	4.746	1	PA_without_intermediate	0,0,0,1,2,0,0,0,0	test	ward_and_allport	1,0,0,0,0,0,3,2,0	71.0	7.0	4.746	0,0,0,1,2,3,0,0,0	to_hand	s601
207.428	0.647	0	PA_without_intermediate	0,0,0,1,2,0,3,0,0	test	ward_and_allport	1,0,0,0,0,0,3,2,0	82.0	7.0	0.647	0,0,0,1,2,3,0,0,0	to_board	s601
208.081	0.65	0	PA_without_intermediate	0,0,0,1,0,0,3,0,0	test	ward_and_allport	1,0,0,0,0,0,3,2,0	71.0	7.0	0.65	0,0,0,1,2,3,0,0,0	to_hand	s601
208.732	0.964	0	PA_without_intermediate	0,0,0,1,0,0,3,2,0	test	ward_and_allport	1,0,0,0,0,0,3,2,0	82.0	7.0	0.964	0,0,0,1,2,3,0,0,0	to_board	s601
209.7	1.081	0	PA_without_intermediate	0,0,0,0,0,0,3,2,0	test	ward_and_allport	1,0,0,0,0,0,3,2,0	71.0	7.0	1.081	0,0,0,1,2,3,0,0,0	to_hand	s601
210.782	0.365	0	PA_without_intermediate	1,0,0,0,0,0,3,2,0	test	ward_and_allport	1,0,0,0,0,0,3,2,0	89.0	7.0	0.365	0,0,0,1,2,3,0,0,0	to_board	s601
211.151	1.0	0	PA_without_intermediate	n/a	test	ward_and_allport	n/a	-1.0	7.0	n/a	n/a	feedback	s601
212.151	1.0	0	PA_without_intermediate	n/a	test	ward_and_allport	n/a	-1.0	7.0	n/a	n/a	ITI	s601
213.155	3.83	1	PA_with_intermediate	1,2,0,0,0,0,0,0,0	test	ward_and_allport	1,0,0,2,3,0,0,0,0	89.0	8.0	3.83	1,2,3,0,0,0,0,0,0	to_hand	s601
216.986	0.488	0	PA_with_intermediate	1,2,0,0,0,0,3,0,0	test	ward_and_allport	1,0,0,2,3,0,0,0,0	82.0	8.0	0.488	1,2,3,0,0,0,0,0,0	to_board	s601
217.478	1.08	0	PA_with_intermediate	1,0,0,0,0,0,3,0,0	test	ward_and_allport	1,0,0,2,3,0,0,0,0	89.0	8.0	1.08	1,2,3,0,0,0,0,0,0	to_hand	s601
218.559	1.641	0	PA_with_intermediate	1,0,0,2,0,0,3,0,0	test	ward_and_allport	1,0,0,2,3,0,0,0,0	71.0	8.0	1.641	1,2,3,0,0,0,0,0,0	to_board	s601
220.205	0.785	0	PA_with_intermediate	1,0,0,2,0,0,0,0,0	test	ward_and_allport	1,0,0,2,3,0,0,0,0	82.0	8.0	0.785	1,2,3,0,0,0,0,0,0	to_hand	s601
220.991	0.624	0	PA_with_intermediate	1,0,0,2,3,0,0,0,0	test	ward_and_allport	1,0,0,2,3,0,0,0,0	71.0	8.0	0.624	1,2,3,0,0,0,0,0,0	to_board	s601
221.621	1.0	0	PA_with_intermediate	n/a	test	ward_and_allport	n/a	-1.0	8.0	n/a	n/a	feedback	s601
222.621	1.0	0	PA_with_intermediate	n/a	test	ward_and_allport	n/a	-1.0	8.0	n/a	n/a	ITI	s601
223.625	4.643	1	PA_with_intermediate	0,0,0,1,2,0,0,0,0	test	ward_and_allport	0,0,0,1,0,0,2,3,0	71.0	9.0	4.643	0,0,0,1,2,3,0,0,0	to_hand	s601
228.27	1.153	0	PA_with_intermediate	3,0,0,1,2,0,0,0,0	test	ward_and_allport	0,0,0,1,0,0,2,3,0	89.0	9.0	1.153	0,0,0,1,2,3,0,0,0	to_board	s601
229.427	0.557	0	PA_with_intermediate	3,0,0,1,0,0,0,0,0	test	ward_and_allport	0,0,0,1,0,0,2,3,0	71.0	9.0	0.557	0,0,0,1,2,3,0,0,0	to_hand	s601
229.985	0.41	0	PA_with_intermediate	3,0,0,1,0,0,2,0,0	test	ward_and_allport	0,0,0,1,0,0,2,3,0	82.0	9.0	0.41	0,0,0,1,2,3,0,0,0	to_board	s601
230.399	0.535	0	PA_with_intermediate	0,0,0,1,0,0,2,0,0	test	ward_and_allport	0,0,0,1,0,0,2,3,0	89.0	9.0	0.535	0,0,0,1,2,3,0,0,0	to_hand	s601
230.937	0.428	0	PA_with_intermediate	0,0,0,1,0,0,2,3,0	test	ward_and_allport	0,0,0,1,0,0,2,3,0	82.0	9.0	0.428	0,0,0,1,2,3,0,0,0	to_board	s601
231.376	1.0	0	PA_with_intermediate	n/a	test	ward_and_allport	n/a	-1.0	9.0	n/a	n/a	feedback	s601
232.376	1.0	0	PA_with_intermediate	n/a	test	ward_and_allport	n/a	-1.0	9.0	n/a	n/a	ITI	s601
233.382	10.536	1	PA_with_intermediate	0,0,0,0,0,0,1,2,0	test	ward_and_allport	2,0,0,0,0,0,1,3,0	82.0	10.0	10.536	0,0,0,0,0,0,1,2,3	to_hand	s601
243.919	0.494	0	PA_with_intermediate	0,0,0,3,0,0,1,2,0	test	ward_and_allport	2,0,0,0,0,0,1,3,0	71.0	10.0	0.494	0,0,0,0,0,0,1,2,3	to_board	s601
244.418	1.082	0	PA_with_intermediate	0,0,0,3,0,0,1,0,0	test	ward_and_allport	2,0,0,0,0,0,1,3,0	82.0	10.0	1.082	0,0,0,0,0,0,1,2,3	to_hand	s601
245.501	0.623	0	PA_with_intermediate	2,0,0,3,0,0,1,0,0	test	ward_and_allport	2,0,0,0,0,0,1,3,0	89.0	10.0	0.623	0,0,0,0,0,0,1,2,3	to_board	s601
246.129	0.671	0	PA_with_intermediate	2,0,0,0,0,0,1,0,0	test	ward_and_allport	2,0,0,0,0,0,1,3,0	71.0	10.0	0.671	0,0,0,0,0,0,1,2,3	to_hand	s601
246.801	0.354	0	PA_with_intermediate	2,0,0,0,0,0,1,3,0	test	ward_and_allport	2,0,0,0,0,0,1,3,0	82.0	10.0	0.354	0,0,0,0,0,0,1,2,3	to_board	s601
247.16	1.0	0	PA_with_intermediate	n/a	test	ward_and_allport	n/a	-1.0	10.0	n/a	n/a	feedback	s601
248.16	1.408	0	PA_with_intermediate	n/a	test	ward_and_allport	n/a	-1.0	10.0	n/a	n/a	ITI	s601
249.574	2.635	1	PA_without_intermediate	0,0,0,1,2,0,0,0,0	test	ward_and_allport	2,0,0,0,0,0,3,1,0	71.0	11.0	2.635	0,0,0,1,2,3,0,0,0	to_hand	s601
252.21	5.257	0	PA_without_intermediate	0,0,0,1,2,0,3,0,0	test	ward_and_allport	2,0,0,0,0,0,3,1,0	82.0	11.0	5.257	0,0,0,1,2,3,0,0,0	to_board	s601
257.473	1.278	0	PA_without_intermediate	0,0,0,1,0,0,3,0,0	test	ward_and_allport	2,0,0,0,0,0,3,1,0	71.0	11.0	1.278	0,0,0,1,2,3,0,0,0	to_hand	s601
258.752	0.544	0	PA_without_intermediate	2,0,0,1,0,0,3,0,0	test	ward_and_allport	2,0,0,0,0,0,3,1,0	89.0	11.0	0.544	0,0,0,1,2,3,0,0,0	to_board	s601
259.302	0.549	0	PA_without_intermediate	2,0,0,0,0,0,3,0,0	test	ward_and_allport	2,0,0,0,0,0,3,1,0	71.0	11.0	0.549	0,0,0,1,2,3,0,0,0	to_hand	s601
259.852	0.63	0	PA_without_intermediate	2,0,0,0,0,0,3,1,0	test	ward_and_allport	2,0,0,0,0,0,3,1,0	82.0	11.0	0.63	0,0,0,1,2,3,0,0,0	to_board	s601
260.491	1.0	0	PA_without_intermediate	n/a	test	ward_and_allport	n/a	-1.0	11.0	n/a	n/a	feedback	s601
261.491	1.816	0	PA_without_intermediate	n/a	test	ward_and_allport	n/a	-1.0	11.0	n/a	n/a	ITI	s601
263.311	4.005	1	PA_with_intermediate	0,0,0,0,0,0,1,2,0	test	ward_and_allport	2,0,0,0,0,0,1,3,0	82.0	12.0	4.005	0,0,0,0,0,0,1,2,3	to_hand	s601
267.317	0.352	0	PA_with_intermediate	0,0,0,3,0,0,1,2,0	test	ward_and_allport	2,0,0,0,0,0,1,3,0	71.0	12.0	0.352	0,0,0,0,0,0,1,2,3	to_board	s601
267.674	0.715	0	PA_with_intermediate	0,0,0,3,0,0,1,0,0	test	ward_and_allport	2,0,0,0,0,0,1,3,0	82.0	12.0	0.715	0,0,0,0,0,0,1,2,3	to_hand	s601
268.39	0.426	0	PA_with_intermediate	2,0,0,3,0,0,1,0,0	test	ward_and_allport	2,0,0,0,0,0,1,3,0	89.0	12.0	0.426	0,0,0,0,0,0,1,2,3	to_board	s601
268.821	0.823	0	PA_with_intermediate	2,0,0,0,0,0,1,0,0	test	ward_and_allport	2,0,0,0,0,0,1,3,0	71.0	12.0	0.823	0,0,0,0,0,0,1,2,3	to_hand	s601
269.645	0.431	0	PA_with_intermediate	2,0,0,0,0,0,1,3,0	test	ward_and_allport	2,0,0,0,0,0,1,3,0	82.0	12.0	0.431	0,0,0,0,0,0,1,2,3	to_board	s601
270.086	1.0	0	PA_with_intermediate	n/a	test	ward_and_allport	n/a	-1.0	12.0	n/a	n/a	feedback	s601
271.086	3.176	0	PA_with_intermediate	n/a	test	ward_and_allport	n/a	-1.0	12.0	n/a	n/a	ITI	s601
274.267	4.858	1	PA_with_intermediate	0,0,0,0,0,0,1,2,0	test	ward_and_allport	2,3,0,0,0,0,1,0,0	82.0	13.0	4.858	0,0,0,0,0,0,1,2,3	to_hand	s601
279.126	1.035	0	PA_with_intermediate	0,0,0,3,0,0,1,2,0	test	ward_and_allport	2,3,0,0,0,0,1,0,0	71.0	13.0	1.035	0,0,0,0,0,0,1,2,3	to_board	s601
280.165	1.835	0	PA_with_intermediate	0,0,0,3,0,0,1,0,0	test	ward_and_allport	2,3,0,0,0,0,1,0,0	82.0	13.0	1.835	0,0,0,0,0,0,1,2,3	to_hand	s601
282.001	0.872	0	PA_with_intermediate	2,0,0,3,0,0,1,0,0	test	ward_and_allport	2,3,0,0,0,0,1,0,0	89.0	13.0	0.872	0,0,0,0,0,0,1,2,3	to_board	s601
282.878	0.371	0	PA_with_intermediate	2,0,0,0,0,0,1,0,0	test	ward_and_allport	2,3,0,0,0,0,1,0,0	71.0	13.0	0.371	0,0,0,0,0,0,1,2,3	to_hand	s601
283.25	0.302	0	PA_with_intermediate	2,3,0,0,0,0,1,0,0	test	ward_and_allport	2,3,0,0,0,0,1,0,0	89.0	13.0	0.302	0,0,0,0,0,0,1,2,3	to_board	s601
283.559	1.0	0	PA_with_intermediate	n/a	test	ward_and_allport	n/a	-1.0	13.0	n/a	n/a	feedback	s601
284.559	2.36	0	PA_with_intermediate	n/a	test	ward_and_allport	n/a	-1.0	13.0	n/a	n/a	ITI	s601
286.924	7.278	1	PA_with_intermediate	0,0,0,1,2,0,0,0,0	test	ward_and_allport	0,0,0,1,3,0,2,0,0	71.0	14.0	7.278	0,0,0,1,2,3,0,0,0	to_hand	s601
294.204	2.543	0	PA_with_intermediate	3,0,0,1,2,0,0,0,0	test	ward_and_allport	0,0,0,1,3,0,2,0,0	89.0	14.0	2.543	0,0,0,1,2,3,0,0,0	to_board	s601
296.751	0.707	0	PA_with_intermediate	3,0,0,1,0,0,0,0,0	test	ward_and_allport	0,0,0,1,3,0,2,0,0	71.0	14.0	0.707	0,0,0,1,2,3,0,0,0	to_hand	s601
297.46	0.381	0	PA_with_intermediate	3,0,0,1,0,0,2,0,0	test	ward_and_allport	0,0,0,1,3,0,2,0,0	82.0	14.0	0.381	0,0,0,1,2,3,0,0,0	to_board	s601
297.846	0.675	0	PA_with_intermediate	0,0,0,1,0,0,2,0,0	test	ward_and_allport	0,0,0,1,3,0,2,0,0	89.0	14.0	0.675	0,0,0,1,2,3,0,0,0	to_hand	s601
298.522	0.308	0	PA_with_intermediate	0,0,0,1,3,0,2,0,0	test	ward_and_allport	0,0,0,1,3,0,2,0,0	71.0	14.0	0.308	0,0,0,1,2,3,0,0,0	to_board	s601
298.839	1.0	0	PA_with_intermediate	n/a	test	ward_and_allport	n/a	-1.0	14.0	n/a	n/a	feedback	s601
299.839	1.0	0	PA_with_intermediate	n/a	test	ward_and_allport	n/a	-1.0	14.0	n/a	n/a	ITI	s601
305.847	9.871	1	PA_without_intermediate	0,0,0,0,0,0,1,2,0	test	ward_and_allport	1,0,0,3,2,0,0,0,0	82.0	15.0	9.871	0,0,0,0,0,0,1,2,3	to_hand	s601
315.719	0.773	0	PA_without_intermediate	0,0,0,3,0,0,1,2,0	test	ward_and_allport	1,0,0,3,2,0,0,0,0	71.0	15.0	0.773	0,0,0,0,0,0,1,2,3	to_board	s601
316.497	1.892	0	PA_without_intermediate	0,0,0,3,0,0,1,0,0	test	ward_and_allport	1,0,0,3,2,0,0,0,0	82.0	15.0	1.892	0,0,0,0,0,0,1,2,3	to_hand	s601
318.39	0.448	0	PA_without_intermediate	0,0,0,3,2,0,1,0,0	test	ward_and_allport	1,0,0,3,2,0,0,0,0	71.0	15.0	0.448	0,0,0,0,0,0,1,2,3	to_board	s601
318.843	0.515	0	PA_without_intermediate	0,0,0,3,2,0,0,0,0	test	ward_and_allport	1,0,0,3,2,0,0,0,0	82.0	15.0	0.515	0,0,0,0,0,0,1,2,3	to_hand	s601
319.359	0.224	0	PA_without_intermediate	1,0,0,3,2,0,0,0,0	test	ward_and_allport	1,0,0,3,2,0,0,0,0	89.0	15.0	0.224	0,0,0,0,0,0,1,2,3	to_board	s601
319.589	1.0	0	PA_without_intermediate	n/a	test	ward_and_allport	n/a	-1.0	15.0	n/a	n/a	feedback	s601
320.589	1.408	0	PA_without_intermediate	n/a	test	ward_and_allport	n/a	-1.0	15.0	n/a	n/a	ITI	s601
322.004	8.265	1	PA_with_intermediate	0,0,0,0,0,0,1,2,0	test	ward_and_allport	0,0,0,2,0,0,1,3,0	82.0	16.0	8.265	0,0,0,0,0,0,1,2,3	to_hand	s601
330.271	0.606	0	PA_with_intermediate	3,0,0,0,0,0,1,2,0	test	ward_and_allport	0,0,0,2,0,0,1,3,0	89.0	16.0	0.606	0,0,0,0,0,0,1,2,3	to_board	s601
330.883	1.005	0	PA_with_intermediate	3,0,0,0,0,0,1,0,0	test	ward_and_allport	0,0,0,2,0,0,1,3,0	82.0	16.0	1.005	0,0,0,0,0,0,1,2,3	to_hand	s601
331.89	0.415	0	PA_with_intermediate	3,0,0,2,0,0,1,0,0	test	ward_and_allport	0,0,0,2,0,0,1,3,0	71.0	16.0	0.415	0,0,0,0,0,0,1,2,3	to_board	s601
332.31	0.68	0	PA_with_intermediate	0,0,0,2,0,0,1,0,0	test	ward_and_allport	0,0,0,2,0,0,1,3,0	89.0	16.0	0.68	0,0,0,0,0,0,1,2,3	to_hand	s601
332.992	0.322	0	PA_with_intermediate	0,0,0,2,0,0,1,3,0	test	ward_and_allport	0,0,0,2,0,0,1,3,0	82.0	16.0	0.322	0,0,0,0,0,0,1,2,3	to_board	s601
333.32	1.0	0	PA_with_intermediate	n/a	test	ward_and_allport	n/a	-1.0	16.0	n/a	n/a	feedback	s601
334.32	1.816	0	PA_with_intermediate	n/a	test	ward_and_allport	n/a	-1.0	16.0	n/a	n/a	ITI	s601
336.141	5.827	1	PA_without_intermediate	1,2,0,0,0,0,0,0,0	test	ward_and_allport	0,0,0,2,0,0,3,1,0	89.0	17.0	5.827	1,2,3,0,0,0,0,0,0	to_hand	s601
341.969	0.315	0	PA_without_intermediate	1,2,0,0,0,0,3,0,0	test	ward_and_allport	0,0,0,2,0,0,3,1,0	82.0	17.0	0.315	1,2,3,0,0,0,0,0,0	to_board	s601
342.29	2.039	0	PA_without_intermediate	1,0,0,0,0,0,3,0,0	test	ward_and_allport	0,0,0,2,0,0,3,1,0	89.0	17.0	2.039	1,2,3,0,0,0,0,0,0	to_hand	s601
344.33	0.357	0	PA_without_intermediate	1,0,0,2,0,0,3,0,0	test	ward_and_allport	0,0,0,2,0,0,3,1,0	71.0	17.0	0.357	1,2,3,0,0,0,0,0,0	to_board	s601
344.693	0.653	0	PA_without_intermediate	0,0,0,2,0,0,3,0,0	test	ward_and_allport	0,0,0,2,0,0,3,1,0	89.0	17.0	0.653	1,2,3,0,0,0,0,0,0	to_hand	s601
345.348	0.248	0	PA_without_intermediate	0,0,0,2,0,0,3,1,0	test	ward_and_allport	0,0,0,2,0,0,3,1,0	82.0	17.0	0.248	1,2,3,0,0,0,0,0,0	to_board	s601
345.607	1.0	0	PA_without_intermediate	n/a	test	ward_and_allport	n/a	-1.0	17.0	n/a	n/a	feedback	s601
346.607	2.088	0	PA_without_intermediate	n/a	test	ward_and_allport	n/a	-1.0	17.0	n/a	n/a	ITI	s601
348.701	3.209	1	PA_without_intermediate	0,0,0,1,2,0,0,0,0	test	ward_and_allport	3,2,0,0,0,0,1,0,0	71.0	18.0	3.209	0,0,0,1,2,3,0,0,0	to_hand	s601
351.911	0.326	0	PA_without_intermediate	3,0,0,1,2,0,0,0,0	test	ward_and_allport	3,2,0,0,0,0,1,0,0	89.0	18.0	0.326	0,0,0,1,2,3,0,0,0	to_board	s601
352.243	4.06	0	PA_without_intermediate	3,0,0,1,0,0,0,0,0	test	ward_and_allport	3,2,0,0,0,0,1,0,0	71.0	18.0	4.06	0,0,0,1,2,3,0,0,0	to_hand	s601
356.304	0.276	0	PA_without_intermediate	3,2,0,1,0,0,0,0,0	test	ward_and_allport	3,2,0,0,0,0,1,0,0	89.0	18.0	0.276	0,0,0,1,2,3,0,0,0	to_board	s601
356.587	1.25	0	PA_without_intermediate	3,2,0,0,0,0,0,0,0	test	ward_and_allport	3,2,0,0,0,0,1,0,0	71.0	18.0	1.25	0,0,0,1,2,3,0,0,0	to_hand	s601
357.838	0.254	0	PA_without_intermediate	3,2,0,0,0,0,1,0,0	test	ward_and_allport	3,2,0,0,0,0,1,0,0	82.0	18.0	0.254	0,0,0,1,2,3,0,0,0	to_board	s601
358.102	1.0	0	PA_without_intermediate	n/a	test	ward_and_allport	n/a	-1.0	18.0	n/a	n/a	feedback	s601
359.102	1.136	0	PA_without_intermediate	n/a	test	ward_and_allport	n/a	-1.0	18.0	n/a	n/a	ITI	s601
360.244	3.276	1	PA_without_intermediate	0,0,0,0,0,0,1,2,0	test	ward_and_allport	1,0,0,3,2,0,0,0,0	82.0	19.0	3.276	0,0,0,0,0,0,1,2,3	to_hand	s601
363.522	1.356	0	PA_without_intermediate	0,0,0,3,0,0,1,2,0	test	ward_and_allport	1,0,0,3,2,0,0,0,0	71.0	19.0	1.356	0,0,0,0,0,0,1,2,3	to_board	s601
364.885	0.794	0	PA_without_intermediate	0,0,0,3,0,0,1,0,0	test	ward_and_allport	1,0,0,3,2,0,0,0,0	82.0	19.0	0.794	0,0,0,0,0,0,1,2,3	to_hand	s601
365.68	0.394	0	PA_without_intermediate	0,0,0,3,2,0,1,0,0	test	ward_and_allport	1,0,0,3,2,0,0,0,0	71.0	19.0	0.394	0,0,0,0,0,0,1,2,3	to_board	s601
366.08	0.588	0	PA_without_intermediate	0,0,0,3,2,0,0,0,0	test	ward_and_allport	1,0,0,3,2,0,0,0,0	82.0	19.0	0.588	0,0,0,0,0,0,1,2,3	to_hand	s601
366.67	0.314	0	PA_without_intermediate	1,0,0,3,2,0,0,0,0	test	ward_and_allport	1,0,0,3,2,0,0,0,0	89.0	19.0	0.314	0,0,0,0,0,0,1,2,3	to_board	s601
366.996	1.0	0	PA_without_intermediate	n/a	test	ward_and_allport	n/a	-1.0	19.0	n/a	n/a	feedback	s601
367.996	6.168	0	PA_without_intermediate	n/a	test	ward_and_allport	n/a	-1.0	19.0	n/a	n/a	ITI	s601
374.169	6.191	1	PA_without_intermediate	0,0,0,0,0,0,1,2,0	test	ward_and_allport	2,0,0,3,1,0,0,0,0	82.0	20.0	6.191	0,0,0,0,0,0,1,2,3	to_hand	s601
380.362	0.411	0	PA_without_intermediate	0,0,0,3,0,0,1,2,0	test	ward_and_allport	2,0,0,3,1,0,0,0,0	71.0	20.0	0.411	0,0,0,0,0,0,1,2,3	to_board	s601
380.778	1.041	0	PA_without_intermediate	0,0,0,3,0,0,1,0,0	test	ward_and_allport	2,0,0,3,1,0,0,0,0	82.0	20.0	1.041	0,0,0,0,0,0,1,2,3	to_hand	s601
381.821	0.409	0	PA_without_intermediate	2,0,0,3,0,0,1,0,0	test	ward_and_allport	2,0,0,3,1,0,0,0,0	89.0	20.0	0.409	0,0,0,0,0,0,1,2,3	to_board	s601
382.236	1.275	0	PA_without_intermediate	2,0,0,3,0,0,0,0,0	test	ward_and_allport	2,0,0,3,1,0,0,0,0	82.0	20.0	1.275	0,0,0,0,0,0,1,2,3	to_hand	s601
383.513	0.4	0	PA_without_intermediate	2,0,0,3,1,0,0,0,0	test	ward_and_allport	2,0,0,3,1,0,0,0,0	71.0	20.0	0.4	0,0,0,0,0,0,1,2,3	to_board	s601
383.92	1.0	0	PA_without_intermediate	n/a	test	ward_and_allport	n/a	-1.0	20.0	n/a	n/a	feedback	s601
384.92	1.816	0	PA_without_intermediate	n/a	test	ward_and_allport	n/a	-1.0	20.0	n/a	n/a	ITI	s601
386.741	3.402	1	PA_with_intermediate	0,0,0,1,2,0,0,0,0	test	ward_and_allport	2,3,0,1,0,0,0,0,0	71.0	21.0	3.402	0,0,0,1,2,3,0,0,0	to_hand	s601
390.145	0.417	0	PA_with_intermediate	0,0,0,1,2,0,3,0,0	test	ward_and_allport	2,3,0,1,0,0,0,0,0	82.0	21.0	0.417	0,0,0,1,2,3,0,0,0	to_board	s601
390.569	0.617	0	PA_with_intermediate	0,0,0,1,0,0,3,0,0	test	ward_and_allport	2,3,0,1,0,0,0,0,0	71.0	21.0	0.617	0,0,0,1,2,3,0,0,0	to_hand	s601
391.187	0.429	0	PA_with_intermediate	2,0,0,1,0,0,3,0,0	test	ward_and_allport	2,3,0,1,0,0,0,0,0	89.0	21.0	0.429	0,0,0,1,2,3,0,0,0	to_board	s601
391.624	0.753	0	PA_with_intermediate	2,0,0,1,0,0,0,0,0	test	ward_and_allport	2,3,0,1,0,0,0,0,0	82.0	21.0	0.753	0,0,0,1,2,3,0,0,0	to_hand	s601
392.379	0.333	0	PA_with_intermediate	2,3,0,1,0,0,0,0,0	test	ward_and_allport	2,3,0,1,0,0,0,0,0	89.0	21.0	0.333	0,0,0,1,2,3,0,0,0	to_board	s601
392.719	1.0	0	PA_with_intermediate	n/a	test	ward_and_allport	n/a	-1.0	21.0	n/a	n/a	feedback	s601
393.719	1.952	0	PA_with_intermediate	n/a	test	ward_and_allport	n/a	-1.0	21.0	n/a	n/a	ITI	s601
395.679	3.835	1	PA_with_intermediate	0,0,0,0,0,0,1,2,0	test	ward_and_allport	0,0,0,2,3,0,1,0,0	82.0	22.0	3.835	0,0,0,0,0,0,1,2,3	to_hand	s601
399.516	0.471	0	PA_with_intermediate	3,0,0,0,0,0,1,2,0	test	ward_and_allport	0,0,0,2,3,0,1,0,0	89.0	22.0	0.471	0,0,0,0,0,0,1,2,3	to_board	s601
399.995	0.877	0	PA_with_intermediate	3,0,0,0,0,0,1,0,0	test	ward_and_allport	0,0,0,2,3,0,1,0,0	82.0	22.0	0.877	0,0,0,0,0,0,1,2,3	to_hand	s601
400.874	0.392	0	PA_with_intermediate	3,0,0,2,0,0,1,0,0	test	ward_and_allport	0,0,0,2,3,0,1,0,0	71.0	22.0	0.392	0,0,0,0,0,0,1,2,3	to_board	s601
401.273	0.518	0	PA_with_intermediate	0,0,0,2,0,0,1,0,0	test	ward_and_allport	0,0,0,2,3,0,1,0,0	89.0	22.0	0.518	0,0,0,0,0,0,1,2,3	to_hand	s601
401.793	0.35	0	PA_with_intermediate	0,0,0,2,3,0,1,0,0	test	ward_and_allport	0,0,0,2,3,0,1,0,0	71.0	22.0	0.35	0,0,0,0,0,0,1,2,3	to_board	s601
402.151	1.0	0	PA_with_intermediate	n/a	test	ward_and_allport	n/a	-1.0	22.0	n/a	n/a	feedback	s601
403.151	1.136	0	PA_with_intermediate	n/a	test	ward_and_allport	n/a	-1.0	22.0	n/a	n/a	ITI	s601
404.294	2.823	1	PA_without_intermediate	1,2,0,0,0,0,0,0,0	test	ward_and_allport	0,0,0,1,0,0,3,2,0	89.0	23.0	2.823	1,2,3,0,0,0,0,0,0	to_hand	s601
407.118	0.267	0	PA_without_intermediate	1,2,0,0,0,0,3,0,0	test	ward_and_allport	0,0,0,1,0,0,3,2,0	82.0	23.0	0.267	1,2,3,0,0,0,0,0,0	to_board	s601
407.394	0.37	0	PA_without_intermediate	1,0,0,0,0,0,3,0,0	test	ward_and_allport	0,0,0,1,0,0,3,2,0	89.0	23.0	0.37	1,2,3,0,0,0,0,0,0	to_hand	s601
407.765	0.311	0	PA_without_intermediate	1,0,0,0,0,0,3,2,0	test	ward_and_allport	0,0,0,1,0,0,3,2,0	82.0	23.0	0.311	1,2,3,0,0,0,0,0,0	to_board	s601
408.083	1.116	0	PA_without_intermediate	0,0,0,0,0,0,3,2,0	test	ward_and_allport	0,0,0,1,0,0,3,2,0	89.0	23.0	1.116	1,2,3,0,0,0,0,0,0	to_hand	s601
409.2	0.31	0	PA_without_intermediate	0,0,0,1,0,0,3,2,0	test	ward_and_allport	0,0,0,1,0,0,3,2,0	71.0	23.0	0.31	1,2,3,0,0,0,0,0,0	to_board	s601
409.522	1.0	0	PA_without_intermediate	n/a	test	ward_and_allport	n/a	-1.0	23.0	n/a	n/a	feedback	s601
410.522	1.68	0	PA_without_intermediate	n/a	test	ward_and_allport	n/a	-1.0	23.0	n/a	n/a	ITI	s601
412.209	3.101	1	PA_without_intermediate	0,0,0,0,0,0,1,2,0	test	ward_and_allport	3,2,0,1,0,0,0,0,0	82.0	24.0	3.101	0,0,0,0,0,0,1,2,3	to_hand	s601
415.312	0.321	0	PA_without_intermediate	3,0,0,0,0,0,1,2,0	test	ward_and_allport	3,2,0,1,0,0,0,0,0	89.0	24.0	0.321	0,0,0,0,0,0,1,2,3	to_board	s601
415.641	0.76	0	PA_without_intermediate	3,0,0,0,0,0,1,0,0	test	ward_and_allport	3,2,0,1,0,0,0,0,0	82.0	24.0	0.76	0,0,0,0,0,0,1,2,3	to_hand	s601
416.402	0.395	0	PA_without_intermediate	3,2,0,0,0,0,1,0,0	test	ward_and_allport	3,2,0,1,0,0,0,0,0	89.0	24.0	0.395	0,0,0,0,0,0,1,2,3	to_board	s601
416.804	0.627	0	PA_without_intermediate	3,2,0,0,0,0,0,0,0	test	ward_and_allport	3,2,0,1,0,0,0,0,0	82.0	24.0	0.627	0,0,0,0,0,0,1,2,3	to_hand	s601
417.433	0.327	0	PA_without_intermediate	3,2,0,1,0,0,0,0,0	test	ward_and_allport	3,2,0,1,0,0,0,0,0	71.0	24.0	0.327	0,0,0,0,0,0,1,2,3	to_board	s601
417.77	1.0	0	PA_without_intermediate	n/a	test	ward_and_allport	n/a	-1.0	24.0	n/a	n/a	feedback	s601
418.77	2.088	0	PA_without_intermediate	n/a	test	ward_and_allport	n/a	-1.0	24.0	n/a	n/a	ITI	s601
420.867	5.556	1	PA_with_intermediate	1,2,0,0,0,0,0,0,0	test	ward_and_allport	1,3,0,2,0,0,0,0,0	89.0	25.0	5.556	1,2,3,0,0,0,0,0,0	to_hand	s601
426.425	0.268	0	PA_with_intermediate	1,2,0,0,0,0,3,0,0	test	ward_and_allport	1,3,0,2,0,0,0,0,0	82.0	25.0	0.268	1,2,3,0,0,0,0,0,0	to_board	s601
426.702	0.921	0	PA_with_intermediate	1,0,0,0,0,0,3,0,0	test	ward_and_allport	1,3,0,2,0,0,0,0,0	89.0	25.0	0.921	1,2,3,0,0,0,0,0,0	to_hand	s601
427.624	0.309	0	PA_with_intermediate	1,0,0,2,0,0,3,0,0	test	ward_and_allport	1,3,0,2,0,0,0,0,0	71.0	25.0	0.309	1,2,3,0,0,0,0,0,0	to_board	s601
427.941	0.628	0	PA_with_intermediate	1,0,0,2,0,0,0,0,0	test	ward_and_allport	1,3,0,2,0,0,0,0,0	82.0	25.0	0.628	1,2,3,0,0,0,0,0,0	to_hand	s601
428.57	0.574	0	PA_with_intermediate	1,3,0,2,0,0,0,0,0	test	ward_and_allport	1,3,0,2,0,0,0,0,0	89.0	25.0	0.574	1,2,3,0,0,0,0,0,0	to_board	s601
429.153	1.0	0	PA_with_intermediate	n/a	test	ward_and_allport	n/a	-1.0	25.0	n/a	n/a	feedback	s601
430.153	1.0	0	PA_with_intermediate	n/a	test	ward_and_allport	n/a	-1.0	25.0	n/a	n/a	ITI	s601
431.161	3.465	1	PA_without_intermediate	0,0,0,1,2,0,0,0,0	test	ward_and_allport	3,1,0,0,0,0,2,0,0	71.0	26.0	3.465	0,0,0,1,2,3,0,0,0	to_hand	s601
434.627	0.373	0	PA_without_intermediate	3,0,0,1,2,0,0,0,0	test	ward_and_allport	3,1,0,0,0,0,2,0,0	89.0	26.0	0.373	0,0,0,1,2,3,0,0,0	to_board	s601
435.008	1.337	0	PA_without_intermediate	3,0,0,1,0,0,0,0,0	test	ward_and_allport	3,1,0,0,0,0,2,0,0	71.0	26.0	1.337	0,0,0,1,2,3,0,0,0	to_hand	s601
436.347	0.294	0	PA_without_intermediate	3,0,0,1,0,0,2,0,0	test	ward_and_allport	3,1,0,0,0,0,2,0,0	82.0	26.0	0.294	0,0,0,1,2,3,0,0,0	to_board	s601
436.65	0.344	0	PA_without_intermediate	3,0,0,0,0,0,2,0,0	test	ward_and_allport	3,1,0,0,0,0,2,0,0	71.0	26.0	0.344	0,0,0,1,2,3,0,0,0	to_hand	s601
436.996	0.352	0	PA_without_intermediate	3,1,0,0,0,0,2,0,0	test	ward_and_allport	3,1,0,0,0,0,2,0,0	89.0	26.0	0.352	0,0,0,1,2,3,0,0,0	to_board	s601
437.36	1.0	0	PA_without_intermediate	n/a	test	ward_and_allport	n/a	-1.0	26.0	n/a	n/a	feedback	s601
438.36	1.0	0	PA_without_intermediate	n/a	test	ward_and_allport	n/a	-1.0	26.0	n/a	n/a	ITI	s601
439.368	2.481	1	PA_without_intermediate	1,2,0,0,0,0,0,0,0	test	ward_and_allport	0,0,0,1,0,0,3,2,0	89.0	27.0	2.481	1,2,3,0,0,0,0,0,0	to_hand	s601
441.851	0.268	0	PA_without_intermediate	1,2,0,0,0,0,3,0,0	test	ward_and_allport	0,0,0,1,0,0,3,2,0	82.0	27.0	0.268	1,2,3,0,0,0,0,0,0	to_board	s601
442.127	1.369	0	PA_without_intermediate	1,0,0,0,0,0,3,0,0	test	ward_and_allport	0,0,0,1,0,0,3,2,0	89.0	27.0	1.369	1,2,3,0,0,0,0,0,0	to_hand	s601
443.497	0.27	0	PA_without_intermediate	1,0,0,0,0,0,3,2,0	test	ward_and_allport	0,0,0,1,0,0,3,2,0	82.0	27.0	0.27	1,2,3,0,0,0,0,0,0	to_board	s601
443.776	0.689	0	PA_without_intermediate	0,0,0,0,0,0,3,2,0	test	ward_and_allport	0,0,0,1,0,0,3,2,0	89.0	27.0	0.689	1,2,3,0,0,0,0,0,0	to_hand	s601
444.467	0.356	0	PA_without_intermediate	0,0,0,1,0,0,3,2,0	test	ward_and_allport	0,0,0,1,0,0,3,2,0	71.0	27.0	0.356	1,2,3,0,0,0,0,0,0	to_board	s601
444.833	1.0	0	PA_without_intermediate	n/a	test	ward_and_allport	n/a	-1.0	27.0	n/a	n/a	feedback	s601
445.833	1.0	0	PA_without_intermediate	n/a	test	ward_and_allport	n/a	-1.0	27.0	n/a	n/a	ITI	s601
446.841	2.681	1	PA_with_intermediate	1,2,0,0,0,0,0,0,0	test	ward_and_allport	1,3,0,2,0,0,0,0,0	89.0	28.0	2.681	1,2,3,0,0,0,0,0,0	to_hand	s601
449.523	0.259	0	PA_with_intermediate	1,2,0,0,0,0,3,0,0	test	ward_and_allport	1,3,0,2,0,0,0,0,0	82.0	28.0	0.259	1,2,3,0,0,0,0,0,0	to_board	s601
449.789	1.489	0	PA_with_intermediate	1,0,0,0,0,0,3,0,0	test	ward_and_allport	1,3,0,2,0,0,0,0,0	89.0	28.0	1.489	1,2,3,0,0,0,0,0,0	to_hand	s601
451.28	0.54	0	PA_with_intermediate	1,0,0,2,0,0,3,0,0	test	ward_and_allport	1,3,0,2,0,0,0,0,0	71.0	28.0	0.54	1,2,3,0,0,0,0,0,0	to_board	s601
451.829	0.546	0	PA_with_intermediate	1,0,0,2,0,0,0,0,0	test	ward_and_allport	1,3,0,2,0,0,0,0,0	82.0	28.0	0.546	1,2,3,0,0,0,0,0,0	to_hand	s601
452.376	0.307	0	PA_with_intermediate	1,3,0,2,0,0,0,0,0	test	ward_and_allport	1,3,0,2,0,0,0,0,0	89.0	28.0	0.307	1,2,3,0,0,0,0,0,0	to_board	s601
452.693	1.0	0	PA_with_intermediate	n/a	test	ward_and_allport	n/a	-1.0	28.0	n/a	n/a	feedback	s601
453.693	1.544	0	PA_with_intermediate	n/a	test	ward_and_allport	n/a	-1.0	28.0	n/a	n/a	ITI	s601
455.247	3.298	1	PA_without_intermediate	0,0,0,0,0,0,1,2,0	test	ward_and_allport	2,0,0,3,1,0,0,0,0	82.0	29.0	3.298	0,0,0,0,0,0,1,2,3	to_hand	s601
458.546	1.652	0	PA_without_intermediate	0,0,0,3,0,0,1,2,0	test	ward_and_allport	2,0,0,3,1,0,0,0,0	71.0	29.0	1.652	0,0,0,0,0,0,1,2,3	to_board	s601
460.206	0.832	0	PA_without_intermediate	0,0,0,3,0,0,1,0,0	test	ward_and_allport	2,0,0,3,1,0,0,0,0	82.0	29.0	0.832	0,0,0,0,0,0,1,2,3	to_hand	s601
461.039	0.853	0	PA_without_intermediate	2,0,0,3,0,0,1,0,0	test	ward_and_allport	2,0,0,3,1,0,0,0,0	89.0	29.0	0.853	0,0,0,0,0,0,1,2,3	to_board	s601
461.901	1.431	0	PA_without_intermediate	2,0,0,3,0,0,0,0,0	test	ward_and_allport	2,0,0,3,1,0,0,0,0	82.0	29.0	1.431	0,0,0,0,0,0,1,2,3	to_hand	s601
463.333	0.543	0	PA_without_intermediate	2,0,0,3,1,0,0,0,0	test	ward_and_allport	2,0,0,3,1,0,0,0,0	71.0	29.0	0.543	0,0,0,0,0,0,1,2,3	to_board	s601
463.888	1.0	0	PA_without_intermediate	n/a	test	ward_and_allport	n/a	-1.0	29.0	n/a	n/a	feedback	s601
464.888	1.272	0	PA_without_intermediate	n/a	test	ward_and_allport	n/a	-1.0	29.0	n/a	n/a	ITI	s601
471.172	12.275	1	PA_with_intermediate	0,0,0,1,2,0,0,0,0	test	ward_and_allport	2,3,0,1,0,0,0,0,0	71.0	30.0	12.275	0,0,0,1,2,3,0,0,0	to_hand	s601
483.449	0.282	0	PA_with_intermediate	0,0,0,1,2,0,3,0,0	test	ward_and_allport	2,3,0,1,0,0,0,0,0	82.0	30.0	0.282	0,0,0,1,2,3,0,0,0	to_board	s601
483.743	0.36	0	PA_with_intermediate	0,0,0,1,0,0,3,0,0	test	ward_and_allport	2,3,0,1,0,0,0,0,0	71.0	30.0	0.36	0,0,0,1,2,3,0,0,0	to_hand	s601
484.105	0.436	0	PA_with_intermediate	2,0,0,1,0,0,3,0,0	test	ward_and_allport	2,3,0,1,0,0,0,0,0	89.0	30.0	0.436	0,0,0,1,2,3,0,0,0	to_board	s601
484.555	0.459	0	PA_with_intermediate	2,0,0,1,0,0,0,0,0	test	ward_and_allport	2,3,0,1,0,0,0,0,0	82.0	30.0	0.459	0,0,0,1,2,3,0,0,0	to_hand	s601
485.015	0.323	0	PA_with_intermediate	2,3,0,1,0,0,0,0,0	test	ward_and_allport	2,3,0,1,0,0,0,0,0	89.0	30.0	0.323	0,0,0,1,2,3,0,0,0	to_board	s601
485.354	1.0	0	PA_with_intermediate	n/a	test	ward_and_allport	n/a	-1.0	30.0	n/a	n/a	feedback	s601
486.354	3.04	0	PA_with_intermediate	n/a	test	ward_and_allport	n/a	-1.0	30.0	n/a	n/a	ITI	s601
489.405	5.81	1	PA_with_intermediate	0,0,0,0,0,0,1,2,0	test	ward_and_allport	0,0,0,2,0,0,1,3,0	82.0	31.0	5.81	0,0,0,0,0,0,1,2,3	to_hand	s601
495.217	0.426	0	PA_with_intermediate	3,0,0,0,0,0,1,2,0	test	ward_and_allport	0,0,0,2,0,0,1,3,0	89.0	31.0	0.426	0,0,0,0,0,0,1,2,3	to_board	s601
495.652	0.629	0	PA_with_intermediate	3,0,0,0,0,0,1,0,0	test	ward_and_allport	0,0,0,2,0,0,1,3,0	82.0	31.0	0.629	0,0,0,0,0,0,1,2,3	to_hand	s601
496.282	0.354	0	PA_with_intermediate	3,0,0,2,0,0,1,0,0	test	ward_and_allport	0,0,0,2,0,0,1,3,0	71.0	31.0	0.354	0,0,0,0,0,0,1,2,3	to_board	s601
496.647	0.418	0	PA_with_intermediate	0,0,0,2,0,0,1,0,0	test	ward_and_allport	0,0,0,2,0,0,1,3,0	89.0	31.0	0.418	0,0,0,0,0,0,1,2,3	to_hand	s601
497.066	0.259	0	PA_with_intermediate	0,0,0,2,0,0,1,3,0	test	ward_and_allport	0,0,0,2,0,0,1,3,0	82.0	31.0	0.259	0,0,0,0,0,0,1,2,3	to_board	s601
497.341	1.0	0	PA_with_intermediate	n/a	test	ward_and_allport	n/a	-1.0	31.0	n/a	n/a	feedback	s601
498.341	1.272	0	PA_with_intermediate	n/a	test	ward_and_allport	n/a	-1.0	31.0	n/a	n/a	ITI	s601
499.622	5.816	1	PA_with_intermediate	0,0,0,0,0,0,1,2,0	test	ward_and_allport	2,3,0,0,0,0,1,0,0	82.0	32.0	5.816	0,0,0,0,0,0,1,2,3	to_hand	s601
505.439	0.297	0	PA_with_intermediate	0,0,0,3,0,0,1,2,0	test	ward_and_allport	2,3,0,0,0,0,1,0,0	71.0	32.0	0.297	0,0,0,0,0,0,1,2,3	to_board	s601
505.748	0.394	0	PA_with_intermediate	0,0,0,3,0,0,1,0,0	test	ward_and_allport	2,3,0,0,0,0,1,0,0	82.0	32.0	0.394	0,0,0,0,0,0,1,2,3	to_hand	s601
506.144	0.329	0	PA_with_intermediate	2,0,0,3,0,0,1,0,0	test	ward_and_allport	2,3,0,0,0,0,1,0,0	89.0	32.0	0.329	0,0,0,0,0,0,1,2,3	to_board	s601
506.485	0.393	0	PA_with_intermediate	2,0,0,0,0,0,1,0,0	test	ward_and_allport	2,3,0,0,0,0,1,0,0	71.0	32.0	0.393	0,0,0,0,0,0,1,2,3	to_hand	s601
506.88	0.324	0	PA_with_intermediate	2,3,0,0,0,0,1,0,0	test	ward_and_allport	2,3,0,0,0,0,1,0,0	89.0	32.0	0.324	0,0,0,0,0,0,1,2,3	to_board	s601
507.217	1.0	0	PA_with_intermediate	n/a	test	ward_and_allport	n/a	-1.0	32.0	n/a	n/a	feedback	s601
508.217	1.136	0	PA_with_intermediate	n/a	test	ward_and_allport	n/a	-1.0	32.0	n/a	n/a	ITI	s601
509.364	6.23	1	PA_with_intermediate	0,0,0,1,2,0,0,0,0	test	ward_and_allport	2,0,0,1,3,0,0,0,0	71.0	33.0	6.23	0,0,0,1,2,3,0,0,0	to_hand	s601
515.594	0.328	0	PA_with_intermediate	0,0,0,1,2,0,3,0,0	test	ward_and_allport	2,0,0,1,3,0,0,0,0	82.0	33.0	0.328	0,0,0,1,2,3,0,0,0	to_board	s601
515.933	0.355	0	PA_with_intermediate	0,0,0,1,0,0,3,0,0	test	ward_and_allport	2,0,0,1,3,0,0,0,0	71.0	33.0	0.355	0,0,0,1,2,3,0,0,0	to_hand	s601
516.289	0.309	0	PA_with_intermediate	2,0,0,1,0,0,3,0,0	test	ward_and_allport	2,0,0,1,3,0,0,0,0	89.0	33.0	0.309	0,0,0,1,2,3,0,0,0	to_board	s601
516.609	0.511	0	PA_with_intermediate	2,0,0,1,0,0,0,0,0	test	ward_and_allport	2,0,0,1,3,0,0,0,0	82.0	33.0	0.511	0,0,0,1,2,3,0,0,0	to_hand	s601
517.12	0.695	0	PA_with_intermediate	2,0,0,1,3,0,0,0,0	test	ward_and_allport	2,0,0,1,3,0,0,0,0	71.0	33.0	0.695	0,0,0,1,2,3,0,0,0	to_board	s601
517.827	1.0	0	PA_with_intermediate	n/a	test	ward_and_allport	n/a	-1.0	33.0	n/a	n/a	feedback	s601
518.827	1.0	0	PA_with_intermediate	n/a	test	ward_and_allport	n/a	-1.0	33.0	n/a	n/a	ITI	s601
519.839	3.269	1	PA_with_intermediate	0,0,0,1,2,0,0,0,0	test	ward_and_allport	2,0,0,1,3,0,0,0,0	71.0	34.0	3.269	0,0,0,1,2,3,0,0,0	to_hand	s601
523.109	0.331	0	PA_with_intermediate	0,0,0,1,2,0,3,0,0	test	ward_and_allport	2,0,0,1,3,0,0,0,0	82.0	34.0	0.331	0,0,0,1,2,3,0,0,0	to_board	s601
523.45	0.679	0	PA_with_intermediate	0,0,0,1,0,0,3,0,0	test	ward_and_allport	2,0,0,1,3,0,0,0,0	71.0	34.0	0.679	0,0,0,1,2,3,0,0,0	to_hand	s601
524.13	0.382	0	PA_with_intermediate	2,0,0,1,0,0,3,0,0	test	ward_and_allport	2,0,0,1,3,0,0,0,0	89.0	34.0	0.382	0,0,0,1,2,3,0,0,0	to_board	s601
524.523	0.548	0	PA_with_intermediate	2,0,0,1,0,0,0,0,0	test	ward_and_allport	2,0,0,1,3,0,0,0,0	82.0	34.0	0.548	0,0,0,1,2,3,0,0,0	to_hand	s601
525.072	0.298	0	PA_with_intermediate	2,0,0,1,3,0,0,0,0	test	ward_and_allport	2,0,0,1,3,0,0,0,0	71.0	34.0	0.298	0,0,0,1,2,3,0,0,0	to_board	s601
525.385	1.0	0	PA_with_intermediate	n/a	test	ward_and_allport	n/a	-1.0	34.0	n/a	n/a	feedback	s601
526.385	1.0	0	PA_with_intermediate	n/a	test	ward_and_allport	n/a	-1.0	34.0	n/a	n/a	ITI	s601
527.395	4.622	1	PA_without_intermediate	0,0,0,1,2,0,0,0,0	test	ward_and_allport	2,0,0,0,0,0,3,1,0	71.0	35.0	4.622	0,0,0,1,2,3,0,0,0	to_hand	s601
532.018	0.374	0	PA_without_intermediate	0,0,0,1,2,0,3,0,0	test	ward_and_allport	2,0,0,0,0,0,3,1,0	82.0	35.0	0.374	0,0,0,1,2,3,0,0,0	to_board	s601
532.4	0.331	0	PA_without_intermediate	0,0,0,1,0,0,3,0,0	test	ward_and_allport	2,0,0,0,0,0,3,1,0	71.0	35.0	0.331	0,0,0,1,2,3,0,0,0	to_hand	s601
532.732	0.308	0	PA_without_intermediate	2,0,0,1,0,0,3,0,0	test	ward_and_allport	2,0,0,0,0,0,3,1,0	89.0	35.0	0.308	0,0,0,1,2,3,0,0,0	to_board	s601
533.048	0.367	0	PA_without_intermediate	2,0,0,0,0,0,3,0,0	test	ward_and_allport	2,0,0,0,0,0,3,1,0	71.0	35.0	0.367	0,0,0,1,2,3,0,0,0	to_hand	s601
533.416	0.378	0	PA_without_intermediate	2,0,0,0,0,0,3,1,0	test	ward_and_allport	2,0,0,0,0,0,3,1,0	82.0	35.0	0.378	0,0,0,1,2,3,0,0,0	to_board	s601
533.809	1.0	0	PA_without_intermediate	n/a	test	ward_and_allport	n/a	-1.0	35.0	n/a	n/a	feedback	s601
534.809	1.408	0	PA_without_intermediate	n/a	test	ward_and_allport	n/a	-1.0	35.0	n/a	n/a	ITI	s601
536.227	7.414	1	PA_with_intermediate	1,2,0,0,0,0,0,0,0	test	ward_and_allport	1,0,0,2,3,0,0,0,0	89.0	36.0	7.414	1,2,3,0,0,0,0,0,0	to_hand	s601
543.642	0.322	0	PA_with_intermediate	1,2,0,0,0,0,3,0,0	test	ward_and_allport	1,0,0,2,3,0,0,0,0	82.0	36.0	0.322	1,2,3,0,0,0,0,0,0	to_board	s601
543.977	0.648	0	PA_with_intermediate	1,0,0,0,0,0,3,0,0	test	ward_and_allport	1,0,0,2,3,0,0,0,0	89.0	36.0	0.648	1,2,3,0,0,0,0,0,0	to_hand	s601
544.626	0.34	0	PA_with_intermediate	1,0,0,2,0,0,3,0,0	test	ward_and_allport	1,0,0,2,3,0,0,0,0	71.0	36.0	0.34	1,2,3,0,0,0,0,0,0	to_board	s601
544.976	0.461	0	PA_with_intermediate	1,0,0,2,0,0,0,0,0	test	ward_and_allport	1,0,0,2,3,0,0,0,0	82.0	36.0	0.461	1,2,3,0,0,0,0,0,0	to_hand	s601
545.438	0.285	0	PA_with_intermediate	1,0,0,2,3,0,0,0,0	test	ward_and_allport	1,0,0,2,3,0,0,0,0	71.0	36.0	0.285	1,2,3,0,0,0,0,0,0	to_board	s601
545.739	1.0	0	PA_with_intermediate	n/a	test	ward_and_allport	n/a	-1.0	36.0	n/a	n/a	feedback	s601
546.739	2.768	0	PA_with_intermediate	n/a	test	ward_and_allport	n/a	-1.0	36.0	n/a	n/a	ITI	s601
549.52	4.342	1	PA_with_intermediate	1,2,0,0,0,0,0,0,0	test	ward_and_allport	1,3,0,0,0,0,2,0,0	89.0	37.0	4.342	1,2,3,0,0,0,0,0,0	to_hand	s601
553.862	0.324	0	PA_with_intermediate	1,2,0,3,0,0,0,0,0	test	ward_and_allport	1,3,0,0,0,0,2,0,0	71.0	37.0	0.324	1,2,3,0,0,0,0,0,0	to_board	s601
554.193	0.667	0	PA_with_intermediate	1,0,0,3,0,0,0,0,0	test	ward_and_allport	1,3,0,0,0,0,2,0,0	89.0	37.0	0.667	1,2,3,0,0,0,0,0,0	to_hand	s601
554.862	0.291	0	PA_with_intermediate	1,0,0,3,0,0,2,0,0	test	ward_and_allport	1,3,0,0,0,0,2,0,0	82.0	37.0	0.291	1,2,3,0,0,0,0,0,0	to_board	s601
555.163	0.782	0	PA_with_intermediate	1,0,0,0,0,0,2,0,0	test	ward_and_allport	1,3,0,0,0,0,2,0,0	71.0	37.0	0.782	1,2,3,0,0,0,0,0,0	to_hand	s601
555.946	0.239	0	PA_with_intermediate	1,3,0,0,0,0,2,0,0	test	ward_and_allport	1,3,0,0,0,0,2,0,0	89.0	37.0	0.239	1,2,3,0,0,0,0,0,0	to_board	s601
556.198	1.0	0	PA_with_intermediate	n/a	test	ward_and_allport	n/a	-1.0	37.0	n/a	n/a	feedback	s601
557.198	1.68	0	PA_with_intermediate	n/a	test	ward_and_allport	n/a	-1.0	37.0	n/a	n/a	ITI	s601
558.891	3.864	1	PA_without_intermediate	0,0,0,1,2,0,0,0,0	test	ward_and_allport	3,1,0,0,0,0,2,0,0	71.0	38.0	3.864	0,0,0,1,2,3,0,0,0	to_hand	s601
562.756	0.324	0	PA_without_intermediate	3,0,0,1,2,0,0,0,0	test	ward_and_allport	3,1,0,0,0,0,2,0,0	89.0	38.0	0.324	0,0,0,1,2,3,0,0,0	to_board	s601
563.092	0.332	0	PA_without_intermediate	3,0,0,1,0,0,0,0,0	test	ward_and_allport	3,1,0,0,0,0,2,0,0	71.0	38.0	0.332	0,0,0,1,2,3,0,0,0	to_hand	s601
563.425	0.302	0	PA_without_intermediate	3,0,0,1,0,0,2,0,0	test	ward_and_allport	3,1,0,0,0,0,2,0,0	82.0	38.0	0.302	0,0,0,1,2,3,0,0,0	to_board	s601
563.739	0.308	0	PA_without_intermediate	3,0,0,0,0,0,2,0,0	test	ward_and_allport	3,1,0,0,0,0,2,0,0	71.0	38.0	0.308	0,0,0,1,2,3,0,0,0	to_hand	s601
564.048	0.276	0	PA_without_intermediate	3,1,0,0,0,0,2,0,0	test	ward_and_allport	3,1,0,0,0,0,2,0,0	89.0	38.0	0.276	0,0,0,1,2,3,0,0,0	to_board	s601
564.337	1.0	0	PA_without_intermediate	n/a	test	ward_and_allport	n/a	-1.0	38.0	n/a	n/a	feedback	s601
565.337	2.224	0	PA_without_intermediate	n/a	test	ward_and_allport	n/a	-1.0	38.0	n/a	n/a	ITI	s601
n/a	n/a	0	n/a	n/a	n/a	n/a	n/a	n/a	n/a	n/a	n/a	ITI	n/a
