onset	duration	planning	condition	current_position	exp_stage	experiment_exp_id	goal_state	key_press	problem_id	response_time	start_state	trial_id	worker_id
-66.888	0.0	0	n/a	n/a	n/a	ward_and_allport	n/a	32.0	n/a	29.099	n/a	instructions	s546
3.008	4.183	1	UA_with_intermediate	1,0,0,2,0,0,0,0,0	practice	ward_and_allport	1,2,3,0,0,0,0,0,0	71.0	0.0	4.183	1,0,0,2,3,0,0,0,0	to_hand	s546
7.192	1.468	0	UA_with_intermediate	1,0,0,2,0,0,3,0,0	practice	ward_and_allport	1,2,3,0,0,0,0,0,0	82.0	0.0	1.468	1,0,0,2,3,0,0,0,0	to_board	s546
8.663	0.419	0	UA_with_intermediate	1,0,0,0,0,0,3,0,0	practice	ward_and_allport	1,2,3,0,0,0,0,0,0	71.0	0.0	0.419	1,0,0,2,3,0,0,0,0	to_hand	s546
9.084	0.83	0	UA_with_intermediate	1,2,0,0,0,0,3,0,0	practice	ward_and_allport	1,2,3,0,0,0,0,0,0	89.0	0.0	0.83	1,0,0,2,3,0,0,0,0	to_board	s546
9.915	0.525	0	UA_with_intermediate	1,2,0,0,0,0,0,0,0	practice	ward_and_allport	1,2,3,0,0,0,0,0,0	82.0	0.0	0.525	1,0,0,2,3,0,0,0,0	to_hand	s546
10.441	0.677	0	UA_with_intermediate	1,2,3,0,0,0,0,0,0	practice	ward_and_allport	1,2,3,0,0,0,0,0,0	89.0	0.0	0.677	1,0,0,2,3,0,0,0,0	to_board	s546
11.121	1.0	0	UA_with_intermediate	n/a	practice	ward_and_allport	n/a	-1.0	0.0	n/a	n/a	feedback	s546
13.623	4.413	1	UA_with_intermediate	1,0,0,3,0,0,0,0,0	practice	ward_and_allport	1,3,2,0,0,0,0,0,0	89.0	1.0	4.413	1,2,0,3,0,0,0,0,0	to_hand	s546
18.036	1.101	0	UA_with_intermediate	1,0,0,3,0,0,2,0,0	practice	ward_and_allport	1,3,2,0,0,0,0,0,0	82.0	1.0	1.101	1,2,0,3,0,0,0,0,0	to_board	s546
19.138	0.61	0	UA_with_intermediate	1,0,0,0,0,0,2,0,0	practice	ward_and_allport	1,3,2,0,0,0,0,0,0	71.0	1.0	0.61	1,2,0,3,0,0,0,0,0	to_hand	s546
19.75	0.743	0	UA_with_intermediate	1,3,0,0,0,0,2,0,0	practice	ward_and_allport	1,3,2,0,0,0,0,0,0	89.0	1.0	0.743	1,2,0,3,0,0,0,0,0	to_board	s546
20.494	0.532	0	UA_with_intermediate	1,3,0,0,0,0,0,0,0	practice	ward_and_allport	1,3,2,0,0,0,0,0,0	82.0	1.0	0.532	1,2,0,3,0,0,0,0,0	to_hand	s546
21.026	0.442	0	UA_with_intermediate	1,3,2,0,0,0,0,0,0	practice	ward_and_allport	1,3,2,0,0,0,0,0,0	89.0	1.0	0.442	1,2,0,3,0,0,0,0,0	to_board	s546
21.471	1.0	0	UA_with_intermediate	n/a	practice	ward_and_allport	n/a	-1.0	1.0	n/a	n/a	feedback	s546
22.471	1.1	0	UA_with_intermediate	n/a	practice	ward_and_allport	n/a	-1.0	1.0	n/a	n/a	ITI	s546
23.572	4.095	1	UA_without_intermediate	0,0,0,1,2,0,0,0,0	practice	ward_and_allport	3,2,1,0,0,0,0,0,0	82.0	2.0	4.095	0,0,0,1,2,0,3,0,0	to_hand	s546
27.669	0.45	0	UA_without_intermediate	3,0,0,1,2,0,0,0,0	practice	ward_and_allport	3,2,1,0,0,0,0,0,0	89.0	2.0	0.45	0,0,0,1,2,0,3,0,0	to_board	s546
28.121	0.877	0	UA_without_intermediate	3,0,0,1,0,0,0,0,0	practice	ward_and_allport	3,2,1,0,0,0,0,0,0	71.0	2.0	0.877	0,0,0,1,2,0,3,0,0	to_hand	s546
28.999	0.492	0	UA_without_intermediate	3,2,0,1,0,0,0,0,0	practice	ward_and_allport	3,2,1,0,0,0,0,0,0	89.0	2.0	0.492	0,0,0,1,2,0,3,0,0	to_board	s546
29.493	0.909	0	UA_without_intermediate	3,2,0,0,0,0,0,0,0	practice	ward_and_allport	3,2,1,0,0,0,0,0,0	71.0	2.0	0.909	0,0,0,1,2,0,3,0,0	to_hand	s546
30.402	0.38	0	UA_without_intermediate	3,2,1,0,0,0,0,0,0	practice	ward_and_allport	3,2,1,0,0,0,0,0,0	89.0	2.0	0.38	0,0,0,1,2,0,3,0,0	to_board	s546
30.785	1.0	0	UA_without_intermediate	n/a	practice	ward_and_allport	n/a	-1.0	2.0	n/a	n/a	feedback	s546
31.785	1.2	0	UA_without_intermediate	n/a	practice	ward_and_allport	n/a	-1.0	2.0	n/a	n/a	ITI	s546
32.988	4.684	1	UA_without_intermediate	0,0,0,1,0,0,3,0,0	practice	ward_and_allport	2,3,1,0,0,0,0,0,0	71.0	3.0	4.684	0,0,0,1,2,0,3,0,0	to_hand	s546
37.673	0.515	0	UA_without_intermediate	2,0,0,1,0,0,3,0,0	practice	ward_and_allport	2,3,1,0,0,0,0,0,0	89.0	3.0	0.515	0,0,0,1,2,0,3,0,0	to_board	s546
38.19	0.732	0	UA_without_intermediate	2,0,0,1,0,0,0,0,0	practice	ward_and_allport	2,3,1,0,0,0,0,0,0	82.0	3.0	0.732	0,0,0,1,2,0,3,0,0	to_hand	s546
38.923	0.431	0	UA_without_intermediate	2,3,0,1,0,0,0,0,0	practice	ward_and_allport	2,3,1,0,0,0,0,0,0	89.0	3.0	0.431	0,0,0,1,2,0,3,0,0	to_board	s546
39.357	0.415	0	UA_without_intermediate	2,3,0,0,0,0,0,0,0	practice	ward_and_allport	2,3,1,0,0,0,0,0,0	71.0	3.0	0.415	0,0,0,1,2,0,3,0,0	to_hand	s546
39.773	0.364	0	UA_without_intermediate	2,3,1,0,0,0,0,0,0	practice	ward_and_allport	2,3,1,0,0,0,0,0,0	89.0	3.0	0.364	0,0,0,1,2,0,3,0,0	to_board	s546
40.14	1.0	0	UA_without_intermediate	n/a	practice	ward_and_allport	n/a	-1.0	3.0	n/a	n/a	feedback	s546
41.14	1.0	0	UA_without_intermediate	n/a	practice	ward_and_allport	n/a	-1.0	3.0	n/a	n/a	ITI	s546
44.147	5.591	1	PA_with_intermediate	1,2,0,0,0,0,0,0,0	test	ward_and_allport	1,0,0,2,3,0,0,0,0	89.0	0.0	5.591	1,2,3,0,0,0,0,0,0	to_hand	s546
49.738	0.782	0	PA_with_intermediate	1,2,0,0,0,0,3,0,0	test	ward_and_allport	1,0,0,2,3,0,0,0,0	82.0	0.0	0.782	1,2,3,0,0,0,0,0,0	to_board	s546
50.523	1.933	0	PA_with_intermediate	1,0,0,0,0,0,3,0,0	test	ward_and_allport	1,0,0,2,3,0,0,0,0	89.0	0.0	1.933	1,2,3,0,0,0,0,0,0	to_hand	s546
52.456	0.451	0	PA_with_intermediate	1,0,0,2,0,0,3,0,0	test	ward_and_allport	1,0,0,2,3,0,0,0,0	71.0	0.0	0.451	1,2,3,0,0,0,0,0,0	to_board	s546
52.909	1.374	0	PA_with_intermediate	1,0,0,2,0,0,0,0,0	test	ward_and_allport	1,0,0,2,3,0,0,0,0	82.0	0.0	1.374	1,2,3,0,0,0,0,0,0	to_hand	s546
54.284	0.772	0	PA_with_intermediate	1,0,0,2,3,0,0,0,0	test	ward_and_allport	1,0,0,2,3,0,0,0,0	71.0	0.0	0.772	1,2,3,0,0,0,0,0,0	to_board	s546
55.059	1.0	0	PA_with_intermediate	n/a	test	ward_and_allport	n/a	-1.0	0.0	n/a	n/a	feedback	s546
56.059	1.408	0	PA_with_intermediate	n/a	test	ward_and_allport	n/a	-1.0	0.0	n/a	n/a	ITI	s546
57.469	5.236	1	PA_without_intermediate	0,0,0,0,0,0,1,2,0	test	ward_and_allport	3,1,0,2,0,0,0,0,0	82.0	1.0	5.236	0,0,0,0,0,0,1,2,3	to_hand	s546
62.707	0.625	0	PA_without_intermediate	3,0,0,0,0,0,1,2,0	test	ward_and_allport	3,1,0,2,0,0,0,0,0	89.0	1.0	0.625	0,0,0,0,0,0,1,2,3	to_board	s546
63.334	1.523	0	PA_without_intermediate	3,0,0,0,0,0,1,0,0	test	ward_and_allport	3,1,0,2,0,0,0,0,0	82.0	1.0	1.523	0,0,0,0,0,0,1,2,3	to_hand	s546
64.858	0.678	0	PA_without_intermediate	3,0,0,2,0,0,1,0,0	test	ward_and_allport	3,1,0,2,0,0,0,0,0	71.0	1.0	0.678	0,0,0,0,0,0,1,2,3	to_board	s546
65.537	0.728	0	PA_without_intermediate	3,0,0,2,0,0,0,0,0	test	ward_and_allport	3,1,0,2,0,0,0,0,0	82.0	1.0	0.728	0,0,0,0,0,0,1,2,3	to_hand	s546
66.267	0.508	0	PA_without_intermediate	3,1,0,2,0,0,0,0,0	test	ward_and_allport	3,1,0,2,0,0,0,0,0	89.0	1.0	0.508	0,0,0,0,0,0,1,2,3	to_board	s546
66.778	1.0	0	PA_without_intermediate	n/a	test	ward_and_allport	n/a	-1.0	1.0	n/a	n/a	feedback	s546
67.778	1.68	0	PA_without_intermediate	n/a	test	ward_and_allport	n/a	-1.0	1.0	n/a	n/a	ITI	s546
69.46	4.961	1	PA_with_intermediate	0,0,0,0,0,0,1,2,0	test	ward_and_allport	2,3,0,0,0,0,1,0,0	82.0	2.0	4.961	0,0,0,0,0,0,1,2,3	to_hand	s546
74.421	0.631	0	PA_with_intermediate	0,0,0,3,0,0,1,2,0	test	ward_and_allport	2,3,0,0,0,0,1,0,0	71.0	2.0	0.631	0,0,0,0,0,0,1,2,3	to_board	s546
75.056	1.152	0	PA_with_intermediate	0,0,0,3,0,0,1,0,0	test	ward_and_allport	2,3,0,0,0,0,1,0,0	82.0	2.0	1.152	0,0,0,0,0,0,1,2,3	to_hand	s546
76.209	0.43	0	PA_with_intermediate	2,0,0,3,0,0,1,0,0	test	ward_and_allport	2,3,0,0,0,0,1,0,0	89.0	2.0	0.43	0,0,0,0,0,0,1,2,3	to_board	s546
76.64	0.415	0	PA_with_intermediate	2,0,0,0,0,0,1,0,0	test	ward_and_allport	2,3,0,0,0,0,1,0,0	71.0	2.0	0.415	0,0,0,0,0,0,1,2,3	to_hand	s546
77.056	0.397	0	PA_with_intermediate	2,3,0,0,0,0,1,0,0	test	ward_and_allport	2,3,0,0,0,0,1,0,0	89.0	2.0	0.397	0,0,0,0,0,0,1,2,3	to_board	s546
77.457	1.0	0	PA_with_intermediate	n/a	test	ward_and_allport	n/a	-1.0	2.0	n/a	n/a	feedback	s546
78.457	3.72	0	PA_with_intermediate	n/a	test	ward_and_allport	n/a	-1.0	2.0	n/a	n/a	ITI	s546
82.179	4.7	1	PA_without_intermediate	0,0,0,0,0,0,1,2,0	test	ward_and_allport	2,0,0,3,1,0,0,0,0	82.0	3.0	4.7	0,0,0,0,0,0,1,2,3	to_hand	s546
86.88	0.9	0	PA_without_intermediate	0,0,0,3,0,0,1,2,0	test	ward_and_allport	2,0,0,3,1,0,0,0,0	71.0	3.0	0.9	0,0,0,0,0,0,1,2,3	to_board	s546
87.781	1.098	0	PA_without_intermediate	0,0,0,3,0,0,1,0,0	test	ward_and_allport	2,0,0,3,1,0,0,0,0	82.0	3.0	1.098	0,0,0,0,0,0,1,2,3	to_hand	s546
88.881	0.473	0	PA_without_intermediate	2,0,0,3,0,0,1,0,0	test	ward_and_allport	2,0,0,3,1,0,0,0,0	89.0	3.0	0.473	0,0,0,0,0,0,1,2,3	to_board	s546
89.357	1.307	0	PA_without_intermediate	2,0,0,3,0,0,0,0,0	test	ward_and_allport	2,0,0,3,1,0,0,0,0	82.0	3.0	1.307	0,0,0,0,0,0,1,2,3	to_hand	s546
90.665	0.801	0	PA_without_intermediate	2,0,0,3,1,0,0,0,0	test	ward_and_allport	2,0,0,3,1,0,0,0,0	71.0	3.0	0.801	0,0,0,0,0,0,1,2,3	to_board	s546
91.47	1.0	0	PA_without_intermediate	n/a	test	ward_and_allport	n/a	-1.0	3.0	n/a	n/a	feedback	s546
92.47	2.224	0	PA_without_intermediate	n/a	test	ward_and_allport	n/a	-1.0	3.0	n/a	n/a	ITI	s546
94.697	4.715	1	PA_without_intermediate	0,0,0,1,2,0,0,0,0	test	ward_and_allport	2,0,0,0,0,0,3,1,0	71.0	4.0	4.715	0,0,0,1,2,3,0,0,0	to_hand	s546
99.414	0.656	0	PA_without_intermediate	0,0,0,1,2,0,3,0,0	test	ward_and_allport	2,0,0,0,0,0,3,1,0	82.0	4.0	0.656	0,0,0,1,2,3,0,0,0	to_board	s546
100.073	0.921	0	PA_without_intermediate	0,0,0,1,0,0,3,0,0	test	ward_and_allport	2,0,0,0,0,0,3,1,0	71.0	4.0	0.921	0,0,0,1,2,3,0,0,0	to_hand	s546
100.995	0.504	0	PA_without_intermediate	2,0,0,1,0,0,3,0,0	test	ward_and_allport	2,0,0,0,0,0,3,1,0	89.0	4.0	0.504	0,0,0,1,2,3,0,0,0	to_board	s546
101.501	0.739	0	PA_without_intermediate	2,0,0,0,0,0,3,0,0	test	ward_and_allport	2,0,0,0,0,0,3,1,0	71.0	4.0	0.739	0,0,0,1,2,3,0,0,0	to_hand	s546
102.241	0.453	0	PA_without_intermediate	2,0,0,0,0,0,3,1,0	test	ward_and_allport	2,0,0,0,0,0,3,1,0	82.0	4.0	0.453	0,0,0,1,2,3,0,0,0	to_board	s546
102.697	1.0	0	PA_without_intermediate	n/a	test	ward_and_allport	n/a	-1.0	4.0	n/a	n/a	feedback	s546
103.697	1.272	0	PA_without_intermediate	n/a	test	ward_and_allport	n/a	-1.0	4.0	n/a	n/a	ITI	s546
104.972	5.358	1	PA_with_intermediate	1,2,0,0,0,0,0,0,0	test	ward_and_allport	1,3,0,0,0,0,2,0,0	89.0	5.0	5.358	1,2,3,0,0,0,0,0,0	to_hand	s546
110.331	0.382	0	PA_with_intermediate	1,2,0,3,0,0,0,0,0	test	ward_and_allport	1,3,0,0,0,0,2,0,0	71.0	5.0	0.382	1,2,3,0,0,0,0,0,0	to_board	s546
110.716	0.842	0	PA_with_intermediate	1,0,0,3,0,0,0,0,0	test	ward_and_allport	1,3,0,0,0,0,2,0,0	89.0	5.0	0.842	1,2,3,0,0,0,0,0,0	to_hand	s546
111.559	0.591	0	PA_with_intermediate	1,0,0,3,0,0,2,0,0	test	ward_and_allport	1,3,0,0,0,0,2,0,0	82.0	5.0	0.591	1,2,3,0,0,0,0,0,0	to_board	s546
112.152	0.859	0	PA_with_intermediate	1,0,0,0,0,0,2,0,0	test	ward_and_allport	1,3,0,0,0,0,2,0,0	71.0	5.0	0.859	1,2,3,0,0,0,0,0,0	to_hand	s546
113.013	0.438	0	PA_with_intermediate	1,3,0,0,0,0,2,0,0	test	ward_and_allport	1,3,0,0,0,0,2,0,0	89.0	5.0	0.438	1,2,3,0,0,0,0,0,0	to_board	s546
113.455	1.0	0	PA_with_intermediate	n/a	test	ward_and_allport	n/a	-1.0	5.0	n/a	n/a	feedback	s546
114.455	2.632	0	PA_with_intermediate	n/a	test	ward_and_allport	n/a	-1.0	5.0	n/a	n/a	ITI	s546
117.09	6.924	1	PA_without_intermediate	1,2,0,0,0,0,0,0,0	test	ward_and_allport	0,0,0,3,1,0,2,0,0	89.0	6.0	6.924	1,2,3,0,0,0,0,0,0	to_hand	s546
124.014	0.935	0	PA_without_intermediate	1,2,0,3,0,0,0,0,0	test	ward_and_allport	0,0,0,3,1,0,2,0,0	71.0	6.0	0.935	1,2,3,0,0,0,0,0,0	to_board	s546
124.953	0.869	0	PA_without_intermediate	1,0,0,3,0,0,0,0,0	test	ward_and_allport	0,0,0,3,1,0,2,0,0	89.0	6.0	0.869	1,2,3,0,0,0,0,0,0	to_hand	s546
125.822	0.598	0	PA_without_intermediate	1,0,0,3,0,0,2,0,0	test	ward_and_allport	0,0,0,3,1,0,2,0,0	82.0	6.0	0.598	1,2,3,0,0,0,0,0,0	to_board	s546
126.422	0.777	0	PA_without_intermediate	0,0,0,3,0,0,2,0,0	test	ward_and_allport	0,0,0,3,1,0,2,0,0	89.0	6.0	0.777	1,2,3,0,0,0,0,0,0	to_hand	s546
127.201	0.428	0	PA_without_intermediate	0,0,0,3,1,0,2,0,0	test	ward_and_allport	0,0,0,3,1,0,2,0,0	71.0	6.0	0.428	1,2,3,0,0,0,0,0,0	to_board	s546
127.634	1.0	0	PA_without_intermediate	n/a	test	ward_and_allport	n/a	-1.0	6.0	n/a	n/a	feedback	s546
128.634	1.408	0	PA_without_intermediate	n/a	test	ward_and_allport	n/a	-1.0	6.0	n/a	n/a	ITI	s546
130.044	4.421	1	PA_without_intermediate	0,0,0,1,2,0,0,0,0	test	ward_and_allport	3,2,0,0,0,0,1,0,0	71.0	7.0	4.421	0,0,0,1,2,3,0,0,0	to_hand	s546
134.467	0.53	0	PA_without_intermediate	3,0,0,1,2,0,0,0,0	test	ward_and_allport	3,2,0,0,0,0,1,0,0	89.0	7.0	0.53	0,0,0,1,2,3,0,0,0	to_board	s546
134.999	0.808	0	PA_without_intermediate	3,0,0,1,0,0,0,0,0	test	ward_and_allport	3,2,0,0,0,0,1,0,0	71.0	7.0	0.808	0,0,0,1,2,3,0,0,0	to_hand	s546
135.809	0.368	0	PA_without_intermediate	3,2,0,1,0,0,0,0,0	test	ward_and_allport	3,2,0,0,0,0,1,0,0	89.0	7.0	0.368	0,0,0,1,2,3,0,0,0	to_board	s546
136.181	0.597	0	PA_without_intermediate	3,2,0,0,0,0,0,0,0	test	ward_and_allport	3,2,0,0,0,0,1,0,0	71.0	7.0	0.597	0,0,0,1,2,3,0,0,0	to_hand	s546
136.779	0.353	0	PA_without_intermediate	3,2,0,0,0,0,1,0,0	test	ward_and_allport	3,2,0,0,0,0,1,0,0	82.0	7.0	0.353	0,0,0,1,2,3,0,0,0	to_board	s546
137.136	1.0	0	PA_without_intermediate	n/a	test	ward_and_allport	n/a	-1.0	7.0	n/a	n/a	feedback	s546
138.136	1.0	0	PA_without_intermediate	n/a	test	ward_and_allport	n/a	-1.0	7.0	n/a	n/a	ITI	s546
139.139	9.023	1	PA_with_intermediate	0,0,0,0,0,0,1,2,0	test	ward_and_allport	0,0,0,2,3,0,1,0,0	82.0	8.0	9.023	0,0,0,0,0,0,1,2,3	to_hand	s546
148.163	0.662	0	PA_with_intermediate	3,0,0,0,0,0,1,2,0	test	ward_and_allport	0,0,0,2,3,0,1,0,0	89.0	8.0	0.662	0,0,0,0,0,0,1,2,3	to_board	s546
148.828	1.508	0	PA_with_intermediate	3,0,0,0,0,0,1,0,0	test	ward_and_allport	0,0,0,2,3,0,1,0,0	82.0	8.0	1.508	0,0,0,0,0,0,1,2,3	to_hand	s546
150.338	0.526	0	PA_with_intermediate	3,2,0,0,0,0,1,0,0	test	ward_and_allport	0,0,0,2,3,0,1,0,0	89.0	8.0	0.526	0,0,0,0,0,0,1,2,3	to_board	s546
150.867	2.196	0	PA_with_intermediate	3,0,0,0,0,0,1,0,0	test	ward_and_allport	0,0,0,2,3,0,1,0,0	89.0	8.0	2.196	0,0,0,0,0,0,1,2,3	to_hand	s546
153.063	0.415	0	PA_with_intermediate	3,0,0,2,0,0,1,0,0	test	ward_and_allport	0,0,0,2,3,0,1,0,0	71.0	8.0	0.415	0,0,0,0,0,0,1,2,3	to_board	s546
153.482	0.719	0	PA_with_intermediate	0,0,0,2,0,0,1,0,0	test	ward_and_allport	0,0,0,2,3,0,1,0,0	89.0	8.0	0.719	0,0,0,0,0,0,1,2,3	to_hand	s546
154.202	0.387	0	PA_with_intermediate	0,0,0,2,3,0,1,0,0	test	ward_and_allport	0,0,0,2,3,0,1,0,0	71.0	8.0	0.387	0,0,0,0,0,0,1,2,3	to_board	s546
154.593	1.0	0	PA_with_intermediate	n/a	test	ward_and_allport	n/a	-1.0	8.0	n/a	n/a	feedback	s546
155.593	1.0	0	PA_with_intermediate	n/a	test	ward_and_allport	n/a	-1.0	8.0	n/a	n/a	ITI	s546
156.596	9.288	1	PA_with_intermediate	1,2,0,0,0,0,0,0,0	test	ward_and_allport	1,3,0,2,0,0,0,0,0	89.0	9.0	9.288	1,2,3,0,0,0,0,0,0	to_hand	s546
165.885	0.538	0	PA_with_intermediate	1,2,0,0,0,0,3,0,0	test	ward_and_allport	1,3,0,2,0,0,0,0,0	82.0	9.0	0.538	1,2,3,0,0,0,0,0,0	to_board	s546
166.426	0.59	0	PA_with_intermediate	1,0,0,0,0,0,3,0,0	test	ward_and_allport	1,3,0,2,0,0,0,0,0	89.0	9.0	0.59	1,2,3,0,0,0,0,0,0	to_hand	s546
167.016	0.458	0	PA_with_intermediate	1,0,0,2,0,0,3,0,0	test	ward_and_allport	1,3,0,2,0,0,0,0,0	71.0	9.0	0.458	1,2,3,0,0,0,0,0,0	to_board	s546
167.478	1.178	0	PA_with_intermediate	1,0,0,2,0,0,0,0,0	test	ward_and_allport	1,3,0,2,0,0,0,0,0	82.0	9.0	1.178	1,2,3,0,0,0,0,0,0	to_hand	s546
168.657	0.38	0	PA_with_intermediate	1,3,0,2,0,0,0,0,0	test	ward_and_allport	1,3,0,2,0,0,0,0,0	89.0	9.0	0.38	1,2,3,0,0,0,0,0,0	to_board	s546
169.041	1.0	0	PA_with_intermediate	n/a	test	ward_and_allport	n/a	-1.0	9.0	n/a	n/a	feedback	s546
170.041	1.0	0	PA_with_intermediate	n/a	test	ward_and_allport	n/a	-1.0	9.0	n/a	n/a	ITI	s546
171.045	4.824	1	PA_with_intermediate	0,0,0,0,0,0,1,2,0	test	ward_and_allport	2,0,0,0,0,0,1,3,0	82.0	10.0	4.824	0,0,0,0,0,0,1,2,3	to_hand	s546
175.87	0.645	0	PA_with_intermediate	0,0,0,3,0,0,1,2,0	test	ward_and_allport	2,0,0,0,0,0,1,3,0	71.0	10.0	0.645	0,0,0,0,0,0,1,2,3	to_board	s546
176.519	0.853	0	PA_with_intermediate	0,0,0,3,0,0,1,0,0	test	ward_and_allport	2,0,0,0,0,0,1,3,0	82.0	10.0	0.853	0,0,0,0,0,0,1,2,3	to_hand	s546
177.374	0.41	0	PA_with_intermediate	2,0,0,3,0,0,1,0,0	test	ward_and_allport	2,0,0,0,0,0,1,3,0	89.0	10.0	0.41	0,0,0,0,0,0,1,2,3	to_board	s546
177.788	0.57	0	PA_with_intermediate	2,0,0,0,0,0,1,0,0	test	ward_and_allport	2,0,0,0,0,0,1,3,0	71.0	10.0	0.57	0,0,0,0,0,0,1,2,3	to_hand	s546
178.359	0.454	0	PA_with_intermediate	2,0,0,0,0,0,1,3,0	test	ward_and_allport	2,0,0,0,0,0,1,3,0	82.0	10.0	0.454	0,0,0,0,0,0,1,2,3	to_board	s546
178.819	1.0	0	PA_with_intermediate	n/a	test	ward_and_allport	n/a	-1.0	10.0	n/a	n/a	feedback	s546
179.819	1.408	0	PA_with_intermediate	n/a	test	ward_and_allport	n/a	-1.0	10.0	n/a	n/a	ITI	s546
181.232	5.173	1	PA_without_intermediate	1,2,0,0,0,0,0,0,0	test	ward_and_allport	0,0,0,1,0,0,3,2,0	89.0	11.0	5.173	1,2,3,0,0,0,0,0,0	to_hand	s546
186.405	0.532	0	PA_without_intermediate	1,2,0,0,0,0,3,0,0	test	ward_and_allport	0,0,0,1,0,0,3,2,0	82.0	11.0	0.532	1,2,3,0,0,0,0,0,0	to_board	s546
186.941	0.848	0	PA_without_intermediate	1,0,0,0,0,0,3,0,0	test	ward_and_allport	0,0,0,1,0,0,3,2,0	89.0	11.0	0.848	1,2,3,0,0,0,0,0,0	to_hand	s546
187.79	0.431	0	PA_without_intermediate	1,0,0,0,0,0,3,2,0	test	ward_and_allport	0,0,0,1,0,0,3,2,0	82.0	11.0	0.431	1,2,3,0,0,0,0,0,0	to_board	s546
188.225	0.708	0	PA_without_intermediate	0,0,0,0,0,0,3,2,0	test	ward_and_allport	0,0,0,1,0,0,3,2,0	89.0	11.0	0.708	1,2,3,0,0,0,0,0,0	to_hand	s546
188.934	0.274	0	PA_without_intermediate	0,0,0,1,0,0,3,2,0	test	ward_and_allport	0,0,0,1,0,0,3,2,0	71.0	11.0	0.274	1,2,3,0,0,0,0,0,0	to_board	s546
189.214	1.0	0	PA_without_intermediate	n/a	test	ward_and_allport	n/a	-1.0	11.0	n/a	n/a	feedback	s546
190.214	1.816	0	PA_without_intermediate	n/a	test	ward_and_allport	n/a	-1.0	11.0	n/a	n/a	ITI	s546
192.035	5.358	1	PA_with_intermediate	0,0,0,1,2,0,0,0,0	test	ward_and_allport	0,0,0,1,3,0,2,0,0	71.0	12.0	5.358	0,0,0,1,2,3,0,0,0	to_hand	s546
197.395	0.584	0	PA_with_intermediate	3,0,0,1,2,0,0,0,0	test	ward_and_allport	0,0,0,1,3,0,2,0,0	89.0	12.0	0.584	0,0,0,1,2,3,0,0,0	to_board	s546
197.983	0.458	0	PA_with_intermediate	3,0,0,1,0,0,0,0,0	test	ward_and_allport	0,0,0,1,3,0,2,0,0	71.0	12.0	0.458	0,0,0,1,2,3,0,0,0	to_hand	s546
198.442	0.5	0	PA_with_intermediate	3,0,0,1,0,0,2,0,0	test	ward_and_allport	0,0,0,1,3,0,2,0,0	82.0	12.0	0.5	0,0,0,1,2,3,0,0,0	to_board	s546
198.947	0.868	0	PA_with_intermediate	0,0,0,1,0,0,2,0,0	test	ward_and_allport	0,0,0,1,3,0,2,0,0	89.0	12.0	0.868	0,0,0,1,2,3,0,0,0	to_hand	s546
199.816	0.354	0	PA_with_intermediate	0,0,0,1,3,0,2,0,0	test	ward_and_allport	0,0,0,1,3,0,2,0,0	71.0	12.0	0.354	0,0,0,1,2,3,0,0,0	to_board	s546
200.175	1.0	0	PA_with_intermediate	n/a	test	ward_and_allport	n/a	-1.0	12.0	n/a	n/a	feedback	s546
201.175	3.176	0	PA_with_intermediate	n/a	test	ward_and_allport	n/a	-1.0	12.0	n/a	n/a	ITI	s546
204.356	7.579	1	PA_with_intermediate	1,2,0,0,0,0,0,0,0	test	ward_and_allport	1,0,0,0,0,0,2,3,0	89.0	13.0	7.579	1,2,3,0,0,0,0,0,0	to_hand	s546
211.937	0.526	0	PA_with_intermediate	1,2,0,3,0,0,0,0,0	test	ward_and_allport	1,0,0,0,0,0,2,3,0	71.0	13.0	0.526	1,2,3,0,0,0,0,0,0	to_board	s546
212.467	1.473	0	PA_with_intermediate	1,0,0,3,0,0,0,0,0	test	ward_and_allport	1,0,0,0,0,0,2,3,0	89.0	13.0	1.473	1,2,3,0,0,0,0,0,0	to_hand	s546
213.941	0.932	0	PA_with_intermediate	1,0,0,3,0,0,2,0,0	test	ward_and_allport	1,0,0,0,0,0,2,3,0	82.0	13.0	0.932	1,2,3,0,0,0,0,0,0	to_board	s546
214.877	1.586	0	PA_with_intermediate	1,0,0,0,0,0,2,0,0	test	ward_and_allport	1,0,0,0,0,0,2,3,0	71.0	13.0	1.586	1,2,3,0,0,0,0,0,0	to_hand	s546
216.464	0.856	0	PA_with_intermediate	1,0,0,0,0,0,2,3,0	test	ward_and_allport	1,0,0,0,0,0,2,3,0	82.0	13.0	0.856	1,2,3,0,0,0,0,0,0	to_board	s546
217.326	1.0	0	PA_with_intermediate	n/a	test	ward_and_allport	n/a	-1.0	13.0	n/a	n/a	feedback	s546
218.326	2.36	0	PA_with_intermediate	n/a	test	ward_and_allport	n/a	-1.0	13.0	n/a	n/a	ITI	s546
220.69	11.492	1	PA_with_intermediate	0,0,0,0,0,0,1,2,0	test	ward_and_allport	0,0,0,2,0,0,1,3,0	82.0	14.0	11.492	0,0,0,0,0,0,1,2,3	to_hand	s546
232.183	2.725	0	PA_with_intermediate	3,0,0,0,0,0,1,2,0	test	ward_and_allport	0,0,0,2,0,0,1,3,0	89.0	14.0	2.725	0,0,0,0,0,0,1,2,3	to_board	s546
234.913	0.724	0	PA_with_intermediate	3,0,0,0,0,0,1,0,0	test	ward_and_allport	0,0,0,2,0,0,1,3,0	82.0	14.0	0.724	0,0,0,0,0,0,1,2,3	to_hand	s546
235.637	0.463	0	PA_with_intermediate	3,0,0,2,0,0,1,0,0	test	ward_and_allport	0,0,0,2,0,0,1,3,0	71.0	14.0	0.463	0,0,0,0,0,0,1,2,3	to_board	s546
236.103	1.115	0	PA_with_intermediate	0,0,0,2,0,0,1,0,0	test	ward_and_allport	0,0,0,2,0,0,1,3,0	89.0	14.0	1.115	0,0,0,0,0,0,1,2,3	to_hand	s546
237.22	0.437	0	PA_with_intermediate	0,0,0,2,0,0,1,3,0	test	ward_and_allport	0,0,0,2,0,0,1,3,0	82.0	14.0	0.437	0,0,0,0,0,0,1,2,3	to_board	s546
237.662	1.0	0	PA_with_intermediate	n/a	test	ward_and_allport	n/a	-1.0	14.0	n/a	n/a	feedback	s546
238.662	1.0	0	PA_with_intermediate	n/a	test	ward_and_allport	n/a	-1.0	14.0	n/a	n/a	ITI	s546
244.668	8.644	1	PA_without_intermediate	0,0,0,0,0,0,1,2,0	test	ward_and_allport	3,1,0,2,0,0,0,0,0	82.0	15.0	8.644	0,0,0,0,0,0,1,2,3	to_hand	s546
253.313	0.39	0	PA_without_intermediate	3,0,0,0,0,0,1,2,0	test	ward_and_allport	3,1,0,2,0,0,0,0,0	89.0	15.0	0.39	0,0,0,0,0,0,1,2,3	to_board	s546
253.708	0.996	0	PA_without_intermediate	3,0,0,0,0,0,1,0,0	test	ward_and_allport	3,1,0,2,0,0,0,0,0	82.0	15.0	0.996	0,0,0,0,0,0,1,2,3	to_hand	s546
254.705	0.426	0	PA_without_intermediate	3,0,0,2,0,0,1,0,0	test	ward_and_allport	3,1,0,2,0,0,0,0,0	71.0	15.0	0.426	0,0,0,0,0,0,1,2,3	to_board	s546
255.136	0.585	0	PA_without_intermediate	3,0,0,2,0,0,0,0,0	test	ward_and_allport	3,1,0,2,0,0,0,0,0	82.0	15.0	0.585	0,0,0,0,0,0,1,2,3	to_hand	s546
255.722	0.24	0	PA_without_intermediate	3,1,0,2,0,0,0,0,0	test	ward_and_allport	3,1,0,2,0,0,0,0,0	89.0	15.0	0.24	0,0,0,0,0,0,1,2,3	to_board	s546
255.967	1.0	0	PA_without_intermediate	n/a	test	ward_and_allport	n/a	-1.0	15.0	n/a	n/a	feedback	s546
256.967	1.408	0	PA_without_intermediate	n/a	test	ward_and_allport	n/a	-1.0	15.0	n/a	n/a	ITI	s546
258.379	6.206	1	PA_with_intermediate	0,0,0,1,2,0,0,0,0	test	ward_and_allport	0,0,0,1,0,0,2,3,0	71.0	16.0	6.206	0,0,0,1,2,3,0,0,0	to_hand	s546
264.587	0.365	0	PA_with_intermediate	3,0,0,1,2,0,0,0,0	test	ward_and_allport	0,0,0,1,0,0,2,3,0	89.0	16.0	0.365	0,0,0,1,2,3,0,0,0	to_board	s546
264.956	0.61	0	PA_with_intermediate	3,0,0,1,0,0,0,0,0	test	ward_and_allport	0,0,0,1,0,0,2,3,0	71.0	16.0	0.61	0,0,0,1,2,3,0,0,0	to_hand	s546
265.567	0.372	0	PA_with_intermediate	3,0,0,1,0,0,2,0,0	test	ward_and_allport	0,0,0,1,0,0,2,3,0	82.0	16.0	0.372	0,0,0,1,2,3,0,0,0	to_board	s546
265.944	0.888	0	PA_with_intermediate	0,0,0,1,0,0,2,0,0	test	ward_and_allport	0,0,0,1,0,0,2,3,0	89.0	16.0	0.888	0,0,0,1,2,3,0,0,0	to_hand	s546
266.832	0.41	0	PA_with_intermediate	0,0,0,1,0,0,2,3,0	test	ward_and_allport	0,0,0,1,0,0,2,3,0	82.0	16.0	0.41	0,0,0,1,2,3,0,0,0	to_board	s546
267.247	1.0	0	PA_with_intermediate	n/a	test	ward_and_allport	n/a	-1.0	16.0	n/a	n/a	feedback	s546
268.247	1.816	0	PA_with_intermediate	n/a	test	ward_and_allport	n/a	-1.0	16.0	n/a	n/a	ITI	s546
270.067	8.074	1	PA_without_intermediate	1,2,0,0,0,0,0,0,0	test	ward_and_allport	0,0,0,3,2,0,1,0,0	89.0	17.0	8.074	1,2,3,0,0,0,0,0,0	to_hand	s546
278.143	0.257	0	PA_without_intermediate	1,2,0,3,0,0,0,0,0	test	ward_and_allport	0,0,0,3,2,0,1,0,0	71.0	17.0	0.257	1,2,3,0,0,0,0,0,0	to_board	s546
278.405	1.165	0	PA_without_intermediate	1,0,0,3,0,0,0,0,0	test	ward_and_allport	0,0,0,3,2,0,1,0,0	89.0	17.0	1.165	1,2,3,0,0,0,0,0,0	to_hand	s546
279.571	0.281	0	PA_without_intermediate	1,0,0,3,2,0,0,0,0	test	ward_and_allport	0,0,0,3,2,0,1,0,0	71.0	17.0	0.281	1,2,3,0,0,0,0,0,0	to_board	s546
279.857	0.607	0	PA_without_intermediate	0,0,0,3,2,0,0,0,0	test	ward_and_allport	0,0,0,3,2,0,1,0,0	89.0	17.0	0.607	1,2,3,0,0,0,0,0,0	to_hand	s546
280.464	0.249	0	PA_without_intermediate	0,0,0,3,2,0,1,0,0	test	ward_and_allport	0,0,0,3,2,0,1,0,0	82.0	17.0	0.249	1,2,3,0,0,0,0,0,0	to_board	s546
280.72	1.0	0	PA_without_intermediate	n/a	test	ward_and_allport	n/a	-1.0	17.0	n/a	n/a	feedback	s546
281.72	2.088	0	PA_without_intermediate	n/a	test	ward_and_allport	n/a	-1.0	17.0	n/a	n/a	ITI	s546
283.812	6.368	1	PA_without_intermediate	1,2,0,0,0,0,0,0,0	test	ward_and_allport	0,0,0,3,2,0,1,0,0	89.0	18.0	6.368	1,2,3,0,0,0,0,0,0	to_hand	s546
290.181	0.351	0	PA_without_intermediate	1,2,0,3,0,0,0,0,0	test	ward_and_allport	0,0,0,3,2,0,1,0,0	71.0	18.0	0.351	1,2,3,0,0,0,0,0,0	to_board	s546
290.537	0.7	0	PA_without_intermediate	1,0,0,3,0,0,0,0,0	test	ward_and_allport	0,0,0,3,2,0,1,0,0	89.0	18.0	0.7	1,2,3,0,0,0,0,0,0	to_hand	s546
291.238	0.436	0	PA_without_intermediate	1,0,0,3,2,0,0,0,0	test	ward_and_allport	0,0,0,3,2,0,1,0,0	71.0	18.0	0.436	1,2,3,0,0,0,0,0,0	to_board	s546
291.679	0.644	0	PA_without_intermediate	0,0,0,3,2,0,0,0,0	test	ward_and_allport	0,0,0,3,2,0,1,0,0	89.0	18.0	0.644	1,2,3,0,0,0,0,0,0	to_hand	s546
292.324	0.345	0	PA_without_intermediate	0,0,0,3,2,0,1,0,0	test	ward_and_allport	0,0,0,3,2,0,1,0,0	82.0	18.0	0.345	1,2,3,0,0,0,0,0,0	to_board	s546
292.675	1.0	0	PA_without_intermediate	n/a	test	ward_and_allport	n/a	-1.0	18.0	n/a	n/a	feedback	s546
293.675	1.136	0	PA_without_intermediate	n/a	test	ward_and_allport	n/a	-1.0	18.0	n/a	n/a	ITI	s546
294.815	4.446	1	PA_without_intermediate	0,0,0,1,2,0,0,0,0	test	ward_and_allport	3,2,0,0,0,0,1,0,0	71.0	19.0	4.446	0,0,0,1,2,3,0,0,0	to_hand	s546
299.262	0.406	0	PA_without_intermediate	3,0,0,1,2,0,0,0,0	test	ward_and_allport	3,2,0,0,0,0,1,0,0	89.0	19.0	0.406	0,0,0,1,2,3,0,0,0	to_board	s546
299.672	0.332	0	PA_without_intermediate	3,0,0,1,0,0,0,0,0	test	ward_and_allport	3,2,0,0,0,0,1,0,0	71.0	19.0	0.332	0,0,0,1,2,3,0,0,0	to_hand	s546
300.005	0.296	0	PA_without_intermediate	3,2,0,1,0,0,0,0,0	test	ward_and_allport	3,2,0,0,0,0,1,0,0	89.0	19.0	0.296	0,0,0,1,2,3,0,0,0	to_board	s546
300.307	0.716	0	PA_without_intermediate	3,2,0,0,0,0,0,0,0	test	ward_and_allport	3,2,0,0,0,0,1,0,0	71.0	19.0	0.716	0,0,0,1,2,3,0,0,0	to_hand	s546
301.024	0.262	0	PA_without_intermediate	3,2,0,0,0,0,1,0,0	test	ward_and_allport	3,2,0,0,0,0,1,0,0	82.0	19.0	0.262	0,0,0,1,2,3,0,0,0	to_board	s546
301.292	1.0	0	PA_without_intermediate	n/a	test	ward_and_allport	n/a	-1.0	19.0	n/a	n/a	feedback	s546
302.292	6.168	0	PA_without_intermediate	n/a	test	ward_and_allport	n/a	-1.0	19.0	n/a	n/a	ITI	s546
308.464	5.27	1	PA_without_intermediate	0,0,0,1,2,0,0,0,0	test	ward_and_allport	1,0,0,0,0,0,3,2,0	71.0	20.0	5.27	0,0,0,1,2,3,0,0,0	to_hand	s546
313.736	0.38	0	PA_without_intermediate	0,0,0,1,2,0,3,0,0	test	ward_and_allport	1,0,0,0,0,0,3,2,0	82.0	20.0	0.38	0,0,0,1,2,3,0,0,0	to_board	s546
314.121	0.383	0	PA_without_intermediate	0,0,0,1,0,0,3,0,0	test	ward_and_allport	1,0,0,0,0,0,3,2,0	71.0	20.0	0.383	0,0,0,1,2,3,0,0,0	to_hand	s546
314.504	0.361	0	PA_without_intermediate	0,0,0,1,0,0,3,2,0	test	ward_and_allport	1,0,0,0,0,0,3,2,0	82.0	20.0	0.361	0,0,0,1,2,3,0,0,0	to_board	s546
314.871	0.403	0	PA_without_intermediate	0,0,0,0,0,0,3,2,0	test	ward_and_allport	1,0,0,0,0,0,3,2,0	71.0	20.0	0.403	0,0,0,1,2,3,0,0,0	to_hand	s546
315.275	0.264	0	PA_without_intermediate	1,0,0,0,0,0,3,2,0	test	ward_and_allport	1,0,0,0,0,0,3,2,0	89.0	20.0	0.264	0,0,0,1,2,3,0,0,0	to_board	s546
315.545	1.0	0	PA_without_intermediate	n/a	test	ward_and_allport	n/a	-1.0	20.0	n/a	n/a	feedback	s546
316.545	1.816	0	PA_without_intermediate	n/a	test	ward_and_allport	n/a	-1.0	20.0	n/a	n/a	ITI	s546
318.366	8.063	1	PA_with_intermediate	1,2,0,0,0,0,0,0,0	test	ward_and_allport	1,0,0,2,3,0,0,0,0	89.0	21.0	8.063	1,2,3,0,0,0,0,0,0	to_hand	s546
326.43	0.587	0	PA_with_intermediate	1,2,0,0,0,0,3,0,0	test	ward_and_allport	1,0,0,2,3,0,0,0,0	82.0	21.0	0.587	1,2,3,0,0,0,0,0,0	to_board	s546
327.021	0.631	0	PA_with_intermediate	1,0,0,0,0,0,3,0,0	test	ward_and_allport	1,0,0,2,3,0,0,0,0	89.0	21.0	0.631	1,2,3,0,0,0,0,0,0	to_hand	s546
327.653	0.645	0	PA_with_intermediate	1,0,0,2,0,0,3,0,0	test	ward_and_allport	1,0,0,2,3,0,0,0,0	71.0	21.0	0.645	1,2,3,0,0,0,0,0,0	to_board	s546
328.304	0.581	0	PA_with_intermediate	1,0,0,2,0,0,0,0,0	test	ward_and_allport	1,0,0,2,3,0,0,0,0	82.0	21.0	0.581	1,2,3,0,0,0,0,0,0	to_hand	s546
328.885	0.72	0	PA_with_intermediate	1,0,0,2,3,0,0,0,0	test	ward_and_allport	1,0,0,2,3,0,0,0,0	71.0	21.0	0.72	1,2,3,0,0,0,0,0,0	to_board	s546
329.612	1.0	0	PA_with_intermediate	n/a	test	ward_and_allport	n/a	-1.0	21.0	n/a	n/a	feedback	s546
330.612	1.952	0	PA_with_intermediate	n/a	test	ward_and_allport	n/a	-1.0	21.0	n/a	n/a	ITI	s546
332.57	4.191	1	PA_with_intermediate	0,0,0,1,2,0,0,0,0	test	ward_and_allport	0,0,0,1,3,0,2,0,0	71.0	22.0	4.191	0,0,0,1,2,3,0,0,0	to_hand	s546
336.761	0.292	0	PA_with_intermediate	3,0,0,1,2,0,0,0,0	test	ward_and_allport	0,0,0,1,3,0,2,0,0	89.0	22.0	0.292	0,0,0,1,2,3,0,0,0	to_board	s546
337.059	0.47	0	PA_with_intermediate	3,0,0,1,0,0,0,0,0	test	ward_and_allport	0,0,0,1,3,0,2,0,0	71.0	22.0	0.47	0,0,0,1,2,3,0,0,0	to_hand	s546
337.53	0.47	0	PA_with_intermediate	3,0,0,1,0,0,2,0,0	test	ward_and_allport	0,0,0,1,3,0,2,0,0	82.0	22.0	0.47	0,0,0,1,2,3,0,0,0	to_board	s546
338.006	0.447	0	PA_with_intermediate	0,0,0,1,0,0,2,0,0	test	ward_and_allport	0,0,0,1,3,0,2,0,0	89.0	22.0	0.447	0,0,0,1,2,3,0,0,0	to_hand	s546
338.454	0.456	0	PA_with_intermediate	0,0,0,1,3,0,2,0,0	test	ward_and_allport	0,0,0,1,3,0,2,0,0	71.0	22.0	0.456	0,0,0,1,2,3,0,0,0	to_board	s546
338.917	1.0	0	PA_with_intermediate	n/a	test	ward_and_allport	n/a	-1.0	22.0	n/a	n/a	feedback	s546
339.917	1.136	0	PA_with_intermediate	n/a	test	ward_and_allport	n/a	-1.0	22.0	n/a	n/a	ITI	s546
341.059	3.725	1	PA_without_intermediate	0,0,0,1,2,0,0,0,0	test	ward_and_allport	2,0,0,0,0,0,3,1,0	71.0	23.0	3.725	0,0,0,1,2,3,0,0,0	to_hand	s546
344.785	0.41	0	PA_without_intermediate	0,0,0,1,2,0,3,0,0	test	ward_and_allport	2,0,0,0,0,0,3,1,0	82.0	23.0	0.41	0,0,0,1,2,3,0,0,0	to_board	s546
345.201	0.392	0	PA_without_intermediate	0,0,0,1,0,0,3,0,0	test	ward_and_allport	2,0,0,0,0,0,3,1,0	71.0	23.0	0.392	0,0,0,1,2,3,0,0,0	to_hand	s546
345.594	0.316	0	PA_without_intermediate	2,0,0,1,0,0,3,0,0	test	ward_and_allport	2,0,0,0,0,0,3,1,0	89.0	23.0	0.316	0,0,0,1,2,3,0,0,0	to_board	s546
345.915	0.306	0	PA_without_intermediate	2,0,0,0,0,0,3,0,0	test	ward_and_allport	2,0,0,0,0,0,3,1,0	71.0	23.0	0.306	0,0,0,1,2,3,0,0,0	to_hand	s546
346.223	0.35	0	PA_without_intermediate	2,0,0,0,0,0,3,1,0	test	ward_and_allport	2,0,0,0,0,0,3,1,0	82.0	23.0	0.35	0,0,0,1,2,3,0,0,0	to_board	s546
346.581	1.0	0	PA_without_intermediate	n/a	test	ward_and_allport	n/a	-1.0	23.0	n/a	n/a	feedback	s546
347.581	1.68	0	PA_without_intermediate	n/a	test	ward_and_allport	n/a	-1.0	23.0	n/a	n/a	ITI	s546
349.266	4.728	1	PA_without_intermediate	0,0,0,0,0,0,1,2,0	test	ward_and_allport	1,0,0,3,2,0,0,0,0	82.0	24.0	4.728	0,0,0,0,0,0,1,2,3	to_hand	s546
353.996	0.402	0	PA_without_intermediate	0,0,0,3,0,0,1,2,0	test	ward_and_allport	1,0,0,3,2,0,0,0,0	71.0	24.0	0.402	0,0,0,0,0,0,1,2,3	to_board	s546
354.403	0.681	0	PA_without_intermediate	0,0,0,3,0,0,1,0,0	test	ward_and_allport	1,0,0,3,2,0,0,0,0	82.0	24.0	0.681	0,0,0,0,0,0,1,2,3	to_hand	s546
355.086	0.363	0	PA_without_intermediate	0,0,0,3,2,0,1,0,0	test	ward_and_allport	1,0,0,3,2,0,0,0,0	71.0	24.0	0.363	0,0,0,0,0,0,1,2,3	to_board	s546
355.455	0.88	0	PA_without_intermediate	0,0,0,3,2,0,0,0,0	test	ward_and_allport	1,0,0,3,2,0,0,0,0	82.0	24.0	0.88	0,0,0,0,0,0,1,2,3	to_hand	s546
356.335	0.304	0	PA_without_intermediate	1,0,0,3,2,0,0,0,0	test	ward_and_allport	1,0,0,3,2,0,0,0,0	89.0	24.0	0.304	0,0,0,0,0,0,1,2,3	to_board	s546
356.647	1.0	0	PA_without_intermediate	n/a	test	ward_and_allport	n/a	-1.0	24.0	n/a	n/a	feedback	s546
357.647	2.088	0	PA_without_intermediate	n/a	test	ward_and_allport	n/a	-1.0	24.0	n/a	n/a	ITI	s546
359.743	5.789	1	PA_with_intermediate	0,0,0,1,2,0,0,0,0	test	ward_and_allport	2,0,0,1,3,0,0,0,0	71.0	25.0	5.789	0,0,0,1,2,3,0,0,0	to_hand	s546
365.533	0.391	0	PA_with_intermediate	0,0,0,1,2,0,3,0,0	test	ward_and_allport	2,0,0,1,3,0,0,0,0	82.0	25.0	0.391	0,0,0,1,2,3,0,0,0	to_board	s546
365.93	0.38	0	PA_with_intermediate	0,0,0,1,0,0,3,0,0	test	ward_and_allport	2,0,0,1,3,0,0,0,0	71.0	25.0	0.38	0,0,0,1,2,3,0,0,0	to_hand	s546
366.311	0.315	0	PA_with_intermediate	2,0,0,1,0,0,3,0,0	test	ward_and_allport	2,0,0,1,3,0,0,0,0	89.0	25.0	0.315	0,0,0,1,2,3,0,0,0	to_board	s546
366.633	0.481	0	PA_with_intermediate	2,0,0,1,0,0,0,0,0	test	ward_and_allport	2,0,0,1,3,0,0,0,0	82.0	25.0	0.481	0,0,0,1,2,3,0,0,0	to_hand	s546
367.116	0.384	0	PA_with_intermediate	2,0,0,1,3,0,0,0,0	test	ward_and_allport	2,0,0,1,3,0,0,0,0	71.0	25.0	0.384	0,0,0,1,2,3,0,0,0	to_board	s546
367.507	1.0	0	PA_with_intermediate	n/a	test	ward_and_allport	n/a	-1.0	25.0	n/a	n/a	feedback	s546
368.507	1.0	0	PA_with_intermediate	n/a	test	ward_and_allport	n/a	-1.0	25.0	n/a	n/a	ITI	s546
369.513	8.326	1	PA_without_intermediate	0,0,0,0,0,0,1,2,0	test	ward_and_allport	2,0,0,3,1,0,0,0,0	82.0	26.0	8.326	0,0,0,0,0,0,1,2,3	to_hand	s546
377.84	0.29	0	PA_without_intermediate	0,0,0,3,0,0,1,2,0	test	ward_and_allport	2,0,0,3,1,0,0,0,0	71.0	26.0	0.29	0,0,0,0,0,0,1,2,3	to_board	s546
378.136	0.898	0	PA_without_intermediate	0,0,0,3,0,0,1,0,0	test	ward_and_allport	2,0,0,3,1,0,0,0,0	82.0	26.0	0.898	0,0,0,0,0,0,1,2,3	to_hand	s546
379.035	0.327	0	PA_without_intermediate	2,0,0,3,0,0,1,0,0	test	ward_and_allport	2,0,0,3,1,0,0,0,0	89.0	26.0	0.327	0,0,0,0,0,0,1,2,3	to_board	s546
379.368	0.848	0	PA_without_intermediate	2,0,0,3,0,0,0,0,0	test	ward_and_allport	2,0,0,3,1,0,0,0,0	82.0	26.0	0.848	0,0,0,0,0,0,1,2,3	to_hand	s546
380.218	0.329	0	PA_without_intermediate	2,0,0,3,1,0,0,0,0	test	ward_and_allport	2,0,0,3,1,0,0,0,0	71.0	26.0	0.329	0,0,0,0,0,0,1,2,3	to_board	s546
380.555	1.0	0	PA_without_intermediate	n/a	test	ward_and_allport	n/a	-1.0	26.0	n/a	n/a	feedback	s546
381.555	1.0	0	PA_without_intermediate	n/a	test	ward_and_allport	n/a	-1.0	26.0	n/a	n/a	ITI	s546
382.561	3.871	1	PA_without_intermediate	1,2,0,0,0,0,0,0,0	test	ward_and_allport	0,0,0,1,0,0,3,2,0	89.0	27.0	3.871	1,2,3,0,0,0,0,0,0	to_hand	s546
386.434	0.355	0	PA_without_intermediate	1,2,0,0,0,0,3,0,0	test	ward_and_allport	0,0,0,1,0,0,3,2,0	82.0	27.0	0.355	1,2,3,0,0,0,0,0,0	to_board	s546
386.796	1.892	0	PA_without_intermediate	1,0,0,0,0,0,3,0,0	test	ward_and_allport	0,0,0,1,0,0,3,2,0	89.0	27.0	1.892	1,2,3,0,0,0,0,0,0	to_hand	s546
388.689	0.406	0	PA_without_intermediate	1,0,0,0,0,0,3,2,0	test	ward_and_allport	0,0,0,1,0,0,3,2,0	82.0	27.0	0.406	1,2,3,0,0,0,0,0,0	to_board	s546
389.102	1.067	0	PA_without_intermediate	0,0,0,0,0,0,3,2,0	test	ward_and_allport	0,0,0,1,0,0,3,2,0	89.0	27.0	1.067	1,2,3,0,0,0,0,0,0	to_hand	s546
390.169	0.619	0	PA_without_intermediate	0,0,0,1,0,0,3,2,0	test	ward_and_allport	0,0,0,1,0,0,3,2,0	71.0	27.0	0.619	1,2,3,0,0,0,0,0,0	to_board	s546
390.796	1.0	0	PA_without_intermediate	n/a	test	ward_and_allport	n/a	-1.0	27.0	n/a	n/a	feedback	s546
391.796	1.0	0	PA_without_intermediate	n/a	test	ward_and_allport	n/a	-1.0	27.0	n/a	n/a	ITI	s546
392.804	3.96	1	PA_with_intermediate	0,0,0,0,0,0,1,2,0	test	ward_and_allport	2,3,0,0,0,0,1,0,0	82.0	28.0	3.96	0,0,0,0,0,0,1,2,3	to_hand	s546
396.765	0.365	0	PA_with_intermediate	0,0,0,3,0,0,1,2,0	test	ward_and_allport	2,3,0,0,0,0,1,0,0	71.0	28.0	0.365	0,0,0,0,0,0,1,2,3	to_board	s546
397.137	0.438	0	PA_with_intermediate	0,0,0,3,0,0,1,0,0	test	ward_and_allport	2,3,0,0,0,0,1,0,0	82.0	28.0	0.438	0,0,0,0,0,0,1,2,3	to_hand	s546
397.576	0.332	0	PA_with_intermediate	2,0,0,3,0,0,1,0,0	test	ward_and_allport	2,3,0,0,0,0,1,0,0	89.0	28.0	0.332	0,0,0,0,0,0,1,2,3	to_board	s546
397.915	0.672	0	PA_with_intermediate	2,0,0,0,0,0,1,0,0	test	ward_and_allport	2,3,0,0,0,0,1,0,0	71.0	28.0	0.672	0,0,0,0,0,0,1,2,3	to_hand	s546
398.588	0.348	0	PA_with_intermediate	2,3,0,0,0,0,1,0,0	test	ward_and_allport	2,3,0,0,0,0,1,0,0	89.0	28.0	0.348	0,0,0,0,0,0,1,2,3	to_board	s546
398.945	1.0	0	PA_with_intermediate	n/a	test	ward_and_allport	n/a	-1.0	28.0	n/a	n/a	feedback	s546
399.945	1.544	0	PA_with_intermediate	n/a	test	ward_and_allport	n/a	-1.0	28.0	n/a	n/a	ITI	s546
401.495	4.948	1	PA_without_intermediate	1,2,0,0,0,0,0,0,0	test	ward_and_allport	0,0,0,2,0,0,3,1,0	89.0	29.0	4.948	1,2,3,0,0,0,0,0,0	to_hand	s546
406.443	0.362	0	PA_without_intermediate	1,2,0,0,0,0,3,0,0	test	ward_and_allport	0,0,0,2,0,0,3,1,0	82.0	29.0	0.362	1,2,3,0,0,0,0,0,0	to_board	s546
406.812	0.658	0	PA_without_intermediate	1,0,0,0,0,0,3,0,0	test	ward_and_allport	0,0,0,2,0,0,3,1,0	89.0	29.0	0.658	1,2,3,0,0,0,0,0,0	to_hand	s546
407.472	0.399	0	PA_without_intermediate	1,0,0,2,0,0,3,0,0	test	ward_and_allport	0,0,0,2,0,0,3,1,0	71.0	29.0	0.399	1,2,3,0,0,0,0,0,0	to_board	s546
407.877	0.491	0	PA_without_intermediate	0,0,0,2,0,0,3,0,0	test	ward_and_allport	0,0,0,2,0,0,3,1,0	89.0	29.0	0.491	1,2,3,0,0,0,0,0,0	to_hand	s546
408.369	0.287	0	PA_without_intermediate	0,0,0,2,0,0,3,1,0	test	ward_and_allport	0,0,0,2,0,0,3,1,0	82.0	29.0	0.287	1,2,3,0,0,0,0,0,0	to_board	s546
408.665	1.0	0	PA_without_intermediate	n/a	test	ward_and_allport	n/a	-1.0	29.0	n/a	n/a	feedback	s546
409.665	1.272	0	PA_without_intermediate	n/a	test	ward_and_allport	n/a	-1.0	29.0	n/a	n/a	ITI	s546
415.946	3.99	1	PA_with_intermediate	0,0,0,1,2,0,0,0,0	test	ward_and_allport	2,3,0,1,0,0,0,0,0	71.0	30.0	3.99	0,0,0,1,2,3,0,0,0	to_hand	s546
419.938	0.389	0	PA_with_intermediate	0,0,0,1,2,0,3,0,0	test	ward_and_allport	2,3,0,1,0,0,0,0,0	82.0	30.0	0.389	0,0,0,1,2,3,0,0,0	to_board	s546
420.334	0.934	0	PA_with_intermediate	0,0,0,1,0,0,3,0,0	test	ward_and_allport	2,3,0,1,0,0,0,0,0	71.0	30.0	0.934	0,0,0,1,2,3,0,0,0	to_hand	s546
421.268	0.353	0	PA_with_intermediate	2,0,0,1,0,0,3,0,0	test	ward_and_allport	2,3,0,1,0,0,0,0,0	89.0	30.0	0.353	0,0,0,1,2,3,0,0,0	to_board	s546
421.629	0.813	0	PA_with_intermediate	2,0,0,1,0,0,0,0,0	test	ward_and_allport	2,3,0,1,0,0,0,0,0	82.0	30.0	0.813	0,0,0,1,2,3,0,0,0	to_hand	s546
422.443	0.338	0	PA_with_intermediate	2,3,0,1,0,0,0,0,0	test	ward_and_allport	2,3,0,1,0,0,0,0,0	89.0	30.0	0.338	0,0,0,1,2,3,0,0,0	to_board	s546
422.789	1.0	0	PA_with_intermediate	n/a	test	ward_and_allport	n/a	-1.0	30.0	n/a	n/a	feedback	s546
423.789	3.04	0	PA_with_intermediate	n/a	test	ward_and_allport	n/a	-1.0	30.0	n/a	n/a	ITI	s546
426.837	2.692	1	PA_with_intermediate	0,0,0,1,2,0,0,0,0	test	ward_and_allport	2,3,0,1,0,0,0,0,0	71.0	31.0	2.692	0,0,0,1,2,3,0,0,0	to_hand	s546
429.531	0.445	0	PA_with_intermediate	0,0,0,1,2,0,3,0,0	test	ward_and_allport	2,3,0,1,0,0,0,0,0	82.0	31.0	0.445	0,0,0,1,2,3,0,0,0	to_board	s546
429.983	1.166	0	PA_with_intermediate	0,0,0,1,0,0,3,0,0	test	ward_and_allport	2,3,0,1,0,0,0,0,0	71.0	31.0	1.166	0,0,0,1,2,3,0,0,0	to_hand	s546
431.149	0.409	0	PA_with_intermediate	2,0,0,1,0,0,3,0,0	test	ward_and_allport	2,3,0,1,0,0,0,0,0	89.0	31.0	0.409	0,0,0,1,2,3,0,0,0	to_board	s546
431.566	0.596	0	PA_with_intermediate	2,0,0,1,0,0,0,0,0	test	ward_and_allport	2,3,0,1,0,0,0,0,0	82.0	31.0	0.596	0,0,0,1,2,3,0,0,0	to_hand	s546
432.163	0.356	0	PA_with_intermediate	2,3,0,1,0,0,0,0,0	test	ward_and_allport	2,3,0,1,0,0,0,0,0	89.0	31.0	0.356	0,0,0,1,2,3,0,0,0	to_board	s546
432.528	1.0	0	PA_with_intermediate	n/a	test	ward_and_allport	n/a	-1.0	31.0	n/a	n/a	feedback	s546
433.528	1.272	0	PA_with_intermediate	n/a	test	ward_and_allport	n/a	-1.0	31.0	n/a	n/a	ITI	s546
434.808	4.119	1	PA_with_intermediate	0,0,0,0,0,0,1,2,0	test	ward_and_allport	0,0,0,2,3,0,1,0,0	82.0	32.0	4.119	0,0,0,0,0,0,1,2,3	to_hand	s546
438.928	0.327	0	PA_with_intermediate	3,0,0,0,0,0,1,2,0	test	ward_and_allport	0,0,0,2,3,0,1,0,0	89.0	32.0	0.327	0,0,0,0,0,0,1,2,3	to_board	s546
439.264	0.706	0	PA_with_intermediate	3,0,0,0,0,0,1,0,0	test	ward_and_allport	0,0,0,2,3,0,1,0,0	82.0	32.0	0.706	0,0,0,0,0,0,1,2,3	to_hand	s546
439.971	0.359	0	PA_with_intermediate	3,0,0,2,0,0,1,0,0	test	ward_and_allport	0,0,0,2,3,0,1,0,0	71.0	32.0	0.359	0,0,0,0,0,0,1,2,3	to_board	s546
440.337	0.6	0	PA_with_intermediate	0,0,0,2,0,0,1,0,0	test	ward_and_allport	0,0,0,2,3,0,1,0,0	89.0	32.0	0.6	0,0,0,0,0,0,1,2,3	to_hand	s546
440.938	0.34	0	PA_with_intermediate	0,0,0,2,3,0,1,0,0	test	ward_and_allport	0,0,0,2,3,0,1,0,0	71.0	32.0	0.34	0,0,0,0,0,0,1,2,3	to_board	s546
441.288	1.0	0	PA_with_intermediate	n/a	test	ward_and_allport	n/a	-1.0	32.0	n/a	n/a	feedback	s546
442.288	1.136	0	PA_with_intermediate	n/a	test	ward_and_allport	n/a	-1.0	32.0	n/a	n/a	ITI	s546
443.433	4.99	1	PA_with_intermediate	0,0,0,0,0,0,1,2,0	test	ward_and_allport	2,0,0,0,0,0,1,3,0	82.0	33.0	4.99	0,0,0,0,0,0,1,2,3	to_hand	s546
448.424	0.378	0	PA_with_intermediate	0,0,0,3,0,0,1,2,0	test	ward_and_allport	2,0,0,0,0,0,1,3,0	71.0	33.0	0.378	0,0,0,0,0,0,1,2,3	to_board	s546
448.811	0.464	0	PA_with_intermediate	0,0,0,3,0,0,1,0,0	test	ward_and_allport	2,0,0,0,0,0,1,3,0	82.0	33.0	0.464	0,0,0,0,0,0,1,2,3	to_hand	s546
449.275	0.481	0	PA_with_intermediate	2,0,0,3,0,0,1,0,0	test	ward_and_allport	2,0,0,0,0,0,1,3,0	89.0	33.0	0.481	0,0,0,0,0,0,1,2,3	to_board	s546
449.765	0.817	0	PA_with_intermediate	2,0,0,0,0,0,1,0,0	test	ward_and_allport	2,0,0,0,0,0,1,3,0	71.0	33.0	0.817	0,0,0,0,0,0,1,2,3	to_hand	s546
450.583	0.333	0	PA_with_intermediate	2,0,0,0,0,0,1,3,0	test	ward_and_allport	2,0,0,0,0,0,1,3,0	82.0	33.0	0.333	0,0,0,0,0,0,1,2,3	to_board	s546
450.924	1.0	0	PA_with_intermediate	n/a	test	ward_and_allport	n/a	-1.0	33.0	n/a	n/a	feedback	s546
451.924	1.0	0	PA_with_intermediate	n/a	test	ward_and_allport	n/a	-1.0	33.0	n/a	n/a	ITI	s546
452.936	3.611	1	PA_with_intermediate	0,0,0,1,2,0,0,0,0	test	ward_and_allport	0,0,0,1,0,0,2,3,0	71.0	34.0	3.611	0,0,0,1,2,3,0,0,0	to_hand	s546
456.547	0.372	0	PA_with_intermediate	3,0,0,1,2,0,0,0,0	test	ward_and_allport	0,0,0,1,0,0,2,3,0	89.0	34.0	0.372	0,0,0,1,2,3,0,0,0	to_board	s546
456.927	0.55	0	PA_with_intermediate	3,0,0,1,0,0,0,0,0	test	ward_and_allport	0,0,0,1,0,0,2,3,0	71.0	34.0	0.55	0,0,0,1,2,3,0,0,0	to_hand	s546
457.478	0.341	0	PA_with_intermediate	3,0,0,1,0,0,2,0,0	test	ward_and_allport	0,0,0,1,0,0,2,3,0	82.0	34.0	0.341	0,0,0,1,2,3,0,0,0	to_board	s546
457.827	0.447	0	PA_with_intermediate	0,0,0,1,0,0,2,0,0	test	ward_and_allport	0,0,0,1,0,0,2,3,0	89.0	34.0	0.447	0,0,0,1,2,3,0,0,0	to_hand	s546
458.274	0.373	0	PA_with_intermediate	0,0,0,1,0,0,2,3,0	test	ward_and_allport	0,0,0,1,0,0,2,3,0	82.0	34.0	0.373	0,0,0,1,2,3,0,0,0	to_board	s546
458.656	1.0	0	PA_with_intermediate	n/a	test	ward_and_allport	n/a	-1.0	34.0	n/a	n/a	feedback	s546
459.656	1.0	0	PA_with_intermediate	n/a	test	ward_and_allport	n/a	-1.0	34.0	n/a	n/a	ITI	s546
460.663	6.687	1	PA_without_intermediate	1,2,0,0,0,0,0,0,0	test	ward_and_allport	0,0,0,2,0,0,3,1,0	89.0	35.0	6.687	1,2,3,0,0,0,0,0,0	to_hand	s546
467.351	0.453	0	PA_without_intermediate	1,2,0,0,0,0,3,0,0	test	ward_and_allport	0,0,0,2,0,0,3,1,0	82.0	35.0	0.453	1,2,3,0,0,0,0,0,0	to_board	s546
467.81	1.514	0	PA_without_intermediate	1,0,0,0,0,0,3,0,0	test	ward_and_allport	0,0,0,2,0,0,3,1,0	89.0	35.0	1.514	1,2,3,0,0,0,0,0,0	to_hand	s546
469.324	0.499	0	PA_without_intermediate	1,0,0,2,0,0,3,0,0	test	ward_and_allport	0,0,0,2,0,0,3,1,0	71.0	35.0	0.499	1,2,3,0,0,0,0,0,0	to_board	s546
469.832	0.629	0	PA_without_intermediate	0,0,0,2,0,0,3,0,0	test	ward_and_allport	0,0,0,2,0,0,3,1,0	89.0	35.0	0.629	1,2,3,0,0,0,0,0,0	to_hand	s546
470.463	0.307	0	PA_without_intermediate	0,0,0,2,0,0,3,1,0	test	ward_and_allport	0,0,0,2,0,0,3,1,0	82.0	35.0	0.307	1,2,3,0,0,0,0,0,0	to_board	s546
470.779	1.0	0	PA_without_intermediate	n/a	test	ward_and_allport	n/a	-1.0	35.0	n/a	n/a	feedback	s546
471.779	1.408	0	PA_without_intermediate	n/a	test	ward_and_allport	n/a	-1.0	35.0	n/a	n/a	ITI	s546
473.196	7.428	1	PA_with_intermediate	1,2,0,0,0,0,0,0,0	test	ward_and_allport	1,3,0,2,0,0,0,0,0	89.0	36.0	7.428	1,2,3,0,0,0,0,0,0	to_hand	s546
480.625	0.42	0	PA_with_intermediate	1,2,0,0,0,0,3,0,0	test	ward_and_allport	1,3,0,2,0,0,0,0,0	82.0	36.0	0.42	1,2,3,0,0,0,0,0,0	to_board	s546
481.051	1.01	0	PA_with_intermediate	1,0,0,0,0,0,3,0,0	test	ward_and_allport	1,3,0,2,0,0,0,0,0	89.0	36.0	1.01	1,2,3,0,0,0,0,0,0	to_hand	s546
482.063	0.371	0	PA_with_intermediate	1,0,0,2,0,0,3,0,0	test	ward_and_allport	1,3,0,2,0,0,0,0,0	71.0	36.0	0.371	1,2,3,0,0,0,0,0,0	to_board	s546
482.443	0.641	0	PA_with_intermediate	1,0,0,2,0,0,0,0,0	test	ward_and_allport	1,3,0,2,0,0,0,0,0	82.0	36.0	0.641	1,2,3,0,0,0,0,0,0	to_hand	s546
483.086	0.323	0	PA_with_intermediate	1,3,0,2,0,0,0,0,0	test	ward_and_allport	1,3,0,2,0,0,0,0,0	89.0	36.0	0.323	1,2,3,0,0,0,0,0,0	to_board	s546
483.421	1.0	0	PA_with_intermediate	n/a	test	ward_and_allport	n/a	-1.0	36.0	n/a	n/a	feedback	s546
484.421	2.768	0	PA_with_intermediate	n/a	test	ward_and_allport	n/a	-1.0	36.0	n/a	n/a	ITI	s546
487.198	4.083	1	PA_with_intermediate	1,2,0,0,0,0,0,0,0	test	ward_and_allport	1,3,0,0,0,0,2,0,0	89.0	37.0	4.083	1,2,3,0,0,0,0,0,0	to_hand	s546
491.282	0.348	0	PA_with_intermediate	1,2,0,3,0,0,0,0,0	test	ward_and_allport	1,3,0,0,0,0,2,0,0	71.0	37.0	0.348	1,2,3,0,0,0,0,0,0	to_board	s546
491.636	0.445	0	PA_with_intermediate	1,0,0,3,0,0,0,0,0	test	ward_and_allport	1,3,0,0,0,0,2,0,0	89.0	37.0	0.445	1,2,3,0,0,0,0,0,0	to_hand	s546
492.083	0.441	0	PA_with_intermediate	1,0,0,3,0,0,2,0,0	test	ward_and_allport	1,3,0,0,0,0,2,0,0	82.0	37.0	0.441	1,2,3,0,0,0,0,0,0	to_board	s546
492.533	0.396	0	PA_with_intermediate	1,0,0,0,0,0,2,0,0	test	ward_and_allport	1,3,0,0,0,0,2,0,0	71.0	37.0	0.396	1,2,3,0,0,0,0,0,0	to_hand	s546
492.93	0.297	0	PA_with_intermediate	1,3,0,0,0,0,2,0,0	test	ward_and_allport	1,3,0,0,0,0,2,0,0	89.0	37.0	0.297	1,2,3,0,0,0,0,0,0	to_board	s546
493.239	1.0	0	PA_with_intermediate	n/a	test	ward_and_allport	n/a	-1.0	37.0	n/a	n/a	feedback	s546
494.239	1.68	0	PA_with_intermediate	n/a	test	ward_and_allport	n/a	-1.0	37.0	n/a	n/a	ITI	s546
495.928	6.529	1	PA_without_intermediate	0,0,0,0,0,0,1,2,0	test	ward_and_allport	3,2,0,1,0,0,0,0,0	82.0	38.0	6.529	0,0,0,0,0,0,1,2,3	to_hand	s546
502.459	0.395	0	PA_without_intermediate	3,0,0,0,0,0,1,2,0	test	ward_and_allport	3,2,0,1,0,0,0,0,0	89.0	38.0	0.395	0,0,0,0,0,0,1,2,3	to_board	s546
502.864	1.075	0	PA_without_intermediate	3,0,0,0,0,0,1,0,0	test	ward_and_allport	3,2,0,1,0,0,0,0,0	82.0	38.0	1.075	0,0,0,0,0,0,1,2,3	to_hand	s546
503.94	0.328	0	PA_without_intermediate	3,2,0,0,0,0,1,0,0	test	ward_and_allport	3,2,0,1,0,0,0,0,0	89.0	38.0	0.328	0,0,0,0,0,0,1,2,3	to_board	s546
504.278	0.673	0	PA_without_intermediate	3,2,0,0,0,0,0,0,0	test	ward_and_allport	3,2,0,1,0,0,0,0,0	82.0	38.0	0.673	0,0,0,0,0,0,1,2,3	to_hand	s546
504.952	0.281	0	PA_without_intermediate	3,2,0,1,0,0,0,0,0	test	ward_and_allport	3,2,0,1,0,0,0,0,0	71.0	38.0	0.281	0,0,0,0,0,0,1,2,3	to_board	s546
505.244	1.0	0	PA_without_intermediate	n/a	test	ward_and_allport	n/a	-1.0	38.0	n/a	n/a	feedback	s546
506.244	2.224	0	PA_without_intermediate	n/a	test	ward_and_allport	n/a	-1.0	38.0	n/a	n/a	ITI	s546
508.477	4.823	1	PA_without_intermediate	0,0,0,1,2,0,0,0,0	test	ward_and_allport	3,1,0,0,0,0,2,0,0	71.0	39.0	4.823	0,0,0,1,2,3,0,0,0	to_hand	s546
513.301	0.415	0	PA_without_intermediate	3,0,0,1,2,0,0,0,0	test	ward_and_allport	3,1,0,0,0,0,2,0,0	89.0	39.0	0.415	0,0,0,1,2,3,0,0,0	to_board	s546
513.724	0.461	0	PA_without_intermediate	3,0,0,1,0,0,0,0,0	test	ward_and_allport	3,1,0,0,0,0,2,0,0	71.0	39.0	0.461	0,0,0,1,2,3,0,0,0	to_hand	s546
514.186	0.418	0	PA_without_intermediate	3,0,0,1,0,0,2,0,0	test	ward_and_allport	3,1,0,0,0,0,2,0,0	82.0	39.0	0.418	0,0,0,1,2,3,0,0,0	to_board	s546
514.615	0.399	0	PA_without_intermediate	3,0,0,0,0,0,2,0,0	test	ward_and_allport	3,1,0,0,0,0,2,0,0	71.0	39.0	0.399	0,0,0,1,2,3,0,0,0	to_hand	s546
515.015	0.226	0	PA_without_intermediate	3,1,0,0,0,0,2,0,0	test	ward_and_allport	3,1,0,0,0,0,2,0,0	89.0	39.0	0.226	0,0,0,1,2,3,0,0,0	to_board	s546
515.251	1.0	0	PA_without_intermediate	n/a	test	ward_and_allport	n/a	-1.0	39.0	n/a	n/a	feedback	s546
516.251	2.36	0	PA_without_intermediate	n/a	test	ward_and_allport	n/a	-1.0	39.0	n/a	n/a	ITI	s546
518.62	3.386	1	PA_without_intermediate	1,2,0,0,0,0,0,0,0	test	ward_and_allport	0,0,0,3,1,0,2,0,0	89.0	40.0	3.386	1,2,3,0,0,0,0,0,0	to_hand	s546
522.007	0.349	0	PA_without_intermediate	1,2,0,3,0,0,0,0,0	test	ward_and_allport	0,0,0,3,1,0,2,0,0	71.0	40.0	0.349	1,2,3,0,0,0,0,0,0	to_board	s546
522.367	0.768	0	PA_without_intermediate	1,0,0,3,0,0,0,0,0	test	ward_and_allport	0,0,0,3,1,0,2,0,0	89.0	40.0	0.768	1,2,3,0,0,0,0,0,0	to_hand	s546
523.136	0.394	0	PA_without_intermediate	1,0,0,3,0,0,2,0,0	test	ward_and_allport	0,0,0,3,1,0,2,0,0	82.0	40.0	0.394	1,2,3,0,0,0,0,0,0	to_board	s546
523.54	0.448	0	PA_without_intermediate	0,0,0,3,0,0,2,0,0	test	ward_and_allport	0,0,0,3,1,0,2,0,0	89.0	40.0	0.448	1,2,3,0,0,0,0,0,0	to_hand	s546
523.99	0.225	0	PA_without_intermediate	0,0,0,3,1,0,2,0,0	test	ward_and_allport	0,0,0,3,1,0,2,0,0	71.0	40.0	0.225	1,2,3,0,0,0,0,0,0	to_board	s546
524.224	1.0	0	PA_without_intermediate	n/a	test	ward_and_allport	n/a	-1.0	40.0	n/a	n/a	feedback	s546
525.224	1.0	0	PA_without_intermediate	n/a	test	ward_and_allport	n/a	-1.0	40.0	n/a	n/a	ITI	s546
526.231	5.921	1	PA_without_intermediate	0,0,0,0,0,0,1,2,0	test	ward_and_allport	3,2,0,1,0,0,0,0,0	82.0	41.0	5.921	0,0,0,0,0,0,1,2,3	to_hand	s546
532.154	0.311	0	PA_without_intermediate	3,0,0,0,0,0,1,2,0	test	ward_and_allport	3,2,0,1,0,0,0,0,0	89.0	41.0	0.311	0,0,0,0,0,0,1,2,3	to_board	s546
532.474	0.405	0	PA_without_intermediate	3,0,0,0,0,0,1,0,0	test	ward_and_allport	3,2,0,1,0,0,0,0,0	82.0	41.0	0.405	0,0,0,0,0,0,1,2,3	to_hand	s546
532.88	0.344	0	PA_without_intermediate	3,2,0,0,0,0,1,0,0	test	ward_and_allport	3,2,0,1,0,0,0,0,0	89.0	41.0	0.344	0,0,0,0,0,0,1,2,3	to_board	s546
533.235	0.485	0	PA_without_intermediate	3,2,0,0,0,0,0,0,0	test	ward_and_allport	3,2,0,1,0,0,0,0,0	82.0	41.0	0.485	0,0,0,0,0,0,1,2,3	to_hand	s546
533.721	0.322	0	PA_without_intermediate	3,2,0,1,0,0,0,0,0	test	ward_and_allport	3,2,0,1,0,0,0,0,0	71.0	41.0	0.322	0,0,0,0,0,0,1,2,3	to_board	s546
534.055	1.0	0	PA_without_intermediate	n/a	test	ward_and_allport	n/a	-1.0	41.0	n/a	n/a	feedback	s546
535.055	1.408	0	PA_without_intermediate	n/a	test	ward_and_allport	n/a	-1.0	41.0	n/a	n/a	ITI	s546
536.47	5.158	1	PA_with_intermediate	1,2,0,0,0,0,0,0,0	test	ward_and_allport	1,0,0,0,0,0,2,3,0	89.0	42.0	5.158	1,2,3,0,0,0,0,0,0	to_hand	s546
541.628	0.355	0	PA_with_intermediate	1,2,0,3,0,0,0,0,0	test	ward_and_allport	1,0,0,0,0,0,2,3,0	71.0	42.0	0.355	1,2,3,0,0,0,0,0,0	to_board	s546
541.992	0.39	0	PA_with_intermediate	1,0,0,3,0,0,0,0,0	test	ward_and_allport	1,0,0,0,0,0,2,3,0	89.0	42.0	0.39	1,2,3,0,0,0,0,0,0	to_hand	s546
542.382	0.4	0	PA_with_intermediate	1,0,0,3,0,0,2,0,0	test	ward_and_allport	1,0,0,0,0,0,2,3,0	82.0	42.0	0.4	1,2,3,0,0,0,0,0,0	to_board	s546
542.791	0.368	0	PA_with_intermediate	1,0,0,0,0,0,2,0,0	test	ward_and_allport	1,0,0,0,0,0,2,3,0	71.0	42.0	0.368	1,2,3,0,0,0,0,0,0	to_hand	s546
543.159	0.458	0	PA_with_intermediate	1,0,0,0,0,0,2,3,0	test	ward_and_allport	1,0,0,0,0,0,2,3,0	82.0	42.0	0.458	1,2,3,0,0,0,0,0,0	to_board	s546
543.628	1.0	0	PA_with_intermediate	n/a	test	ward_and_allport	n/a	-1.0	42.0	n/a	n/a	feedback	s546
544.628	1.136	0	PA_with_intermediate	n/a	test	ward_and_allport	n/a	-1.0	42.0	n/a	n/a	ITI	s546
545.776	4.286	1	PA_without_intermediate	0,0,0,0,0,0,1,2,0	test	ward_and_allport	1,0,0,3,2,0,0,0,0	82.0	43.0	4.286	0,0,0,0,0,0,1,2,3	to_hand	s546
550.063	0.302	0	PA_without_intermediate	3,0,0,0,0,0,1,2,0	test	ward_and_allport	1,0,0,3,2,0,0,0,0	89.0	43.0	0.302	0,0,0,0,0,0,1,2,3	to_board	s546
550.374	2.941	0	PA_without_intermediate	0,0,0,0,0,0,1,2,0	test	ward_and_allport	1,0,0,3,2,0,0,0,0	89.0	43.0	2.941	0,0,0,0,0,0,1,2,3	to_hand	s546
553.316	0.209	0	PA_without_intermediate	0,0,0,3,0,0,1,2,0	test	ward_and_allport	1,0,0,3,2,0,0,0,0	71.0	43.0	0.209	0,0,0,0,0,0,1,2,3	to_board	s546
553.533	0.62	0	PA_without_intermediate	0,0,0,3,0,0,1,0,0	test	ward_and_allport	1,0,0,3,2,0,0,0,0	82.0	43.0	0.62	0,0,0,0,0,0,1,2,3	to_hand	s546
554.155	0.504	0	PA_without_intermediate	0,0,0,3,2,0,1,0,0	test	ward_and_allport	1,0,0,3,2,0,0,0,0	71.0	43.0	0.504	0,0,0,0,0,0,1,2,3	to_board	s546
554.67	1.794	0	PA_without_intermediate	0,0,0,3,2,0,0,0,0	test	ward_and_allport	1,0,0,3,2,0,0,0,0	82.0	43.0	1.794	0,0,0,0,0,0,1,2,3	to_hand	s546
556.465	0.278	0	PA_without_intermediate	1,0,0,3,2,0,0,0,0	test	ward_and_allport	1,0,0,3,2,0,0,0,0	89.0	43.0	0.278	0,0,0,0,0,0,1,2,3	to_board	s546
556.754	1.0	0	PA_without_intermediate	n/a	test	ward_and_allport	n/a	-1.0	43.0	n/a	n/a	feedback	s546
557.754	4.128	0	PA_without_intermediate	n/a	test	ward_and_allport	n/a	-1.0	43.0	n/a	n/a	ITI	s546
561.893	6.481	1	PA_without_intermediate	0,0,0,1,2,0,0,0,0	test	ward_and_allport	1,0,0,0,0,0,3,2,0	71.0	44.0	6.481	0,0,0,1,2,3,0,0,0	to_hand	s546
568.374	0.44	0	PA_without_intermediate	0,0,0,1,2,0,3,0,0	test	ward_and_allport	1,0,0,0,0,0,3,2,0	82.0	44.0	0.44	0,0,0,1,2,3,0,0,0	to_board	s546
568.826	0.679	0	PA_without_intermediate	0,0,0,1,0,0,3,0,0	test	ward_and_allport	1,0,0,0,0,0,3,2,0	71.0	44.0	0.679	0,0,0,1,2,3,0,0,0	to_hand	s546
569.505	0.374	0	PA_without_intermediate	0,0,0,1,0,0,3,2,0	test	ward_and_allport	1,0,0,0,0,0,3,2,0	82.0	44.0	0.374	0,0,0,1,2,3,0,0,0	to_board	s546
569.89	0.496	0	PA_without_intermediate	0,0,0,0,0,0,3,2,0	test	ward_and_allport	1,0,0,0,0,0,3,2,0	71.0	44.0	0.496	0,0,0,1,2,3,0,0,0	to_hand	s546
570.387	0.358	0	PA_without_intermediate	1,0,0,0,0,0,3,2,0	test	ward_and_allport	1,0,0,0,0,0,3,2,0	89.0	44.0	0.358	0,0,0,1,2,3,0,0,0	to_board	s546
570.759	1.0	0	PA_without_intermediate	n/a	test	ward_and_allport	n/a	-1.0	44.0	n/a	n/a	feedback	s546
571.759	1.136	0	PA_without_intermediate	n/a	test	ward_and_allport	n/a	-1.0	44.0	n/a	n/a	ITI	s546
n/a	n/a	0	n/a	n/a	n/a	n/a	n/a	n/a	n/a	n/a	n/a	ITI	n/a
