onset	duration	choice	experiment_exp_id	key_press	large_amount	later_delay	response_time	small_amount	trial_type	worker_id
3.014	4.0	larger_later	discount_fixed	89	67.0	74.0	0.716	20.0	larger_later	s593
7.653	4.0	smaller_sooner	discount_fixed	71	29.0	58.0	2.482	20.0	smaller_sooner	s593
12.973	4.0	larger_later	discount_fixed	89	39.0	104.0	0.753	20.0	larger_later	s593
17.953	4.0	smaller_sooner	discount_fixed	71	33.0	103.0	2.45	20.0	smaller_sooner	s593
22.526	4.0	smaller_sooner	discount_fixed	71	33.0	78.0	2.507	20.0	smaller_sooner	s593
28.048	4.0	larger_later	discount_fixed	89	74.0	52.0	0.806	20.0	larger_later	s593
33.642	4.0	smaller_sooner	discount_fixed	71	28.0	132.0	2.087	20.0	smaller_sooner	s593
39.439	4.0	smaller_sooner	discount_fixed	71	28.0	59.0	2.158	20.0	smaller_sooner	s593
44.012	4.0	smaller_sooner	discount_fixed	71	28.0	163.0	1.08	20.0	smaller_sooner	s593
49.126	4.0	smaller_sooner	discount_fixed	71	32.0	74.0	1.952	20.0	smaller_sooner	s593
53.629	4.0	larger_later	discount_fixed	89	57.0	89.0	0.632	20.0	larger_later	s593
58.473	4.0	larger_later	discount_fixed	89	70.0	108.0	1.03	20.0	larger_later	s593
63.042	4.0	larger_later	discount_fixed	89	72.0	95.0	0.734	20.0	larger_later	s593
68.429	4.0	smaller_sooner	discount_fixed	71	30.0	36.0	2.17	20.0	smaller_sooner	s593
73.477	4.0	larger_later	discount_fixed	89	41.0	129.0	1.351	20.0	larger_later	s593
78.185	4.0	larger_later	discount_fixed	89	78.0	129.0	0.773	20.0	larger_later	s593
83.097	4.0	larger_later	discount_fixed	89	71.0	88.0	0.998	20.0	larger_later	s593
88.008	4.0	larger_later	discount_fixed	89	65.0	159.0	0.541	20.0	larger_later	s593
92.851	4.0	smaller_sooner	discount_fixed	71	24.0	125.0	0.854	20.0	smaller_sooner	s593
97.966	4.0	larger_later	discount_fixed	89	58.0	36.0	0.66	20.0	larger_later	s593
103.08	4.0	larger_later	discount_fixed	89	63.0	37.0	0.695	20.0	larger_later	s593
107.79	4.0	larger_later	discount_fixed	89	75.0	41.0	0.682	20.0	larger_later	s593
112.633	4.0	larger_later	discount_fixed	89	45.0	72.0	0.556	20.0	larger_later	s593
117.478	4.0	smaller_sooner	discount_fixed	71	25.0	74.0	1.583	20.0	smaller_sooner	s593
124.363	4.0	larger_later	discount_fixed	89	65.0	137.0	0.56	20.0	larger_later	s593
128.936	4.0	larger_later	discount_fixed	89	49.0	140.0	0.689	20.0	larger_later	s593
133.711	4.0	larger_later	discount_fixed	89	67.0	103.0	0.614	20.0	larger_later	s593
140.733	4.0	larger_later	discount_fixed	89	69.0	172.0	0.687	20.0	larger_later	s593
145.44	4.0	larger_later	discount_fixed	89	66.0	71.0	0.612	20.0	larger_later	s593
150.623	4.0	larger_later	discount_fixed	89	71.0	176.0	0.592	20.0	larger_later	s593
155.673	4.0	smaller_sooner	discount_fixed	71	31.0	76.0	1.842	20.0	smaller_sooner	s593
160.994	4.0	larger_later	discount_fixed	89	43.0	19.0	0.805	20.0	larger_later	s593
165.563	4.0	larger_later	discount_fixed	89	60.0	124.0	0.653	20.0	larger_later	s593
170.204	4.0	smaller_sooner	discount_fixed	71	27.0	142.0	1.116	20.0	smaller_sooner	s593
175.117	4.0	smaller_sooner	discount_fixed	71	25.0	70.0	0.874	20.0	smaller_sooner	s593
179.618	4.0	larger_later	discount_fixed	89	44.0	92.0	0.616	20.0	larger_later	s593
184.601	4.0	larger_later	discount_fixed	89	41.0	27.0	0.713	20.0	larger_later	s593
189.509	4.0	larger_later	discount_fixed	89	64.0	89.0	0.64	20.0	larger_later	s593
194.079	4.0	larger_later	discount_fixed	89	78.0	108.0	0.55	20.0	larger_later	s593
198.582	4.0	larger_later	discount_fixed	89	80.0	145.0	0.493	20.0	larger_later	s593
204.787	4.0	larger_later	discount_fixed	89	41.0	174.0	0.665	20.0	larger_later	s593
209.493	4.0	larger_later	discount_fixed	89	42.0	145.0	0.615	20.0	larger_later	s593
214.538	4.0	larger_later	discount_fixed	89	36.0	114.0	2.162	20.0	larger_later	s593
219.586	4.0	larger_later	discount_fixed	89	58.0	55.0	0.873	20.0	larger_later	s593
224.772	4.0	larger_later	discount_fixed	89	81.0	58.0	0.575	20.0	larger_later	s593
229.749	4.0	smaller_sooner	discount_fixed	71	32.0	111.0	1.818	20.0	smaller_sooner	s593
234.523	4.0	smaller_sooner	discount_fixed	71	25.0	141.0	0.95	20.0	smaller_sooner	s593
239.299	4.0	larger_later	discount_fixed	89	67.0	23.0	0.544	20.0	larger_later	s593
244.483	4.0	larger_later	discount_fixed	89	77.0	161.0	0.71	20.0	larger_later	s593
249.668	4.0	larger_later	discount_fixed	89	55.0	163.0	0.668	20.0	larger_later	s593
254.919	4.0	larger_later	discount_fixed	89	40.0	159.0	0.679	20.0	larger_later	s593
259.488	4.0	larger_later	discount_fixed	89	76.0	161.0	0.535	20.0	larger_later	s593
263.994	4.0	larger_later	discount_fixed	89	48.0	128.0	0.581	20.0	larger_later	s593
268.903	4.0	larger_later	discount_fixed	89	39.0	95.0	0.666	20.0	larger_later	s593
273.474	4.0	larger_later	discount_fixed	89	83.0	105.0	0.577	20.0	larger_later	s593
279.678	4.0	larger_later	discount_fixed	89	67.0	41.0	0.613	20.0	larger_later	s593
284.59	4.0	larger_later	discount_fixed	89	56.0	172.0	1.113	20.0	larger_later	s593
289.841	4.0	smaller_sooner	discount_fixed	71	28.0	123.0	0.95	20.0	smaller_sooner	s593
294.889	4.0	larger_later	discount_fixed	89	50.0	129.0	0.629	20.0	larger_later	s593
299.531	4.0	smaller_sooner	discount_fixed	71	23.0	61.0	0.786	20.0	smaller_sooner	s593
304.239	4.0	larger_later	discount_fixed	89	79.0	92.0	0.582	20.0	larger_later	s593
317.39	4.0	larger_later	discount_fixed	89	61.0	141.0	1.847	20.0	larger_later	s593
321.961	4.0	larger_later	discount_fixed	89	43.0	38.0	0.815	20.0	larger_later	s593
326.533	4.0	larger_later	discount_fixed	89	66.0	145.0	0.605	20.0	larger_later	s593
331.446	4.0	smaller_sooner	discount_fixed	71	30.0	23.0	0.966	20.0	smaller_sooner	s593
336.289	4.0	smaller_sooner	discount_fixed	71	32.0	57.0	0.994	20.0	smaller_sooner	s593
341.539	4.0	smaller_sooner	discount_fixed	71	27.0	91.0	1.099	20.0	smaller_sooner	s593
346.315	4.0	larger_later	discount_fixed	89	43.0	120.0	0.671	20.0	larger_later	s593
352.312	4.0	larger_later	discount_fixed	89	75.0	60.0	0.621	20.0	larger_later	s593
357.903	4.0	smaller_sooner	discount_fixed	71	34.0	176.0	1.62	20.0	smaller_sooner	s593
362.474	4.0	smaller_sooner	discount_fixed	71	24.0	38.0	1.023	20.0	smaller_sooner	s593
367.589	4.0	larger_later	discount_fixed	89	82.0	74.0	0.477	20.0	larger_later	s593
373.247	4.0	larger_later	discount_fixed	89	58.0	53.0	0.752	20.0	larger_later	s593
377.817	4.0	larger_later	discount_fixed	89	54.0	23.0	1.116	20.0	larger_later	s593
382.591	4.0	larger_later	discount_fixed	89	41.0	55.0	0.925	20.0	larger_later	s593
387.637	4.0	larger_later	discount_fixed	89	77.0	142.0	0.607	20.0	larger_later	s593
392.481	4.0	smaller_sooner	discount_fixed	71	25.0	108.0	0.97	20.0	smaller_sooner	s593
397.663	4.0	smaller_sooner	discount_fixed	71	33.0	163.0	1.371	20.0	smaller_sooner	s593
402.712	4.0	smaller_sooner	discount_fixed	71	29.0	75.0	0.762	20.0	smaller_sooner	s593
407.694	4.0	larger_later	discount_fixed	89	45.0	157.0	0.806	20.0	larger_later	s593
412.671	4.0	smaller_sooner	discount_fixed	71	31.0	74.0	1.925	20.0	smaller_sooner	s593
417.989	4.0	larger_later	discount_fixed	89	80.0	39.0	0.664	20.0	larger_later	s593
422.494	4.0	smaller_sooner	discount_fixed	71	22.0	21.0	0.941	20.0	smaller_sooner	s593
427.542	4.0	larger_later	discount_fixed	89	52.0	139.0	0.691	20.0	larger_later	s593
432.252	4.0	larger_later	discount_fixed	89	54.0	126.0	0.881	20.0	larger_later	s593
437.095	4.0	smaller_sooner	discount_fixed	71	23.0	176.0	0.795	20.0	smaller_sooner	s593
443.84	4.0	smaller_sooner	discount_fixed	71	24.0	87.0	0.834	20.0	smaller_sooner	s593
448.342	4.0	larger_later	discount_fixed	89	36.0	140.0	1.007	20.0	larger_later	s593
452.916	4.0	larger_later	discount_fixed	89	35.0	171.0	2.242	20.0	larger_later	s593
457.624	4.0	larger_later	discount_fixed	89	34.0	43.0	1.991	20.0	larger_later	s593
462.535	4.0	larger_later	discount_fixed	89	74.0	121.0	0.743	20.0	larger_later	s593
467.105	4.0	larger_later	discount_fixed	89	45.0	107.0	0.657	20.0	larger_later	s593
471.881	4.0	larger_later	discount_fixed	89	77.0	24.0	0.529	20.0	larger_later	s593
476.519	4.0	larger_later	discount_fixed	89	39.0	161.0	0.994	20.0	larger_later	s593
481.091	4.0	larger_later	discount_fixed	89	62.0	180.0	1.671	20.0	larger_later	s593
486.546	4.0	smaller_sooner	discount_fixed	71	24.0	139.0	0.987	20.0	smaller_sooner	s593
491.933	4.0	larger_later	discount_fixed	89	58.0	72.0	1.65	20.0	larger_later	s593
496.505	4.0	larger_later	discount_fixed	89	56.0	93.0	0.853	20.0	larger_later	s593
502.779	4.0	larger_later	discount_fixed	89	45.0	26.0	1.448	20.0	larger_later	s593
508.302	4.0	smaller_sooner	discount_fixed	71	23.0	42.0	0.907	20.0	smaller_sooner	s593
512.874	4.0	larger_later	discount_fixed	89	50.0	41.0	2.072	20.0	larger_later	s593
517.514	4.0	smaller_sooner	discount_fixed	71	25.0	176.0	1.281	20.0	smaller_sooner	s593
522.155	4.0	larger_later	discount_fixed	89	54.0	22.0	0.959	20.0	larger_later	s593
527.273	4.0	smaller_sooner	discount_fixed	71	29.0	44.0	1.594	20.0	smaller_sooner	s593
532.59	4.0	smaller_sooner	discount_fixed	71	24.0	89.0	0.646	20.0	smaller_sooner	s593
537.161	4.0	smaller_sooner	discount_fixed	71	23.0	77.0	0.679	20.0	smaller_sooner	s593
541.732	4.0	smaller_sooner	discount_fixed	71	27.0	130.0	0.887	20.0	smaller_sooner	s593
546.303	4.0	smaller_sooner	discount_fixed	71	23.0	134.0	0.77	20.0	smaller_sooner	s593
551.145	4.0	larger_later	discount_fixed	89	55.0	107.0	0.722	20.0	larger_later	s593
555.649	4.0	larger_later	discount_fixed	89	44.0	143.0	1.297	20.0	larger_later	s593
561.307	4.0	smaller_sooner	discount_fixed	71	23.0	110.0	0.742	20.0	smaller_sooner	s593
566.219	4.0	larger_later	discount_fixed	89	65.0	156.0	0.755	20.0	larger_later	s593
570.857	4.0	smaller_sooner	discount_fixed	71	22.0	27.0	0.841	20.0	smaller_sooner	s593
575.362	4.0	larger_later	discount_fixed	89	50.0	59.0	0.681	20.0	larger_later	s593
579.866	4.0	larger_later	discount_fixed	89	85.0	129.0	0.496	20.0	larger_later	s593
584.98	4.0	larger_later	discount_fixed	89	66.0	58.0	0.559	20.0	larger_later	s593
591.114	4.0	larger_later	discount_fixed	89	49.0	172.0	0.876	20.0	larger_later	s593
595.961	4.0	larger_later	discount_fixed	89	73.0	44.0	0.557	20.0	larger_later	s593
600.531	4.0	larger_later	discount_fixed	89	58.0	73.0	0.81	20.0	larger_later	s593
605.239	4.0	larger_later	discount_fixed	89	71.0	76.0	0.54	20.0	larger_later	s593
