onset	duration	condition	correct	correct_response	experiment_exp_id	key_press	response_time	trial_id	trial_type	worker_id
3.008	0.5	BY	n/a	n/a	dot_pattern_expectancy	-1.0	n/a	cue	BY	s631
5.514	0.5	BY	1.0	71.0	dot_pattern_expectancy	71.0	0.312	probe	BY	s631
7.152	0.5	AY	n/a	n/a	dot_pattern_expectancy	-1.0	n/a	cue	AY	s631
9.657	0.5	AY	0.0	71.0	dot_pattern_expectancy	89.0	0.446	probe	AY	s631
11.16	0.5	AX	n/a	n/a	dot_pattern_expectancy	-1.0	n/a	cue	AX	s631
13.664	0.5	AX	1.0	89.0	dot_pattern_expectancy	89.0	0.314	probe	AX	s631
15.711	0.5	BY	n/a	n/a	dot_pattern_expectancy	-1.0	n/a	cue	BY	s631
18.215	0.5	BY	1.0	71.0	dot_pattern_expectancy	71.0	0.256	probe	BY	s631
19.99	0.5	BX	n/a	n/a	dot_pattern_expectancy	-1.0	n/a	cue	BX	s631
22.494	0.5	BX	1.0	71.0	dot_pattern_expectancy	71.0	0.257	probe	BX	s631
24.132	0.5	AX	n/a	n/a	dot_pattern_expectancy	-1.0	n/a	cue	AX	s631
26.637	0.5	AX	1.0	89.0	dot_pattern_expectancy	89.0	0.358	probe	AX	s631
28.276	0.5	AX	n/a	n/a	dot_pattern_expectancy	-1.0	n/a	cue	AX	s631
30.779	0.5	AX	1.0	89.0	dot_pattern_expectancy	89.0	0.38	probe	AX	s631
32.281	0.5	AX	n/a	n/a	dot_pattern_expectancy	-1.0	n/a	cue	AX	s631
34.788	0.5	AX	1.0	89.0	dot_pattern_expectancy	89.0	0.347	probe	AX	s631
36.289	0.5	AY	n/a	n/a	dot_pattern_expectancy	-1.0	n/a	cue	AY	s631
38.794	0.5	AY	1.0	71.0	dot_pattern_expectancy	71.0	0.567	probe	AY	s631
40.84	0.5	AX	n/a	n/a	dot_pattern_expectancy	-1.0	n/a	cue	AX	s631
43.343	0.5	AX	1.0	89.0	dot_pattern_expectancy	89.0	0.4	probe	AX	s631
45.798	0.5	AX	n/a	n/a	dot_pattern_expectancy	-1.0	n/a	cue	AX	s631
48.302	0.5	AX	1.0	89.0	dot_pattern_expectancy	89.0	0.363	probe	AX	s631
50.213	0.5	AX	n/a	n/a	dot_pattern_expectancy	-1.0	n/a	cue	AX	s631
52.718	0.5	AX	1.0	89.0	dot_pattern_expectancy	89.0	0.337	probe	AX	s631
54.22	0.5	AX	n/a	n/a	dot_pattern_expectancy	-1.0	n/a	cue	AX	s631
56.723	0.5	AX	1.0	89.0	dot_pattern_expectancy	89.0	0.341	probe	AX	s631
58.634	0.5	BX	n/a	n/a	dot_pattern_expectancy	-1.0	n/a	cue	BX	s631
61.139	0.5	BX	1.0	71.0	dot_pattern_expectancy	71.0	0.235	probe	BX	s631
63.322	0.5	AX	n/a	n/a	dot_pattern_expectancy	-1.0	n/a	cue	AX	s631
65.826	0.5	AX	1.0	89.0	dot_pattern_expectancy	89.0	0.405	probe	AX	s631
67.329	0.5	BY	n/a	n/a	dot_pattern_expectancy	-1.0	n/a	cue	BY	s631
69.833	0.5	BY	1.0	71.0	dot_pattern_expectancy	71.0	0.321	probe	BY	s631
71.744	0.5	BX	n/a	n/a	dot_pattern_expectancy	-1.0	n/a	cue	BX	s631
74.249	0.5	BX	1.0	71.0	dot_pattern_expectancy	71.0	0.283	probe	BX	s631
76.568	0.5	AY	n/a	n/a	dot_pattern_expectancy	-1.0	n/a	cue	AY	s631
79.072	0.5	AY	0.0	71.0	dot_pattern_expectancy	89.0	0.304	probe	AY	s631
81.391	0.5	BX	n/a	n/a	dot_pattern_expectancy	-1.0	n/a	cue	BX	s631
83.896	0.5	BX	1.0	71.0	dot_pattern_expectancy	71.0	0.356	probe	BX	s631
85.534	0.5	AY	n/a	n/a	dot_pattern_expectancy	-1.0	n/a	cue	AY	s631
88.039	0.5	AY	1.0	71.0	dot_pattern_expectancy	71.0	0.491	probe	AY	s631
89.541	0.5	BY	n/a	n/a	dot_pattern_expectancy	-1.0	n/a	cue	BY	s631
92.047	0.5	BY	1.0	71.0	dot_pattern_expectancy	71.0	0.28	probe	BY	s631
93.958	0.5	AX	n/a	n/a	dot_pattern_expectancy	-1.0	n/a	cue	AX	s631
96.463	0.5	AX	1.0	89.0	dot_pattern_expectancy	89.0	0.346	probe	AX	s631
97.966	0.5	AY	n/a	n/a	dot_pattern_expectancy	-1.0	n/a	cue	AY	s631
100.471	0.5	AY	1.0	71.0	dot_pattern_expectancy	71.0	0.458	probe	AY	s631
102.79	0.5	AX	n/a	n/a	dot_pattern_expectancy	-1.0	n/a	cue	AX	s631
105.295	0.5	AX	1.0	89.0	dot_pattern_expectancy	89.0	0.325	probe	AX	s631
106.797	0.5	AY	n/a	n/a	dot_pattern_expectancy	-1.0	n/a	cue	AY	s631
109.302	0.5	AY	1.0	71.0	dot_pattern_expectancy	71.0	0.493	probe	AY	s631
112.027	0.5	AX	n/a	n/a	dot_pattern_expectancy	-1.0	n/a	cue	AX	s631
114.532	0.5	AX	1.0	89.0	dot_pattern_expectancy	89.0	0.34	probe	AX	s631
116.035	0.5	AX	n/a	n/a	dot_pattern_expectancy	-1.0	n/a	cue	AX	s631
118.54	0.5	AX	1.0	89.0	dot_pattern_expectancy	89.0	0.398	probe	AX	s631
120.179	0.5	AX	n/a	n/a	dot_pattern_expectancy	-1.0	n/a	cue	AX	s631
122.682	0.5	AX	1.0	89.0	dot_pattern_expectancy	89.0	0.434	probe	AX	s631
124.321	0.5	AX	n/a	n/a	dot_pattern_expectancy	-1.0	n/a	cue	AX	s631
126.826	0.5	AX	1.0	89.0	dot_pattern_expectancy	89.0	0.36	probe	AX	s631
128.6	0.5	BY	n/a	n/a	dot_pattern_expectancy	-1.0	n/a	cue	BY	s631
131.105	0.5	BY	1.0	71.0	dot_pattern_expectancy	71.0	0.284	probe	BY	s631
132.879	0.5	AX	n/a	n/a	dot_pattern_expectancy	-1.0	n/a	cue	AX	s631
135.384	0.5	AX	1.0	89.0	dot_pattern_expectancy	89.0	0.306	probe	AX	s631
136.887	0.5	BY	n/a	n/a	dot_pattern_expectancy	-1.0	n/a	cue	BY	s631
139.392	0.5	BY	1.0	71.0	dot_pattern_expectancy	71.0	0.271	probe	BY	s631
141.846	0.5	AX	n/a	n/a	dot_pattern_expectancy	-1.0	n/a	cue	AX	s631
144.351	0.5	AX	1.0	89.0	dot_pattern_expectancy	89.0	0.367	probe	AX	s631
145.99	0.5	AX	n/a	n/a	dot_pattern_expectancy	-1.0	n/a	cue	AX	s631
148.495	0.5	AX	1.0	89.0	dot_pattern_expectancy	89.0	0.301	probe	AX	s631
150.133	0.5	BX	n/a	n/a	dot_pattern_expectancy	-1.0	n/a	cue	BX	s631
152.638	0.5	BX	1.0	71.0	dot_pattern_expectancy	71.0	0.293	probe	BX	s631
154.141	0.5	BX	n/a	n/a	dot_pattern_expectancy	-1.0	n/a	cue	BX	s631
156.646	0.5	BX	1.0	71.0	dot_pattern_expectancy	71.0	0.5	probe	BX	s631
158.149	0.5	AX	n/a	n/a	dot_pattern_expectancy	-1.0	n/a	cue	AX	s631
160.654	0.5	AX	1.0	89.0	dot_pattern_expectancy	89.0	0.39	probe	AX	s631
162.972	0.5	AY	n/a	n/a	dot_pattern_expectancy	-1.0	n/a	cue	AY	s631
165.477	0.5	AY	1.0	71.0	dot_pattern_expectancy	71.0	0.522	probe	AY	s631
167.524	0.5	AX	n/a	n/a	dot_pattern_expectancy	-1.0	n/a	cue	AX	s631
170.028	0.5	AX	1.0	89.0	dot_pattern_expectancy	89.0	0.322	probe	AX	s631
173.979	0.5	AX	n/a	n/a	dot_pattern_expectancy	-1.0	n/a	cue	AX	s631
176.483	0.5	AX	1.0	89.0	dot_pattern_expectancy	89.0	0.434	probe	AX	s631
188.629	0.5	AY	n/a	n/a	dot_pattern_expectancy	-1.0	n/a	cue	AY	s631
191.134	0.5	AY	1.0	71.0	dot_pattern_expectancy	71.0	0.577	probe	AY	s631
192.772	0.5	AX	n/a	n/a	dot_pattern_expectancy	-1.0	n/a	cue	AX	s631
195.277	0.5	AX	1.0	89.0	dot_pattern_expectancy	89.0	0.342	probe	AX	s631
196.916	0.5	AX	n/a	n/a	dot_pattern_expectancy	-1.0	n/a	cue	AX	s631
199.42	0.5	AX	1.0	89.0	dot_pattern_expectancy	89.0	0.458	probe	AX	s631
200.923	0.5	AX	n/a	n/a	dot_pattern_expectancy	-1.0	n/a	cue	AX	s631
203.426	0.5	AX	1.0	89.0	dot_pattern_expectancy	89.0	0.328	probe	AX	s631
204.929	0.5	AX	n/a	n/a	dot_pattern_expectancy	-1.0	n/a	cue	AX	s631
207.434	0.5	AX	1.0	89.0	dot_pattern_expectancy	89.0	0.328	probe	AX	s631
209.344	0.5	BX	n/a	n/a	dot_pattern_expectancy	-1.0	n/a	cue	BX	s631
211.849	0.5	BX	1.0	71.0	dot_pattern_expectancy	71.0	0.264	probe	BX	s631
213.488	0.5	AX	n/a	n/a	dot_pattern_expectancy	-1.0	n/a	cue	AX	s631
215.992	0.5	AX	1.0	89.0	dot_pattern_expectancy	89.0	0.407	probe	AX	s631
218.038	0.5	AX	n/a	n/a	dot_pattern_expectancy	-1.0	n/a	cue	AX	s631
220.544	0.5	AX	1.0	89.0	dot_pattern_expectancy	89.0	0.46	probe	AX	s631
222.318	0.5	AX	n/a	n/a	dot_pattern_expectancy	-1.0	n/a	cue	AX	s631
224.823	0.5	AX	1.0	89.0	dot_pattern_expectancy	89.0	0.341	probe	AX	s631
226.326	0.5	AX	n/a	n/a	dot_pattern_expectancy	-1.0	n/a	cue	AX	s631
228.831	0.5	AX	1.0	89.0	dot_pattern_expectancy	89.0	0.452	probe	AX	s631
231.012	0.5	AX	n/a	n/a	dot_pattern_expectancy	-1.0	n/a	cue	AX	s631
233.516	0.5	AX	1.0	89.0	dot_pattern_expectancy	89.0	0.334	probe	AX	s631
235.018	0.5	BX	n/a	n/a	dot_pattern_expectancy	-1.0	n/a	cue	BX	s631
237.523	0.5	BX	1.0	71.0	dot_pattern_expectancy	71.0	0.281	probe	BX	s631
241.201	0.5	BY	n/a	n/a	dot_pattern_expectancy	-1.0	n/a	cue	BY	s631
243.706	0.5	BY	1.0	71.0	dot_pattern_expectancy	71.0	0.335	probe	BY	s631
245.345	0.5	BY	n/a	n/a	dot_pattern_expectancy	-1.0	n/a	cue	BY	s631
247.85	0.5	BY	1.0	71.0	dot_pattern_expectancy	71.0	0.45	probe	BY	s631
249.489	0.5	BX	n/a	n/a	dot_pattern_expectancy	-1.0	n/a	cue	BX	s631
251.993	0.5	BX	1.0	71.0	dot_pattern_expectancy	71.0	0.314	probe	BX	s631
253.495	0.5	AX	n/a	n/a	dot_pattern_expectancy	-1.0	n/a	cue	AX	s631
256.001	0.5	AX	1.0	89.0	dot_pattern_expectancy	89.0	0.388	probe	AX	s631
257.911	0.5	AX	n/a	n/a	dot_pattern_expectancy	-1.0	n/a	cue	AX	s631
260.416	0.5	AX	1.0	89.0	dot_pattern_expectancy	89.0	0.303	probe	AX	s631
262.055	0.5	BX	n/a	n/a	dot_pattern_expectancy	-1.0	n/a	cue	BX	s631
264.559	0.5	BX	1.0	71.0	dot_pattern_expectancy	71.0	0.292	probe	BX	s631
266.061	0.5	AX	n/a	n/a	dot_pattern_expectancy	-1.0	n/a	cue	AX	s631
268.565	0.5	AX	1.0	89.0	dot_pattern_expectancy	89.0	0.294	probe	AX	s631
270.475	0.5	BY	n/a	n/a	dot_pattern_expectancy	-1.0	n/a	cue	BY	s631
272.98	0.5	BY	1.0	71.0	dot_pattern_expectancy	71.0	0.249	probe	BY	s631
275.163	0.5	AX	n/a	n/a	dot_pattern_expectancy	-1.0	n/a	cue	AX	s631
277.667	0.5	AX	1.0	89.0	dot_pattern_expectancy	89.0	0.288	probe	AX	s631
279.442	0.5	AX	n/a	n/a	dot_pattern_expectancy	-1.0	n/a	cue	AX	s631
281.947	0.5	AX	1.0	89.0	dot_pattern_expectancy	89.0	0.369	probe	AX	s631
283.448	0.5	AX	n/a	n/a	dot_pattern_expectancy	-1.0	n/a	cue	AX	s631
285.953	0.5	AX	1.0	89.0	dot_pattern_expectancy	89.0	0.362	probe	AX	s631
287.456	0.5	AX	n/a	n/a	dot_pattern_expectancy	-1.0	n/a	cue	AX	s631
289.961	0.5	AX	1.0	89.0	dot_pattern_expectancy	89.0	0.384	probe	AX	s631
292.008	0.5	AX	n/a	n/a	dot_pattern_expectancy	-1.0	n/a	cue	AX	s631
294.514	0.5	AX	1.0	89.0	dot_pattern_expectancy	89.0	0.372	probe	AX	s631
297.375	0.5	BX	n/a	n/a	dot_pattern_expectancy	-1.0	n/a	cue	BX	s631
299.879	0.5	BX	1.0	71.0	dot_pattern_expectancy	71.0	0.292	probe	BX	s631
301.382	0.5	BY	n/a	n/a	dot_pattern_expectancy	-1.0	n/a	cue	BY	s631
303.887	0.5	BY	1.0	71.0	dot_pattern_expectancy	71.0	0.261	probe	BY	s631
305.662	0.5	AX	n/a	n/a	dot_pattern_expectancy	-1.0	n/a	cue	AX	s631
308.167	0.5	AX	1.0	89.0	dot_pattern_expectancy	89.0	0.402	probe	AX	s631
309.941	0.5	AX	n/a	n/a	dot_pattern_expectancy	-1.0	n/a	cue	AX	s631
312.446	0.5	AX	1.0	89.0	dot_pattern_expectancy	89.0	0.356	probe	AX	s631
315.309	0.5	AX	n/a	n/a	dot_pattern_expectancy	-1.0	n/a	cue	AX	s631
317.813	0.5	AX	1.0	89.0	dot_pattern_expectancy	89.0	0.354	probe	AX	s631
319.588	0.5	BX	n/a	n/a	dot_pattern_expectancy	-1.0	n/a	cue	BX	s631
322.093	0.5	BX	1.0	71.0	dot_pattern_expectancy	71.0	0.254	probe	BX	s631
323.731	0.5	BX	n/a	n/a	dot_pattern_expectancy	-1.0	n/a	cue	BX	s631
326.236	0.5	BX	1.0	71.0	dot_pattern_expectancy	71.0	0.291	probe	BX	s631
328.691	0.5	AX	n/a	n/a	dot_pattern_expectancy	-1.0	n/a	cue	AX	s631
331.195	0.5	AX	1.0	89.0	dot_pattern_expectancy	89.0	0.305	probe	AX	s631
332.834	0.5	BX	n/a	n/a	dot_pattern_expectancy	-1.0	n/a	cue	BX	s631
335.339	0.5	BX	1.0	71.0	dot_pattern_expectancy	71.0	0.272	probe	BX	s631
336.842	0.5	AX	n/a	n/a	dot_pattern_expectancy	-1.0	n/a	cue	AX	s631
339.346	0.5	AX	1.0	89.0	dot_pattern_expectancy	89.0	0.511	probe	AX	s631
340.984	0.5	AX	n/a	n/a	dot_pattern_expectancy	-1.0	n/a	cue	AX	s631
343.489	0.5	AX	1.0	89.0	dot_pattern_expectancy	89.0	0.347	probe	AX	s631
345.128	0.5	BY	n/a	n/a	dot_pattern_expectancy	-1.0	n/a	cue	BY	s631
347.632	0.5	BY	1.0	71.0	dot_pattern_expectancy	71.0	0.3	probe	BY	s631
349.814	0.5	AX	n/a	n/a	dot_pattern_expectancy	-1.0	n/a	cue	AX	s631
352.318	0.5	AX	1.0	89.0	dot_pattern_expectancy	89.0	0.486	probe	AX	s631
353.821	0.5	AY	n/a	n/a	dot_pattern_expectancy	-1.0	n/a	cue	AY	s631
356.325	0.5	AY	0.0	71.0	dot_pattern_expectancy	89.0	0.327	probe	AY	s631
357.964	0.5	AX	n/a	n/a	dot_pattern_expectancy	-1.0	n/a	cue	AX	s631
360.469	0.5	AX	1.0	89.0	dot_pattern_expectancy	89.0	0.357	probe	AX	s631
372.614	0.5	AX	n/a	n/a	dot_pattern_expectancy	-1.0	n/a	cue	AX	s631
375.118	0.5	AX	1.0	89.0	dot_pattern_expectancy	89.0	0.375	probe	AX	s631
377.3	0.5	AY	n/a	n/a	dot_pattern_expectancy	-1.0	n/a	cue	AY	s631
379.805	0.5	AY	1.0	71.0	dot_pattern_expectancy	71.0	0.44	probe	AY	s631
382.124	0.5	AY	n/a	n/a	dot_pattern_expectancy	-1.0	n/a	cue	AY	s631
384.628	0.5	AY	1.0	71.0	dot_pattern_expectancy	71.0	0.524	probe	AY	s631
386.267	0.5	BX	n/a	n/a	dot_pattern_expectancy	-1.0	n/a	cue	BX	s631
388.771	0.5	BX	1.0	71.0	dot_pattern_expectancy	71.0	0.32	probe	BX	s631
390.682	0.5	AX	n/a	n/a	dot_pattern_expectancy	-1.0	n/a	cue	AX	s631
393.187	0.5	AX	1.0	89.0	dot_pattern_expectancy	89.0	0.391	probe	AX	s631
396.73	0.5	BX	n/a	n/a	dot_pattern_expectancy	-1.0	n/a	cue	BX	s631
399.234	0.5	BX	1.0	71.0	dot_pattern_expectancy	71.0	0.376	probe	BX	s631
400.873	0.5	BY	n/a	n/a	dot_pattern_expectancy	-1.0	n/a	cue	BY	s631
403.377	0.5	BY	1.0	71.0	dot_pattern_expectancy	71.0	0.223	probe	BY	s631
404.88	0.5	AX	n/a	n/a	dot_pattern_expectancy	-1.0	n/a	cue	AX	s631
407.384	0.5	AX	1.0	89.0	dot_pattern_expectancy	89.0	0.415	probe	AX	s631
408.887	0.5	AX	n/a	n/a	dot_pattern_expectancy	-1.0	n/a	cue	AX	s631
411.392	0.5	AX	1.0	89.0	dot_pattern_expectancy	89.0	0.36	probe	AX	s631
413.167	0.5	BY	n/a	n/a	dot_pattern_expectancy	-1.0	n/a	cue	BY	s631
415.672	0.5	BY	1.0	71.0	dot_pattern_expectancy	71.0	0.246	probe	BY	s631
418.127	0.5	AX	n/a	n/a	dot_pattern_expectancy	-1.0	n/a	cue	AX	s631
420.631	0.5	AX	1.0	89.0	dot_pattern_expectancy	89.0	0.461	probe	AX	s631
422.542	0.5	BX	n/a	n/a	dot_pattern_expectancy	-1.0	n/a	cue	BX	s631
425.047	0.5	BX	1.0	71.0	dot_pattern_expectancy	71.0	0.308	probe	BX	s631
426.685	0.5	AX	n/a	n/a	dot_pattern_expectancy	-1.0	n/a	cue	AX	s631
429.19	0.5	AX	1.0	89.0	dot_pattern_expectancy	89.0	0.402	probe	AX	s631
430.693	0.5	AX	n/a	n/a	dot_pattern_expectancy	-1.0	n/a	cue	AX	s631
433.198	0.5	AX	1.0	89.0	dot_pattern_expectancy	89.0	0.397	probe	AX	s631
434.837	0.5	AX	n/a	n/a	dot_pattern_expectancy	-1.0	n/a	cue	AX	s631
437.342	0.5	AX	1.0	89.0	dot_pattern_expectancy	89.0	0.334	probe	AX	s631
438.981	0.5	BY	n/a	n/a	dot_pattern_expectancy	-1.0	n/a	cue	BY	s631
441.485	0.5	BY	1.0	71.0	dot_pattern_expectancy	71.0	0.321	probe	BY	s631
443.939	0.5	AX	n/a	n/a	dot_pattern_expectancy	-1.0	n/a	cue	AX	s631
446.444	0.5	AX	1.0	89.0	dot_pattern_expectancy	89.0	0.471	probe	AX	s631
447.946	0.5	BY	n/a	n/a	dot_pattern_expectancy	-1.0	n/a	cue	BY	s631
450.451	0.5	BY	1.0	71.0	dot_pattern_expectancy	71.0	0.416	probe	BY	s631
451.954	0.5	AX	n/a	n/a	dot_pattern_expectancy	-1.0	n/a	cue	AX	s631
454.459	0.5	AX	1.0	89.0	dot_pattern_expectancy	89.0	0.435	probe	AX	s631
456.098	0.5	AX	n/a	n/a	dot_pattern_expectancy	-1.0	n/a	cue	AX	s631
458.603	0.5	AX	1.0	89.0	dot_pattern_expectancy	89.0	0.347	probe	AX	s631
460.242	0.5	AY	n/a	n/a	dot_pattern_expectancy	-1.0	n/a	cue	AY	s631
462.746	0.5	AY	1.0	71.0	dot_pattern_expectancy	71.0	0.526	probe	AY	s631
464.385	0.5	AX	n/a	n/a	dot_pattern_expectancy	-1.0	n/a	cue	AX	s631
466.889	0.5	AX	1.0	89.0	dot_pattern_expectancy	89.0	0.461	probe	AX	s631
468.391	0.5	AX	n/a	n/a	dot_pattern_expectancy	-1.0	n/a	cue	AX	s631
470.896	0.5	AX	1.0	89.0	dot_pattern_expectancy	89.0	0.512	probe	AX	s631
472.399	0.5	AX	n/a	n/a	dot_pattern_expectancy	-1.0	n/a	cue	AX	s631
474.903	0.5	AX	1.0	89.0	dot_pattern_expectancy	89.0	0.356	probe	AX	s631
476.678	0.5	AX	n/a	n/a	dot_pattern_expectancy	-1.0	n/a	cue	AX	s631
479.182	0.5	AX	1.0	89.0	dot_pattern_expectancy	89.0	0.372	probe	AX	s631
481.364	0.5	BX	n/a	n/a	dot_pattern_expectancy	-1.0	n/a	cue	BX	s631
483.869	0.5	BX	1.0	71.0	dot_pattern_expectancy	71.0	0.286	probe	BX	s631
485.644	0.5	BY	n/a	n/a	dot_pattern_expectancy	-1.0	n/a	cue	BY	s631
488.147	0.5	BY	1.0	71.0	dot_pattern_expectancy	71.0	0.311	probe	BY	s631
489.65	0.5	AX	n/a	n/a	dot_pattern_expectancy	-1.0	n/a	cue	AX	s631
492.155	0.5	AX	1.0	89.0	dot_pattern_expectancy	89.0	0.365	probe	AX	s631
493.657	0.5	AX	n/a	n/a	dot_pattern_expectancy	-1.0	n/a	cue	AX	s631
496.162	0.5	AX	1.0	89.0	dot_pattern_expectancy	89.0	0.401	probe	AX	s631
497.801	0.5	AY	n/a	n/a	dot_pattern_expectancy	-1.0	n/a	cue	AY	s631
500.306	0.5	AY	1.0	71.0	dot_pattern_expectancy	71.0	0.483	probe	AY	s631
502.489	0.5	AY	n/a	n/a	dot_pattern_expectancy	-1.0	n/a	cue	AY	s631
504.993	0.5	AY	1.0	71.0	dot_pattern_expectancy	71.0	0.568	probe	AY	s631
507.312	0.5	BX	n/a	n/a	dot_pattern_expectancy	-1.0	n/a	cue	BX	s631
509.817	0.5	BX	1.0	71.0	dot_pattern_expectancy	71.0	0.279	probe	BX	s631
511.456	0.5	BX	n/a	n/a	dot_pattern_expectancy	-1.0	n/a	cue	BX	s631
513.961	0.5	BX	1.0	71.0	dot_pattern_expectancy	71.0	0.312	probe	BX	s631
516.144	0.5	AY	n/a	n/a	dot_pattern_expectancy	-1.0	n/a	cue	AY	s631
518.649	0.5	AY	1.0	71.0	dot_pattern_expectancy	71.0	0.629	probe	AY	s631
520.696	0.5	AX	n/a	n/a	dot_pattern_expectancy	-1.0	n/a	cue	AX	s631
523.199	0.5	AX	0.0	89.0	dot_pattern_expectancy	71.0	0.486	probe	AX	s631
524.974	0.5	AX	n/a	n/a	dot_pattern_expectancy	-1.0	n/a	cue	AX	s631
527.48	0.5	AX	1.0	89.0	dot_pattern_expectancy	89.0	0.442	probe	AX	s631
528.983	0.5	AX	n/a	n/a	dot_pattern_expectancy	-1.0	n/a	cue	AX	s631
531.488	0.5	AX	1.0	89.0	dot_pattern_expectancy	89.0	0.35	probe	AX	s631
533.67	0.5	AY	n/a	n/a	dot_pattern_expectancy	-1.0	n/a	cue	AY	s631
536.175	0.5	AY	1.0	71.0	dot_pattern_expectancy	71.0	0.525	probe	AY	s631
538.63	0.5	AX	n/a	n/a	dot_pattern_expectancy	-1.0	n/a	cue	AX	s631
541.135	0.5	AX	1.0	89.0	dot_pattern_expectancy	89.0	0.363	probe	AX	s631
542.774	0.5	AX	n/a	n/a	dot_pattern_expectancy	-1.0	n/a	cue	AX	s631
545.279	0.5	AX	1.0	89.0	dot_pattern_expectancy	89.0	0.391	probe	AX	s631
557.697	0.5	AX	n/a	n/a	dot_pattern_expectancy	-1.0	n/a	cue	AX	s631
560.201	0.5	AX	1.0	89.0	dot_pattern_expectancy	89.0	0.39	probe	AX	s631
561.976	0.5	AX	n/a	n/a	dot_pattern_expectancy	-1.0	n/a	cue	AX	s631
564.481	0.5	AX	1.0	89.0	dot_pattern_expectancy	89.0	0.37	probe	AX	s631
565.983	0.5	AY	n/a	n/a	dot_pattern_expectancy	-1.0	n/a	cue	AY	s631
568.488	0.5	AY	1.0	71.0	dot_pattern_expectancy	71.0	0.453	probe	AY	s631
570.943	0.5	AY	n/a	n/a	dot_pattern_expectancy	-1.0	n/a	cue	AY	s631
573.447	0.5	AY	1.0	71.0	dot_pattern_expectancy	71.0	0.468	probe	AY	s631
575.221	0.5	AX	n/a	n/a	dot_pattern_expectancy	-1.0	n/a	cue	AX	s631
577.725	0.5	AX	1.0	89.0	dot_pattern_expectancy	89.0	0.406	probe	AX	s631
579.635	0.5	AX	n/a	n/a	dot_pattern_expectancy	-1.0	n/a	cue	AX	s631
582.139	0.5	AX	1.0	89.0	dot_pattern_expectancy	89.0	0.407	probe	AX	s631
584.05	0.5	AX	n/a	n/a	dot_pattern_expectancy	-1.0	n/a	cue	AX	s631
586.554	0.5	AX	1.0	89.0	dot_pattern_expectancy	89.0	0.363	probe	AX	s631
589.145	0.5	AY	n/a	n/a	dot_pattern_expectancy	-1.0	n/a	cue	AY	s631
591.65	0.5	AY	1.0	71.0	dot_pattern_expectancy	71.0	0.385	probe	AY	s631
593.152	0.5	BY	n/a	n/a	dot_pattern_expectancy	-1.0	n/a	cue	BY	s631
595.657	0.5	BY	1.0	71.0	dot_pattern_expectancy	71.0	0.316	probe	BY	s631
597.16	0.5	BY	n/a	n/a	dot_pattern_expectancy	-1.0	n/a	cue	BY	s631
599.664	0.5	BY	1.0	71.0	dot_pattern_expectancy	71.0	0.269	probe	BY	s631
601.166	0.5	AX	n/a	n/a	dot_pattern_expectancy	-1.0	n/a	cue	AX	s631
603.671	0.5	AX	1.0	89.0	dot_pattern_expectancy	89.0	0.382	probe	AX	s631
605.31	0.5	BX	n/a	n/a	dot_pattern_expectancy	-1.0	n/a	cue	BX	s631
607.816	0.5	BX	1.0	71.0	dot_pattern_expectancy	71.0	0.288	probe	BX	s631
609.863	0.5	AX	n/a	n/a	dot_pattern_expectancy	-1.0	n/a	cue	AX	s631
612.367	0.5	AX	1.0	89.0	dot_pattern_expectancy	89.0	0.384	probe	AX	s631
614.142	0.5	BX	n/a	n/a	dot_pattern_expectancy	-1.0	n/a	cue	BX	s631
616.647	0.5	BX	1.0	71.0	dot_pattern_expectancy	71.0	0.298	probe	BX	s631
619.238	0.5	AY	n/a	n/a	dot_pattern_expectancy	-1.0	n/a	cue	AY	s631
621.743	0.5	AY	1.0	71.0	dot_pattern_expectancy	71.0	0.398	probe	AY	s631
623.245	0.5	AX	n/a	n/a	dot_pattern_expectancy	-1.0	n/a	cue	AX	s631
625.749	0.5	AX	1.0	89.0	dot_pattern_expectancy	89.0	0.479	probe	AX	s631
628.204	0.5	BY	n/a	n/a	dot_pattern_expectancy	-1.0	n/a	cue	BY	s631
630.709	0.5	BY	1.0	71.0	dot_pattern_expectancy	71.0	0.272	probe	BY	s631
632.348	0.5	AX	n/a	n/a	dot_pattern_expectancy	-1.0	n/a	cue	AX	s631
634.851	0.5	AX	1.0	89.0	dot_pattern_expectancy	89.0	0.373	probe	AX	s631
636.49	0.5	AX	n/a	n/a	dot_pattern_expectancy	-1.0	n/a	cue	AX	s631
638.994	0.5	AX	1.0	89.0	dot_pattern_expectancy	89.0	0.551	probe	AX	s631
640.497	0.5	BY	n/a	n/a	dot_pattern_expectancy	-1.0	n/a	cue	BY	s631
643.0	0.5	BY	1.0	71.0	dot_pattern_expectancy	71.0	0.435	probe	BY	s631
644.639	0.5	AX	n/a	n/a	dot_pattern_expectancy	-1.0	n/a	cue	AX	s631
647.144	0.5	AX	1.0	89.0	dot_pattern_expectancy	89.0	0.383	probe	AX	s631
648.646	0.5	AY	n/a	n/a	dot_pattern_expectancy	-1.0	n/a	cue	AY	s631
651.151	0.5	AY	0.0	71.0	dot_pattern_expectancy	89.0	0.412	probe	AY	s631
653.333	0.5	AX	n/a	n/a	dot_pattern_expectancy	-1.0	n/a	cue	AX	s631
655.838	0.5	AX	1.0	89.0	dot_pattern_expectancy	89.0	0.441	probe	AX	s631
657.341	0.5	AX	n/a	n/a	dot_pattern_expectancy	-1.0	n/a	cue	AX	s631
659.844	0.5	AX	1.0	89.0	dot_pattern_expectancy	89.0	0.366	probe	AX	s631
661.755	0.5	BY	n/a	n/a	dot_pattern_expectancy	-1.0	n/a	cue	BY	s631
664.26	0.5	BY	1.0	71.0	dot_pattern_expectancy	71.0	0.415	probe	BY	s631
665.898	0.5	BY	n/a	n/a	dot_pattern_expectancy	-1.0	n/a	cue	BY	s631
668.403	0.5	BY	1.0	71.0	dot_pattern_expectancy	71.0	0.256	probe	BY	s631
670.042	0.5	AX	n/a	n/a	dot_pattern_expectancy	-1.0	n/a	cue	AX	s631
672.545	0.5	AX	1.0	89.0	dot_pattern_expectancy	89.0	0.403	probe	AX	s631
674.184	0.5	AX	n/a	n/a	dot_pattern_expectancy	-1.0	n/a	cue	AX	s631
676.688	0.5	AX	1.0	89.0	dot_pattern_expectancy	89.0	0.325	probe	AX	s631
678.191	0.5	BY	n/a	n/a	dot_pattern_expectancy	-1.0	n/a	cue	BY	s631
680.696	0.5	BY	1.0	71.0	dot_pattern_expectancy	71.0	0.27	probe	BY	s631
682.743	0.5	AY	n/a	n/a	dot_pattern_expectancy	-1.0	n/a	cue	AY	s631
685.248	0.5	AY	1.0	71.0	dot_pattern_expectancy	71.0	0.489	probe	AY	s631
687.43	0.5	AY	n/a	n/a	dot_pattern_expectancy	-1.0	n/a	cue	AY	s631
689.934	0.5	AY	0.0	71.0	dot_pattern_expectancy	89.0	0.551	probe	AY	s631
691.573	0.5	AY	n/a	n/a	dot_pattern_expectancy	-1.0	n/a	cue	AY	s631
694.078	0.5	AY	1.0	71.0	dot_pattern_expectancy	71.0	0.564	probe	AY	s631
695.853	0.5	BY	n/a	n/a	dot_pattern_expectancy	-1.0	n/a	cue	BY	s631
698.357	0.5	BY	1.0	71.0	dot_pattern_expectancy	71.0	0.423	probe	BY	s631
699.86	0.5	BX	n/a	n/a	dot_pattern_expectancy	-1.0	n/a	cue	BX	s631
702.365	0.5	BX	1.0	71.0	dot_pattern_expectancy	71.0	0.301	probe	BX	s631
704.275	0.5	AX	n/a	n/a	dot_pattern_expectancy	-1.0	n/a	cue	AX	s631
706.78	0.5	AX	1.0	89.0	dot_pattern_expectancy	89.0	0.404	probe	AX	s631
708.827	0.5	AX	n/a	n/a	dot_pattern_expectancy	-1.0	n/a	cue	AX	s631
711.332	0.5	AX	1.0	89.0	dot_pattern_expectancy	89.0	0.375	probe	AX	s631
712.971	0.5	AX	n/a	n/a	dot_pattern_expectancy	-1.0	n/a	cue	AX	s631
715.476	0.5	AX	1.0	89.0	dot_pattern_expectancy	89.0	0.364	probe	AX	s631
717.251	0.5	AX	n/a	n/a	dot_pattern_expectancy	-1.0	n/a	cue	AX	s631
719.755	0.5	AX	1.0	89.0	dot_pattern_expectancy	89.0	0.407	probe	AX	s631
721.394	0.5	BX	n/a	n/a	dot_pattern_expectancy	-1.0	n/a	cue	BX	s631
723.899	0.5	BX	1.0	71.0	dot_pattern_expectancy	71.0	0.374	probe	BX	s631
725.673	0.5	AX	n/a	n/a	dot_pattern_expectancy	-1.0	n/a	cue	AX	s631
728.178	0.5	AX	1.0	89.0	dot_pattern_expectancy	89.0	0.477	probe	AX	s631
