onset	duration	planning	condition	current_position	exp_stage	experiment_exp_id	goal_state	key_press	problem_id	response_time	start_state	trial_id	worker_id
-61.047	0.0	0	n/a	n/a	n/a	ward_and_allport	n/a	32.0	n/a	19.353	n/a	instructions	s617
3.009	2.492	1	UA_with_intermediate	1,0,0,2,0,0,0,0,0	practice	ward_and_allport	1,2,3,0,0,0,0,0,0	71.0	0.0	2.492	1,0,0,2,3,0,0,0,0	to_hand	s617
5.502	0.588	0	UA_with_intermediate	1,3,0,2,0,0,0,0,0	practice	ward_and_allport	1,2,3,0,0,0,0,0,0	89.0	0.0	0.588	1,0,0,2,3,0,0,0,0	to_board	s617
6.092	2.224	0	UA_with_intermediate	1,0,0,2,0,0,0,0,0	practice	ward_and_allport	1,2,3,0,0,0,0,0,0	89.0	0.0	2.224	1,0,0,2,3,0,0,0,0	to_hand	s617
8.317	0.515	0	UA_with_intermediate	1,0,0,2,0,0,3,0,0	practice	ward_and_allport	1,2,3,0,0,0,0,0,0	82.0	0.0	0.515	1,0,0,2,3,0,0,0,0	to_board	s617
8.834	0.725	0	UA_with_intermediate	1,0,0,0,0,0,3,0,0	practice	ward_and_allport	1,2,3,0,0,0,0,0,0	71.0	0.0	0.725	1,0,0,2,3,0,0,0,0	to_hand	s617
9.56	0.905	0	UA_with_intermediate	1,2,0,0,0,0,3,0,0	practice	ward_and_allport	1,2,3,0,0,0,0,0,0	89.0	0.0	0.905	1,0,0,2,3,0,0,0,0	to_board	s617
10.467	0.931	0	UA_with_intermediate	1,2,0,0,0,0,0,0,0	practice	ward_and_allport	1,2,3,0,0,0,0,0,0	82.0	0.0	0.931	1,0,0,2,3,0,0,0,0	to_hand	s617
11.399	0.48	0	UA_with_intermediate	1,2,3,0,0,0,0,0,0	practice	ward_and_allport	1,2,3,0,0,0,0,0,0	89.0	0.0	0.48	1,0,0,2,3,0,0,0,0	to_board	s617
11.883	1.0	0	UA_with_intermediate	n/a	practice	ward_and_allport	n/a	-1.0	0.0	n/a	n/a	feedback	s617
14.386	2.711	1	UA_with_intermediate	1,0,0,3,0,0,0,0,0	practice	ward_and_allport	1,3,2,0,0,0,0,0,0	89.0	1.0	2.711	1,2,0,3,0,0,0,0,0	to_hand	s617
17.098	0.499	0	UA_with_intermediate	1,0,0,3,0,0,2,0,0	practice	ward_and_allport	1,3,2,0,0,0,0,0,0	82.0	1.0	0.499	1,2,0,3,0,0,0,0,0	to_board	s617
17.599	0.735	0	UA_with_intermediate	1,0,0,0,0,0,2,0,0	practice	ward_and_allport	1,3,2,0,0,0,0,0,0	71.0	1.0	0.735	1,2,0,3,0,0,0,0,0	to_hand	s617
18.334	0.631	0	UA_with_intermediate	1,3,0,0,0,0,2,0,0	practice	ward_and_allport	1,3,2,0,0,0,0,0,0	89.0	1.0	0.631	1,2,0,3,0,0,0,0,0	to_board	s617
18.968	0.607	0	UA_with_intermediate	1,3,0,0,0,0,0,0,0	practice	ward_and_allport	1,3,2,0,0,0,0,0,0	82.0	1.0	0.607	1,2,0,3,0,0,0,0,0	to_hand	s617
19.577	0.414	0	UA_with_intermediate	1,3,2,0,0,0,0,0,0	practice	ward_and_allport	1,3,2,0,0,0,0,0,0	89.0	1.0	0.414	1,2,0,3,0,0,0,0,0	to_board	s617
19.995	1.0	0	UA_with_intermediate	n/a	practice	ward_and_allport	n/a	-1.0	1.0	n/a	n/a	feedback	s617
20.995	1.1	0	UA_with_intermediate	n/a	practice	ward_and_allport	n/a	-1.0	1.0	n/a	n/a	ITI	s617
22.096	2.634	1	UA_without_intermediate	0,0,0,1,2,0,0,0,0	practice	ward_and_allport	3,2,1,0,0,0,0,0,0	82.0	2.0	2.634	0,0,0,1,2,0,3,0,0	to_hand	s617
24.731	0.401	0	UA_without_intermediate	3,0,0,1,2,0,0,0,0	practice	ward_and_allport	3,2,1,0,0,0,0,0,0	89.0	2.0	0.401	0,0,0,1,2,0,3,0,0	to_board	s617
25.134	0.691	0	UA_without_intermediate	3,0,0,1,0,0,0,0,0	practice	ward_and_allport	3,2,1,0,0,0,0,0,0	71.0	2.0	0.691	0,0,0,1,2,0,3,0,0	to_hand	s617
25.826	0.307	0	UA_without_intermediate	3,2,0,1,0,0,0,0,0	practice	ward_and_allport	3,2,1,0,0,0,0,0,0	89.0	2.0	0.307	0,0,0,1,2,0,3,0,0	to_board	s617
26.136	0.706	0	UA_without_intermediate	3,2,0,0,0,0,0,0,0	practice	ward_and_allport	3,2,1,0,0,0,0,0,0	71.0	2.0	0.706	0,0,0,1,2,0,3,0,0	to_hand	s617
26.843	0.322	0	UA_without_intermediate	3,2,1,0,0,0,0,0,0	practice	ward_and_allport	3,2,1,0,0,0,0,0,0	89.0	2.0	0.322	0,0,0,1,2,0,3,0,0	to_board	s617
27.171	1.0	0	UA_without_intermediate	n/a	practice	ward_and_allport	n/a	-1.0	2.0	n/a	n/a	feedback	s617
28.171	1.2	0	UA_without_intermediate	n/a	practice	ward_and_allport	n/a	-1.0	2.0	n/a	n/a	ITI	s617
29.374	1.675	1	UA_without_intermediate	0,0,0,1,0,0,3,0,0	practice	ward_and_allport	2,3,1,0,0,0,0,0,0	71.0	3.0	1.675	0,0,0,1,2,0,3,0,0	to_hand	s617
31.049	0.719	0	UA_without_intermediate	2,0,0,1,0,0,3,0,0	practice	ward_and_allport	2,3,1,0,0,0,0,0,0	89.0	3.0	0.719	0,0,0,1,2,0,3,0,0	to_board	s617
31.77	0.866	0	UA_without_intermediate	2,0,0,1,0,0,0,0,0	practice	ward_and_allport	2,3,1,0,0,0,0,0,0	82.0	3.0	0.866	0,0,0,1,2,0,3,0,0	to_hand	s617
32.637	0.629	0	UA_without_intermediate	2,3,0,1,0,0,0,0,0	practice	ward_and_allport	2,3,1,0,0,0,0,0,0	89.0	3.0	0.629	0,0,0,1,2,0,3,0,0	to_board	s617
33.268	1.003	0	UA_without_intermediate	2,3,0,0,0,0,0,0,0	practice	ward_and_allport	2,3,1,0,0,0,0,0,0	71.0	3.0	1.003	0,0,0,1,2,0,3,0,0	to_hand	s617
34.273	0.378	0	UA_without_intermediate	2,3,1,0,0,0,0,0,0	practice	ward_and_allport	2,3,1,0,0,0,0,0,0	89.0	3.0	0.378	0,0,0,1,2,0,3,0,0	to_board	s617
34.655	1.0	0	UA_without_intermediate	n/a	practice	ward_and_allport	n/a	-1.0	3.0	n/a	n/a	feedback	s617
35.655	1.0	0	UA_without_intermediate	n/a	practice	ward_and_allport	n/a	-1.0	3.0	n/a	n/a	ITI	s617
38.663	4.25	1	PA_with_intermediate	0,0,0,1,2,0,0,0,0	test	ward_and_allport	0,0,0,1,0,0,2,3,0	71.0	0.0	4.25	0,0,0,1,2,3,0,0,0	to_hand	s617
42.915	0.361	0	PA_with_intermediate	3,0,0,1,2,0,0,0,0	test	ward_and_allport	0,0,0,1,0,0,2,3,0	89.0	0.0	0.361	0,0,0,1,2,3,0,0,0	to_board	s617
43.278	2.421	0	PA_with_intermediate	3,0,0,1,0,0,0,0,0	test	ward_and_allport	0,0,0,1,0,0,2,3,0	71.0	0.0	2.421	0,0,0,1,2,3,0,0,0	to_hand	s617
45.7	0.392	0	PA_with_intermediate	3,0,0,1,0,0,2,0,0	test	ward_and_allport	0,0,0,1,0,0,2,3,0	82.0	0.0	0.392	0,0,0,1,2,3,0,0,0	to_board	s617
46.094	1.27	0	PA_with_intermediate	0,0,0,1,0,0,2,0,0	test	ward_and_allport	0,0,0,1,0,0,2,3,0	89.0	0.0	1.27	0,0,0,1,2,3,0,0,0	to_hand	s617
47.366	0.435	0	PA_with_intermediate	0,0,0,1,0,0,2,3,0	test	ward_and_allport	0,0,0,1,0,0,2,3,0	82.0	0.0	0.435	0,0,0,1,2,3,0,0,0	to_board	s617
47.807	1.0	0	PA_with_intermediate	n/a	test	ward_and_allport	n/a	-1.0	0.0	n/a	n/a	feedback	s617
48.807	1.408	0	PA_with_intermediate	n/a	test	ward_and_allport	n/a	-1.0	0.0	n/a	n/a	ITI	s617
50.218	2.485	1	PA_without_intermediate	0,0,0,0,0,0,1,2,0	test	ward_and_allport	3,1,0,2,0,0,0,0,0	82.0	1.0	2.485	0,0,0,0,0,0,1,2,3	to_hand	s617
52.704	0.437	0	PA_without_intermediate	3,0,0,0,0,0,1,2,0	test	ward_and_allport	3,1,0,2,0,0,0,0,0	89.0	1.0	0.437	0,0,0,0,0,0,1,2,3	to_board	s617
53.144	1.814	0	PA_without_intermediate	3,0,0,0,0,0,1,0,0	test	ward_and_allport	3,1,0,2,0,0,0,0,0	82.0	1.0	1.814	0,0,0,0,0,0,1,2,3	to_hand	s617
54.959	0.479	0	PA_without_intermediate	3,0,0,2,0,0,1,0,0	test	ward_and_allport	3,1,0,2,0,0,0,0,0	71.0	1.0	0.479	0,0,0,0,0,0,1,2,3	to_board	s617
55.441	1.283	0	PA_without_intermediate	3,0,0,2,0,0,0,0,0	test	ward_and_allport	3,1,0,2,0,0,0,0,0	82.0	1.0	1.283	0,0,0,0,0,0,1,2,3	to_hand	s617
56.725	0.381	0	PA_without_intermediate	3,1,0,2,0,0,0,0,0	test	ward_and_allport	3,1,0,2,0,0,0,0,0	89.0	1.0	0.381	0,0,0,0,0,0,1,2,3	to_board	s617
57.113	1.0	0	PA_without_intermediate	n/a	test	ward_and_allport	n/a	-1.0	1.0	n/a	n/a	feedback	s617
58.113	1.68	0	PA_without_intermediate	n/a	test	ward_and_allport	n/a	-1.0	1.0	n/a	n/a	ITI	s617
59.796	2.978	1	PA_with_intermediate	0,0,0,0,0,0,1,2,0	test	ward_and_allport	2,3,0,0,0,0,1,0,0	82.0	2.0	2.978	0,0,0,0,0,0,1,2,3	to_hand	s617
62.776	0.414	0	PA_with_intermediate	0,0,0,3,0,0,1,2,0	test	ward_and_allport	2,3,0,0,0,0,1,0,0	71.0	2.0	0.414	0,0,0,0,0,0,1,2,3	to_board	s617
63.193	2.181	0	PA_with_intermediate	0,0,0,3,0,0,1,0,0	test	ward_and_allport	2,3,0,0,0,0,1,0,0	82.0	2.0	2.181	0,0,0,0,0,0,1,2,3	to_hand	s617
65.375	0.47	0	PA_with_intermediate	2,0,0,3,0,0,1,0,0	test	ward_and_allport	2,3,0,0,0,0,1,0,0	89.0	2.0	0.47	0,0,0,0,0,0,1,2,3	to_board	s617
65.847	2.145	0	PA_with_intermediate	2,0,0,0,0,0,1,0,0	test	ward_and_allport	2,3,0,0,0,0,1,0,0	71.0	2.0	2.145	0,0,0,0,0,0,1,2,3	to_hand	s617
67.993	0.314	0	PA_with_intermediate	2,3,0,0,0,0,1,0,0	test	ward_and_allport	2,3,0,0,0,0,1,0,0	89.0	2.0	0.314	0,0,0,0,0,0,1,2,3	to_board	s617
68.311	1.0	0	PA_with_intermediate	n/a	test	ward_and_allport	n/a	-1.0	2.0	n/a	n/a	feedback	s617
69.311	3.72	0	PA_with_intermediate	n/a	test	ward_and_allport	n/a	-1.0	2.0	n/a	n/a	ITI	s617
73.035	2.936	1	PA_without_intermediate	0,0,0,1,2,0,0,0,0	test	ward_and_allport	2,0,0,0,0,0,3,1,0	71.0	3.0	2.936	0,0,0,1,2,3,0,0,0	to_hand	s617
75.973	0.483	0	PA_without_intermediate	0,0,0,1,2,0,3,0,0	test	ward_and_allport	2,0,0,0,0,0,3,1,0	82.0	3.0	0.483	0,0,0,1,2,3,0,0,0	to_board	s617
76.459	0.755	0	PA_without_intermediate	0,0,0,1,0,0,3,0,0	test	ward_and_allport	2,0,0,0,0,0,3,1,0	71.0	3.0	0.755	0,0,0,1,2,3,0,0,0	to_hand	s617
77.216	0.343	0	PA_without_intermediate	2,0,0,1,0,0,3,0,0	test	ward_and_allport	2,0,0,0,0,0,3,1,0	89.0	3.0	0.343	0,0,0,1,2,3,0,0,0	to_board	s617
77.562	0.543	0	PA_without_intermediate	2,0,0,0,0,0,3,0,0	test	ward_and_allport	2,0,0,0,0,0,3,1,0	71.0	3.0	0.543	0,0,0,1,2,3,0,0,0	to_hand	s617
78.107	0.486	0	PA_without_intermediate	2,0,0,0,0,0,3,1,0	test	ward_and_allport	2,0,0,0,0,0,3,1,0	82.0	3.0	0.486	0,0,0,1,2,3,0,0,0	to_board	s617
78.596	1.0	0	PA_without_intermediate	n/a	test	ward_and_allport	n/a	-1.0	3.0	n/a	n/a	feedback	s617
79.596	2.224	0	PA_without_intermediate	n/a	test	ward_and_allport	n/a	-1.0	3.0	n/a	n/a	ITI	s617
81.824	2.529	1	PA_without_intermediate	0,0,0,1,2,0,0,0,0	test	ward_and_allport	3,2,0,0,0,0,1,0,0	71.0	4.0	2.529	0,0,0,1,2,3,0,0,0	to_hand	s617
84.355	0.36	0	PA_without_intermediate	3,0,0,1,2,0,0,0,0	test	ward_and_allport	3,2,0,0,0,0,1,0,0	89.0	4.0	0.36	0,0,0,1,2,3,0,0,0	to_board	s617
84.719	0.945	0	PA_without_intermediate	3,0,0,1,0,0,0,0,0	test	ward_and_allport	3,2,0,0,0,0,1,0,0	71.0	4.0	0.945	0,0,0,1,2,3,0,0,0	to_hand	s617
85.665	0.354	0	PA_without_intermediate	3,2,0,1,0,0,0,0,0	test	ward_and_allport	3,2,0,0,0,0,1,0,0	89.0	4.0	0.354	0,0,0,1,2,3,0,0,0	to_board	s617
86.021	0.757	0	PA_without_intermediate	3,2,0,0,0,0,0,0,0	test	ward_and_allport	3,2,0,0,0,0,1,0,0	71.0	4.0	0.757	0,0,0,1,2,3,0,0,0	to_hand	s617
86.779	0.34	0	PA_without_intermediate	3,2,0,0,0,0,1,0,0	test	ward_and_allport	3,2,0,0,0,0,1,0,0	82.0	4.0	0.34	0,0,0,1,2,3,0,0,0	to_board	s617
87.126	1.0	0	PA_without_intermediate	n/a	test	ward_and_allport	n/a	-1.0	4.0	n/a	n/a	feedback	s617
88.126	1.272	0	PA_without_intermediate	n/a	test	ward_and_allport	n/a	-1.0	4.0	n/a	n/a	ITI	s617
89.401	2.27	1	PA_with_intermediate	0,0,0,1,2,0,0,0,0	test	ward_and_allport	2,0,0,1,3,0,0,0,0	71.0	5.0	2.27	0,0,0,1,2,3,0,0,0	to_hand	s617
91.672	0.362	0	PA_with_intermediate	0,0,0,1,2,0,3,0,0	test	ward_and_allport	2,0,0,1,3,0,0,0,0	82.0	5.0	0.362	0,0,0,1,2,3,0,0,0	to_board	s617
92.037	0.829	0	PA_with_intermediate	0,0,0,1,0,0,3,0,0	test	ward_and_allport	2,0,0,1,3,0,0,0,0	71.0	5.0	0.829	0,0,0,1,2,3,0,0,0	to_hand	s617
92.867	0.347	0	PA_with_intermediate	2,0,0,1,0,0,3,0,0	test	ward_and_allport	2,0,0,1,3,0,0,0,0	89.0	5.0	0.347	0,0,0,1,2,3,0,0,0	to_board	s617
93.217	0.878	0	PA_with_intermediate	2,0,0,1,0,0,0,0,0	test	ward_and_allport	2,0,0,1,3,0,0,0,0	82.0	5.0	0.878	0,0,0,1,2,3,0,0,0	to_hand	s617
94.096	0.374	0	PA_with_intermediate	2,0,0,1,3,0,0,0,0	test	ward_and_allport	2,0,0,1,3,0,0,0,0	71.0	5.0	0.374	0,0,0,1,2,3,0,0,0	to_board	s617
94.476	1.0	0	PA_with_intermediate	n/a	test	ward_and_allport	n/a	-1.0	5.0	n/a	n/a	feedback	s617
95.476	2.632	0	PA_with_intermediate	n/a	test	ward_and_allport	n/a	-1.0	5.0	n/a	n/a	ITI	s617
98.112	4.388	1	PA_without_intermediate	0,0,0,0,0,0,1,2,0	test	ward_and_allport	2,0,0,3,1,0,0,0,0	82.0	6.0	4.388	0,0,0,0,0,0,1,2,3	to_hand	s617
102.501	0.34	0	PA_without_intermediate	0,0,0,3,0,0,1,2,0	test	ward_and_allport	2,0,0,3,1,0,0,0,0	71.0	6.0	0.34	0,0,0,0,0,0,1,2,3	to_board	s617
102.845	1.613	0	PA_without_intermediate	0,0,0,3,0,0,1,0,0	test	ward_and_allport	2,0,0,3,1,0,0,0,0	82.0	6.0	1.613	0,0,0,0,0,0,1,2,3	to_hand	s617
104.459	0.334	0	PA_without_intermediate	2,0,0,3,0,0,1,0,0	test	ward_and_allport	2,0,0,3,1,0,0,0,0	89.0	6.0	0.334	0,0,0,0,0,0,1,2,3	to_board	s617
104.796	0.877	0	PA_without_intermediate	2,0,0,3,0,0,0,0,0	test	ward_and_allport	2,0,0,3,1,0,0,0,0	82.0	6.0	0.877	0,0,0,0,0,0,1,2,3	to_hand	s617
105.674	0.341	0	PA_without_intermediate	2,0,0,3,1,0,0,0,0	test	ward_and_allport	2,0,0,3,1,0,0,0,0	71.0	6.0	0.341	0,0,0,0,0,0,1,2,3	to_board	s617
106.022	1.0	0	PA_without_intermediate	n/a	test	ward_and_allport	n/a	-1.0	6.0	n/a	n/a	feedback	s617
107.022	1.408	0	PA_without_intermediate	n/a	test	ward_and_allport	n/a	-1.0	6.0	n/a	n/a	ITI	s617
108.433	2.624	1	PA_without_intermediate	0,0,0,0,0,0,1,2,0	test	ward_and_allport	3,2,0,1,0,0,0,0,0	82.0	7.0	2.624	0,0,0,0,0,0,1,2,3	to_hand	s617
111.059	0.322	0	PA_without_intermediate	3,0,0,0,0,0,1,2,0	test	ward_and_allport	3,2,0,1,0,0,0,0,0	89.0	7.0	0.322	0,0,0,0,0,0,1,2,3	to_board	s617
111.386	0.971	0	PA_without_intermediate	3,0,0,0,0,0,1,0,0	test	ward_and_allport	3,2,0,1,0,0,0,0,0	82.0	7.0	0.971	0,0,0,0,0,0,1,2,3	to_hand	s617
112.359	0.33	0	PA_without_intermediate	3,2,0,0,0,0,1,0,0	test	ward_and_allport	3,2,0,1,0,0,0,0,0	89.0	7.0	0.33	0,0,0,0,0,0,1,2,3	to_board	s617
112.693	1.38	0	PA_without_intermediate	3,2,0,0,0,0,0,0,0	test	ward_and_allport	3,2,0,1,0,0,0,0,0	82.0	7.0	1.38	0,0,0,0,0,0,1,2,3	to_hand	s617
114.075	0.33	0	PA_without_intermediate	3,2,0,1,0,0,0,0,0	test	ward_and_allport	3,2,0,1,0,0,0,0,0	71.0	7.0	0.33	0,0,0,0,0,0,1,2,3	to_board	s617
114.413	1.0	0	PA_without_intermediate	n/a	test	ward_and_allport	n/a	-1.0	7.0	n/a	n/a	feedback	s617
115.413	1.0	0	PA_without_intermediate	n/a	test	ward_and_allport	n/a	-1.0	7.0	n/a	n/a	ITI	s617
116.418	2.288	1	PA_with_intermediate	0,0,0,0,0,0,1,2,0	test	ward_and_allport	2,0,0,0,0,0,1,3,0	82.0	8.0	2.288	0,0,0,0,0,0,1,2,3	to_hand	s617
118.708	0.349	0	PA_with_intermediate	0,0,0,3,0,0,1,2,0	test	ward_and_allport	2,0,0,0,0,0,1,3,0	71.0	8.0	0.349	0,0,0,0,0,0,1,2,3	to_board	s617
119.062	1.177	0	PA_with_intermediate	0,0,0,3,0,0,1,0,0	test	ward_and_allport	2,0,0,0,0,0,1,3,0	82.0	8.0	1.177	0,0,0,0,0,0,1,2,3	to_hand	s617
120.24	0.388	0	PA_with_intermediate	2,0,0,3,0,0,1,0,0	test	ward_and_allport	2,0,0,0,0,0,1,3,0	89.0	8.0	0.388	0,0,0,0,0,0,1,2,3	to_board	s617
120.633	2.041	0	PA_with_intermediate	2,0,0,0,0,0,1,0,0	test	ward_and_allport	2,0,0,0,0,0,1,3,0	71.0	8.0	2.041	0,0,0,0,0,0,1,2,3	to_hand	s617
122.677	0.32	0	PA_with_intermediate	2,0,0,0,0,0,1,3,0	test	ward_and_allport	2,0,0,0,0,0,1,3,0	82.0	8.0	0.32	0,0,0,0,0,0,1,2,3	to_board	s617
123.006	1.0	0	PA_with_intermediate	n/a	test	ward_and_allport	n/a	-1.0	8.0	n/a	n/a	feedback	s617
124.006	1.0	0	PA_with_intermediate	n/a	test	ward_and_allport	n/a	-1.0	8.0	n/a	n/a	ITI	s617
125.01	2.12	1	PA_with_intermediate	1,2,0,0,0,0,0,0,0	test	ward_and_allport	1,3,0,2,0,0,0,0,0	89.0	9.0	2.12	1,2,3,0,0,0,0,0,0	to_hand	s617
127.131	1.211	0	PA_with_intermediate	1,2,0,0,0,0,3,0,0	test	ward_and_allport	1,3,0,2,0,0,0,0,0	82.0	9.0	1.211	1,2,3,0,0,0,0,0,0	to_board	s617
128.348	1.751	0	PA_with_intermediate	1,0,0,0,0,0,3,0,0	test	ward_and_allport	1,3,0,2,0,0,0,0,0	89.0	9.0	1.751	1,2,3,0,0,0,0,0,0	to_hand	s617
130.101	0.422	0	PA_with_intermediate	1,0,0,2,0,0,3,0,0	test	ward_and_allport	1,3,0,2,0,0,0,0,0	71.0	9.0	0.422	1,2,3,0,0,0,0,0,0	to_board	s617
130.527	1.44	0	PA_with_intermediate	1,0,0,2,0,0,0,0,0	test	ward_and_allport	1,3,0,2,0,0,0,0,0	82.0	9.0	1.44	1,2,3,0,0,0,0,0,0	to_hand	s617
131.968	0.307	0	PA_with_intermediate	1,3,0,2,0,0,0,0,0	test	ward_and_allport	1,3,0,2,0,0,0,0,0	89.0	9.0	0.307	1,2,3,0,0,0,0,0,0	to_board	s617
132.281	1.0	0	PA_with_intermediate	n/a	test	ward_and_allport	n/a	-1.0	9.0	n/a	n/a	feedback	s617
133.281	1.0	0	PA_with_intermediate	n/a	test	ward_and_allport	n/a	-1.0	9.0	n/a	n/a	ITI	s617
134.285	2.573	1	PA_with_intermediate	0,0,0,1,2,0,0,0,0	test	ward_and_allport	2,3,0,1,0,0,0,0,0	71.0	10.0	2.573	0,0,0,1,2,3,0,0,0	to_hand	s617
136.86	0.462	0	PA_with_intermediate	0,0,0,1,2,0,3,0,0	test	ward_and_allport	2,3,0,1,0,0,0,0,0	82.0	10.0	0.462	0,0,0,1,2,3,0,0,0	to_board	s617
137.328	0.858	0	PA_with_intermediate	0,0,0,1,0,0,3,0,0	test	ward_and_allport	2,3,0,1,0,0,0,0,0	71.0	10.0	0.858	0,0,0,1,2,3,0,0,0	to_hand	s617
138.187	0.341	0	PA_with_intermediate	2,0,0,1,0,0,3,0,0	test	ward_and_allport	2,3,0,1,0,0,0,0,0	89.0	10.0	0.341	0,0,0,1,2,3,0,0,0	to_board	s617
138.534	1.03	0	PA_with_intermediate	2,0,0,1,0,0,0,0,0	test	ward_and_allport	2,3,0,1,0,0,0,0,0	82.0	10.0	1.03	0,0,0,1,2,3,0,0,0	to_hand	s617
139.565	0.351	0	PA_with_intermediate	2,3,0,1,0,0,0,0,0	test	ward_and_allport	2,3,0,1,0,0,0,0,0	89.0	10.0	0.351	0,0,0,1,2,3,0,0,0	to_board	s617
139.926	1.0	0	PA_with_intermediate	n/a	test	ward_and_allport	n/a	-1.0	10.0	n/a	n/a	feedback	s617
140.926	1.408	0	PA_with_intermediate	n/a	test	ward_and_allport	n/a	-1.0	10.0	n/a	n/a	ITI	s617
142.339	2.308	1	PA_without_intermediate	1,2,0,0,0,0,0,0,0	test	ward_and_allport	0,0,0,3,2,0,1,0,0	89.0	11.0	2.308	1,2,3,0,0,0,0,0,0	to_hand	s617
144.649	0.358	0	PA_without_intermediate	1,2,0,3,0,0,0,0,0	test	ward_and_allport	0,0,0,3,2,0,1,0,0	71.0	11.0	0.358	1,2,3,0,0,0,0,0,0	to_board	s617
145.011	0.777	0	PA_without_intermediate	1,0,0,3,0,0,0,0,0	test	ward_and_allport	0,0,0,3,2,0,1,0,0	89.0	11.0	0.777	1,2,3,0,0,0,0,0,0	to_hand	s617
145.789	0.609	0	PA_without_intermediate	1,0,0,3,2,0,0,0,0	test	ward_and_allport	0,0,0,3,2,0,1,0,0	71.0	11.0	0.609	1,2,3,0,0,0,0,0,0	to_board	s617
146.403	0.78	0	PA_without_intermediate	0,0,0,3,2,0,0,0,0	test	ward_and_allport	0,0,0,3,2,0,1,0,0	89.0	11.0	0.78	1,2,3,0,0,0,0,0,0	to_hand	s617
147.185	0.529	0	PA_without_intermediate	0,0,0,3,2,0,1,0,0	test	ward_and_allport	0,0,0,3,2,0,1,0,0	82.0	11.0	0.529	1,2,3,0,0,0,0,0,0	to_board	s617
147.721	1.0	0	PA_without_intermediate	n/a	test	ward_and_allport	n/a	-1.0	11.0	n/a	n/a	feedback	s617
148.721	1.816	0	PA_without_intermediate	n/a	test	ward_and_allport	n/a	-1.0	11.0	n/a	n/a	ITI	s617
150.541	2.798	1	PA_with_intermediate	0,0,0,0,0,0,1,2,0	test	ward_and_allport	2,0,0,0,0,0,1,3,0	82.0	12.0	2.798	0,0,0,0,0,0,1,2,3	to_hand	s617
153.341	0.374	0	PA_with_intermediate	0,0,0,3,0,0,1,2,0	test	ward_and_allport	2,0,0,0,0,0,1,3,0	71.0	12.0	0.374	0,0,0,0,0,0,1,2,3	to_board	s617
153.72	1.289	0	PA_with_intermediate	0,0,0,3,0,0,1,0,0	test	ward_and_allport	2,0,0,0,0,0,1,3,0	82.0	12.0	1.289	0,0,0,0,0,0,1,2,3	to_hand	s617
155.01	0.349	0	PA_with_intermediate	2,0,0,3,0,0,1,0,0	test	ward_and_allport	2,0,0,0,0,0,1,3,0	89.0	12.0	0.349	0,0,0,0,0,0,1,2,3	to_board	s617
155.364	1.554	0	PA_with_intermediate	2,0,0,0,0,0,1,0,0	test	ward_and_allport	2,0,0,0,0,0,1,3,0	71.0	12.0	1.554	0,0,0,0,0,0,1,2,3	to_hand	s617
156.919	0.379	0	PA_with_intermediate	2,0,0,0,0,0,1,3,0	test	ward_and_allport	2,0,0,0,0,0,1,3,0	82.0	12.0	0.379	0,0,0,0,0,0,1,2,3	to_board	s617
157.305	1.0	0	PA_with_intermediate	n/a	test	ward_and_allport	n/a	-1.0	12.0	n/a	n/a	feedback	s617
158.305	3.176	0	PA_with_intermediate	n/a	test	ward_and_allport	n/a	-1.0	12.0	n/a	n/a	ITI	s617
161.487	2.098	1	PA_with_intermediate	0,0,0,0,0,0,1,2,0	test	ward_and_allport	0,0,0,2,0,0,1,3,0	82.0	13.0	2.098	0,0,0,0,0,0,1,2,3	to_hand	s617
163.586	0.677	0	PA_with_intermediate	0,0,0,3,0,0,1,2,0	test	ward_and_allport	0,0,0,2,0,0,1,3,0	71.0	13.0	0.677	0,0,0,0,0,0,1,2,3	to_board	s617
164.269	2.692	0	PA_with_intermediate	0,0,0,3,0,0,1,0,0	test	ward_and_allport	0,0,0,2,0,0,1,3,0	82.0	13.0	2.692	0,0,0,0,0,0,1,2,3	to_hand	s617
166.963	0.396	0	PA_with_intermediate	2,0,0,3,0,0,1,0,0	test	ward_and_allport	0,0,0,2,0,0,1,3,0	89.0	13.0	0.396	0,0,0,0,0,0,1,2,3	to_board	s617
167.364	1.4	0	PA_with_intermediate	2,0,0,0,0,0,1,0,0	test	ward_and_allport	0,0,0,2,0,0,1,3,0	71.0	13.0	1.4	0,0,0,0,0,0,1,2,3	to_hand	s617
168.765	0.426	0	PA_with_intermediate	2,0,0,0,0,0,1,3,0	test	ward_and_allport	0,0,0,2,0,0,1,3,0	82.0	13.0	0.426	0,0,0,0,0,0,1,2,3	to_board	s617
169.196	0.629	0	PA_with_intermediate	0,0,0,0,0,0,1,3,0	test	ward_and_allport	0,0,0,2,0,0,1,3,0	89.0	13.0	0.629	0,0,0,0,0,0,1,2,3	to_hand	s617
169.826	0.402	0	PA_with_intermediate	0,0,0,2,0,0,1,3,0	test	ward_and_allport	0,0,0,2,0,0,1,3,0	71.0	13.0	0.402	0,0,0,0,0,0,1,2,3	to_board	s617
170.233	1.0	0	PA_with_intermediate	n/a	test	ward_and_allport	n/a	-1.0	13.0	n/a	n/a	feedback	s617
171.233	2.36	0	PA_with_intermediate	n/a	test	ward_and_allport	n/a	-1.0	13.0	n/a	n/a	ITI	s617
173.599	3.163	1	PA_with_intermediate	0,0,0,0,0,0,1,2,0	test	ward_and_allport	0,0,0,2,3,0,1,0,0	82.0	14.0	3.163	0,0,0,0,0,0,1,2,3	to_hand	s617
176.764	0.335	0	PA_with_intermediate	3,0,0,0,0,0,1,2,0	test	ward_and_allport	0,0,0,2,3,0,1,0,0	89.0	14.0	0.335	0,0,0,0,0,0,1,2,3	to_board	s617
177.103	1.877	0	PA_with_intermediate	3,0,0,0,0,0,1,0,0	test	ward_and_allport	0,0,0,2,3,0,1,0,0	82.0	14.0	1.877	0,0,0,0,0,0,1,2,3	to_hand	s617
178.982	0.359	0	PA_with_intermediate	3,0,0,2,0,0,1,0,0	test	ward_and_allport	0,0,0,2,3,0,1,0,0	71.0	14.0	0.359	0,0,0,0,0,0,1,2,3	to_board	s617
179.346	1.39	0	PA_with_intermediate	0,0,0,2,0,0,1,0,0	test	ward_and_allport	0,0,0,2,3,0,1,0,0	89.0	14.0	1.39	0,0,0,0,0,0,1,2,3	to_hand	s617
180.738	0.382	0	PA_with_intermediate	0,0,0,2,3,0,1,0,0	test	ward_and_allport	0,0,0,2,3,0,1,0,0	71.0	14.0	0.382	0,0,0,0,0,0,1,2,3	to_board	s617
181.13	1.0	0	PA_with_intermediate	n/a	test	ward_and_allport	n/a	-1.0	14.0	n/a	n/a	feedback	s617
182.13	1.0	0	PA_with_intermediate	n/a	test	ward_and_allport	n/a	-1.0	14.0	n/a	n/a	ITI	s617
188.137	2.313	1	PA_without_intermediate	1,2,0,0,0,0,0,0,0	test	ward_and_allport	0,0,0,2,0,0,3,1,0	89.0	15.0	2.313	1,2,3,0,0,0,0,0,0	to_hand	s617
190.451	0.342	0	PA_without_intermediate	1,2,0,0,0,0,3,0,0	test	ward_and_allport	0,0,0,2,0,0,3,1,0	82.0	15.0	0.342	1,2,3,0,0,0,0,0,0	to_board	s617
190.799	1.591	0	PA_without_intermediate	1,0,0,0,0,0,3,0,0	test	ward_and_allport	0,0,0,2,0,0,3,1,0	89.0	15.0	1.591	1,2,3,0,0,0,0,0,0	to_hand	s617
192.391	0.336	0	PA_without_intermediate	1,0,0,2,0,0,3,0,0	test	ward_and_allport	0,0,0,2,0,0,3,1,0	71.0	15.0	0.336	1,2,3,0,0,0,0,0,0	to_board	s617
192.731	0.56	0	PA_without_intermediate	0,0,0,2,0,0,3,0,0	test	ward_and_allport	0,0,0,2,0,0,3,1,0	89.0	15.0	0.56	1,2,3,0,0,0,0,0,0	to_hand	s617
193.293	0.355	0	PA_without_intermediate	0,0,0,2,0,0,3,1,0	test	ward_and_allport	0,0,0,2,0,0,3,1,0	82.0	15.0	0.355	1,2,3,0,0,0,0,0,0	to_board	s617
193.657	1.0	0	PA_without_intermediate	n/a	test	ward_and_allport	n/a	-1.0	15.0	n/a	n/a	feedback	s617
194.657	1.408	0	PA_without_intermediate	n/a	test	ward_and_allport	n/a	-1.0	15.0	n/a	n/a	ITI	s617
196.07	2.538	1	PA_with_intermediate	0,0,0,0,0,0,1,2,0	test	ward_and_allport	0,0,0,2,3,0,1,0,0	82.0	16.0	2.538	0,0,0,0,0,0,1,2,3	to_hand	s617
198.609	0.299	0	PA_with_intermediate	3,0,0,0,0,0,1,2,0	test	ward_and_allport	0,0,0,2,3,0,1,0,0	89.0	16.0	0.299	0,0,0,0,0,0,1,2,3	to_board	s617
198.914	1.633	0	PA_with_intermediate	3,0,0,0,0,0,1,0,0	test	ward_and_allport	0,0,0,2,3,0,1,0,0	82.0	16.0	1.633	0,0,0,0,0,0,1,2,3	to_hand	s617
200.548	0.344	0	PA_with_intermediate	3,0,0,2,0,0,1,0,0	test	ward_and_allport	0,0,0,2,3,0,1,0,0	71.0	16.0	0.344	0,0,0,0,0,0,1,2,3	to_board	s617
200.897	0.852	0	PA_with_intermediate	0,0,0,2,0,0,1,0,0	test	ward_and_allport	0,0,0,2,3,0,1,0,0	89.0	16.0	0.852	0,0,0,0,0,0,1,2,3	to_hand	s617
201.75	0.306	0	PA_with_intermediate	0,0,0,2,3,0,1,0,0	test	ward_and_allport	0,0,0,2,3,0,1,0,0	71.0	16.0	0.306	0,0,0,0,0,0,1,2,3	to_board	s617
202.064	1.0	0	PA_with_intermediate	n/a	test	ward_and_allport	n/a	-1.0	16.0	n/a	n/a	feedback	s617
203.064	1.816	0	PA_with_intermediate	n/a	test	ward_and_allport	n/a	-1.0	16.0	n/a	n/a	ITI	s617
204.886	1.91	1	PA_without_intermediate	0,0,0,0,0,0,1,2,0	test	ward_and_allport	1,0,0,3,2,0,0,0,0	82.0	17.0	1.91	0,0,0,0,0,0,1,2,3	to_hand	s617
206.798	0.352	0	PA_without_intermediate	0,0,0,3,0,0,1,2,0	test	ward_and_allport	1,0,0,3,2,0,0,0,0	71.0	17.0	0.352	0,0,0,0,0,0,1,2,3	to_board	s617
207.156	0.708	0	PA_without_intermediate	0,0,0,3,0,0,1,0,0	test	ward_and_allport	1,0,0,3,2,0,0,0,0	82.0	17.0	0.708	0,0,0,0,0,0,1,2,3	to_hand	s617
207.865	0.524	0	PA_without_intermediate	0,0,0,3,2,0,1,0,0	test	ward_and_allport	1,0,0,3,2,0,0,0,0	71.0	17.0	0.524	0,0,0,0,0,0,1,2,3	to_board	s617
208.395	1.206	0	PA_without_intermediate	0,0,0,3,2,0,0,0,0	test	ward_and_allport	1,0,0,3,2,0,0,0,0	82.0	17.0	1.206	0,0,0,0,0,0,1,2,3	to_hand	s617
209.603	0.304	0	PA_without_intermediate	1,0,0,3,2,0,0,0,0	test	ward_and_allport	1,0,0,3,2,0,0,0,0	89.0	17.0	0.304	0,0,0,0,0,0,1,2,3	to_board	s617
209.916	1.0	0	PA_without_intermediate	n/a	test	ward_and_allport	n/a	-1.0	17.0	n/a	n/a	feedback	s617
210.916	2.088	0	PA_without_intermediate	n/a	test	ward_and_allport	n/a	-1.0	17.0	n/a	n/a	ITI	s617
213.01	2.12	1	PA_without_intermediate	1,2,0,0,0,0,0,0,0	test	ward_and_allport	0,0,0,3,2,0,1,0,0	89.0	18.0	2.12	1,2,3,0,0,0,0,0,0	to_hand	s617
215.132	0.413	0	PA_without_intermediate	1,2,0,3,0,0,0,0,0	test	ward_and_allport	0,0,0,3,2,0,1,0,0	71.0	18.0	0.413	1,2,3,0,0,0,0,0,0	to_board	s617
215.55	0.979	0	PA_without_intermediate	1,0,0,3,0,0,0,0,0	test	ward_and_allport	0,0,0,3,2,0,1,0,0	89.0	18.0	0.979	1,2,3,0,0,0,0,0,0	to_hand	s617
216.531	0.385	0	PA_without_intermediate	1,0,0,3,2,0,0,0,0	test	ward_and_allport	0,0,0,3,2,0,1,0,0	71.0	18.0	0.385	1,2,3,0,0,0,0,0,0	to_board	s617
216.921	0.959	0	PA_without_intermediate	0,0,0,3,2,0,0,0,0	test	ward_and_allport	0,0,0,3,2,0,1,0,0	89.0	18.0	0.959	1,2,3,0,0,0,0,0,0	to_hand	s617
217.881	0.48	0	PA_without_intermediate	0,0,0,3,2,0,1,0,0	test	ward_and_allport	0,0,0,3,2,0,1,0,0	82.0	18.0	0.48	1,2,3,0,0,0,0,0,0	to_board	s617
218.371	1.0	0	PA_without_intermediate	n/a	test	ward_and_allport	n/a	-1.0	18.0	n/a	n/a	feedback	s617
219.371	1.136	0	PA_without_intermediate	n/a	test	ward_and_allport	n/a	-1.0	18.0	n/a	n/a	ITI	s617
220.512	2.674	1	PA_without_intermediate	0,0,0,1,2,0,0,0,0	test	ward_and_allport	3,2,0,0,0,0,1,0,0	71.0	19.0	2.674	0,0,0,1,2,3,0,0,0	to_hand	s617
223.187	0.339	0	PA_without_intermediate	3,0,0,1,2,0,0,0,0	test	ward_and_allport	3,2,0,0,0,0,1,0,0	89.0	19.0	0.339	0,0,0,1,2,3,0,0,0	to_board	s617
223.533	0.712	0	PA_without_intermediate	3,0,0,1,0,0,0,0,0	test	ward_and_allport	3,2,0,0,0,0,1,0,0	71.0	19.0	0.712	0,0,0,1,2,3,0,0,0	to_hand	s617
224.245	0.311	0	PA_without_intermediate	3,2,0,1,0,0,0,0,0	test	ward_and_allport	3,2,0,0,0,0,1,0,0	89.0	19.0	0.311	0,0,0,1,2,3,0,0,0	to_board	s617
224.561	0.429	0	PA_without_intermediate	3,2,0,0,0,0,0,0,0	test	ward_and_allport	3,2,0,0,0,0,1,0,0	71.0	19.0	0.429	0,0,0,1,2,3,0,0,0	to_hand	s617
224.992	0.354	0	PA_without_intermediate	3,2,0,0,0,0,1,0,0	test	ward_and_allport	3,2,0,0,0,0,1,0,0	82.0	19.0	0.354	0,0,0,1,2,3,0,0,0	to_board	s617
225.355	1.0	0	PA_without_intermediate	n/a	test	ward_and_allport	n/a	-1.0	19.0	n/a	n/a	feedback	s617
226.355	6.168	0	PA_without_intermediate	n/a	test	ward_and_allport	n/a	-1.0	19.0	n/a	n/a	ITI	s617
232.529	1.52	1	PA_without_intermediate	0,0,0,1,2,0,0,0,0	test	ward_and_allport	1,0,0,0,0,0,3,2,0	71.0	20.0	1.52	0,0,0,1,2,3,0,0,0	to_hand	s617
234.05	0.417	0	PA_without_intermediate	0,0,0,1,2,0,3,0,0	test	ward_and_allport	1,0,0,0,0,0,3,2,0	82.0	20.0	0.417	0,0,0,1,2,3,0,0,0	to_board	s617
234.473	0.432	0	PA_without_intermediate	0,0,0,1,0,0,3,0,0	test	ward_and_allport	1,0,0,0,0,0,3,2,0	71.0	20.0	0.432	0,0,0,1,2,3,0,0,0	to_hand	s617
234.906	0.649	0	PA_without_intermediate	0,0,0,1,0,0,3,2,0	test	ward_and_allport	1,0,0,0,0,0,3,2,0	82.0	20.0	0.649	0,0,0,1,2,3,0,0,0	to_board	s617
235.561	0.569	0	PA_without_intermediate	0,0,0,0,0,0,3,2,0	test	ward_and_allport	1,0,0,0,0,0,3,2,0	71.0	20.0	0.569	0,0,0,1,2,3,0,0,0	to_hand	s617
236.131	0.31	0	PA_without_intermediate	1,0,0,0,0,0,3,2,0	test	ward_and_allport	1,0,0,0,0,0,3,2,0	89.0	20.0	0.31	0,0,0,1,2,3,0,0,0	to_board	s617
236.45	1.0	0	PA_without_intermediate	n/a	test	ward_and_allport	n/a	-1.0	20.0	n/a	n/a	feedback	s617
237.45	1.816	0	PA_without_intermediate	n/a	test	ward_and_allport	n/a	-1.0	20.0	n/a	n/a	ITI	s617
239.272	2.368	1	PA_with_intermediate	1,2,0,0,0,0,0,0,0	test	ward_and_allport	1,0,0,0,0,0,2,3,0	89.0	21.0	2.368	1,2,3,0,0,0,0,0,0	to_hand	s617
241.642	0.334	0	PA_with_intermediate	1,2,0,3,0,0,0,0,0	test	ward_and_allport	1,0,0,0,0,0,2,3,0	71.0	21.0	0.334	1,2,3,0,0,0,0,0,0	to_board	s617
241.982	0.845	0	PA_with_intermediate	1,0,0,3,0,0,0,0,0	test	ward_and_allport	1,0,0,0,0,0,2,3,0	89.0	21.0	0.845	1,2,3,0,0,0,0,0,0	to_hand	s617
242.829	0.593	0	PA_with_intermediate	1,0,0,3,0,0,2,0,0	test	ward_and_allport	1,0,0,0,0,0,2,3,0	82.0	21.0	0.593	1,2,3,0,0,0,0,0,0	to_board	s617
243.428	0.564	0	PA_with_intermediate	1,0,0,0,0,0,2,0,0	test	ward_and_allport	1,0,0,0,0,0,2,3,0	71.0	21.0	0.564	1,2,3,0,0,0,0,0,0	to_hand	s617
243.993	0.407	0	PA_with_intermediate	1,0,0,0,0,0,2,3,0	test	ward_and_allport	1,0,0,0,0,0,2,3,0	82.0	21.0	0.407	1,2,3,0,0,0,0,0,0	to_board	s617
244.409	1.0	0	PA_with_intermediate	n/a	test	ward_and_allport	n/a	-1.0	21.0	n/a	n/a	feedback	s617
245.409	1.952	0	PA_with_intermediate	n/a	test	ward_and_allport	n/a	-1.0	21.0	n/a	n/a	ITI	s617
247.368	2.92	1	PA_with_intermediate	1,2,0,0,0,0,0,0,0	test	ward_and_allport	1,3,0,2,0,0,0,0,0	89.0	22.0	2.92	1,2,3,0,0,0,0,0,0	to_hand	s617
250.289	0.513	0	PA_with_intermediate	1,2,0,0,0,0,3,0,0	test	ward_and_allport	1,3,0,2,0,0,0,0,0	82.0	22.0	0.513	1,2,3,0,0,0,0,0,0	to_board	s617
250.809	1.453	0	PA_with_intermediate	1,0,0,0,0,0,3,0,0	test	ward_and_allport	1,3,0,2,0,0,0,0,0	89.0	22.0	1.453	1,2,3,0,0,0,0,0,0	to_hand	s617
252.264	0.401	0	PA_with_intermediate	1,0,0,2,0,0,3,0,0	test	ward_and_allport	1,3,0,2,0,0,0,0,0	71.0	22.0	0.401	1,2,3,0,0,0,0,0,0	to_board	s617
252.671	0.584	0	PA_with_intermediate	1,0,0,2,0,0,0,0,0	test	ward_and_allport	1,3,0,2,0,0,0,0,0	82.0	22.0	0.584	1,2,3,0,0,0,0,0,0	to_hand	s617
253.256	0.328	0	PA_with_intermediate	1,3,0,2,0,0,0,0,0	test	ward_and_allport	1,3,0,2,0,0,0,0,0	89.0	22.0	0.328	1,2,3,0,0,0,0,0,0	to_board	s617
253.594	1.0	0	PA_with_intermediate	n/a	test	ward_and_allport	n/a	-1.0	22.0	n/a	n/a	feedback	s617
254.594	1.136	0	PA_with_intermediate	n/a	test	ward_and_allport	n/a	-1.0	22.0	n/a	n/a	ITI	s617
255.737	2.3	1	PA_without_intermediate	0,0,0,1,2,0,0,0,0	test	ward_and_allport	1,0,0,0,0,0,3,2,0	71.0	23.0	2.3	0,0,0,1,2,3,0,0,0	to_hand	s617
258.038	0.415	0	PA_without_intermediate	0,0,0,1,2,0,3,0,0	test	ward_and_allport	1,0,0,0,0,0,3,2,0	82.0	23.0	0.415	0,0,0,1,2,3,0,0,0	to_board	s617
258.462	1.268	0	PA_without_intermediate	0,0,0,1,0,0,3,0,0	test	ward_and_allport	1,0,0,0,0,0,3,2,0	71.0	23.0	1.268	0,0,0,1,2,3,0,0,0	to_hand	s617
259.731	0.358	0	PA_without_intermediate	0,0,0,1,0,0,3,2,0	test	ward_and_allport	1,0,0,0,0,0,3,2,0	82.0	23.0	0.358	0,0,0,1,2,3,0,0,0	to_board	s617
260.096	0.429	0	PA_without_intermediate	0,0,0,0,0,0,3,2,0	test	ward_and_allport	1,0,0,0,0,0,3,2,0	71.0	23.0	0.429	0,0,0,1,2,3,0,0,0	to_hand	s617
260.527	0.29	0	PA_without_intermediate	1,0,0,0,0,0,3,2,0	test	ward_and_allport	1,0,0,0,0,0,3,2,0	89.0	23.0	0.29	0,0,0,1,2,3,0,0,0	to_board	s617
260.826	1.0	0	PA_without_intermediate	n/a	test	ward_and_allport	n/a	-1.0	23.0	n/a	n/a	feedback	s617
261.826	1.68	0	PA_without_intermediate	n/a	test	ward_and_allport	n/a	-1.0	23.0	n/a	n/a	ITI	s617
263.514	1.725	1	PA_without_intermediate	1,2,0,0,0,0,0,0,0	test	ward_and_allport	0,0,0,3,1,0,2,0,0	89.0	24.0	1.725	1,2,3,0,0,0,0,0,0	to_hand	s617
265.24	0.34	0	PA_without_intermediate	1,2,0,3,0,0,0,0,0	test	ward_and_allport	0,0,0,3,1,0,2,0,0	71.0	24.0	0.34	1,2,3,0,0,0,0,0,0	to_board	s617
265.588	0.649	0	PA_without_intermediate	1,0,0,3,0,0,0,0,0	test	ward_and_allport	0,0,0,3,1,0,2,0,0	89.0	24.0	0.649	1,2,3,0,0,0,0,0,0	to_hand	s617
266.238	0.372	0	PA_without_intermediate	1,0,0,3,0,0,2,0,0	test	ward_and_allport	0,0,0,3,1,0,2,0,0	82.0	24.0	0.372	1,2,3,0,0,0,0,0,0	to_board	s617
266.618	0.431	0	PA_without_intermediate	0,0,0,3,0,0,2,0,0	test	ward_and_allport	0,0,0,3,1,0,2,0,0	89.0	24.0	0.431	1,2,3,0,0,0,0,0,0	to_hand	s617
267.05	0.352	0	PA_without_intermediate	0,0,0,3,1,0,2,0,0	test	ward_and_allport	0,0,0,3,1,0,2,0,0	71.0	24.0	0.352	1,2,3,0,0,0,0,0,0	to_board	s617
267.41	1.0	0	PA_without_intermediate	n/a	test	ward_and_allport	n/a	-1.0	24.0	n/a	n/a	feedback	s617
268.41	2.088	0	PA_without_intermediate	n/a	test	ward_and_allport	n/a	-1.0	24.0	n/a	n/a	ITI	s617
270.506	2.689	1	PA_with_intermediate	0,0,0,0,0,0,1,2,0	test	ward_and_allport	0,0,0,2,0,0,1,3,0	82.0	25.0	2.689	0,0,0,0,0,0,1,2,3	to_hand	s617
273.196	0.316	0	PA_with_intermediate	3,0,0,0,0,0,1,2,0	test	ward_and_allport	0,0,0,2,0,0,1,3,0	89.0	25.0	0.316	0,0,0,0,0,0,1,2,3	to_board	s617
273.521	1.7	0	PA_with_intermediate	3,0,0,0,0,0,1,0,0	test	ward_and_allport	0,0,0,2,0,0,1,3,0	82.0	25.0	1.7	0,0,0,0,0,0,1,2,3	to_hand	s617
275.223	0.307	0	PA_with_intermediate	3,0,0,2,0,0,1,0,0	test	ward_and_allport	0,0,0,2,0,0,1,3,0	71.0	25.0	0.307	0,0,0,0,0,0,1,2,3	to_board	s617
275.541	0.38	0	PA_with_intermediate	0,0,0,2,0,0,1,0,0	test	ward_and_allport	0,0,0,2,0,0,1,3,0	89.0	25.0	0.38	0,0,0,0,0,0,1,2,3	to_hand	s617
275.923	0.364	0	PA_with_intermediate	0,0,0,2,0,0,1,3,0	test	ward_and_allport	0,0,0,2,0,0,1,3,0	82.0	25.0	0.364	0,0,0,0,0,0,1,2,3	to_board	s617
276.296	1.0	0	PA_with_intermediate	n/a	test	ward_and_allport	n/a	-1.0	25.0	n/a	n/a	feedback	s617
277.296	1.0	0	PA_with_intermediate	n/a	test	ward_and_allport	n/a	-1.0	25.0	n/a	n/a	ITI	s617
278.304	1.67	1	PA_without_intermediate	1,2,0,0,0,0,0,0,0	test	ward_and_allport	0,0,0,2,0,0,3,1,0	89.0	26.0	1.67	1,2,3,0,0,0,0,0,0	to_hand	s617
279.975	0.508	0	PA_without_intermediate	1,2,0,0,0,0,3,0,0	test	ward_and_allport	0,0,0,2,0,0,3,1,0	82.0	26.0	0.508	1,2,3,0,0,0,0,0,0	to_board	s617
280.492	0.99	0	PA_without_intermediate	1,0,0,0,0,0,3,0,0	test	ward_and_allport	0,0,0,2,0,0,3,1,0	89.0	26.0	0.99	1,2,3,0,0,0,0,0,0	to_hand	s617
281.484	0.281	0	PA_without_intermediate	1,0,0,2,0,0,3,0,0	test	ward_and_allport	0,0,0,2,0,0,3,1,0	71.0	26.0	0.281	1,2,3,0,0,0,0,0,0	to_board	s617
281.773	0.369	0	PA_without_intermediate	0,0,0,2,0,0,3,0,0	test	ward_and_allport	0,0,0,2,0,0,3,1,0	89.0	26.0	0.369	1,2,3,0,0,0,0,0,0	to_hand	s617
282.144	0.337	0	PA_without_intermediate	0,0,0,2,0,0,3,1,0	test	ward_and_allport	0,0,0,2,0,0,3,1,0	82.0	26.0	0.337	1,2,3,0,0,0,0,0,0	to_board	s617
282.493	1.0	0	PA_without_intermediate	n/a	test	ward_and_allport	n/a	-1.0	26.0	n/a	n/a	feedback	s617
283.493	1.0	0	PA_without_intermediate	n/a	test	ward_and_allport	n/a	-1.0	26.0	n/a	n/a	ITI	s617
284.5	1.512	1	PA_without_intermediate	0,0,0,0,0,0,1,2,0	test	ward_and_allport	1,0,0,3,2,0,0,0,0	82.0	27.0	1.512	0,0,0,0,0,0,1,2,3	to_hand	s617
286.013	0.752	0	PA_without_intermediate	0,0,0,3,0,0,1,2,0	test	ward_and_allport	1,0,0,3,2,0,0,0,0	71.0	27.0	0.752	0,0,0,0,0,0,1,2,3	to_board	s617
286.773	0.898	0	PA_without_intermediate	0,0,0,3,0,0,1,0,0	test	ward_and_allport	1,0,0,3,2,0,0,0,0	82.0	27.0	0.898	0,0,0,0,0,0,1,2,3	to_hand	s617
287.672	0.364	0	PA_without_intermediate	0,0,0,3,2,0,1,0,0	test	ward_and_allport	1,0,0,3,2,0,0,0,0	71.0	27.0	0.364	0,0,0,0,0,0,1,2,3	to_board	s617
288.045	1.205	0	PA_without_intermediate	0,0,0,3,2,0,0,0,0	test	ward_and_allport	1,0,0,3,2,0,0,0,0	82.0	27.0	1.205	0,0,0,0,0,0,1,2,3	to_hand	s617
289.251	0.285	0	PA_without_intermediate	1,0,0,3,2,0,0,0,0	test	ward_and_allport	1,0,0,3,2,0,0,0,0	89.0	27.0	0.285	0,0,0,0,0,0,1,2,3	to_board	s617
289.549	1.0	0	PA_without_intermediate	n/a	test	ward_and_allport	n/a	-1.0	27.0	n/a	n/a	feedback	s617
290.549	1.0	0	PA_without_intermediate	n/a	test	ward_and_allport	n/a	-1.0	27.0	n/a	n/a	ITI	s617
291.558	1.766	1	PA_with_intermediate	1,2,0,0,0,0,0,0,0	test	ward_and_allport	1,0,0,2,3,0,0,0,0	89.0	28.0	1.766	1,2,3,0,0,0,0,0,0	to_hand	s617
293.324	0.339	0	PA_with_intermediate	1,2,0,0,0,0,3,0,0	test	ward_and_allport	1,0,0,2,3,0,0,0,0	82.0	28.0	0.339	1,2,3,0,0,0,0,0,0	to_board	s617
293.672	0.359	0	PA_with_intermediate	1,0,0,0,0,0,3,0,0	test	ward_and_allport	1,0,0,2,3,0,0,0,0	89.0	28.0	0.359	1,2,3,0,0,0,0,0,0	to_hand	s617
294.032	0.4	0	PA_with_intermediate	1,0,0,2,0,0,3,0,0	test	ward_and_allport	1,0,0,2,3,0,0,0,0	71.0	28.0	0.4	1,2,3,0,0,0,0,0,0	to_board	s617
294.442	0.421	0	PA_with_intermediate	1,0,0,2,0,0,0,0,0	test	ward_and_allport	1,0,0,2,3,0,0,0,0	82.0	28.0	0.421	1,2,3,0,0,0,0,0,0	to_hand	s617
294.865	0.32	0	PA_with_intermediate	1,3,0,2,0,0,0,0,0	test	ward_and_allport	1,0,0,2,3,0,0,0,0	89.0	28.0	0.32	1,2,3,0,0,0,0,0,0	to_board	s617
295.193	2.139	0	PA_with_intermediate	1,0,0,2,0,0,0,0,0	test	ward_and_allport	1,0,0,2,3,0,0,0,0	89.0	28.0	2.139	1,2,3,0,0,0,0,0,0	to_hand	s617
297.333	0.708	0	PA_with_intermediate	1,0,0,2,3,0,0,0,0	test	ward_and_allport	1,0,0,2,3,0,0,0,0	71.0	28.0	0.708	1,2,3,0,0,0,0,0,0	to_board	s617
298.053	1.0	0	PA_with_intermediate	n/a	test	ward_and_allport	n/a	-1.0	28.0	n/a	n/a	feedback	s617
299.053	1.544	0	PA_with_intermediate	n/a	test	ward_and_allport	n/a	-1.0	28.0	n/a	n/a	ITI	s617
300.605	1.668	1	PA_without_intermediate	0,0,0,0,0,0,1,2,0	test	ward_and_allport	2,0,0,3,1,0,0,0,0	82.0	29.0	1.668	0,0,0,0,0,0,1,2,3	to_hand	s617
302.274	0.409	0	PA_without_intermediate	3,0,0,0,0,0,1,2,0	test	ward_and_allport	2,0,0,3,1,0,0,0,0	89.0	29.0	0.409	0,0,0,0,0,0,1,2,3	to_board	s617
302.692	2.295	0	PA_without_intermediate	0,0,0,0,0,0,1,2,0	test	ward_and_allport	2,0,0,3,1,0,0,0,0	89.0	29.0	2.295	0,0,0,0,0,0,1,2,3	to_hand	s617
304.988	0.657	0	PA_without_intermediate	0,0,0,3,0,0,1,2,0	test	ward_and_allport	2,0,0,3,1,0,0,0,0	71.0	29.0	0.657	0,0,0,0,0,0,1,2,3	to_board	s617
305.654	1.425	0	PA_without_intermediate	0,0,0,3,0,0,1,0,0	test	ward_and_allport	2,0,0,3,1,0,0,0,0	82.0	29.0	1.425	0,0,0,0,0,0,1,2,3	to_hand	s617
307.081	0.347	0	PA_without_intermediate	2,0,0,3,0,0,1,0,0	test	ward_and_allport	2,0,0,3,1,0,0,0,0	89.0	29.0	0.347	0,0,0,0,0,0,1,2,3	to_board	s617
307.437	0.853	0	PA_without_intermediate	2,0,0,3,0,0,0,0,0	test	ward_and_allport	2,0,0,3,1,0,0,0,0	82.0	29.0	0.853	0,0,0,0,0,0,1,2,3	to_hand	s617
308.292	0.337	0	PA_without_intermediate	2,0,0,3,1,0,0,0,0	test	ward_and_allport	2,0,0,3,1,0,0,0,0	71.0	29.0	0.337	0,0,0,0,0,0,1,2,3	to_board	s617
308.643	1.0	0	PA_without_intermediate	n/a	test	ward_and_allport	n/a	-1.0	29.0	n/a	n/a	feedback	s617
309.643	1.272	0	PA_without_intermediate	n/a	test	ward_and_allport	n/a	-1.0	29.0	n/a	n/a	ITI	s617
315.925	3.859	1	PA_with_intermediate	0,0,0,0,0,0,1,2,0	test	ward_and_allport	2,3,0,0,0,0,1,0,0	82.0	30.0	3.859	0,0,0,0,0,0,1,2,3	to_hand	s617
319.785	0.483	0	PA_with_intermediate	0,0,0,3,0,0,1,2,0	test	ward_and_allport	2,3,0,0,0,0,1,0,0	71.0	30.0	0.483	0,0,0,0,0,0,1,2,3	to_board	s617
320.278	0.911	0	PA_with_intermediate	0,0,0,3,0,0,1,0,0	test	ward_and_allport	2,3,0,0,0,0,1,0,0	82.0	30.0	0.911	0,0,0,0,0,0,1,2,3	to_hand	s617
321.189	0.277	0	PA_with_intermediate	2,0,0,3,0,0,1,0,0	test	ward_and_allport	2,3,0,0,0,0,1,0,0	89.0	30.0	0.277	0,0,0,0,0,0,1,2,3	to_board	s617
321.474	0.461	0	PA_with_intermediate	2,0,0,0,0,0,1,0,0	test	ward_and_allport	2,3,0,0,0,0,1,0,0	71.0	30.0	0.461	0,0,0,0,0,0,1,2,3	to_hand	s617
321.936	0.252	0	PA_with_intermediate	2,3,0,0,0,0,1,0,0	test	ward_and_allport	2,3,0,0,0,0,1,0,0	89.0	30.0	0.252	0,0,0,0,0,0,1,2,3	to_board	s617
322.204	1.0	0	PA_with_intermediate	n/a	test	ward_and_allport	n/a	-1.0	30.0	n/a	n/a	feedback	s617
323.204	3.04	0	PA_with_intermediate	n/a	test	ward_and_allport	n/a	-1.0	30.0	n/a	n/a	ITI	s617
326.255	6.601	1	PA_with_intermediate	0,0,0,1,2,0,0,0,0	test	ward_and_allport	0,0,0,1,3,0,2,0,0	71.0	31.0	6.601	0,0,0,1,2,3,0,0,0	to_hand	s617
332.857	0.293	0	PA_with_intermediate	3,0,0,1,2,0,0,0,0	test	ward_and_allport	0,0,0,1,3,0,2,0,0	89.0	31.0	0.293	0,0,0,1,2,3,0,0,0	to_board	s617
333.161	0.416	0	PA_with_intermediate	3,0,0,1,0,0,0,0,0	test	ward_and_allport	0,0,0,1,3,0,2,0,0	71.0	31.0	0.416	0,0,0,1,2,3,0,0,0	to_hand	s617
333.578	0.343	0	PA_with_intermediate	3,0,0,1,0,0,2,0,0	test	ward_and_allport	0,0,0,1,3,0,2,0,0	82.0	31.0	0.343	0,0,0,1,2,3,0,0,0	to_board	s617
333.931	0.398	0	PA_with_intermediate	0,0,0,1,0,0,2,0,0	test	ward_and_allport	0,0,0,1,3,0,2,0,0	89.0	31.0	0.398	0,0,0,1,2,3,0,0,0	to_hand	s617
334.33	0.348	0	PA_with_intermediate	0,0,0,1,3,0,2,0,0	test	ward_and_allport	0,0,0,1,3,0,2,0,0	71.0	31.0	0.348	0,0,0,1,2,3,0,0,0	to_board	s617
334.692	1.0	0	PA_with_intermediate	n/a	test	ward_and_allport	n/a	-1.0	31.0	n/a	n/a	feedback	s617
335.692	1.272	0	PA_with_intermediate	n/a	test	ward_and_allport	n/a	-1.0	31.0	n/a	n/a	ITI	s617
336.975	3.352	1	PA_with_intermediate	1,2,0,0,0,0,0,0,0	test	ward_and_allport	1,3,0,0,0,0,2,0,0	89.0	32.0	3.352	1,2,3,0,0,0,0,0,0	to_hand	s617
340.328	0.315	0	PA_with_intermediate	1,2,0,3,0,0,0,0,0	test	ward_and_allport	1,3,0,0,0,0,2,0,0	71.0	32.0	0.315	1,2,3,0,0,0,0,0,0	to_board	s617
340.654	0.33	0	PA_with_intermediate	1,0,0,3,0,0,0,0,0	test	ward_and_allport	1,3,0,0,0,0,2,0,0	89.0	32.0	0.33	1,2,3,0,0,0,0,0,0	to_hand	s617
340.986	0.371	0	PA_with_intermediate	1,0,0,3,0,0,2,0,0	test	ward_and_allport	1,3,0,0,0,0,2,0,0	82.0	32.0	0.371	1,2,3,0,0,0,0,0,0	to_board	s617
341.368	0.309	0	PA_with_intermediate	1,0,0,0,0,0,2,0,0	test	ward_and_allport	1,3,0,0,0,0,2,0,0	71.0	32.0	0.309	1,2,3,0,0,0,0,0,0	to_hand	s617
341.678	0.295	0	PA_with_intermediate	1,3,0,0,0,0,2,0,0	test	ward_and_allport	1,3,0,0,0,0,2,0,0	89.0	32.0	0.295	1,2,3,0,0,0,0,0,0	to_board	s617
341.985	1.0	0	PA_with_intermediate	n/a	test	ward_and_allport	n/a	-1.0	32.0	n/a	n/a	feedback	s617
342.985	1.136	0	PA_with_intermediate	n/a	test	ward_and_allport	n/a	-1.0	32.0	n/a	n/a	ITI	s617
344.128	2.962	1	PA_with_intermediate	0,0,0,1,2,0,0,0,0	test	ward_and_allport	0,0,0,1,0,0,2,3,0	71.0	33.0	2.962	0,0,0,1,2,3,0,0,0	to_hand	s617
347.092	0.273	0	PA_with_intermediate	3,0,0,1,2,0,0,0,0	test	ward_and_allport	0,0,0,1,0,0,2,3,0	89.0	33.0	0.273	0,0,0,1,2,3,0,0,0	to_board	s617
347.372	0.308	0	PA_with_intermediate	3,0,0,1,0,0,0,0,0	test	ward_and_allport	0,0,0,1,0,0,2,3,0	71.0	33.0	0.308	0,0,0,1,2,3,0,0,0	to_hand	s617
347.681	0.351	0	PA_with_intermediate	3,0,0,1,0,0,2,0,0	test	ward_and_allport	0,0,0,1,0,0,2,3,0	82.0	33.0	0.351	0,0,0,1,2,3,0,0,0	to_board	s617
348.043	0.293	0	PA_with_intermediate	0,0,0,1,0,0,2,0,0	test	ward_and_allport	0,0,0,1,0,0,2,3,0	89.0	33.0	0.293	0,0,0,1,2,3,0,0,0	to_hand	s617
348.338	0.434	0	PA_with_intermediate	0,0,0,1,0,0,2,3,0	test	ward_and_allport	0,0,0,1,0,0,2,3,0	82.0	33.0	0.434	0,0,0,1,2,3,0,0,0	to_board	s617
348.783	1.0	0	PA_with_intermediate	n/a	test	ward_and_allport	n/a	-1.0	33.0	n/a	n/a	feedback	s617
349.783	1.0	0	PA_with_intermediate	n/a	test	ward_and_allport	n/a	-1.0	33.0	n/a	n/a	ITI	s617
350.791	1.911	1	PA_with_intermediate	1,2,0,0,0,0,0,0,0	test	ward_and_allport	1,0,0,2,3,0,0,0,0	89.0	34.0	1.911	1,2,3,0,0,0,0,0,0	to_hand	s617
352.704	0.311	0	PA_with_intermediate	1,2,0,0,0,0,3,0,0	test	ward_and_allport	1,0,0,2,3,0,0,0,0	82.0	34.0	0.311	1,2,3,0,0,0,0,0,0	to_board	s617
353.021	0.298	0	PA_with_intermediate	1,0,0,0,0,0,3,0,0	test	ward_and_allport	1,0,0,2,3,0,0,0,0	89.0	34.0	0.298	1,2,3,0,0,0,0,0,0	to_hand	s617
353.32	0.425	0	PA_with_intermediate	1,0,0,2,0,0,3,0,0	test	ward_and_allport	1,0,0,2,3,0,0,0,0	71.0	34.0	0.425	1,2,3,0,0,0,0,0,0	to_board	s617
353.753	0.894	0	PA_with_intermediate	1,0,0,2,0,0,0,0,0	test	ward_and_allport	1,0,0,2,3,0,0,0,0	82.0	34.0	0.894	1,2,3,0,0,0,0,0,0	to_hand	s617
354.648	0.258	0	PA_with_intermediate	1,3,0,2,0,0,0,0,0	test	ward_and_allport	1,0,0,2,3,0,0,0,0	89.0	34.0	0.258	1,2,3,0,0,0,0,0,0	to_board	s617
354.912	2.008	0	PA_with_intermediate	1,0,0,2,0,0,0,0,0	test	ward_and_allport	1,0,0,2,3,0,0,0,0	89.0	34.0	2.008	1,2,3,0,0,0,0,0,0	to_hand	s617
356.922	0.296	0	PA_with_intermediate	1,0,0,2,3,0,0,0,0	test	ward_and_allport	1,0,0,2,3,0,0,0,0	71.0	34.0	0.296	1,2,3,0,0,0,0,0,0	to_board	s617
357.226	1.0	0	PA_with_intermediate	n/a	test	ward_and_allport	n/a	-1.0	34.0	n/a	n/a	feedback	s617
358.226	1.0	0	PA_with_intermediate	n/a	test	ward_and_allport	n/a	-1.0	34.0	n/a	n/a	ITI	s617
359.236	3.304	1	PA_without_intermediate	0,0,0,1,2,0,0,0,0	test	ward_and_allport	3,1,0,0,0,0,2,0,0	71.0	35.0	3.304	0,0,0,1,2,3,0,0,0	to_hand	s617
362.541	0.277	0	PA_without_intermediate	3,0,0,1,2,0,0,0,0	test	ward_and_allport	3,1,0,0,0,0,2,0,0	89.0	35.0	0.277	0,0,0,1,2,3,0,0,0	to_board	s617
362.831	0.377	0	PA_without_intermediate	3,0,0,1,0,0,0,0,0	test	ward_and_allport	3,1,0,0,0,0,2,0,0	71.0	35.0	0.377	0,0,0,1,2,3,0,0,0	to_hand	s617
363.209	0.339	0	PA_without_intermediate	3,0,0,1,0,0,2,0,0	test	ward_and_allport	3,1,0,0,0,0,2,0,0	82.0	35.0	0.339	0,0,0,1,2,3,0,0,0	to_board	s617
363.56	0.293	0	PA_without_intermediate	3,0,0,0,0,0,2,0,0	test	ward_and_allport	3,1,0,0,0,0,2,0,0	71.0	35.0	0.293	0,0,0,1,2,3,0,0,0	to_hand	s617
363.854	0.285	0	PA_without_intermediate	3,1,0,0,0,0,2,0,0	test	ward_and_allport	3,1,0,0,0,0,2,0,0	89.0	35.0	0.285	0,0,0,1,2,3,0,0,0	to_board	s617
364.152	1.0	0	PA_without_intermediate	n/a	test	ward_and_allport	n/a	-1.0	35.0	n/a	n/a	feedback	s617
365.152	1.408	0	PA_without_intermediate	n/a	test	ward_and_allport	n/a	-1.0	35.0	n/a	n/a	ITI	s617
366.567	2.628	1	PA_with_intermediate	1,2,0,0,0,0,0,0,0	test	ward_and_allport	1,3,0,0,0,0,2,0,0	89.0	36.0	2.628	1,2,3,0,0,0,0,0,0	to_hand	s617
369.196	0.699	0	PA_with_intermediate	1,2,0,3,0,0,0,0,0	test	ward_and_allport	1,3,0,0,0,0,2,0,0	71.0	36.0	0.699	1,2,3,0,0,0,0,0,0	to_board	s617
369.902	0.343	0	PA_with_intermediate	1,0,0,3,0,0,0,0,0	test	ward_and_allport	1,3,0,0,0,0,2,0,0	89.0	36.0	0.343	1,2,3,0,0,0,0,0,0	to_hand	s617
370.247	0.407	0	PA_with_intermediate	1,0,0,3,0,0,2,0,0	test	ward_and_allport	1,3,0,0,0,0,2,0,0	82.0	36.0	0.407	1,2,3,0,0,0,0,0,0	to_board	s617
370.666	1.265	0	PA_with_intermediate	1,0,0,0,0,0,2,0,0	test	ward_and_allport	1,3,0,0,0,0,2,0,0	71.0	36.0	1.265	1,2,3,0,0,0,0,0,0	to_hand	s617
371.933	0.231	0	PA_with_intermediate	1,3,0,0,0,0,2,0,0	test	ward_and_allport	1,3,0,0,0,0,2,0,0	89.0	36.0	0.231	1,2,3,0,0,0,0,0,0	to_board	s617
372.179	1.0	0	PA_with_intermediate	n/a	test	ward_and_allport	n/a	-1.0	36.0	n/a	n/a	feedback	s617
373.179	2.768	0	PA_with_intermediate	n/a	test	ward_and_allport	n/a	-1.0	36.0	n/a	n/a	ITI	s617
375.96	2.737	1	PA_with_intermediate	0,0,0,1,2,0,0,0,0	test	ward_and_allport	0,0,0,1,3,0,2,0,0	71.0	37.0	2.737	0,0,0,1,2,3,0,0,0	to_hand	s617
378.698	0.313	0	PA_with_intermediate	3,0,0,1,2,0,0,0,0	test	ward_and_allport	0,0,0,1,3,0,2,0,0	89.0	37.0	0.313	0,0,0,1,2,3,0,0,0	to_board	s617
379.02	0.594	0	PA_with_intermediate	3,0,0,1,0,0,0,0,0	test	ward_and_allport	0,0,0,1,3,0,2,0,0	71.0	37.0	0.594	0,0,0,1,2,3,0,0,0	to_hand	s617
379.616	0.327	0	PA_with_intermediate	3,0,0,1,0,0,2,0,0	test	ward_and_allport	0,0,0,1,3,0,2,0,0	82.0	37.0	0.327	0,0,0,1,2,3,0,0,0	to_board	s617
379.954	0.383	0	PA_with_intermediate	0,0,0,1,0,0,2,0,0	test	ward_and_allport	0,0,0,1,3,0,2,0,0	89.0	37.0	0.383	0,0,0,1,2,3,0,0,0	to_hand	s617
380.338	0.281	0	PA_with_intermediate	0,0,0,1,3,0,2,0,0	test	ward_and_allport	0,0,0,1,3,0,2,0,0	71.0	37.0	0.281	0,0,0,1,2,3,0,0,0	to_board	s617
380.632	1.0	0	PA_with_intermediate	n/a	test	ward_and_allport	n/a	-1.0	37.0	n/a	n/a	feedback	s617
381.632	1.68	0	PA_with_intermediate	n/a	test	ward_and_allport	n/a	-1.0	37.0	n/a	n/a	ITI	s617
383.323	1.807	1	PA_without_intermediate	1,2,0,0,0,0,0,0,0	test	ward_and_allport	0,0,0,1,0,0,3,2,0	89.0	38.0	1.807	1,2,3,0,0,0,0,0,0	to_hand	s617
385.131	0.302	0	PA_without_intermediate	1,2,0,0,0,0,3,0,0	test	ward_and_allport	0,0,0,1,0,0,3,2,0	82.0	38.0	0.302	1,2,3,0,0,0,0,0,0	to_board	s617
385.44	0.318	0	PA_without_intermediate	1,0,0,0,0,0,3,0,0	test	ward_and_allport	0,0,0,1,0,0,3,2,0	89.0	38.0	0.318	1,2,3,0,0,0,0,0,0	to_hand	s617
385.759	0.301	0	PA_without_intermediate	1,0,0,0,0,0,3,2,0	test	ward_and_allport	0,0,0,1,0,0,3,2,0	82.0	38.0	0.301	1,2,3,0,0,0,0,0,0	to_board	s617
386.069	0.575	0	PA_without_intermediate	0,0,0,0,0,0,3,2,0	test	ward_and_allport	0,0,0,1,0,0,3,2,0	89.0	38.0	0.575	1,2,3,0,0,0,0,0,0	to_hand	s617
386.645	0.241	0	PA_without_intermediate	0,0,0,1,0,0,3,2,0	test	ward_and_allport	0,0,0,1,0,0,3,2,0	71.0	38.0	0.241	1,2,3,0,0,0,0,0,0	to_board	s617
386.894	1.0	0	PA_without_intermediate	n/a	test	ward_and_allport	n/a	-1.0	38.0	n/a	n/a	feedback	s617
387.894	2.224	0	PA_without_intermediate	n/a	test	ward_and_allport	n/a	-1.0	38.0	n/a	n/a	ITI	s617
390.128	1.378	1	PA_without_intermediate	1,2,0,0,0,0,0,0,0	test	ward_and_allport	0,0,0,1,0,0,3,2,0	89.0	39.0	1.378	1,2,3,0,0,0,0,0,0	to_hand	s617
391.507	0.301	0	PA_without_intermediate	1,2,0,0,0,0,3,0,0	test	ward_and_allport	0,0,0,1,0,0,3,2,0	82.0	39.0	0.301	1,2,3,0,0,0,0,0,0	to_board	s617
391.819	0.293	0	PA_without_intermediate	1,0,0,0,0,0,3,0,0	test	ward_and_allport	0,0,0,1,0,0,3,2,0	89.0	39.0	0.293	1,2,3,0,0,0,0,0,0	to_hand	s617
392.113	1.001	0	PA_without_intermediate	1,0,0,0,0,0,3,2,0	test	ward_and_allport	0,0,0,1,0,0,3,2,0	82.0	39.0	1.001	1,2,3,0,0,0,0,0,0	to_board	s617
393.126	0.383	0	PA_without_intermediate	0,0,0,0,0,0,3,2,0	test	ward_and_allport	0,0,0,1,0,0,3,2,0	89.0	39.0	0.383	1,2,3,0,0,0,0,0,0	to_hand	s617
393.51	0.286	0	PA_without_intermediate	0,0,0,1,0,0,3,2,0	test	ward_and_allport	0,0,0,1,0,0,3,2,0	71.0	39.0	0.286	1,2,3,0,0,0,0,0,0	to_board	s617
393.809	1.0	0	PA_without_intermediate	n/a	test	ward_and_allport	n/a	-1.0	39.0	n/a	n/a	feedback	s617
394.809	2.36	0	PA_without_intermediate	n/a	test	ward_and_allport	n/a	-1.0	39.0	n/a	n/a	ITI	s617
397.177	1.847	1	PA_without_intermediate	0,0,0,1,2,0,0,0,0	test	ward_and_allport	2,0,0,0,0,0,3,1,0	71.0	40.0	1.847	0,0,0,1,2,3,0,0,0	to_hand	s617
399.025	0.347	0	PA_without_intermediate	0,0,0,1,2,0,3,0,0	test	ward_and_allport	2,0,0,0,0,0,3,1,0	82.0	40.0	0.347	0,0,0,1,2,3,0,0,0	to_board	s617
399.382	0.488	0	PA_without_intermediate	0,0,0,1,0,0,3,0,0	test	ward_and_allport	2,0,0,0,0,0,3,1,0	71.0	40.0	0.488	0,0,0,1,2,3,0,0,0	to_hand	s617
399.871	0.318	0	PA_without_intermediate	2,0,0,1,0,0,3,0,0	test	ward_and_allport	2,0,0,0,0,0,3,1,0	89.0	40.0	0.318	0,0,0,1,2,3,0,0,0	to_board	s617
400.201	0.269	0	PA_without_intermediate	2,0,0,0,0,0,3,0,0	test	ward_and_allport	2,0,0,0,0,0,3,1,0	71.0	40.0	0.269	0,0,0,1,2,3,0,0,0	to_hand	s617
400.472	0.313	0	PA_without_intermediate	2,0,0,0,0,0,3,1,0	test	ward_and_allport	2,0,0,0,0,0,3,1,0	82.0	40.0	0.313	0,0,0,1,2,3,0,0,0	to_board	s617
400.801	1.0	0	PA_without_intermediate	n/a	test	ward_and_allport	n/a	-1.0	40.0	n/a	n/a	feedback	s617
401.801	1.0	0	PA_without_intermediate	n/a	test	ward_and_allport	n/a	-1.0	40.0	n/a	n/a	ITI	s617
402.81	1.64	1	PA_without_intermediate	0,0,0,0,0,0,1,2,0	test	ward_and_allport	3,1,0,2,0,0,0,0,0	82.0	41.0	1.64	0,0,0,0,0,0,1,2,3	to_hand	s617
404.451	0.293	0	PA_without_intermediate	3,0,0,0,0,0,1,2,0	test	ward_and_allport	3,1,0,2,0,0,0,0,0	89.0	41.0	0.293	0,0,0,0,0,0,1,2,3	to_board	s617
404.752	1.077	0	PA_without_intermediate	3,0,0,0,0,0,1,0,0	test	ward_and_allport	3,1,0,2,0,0,0,0,0	82.0	41.0	1.077	0,0,0,0,0,0,1,2,3	to_hand	s617
405.83	0.328	0	PA_without_intermediate	3,0,0,2,0,0,1,0,0	test	ward_and_allport	3,1,0,2,0,0,0,0,0	71.0	41.0	0.328	0,0,0,0,0,0,1,2,3	to_board	s617
406.166	0.843	0	PA_without_intermediate	3,0,0,2,0,0,0,0,0	test	ward_and_allport	3,1,0,2,0,0,0,0,0	82.0	41.0	0.843	0,0,0,0,0,0,1,2,3	to_hand	s617
407.011	0.3	0	PA_without_intermediate	3,1,0,2,0,0,0,0,0	test	ward_and_allport	3,1,0,2,0,0,0,0,0	89.0	41.0	0.3	0,0,0,0,0,0,1,2,3	to_board	s617
407.321	1.0	0	PA_without_intermediate	n/a	test	ward_and_allport	n/a	-1.0	41.0	n/a	n/a	feedback	s617
408.321	1.408	0	PA_without_intermediate	n/a	test	ward_and_allport	n/a	-1.0	41.0	n/a	n/a	ITI	s617
409.736	2.131	1	PA_with_intermediate	0,0,0,1,2,0,0,0,0	test	ward_and_allport	2,3,0,1,0,0,0,0,0	71.0	42.0	2.131	0,0,0,1,2,3,0,0,0	to_hand	s617
411.868	0.341	0	PA_with_intermediate	0,0,0,1,2,0,3,0,0	test	ward_and_allport	2,3,0,1,0,0,0,0,0	82.0	42.0	0.341	0,0,0,1,2,3,0,0,0	to_board	s617
412.218	0.36	0	PA_with_intermediate	0,0,0,1,0,0,3,0,0	test	ward_and_allport	2,3,0,1,0,0,0,0,0	71.0	42.0	0.36	0,0,0,1,2,3,0,0,0	to_hand	s617
412.58	0.3	0	PA_with_intermediate	2,0,0,1,0,0,3,0,0	test	ward_and_allport	2,3,0,1,0,0,0,0,0	89.0	42.0	0.3	0,0,0,1,2,3,0,0,0	to_board	s617
412.891	0.9	0	PA_with_intermediate	2,0,0,1,0,0,0,0,0	test	ward_and_allport	2,3,0,1,0,0,0,0,0	82.0	42.0	0.9	0,0,0,1,2,3,0,0,0	to_hand	s617
413.793	0.314	0	PA_with_intermediate	2,3,0,1,0,0,0,0,0	test	ward_and_allport	2,3,0,1,0,0,0,0,0	89.0	42.0	0.314	0,0,0,1,2,3,0,0,0	to_board	s617
414.121	1.0	0	PA_with_intermediate	n/a	test	ward_and_allport	n/a	-1.0	42.0	n/a	n/a	feedback	s617
415.121	1.136	0	PA_with_intermediate	n/a	test	ward_and_allport	n/a	-1.0	42.0	n/a	n/a	ITI	s617
416.269	2.231	1	PA_without_intermediate	1,2,0,0,0,0,0,0,0	test	ward_and_allport	0,0,0,3,1,0,2,0,0	89.0	43.0	2.231	1,2,3,0,0,0,0,0,0	to_hand	s617
418.502	1.277	0	PA_without_intermediate	1,2,0,3,0,0,0,0,0	test	ward_and_allport	0,0,0,3,1,0,2,0,0	71.0	43.0	1.277	1,2,3,0,0,0,0,0,0	to_board	s617
419.788	0.853	0	PA_without_intermediate	1,0,0,3,0,0,0,0,0	test	ward_and_allport	0,0,0,3,1,0,2,0,0	89.0	43.0	0.853	1,2,3,0,0,0,0,0,0	to_hand	s617
420.641	0.37	0	PA_without_intermediate	1,0,0,3,0,0,2,0,0	test	ward_and_allport	0,0,0,3,1,0,2,0,0	82.0	43.0	0.37	1,2,3,0,0,0,0,0,0	to_board	s617
421.022	0.299	0	PA_without_intermediate	0,0,0,3,0,0,2,0,0	test	ward_and_allport	0,0,0,3,1,0,2,0,0	89.0	43.0	0.299	1,2,3,0,0,0,0,0,0	to_hand	s617
421.322	0.295	0	PA_without_intermediate	0,0,0,3,1,0,2,0,0	test	ward_and_allport	0,0,0,3,1,0,2,0,0	71.0	43.0	0.295	1,2,3,0,0,0,0,0,0	to_board	s617
421.626	1.0	0	PA_without_intermediate	n/a	test	ward_and_allport	n/a	-1.0	43.0	n/a	n/a	feedback	s617
422.626	4.128	0	PA_without_intermediate	n/a	test	ward_and_allport	n/a	-1.0	43.0	n/a	n/a	ITI	s617
426.764	1.727	1	PA_without_intermediate	0,0,0,0,0,0,1,2,0	test	ward_and_allport	3,2,0,1,0,0,0,0,0	82.0	44.0	1.727	0,0,0,0,0,0,1,2,3	to_hand	s617
428.492	0.316	0	PA_without_intermediate	3,0,0,0,0,0,1,2,0	test	ward_and_allport	3,2,0,1,0,0,0,0,0	89.0	44.0	0.316	0,0,0,0,0,0,1,2,3	to_board	s617
428.821	0.895	0	PA_without_intermediate	3,0,0,0,0,0,1,0,0	test	ward_and_allport	3,2,0,1,0,0,0,0,0	82.0	44.0	0.895	0,0,0,0,0,0,1,2,3	to_hand	s617
429.717	0.332	0	PA_without_intermediate	3,2,0,0,0,0,1,0,0	test	ward_and_allport	3,2,0,1,0,0,0,0,0	89.0	44.0	0.332	0,0,0,0,0,0,1,2,3	to_board	s617
430.064	1.477	0	PA_without_intermediate	3,2,0,0,0,0,0,0,0	test	ward_and_allport	3,2,0,1,0,0,0,0,0	82.0	44.0	1.477	0,0,0,0,0,0,1,2,3	to_hand	s617
431.542	0.224	0	PA_without_intermediate	3,2,0,1,0,0,0,0,0	test	ward_and_allport	3,2,0,1,0,0,0,0,0	71.0	44.0	0.224	0,0,0,0,0,0,1,2,3	to_board	s617
431.781	1.0	0	PA_without_intermediate	n/a	test	ward_and_allport	n/a	-1.0	44.0	n/a	n/a	feedback	s617
432.781	1.136	0	PA_without_intermediate	n/a	test	ward_and_allport	n/a	-1.0	44.0	n/a	n/a	ITI	s617
438.93	1.617	1	PA_without_intermediate	0,0,0,1,2,0,0,0,0	test	ward_and_allport	3,1,0,0,0,0,2,0,0	71.0	45.0	1.617	0,0,0,1,2,3,0,0,0	to_hand	s617
440.549	0.279	0	PA_without_intermediate	3,0,0,1,2,0,0,0,0	test	ward_and_allport	3,1,0,0,0,0,2,0,0	89.0	45.0	0.279	0,0,0,1,2,3,0,0,0	to_board	s617
440.838	0.309	0	PA_without_intermediate	3,0,0,1,0,0,0,0,0	test	ward_and_allport	3,1,0,0,0,0,2,0,0	71.0	45.0	0.309	0,0,0,1,2,3,0,0,0	to_hand	s617
441.149	0.29	0	PA_without_intermediate	3,0,0,1,0,0,2,0,0	test	ward_and_allport	3,1,0,0,0,0,2,0,0	82.0	45.0	0.29	0,0,0,1,2,3,0,0,0	to_board	s617
441.451	0.21	0	PA_without_intermediate	3,0,0,0,0,0,2,0,0	test	ward_and_allport	3,1,0,0,0,0,2,0,0	71.0	45.0	0.21	0,0,0,1,2,3,0,0,0	to_hand	s617
441.663	0.268	0	PA_without_intermediate	3,1,0,0,0,0,2,0,0	test	ward_and_allport	3,1,0,0,0,0,2,0,0	89.0	45.0	0.268	0,0,0,1,2,3,0,0,0	to_board	s617
441.949	1.0	0	PA_without_intermediate	n/a	test	ward_and_allport	n/a	-1.0	45.0	n/a	n/a	feedback	s617
442.949	4.264	0	PA_without_intermediate	n/a	test	ward_and_allport	n/a	-1.0	45.0	n/a	n/a	ITI	s617
447.227	2.105	1	PA_with_intermediate	1,2,0,0,0,0,0,0,0	test	ward_and_allport	1,0,0,0,0,0,2,3,0	89.0	46.0	2.105	1,2,3,0,0,0,0,0,0	to_hand	s617
449.333	0.283	0	PA_with_intermediate	1,2,0,3,0,0,0,0,0	test	ward_and_allport	1,0,0,0,0,0,2,3,0	71.0	46.0	0.283	1,2,3,0,0,0,0,0,0	to_board	s617
449.63	0.783	0	PA_with_intermediate	1,0,0,3,0,0,0,0,0	test	ward_and_allport	1,0,0,0,0,0,2,3,0	89.0	46.0	0.783	1,2,3,0,0,0,0,0,0	to_hand	s617
450.414	0.403	0	PA_with_intermediate	1,0,0,3,0,0,2,0,0	test	ward_and_allport	1,0,0,0,0,0,2,3,0	82.0	46.0	0.403	1,2,3,0,0,0,0,0,0	to_board	s617
450.83	0.381	0	PA_with_intermediate	1,0,0,0,0,0,2,0,0	test	ward_and_allport	1,0,0,0,0,0,2,3,0	71.0	46.0	0.381	1,2,3,0,0,0,0,0,0	to_hand	s617
451.214	0.307	0	PA_with_intermediate	1,0,0,0,0,0,2,3,0	test	ward_and_allport	1,0,0,0,0,0,2,3,0	82.0	46.0	0.307	1,2,3,0,0,0,0,0,0	to_board	s617
451.536	1.0	0	PA_with_intermediate	n/a	test	ward_and_allport	n/a	-1.0	46.0	n/a	n/a	feedback	s617
452.536	3.04	0	PA_with_intermediate	n/a	test	ward_and_allport	n/a	-1.0	46.0	n/a	n/a	ITI	s617
455.585	2.263	1	PA_with_intermediate	0,0,0,1,2,0,0,0,0	test	ward_and_allport	2,0,0,1,3,0,0,0,0	71.0	47.0	2.263	0,0,0,1,2,3,0,0,0	to_hand	s617
457.849	0.371	0	PA_with_intermediate	0,0,0,1,2,0,3,0,0	test	ward_and_allport	2,0,0,1,3,0,0,0,0	82.0	47.0	0.371	0,0,0,1,2,3,0,0,0	to_board	s617
458.229	0.299	0	PA_with_intermediate	0,0,0,1,0,0,3,0,0	test	ward_and_allport	2,0,0,1,3,0,0,0,0	71.0	47.0	0.299	0,0,0,1,2,3,0,0,0	to_hand	s617
458.53	0.304	0	PA_with_intermediate	2,0,0,1,0,0,3,0,0	test	ward_and_allport	2,0,0,1,3,0,0,0,0	89.0	47.0	0.304	0,0,0,1,2,3,0,0,0	to_board	s617
458.847	0.276	0	PA_with_intermediate	2,0,0,0,0,0,3,0,0	test	ward_and_allport	2,0,0,1,3,0,0,0,0	71.0	47.0	0.276	0,0,0,1,2,3,0,0,0	to_hand	s617
459.124	1.253	0	PA_with_intermediate	2,0,0,1,0,0,3,0,0	test	ward_and_allport	2,0,0,1,3,0,0,0,0	71.0	47.0	1.253	0,0,0,1,2,3,0,0,0	to_board	s617
460.392	0.713	0	PA_with_intermediate	2,0,0,1,0,0,0,0,0	test	ward_and_allport	2,0,0,1,3,0,0,0,0	82.0	47.0	0.713	0,0,0,1,2,3,0,0,0	to_hand	s617
461.106	0.239	0	PA_with_intermediate	2,0,0,1,3,0,0,0,0	test	ward_and_allport	2,0,0,1,3,0,0,0,0	71.0	47.0	0.239	0,0,0,1,2,3,0,0,0	to_board	s617
461.36	1.0	0	PA_with_intermediate	n/a	test	ward_and_allport	n/a	-1.0	47.0	n/a	n/a	feedback	s617
462.36	1.136	0	PA_with_intermediate	n/a	test	ward_and_allport	n/a	-1.0	47.0	n/a	n/a	ITI	s617
n/a	n/a	0	n/a	n/a	n/a	n/a	n/a	n/a	n/a	n/a	n/a	ITI	n/a
