onset	duration	EV	action	clicked_on_loss_card	experiment_exp_id	gain_amount	gain_probability	key_press	loss_amount	loss_probability	num_cards	num_click_in_round	num_loss_cards	risk	response_time	total_cards	trial_id	worker_id
3.009	3.23	-1.1324193072472888	draw_card	0.0	columbia_card_task_fmri	12.0	0.8333333333333334	89.0	-70.0	0.1666666666666666	6.0	1.0	1.0	-2.0679465036827764	3.23	n/a	stim	s617
6.243	1.829	-3.865752640580621	draw_card	1.0	columbia_card_task_fmri	12.0	0.8	89.0	-70.0	0.2	6.0	2.0	1.0	0.1721388947784419	1.829	2.0	stim	s617
8.079	2.25	n/a	-1.0	n/a	columbia_card_task_fmri	n/a	n/a	-1.0	n/a	n/a	n/a	n/a	n/a	n/a	n/a	n/a	feedback	s617
10.329	0.0	n/a	-1.0	n/a	columbia_card_task_fmri	n/a	n/a	-1.0	n/a	n/a	n/a	n/a	n/a	n/a	n/a	n/a	ITI	s617
10.332	1.597	-0.2990859739139548	draw_card	1.0	columbia_card_task_fmri	14.0	0.8333333333333334	89.0	-75.0	0.1666666666666666	6.0	1.0	1.0	0.5404322526344245	1.597	1.0	stim	s617
11.931	2.25	n/a	-1.0	n/a	columbia_card_task_fmri	n/a	n/a	-1.0	n/a	n/a	n/a	n/a	n/a	n/a	n/a	n/a	feedback	s617
14.181	0.136	n/a	-1.0	n/a	columbia_card_task_fmri	n/a	n/a	-1.0	n/a	n/a	n/a	n/a	n/a	n/a	n/a	n/a	ITI	s617
14.318	1.961	1.3675806927527112	draw_card	0.0	columbia_card_task_fmri	15.0	0.8333333333333334	89.0	-70.0	0.1666666666666666	6.0	1.0	1.0	-0.9500772983233254	1.961	n/a	stim	s617
16.28	1.83	-1.4657526405806227	draw_card	1.0	columbia_card_task_fmri	15.0	0.8	89.0	-70.0	0.2	6.0	2.0	1.0	1.3719853624387213	1.83	2.0	stim	s617
18.113	2.25	n/a	-1.0	n/a	columbia_card_task_fmri	n/a	n/a	-1.0	n/a	n/a	n/a	n/a	n/a	n/a	n/a	n/a	feedback	s617
20.363	0.34	n/a	-1.0	n/a	columbia_card_task_fmri	n/a	n/a	-1.0	n/a	n/a	n/a	n/a	n/a	n/a	n/a	n/a	ITI	s617
20.705	1.233	2.2009140260860454	draw_card	0.0	columbia_card_task_fmri	17.0	0.8333333333333334	89.0	-75.0	0.1666666666666666	6.0	1.0	1.0	1.6583259656109206	1.233	n/a	stim	s617
21.94	0.733	-0.8657526405806213	end_round	0.0	columbia_card_task_fmri	17.0	0.8	71.0	-75.0	0.2	6.0	2.0	1.0	4.171666053101269	0.733	1.0	stim	s617
22.679	2.25	n/a	-1.0	n/a	columbia_card_task_fmri	n/a	n/a	-1.0	n/a	n/a	n/a	n/a	n/a	n/a	n/a	n/a	feedback	s617
24.929	0.408	n/a	-1.0	n/a	columbia_card_task_fmri	n/a	n/a	-1.0	n/a	n/a	n/a	n/a	n/a	n/a	n/a	n/a	ITI	s617
25.339	1.657	3.534247359419377	draw_card	1.0	columbia_card_task_fmri	24.0	0.75	89.0	-60.0	0.25	8.0	1.0	2.0	3.744778523149293	1.657	1.0	stim	s617
26.999	2.25	n/a	-1.0	n/a	columbia_card_task_fmri	n/a	n/a	-1.0	n/a	n/a	n/a	n/a	n/a	n/a	n/a	n/a	feedback	s617
29.249	0.136	n/a	-1.0	n/a	columbia_card_task_fmri	n/a	n/a	-1.0	n/a	n/a	n/a	n/a	n/a	n/a	n/a	n/a	ITI	s617
29.387	1.796	3.534247359419377	draw_card	0.0	columbia_card_task_fmri	29.0	0.75	89.0	-75.0	0.25	8.0	1.0	2.0	12.4042781397848	1.796	n/a	stim	s617
31.186	2.258	-0.1800383548663344	draw_card	0.0	columbia_card_task_fmri	29.0	0.7142857142857143	89.0	-75.0	0.2857142857142857	8.0	2.0	2.0	14.353236640184498	2.258	n/a	stim	s617
33.446	1.788	-5.132419307247287	end_round	0.0	columbia_card_task_fmri	29.0	0.6666666666666667	71.0	-75.0	0.3333333333333333	8.0	3.0	2.0	16.39676924357223	1.788	2.0	stim	s617
35.24	2.25	n/a	-1.0	n/a	columbia_card_task_fmri	n/a	n/a	-1.0	n/a	n/a	n/a	n/a	n/a	n/a	n/a	n/a	feedback	s617
37.49	0.136	n/a	-1.0	n/a	columbia_card_task_fmri	n/a	n/a	-1.0	n/a	n/a	n/a	n/a	n/a	n/a	n/a	n/a	ITI	s617
37.627	2.517	-0.6879748628028424	draw_card	0.0	columbia_card_task_fmri	17.0	0.7777777777777778	89.0	-65.0	0.2222222222222222	9.0	1.0	2.0	1.462630393211029	2.517	n/a	stim	s617
40.146	0.974	-2.9657526405806225	draw_card	0.0	columbia_card_task_fmri	17.0	0.75	89.0	-65.0	0.25	9.0	2.0	2.0	2.878848798888278	0.974	n/a	stim	s617
41.123	1.207	-5.8943240691520495	draw_card	0.0	columbia_card_task_fmri	17.0	0.7142857142857143	89.0	-65.0	0.2857142857142857	9.0	3.0	2.0	4.415464551113821	1.207	n/a	stim	s617
42.332	3.317	-9.799085973913954	draw_card	0.0	columbia_card_task_fmri	17.0	0.6666666666666667	89.0	-65.0	0.3333333333333333	9.0	4.0	2.0	6.026650670194215	3.317	n/a	stim	s617
45.651	1.333	-15.265752640580624	end_round	0.0	columbia_card_task_fmri	17.0	0.6	71.0	-65.0	0.4	9.0	5.0	2.0	7.542972399506901	1.333	4.0	stim	s617
46.987	2.25	n/a	-1.0	n/a	columbia_card_task_fmri	n/a	n/a	-1.0	n/a	n/a	n/a	n/a	n/a	n/a	n/a	n/a	feedback	s617
49.237	0.0	n/a	-1.0	n/a	columbia_card_task_fmri	n/a	n/a	-1.0	n/a	n/a	n/a	n/a	n/a	n/a	n/a	n/a	ITI	s617
49.238	1.875	3.634247359419377	draw_card	0.0	columbia_card_task_fmri	14.0	0.9	89.0	-95.0	0.1	10.0	1.0	1.0	0.0721521976840335	1.875	n/a	stim	s617
51.116	1.514	2.423136248308265	draw_card	1.0	columbia_card_task_fmri	14.0	0.8888888888888888	89.0	-95.0	0.1111111111111111	10.0	2.0	1.0	1.627349251779954	1.514	2.0	stim	s617
52.636	2.25	n/a	-1.0	n/a	columbia_card_task_fmri	n/a	n/a	-1.0	n/a	n/a	n/a	n/a	n/a	n/a	n/a	n/a	feedback	s617
54.886	0.068	n/a	-1.0	n/a	columbia_card_task_fmri	n/a	n/a	-1.0	n/a	n/a	n/a	n/a	n/a	n/a	n/a	n/a	ITI	s617
54.955	1.414	-0.4657526405806227	draw_card	1.0	columbia_card_task_fmri	15.0	0.8	89.0	-65.0	0.2	10.0	1.0	2.0	-0.6277523544474874	1.414	1.0	stim	s617
56.374	2.25	n/a	-1.0	n/a	columbia_card_task_fmri	n/a	n/a	-1.0	n/a	n/a	n/a	n/a	n/a	n/a	n/a	n/a	feedback	s617
58.624	0.0	n/a	-1.0	n/a	columbia_card_task_fmri	n/a	n/a	-1.0	n/a	n/a	n/a	n/a	n/a	n/a	n/a	n/a	ITI	s617
58.627	2.269	1.1342473594193787	draw_card	0.0	columbia_card_task_fmri	17.0	0.8	89.0	-65.0	0.2	10.0	1.0	2.0	0.1721388947784419	2.269	n/a	stim	s617
60.898	1.219	-0.6879748628028424	draw_card	0.0	columbia_card_task_fmri	17.0	0.7777777777777778	89.0	-65.0	0.2222222222222222	10.0	2.0	2.0	1.462630393211029	1.219	n/a	stim	s617
62.119	1.689	-2.9657526405806225	end_round	0.0	columbia_card_task_fmri	17.0	0.75	71.0	-65.0	0.25	10.0	3.0	2.0	2.878848798888278	1.689	2.0	stim	s617
63.814	2.25	n/a	-1.0	n/a	columbia_card_task_fmri	n/a	n/a	-1.0	n/a	n/a	n/a	n/a	n/a	n/a	n/a	n/a	feedback	s617
66.064	0.0	n/a	-1.0	n/a	columbia_card_task_fmri	n/a	n/a	-1.0	n/a	n/a	n/a	n/a	n/a	n/a	n/a	n/a	ITI	s617
66.067	1.649	-0.2990859739139548	draw_card	1.0	columbia_card_task_fmri	13.0	0.8333333333333334	89.0	-70.0	0.1666666666666666	12.0	1.0	2.0	-1.6953247584960778	1.649	1.0	stim	s617
67.719	2.25	n/a	-1.0	n/a	columbia_card_task_fmri	n/a	n/a	-1.0	n/a	n/a	n/a	n/a	n/a	n/a	n/a	n/a	feedback	s617
69.969	0.136	n/a	-1.0	n/a	columbia_card_task_fmri	n/a	n/a	-1.0	n/a	n/a	n/a	n/a	n/a	n/a	n/a	n/a	ITI	s617
70.108	1.743	-0.2990859739139548	draw_card	0.0	columbia_card_task_fmri	15.0	0.8333333333333334	89.0	-80.0	0.1666666666666666	12.0	1.0	2.0	2.7762285365468244	1.743	n/a	stim	s617
71.854	1.06	-1.738479913307898	draw_card	0.0	columbia_card_task_fmri	15.0	0.8181818181818181	89.0	-80.0	0.1818181818181818	12.0	2.0	2.0	4.012670632290607	1.06	n/a	stim	s617
72.916	1.833	-3.4657526405806225	draw_card	0.0	columbia_card_task_fmri	15.0	0.8	89.0	-80.0	0.2	12.0	3.0	2.0	5.371543608932903	1.833	n/a	stim	s617
74.751	2.528	-5.576863751691735	draw_card	0.0	columbia_card_task_fmri	15.0	0.7777777777777778	89.0	-80.0	0.2222222222222222	12.0	4.0	2.0	6.8666738625887405	2.528	n/a	stim	s617
77.281	1.094	-8.215752640580623	end_round	0.0	columbia_card_task_fmri	15.0	0.75	71.0	-80.0	0.25	12.0	5.0	2.0	8.507464008028734	1.094	4.0	stim	s617
78.377	2.25	n/a	-1.0	n/a	columbia_card_task_fmri	n/a	n/a	-1.0	n/a	n/a	n/a	n/a	n/a	n/a	n/a	n/a	feedback	s617
80.627	0.136	n/a	-1.0	n/a	columbia_card_task_fmri	n/a	n/a	-1.0	n/a	n/a	n/a	n/a	n/a	n/a	n/a	n/a	ITI	s617
80.764	2.53	-1.2657526405806216	draw_card	0.0	columbia_card_task_fmri	14.0	0.8	89.0	-65.0	0.2	15.0	1.0	3.0	-1.0276959146076443	2.53	n/a	stim	s617
83.296	1.77	-2.394324069152049	draw_card	1.0	columbia_card_task_fmri	14.0	0.7857142857142857	89.0	-65.0	0.2142857142857142	15.0	2.0	3.0	-0.2120631775621646	1.77	2.0	stim	s617
85.072	2.25	n/a	-1.0	n/a	columbia_card_task_fmri	n/a	n/a	-1.0	n/a	n/a	n/a	n/a	n/a	n/a	n/a	n/a	feedback	s617
87.322	0.476	n/a	-1.0	n/a	columbia_card_task_fmri	n/a	n/a	-1.0	n/a	n/a	n/a	n/a	n/a	n/a	n/a	n/a	ITI	s617
87.801	3.815	-1.3407526405806227	end_round	0.0	columbia_card_task_fmri	1.0	0.9375	71.0	-45.0	0.0625	16.0	1.0	1.0	-21.4845754276395	3.815	0.0	stim	s617
91.621	2.25	n/a	-1.0	n/a	columbia_card_task_fmri	n/a	n/a	-1.0	n/a	n/a	n/a	n/a	n/a	n/a	n/a	n/a	feedback	s617
93.871	0.204	n/a	-1.0	n/a	columbia_card_task_fmri	n/a	n/a	-1.0	n/a	n/a	n/a	n/a	n/a	n/a	n/a	n/a	ITI	s617
94.077	1.464	-0.4032526405806227	draw_card	0.0	columbia_card_task_fmri	15.0	0.8125	89.0	-70.0	0.1875	16.0	1.0	3.0	0.5486413883217338	1.464	n/a	stim	s617
95.543	1.986	-1.4657526405806227	draw_card	1.0	columbia_card_task_fmri	15.0	0.8	89.0	-70.0	0.2	16.0	2.0	3.0	1.3719853624387213	1.986	2.0	stim	s617
97.533	2.25	n/a	-1.0	n/a	columbia_card_task_fmri	n/a	n/a	-1.0	n/a	n/a	n/a	n/a	n/a	n/a	n/a	n/a	feedback	s617
99.783	0.068	n/a	-1.0	n/a	columbia_card_task_fmri	n/a	n/a	-1.0	n/a	n/a	n/a	n/a	n/a	n/a	n/a	n/a	ITI	s617
99.854	1.947	6.5342473594193775	draw_card	0.0	columbia_card_task_fmri	30.0	0.7	89.0	-50.0	0.3	10.0	1.0	3.0	4.032286355680199	1.947	n/a	stim	s617
101.803	1.884	3.8675806927527168	draw_card	0.0	columbia_card_task_fmri	30.0	0.6666666666666667	89.0	-50.0	0.3333333333333333	10.0	2.0	3.0	5.083933911973617	1.884	n/a	stim	s617
103.69	1.003	0.5342473594193773	end_round	0.0	columbia_card_task_fmri	30.0	0.625	71.0	-50.0	0.375	10.0	3.0	3.0	6.10130631128024	1.003	2.0	stim	s617
104.696	2.25	n/a	-1.0	n/a	columbia_card_task_fmri	n/a	n/a	-1.0	n/a	n/a	n/a	n/a	n/a	n/a	n/a	n/a	feedback	s617
106.946	0.068	n/a	-1.0	n/a	columbia_card_task_fmri	n/a	n/a	-1.0	n/a	n/a	n/a	n/a	n/a	n/a	n/a	n/a	ITI	s617
107.017	1.638	5.934247359419378	draw_card	0.0	columbia_card_task_fmri	17.0	0.8666666666666667	89.0	-70.0	0.1333333333333333	15.0	1.0	2.0	-3.053073474371008	1.638	n/a	stim	s617
108.658	0.92	5.105675930847951	draw_card	0.0	columbia_card_task_fmri	17.0	0.8571428571428572	89.0	-70.0	0.1428571428571428	15.0	2.0	2.0	-2.1838661843460407	0.92	n/a	stim	s617
109.581	1.935	4.1496319748039925	draw_card	0.0	columbia_card_task_fmri	17.0	0.8461538461538461	89.0	-70.0	0.1538461538461538	15.0	3.0	2.0	-1.2379601957630155	1.935	n/a	stim	s617
111.518	1.034	3.0342473594193797	end_round	0.0	columbia_card_task_fmri	17.0	0.8333333333333334	71.0	-70.0	0.1666666666666666	15.0	4.0	2.0	-0.2048248491986655	1.034	3.0	stim	s617
112.559	2.25	n/a	-1.0	n/a	columbia_card_task_fmri	n/a	n/a	-1.0	n/a	n/a	n/a	n/a	n/a	n/a	n/a	n/a	feedback	s617
114.809	0.34	n/a	-1.0	n/a	columbia_card_task_fmri	n/a	n/a	-1.0	n/a	n/a	n/a	n/a	n/a	n/a	n/a	n/a	ITI	s617
115.151	3.37	1.1592473594193773	draw_card	0.0	columbia_card_task_fmri	7.0	0.9375	89.0	-95.0	0.0625	16.0	1.0	1.0	-7.936163564465776	3.37	n/a	stim	s617
118.525	0.77	0.7342473594193775	draw_card	0.0	columbia_card_task_fmri	7.0	0.9333333333333332	89.0	-95.0	0.0666666666666666	16.0	2.0	1.0	-7.18333316950412	0.77	n/a	stim	s617
119.297	1.363	0.2485330737050917	draw_card	0.0	columbia_card_task_fmri	7.0	0.9285714285714286	89.0	-95.0	0.0714285714285714	16.0	3.0	1.0	-6.357763220689339	1.363	n/a	stim	s617
120.661	0.747	-0.3119064867344694	draw_card	0.0	columbia_card_task_fmri	7.0	0.9230769230769232	89.0	-95.0	0.0769230769230769	16.0	4.0	1.0	-5.447087450355749	0.747	n/a	stim	s617
121.411	1.642	-0.9657526405806228	draw_card	0.0	columbia_card_task_fmri	7.0	0.9166666666666666	89.0	-95.0	0.0833333333333333	16.0	5.0	1.0	-4.43583926900024	1.642	n/a	stim	s617
123.055	1.004	-1.738479913307896	draw_card	0.0	columbia_card_task_fmri	7.0	0.9090909090909092	89.0	-95.0	0.0909090909090909	16.0	6.0	1.0	-3.3044069929944264	1.004	n/a	stim	s617
124.062	1.744	-2.6657526405806227	draw_card	0.0	columbia_card_task_fmri	7.0	0.9	89.0	-95.0	0.1	16.0	7.0	1.0	-2.0275483609091403	1.744	n/a	stim	s617
125.808	2.018	-3.799085973913957	end_round	0.0	columbia_card_task_fmri	7.0	0.8888888888888888	71.0	-95.0	0.1111111111111111	16.0	8.0	1.0	-0.5722526614610643	2.018	7.0	stim	s617
127.831	2.25	n/a	-1.0	n/a	columbia_card_task_fmri	n/a	n/a	-1.0	n/a	n/a	n/a	n/a	n/a	n/a	n/a	n/a	feedback	s617
130.081	0.476	n/a	-1.0	n/a	columbia_card_task_fmri	n/a	n/a	-1.0	n/a	n/a	n/a	n/a	n/a	n/a	n/a	n/a	ITI	s617
130.56	2.553	2.721747359419377	draw_card	0.0	columbia_card_task_fmri	9.0	0.9375	89.0	-100.0	0.0625	16.0	1.0	1.0	-6.242104422005472	2.553	n/a	stim	s617
133.116	1.104	2.267580692752711	draw_card	0.0	columbia_card_task_fmri	9.0	0.9333333333333332	89.0	-100.0	0.0666666666666666	16.0	2.0	1.0	-5.437586485447483	1.104	n/a	stim	s617
134.223	1.49	1.7485330737050926	draw_card	0.0	columbia_card_task_fmri	9.0	0.9285714285714286	89.0	-100.0	0.0714285714285714	16.0	3.0	1.0	-4.555336366728174	1.49	n/a	stim	s617
135.716	1.661	1.1496319748039932	draw_card	0.0	columbia_card_task_fmri	9.0	0.9230769230769232	89.0	-100.0	0.0769230769230769	16.0	4.0	1.0	-3.582139066991964	1.661	n/a	stim	s617
137.38	0.934	0.4509140260860451	draw_card	0.0	columbia_card_task_fmri	9.0	0.9166666666666666	89.0	-100.0	0.0833333333333333	16.0	5.0	1.0	-2.501466488154517	0.934	n/a	stim	s617
138.316	1.281	-0.3748435496715327	draw_card	0.0	columbia_card_task_fmri	9.0	0.9090909090909092	89.0	-100.0	0.0909090909090909	16.0	6.0	1.0	-1.2923609585890148	1.281	n/a	stim	s617
139.6	1.395	-1.365752640580623	draw_card	0.0	columbia_card_task_fmri	9.0	0.9	89.0	-100.0	0.1	16.0	7.0	1.0	0.0721521976840335	1.395	n/a	stim	s617
140.998	1.206	-2.576863751691733	draw_card	0.0	columbia_card_task_fmri	9.0	0.8888888888888888	89.0	-100.0	0.1111111111111111	16.0	8.0	1.0	1.627349251779954	1.206	n/a	stim	s617
142.206	1.082	-4.090752640580623	draw_card	0.0	columbia_card_task_fmri	9.0	0.875	89.0	-100.0	0.125	16.0	9.0	1.0	3.42010851268288	1.082	n/a	stim	s617
143.29	1.182	-6.037181212009192	end_round	0.0	columbia_card_task_fmri	9.0	0.8571428571428572	71.0	-100.0	0.1428571428571428	16.0	10.0	1.0	5.513584190267075	1.182	9.0	stim	s617
144.478	2.25	n/a	-1.0	n/a	columbia_card_task_fmri	n/a	n/a	-1.0	n/a	n/a	n/a	n/a	n/a	n/a	n/a	n/a	feedback	s617
146.728	0.272	n/a	-1.0	n/a	columbia_card_task_fmri	n/a	n/a	-1.0	n/a	n/a	n/a	n/a	n/a	n/a	n/a	n/a	ITI	s617
147.002	1.949	3.6592473594193775	draw_card	0.0	columbia_card_task_fmri	15.0	0.875	89.0	-80.0	0.125	16.0	1.0	2.0	-1.2093729828848652	1.949	n/a	stim	s617
148.953	1.74	2.8675806927527114	draw_card	1.0	columbia_card_task_fmri	15.0	0.8666666666666667	89.0	-80.0	0.1333333333333333	16.0	2.0	2.0	-0.3340026649861016	1.74	2.0	stim	s617
150.698	2.25	n/a	-1.0	n/a	columbia_card_task_fmri	n/a	n/a	-1.0	n/a	n/a	n/a	n/a	n/a	n/a	n/a	n/a	feedback	s617
152.948	0.884	n/a	-1.0	n/a	columbia_card_task_fmri	n/a	n/a	-1.0	n/a	n/a	n/a	n/a	n/a	n/a	n/a	n/a	ITI	s617
153.835	1.417	5.7842473594193775	draw_card	0.0	columbia_card_task_fmri	16.0	0.875	89.0	-70.0	0.125	16.0	1.0	2.0	-4.185367969102305	1.417	n/a	stim	s617
155.254	0.748	5.067580692752711	draw_card	0.0	columbia_card_task_fmri	16.0	0.8666666666666667	89.0	-70.0	0.1333333333333333	16.0	2.0	2.0	-3.3929520123207872	0.748	n/a	stim	s617
156.004	1.424	4.248533073705093	draw_card	1.0	columbia_card_task_fmri	16.0	0.8571428571428572	89.0	-70.0	0.1428571428571428	16.0	3.0	2.0	-2.5337387952869825	1.424	3.0	stim	s617
157.431	2.25	n/a	-1.0	n/a	columbia_card_task_fmri	n/a	n/a	-1.0	n/a	n/a	n/a	n/a	n/a	n/a	n/a	n/a	feedback	s617
159.681	0.136	n/a	-1.0	n/a	columbia_card_task_fmri	n/a	n/a	-1.0	n/a	n/a	n/a	n/a	n/a	n/a	n/a	n/a	ITI	s617
159.821	2.103	7.0967473594193775	draw_card	1.0	columbia_card_task_fmri	30.0	0.6875	89.0	-45.0	0.3125	16.0	1.0	5.0	2.1353236103688005	2.103	1.0	stim	s617
161.932	2.25	n/a	-1.0	n/a	columbia_card_task_fmri	n/a	n/a	-1.0	n/a	n/a	n/a	n/a	n/a	n/a	n/a	n/a	feedback	s617
164.182	0.136	n/a	-1.0	n/a	columbia_card_task_fmri	n/a	n/a	-1.0	n/a	n/a	n/a	n/a	n/a	n/a	n/a	n/a	ITI	s617
164.321	2.742	-1.1324193072472888	draw_card	0.0	columbia_card_task_fmri	13.0	0.8333333333333334	89.0	-75.0	0.1666666666666666	6.0	1.0	1.0	0.1678031399509052	2.742	n/a	stim	s617
167.066	1.232	-4.065752640580622	end_round	0.0	columbia_card_task_fmri	13.0	0.8	71.0	-75.0	0.2	6.0	2.0	1.0	2.571842296339554	1.232	1.0	stim	s617
168.304	2.25	n/a	-1.0	n/a	columbia_card_task_fmri	n/a	n/a	-1.0	n/a	n/a	n/a	n/a	n/a	n/a	n/a	n/a	feedback	s617
170.554	0.068	n/a	-1.0	n/a	columbia_card_task_fmri	n/a	n/a	-1.0	n/a	n/a	n/a	n/a	n/a	n/a	n/a	n/a	ITI	s617
170.625	1.149	0.5342473594193791	draw_card	0.0	columbia_card_task_fmri	14.0	0.8333333333333334	89.0	-70.0	0.1666666666666666	6.0	1.0	1.0	-1.3227016742943682	1.149	n/a	stim	s617
171.777	0.684	-2.265752640580621	draw_card	0.0	columbia_card_task_fmri	14.0	0.8	89.0	-70.0	0.2	6.0	2.0	1.0	0.9720353216066258	0.684	n/a	stim	s617
172.464	1.342	-6.465752640580623	end_round	0.0	columbia_card_task_fmri	14.0	0.75	71.0	-70.0	0.25	6.0	3.0	1.0	3.744778523149293	1.342	2.0	stim	s617
173.809	2.25	n/a	-1.0	n/a	columbia_card_task_fmri	n/a	n/a	-1.0	n/a	n/a	n/a	n/a	n/a	n/a	n/a	n/a	feedback	s617
176.059	0.068	n/a	-1.0	n/a	columbia_card_task_fmri	n/a	n/a	-1.0	n/a	n/a	n/a	n/a	n/a	n/a	n/a	n/a	ITI	s617
176.13	0.976	0.5342473594193791	draw_card	0.0	columbia_card_task_fmri	16.0	0.8333333333333334	89.0	-80.0	0.1666666666666666	6.0	1.0	1.0	3.1488645517955334	0.976	n/a	stim	s617
177.11	0.543	-2.665752640580622	draw_card	0.0	columbia_card_task_fmri	16.0	0.8	89.0	-80.0	0.2	6.0	2.0	1.0	5.771504494572284	0.543	n/a	stim	s617
177.656	1.399	-7.4657526405806225	draw_card	1.0	columbia_card_task_fmri	16.0	0.75	89.0	-80.0	0.25	6.0	3.0	1.0	8.940440576845006	1.399	3.0	stim	s617
179.062	2.25	n/a	-1.0	n/a	columbia_card_task_fmri	n/a	n/a	-1.0	n/a	n/a	n/a	n/a	n/a	n/a	n/a	n/a	feedback	s617
181.312	0.612	n/a	-1.0	n/a	columbia_card_task_fmri	n/a	n/a	-1.0	n/a	n/a	n/a	n/a	n/a	n/a	n/a	n/a	ITI	s617
181.926	1.294	3.0342473594193797	draw_card	1.0	columbia_card_task_fmri	17.0	0.8333333333333334	89.0	-70.0	0.1666666666666666	6.0	1.0	1.0	-0.2048248491986655	1.294	1.0	stim	s617
183.224	2.25	n/a	-1.0	n/a	columbia_card_task_fmri	n/a	n/a	-1.0	n/a	n/a	n/a	n/a	n/a	n/a	n/a	n/a	feedback	s617
185.474	0.476	n/a	-1.0	n/a	columbia_card_task_fmri	n/a	n/a	-1.0	n/a	n/a	n/a	n/a	n/a	n/a	n/a	n/a	ITI	s617
185.952	2.136	3.034247359419377	draw_card	0.0	columbia_card_task_fmri	25.0	0.75	89.0	-65.0	0.25	8.0	1.0	2.0	6.342593206673797	2.136	n/a	stim	s617
188.092	0.943	-0.1800383548663344	end_round	0.0	columbia_card_task_fmri	25.0	0.7142857142857143	71.0	-65.0	0.2857142857142857	8.0	2.0	2.0	8.029153770001628	0.943	1.0	stim	s617
189.039	2.25	n/a	-1.0	n/a	columbia_card_task_fmri	n/a	n/a	-1.0	n/a	n/a	n/a	n/a	n/a	n/a	n/a	n/a	feedback	s617
191.289	0.0	n/a	-1.0	n/a	columbia_card_task_fmri	n/a	n/a	-1.0	n/a	n/a	n/a	n/a	n/a	n/a	n/a	n/a	ITI	s617
191.292	1.804	3.034247359419377	draw_card	0.0	columbia_card_task_fmri	30.0	0.75	89.0	-80.0	0.25	8.0	1.0	2.0	15.002181514432976	1.804	n/a	stim	s617
193.1	1.976	-0.8943240691520462	draw_card	0.0	columbia_card_task_fmri	30.0	0.7142857142857143	89.0	-80.0	0.2857142857142857	8.0	2.0	2.0	17.063594681071883	1.976	n/a	stim	s617
195.08	0.612	-6.132419307247283	end_round	0.0	columbia_card_task_fmri	30.0	0.6666666666666667	71.0	-80.0	0.3333333333333333	8.0	3.0	2.0	19.225037605189318	0.612	2.0	stim	s617
195.697	2.25	n/a	-1.0	n/a	columbia_card_task_fmri	n/a	n/a	-1.0	n/a	n/a	n/a	n/a	n/a	n/a	n/a	n/a	feedback	s617
197.947	0.068	n/a	-1.0	n/a	columbia_card_task_fmri	n/a	n/a	-1.0	n/a	n/a	n/a	n/a	n/a	n/a	n/a	n/a	ITI	s617
198.018	2.648	2.7342473594193786	draw_card	0.0	columbia_card_task_fmri	13.0	0.9	89.0	-95.0	0.1	10.0	1.0	1.0	-0.2278074009987278	2.648	n/a	stim	s617
200.669	1.358	1.5342473594193773	draw_card	1.0	columbia_card_task_fmri	13.0	0.8888888888888888	89.0	-95.0	0.1111111111111111	10.0	2.0	1.0	1.313118138805308	1.358	2.0	stim	s617
202.035	2.25	n/a	-1.0	n/a	columbia_card_task_fmri	n/a	n/a	-1.0	n/a	n/a	n/a	n/a	n/a	n/a	n/a	n/a	feedback	s617
204.285	0.204	n/a	-1.0	n/a	columbia_card_task_fmri	n/a	n/a	-1.0	n/a	n/a	n/a	n/a	n/a	n/a	n/a	n/a	ITI	s617
204.493	1.126	4.134247359419377	draw_card	1.0	columbia_card_task_fmri	14.0	0.9	89.0	-90.0	0.1	10.0	1.0	1.0	-1.427638027906582	1.126	1.0	stim	s617
205.626	2.25	n/a	-1.0	n/a	columbia_card_task_fmri	n/a	n/a	-1.0	n/a	n/a	n/a	n/a	n/a	n/a	n/a	n/a	feedback	s617
207.876	0.272	n/a	-1.0	n/a	columbia_card_task_fmri	n/a	n/a	-1.0	n/a	n/a	n/a	n/a	n/a	n/a	n/a	n/a	ITI	s617
208.151	1.171	-0.665752640580622	draw_card	0.0	columbia_card_task_fmri	16.0	0.8	89.0	-70.0	0.2	10.0	1.0	2.0	1.7719365648993133	1.171	n/a	stim	s617
209.325	1.376	-2.576863751691733	draw_card	1.0	columbia_card_task_fmri	16.0	0.7777777777777778	89.0	-70.0	0.2222222222222222	10.0	2.0	2.0	3.1253945592669865	1.376	2.0	stim	s617
210.705	2.25	n/a	-1.0	n/a	columbia_card_task_fmri	n/a	n/a	-1.0	n/a	n/a	n/a	n/a	n/a	n/a	n/a	n/a	feedback	s617
212.955	0.068	n/a	-1.0	n/a	columbia_card_task_fmri	n/a	n/a	-1.0	n/a	n/a	n/a	n/a	n/a	n/a	n/a	n/a	ITI	s617
213.027	1.225	-1.3824193072472888	draw_card	0.0	columbia_card_task_fmri	7.0	0.9166666666666666	89.0	-100.0	0.0833333333333333	12.0	1.0	1.0	-3.054148763765813	1.225	n/a	stim	s617
214.255	1.32	-2.193025367853351	draw_card	1.0	columbia_card_task_fmri	7.0	0.9090909090909092	89.0	-100.0	0.0909090909090909	12.0	2.0	1.0	-1.867235425097558	1.32	2.0	stim	s617
215.579	2.25	n/a	-1.0	n/a	columbia_card_task_fmri	n/a	n/a	-1.0	n/a	n/a	n/a	n/a	n/a	n/a	n/a	n/a	feedback	s617
217.829	0.272	n/a	-1.0	n/a	columbia_card_task_fmri	n/a	n/a	-1.0	n/a	n/a	n/a	n/a	n/a	n/a	n/a	n/a	ITI	s617
218.104	0.997	-1.132419307247287	draw_card	0.0	columbia_card_task_fmri	14.0	0.8333333333333334	89.0	-80.0	0.1666666666666666	12.0	1.0	2.0	2.40359341435677	0.997	n/a	stim	s617
219.102	1.523	-2.556661731489716	end_round	0.0	columbia_card_task_fmri	14.0	0.8181818181818181	71.0	-80.0	0.1818181818181818	12.0	2.0	2.0	3.627017451970076	1.523	1.0	stim	s617
220.629	2.25	n/a	-1.0	n/a	columbia_card_task_fmri	n/a	n/a	-1.0	n/a	n/a	n/a	n/a	n/a	n/a	n/a	n/a	feedback	s617
222.879	0.748	n/a	-1.0	n/a	columbia_card_task_fmri	n/a	n/a	-1.0	n/a	n/a	n/a	n/a	n/a	n/a	n/a	n/a	ITI	s617
223.63	1.539	0.5342473594193773	draw_card	0.0	columbia_card_task_fmri	15.0	0.8333333333333334	89.0	-75.0	0.1666666666666666	12.0	1.0	2.0	0.9130624514104396	1.539	n/a	stim	s617
225.172	1.306	-0.8293890042169878	end_round	0.0	columbia_card_task_fmri	15.0	0.8181818181818181	71.0	-75.0	0.1818181818181818	12.0	2.0	2.0	2.084413935237869	1.306	1.0	stim	s617
226.482	2.25	n/a	-1.0	n/a	columbia_card_task_fmri	n/a	n/a	-1.0	n/a	n/a	n/a	n/a	n/a	n/a	n/a	n/a	feedback	s617
228.732	0.068	n/a	-1.0	n/a	columbia_card_task_fmri	n/a	n/a	-1.0	n/a	n/a	n/a	n/a	n/a	n/a	n/a	n/a	ITI	s617
228.804	2.515	-0.4657526405806227	draw_card	0.0	columbia_card_task_fmri	15.0	0.8	89.0	-65.0	0.2	15.0	1.0	3.0	-0.6277523544474874	2.515	n/a	stim	s617
231.322	1.006	-1.608609783437765	draw_card	0.0	columbia_card_task_fmri	15.0	0.7857142857142857	89.0	-65.0	0.2142857142857142	15.0	2.0	3.0	0.1982077056591222	1.006	n/a	stim	s617
232.333	0.821	-2.927291102119086	draw_card	0.0	columbia_card_task_fmri	15.0	0.7692307692307692	89.0	-65.0	0.2307692307692307	15.0	3.0	3.0	1.078025505305341	0.821	n/a	stim	s617
233.157	1.658	-4.465752640580623	draw_card	0.0	columbia_card_task_fmri	15.0	0.75	89.0	-65.0	0.25	15.0	4.0	3.0	2.0129238577707085	1.658	n/a	stim	s617
234.819	1.47	-6.283934458762439	end_round	0.0	columbia_card_task_fmri	15.0	0.7272727272727273	71.0	-65.0	0.2727272727272727	15.0	5.0	3.0	3.0007352080299228	1.47	4.0	stim	s617
236.297	2.25	n/a	-1.0	n/a	columbia_card_task_fmri	n/a	n/a	-1.0	n/a	n/a	n/a	n/a	n/a	n/a	n/a	n/a	feedback	s617
238.547	0.0	n/a	-1.0	n/a	columbia_card_task_fmri	n/a	n/a	-1.0	n/a	n/a	n/a	n/a	n/a	n/a	n/a	n/a	ITI	s617
238.55	2.032	-1.2157526405806227	draw_card	0.0	columbia_card_task_fmri	14.0	0.8125	89.0	-70.0	0.1875	16.0	1.0	3.0	0.1583802121034452	2.032	n/a	stim	s617
240.586	1.395	-2.265752640580621	draw_card	0.0	columbia_card_task_fmri	14.0	0.8	89.0	-70.0	0.2	16.0	2.0	3.0	0.9720353216066258	1.395	n/a	stim	s617
241.985	1.238	-3.4657526405806225	draw_card	0.0	columbia_card_task_fmri	14.0	0.7857142857142857	89.0	-70.0	0.2142857142857142	16.0	3.0	3.0	1.8393043361197243	1.238	n/a	stim	s617
243.228	0.974	-4.850368025196008	end_round	0.0	columbia_card_task_fmri	14.0	0.7692307692307692	71.0	-70.0	0.2307692307692307	16.0	4.0	3.0	2.7631241009502148	0.974	3.0	stim	s617
244.207	2.25	n/a	-1.0	n/a	columbia_card_task_fmri	n/a	n/a	-1.0	n/a	n/a	n/a	n/a	n/a	n/a	n/a	n/a	feedback	s617
246.457	0.204	n/a	-1.0	n/a	columbia_card_task_fmri	n/a	n/a	-1.0	n/a	n/a	n/a	n/a	n/a	n/a	n/a	n/a	ITI	s617
246.665	1.688	-1.2782526405806227	draw_card	1.0	columbia_card_task_fmri	11.0	0.6875	89.0	-30.0	0.3125	16.0	1.0	5.0	-13.620695120293073	1.688	1.0	stim	s617
248.36	2.25	n/a	-1.0	n/a	columbia_card_task_fmri	n/a	n/a	-1.0	n/a	n/a	n/a	n/a	n/a	n/a	n/a	n/a	feedback	s617
250.61	0.068	n/a	-1.0	n/a	columbia_card_task_fmri	n/a	n/a	-1.0	n/a	n/a	n/a	n/a	n/a	n/a	n/a	n/a	ITI	s617
250.681	2.179	3.534247359419377	draw_card	0.0	columbia_card_task_fmri	15.0	0.8666666666666667	89.0	-75.0	0.1333333333333333	15.0	1.0	2.0	-2.0334303827726146	2.179	n/a	stim	s617
252.862	1.267	2.6771045022765216	draw_card	0.0	columbia_card_task_fmri	15.0	0.8571428571428572	89.0	-75.0	0.1428571428571428	15.0	2.0	2.0	-1.1342410871105244	1.267	n/a	stim	s617
254.132	0.934	1.6880935132655306	end_round	0.0	columbia_card_task_fmri	15.0	0.8461538461538461	71.0	-75.0	0.1538461538461538	15.0	3.0	2.0	-0.1557080736769975	0.934	2.0	stim	s617
255.071	2.25	n/a	-1.0	n/a	columbia_card_task_fmri	n/a	n/a	-1.0	n/a	n/a	n/a	n/a	n/a	n/a	n/a	n/a	feedback	s617
257.321	0.068	n/a	-1.0	n/a	columbia_card_task_fmri	n/a	n/a	-1.0	n/a	n/a	n/a	n/a	n/a	n/a	n/a	n/a	ITI	s617
257.392	3.107	5.267580692752712	draw_card	0.0	columbia_card_task_fmri	17.0	0.8666666666666667	89.0	-75.0	0.1333333333333333	15.0	1.0	2.0	-1.353662496525896	3.107	n/a	stim	s617
260.502	1.298	4.391390216562237	draw_card	0.0	columbia_card_task_fmri	17.0	0.8571428571428572	89.0	-75.0	0.1428571428571428	15.0	2.0	2.0	-0.4344853633018886	1.298	n/a	stim	s617
261.803	1.705	3.380401205573224	end_round	0.0	columbia_card_task_fmri	17.0	0.8461538461538461	71.0	-75.0	0.1538461538461538	15.0	3.0	2.0	0.5657988296189416	1.705	2.0	stim	s617
263.512	2.25	n/a	-1.0	n/a	columbia_card_task_fmri	n/a	n/a	-1.0	n/a	n/a	n/a	n/a	n/a	n/a	n/a	n/a	feedback	s617
265.762	0.34	n/a	-1.0	n/a	columbia_card_task_fmri	n/a	n/a	-1.0	n/a	n/a	n/a	n/a	n/a	n/a	n/a	n/a	ITI	s617
266.105	1.943	0.8467473594193773	end_round	0.0	columbia_card_task_fmri	2.0	0.9375	71.0	-25.0	0.0625	16.0	1.0	1.0	-26.074753081594224	1.943	0.0	stim	s617
268.055	2.25	n/a	-1.0	n/a	columbia_card_task_fmri	n/a	n/a	-1.0	n/a	n/a	n/a	n/a	n/a	n/a	n/a	n/a	feedback	s617
270.305	0.0	n/a	-1.0	n/a	columbia_card_task_fmri	n/a	n/a	-1.0	n/a	n/a	n/a	n/a	n/a	n/a	n/a	n/a	ITI	s617
270.308	1.651	3.034247359419377	draw_card	0.0	columbia_card_task_fmri	9.0	0.9375	89.0	-95.0	0.0625	16.0	1.0	1.0	-7.452151762050118	1.651	n/a	stim	s617
271.963	0.814	2.600914026086045	draw_card	0.0	columbia_card_task_fmri	9.0	0.9333333333333332	89.0	-95.0	0.0666666666666666	16.0	2.0	1.0	-6.684553347451473	0.814	n/a	stim	s617
272.781	1.074	2.1056759308479496	end_round	0.0	columbia_card_task_fmri	9.0	0.9285714285714286	71.0	-95.0	0.0714285714285714	16.0	3.0	1.0	-5.84278890912686	1.074	2.0	stim	s617
273.86	2.25	n/a	-1.0	n/a	columbia_card_task_fmri	n/a	n/a	-1.0	n/a	n/a	n/a	n/a	n/a	n/a	n/a	n/a	feedback	s617
276.11	0.0	n/a	-1.0	n/a	columbia_card_task_fmri	n/a	n/a	-1.0	n/a	n/a	n/a	n/a	n/a	n/a	n/a	n/a	ITI	s617
276.112	2.995	4.5967473594193775	draw_card	0.0	columbia_card_task_fmri	11.0	0.9375	89.0	-100.0	0.0625	16.0	1.0	1.0	-5.758078930547068	2.995	n/a	stim	s617
279.111	1.532	4.134247359419378	end_round	0.0	columbia_card_task_fmri	11.0	0.9333333333333332	71.0	-100.0	0.0666666666666666	16.0	2.0	1.0	-4.938793378982929	1.532	1.0	stim	s617
280.65	2.25	n/a	-1.0	n/a	columbia_card_task_fmri	n/a	n/a	-1.0	n/a	n/a	n/a	n/a	n/a	n/a	n/a	n/a	feedback	s617
282.9	0.272	n/a	-1.0	n/a	columbia_card_task_fmri	n/a	n/a	-1.0	n/a	n/a	n/a	n/a	n/a	n/a	n/a	n/a	ITI	s617
283.177	1.872	5.1592473594193775	draw_card	0.0	columbia_card_task_fmri	16.0	0.875	89.0	-75.0	0.125	16.0	1.0	2.0	-2.5320490237884137	1.872	n/a	stim	s617
285.051	0.452	4.400914026086045	draw_card	0.0	columbia_card_task_fmri	16.0	0.8666666666666667	89.0	-75.0	0.1333333333333333	16.0	2.0	2.0	-1.6935469965699	0.452	n/a	stim	s617
285.509	1.391	3.5342473594193797	end_round	0.0	columbia_card_task_fmri	16.0	0.8571428571428572	71.0	-75.0	0.1428571428571428	16.0	3.0	2.0	-0.7843637662371243	1.391	2.0	stim	s617
286.908	2.25	n/a	-1.0	n/a	columbia_card_task_fmri	n/a	n/a	-1.0	n/a	n/a	n/a	n/a	n/a	n/a	n/a	n/a	feedback	s617
289.158	0.204	n/a	-1.0	n/a	columbia_card_task_fmri	n/a	n/a	-1.0	n/a	n/a	n/a	n/a	n/a	n/a	n/a	n/a	ITI	s617
289.366	4.239	5.4092473594193775	draw_card	0.0	columbia_card_task_fmri	17.0	0.875	89.0	-80.0	0.125	16.0	1.0	2.0	-0.5480287901058531	4.239	n/a	stim	s617
293.608	1.812	4.600914026086046	draw_card	1.0	columbia_card_task_fmri	17.0	0.8666666666666667	89.0	-80.0	0.1333333333333333	16.0	2.0	2.0	0.3457755059410345	1.812	2.0	stim	s617
295.427	2.25	n/a	-1.0	n/a	columbia_card_task_fmri	n/a	n/a	-1.0	n/a	n/a	n/a	n/a	n/a	n/a	n/a	n/a	feedback	s617
297.677	0.0	n/a	-1.0	n/a	columbia_card_task_fmri	n/a	n/a	-1.0	n/a	n/a	n/a	n/a	n/a	n/a	n/a	n/a	ITI	s617
308.688	1.697	-0.2990859739139548	draw_card	0.0	columbia_card_task_fmri	13.0	0.8333333333333334	89.0	-70.0	0.1666666666666666	6.0	1.0	1.0	-1.6953247584960778	1.697	n/a	stim	s617
310.388	2.526	-3.065752640580622	end_round	0.0	columbia_card_task_fmri	13.0	0.8	71.0	-70.0	0.2	6.0	2.0	1.0	0.5720864843789215	2.526	1.0	stim	s617
312.919	2.25	n/a	-1.0	n/a	columbia_card_task_fmri	n/a	n/a	-1.0	n/a	n/a	n/a	n/a	n/a	n/a	n/a	n/a	feedback	s617
315.169	0.204	n/a	-1.0	n/a	columbia_card_task_fmri	n/a	n/a	-1.0	n/a	n/a	n/a	n/a	n/a	n/a	n/a	n/a	ITI	s617
315.376	1.377	-0.2990859739139548	draw_card	0.0	columbia_card_task_fmri	15.0	0.8333333333333334	89.0	-80.0	0.1666666666666666	6.0	1.0	1.0	2.7762285365468244	1.377	n/a	stim	s617
316.756	0.949	-3.4657526405806225	draw_card	0.0	columbia_card_task_fmri	15.0	0.8	89.0	-80.0	0.2	6.0	2.0	1.0	5.371543608932903	0.949	n/a	stim	s617
317.709	1.858	-8.215752640580623	end_round	0.0	columbia_card_task_fmri	15.0	0.75	71.0	-80.0	0.25	6.0	3.0	1.0	8.507464008028734	1.858	2.0	stim	s617
319.569	2.25	n/a	-1.0	n/a	columbia_card_task_fmri	n/a	n/a	-1.0	n/a	n/a	n/a	n/a	n/a	n/a	n/a	n/a	feedback	s617
321.819	0.204	n/a	-1.0	n/a	columbia_card_task_fmri	n/a	n/a	-1.0	n/a	n/a	n/a	n/a	n/a	n/a	n/a	n/a	ITI	s617
322.027	1.284	1.3675806927527112	draw_card	0.0	columbia_card_task_fmri	16.0	0.8333333333333334	89.0	-75.0	0.1666666666666666	6.0	1.0	1.0	1.2856937004827105	1.284	n/a	stim	s617
323.314	1.117	-1.665752640580622	draw_card	0.0	columbia_card_task_fmri	16.0	0.8	89.0	-75.0	0.2	6.0	2.0	1.0	3.771708661593131	1.117	n/a	stim	s617
324.434	1.093	-6.215752640580623	end_round	0.0	columbia_card_task_fmri	16.0	0.75	71.0	-75.0	0.25	6.0	3.0	1.0	6.775565673038706	1.093	2.0	stim	s617
325.534	2.25	n/a	-1.0	n/a	columbia_card_task_fmri	n/a	n/a	-1.0	n/a	n/a	n/a	n/a	n/a	n/a	n/a	n/a	feedback	s617
327.784	0.272	n/a	-1.0	n/a	columbia_card_task_fmri	n/a	n/a	-1.0	n/a	n/a	n/a	n/a	n/a	n/a	n/a	n/a	ITI	s617
328.059	2.883	2.534247359419377	draw_card	0.0	columbia_card_task_fmri	21.0	0.75	89.0	-55.0	0.25	8.0	1.0	2.0	0.281089835055937	2.883	n/a	stim	s617
330.946	1.189	-0.1800383548663362	draw_card	0.0	columbia_card_task_fmri	21.0	0.7142857142857143	89.0	-55.0	0.2857142857142857	8.0	2.0	2.0	1.7052449332732849	1.189	n/a	stim	s617
332.138	1.531	-3.799085973913953	draw_card	0.0	columbia_card_task_fmri	21.0	0.6666666666666667	89.0	-55.0	0.3333333333333333	8.0	3.0	2.0	3.198514964259637	1.531	n/a	stim	s617
333.673	0.91	-8.865752640580624	end_round	0.0	columbia_card_task_fmri	21.0	0.6	71.0	-55.0	0.4	8.0	4.0	2.0	4.6038651292656425	0.91	3.0	stim	s617
334.589	2.25	n/a	-1.0	n/a	columbia_card_task_fmri	n/a	n/a	-1.0	n/a	n/a	n/a	n/a	n/a	n/a	n/a	n/a	feedback	s617
336.839	0.204	n/a	-1.0	n/a	columbia_card_task_fmri	n/a	n/a	-1.0	n/a	n/a	n/a	n/a	n/a	n/a	n/a	n/a	ITI	s617
337.047	2.017	3.7842473594193775	draw_card	1.0	columbia_card_task_fmri	26.0	0.75	89.0	-65.0	0.25	8.0	1.0	2.0	6.775565673038706	2.017	1.0	stim	s617
339.068	2.25	n/a	-1.0	n/a	columbia_card_task_fmri	n/a	n/a	-1.0	n/a	n/a	n/a	n/a	n/a	n/a	n/a	n/a	feedback	s617
341.318	0.408	n/a	-1.0	n/a	columbia_card_task_fmri	n/a	n/a	-1.0	n/a	n/a	n/a	n/a	n/a	n/a	n/a	n/a	ITI	s617
341.73	1.189	-1.1324193072472888	draw_card	0.0	columbia_card_task_fmri	15.0	0.7777777777777778	89.0	-60.0	0.2222222222222222	9.0	1.0	2.0	-1.4471569416595251	1.189	n/a	stim	s617
342.924	1.199	-3.2157526405806225	draw_card	1.0	columbia_card_task_fmri	15.0	0.75	89.0	-60.0	0.25	9.0	2.0	2.0	-0.1518650582565186	1.199	2.0	stim	s617
344.129	2.25	n/a	-1.0	n/a	columbia_card_task_fmri	n/a	n/a	-1.0	n/a	n/a	n/a	n/a	n/a	n/a	n/a	n/a	feedback	s617
346.379	0.136	n/a	-1.0	n/a	columbia_card_task_fmri	n/a	n/a	-1.0	n/a	n/a	n/a	n/a	n/a	n/a	n/a	n/a	ITI	s617
346.518	0.865	3.2342473594193786	draw_card	0.0	columbia_card_task_fmri	13.0	0.9	89.0	-90.0	0.1	10.0	1.0	1.0	-1.7275936295869805	0.865	n/a	stim	s617
347.388	1.884	2.089802914974933	end_round	0.0	columbia_card_task_fmri	13.0	0.8888888888888888	71.0	-90.0	0.1111111111111111	10.0	2.0	1.0	-0.258026195017031	1.884	1.0	stim	s617
349.278	2.25	n/a	-1.0	n/a	columbia_card_task_fmri	n/a	n/a	-1.0	n/a	n/a	n/a	n/a	n/a	n/a	n/a	n/a	feedback	s617
351.528	0.272	n/a	-1.0	n/a	columbia_card_task_fmri	n/a	n/a	-1.0	n/a	n/a	n/a	n/a	n/a	n/a	n/a	n/a	ITI	s617
351.804	1.113	4.5342473594193775	draw_card	0.0	columbia_card_task_fmri	15.0	0.9	89.0	-95.0	0.1	10.0	1.0	1.0	0.3721125307905026	1.113	n/a	stim	s617
352.921	0.745	3.3120251371971543	end_round	0.0	columbia_card_task_fmri	15.0	0.8888888888888888	71.0	-95.0	0.1111111111111111	10.0	2.0	1.0	1.9415810658560917	0.745	1.0	stim	s617
353.67	2.25	n/a	-1.0	n/a	columbia_card_task_fmri	n/a	n/a	-1.0	n/a	n/a	n/a	n/a	n/a	n/a	n/a	n/a	feedback	s617
355.92	0.34	n/a	-1.0	n/a	columbia_card_task_fmri	n/a	n/a	-1.0	n/a	n/a	n/a	n/a	n/a	n/a	n/a	n/a	ITI	s617
356.263	1.107	0.334247359419378	draw_card	0.0	columbia_card_task_fmri	16.0	0.8	89.0	-65.0	0.2	10.0	1.0	2.0	-0.2278074009987278	1.107	n/a	stim	s617
357.373	0.65	-1.465752640580621	draw_card	1.0	columbia_card_task_fmri	16.0	0.7777777777777778	89.0	-65.0	0.2222222222222222	10.0	2.0	2.0	1.046942355348769	0.65	2.0	stim	s617
358.028	2.25	n/a	-1.0	n/a	columbia_card_task_fmri	n/a	n/a	-1.0	n/a	n/a	n/a	n/a	n/a	n/a	n/a	n/a	feedback	s617
360.278	0.136	n/a	-1.0	n/a	columbia_card_task_fmri	n/a	n/a	-1.0	n/a	n/a	n/a	n/a	n/a	n/a	n/a	n/a	ITI	s617
360.418	1.455	-0.9657526405806228	draw_card	0.0	columbia_card_task_fmri	7.0	0.9166666666666666	89.0	-95.0	0.0833333333333333	12.0	1.0	1.0	-4.43583926900024	1.455	n/a	stim	s617
361.877	0.653	-1.738479913307896	end_round	0.0	columbia_card_task_fmri	7.0	0.9090909090909092	71.0	-95.0	0.0909090909090909	12.0	2.0	1.0	-3.3044069929944264	0.653	1.0	stim	s617
362.534	2.25	n/a	-1.0	n/a	columbia_card_task_fmri	n/a	n/a	-1.0	n/a	n/a	n/a	n/a	n/a	n/a	n/a	n/a	feedback	s617
364.784	0.34	n/a	-1.0	n/a	columbia_card_task_fmri	n/a	n/a	-1.0	n/a	n/a	n/a	n/a	n/a	n/a	n/a	n/a	ITI	s617
365.128	0.919	-0.2990859739139548	draw_card	0.0	columbia_card_task_fmri	14.0	0.8333333333333334	89.0	-75.0	0.1666666666666666	12.0	1.0	2.0	0.5404322526344245	0.919	n/a	stim	s617
366.051	1.585	-1.647570822398806	draw_card	0.0	columbia_card_task_fmri	14.0	0.8181818181818181	89.0	-75.0	0.1818181818181818	12.0	2.0	2.0	1.6987655122887872	1.585	n/a	stim	s617
367.64	1.101	-3.265752640580621	end_round	0.0	columbia_card_task_fmri	14.0	0.8	71.0	-75.0	0.2	12.0	3.0	2.0	2.971796750583188	1.101	2.0	stim	s617
368.747	2.25	n/a	-1.0	n/a	columbia_card_task_fmri	n/a	n/a	-1.0	n/a	n/a	n/a	n/a	n/a	n/a	n/a	n/a	feedback	s617
370.997	0.068	n/a	-1.0	n/a	columbia_card_task_fmri	n/a	n/a	-1.0	n/a	n/a	n/a	n/a	n/a	n/a	n/a	n/a	ITI	s617
371.069	1.228	1.3675806927527112	draw_card	0.0	columbia_card_task_fmri	15.0	0.8333333333333334	89.0	-70.0	0.1666666666666666	12.0	1.0	2.0	-0.9500772983233254	1.228	n/a	stim	s617
372.301	1.224	0.0797019048739204	draw_card	0.0	columbia_card_task_fmri	15.0	0.8181818181818181	89.0	-70.0	0.1818181818181818	12.0	2.0	2.0	0.1561826854530537	1.224	n/a	stim	s617
373.529	1.27	-1.4657526405806227	draw_card	0.0	columbia_card_task_fmri	15.0	0.8	89.0	-70.0	0.2	12.0	3.0	2.0	1.3719853624387213	1.27	n/a	stim	s617
374.802	0.749	-3.354641529469512	end_round	0.0	columbia_card_task_fmri	15.0	0.7777777777777778	71.0	-70.0	0.2222222222222222	12.0	4.0	2.0	2.709701800351212	0.749	3.0	stim	s617
375.555	2.25	n/a	-1.0	n/a	columbia_card_task_fmri	n/a	n/a	-1.0	n/a	n/a	n/a	n/a	n/a	n/a	n/a	n/a	feedback	s617
377.805	0.0	n/a	-1.0	n/a	columbia_card_task_fmri	n/a	n/a	-1.0	n/a	n/a	n/a	n/a	n/a	n/a	n/a	n/a	ITI	s617
377.809	1.231	-0.665752640580622	draw_card	0.0	columbia_card_task_fmri	16.0	0.8	89.0	-70.0	0.2	15.0	1.0	3.0	1.7719365648993133	1.231	n/a	stim	s617
379.044	0.897	-1.8943240691520515	draw_card	1.0	columbia_card_task_fmri	16.0	0.7857142857142857	89.0	-70.0	0.2142857142857142	15.0	2.0	3.0	2.6598598703996927	0.897	2.0	stim	s617
379.945	2.25	n/a	-1.0	n/a	columbia_card_task_fmri	n/a	n/a	-1.0	n/a	n/a	n/a	n/a	n/a	n/a	n/a	n/a	feedback	s617
382.195	0.204	n/a	-1.0	n/a	columbia_card_task_fmri	n/a	n/a	-1.0	n/a	n/a	n/a	n/a	n/a	n/a	n/a	n/a	ITI	s617
382.403	2.166	-0.2782526405806227	draw_card	0.0	columbia_card_task_fmri	14.0	0.8125	89.0	-65.0	0.1875	16.0	1.0	3.0	-1.7929062306372003	2.166	n/a	stim	s617
384.573	0.861	-1.2657526405806216	end_round	0.0	columbia_card_task_fmri	14.0	0.8	71.0	-65.0	0.2	16.0	2.0	3.0	-1.0276959146076443	0.861	1.0	stim	s617
385.439	2.25	n/a	-1.0	n/a	columbia_card_task_fmri	n/a	n/a	-1.0	n/a	n/a	n/a	n/a	n/a	n/a	n/a	n/a	feedback	s617
387.689	1.02	n/a	-1.0	n/a	columbia_card_task_fmri	n/a	n/a	-1.0	n/a	n/a	n/a	n/a	n/a	n/a	n/a	n/a	ITI	s617
388.713	1.221	-0.5282526405806227	draw_card	0.0	columbia_card_task_fmri	16.0	0.8125	89.0	-75.0	0.1875	16.0	1.0	3.0	2.890232071577813	1.221	n/a	stim	s617
389.938	1.108	-1.665752640580622	draw_card	0.0	columbia_card_task_fmri	16.0	0.8	89.0	-75.0	0.2	16.0	2.0	3.0	3.771708661593131	1.108	n/a	stim	s617
391.05	1.443	-2.9657526405806207	draw_card	0.0	columbia_card_task_fmri	16.0	0.7857142857142857	89.0	-75.0	0.2142857142857142	16.0	3.0	3.0	4.711267217040614	1.443	n/a	stim	s617
392.497	1.432	-4.465752640580626	end_round	0.0	columbia_card_task_fmri	16.0	0.7692307692307692	71.0	-75.0	0.2307692307692307	16.0	4.0	3.0	5.712089278860098	1.432	3.0	stim	s617
393.936	2.25	n/a	-1.0	n/a	columbia_card_task_fmri	n/a	n/a	-1.0	n/a	n/a	n/a	n/a	n/a	n/a	n/a	n/a	feedback	s617
396.186	0.0	n/a	-1.0	n/a	columbia_card_task_fmri	n/a	n/a	-1.0	n/a	n/a	n/a	n/a	n/a	n/a	n/a	n/a	ITI	s617
396.19	1.913	3.7342473594193786	draw_card	0.0	columbia_card_task_fmri	16.0	0.8666666666666667	89.0	-80.0	0.1333333333333333	15.0	1.0	2.0	0.0058859461064102	1.913	n/a	stim	s617
398.107	2.641	2.8199616451336658	draw_card	1.0	columbia_card_task_fmri	16.0	0.8571428571428572	89.0	-80.0	0.1428571428571428	15.0	2.0	2.0	0.9650383929468092	2.641	2.0	stim	s617
400.756	2.25	n/a	-1.0	n/a	columbia_card_task_fmri	n/a	n/a	-1.0	n/a	n/a	n/a	n/a	n/a	n/a	n/a	n/a	feedback	s617
403.006	0.0	n/a	-1.0	n/a	columbia_card_task_fmri	n/a	n/a	-1.0	n/a	n/a	n/a	n/a	n/a	n/a	n/a	n/a	ITI	s617
403.011	1.52	4.600914026086046	draw_card	0.0	columbia_card_task_fmri	17.0	0.8666666666666667	89.0	-80.0	0.1333333333333333	15.0	1.0	2.0	0.3457755059410345	1.52	n/a	stim	s617
404.536	0.515	3.6771045022765234	end_round	0.0	columbia_card_task_fmri	17.0	0.8571428571428572	71.0	-80.0	0.1428571428571428	15.0	2.0	2.0	1.314921711302219	0.515	1.0	stim	s617
405.058	2.25	n/a	-1.0	n/a	columbia_card_task_fmri	n/a	n/a	-1.0	n/a	n/a	n/a	n/a	n/a	n/a	n/a	n/a	feedback	s617
407.308	0.068	n/a	-1.0	n/a	columbia_card_task_fmri	n/a	n/a	-1.0	n/a	n/a	n/a	n/a	n/a	n/a	n/a	n/a	ITI	s617
407.379	3.006	0.5342473594193773	draw_card	0.0	columbia_card_task_fmri	1.0	0.9375	89.0	-15.0	0.0625	16.0	1.0	1.0	-28.722554430184896	3.006	n/a	stim	s617
410.389	1.333	0.4675806927527106	end_round	0.0	columbia_card_task_fmri	1.0	0.9333333333333332	71.0	-15.0	0.0666666666666666	16.0	2.0	1.0	-28.60551220188552	1.333	1.0	stim	s617
411.727	2.25	n/a	-1.0	n/a	columbia_card_task_fmri	n/a	n/a	-1.0	n/a	n/a	n/a	n/a	n/a	n/a	n/a	n/a	feedback	s617
413.977	0.476	n/a	-1.0	n/a	columbia_card_task_fmri	n/a	n/a	-1.0	n/a	n/a	n/a	n/a	n/a	n/a	n/a	n/a	ITI	s617
414.458	1.27	3.6592473594193775	draw_card	0.0	columbia_card_task_fmri	10.0	0.9375	89.0	-100.0	0.0625	16.0	1.0	1.0	-6.00009211899177	1.27	n/a	stim	s617
415.733	1.119	3.2009140260860445	draw_card	0.0	columbia_card_task_fmri	10.0	0.9333333333333332	89.0	-100.0	0.0666666666666666	16.0	2.0	1.0	-5.188190361843535	1.119	n/a	stim	s617
416.857	1.604	2.6771045022765216	end_round	0.0	columbia_card_task_fmri	10.0	0.9285714285714286	71.0	-100.0	0.0714285714285714	16.0	3.0	1.0	-4.297843193429252	1.604	2.0	stim	s617
418.467	2.25	n/a	-1.0	n/a	columbia_card_task_fmri	n/a	n/a	-1.0	n/a	n/a	n/a	n/a	n/a	n/a	n/a	n/a	feedback	s617
420.717	0.136	n/a	-1.0	n/a	columbia_card_task_fmri	n/a	n/a	-1.0	n/a	n/a	n/a	n/a	n/a	n/a	n/a	n/a	ITI	s617
420.858	1.622	4.2842473594193775	draw_card	0.0	columbia_card_task_fmri	15.0	0.875	89.0	-75.0	0.125	16.0	1.0	2.0	-2.8627152622443965	1.622	n/a	stim	s617
422.483	1.076	3.534247359419377	end_round	0.0	columbia_card_task_fmri	15.0	0.8666666666666667	71.0	-75.0	0.1333333333333333	16.0	2.0	2.0	-2.0334303827726146	1.076	1.0	stim	s617
423.565	2.25	n/a	-1.0	n/a	columbia_card_task_fmri	n/a	n/a	-1.0	n/a	n/a	n/a	n/a	n/a	n/a	n/a	n/a	feedback	s617
425.815	0.068	n/a	-1.0	n/a	columbia_card_task_fmri	n/a	n/a	-1.0	n/a	n/a	n/a	n/a	n/a	n/a	n/a	n/a	ITI	s617
425.889	1.736	4.5342473594193775	end_round	0.0	columbia_card_task_fmri	16.0	0.875	71.0	-80.0	0.125	16.0	1.0	2.0	-0.8787013740740335	1.736	0.0	stim	s617
427.633	2.25	n/a	-1.0	n/a	columbia_card_task_fmri	n/a	n/a	-1.0	n/a	n/a	n/a	n/a	n/a	n/a	n/a	n/a	feedback	s617
429.883	0.0	n/a	-1.0	n/a	columbia_card_task_fmri	n/a	n/a	-1.0	n/a	n/a	n/a	n/a	n/a	n/a	n/a	n/a	ITI	s617
429.887	3.698	1.7217473594193773	draw_card	0.0	columbia_card_task_fmri	4.0	0.6875	89.0	-5.0	0.3125	16.0	1.0	5.0	-28.42652938951815	3.698	n/a	stim	s617
433.59	0.504	1.5342473594193775	draw_card	1.0	columbia_card_task_fmri	4.0	0.6666666666666667	89.0	-5.0	0.3333333333333333	16.0	2.0	5.0	-28.356066246233446	0.504	2.0	stim	s617
434.103	2.25	n/a	-1.0	n/a	columbia_card_task_fmri	n/a	n/a	-1.0	n/a	n/a	n/a	n/a	n/a	n/a	n/a	n/a	feedback	s617
436.353	0.0	n/a	-1.0	n/a	columbia_card_task_fmri	n/a	n/a	-1.0	n/a	n/a	n/a	n/a	n/a	n/a	n/a	n/a	ITI	s617
436.358	2.281	-1.132419307247287	draw_card	0.0	columbia_card_task_fmri	14.0	0.8333333333333334	89.0	-80.0	0.1666666666666666	6.0	1.0	1.0	2.40359341435677	2.281	n/a	stim	s617
438.643	2.186	-4.265752640580621	draw_card	1.0	columbia_card_task_fmri	14.0	0.8	89.0	-80.0	0.2	6.0	2.0	1.0	4.971583555389294	2.186	2.0	stim	s617
440.837	2.25	n/a	-1.0	n/a	columbia_card_task_fmri	n/a	n/a	-1.0	n/a	n/a	n/a	n/a	n/a	n/a	n/a	n/a	feedback	s617
443.087	0.204	n/a	-1.0	n/a	columbia_card_task_fmri	n/a	n/a	-1.0	n/a	n/a	n/a	n/a	n/a	n/a	n/a	n/a	ITI	s617
443.296	1.503	0.5342473594193773	draw_card	0.0	columbia_card_task_fmri	15.0	0.8333333333333334	89.0	-75.0	0.1666666666666666	6.0	1.0	1.0	0.9130624514104396	1.503	n/a	stim	s617
444.803	0.649	-2.4657526405806225	end_round	0.0	columbia_card_task_fmri	15.0	0.8	71.0	-75.0	0.2	6.0	2.0	1.0	3.3717522167857013	0.649	1.0	stim	s617
445.46	2.25	n/a	-1.0	n/a	columbia_card_task_fmri	n/a	n/a	-1.0	n/a	n/a	n/a	n/a	n/a	n/a	n/a	n/a	feedback	s617
447.71	0.204	n/a	-1.0	n/a	columbia_card_task_fmri	n/a	n/a	-1.0	n/a	n/a	n/a	n/a	n/a	n/a	n/a	n/a	ITI	s617
447.918	1.912	2.2009140260860454	draw_card	0.0	columbia_card_task_fmri	16.0	0.8333333333333334	89.0	-70.0	0.1666666666666666	6.0	1.0	1.0	-0.5774516756319343	1.912	n/a	stim	s617
449.835	1.277	-0.665752640580622	draw_card	0.0	columbia_card_task_fmri	16.0	0.8	89.0	-70.0	0.2	6.0	2.0	1.0	1.7719365648993133	1.277	n/a	stim	s617
451.117	0.84	-4.965752640580623	end_round	0.0	columbia_card_task_fmri	16.0	0.75	71.0	-70.0	0.25	6.0	3.0	1.0	4.610712696917254	0.84	2.0	stim	s617
451.964	2.25	n/a	-1.0	n/a	columbia_card_task_fmri	n/a	n/a	-1.0	n/a	n/a	n/a	n/a	n/a	n/a	n/a	n/a	feedback	s617
454.214	0.272	n/a	-1.0	n/a	columbia_card_task_fmri	n/a	n/a	-1.0	n/a	n/a	n/a	n/a	n/a	n/a	n/a	n/a	ITI	s617
454.491	1.849	2.784247359419377	draw_card	0.0	columbia_card_task_fmri	23.0	0.75	89.0	-60.0	0.25	8.0	1.0	2.0	3.311813084731625	1.849	n/a	stim	s617
456.345	1.881	-0.1800383548663344	draw_card	0.0	columbia_card_task_fmri	23.0	0.7142857142857143	89.0	-60.0	0.2857142857142857	8.0	2.0	2.0	4.867172094450332	1.881	n/a	stim	s617
458.231	0.799	-4.132419307247287	end_round	0.0	columbia_card_task_fmri	23.0	0.6666666666666667	71.0	-60.0	0.3333333333333333	8.0	3.0	2.0	6.498010716839076	0.799	2.0	stim	s617
459.035	2.25	n/a	-1.0	n/a	columbia_card_task_fmri	n/a	n/a	-1.0	n/a	n/a	n/a	n/a	n/a	n/a	n/a	n/a	feedback	s617
461.285	0.136	n/a	-1.0	n/a	columbia_card_task_fmri	n/a	n/a	-1.0	n/a	n/a	n/a	n/a	n/a	n/a	n/a	n/a	ITI	s617
461.426	1.631	3.284247359419377	draw_card	1.0	columbia_card_task_fmri	27.0	0.75	89.0	-70.0	0.25	8.0	1.0	2.0	9.37341789058182	1.631	1.0	stim	s617
463.063	2.25	n/a	-1.0	n/a	columbia_card_task_fmri	n/a	n/a	-1.0	n/a	n/a	n/a	n/a	n/a	n/a	n/a	n/a	feedback	s617
465.313	0.204	n/a	-1.0	n/a	columbia_card_task_fmri	n/a	n/a	-1.0	n/a	n/a	n/a	n/a	n/a	n/a	n/a	n/a	ITI	s617
465.522	1.77	-1.465752640580621	draw_card	0.0	columbia_card_task_fmri	16.0	0.7777777777777778	89.0	-65.0	0.2222222222222222	9.0	1.0	2.0	1.046942355348769	1.77	n/a	stim	s617
467.297	1.052	-3.7157526405806234	draw_card	1.0	columbia_card_task_fmri	16.0	0.75	89.0	-65.0	0.25	9.0	2.0	2.0	2.4458857082974745	1.052	2.0	stim	s617
468.354	2.25	n/a	-1.0	n/a	columbia_card_task_fmri	n/a	n/a	-1.0	n/a	n/a	n/a	n/a	n/a	n/a	n/a	n/a	feedback	s617
470.604	0.272	n/a	-1.0	n/a	columbia_card_task_fmri	n/a	n/a	-1.0	n/a	n/a	n/a	n/a	n/a	n/a	n/a	n/a	ITI	s617
470.882	1.259	3.7342473594193786	draw_card	0.0	columbia_card_task_fmri	13.0	0.9	89.0	-85.0	0.1	10.0	1.0	1.0	-3.2273580499125	1.259	n/a	stim	s617
472.146	0.593	2.645358470530488	end_round	0.0	columbia_card_task_fmri	13.0	0.8888888888888888	71.0	-85.0	0.1111111111111111	10.0	2.0	1.0	-1.829149709968075	0.593	1.0	stim	s617
472.745	2.25	n/a	-1.0	n/a	columbia_card_task_fmri	n/a	n/a	-1.0	n/a	n/a	n/a	n/a	n/a	n/a	n/a	n/a	feedback	s617
474.995	0.272	n/a	-1.0	n/a	columbia_card_task_fmri	n/a	n/a	-1.0	n/a	n/a	n/a	n/a	n/a	n/a	n/a	n/a	ITI	s617
475.273	0.955	-1.2657526405806216	draw_card	0.0	columbia_card_task_fmri	14.0	0.8	89.0	-65.0	0.2	10.0	1.0	2.0	-1.0276959146076443	0.955	n/a	stim	s617
476.234	1.665	-3.021308196136176	draw_card	0.0	columbia_card_task_fmri	14.0	0.7777777777777778	89.0	-65.0	0.2222222222222222	10.0	2.0	2.0	0.2155702033004516	1.665	n/a	stim	s617
477.904	0.817	-5.215752640580623	end_round	0.0	columbia_card_task_fmri	14.0	0.75	71.0	-65.0	0.25	10.0	3.0	2.0	1.5799632943877455	0.817	2.0	stim	s617
478.729	2.25	n/a	-1.0	n/a	columbia_card_task_fmri	n/a	n/a	-1.0	n/a	n/a	n/a	n/a	n/a	n/a	n/a	n/a	feedback	s617
480.979	0.34	n/a	-1.0	n/a	columbia_card_task_fmri	n/a	n/a	-1.0	n/a	n/a	n/a	n/a	n/a	n/a	n/a	n/a	ITI	s617
481.323	1.041	0.1342473594193787	draw_card	0.0	columbia_card_task_fmri	17.0	0.8	89.0	-70.0	0.2	10.0	1.0	2.0	2.171888888941851	1.041	n/a	stim	s617
482.368	1.078	-1.7990859739139549	draw_card	0.0	columbia_card_task_fmri	17.0	0.7777777777777778	89.0	-70.0	0.2222222222222222	10.0	2.0	2.0	3.541088397331137	1.078	n/a	stim	s617
483.45	0.939	-4.215752640580623	end_round	0.0	columbia_card_task_fmri	17.0	0.75	71.0	-70.0	0.25	10.0	3.0	2.0	5.043681356491604	0.939	2.0	stim	s617
484.396	2.25	n/a	-1.0	n/a	columbia_card_task_fmri	n/a	n/a	-1.0	n/a	n/a	n/a	n/a	n/a	n/a	n/a	n/a	feedback	s617
486.646	0.204	n/a	-1.0	n/a	columbia_card_task_fmri	n/a	n/a	-1.0	n/a	n/a	n/a	n/a	n/a	n/a	n/a	n/a	ITI	s617
486.856	1.69	-1.1324193072472888	draw_card	0.0	columbia_card_task_fmri	13.0	0.8333333333333334	89.0	-75.0	0.1666666666666666	12.0	1.0	2.0	0.1678031399509052	1.69	n/a	stim	s617
488.551	0.949	-2.4657526405806243	draw_card	0.0	columbia_card_task_fmri	13.0	0.8181818181818181	89.0	-75.0	0.1818181818181818	12.0	2.0	2.0	1.313118138805308	0.949	n/a	stim	s617
489.505	1.218	-4.065752640580622	end_round	0.0	columbia_card_task_fmri	13.0	0.8	71.0	-75.0	0.2	12.0	3.0	2.0	2.571842296339554	1.218	2.0	stim	s617
490.73	2.25	n/a	-1.0	n/a	columbia_card_task_fmri	n/a	n/a	-1.0	n/a	n/a	n/a	n/a	n/a	n/a	n/a	n/a	feedback	s617
492.98	0.068	n/a	-1.0	n/a	columbia_card_task_fmri	n/a	n/a	-1.0	n/a	n/a	n/a	n/a	n/a	n/a	n/a	n/a	ITI	s617
493.053	1.796	0.5342473594193791	draw_card	0.0	columbia_card_task_fmri	14.0	0.8333333333333334	89.0	-70.0	0.1666666666666666	12.0	1.0	2.0	-1.3227016742943682	1.796	n/a	stim	s617
494.854	0.907	-0.7384799133078979	end_round	0.0	columbia_card_task_fmri	14.0	0.8181818181818181	71.0	-70.0	0.1818181818181818	12.0	2.0	2.0	-0.2294601110495406	0.907	1.0	stim	s617
495.768	2.25	n/a	-1.0	n/a	columbia_card_task_fmri	n/a	n/a	-1.0	n/a	n/a	n/a	n/a	n/a	n/a	n/a	n/a	feedback	s617
498.018	0.0	n/a	-1.0	n/a	columbia_card_task_fmri	n/a	n/a	-1.0	n/a	n/a	n/a	n/a	n/a	n/a	n/a	n/a	ITI	s617
498.024	1.429	0.5342473594193791	draw_card	0.0	columbia_card_task_fmri	16.0	0.8333333333333334	89.0	-80.0	0.1666666666666666	12.0	1.0	2.0	3.1488645517955334	1.429	n/a	stim	s617
499.458	0.755	-0.9202980951260796	draw_card	0.0	columbia_card_task_fmri	16.0	0.8181818181818181	89.0	-80.0	0.1818181818181818	12.0	2.0	2.0	4.398324675549965	0.755	n/a	stim	s617
500.218	1.276	-2.665752640580622	draw_card	1.0	columbia_card_task_fmri	16.0	0.8	89.0	-80.0	0.2	12.0	3.0	2.0	5.771504494572284	1.276	3.0	stim	s617
501.499	2.25	n/a	-1.0	n/a	columbia_card_task_fmri	n/a	n/a	-1.0	n/a	n/a	n/a	n/a	n/a	n/a	n/a	n/a	feedback	s617
503.749	0.408	n/a	-1.0	n/a	columbia_card_task_fmri	n/a	n/a	-1.0	n/a	n/a	n/a	n/a	n/a	n/a	n/a	n/a	ITI	s617
504.162	1.772	0.334247359419378	draw_card	0.0	columbia_card_task_fmri	16.0	0.8	89.0	-65.0	0.2	15.0	1.0	3.0	-0.2278074009987278	1.772	n/a	stim	s617
505.939	0.677	-0.8228954977234786	draw_card	1.0	columbia_card_task_fmri	16.0	0.7857142857142857	89.0	-65.0	0.2142857142857142	15.0	2.0	3.0	0.6084799471349669	0.677	2.0	stim	s617
506.623	2.25	n/a	-1.0	n/a	columbia_card_task_fmri	n/a	n/a	-1.0	n/a	n/a	n/a	n/a	n/a	n/a	n/a	n/a	feedback	s617
508.873	0.204	n/a	-1.0	n/a	columbia_card_task_fmri	n/a	n/a	-1.0	n/a	n/a	n/a	n/a	n/a	n/a	n/a	n/a	ITI	s617
509.081	4.35	-1.3407526405806227	draw_card	1.0	columbia_card_task_fmri	15.0	0.8125	89.0	-75.0	0.1875	16.0	1.0	3.0	2.499964332552004	4.35	1.0	stim	s617
513.436	2.25	n/a	-1.0	n/a	columbia_card_task_fmri	n/a	n/a	-1.0	n/a	n/a	n/a	n/a	n/a	n/a	n/a	n/a	feedback	s617
515.686	0.136	n/a	-1.0	n/a	columbia_card_task_fmri	n/a	n/a	-1.0	n/a	n/a	n/a	n/a	n/a	n/a	n/a	n/a	ITI	s617
515.827	1.698	-0.7782526405806227	draw_card	0.0	columbia_card_task_fmri	14.0	0.6875	89.0	-35.0	0.3125	16.0	1.0	5.0	-9.913821299246798	1.698	n/a	stim	s617
517.53	2.325	-1.7990859739139549	draw_card	0.0	columbia_card_task_fmri	14.0	0.6666666666666667	89.0	-35.0	0.3333333333333333	16.0	2.0	5.0	-9.527212799772087	2.325	n/a	stim	s617
519.859	0.812	-2.9657526405806225	draw_card	1.0	columbia_card_task_fmri	14.0	0.6428571428571428	89.0	-35.0	0.3571428571428571	16.0	3.0	5.0	-9.147420481055844	0.812	3.0	stim	s617
520.677	2.25	n/a	-1.0	n/a	columbia_card_task_fmri	n/a	n/a	-1.0	n/a	n/a	n/a	n/a	n/a	n/a	n/a	n/a	feedback	s617
522.927	0.34	n/a	-1.0	n/a	columbia_card_task_fmri	n/a	n/a	-1.0	n/a	n/a	n/a	n/a	n/a	n/a	n/a	n/a	ITI	s617
523.272	2.027	4.400914026086045	draw_card	0.0	columbia_card_task_fmri	16.0	0.8666666666666667	89.0	-75.0	0.1333333333333333	15.0	1.0	2.0	-1.6935469965699	2.027	n/a	stim	s617
525.304	0.716	3.5342473594193797	end_round	0.0	columbia_card_task_fmri	16.0	0.8571428571428572	71.0	-75.0	0.1428571428571428	15.0	2.0	2.0	-0.7843637662371243	0.716	1.0	stim	s617
526.026	2.25	n/a	-1.0	n/a	columbia_card_task_fmri	n/a	n/a	-1.0	n/a	n/a	n/a	n/a	n/a	n/a	n/a	n/a	feedback	s617
528.276	0.068	n/a	-1.0	n/a	columbia_card_task_fmri	n/a	n/a	-1.0	n/a	n/a	n/a	n/a	n/a	n/a	n/a	n/a	ITI	s617
528.35	1.667	5.067580692752711	draw_card	0.0	columbia_card_task_fmri	16.0	0.8666666666666667	89.0	-70.0	0.1333333333333333	15.0	1.0	2.0	-3.3929520123207872	1.667	n/a	stim	s617
530.022	0.777	4.248533073705093	draw_card	0.0	columbia_card_task_fmri	16.0	0.8571428571428572	89.0	-70.0	0.1428571428571428	15.0	2.0	2.0	-2.5337387952869825	0.777	n/a	stim	s617
530.804	0.52	3.303478128650146	end_round	0.0	columbia_card_task_fmri	16.0	0.8461538461538461	71.0	-70.0	0.1538461538461538	15.0	3.0	2.0	-1.5987085545708268	0.52	2.0	stim	s617
531.334	2.25	n/a	-1.0	n/a	columbia_card_task_fmri	n/a	n/a	-1.0	n/a	n/a	n/a	n/a	n/a	n/a	n/a	n/a	feedback	s617
533.584	0.34	n/a	-1.0	n/a	columbia_card_task_fmri	n/a	n/a	-1.0	n/a	n/a	n/a	n/a	n/a	n/a	n/a	n/a	ITI	s617
533.928	1.335	2.409247359419377	end_round	0.0	columbia_card_task_fmri	8.0	0.9375	71.0	-90.0	0.0625	16.0	1.0	1.0	-8.904173568279706	1.335	0.0	stim	s617
535.27	2.25	n/a	-1.0	n/a	columbia_card_task_fmri	n/a	n/a	-1.0	n/a	n/a	n/a	n/a	n/a	n/a	n/a	n/a	feedback	s617
537.52	0.136	n/a	-1.0	n/a	columbia_card_task_fmri	n/a	n/a	-1.0	n/a	n/a	n/a	n/a	n/a	n/a	n/a	n/a	ITI	s617
537.661	2.188	3.9717473594193775	draw_card	0.0	columbia_card_task_fmri	10.0	0.9375	89.0	-95.0	0.0625	16.0	1.0	1.0	-7.210144274005497	2.188	n/a	stim	s617
539.855	0.79	3.5342473594193784	end_round	0.0	columbia_card_task_fmri	10.0	0.9333333333333332	71.0	-95.0	0.0666666666666666	16.0	2.0	1.0	-6.435161896490225	0.79	1.0	stim	s617
540.651	2.25	n/a	-1.0	n/a	columbia_card_task_fmri	n/a	n/a	-1.0	n/a	n/a	n/a	n/a	n/a	n/a	n/a	n/a	feedback	s617
542.901	0.068	n/a	-1.0	n/a	columbia_card_task_fmri	n/a	n/a	-1.0	n/a	n/a	n/a	n/a	n/a	n/a	n/a	n/a	ITI	s617
542.975	1.249	4.9092473594193775	draw_card	0.0	columbia_card_task_fmri	15.0	0.875	89.0	-70.0	0.125	16.0	1.0	2.0	-4.516027868027788	1.249	n/a	stim	s617
544.228	1.593	4.200914026086044	draw_card	0.0	columbia_card_task_fmri	15.0	0.8666666666666667	89.0	-70.0	0.1333333333333333	16.0	2.0	2.0	-3.732829230692289	1.593	n/a	stim	s617
545.826	0.869	3.391390216562235	end_round	0.0	columbia_card_task_fmri	15.0	0.8571428571428572	71.0	-70.0	0.1428571428571428	16.0	3.0	2.0	-2.8836101242951955	0.869	2.0	stim	s617
546.705	2.25	n/a	-1.0	n/a	columbia_card_task_fmri	n/a	n/a	-1.0	n/a	n/a	n/a	n/a	n/a	n/a	n/a	n/a	feedback	s617
548.955	0.068	n/a	-1.0	n/a	columbia_card_task_fmri	n/a	n/a	-1.0	n/a	n/a	n/a	n/a	n/a	n/a	n/a	n/a	ITI	s617
549.028	1.915	3.9092473594193775	draw_card	0.0	columbia_card_task_fmri	16.0	0.875	89.0	-85.0	0.125	16.0	1.0	2.0	0.7746707181929722	1.915	n/a	stim	s617
550.947	1.254	3.0675806927527107	draw_card	0.0	columbia_card_task_fmri	16.0	0.8666666666666667	89.0	-85.0	0.1333333333333333	16.0	2.0	2.0	1.7053426692333673	1.254	n/a	stim	s617
552.206	1.965	2.1056759308479505	draw_card	0.0	columbia_card_task_fmri	16.0	0.8571428571428572	89.0	-85.0	0.1428571428571428	16.0	3.0	2.0	2.7144636540348586	1.965	n/a	stim	s617
554.177	0.884	0.9957858209578372	end_round	0.0	columbia_card_task_fmri	16.0	0.8461538461538461	71.0	-85.0	0.1538461538461538	16.0	4.0	2.0	3.812626701243019	0.884	3.0	stim	s617
555.067	2.25	n/a	-1.0	n/a	columbia_card_task_fmri	n/a	n/a	-1.0	n/a	n/a	n/a	n/a	n/a	n/a	n/a	n/a	feedback	s617
557.317	0.068	n/a	-1.0	n/a	columbia_card_task_fmri	n/a	n/a	-1.0	n/a	n/a	n/a	n/a	n/a	n/a	n/a	n/a	ITI	s617
