onset	duration	SS_delay	correct_response	experiment_exp_id	key_press	response_time	stopped	trial_type	worker_id
3.01	0.85	0.3	71.0	stop_signal	71.0	0.692	False	go	s638
5.399	0.85	0.3	71.0	stop_signal	71.0	0.526	False	go	s638
7.923	0.85	0.3	71.0	stop_signal	71.0	0.393	False	stop_failure	s638
10.856	0.85	0.25	89.0	stop_signal	89.0	0.699	False	go	s638
13.38	0.85	0.25	71.0	stop_signal	71.0	0.632	False	go	s638
15.905	0.85	0.25	89.0	stop_signal	89.0	0.569	False	go	s638
18.158	0.85	0.25	71.0	stop_signal	-1.0	n/a	True	stop_success	s638
20.682	0.85	0.3	89.0	stop_signal	89.0	0.566	False	go	s638
23.071	0.85	0.3	71.0	stop_signal	71.0	0.485	False	go	s638
25.324	0.85	0.3	89.0	stop_signal	89.0	0.507	False	go	s638
27.712	0.85	0.3	71.0	stop_signal	71.0	0.532	False	go	s638
29.964	0.85	0.3	89.0	stop_signal	89.0	0.509	False	stop_failure	s638
32.353	0.85	0.25	71.0	stop_signal	71.0	0.694	False	go	s638
34.878	0.85	0.25	71.0	stop_signal	-1.0	n/a	True	stop_success	s638
37.131	0.85	0.3	71.0	stop_signal	-1.0	n/a	True	stop_success	s638
39.519	0.85	0.35	89.0	stop_signal	89.0	0.45	False	go	s638
42.18	0.85	0.35	71.0	stop_signal	-1.0	n/a	True	stop_success	s638
44.433	0.85	0.4	89.0	stop_signal	89.0	0.657	False	go	s638
47.637	0.85	0.4	89.0	stop_signal	89.0	0.775	False	go	s638
50.026	0.85	0.4	89.0	stop_signal	89.0	0.553	False	go	s638
52.414	0.85	0.4	89.0	stop_signal	89.0	0.528	False	stop_failure	s638
54.939	0.85	0.35	89.0	stop_signal	89.0	0.589	False	go	s638
57.192	0.85	0.35	71.0	stop_signal	71.0	0.523	False	stop_failure	s638
59.445	0.85	0.3	71.0	stop_signal	71.0	0.615	False	stop_failure	s638
61.697	0.85	0.25	89.0	stop_signal	89.0	0.57	False	go	s638
64.629	0.85	0.25	71.0	stop_signal	71.0	0.636	False	go	s638
67.154	0.85	0.25	71.0	stop_signal	71.0	0.742	False	go	s638
69.678	0.85	0.25	71.0	stop_signal	71.0	0.758	False	go	s638
71.931	0.85	0.25	71.0	stop_signal	71.0	0.441	False	stop_failure	s638
74.455	0.85	0.2	71.0	stop_signal	-1.0	n/a	True	stop_success	s638
76.707	0.85	0.25	71.0	stop_signal	71.0	0.633	False	go	s638
79.096	0.85	0.25	89.0	stop_signal	-1.0	n/a	True	stop_success	s638
81.349	0.85	0.3	89.0	stop_signal	89.0	0.802	False	go	s638
84.009	0.85	0.3	89.0	stop_signal	89.0	0.579	False	go	s638
86.669	0.85	0.3	89.0	stop_signal	89.0	0.496	False	go	s638
88.922	0.85	0.3	71.0	stop_signal	71.0	0.696	False	go	s638
91.173	0.85	0.3	89.0	stop_signal	89.0	0.464	False	go	s638
93.561	0.85	0.3	71.0	stop_signal	71.0	0.453	False	stop_failure	s638
96.357	0.85	0.25	89.0	stop_signal	89.0	0.449	False	stop_failure	s638
98.746	0.85	0.2	71.0	stop_signal	-1.0	n/a	True	stop_success	s638
100.999	0.85	0.25	71.0	stop_signal	-1.0	n/a	True	stop_success	s638
113.76	0.85	0.3	89.0	stop_signal	-1.0	n/a	True	stop_success	s638
116.013	0.85	0.35	89.0	stop_signal	89.0	0.398	False	go	s638
118.673	0.85	0.35	89.0	stop_signal	89.0	0.452	False	go	s638
121.334	0.85	0.35	71.0	stop_signal	71.0	0.601	False	go	s638
123.588	0.85	0.35	71.0	stop_signal	71.0	0.515	False	go	s638
126.113	0.85	0.35	71.0	stop_signal	71.0	0.405	False	go	s638
128.365	0.85	0.35	89.0	stop_signal	89.0	0.492	False	stop_failure	s638
130.89	0.85	0.3	89.0	stop_signal	89.0	0.604	False	go	s638
133.415	0.85	0.3	71.0	stop_signal	-1.0	n/a	True	stop_success	s638
135.939	0.85	0.35	71.0	stop_signal	89.0	0.538	False	stop_failure	s638
138.328	0.85	0.3	71.0	stop_signal	-1.0	n/a	True	stop_success	s638
140.852	0.85	0.35	71.0	stop_signal	71.0	0.631	False	go	s638
143.376	0.85	0.35	89.0	stop_signal	89.0	0.624	False	go	s638
145.764	0.85	0.35	89.0	stop_signal	89.0	0.576	False	go	s638
148.016	0.85	0.35	89.0	stop_signal	89.0	0.475	False	go	s638
150.541	0.85	0.35	71.0	stop_signal	71.0	0.702	False	go	s638
153.338	0.85	0.35	71.0	stop_signal	-1.0	n/a	True	stop_success	s638
155.862	0.85	0.4	89.0	stop_signal	-1.0	n/a	True	stop_success	s638
158.25	0.85	0.45	71.0	stop_signal	71.0	0.628	False	go	s638
160.502	0.85	0.45	71.0	stop_signal	-1.0	n/a	True	stop_success	s638
162.755	0.85	0.5	89.0	stop_signal	89.0	0.641	False	stop_failure	s638
165.008	0.85	0.45	89.0	stop_signal	-1.0	n/a	True	stop_success	s638
167.261	0.85	0.5	89.0	stop_signal	89.0	0.63	False	go	s638
169.785	0.85	0.5	89.0	stop_signal	89.0	0.438	False	go	s638
172.038	0.85	0.5	71.0	stop_signal	71.0	0.555	False	stop_failure	s638
174.29	0.85	0.45	71.0	stop_signal	71.0	0.657	False	go	s638
176.543	0.85	0.45	89.0	stop_signal	89.0	0.647	False	go	s638
178.796	0.85	0.45	71.0	stop_signal	71.0	0.59	False	go	s638
181.184	0.85	0.45	71.0	stop_signal	71.0	0.364	False	go	s638
183.437	0.85	0.45	71.0	stop_signal	71.0	0.596	False	stop_failure	s638
185.69	0.85	0.4	71.0	stop_signal	71.0	0.667	False	go	s638
187.943	0.85	0.4	71.0	stop_signal	-1.0	n/a	True	stop_success	s638
190.196	0.85	0.45	89.0	stop_signal	71.0	0.577	False	stop_failure	s638
192.72	0.85	0.4	71.0	stop_signal	71.0	0.654	False	go	s638
195.109	0.85	0.4	71.0	stop_signal	71.0	0.514	False	go	s638
197.634	0.85	0.4	71.0	stop_signal	71.0	0.495	False	stop_failure	s638
199.887	0.85	0.35	71.0	stop_signal	71.0	0.689	False	go	s638
202.274	0.85	0.35	71.0	stop_signal	71.0	0.473	False	go	s638
204.663	0.85	0.35	89.0	stop_signal	89.0	0.719	False	go	s638
206.915	0.85	0.35	89.0	stop_signal	89.0	0.759	False	go	s638
209.303	0.85	0.35	89.0	stop_signal	89.0	0.621	False	go	s638
211.692	0.85	0.35	89.0	stop_signal	89.0	0.527	False	stop_failure	s638
224.587	0.85	0.3	89.0	stop_signal	89.0	0.62	False	go	s638
227.248	0.85	0.3	71.0	stop_signal	71.0	0.518	False	go	s638
229.773	0.85	0.3	89.0	stop_signal	89.0	0.669	False	stop_failure	s638
232.026	0.85	0.25	71.0	stop_signal	-1.0	n/a	True	stop_success	s638
234.958	0.85	0.3	71.0	stop_signal	71.0	0.755	False	go	s638
237.211	0.85	0.3	89.0	stop_signal	89.0	0.566	False	go	s638
239.736	0.85	0.3	89.0	stop_signal	-1.0	n/a	True	stop_success	s638
241.988	0.85	0.35	89.0	stop_signal	89.0	0.593	False	go	s638
244.24	0.85	0.35	89.0	stop_signal	-1.0	n/a	True	go	s638
246.493	0.85	0.35	89.0	stop_signal	89.0	0.48	False	go	s638
248.745	0.85	0.35	89.0	stop_signal	89.0	0.57	False	go	s638
251.27	0.85	0.35	89.0	stop_signal	-1.0	n/a	True	stop_success	s638
254.339	0.85	0.4	71.0	stop_signal	-1.0	n/a	True	stop_success	s638
256.592	0.85	0.45	71.0	stop_signal	89.0	0.743	False	go	s638
258.981	0.85	0.45	89.0	stop_signal	89.0	0.552	False	stop_failure	s638
261.37	0.85	0.4	89.0	stop_signal	89.0	0.559	False	go	s638
263.894	0.85	0.4	89.0	stop_signal	89.0	0.531	False	go	s638
266.283	0.85	0.4	71.0	stop_signal	71.0	0.6	False	go	s638
268.671	0.85	0.4	89.0	stop_signal	89.0	0.509	False	stop_failure	s638
271.468	0.85	0.35	71.0	stop_signal	71.0	0.449	False	go	s638
273.857	0.85	0.35	71.0	stop_signal	71.0	0.435	False	stop_failure	s638
276.109	0.85	0.3	89.0	stop_signal	-1.0	n/a	True	stop_success	s638
278.634	0.85	0.35	89.0	stop_signal	89.0	0.54	False	stop_failure	s638
281.023	0.85	0.3	71.0	stop_signal	71.0	0.983	False	go	s638
283.411	0.85	0.3	89.0	stop_signal	-1.0	n/a	True	stop_success	s638
285.663	0.85	0.35	71.0	stop_signal	71.0	0.574	False	go	s638
288.052	0.85	0.35	71.0	stop_signal	71.0	0.551	False	go	s638
290.305	0.85	0.35	89.0	stop_signal	-1.0	n/a	True	stop_success	s638
292.557	0.85	0.4	89.0	stop_signal	89.0	0.765	False	go	s638
294.81	0.85	0.4	71.0	stop_signal	71.0	0.816	False	go	s638
297.2	0.85	0.4	89.0	stop_signal	89.0	0.524	False	stop_failure	s638
299.453	0.85	0.35	89.0	stop_signal	-1.0	n/a	True	stop_success	s638
301.705	0.85	0.4	89.0	stop_signal	89.0	0.544	False	stop_failure	s638
304.094	0.85	0.35	89.0	stop_signal	89.0	0.543	False	stop_failure	s638
306.483	0.85	0.3	89.0	stop_signal	89.0	0.694	False	go	s638
308.736	0.85	0.3	71.0	stop_signal	-1.0	n/a	True	stop_success	s638
311.26	0.85	0.35	89.0	stop_signal	89.0	0.732	False	go	s638
313.513	0.85	0.35	71.0	stop_signal	71.0	0.604	False	go	s638
315.902	0.85	0.35	71.0	stop_signal	71.0	0.886	False	go	s638
318.155	0.85	0.35	89.0	stop_signal	-1.0	n/a	True	stop_success	s638
320.408	0.85	0.4	71.0	stop_signal	71.0	0.522	False	go	s638
322.796	0.85	0.4	89.0	stop_signal	89.0	0.563	False	go	s638
