onset	duration	planning	condition	current_position	exp_stage	experiment_exp_id	goal_state	key_press	problem_id	response_time	start_state	trial_id	worker_id
-60.658	0.0	0	n/a	n/a	n/a	ward_and_allport	n/a	32.0	n/a	25.071	n/a	instructions	s638
3.006	6.028	1	UA_with_intermediate	0,0,0,2,3,0,0,0,0	practice	ward_and_allport	1,2,3,0,0,0,0,0,0	89.0	0.0	6.028	1,0,0,2,3,0,0,0,0	to_hand	s638
9.036	0.634	0	UA_with_intermediate	0,0,0,2,3,0,1,0,0	practice	ward_and_allport	1,2,3,0,0,0,0,0,0	82.0	0.0	0.634	1,0,0,2,3,0,0,0,0	to_board	s638
9.672	2.122	0	UA_with_intermediate	0,0,0,2,0,0,1,0,0	practice	ward_and_allport	1,2,3,0,0,0,0,0,0	71.0	0.0	2.122	1,0,0,2,3,0,0,0,0	to_hand	s638
11.796	0.27	0	UA_with_intermediate	3,0,0,2,0,0,1,0,0	practice	ward_and_allport	1,2,3,0,0,0,0,0,0	89.0	0.0	0.27	1,0,0,2,3,0,0,0,0	to_board	s638
12.068	2.849	0	UA_with_intermediate	0,0,0,2,0,0,1,0,0	practice	ward_and_allport	1,2,3,0,0,0,0,0,0	89.0	0.0	2.849	1,0,0,2,3,0,0,0,0	to_hand	s638
14.917	0.368	0	UA_with_intermediate	0,0,0,2,3,0,1,0,0	practice	ward_and_allport	1,2,3,0,0,0,0,0,0	71.0	0.0	0.368	1,0,0,2,3,0,0,0,0	to_board	s638
15.289	1.221	0	UA_with_intermediate	0,0,0,2,3,0,0,0,0	practice	ward_and_allport	1,2,3,0,0,0,0,0,0	82.0	0.0	1.221	1,0,0,2,3,0,0,0,0	to_hand	s638
16.511	0.529	0	UA_with_intermediate	1,0,0,2,3,0,0,0,0	practice	ward_and_allport	1,2,3,0,0,0,0,0,0	89.0	0.0	0.529	1,0,0,2,3,0,0,0,0	to_board	s638
17.043	0.58	0	UA_with_intermediate	1,0,0,2,0,0,0,0,0	practice	ward_and_allport	1,2,3,0,0,0,0,0,0	71.0	0.0	0.58	1,0,0,2,3,0,0,0,0	to_hand	s638
17.624	0.577	0	UA_with_intermediate	1,0,0,2,0,0,3,0,0	practice	ward_and_allport	1,2,3,0,0,0,0,0,0	82.0	0.0	0.577	1,0,0,2,3,0,0,0,0	to_board	s638
18.203	0.689	0	UA_with_intermediate	1,0,0,0,0,0,3,0,0	practice	ward_and_allport	1,2,3,0,0,0,0,0,0	71.0	0.0	0.689	1,0,0,2,3,0,0,0,0	to_hand	s638
18.893	0.501	0	UA_with_intermediate	1,2,0,0,0,0,3,0,0	practice	ward_and_allport	1,2,3,0,0,0,0,0,0	89.0	0.0	0.501	1,0,0,2,3,0,0,0,0	to_board	s638
19.396	0.615	0	UA_with_intermediate	1,2,0,0,0,0,0,0,0	practice	ward_and_allport	1,2,3,0,0,0,0,0,0	82.0	0.0	0.615	1,0,0,2,3,0,0,0,0	to_hand	s638
20.012	0.481	0	UA_with_intermediate	1,2,3,0,0,0,0,0,0	practice	ward_and_allport	1,2,3,0,0,0,0,0,0	89.0	0.0	0.481	1,0,0,2,3,0,0,0,0	to_board	s638
20.496	1.0	0	UA_with_intermediate	n/a	practice	ward_and_allport	n/a	-1.0	0.0	n/a	n/a	feedback	s638
22.999	2.555	1	UA_with_intermediate	1,0,0,3,0,0,0,0,0	practice	ward_and_allport	1,3,2,0,0,0,0,0,0	89.0	1.0	2.555	1,2,0,3,0,0,0,0,0	to_hand	s638
25.555	1.16	0	UA_with_intermediate	1,0,0,3,0,0,2,0,0	practice	ward_and_allport	1,3,2,0,0,0,0,0,0	82.0	1.0	1.16	1,2,0,3,0,0,0,0,0	to_board	s638
26.717	0.794	0	UA_with_intermediate	1,0,0,0,0,0,2,0,0	practice	ward_and_allport	1,3,2,0,0,0,0,0,0	71.0	1.0	0.794	1,2,0,3,0,0,0,0,0	to_hand	s638
27.512	0.786	0	UA_with_intermediate	1,3,0,0,0,0,2,0,0	practice	ward_and_allport	1,3,2,0,0,0,0,0,0	89.0	1.0	0.786	1,2,0,3,0,0,0,0,0	to_board	s638
28.301	0.793	0	UA_with_intermediate	1,3,0,0,0,0,0,0,0	practice	ward_and_allport	1,3,2,0,0,0,0,0,0	82.0	1.0	0.793	1,2,0,3,0,0,0,0,0	to_hand	s638
29.096	0.724	0	UA_with_intermediate	1,3,2,0,0,0,0,0,0	practice	ward_and_allport	1,3,2,0,0,0,0,0,0	89.0	1.0	0.724	1,2,0,3,0,0,0,0,0	to_board	s638
29.824	1.0	0	UA_with_intermediate	n/a	practice	ward_and_allport	n/a	-1.0	1.0	n/a	n/a	feedback	s638
30.824	1.1	0	UA_with_intermediate	n/a	practice	ward_and_allport	n/a	-1.0	1.0	n/a	n/a	ITI	s638
31.925	2.682	1	UA_without_intermediate	0,0,0,1,2,0,0,0,0	practice	ward_and_allport	3,2,1,0,0,0,0,0,0	82.0	2.0	2.682	0,0,0,1,2,0,3,0,0	to_hand	s638
34.609	0.854	0	UA_without_intermediate	3,0,0,1,2,0,0,0,0	practice	ward_and_allport	3,2,1,0,0,0,0,0,0	89.0	2.0	0.854	0,0,0,1,2,0,3,0,0	to_board	s638
35.466	0.823	0	UA_without_intermediate	3,0,0,1,0,0,0,0,0	practice	ward_and_allport	3,2,1,0,0,0,0,0,0	71.0	2.0	0.823	0,0,0,1,2,0,3,0,0	to_hand	s638
36.29	0.507	0	UA_without_intermediate	3,2,0,1,0,0,0,0,0	practice	ward_and_allport	3,2,1,0,0,0,0,0,0	89.0	2.0	0.507	0,0,0,1,2,0,3,0,0	to_board	s638
36.799	0.679	0	UA_without_intermediate	3,2,0,0,0,0,0,0,0	practice	ward_and_allport	3,2,1,0,0,0,0,0,0	71.0	2.0	0.679	0,0,0,1,2,0,3,0,0	to_hand	s638
37.48	0.511	0	UA_without_intermediate	3,2,1,0,0,0,0,0,0	practice	ward_and_allport	3,2,1,0,0,0,0,0,0	89.0	2.0	0.511	0,0,0,1,2,0,3,0,0	to_board	s638
37.994	1.0	0	UA_without_intermediate	n/a	practice	ward_and_allport	n/a	-1.0	2.0	n/a	n/a	feedback	s638
38.994	1.2	0	UA_without_intermediate	n/a	practice	ward_and_allport	n/a	-1.0	2.0	n/a	n/a	ITI	s638
40.197	2.207	1	UA_without_intermediate	0,0,0,1,0,0,3,0,0	practice	ward_and_allport	2,3,1,0,0,0,0,0,0	71.0	3.0	2.207	0,0,0,1,2,0,3,0,0	to_hand	s638
42.404	0.306	0	UA_without_intermediate	2,0,0,1,0,0,3,0,0	practice	ward_and_allport	2,3,1,0,0,0,0,0,0	89.0	3.0	0.306	0,0,0,1,2,0,3,0,0	to_board	s638
42.712	0.831	0	UA_without_intermediate	2,0,0,1,0,0,0,0,0	practice	ward_and_allport	2,3,1,0,0,0,0,0,0	82.0	3.0	0.831	0,0,0,1,2,0,3,0,0	to_hand	s638
43.544	0.458	0	UA_without_intermediate	2,3,0,1,0,0,0,0,0	practice	ward_and_allport	2,3,1,0,0,0,0,0,0	89.0	3.0	0.458	0,0,0,1,2,0,3,0,0	to_board	s638
44.005	0.647	0	UA_without_intermediate	2,3,0,0,0,0,0,0,0	practice	ward_and_allport	2,3,1,0,0,0,0,0,0	71.0	3.0	0.647	0,0,0,1,2,0,3,0,0	to_hand	s638
44.653	0.396	0	UA_without_intermediate	2,3,1,0,0,0,0,0,0	practice	ward_and_allport	2,3,1,0,0,0,0,0,0	89.0	3.0	0.396	0,0,0,1,2,0,3,0,0	to_board	s638
45.053	1.0	0	UA_without_intermediate	n/a	practice	ward_and_allport	n/a	-1.0	3.0	n/a	n/a	feedback	s638
46.053	1.0	0	UA_without_intermediate	n/a	practice	ward_and_allport	n/a	-1.0	3.0	n/a	n/a	ITI	s638
49.058	3.875	1	PA_with_intermediate	1,2,0,0,0,0,0,0,0	test	ward_and_allport	1,0,0,0,0,0,2,3,0	89.0	0.0	3.875	1,2,3,0,0,0,0,0,0	to_hand	s638
52.934	0.445	0	PA_with_intermediate	1,2,0,3,0,0,0,0,0	test	ward_and_allport	1,0,0,0,0,0,2,3,0	71.0	0.0	0.445	1,2,3,0,0,0,0,0,0	to_board	s638
53.382	0.318	0	PA_with_intermediate	1,0,0,3,0,0,0,0,0	test	ward_and_allport	1,0,0,0,0,0,2,3,0	89.0	0.0	0.318	1,2,3,0,0,0,0,0,0	to_hand	s638
53.702	0.452	0	PA_with_intermediate	1,0,0,3,0,0,2,0,0	test	ward_and_allport	1,0,0,0,0,0,2,3,0	82.0	0.0	0.452	1,2,3,0,0,0,0,0,0	to_board	s638
54.157	0.421	0	PA_with_intermediate	1,0,0,0,0,0,2,0,0	test	ward_and_allport	1,0,0,0,0,0,2,3,0	71.0	0.0	0.421	1,2,3,0,0,0,0,0,0	to_hand	s638
54.579	0.51	0	PA_with_intermediate	1,0,0,0,0,0,2,3,0	test	ward_and_allport	1,0,0,0,0,0,2,3,0	82.0	0.0	0.51	1,2,3,0,0,0,0,0,0	to_board	s638
55.093	1.0	0	PA_with_intermediate	n/a	test	ward_and_allport	n/a	-1.0	0.0	n/a	n/a	feedback	s638
56.093	3.176	0	PA_with_intermediate	n/a	test	ward_and_allport	n/a	-1.0	0.0	n/a	n/a	ITI	s638
59.272	3.012	1	PA_with_intermediate	1,2,0,0,0,0,0,0,0	test	ward_and_allport	1,3,0,0,0,0,2,0,0	89.0	1.0	3.012	1,2,3,0,0,0,0,0,0	to_hand	s638
62.286	0.305	0	PA_with_intermediate	1,2,0,3,0,0,0,0,0	test	ward_and_allport	1,3,0,0,0,0,2,0,0	71.0	1.0	0.305	1,2,3,0,0,0,0,0,0	to_board	s638
62.593	0.306	0	PA_with_intermediate	1,0,0,3,0,0,0,0,0	test	ward_and_allport	1,3,0,0,0,0,2,0,0	89.0	1.0	0.306	1,2,3,0,0,0,0,0,0	to_hand	s638
62.901	0.328	0	PA_with_intermediate	1,0,0,3,0,0,2,0,0	test	ward_and_allport	1,3,0,0,0,0,2,0,0	82.0	1.0	0.328	1,2,3,0,0,0,0,0,0	to_board	s638
63.233	0.339	0	PA_with_intermediate	1,0,0,0,0,0,2,0,0	test	ward_and_allport	1,3,0,0,0,0,2,0,0	71.0	1.0	0.339	1,2,3,0,0,0,0,0,0	to_hand	s638
63.574	0.273	0	PA_with_intermediate	1,3,0,0,0,0,2,0,0	test	ward_and_allport	1,3,0,0,0,0,2,0,0	89.0	1.0	0.273	1,2,3,0,0,0,0,0,0	to_board	s638
63.851	1.0	0	PA_with_intermediate	n/a	test	ward_and_allport	n/a	-1.0	1.0	n/a	n/a	feedback	s638
64.851	2.36	0	PA_with_intermediate	n/a	test	ward_and_allport	n/a	-1.0	1.0	n/a	n/a	ITI	s638
67.215	2.61	1	PA_with_intermediate	1,2,0,0,0,0,0,0,0	test	ward_and_allport	1,0,0,2,3,0,0,0,0	89.0	2.0	2.61	1,2,3,0,0,0,0,0,0	to_hand	s638
69.825	0.39	0	PA_with_intermediate	1,2,0,0,0,0,3,0,0	test	ward_and_allport	1,0,0,2,3,0,0,0,0	82.0	2.0	0.39	1,2,3,0,0,0,0,0,0	to_board	s638
70.219	0.428	0	PA_with_intermediate	1,0,0,0,0,0,3,0,0	test	ward_and_allport	1,0,0,2,3,0,0,0,0	89.0	2.0	0.428	1,2,3,0,0,0,0,0,0	to_hand	s638
70.647	0.326	0	PA_with_intermediate	1,0,0,2,0,0,3,0,0	test	ward_and_allport	1,0,0,2,3,0,0,0,0	71.0	2.0	0.326	1,2,3,0,0,0,0,0,0	to_board	s638
70.976	0.382	0	PA_with_intermediate	1,0,0,2,0,0,0,0,0	test	ward_and_allport	1,0,0,2,3,0,0,0,0	82.0	2.0	0.382	1,2,3,0,0,0,0,0,0	to_hand	s638
71.359	0.326	0	PA_with_intermediate	1,0,0,2,3,0,0,0,0	test	ward_and_allport	1,0,0,2,3,0,0,0,0	71.0	2.0	0.326	1,2,3,0,0,0,0,0,0	to_board	s638
71.689	1.0	0	PA_with_intermediate	n/a	test	ward_and_allport	n/a	-1.0	2.0	n/a	n/a	feedback	s638
72.689	1.0	0	PA_with_intermediate	n/a	test	ward_and_allport	n/a	-1.0	2.0	n/a	n/a	ITI	s638
73.691	3.465	1	PA_without_intermediate	0,0,0,0,0,0,1,2,0	test	ward_and_allport	3,1,0,2,0,0,0,0,0	82.0	3.0	3.465	0,0,0,0,0,0,1,2,3	to_hand	s638
77.157	0.517	0	PA_without_intermediate	3,0,0,0,0,0,1,2,0	test	ward_and_allport	3,1,0,2,0,0,0,0,0	89.0	3.0	0.517	0,0,0,0,0,0,1,2,3	to_board	s638
77.677	2.363	0	PA_without_intermediate	3,0,0,0,0,0,1,0,0	test	ward_and_allport	3,1,0,2,0,0,0,0,0	82.0	3.0	2.363	0,0,0,0,0,0,1,2,3	to_hand	s638
80.042	0.549	0	PA_without_intermediate	3,0,0,2,0,0,1,0,0	test	ward_and_allport	3,1,0,2,0,0,0,0,0	71.0	3.0	0.549	0,0,0,0,0,0,1,2,3	to_board	s638
80.594	0.798	0	PA_without_intermediate	3,0,0,2,0,0,0,0,0	test	ward_and_allport	3,1,0,2,0,0,0,0,0	82.0	3.0	0.798	0,0,0,0,0,0,1,2,3	to_hand	s638
81.393	0.501	0	PA_without_intermediate	3,1,0,2,0,0,0,0,0	test	ward_and_allport	3,1,0,2,0,0,0,0,0	89.0	3.0	0.501	0,0,0,0,0,0,1,2,3	to_board	s638
81.898	1.0	0	PA_without_intermediate	n/a	test	ward_and_allport	n/a	-1.0	3.0	n/a	n/a	feedback	s638
82.898	1.408	0	PA_without_intermediate	n/a	test	ward_and_allport	n/a	-1.0	3.0	n/a	n/a	ITI	s638
84.311	2.641	1	PA_with_intermediate	1,2,0,0,0,0,0,0,0	test	ward_and_allport	1,0,0,2,3,0,0,0,0	89.0	4.0	2.641	1,2,3,0,0,0,0,0,0	to_hand	s638
86.954	0.507	0	PA_with_intermediate	1,2,0,0,0,0,3,0,0	test	ward_and_allport	1,0,0,2,3,0,0,0,0	82.0	4.0	0.507	1,2,3,0,0,0,0,0,0	to_board	s638
87.465	0.525	0	PA_with_intermediate	1,0,0,0,0,0,3,0,0	test	ward_and_allport	1,0,0,2,3,0,0,0,0	89.0	4.0	0.525	1,2,3,0,0,0,0,0,0	to_hand	s638
87.991	0.567	0	PA_with_intermediate	1,0,0,2,0,0,3,0,0	test	ward_and_allport	1,0,0,2,3,0,0,0,0	71.0	4.0	0.567	1,2,3,0,0,0,0,0,0	to_board	s638
88.563	0.43	0	PA_with_intermediate	1,0,0,2,0,0,0,0,0	test	ward_and_allport	1,0,0,2,3,0,0,0,0	82.0	4.0	0.43	1,2,3,0,0,0,0,0,0	to_hand	s638
88.995	0.469	0	PA_with_intermediate	1,0,0,2,3,0,0,0,0	test	ward_and_allport	1,0,0,2,3,0,0,0,0	71.0	4.0	0.469	1,2,3,0,0,0,0,0,0	to_board	s638
89.469	1.0	0	PA_with_intermediate	n/a	test	ward_and_allport	n/a	-1.0	4.0	n/a	n/a	feedback	s638
90.469	1.816	0	PA_with_intermediate	n/a	test	ward_and_allport	n/a	-1.0	4.0	n/a	n/a	ITI	s638
92.289	2.884	1	PA_without_intermediate	0,0,0,0,0,0,1,2,0	test	ward_and_allport	2,0,0,3,1,0,0,0,0	82.0	5.0	2.884	0,0,0,0,0,0,1,2,3	to_hand	s638
95.174	0.428	0	PA_without_intermediate	0,0,0,3,0,0,1,2,0	test	ward_and_allport	2,0,0,3,1,0,0,0,0	71.0	5.0	0.428	0,0,0,0,0,0,1,2,3	to_board	s638
95.605	1.061	0	PA_without_intermediate	0,0,0,3,0,0,1,0,0	test	ward_and_allport	2,0,0,3,1,0,0,0,0	82.0	5.0	1.061	0,0,0,0,0,0,1,2,3	to_hand	s638
96.667	0.297	0	PA_without_intermediate	2,0,0,3,0,0,1,0,0	test	ward_and_allport	2,0,0,3,1,0,0,0,0	89.0	5.0	0.297	0,0,0,0,0,0,1,2,3	to_board	s638
96.968	0.379	0	PA_without_intermediate	2,0,0,3,0,0,0,0,0	test	ward_and_allport	2,0,0,3,1,0,0,0,0	82.0	5.0	0.379	0,0,0,0,0,0,1,2,3	to_hand	s638
97.348	0.284	0	PA_without_intermediate	2,0,0,3,1,0,0,0,0	test	ward_and_allport	2,0,0,3,1,0,0,0,0	71.0	5.0	0.284	0,0,0,0,0,0,1,2,3	to_board	s638
97.638	1.0	0	PA_without_intermediate	n/a	test	ward_and_allport	n/a	-1.0	5.0	n/a	n/a	feedback	s638
98.638	2.088	0	PA_without_intermediate	n/a	test	ward_and_allport	n/a	-1.0	5.0	n/a	n/a	ITI	s638
100.729	1.628	1	PA_without_intermediate	1,2,0,0,0,0,0,0,0	test	ward_and_allport	0,0,0,2,0,0,3,1,0	89.0	6.0	1.628	1,2,3,0,0,0,0,0,0	to_hand	s638
102.359	0.377	0	PA_without_intermediate	1,2,0,0,0,0,3,0,0	test	ward_and_allport	0,0,0,2,0,0,3,1,0	82.0	6.0	0.377	1,2,3,0,0,0,0,0,0	to_board	s638
102.74	0.341	0	PA_without_intermediate	1,0,0,0,0,0,3,0,0	test	ward_and_allport	0,0,0,2,0,0,3,1,0	89.0	6.0	0.341	1,2,3,0,0,0,0,0,0	to_hand	s638
103.081	0.616	0	PA_without_intermediate	1,0,0,2,0,0,3,0,0	test	ward_and_allport	0,0,0,2,0,0,3,1,0	71.0	6.0	0.616	1,2,3,0,0,0,0,0,0	to_board	s638
103.701	0.251	0	PA_without_intermediate	0,0,0,2,0,0,3,0,0	test	ward_and_allport	0,0,0,2,0,0,3,1,0	89.0	6.0	0.251	1,2,3,0,0,0,0,0,0	to_hand	s638
103.953	0.269	0	PA_without_intermediate	0,0,0,2,0,0,3,1,0	test	ward_and_allport	0,0,0,2,0,0,3,1,0	82.0	6.0	0.269	1,2,3,0,0,0,0,0,0	to_board	s638
104.226	1.0	0	PA_without_intermediate	n/a	test	ward_and_allport	n/a	-1.0	6.0	n/a	n/a	feedback	s638
105.226	1.136	0	PA_without_intermediate	n/a	test	ward_and_allport	n/a	-1.0	6.0	n/a	n/a	ITI	s638
106.367	1.491	1	PA_without_intermediate	0,0,0,1,2,0,0,0,0	test	ward_and_allport	2,0,0,0,0,0,3,1,0	71.0	7.0	1.491	0,0,0,1,2,3,0,0,0	to_hand	s638
107.859	0.483	0	PA_without_intermediate	0,0,0,1,2,0,3,0,0	test	ward_and_allport	2,0,0,0,0,0,3,1,0	82.0	7.0	0.483	0,0,0,1,2,3,0,0,0	to_board	s638
108.346	0.337	0	PA_without_intermediate	0,0,0,1,0,0,3,0,0	test	ward_and_allport	2,0,0,0,0,0,3,1,0	71.0	7.0	0.337	0,0,0,1,2,3,0,0,0	to_hand	s638
108.684	0.244	0	PA_without_intermediate	2,0,0,1,0,0,3,0,0	test	ward_and_allport	2,0,0,0,0,0,3,1,0	89.0	7.0	0.244	0,0,0,1,2,3,0,0,0	to_board	s638
108.931	0.271	0	PA_without_intermediate	2,0,0,0,0,0,3,0,0	test	ward_and_allport	2,0,0,0,0,0,3,1,0	71.0	7.0	0.271	0,0,0,1,2,3,0,0,0	to_hand	s638
109.204	0.271	0	PA_without_intermediate	2,0,0,0,0,0,3,1,0	test	ward_and_allport	2,0,0,0,0,0,3,1,0	82.0	7.0	0.271	0,0,0,1,2,3,0,0,0	to_board	s638
109.48	1.0	0	PA_without_intermediate	n/a	test	ward_and_allport	n/a	-1.0	7.0	n/a	n/a	feedback	s638
110.48	6.168	0	PA_without_intermediate	n/a	test	ward_and_allport	n/a	-1.0	7.0	n/a	n/a	ITI	s638
116.654	2.399	1	PA_without_intermediate	0,0,0,1,2,0,0,0,0	test	ward_and_allport	1,0,0,0,0,0,3,2,0	71.0	8.0	2.399	0,0,0,1,2,3,0,0,0	to_hand	s638
119.055	0.413	0	PA_without_intermediate	0,0,0,1,2,0,3,0,0	test	ward_and_allport	1,0,0,0,0,0,3,2,0	82.0	8.0	0.413	0,0,0,1,2,3,0,0,0	to_board	s638
119.472	0.321	0	PA_without_intermediate	0,0,0,1,0,0,3,0,0	test	ward_and_allport	1,0,0,0,0,0,3,2,0	71.0	8.0	0.321	0,0,0,1,2,3,0,0,0	to_hand	s638
119.795	0.335	0	PA_without_intermediate	0,0,0,1,0,0,3,2,0	test	ward_and_allport	1,0,0,0,0,0,3,2,0	82.0	8.0	0.335	0,0,0,1,2,3,0,0,0	to_board	s638
120.134	0.623	0	PA_without_intermediate	0,0,0,0,0,0,3,2,0	test	ward_and_allport	1,0,0,0,0,0,3,2,0	71.0	8.0	0.623	0,0,0,1,2,3,0,0,0	to_hand	s638
120.758	0.301	0	PA_without_intermediate	1,0,0,0,0,0,3,2,0	test	ward_and_allport	1,0,0,0,0,0,3,2,0	89.0	8.0	0.301	0,0,0,1,2,3,0,0,0	to_board	s638
121.064	1.0	0	PA_without_intermediate	n/a	test	ward_and_allport	n/a	-1.0	8.0	n/a	n/a	feedback	s638
122.064	1.816	0	PA_without_intermediate	n/a	test	ward_and_allport	n/a	-1.0	8.0	n/a	n/a	ITI	s638
123.884	3.227	1	PA_with_intermediate	1,2,0,0,0,0,0,0,0	test	ward_and_allport	1,3,0,0,0,0,2,0,0	89.0	9.0	3.227	1,2,3,0,0,0,0,0,0	to_hand	s638
127.112	0.381	0	PA_with_intermediate	1,2,0,3,0,0,0,0,0	test	ward_and_allport	1,3,0,0,0,0,2,0,0	71.0	9.0	0.381	1,2,3,0,0,0,0,0,0	to_board	s638
127.497	0.322	0	PA_with_intermediate	1,0,0,3,0,0,0,0,0	test	ward_and_allport	1,3,0,0,0,0,2,0,0	89.0	9.0	0.322	1,2,3,0,0,0,0,0,0	to_hand	s638
127.82	0.28	0	PA_with_intermediate	1,0,0,3,0,0,2,0,0	test	ward_and_allport	1,3,0,0,0,0,2,0,0	82.0	9.0	0.28	1,2,3,0,0,0,0,0,0	to_board	s638
128.104	0.359	0	PA_with_intermediate	1,0,0,0,0,0,2,0,0	test	ward_and_allport	1,3,0,0,0,0,2,0,0	71.0	9.0	0.359	1,2,3,0,0,0,0,0,0	to_hand	s638
128.465	0.252	0	PA_with_intermediate	1,3,0,0,0,0,2,0,0	test	ward_and_allport	1,3,0,0,0,0,2,0,0	89.0	9.0	0.252	1,2,3,0,0,0,0,0,0	to_board	s638
128.721	1.0	0	PA_with_intermediate	n/a	test	ward_and_allport	n/a	-1.0	9.0	n/a	n/a	feedback	s638
129.721	1.952	0	PA_with_intermediate	n/a	test	ward_and_allport	n/a	-1.0	9.0	n/a	n/a	ITI	s638
131.678	1.797	1	PA_with_intermediate	0,0,0,1,2,0,0,0,0	test	ward_and_allport	0,0,0,1,0,0,2,3,0	71.0	10.0	1.797	0,0,0,1,2,3,0,0,0	to_hand	s638
133.477	0.39	0	PA_with_intermediate	3,0,0,1,2,0,0,0,0	test	ward_and_allport	0,0,0,1,0,0,2,3,0	89.0	10.0	0.39	0,0,0,1,2,3,0,0,0	to_board	s638
133.871	0.262	0	PA_with_intermediate	3,0,0,1,0,0,0,0,0	test	ward_and_allport	0,0,0,1,0,0,2,3,0	71.0	10.0	0.262	0,0,0,1,2,3,0,0,0	to_hand	s638
134.134	0.283	0	PA_with_intermediate	3,0,0,1,0,0,2,0,0	test	ward_and_allport	0,0,0,1,0,0,2,3,0	82.0	10.0	0.283	0,0,0,1,2,3,0,0,0	to_board	s638
134.421	0.304	0	PA_with_intermediate	0,0,0,1,0,0,2,0,0	test	ward_and_allport	0,0,0,1,0,0,2,3,0	89.0	10.0	0.304	0,0,0,1,2,3,0,0,0	to_hand	s638
134.726	0.354	0	PA_with_intermediate	0,0,0,1,0,0,2,3,0	test	ward_and_allport	0,0,0,1,0,0,2,3,0	82.0	10.0	0.354	0,0,0,1,2,3,0,0,0	to_board	s638
135.085	1.0	0	PA_with_intermediate	n/a	test	ward_and_allport	n/a	-1.0	10.0	n/a	n/a	feedback	s638
136.085	1.136	0	PA_with_intermediate	n/a	test	ward_and_allport	n/a	-1.0	10.0	n/a	n/a	ITI	s638
137.226	1.807	1	PA_without_intermediate	0,0,0,1,2,0,0,0,0	test	ward_and_allport	2,0,0,0,0,0,3,1,0	71.0	11.0	1.807	0,0,0,1,2,3,0,0,0	to_hand	s638
139.035	0.319	0	PA_without_intermediate	0,0,0,1,2,0,3,0,0	test	ward_and_allport	2,0,0,0,0,0,3,1,0	82.0	11.0	0.319	0,0,0,1,2,3,0,0,0	to_board	s638
139.359	0.376	0	PA_without_intermediate	0,0,0,1,0,0,3,0,0	test	ward_and_allport	2,0,0,0,0,0,3,1,0	71.0	11.0	0.376	0,0,0,1,2,3,0,0,0	to_hand	s638
139.736	0.303	0	PA_without_intermediate	2,0,0,1,0,0,3,0,0	test	ward_and_allport	2,0,0,0,0,0,3,1,0	89.0	11.0	0.303	0,0,0,1,2,3,0,0,0	to_board	s638
140.043	0.306	0	PA_without_intermediate	2,0,0,0,0,0,3,0,0	test	ward_and_allport	2,0,0,0,0,0,3,1,0	71.0	11.0	0.306	0,0,0,1,2,3,0,0,0	to_hand	s638
140.35	0.315	0	PA_without_intermediate	2,0,0,0,0,0,3,1,0	test	ward_and_allport	2,0,0,0,0,0,3,1,0	82.0	11.0	0.315	0,0,0,1,2,3,0,0,0	to_board	s638
140.67	1.0	0	PA_without_intermediate	n/a	test	ward_and_allport	n/a	-1.0	11.0	n/a	n/a	feedback	s638
141.67	1.68	0	PA_without_intermediate	n/a	test	ward_and_allport	n/a	-1.0	11.0	n/a	n/a	ITI	s638
143.355	2.71	1	PA_without_intermediate	0,0,0,0,0,0,1,2,0	test	ward_and_allport	1,0,0,3,2,0,0,0,0	82.0	12.0	2.71	0,0,0,0,0,0,1,2,3	to_hand	s638
146.067	0.334	0	PA_without_intermediate	0,0,0,3,0,0,1,2,0	test	ward_and_allport	1,0,0,3,2,0,0,0,0	71.0	12.0	0.334	0,0,0,0,0,0,1,2,3	to_board	s638
146.406	0.32	0	PA_without_intermediate	0,0,0,3,0,0,1,0,0	test	ward_and_allport	1,0,0,3,2,0,0,0,0	82.0	12.0	0.32	0,0,0,0,0,0,1,2,3	to_hand	s638
146.728	0.285	0	PA_without_intermediate	0,0,0,3,2,0,1,0,0	test	ward_and_allport	1,0,0,3,2,0,0,0,0	71.0	12.0	0.285	0,0,0,0,0,0,1,2,3	to_board	s638
147.017	0.362	0	PA_without_intermediate	0,0,0,3,2,0,0,0,0	test	ward_and_allport	1,0,0,3,2,0,0,0,0	82.0	12.0	0.362	0,0,0,0,0,0,1,2,3	to_hand	s638
147.381	0.29	0	PA_without_intermediate	1,0,0,3,2,0,0,0,0	test	ward_and_allport	1,0,0,3,2,0,0,0,0	89.0	12.0	0.29	0,0,0,0,0,0,1,2,3	to_board	s638
147.676	1.0	0	PA_without_intermediate	n/a	test	ward_and_allport	n/a	-1.0	12.0	n/a	n/a	feedback	s638
148.676	2.088	0	PA_without_intermediate	n/a	test	ward_and_allport	n/a	-1.0	12.0	n/a	n/a	ITI	s638
150.77	3.333	1	PA_with_intermediate	0,0,0,0,0,0,1,2,0	test	ward_and_allport	2,0,0,0,0,0,1,3,0	82.0	13.0	3.333	0,0,0,0,0,0,1,2,3	to_hand	s638
154.104	0.439	0	PA_with_intermediate	0,0,0,3,0,0,1,2,0	test	ward_and_allport	2,0,0,0,0,0,1,3,0	71.0	13.0	0.439	0,0,0,0,0,0,1,2,3	to_board	s638
154.548	0.337	0	PA_with_intermediate	0,0,0,3,0,0,1,0,0	test	ward_and_allport	2,0,0,0,0,0,1,3,0	82.0	13.0	0.337	0,0,0,0,0,0,1,2,3	to_hand	s638
154.886	0.329	0	PA_with_intermediate	2,0,0,3,0,0,1,0,0	test	ward_and_allport	2,0,0,0,0,0,1,3,0	89.0	13.0	0.329	0,0,0,0,0,0,1,2,3	to_board	s638
155.219	0.819	0	PA_with_intermediate	2,0,0,0,0,0,1,0,0	test	ward_and_allport	2,0,0,0,0,0,1,3,0	71.0	13.0	0.819	0,0,0,0,0,0,1,2,3	to_hand	s638
156.039	0.382	0	PA_with_intermediate	2,0,0,0,0,0,1,3,0	test	ward_and_allport	2,0,0,0,0,0,1,3,0	82.0	13.0	0.382	0,0,0,0,0,0,1,2,3	to_board	s638
156.427	1.0	0	PA_with_intermediate	n/a	test	ward_and_allport	n/a	-1.0	13.0	n/a	n/a	feedback	s638
157.427	1.0	0	PA_with_intermediate	n/a	test	ward_and_allport	n/a	-1.0	13.0	n/a	n/a	ITI	s638
158.433	2.409	1	PA_without_intermediate	0,0,0,0,0,0,1,2,0	test	ward_and_allport	3,1,0,2,0,0,0,0,0	82.0	14.0	2.409	0,0,0,0,0,0,1,2,3	to_hand	s638
160.843	0.363	0	PA_without_intermediate	3,0,0,0,0,0,1,2,0	test	ward_and_allport	3,1,0,2,0,0,0,0,0	89.0	14.0	0.363	0,0,0,0,0,0,1,2,3	to_board	s638
161.212	0.505	0	PA_without_intermediate	3,0,0,0,0,0,1,0,0	test	ward_and_allport	3,1,0,2,0,0,0,0,0	82.0	14.0	0.505	0,0,0,0,0,0,1,2,3	to_hand	s638
161.718	0.51	0	PA_without_intermediate	3,0,0,2,0,0,1,0,0	test	ward_and_allport	3,1,0,2,0,0,0,0,0	71.0	14.0	0.51	0,0,0,0,0,0,1,2,3	to_board	s638
162.233	0.33	0	PA_without_intermediate	3,0,0,2,0,0,0,0,0	test	ward_and_allport	3,1,0,2,0,0,0,0,0	82.0	14.0	0.33	0,0,0,0,0,0,1,2,3	to_hand	s638
162.563	0.262	0	PA_without_intermediate	3,1,0,2,0,0,0,0,0	test	ward_and_allport	3,1,0,2,0,0,0,0,0	89.0	14.0	0.262	0,0,0,0,0,0,1,2,3	to_board	s638
162.831	1.0	0	PA_without_intermediate	n/a	test	ward_and_allport	n/a	-1.0	14.0	n/a	n/a	feedback	s638
163.831	1.0	0	PA_without_intermediate	n/a	test	ward_and_allport	n/a	-1.0	14.0	n/a	n/a	ITI	s638
169.839	1.4	1	PA_without_intermediate	0,0,0,0,0,0,1,2,0	test	ward_and_allport	3,2,0,1,0,0,0,0,0	82.0	15.0	1.4	0,0,0,0,0,0,1,2,3	to_hand	s638
171.241	0.229	0	PA_without_intermediate	3,0,0,0,0,0,1,2,0	test	ward_and_allport	3,2,0,1,0,0,0,0,0	89.0	15.0	0.229	0,0,0,0,0,0,1,2,3	to_board	s638
171.475	0.248	0	PA_without_intermediate	3,0,0,0,0,0,1,0,0	test	ward_and_allport	3,2,0,1,0,0,0,0,0	82.0	15.0	0.248	0,0,0,0,0,0,1,2,3	to_hand	s638
171.725	0.171	0	PA_without_intermediate	3,2,0,0,0,0,1,0,0	test	ward_and_allport	3,2,0,1,0,0,0,0,0	89.0	15.0	0.171	0,0,0,0,0,0,1,2,3	to_board	s638
171.899	0.272	0	PA_without_intermediate	3,2,0,0,0,0,0,0,0	test	ward_and_allport	3,2,0,1,0,0,0,0,0	82.0	15.0	0.272	0,0,0,0,0,0,1,2,3	to_hand	s638
172.172	0.28	0	PA_without_intermediate	3,2,0,1,0,0,0,0,0	test	ward_and_allport	3,2,0,1,0,0,0,0,0	71.0	15.0	0.28	0,0,0,0,0,0,1,2,3	to_board	s638
172.458	1.0	0	PA_without_intermediate	n/a	test	ward_and_allport	n/a	-1.0	15.0	n/a	n/a	feedback	s638
173.458	1.0	0	PA_without_intermediate	n/a	test	ward_and_allport	n/a	-1.0	15.0	n/a	n/a	ITI	s638
174.461	1.294	1	PA_with_intermediate	1,2,0,0,0,0,0,0,0	test	ward_and_allport	1,3,0,2,0,0,0,0,0	89.0	16.0	1.294	1,2,3,0,0,0,0,0,0	to_hand	s638
175.757	0.808	0	PA_with_intermediate	1,2,0,3,0,0,0,0,0	test	ward_and_allport	1,3,0,2,0,0,0,0,0	71.0	16.0	0.808	1,2,3,0,0,0,0,0,0	to_board	s638
176.57	1.538	0	PA_with_intermediate	1,2,0,0,0,0,0,0,0	test	ward_and_allport	1,3,0,2,0,0,0,0,0	71.0	16.0	1.538	1,2,3,0,0,0,0,0,0	to_hand	s638
178.11	0.209	0	PA_with_intermediate	1,2,0,0,0,0,3,0,0	test	ward_and_allport	1,3,0,2,0,0,0,0,0	82.0	16.0	0.209	1,2,3,0,0,0,0,0,0	to_board	s638
178.324	0.305	0	PA_with_intermediate	1,0,0,0,0,0,3,0,0	test	ward_and_allport	1,3,0,2,0,0,0,0,0	89.0	16.0	0.305	1,2,3,0,0,0,0,0,0	to_hand	s638
178.63	0.274	0	PA_with_intermediate	1,0,0,2,0,0,3,0,0	test	ward_and_allport	1,3,0,2,0,0,0,0,0	71.0	16.0	0.274	1,2,3,0,0,0,0,0,0	to_board	s638
178.91	0.771	0	PA_with_intermediate	1,0,0,2,0,0,0,0,0	test	ward_and_allport	1,3,0,2,0,0,0,0,0	82.0	16.0	0.771	1,2,3,0,0,0,0,0,0	to_hand	s638
179.682	1.319	0	PA_with_intermediate	1,3,0,2,0,0,0,0,0	test	ward_and_allport	1,3,0,2,0,0,0,0,0	89.0	16.0	1.319	1,2,3,0,0,0,0,0,0	to_board	s638
181.008	1.0	0	PA_with_intermediate	n/a	test	ward_and_allport	n/a	-1.0	16.0	n/a	n/a	feedback	s638
182.008	1.544	0	PA_with_intermediate	n/a	test	ward_and_allport	n/a	-1.0	16.0	n/a	n/a	ITI	s638
183.558	1.342	1	PA_without_intermediate	0,0,0,0,0,0,1,2,0	test	ward_and_allport	1,0,0,3,2,0,0,0,0	82.0	17.0	1.342	0,0,0,0,0,0,1,2,3	to_hand	s638
184.9	0.363	0	PA_without_intermediate	0,0,0,3,0,0,1,2,0	test	ward_and_allport	1,0,0,3,2,0,0,0,0	71.0	17.0	0.363	0,0,0,0,0,0,1,2,3	to_board	s638
185.268	0.816	0	PA_without_intermediate	0,0,0,3,0,0,1,0,0	test	ward_and_allport	1,0,0,3,2,0,0,0,0	82.0	17.0	0.816	0,0,0,0,0,0,1,2,3	to_hand	s638
186.086	0.395	0	PA_without_intermediate	0,0,0,3,2,0,1,0,0	test	ward_and_allport	1,0,0,3,2,0,0,0,0	71.0	17.0	0.395	0,0,0,0,0,0,1,2,3	to_board	s638
186.485	0.353	0	PA_without_intermediate	0,0,0,3,2,0,0,0,0	test	ward_and_allport	1,0,0,3,2,0,0,0,0	82.0	17.0	0.353	0,0,0,0,0,0,1,2,3	to_hand	s638
186.84	0.283	0	PA_without_intermediate	1,0,0,3,2,0,0,0,0	test	ward_and_allport	1,0,0,3,2,0,0,0,0	89.0	17.0	0.283	0,0,0,0,0,0,1,2,3	to_board	s638
187.128	1.0	0	PA_without_intermediate	n/a	test	ward_and_allport	n/a	-1.0	17.0	n/a	n/a	feedback	s638
188.128	1.272	0	PA_without_intermediate	n/a	test	ward_and_allport	n/a	-1.0	17.0	n/a	n/a	ITI	s638
189.406	1.866	1	PA_with_intermediate	0,0,0,0,0,0,1,2,0	test	ward_and_allport	0,0,0,2,3,0,1,0,0	82.0	18.0	1.866	0,0,0,0,0,0,1,2,3	to_hand	s638
191.273	0.22	0	PA_with_intermediate	3,0,0,0,0,0,1,2,0	test	ward_and_allport	0,0,0,2,3,0,1,0,0	89.0	18.0	0.22	0,0,0,0,0,0,1,2,3	to_board	s638
191.499	0.271	0	PA_with_intermediate	3,0,0,0,0,0,1,0,0	test	ward_and_allport	0,0,0,2,3,0,1,0,0	82.0	18.0	0.271	0,0,0,0,0,0,1,2,3	to_hand	s638
191.77	0.332	0	PA_with_intermediate	3,0,0,2,0,0,1,0,0	test	ward_and_allport	0,0,0,2,3,0,1,0,0	71.0	18.0	0.332	0,0,0,0,0,0,1,2,3	to_board	s638
192.108	0.239	0	PA_with_intermediate	0,0,0,2,0,0,1,0,0	test	ward_and_allport	0,0,0,2,3,0,1,0,0	89.0	18.0	0.239	0,0,0,0,0,0,1,2,3	to_hand	s638
192.347	0.246	0	PA_with_intermediate	0,0,0,2,3,0,1,0,0	test	ward_and_allport	0,0,0,2,3,0,1,0,0	71.0	18.0	0.246	0,0,0,0,0,0,1,2,3	to_board	s638
192.6	1.0	0	PA_with_intermediate	n/a	test	ward_and_allport	n/a	-1.0	18.0	n/a	n/a	feedback	s638
193.6	3.04	0	PA_with_intermediate	n/a	test	ward_and_allport	n/a	-1.0	18.0	n/a	n/a	ITI	s638
196.646	2.381	1	PA_with_intermediate	0,0,0,0,0,0,1,2,0	test	ward_and_allport	2,3,0,0,0,0,1,0,0	82.0	19.0	2.381	0,0,0,0,0,0,1,2,3	to_hand	s638
199.027	0.249	0	PA_with_intermediate	3,0,0,0,0,0,1,2,0	test	ward_and_allport	2,3,0,0,0,0,1,0,0	89.0	19.0	0.249	0,0,0,0,0,0,1,2,3	to_board	s638
199.281	0.476	0	PA_with_intermediate	3,0,0,0,0,0,1,0,0	test	ward_and_allport	2,3,0,0,0,0,1,0,0	82.0	19.0	0.476	0,0,0,0,0,0,1,2,3	to_hand	s638
199.758	0.544	0	PA_with_intermediate	3,0,0,2,0,0,1,0,0	test	ward_and_allport	2,3,0,0,0,0,1,0,0	71.0	19.0	0.544	0,0,0,0,0,0,1,2,3	to_board	s638
200.308	0.267	0	PA_with_intermediate	0,0,0,2,0,0,1,0,0	test	ward_and_allport	2,3,0,0,0,0,1,0,0	89.0	19.0	0.267	0,0,0,0,0,0,1,2,3	to_hand	s638
200.576	0.238	0	PA_with_intermediate	0,0,0,2,3,0,1,0,0	test	ward_and_allport	2,3,0,0,0,0,1,0,0	71.0	19.0	0.238	0,0,0,0,0,0,1,2,3	to_board	s638
200.82	0.849	0	PA_with_intermediate	0,0,0,2,0,0,1,0,0	test	ward_and_allport	2,3,0,0,0,0,1,0,0	71.0	19.0	0.849	0,0,0,0,0,0,1,2,3	to_hand	s638
201.67	0.326	0	PA_with_intermediate	0,0,0,2,0,0,1,3,0	test	ward_and_allport	2,3,0,0,0,0,1,0,0	82.0	19.0	0.326	0,0,0,0,0,0,1,2,3	to_board	s638
202.002	0.299	0	PA_with_intermediate	0,0,0,0,0,0,1,3,0	test	ward_and_allport	2,3,0,0,0,0,1,0,0	71.0	19.0	0.299	0,0,0,0,0,0,1,2,3	to_hand	s638
202.302	0.299	0	PA_with_intermediate	2,0,0,0,0,0,1,3,0	test	ward_and_allport	2,3,0,0,0,0,1,0,0	89.0	19.0	0.299	0,0,0,0,0,0,1,2,3	to_board	s638
202.607	0.174	0	PA_with_intermediate	0,0,0,0,0,0,1,3,0	test	ward_and_allport	2,3,0,0,0,0,1,0,0	89.0	19.0	0.174	0,0,0,0,0,0,1,2,3	to_hand	s638
202.782	0.583	0	PA_with_intermediate	2,0,0,0,0,0,1,3,0	test	ward_and_allport	2,3,0,0,0,0,1,0,0	89.0	19.0	0.583	0,0,0,0,0,0,1,2,3	to_board	s638
203.37	0.35	0	PA_with_intermediate	2,0,0,0,0,0,1,0,0	test	ward_and_allport	2,3,0,0,0,0,1,0,0	82.0	19.0	0.35	0,0,0,0,0,0,1,2,3	to_hand	s638
203.722	0.253	0	PA_with_intermediate	2,3,0,0,0,0,1,0,0	test	ward_and_allport	2,3,0,0,0,0,1,0,0	89.0	19.0	0.253	0,0,0,0,0,0,1,2,3	to_board	s638
203.982	1.0	0	PA_with_intermediate	n/a	test	ward_and_allport	n/a	-1.0	19.0	n/a	n/a	feedback	s638
204.982	1.272	0	PA_with_intermediate	n/a	test	ward_and_allport	n/a	-1.0	19.0	n/a	n/a	ITI	s638
206.26	2.111	1	PA_with_intermediate	0,0,0,1,2,0,0,0,0	test	ward_and_allport	2,3,0,1,0,0,0,0,0	71.0	20.0	2.111	0,0,0,1,2,3,0,0,0	to_hand	s638
208.373	0.495	0	PA_with_intermediate	0,0,0,1,2,0,3,0,0	test	ward_and_allport	2,3,0,1,0,0,0,0,0	82.0	20.0	0.495	0,0,0,1,2,3,0,0,0	to_board	s638
208.874	0.463	0	PA_with_intermediate	0,0,0,1,0,0,3,0,0	test	ward_and_allport	2,3,0,1,0,0,0,0,0	71.0	20.0	0.463	0,0,0,1,2,3,0,0,0	to_hand	s638
209.338	0.46	0	PA_with_intermediate	2,0,0,1,0,0,3,0,0	test	ward_and_allport	2,3,0,1,0,0,0,0,0	89.0	20.0	0.46	0,0,0,1,2,3,0,0,0	to_board	s638
209.803	0.327	0	PA_with_intermediate	2,0,0,1,0,0,0,0,0	test	ward_and_allport	2,3,0,1,0,0,0,0,0	82.0	20.0	0.327	0,0,0,1,2,3,0,0,0	to_hand	s638
210.132	0.283	0	PA_with_intermediate	2,3,0,1,0,0,0,0,0	test	ward_and_allport	2,3,0,1,0,0,0,0,0	89.0	20.0	0.283	0,0,0,1,2,3,0,0,0	to_board	s638
210.423	1.0	0	PA_with_intermediate	n/a	test	ward_and_allport	n/a	-1.0	20.0	n/a	n/a	feedback	s638
211.423	1.136	0	PA_with_intermediate	n/a	test	ward_and_allport	n/a	-1.0	20.0	n/a	n/a	ITI	s638
212.566	2.123	1	PA_with_intermediate	0,0,0,1,2,0,0,0,0	test	ward_and_allport	0,0,0,1,3,0,2,0,0	71.0	21.0	2.123	0,0,0,1,2,3,0,0,0	to_hand	s638
214.691	0.766	0	PA_with_intermediate	3,0,0,1,2,0,0,0,0	test	ward_and_allport	0,0,0,1,3,0,2,0,0	89.0	21.0	0.766	0,0,0,1,2,3,0,0,0	to_board	s638
215.464	0.242	0	PA_with_intermediate	3,0,0,1,0,0,0,0,0	test	ward_and_allport	0,0,0,1,3,0,2,0,0	71.0	21.0	0.242	0,0,0,1,2,3,0,0,0	to_hand	s638
215.707	0.293	0	PA_with_intermediate	3,0,0,1,0,0,2,0,0	test	ward_and_allport	0,0,0,1,3,0,2,0,0	82.0	21.0	0.293	0,0,0,1,2,3,0,0,0	to_board	s638
216.007	0.231	0	PA_with_intermediate	0,0,0,1,0,0,2,0,0	test	ward_and_allport	0,0,0,1,3,0,2,0,0	89.0	21.0	0.231	0,0,0,1,2,3,0,0,0	to_hand	s638
216.238	0.233	0	PA_with_intermediate	0,0,0,1,3,0,2,0,0	test	ward_and_allport	0,0,0,1,3,0,2,0,0	71.0	21.0	0.233	0,0,0,1,2,3,0,0,0	to_board	s638
216.479	1.0	0	PA_with_intermediate	n/a	test	ward_and_allport	n/a	-1.0	21.0	n/a	n/a	feedback	s638
217.479	1.0	0	PA_with_intermediate	n/a	test	ward_and_allport	n/a	-1.0	21.0	n/a	n/a	ITI	s638
218.487	3.897	1	PA_with_intermediate	0,0,0,0,0,0,1,2,0	test	ward_and_allport	0,0,0,2,0,0,1,3,0	82.0	22.0	3.897	0,0,0,0,0,0,1,2,3	to_hand	s638
222.384	0.247	0	PA_with_intermediate	3,0,0,0,0,0,1,2,0	test	ward_and_allport	0,0,0,2,0,0,1,3,0	89.0	22.0	0.247	0,0,0,0,0,0,1,2,3	to_board	s638
222.638	0.295	0	PA_with_intermediate	3,0,0,0,0,0,1,0,0	test	ward_and_allport	0,0,0,2,0,0,1,3,0	82.0	22.0	0.295	0,0,0,0,0,0,1,2,3	to_hand	s638
222.934	0.276	0	PA_with_intermediate	3,0,0,2,0,0,1,0,0	test	ward_and_allport	0,0,0,2,0,0,1,3,0	71.0	22.0	0.276	0,0,0,0,0,0,1,2,3	to_board	s638
223.217	0.222	0	PA_with_intermediate	0,0,0,2,0,0,1,0,0	test	ward_and_allport	0,0,0,2,0,0,1,3,0	89.0	22.0	0.222	0,0,0,0,0,0,1,2,3	to_hand	s638
223.44	0.241	0	PA_with_intermediate	0,0,0,2,0,0,1,3,0	test	ward_and_allport	0,0,0,2,0,0,1,3,0	82.0	22.0	0.241	0,0,0,0,0,0,1,2,3	to_board	s638
223.687	1.0	0	PA_with_intermediate	n/a	test	ward_and_allport	n/a	-1.0	22.0	n/a	n/a	feedback	s638
224.687	1.0	0	PA_with_intermediate	n/a	test	ward_and_allport	n/a	-1.0	22.0	n/a	n/a	ITI	s638
225.695	2.122	1	PA_without_intermediate	0,0,0,0,0,0,1,2,0	test	ward_and_allport	2,0,0,3,1,0,0,0,0	82.0	23.0	2.122	0,0,0,0,0,0,1,2,3	to_hand	s638
227.819	0.289	0	PA_without_intermediate	0,0,0,3,0,0,1,2,0	test	ward_and_allport	2,0,0,3,1,0,0,0,0	71.0	23.0	0.289	0,0,0,0,0,0,1,2,3	to_board	s638
228.115	0.328	0	PA_without_intermediate	0,0,0,3,0,0,1,0,0	test	ward_and_allport	2,0,0,3,1,0,0,0,0	82.0	23.0	0.328	0,0,0,0,0,0,1,2,3	to_hand	s638
228.444	0.29	0	PA_without_intermediate	2,0,0,3,0,0,1,0,0	test	ward_and_allport	2,0,0,3,1,0,0,0,0	89.0	23.0	0.29	0,0,0,0,0,0,1,2,3	to_board	s638
228.741	0.241	0	PA_without_intermediate	2,0,0,3,0,0,0,0,0	test	ward_and_allport	2,0,0,3,1,0,0,0,0	82.0	23.0	0.241	0,0,0,0,0,0,1,2,3	to_hand	s638
228.983	0.237	0	PA_without_intermediate	2,0,0,3,1,0,0,0,0	test	ward_and_allport	2,0,0,3,1,0,0,0,0	71.0	23.0	0.237	0,0,0,0,0,0,1,2,3	to_board	s638
229.228	1.0	0	PA_without_intermediate	n/a	test	ward_and_allport	n/a	-1.0	23.0	n/a	n/a	feedback	s638
230.228	1.408	0	PA_without_intermediate	n/a	test	ward_and_allport	n/a	-1.0	23.0	n/a	n/a	ITI	s638
231.644	2.195	1	PA_with_intermediate	1,2,0,0,0,0,0,0,0	test	ward_and_allport	1,0,0,0,0,0,2,3,0	89.0	24.0	2.195	1,2,3,0,0,0,0,0,0	to_hand	s638
233.84	0.228	0	PA_with_intermediate	1,2,0,3,0,0,0,0,0	test	ward_and_allport	1,0,0,0,0,0,2,3,0	71.0	24.0	0.228	1,2,3,0,0,0,0,0,0	to_board	s638
234.076	0.227	0	PA_with_intermediate	1,0,0,3,0,0,0,0,0	test	ward_and_allport	1,0,0,0,0,0,2,3,0	89.0	24.0	0.227	1,2,3,0,0,0,0,0,0	to_hand	s638
234.305	0.249	0	PA_with_intermediate	1,0,0,3,0,0,2,0,0	test	ward_and_allport	1,0,0,0,0,0,2,3,0	82.0	24.0	0.249	1,2,3,0,0,0,0,0,0	to_board	s638
234.561	0.29	0	PA_with_intermediate	1,0,0,0,0,0,2,0,0	test	ward_and_allport	1,0,0,0,0,0,2,3,0	71.0	24.0	0.29	1,2,3,0,0,0,0,0,0	to_hand	s638
234.853	0.23	0	PA_with_intermediate	1,0,0,0,0,0,2,3,0	test	ward_and_allport	1,0,0,0,0,0,2,3,0	82.0	24.0	0.23	1,2,3,0,0,0,0,0,0	to_board	s638
235.09	1.0	0	PA_with_intermediate	n/a	test	ward_and_allport	n/a	-1.0	24.0	n/a	n/a	feedback	s638
236.09	2.768	0	PA_with_intermediate	n/a	test	ward_and_allport	n/a	-1.0	24.0	n/a	n/a	ITI	s638
238.865	2.605	1	PA_with_intermediate	1,2,0,0,0,0,0,0,0	test	ward_and_allport	1,3,0,2,0,0,0,0,0	89.0	25.0	2.605	1,2,3,0,0,0,0,0,0	to_hand	s638
241.472	0.278	0	PA_with_intermediate	1,2,0,0,0,0,3,0,0	test	ward_and_allport	1,3,0,2,0,0,0,0,0	82.0	25.0	0.278	1,2,3,0,0,0,0,0,0	to_board	s638
241.757	0.264	0	PA_with_intermediate	1,0,0,0,0,0,3,0,0	test	ward_and_allport	1,3,0,2,0,0,0,0,0	89.0	25.0	0.264	1,2,3,0,0,0,0,0,0	to_hand	s638
242.022	0.205	0	PA_with_intermediate	1,0,0,2,0,0,3,0,0	test	ward_and_allport	1,3,0,2,0,0,0,0,0	71.0	25.0	0.205	1,2,3,0,0,0,0,0,0	to_board	s638
242.235	0.243	0	PA_with_intermediate	1,0,0,2,0,0,0,0,0	test	ward_and_allport	1,3,0,2,0,0,0,0,0	82.0	25.0	0.243	1,2,3,0,0,0,0,0,0	to_hand	s638
242.479	0.168	0	PA_with_intermediate	1,3,0,2,0,0,0,0,0	test	ward_and_allport	1,3,0,2,0,0,0,0,0	89.0	25.0	0.168	1,2,3,0,0,0,0,0,0	to_board	s638
242.655	1.0	0	PA_with_intermediate	n/a	test	ward_and_allport	n/a	-1.0	25.0	n/a	n/a	feedback	s638
243.655	1.68	0	PA_with_intermediate	n/a	test	ward_and_allport	n/a	-1.0	25.0	n/a	n/a	ITI	s638
245.342	2.399	1	PA_without_intermediate	0,0,0,1,2,0,0,0,0	test	ward_and_allport	1,0,0,0,0,0,3,2,0	71.0	26.0	2.399	0,0,0,1,2,3,0,0,0	to_hand	s638
247.743	0.237	0	PA_without_intermediate	0,0,0,1,2,0,3,0,0	test	ward_and_allport	1,0,0,0,0,0,3,2,0	82.0	26.0	0.237	0,0,0,1,2,3,0,0,0	to_board	s638
247.987	0.322	0	PA_without_intermediate	0,0,0,1,0,0,3,0,0	test	ward_and_allport	1,0,0,0,0,0,3,2,0	71.0	26.0	0.322	0,0,0,1,2,3,0,0,0	to_hand	s638
248.31	0.419	0	PA_without_intermediate	0,0,0,1,0,0,3,2,0	test	ward_and_allport	1,0,0,0,0,0,3,2,0	82.0	26.0	0.419	0,0,0,1,2,3,0,0,0	to_board	s638
248.736	0.282	0	PA_without_intermediate	0,0,0,0,0,0,3,2,0	test	ward_and_allport	1,0,0,0,0,0,3,2,0	71.0	26.0	0.282	0,0,0,1,2,3,0,0,0	to_hand	s638
249.019	0.219	0	PA_without_intermediate	1,0,0,0,0,0,3,2,0	test	ward_and_allport	1,0,0,0,0,0,3,2,0	89.0	26.0	0.219	0,0,0,1,2,3,0,0,0	to_board	s638
249.247	1.0	0	PA_without_intermediate	n/a	test	ward_and_allport	n/a	-1.0	26.0	n/a	n/a	feedback	s638
250.247	2.224	0	PA_without_intermediate	n/a	test	ward_and_allport	n/a	-1.0	26.0	n/a	n/a	ITI	s638
252.479	1.479	1	PA_without_intermediate	0,0,0,1,2,0,0,0,0	test	ward_and_allport	3,1,0,0,0,0,2,0,0	71.0	27.0	1.479	0,0,0,1,2,3,0,0,0	to_hand	s638
253.959	0.228	0	PA_without_intermediate	3,0,0,1,2,0,0,0,0	test	ward_and_allport	3,1,0,0,0,0,2,0,0	89.0	27.0	0.228	0,0,0,1,2,3,0,0,0	to_board	s638
254.194	0.34	0	PA_without_intermediate	3,0,0,1,0,0,0,0,0	test	ward_and_allport	3,1,0,0,0,0,2,0,0	71.0	27.0	0.34	0,0,0,1,2,3,0,0,0	to_hand	s638
254.535	0.231	0	PA_without_intermediate	3,0,0,1,0,0,2,0,0	test	ward_and_allport	3,1,0,0,0,0,2,0,0	82.0	27.0	0.231	0,0,0,1,2,3,0,0,0	to_board	s638
254.774	0.239	0	PA_without_intermediate	3,0,0,0,0,0,2,0,0	test	ward_and_allport	3,1,0,0,0,0,2,0,0	71.0	27.0	0.239	0,0,0,1,2,3,0,0,0	to_hand	s638
255.014	0.203	0	PA_without_intermediate	3,1,0,0,0,0,2,0,0	test	ward_and_allport	3,1,0,0,0,0,2,0,0	89.0	27.0	0.203	0,0,0,1,2,3,0,0,0	to_board	s638
255.225	1.0	0	PA_without_intermediate	n/a	test	ward_and_allport	n/a	-1.0	27.0	n/a	n/a	feedback	s638
256.225	2.36	0	PA_without_intermediate	n/a	test	ward_and_allport	n/a	-1.0	27.0	n/a	n/a	ITI	s638
258.592	1.76	1	PA_without_intermediate	1,2,0,0,0,0,0,0,0	test	ward_and_allport	0,0,0,3,2,0,1,0,0	89.0	28.0	1.76	1,2,3,0,0,0,0,0,0	to_hand	s638
260.353	0.189	0	PA_without_intermediate	1,2,0,3,0,0,0,0,0	test	ward_and_allport	0,0,0,3,2,0,1,0,0	71.0	28.0	0.189	1,2,3,0,0,0,0,0,0	to_board	s638
260.55	0.206	0	PA_without_intermediate	1,0,0,3,0,0,0,0,0	test	ward_and_allport	0,0,0,3,2,0,1,0,0	89.0	28.0	0.206	1,2,3,0,0,0,0,0,0	to_hand	s638
260.757	0.213	0	PA_without_intermediate	1,0,0,3,2,0,0,0,0	test	ward_and_allport	0,0,0,3,2,0,1,0,0	71.0	28.0	0.213	1,2,3,0,0,0,0,0,0	to_board	s638
260.977	0.188	0	PA_without_intermediate	0,0,0,3,2,0,0,0,0	test	ward_and_allport	0,0,0,3,2,0,1,0,0	89.0	28.0	0.188	1,2,3,0,0,0,0,0,0	to_hand	s638
261.165	0.243	0	PA_without_intermediate	0,0,0,3,2,0,1,0,0	test	ward_and_allport	0,0,0,3,2,0,1,0,0	82.0	28.0	0.243	1,2,3,0,0,0,0,0,0	to_board	s638
261.416	1.0	0	PA_without_intermediate	n/a	test	ward_and_allport	n/a	-1.0	28.0	n/a	n/a	feedback	s638
262.416	1.0	0	PA_without_intermediate	n/a	test	ward_and_allport	n/a	-1.0	28.0	n/a	n/a	ITI	s638
263.424	1.793	1	PA_without_intermediate	1,2,0,0,0,0,0,0,0	test	ward_and_allport	0,0,0,3,2,0,1,0,0	89.0	29.0	1.793	1,2,3,0,0,0,0,0,0	to_hand	s638
265.219	0.202	0	PA_without_intermediate	1,2,0,3,0,0,0,0,0	test	ward_and_allport	0,0,0,3,2,0,1,0,0	71.0	29.0	0.202	1,2,3,0,0,0,0,0,0	to_board	s638
265.429	0.195	0	PA_without_intermediate	1,0,0,3,0,0,0,0,0	test	ward_and_allport	0,0,0,3,2,0,1,0,0	89.0	29.0	0.195	1,2,3,0,0,0,0,0,0	to_hand	s638
265.626	0.188	0	PA_without_intermediate	1,0,0,3,2,0,0,0,0	test	ward_and_allport	0,0,0,3,2,0,1,0,0	71.0	29.0	0.188	1,2,3,0,0,0,0,0,0	to_board	s638
265.821	0.179	0	PA_without_intermediate	0,0,0,3,2,0,0,0,0	test	ward_and_allport	0,0,0,3,2,0,1,0,0	89.0	29.0	0.179	1,2,3,0,0,0,0,0,0	to_hand	s638
266.0	0.183	0	PA_without_intermediate	0,0,0,3,2,0,1,0,0	test	ward_and_allport	0,0,0,3,2,0,1,0,0	82.0	29.0	0.183	1,2,3,0,0,0,0,0,0	to_board	s638
266.19	1.0	0	PA_without_intermediate	n/a	test	ward_and_allport	n/a	-1.0	29.0	n/a	n/a	feedback	s638
267.19	1.408	0	PA_without_intermediate	n/a	test	ward_and_allport	n/a	-1.0	29.0	n/a	n/a	ITI	s638
273.606	2.286	1	PA_with_intermediate	0,0,0,1,2,0,0,0,0	test	ward_and_allport	0,0,0,1,0,0,2,3,0	71.0	30.0	2.286	0,0,0,1,2,3,0,0,0	to_hand	s638
275.892	0.194	0	PA_with_intermediate	3,0,0,1,2,0,0,0,0	test	ward_and_allport	0,0,0,1,0,0,2,3,0	89.0	30.0	0.194	0,0,0,1,2,3,0,0,0	to_board	s638
276.093	0.222	0	PA_with_intermediate	3,0,0,1,0,0,0,0,0	test	ward_and_allport	0,0,0,1,0,0,2,3,0	71.0	30.0	0.222	0,0,0,1,2,3,0,0,0	to_hand	s638
276.317	0.228	0	PA_with_intermediate	3,0,0,1,0,0,2,0,0	test	ward_and_allport	0,0,0,1,0,0,2,3,0	82.0	30.0	0.228	0,0,0,1,2,3,0,0,0	to_board	s638
276.553	0.173	0	PA_with_intermediate	0,0,0,1,0,0,2,0,0	test	ward_and_allport	0,0,0,1,0,0,2,3,0	89.0	30.0	0.173	0,0,0,1,2,3,0,0,0	to_hand	s638
276.727	0.201	0	PA_with_intermediate	0,0,0,1,0,0,2,3,0	test	ward_and_allport	0,0,0,1,0,0,2,3,0	82.0	30.0	0.201	0,0,0,1,2,3,0,0,0	to_board	s638
276.937	1.0	0	PA_with_intermediate	n/a	test	ward_and_allport	n/a	-1.0	30.0	n/a	n/a	feedback	s638
277.937	1.136	0	PA_with_intermediate	n/a	test	ward_and_allport	n/a	-1.0	30.0	n/a	n/a	ITI	s638
279.082	1.834	1	PA_without_intermediate	1,2,0,0,0,0,0,0,0	test	ward_and_allport	0,0,0,1,0,0,3,2,0	89.0	31.0	1.834	1,2,3,0,0,0,0,0,0	to_hand	s638
280.917	0.164	0	PA_without_intermediate	1,2,0,0,0,0,3,0,0	test	ward_and_allport	0,0,0,1,0,0,3,2,0	82.0	31.0	0.164	1,2,3,0,0,0,0,0,0	to_board	s638
281.088	0.199	0	PA_without_intermediate	1,0,0,0,0,0,3,0,0	test	ward_and_allport	0,0,0,1,0,0,3,2,0	89.0	31.0	0.199	1,2,3,0,0,0,0,0,0	to_hand	s638
281.288	0.181	0	PA_without_intermediate	1,0,0,0,0,0,3,2,0	test	ward_and_allport	0,0,0,1,0,0,3,2,0	82.0	31.0	0.181	1,2,3,0,0,0,0,0,0	to_board	s638
281.476	1.049	0	PA_without_intermediate	0,0,0,0,0,0,3,2,0	test	ward_and_allport	0,0,0,1,0,0,3,2,0	89.0	31.0	1.049	1,2,3,0,0,0,0,0,0	to_hand	s638
282.525	0.156	0	PA_without_intermediate	1,0,0,0,0,0,3,2,0	test	ward_and_allport	0,0,0,1,0,0,3,2,0	89.0	31.0	0.156	1,2,3,0,0,0,0,0,0	to_board	s638
282.688	0.64	0	PA_without_intermediate	0,0,0,0,0,0,3,2,0	test	ward_and_allport	0,0,0,1,0,0,3,2,0	89.0	31.0	0.64	1,2,3,0,0,0,0,0,0	to_hand	s638
283.329	0.404	0	PA_without_intermediate	0,0,0,1,0,0,3,2,0	test	ward_and_allport	0,0,0,1,0,0,3,2,0	71.0	31.0	0.404	1,2,3,0,0,0,0,0,0	to_board	s638
283.741	1.0	0	PA_without_intermediate	n/a	test	ward_and_allport	n/a	-1.0	31.0	n/a	n/a	feedback	s638
284.741	4.128	0	PA_without_intermediate	n/a	test	ward_and_allport	n/a	-1.0	31.0	n/a	n/a	ITI	s638
288.876	1.835	1	PA_without_intermediate	0,0,0,1,2,0,0,0,0	test	ward_and_allport	3,2,0,0,0,0,1,0,0	71.0	32.0	1.835	0,0,0,1,2,3,0,0,0	to_hand	s638
290.713	0.192	0	PA_without_intermediate	3,0,0,1,2,0,0,0,0	test	ward_and_allport	3,2,0,0,0,0,1,0,0	89.0	32.0	0.192	0,0,0,1,2,3,0,0,0	to_board	s638
290.913	0.197	0	PA_without_intermediate	3,0,0,1,0,0,0,0,0	test	ward_and_allport	3,2,0,0,0,0,1,0,0	71.0	32.0	0.197	0,0,0,1,2,3,0,0,0	to_hand	s638
291.111	0.178	0	PA_without_intermediate	3,2,0,1,0,0,0,0,0	test	ward_and_allport	3,2,0,0,0,0,1,0,0	89.0	32.0	0.178	0,0,0,1,2,3,0,0,0	to_board	s638
291.298	0.749	0	PA_without_intermediate	3,2,0,0,0,0,0,0,0	test	ward_and_allport	3,2,0,0,0,0,1,0,0	71.0	32.0	0.749	0,0,0,1,2,3,0,0,0	to_hand	s638
292.049	0.235	0	PA_without_intermediate	3,2,0,0,0,0,1,0,0	test	ward_and_allport	3,2,0,0,0,0,1,0,0	82.0	32.0	0.235	0,0,0,1,2,3,0,0,0	to_board	s638
292.295	1.0	0	PA_without_intermediate	n/a	test	ward_and_allport	n/a	-1.0	32.0	n/a	n/a	feedback	s638
293.295	1.136	0	PA_without_intermediate	n/a	test	ward_and_allport	n/a	-1.0	32.0	n/a	n/a	ITI	s638
294.44	1.759	1	PA_without_intermediate	1,2,0,0,0,0,0,0,0	test	ward_and_allport	0,0,0,1,0,0,3,2,0	89.0	33.0	1.759	1,2,3,0,0,0,0,0,0	to_hand	s638
296.201	0.166	0	PA_without_intermediate	1,2,0,0,0,0,3,0,0	test	ward_and_allport	0,0,0,1,0,0,3,2,0	82.0	33.0	0.166	1,2,3,0,0,0,0,0,0	to_board	s638
296.377	1.008	0	PA_without_intermediate	1,0,0,0,0,0,3,0,0	test	ward_and_allport	0,0,0,1,0,0,3,2,0	89.0	33.0	1.008	1,2,3,0,0,0,0,0,0	to_hand	s638
297.387	0.213	0	PA_without_intermediate	1,0,0,0,0,0,3,2,0	test	ward_and_allport	0,0,0,1,0,0,3,2,0	82.0	33.0	0.213	1,2,3,0,0,0,0,0,0	to_board	s638
297.606	0.229	0	PA_without_intermediate	0,0,0,0,0,0,3,2,0	test	ward_and_allport	0,0,0,1,0,0,3,2,0	89.0	33.0	0.229	1,2,3,0,0,0,0,0,0	to_hand	s638
297.837	0.186	0	PA_without_intermediate	0,0,0,1,0,0,3,2,0	test	ward_and_allport	0,0,0,1,0,0,3,2,0	71.0	33.0	0.186	1,2,3,0,0,0,0,0,0	to_board	s638
298.031	1.0	0	PA_without_intermediate	n/a	test	ward_and_allport	n/a	-1.0	33.0	n/a	n/a	feedback	s638
299.031	4.264	0	PA_without_intermediate	n/a	test	ward_and_allport	n/a	-1.0	33.0	n/a	n/a	ITI	s638
303.302	2.271	1	PA_with_intermediate	0,0,0,1,2,0,0,0,0	test	ward_and_allport	2,0,0,1,3,0,0,0,0	71.0	34.0	2.271	0,0,0,1,2,3,0,0,0	to_hand	s638
305.574	0.199	0	PA_with_intermediate	0,0,0,1,2,0,3,0,0	test	ward_and_allport	2,0,0,1,3,0,0,0,0	82.0	34.0	0.199	0,0,0,1,2,3,0,0,0	to_board	s638
305.783	0.213	0	PA_with_intermediate	0,0,0,1,0,0,3,0,0	test	ward_and_allport	2,0,0,1,3,0,0,0,0	71.0	34.0	0.213	0,0,0,1,2,3,0,0,0	to_hand	s638
305.996	0.191	0	PA_with_intermediate	2,0,0,1,0,0,3,0,0	test	ward_and_allport	2,0,0,1,3,0,0,0,0	89.0	34.0	0.191	0,0,0,1,2,3,0,0,0	to_board	s638
306.197	0.221	0	PA_with_intermediate	2,0,0,1,0,0,0,0,0	test	ward_and_allport	2,0,0,1,3,0,0,0,0	82.0	34.0	0.221	0,0,0,1,2,3,0,0,0	to_hand	s638
306.418	0.193	0	PA_with_intermediate	2,0,0,1,3,0,0,0,0	test	ward_and_allport	2,0,0,1,3,0,0,0,0	71.0	34.0	0.193	0,0,0,1,2,3,0,0,0	to_board	s638
306.622	1.0	0	PA_with_intermediate	n/a	test	ward_and_allport	n/a	-1.0	34.0	n/a	n/a	feedback	s638
307.622	3.04	0	PA_with_intermediate	n/a	test	ward_and_allport	n/a	-1.0	34.0	n/a	n/a	ITI	s638
310.671	3.378	1	PA_with_intermediate	0,0,0,1,2,0,0,0,0	test	ward_and_allport	0,0,0,1,3,0,2,0,0	71.0	35.0	3.378	0,0,0,1,2,3,0,0,0	to_hand	s638
314.049	0.159	0	PA_with_intermediate	3,0,0,1,2,0,0,0,0	test	ward_and_allport	0,0,0,1,3,0,2,0,0	89.0	35.0	0.159	0,0,0,1,2,3,0,0,0	to_board	s638
314.216	0.157	0	PA_with_intermediate	0,0,0,1,2,0,0,0,0	test	ward_and_allport	0,0,0,1,3,0,2,0,0	89.0	35.0	0.157	0,0,0,1,2,3,0,0,0	to_hand	s638
314.373	0.036	0	PA_with_intermediate	0,0,0,1,2,3,0,0,0	test	ward_and_allport	0,0,0,1,3,0,2,0,0	71.0	35.0	0.036	0,0,0,1,2,3,0,0,0	to_board	s638
314.417	0.664	0	PA_with_intermediate	0,0,0,1,2,0,0,0,0	test	ward_and_allport	0,0,0,1,3,0,2,0,0	71.0	35.0	0.664	0,0,0,1,2,3,0,0,0	to_hand	s638
315.083	0.433	0	PA_with_intermediate	3,0,0,1,2,0,0,0,0	test	ward_and_allport	0,0,0,1,3,0,2,0,0	89.0	35.0	0.433	0,0,0,1,2,3,0,0,0	to_board	s638
315.526	0.343	0	PA_with_intermediate	3,0,0,1,0,0,0,0,0	test	ward_and_allport	0,0,0,1,3,0,2,0,0	71.0	35.0	0.343	0,0,0,1,2,3,0,0,0	to_hand	s638
315.87	0.316	0	PA_with_intermediate	3,0,0,1,0,0,2,0,0	test	ward_and_allport	0,0,0,1,3,0,2,0,0	82.0	35.0	0.316	0,0,0,1,2,3,0,0,0	to_board	s638
316.195	0.242	0	PA_with_intermediate	0,0,0,1,0,0,2,0,0	test	ward_and_allport	0,0,0,1,3,0,2,0,0	89.0	35.0	0.242	0,0,0,1,2,3,0,0,0	to_hand	s638
316.438	0.254	0	PA_with_intermediate	0,0,0,1,3,0,2,0,0	test	ward_and_allport	0,0,0,1,3,0,2,0,0	71.0	35.0	0.254	0,0,0,1,2,3,0,0,0	to_board	s638
316.7	1.0	0	PA_with_intermediate	n/a	test	ward_and_allport	n/a	-1.0	35.0	n/a	n/a	feedback	s638
317.7	1.136	0	PA_with_intermediate	n/a	test	ward_and_allport	n/a	-1.0	35.0	n/a	n/a	ITI	s638
318.844	1.853	1	PA_with_intermediate	0,0,0,1,2,0,0,0,0	test	ward_and_allport	2,0,0,1,3,0,0,0,0	71.0	36.0	1.853	0,0,0,1,2,3,0,0,0	to_hand	s638
320.698	0.253	0	PA_with_intermediate	0,0,0,1,2,0,3,0,0	test	ward_and_allport	2,0,0,1,3,0,0,0,0	82.0	36.0	0.253	0,0,0,1,2,3,0,0,0	to_board	s638
320.958	0.287	0	PA_with_intermediate	0,0,0,1,0,0,3,0,0	test	ward_and_allport	2,0,0,1,3,0,0,0,0	71.0	36.0	0.287	0,0,0,1,2,3,0,0,0	to_hand	s638
321.247	0.22	0	PA_with_intermediate	2,0,0,1,0,0,3,0,0	test	ward_and_allport	2,0,0,1,3,0,0,0,0	89.0	36.0	0.22	0,0,0,1,2,3,0,0,0	to_board	s638
321.474	0.252	0	PA_with_intermediate	2,0,0,1,0,0,0,0,0	test	ward_and_allport	2,0,0,1,3,0,0,0,0	82.0	36.0	0.252	0,0,0,1,2,3,0,0,0	to_hand	s638
321.728	0.226	0	PA_with_intermediate	2,0,0,1,3,0,0,0,0	test	ward_and_allport	2,0,0,1,3,0,0,0,0	71.0	36.0	0.226	0,0,0,1,2,3,0,0,0	to_board	s638
321.962	1.0	0	PA_with_intermediate	n/a	test	ward_and_allport	n/a	-1.0	36.0	n/a	n/a	feedback	s638
322.962	1.408	0	PA_with_intermediate	n/a	test	ward_and_allport	n/a	-1.0	36.0	n/a	n/a	ITI	s638
324.378	2.707	1	PA_without_intermediate	1,2,0,0,0,0,0,0,0	test	ward_and_allport	0,0,0,3,1,0,2,0,0	89.0	37.0	2.707	1,2,3,0,0,0,0,0,0	to_hand	s638
327.087	0.268	0	PA_without_intermediate	1,2,0,3,0,0,0,0,0	test	ward_and_allport	0,0,0,3,1,0,2,0,0	71.0	37.0	0.268	1,2,3,0,0,0,0,0,0	to_board	s638
327.362	0.581	0	PA_without_intermediate	1,0,0,3,0,0,0,0,0	test	ward_and_allport	0,0,0,3,1,0,2,0,0	89.0	37.0	0.581	1,2,3,0,0,0,0,0,0	to_hand	s638
327.945	0.252	0	PA_without_intermediate	1,0,0,3,0,0,2,0,0	test	ward_and_allport	0,0,0,3,1,0,2,0,0	82.0	37.0	0.252	1,2,3,0,0,0,0,0,0	to_board	s638
328.206	0.232	0	PA_without_intermediate	0,0,0,3,0,0,2,0,0	test	ward_and_allport	0,0,0,3,1,0,2,0,0	89.0	37.0	0.232	1,2,3,0,0,0,0,0,0	to_hand	s638
328.439	0.223	0	PA_without_intermediate	0,0,0,3,1,0,2,0,0	test	ward_and_allport	0,0,0,3,1,0,2,0,0	71.0	37.0	0.223	1,2,3,0,0,0,0,0,0	to_board	s638
328.672	1.0	0	PA_without_intermediate	n/a	test	ward_and_allport	n/a	-1.0	37.0	n/a	n/a	feedback	s638
329.672	1.68	0	PA_without_intermediate	n/a	test	ward_and_allport	n/a	-1.0	37.0	n/a	n/a	ITI	s638
331.36	1.766	1	PA_with_intermediate	0,0,0,0,0,0,1,2,0	test	ward_and_allport	2,3,0,0,0,0,1,0,0	82.0	38.0	1.766	0,0,0,0,0,0,1,2,3	to_hand	s638
333.128	1.066	0	PA_with_intermediate	0,0,0,3,0,0,1,2,0	test	ward_and_allport	2,3,0,0,0,0,1,0,0	71.0	38.0	1.066	0,0,0,0,0,0,1,2,3	to_board	s638
334.201	0.289	0	PA_with_intermediate	0,0,0,3,0,0,1,0,0	test	ward_and_allport	2,3,0,0,0,0,1,0,0	82.0	38.0	0.289	0,0,0,0,0,0,1,2,3	to_hand	s638
334.491	0.254	0	PA_with_intermediate	2,0,0,3,0,0,1,0,0	test	ward_and_allport	2,3,0,0,0,0,1,0,0	89.0	38.0	0.254	0,0,0,0,0,0,1,2,3	to_board	s638
334.755	0.363	0	PA_with_intermediate	2,0,0,0,0,0,1,0,0	test	ward_and_allport	2,3,0,0,0,0,1,0,0	71.0	38.0	0.363	0,0,0,0,0,0,1,2,3	to_hand	s638
335.119	0.305	0	PA_with_intermediate	2,3,0,0,0,0,1,0,0	test	ward_and_allport	2,3,0,0,0,0,1,0,0	89.0	38.0	0.305	0,0,0,0,0,0,1,2,3	to_board	s638
335.433	1.0	0	PA_with_intermediate	n/a	test	ward_and_allport	n/a	-1.0	38.0	n/a	n/a	feedback	s638
336.433	3.72	0	PA_with_intermediate	n/a	test	ward_and_allport	n/a	-1.0	38.0	n/a	n/a	ITI	s638
340.162	1.229	1	PA_without_intermediate	0,0,0,1,2,0,0,0,0	test	ward_and_allport	3,1,0,0,0,0,2,0,0	71.0	39.0	1.229	0,0,0,1,2,3,0,0,0	to_hand	s638
341.392	0.21	0	PA_without_intermediate	3,0,0,1,2,0,0,0,0	test	ward_and_allport	3,1,0,0,0,0,2,0,0	89.0	39.0	0.21	0,0,0,1,2,3,0,0,0	to_board	s638
341.611	0.217	0	PA_without_intermediate	3,0,0,1,0,0,0,0,0	test	ward_and_allport	3,1,0,0,0,0,2,0,0	71.0	39.0	0.217	0,0,0,1,2,3,0,0,0	to_hand	s638
341.829	0.21	0	PA_without_intermediate	3,0,0,1,0,0,2,0,0	test	ward_and_allport	3,1,0,0,0,0,2,0,0	82.0	39.0	0.21	0,0,0,1,2,3,0,0,0	to_board	s638
342.049	0.227	0	PA_without_intermediate	3,0,0,0,0,0,2,0,0	test	ward_and_allport	3,1,0,0,0,0,2,0,0	71.0	39.0	0.227	0,0,0,1,2,3,0,0,0	to_hand	s638
342.278	0.215	0	PA_without_intermediate	3,1,0,0,0,0,2,0,0	test	ward_and_allport	3,1,0,0,0,0,2,0,0	89.0	39.0	0.215	0,0,0,1,2,3,0,0,0	to_board	s638
342.502	1.0	0	PA_without_intermediate	n/a	test	ward_and_allport	n/a	-1.0	39.0	n/a	n/a	feedback	s638
343.502	2.224	0	PA_without_intermediate	n/a	test	ward_and_allport	n/a	-1.0	39.0	n/a	n/a	ITI	s638
345.733	1.722	1	PA_without_intermediate	0,0,0,0,0,0,1,2,0	test	ward_and_allport	3,2,0,1,0,0,0,0,0	82.0	40.0	1.722	0,0,0,0,0,0,1,2,3	to_hand	s638
347.457	0.178	0	PA_without_intermediate	3,0,0,0,0,0,1,2,0	test	ward_and_allport	3,2,0,1,0,0,0,0,0	89.0	40.0	0.178	0,0,0,0,0,0,1,2,3	to_board	s638
347.643	0.336	0	PA_without_intermediate	3,0,0,0,0,0,1,0,0	test	ward_and_allport	3,2,0,1,0,0,0,0,0	82.0	40.0	0.336	0,0,0,0,0,0,1,2,3	to_hand	s638
347.98	0.214	0	PA_without_intermediate	3,2,0,0,0,0,1,0,0	test	ward_and_allport	3,2,0,1,0,0,0,0,0	89.0	40.0	0.214	0,0,0,0,0,0,1,2,3	to_board	s638
348.202	0.684	0	PA_without_intermediate	3,2,0,0,0,0,0,0,0	test	ward_and_allport	3,2,0,1,0,0,0,0,0	82.0	40.0	0.684	0,0,0,0,0,0,1,2,3	to_hand	s638
348.888	0.27	0	PA_without_intermediate	3,2,0,1,0,0,0,0,0	test	ward_and_allport	3,2,0,1,0,0,0,0,0	71.0	40.0	0.27	0,0,0,0,0,0,1,2,3	to_board	s638
349.166	1.0	0	PA_without_intermediate	n/a	test	ward_and_allport	n/a	-1.0	40.0	n/a	n/a	feedback	s638
350.166	1.272	0	PA_without_intermediate	n/a	test	ward_and_allport	n/a	-1.0	40.0	n/a	n/a	ITI	s638
351.446	2.116	1	PA_with_intermediate	0,0,0,0,0,0,1,2,0	test	ward_and_allport	2,0,0,0,0,0,1,3,0	82.0	41.0	2.116	0,0,0,0,0,0,1,2,3	to_hand	s638
353.564	0.577	0	PA_with_intermediate	0,0,0,3,0,0,1,2,0	test	ward_and_allport	2,0,0,0,0,0,1,3,0	71.0	41.0	0.577	0,0,0,0,0,0,1,2,3	to_board	s638
354.149	0.225	0	PA_with_intermediate	0,0,0,3,0,0,1,0,0	test	ward_and_allport	2,0,0,0,0,0,1,3,0	82.0	41.0	0.225	0,0,0,0,0,0,1,2,3	to_hand	s638
354.376	0.223	0	PA_with_intermediate	2,0,0,3,0,0,1,0,0	test	ward_and_allport	2,0,0,0,0,0,1,3,0	89.0	41.0	0.223	0,0,0,0,0,0,1,2,3	to_board	s638
354.606	0.486	0	PA_with_intermediate	2,0,0,0,0,0,1,0,0	test	ward_and_allport	2,0,0,0,0,0,1,3,0	71.0	41.0	0.486	0,0,0,0,0,0,1,2,3	to_hand	s638
355.094	0.251	0	PA_with_intermediate	2,0,0,0,0,0,1,3,0	test	ward_and_allport	2,0,0,0,0,0,1,3,0	82.0	41.0	0.251	0,0,0,0,0,0,1,2,3	to_board	s638
355.353	1.0	0	PA_with_intermediate	n/a	test	ward_and_allport	n/a	-1.0	41.0	n/a	n/a	feedback	s638
356.353	2.632	0	PA_with_intermediate	n/a	test	ward_and_allport	n/a	-1.0	41.0	n/a	n/a	ITI	s638
358.993	1.22	1	PA_without_intermediate	1,2,0,0,0,0,0,0,0	test	ward_and_allport	0,0,0,3,1,0,2,0,0	89.0	42.0	1.22	1,2,3,0,0,0,0,0,0	to_hand	s638
360.214	0.178	0	PA_without_intermediate	1,2,0,3,0,0,0,0,0	test	ward_and_allport	0,0,0,3,1,0,2,0,0	71.0	42.0	0.178	1,2,3,0,0,0,0,0,0	to_board	s638
360.4	0.219	0	PA_without_intermediate	1,0,0,3,0,0,0,0,0	test	ward_and_allport	0,0,0,3,1,0,2,0,0	89.0	42.0	0.219	1,2,3,0,0,0,0,0,0	to_hand	s638
360.621	0.225	0	PA_without_intermediate	1,0,0,3,0,0,2,0,0	test	ward_and_allport	0,0,0,3,1,0,2,0,0	82.0	42.0	0.225	1,2,3,0,0,0,0,0,0	to_board	s638
360.853	0.188	0	PA_without_intermediate	0,0,0,3,0,0,2,0,0	test	ward_and_allport	0,0,0,3,1,0,2,0,0	89.0	42.0	0.188	1,2,3,0,0,0,0,0,0	to_hand	s638
361.042	0.195	0	PA_without_intermediate	0,0,0,3,1,0,2,0,0	test	ward_and_allport	0,0,0,3,1,0,2,0,0	71.0	42.0	0.195	1,2,3,0,0,0,0,0,0	to_board	s638
361.246	1.0	0	PA_without_intermediate	n/a	test	ward_and_allport	n/a	-1.0	42.0	n/a	n/a	feedback	s638
362.246	1.408	0	PA_without_intermediate	n/a	test	ward_and_allport	n/a	-1.0	42.0	n/a	n/a	ITI	s638
363.661	1.123	1	PA_without_intermediate	1,2,0,0,0,0,0,0,0	test	ward_and_allport	0,0,0,2,0,0,3,1,0	89.0	43.0	1.123	1,2,3,0,0,0,0,0,0	to_hand	s638
364.785	0.205	0	PA_without_intermediate	1,2,0,0,0,0,3,0,0	test	ward_and_allport	0,0,0,2,0,0,3,1,0	82.0	43.0	0.205	1,2,3,0,0,0,0,0,0	to_board	s638
364.997	0.548	0	PA_without_intermediate	1,0,0,0,0,0,3,0,0	test	ward_and_allport	0,0,0,2,0,0,3,1,0	89.0	43.0	0.548	1,2,3,0,0,0,0,0,0	to_hand	s638
365.546	0.149	0	PA_without_intermediate	1,0,0,2,0,0,3,0,0	test	ward_and_allport	0,0,0,2,0,0,3,1,0	71.0	43.0	0.149	1,2,3,0,0,0,0,0,0	to_board	s638
365.703	0.357	0	PA_without_intermediate	1,0,0,2,0,0,0,0,0	test	ward_and_allport	0,0,0,2,0,0,3,1,0	82.0	43.0	0.357	1,2,3,0,0,0,0,0,0	to_hand	s638
366.061	0.616	0	PA_without_intermediate	1,0,0,2,0,0,3,0,0	test	ward_and_allport	0,0,0,2,0,0,3,1,0	82.0	43.0	0.616	1,2,3,0,0,0,0,0,0	to_board	s638
366.684	0.283	0	PA_without_intermediate	0,0,0,2,0,0,3,0,0	test	ward_and_allport	0,0,0,2,0,0,3,1,0	89.0	43.0	0.283	1,2,3,0,0,0,0,0,0	to_hand	s638
366.969	0.25	0	PA_without_intermediate	0,0,0,2,0,0,3,1,0	test	ward_and_allport	0,0,0,2,0,0,3,1,0	82.0	43.0	0.25	1,2,3,0,0,0,0,0,0	to_board	s638
367.227	1.0	0	PA_without_intermediate	n/a	test	ward_and_allport	n/a	-1.0	43.0	n/a	n/a	feedback	s638
368.227	1.0	0	PA_without_intermediate	n/a	test	ward_and_allport	n/a	-1.0	43.0	n/a	n/a	ITI	s638
369.237	1.653	1	PA_with_intermediate	0,0,0,0,0,0,1,2,0	test	ward_and_allport	0,0,0,2,3,0,1,0,0	82.0	44.0	1.653	0,0,0,0,0,0,1,2,3	to_hand	s638
370.891	0.282	0	PA_with_intermediate	3,0,0,0,0,0,1,2,0	test	ward_and_allport	0,0,0,2,3,0,1,0,0	89.0	44.0	0.282	0,0,0,0,0,0,1,2,3	to_board	s638
371.181	0.289	0	PA_with_intermediate	3,0,0,0,0,0,1,0,0	test	ward_and_allport	0,0,0,2,3,0,1,0,0	82.0	44.0	0.289	0,0,0,0,0,0,1,2,3	to_hand	s638
371.471	0.236	0	PA_with_intermediate	3,0,0,2,0,0,1,0,0	test	ward_and_allport	0,0,0,2,3,0,1,0,0	71.0	44.0	0.236	0,0,0,0,0,0,1,2,3	to_board	s638
371.715	0.218	0	PA_with_intermediate	0,0,0,2,0,0,1,0,0	test	ward_and_allport	0,0,0,2,3,0,1,0,0	89.0	44.0	0.218	0,0,0,0,0,0,1,2,3	to_hand	s638
371.934	0.228	0	PA_with_intermediate	0,0,0,2,3,0,1,0,0	test	ward_and_allport	0,0,0,2,3,0,1,0,0	71.0	44.0	0.228	0,0,0,0,0,0,1,2,3	to_board	s638
372.172	1.0	0	PA_with_intermediate	n/a	test	ward_and_allport	n/a	-1.0	44.0	n/a	n/a	feedback	s638
373.172	1.0	0	PA_with_intermediate	n/a	test	ward_and_allport	n/a	-1.0	44.0	n/a	n/a	ITI	s638
379.183	2.606	1	PA_with_intermediate	0,0,0,0,0,0,1,2,0	test	ward_and_allport	0,0,0,2,0,0,1,3,0	82.0	45.0	2.606	0,0,0,0,0,0,1,2,3	to_hand	s638
381.791	0.232	0	PA_with_intermediate	3,0,0,0,0,0,1,2,0	test	ward_and_allport	0,0,0,2,0,0,1,3,0	89.0	45.0	0.232	0,0,0,0,0,0,1,2,3	to_board	s638
382.034	0.297	0	PA_with_intermediate	3,0,0,0,0,0,1,0,0	test	ward_and_allport	0,0,0,2,0,0,1,3,0	82.0	45.0	0.297	0,0,0,0,0,0,1,2,3	to_hand	s638
382.332	0.231	0	PA_with_intermediate	3,0,0,2,0,0,1,0,0	test	ward_and_allport	0,0,0,2,0,0,1,3,0	71.0	45.0	0.231	0,0,0,0,0,0,1,2,3	to_board	s638
382.575	0.235	0	PA_with_intermediate	0,0,0,2,0,0,1,0,0	test	ward_and_allport	0,0,0,2,0,0,1,3,0	89.0	45.0	0.235	0,0,0,0,0,0,1,2,3	to_hand	s638
382.812	0.315	0	PA_with_intermediate	0,0,0,2,0,0,1,3,0	test	ward_and_allport	0,0,0,2,0,0,1,3,0	82.0	45.0	0.315	0,0,0,0,0,0,1,2,3	to_board	s638
383.14	1.0	0	PA_with_intermediate	n/a	test	ward_and_allport	n/a	-1.0	45.0	n/a	n/a	feedback	s638
384.14	1.0	0	PA_with_intermediate	n/a	test	ward_and_allport	n/a	-1.0	45.0	n/a	n/a	ITI	s638
385.151	1.436	1	PA_with_intermediate	0,0,0,1,2,0,0,0,0	test	ward_and_allport	2,3,0,1,0,0,0,0,0	71.0	46.0	1.436	0,0,0,1,2,3,0,0,0	to_hand	s638
386.589	0.206	0	PA_with_intermediate	0,0,0,1,2,0,3,0,0	test	ward_and_allport	2,3,0,1,0,0,0,0,0	82.0	46.0	0.206	0,0,0,1,2,3,0,0,0	to_board	s638
386.803	0.221	0	PA_with_intermediate	0,0,0,1,0,0,3,0,0	test	ward_and_allport	2,3,0,1,0,0,0,0,0	71.0	46.0	0.221	0,0,0,1,2,3,0,0,0	to_hand	s638
387.026	0.22	0	PA_with_intermediate	2,0,0,1,0,0,3,0,0	test	ward_and_allport	2,3,0,1,0,0,0,0,0	89.0	46.0	0.22	0,0,0,1,2,3,0,0,0	to_board	s638
387.255	0.234	0	PA_with_intermediate	2,0,0,1,0,0,0,0,0	test	ward_and_allport	2,3,0,1,0,0,0,0,0	82.0	46.0	0.234	0,0,0,1,2,3,0,0,0	to_hand	s638
387.491	0.211	0	PA_with_intermediate	2,3,0,1,0,0,0,0,0	test	ward_and_allport	2,3,0,1,0,0,0,0,0	89.0	46.0	0.211	0,0,0,1,2,3,0,0,0	to_board	s638
387.713	1.0	0	PA_with_intermediate	n/a	test	ward_and_allport	n/a	-1.0	46.0	n/a	n/a	feedback	s638
388.713	1.408	0	PA_with_intermediate	n/a	test	ward_and_allport	n/a	-1.0	46.0	n/a	n/a	ITI	s638
390.13	1.802	1	PA_without_intermediate	0,0,0,1,2,0,0,0,0	test	ward_and_allport	3,2,0,0,0,0,1,0,0	71.0	47.0	1.802	0,0,0,1,2,3,0,0,0	to_hand	s638
391.934	0.214	0	PA_without_intermediate	3,0,0,1,2,0,0,0,0	test	ward_and_allport	3,2,0,0,0,0,1,0,0	89.0	47.0	0.214	0,0,0,1,2,3,0,0,0	to_board	s638
392.156	0.257	0	PA_without_intermediate	3,0,0,1,0,0,0,0,0	test	ward_and_allport	3,2,0,0,0,0,1,0,0	71.0	47.0	0.257	0,0,0,1,2,3,0,0,0	to_hand	s638
392.414	0.204	0	PA_without_intermediate	3,2,0,1,0,0,0,0,0	test	ward_and_allport	3,2,0,0,0,0,1,0,0	89.0	47.0	0.204	0,0,0,1,2,3,0,0,0	to_board	s638
392.627	0.243	0	PA_without_intermediate	3,2,0,0,0,0,0,0,0	test	ward_and_allport	3,2,0,0,0,0,1,0,0	71.0	47.0	0.243	0,0,0,1,2,3,0,0,0	to_hand	s638
392.872	0.21	0	PA_without_intermediate	3,2,0,0,0,0,1,0,0	test	ward_and_allport	3,2,0,0,0,0,1,0,0	82.0	47.0	0.21	0,0,0,1,2,3,0,0,0	to_board	s638
393.09	1.0	0	PA_without_intermediate	n/a	test	ward_and_allport	n/a	-1.0	47.0	n/a	n/a	feedback	s638
394.09	1.816	0	PA_without_intermediate	n/a	test	ward_and_allport	n/a	-1.0	47.0	n/a	n/a	ITI	s638
n/a	n/a	0	n/a	n/a	n/a	n/a	n/a	n/a	n/a	n/a	n/a	ITI	n/a
