onset	duration	planning	condition	current_position	exp_stage	experiment_exp_id	goal_state	key_press	problem_id	response_time	start_state	trial_id	worker_id
-61.441	0.0	0	n/a	n/a	n/a	ward_and_allport	n/a	32.0	n/a	24.067	n/a	instructions	s583
3.018	5.119	1	UA_with_intermediate	1,0,0,2,0,0,0,0,0	practice	ward_and_allport	1,2,3,0,0,0,0,0,0	71.0	0.0	5.119	1,0,0,2,3,0,0,0,0	to_hand	s583
8.139	1.32	0	UA_with_intermediate	1,0,0,2,0,0,3,0,0	practice	ward_and_allport	1,2,3,0,0,0,0,0,0	82.0	0.0	1.32	1,0,0,2,3,0,0,0,0	to_board	s583
9.462	0.984	0	UA_with_intermediate	1,0,0,0,0,0,3,0,0	practice	ward_and_allport	1,2,3,0,0,0,0,0,0	71.0	0.0	0.984	1,0,0,2,3,0,0,0,0	to_hand	s583
10.447	0.827	0	UA_with_intermediate	1,2,0,0,0,0,3,0,0	practice	ward_and_allport	1,2,3,0,0,0,0,0,0	89.0	0.0	0.827	1,0,0,2,3,0,0,0,0	to_board	s583
11.276	1.293	0	UA_with_intermediate	1,2,0,0,0,0,0,0,0	practice	ward_and_allport	1,2,3,0,0,0,0,0,0	82.0	0.0	1.293	1,0,0,2,3,0,0,0,0	to_hand	s583
12.57	0.866	0	UA_with_intermediate	1,2,3,0,0,0,0,0,0	practice	ward_and_allport	1,2,3,0,0,0,0,0,0	89.0	0.0	0.866	1,0,0,2,3,0,0,0,0	to_board	s583
13.441	1.0	0	UA_with_intermediate	n/a	practice	ward_and_allport	n/a	-1.0	0.0	n/a	n/a	feedback	s583
15.943	3.849	1	UA_with_intermediate	1,0,0,3,0,0,0,0,0	practice	ward_and_allport	1,3,2,0,0,0,0,0,0	89.0	1.0	3.849	1,2,0,3,0,0,0,0,0	to_hand	s583
19.793	1.802	0	UA_with_intermediate	1,0,0,3,0,0,2,0,0	practice	ward_and_allport	1,3,2,0,0,0,0,0,0	82.0	1.0	1.802	1,2,0,3,0,0,0,0,0	to_board	s583
21.597	0.667	0	UA_with_intermediate	1,0,0,0,0,0,2,0,0	practice	ward_and_allport	1,3,2,0,0,0,0,0,0	71.0	1.0	0.667	1,2,0,3,0,0,0,0,0	to_hand	s583
22.265	0.834	0	UA_with_intermediate	1,3,0,0,0,0,2,0,0	practice	ward_and_allport	1,3,2,0,0,0,0,0,0	89.0	1.0	0.834	1,2,0,3,0,0,0,0,0	to_board	s583
23.102	0.734	0	UA_with_intermediate	1,3,0,0,0,0,0,0,0	practice	ward_and_allport	1,3,2,0,0,0,0,0,0	82.0	1.0	0.734	1,2,0,3,0,0,0,0,0	to_hand	s583
23.837	0.708	0	UA_with_intermediate	1,3,2,0,0,0,0,0,0	practice	ward_and_allport	1,3,2,0,0,0,0,0,0	89.0	1.0	0.708	1,2,0,3,0,0,0,0,0	to_board	s583
24.551	1.0	0	UA_with_intermediate	n/a	practice	ward_and_allport	n/a	-1.0	1.0	n/a	n/a	feedback	s583
25.551	1.1	0	UA_with_intermediate	n/a	practice	ward_and_allport	n/a	-1.0	1.0	n/a	n/a	ITI	s583
26.652	3.9	1	UA_without_intermediate	0,0,0,1,0,0,3,0,0	practice	ward_and_allport	3,2,1,0,0,0,0,0,0	71.0	2.0	3.9	0,0,0,1,2,0,3,0,0	to_hand	s583
30.554	5.504	0	UA_without_intermediate	0,0,0,1,2,0,3,0,0	practice	ward_and_allport	3,2,1,0,0,0,0,0,0	71.0	2.0	5.504	0,0,0,1,2,0,3,0,0	to_board	s583
36.061	0.969	0	UA_without_intermediate	0,0,0,1,2,0,0,0,0	practice	ward_and_allport	3,2,1,0,0,0,0,0,0	82.0	2.0	0.969	0,0,0,1,2,0,3,0,0	to_hand	s583
37.031	0.864	0	UA_without_intermediate	3,0,0,1,2,0,0,0,0	practice	ward_and_allport	3,2,1,0,0,0,0,0,0	89.0	2.0	0.864	0,0,0,1,2,0,3,0,0	to_board	s583
37.898	1.481	0	UA_without_intermediate	3,0,0,1,0,0,0,0,0	practice	ward_and_allport	3,2,1,0,0,0,0,0,0	71.0	2.0	1.481	0,0,0,1,2,0,3,0,0	to_hand	s583
39.38	0.585	0	UA_without_intermediate	3,2,0,1,0,0,0,0,0	practice	ward_and_allport	3,2,1,0,0,0,0,0,0	89.0	2.0	0.585	0,0,0,1,2,0,3,0,0	to_board	s583
39.968	2.011	0	UA_without_intermediate	3,2,0,0,0,0,0,0,0	practice	ward_and_allport	3,2,1,0,0,0,0,0,0	71.0	2.0	2.011	0,0,0,1,2,0,3,0,0	to_hand	s583
41.981	0.726	0	UA_without_intermediate	3,2,1,0,0,0,0,0,0	practice	ward_and_allport	3,2,1,0,0,0,0,0,0	89.0	2.0	0.726	0,0,0,1,2,0,3,0,0	to_board	s583
42.71	1.0	0	UA_without_intermediate	n/a	practice	ward_and_allport	n/a	-1.0	2.0	n/a	n/a	feedback	s583
43.71	1.2	0	UA_without_intermediate	n/a	practice	ward_and_allport	n/a	-1.0	2.0	n/a	n/a	ITI	s583
44.912	4.666	1	UA_without_intermediate	0,0,0,1,0,0,3,0,0	practice	ward_and_allport	2,3,1,0,0,0,0,0,0	71.0	3.0	4.666	0,0,0,1,2,0,3,0,0	to_hand	s583
49.58	1.038	0	UA_without_intermediate	2,0,0,1,0,0,3,0,0	practice	ward_and_allport	2,3,1,0,0,0,0,0,0	89.0	3.0	1.038	0,0,0,1,2,0,3,0,0	to_board	s583
50.62	2.501	0	UA_without_intermediate	2,0,0,1,0,0,0,0,0	practice	ward_and_allport	2,3,1,0,0,0,0,0,0	82.0	3.0	2.501	0,0,0,1,2,0,3,0,0	to_hand	s583
53.123	0.72	0	UA_without_intermediate	2,3,0,1,0,0,0,0,0	practice	ward_and_allport	2,3,1,0,0,0,0,0,0	89.0	3.0	0.72	0,0,0,1,2,0,3,0,0	to_board	s583
53.844	0.787	0	UA_without_intermediate	2,3,0,0,0,0,0,0,0	practice	ward_and_allport	2,3,1,0,0,0,0,0,0	71.0	3.0	0.787	0,0,0,1,2,0,3,0,0	to_hand	s583
54.633	0.44	0	UA_without_intermediate	2,3,1,0,0,0,0,0,0	practice	ward_and_allport	2,3,1,0,0,0,0,0,0	89.0	3.0	0.44	0,0,0,1,2,0,3,0,0	to_board	s583
55.079	1.0	0	UA_without_intermediate	n/a	practice	ward_and_allport	n/a	-1.0	3.0	n/a	n/a	feedback	s583
56.079	1.0	0	UA_without_intermediate	n/a	practice	ward_and_allport	n/a	-1.0	3.0	n/a	n/a	ITI	s583
59.085	4.01	1	PA_with_intermediate	0,0,0,1,2,0,0,0,0	test	ward_and_allport	2,3,0,1,0,0,0,0,0	71.0	0.0	4.01	0,0,0,1,2,3,0,0,0	to_hand	s583
63.096	0.956	0	PA_with_intermediate	0,0,0,1,2,0,3,0,0	test	ward_and_allport	2,3,0,1,0,0,0,0,0	82.0	0.0	0.956	0,0,0,1,2,3,0,0,0	to_board	s583
64.054	1.329	0	PA_with_intermediate	0,0,0,1,0,0,3,0,0	test	ward_and_allport	2,3,0,1,0,0,0,0,0	71.0	0.0	1.329	0,0,0,1,2,3,0,0,0	to_hand	s583
65.384	0.609	0	PA_with_intermediate	2,0,0,1,0,0,3,0,0	test	ward_and_allport	2,3,0,1,0,0,0,0,0	89.0	0.0	0.609	0,0,0,1,2,3,0,0,0	to_board	s583
65.995	0.828	0	PA_with_intermediate	2,0,0,1,0,0,0,0,0	test	ward_and_allport	2,3,0,1,0,0,0,0,0	82.0	0.0	0.828	0,0,0,1,2,3,0,0,0	to_hand	s583
66.824	0.695	0	PA_with_intermediate	2,3,0,1,0,0,0,0,0	test	ward_and_allport	2,3,0,1,0,0,0,0,0	89.0	0.0	0.695	0,0,0,1,2,3,0,0,0	to_board	s583
67.523	1.0	0	PA_with_intermediate	n/a	test	ward_and_allport	n/a	-1.0	0.0	n/a	n/a	feedback	s583
68.523	3.176	0	PA_with_intermediate	n/a	test	ward_and_allport	n/a	-1.0	0.0	n/a	n/a	ITI	s583
71.701	5.415	1	PA_with_intermediate	1,2,0,0,0,0,0,0,0	test	ward_and_allport	1,3,0,2,0,0,0,0,0	89.0	1.0	5.415	1,2,3,0,0,0,0,0,0	to_hand	s583
77.118	1.193	0	PA_with_intermediate	1,2,0,0,0,0,3,0,0	test	ward_and_allport	1,3,0,2,0,0,0,0,0	82.0	1.0	1.193	1,2,3,0,0,0,0,0,0	to_board	s583
78.314	0.849	0	PA_with_intermediate	1,0,0,0,0,0,3,0,0	test	ward_and_allport	1,3,0,2,0,0,0,0,0	89.0	1.0	0.849	1,2,3,0,0,0,0,0,0	to_hand	s583
79.164	0.668	0	PA_with_intermediate	1,0,0,2,0,0,3,0,0	test	ward_and_allport	1,3,0,2,0,0,0,0,0	71.0	1.0	0.668	1,2,3,0,0,0,0,0,0	to_board	s583
79.835	1.255	0	PA_with_intermediate	1,0,0,2,0,0,0,0,0	test	ward_and_allport	1,3,0,2,0,0,0,0,0	82.0	1.0	1.255	1,2,3,0,0,0,0,0,0	to_hand	s583
81.091	0.873	0	PA_with_intermediate	1,3,0,2,0,0,0,0,0	test	ward_and_allport	1,3,0,2,0,0,0,0,0	89.0	1.0	0.873	1,2,3,0,0,0,0,0,0	to_board	s583
81.97	1.0	0	PA_with_intermediate	n/a	test	ward_and_allport	n/a	-1.0	1.0	n/a	n/a	feedback	s583
82.97	2.36	0	PA_with_intermediate	n/a	test	ward_and_allport	n/a	-1.0	1.0	n/a	n/a	ITI	s583
85.332	5.749	1	PA_with_intermediate	1,2,0,0,0,0,0,0,0	test	ward_and_allport	1,3,0,2,0,0,0,0,0	89.0	2.0	5.749	1,2,3,0,0,0,0,0,0	to_hand	s583
91.083	0.839	0	PA_with_intermediate	1,2,0,0,0,0,3,0,0	test	ward_and_allport	1,3,0,2,0,0,0,0,0	82.0	2.0	0.839	1,2,3,0,0,0,0,0,0	to_board	s583
91.925	1.27	0	PA_with_intermediate	1,0,0,0,0,0,3,0,0	test	ward_and_allport	1,3,0,2,0,0,0,0,0	89.0	2.0	1.27	1,2,3,0,0,0,0,0,0	to_hand	s583
93.196	0.766	0	PA_with_intermediate	1,0,0,2,0,0,3,0,0	test	ward_and_allport	1,3,0,2,0,0,0,0,0	71.0	2.0	0.766	1,2,3,0,0,0,0,0,0	to_board	s583
93.965	0.609	0	PA_with_intermediate	1,0,0,2,0,0,0,0,0	test	ward_and_allport	1,3,0,2,0,0,0,0,0	82.0	2.0	0.609	1,2,3,0,0,0,0,0,0	to_hand	s583
94.576	0.882	0	PA_with_intermediate	1,3,0,2,0,0,0,0,0	test	ward_and_allport	1,3,0,2,0,0,0,0,0	89.0	2.0	0.882	1,2,3,0,0,0,0,0,0	to_board	s583
95.464	1.0	0	PA_with_intermediate	n/a	test	ward_and_allport	n/a	-1.0	2.0	n/a	n/a	feedback	s583
96.464	1.0	0	PA_with_intermediate	n/a	test	ward_and_allport	n/a	-1.0	2.0	n/a	n/a	ITI	s583
97.468	4.462	1	PA_without_intermediate	1,2,0,0,0,0,0,0,0	test	ward_and_allport	0,0,0,2,0,0,3,1,0	89.0	3.0	4.462	1,2,3,0,0,0,0,0,0	to_hand	s583
101.931	1.374	0	PA_without_intermediate	1,2,0,0,0,0,3,0,0	test	ward_and_allport	0,0,0,2,0,0,3,1,0	82.0	3.0	1.374	1,2,3,0,0,0,0,0,0	to_board	s583
103.308	0.834	0	PA_without_intermediate	1,0,0,0,0,0,3,0,0	test	ward_and_allport	0,0,0,2,0,0,3,1,0	89.0	3.0	0.834	1,2,3,0,0,0,0,0,0	to_hand	s583
104.145	0.938	0	PA_without_intermediate	1,0,0,2,0,0,3,0,0	test	ward_and_allport	0,0,0,2,0,0,3,1,0	71.0	3.0	0.938	1,2,3,0,0,0,0,0,0	to_board	s583
105.086	1.171	0	PA_without_intermediate	0,0,0,2,0,0,3,0,0	test	ward_and_allport	0,0,0,2,0,0,3,1,0	89.0	3.0	1.171	1,2,3,0,0,0,0,0,0	to_hand	s583
106.257	0.787	0	PA_without_intermediate	0,0,0,2,0,0,3,1,0	test	ward_and_allport	0,0,0,2,0,0,3,1,0	82.0	3.0	0.787	1,2,3,0,0,0,0,0,0	to_board	s583
107.051	1.0	0	PA_without_intermediate	n/a	test	ward_and_allport	n/a	-1.0	3.0	n/a	n/a	feedback	s583
108.051	1.408	0	PA_without_intermediate	n/a	test	ward_and_allport	n/a	-1.0	3.0	n/a	n/a	ITI	s583
109.462	8.27	1	PA_with_intermediate	0,0,0,0,0,0,1,2,0	test	ward_and_allport	2,0,0,0,0,0,1,3,0	82.0	4.0	8.27	0,0,0,0,0,0,1,2,3	to_hand	s583
117.733	0.8	0	PA_with_intermediate	0,0,0,3,0,0,1,2,0	test	ward_and_allport	2,0,0,0,0,0,1,3,0	71.0	4.0	0.8	0,0,0,0,0,0,1,2,3	to_board	s583
118.536	2.757	0	PA_with_intermediate	0,0,0,3,0,0,1,0,0	test	ward_and_allport	2,0,0,0,0,0,1,3,0	82.0	4.0	2.757	0,0,0,0,0,0,1,2,3	to_hand	s583
121.294	0.688	0	PA_with_intermediate	2,0,0,3,0,0,1,0,0	test	ward_and_allport	2,0,0,0,0,0,1,3,0	89.0	4.0	0.688	0,0,0,0,0,0,1,2,3	to_board	s583
121.985	1.467	0	PA_with_intermediate	2,0,0,0,0,0,1,0,0	test	ward_and_allport	2,0,0,0,0,0,1,3,0	71.0	4.0	1.467	0,0,0,0,0,0,1,2,3	to_hand	s583
123.453	0.592	0	PA_with_intermediate	2,0,0,0,0,0,1,3,0	test	ward_and_allport	2,0,0,0,0,0,1,3,0	82.0	4.0	0.592	0,0,0,0,0,0,1,2,3	to_board	s583
124.052	1.0	0	PA_with_intermediate	n/a	test	ward_and_allport	n/a	-1.0	4.0	n/a	n/a	feedback	s583
125.052	1.816	0	PA_with_intermediate	n/a	test	ward_and_allport	n/a	-1.0	4.0	n/a	n/a	ITI	s583
126.871	4.394	1	PA_without_intermediate	0,0,0,0,0,0,1,2,0	test	ward_and_allport	3,1,0,2,0,0,0,0,0	82.0	5.0	4.394	0,0,0,0,0,0,1,2,3	to_hand	s583
131.266	1.216	0	PA_without_intermediate	3,0,0,0,0,0,1,2,0	test	ward_and_allport	3,1,0,2,0,0,0,0,0	89.0	5.0	1.216	0,0,0,0,0,0,1,2,3	to_board	s583
132.486	2.569	0	PA_without_intermediate	3,0,0,0,0,0,1,0,0	test	ward_and_allport	3,1,0,2,0,0,0,0,0	82.0	5.0	2.569	0,0,0,0,0,0,1,2,3	to_hand	s583
135.056	1.289	0	PA_without_intermediate	3,0,0,2,0,0,1,0,0	test	ward_and_allport	3,1,0,2,0,0,0,0,0	71.0	5.0	1.289	0,0,0,0,0,0,1,2,3	to_board	s583
136.348	0.601	0	PA_without_intermediate	3,0,0,2,0,0,0,0,0	test	ward_and_allport	3,1,0,2,0,0,0,0,0	82.0	5.0	0.601	0,0,0,0,0,0,1,2,3	to_hand	s583
136.95	1.146	0	PA_without_intermediate	3,1,0,2,0,0,0,0,0	test	ward_and_allport	3,1,0,2,0,0,0,0,0	89.0	5.0	1.146	0,0,0,0,0,0,1,2,3	to_board	s583
138.1	1.0	0	PA_without_intermediate	n/a	test	ward_and_allport	n/a	-1.0	5.0	n/a	n/a	feedback	s583
139.1	2.088	0	PA_without_intermediate	n/a	test	ward_and_allport	n/a	-1.0	5.0	n/a	n/a	ITI	s583
141.192	4.237	1	PA_without_intermediate	0,0,0,1,2,0,0,0,0	test	ward_and_allport	2,0,0,0,0,0,3,1,0	71.0	6.0	4.237	0,0,0,1,2,3,0,0,0	to_hand	s583
145.429	0.865	0	PA_without_intermediate	0,0,0,1,2,0,3,0,0	test	ward_and_allport	2,0,0,0,0,0,3,1,0	82.0	6.0	0.865	0,0,0,1,2,3,0,0,0	to_board	s583
146.299	1.026	0	PA_without_intermediate	0,0,0,1,0,0,3,0,0	test	ward_and_allport	2,0,0,0,0,0,3,1,0	71.0	6.0	1.026	0,0,0,1,2,3,0,0,0	to_hand	s583
147.326	0.921	0	PA_without_intermediate	2,0,0,1,0,0,3,0,0	test	ward_and_allport	2,0,0,0,0,0,3,1,0	89.0	6.0	0.921	0,0,0,1,2,3,0,0,0	to_board	s583
148.25	1.023	0	PA_without_intermediate	2,0,0,0,0,0,3,0,0	test	ward_and_allport	2,0,0,0,0,0,3,1,0	71.0	6.0	1.023	0,0,0,1,2,3,0,0,0	to_hand	s583
149.274	0.747	0	PA_without_intermediate	2,0,0,0,0,0,3,1,0	test	ward_and_allport	2,0,0,0,0,0,3,1,0	82.0	6.0	0.747	0,0,0,1,2,3,0,0,0	to_board	s583
150.029	1.0	0	PA_without_intermediate	n/a	test	ward_and_allport	n/a	-1.0	6.0	n/a	n/a	feedback	s583
151.029	1.136	0	PA_without_intermediate	n/a	test	ward_and_allport	n/a	-1.0	6.0	n/a	n/a	ITI	s583
152.168	3.526	1	PA_without_intermediate	1,2,0,0,0,0,0,0,0	test	ward_and_allport	0,0,0,1,0,0,3,2,0	89.0	7.0	3.526	1,2,3,0,0,0,0,0,0	to_hand	s583
155.695	0.936	0	PA_without_intermediate	1,2,0,0,0,0,3,0,0	test	ward_and_allport	0,0,0,1,0,0,3,2,0	82.0	7.0	0.936	1,2,3,0,0,0,0,0,0	to_board	s583
156.636	1.528	0	PA_without_intermediate	1,0,0,0,0,0,3,0,0	test	ward_and_allport	0,0,0,1,0,0,3,2,0	89.0	7.0	1.528	1,2,3,0,0,0,0,0,0	to_hand	s583
158.166	0.668	0	PA_without_intermediate	1,0,0,0,0,0,3,2,0	test	ward_and_allport	0,0,0,1,0,0,3,2,0	82.0	7.0	0.668	1,2,3,0,0,0,0,0,0	to_board	s583
158.838	0.818	0	PA_without_intermediate	0,0,0,0,0,0,3,2,0	test	ward_and_allport	0,0,0,1,0,0,3,2,0	89.0	7.0	0.818	1,2,3,0,0,0,0,0,0	to_hand	s583
159.658	1.184	0	PA_without_intermediate	0,0,0,1,0,0,3,2,0	test	ward_and_allport	0,0,0,1,0,0,3,2,0	71.0	7.0	1.184	1,2,3,0,0,0,0,0,0	to_board	s583
160.848	1.0	0	PA_without_intermediate	n/a	test	ward_and_allport	n/a	-1.0	7.0	n/a	n/a	feedback	s583
161.848	6.168	0	PA_without_intermediate	n/a	test	ward_and_allport	n/a	-1.0	7.0	n/a	n/a	ITI	s583
168.02	4.421	1	PA_without_intermediate	0,0,0,1,2,0,0,0,0	test	ward_and_allport	3,2,0,0,0,0,1,0,0	71.0	8.0	4.421	0,0,0,1,2,3,0,0,0	to_hand	s583
172.442	0.721	0	PA_without_intermediate	3,0,0,1,2,0,0,0,0	test	ward_and_allport	3,2,0,0,0,0,1,0,0	89.0	8.0	0.721	0,0,0,1,2,3,0,0,0	to_board	s583
173.167	0.958	0	PA_without_intermediate	3,0,0,1,0,0,0,0,0	test	ward_and_allport	3,2,0,0,0,0,1,0,0	71.0	8.0	0.958	0,0,0,1,2,3,0,0,0	to_hand	s583
174.126	0.623	0	PA_without_intermediate	3,2,0,1,0,0,0,0,0	test	ward_and_allport	3,2,0,0,0,0,1,0,0	89.0	8.0	0.623	0,0,0,1,2,3,0,0,0	to_board	s583
174.753	0.902	0	PA_without_intermediate	3,2,0,0,0,0,0,0,0	test	ward_and_allport	3,2,0,0,0,0,1,0,0	71.0	8.0	0.902	0,0,0,1,2,3,0,0,0	to_hand	s583
175.656	0.858	0	PA_without_intermediate	3,2,0,0,0,0,1,0,0	test	ward_and_allport	3,2,0,0,0,0,1,0,0	82.0	8.0	0.858	0,0,0,1,2,3,0,0,0	to_board	s583
176.519	1.0	0	PA_without_intermediate	n/a	test	ward_and_allport	n/a	-1.0	8.0	n/a	n/a	feedback	s583
177.519	1.816	0	PA_without_intermediate	n/a	test	ward_and_allport	n/a	-1.0	8.0	n/a	n/a	ITI	s583
179.34	4.241	1	PA_with_intermediate	0,0,0,0,0,0,1,2,0	test	ward_and_allport	0,0,0,2,3,0,1,0,0	82.0	9.0	4.241	0,0,0,0,0,0,1,2,3	to_hand	s583
183.582	0.845	0	PA_with_intermediate	3,0,0,0,0,0,1,2,0	test	ward_and_allport	0,0,0,2,3,0,1,0,0	89.0	9.0	0.845	0,0,0,0,0,0,1,2,3	to_board	s583
184.432	0.907	0	PA_with_intermediate	3,0,0,0,0,0,1,0,0	test	ward_and_allport	0,0,0,2,3,0,1,0,0	82.0	9.0	0.907	0,0,0,0,0,0,1,2,3	to_hand	s583
185.341	0.981	0	PA_with_intermediate	3,0,0,2,0,0,1,0,0	test	ward_and_allport	0,0,0,2,3,0,1,0,0	71.0	9.0	0.981	0,0,0,0,0,0,1,2,3	to_board	s583
186.327	0.619	0	PA_with_intermediate	0,0,0,2,0,0,1,0,0	test	ward_and_allport	0,0,0,2,3,0,1,0,0	89.0	9.0	0.619	0,0,0,0,0,0,1,2,3	to_hand	s583
186.948	1.153	0	PA_with_intermediate	0,0,0,2,3,0,1,0,0	test	ward_and_allport	0,0,0,2,3,0,1,0,0	71.0	9.0	1.153	0,0,0,0,0,0,1,2,3	to_board	s583
188.11	1.0	0	PA_with_intermediate	n/a	test	ward_and_allport	n/a	-1.0	9.0	n/a	n/a	feedback	s583
189.11	1.952	0	PA_with_intermediate	n/a	test	ward_and_allport	n/a	-1.0	9.0	n/a	n/a	ITI	s583
191.066	4.059	1	PA_with_intermediate	0,0,0,1,2,0,0,0,0	test	ward_and_allport	2,0,0,1,3,0,0,0,0	71.0	10.0	4.059	0,0,0,1,2,3,0,0,0	to_hand	s583
195.127	0.815	0	PA_with_intermediate	0,0,0,1,2,0,3,0,0	test	ward_and_allport	2,0,0,1,3,0,0,0,0	82.0	10.0	0.815	0,0,0,1,2,3,0,0,0	to_board	s583
195.947	0.762	0	PA_with_intermediate	0,0,0,1,0,0,3,0,0	test	ward_and_allport	2,0,0,1,3,0,0,0,0	71.0	10.0	0.762	0,0,0,1,2,3,0,0,0	to_hand	s583
196.711	0.793	0	PA_with_intermediate	2,0,0,1,0,0,3,0,0	test	ward_and_allport	2,0,0,1,3,0,0,0,0	89.0	10.0	0.793	0,0,0,1,2,3,0,0,0	to_board	s583
197.51	1.13	0	PA_with_intermediate	2,0,0,1,0,0,0,0,0	test	ward_and_allport	2,0,0,1,3,0,0,0,0	82.0	10.0	1.13	0,0,0,1,2,3,0,0,0	to_hand	s583
198.641	0.698	0	PA_with_intermediate	2,0,0,1,3,0,0,0,0	test	ward_and_allport	2,0,0,1,3,0,0,0,0	71.0	10.0	0.698	0,0,0,1,2,3,0,0,0	to_board	s583
199.348	1.0	0	PA_with_intermediate	n/a	test	ward_and_allport	n/a	-1.0	10.0	n/a	n/a	feedback	s583
200.348	1.136	0	PA_with_intermediate	n/a	test	ward_and_allport	n/a	-1.0	10.0	n/a	n/a	ITI	s583
201.491	3.558	1	PA_without_intermediate	0,0,0,0,0,0,1,2,0	test	ward_and_allport	2,0,0,3,1,0,0,0,0	82.0	11.0	3.558	0,0,0,0,0,0,1,2,3	to_hand	s583
205.051	0.89	0	PA_without_intermediate	0,0,0,3,0,0,1,2,0	test	ward_and_allport	2,0,0,3,1,0,0,0,0	71.0	11.0	0.89	0,0,0,0,0,0,1,2,3	to_board	s583
205.945	1.001	0	PA_without_intermediate	0,0,0,3,0,0,1,0,0	test	ward_and_allport	2,0,0,3,1,0,0,0,0	82.0	11.0	1.001	0,0,0,0,0,0,1,2,3	to_hand	s583
206.948	0.791	0	PA_without_intermediate	2,0,0,3,0,0,1,0,0	test	ward_and_allport	2,0,0,3,1,0,0,0,0	89.0	11.0	0.791	0,0,0,0,0,0,1,2,3	to_board	s583
207.745	1.249	0	PA_without_intermediate	2,0,0,3,0,0,0,0,0	test	ward_and_allport	2,0,0,3,1,0,0,0,0	82.0	11.0	1.249	0,0,0,0,0,0,1,2,3	to_hand	s583
208.996	0.626	0	PA_without_intermediate	2,0,0,3,1,0,0,0,0	test	ward_and_allport	2,0,0,3,1,0,0,0,0	71.0	11.0	0.626	0,0,0,0,0,0,1,2,3	to_board	s583
209.631	1.0	0	PA_without_intermediate	n/a	test	ward_and_allport	n/a	-1.0	11.0	n/a	n/a	feedback	s583
210.631	1.68	0	PA_without_intermediate	n/a	test	ward_and_allport	n/a	-1.0	11.0	n/a	n/a	ITI	s583
212.316	3.362	1	PA_without_intermediate	0,0,0,1,2,0,0,0,0	test	ward_and_allport	1,0,0,0,0,0,3,2,0	71.0	12.0	3.362	0,0,0,1,2,3,0,0,0	to_hand	s583
215.679	0.93	0	PA_without_intermediate	0,0,0,1,2,0,3,0,0	test	ward_and_allport	1,0,0,0,0,0,3,2,0	82.0	12.0	0.93	0,0,0,1,2,3,0,0,0	to_board	s583
216.614	0.629	0	PA_without_intermediate	0,0,0,1,0,0,3,0,0	test	ward_and_allport	1,0,0,0,0,0,3,2,0	71.0	12.0	0.629	0,0,0,1,2,3,0,0,0	to_hand	s583
217.245	0.714	0	PA_without_intermediate	0,0,0,1,0,0,3,2,0	test	ward_and_allport	1,0,0,0,0,0,3,2,0	82.0	12.0	0.714	0,0,0,1,2,3,0,0,0	to_board	s583
217.964	0.674	0	PA_without_intermediate	0,0,0,0,0,0,3,2,0	test	ward_and_allport	1,0,0,0,0,0,3,2,0	71.0	12.0	0.674	0,0,0,1,2,3,0,0,0	to_hand	s583
218.638	0.491	0	PA_without_intermediate	1,0,0,0,0,0,3,2,0	test	ward_and_allport	1,0,0,0,0,0,3,2,0	89.0	12.0	0.491	0,0,0,1,2,3,0,0,0	to_board	s583
219.138	1.0	0	PA_without_intermediate	n/a	test	ward_and_allport	n/a	-1.0	12.0	n/a	n/a	feedback	s583
220.138	2.088	0	PA_without_intermediate	n/a	test	ward_and_allport	n/a	-1.0	12.0	n/a	n/a	ITI	s583
222.229	4.383	1	PA_with_intermediate	1,2,0,0,0,0,0,0,0	test	ward_and_allport	1,3,0,0,0,0,2,0,0	89.0	13.0	4.383	1,2,3,0,0,0,0,0,0	to_hand	s583
226.614	0.769	0	PA_with_intermediate	1,2,0,3,0,0,0,0,0	test	ward_and_allport	1,3,0,0,0,0,2,0,0	71.0	13.0	0.769	1,2,3,0,0,0,0,0,0	to_board	s583
227.388	1.004	0	PA_with_intermediate	1,0,0,3,0,0,0,0,0	test	ward_and_allport	1,3,0,0,0,0,2,0,0	89.0	13.0	1.004	1,2,3,0,0,0,0,0,0	to_hand	s583
228.394	0.917	0	PA_with_intermediate	1,0,0,3,0,0,2,0,0	test	ward_and_allport	1,3,0,0,0,0,2,0,0	82.0	13.0	0.917	1,2,3,0,0,0,0,0,0	to_board	s583
229.315	0.899	0	PA_with_intermediate	1,0,0,0,0,0,2,0,0	test	ward_and_allport	1,3,0,0,0,0,2,0,0	71.0	13.0	0.899	1,2,3,0,0,0,0,0,0	to_hand	s583
230.215	0.527	0	PA_with_intermediate	1,3,0,0,0,0,2,0,0	test	ward_and_allport	1,3,0,0,0,0,2,0,0	89.0	13.0	0.527	1,2,3,0,0,0,0,0,0	to_board	s583
230.746	1.0	0	PA_with_intermediate	n/a	test	ward_and_allport	n/a	-1.0	13.0	n/a	n/a	feedback	s583
231.746	1.0	0	PA_with_intermediate	n/a	test	ward_and_allport	n/a	-1.0	13.0	n/a	n/a	ITI	s583
232.752	3.383	1	PA_without_intermediate	0,0,0,0,0,0,1,2,0	test	ward_and_allport	1,0,0,3,2,0,0,0,0	82.0	14.0	3.383	0,0,0,0,0,0,1,2,3	to_hand	s583
236.136	1.009	0	PA_without_intermediate	0,0,0,3,0,0,1,2,0	test	ward_and_allport	1,0,0,3,2,0,0,0,0	71.0	14.0	1.009	0,0,0,0,0,0,1,2,3	to_board	s583
237.15	0.655	0	PA_without_intermediate	0,0,0,3,0,0,1,0,0	test	ward_and_allport	1,0,0,3,2,0,0,0,0	82.0	14.0	0.655	0,0,0,0,0,0,1,2,3	to_hand	s583
237.807	0.953	0	PA_without_intermediate	0,0,0,3,2,0,1,0,0	test	ward_and_allport	1,0,0,3,2,0,0,0,0	71.0	14.0	0.953	0,0,0,0,0,0,1,2,3	to_board	s583
238.765	0.774	0	PA_without_intermediate	0,0,0,3,2,0,0,0,0	test	ward_and_allport	1,0,0,3,2,0,0,0,0	82.0	14.0	0.774	0,0,0,0,0,0,1,2,3	to_hand	s583
239.541	0.708	0	PA_without_intermediate	1,0,0,3,2,0,0,0,0	test	ward_and_allport	1,0,0,3,2,0,0,0,0	89.0	14.0	0.708	0,0,0,0,0,0,1,2,3	to_board	s583
240.256	1.0	0	PA_without_intermediate	n/a	test	ward_and_allport	n/a	-1.0	14.0	n/a	n/a	feedback	s583
241.256	1.0	0	PA_without_intermediate	n/a	test	ward_and_allport	n/a	-1.0	14.0	n/a	n/a	ITI	s583
247.265	6.334	1	PA_without_intermediate	0,0,0,1,2,0,0,0,0	test	ward_and_allport	3,2,0,0,0,0,1,0,0	71.0	15.0	6.334	0,0,0,1,2,3,0,0,0	to_hand	s583
253.6	0.613	0	PA_without_intermediate	3,0,0,1,2,0,0,0,0	test	ward_and_allport	3,2,0,0,0,0,1,0,0	89.0	15.0	0.613	0,0,0,1,2,3,0,0,0	to_board	s583
254.219	1.002	0	PA_without_intermediate	3,0,0,1,0,0,0,0,0	test	ward_and_allport	3,2,0,0,0,0,1,0,0	71.0	15.0	1.002	0,0,0,1,2,3,0,0,0	to_hand	s583
255.222	0.634	0	PA_without_intermediate	3,2,0,1,0,0,0,0,0	test	ward_and_allport	3,2,0,0,0,0,1,0,0	89.0	15.0	0.634	0,0,0,1,2,3,0,0,0	to_board	s583
255.861	0.515	0	PA_without_intermediate	3,2,0,0,0,0,0,0,0	test	ward_and_allport	3,2,0,0,0,0,1,0,0	71.0	15.0	0.515	0,0,0,1,2,3,0,0,0	to_hand	s583
256.377	0.684	0	PA_without_intermediate	3,2,0,0,0,0,1,0,0	test	ward_and_allport	3,2,0,0,0,0,1,0,0	82.0	15.0	0.684	0,0,0,1,2,3,0,0,0	to_board	s583
257.066	1.0	0	PA_without_intermediate	n/a	test	ward_and_allport	n/a	-1.0	15.0	n/a	n/a	feedback	s583
258.066	1.0	0	PA_without_intermediate	n/a	test	ward_and_allport	n/a	-1.0	15.0	n/a	n/a	ITI	s583
259.071	3.566	1	PA_with_intermediate	0,0,0,1,2,0,0,0,0	test	ward_and_allport	0,0,0,1,3,0,2,0,0	71.0	16.0	3.566	0,0,0,1,2,3,0,0,0	to_hand	s583
262.638	0.809	0	PA_with_intermediate	3,0,0,1,2,0,0,0,0	test	ward_and_allport	0,0,0,1,3,0,2,0,0	89.0	16.0	0.809	0,0,0,1,2,3,0,0,0	to_board	s583
263.453	0.744	0	PA_with_intermediate	3,0,0,1,0,0,0,0,0	test	ward_and_allport	0,0,0,1,3,0,2,0,0	71.0	16.0	0.744	0,0,0,1,2,3,0,0,0	to_hand	s583
264.198	0.777	0	PA_with_intermediate	3,0,0,1,0,0,2,0,0	test	ward_and_allport	0,0,0,1,3,0,2,0,0	82.0	16.0	0.777	0,0,0,1,2,3,0,0,0	to_board	s583
264.98	0.671	0	PA_with_intermediate	0,0,0,1,0,0,2,0,0	test	ward_and_allport	0,0,0,1,3,0,2,0,0	89.0	16.0	0.671	0,0,0,1,2,3,0,0,0	to_hand	s583
265.652	0.58	0	PA_with_intermediate	0,0,0,1,3,0,2,0,0	test	ward_and_allport	0,0,0,1,3,0,2,0,0	71.0	16.0	0.58	0,0,0,1,2,3,0,0,0	to_board	s583
266.238	1.0	0	PA_with_intermediate	n/a	test	ward_and_allport	n/a	-1.0	16.0	n/a	n/a	feedback	s583
267.238	1.544	0	PA_with_intermediate	n/a	test	ward_and_allport	n/a	-1.0	16.0	n/a	n/a	ITI	s583
268.787	5.273	1	PA_without_intermediate	0,0,0,0,0,0,1,2,0	test	ward_and_allport	2,0,0,3,1,0,0,0,0	82.0	17.0	5.273	0,0,0,0,0,0,1,2,3	to_hand	s583
274.062	1.159	0	PA_without_intermediate	0,0,0,3,0,0,1,2,0	test	ward_and_allport	2,0,0,3,1,0,0,0,0	71.0	17.0	1.159	0,0,0,0,0,0,1,2,3	to_board	s583
275.228	0.935	0	PA_without_intermediate	0,0,0,3,0,0,1,0,0	test	ward_and_allport	2,0,0,3,1,0,0,0,0	82.0	17.0	0.935	0,0,0,0,0,0,1,2,3	to_hand	s583
276.163	0.793	0	PA_without_intermediate	2,0,0,3,0,0,1,0,0	test	ward_and_allport	2,0,0,3,1,0,0,0,0	89.0	17.0	0.793	0,0,0,0,0,0,1,2,3	to_board	s583
276.961	0.889	0	PA_without_intermediate	2,0,0,3,0,0,0,0,0	test	ward_and_allport	2,0,0,3,1,0,0,0,0	82.0	17.0	0.889	0,0,0,0,0,0,1,2,3	to_hand	s583
277.851	0.701	0	PA_without_intermediate	2,0,0,3,1,0,0,0,0	test	ward_and_allport	2,0,0,3,1,0,0,0,0	71.0	17.0	0.701	0,0,0,0,0,0,1,2,3	to_board	s583
278.559	1.0	0	PA_without_intermediate	n/a	test	ward_and_allport	n/a	-1.0	17.0	n/a	n/a	feedback	s583
279.559	1.272	0	PA_without_intermediate	n/a	test	ward_and_allport	n/a	-1.0	17.0	n/a	n/a	ITI	s583
280.837	3.253	1	PA_with_intermediate	0,0,0,0,0,0,1,2,0	test	ward_and_allport	2,3,0,0,0,0,1,0,0	82.0	18.0	3.253	0,0,0,0,0,0,1,2,3	to_hand	s583
284.091	0.96	0	PA_with_intermediate	0,0,0,3,0,0,1,2,0	test	ward_and_allport	2,3,0,0,0,0,1,0,0	71.0	18.0	0.96	0,0,0,0,0,0,1,2,3	to_board	s583
285.057	0.599	0	PA_with_intermediate	0,0,0,3,0,0,1,0,0	test	ward_and_allport	2,3,0,0,0,0,1,0,0	82.0	18.0	0.599	0,0,0,0,0,0,1,2,3	to_hand	s583
285.657	0.843	0	PA_with_intermediate	2,0,0,3,0,0,1,0,0	test	ward_and_allport	2,3,0,0,0,0,1,0,0	89.0	18.0	0.843	0,0,0,0,0,0,1,2,3	to_board	s583
286.506	0.59	0	PA_with_intermediate	2,0,0,0,0,0,1,0,0	test	ward_and_allport	2,3,0,0,0,0,1,0,0	71.0	18.0	0.59	0,0,0,0,0,0,1,2,3	to_hand	s583
287.097	0.613	0	PA_with_intermediate	2,3,0,0,0,0,1,0,0	test	ward_and_allport	2,3,0,0,0,0,1,0,0	89.0	18.0	0.613	0,0,0,0,0,0,1,2,3	to_board	s583
287.719	1.0	0	PA_with_intermediate	n/a	test	ward_and_allport	n/a	-1.0	18.0	n/a	n/a	feedback	s583
288.719	3.04	0	PA_with_intermediate	n/a	test	ward_and_allport	n/a	-1.0	18.0	n/a	n/a	ITI	s583
291.765	4.018	1	PA_with_intermediate	0,0,0,1,2,0,0,0,0	test	ward_and_allport	0,0,0,1,0,0,2,3,0	71.0	19.0	4.018	0,0,0,1,2,3,0,0,0	to_hand	s583
295.785	0.457	0	PA_with_intermediate	3,0,0,1,2,0,0,0,0	test	ward_and_allport	0,0,0,1,0,0,2,3,0	89.0	19.0	0.457	0,0,0,1,2,3,0,0,0	to_board	s583
296.248	0.644	0	PA_with_intermediate	3,0,0,1,0,0,0,0,0	test	ward_and_allport	0,0,0,1,0,0,2,3,0	71.0	19.0	0.644	0,0,0,1,2,3,0,0,0	to_hand	s583
296.894	0.61	0	PA_with_intermediate	3,0,0,1,0,0,2,0,0	test	ward_and_allport	0,0,0,1,0,0,2,3,0	82.0	19.0	0.61	0,0,0,1,2,3,0,0,0	to_board	s583
297.511	0.651	0	PA_with_intermediate	0,0,0,1,0,0,2,0,0	test	ward_and_allport	0,0,0,1,0,0,2,3,0	89.0	19.0	0.651	0,0,0,1,2,3,0,0,0	to_hand	s583
298.164	0.687	0	PA_with_intermediate	0,0,0,1,0,0,2,3,0	test	ward_and_allport	0,0,0,1,0,0,2,3,0	82.0	19.0	0.687	0,0,0,1,2,3,0,0,0	to_board	s583
298.858	1.0	0	PA_with_intermediate	n/a	test	ward_and_allport	n/a	-1.0	19.0	n/a	n/a	feedback	s583
299.858	1.272	0	PA_with_intermediate	n/a	test	ward_and_allport	n/a	-1.0	19.0	n/a	n/a	ITI	s583
301.135	3.437	1	PA_with_intermediate	0,0,0,1,2,0,0,0,0	test	ward_and_allport	0,0,0,1,0,0,2,3,0	71.0	20.0	3.437	0,0,0,1,2,3,0,0,0	to_hand	s583
304.573	0.827	0	PA_with_intermediate	3,0,0,1,2,0,0,0,0	test	ward_and_allport	0,0,0,1,0,0,2,3,0	89.0	20.0	0.827	0,0,0,1,2,3,0,0,0	to_board	s583
305.406	0.685	0	PA_with_intermediate	3,0,0,1,0,0,0,0,0	test	ward_and_allport	0,0,0,1,0,0,2,3,0	71.0	20.0	0.685	0,0,0,1,2,3,0,0,0	to_hand	s583
306.092	0.656	0	PA_with_intermediate	3,0,0,1,0,0,2,0,0	test	ward_and_allport	0,0,0,1,0,0,2,3,0	82.0	20.0	0.656	0,0,0,1,2,3,0,0,0	to_board	s583
306.754	0.804	0	PA_with_intermediate	0,0,0,1,0,0,2,0,0	test	ward_and_allport	0,0,0,1,0,0,2,3,0	89.0	20.0	0.804	0,0,0,1,2,3,0,0,0	to_hand	s583
307.56	0.709	0	PA_with_intermediate	0,0,0,1,0,0,2,3,0	test	ward_and_allport	0,0,0,1,0,0,2,3,0	82.0	20.0	0.709	0,0,0,1,2,3,0,0,0	to_board	s583
308.28	1.0	0	PA_with_intermediate	n/a	test	ward_and_allport	n/a	-1.0	20.0	n/a	n/a	feedback	s583
309.28	1.136	0	PA_with_intermediate	n/a	test	ward_and_allport	n/a	-1.0	20.0	n/a	n/a	ITI	s583
310.422	3.211	1	PA_with_intermediate	1,2,0,0,0,0,0,0,0	test	ward_and_allport	1,0,0,0,0,0,2,3,0	89.0	21.0	3.211	1,2,3,0,0,0,0,0,0	to_hand	s583
313.634	0.757	0	PA_with_intermediate	1,2,0,3,0,0,0,0,0	test	ward_and_allport	1,0,0,0,0,0,2,3,0	71.0	21.0	0.757	1,2,3,0,0,0,0,0,0	to_board	s583
314.398	0.932	0	PA_with_intermediate	1,0,0,3,0,0,0,0,0	test	ward_and_allport	1,0,0,0,0,0,2,3,0	89.0	21.0	0.932	1,2,3,0,0,0,0,0,0	to_hand	s583
315.331	0.581	0	PA_with_intermediate	1,0,0,3,0,0,2,0,0	test	ward_and_allport	1,0,0,0,0,0,2,3,0	82.0	21.0	0.581	1,2,3,0,0,0,0,0,0	to_board	s583
315.919	0.627	0	PA_with_intermediate	1,0,0,0,0,0,2,0,0	test	ward_and_allport	1,0,0,0,0,0,2,3,0	71.0	21.0	0.627	1,2,3,0,0,0,0,0,0	to_hand	s583
316.548	0.479	0	PA_with_intermediate	1,0,0,0,0,0,2,3,0	test	ward_and_allport	1,0,0,0,0,0,2,3,0	82.0	21.0	0.479	1,2,3,0,0,0,0,0,0	to_board	s583
317.034	1.0	0	PA_with_intermediate	n/a	test	ward_and_allport	n/a	-1.0	21.0	n/a	n/a	feedback	s583
318.034	1.0	0	PA_with_intermediate	n/a	test	ward_and_allport	n/a	-1.0	21.0	n/a	n/a	ITI	s583
319.04	2.927	1	PA_with_intermediate	1,2,0,0,0,0,0,0,0	test	ward_and_allport	1,0,0,0,0,0,2,3,0	89.0	22.0	2.927	1,2,3,0,0,0,0,0,0	to_hand	s583
321.969	0.785	0	PA_with_intermediate	1,2,0,3,0,0,0,0,0	test	ward_and_allport	1,0,0,0,0,0,2,3,0	71.0	22.0	0.785	1,2,3,0,0,0,0,0,0	to_board	s583
322.761	0.71	0	PA_with_intermediate	1,0,0,3,0,0,0,0,0	test	ward_and_allport	1,0,0,0,0,0,2,3,0	89.0	22.0	0.71	1,2,3,0,0,0,0,0,0	to_hand	s583
323.472	0.663	0	PA_with_intermediate	1,0,0,3,0,0,2,0,0	test	ward_and_allport	1,0,0,0,0,0,2,3,0	82.0	22.0	0.663	1,2,3,0,0,0,0,0,0	to_board	s583
324.143	0.825	0	PA_with_intermediate	1,0,0,0,0,0,2,0,0	test	ward_and_allport	1,0,0,0,0,0,2,3,0	71.0	22.0	0.825	1,2,3,0,0,0,0,0,0	to_hand	s583
324.969	0.512	0	PA_with_intermediate	1,0,0,0,0,0,2,3,0	test	ward_and_allport	1,0,0,0,0,0,2,3,0	82.0	22.0	0.512	1,2,3,0,0,0,0,0,0	to_board	s583
325.493	1.0	0	PA_with_intermediate	n/a	test	ward_and_allport	n/a	-1.0	22.0	n/a	n/a	feedback	s583
326.493	1.0	0	PA_with_intermediate	n/a	test	ward_and_allport	n/a	-1.0	22.0	n/a	n/a	ITI	s583
327.499	3.563	1	PA_without_intermediate	1,2,0,0,0,0,0,0,0	test	ward_and_allport	0,0,0,3,1,0,2,0,0	89.0	23.0	3.563	1,2,3,0,0,0,0,0,0	to_hand	s583
331.063	1.309	0	PA_without_intermediate	1,2,0,3,0,0,0,0,0	test	ward_and_allport	0,0,0,3,1,0,2,0,0	71.0	23.0	1.309	1,2,3,0,0,0,0,0,0	to_board	s583
332.38	0.613	0	PA_without_intermediate	1,0,0,3,0,0,0,0,0	test	ward_and_allport	0,0,0,3,1,0,2,0,0	89.0	23.0	0.613	1,2,3,0,0,0,0,0,0	to_hand	s583
332.993	0.528	0	PA_without_intermediate	1,0,0,3,0,0,2,0,0	test	ward_and_allport	0,0,0,3,1,0,2,0,0	82.0	23.0	0.528	1,2,3,0,0,0,0,0,0	to_board	s583
333.53	0.844	0	PA_without_intermediate	0,0,0,3,0,0,2,0,0	test	ward_and_allport	0,0,0,3,1,0,2,0,0	89.0	23.0	0.844	1,2,3,0,0,0,0,0,0	to_hand	s583
334.374	1.035	0	PA_without_intermediate	0,0,0,3,1,0,2,0,0	test	ward_and_allport	0,0,0,3,1,0,2,0,0	71.0	23.0	1.035	1,2,3,0,0,0,0,0,0	to_board	s583
335.422	1.0	0	PA_without_intermediate	n/a	test	ward_and_allport	n/a	-1.0	23.0	n/a	n/a	feedback	s583
336.422	1.408	0	PA_without_intermediate	n/a	test	ward_and_allport	n/a	-1.0	23.0	n/a	n/a	ITI	s583
337.838	3.787	1	PA_with_intermediate	0,0,0,1,2,0,0,0,0	test	ward_and_allport	0,0,0,1,3,0,2,0,0	71.0	24.0	3.787	0,0,0,1,2,3,0,0,0	to_hand	s583
341.626	0.536	0	PA_with_intermediate	3,0,0,1,2,0,0,0,0	test	ward_and_allport	0,0,0,1,3,0,2,0,0	89.0	24.0	0.536	0,0,0,1,2,3,0,0,0	to_board	s583
342.17	0.57	0	PA_with_intermediate	3,0,0,1,0,0,0,0,0	test	ward_and_allport	0,0,0,1,3,0,2,0,0	71.0	24.0	0.57	0,0,0,1,2,3,0,0,0	to_hand	s583
342.741	0.732	0	PA_with_intermediate	3,0,0,1,0,0,2,0,0	test	ward_and_allport	0,0,0,1,3,0,2,0,0	82.0	24.0	0.732	0,0,0,1,2,3,0,0,0	to_board	s583
343.481	0.59	0	PA_with_intermediate	0,0,0,1,0,0,2,0,0	test	ward_and_allport	0,0,0,1,3,0,2,0,0	89.0	24.0	0.59	0,0,0,1,2,3,0,0,0	to_hand	s583
344.072	0.536	0	PA_with_intermediate	0,0,0,1,3,0,2,0,0	test	ward_and_allport	0,0,0,1,3,0,2,0,0	71.0	24.0	0.536	0,0,0,1,2,3,0,0,0	to_board	s583
344.619	1.0	0	PA_with_intermediate	n/a	test	ward_and_allport	n/a	-1.0	24.0	n/a	n/a	feedback	s583
345.619	2.768	0	PA_with_intermediate	n/a	test	ward_and_allport	n/a	-1.0	24.0	n/a	n/a	ITI	s583
348.394	4.092	1	PA_with_intermediate	1,2,0,0,0,0,0,0,0	test	ward_and_allport	1,3,0,0,0,0,2,0,0	89.0	25.0	4.092	1,2,3,0,0,0,0,0,0	to_hand	s583
352.488	0.626	0	PA_with_intermediate	1,2,0,3,0,0,0,0,0	test	ward_and_allport	1,3,0,0,0,0,2,0,0	71.0	25.0	0.626	1,2,3,0,0,0,0,0,0	to_board	s583
353.123	0.616	0	PA_with_intermediate	1,0,0,3,0,0,0,0,0	test	ward_and_allport	1,3,0,0,0,0,2,0,0	89.0	25.0	0.616	1,2,3,0,0,0,0,0,0	to_hand	s583
353.741	0.71	0	PA_with_intermediate	1,0,0,3,0,0,2,0,0	test	ward_and_allport	1,3,0,0,0,0,2,0,0	82.0	25.0	0.71	1,2,3,0,0,0,0,0,0	to_board	s583
354.459	0.644	0	PA_with_intermediate	1,0,0,0,0,0,2,0,0	test	ward_and_allport	1,3,0,0,0,0,2,0,0	71.0	25.0	0.644	1,2,3,0,0,0,0,0,0	to_hand	s583
355.105	0.688	0	PA_with_intermediate	1,3,0,0,0,0,2,0,0	test	ward_and_allport	1,3,0,0,0,0,2,0,0	89.0	25.0	0.688	1,2,3,0,0,0,0,0,0	to_board	s583
355.803	1.0	0	PA_with_intermediate	n/a	test	ward_and_allport	n/a	-1.0	25.0	n/a	n/a	feedback	s583
356.803	1.68	0	PA_with_intermediate	n/a	test	ward_and_allport	n/a	-1.0	25.0	n/a	n/a	ITI	s583
358.49	3.719	1	PA_without_intermediate	0,0,0,0,0,0,1,2,0	test	ward_and_allport	1,0,0,3,2,0,0,0,0	82.0	26.0	3.719	0,0,0,0,0,0,1,2,3	to_hand	s583
362.21	1.35	0	PA_without_intermediate	0,0,0,3,0,0,1,2,0	test	ward_and_allport	1,0,0,3,2,0,0,0,0	71.0	26.0	1.35	0,0,0,0,0,0,1,2,3	to_board	s583
363.568	2.882	0	PA_without_intermediate	0,0,0,3,0,0,1,0,0	test	ward_and_allport	1,0,0,3,2,0,0,0,0	82.0	26.0	2.882	0,0,0,0,0,0,1,2,3	to_hand	s583
366.452	0.589	0	PA_without_intermediate	0,0,0,3,2,0,1,0,0	test	ward_and_allport	1,0,0,3,2,0,0,0,0	71.0	26.0	0.589	0,0,0,0,0,0,1,2,3	to_board	s583
367.05	0.691	0	PA_without_intermediate	0,0,0,3,2,0,0,0,0	test	ward_and_allport	1,0,0,3,2,0,0,0,0	82.0	26.0	0.691	0,0,0,0,0,0,1,2,3	to_hand	s583
367.742	0.547	0	PA_without_intermediate	1,0,0,3,2,0,0,0,0	test	ward_and_allport	1,0,0,3,2,0,0,0,0	89.0	26.0	0.547	0,0,0,0,0,0,1,2,3	to_board	s583
368.298	1.0	0	PA_without_intermediate	n/a	test	ward_and_allport	n/a	-1.0	26.0	n/a	n/a	feedback	s583
369.298	2.224	0	PA_without_intermediate	n/a	test	ward_and_allport	n/a	-1.0	26.0	n/a	n/a	ITI	s583
371.53	3.766	1	PA_without_intermediate	0,0,0,1,2,0,0,0,0	test	ward_and_allport	3,1,0,0,0,0,2,0,0	71.0	27.0	3.766	0,0,0,1,2,3,0,0,0	to_hand	s583
375.297	0.79	0	PA_without_intermediate	3,0,0,1,2,0,0,0,0	test	ward_and_allport	3,1,0,0,0,0,2,0,0	89.0	27.0	0.79	0,0,0,1,2,3,0,0,0	to_board	s583
376.095	0.892	0	PA_without_intermediate	3,0,0,1,0,0,0,0,0	test	ward_and_allport	3,1,0,0,0,0,2,0,0	71.0	27.0	0.892	0,0,0,1,2,3,0,0,0	to_hand	s583
376.988	0.679	0	PA_without_intermediate	3,0,0,1,0,0,2,0,0	test	ward_and_allport	3,1,0,0,0,0,2,0,0	82.0	27.0	0.679	0,0,0,1,2,3,0,0,0	to_board	s583
377.675	0.785	0	PA_without_intermediate	3,0,0,0,0,0,2,0,0	test	ward_and_allport	3,1,0,0,0,0,2,0,0	71.0	27.0	0.785	0,0,0,1,2,3,0,0,0	to_hand	s583
378.462	0.64	0	PA_without_intermediate	3,1,0,0,0,0,2,0,0	test	ward_and_allport	3,1,0,0,0,0,2,0,0	89.0	27.0	0.64	0,0,0,1,2,3,0,0,0	to_board	s583
379.111	1.0	0	PA_without_intermediate	n/a	test	ward_and_allport	n/a	-1.0	27.0	n/a	n/a	feedback	s583
380.111	2.36	0	PA_without_intermediate	n/a	test	ward_and_allport	n/a	-1.0	27.0	n/a	n/a	ITI	s583
382.48	2.273	1	PA_without_intermediate	1,2,0,0,0,0,0,0,0	test	ward_and_allport	0,0,0,3,1,0,2,0,0	89.0	28.0	2.273	1,2,3,0,0,0,0,0,0	to_hand	s583
384.755	1.151	0	PA_without_intermediate	1,2,0,3,0,0,0,0,0	test	ward_and_allport	0,0,0,3,1,0,2,0,0	71.0	28.0	1.151	1,2,3,0,0,0,0,0,0	to_board	s583
385.915	0.939	0	PA_without_intermediate	1,0,0,3,0,0,0,0,0	test	ward_and_allport	0,0,0,3,1,0,2,0,0	89.0	28.0	0.939	1,2,3,0,0,0,0,0,0	to_hand	s583
386.855	0.943	0	PA_without_intermediate	1,0,0,3,0,0,2,0,0	test	ward_and_allport	0,0,0,3,1,0,2,0,0	82.0	28.0	0.943	1,2,3,0,0,0,0,0,0	to_board	s583
387.806	0.922	0	PA_without_intermediate	0,0,0,3,0,0,2,0,0	test	ward_and_allport	0,0,0,3,1,0,2,0,0	89.0	28.0	0.922	1,2,3,0,0,0,0,0,0	to_hand	s583
388.73	0.569	0	PA_without_intermediate	0,0,0,3,1,0,2,0,0	test	ward_and_allport	0,0,0,3,1,0,2,0,0	71.0	28.0	0.569	1,2,3,0,0,0,0,0,0	to_board	s583
389.309	1.0	0	PA_without_intermediate	n/a	test	ward_and_allport	n/a	-1.0	28.0	n/a	n/a	feedback	s583
390.309	1.0	0	PA_without_intermediate	n/a	test	ward_and_allport	n/a	-1.0	28.0	n/a	n/a	ITI	s583
391.318	3.523	1	PA_without_intermediate	0,0,0,1,2,0,0,0,0	test	ward_and_allport	2,0,0,0,0,0,3,1,0	71.0	29.0	3.523	0,0,0,1,2,3,0,0,0	to_hand	s583
394.842	0.942	0	PA_without_intermediate	0,0,0,1,2,0,3,0,0	test	ward_and_allport	2,0,0,0,0,0,3,1,0	82.0	29.0	0.942	0,0,0,1,2,3,0,0,0	to_board	s583
395.792	0.703	0	PA_without_intermediate	0,0,0,1,0,0,3,0,0	test	ward_and_allport	2,0,0,0,0,0,3,1,0	71.0	29.0	0.703	0,0,0,1,2,3,0,0,0	to_hand	s583
396.497	0.551	0	PA_without_intermediate	2,0,0,1,0,0,3,0,0	test	ward_and_allport	2,0,0,0,0,0,3,1,0	89.0	29.0	0.551	0,0,0,1,2,3,0,0,0	to_board	s583
397.057	0.866	0	PA_without_intermediate	2,0,0,0,0,0,3,0,0	test	ward_and_allport	2,0,0,0,0,0,3,1,0	71.0	29.0	0.866	0,0,0,1,2,3,0,0,0	to_hand	s583
397.924	0.624	0	PA_without_intermediate	2,0,0,0,0,0,3,1,0	test	ward_and_allport	2,0,0,0,0,0,3,1,0	82.0	29.0	0.624	0,0,0,1,2,3,0,0,0	to_board	s583
398.56	1.0	0	PA_without_intermediate	n/a	test	ward_and_allport	n/a	-1.0	29.0	n/a	n/a	feedback	s583
399.56	1.408	0	PA_without_intermediate	n/a	test	ward_and_allport	n/a	-1.0	29.0	n/a	n/a	ITI	s583
405.981	3.942	1	PA_with_intermediate	0,0,0,0,0,0,1,2,0	test	ward_and_allport	0,0,0,2,0,0,1,3,0	82.0	30.0	3.942	0,0,0,0,0,0,1,2,3	to_hand	s583
409.925	1.407	0	PA_with_intermediate	3,0,0,0,0,0,1,2,0	test	ward_and_allport	0,0,0,2,0,0,1,3,0	89.0	30.0	1.407	0,0,0,0,0,0,1,2,3	to_board	s583
411.341	0.83	0	PA_with_intermediate	3,0,0,0,0,0,1,0,0	test	ward_and_allport	0,0,0,2,0,0,1,3,0	82.0	30.0	0.83	0,0,0,0,0,0,1,2,3	to_hand	s583
412.172	1.226	0	PA_with_intermediate	3,0,0,2,0,0,1,0,0	test	ward_and_allport	0,0,0,2,0,0,1,3,0	71.0	30.0	1.226	0,0,0,0,0,0,1,2,3	to_board	s583
413.407	0.886	0	PA_with_intermediate	0,0,0,2,0,0,1,0,0	test	ward_and_allport	0,0,0,2,0,0,1,3,0	89.0	30.0	0.886	0,0,0,0,0,0,1,2,3	to_hand	s583
414.294	0.631	0	PA_with_intermediate	0,0,0,2,0,0,1,3,0	test	ward_and_allport	0,0,0,2,0,0,1,3,0	82.0	30.0	0.631	0,0,0,0,0,0,1,2,3	to_board	s583
414.938	1.0	0	PA_with_intermediate	n/a	test	ward_and_allport	n/a	-1.0	30.0	n/a	n/a	feedback	s583
415.938	1.136	0	PA_with_intermediate	n/a	test	ward_and_allport	n/a	-1.0	30.0	n/a	n/a	ITI	s583
417.084	4.751	1	PA_without_intermediate	0,0,0,0,0,0,1,2,0	test	ward_and_allport	3,2,0,1,0,0,0,0,0	82.0	31.0	4.751	0,0,0,0,0,0,1,2,3	to_hand	s583
421.836	0.522	0	PA_without_intermediate	3,0,0,0,0,0,1,2,0	test	ward_and_allport	3,2,0,1,0,0,0,0,0	89.0	31.0	0.522	0,0,0,0,0,0,1,2,3	to_board	s583
422.367	0.457	0	PA_without_intermediate	3,0,0,0,0,0,1,0,0	test	ward_and_allport	3,2,0,1,0,0,0,0,0	82.0	31.0	0.457	0,0,0,0,0,0,1,2,3	to_hand	s583
422.825	0.679	0	PA_without_intermediate	3,2,0,0,0,0,1,0,0	test	ward_and_allport	3,2,0,1,0,0,0,0,0	89.0	31.0	0.679	0,0,0,0,0,0,1,2,3	to_board	s583
423.513	0.588	0	PA_without_intermediate	3,2,0,0,0,0,0,0,0	test	ward_and_allport	3,2,0,1,0,0,0,0,0	82.0	31.0	0.588	0,0,0,0,0,0,1,2,3	to_hand	s583
424.102	0.657	0	PA_without_intermediate	3,2,0,1,0,0,0,0,0	test	ward_and_allport	3,2,0,1,0,0,0,0,0	71.0	31.0	0.657	0,0,0,0,0,0,1,2,3	to_board	s583
424.775	1.0	0	PA_without_intermediate	n/a	test	ward_and_allport	n/a	-1.0	31.0	n/a	n/a	feedback	s583
425.775	4.128	0	PA_without_intermediate	n/a	test	ward_and_allport	n/a	-1.0	31.0	n/a	n/a	ITI	s583
429.915	4.355	1	PA_without_intermediate	0,0,0,1,2,0,0,0,0	test	ward_and_allport	1,0,0,0,0,0,3,2,0	71.0	32.0	4.355	0,0,0,1,2,3,0,0,0	to_hand	s583
434.271	0.873	0	PA_without_intermediate	0,0,0,1,2,0,3,0,0	test	ward_and_allport	1,0,0,0,0,0,3,2,0	82.0	32.0	0.873	0,0,0,1,2,3,0,0,0	to_board	s583
435.155	0.729	0	PA_without_intermediate	0,0,0,1,0,0,3,0,0	test	ward_and_allport	1,0,0,0,0,0,3,2,0	71.0	32.0	0.729	0,0,0,1,2,3,0,0,0	to_hand	s583
435.885	0.529	0	PA_without_intermediate	0,0,0,1,0,0,3,2,0	test	ward_and_allport	1,0,0,0,0,0,3,2,0	82.0	32.0	0.529	0,0,0,1,2,3,0,0,0	to_board	s583
436.423	0.801	0	PA_without_intermediate	0,0,0,0,0,0,3,2,0	test	ward_and_allport	1,0,0,0,0,0,3,2,0	71.0	32.0	0.801	0,0,0,1,2,3,0,0,0	to_hand	s583
437.225	0.464	0	PA_without_intermediate	1,0,0,0,0,0,3,2,0	test	ward_and_allport	1,0,0,0,0,0,3,2,0	89.0	32.0	0.464	0,0,0,1,2,3,0,0,0	to_board	s583
437.703	1.0	0	PA_without_intermediate	n/a	test	ward_and_allport	n/a	-1.0	32.0	n/a	n/a	feedback	s583
438.703	1.136	0	PA_without_intermediate	n/a	test	ward_and_allport	n/a	-1.0	32.0	n/a	n/a	ITI	s583
439.849	2.782	1	PA_without_intermediate	1,2,0,0,0,0,0,0,0	test	ward_and_allport	0,0,0,3,2,0,1,0,0	89.0	33.0	2.782	1,2,3,0,0,0,0,0,0	to_hand	s583
442.632	0.865	0	PA_without_intermediate	1,2,0,3,0,0,0,0,0	test	ward_and_allport	0,0,0,3,2,0,1,0,0	71.0	33.0	0.865	1,2,3,0,0,0,0,0,0	to_board	s583
443.509	0.694	0	PA_without_intermediate	1,0,0,3,0,0,0,0,0	test	ward_and_allport	0,0,0,3,2,0,1,0,0	89.0	33.0	0.694	1,2,3,0,0,0,0,0,0	to_hand	s583
444.205	0.762	0	PA_without_intermediate	1,0,0,3,2,0,0,0,0	test	ward_and_allport	0,0,0,3,2,0,1,0,0	71.0	33.0	0.762	1,2,3,0,0,0,0,0,0	to_board	s583
444.977	0.701	0	PA_without_intermediate	0,0,0,3,2,0,0,0,0	test	ward_and_allport	0,0,0,3,2,0,1,0,0	89.0	33.0	0.701	1,2,3,0,0,0,0,0,0	to_hand	s583
445.68	0.639	0	PA_without_intermediate	0,0,0,3,2,0,1,0,0	test	ward_and_allport	0,0,0,3,2,0,1,0,0	82.0	33.0	0.639	1,2,3,0,0,0,0,0,0	to_board	s583
446.335	1.0	0	PA_without_intermediate	n/a	test	ward_and_allport	n/a	-1.0	33.0	n/a	n/a	feedback	s583
447.335	4.264	0	PA_without_intermediate	n/a	test	ward_and_allport	n/a	-1.0	33.0	n/a	n/a	ITI	s583
451.611	3.706	1	PA_with_intermediate	1,2,0,0,0,0,0,0,0	test	ward_and_allport	1,0,0,2,3,0,0,0,0	89.0	34.0	3.706	1,2,3,0,0,0,0,0,0	to_hand	s583
455.318	0.939	0	PA_with_intermediate	1,2,0,0,0,0,3,0,0	test	ward_and_allport	1,0,0,2,3,0,0,0,0	82.0	34.0	0.939	1,2,3,0,0,0,0,0,0	to_board	s583
456.266	0.654	0	PA_with_intermediate	1,0,0,0,0,0,3,0,0	test	ward_and_allport	1,0,0,2,3,0,0,0,0	89.0	34.0	0.654	1,2,3,0,0,0,0,0,0	to_hand	s583
456.922	0.709	0	PA_with_intermediate	1,0,0,2,0,0,3,0,0	test	ward_and_allport	1,0,0,2,3,0,0,0,0	71.0	34.0	0.709	1,2,3,0,0,0,0,0,0	to_board	s583
457.643	0.605	0	PA_with_intermediate	1,0,0,2,0,0,0,0,0	test	ward_and_allport	1,0,0,2,3,0,0,0,0	82.0	34.0	0.605	1,2,3,0,0,0,0,0,0	to_hand	s583
458.249	0.999	0	PA_with_intermediate	1,0,0,2,3,0,0,0,0	test	ward_and_allport	1,0,0,2,3,0,0,0,0	71.0	34.0	0.999	1,2,3,0,0,0,0,0,0	to_board	s583
459.26	1.0	0	PA_with_intermediate	n/a	test	ward_and_allport	n/a	-1.0	34.0	n/a	n/a	feedback	s583
460.26	3.04	0	PA_with_intermediate	n/a	test	ward_and_allport	n/a	-1.0	34.0	n/a	n/a	ITI	s583
463.312	3.672	1	PA_with_intermediate	0,0,0,0,0,0,1,2,0	test	ward_and_allport	0,0,0,2,3,0,1,0,0	82.0	35.0	3.672	0,0,0,0,0,0,1,2,3	to_hand	s583
466.985	0.587	0	PA_with_intermediate	3,0,0,0,0,0,1,2,0	test	ward_and_allport	0,0,0,2,3,0,1,0,0	89.0	35.0	0.587	0,0,0,0,0,0,1,2,3	to_board	s583
467.585	0.779	0	PA_with_intermediate	3,0,0,0,0,0,1,0,0	test	ward_and_allport	0,0,0,2,3,0,1,0,0	82.0	35.0	0.779	0,0,0,0,0,0,1,2,3	to_hand	s583
468.366	0.848	0	PA_with_intermediate	3,0,0,2,0,0,1,0,0	test	ward_and_allport	0,0,0,2,3,0,1,0,0	71.0	35.0	0.848	0,0,0,0,0,0,1,2,3	to_board	s583
469.226	0.493	0	PA_with_intermediate	0,0,0,2,0,0,1,0,0	test	ward_and_allport	0,0,0,2,3,0,1,0,0	89.0	35.0	0.493	0,0,0,0,0,0,1,2,3	to_hand	s583
469.721	0.544	0	PA_with_intermediate	0,0,0,2,3,0,1,0,0	test	ward_and_allport	0,0,0,2,3,0,1,0,0	71.0	35.0	0.544	0,0,0,0,0,0,1,2,3	to_board	s583
470.28	1.0	0	PA_with_intermediate	n/a	test	ward_and_allport	n/a	-1.0	35.0	n/a	n/a	feedback	s583
471.28	1.136	0	PA_with_intermediate	n/a	test	ward_and_allport	n/a	-1.0	35.0	n/a	n/a	ITI	s583
472.426	3.92	1	PA_with_intermediate	0,0,0,0,0,0,1,2,0	test	ward_and_allport	0,0,0,2,0,0,1,3,0	82.0	36.0	3.92	0,0,0,0,0,0,1,2,3	to_hand	s583
476.348	0.923	0	PA_with_intermediate	3,0,0,0,0,0,1,2,0	test	ward_and_allport	0,0,0,2,0,0,1,3,0	89.0	36.0	0.923	0,0,0,0,0,0,1,2,3	to_board	s583
477.28	0.67	0	PA_with_intermediate	3,0,0,0,0,0,1,0,0	test	ward_and_allport	0,0,0,2,0,0,1,3,0	82.0	36.0	0.67	0,0,0,0,0,0,1,2,3	to_hand	s583
477.951	0.982	0	PA_with_intermediate	3,0,0,2,0,0,1,0,0	test	ward_and_allport	0,0,0,2,0,0,1,3,0	71.0	36.0	0.982	0,0,0,0,0,0,1,2,3	to_board	s583
478.943	0.855	0	PA_with_intermediate	0,0,0,2,0,0,1,0,0	test	ward_and_allport	0,0,0,2,0,0,1,3,0	89.0	36.0	0.855	0,0,0,0,0,0,1,2,3	to_hand	s583
479.799	1.103	0	PA_with_intermediate	0,0,0,2,0,0,1,3,0	test	ward_and_allport	0,0,0,2,0,0,1,3,0	82.0	36.0	1.103	0,0,0,0,0,0,1,2,3	to_board	s583
480.917	1.0	0	PA_with_intermediate	n/a	test	ward_and_allport	n/a	-1.0	36.0	n/a	n/a	feedback	s583
481.917	1.408	0	PA_with_intermediate	n/a	test	ward_and_allport	n/a	-1.0	36.0	n/a	n/a	ITI	s583
483.337	3.764	1	PA_without_intermediate	0,0,0,0,0,0,1,2,0	test	ward_and_allport	3,2,0,1,0,0,0,0,0	82.0	37.0	3.764	0,0,0,0,0,0,1,2,3	to_hand	s583
487.102	0.961	0	PA_without_intermediate	3,0,0,0,0,0,1,2,0	test	ward_and_allport	3,2,0,1,0,0,0,0,0	89.0	37.0	0.961	0,0,0,0,0,0,1,2,3	to_board	s583
488.071	0.75	0	PA_without_intermediate	3,0,0,0,0,0,1,0,0	test	ward_and_allport	3,2,0,1,0,0,0,0,0	82.0	37.0	0.75	0,0,0,0,0,0,1,2,3	to_hand	s583
488.822	0.84	0	PA_without_intermediate	3,2,0,0,0,0,1,0,0	test	ward_and_allport	3,2,0,1,0,0,0,0,0	89.0	37.0	0.84	0,0,0,0,0,0,1,2,3	to_board	s583
489.673	0.669	0	PA_without_intermediate	3,2,0,0,0,0,0,0,0	test	ward_and_allport	3,2,0,1,0,0,0,0,0	82.0	37.0	0.669	0,0,0,0,0,0,1,2,3	to_hand	s583
490.343	0.732	0	PA_without_intermediate	3,2,0,1,0,0,0,0,0	test	ward_and_allport	3,2,0,1,0,0,0,0,0	71.0	37.0	0.732	0,0,0,0,0,0,1,2,3	to_board	s583
491.088	1.0	0	PA_without_intermediate	n/a	test	ward_and_allport	n/a	-1.0	37.0	n/a	n/a	feedback	s583
492.088	1.68	0	PA_without_intermediate	n/a	test	ward_and_allport	n/a	-1.0	37.0	n/a	n/a	ITI	s583
493.779	3.236	1	PA_with_intermediate	1,2,0,0,0,0,0,0,0	test	ward_and_allport	1,0,0,2,3,0,0,0,0	89.0	38.0	3.236	1,2,3,0,0,0,0,0,0	to_hand	s583
497.018	1.77	0	PA_with_intermediate	1,2,0,0,0,0,3,0,0	test	ward_and_allport	1,0,0,2,3,0,0,0,0	82.0	38.0	1.77	1,2,3,0,0,0,0,0,0	to_board	s583
498.796	0.644	0	PA_with_intermediate	1,0,0,0,0,0,3,0,0	test	ward_and_allport	1,0,0,2,3,0,0,0,0	89.0	38.0	0.644	1,2,3,0,0,0,0,0,0	to_hand	s583
499.442	1.029	0	PA_with_intermediate	1,0,0,2,0,0,3,0,0	test	ward_and_allport	1,0,0,2,3,0,0,0,0	71.0	38.0	1.029	1,2,3,0,0,0,0,0,0	to_board	s583
500.483	1.288	0	PA_with_intermediate	1,0,0,2,0,0,0,0,0	test	ward_and_allport	1,0,0,2,3,0,0,0,0	82.0	38.0	1.288	1,2,3,0,0,0,0,0,0	to_hand	s583
501.773	0.96	0	PA_with_intermediate	1,0,0,2,3,0,0,0,0	test	ward_and_allport	1,0,0,2,3,0,0,0,0	71.0	38.0	0.96	1,2,3,0,0,0,0,0,0	to_board	s583
502.748	1.0	0	PA_with_intermediate	n/a	test	ward_and_allport	n/a	-1.0	38.0	n/a	n/a	feedback	s583
503.748	3.72	0	PA_with_intermediate	n/a	test	ward_and_allport	n/a	-1.0	38.0	n/a	n/a	ITI	s583
507.48	3.941	1	PA_without_intermediate	0,0,0,0,0,0,1,2,0	test	ward_and_allport	3,1,0,2,0,0,0,0,0	82.0	39.0	3.941	0,0,0,0,0,0,1,2,3	to_hand	s583
511.422	0.928	0	PA_without_intermediate	3,0,0,0,0,0,1,2,0	test	ward_and_allport	3,1,0,2,0,0,0,0,0	89.0	39.0	0.928	0,0,0,0,0,0,1,2,3	to_board	s583
512.361	0.746	0	PA_without_intermediate	3,0,0,0,0,0,1,0,0	test	ward_and_allport	3,1,0,2,0,0,0,0,0	82.0	39.0	0.746	0,0,0,0,0,0,1,2,3	to_hand	s583
513.108	0.682	0	PA_without_intermediate	3,0,0,2,0,0,1,0,0	test	ward_and_allport	3,1,0,2,0,0,0,0,0	71.0	39.0	0.682	0,0,0,0,0,0,1,2,3	to_board	s583
513.803	0.57	0	PA_without_intermediate	3,0,0,2,0,0,0,0,0	test	ward_and_allport	3,1,0,2,0,0,0,0,0	82.0	39.0	0.57	0,0,0,0,0,0,1,2,3	to_hand	s583
514.375	0.649	0	PA_without_intermediate	3,1,0,2,0,0,0,0,0	test	ward_and_allport	3,1,0,2,0,0,0,0,0	89.0	39.0	0.649	0,0,0,0,0,0,1,2,3	to_board	s583
515.039	1.0	0	PA_without_intermediate	n/a	test	ward_and_allport	n/a	-1.0	39.0	n/a	n/a	feedback	s583
516.039	2.224	0	PA_without_intermediate	n/a	test	ward_and_allport	n/a	-1.0	39.0	n/a	n/a	ITI	s583
518.275	4.112	1	PA_without_intermediate	1,2,0,0,0,0,0,0,0	test	ward_and_allport	0,0,0,1,0,0,3,2,0	89.0	40.0	4.112	1,2,3,0,0,0,0,0,0	to_hand	s583
522.388	0.978	0	PA_without_intermediate	1,2,0,0,0,0,3,0,0	test	ward_and_allport	0,0,0,1,0,0,3,2,0	82.0	40.0	0.978	1,2,3,0,0,0,0,0,0	to_board	s583
523.374	0.59	0	PA_without_intermediate	1,0,0,0,0,0,3,0,0	test	ward_and_allport	0,0,0,1,0,0,3,2,0	89.0	40.0	0.59	1,2,3,0,0,0,0,0,0	to_hand	s583
523.965	0.466	0	PA_without_intermediate	1,0,0,0,0,0,3,2,0	test	ward_and_allport	0,0,0,1,0,0,3,2,0	82.0	40.0	0.466	1,2,3,0,0,0,0,0,0	to_board	s583
524.44	0.749	0	PA_without_intermediate	0,0,0,0,0,0,3,2,0	test	ward_and_allport	0,0,0,1,0,0,3,2,0	89.0	40.0	0.749	1,2,3,0,0,0,0,0,0	to_hand	s583
525.191	0.734	0	PA_without_intermediate	0,0,0,1,0,0,3,2,0	test	ward_and_allport	0,0,0,1,0,0,3,2,0	71.0	40.0	0.734	1,2,3,0,0,0,0,0,0	to_board	s583
525.937	1.0	0	PA_without_intermediate	n/a	test	ward_and_allport	n/a	-1.0	40.0	n/a	n/a	feedback	s583
526.937	1.272	0	PA_without_intermediate	n/a	test	ward_and_allport	n/a	-1.0	40.0	n/a	n/a	ITI	s583
528.221	5.772	1	PA_with_intermediate	0,0,0,0,0,0,1,2,0	test	ward_and_allport	2,3,0,0,0,0,1,0,0	82.0	41.0	5.772	0,0,0,0,0,0,1,2,3	to_hand	s583
533.995	0.889	0	PA_with_intermediate	0,0,0,3,0,0,1,2,0	test	ward_and_allport	2,3,0,0,0,0,1,0,0	71.0	41.0	0.889	0,0,0,0,0,0,1,2,3	to_board	s583
534.898	0.45	0	PA_with_intermediate	0,0,0,3,0,0,1,0,0	test	ward_and_allport	2,3,0,0,0,0,1,0,0	82.0	41.0	0.45	0,0,0,0,0,0,1,2,3	to_hand	s583
535.35	0.543	0	PA_with_intermediate	2,0,0,3,0,0,1,0,0	test	ward_and_allport	2,3,0,0,0,0,1,0,0	89.0	41.0	0.543	0,0,0,0,0,0,1,2,3	to_board	s583
535.905	1.385	0	PA_with_intermediate	2,0,0,0,0,0,1,0,0	test	ward_and_allport	2,3,0,0,0,0,1,0,0	71.0	41.0	1.385	0,0,0,0,0,0,1,2,3	to_hand	s583
537.292	0.652	0	PA_with_intermediate	2,3,0,0,0,0,1,0,0	test	ward_and_allport	2,3,0,0,0,0,1,0,0	89.0	41.0	0.652	0,0,0,0,0,0,1,2,3	to_board	s583
537.96	1.0	0	PA_with_intermediate	n/a	test	ward_and_allport	n/a	-1.0	41.0	n/a	n/a	feedback	s583
538.96	2.632	0	PA_with_intermediate	n/a	test	ward_and_allport	n/a	-1.0	41.0	n/a	n/a	ITI	s583
541.603	5.646	1	PA_without_intermediate	0,0,0,1,2,0,0,0,0	test	ward_and_allport	3,1,0,0,0,0,2,0,0	71.0	42.0	5.646	0,0,0,1,2,3,0,0,0	to_hand	s583
547.249	0.9	0	PA_without_intermediate	3,0,0,1,2,0,0,0,0	test	ward_and_allport	3,1,0,0,0,0,2,0,0	89.0	42.0	0.9	0,0,0,1,2,3,0,0,0	to_board	s583
548.162	0.766	0	PA_without_intermediate	3,0,0,1,0,0,0,0,0	test	ward_and_allport	3,1,0,0,0,0,2,0,0	71.0	42.0	0.766	0,0,0,1,2,3,0,0,0	to_hand	s583
548.929	0.742	0	PA_without_intermediate	3,0,0,1,0,0,2,0,0	test	ward_and_allport	3,1,0,0,0,0,2,0,0	82.0	42.0	0.742	0,0,0,1,2,3,0,0,0	to_board	s583
549.683	0.928	0	PA_without_intermediate	3,0,0,0,0,0,2,0,0	test	ward_and_allport	3,1,0,0,0,0,2,0,0	71.0	42.0	0.928	0,0,0,1,2,3,0,0,0	to_hand	s583
550.612	0.57	0	PA_without_intermediate	3,1,0,0,0,0,2,0,0	test	ward_and_allport	3,1,0,0,0,0,2,0,0	89.0	42.0	0.57	0,0,0,1,2,3,0,0,0	to_board	s583
551.195	1.0	0	PA_without_intermediate	n/a	test	ward_and_allport	n/a	-1.0	42.0	n/a	n/a	feedback	s583
552.195	1.408	0	PA_without_intermediate	n/a	test	ward_and_allport	n/a	-1.0	42.0	n/a	n/a	ITI	s583
553.614	3.367	1	PA_without_intermediate	1,2,0,0,0,0,0,0,0	test	ward_and_allport	0,0,0,3,2,0,1,0,0	89.0	43.0	3.367	1,2,3,0,0,0,0,0,0	to_hand	s583
556.982	0.773	0	PA_without_intermediate	1,2,0,3,0,0,0,0,0	test	ward_and_allport	0,0,0,3,2,0,1,0,0	71.0	43.0	0.773	1,2,3,0,0,0,0,0,0	to_board	s583
557.764	0.607	0	PA_without_intermediate	1,0,0,3,0,0,0,0,0	test	ward_and_allport	0,0,0,3,2,0,1,0,0	89.0	43.0	0.607	1,2,3,0,0,0,0,0,0	to_hand	s583
558.373	0.753	0	PA_without_intermediate	1,0,0,3,2,0,0,0,0	test	ward_and_allport	0,0,0,3,2,0,1,0,0	71.0	43.0	0.753	1,2,3,0,0,0,0,0,0	to_board	s583
559.14	0.719	0	PA_without_intermediate	0,0,0,3,2,0,0,0,0	test	ward_and_allport	0,0,0,3,2,0,1,0,0	89.0	43.0	0.719	1,2,3,0,0,0,0,0,0	to_hand	s583
559.861	0.741	0	PA_without_intermediate	0,0,0,3,2,0,1,0,0	test	ward_and_allport	0,0,0,3,2,0,1,0,0	82.0	43.0	0.741	1,2,3,0,0,0,0,0,0	to_board	s583
560.615	1.0	0	PA_without_intermediate	n/a	test	ward_and_allport	n/a	-1.0	43.0	n/a	n/a	feedback	s583
561.615	1.0	0	PA_without_intermediate	n/a	test	ward_and_allport	n/a	-1.0	43.0	n/a	n/a	ITI	s583
n/a	n/a	0	n/a	n/a	n/a	n/a	n/a	n/a	n/a	n/a	n/a	ITI	n/a
