onset	duration	condition	correct	correct_response	experiment_exp_id	key_press	response_time	stim_color	stim_word	trial_type	worker_id
3.515	1.5	incongruent	1.0	71.0	stroop	71	0.794	blue	green	incongruent	s612
5.52	1.5	congruent	1.0	82.0	stroop	82	0.895	green	green	congruent	s612
8.066	1.5	congruent	1.0	89.0	stroop	89	0.397	red	red	congruent	s612
10.203	1.5	congruent	1.0	82.0	stroop	82	0.853	green	green	congruent	s612
12.208	1.5	congruent	1.0	71.0	stroop	71	0.512	blue	blue	congruent	s612
14.214	1.5	congruent	1.0	71.0	stroop	71	0.783	blue	blue	congruent	s612
16.491	1.5	incongruent	1.0	71.0	stroop	71	0.522	blue	green	incongruent	s612
18.496	1.5	congruent	1.0	89.0	stroop	89	0.882	red	red	congruent	s612
20.499	1.5	incongruent	0.0	71.0	stroop	82	0.975	blue	red	incongruent	s612
22.638	1.5	incongruent	1.0	71.0	stroop	71	1.698	blue	red	incongruent	s612
24.642	1.5	incongruent	1.0	71.0	stroop	71	1.278	blue	red	incongruent	s612
26.916	1.5	congruent	1.0	71.0	stroop	71	1.013	blue	blue	congruent	s612
29.054	1.5	incongruent	1.0	71.0	stroop	71	1.079	blue	green	incongruent	s612
31.468	1.5	congruent	1.0	82.0	stroop	82	0.973	green	green	congruent	s612
33.473	1.5	congruent	1.0	71.0	stroop	71	0.836	blue	blue	congruent	s612
35.479	1.5	incongruent	1.0	89.0	stroop	89	0.695	red	green	incongruent	s612
38.3	1.5	incongruent	1.0	89.0	stroop	89	0.907	red	green	incongruent	s612
40.305	1.5	incongruent	1.0	82.0	stroop	82	1.03	green	red	incongruent	s612
42.308	1.5	congruent	1.0	82.0	stroop	82	1.209	green	green	congruent	s612
44.45	1.5	congruent	1.0	71.0	stroop	71	0.797	blue	blue	congruent	s612
46.455	1.5	incongruent	1.0	82.0	stroop	82	1.231	green	blue	incongruent	s612
48.46	1.5	congruent	1.0	82.0	stroop	82	0.798	green	green	congruent	s612
50.466	1.5	incongruent	1.0	89.0	stroop	89	0.848	red	green	incongruent	s612
52.471	1.5	congruent	1.0	71.0	stroop	71	0.563	blue	blue	congruent	s612
54.475	1.5	incongruent	1.0	71.0	stroop	71	0.761	blue	red	incongruent	s612
56.477	1.5	congruent	1.0	82.0	stroop	82	0.758	green	green	congruent	s612
58.481	1.5	incongruent	1.0	89.0	stroop	89	0.807	red	blue	incongruent	s612
60.755	1.5	incongruent	1.0	89.0	stroop	89	0.704	red	blue	incongruent	s612
62.756	1.5	congruent	1.0	82.0	stroop	82	1.053	green	green	congruent	s612
64.897	1.5	congruent	1.0	82.0	stroop	82	0.726	green	green	congruent	s612
66.901	1.5	congruent	1.0	71.0	stroop	71	0.813	blue	blue	congruent	s612
69.042	1.5	congruent	1.0	82.0	stroop	82	0.946	green	green	congruent	s612
71.043	1.5	congruent	1.0	89.0	stroop	89	0.733	red	red	congruent	s612
73.048	1.5	incongruent	1.0	71.0	stroop	71	1.009	blue	red	incongruent	s612
75.053	1.5	incongruent	1.0	89.0	stroop	89	0.797	red	blue	incongruent	s612
77.33	1.5	incongruent	0.0	89.0	stroop	71	1.376	red	blue	incongruent	s612
79.333	1.5	incongruent	1.0	82.0	stroop	82	1.188	green	blue	incongruent	s612
81.473	1.5	congruent	0.0	82.0	stroop	-1	n/a	green	green	congruent	s612
83.885	1.5	incongruent	1.0	82.0	stroop	82	0.043	green	red	incongruent	s612
86.161	1.5	congruent	1.0	89.0	stroop	89	1.768	red	red	congruent	s612
88.846	1.5	congruent	1.0	71.0	stroop	71	0.756	blue	blue	congruent	s612
90.848	1.5	congruent	1.0	71.0	stroop	71	0.667	blue	blue	congruent	s612
93.26	1.5	congruent	1.0	82.0	stroop	82	0.814	green	green	congruent	s612
95.398	1.5	incongruent	1.0	82.0	stroop	82	1.576	green	blue	incongruent	s612
98.08	1.5	incongruent	1.0	82.0	stroop	82	1.015	green	red	incongruent	s612
100.083	1.5	incongruent	1.0	82.0	stroop	82	1.356	green	red	incongruent	s612
102.221	1.5	congruent	0.0	89.0	stroop	71	1.409	red	red	congruent	s612
105.177	1.5	incongruent	1.0	89.0	stroop	89	1.041	red	blue	incongruent	s612
107.182	1.5	incongruent	1.0	89.0	stroop	89	0.853	red	blue	incongruent	s612
109.456	1.5	incongruent	1.0	71.0	stroop	71	1.151	blue	green	incongruent	s612
111.459	1.5	congruent	1.0	71.0	stroop	71	1.15	blue	blue	congruent	s612
113.464	1.5	congruent	1.0	89.0	stroop	89	0.983	red	red	congruent	s612
115.466	1.5	incongruent	1.0	71.0	stroop	71	0.949	blue	red	incongruent	s612
117.467	1.5	congruent	1.0	82.0	stroop	82	0.956	green	green	congruent	s612
119.609	1.5	congruent	1.0	71.0	stroop	71	0.712	blue	blue	congruent	s612
121.611	1.5	incongruent	1.0	71.0	stroop	71	1.13	blue	green	incongruent	s612
123.613	1.5	congruent	1.0	71.0	stroop	71	0.844	blue	blue	congruent	s612
125.754	1.5	incongruent	1.0	82.0	stroop	82	1.283	green	blue	incongruent	s612
127.759	1.5	incongruent	1.0	82.0	stroop	82	1.155	green	blue	incongruent	s612
129.763	1.5	incongruent	1.0	82.0	stroop	82	1.036	green	blue	incongruent	s612
131.902	1.5	congruent	1.0	71.0	stroop	71	1.155	blue	blue	congruent	s612
134.043	1.5	congruent	1.0	82.0	stroop	82	0.901	green	green	congruent	s612
136.319	1.5	incongruent	1.0	71.0	stroop	71	0.926	blue	red	incongruent	s612
139.003	1.5	congruent	1.0	89.0	stroop	89	0.975	red	red	congruent	s612
141.008	1.5	congruent	1.0	89.0	stroop	89	0.601	red	red	congruent	s612
143.014	1.5	incongruent	1.0	71.0	stroop	71	0.86	blue	green	incongruent	s612
145.291	1.5	incongruent	1.0	71.0	stroop	71	0.632	blue	green	incongruent	s612
147.297	1.5	congruent	0.0	82.0	stroop	71	0.875	green	green	congruent	s612
149.302	1.5	incongruent	1.0	82.0	stroop	82	0.716	green	red	incongruent	s612
151.307	1.5	incongruent	1.0	89.0	stroop	89	0.727	red	green	incongruent	s612
153.313	1.5	incongruent	1.0	82.0	stroop	82	1.145	green	blue	incongruent	s612
155.318	1.5	incongruent	1.0	82.0	stroop	82	1.105	green	red	incongruent	s612
157.324	1.5	congruent	1.0	71.0	stroop	71	0.65	blue	blue	congruent	s612
159.601	1.5	incongruent	1.0	89.0	stroop	89	0.868	red	green	incongruent	s612
161.604	1.5	congruent	1.0	71.0	stroop	71	0.965	blue	blue	congruent	s612
164.017	1.5	congruent	1.0	89.0	stroop	89	1.35	red	red	congruent	s612
166.019	1.5	congruent	1.0	89.0	stroop	89	0.634	red	red	congruent	s612
168.157	1.5	congruent	1.0	82.0	stroop	82	1.752	green	green	congruent	s612
170.162	1.5	congruent	1.0	89.0	stroop	89	1.018	red	red	congruent	s612
172.166	1.5	incongruent	0.0	89.0	stroop	-1	n/a	red	green	incongruent	s612
174.169	1.5	congruent	0.0	89.0	stroop	-1	n/a	red	red	congruent	s612
176.444	1.5	incongruent	1.0	89.0	stroop	89	0.867	red	blue	incongruent	s612
178.45	1.5	incongruent	1.0	82.0	stroop	82	1.176	green	blue	incongruent	s612
180.726	1.5	incongruent	1.0	82.0	stroop	82	1.077	green	red	incongruent	s612
183.002	1.5	incongruent	1.0	82.0	stroop	82	0.778	green	red	incongruent	s612
185.004	1.5	congruent	1.0	89.0	stroop	89	1.635	red	red	congruent	s612
187.688	1.5	incongruent	1.0	71.0	stroop	71	1.638	blue	red	incongruent	s612
189.692	1.5	congruent	1.0	82.0	stroop	82	0.884	green	green	congruent	s612
191.966	1.5	congruent	1.0	71.0	stroop	71	0.783	blue	blue	congruent	s612
193.97	1.5	congruent	1.0	89.0	stroop	89	0.813	red	red	congruent	s612
195.975	1.5	incongruent	1.0	89.0	stroop	89	0.854	red	green	incongruent	s612
198.249	1.5	congruent	1.0	89.0	stroop	89	1.195	red	red	congruent	s612
200.387	1.5	congruent	1.0	89.0	stroop	89	0.909	red	red	congruent	s612
202.934	1.5	incongruent	1.0	89.0	stroop	89	0.623	red	green	incongruent	s612
205.347	1.5	incongruent	1.0	71.0	stroop	71	1.375	blue	green	incongruent	s612
207.352	1.5	incongruent	1.0	89.0	stroop	89	0.954	red	blue	incongruent	s612
