onset	duration	condition	correct	correct_response	experiment_exp_id	key_press	response_time	trial_id	trial_type	worker_id
3.016	0.5	BY	n/a	n/a	dot_pattern_expectancy	-1.0	n/a	cue	BY	s641
5.527	0.5	BY	1.0	71.0	dot_pattern_expectancy	71.0	0.454	probe	BY	s641
7.169	0.5	AY	n/a	n/a	dot_pattern_expectancy	-1.0	n/a	cue	AY	s641
9.68	0.5	AY	1.0	71.0	dot_pattern_expectancy	71.0	0.674	probe	AY	s641
11.185	0.5	AX	n/a	n/a	dot_pattern_expectancy	-1.0	n/a	cue	AX	s641
13.697	0.5	AX	1.0	89.0	dot_pattern_expectancy	89.0	0.394	probe	AX	s641
15.747	0.5	BY	n/a	n/a	dot_pattern_expectancy	-1.0	n/a	cue	BY	s641
18.259	0.5	BY	1.0	71.0	dot_pattern_expectancy	71.0	0.26	probe	BY	s641
20.037	0.5	BX	n/a	n/a	dot_pattern_expectancy	-1.0	n/a	cue	BX	s641
22.545	0.5	BX	1.0	71.0	dot_pattern_expectancy	71.0	0.239	probe	BX	s641
24.187	0.5	AX	n/a	n/a	dot_pattern_expectancy	-1.0	n/a	cue	AX	s641
26.696	0.5	AX	1.0	89.0	dot_pattern_expectancy	89.0	0.37	probe	AX	s641
28.337	0.5	AX	n/a	n/a	dot_pattern_expectancy	-1.0	n/a	cue	AX	s641
30.848	0.5	AX	1.0	89.0	dot_pattern_expectancy	89.0	0.401	probe	AX	s641
32.355	0.5	AX	n/a	n/a	dot_pattern_expectancy	-1.0	n/a	cue	AX	s641
34.865	0.5	AX	1.0	89.0	dot_pattern_expectancy	89.0	0.418	probe	AX	s641
36.37	0.5	AY	n/a	n/a	dot_pattern_expectancy	-1.0	n/a	cue	AY	s641
38.882	0.5	AY	1.0	71.0	dot_pattern_expectancy	71.0	0.417	probe	AY	s641
40.932	0.5	AX	n/a	n/a	dot_pattern_expectancy	-1.0	n/a	cue	AX	s641
43.443	0.5	AX	1.0	89.0	dot_pattern_expectancy	89.0	0.382	probe	AX	s641
45.9	0.5	AX	n/a	n/a	dot_pattern_expectancy	-1.0	n/a	cue	AX	s641
48.41	0.5	AX	1.0	89.0	dot_pattern_expectancy	89.0	0.442	probe	AX	s641
50.324	0.5	AX	n/a	n/a	dot_pattern_expectancy	-1.0	n/a	cue	AX	s641
52.835	0.5	AX	1.0	89.0	dot_pattern_expectancy	89.0	0.434	probe	AX	s641
54.34	0.5	AX	n/a	n/a	dot_pattern_expectancy	-1.0	n/a	cue	AX	s641
56.853	0.5	AX	1.0	89.0	dot_pattern_expectancy	89.0	0.4	probe	AX	s641
58.768	0.5	BX	n/a	n/a	dot_pattern_expectancy	-1.0	n/a	cue	BX	s641
61.276	0.5	BX	1.0	71.0	dot_pattern_expectancy	71.0	0.436	probe	BX	s641
63.462	0.5	AX	n/a	n/a	dot_pattern_expectancy	-1.0	n/a	cue	AX	s641
65.97	0.5	AX	1.0	89.0	dot_pattern_expectancy	89.0	0.401	probe	AX	s641
67.475	0.5	BY	n/a	n/a	dot_pattern_expectancy	-1.0	n/a	cue	BY	s641
69.985	0.5	BY	1.0	71.0	dot_pattern_expectancy	71.0	0.531	probe	BY	s641
71.898	0.5	BX	n/a	n/a	dot_pattern_expectancy	-1.0	n/a	cue	BX	s641
74.409	0.5	BX	1.0	71.0	dot_pattern_expectancy	71.0	0.267	probe	BX	s641
76.732	0.5	AY	n/a	n/a	dot_pattern_expectancy	-1.0	n/a	cue	AY	s641
79.244	0.5	AY	1.0	71.0	dot_pattern_expectancy	71.0	0.499	probe	AY	s641
81.567	0.5	BX	n/a	n/a	dot_pattern_expectancy	-1.0	n/a	cue	BX	s641
84.076	0.5	BX	1.0	71.0	dot_pattern_expectancy	71.0	0.309	probe	BX	s641
85.718	0.5	AY	n/a	n/a	dot_pattern_expectancy	-1.0	n/a	cue	AY	s641
88.229	0.5	AY	1.0	71.0	dot_pattern_expectancy	71.0	0.484	probe	AY	s641
89.734	0.5	BY	n/a	n/a	dot_pattern_expectancy	-1.0	n/a	cue	BY	s641
92.246	0.5	BY	1.0	71.0	dot_pattern_expectancy	71.0	0.443	probe	BY	s641
94.161	0.5	AX	n/a	n/a	dot_pattern_expectancy	-1.0	n/a	cue	AX	s641
96.668	0.5	AX	1.0	89.0	dot_pattern_expectancy	89.0	0.575	probe	AX	s641
98.174	0.5	AY	n/a	n/a	dot_pattern_expectancy	-1.0	n/a	cue	AY	s641
100.682	0.5	AY	1.0	71.0	dot_pattern_expectancy	71.0	0.875	probe	AY	s641
103.003	0.5	AX	n/a	n/a	dot_pattern_expectancy	-1.0	n/a	cue	AX	s641
105.514	0.5	AX	1.0	89.0	dot_pattern_expectancy	89.0	0.323	probe	AX	s641
107.019	0.5	AY	n/a	n/a	dot_pattern_expectancy	-1.0	n/a	cue	AY	s641
109.531	0.5	AY	1.0	71.0	dot_pattern_expectancy	71.0	0.53	probe	AY	s641
112.261	0.5	AX	n/a	n/a	dot_pattern_expectancy	-1.0	n/a	cue	AX	s641
114.772	0.5	AX	1.0	89.0	dot_pattern_expectancy	89.0	0.362	probe	AX	s641
116.277	0.5	AX	n/a	n/a	dot_pattern_expectancy	-1.0	n/a	cue	AX	s641
118.789	0.5	AX	1.0	89.0	dot_pattern_expectancy	89.0	0.416	probe	AX	s641
120.432	0.5	AX	n/a	n/a	dot_pattern_expectancy	-1.0	n/a	cue	AX	s641
122.942	0.5	AX	1.0	89.0	dot_pattern_expectancy	89.0	0.414	probe	AX	s641
124.583	0.5	AX	n/a	n/a	dot_pattern_expectancy	-1.0	n/a	cue	AX	s641
127.095	0.5	AX	1.0	89.0	dot_pattern_expectancy	89.0	0.535	probe	AX	s641
128.872	0.5	BY	n/a	n/a	dot_pattern_expectancy	-1.0	n/a	cue	BY	s641
131.384	0.5	BY	1.0	71.0	dot_pattern_expectancy	71.0	0.283	probe	BY	s641
133.162	0.5	AX	n/a	n/a	dot_pattern_expectancy	-1.0	n/a	cue	AX	s641
135.673	0.5	AX	1.0	89.0	dot_pattern_expectancy	89.0	0.37	probe	AX	s641
137.178	0.5	BY	n/a	n/a	dot_pattern_expectancy	-1.0	n/a	cue	BY	s641
139.687	0.5	BY	1.0	71.0	dot_pattern_expectancy	71.0	0.192	probe	BY	s641
142.144	0.5	AX	n/a	n/a	dot_pattern_expectancy	-1.0	n/a	cue	AX	s641
144.656	0.5	AX	1.0	89.0	dot_pattern_expectancy	89.0	0.645	probe	AX	s641
146.297	0.5	AX	n/a	n/a	dot_pattern_expectancy	-1.0	n/a	cue	AX	s641
148.809	0.5	AX	1.0	89.0	dot_pattern_expectancy	89.0	0.496	probe	AX	s641
150.451	0.5	BX	n/a	n/a	dot_pattern_expectancy	-1.0	n/a	cue	BX	s641
152.958	0.5	BX	1.0	71.0	dot_pattern_expectancy	71.0	0.299	probe	BX	s641
154.463	0.5	BX	n/a	n/a	dot_pattern_expectancy	-1.0	n/a	cue	BX	s641
156.972	0.5	BX	1.0	71.0	dot_pattern_expectancy	71.0	0.447	probe	BX	s641
158.479	0.5	AX	n/a	n/a	dot_pattern_expectancy	-1.0	n/a	cue	AX	s641
160.988	0.5	AX	1.0	89.0	dot_pattern_expectancy	89.0	0.564	probe	AX	s641
163.309	0.5	AY	n/a	n/a	dot_pattern_expectancy	-1.0	n/a	cue	AY	s641
165.82	0.5	AY	1.0	71.0	dot_pattern_expectancy	71.0	0.537	probe	AY	s641
167.871	0.5	AX	n/a	n/a	dot_pattern_expectancy	-1.0	n/a	cue	AX	s641
170.378	0.5	AX	1.0	89.0	dot_pattern_expectancy	89.0	0.478	probe	AX	s641
174.331	0.5	AX	n/a	n/a	dot_pattern_expectancy	-1.0	n/a	cue	AX	s641
176.84	0.5	AX	1.0	89.0	dot_pattern_expectancy	89.0	0.356	probe	AX	s641
188.999	0.5	AY	n/a	n/a	dot_pattern_expectancy	-1.0	n/a	cue	AY	s641
191.506	0.5	AY	1.0	71.0	dot_pattern_expectancy	71.0	0.547	probe	AY	s641
193.149	0.5	AX	n/a	n/a	dot_pattern_expectancy	-1.0	n/a	cue	AX	s641
195.661	0.5	AX	1.0	89.0	dot_pattern_expectancy	89.0	0.389	probe	AX	s641
197.304	0.5	AX	n/a	n/a	dot_pattern_expectancy	-1.0	n/a	cue	AX	s641
199.81	0.5	AX	1.0	89.0	dot_pattern_expectancy	89.0	0.534	probe	AX	s641
201.316	0.5	AX	n/a	n/a	dot_pattern_expectancy	-1.0	n/a	cue	AX	s641
203.827	0.5	AX	1.0	89.0	dot_pattern_expectancy	89.0	0.485	probe	AX	s641
205.333	0.5	AX	n/a	n/a	dot_pattern_expectancy	-1.0	n/a	cue	AX	s641
207.842	0.5	AX	1.0	89.0	dot_pattern_expectancy	89.0	0.45	probe	AX	s641
209.755	0.5	BX	n/a	n/a	dot_pattern_expectancy	-1.0	n/a	cue	BX	s641
212.267	0.5	BX	1.0	71.0	dot_pattern_expectancy	71.0	0.243	probe	BX	s641
213.91	0.5	AX	n/a	n/a	dot_pattern_expectancy	-1.0	n/a	cue	AX	s641
216.418	0.5	AX	1.0	89.0	dot_pattern_expectancy	89.0	0.316	probe	AX	s641
218.464	0.5	AX	n/a	n/a	dot_pattern_expectancy	-1.0	n/a	cue	AX	s641
220.977	0.5	AX	1.0	89.0	dot_pattern_expectancy	89.0	0.465	probe	AX	s641
222.755	0.5	AX	n/a	n/a	dot_pattern_expectancy	-1.0	n/a	cue	AX	s641
225.262	0.5	AX	1.0	89.0	dot_pattern_expectancy	89.0	0.449	probe	AX	s641
226.767	0.5	AX	n/a	n/a	dot_pattern_expectancy	-1.0	n/a	cue	AX	s641
229.278	0.5	AX	1.0	89.0	dot_pattern_expectancy	89.0	0.47	probe	AX	s641
231.463	0.5	AX	n/a	n/a	dot_pattern_expectancy	-1.0	n/a	cue	AX	s641
233.974	0.5	AX	1.0	89.0	dot_pattern_expectancy	89.0	0.382	probe	AX	s641
235.478	0.5	BX	n/a	n/a	dot_pattern_expectancy	-1.0	n/a	cue	BX	s641
237.986	0.5	BX	1.0	71.0	dot_pattern_expectancy	71.0	0.268	probe	BX	s641
241.667	0.5	BY	n/a	n/a	dot_pattern_expectancy	-1.0	n/a	cue	BY	s641
244.179	0.5	BY	1.0	71.0	dot_pattern_expectancy	71.0	0.284	probe	BY	s641
245.821	0.5	BY	n/a	n/a	dot_pattern_expectancy	-1.0	n/a	cue	BY	s641
248.33	0.5	BY	1.0	71.0	dot_pattern_expectancy	71.0	0.28	probe	BY	s641
249.972	0.5	BX	n/a	n/a	dot_pattern_expectancy	-1.0	n/a	cue	BX	s641
252.484	0.5	BX	1.0	71.0	dot_pattern_expectancy	71.0	0.4	probe	BX	s641
253.989	0.5	AX	n/a	n/a	dot_pattern_expectancy	-1.0	n/a	cue	AX	s641
256.496	0.5	AX	1.0	89.0	dot_pattern_expectancy	89.0	0.404	probe	AX	s641
258.411	0.5	AX	n/a	n/a	dot_pattern_expectancy	-1.0	n/a	cue	AX	s641
260.92	0.5	AX	1.0	89.0	dot_pattern_expectancy	89.0	0.393	probe	AX	s641
262.562	0.5	BX	n/a	n/a	dot_pattern_expectancy	-1.0	n/a	cue	BX	s641
265.07	0.5	BX	1.0	71.0	dot_pattern_expectancy	71.0	0.369	probe	BX	s641
266.576	0.5	AX	n/a	n/a	dot_pattern_expectancy	-1.0	n/a	cue	AX	s641
269.087	0.5	AX	1.0	89.0	dot_pattern_expectancy	89.0	0.526	probe	AX	s641
271.0	0.5	BY	n/a	n/a	dot_pattern_expectancy	-1.0	n/a	cue	BY	s641
273.509	0.5	BY	1.0	71.0	dot_pattern_expectancy	71.0	0.755	probe	BY	s641
275.696	0.5	AX	n/a	n/a	dot_pattern_expectancy	-1.0	n/a	cue	AX	s641
278.203	0.5	AX	1.0	89.0	dot_pattern_expectancy	89.0	1.124	probe	AX	s641
279.981	0.5	AX	n/a	n/a	dot_pattern_expectancy	-1.0	n/a	cue	AX	s641
282.492	0.5	AX	1.0	89.0	dot_pattern_expectancy	89.0	0.285	probe	AX	s641
283.997	0.5	AX	n/a	n/a	dot_pattern_expectancy	-1.0	n/a	cue	AX	s641
286.509	0.5	AX	1.0	89.0	dot_pattern_expectancy	89.0	0.495	probe	AX	s641
288.014	0.5	AX	n/a	n/a	dot_pattern_expectancy	-1.0	n/a	cue	AX	s641
290.525	0.5	AX	1.0	89.0	dot_pattern_expectancy	89.0	0.391	probe	AX	s641
292.576	0.5	AX	n/a	n/a	dot_pattern_expectancy	-1.0	n/a	cue	AX	s641
295.085	0.5	AX	1.0	89.0	dot_pattern_expectancy	89.0	0.398	probe	AX	s641
297.951	0.5	BX	n/a	n/a	dot_pattern_expectancy	-1.0	n/a	cue	BX	s641
300.462	0.5	BX	1.0	71.0	dot_pattern_expectancy	71.0	0.283	probe	BX	s641
301.967	0.5	BY	n/a	n/a	dot_pattern_expectancy	-1.0	n/a	cue	BY	s641
304.479	0.5	BY	1.0	71.0	dot_pattern_expectancy	71.0	0.238	probe	BY	s641
306.257	0.5	AX	n/a	n/a	dot_pattern_expectancy	-1.0	n/a	cue	AX	s641
308.763	0.5	AX	1.0	89.0	dot_pattern_expectancy	89.0	0.405	probe	AX	s641
310.54	0.5	AX	n/a	n/a	dot_pattern_expectancy	-1.0	n/a	cue	AX	s641
313.05	0.5	AX	1.0	89.0	dot_pattern_expectancy	89.0	0.484	probe	AX	s641
315.915	0.5	AX	n/a	n/a	dot_pattern_expectancy	-1.0	n/a	cue	AX	s641
318.427	0.5	AX	1.0	89.0	dot_pattern_expectancy	89.0	0.35	probe	AX	s641
320.204	0.5	BX	n/a	n/a	dot_pattern_expectancy	-1.0	n/a	cue	BX	s641
322.716	0.5	BX	1.0	71.0	dot_pattern_expectancy	71.0	0.301	probe	BX	s641
324.359	0.5	BX	n/a	n/a	dot_pattern_expectancy	-1.0	n/a	cue	BX	s641
326.869	0.5	BX	1.0	71.0	dot_pattern_expectancy	71.0	0.274	probe	BX	s641
329.323	0.5	AX	n/a	n/a	dot_pattern_expectancy	-1.0	n/a	cue	AX	s641
331.835	0.5	AX	1.0	89.0	dot_pattern_expectancy	89.0	0.611	probe	AX	s641
333.477	0.5	BX	n/a	n/a	dot_pattern_expectancy	-1.0	n/a	cue	BX	s641
335.985	0.5	BX	1.0	71.0	dot_pattern_expectancy	71.0	0.312	probe	BX	s641
337.487	0.5	AX	n/a	n/a	dot_pattern_expectancy	-1.0	n/a	cue	AX	s641
339.997	0.5	AX	1.0	89.0	dot_pattern_expectancy	89.0	0.35	probe	AX	s641
341.639	0.5	AX	n/a	n/a	dot_pattern_expectancy	-1.0	n/a	cue	AX	s641
344.151	0.5	AX	1.0	89.0	dot_pattern_expectancy	89.0	0.462	probe	AX	s641
345.793	0.5	BY	n/a	n/a	dot_pattern_expectancy	-1.0	n/a	cue	BY	s641
348.303	0.5	BY	1.0	71.0	dot_pattern_expectancy	71.0	0.258	probe	BY	s641
350.49	0.5	AX	n/a	n/a	dot_pattern_expectancy	-1.0	n/a	cue	AX	s641
353.002	0.5	AX	1.0	89.0	dot_pattern_expectancy	89.0	0.508	probe	AX	s641
354.507	0.5	AY	n/a	n/a	dot_pattern_expectancy	-1.0	n/a	cue	AY	s641
357.016	0.5	AY	1.0	71.0	dot_pattern_expectancy	71.0	0.581	probe	AY	s641
358.657	0.5	AX	n/a	n/a	dot_pattern_expectancy	-1.0	n/a	cue	AX	s641
361.17	0.5	AX	1.0	89.0	dot_pattern_expectancy	89.0	0.651	probe	AX	s641
373.328	0.5	AX	n/a	n/a	dot_pattern_expectancy	-1.0	n/a	cue	AX	s641
375.839	0.5	AX	1.0	89.0	dot_pattern_expectancy	89.0	0.336	probe	AX	s641
378.025	0.5	AY	n/a	n/a	dot_pattern_expectancy	-1.0	n/a	cue	AY	s641
380.53	0.5	AY	1.0	71.0	dot_pattern_expectancy	71.0	0.489	probe	AY	s641
382.853	0.5	AY	n/a	n/a	dot_pattern_expectancy	-1.0	n/a	cue	AY	s641
385.365	0.5	AY	1.0	71.0	dot_pattern_expectancy	71.0	0.635	probe	AY	s641
387.005	0.5	BX	n/a	n/a	dot_pattern_expectancy	-1.0	n/a	cue	BX	s641
389.515	0.5	BX	1.0	71.0	dot_pattern_expectancy	71.0	0.275	probe	BX	s641
391.428	0.5	AX	n/a	n/a	dot_pattern_expectancy	-1.0	n/a	cue	AX	s641
393.938	0.5	AX	1.0	89.0	dot_pattern_expectancy	89.0	0.459	probe	AX	s641
397.483	0.5	BX	n/a	n/a	dot_pattern_expectancy	-1.0	n/a	cue	BX	s641
399.996	0.5	BX	1.0	71.0	dot_pattern_expectancy	71.0	0.405	probe	BX	s641
401.638	0.5	BY	n/a	n/a	dot_pattern_expectancy	-1.0	n/a	cue	BY	s641
404.149	0.5	BY	1.0	71.0	dot_pattern_expectancy	71.0	0.226	probe	BY	s641
405.654	0.5	AX	n/a	n/a	dot_pattern_expectancy	-1.0	n/a	cue	AX	s641
408.166	0.5	AX	1.0	89.0	dot_pattern_expectancy	89.0	0.335	probe	AX	s641
409.671	0.5	AX	n/a	n/a	dot_pattern_expectancy	-1.0	n/a	cue	AX	s641
412.183	0.5	AX	1.0	89.0	dot_pattern_expectancy	89.0	0.454	probe	AX	s641
413.96	0.5	BY	n/a	n/a	dot_pattern_expectancy	-1.0	n/a	cue	BY	s641
416.472	0.5	BY	1.0	71.0	dot_pattern_expectancy	71.0	0.091	probe	BY	s641
418.929	0.5	AX	n/a	n/a	dot_pattern_expectancy	-1.0	n/a	cue	AX	s641
421.439	0.5	AX	1.0	89.0	dot_pattern_expectancy	89.0	0.333	probe	AX	s641
423.352	0.5	BX	n/a	n/a	dot_pattern_expectancy	-1.0	n/a	cue	BX	s641
425.864	0.5	BX	1.0	71.0	dot_pattern_expectancy	71.0	0.278	probe	BX	s641
427.507	0.5	AX	n/a	n/a	dot_pattern_expectancy	-1.0	n/a	cue	AX	s641
430.017	0.5	AX	1.0	89.0	dot_pattern_expectancy	89.0	0.333	probe	AX	s641
431.523	0.5	AX	n/a	n/a	dot_pattern_expectancy	-1.0	n/a	cue	AX	s641
434.033	0.5	AX	1.0	89.0	dot_pattern_expectancy	89.0	0.508	probe	AX	s641
435.674	0.5	AX	n/a	n/a	dot_pattern_expectancy	-1.0	n/a	cue	AX	s641
438.183	0.5	AX	1.0	89.0	dot_pattern_expectancy	89.0	0.324	probe	AX	s641
439.824	0.5	BY	n/a	n/a	dot_pattern_expectancy	-1.0	n/a	cue	BY	s641
442.335	0.5	BY	1.0	71.0	dot_pattern_expectancy	71.0	0.219	probe	BY	s641
444.794	0.5	AX	n/a	n/a	dot_pattern_expectancy	-1.0	n/a	cue	AX	s641
447.303	0.5	AX	1.0	89.0	dot_pattern_expectancy	89.0	0.968	probe	AX	s641
448.809	0.5	BY	n/a	n/a	dot_pattern_expectancy	-1.0	n/a	cue	BY	s641
451.321	0.5	BY	1.0	71.0	dot_pattern_expectancy	71.0	0.288	probe	BY	s641
452.826	0.5	AX	n/a	n/a	dot_pattern_expectancy	-1.0	n/a	cue	AX	s641
455.334	0.5	AX	1.0	89.0	dot_pattern_expectancy	89.0	0.341	probe	AX	s641
456.976	0.5	AX	n/a	n/a	dot_pattern_expectancy	-1.0	n/a	cue	AX	s641
459.488	0.5	AX	1.0	89.0	dot_pattern_expectancy	89.0	0.4	probe	AX	s641
461.131	0.5	AY	n/a	n/a	dot_pattern_expectancy	-1.0	n/a	cue	AY	s641
463.644	0.5	AY	1.0	71.0	dot_pattern_expectancy	71.0	0.514	probe	AY	s641
465.286	0.5	AX	n/a	n/a	dot_pattern_expectancy	-1.0	n/a	cue	AX	s641
467.793	0.5	AX	1.0	89.0	dot_pattern_expectancy	89.0	0.441	probe	AX	s641
469.298	0.5	AX	n/a	n/a	dot_pattern_expectancy	-1.0	n/a	cue	AX	s641
471.806	0.5	AX	1.0	89.0	dot_pattern_expectancy	89.0	0.39	probe	AX	s641
473.312	0.5	AX	n/a	n/a	dot_pattern_expectancy	-1.0	n/a	cue	AX	s641
475.822	0.5	AX	1.0	89.0	dot_pattern_expectancy	89.0	0.455	probe	AX	s641
477.6	0.5	AX	n/a	n/a	dot_pattern_expectancy	-1.0	n/a	cue	AX	s641
480.109	0.5	AX	1.0	89.0	dot_pattern_expectancy	89.0	0.456	probe	AX	s641
482.294	0.5	BX	n/a	n/a	dot_pattern_expectancy	-1.0	n/a	cue	BX	s641
484.806	0.5	BX	1.0	71.0	dot_pattern_expectancy	71.0	0.224	probe	BX	s641
486.583	0.5	BY	n/a	n/a	dot_pattern_expectancy	-1.0	n/a	cue	BY	s641
489.095	0.5	BY	1.0	71.0	dot_pattern_expectancy	71.0	0.484	probe	BY	s641
490.6	0.5	AX	n/a	n/a	dot_pattern_expectancy	-1.0	n/a	cue	AX	s641
493.111	0.5	AX	1.0	89.0	dot_pattern_expectancy	89.0	0.418	probe	AX	s641
494.616	0.5	AX	n/a	n/a	dot_pattern_expectancy	-1.0	n/a	cue	AX	s641
497.125	0.5	AX	1.0	89.0	dot_pattern_expectancy	89.0	0.448	probe	AX	s641
498.767	0.5	AY	n/a	n/a	dot_pattern_expectancy	-1.0	n/a	cue	AY	s641
501.277	0.5	AY	1.0	71.0	dot_pattern_expectancy	71.0	0.552	probe	AY	s641
503.462	0.5	AY	n/a	n/a	dot_pattern_expectancy	-1.0	n/a	cue	AY	s641
505.973	0.5	AY	1.0	71.0	dot_pattern_expectancy	71.0	0.563	probe	AY	s641
508.296	0.5	BX	n/a	n/a	dot_pattern_expectancy	-1.0	n/a	cue	BX	s641
510.805	0.5	BX	1.0	71.0	dot_pattern_expectancy	71.0	0.278	probe	BX	s641
512.447	0.5	BX	n/a	n/a	dot_pattern_expectancy	-1.0	n/a	cue	BX	s641
514.958	0.5	BX	1.0	71.0	dot_pattern_expectancy	71.0	0.479	probe	BX	s641
517.143	0.5	AY	n/a	n/a	dot_pattern_expectancy	-1.0	n/a	cue	AY	s641
519.655	0.5	AY	1.0	71.0	dot_pattern_expectancy	71.0	0.47	probe	AY	s641
521.705	0.5	AX	n/a	n/a	dot_pattern_expectancy	-1.0	n/a	cue	AX	s641
524.217	0.5	AX	1.0	89.0	dot_pattern_expectancy	89.0	0.302	probe	AX	s641
525.994	0.5	AX	n/a	n/a	dot_pattern_expectancy	-1.0	n/a	cue	AX	s641
528.506	0.5	AX	1.0	89.0	dot_pattern_expectancy	89.0	0.387	probe	AX	s641
530.011	0.5	AX	n/a	n/a	dot_pattern_expectancy	-1.0	n/a	cue	AX	s641
532.521	0.5	AX	1.0	89.0	dot_pattern_expectancy	89.0	0.416	probe	AX	s641
534.707	0.5	AY	n/a	n/a	dot_pattern_expectancy	-1.0	n/a	cue	AY	s641
537.215	0.5	AY	1.0	71.0	dot_pattern_expectancy	71.0	0.519	probe	AY	s641
539.674	0.5	AX	n/a	n/a	dot_pattern_expectancy	-1.0	n/a	cue	AX	s641
542.183	0.5	AX	1.0	89.0	dot_pattern_expectancy	89.0	0.543	probe	AX	s641
543.825	0.5	AX	n/a	n/a	dot_pattern_expectancy	-1.0	n/a	cue	AX	s641
546.337	0.5	AX	1.0	89.0	dot_pattern_expectancy	89.0	0.492	probe	AX	s641
558.771	0.5	AX	n/a	n/a	dot_pattern_expectancy	-1.0	n/a	cue	AX	s641
561.28	0.5	AX	1.0	89.0	dot_pattern_expectancy	89.0	0.384	probe	AX	s641
563.058	0.5	AX	n/a	n/a	dot_pattern_expectancy	-1.0	n/a	cue	AX	s641
565.566	0.5	AX	1.0	89.0	dot_pattern_expectancy	89.0	0.41	probe	AX	s641
567.072	0.5	AY	n/a	n/a	dot_pattern_expectancy	-1.0	n/a	cue	AY	s641
569.582	0.5	AY	1.0	71.0	dot_pattern_expectancy	71.0	0.479	probe	AY	s641
572.041	0.5	AY	n/a	n/a	dot_pattern_expectancy	-1.0	n/a	cue	AY	s641
574.552	0.5	AY	1.0	71.0	dot_pattern_expectancy	71.0	0.594	probe	AY	s641
576.329	0.5	AX	n/a	n/a	dot_pattern_expectancy	-1.0	n/a	cue	AX	s641
578.836	0.5	AX	1.0	89.0	dot_pattern_expectancy	89.0	0.448	probe	AX	s641
580.75	0.5	AX	n/a	n/a	dot_pattern_expectancy	-1.0	n/a	cue	AX	s641
583.26	0.5	AX	1.0	89.0	dot_pattern_expectancy	89.0	0.47	probe	AX	s641
585.175	0.5	AX	n/a	n/a	dot_pattern_expectancy	-1.0	n/a	cue	AX	s641
587.683	0.5	AX	1.0	89.0	dot_pattern_expectancy	89.0	0.412	probe	AX	s641
590.277	0.5	AY	n/a	n/a	dot_pattern_expectancy	-1.0	n/a	cue	AY	s641
592.788	0.5	AY	1.0	71.0	dot_pattern_expectancy	71.0	0.414	probe	AY	s641
594.293	0.5	BY	n/a	n/a	dot_pattern_expectancy	-1.0	n/a	cue	BY	s641
596.804	0.5	BY	1.0	71.0	dot_pattern_expectancy	71.0	0.301	probe	BY	s641
598.31	0.5	BY	n/a	n/a	dot_pattern_expectancy	-1.0	n/a	cue	BY	s641
600.821	0.5	BY	1.0	71.0	dot_pattern_expectancy	71.0	0.311	probe	BY	s641
602.326	0.5	AX	n/a	n/a	dot_pattern_expectancy	-1.0	n/a	cue	AX	s641
604.838	0.5	AX	1.0	89.0	dot_pattern_expectancy	89.0	0.483	probe	AX	s641
606.481	0.5	BX	n/a	n/a	dot_pattern_expectancy	-1.0	n/a	cue	BX	s641
608.989	0.5	BX	1.0	71.0	dot_pattern_expectancy	71.0	0.263	probe	BX	s641
611.04	0.5	AX	n/a	n/a	dot_pattern_expectancy	-1.0	n/a	cue	AX	s641
613.551	0.5	AX	1.0	89.0	dot_pattern_expectancy	89.0	0.5	probe	AX	s641
615.328	0.5	BX	n/a	n/a	dot_pattern_expectancy	-1.0	n/a	cue	BX	s641
617.836	0.5	BX	1.0	71.0	dot_pattern_expectancy	71.0	0.349	probe	BX	s641
620.43	0.5	AY	n/a	n/a	dot_pattern_expectancy	-1.0	n/a	cue	AY	s641
622.941	0.5	AY	0.0	71.0	dot_pattern_expectancy	-1.0	n/a	probe	AY	s641
624.444	0.5	AX	n/a	n/a	dot_pattern_expectancy	-1.0	n/a	cue	AX	s641
626.955	0.5	AX	1.0	89.0	dot_pattern_expectancy	89.0	0.347	probe	AX	s641
629.414	0.5	BY	n/a	n/a	dot_pattern_expectancy	-1.0	n/a	cue	BY	s641
631.924	0.5	BY	1.0	71.0	dot_pattern_expectancy	71.0	0.254	probe	BY	s641
633.565	0.5	AX	n/a	n/a	dot_pattern_expectancy	-1.0	n/a	cue	AX	s641
636.076	0.5	AX	1.0	89.0	dot_pattern_expectancy	89.0	0.362	probe	AX	s641
637.718	0.5	AX	n/a	n/a	dot_pattern_expectancy	-1.0	n/a	cue	AX	s641
640.229	0.5	AX	1.0	89.0	dot_pattern_expectancy	89.0	0.415	probe	AX	s641
641.735	0.5	BY	n/a	n/a	dot_pattern_expectancy	-1.0	n/a	cue	BY	s641
644.246	0.5	BY	1.0	71.0	dot_pattern_expectancy	71.0	0.29	probe	BY	s641
645.887	0.5	AX	n/a	n/a	dot_pattern_expectancy	-1.0	n/a	cue	AX	s641
648.399	0.5	AX	1.0	89.0	dot_pattern_expectancy	89.0	0.393	probe	AX	s641
649.904	0.5	AY	n/a	n/a	dot_pattern_expectancy	-1.0	n/a	cue	AY	s641
652.414	0.5	AY	1.0	71.0	dot_pattern_expectancy	71.0	0.548	probe	AY	s641
654.599	0.5	AX	n/a	n/a	dot_pattern_expectancy	-1.0	n/a	cue	AX	s641
657.111	0.5	AX	1.0	89.0	dot_pattern_expectancy	89.0	0.372	probe	AX	s641
658.616	0.5	AX	n/a	n/a	dot_pattern_expectancy	-1.0	n/a	cue	AX	s641
661.124	0.5	AX	1.0	89.0	dot_pattern_expectancy	89.0	0.457	probe	AX	s641
663.038	0.5	BY	n/a	n/a	dot_pattern_expectancy	-1.0	n/a	cue	BY	s641
665.548	0.5	BY	1.0	71.0	dot_pattern_expectancy	71.0	0.243	probe	BY	s641
667.189	0.5	BY	n/a	n/a	dot_pattern_expectancy	-1.0	n/a	cue	BY	s641
669.7	0.5	BY	1.0	71.0	dot_pattern_expectancy	71.0	0.267	probe	BY	s641
671.343	0.5	AX	n/a	n/a	dot_pattern_expectancy	-1.0	n/a	cue	AX	s641
673.853	0.5	AX	1.0	89.0	dot_pattern_expectancy	89.0	0.311	probe	AX	s641
675.495	0.5	AX	n/a	n/a	dot_pattern_expectancy	-1.0	n/a	cue	AX	s641
678.004	0.5	AX	1.0	89.0	dot_pattern_expectancy	89.0	0.378	probe	AX	s641
679.505	0.5	BY	n/a	n/a	dot_pattern_expectancy	-1.0	n/a	cue	BY	s641
682.016	0.5	BY	1.0	71.0	dot_pattern_expectancy	71.0	0.247	probe	BY	s641
684.067	0.5	AY	n/a	n/a	dot_pattern_expectancy	-1.0	n/a	cue	AY	s641
686.575	0.5	AY	1.0	71.0	dot_pattern_expectancy	71.0	0.658	probe	AY	s641
688.761	0.5	AY	n/a	n/a	dot_pattern_expectancy	-1.0	n/a	cue	AY	s641
691.272	0.5	AY	1.0	71.0	dot_pattern_expectancy	71.0	0.621	probe	AY	s641
692.913	0.5	AY	n/a	n/a	dot_pattern_expectancy	-1.0	n/a	cue	AY	s641
695.426	0.5	AY	1.0	71.0	dot_pattern_expectancy	71.0	0.518	probe	AY	s641
697.203	0.5	BY	n/a	n/a	dot_pattern_expectancy	-1.0	n/a	cue	BY	s641
699.714	0.5	BY	1.0	71.0	dot_pattern_expectancy	71.0	0.648	probe	BY	s641
701.219	0.5	BX	n/a	n/a	dot_pattern_expectancy	-1.0	n/a	cue	BX	s641
703.729	0.5	BX	1.0	71.0	dot_pattern_expectancy	71.0	0.218	probe	BX	s641
705.642	0.5	AX	n/a	n/a	dot_pattern_expectancy	-1.0	n/a	cue	AX	s641
708.154	0.5	AX	1.0	89.0	dot_pattern_expectancy	89.0	0.334	probe	AX	s641
710.204	0.5	AX	n/a	n/a	dot_pattern_expectancy	-1.0	n/a	cue	AX	s641
712.716	0.5	AX	1.0	89.0	dot_pattern_expectancy	89.0	0.65	probe	AX	s641
714.358	0.5	AX	n/a	n/a	dot_pattern_expectancy	-1.0	n/a	cue	AX	s641
716.866	0.5	AX	0.0	89.0	dot_pattern_expectancy	71.0	0.504	probe	AX	s641
718.646	0.5	AX	n/a	n/a	dot_pattern_expectancy	-1.0	n/a	cue	AX	s641
721.158	0.5	AX	1.0	89.0	dot_pattern_expectancy	89.0	0.367	probe	AX	s641
722.799	0.5	BX	n/a	n/a	dot_pattern_expectancy	-1.0	n/a	cue	BX	s641
725.312	0.5	BX	1.0	71.0	dot_pattern_expectancy	71.0	0.231	probe	BX	s641
727.089	0.5	AX	n/a	n/a	dot_pattern_expectancy	-1.0	n/a	cue	AX	s641
729.6	0.5	AX	1.0	89.0	dot_pattern_expectancy	89.0	0.508	probe	AX	s641
