onset	duration	SS_delay	correct_response	experiment_exp_id	key_press	response_time	stop_response	stopped	trial_type	worker_id
3.021	0.85	0.25	71.0	motor_selective_stop_signal	71.0	0.554	89.0	False	noncrit_signal	s604
5.273	0.85	0.25	71.0	motor_selective_stop_signal	71.0	0.289	89.0	False	noncrit_nosignal	s604
7.529	0.85	0.25	89.0	motor_selective_stop_signal	71.0	0.274	89.0	False	crit_stop_failure	s604
10.383	0.85	0.2	89.0	motor_selective_stop_signal	89.0	0.401	89.0	False	crit_go	s604
12.736	0.85	0.2	71.0	motor_selective_stop_signal	71.0	0.449	89.0	False	noncrit_nosignal	s604
14.992	0.85	0.2	89.0	motor_selective_stop_signal	71.0	0.342	89.0	False	crit_stop_failure	s604
17.245	0.85	0.15	71.0	motor_selective_stop_signal	71.0	0.442	89.0	False	noncrit_nosignal	s604
19.496	0.85	0.15	71.0	motor_selective_stop_signal	71.0	0.565	89.0	False	noncrit_nosignal	s604
21.848	0.85	0.15	71.0	motor_selective_stop_signal	89.0	0.224	89.0	False	noncrit_nosignal	s604
24.499	0.85	0.15	89.0	motor_selective_stop_signal	89.0	0.601	89.0	False	crit_stop_failure	s604
27.256	0.85	0.1	89.0	motor_selective_stop_signal	89.0	0.542	89.0	False	crit_go	s604
29.512	0.85	0.1	89.0	motor_selective_stop_signal	-1.0	n/a	89.0	True	crit_stop_success	s604
32.264	0.85	0.15	71.0	motor_selective_stop_signal	71.0	0.447	89.0	False	noncrit_signal	s604
34.518	0.85	0.15	71.0	motor_selective_stop_signal	71.0	0.38	89.0	False	noncrit_nosignal	s604
36.871	0.85	0.15	71.0	motor_selective_stop_signal	89.0	0.263	89.0	False	noncrit_nosignal	s604
39.223	0.85	0.15	71.0	motor_selective_stop_signal	71.0	0.745	89.0	False	noncrit_nosignal	s604
41.776	0.85	0.15	71.0	motor_selective_stop_signal	71.0	0.477	89.0	False	noncrit_nosignal	s604
44.029	0.85	0.15	71.0	motor_selective_stop_signal	71.0	0.328	89.0	False	noncrit_signal	s604
46.283	0.85	0.15	89.0	motor_selective_stop_signal	89.0	0.424	89.0	False	crit_go	s604
48.537	0.85	0.15	71.0	motor_selective_stop_signal	89.0	0.4	89.0	False	noncrit_nosignal	s604
50.893	0.85	0.15	89.0	motor_selective_stop_signal	89.0	0.722	89.0	False	crit_stop_failure	s604
53.545	0.85	0.1	89.0	motor_selective_stop_signal	89.0	0.543	89.0	False	crit_go	s604
55.897	0.85	0.1	71.0	motor_selective_stop_signal	71.0	0.56	89.0	False	noncrit_signal	s604
58.154	0.85	0.1	89.0	motor_selective_stop_signal	89.0	0.523	89.0	False	crit_go	s604
60.506	0.85	0.1	89.0	motor_selective_stop_signal	-1.0	n/a	89.0	True	crit_stop_success	s604
62.863	0.85	0.15	71.0	motor_selective_stop_signal	71.0	0.413	89.0	False	noncrit_nosignal	s604
65.714	0.85	0.15	89.0	motor_selective_stop_signal	89.0	0.395	89.0	False	crit_go	s604
68.169	0.85	0.15	71.0	motor_selective_stop_signal	71.0	0.441	89.0	False	noncrit_nosignal	s604
70.522	0.85	0.15	89.0	motor_selective_stop_signal	89.0	0.382	89.0	False	crit_go	s604
73.178	0.85	0.15	71.0	motor_selective_stop_signal	71.0	0.354	89.0	False	noncrit_nosignal	s604
75.435	0.85	0.15	71.0	motor_selective_stop_signal	71.0	0.442	89.0	False	noncrit_signal	s604
77.69	0.85	0.15	89.0	motor_selective_stop_signal	89.0	0.459	89.0	False	crit_go	s604
79.946	0.85	0.15	71.0	motor_selective_stop_signal	71.0	0.454	89.0	False	noncrit_nosignal	s604
82.4	0.85	0.15	71.0	motor_selective_stop_signal	71.0	0.337	89.0	False	noncrit_nosignal	s604
84.756	0.85	0.15	89.0	motor_selective_stop_signal	89.0	0.537	89.0	False	crit_stop_failure	s604
87.007	0.85	0.1	89.0	motor_selective_stop_signal	-1.0	n/a	89.0	True	crit_stop_success	s604
89.362	0.85	0.15	71.0	motor_selective_stop_signal	71.0	0.562	89.0	False	noncrit_signal	s604
91.818	0.85	0.15	71.0	motor_selective_stop_signal	71.0	0.463	89.0	False	noncrit_nosignal	s604
94.174	0.85	0.15	89.0	motor_selective_stop_signal	89.0	0.478	89.0	False	crit_go	s604
96.426	0.85	0.15	89.0	motor_selective_stop_signal	89.0	0.52	89.0	False	crit_go	s604
98.679	0.85	0.15	71.0	motor_selective_stop_signal	71.0	0.493	89.0	False	noncrit_signal	s604
101.031	0.85	0.15	89.0	motor_selective_stop_signal	89.0	0.605	89.0	False	crit_stop_failure	s604
103.383	0.85	0.1	89.0	motor_selective_stop_signal	89.0	0.617	89.0	False	crit_go	s604
105.738	0.85	0.1	71.0	motor_selective_stop_signal	71.0	0.46	89.0	False	noncrit_nosignal	s604
108.695	0.85	0.1	89.0	motor_selective_stop_signal	89.0	0.613	89.0	False	crit_go	s604
110.949	0.85	0.1	71.0	motor_selective_stop_signal	71.0	0.552	89.0	False	noncrit_nosignal	s604
113.302	0.85	0.1	71.0	motor_selective_stop_signal	71.0	0.324	89.0	False	noncrit_nosignal	s604
115.554	0.85	0.1	71.0	motor_selective_stop_signal	71.0	0.622	89.0	False	noncrit_signal	s604
118.005	0.85	0.1	71.0	motor_selective_stop_signal	71.0	0.445	89.0	False	noncrit_signal	s604
120.36	0.85	0.1	71.0	motor_selective_stop_signal	71.0	0.469	89.0	False	noncrit_signal	s604
133.43	0.85	0.1	89.0	motor_selective_stop_signal	89.0	0.592	89.0	False	crit_go	s604
135.987	0.85	0.1	89.0	motor_selective_stop_signal	89.0	0.785	89.0	False	crit_go	s604
138.242	0.85	0.1	71.0	motor_selective_stop_signal	89.0	0.368	89.0	False	noncrit_nosignal	s604
140.498	0.85	0.1	89.0	motor_selective_stop_signal	-1.0	n/a	89.0	True	crit_stop_success	s604
143.253	0.85	0.15	89.0	motor_selective_stop_signal	-1.0	n/a	89.0	True	crit_stop_success	s604
145.609	0.85	0.2	89.0	motor_selective_stop_signal	-1.0	n/a	89.0	True	crit_stop_success	s604
147.864	0.85	0.25	71.0	motor_selective_stop_signal	71.0	0.48	89.0	False	noncrit_nosignal	s604
150.32	0.85	0.25	89.0	motor_selective_stop_signal	89.0	0.578	89.0	False	crit_go	s604
152.577	0.85	0.25	71.0	motor_selective_stop_signal	71.0	0.372	89.0	False	noncrit_nosignal	s604
154.929	0.85	0.25	89.0	motor_selective_stop_signal	71.0	0.37	89.0	False	crit_go	s604
157.184	0.85	0.25	89.0	motor_selective_stop_signal	-1.0	n/a	89.0	True	crit_stop_success	s604
159.437	0.85	0.3	89.0	motor_selective_stop_signal	89.0	0.456	89.0	False	crit_stop_failure	s604
161.692	0.85	0.25	71.0	motor_selective_stop_signal	71.0	0.793	89.0	False	noncrit_nosignal	s604
163.946	0.85	0.25	71.0	motor_selective_stop_signal	71.0	0.341	89.0	False	noncrit_nosignal	s604
166.203	0.85	0.25	71.0	motor_selective_stop_signal	71.0	0.346	89.0	False	noncrit_signal	s604
168.559	0.85	0.25	89.0	motor_selective_stop_signal	89.0	0.41	89.0	False	crit_stop_failure	s604
171.115	0.85	0.2	89.0	motor_selective_stop_signal	89.0	0.364	89.0	False	crit_go	s604
174.071	0.85	0.2	89.0	motor_selective_stop_signal	89.0	0.373	89.0	False	crit_stop_failure	s604
176.323	0.85	0.15	89.0	motor_selective_stop_signal	89.0	0.578	89.0	False	crit_go	s604
178.68	0.85	0.15	71.0	motor_selective_stop_signal	71.0	0.335	89.0	False	noncrit_nosignal	s604
181.233	0.85	0.15	71.0	motor_selective_stop_signal	71.0	0.563	89.0	False	noncrit_signal	s604
183.489	0.85	0.15	71.0	motor_selective_stop_signal	71.0	0.437	89.0	False	noncrit_signal	s604
185.842	0.85	0.15	71.0	motor_selective_stop_signal	71.0	0.327	89.0	False	noncrit_signal	s604
188.395	0.85	0.15	71.0	motor_selective_stop_signal	71.0	0.422	89.0	False	noncrit_signal	s604
190.852	0.85	0.15	89.0	motor_selective_stop_signal	89.0	0.486	89.0	False	crit_go	s604
193.205	0.85	0.15	71.0	motor_selective_stop_signal	71.0	0.666	89.0	False	noncrit_nosignal	s604
195.857	0.85	0.15	71.0	motor_selective_stop_signal	71.0	0.561	89.0	False	noncrit_nosignal	s604
198.414	0.85	0.15	89.0	motor_selective_stop_signal	-1.0	n/a	89.0	True	crit_stop_success	s604
201.17	0.85	0.2	89.0	motor_selective_stop_signal	89.0	0.327	89.0	False	crit_stop_failure	s604
203.726	0.85	0.15	71.0	motor_selective_stop_signal	71.0	0.509	89.0	False	noncrit_signal	s604
206.182	0.85	0.15	71.0	motor_selective_stop_signal	71.0	0.362	89.0	False	noncrit_nosignal	s604
208.936	0.85	0.15	89.0	motor_selective_stop_signal	89.0	0.637	89.0	False	crit_go	s604
211.493	0.85	0.15	89.0	motor_selective_stop_signal	-1.0	n/a	89.0	True	crit_stop_success	s604
213.849	0.85	0.2	89.0	motor_selective_stop_signal	71.0	0.497	89.0	False	crit_go	s604
216.101	0.85	0.2	89.0	motor_selective_stop_signal	89.0	0.531	89.0	False	crit_go	s604
218.752	0.85	0.2	89.0	motor_selective_stop_signal	89.0	0.397	89.0	False	crit_stop_failure	s604
221.005	0.85	0.15	89.0	motor_selective_stop_signal	89.0	0.684	89.0	False	crit_go	s604
223.361	0.85	0.15	71.0	motor_selective_stop_signal	71.0	0.428	89.0	False	noncrit_nosignal	s604
225.614	0.85	0.15	71.0	motor_selective_stop_signal	71.0	0.431	89.0	False	noncrit_nosignal	s604
227.968	0.85	0.15	71.0	motor_selective_stop_signal	71.0	0.412	89.0	False	noncrit_nosignal	s604
230.319	0.85	0.15	71.0	motor_selective_stop_signal	71.0	0.503	89.0	False	noncrit_nosignal	s604
232.575	0.85	0.15	71.0	motor_selective_stop_signal	71.0	0.447	89.0	False	noncrit_signal	s604
235.426	0.85	0.15	71.0	motor_selective_stop_signal	71.0	0.352	89.0	False	noncrit_nosignal	s604
237.78	0.85	0.15	89.0	motor_selective_stop_signal	89.0	0.695	89.0	False	crit_go	s604
240.035	0.85	0.15	71.0	motor_selective_stop_signal	71.0	0.491	89.0	False	noncrit_nosignal	s604
242.388	0.85	0.15	89.0	motor_selective_stop_signal	71.0	0.456	89.0	False	crit_go	s604
244.845	0.85	0.15	89.0	motor_selective_stop_signal	89.0	0.352	89.0	False	crit_stop_failure	s604
247.099	0.85	0.1	71.0	motor_selective_stop_signal	71.0	0.773	89.0	False	noncrit_signal	s604
249.35	0.85	0.1	71.0	motor_selective_stop_signal	71.0	0.329	89.0	False	noncrit_nosignal	s604
252.106	0.85	0.1	71.0	motor_selective_stop_signal	71.0	0.621	89.0	False	noncrit_signal	s604
264.973	0.85	0.1	89.0	motor_selective_stop_signal	89.0	0.427	89.0	False	crit_go	s604
267.725	0.85	0.1	71.0	motor_selective_stop_signal	71.0	0.357	89.0	False	noncrit_nosignal	s604
270.182	0.85	0.1	89.0	motor_selective_stop_signal	89.0	0.628	89.0	False	crit_go	s604
272.438	0.85	0.1	89.0	motor_selective_stop_signal	89.0	0.515	89.0	False	crit_stop_failure	s604
274.792	0.85	0.05	71.0	motor_selective_stop_signal	71.0	0.437	89.0	False	noncrit_nosignal	s604
277.448	0.85	0.05	89.0	motor_selective_stop_signal	71.0	0.245	89.0	False	crit_stop_failure	s604
279.904	0.85	0.0	71.0	motor_selective_stop_signal	71.0	0.419	89.0	False	noncrit_nosignal	s604
282.159	0.85	0.0	71.0	motor_selective_stop_signal	71.0	0.525	89.0	False	noncrit_signal	s604
284.516	0.85	0.0	71.0	motor_selective_stop_signal	71.0	0.351	89.0	False	noncrit_signal	s604
287.472	0.85	0.0	89.0	motor_selective_stop_signal	89.0	0.656	89.0	False	crit_go	s604
289.728	0.85	0.0	71.0	motor_selective_stop_signal	71.0	0.55	89.0	False	noncrit_nosignal	s604
292.68	0.85	0.0	71.0	motor_selective_stop_signal	71.0	0.59	89.0	False	noncrit_signal	s604
295.136	0.85	0.0	89.0	motor_selective_stop_signal	-1.0	n/a	89.0	True	crit_stop_success	s604
297.392	0.85	0.05	71.0	motor_selective_stop_signal	71.0	0.463	89.0	False	noncrit_nosignal	s604
299.745	0.85	0.05	71.0	motor_selective_stop_signal	71.0	0.676	89.0	False	noncrit_nosignal	s604
302.198	0.85	0.05	89.0	motor_selective_stop_signal	-1.0	n/a	89.0	True	crit_stop_success	s604
304.451	0.85	0.1	71.0	motor_selective_stop_signal	71.0	0.5	89.0	False	noncrit_signal	s604
306.902	0.85	0.1	71.0	motor_selective_stop_signal	71.0	0.453	89.0	False	noncrit_nosignal	s604
309.656	0.85	0.1	71.0	motor_selective_stop_signal	71.0	0.343	89.0	False	noncrit_signal	s604
311.91	0.85	0.1	71.0	motor_selective_stop_signal	71.0	0.381	89.0	False	noncrit_nosignal	s604
314.267	0.85	0.1	71.0	motor_selective_stop_signal	71.0	0.445	89.0	False	noncrit_signal	s604
316.723	0.85	0.1	89.0	motor_selective_stop_signal	89.0	0.731	89.0	False	crit_go	s604
319.079	0.85	0.1	71.0	motor_selective_stop_signal	71.0	0.389	89.0	False	noncrit_signal	s604
321.337	0.85	0.1	71.0	motor_selective_stop_signal	89.0	0.285	89.0	False	noncrit_nosignal	s604
323.893	0.85	0.1	71.0	motor_selective_stop_signal	71.0	0.479	89.0	False	noncrit_nosignal	s604
326.348	0.85	0.1	89.0	motor_selective_stop_signal	89.0	0.348	89.0	False	crit_go	s604
329.001	0.85	0.1	89.0	motor_selective_stop_signal	89.0	0.412	89.0	False	crit_stop_failure	s604
331.256	0.85	0.05	71.0	motor_selective_stop_signal	71.0	0.461	89.0	False	noncrit_signal	s604
333.912	0.85	0.05	89.0	motor_selective_stop_signal	71.0	0.48	89.0	False	crit_go	s604
336.268	0.85	0.05	89.0	motor_selective_stop_signal	89.0	0.478	89.0	False	crit_go	s604
338.521	0.85	0.05	71.0	motor_selective_stop_signal	71.0	0.491	89.0	False	noncrit_nosignal	s604
340.773	0.85	0.05	89.0	motor_selective_stop_signal	89.0	0.339	89.0	False	crit_go	s604
343.027	0.85	0.05	71.0	motor_selective_stop_signal	89.0	0.316	89.0	False	noncrit_nosignal	s604
345.379	0.85	0.05	71.0	motor_selective_stop_signal	71.0	0.537	89.0	False	noncrit_signal	s604
347.935	0.85	0.05	89.0	motor_selective_stop_signal	89.0	0.504	89.0	False	crit_go	s604
350.289	0.85	0.05	89.0	motor_selective_stop_signal	-1.0	n/a	89.0	True	crit_stop_success	s604
352.744	0.85	0.1	71.0	motor_selective_stop_signal	71.0	0.42	89.0	False	noncrit_nosignal	s604
355.201	0.85	0.1	89.0	motor_selective_stop_signal	-1.0	n/a	89.0	True	crit_stop_success	s604
357.555	0.85	0.15	71.0	motor_selective_stop_signal	71.0	0.48	89.0	False	noncrit_signal	s604
359.809	0.85	0.15	89.0	motor_selective_stop_signal	71.0	0.335	89.0	False	crit_go	s604
362.365	0.85	0.15	71.0	motor_selective_stop_signal	71.0	0.583	89.0	False	noncrit_nosignal	s604
364.922	0.85	0.15	71.0	motor_selective_stop_signal	71.0	0.791	89.0	False	noncrit_signal	s604
367.176	0.85	0.15	71.0	motor_selective_stop_signal	71.0	0.708	89.0	False	noncrit_nosignal	s604
369.431	0.85	0.15	89.0	motor_selective_stop_signal	-1.0	n/a	89.0	True	crit_stop_success	s604
371.887	0.85	0.2	89.0	motor_selective_stop_signal	89.0	0.713	89.0	False	crit_go	s604
374.239	0.85	0.2	89.0	motor_selective_stop_signal	89.0	0.761	89.0	False	crit_go	s604
376.495	0.85	0.2	71.0	motor_selective_stop_signal	71.0	0.874	89.0	False	noncrit_nosignal	s604
379.647	0.85	0.2	89.0	motor_selective_stop_signal	89.0	0.547	89.0	False	crit_go	s604
382.303	0.85	0.2	71.0	motor_selective_stop_signal	71.0	0.687	89.0	False	noncrit_signal	s604
384.559	0.85	0.2	89.0	motor_selective_stop_signal	89.0	0.733	89.0	False	crit_stop_failure	s604
397.536	0.85	0.15	71.0	motor_selective_stop_signal	71.0	0.512	89.0	False	noncrit_signal	s604
400.392	0.85	0.15	71.0	motor_selective_stop_signal	71.0	0.426	89.0	False	noncrit_nosignal	s604
402.846	0.85	0.15	71.0	motor_selective_stop_signal	71.0	0.41	89.0	False	noncrit_nosignal	s604
405.102	0.85	0.15	89.0	motor_selective_stop_signal	89.0	0.499	89.0	False	crit_go	s604
407.357	0.85	0.15	71.0	motor_selective_stop_signal	71.0	0.552	89.0	False	noncrit_signal	s604
409.909	0.85	0.15	89.0	motor_selective_stop_signal	-1.0	n/a	89.0	True	crit_stop_success	s604
412.165	0.85	0.2	89.0	motor_selective_stop_signal	89.0	0.846	89.0	False	crit_go	s604
414.521	0.85	0.2	89.0	motor_selective_stop_signal	71.0	0.374	89.0	False	crit_stop_failure	s604
416.873	0.85	0.15	89.0	motor_selective_stop_signal	89.0	0.593	89.0	False	crit_go	s604
419.125	0.85	0.15	71.0	motor_selective_stop_signal	71.0	0.374	89.0	False	noncrit_signal	s604
421.477	0.85	0.15	89.0	motor_selective_stop_signal	71.0	0.351	89.0	False	crit_go	s604
423.732	0.85	0.15	89.0	motor_selective_stop_signal	89.0	0.564	89.0	False	crit_go	s604
426.183	0.85	0.15	71.0	motor_selective_stop_signal	71.0	0.396	89.0	False	noncrit_nosignal	s604
428.439	0.85	0.15	71.0	motor_selective_stop_signal	71.0	0.448	89.0	False	noncrit_nosignal	s604
430.796	0.85	0.15	71.0	motor_selective_stop_signal	71.0	0.385	89.0	False	noncrit_signal	s604
433.247	0.85	0.15	89.0	motor_selective_stop_signal	89.0	0.52	89.0	False	crit_stop_failure	s604
435.503	0.85	0.1	89.0	motor_selective_stop_signal	89.0	0.916	89.0	False	crit_go	s604
437.758	0.85	0.1	71.0	motor_selective_stop_signal	71.0	0.54	89.0	False	noncrit_nosignal	s604
440.614	0.85	0.1	71.0	motor_selective_stop_signal	71.0	0.278	89.0	False	noncrit_nosignal	s604
442.871	0.85	0.1	89.0	motor_selective_stop_signal	71.0	0.646	89.0	False	crit_go	s604
446.327	0.85	0.1	71.0	motor_selective_stop_signal	71.0	0.545	89.0	False	noncrit_signal	s604
448.683	0.85	0.1	71.0	motor_selective_stop_signal	71.0	0.612	89.0	False	noncrit_signal	s604
451.039	0.85	0.1	89.0	motor_selective_stop_signal	71.0	0.479	89.0	False	crit_go	s604
453.395	0.85	0.1	89.0	motor_selective_stop_signal	89.0	0.614	89.0	False	crit_stop_failure	s604
455.851	0.85	0.05	71.0	motor_selective_stop_signal	71.0	0.561	89.0	False	noncrit_signal	s604
458.408	0.85	0.05	89.0	motor_selective_stop_signal	89.0	0.535	89.0	False	crit_go	s604
460.765	0.85	0.05	89.0	motor_selective_stop_signal	-1.0	n/a	89.0	True	crit_stop_success	s604
463.017	0.85	0.1	89.0	motor_selective_stop_signal	89.0	0.413	89.0	False	crit_go	s604
465.273	0.85	0.1	89.0	motor_selective_stop_signal	89.0	0.677	89.0	False	crit_go	s604
468.324	0.85	0.1	89.0	motor_selective_stop_signal	89.0	0.985	89.0	False	crit_go	s604
470.777	0.85	0.1	71.0	motor_selective_stop_signal	71.0	0.469	89.0	False	noncrit_nosignal	s604
473.13	0.85	0.1	89.0	motor_selective_stop_signal	-1.0	n/a	89.0	True	crit_stop_success	s604
475.382	0.85	0.15	89.0	motor_selective_stop_signal	-1.0	n/a	89.0	True	crit_stop_success	s604
478.638	0.85	0.2	89.0	motor_selective_stop_signal	89.0	0.493	89.0	False	crit_go	s604
481.59	0.85	0.2	89.0	motor_selective_stop_signal	-1.0	n/a	89.0	True	crit_stop_success	s604
484.144	0.85	0.25	89.0	motor_selective_stop_signal	71.0	0.336	89.0	False	crit_go	s604
486.496	0.85	0.25	89.0	motor_selective_stop_signal	-1.0	n/a	89.0	True	crit_stop_success	s604
489.052	0.85	0.3	89.0	motor_selective_stop_signal	89.0	0.509	89.0	False	crit_go	s604
491.407	0.85	0.3	89.0	motor_selective_stop_signal	89.0	0.446	89.0	False	crit_go	s604
493.663	0.85	0.3	71.0	motor_selective_stop_signal	71.0	0.972	89.0	False	noncrit_signal	s604
496.119	0.85	0.3	71.0	motor_selective_stop_signal	71.0	0.354	89.0	False	noncrit_nosignal	s604
498.471	0.85	0.3	71.0	motor_selective_stop_signal	71.0	0.39	89.0	False	noncrit_signal	s604
501.127	0.85	0.3	89.0	motor_selective_stop_signal	89.0	0.717	89.0	False	crit_go	s604
503.379	0.85	0.3	89.0	motor_selective_stop_signal	89.0	0.533	89.0	False	crit_stop_failure	s604
505.635	0.85	0.25	71.0	motor_selective_stop_signal	71.0	0.609	89.0	False	noncrit_nosignal	s604
508.087	0.85	0.25	71.0	motor_selective_stop_signal	71.0	0.632	89.0	False	noncrit_nosignal	s604
510.343	0.85	0.25	89.0	motor_selective_stop_signal	71.0	0.484	89.0	False	crit_stop_failure	s604
512.9	0.85	0.2	89.0	motor_selective_stop_signal	71.0	0.805	89.0	False	crit_go	s604
515.154	0.85	0.2	71.0	motor_selective_stop_signal	71.0	0.601	89.0	False	noncrit_signal	s604
517.51	0.85	0.2	89.0	motor_selective_stop_signal	-1.0	n/a	89.0	True	crit_stop_success	s604
530.282	0.85	0.25	89.0	motor_selective_stop_signal	-1.0	n/a	89.0	True	crit_stop_success	s604
532.838	0.85	0.3	89.0	motor_selective_stop_signal	89.0	0.508	89.0	False	crit_go	s604
535.391	0.85	0.3	71.0	motor_selective_stop_signal	71.0	0.349	89.0	False	noncrit_nosignal	s604
537.747	0.85	0.3	71.0	motor_selective_stop_signal	71.0	0.355	89.0	False	noncrit_nosignal	s604
540.103	0.85	0.3	71.0	motor_selective_stop_signal	71.0	0.454	89.0	False	noncrit_nosignal	s604
542.358	0.85	0.3	71.0	motor_selective_stop_signal	71.0	0.344	89.0	False	noncrit_signal	s604
544.814	0.85	0.3	89.0	motor_selective_stop_signal	89.0	0.762	89.0	False	crit_go	s604
547.07	0.85	0.3	71.0	motor_selective_stop_signal	71.0	0.429	89.0	False	noncrit_signal	s604
549.524	0.85	0.3	89.0	motor_selective_stop_signal	71.0	0.388	89.0	False	crit_stop_failure	s604
552.176	0.85	0.25	71.0	motor_selective_stop_signal	71.0	0.492	89.0	False	noncrit_nosignal	s604
554.63	0.85	0.25	89.0	motor_selective_stop_signal	89.0	0.696	89.0	False	crit_go	s604
556.986	0.85	0.25	71.0	motor_selective_stop_signal	71.0	1.69	89.0	False	noncrit_signal	s604
559.242	0.85	0.25	89.0	motor_selective_stop_signal	89.0	0.574	89.0	False	crit_go	s604
561.797	0.85	0.25	89.0	motor_selective_stop_signal	89.0	0.518	89.0	False	crit_go	s604
564.051	0.85	0.25	71.0	motor_selective_stop_signal	71.0	0.557	89.0	False	noncrit_nosignal	s604
566.303	0.85	0.25	71.0	motor_selective_stop_signal	71.0	0.424	89.0	False	noncrit_nosignal	s604
568.658	0.85	0.25	71.0	motor_selective_stop_signal	71.0	0.466	89.0	False	noncrit_nosignal	s604
570.914	0.85	0.25	71.0	motor_selective_stop_signal	71.0	0.862	89.0	False	noncrit_signal	s604
573.57	0.85	0.25	71.0	motor_selective_stop_signal	71.0	0.805	89.0	False	noncrit_signal	s604
575.926	0.85	0.25	71.0	motor_selective_stop_signal	71.0	1.293	89.0	False	noncrit_nosignal	s604
578.38	0.85	0.25	71.0	motor_selective_stop_signal	71.0	0.362	89.0	False	noncrit_signal	s604
580.736	0.85	0.25	89.0	motor_selective_stop_signal	89.0	0.558	89.0	False	crit_stop_failure	s604
582.988	0.85	0.2	89.0	motor_selective_stop_signal	89.0	0.471	89.0	False	crit_go	s604
585.245	0.85	0.2	89.0	motor_selective_stop_signal	-1.0	n/a	89.0	True	crit_stop_success	s604
587.501	0.85	0.25	89.0	motor_selective_stop_signal	89.0	0.5	89.0	False	crit_go	s604
589.758	0.85	0.25	89.0	motor_selective_stop_signal	-1.0	n/a	89.0	True	crit_stop_success	s604
592.112	0.85	0.3	71.0	motor_selective_stop_signal	71.0	0.429	89.0	False	noncrit_nosignal	s604
595.467	0.85	0.3	71.0	motor_selective_stop_signal	71.0	0.342	89.0	False	noncrit_nosignal	s604
598.023	0.85	0.3	89.0	motor_selective_stop_signal	71.0	0.566	89.0	False	crit_stop_failure	s604
600.777	0.85	0.25	89.0	motor_selective_stop_signal	89.0	0.667	89.0	False	crit_go	s604
603.533	0.85	0.25	89.0	motor_selective_stop_signal	89.0	0.674	89.0	False	crit_go	s604
606.189	0.85	0.25	89.0	motor_selective_stop_signal	-1.0	n/a	89.0	True	crit_stop_success	s604
608.645	0.85	0.3	89.0	motor_selective_stop_signal	71.0	0.352	89.0	False	crit_go	s604
610.901	0.85	0.3	89.0	motor_selective_stop_signal	89.0	0.477	89.0	False	crit_go	s604
613.256	0.85	0.3	89.0	motor_selective_stop_signal	71.0	0.786	89.0	False	crit_go	s604
615.71	0.85	0.3	89.0	motor_selective_stop_signal	71.0	0.416	89.0	False	crit_go	s604
618.766	0.85	0.3	71.0	motor_selective_stop_signal	71.0	0.629	89.0	False	noncrit_nosignal	s604
621.123	0.85	0.3	71.0	motor_selective_stop_signal	71.0	0.39	89.0	False	noncrit_signal	s604
623.379	0.85	0.3	89.0	motor_selective_stop_signal	89.0	0.403	89.0	False	crit_go	s604
625.733	0.85	0.3	71.0	motor_selective_stop_signal	71.0	0.526	89.0	False	noncrit_nosignal	s604
628.089	0.85	0.3	71.0	motor_selective_stop_signal	71.0	0.445	89.0	False	noncrit_nosignal	s604
630.442	0.85	0.3	71.0	motor_selective_stop_signal	71.0	0.374	89.0	False	noncrit_signal	s604
632.798	0.85	0.3	89.0	motor_selective_stop_signal	89.0	0.606	89.0	False	crit_go	s604
635.152	0.85	0.3	89.0	motor_selective_stop_signal	89.0	0.564	89.0	False	crit_go	s604
637.409	0.85	0.3	89.0	motor_selective_stop_signal	89.0	0.434	89.0	False	crit_stop_failure	s604
639.762	0.85	0.25	71.0	motor_selective_stop_signal	71.0	0.481	89.0	False	noncrit_nosignal	s604
642.219	0.85	0.25	71.0	motor_selective_stop_signal	-1.0	n/a	89.0	True	noncrit_nosignal	s604
644.575	0.85	0.25	89.0	motor_selective_stop_signal	71.0	0.624	89.0	False	crit_go	s604
647.426	0.85	0.25	89.0	motor_selective_stop_signal	89.0	0.86	89.0	False	crit_go	s604
649.981	0.85	0.25	89.0	motor_selective_stop_signal	89.0	0.497	89.0	False	crit_go	s604
