onset	duration	planning	condition	current_position	exp_stage	experiment_exp_id	goal_state	key_press	problem_id	response_time	start_state	trial_id	worker_id
-56.675	0.0	0	n/a	n/a	n/a	ward_and_allport	n/a	32.0	n/a	22.464	n/a	instructions	s642
3.01	4.175	1	UA_with_intermediate	1,0,0,2,0,0,0,0,0	practice	ward_and_allport	1,2,3,0,0,0,0,0,0	71.0	0.0	4.175	1,0,0,2,3,0,0,0,0	to_hand	s642
7.187	1.063	0	UA_with_intermediate	1,0,0,2,0,0,3,0,0	practice	ward_and_allport	1,2,3,0,0,0,0,0,0	82.0	0.0	1.063	1,0,0,2,3,0,0,0,0	to_board	s642
8.253	0.501	0	UA_with_intermediate	1,0,0,0,0,0,3,0,0	practice	ward_and_allport	1,2,3,0,0,0,0,0,0	71.0	0.0	0.501	1,0,0,2,3,0,0,0,0	to_hand	s642
8.756	0.329	0	UA_with_intermediate	1,2,0,0,0,0,3,0,0	practice	ward_and_allport	1,2,3,0,0,0,0,0,0	89.0	0.0	0.329	1,0,0,2,3,0,0,0,0	to_board	s642
9.086	0.709	0	UA_with_intermediate	1,2,0,0,0,0,0,0,0	practice	ward_and_allport	1,2,3,0,0,0,0,0,0	82.0	0.0	0.709	1,0,0,2,3,0,0,0,0	to_hand	s642
9.797	0.308	0	UA_with_intermediate	1,2,3,0,0,0,0,0,0	practice	ward_and_allport	1,2,3,0,0,0,0,0,0	89.0	0.0	0.308	1,0,0,2,3,0,0,0,0	to_board	s642
10.111	1.0	0	UA_with_intermediate	n/a	practice	ward_and_allport	n/a	-1.0	0.0	n/a	n/a	feedback	s642
12.613	2.649	1	UA_with_intermediate	1,0,0,3,0,0,0,0,0	practice	ward_and_allport	1,3,2,0,0,0,0,0,0	89.0	1.0	2.649	1,2,0,3,0,0,0,0,0	to_hand	s642
15.264	1.27	0	UA_with_intermediate	1,0,0,3,0,0,2,0,0	practice	ward_and_allport	1,3,2,0,0,0,0,0,0	82.0	1.0	1.27	1,2,0,3,0,0,0,0,0	to_board	s642
16.535	0.387	0	UA_with_intermediate	1,0,0,0,0,0,2,0,0	practice	ward_and_allport	1,3,2,0,0,0,0,0,0	71.0	1.0	0.387	1,2,0,3,0,0,0,0,0	to_hand	s642
16.923	0.333	0	UA_with_intermediate	1,3,0,0,0,0,2,0,0	practice	ward_and_allport	1,3,2,0,0,0,0,0,0	89.0	1.0	0.333	1,2,0,3,0,0,0,0,0	to_board	s642
17.259	0.395	0	UA_with_intermediate	1,3,0,0,0,0,0,0,0	practice	ward_and_allport	1,3,2,0,0,0,0,0,0	82.0	1.0	0.395	1,2,0,3,0,0,0,0,0	to_hand	s642
17.655	0.277	0	UA_with_intermediate	1,3,2,0,0,0,0,0,0	practice	ward_and_allport	1,3,2,0,0,0,0,0,0	89.0	1.0	0.277	1,2,0,3,0,0,0,0,0	to_board	s642
17.936	1.0	0	UA_with_intermediate	n/a	practice	ward_and_allport	n/a	-1.0	1.0	n/a	n/a	feedback	s642
18.936	1.1	0	UA_with_intermediate	n/a	practice	ward_and_allport	n/a	-1.0	1.0	n/a	n/a	ITI	s642
20.038	1.798	1	UA_without_intermediate	0,0,0,1,2,0,0,0,0	practice	ward_and_allport	3,2,1,0,0,0,0,0,0	82.0	2.0	1.798	0,0,0,1,2,0,3,0,0	to_hand	s642
21.838	0.38	0	UA_without_intermediate	3,0,0,1,2,0,0,0,0	practice	ward_and_allport	3,2,1,0,0,0,0,0,0	89.0	2.0	0.38	0,0,0,1,2,0,3,0,0	to_board	s642
22.22	0.848	0	UA_without_intermediate	3,0,0,1,0,0,0,0,0	practice	ward_and_allport	3,2,1,0,0,0,0,0,0	71.0	2.0	0.848	0,0,0,1,2,0,3,0,0	to_hand	s642
23.069	0.23	0	UA_without_intermediate	3,2,0,1,0,0,0,0,0	practice	ward_and_allport	3,2,1,0,0,0,0,0,0	89.0	2.0	0.23	0,0,0,1,2,0,3,0,0	to_board	s642
23.3	0.543	0	UA_without_intermediate	3,2,0,0,0,0,0,0,0	practice	ward_and_allport	3,2,1,0,0,0,0,0,0	71.0	2.0	0.543	0,0,0,1,2,0,3,0,0	to_hand	s642
23.844	0.173	0	UA_without_intermediate	3,2,1,0,0,0,0,0,0	practice	ward_and_allport	3,2,1,0,0,0,0,0,0	89.0	2.0	0.173	0,0,0,1,2,0,3,0,0	to_board	s642
24.021	1.0	0	UA_without_intermediate	n/a	practice	ward_and_allport	n/a	-1.0	2.0	n/a	n/a	feedback	s642
25.021	1.2	0	UA_without_intermediate	n/a	practice	ward_and_allport	n/a	-1.0	2.0	n/a	n/a	ITI	s642
26.223	2.846	1	UA_without_intermediate	0,0,0,1,0,0,3,0,0	practice	ward_and_allport	2,3,1,0,0,0,0,0,0	71.0	3.0	2.846	0,0,0,1,2,0,3,0,0	to_hand	s642
29.07	0.244	0	UA_without_intermediate	2,0,0,1,0,0,3,0,0	practice	ward_and_allport	2,3,1,0,0,0,0,0,0	89.0	3.0	0.244	0,0,0,1,2,0,3,0,0	to_board	s642
29.317	1.104	0	UA_without_intermediate	2,0,0,1,0,0,0,0,0	practice	ward_and_allport	2,3,1,0,0,0,0,0,0	82.0	3.0	1.104	0,0,0,1,2,0,3,0,0	to_hand	s642
30.422	0.206	0	UA_without_intermediate	2,3,0,1,0,0,0,0,0	practice	ward_and_allport	2,3,1,0,0,0,0,0,0	89.0	3.0	0.206	0,0,0,1,2,0,3,0,0	to_board	s642
30.63	0.702	0	UA_without_intermediate	2,3,0,0,0,0,0,0,0	practice	ward_and_allport	2,3,1,0,0,0,0,0,0	71.0	3.0	0.702	0,0,0,1,2,0,3,0,0	to_hand	s642
31.333	0.123	0	UA_without_intermediate	2,3,1,0,0,0,0,0,0	practice	ward_and_allport	2,3,1,0,0,0,0,0,0	89.0	3.0	0.123	0,0,0,1,2,0,3,0,0	to_board	s642
31.459	1.0	0	UA_without_intermediate	n/a	practice	ward_and_allport	n/a	-1.0	3.0	n/a	n/a	feedback	s642
32.459	1.0	0	UA_without_intermediate	n/a	practice	ward_and_allport	n/a	-1.0	3.0	n/a	n/a	ITI	s642
35.466	3.907	1	PA_with_intermediate	0,0,0,0,0,0,1,2,0	test	ward_and_allport	2,3,0,0,0,0,1,0,0	82.0	0.0	3.907	0,0,0,0,0,0,1,2,3	to_hand	s642
39.374	0.386	0	PA_with_intermediate	0,0,0,3,0,0,1,2,0	test	ward_and_allport	2,3,0,0,0,0,1,0,0	71.0	0.0	0.386	0,0,0,0,0,0,1,2,3	to_board	s642
39.762	0.861	0	PA_with_intermediate	0,0,0,0,0,0,1,2,0	test	ward_and_allport	2,3,0,0,0,0,1,0,0	71.0	0.0	0.861	0,0,0,0,0,0,1,2,3	to_hand	s642
40.625	0.632	0	PA_with_intermediate	0,0,0,3,0,0,1,2,0	test	ward_and_allport	2,3,0,0,0,0,1,0,0	71.0	0.0	0.632	0,0,0,0,0,0,1,2,3	to_board	s642
41.26	0.314	0	PA_with_intermediate	0,0,0,3,0,0,1,0,0	test	ward_and_allport	2,3,0,0,0,0,1,0,0	82.0	0.0	0.314	0,0,0,0,0,0,1,2,3	to_hand	s642
41.575	0.352	0	PA_with_intermediate	2,0,0,3,0,0,1,0,0	test	ward_and_allport	2,3,0,0,0,0,1,0,0	89.0	0.0	0.352	0,0,0,0,0,0,1,2,3	to_board	s642
41.93	0.878	0	PA_with_intermediate	2,0,0,0,0,0,1,0,0	test	ward_and_allport	2,3,0,0,0,0,1,0,0	71.0	0.0	0.878	0,0,0,0,0,0,1,2,3	to_hand	s642
42.809	0.196	0	PA_with_intermediate	2,3,0,0,0,0,1,0,0	test	ward_and_allport	2,3,0,0,0,0,1,0,0	89.0	0.0	0.196	0,0,0,0,0,0,1,2,3	to_board	s642
43.01	1.0	0	PA_with_intermediate	n/a	test	ward_and_allport	n/a	-1.0	0.0	n/a	n/a	feedback	s642
44.01	3.176	0	PA_with_intermediate	n/a	test	ward_and_allport	n/a	-1.0	0.0	n/a	n/a	ITI	s642
47.189	1.993	1	PA_with_intermediate	0,0,0,1,2,0,0,0,0	test	ward_and_allport	0,0,0,1,0,0,2,3,0	71.0	1.0	1.993	0,0,0,1,2,3,0,0,0	to_hand	s642
49.185	0.544	0	PA_with_intermediate	3,0,0,1,2,0,0,0,0	test	ward_and_allport	0,0,0,1,0,0,2,3,0	89.0	1.0	0.544	0,0,0,1,2,3,0,0,0	to_board	s642
49.731	0.734	0	PA_with_intermediate	3,0,0,1,0,0,0,0,0	test	ward_and_allport	0,0,0,1,0,0,2,3,0	71.0	1.0	0.734	0,0,0,1,2,3,0,0,0	to_hand	s642
50.466	0.371	0	PA_with_intermediate	3,0,0,1,0,0,2,0,0	test	ward_and_allport	0,0,0,1,0,0,2,3,0	82.0	1.0	0.371	0,0,0,1,2,3,0,0,0	to_board	s642
50.842	0.366	0	PA_with_intermediate	0,0,0,1,0,0,2,0,0	test	ward_and_allport	0,0,0,1,0,0,2,3,0	89.0	1.0	0.366	0,0,0,1,2,3,0,0,0	to_hand	s642
51.209	0.53	0	PA_with_intermediate	0,0,0,1,0,0,2,3,0	test	ward_and_allport	0,0,0,1,0,0,2,3,0	82.0	1.0	0.53	0,0,0,1,2,3,0,0,0	to_board	s642
51.742	1.0	0	PA_with_intermediate	n/a	test	ward_and_allport	n/a	-1.0	1.0	n/a	n/a	feedback	s642
52.742	2.36	0	PA_with_intermediate	n/a	test	ward_and_allport	n/a	-1.0	1.0	n/a	n/a	ITI	s642
55.104	2.159	1	PA_with_intermediate	0,0,0,0,0,0,1,2,0	test	ward_and_allport	0,0,0,2,0,0,1,3,0	82.0	2.0	2.159	0,0,0,0,0,0,1,2,3	to_hand	s642
57.265	0.263	0	PA_with_intermediate	3,0,0,0,0,0,1,2,0	test	ward_and_allport	0,0,0,2,0,0,1,3,0	89.0	2.0	0.263	0,0,0,0,0,0,1,2,3	to_board	s642
57.531	0.905	0	PA_with_intermediate	3,0,0,0,0,0,1,0,0	test	ward_and_allport	0,0,0,2,0,0,1,3,0	82.0	2.0	0.905	0,0,0,0,0,0,1,2,3	to_hand	s642
58.437	0.878	0	PA_with_intermediate	3,0,0,2,0,0,1,0,0	test	ward_and_allport	0,0,0,2,0,0,1,3,0	71.0	2.0	0.878	0,0,0,0,0,0,1,2,3	to_board	s642
59.318	1.179	0	PA_with_intermediate	0,0,0,2,0,0,1,0,0	test	ward_and_allport	0,0,0,2,0,0,1,3,0	89.0	2.0	1.179	0,0,0,0,0,0,1,2,3	to_hand	s642
60.498	0.327	0	PA_with_intermediate	0,0,0,2,0,0,1,3,0	test	ward_and_allport	0,0,0,2,0,0,1,3,0	82.0	2.0	0.327	0,0,0,0,0,0,1,2,3	to_board	s642
60.829	1.0	0	PA_with_intermediate	n/a	test	ward_and_allport	n/a	-1.0	2.0	n/a	n/a	feedback	s642
61.829	1.0	0	PA_with_intermediate	n/a	test	ward_and_allport	n/a	-1.0	2.0	n/a	n/a	ITI	s642
62.832	3.488	1	PA_without_intermediate	0,0,0,1,2,0,0,0,0	test	ward_and_allport	3,1,0,0,0,0,2,0,0	71.0	3.0	3.488	0,0,0,1,2,3,0,0,0	to_hand	s642
66.321	0.508	0	PA_without_intermediate	3,0,0,1,2,0,0,0,0	test	ward_and_allport	3,1,0,0,0,0,2,0,0	89.0	3.0	0.508	0,0,0,1,2,3,0,0,0	to_board	s642
66.833	0.465	0	PA_without_intermediate	3,0,0,1,0,0,0,0,0	test	ward_and_allport	3,1,0,0,0,0,2,0,0	71.0	3.0	0.465	0,0,0,1,2,3,0,0,0	to_hand	s642
67.299	0.367	0	PA_without_intermediate	3,0,0,1,0,0,2,0,0	test	ward_and_allport	3,1,0,0,0,0,2,0,0	82.0	3.0	0.367	0,0,0,1,2,3,0,0,0	to_board	s642
67.669	0.576	0	PA_without_intermediate	3,0,0,0,0,0,2,0,0	test	ward_and_allport	3,1,0,0,0,0,2,0,0	71.0	3.0	0.576	0,0,0,1,2,3,0,0,0	to_hand	s642
68.247	0.281	0	PA_without_intermediate	3,1,0,0,0,0,2,0,0	test	ward_and_allport	3,1,0,0,0,0,2,0,0	89.0	3.0	0.281	0,0,0,1,2,3,0,0,0	to_board	s642
68.532	1.0	0	PA_without_intermediate	n/a	test	ward_and_allport	n/a	-1.0	3.0	n/a	n/a	feedback	s642
69.532	1.408	0	PA_without_intermediate	n/a	test	ward_and_allport	n/a	-1.0	3.0	n/a	n/a	ITI	s642
70.944	2.917	1	PA_with_intermediate	0,0,0,1,2,0,0,0,0	test	ward_and_allport	2,0,0,1,3,0,0,0,0	71.0	4.0	2.917	0,0,0,1,2,3,0,0,0	to_hand	s642
73.862	0.977	0	PA_with_intermediate	0,0,0,1,2,0,3,0,0	test	ward_and_allport	2,0,0,1,3,0,0,0,0	82.0	4.0	0.977	0,0,0,1,2,3,0,0,0	to_board	s642
74.843	0.418	0	PA_with_intermediate	0,0,0,1,0,0,3,0,0	test	ward_and_allport	2,0,0,1,3,0,0,0,0	71.0	4.0	0.418	0,0,0,1,2,3,0,0,0	to_hand	s642
75.262	0.244	0	PA_with_intermediate	2,0,0,1,0,0,3,0,0	test	ward_and_allport	2,0,0,1,3,0,0,0,0	89.0	4.0	0.244	0,0,0,1,2,3,0,0,0	to_board	s642
75.509	0.771	0	PA_with_intermediate	2,0,0,0,0,0,3,0,0	test	ward_and_allport	2,0,0,1,3,0,0,0,0	71.0	4.0	0.771	0,0,0,1,2,3,0,0,0	to_hand	s642
76.282	0.522	0	PA_with_intermediate	2,0,0,1,0,0,3,0,0	test	ward_and_allport	2,0,0,1,3,0,0,0,0	71.0	4.0	0.522	0,0,0,1,2,3,0,0,0	to_board	s642
76.808	0.285	0	PA_with_intermediate	2,0,0,1,0,0,0,0,0	test	ward_and_allport	2,0,0,1,3,0,0,0,0	82.0	4.0	0.285	0,0,0,1,2,3,0,0,0	to_hand	s642
77.095	0.191	0	PA_with_intermediate	2,0,0,1,3,0,0,0,0	test	ward_and_allport	2,0,0,1,3,0,0,0,0	71.0	4.0	0.191	0,0,0,1,2,3,0,0,0	to_board	s642
77.291	1.0	0	PA_with_intermediate	n/a	test	ward_and_allport	n/a	-1.0	4.0	n/a	n/a	feedback	s642
78.291	1.816	0	PA_with_intermediate	n/a	test	ward_and_allport	n/a	-1.0	4.0	n/a	n/a	ITI	s642
80.112	2.869	1	PA_without_intermediate	0,0,0,1,2,0,0,0,0	test	ward_and_allport	3,2,0,0,0,0,1,0,0	71.0	5.0	2.869	0,0,0,1,2,3,0,0,0	to_hand	s642
82.982	0.147	0	PA_without_intermediate	3,0,0,1,2,0,0,0,0	test	ward_and_allport	3,2,0,0,0,0,1,0,0	89.0	5.0	0.147	0,0,0,1,2,3,0,0,0	to_board	s642
83.133	2.473	0	PA_without_intermediate	3,0,0,1,0,0,0,0,0	test	ward_and_allport	3,2,0,0,0,0,1,0,0	71.0	5.0	2.473	0,0,0,1,2,3,0,0,0	to_hand	s642
85.608	0.139	0	PA_without_intermediate	3,2,0,1,0,0,0,0,0	test	ward_and_allport	3,2,0,0,0,0,1,0,0	89.0	5.0	0.139	0,0,0,1,2,3,0,0,0	to_board	s642
85.75	0.524	0	PA_without_intermediate	3,2,0,0,0,0,0,0,0	test	ward_and_allport	3,2,0,0,0,0,1,0,0	71.0	5.0	0.524	0,0,0,1,2,3,0,0,0	to_hand	s642
86.274	0.247	0	PA_without_intermediate	3,2,0,0,0,0,1,0,0	test	ward_and_allport	3,2,0,0,0,0,1,0,0	82.0	5.0	0.247	0,0,0,1,2,3,0,0,0	to_board	s642
86.527	1.0	0	PA_without_intermediate	n/a	test	ward_and_allport	n/a	-1.0	5.0	n/a	n/a	feedback	s642
87.527	2.088	0	PA_without_intermediate	n/a	test	ward_and_allport	n/a	-1.0	5.0	n/a	n/a	ITI	s642
89.619	3.499	1	PA_without_intermediate	1,2,0,0,0,0,0,0,0	test	ward_and_allport	0,0,0,3,2,0,1,0,0	89.0	6.0	3.499	1,2,3,0,0,0,0,0,0	to_hand	s642
93.118	0.714	0	PA_without_intermediate	1,2,0,3,0,0,0,0,0	test	ward_and_allport	0,0,0,3,2,0,1,0,0	71.0	6.0	0.714	1,2,3,0,0,0,0,0,0	to_board	s642
93.836	0.515	0	PA_without_intermediate	1,0,0,3,0,0,0,0,0	test	ward_and_allport	0,0,0,3,2,0,1,0,0	89.0	6.0	0.515	1,2,3,0,0,0,0,0,0	to_hand	s642
94.352	0.253	0	PA_without_intermediate	1,0,0,3,2,0,0,0,0	test	ward_and_allport	0,0,0,3,2,0,1,0,0	71.0	6.0	0.253	1,2,3,0,0,0,0,0,0	to_board	s642
94.607	0.631	0	PA_without_intermediate	0,0,0,3,2,0,0,0,0	test	ward_and_allport	0,0,0,3,2,0,1,0,0	89.0	6.0	0.631	1,2,3,0,0,0,0,0,0	to_hand	s642
95.24	0.282	0	PA_without_intermediate	0,0,0,3,2,0,1,0,0	test	ward_and_allport	0,0,0,3,2,0,1,0,0	82.0	6.0	0.282	1,2,3,0,0,0,0,0,0	to_board	s642
95.527	1.0	0	PA_without_intermediate	n/a	test	ward_and_allport	n/a	-1.0	6.0	n/a	n/a	feedback	s642
96.527	1.136	0	PA_without_intermediate	n/a	test	ward_and_allport	n/a	-1.0	6.0	n/a	n/a	ITI	s642
97.667	3.376	1	PA_without_intermediate	0,0,0,0,0,0,1,2,0	test	ward_and_allport	1,0,0,3,2,0,0,0,0	82.0	7.0	3.376	0,0,0,0,0,0,1,2,3	to_hand	s642
101.045	0.141	0	PA_without_intermediate	0,0,0,3,0,0,1,2,0	test	ward_and_allport	1,0,0,3,2,0,0,0,0	71.0	7.0	0.141	0,0,0,0,0,0,1,2,3	to_board	s642
101.189	0.555	0	PA_without_intermediate	0,0,0,3,0,0,1,0,0	test	ward_and_allport	1,0,0,3,2,0,0,0,0	82.0	7.0	0.555	0,0,0,0,0,0,1,2,3	to_hand	s642
101.746	0.169	0	PA_without_intermediate	0,0,0,3,2,0,1,0,0	test	ward_and_allport	1,0,0,3,2,0,0,0,0	71.0	7.0	0.169	0,0,0,0,0,0,1,2,3	to_board	s642
101.919	0.941	0	PA_without_intermediate	0,0,0,3,2,0,0,0,0	test	ward_and_allport	1,0,0,3,2,0,0,0,0	82.0	7.0	0.941	0,0,0,0,0,0,1,2,3	to_hand	s642
102.861	0.121	0	PA_without_intermediate	1,0,0,3,2,0,0,0,0	test	ward_and_allport	1,0,0,3,2,0,0,0,0	89.0	7.0	0.121	0,0,0,0,0,0,1,2,3	to_board	s642
102.987	1.0	0	PA_without_intermediate	n/a	test	ward_and_allport	n/a	-1.0	7.0	n/a	n/a	feedback	s642
103.987	6.168	0	PA_without_intermediate	n/a	test	ward_and_allport	n/a	-1.0	7.0	n/a	n/a	ITI	s642
110.161	2.405	1	PA_without_intermediate	1,2,0,0,0,0,0,0,0	test	ward_and_allport	0,0,0,3,1,0,2,0,0	89.0	8.0	2.405	1,2,3,0,0,0,0,0,0	to_hand	s642
112.567	0.195	0	PA_without_intermediate	1,2,0,3,0,0,0,0,0	test	ward_and_allport	0,0,0,3,1,0,2,0,0	71.0	8.0	0.195	1,2,3,0,0,0,0,0,0	to_board	s642
112.766	1.66	0	PA_without_intermediate	1,0,0,3,0,0,0,0,0	test	ward_and_allport	0,0,0,3,1,0,2,0,0	89.0	8.0	1.66	1,2,3,0,0,0,0,0,0	to_hand	s642
114.426	0.179	0	PA_without_intermediate	1,0,0,3,0,0,2,0,0	test	ward_and_allport	0,0,0,3,1,0,2,0,0	82.0	8.0	0.179	1,2,3,0,0,0,0,0,0	to_board	s642
114.609	1.172	0	PA_without_intermediate	0,0,0,3,0,0,2,0,0	test	ward_and_allport	0,0,0,3,1,0,2,0,0	89.0	8.0	1.172	1,2,3,0,0,0,0,0,0	to_hand	s642
115.781	0.138	0	PA_without_intermediate	0,0,0,3,1,0,2,0,0	test	ward_and_allport	0,0,0,3,1,0,2,0,0	71.0	8.0	0.138	1,2,3,0,0,0,0,0,0	to_board	s642
115.925	1.0	0	PA_without_intermediate	n/a	test	ward_and_allport	n/a	-1.0	8.0	n/a	n/a	feedback	s642
116.925	1.816	0	PA_without_intermediate	n/a	test	ward_and_allport	n/a	-1.0	8.0	n/a	n/a	ITI	s642
118.746	3.954	1	PA_with_intermediate	1,2,0,0,0,0,0,0,0	test	ward_and_allport	1,3,0,0,0,0,2,0,0	89.0	9.0	3.954	1,2,3,0,0,0,0,0,0	to_hand	s642
122.701	0.12	0	PA_with_intermediate	1,2,0,3,0,0,0,0,0	test	ward_and_allport	1,3,0,0,0,0,2,0,0	71.0	9.0	0.12	1,2,3,0,0,0,0,0,0	to_board	s642
122.824	1.158	0	PA_with_intermediate	1,0,0,3,0,0,0,0,0	test	ward_and_allport	1,3,0,0,0,0,2,0,0	89.0	9.0	1.158	1,2,3,0,0,0,0,0,0	to_hand	s642
123.984	0.302	0	PA_with_intermediate	1,0,0,3,0,0,2,0,0	test	ward_and_allport	1,3,0,0,0,0,2,0,0	82.0	9.0	0.302	1,2,3,0,0,0,0,0,0	to_board	s642
124.29	0.481	0	PA_with_intermediate	1,0,0,0,0,0,2,0,0	test	ward_and_allport	1,3,0,0,0,0,2,0,0	71.0	9.0	0.481	1,2,3,0,0,0,0,0,0	to_hand	s642
124.772	0.153	0	PA_with_intermediate	1,3,0,0,0,0,2,0,0	test	ward_and_allport	1,3,0,0,0,0,2,0,0	89.0	9.0	0.153	1,2,3,0,0,0,0,0,0	to_board	s642
124.93	1.0	0	PA_with_intermediate	n/a	test	ward_and_allport	n/a	-1.0	9.0	n/a	n/a	feedback	s642
125.93	1.952	0	PA_with_intermediate	n/a	test	ward_and_allport	n/a	-1.0	9.0	n/a	n/a	ITI	s642
127.888	2.458	1	PA_with_intermediate	0,0,0,1,2,0,0,0,0	test	ward_and_allport	0,0,0,1,3,0,2,0,0	71.0	10.0	2.458	0,0,0,1,2,3,0,0,0	to_hand	s642
130.348	0.118	0	PA_with_intermediate	3,0,0,1,2,0,0,0,0	test	ward_and_allport	0,0,0,1,3,0,2,0,0	89.0	10.0	0.118	0,0,0,1,2,3,0,0,0	to_board	s642
130.47	0.724	0	PA_with_intermediate	3,0,0,1,0,0,0,0,0	test	ward_and_allport	0,0,0,1,3,0,2,0,0	71.0	10.0	0.724	0,0,0,1,2,3,0,0,0	to_hand	s642
131.196	0.153	0	PA_with_intermediate	3,0,0,1,0,0,2,0,0	test	ward_and_allport	0,0,0,1,3,0,2,0,0	82.0	10.0	0.153	0,0,0,1,2,3,0,0,0	to_board	s642
131.354	0.634	0	PA_with_intermediate	0,0,0,1,0,0,2,0,0	test	ward_and_allport	0,0,0,1,3,0,2,0,0	89.0	10.0	0.634	0,0,0,1,2,3,0,0,0	to_hand	s642
131.99	0.145	0	PA_with_intermediate	0,0,0,1,3,0,2,0,0	test	ward_and_allport	0,0,0,1,3,0,2,0,0	71.0	10.0	0.145	0,0,0,1,2,3,0,0,0	to_board	s642
132.141	1.0	0	PA_with_intermediate	n/a	test	ward_and_allport	n/a	-1.0	10.0	n/a	n/a	feedback	s642
133.141	1.136	0	PA_with_intermediate	n/a	test	ward_and_allport	n/a	-1.0	10.0	n/a	n/a	ITI	s642
134.283	1.866	1	PA_without_intermediate	0,0,0,0,0,0,1,2,0	test	ward_and_allport	1,0,0,3,2,0,0,0,0	82.0	11.0	1.866	0,0,0,0,0,0,1,2,3	to_hand	s642
136.151	0.2	0	PA_without_intermediate	0,0,0,3,0,0,1,2,0	test	ward_and_allport	1,0,0,3,2,0,0,0,0	71.0	11.0	0.2	0,0,0,0,0,0,1,2,3	to_board	s642
136.356	0.802	0	PA_without_intermediate	0,0,0,3,0,0,1,0,0	test	ward_and_allport	1,0,0,3,2,0,0,0,0	82.0	11.0	0.802	0,0,0,0,0,0,1,2,3	to_hand	s642
137.159	0.002	0	PA_without_intermediate	0,0,0,3,2,0,1,0,0	test	ward_and_allport	1,0,0,3,2,0,0,0,0	71.0	11.0	0.002	0,0,0,0,0,0,1,2,3	to_board	s642
137.166	1.482	0	PA_without_intermediate	0,0,0,3,0,0,1,0,0	test	ward_and_allport	1,0,0,3,2,0,0,0,0	71.0	11.0	1.482	0,0,0,0,0,0,1,2,3	to_hand	s642
138.65	0.112	0	PA_without_intermediate	2,0,0,3,0,0,1,0,0	test	ward_and_allport	1,0,0,3,2,0,0,0,0	89.0	11.0	0.112	0,0,0,0,0,0,1,2,3	to_board	s642
138.767	0.802	0	PA_without_intermediate	0,0,0,3,0,0,1,0,0	test	ward_and_allport	1,0,0,3,2,0,0,0,0	89.0	11.0	0.802	0,0,0,0,0,0,1,2,3	to_hand	s642
139.57	0.072	0	PA_without_intermediate	0,0,0,3,2,0,1,0,0	test	ward_and_allport	1,0,0,3,2,0,0,0,0	71.0	11.0	0.072	0,0,0,0,0,0,1,2,3	to_board	s642
139.647	0.662	0	PA_without_intermediate	0,0,0,3,2,0,0,0,0	test	ward_and_allport	1,0,0,3,2,0,0,0,0	82.0	11.0	0.662	0,0,0,0,0,0,1,2,3	to_hand	s642
140.311	0.154	0	PA_without_intermediate	1,0,0,3,2,0,0,0,0	test	ward_and_allport	1,0,0,3,2,0,0,0,0	89.0	11.0	0.154	0,0,0,0,0,0,1,2,3	to_board	s642
140.472	1.0	0	PA_without_intermediate	n/a	test	ward_and_allport	n/a	-1.0	11.0	n/a	n/a	feedback	s642
141.472	1.68	0	PA_without_intermediate	n/a	test	ward_and_allport	n/a	-1.0	11.0	n/a	n/a	ITI	s642
143.157	2.267	1	PA_without_intermediate	0,0,0,0,0,0,1,2,0	test	ward_and_allport	3,1,0,2,0,0,0,0,0	82.0	12.0	2.267	0,0,0,0,0,0,1,2,3	to_hand	s642
145.425	0.373	0	PA_without_intermediate	3,0,0,0,0,0,1,2,0	test	ward_and_allport	3,1,0,2,0,0,0,0,0	89.0	12.0	0.373	0,0,0,0,0,0,1,2,3	to_board	s642
145.803	1.689	0	PA_without_intermediate	3,0,0,0,0,0,1,0,0	test	ward_and_allport	3,1,0,2,0,0,0,0,0	82.0	12.0	1.689	0,0,0,0,0,0,1,2,3	to_hand	s642
147.494	0.087	0	PA_without_intermediate	3,0,0,2,0,0,1,0,0	test	ward_and_allport	3,1,0,2,0,0,0,0,0	71.0	12.0	0.087	0,0,0,0,0,0,1,2,3	to_board	s642
147.586	1.136	0	PA_without_intermediate	0,0,0,2,0,0,1,0,0	test	ward_and_allport	3,1,0,2,0,0,0,0,0	89.0	12.0	1.136	0,0,0,0,0,0,1,2,3	to_hand	s642
148.723	0.17	0	PA_without_intermediate	0,0,0,2,0,0,1,3,0	test	ward_and_allport	3,1,0,2,0,0,0,0,0	82.0	12.0	0.17	0,0,0,0,0,0,1,2,3	to_board	s642
148.896	0.84	0	PA_without_intermediate	0,0,0,2,0,0,1,0,0	test	ward_and_allport	3,1,0,2,0,0,0,0,0	82.0	12.0	0.84	0,0,0,0,0,0,1,2,3	to_hand	s642
149.737	0.697	0	PA_without_intermediate	3,0,0,2,0,0,1,0,0	test	ward_and_allport	3,1,0,2,0,0,0,0,0	89.0	12.0	0.697	0,0,0,0,0,0,1,2,3	to_board	s642
150.439	0.509	0	PA_without_intermediate	3,0,0,2,0,0,0,0,0	test	ward_and_allport	3,1,0,2,0,0,0,0,0	82.0	12.0	0.509	0,0,0,0,0,0,1,2,3	to_hand	s642
150.95	0.131	0	PA_without_intermediate	3,1,0,2,0,0,0,0,0	test	ward_and_allport	3,1,0,2,0,0,0,0,0	89.0	12.0	0.131	0,0,0,0,0,0,1,2,3	to_board	s642
151.087	1.0	0	PA_without_intermediate	n/a	test	ward_and_allport	n/a	-1.0	12.0	n/a	n/a	feedback	s642
152.087	2.088	0	PA_without_intermediate	n/a	test	ward_and_allport	n/a	-1.0	12.0	n/a	n/a	ITI	s642
154.18	2.08	1	PA_with_intermediate	0,0,0,0,0,0,1,2,0	test	ward_and_allport	0,0,0,2,3,0,1,0,0	82.0	13.0	2.08	0,0,0,0,0,0,1,2,3	to_hand	s642
156.261	0.131	0	PA_with_intermediate	3,0,0,0,0,0,1,2,0	test	ward_and_allport	0,0,0,2,3,0,1,0,0	89.0	13.0	0.131	0,0,0,0,0,0,1,2,3	to_board	s642
156.397	1.227	0	PA_with_intermediate	3,0,0,0,0,0,1,0,0	test	ward_and_allport	0,0,0,2,3,0,1,0,0	82.0	13.0	1.227	0,0,0,0,0,0,1,2,3	to_hand	s642
157.626	0.192	0	PA_with_intermediate	3,0,0,2,0,0,1,0,0	test	ward_and_allport	0,0,0,2,3,0,1,0,0	71.0	13.0	0.192	0,0,0,0,0,0,1,2,3	to_board	s642
157.823	0.91	0	PA_with_intermediate	0,0,0,2,0,0,1,0,0	test	ward_and_allport	0,0,0,2,3,0,1,0,0	89.0	13.0	0.91	0,0,0,0,0,0,1,2,3	to_hand	s642
158.734	0.11	0	PA_with_intermediate	0,0,0,2,3,0,1,0,0	test	ward_and_allport	0,0,0,2,3,0,1,0,0	71.0	13.0	0.11	0,0,0,0,0,0,1,2,3	to_board	s642
158.852	1.0	0	PA_with_intermediate	n/a	test	ward_and_allport	n/a	-1.0	13.0	n/a	n/a	feedback	s642
159.852	1.0	0	PA_with_intermediate	n/a	test	ward_and_allport	n/a	-1.0	13.0	n/a	n/a	ITI	s642
160.858	2.04	1	PA_without_intermediate	0,0,0,0,0,0,1,2,0	test	ward_and_allport	2,0,0,3,1,0,0,0,0	82.0	14.0	2.04	0,0,0,0,0,0,1,2,3	to_hand	s642
162.899	0.152	0	PA_without_intermediate	0,0,0,3,0,0,1,2,0	test	ward_and_allport	2,0,0,3,1,0,0,0,0	71.0	14.0	0.152	0,0,0,0,0,0,1,2,3	to_board	s642
163.056	1.784	0	PA_without_intermediate	0,0,0,3,0,0,1,0,0	test	ward_and_allport	2,0,0,3,1,0,0,0,0	82.0	14.0	1.784	0,0,0,0,0,0,1,2,3	to_hand	s642
164.842	0.126	0	PA_without_intermediate	2,0,0,3,0,0,1,0,0	test	ward_and_allport	2,0,0,3,1,0,0,0,0	89.0	14.0	0.126	0,0,0,0,0,0,1,2,3	to_board	s642
164.973	1.163	0	PA_without_intermediate	2,0,0,3,0,0,0,0,0	test	ward_and_allport	2,0,0,3,1,0,0,0,0	82.0	14.0	1.163	0,0,0,0,0,0,1,2,3	to_hand	s642
166.138	0.149	0	PA_without_intermediate	2,0,0,3,1,0,0,0,0	test	ward_and_allport	2,0,0,3,1,0,0,0,0	71.0	14.0	0.149	0,0,0,0,0,0,1,2,3	to_board	s642
166.294	1.0	0	PA_without_intermediate	n/a	test	ward_and_allport	n/a	-1.0	14.0	n/a	n/a	feedback	s642
167.294	1.0	0	PA_without_intermediate	n/a	test	ward_and_allport	n/a	-1.0	14.0	n/a	n/a	ITI	s642
173.301	8.001	1	PA_without_intermediate	0,0,0,1,2,0,0,0,0	test	ward_and_allport	2,0,0,0,0,0,3,1,0	71.0	15.0	8.001	0,0,0,1,2,3,0,0,0	to_hand	s642
181.303	0.168	0	PA_without_intermediate	0,0,0,1,2,0,3,0,0	test	ward_and_allport	2,0,0,0,0,0,3,1,0	82.0	15.0	0.168	0,0,0,1,2,3,0,0,0	to_board	s642
181.475	0.591	0	PA_without_intermediate	0,0,0,1,0,0,3,0,0	test	ward_and_allport	2,0,0,0,0,0,3,1,0	71.0	15.0	0.591	0,0,0,1,2,3,0,0,0	to_hand	s642
182.068	0.154	0	PA_without_intermediate	2,0,0,1,0,0,3,0,0	test	ward_and_allport	2,0,0,0,0,0,3,1,0	89.0	15.0	0.154	0,0,0,1,2,3,0,0,0	to_board	s642
182.225	0.457	0	PA_without_intermediate	2,0,0,0,0,0,3,0,0	test	ward_and_allport	2,0,0,0,0,0,3,1,0	71.0	15.0	0.457	0,0,0,1,2,3,0,0,0	to_hand	s642
182.684	0.161	0	PA_without_intermediate	2,0,0,0,0,0,3,1,0	test	ward_and_allport	2,0,0,0,0,0,3,1,0	82.0	15.0	0.161	0,0,0,1,2,3,0,0,0	to_board	s642
182.851	1.0	0	PA_without_intermediate	n/a	test	ward_and_allport	n/a	-1.0	15.0	n/a	n/a	feedback	s642
183.851	1.0	0	PA_without_intermediate	n/a	test	ward_and_allport	n/a	-1.0	15.0	n/a	n/a	ITI	s642
184.857	5.987	1	PA_with_intermediate	0,0,0,1,2,0,0,0,0	test	ward_and_allport	2,0,0,1,3,0,0,0,0	71.0	16.0	5.987	0,0,0,1,2,3,0,0,0	to_hand	s642
190.845	0.141	0	PA_with_intermediate	0,0,0,1,2,0,3,0,0	test	ward_and_allport	2,0,0,1,3,0,0,0,0	82.0	16.0	0.141	0,0,0,1,2,3,0,0,0	to_board	s642
190.991	0.416	0	PA_with_intermediate	0,0,0,1,0,0,3,0,0	test	ward_and_allport	2,0,0,1,3,0,0,0,0	71.0	16.0	0.416	0,0,0,1,2,3,0,0,0	to_hand	s642
191.409	0.207	0	PA_with_intermediate	2,0,0,1,0,0,3,0,0	test	ward_and_allport	2,0,0,1,3,0,0,0,0	89.0	16.0	0.207	0,0,0,1,2,3,0,0,0	to_board	s642
191.621	0.557	0	PA_with_intermediate	2,0,0,1,0,0,0,0,0	test	ward_and_allport	2,0,0,1,3,0,0,0,0	82.0	16.0	0.557	0,0,0,1,2,3,0,0,0	to_hand	s642
192.179	0.151	0	PA_with_intermediate	2,0,0,1,3,0,0,0,0	test	ward_and_allport	2,0,0,1,3,0,0,0,0	71.0	16.0	0.151	0,0,0,1,2,3,0,0,0	to_board	s642
192.337	1.0	0	PA_with_intermediate	n/a	test	ward_and_allport	n/a	-1.0	16.0	n/a	n/a	feedback	s642
193.337	1.544	0	PA_with_intermediate	n/a	test	ward_and_allport	n/a	-1.0	16.0	n/a	n/a	ITI	s642
194.887	5.432	1	PA_without_intermediate	0,0,0,1,2,0,0,0,0	test	ward_and_allport	3,1,0,0,0,0,2,0,0	71.0	17.0	5.432	0,0,0,1,2,3,0,0,0	to_hand	s642
200.321	0.108	0	PA_without_intermediate	3,0,0,1,2,0,0,0,0	test	ward_and_allport	3,1,0,0,0,0,2,0,0	89.0	17.0	0.108	0,0,0,1,2,3,0,0,0	to_board	s642
200.435	0.413	0	PA_without_intermediate	3,0,0,1,0,0,0,0,0	test	ward_and_allport	3,1,0,0,0,0,2,0,0	71.0	17.0	0.413	0,0,0,1,2,3,0,0,0	to_hand	s642
200.851	0.149	0	PA_without_intermediate	3,0,0,1,0,0,2,0,0	test	ward_and_allport	3,1,0,0,0,0,2,0,0	82.0	17.0	0.149	0,0,0,1,2,3,0,0,0	to_board	s642
201.006	0.331	0	PA_without_intermediate	3,0,0,0,0,0,2,0,0	test	ward_and_allport	3,1,0,0,0,0,2,0,0	71.0	17.0	0.331	0,0,0,1,2,3,0,0,0	to_hand	s642
201.34	0.133	0	PA_without_intermediate	3,1,0,0,0,0,2,0,0	test	ward_and_allport	3,1,0,0,0,0,2,0,0	89.0	17.0	0.133	0,0,0,1,2,3,0,0,0	to_board	s642
201.479	1.0	0	PA_without_intermediate	n/a	test	ward_and_allport	n/a	-1.0	17.0	n/a	n/a	feedback	s642
202.479	1.272	0	PA_without_intermediate	n/a	test	ward_and_allport	n/a	-1.0	17.0	n/a	n/a	ITI	s642
203.756	8.874	1	PA_with_intermediate	1,2,0,0,0,0,0,0,0	test	ward_and_allport	1,3,0,2,0,0,0,0,0	89.0	18.0	8.874	1,2,3,0,0,0,0,0,0	to_hand	s642
212.632	0.123	0	PA_with_intermediate	1,2,0,0,0,0,3,0,0	test	ward_and_allport	1,3,0,2,0,0,0,0,0	82.0	18.0	0.123	1,2,3,0,0,0,0,0,0	to_board	s642
212.76	0.684	0	PA_with_intermediate	1,0,0,0,0,0,3,0,0	test	ward_and_allport	1,3,0,2,0,0,0,0,0	89.0	18.0	0.684	1,2,3,0,0,0,0,0,0	to_hand	s642
213.445	0.107	0	PA_with_intermediate	1,0,0,2,0,0,3,0,0	test	ward_and_allport	1,3,0,2,0,0,0,0,0	71.0	18.0	0.107	1,2,3,0,0,0,0,0,0	to_board	s642
213.556	0.424	0	PA_with_intermediate	1,0,0,0,0,0,3,0,0	test	ward_and_allport	1,3,0,2,0,0,0,0,0	71.0	18.0	0.424	1,2,3,0,0,0,0,0,0	to_hand	s642
213.981	0.122	0	PA_with_intermediate	1,2,0,0,0,0,3,0,0	test	ward_and_allport	1,3,0,2,0,0,0,0,0	89.0	18.0	0.122	1,2,3,0,0,0,0,0,0	to_board	s642
214.109	0.663	0	PA_with_intermediate	1,0,0,0,0,0,3,0,0	test	ward_and_allport	1,3,0,2,0,0,0,0,0	89.0	18.0	0.663	1,2,3,0,0,0,0,0,0	to_hand	s642
214.773	0.081	0	PA_with_intermediate	1,0,0,2,0,0,3,0,0	test	ward_and_allport	1,3,0,2,0,0,0,0,0	71.0	18.0	0.081	1,2,3,0,0,0,0,0,0	to_board	s642
214.86	0.468	0	PA_with_intermediate	1,0,0,2,0,0,0,0,0	test	ward_and_allport	1,3,0,2,0,0,0,0,0	82.0	18.0	0.468	1,2,3,0,0,0,0,0,0	to_hand	s642
215.329	0.127	0	PA_with_intermediate	1,3,0,2,0,0,0,0,0	test	ward_and_allport	1,3,0,2,0,0,0,0,0	89.0	18.0	0.127	1,2,3,0,0,0,0,0,0	to_board	s642
215.464	1.0	0	PA_with_intermediate	n/a	test	ward_and_allport	n/a	-1.0	18.0	n/a	n/a	feedback	s642
216.464	3.04	0	PA_with_intermediate	n/a	test	ward_and_allport	n/a	-1.0	18.0	n/a	n/a	ITI	s642
219.511	6.032	1	PA_with_intermediate	0,0,0,1,2,0,0,0,0	test	ward_and_allport	0,0,0,1,3,0,2,0,0	71.0	19.0	6.032	0,0,0,1,2,3,0,0,0	to_hand	s642
225.545	0.1	0	PA_with_intermediate	3,0,0,1,2,0,0,0,0	test	ward_and_allport	0,0,0,1,3,0,2,0,0	89.0	19.0	0.1	0,0,0,1,2,3,0,0,0	to_board	s642
225.651	0.385	0	PA_with_intermediate	3,0,0,1,0,0,0,0,0	test	ward_and_allport	0,0,0,1,3,0,2,0,0	71.0	19.0	0.385	0,0,0,1,2,3,0,0,0	to_hand	s642
226.038	0.148	0	PA_with_intermediate	3,0,0,1,0,0,2,0,0	test	ward_and_allport	0,0,0,1,3,0,2,0,0	82.0	19.0	0.148	0,0,0,1,2,3,0,0,0	to_board	s642
226.192	0.587	0	PA_with_intermediate	0,0,0,1,0,0,2,0,0	test	ward_and_allport	0,0,0,1,3,0,2,0,0	89.0	19.0	0.587	0,0,0,1,2,3,0,0,0	to_hand	s642
226.781	0.087	0	PA_with_intermediate	0,0,0,1,3,0,2,0,0	test	ward_and_allport	0,0,0,1,3,0,2,0,0	71.0	19.0	0.087	0,0,0,1,2,3,0,0,0	to_board	s642
226.876	1.0	0	PA_with_intermediate	n/a	test	ward_and_allport	n/a	-1.0	19.0	n/a	n/a	feedback	s642
227.876	1.272	0	PA_with_intermediate	n/a	test	ward_and_allport	n/a	-1.0	19.0	n/a	n/a	ITI	s642
229.156	5.615	1	PA_with_intermediate	1,2,0,0,0,0,0,0,0	test	ward_and_allport	1,3,0,2,0,0,0,0,0	89.0	20.0	5.615	1,2,3,0,0,0,0,0,0	to_hand	s642
234.773	0.137	0	PA_with_intermediate	1,2,0,0,0,0,3,0,0	test	ward_and_allport	1,3,0,2,0,0,0,0,0	82.0	20.0	0.137	1,2,3,0,0,0,0,0,0	to_board	s642
234.917	0.427	0	PA_with_intermediate	1,0,0,0,0,0,3,0,0	test	ward_and_allport	1,3,0,2,0,0,0,0,0	89.0	20.0	0.427	1,2,3,0,0,0,0,0,0	to_hand	s642
235.346	0.097	0	PA_with_intermediate	1,0,0,2,0,0,3,0,0	test	ward_and_allport	1,3,0,2,0,0,0,0,0	71.0	20.0	0.097	1,2,3,0,0,0,0,0,0	to_board	s642
235.451	0.484	0	PA_with_intermediate	1,0,0,2,0,0,0,0,0	test	ward_and_allport	1,3,0,2,0,0,0,0,0	82.0	20.0	0.484	1,2,3,0,0,0,0,0,0	to_hand	s642
235.936	0.146	0	PA_with_intermediate	1,3,0,2,0,0,0,0,0	test	ward_and_allport	1,3,0,2,0,0,0,0,0	89.0	20.0	0.146	1,2,3,0,0,0,0,0,0	to_board	s642
236.09	1.0	0	PA_with_intermediate	n/a	test	ward_and_allport	n/a	-1.0	20.0	n/a	n/a	feedback	s642
237.09	1.136	0	PA_with_intermediate	n/a	test	ward_and_allport	n/a	-1.0	20.0	n/a	n/a	ITI	s642
238.233	4.998	1	PA_with_intermediate	0,0,0,0,0,0,1,2,0	test	ward_and_allport	2,3,0,0,0,0,1,0,0	82.0	21.0	4.998	0,0,0,0,0,0,1,2,3	to_hand	s642
243.233	0.124	0	PA_with_intermediate	0,0,0,3,0,0,1,2,0	test	ward_and_allport	2,3,0,0,0,0,1,0,0	71.0	21.0	0.124	0,0,0,0,0,0,1,2,3	to_board	s642
243.362	0.52	0	PA_with_intermediate	0,0,0,3,0,0,1,0,0	test	ward_and_allport	2,3,0,0,0,0,1,0,0	82.0	21.0	0.52	0,0,0,0,0,0,1,2,3	to_hand	s642
243.884	0.156	0	PA_with_intermediate	2,0,0,3,0,0,1,0,0	test	ward_and_allport	2,3,0,0,0,0,1,0,0	89.0	21.0	0.156	0,0,0,0,0,0,1,2,3	to_board	s642
244.046	0.552	0	PA_with_intermediate	2,0,0,0,0,0,1,0,0	test	ward_and_allport	2,3,0,0,0,0,1,0,0	71.0	21.0	0.552	0,0,0,0,0,0,1,2,3	to_hand	s642
244.598	0.115	0	PA_with_intermediate	2,3,0,0,0,0,1,0,0	test	ward_and_allport	2,3,0,0,0,0,1,0,0	89.0	21.0	0.115	0,0,0,0,0,0,1,2,3	to_board	s642
244.72	1.0	0	PA_with_intermediate	n/a	test	ward_and_allport	n/a	-1.0	21.0	n/a	n/a	feedback	s642
245.72	1.0	0	PA_with_intermediate	n/a	test	ward_and_allport	n/a	-1.0	21.0	n/a	n/a	ITI	s642
246.727	6.222	1	PA_with_intermediate	0,0,0,0,0,0,1,2,0	test	ward_and_allport	2,0,0,0,0,0,1,3,0	82.0	22.0	6.222	0,0,0,0,0,0,1,2,3	to_hand	s642
252.951	0.099	0	PA_with_intermediate	0,0,0,3,0,0,1,2,0	test	ward_and_allport	2,0,0,0,0,0,1,3,0	71.0	22.0	0.099	0,0,0,0,0,0,1,2,3	to_board	s642
253.057	0.425	0	PA_with_intermediate	0,0,0,3,0,0,1,0,0	test	ward_and_allport	2,0,0,0,0,0,1,3,0	82.0	22.0	0.425	0,0,0,0,0,0,1,2,3	to_hand	s642
253.483	0.062	0	PA_with_intermediate	0,0,0,3,2,0,1,0,0	test	ward_and_allport	2,0,0,0,0,0,1,3,0	71.0	22.0	0.062	0,0,0,0,0,0,1,2,3	to_board	s642
253.552	0.839	0	PA_with_intermediate	0,0,0,3,0,0,1,0,0	test	ward_and_allport	2,0,0,0,0,0,1,3,0	71.0	22.0	0.839	0,0,0,0,0,0,1,2,3	to_hand	s642
254.392	0.115	0	PA_with_intermediate	2,0,0,3,0,0,1,0,0	test	ward_and_allport	2,0,0,0,0,0,1,3,0	89.0	22.0	0.115	0,0,0,0,0,0,1,2,3	to_board	s642
254.514	1.393	0	PA_with_intermediate	2,0,0,0,0,0,1,0,0	test	ward_and_allport	2,0,0,0,0,0,1,3,0	71.0	22.0	1.393	0,0,0,0,0,0,1,2,3	to_hand	s642
255.908	0.144	0	PA_with_intermediate	2,0,0,0,0,0,1,3,0	test	ward_and_allport	2,0,0,0,0,0,1,3,0	82.0	22.0	0.144	0,0,0,0,0,0,1,2,3	to_board	s642
256.06	1.0	0	PA_with_intermediate	n/a	test	ward_and_allport	n/a	-1.0	22.0	n/a	n/a	feedback	s642
257.06	1.0	0	PA_with_intermediate	n/a	test	ward_and_allport	n/a	-1.0	22.0	n/a	n/a	ITI	s642
258.068	2.532	1	PA_without_intermediate	0,0,0,1,2,0,0,0,0	test	ward_and_allport	1,0,0,0,0,0,3,2,0	71.0	23.0	2.532	0,0,0,1,2,3,0,0,0	to_hand	s642
260.602	0.114	0	PA_without_intermediate	0,0,0,1,2,0,3,0,0	test	ward_and_allport	1,0,0,0,0,0,3,2,0	82.0	23.0	0.114	0,0,0,1,2,3,0,0,0	to_board	s642
260.723	0.339	0	PA_without_intermediate	0,0,0,1,0,0,3,0,0	test	ward_and_allport	1,0,0,0,0,0,3,2,0	71.0	23.0	0.339	0,0,0,1,2,3,0,0,0	to_hand	s642
261.064	0.099	0	PA_without_intermediate	0,0,0,1,0,0,3,2,0	test	ward_and_allport	1,0,0,0,0,0,3,2,0	82.0	23.0	0.099	0,0,0,1,2,3,0,0,0	to_board	s642
261.17	1.154	0	PA_without_intermediate	0,0,0,0,0,0,3,2,0	test	ward_and_allport	1,0,0,0,0,0,3,2,0	71.0	23.0	1.154	0,0,0,1,2,3,0,0,0	to_hand	s642
262.326	0.099	0	PA_without_intermediate	1,0,0,0,0,0,3,2,0	test	ward_and_allport	1,0,0,0,0,0,3,2,0	89.0	23.0	0.099	0,0,0,1,2,3,0,0,0	to_board	s642
262.432	1.0	0	PA_without_intermediate	n/a	test	ward_and_allport	n/a	-1.0	23.0	n/a	n/a	feedback	s642
263.432	1.408	0	PA_without_intermediate	n/a	test	ward_and_allport	n/a	-1.0	23.0	n/a	n/a	ITI	s642
264.849	9.335	1	PA_with_intermediate	0,0,0,0,0,0,1,2,0	test	ward_and_allport	0,0,0,2,3,0,1,0,0	82.0	24.0	9.335	0,0,0,0,0,0,1,2,3	to_hand	s642
274.184	0.175	0	PA_with_intermediate	0,0,0,3,0,0,1,2,0	test	ward_and_allport	0,0,0,2,3,0,1,0,0	71.0	24.0	0.175	0,0,0,0,0,0,1,2,3	to_board	s642
274.366	1.067	0	PA_with_intermediate	0,0,0,0,0,0,1,2,0	test	ward_and_allport	0,0,0,2,3,0,1,0,0	71.0	24.0	1.067	0,0,0,0,0,0,1,2,3	to_hand	s642
275.434	0.103	0	PA_with_intermediate	3,0,0,0,0,0,1,2,0	test	ward_and_allport	0,0,0,2,3,0,1,0,0	89.0	24.0	0.103	0,0,0,0,0,0,1,2,3	to_board	s642
275.545	0.774	0	PA_with_intermediate	3,0,0,0,0,0,1,0,0	test	ward_and_allport	0,0,0,2,3,0,1,0,0	82.0	24.0	0.774	0,0,0,0,0,0,1,2,3	to_hand	s642
276.319	0.283	0	PA_with_intermediate	3,0,0,2,0,0,1,0,0	test	ward_and_allport	0,0,0,2,3,0,1,0,0	71.0	24.0	0.283	0,0,0,0,0,0,1,2,3	to_board	s642
276.61	0.543	0	PA_with_intermediate	0,0,0,2,0,0,1,0,0	test	ward_and_allport	0,0,0,2,3,0,1,0,0	89.0	24.0	0.543	0,0,0,0,0,0,1,2,3	to_hand	s642
277.154	0.166	0	PA_with_intermediate	0,0,0,2,3,0,1,0,0	test	ward_and_allport	0,0,0,2,3,0,1,0,0	71.0	24.0	0.166	0,0,0,0,0,0,1,2,3	to_board	s642
277.328	1.0	0	PA_with_intermediate	n/a	test	ward_and_allport	n/a	-1.0	24.0	n/a	n/a	feedback	s642
278.328	2.768	0	PA_with_intermediate	n/a	test	ward_and_allport	n/a	-1.0	24.0	n/a	n/a	ITI	s642
281.103	7.018	1	PA_with_intermediate	0,0,0,0,0,0,1,2,0	test	ward_and_allport	2,0,0,0,0,0,1,3,0	82.0	25.0	7.018	0,0,0,0,0,0,1,2,3	to_hand	s642
288.122	0.127	0	PA_with_intermediate	0,0,0,3,0,0,1,2,0	test	ward_and_allport	2,0,0,0,0,0,1,3,0	71.0	25.0	0.127	0,0,0,0,0,0,1,2,3	to_board	s642
288.256	0.419	0	PA_with_intermediate	0,0,0,0,0,0,1,2,0	test	ward_and_allport	2,0,0,0,0,0,1,3,0	71.0	25.0	0.419	0,0,0,0,0,0,1,2,3	to_hand	s642
288.676	0.148	0	PA_with_intermediate	3,0,0,0,0,0,1,2,0	test	ward_and_allport	2,0,0,0,0,0,1,3,0	89.0	25.0	0.148	0,0,0,0,0,0,1,2,3	to_board	s642
288.832	2.292	0	PA_with_intermediate	0,0,0,0,0,0,1,2,0	test	ward_and_allport	2,0,0,0,0,0,1,3,0	89.0	25.0	2.292	0,0,0,0,0,0,1,2,3	to_hand	s642
291.125	0.678	0	PA_with_intermediate	0,0,0,3,0,0,1,2,0	test	ward_and_allport	2,0,0,0,0,0,1,3,0	71.0	25.0	0.678	0,0,0,0,0,0,1,2,3	to_board	s642
291.811	1.238	0	PA_with_intermediate	0,0,0,3,0,0,1,0,0	test	ward_and_allport	2,0,0,0,0,0,1,3,0	82.0	25.0	1.238	0,0,0,0,0,0,1,2,3	to_hand	s642
293.051	0.264	0	PA_with_intermediate	2,0,0,3,0,0,1,0,0	test	ward_and_allport	2,0,0,0,0,0,1,3,0	89.0	25.0	0.264	0,0,0,0,0,0,1,2,3	to_board	s642
293.323	0.593	0	PA_with_intermediate	2,0,0,0,0,0,1,0,0	test	ward_and_allport	2,0,0,0,0,0,1,3,0	71.0	25.0	0.593	0,0,0,0,0,0,1,2,3	to_hand	s642
293.918	0.276	0	PA_with_intermediate	2,0,0,0,0,0,1,3,0	test	ward_and_allport	2,0,0,0,0,0,1,3,0	82.0	25.0	0.276	0,0,0,0,0,0,1,2,3	to_board	s642
294.203	1.0	0	PA_with_intermediate	n/a	test	ward_and_allport	n/a	-1.0	25.0	n/a	n/a	feedback	s642
295.203	1.68	0	PA_with_intermediate	n/a	test	ward_and_allport	n/a	-1.0	25.0	n/a	n/a	ITI	s642
296.89	8.055	1	PA_without_intermediate	1,2,0,0,0,0,0,0,0	test	ward_and_allport	0,0,0,2,0,0,3,1,0	89.0	26.0	8.055	1,2,3,0,0,0,0,0,0	to_hand	s642
304.946	0.097	0	PA_without_intermediate	1,2,0,0,0,0,3,0,0	test	ward_and_allport	0,0,0,2,0,0,3,1,0	82.0	26.0	0.097	1,2,3,0,0,0,0,0,0	to_board	s642
305.051	1.22	0	PA_without_intermediate	1,0,0,0,0,0,3,0,0	test	ward_and_allport	0,0,0,2,0,0,3,1,0	89.0	26.0	1.22	1,2,3,0,0,0,0,0,0	to_hand	s642
306.272	0.113	0	PA_without_intermediate	1,0,0,2,0,0,3,0,0	test	ward_and_allport	0,0,0,2,0,0,3,1,0	71.0	26.0	0.113	1,2,3,0,0,0,0,0,0	to_board	s642
306.392	0.707	0	PA_without_intermediate	0,0,0,2,0,0,3,0,0	test	ward_and_allport	0,0,0,2,0,0,3,1,0	89.0	26.0	0.707	1,2,3,0,0,0,0,0,0	to_hand	s642
307.101	0.135	0	PA_without_intermediate	0,0,0,2,0,0,3,1,0	test	ward_and_allport	0,0,0,2,0,0,3,1,0	82.0	26.0	0.135	1,2,3,0,0,0,0,0,0	to_board	s642
307.243	1.0	0	PA_without_intermediate	n/a	test	ward_and_allport	n/a	-1.0	26.0	n/a	n/a	feedback	s642
308.243	2.224	0	PA_without_intermediate	n/a	test	ward_and_allport	n/a	-1.0	26.0	n/a	n/a	ITI	s642
310.476	3.013	1	PA_without_intermediate	0,0,0,0,0,0,1,2,0	test	ward_and_allport	3,2,0,1,0,0,0,0,0	82.0	27.0	3.013	0,0,0,0,0,0,1,2,3	to_hand	s642
313.49	0.099	0	PA_without_intermediate	3,0,0,0,0,0,1,2,0	test	ward_and_allport	3,2,0,1,0,0,0,0,0	89.0	27.0	0.099	0,0,0,0,0,0,1,2,3	to_board	s642
313.597	0.825	0	PA_without_intermediate	3,0,0,0,0,0,1,0,0	test	ward_and_allport	3,2,0,1,0,0,0,0,0	82.0	27.0	0.825	0,0,0,0,0,0,1,2,3	to_hand	s642
314.423	0.104	0	PA_without_intermediate	3,2,0,0,0,0,1,0,0	test	ward_and_allport	3,2,0,1,0,0,0,0,0	89.0	27.0	0.104	0,0,0,0,0,0,1,2,3	to_board	s642
314.535	1.263	0	PA_without_intermediate	3,2,0,0,0,0,0,0,0	test	ward_and_allport	3,2,0,1,0,0,0,0,0	82.0	27.0	1.263	0,0,0,0,0,0,1,2,3	to_hand	s642
315.799	0.085	0	PA_without_intermediate	3,2,0,1,0,0,0,0,0	test	ward_and_allport	3,2,0,1,0,0,0,0,0	71.0	27.0	0.085	0,0,0,0,0,0,1,2,3	to_board	s642
315.893	1.0	0	PA_without_intermediate	n/a	test	ward_and_allport	n/a	-1.0	27.0	n/a	n/a	feedback	s642
316.893	2.36	0	PA_without_intermediate	n/a	test	ward_and_allport	n/a	-1.0	27.0	n/a	n/a	ITI	s642
319.261	6.473	1	PA_without_intermediate	0,0,0,0,0,0,1,2,0	test	ward_and_allport	3,2,0,1,0,0,0,0,0	82.0	28.0	6.473	0,0,0,0,0,0,1,2,3	to_hand	s642
325.736	0.105	0	PA_without_intermediate	3,0,0,0,0,0,1,2,0	test	ward_and_allport	3,2,0,1,0,0,0,0,0	89.0	28.0	0.105	0,0,0,0,0,0,1,2,3	to_board	s642
325.849	0.352	0	PA_without_intermediate	3,0,0,0,0,0,1,0,0	test	ward_and_allport	3,2,0,1,0,0,0,0,0	82.0	28.0	0.352	0,0,0,0,0,0,1,2,3	to_hand	s642
326.203	0.112	0	PA_without_intermediate	3,2,0,0,0,0,1,0,0	test	ward_and_allport	3,2,0,1,0,0,0,0,0	89.0	28.0	0.112	0,0,0,0,0,0,1,2,3	to_board	s642
326.323	0.456	0	PA_without_intermediate	3,2,0,0,0,0,0,0,0	test	ward_and_allport	3,2,0,1,0,0,0,0,0	82.0	28.0	0.456	0,0,0,0,0,0,1,2,3	to_hand	s642
326.781	0.131	0	PA_without_intermediate	3,2,0,1,0,0,0,0,0	test	ward_and_allport	3,2,0,1,0,0,0,0,0	71.0	28.0	0.131	0,0,0,0,0,0,1,2,3	to_board	s642
326.921	1.0	0	PA_without_intermediate	n/a	test	ward_and_allport	n/a	-1.0	28.0	n/a	n/a	feedback	s642
327.921	1.0	0	PA_without_intermediate	n/a	test	ward_and_allport	n/a	-1.0	28.0	n/a	n/a	ITI	s642
328.929	4.744	1	PA_without_intermediate	0,0,0,1,2,0,0,0,0	test	ward_and_allport	2,0,0,0,0,0,3,1,0	71.0	29.0	4.744	0,0,0,1,2,3,0,0,0	to_hand	s642
333.675	0.126	0	PA_without_intermediate	0,0,0,1,2,0,3,0,0	test	ward_and_allport	2,0,0,0,0,0,3,1,0	82.0	29.0	0.126	0,0,0,1,2,3,0,0,0	to_board	s642
333.808	0.351	0	PA_without_intermediate	0,0,0,1,0,0,3,0,0	test	ward_and_allport	2,0,0,0,0,0,3,1,0	71.0	29.0	0.351	0,0,0,1,2,3,0,0,0	to_hand	s642
334.16	0.148	0	PA_without_intermediate	2,0,0,1,0,0,3,0,0	test	ward_and_allport	2,0,0,0,0,0,3,1,0	89.0	29.0	0.148	0,0,0,1,2,3,0,0,0	to_board	s642
334.317	0.369	0	PA_without_intermediate	2,0,0,0,0,0,3,0,0	test	ward_and_allport	2,0,0,0,0,0,3,1,0	71.0	29.0	0.369	0,0,0,1,2,3,0,0,0	to_hand	s642
334.687	0.121	0	PA_without_intermediate	2,0,0,0,0,0,3,1,0	test	ward_and_allport	2,0,0,0,0,0,3,1,0	82.0	29.0	0.121	0,0,0,1,2,3,0,0,0	to_board	s642
334.819	1.0	0	PA_without_intermediate	n/a	test	ward_and_allport	n/a	-1.0	29.0	n/a	n/a	feedback	s642
335.819	1.408	0	PA_without_intermediate	n/a	test	ward_and_allport	n/a	-1.0	29.0	n/a	n/a	ITI	s642
342.241	3.714	1	PA_with_intermediate	1,2,0,0,0,0,0,0,0	test	ward_and_allport	1,0,0,0,0,0,2,3,0	89.0	30.0	3.714	1,2,3,0,0,0,0,0,0	to_hand	s642
345.957	0.056	0	PA_with_intermediate	1,2,0,3,0,0,0,0,0	test	ward_and_allport	1,0,0,0,0,0,2,3,0	71.0	30.0	0.056	1,2,3,0,0,0,0,0,0	to_board	s642
346.022	0.931	0	PA_with_intermediate	1,0,0,3,0,0,0,0,0	test	ward_and_allport	1,0,0,0,0,0,2,3,0	89.0	30.0	0.931	1,2,3,0,0,0,0,0,0	to_hand	s642
346.955	0.115	0	PA_with_intermediate	1,0,0,3,0,0,2,0,0	test	ward_and_allport	1,0,0,0,0,0,2,3,0	82.0	30.0	0.115	1,2,3,0,0,0,0,0,0	to_board	s642
347.079	0.831	0	PA_with_intermediate	1,0,0,0,0,0,2,0,0	test	ward_and_allport	1,0,0,0,0,0,2,3,0	71.0	30.0	0.831	1,2,3,0,0,0,0,0,0	to_hand	s642
347.911	0.207	0	PA_with_intermediate	1,0,0,0,0,0,2,3,0	test	ward_and_allport	1,0,0,0,0,0,2,3,0	82.0	30.0	0.207	1,2,3,0,0,0,0,0,0	to_board	s642
348.127	1.0	0	PA_with_intermediate	n/a	test	ward_and_allport	n/a	-1.0	30.0	n/a	n/a	feedback	s642
349.127	1.136	0	PA_with_intermediate	n/a	test	ward_and_allport	n/a	-1.0	30.0	n/a	n/a	ITI	s642
350.27	11.434	1	PA_without_intermediate	0,0,0,0,0,0,1,2,0	test	ward_and_allport	2,0,0,3,1,0,0,0,0	82.0	31.0	11.434	0,0,0,0,0,0,1,2,3	to_hand	s642
361.706	0.143	0	PA_without_intermediate	0,0,0,3,0,0,1,2,0	test	ward_and_allport	2,0,0,3,1,0,0,0,0	71.0	31.0	0.143	0,0,0,0,0,0,1,2,3	to_board	s642
361.854	0.443	0	PA_without_intermediate	0,0,0,3,0,0,1,0,0	test	ward_and_allport	2,0,0,3,1,0,0,0,0	82.0	31.0	0.443	0,0,0,0,0,0,1,2,3	to_hand	s642
362.298	0.132	0	PA_without_intermediate	0,0,0,3,2,0,1,0,0	test	ward_and_allport	2,0,0,3,1,0,0,0,0	71.0	31.0	0.132	0,0,0,0,0,0,1,2,3	to_board	s642
362.44	0.707	0	PA_without_intermediate	0,0,0,3,0,0,1,0,0	test	ward_and_allport	2,0,0,3,1,0,0,0,0	71.0	31.0	0.707	0,0,0,0,0,0,1,2,3	to_hand	s642
363.148	0.1	0	PA_without_intermediate	2,0,0,3,0,0,1,0,0	test	ward_and_allport	2,0,0,3,1,0,0,0,0	89.0	31.0	0.1	0,0,0,0,0,0,1,2,3	to_board	s642
363.258	0.818	0	PA_without_intermediate	2,0,0,3,0,0,0,0,0	test	ward_and_allport	2,0,0,3,1,0,0,0,0	82.0	31.0	0.818	0,0,0,0,0,0,1,2,3	to_hand	s642
364.077	0.09	0	PA_without_intermediate	2,0,0,3,1,0,0,0,0	test	ward_and_allport	2,0,0,3,1,0,0,0,0	71.0	31.0	0.09	0,0,0,0,0,0,1,2,3	to_board	s642
364.179	1.0	0	PA_without_intermediate	n/a	test	ward_and_allport	n/a	-1.0	31.0	n/a	n/a	feedback	s642
365.179	4.128	0	PA_without_intermediate	n/a	test	ward_and_allport	n/a	-1.0	31.0	n/a	n/a	ITI	s642
369.318	2.117	1	PA_without_intermediate	1,2,0,0,0,0,0,0,0	test	ward_and_allport	0,0,0,1,0,0,3,2,0	89.0	32.0	2.117	1,2,3,0,0,0,0,0,0	to_hand	s642
371.436	0.07	0	PA_without_intermediate	1,2,0,0,0,0,3,0,0	test	ward_and_allport	0,0,0,1,0,0,3,2,0	82.0	32.0	0.07	1,2,3,0,0,0,0,0,0	to_board	s642
371.516	0.768	0	PA_without_intermediate	1,0,0,0,0,0,3,0,0	test	ward_and_allport	0,0,0,1,0,0,3,2,0	89.0	32.0	0.768	1,2,3,0,0,0,0,0,0	to_hand	s642
372.285	0.077	0	PA_without_intermediate	1,0,0,0,0,0,3,2,0	test	ward_and_allport	0,0,0,1,0,0,3,2,0	82.0	32.0	0.077	1,2,3,0,0,0,0,0,0	to_board	s642
372.371	0.658	0	PA_without_intermediate	0,0,0,0,0,0,3,2,0	test	ward_and_allport	0,0,0,1,0,0,3,2,0	89.0	32.0	0.658	1,2,3,0,0,0,0,0,0	to_hand	s642
373.031	0.096	0	PA_without_intermediate	0,0,0,1,0,0,3,2,0	test	ward_and_allport	0,0,0,1,0,0,3,2,0	71.0	32.0	0.096	1,2,3,0,0,0,0,0,0	to_board	s642
373.136	1.0	0	PA_without_intermediate	n/a	test	ward_and_allport	n/a	-1.0	32.0	n/a	n/a	feedback	s642
374.136	1.136	0	PA_without_intermediate	n/a	test	ward_and_allport	n/a	-1.0	32.0	n/a	n/a	ITI	s642
375.28	6.424	1	PA_without_intermediate	1,2,0,0,0,0,0,0,0	test	ward_and_allport	0,0,0,3,1,0,2,0,0	89.0	33.0	6.424	1,2,3,0,0,0,0,0,0	to_hand	s642
381.706	0.067	0	PA_without_intermediate	1,2,0,3,0,0,0,0,0	test	ward_and_allport	0,0,0,3,1,0,2,0,0	71.0	33.0	0.067	1,2,3,0,0,0,0,0,0	to_board	s642
381.779	0.504	0	PA_without_intermediate	1,0,0,3,0,0,0,0,0	test	ward_and_allport	0,0,0,3,1,0,2,0,0	89.0	33.0	0.504	1,2,3,0,0,0,0,0,0	to_hand	s642
382.285	0.167	0	PA_without_intermediate	1,0,0,3,0,0,2,0,0	test	ward_and_allport	0,0,0,3,1,0,2,0,0	82.0	33.0	0.167	1,2,3,0,0,0,0,0,0	to_board	s642
382.461	0.448	0	PA_without_intermediate	0,0,0,3,0,0,2,0,0	test	ward_and_allport	0,0,0,3,1,0,2,0,0	89.0	33.0	0.448	1,2,3,0,0,0,0,0,0	to_hand	s642
382.91	0.116	0	PA_without_intermediate	0,0,0,3,1,0,2,0,0	test	ward_and_allport	0,0,0,3,1,0,2,0,0	71.0	33.0	0.116	1,2,3,0,0,0,0,0,0	to_board	s642
383.036	1.0	0	PA_without_intermediate	n/a	test	ward_and_allport	n/a	-1.0	33.0	n/a	n/a	feedback	s642
384.036	4.264	0	PA_without_intermediate	n/a	test	ward_and_allport	n/a	-1.0	33.0	n/a	n/a	ITI	s642
388.311	8.113	1	PA_with_intermediate	0,0,0,0,0,0,1,2,0	test	ward_and_allport	0,0,0,2,0,0,1,3,0	82.0	34.0	8.113	0,0,0,0,0,0,1,2,3	to_hand	s642
396.425	0.095	0	PA_with_intermediate	3,0,0,0,0,0,1,2,0	test	ward_and_allport	0,0,0,2,0,0,1,3,0	89.0	34.0	0.095	0,0,0,0,0,0,1,2,3	to_board	s642
396.53	0.766	0	PA_with_intermediate	3,0,0,0,0,0,1,0,0	test	ward_and_allport	0,0,0,2,0,0,1,3,0	82.0	34.0	0.766	0,0,0,0,0,0,1,2,3	to_hand	s642
397.297	0.123	0	PA_with_intermediate	3,0,0,2,0,0,1,0,0	test	ward_and_allport	0,0,0,2,0,0,1,3,0	71.0	34.0	0.123	0,0,0,0,0,0,1,2,3	to_board	s642
397.43	0.554	0	PA_with_intermediate	0,0,0,2,0,0,1,0,0	test	ward_and_allport	0,0,0,2,0,0,1,3,0	89.0	34.0	0.554	0,0,0,0,0,0,1,2,3	to_hand	s642
397.984	0.114	0	PA_with_intermediate	0,0,0,2,0,0,1,3,0	test	ward_and_allport	0,0,0,2,0,0,1,3,0	82.0	34.0	0.114	0,0,0,0,0,0,1,2,3	to_board	s642
398.11	1.0	0	PA_with_intermediate	n/a	test	ward_and_allport	n/a	-1.0	34.0	n/a	n/a	feedback	s642
399.11	3.04	0	PA_with_intermediate	n/a	test	ward_and_allport	n/a	-1.0	34.0	n/a	n/a	ITI	s642
402.159	4.972	1	PA_with_intermediate	1,2,0,0,0,0,0,0,0	test	ward_and_allport	1,0,0,2,3,0,0,0,0	89.0	35.0	4.972	1,2,3,0,0,0,0,0,0	to_hand	s642
407.133	0.088	0	PA_with_intermediate	1,2,0,3,0,0,0,0,0	test	ward_and_allport	1,0,0,2,3,0,0,0,0	71.0	35.0	0.088	1,2,3,0,0,0,0,0,0	to_board	s642
407.23	0.758	0	PA_with_intermediate	1,0,0,3,0,0,0,0,0	test	ward_and_allport	1,0,0,2,3,0,0,0,0	89.0	35.0	0.758	1,2,3,0,0,0,0,0,0	to_hand	s642
407.99	0.101	0	PA_with_intermediate	1,0,0,3,0,0,2,0,0	test	ward_and_allport	1,0,0,2,3,0,0,0,0	82.0	35.0	0.101	1,2,3,0,0,0,0,0,0	to_board	s642
408.1	0.666	0	PA_with_intermediate	1,0,0,3,0,0,0,0,0	test	ward_and_allport	1,0,0,2,3,0,0,0,0	82.0	35.0	0.666	1,2,3,0,0,0,0,0,0	to_hand	s642
408.767	0.108	0	PA_with_intermediate	1,0,0,3,2,0,0,0,0	test	ward_and_allport	1,0,0,2,3,0,0,0,0	71.0	35.0	0.108	1,2,3,0,0,0,0,0,0	to_board	s642
408.885	1.126	0	PA_with_intermediate	1,0,0,3,0,0,0,0,0	test	ward_and_allport	1,0,0,2,3,0,0,0,0	71.0	35.0	1.126	1,2,3,0,0,0,0,0,0	to_hand	s642
410.012	0.092	0	PA_with_intermediate	1,0,0,3,0,0,2,0,0	test	ward_and_allport	1,0,0,2,3,0,0,0,0	82.0	35.0	0.092	1,2,3,0,0,0,0,0,0	to_board	s642
410.113	1.292	0	PA_with_intermediate	1,0,0,0,0,0,2,0,0	test	ward_and_allport	1,0,0,2,3,0,0,0,0	71.0	35.0	1.292	1,2,3,0,0,0,0,0,0	to_hand	s642
411.406	0.107	0	PA_with_intermediate	1,3,0,0,0,0,2,0,0	test	ward_and_allport	1,0,0,2,3,0,0,0,0	89.0	35.0	0.107	1,2,3,0,0,0,0,0,0	to_board	s642
411.521	0.915	0	PA_with_intermediate	1,3,0,0,0,0,0,0,0	test	ward_and_allport	1,0,0,2,3,0,0,0,0	82.0	35.0	0.915	1,2,3,0,0,0,0,0,0	to_hand	s642
412.437	0.094	0	PA_with_intermediate	1,3,0,2,0,0,0,0,0	test	ward_and_allport	1,0,0,2,3,0,0,0,0	71.0	35.0	0.094	1,2,3,0,0,0,0,0,0	to_board	s642
412.538	0.537	0	PA_with_intermediate	1,0,0,2,0,0,0,0,0	test	ward_and_allport	1,0,0,2,3,0,0,0,0	89.0	35.0	0.537	1,2,3,0,0,0,0,0,0	to_hand	s642
413.077	0.107	0	PA_with_intermediate	1,0,0,2,3,0,0,0,0	test	ward_and_allport	1,0,0,2,3,0,0,0,0	71.0	35.0	0.107	1,2,3,0,0,0,0,0,0	to_board	s642
413.193	1.0	0	PA_with_intermediate	n/a	test	ward_and_allport	n/a	-1.0	35.0	n/a	n/a	feedback	s642
414.193	1.136	0	PA_with_intermediate	n/a	test	ward_and_allport	n/a	-1.0	35.0	n/a	n/a	ITI	s642
415.337	7.355	1	PA_with_intermediate	1,2,0,0,0,0,0,0,0	test	ward_and_allport	1,0,0,2,3,0,0,0,0	89.0	36.0	7.355	1,2,3,0,0,0,0,0,0	to_hand	s642
422.693	0.109	0	PA_with_intermediate	1,2,0,0,0,0,3,0,0	test	ward_and_allport	1,0,0,2,3,0,0,0,0	82.0	36.0	0.109	1,2,3,0,0,0,0,0,0	to_board	s642
422.808	0.461	0	PA_with_intermediate	1,0,0,0,0,0,3,0,0	test	ward_and_allport	1,0,0,2,3,0,0,0,0	89.0	36.0	0.461	1,2,3,0,0,0,0,0,0	to_hand	s642
423.271	0.122	0	PA_with_intermediate	1,0,0,2,0,0,3,0,0	test	ward_and_allport	1,0,0,2,3,0,0,0,0	71.0	36.0	0.122	1,2,3,0,0,0,0,0,0	to_board	s642
423.401	0.415	0	PA_with_intermediate	1,0,0,2,0,0,0,0,0	test	ward_and_allport	1,0,0,2,3,0,0,0,0	82.0	36.0	0.415	1,2,3,0,0,0,0,0,0	to_hand	s642
423.817	0.087	0	PA_with_intermediate	1,0,0,2,3,0,0,0,0	test	ward_and_allport	1,0,0,2,3,0,0,0,0	71.0	36.0	0.087	1,2,3,0,0,0,0,0,0	to_board	s642
423.917	1.0	0	PA_with_intermediate	n/a	test	ward_and_allport	n/a	-1.0	36.0	n/a	n/a	feedback	s642
424.917	1.408	0	PA_with_intermediate	n/a	test	ward_and_allport	n/a	-1.0	36.0	n/a	n/a	ITI	s642
426.336	6.424	1	PA_without_intermediate	1,2,0,0,0,0,0,0,0	test	ward_and_allport	0,0,0,3,2,0,1,0,0	89.0	37.0	6.424	1,2,3,0,0,0,0,0,0	to_hand	s642
432.761	0.122	0	PA_without_intermediate	1,2,0,3,0,0,0,0,0	test	ward_and_allport	0,0,0,3,2,0,1,0,0	71.0	37.0	0.122	1,2,3,0,0,0,0,0,0	to_board	s642
432.893	0.327	0	PA_without_intermediate	1,0,0,3,0,0,0,0,0	test	ward_and_allport	0,0,0,3,2,0,1,0,0	89.0	37.0	0.327	1,2,3,0,0,0,0,0,0	to_hand	s642
433.221	0.091	0	PA_without_intermediate	1,0,0,3,2,0,0,0,0	test	ward_and_allport	0,0,0,3,2,0,1,0,0	71.0	37.0	0.091	1,2,3,0,0,0,0,0,0	to_board	s642
433.323	0.447	0	PA_without_intermediate	0,0,0,3,2,0,0,0,0	test	ward_and_allport	0,0,0,3,2,0,1,0,0	89.0	37.0	0.447	1,2,3,0,0,0,0,0,0	to_hand	s642
433.77	0.127	0	PA_without_intermediate	0,0,0,3,2,0,1,0,0	test	ward_and_allport	0,0,0,3,2,0,1,0,0	82.0	37.0	0.127	1,2,3,0,0,0,0,0,0	to_board	s642
433.909	1.0	0	PA_without_intermediate	n/a	test	ward_and_allport	n/a	-1.0	37.0	n/a	n/a	feedback	s642
434.909	1.68	0	PA_without_intermediate	n/a	test	ward_and_allport	n/a	-1.0	37.0	n/a	n/a	ITI	s642
436.598	8.951	1	PA_with_intermediate	1,2,0,0,0,0,0,0,0	test	ward_and_allport	1,0,0,0,0,0,2,3,0	89.0	38.0	8.951	1,2,3,0,0,0,0,0,0	to_hand	s642
445.55	0.03	0	PA_with_intermediate	1,2,0,3,0,0,0,0,0	test	ward_and_allport	1,0,0,0,0,0,2,3,0	71.0	38.0	0.03	1,2,3,0,0,0,0,0,0	to_board	s642
445.587	0.905	0	PA_with_intermediate	1,0,0,3,0,0,0,0,0	test	ward_and_allport	1,0,0,0,0,0,2,3,0	89.0	38.0	0.905	1,2,3,0,0,0,0,0,0	to_hand	s642
446.494	0.07	0	PA_with_intermediate	1,0,0,3,0,0,2,0,0	test	ward_and_allport	1,0,0,0,0,0,2,3,0	82.0	38.0	0.07	1,2,3,0,0,0,0,0,0	to_board	s642
446.574	1.074	0	PA_with_intermediate	1,0,0,0,0,0,2,0,0	test	ward_and_allport	1,0,0,0,0,0,2,3,0	71.0	38.0	1.074	1,2,3,0,0,0,0,0,0	to_hand	s642
447.648	0.053	0	PA_with_intermediate	1,0,0,0,0,0,2,3,0	test	ward_and_allport	1,0,0,0,0,0,2,3,0	82.0	38.0	0.053	1,2,3,0,0,0,0,0,0	to_board	s642
447.714	1.0	0	PA_with_intermediate	n/a	test	ward_and_allport	n/a	-1.0	38.0	n/a	n/a	feedback	s642
448.714	3.72	0	PA_with_intermediate	n/a	test	ward_and_allport	n/a	-1.0	38.0	n/a	n/a	ITI	s642
452.446	5.102	1	PA_without_intermediate	0,0,0,1,2,0,0,0,0	test	ward_and_allport	3,2,0,0,0,0,1,0,0	71.0	39.0	5.102	0,0,0,1,2,3,0,0,0	to_hand	s642
457.548	0.122	0	PA_without_intermediate	3,0,0,1,2,0,0,0,0	test	ward_and_allport	3,2,0,0,0,0,1,0,0	89.0	39.0	0.122	0,0,0,1,2,3,0,0,0	to_board	s642
457.679	0.347	0	PA_without_intermediate	3,0,0,1,0,0,0,0,0	test	ward_and_allport	3,2,0,0,0,0,1,0,0	71.0	39.0	0.347	0,0,0,1,2,3,0,0,0	to_hand	s642
458.028	0.145	0	PA_without_intermediate	3,2,0,1,0,0,0,0,0	test	ward_and_allport	3,2,0,0,0,0,1,0,0	89.0	39.0	0.145	0,0,0,1,2,3,0,0,0	to_board	s642
458.182	0.261	0	PA_without_intermediate	3,2,0,0,0,0,0,0,0	test	ward_and_allport	3,2,0,0,0,0,1,0,0	71.0	39.0	0.261	0,0,0,1,2,3,0,0,0	to_hand	s642
458.444	0.141	0	PA_without_intermediate	3,2,0,0,0,0,1,0,0	test	ward_and_allport	3,2,0,0,0,0,1,0,0	82.0	39.0	0.141	0,0,0,1,2,3,0,0,0	to_board	s642
458.595	1.0	0	PA_without_intermediate	n/a	test	ward_and_allport	n/a	-1.0	39.0	n/a	n/a	feedback	s642
459.595	2.224	0	PA_without_intermediate	n/a	test	ward_and_allport	n/a	-1.0	39.0	n/a	n/a	ITI	s642
461.828	8.364	1	PA_without_intermediate	0,0,0,1,2,0,0,0,0	test	ward_and_allport	1,0,0,0,0,0,3,2,0	71.0	40.0	8.364	0,0,0,1,2,3,0,0,0	to_hand	s642
470.193	0.111	0	PA_without_intermediate	3,0,0,1,2,0,0,0,0	test	ward_and_allport	1,0,0,0,0,0,3,2,0	89.0	40.0	0.111	0,0,0,1,2,3,0,0,0	to_board	s642
470.313	0.508	0	PA_without_intermediate	3,0,0,1,0,0,0,0,0	test	ward_and_allport	1,0,0,0,0,0,3,2,0	71.0	40.0	0.508	0,0,0,1,2,3,0,0,0	to_hand	s642
470.822	0.122	0	PA_without_intermediate	3,0,0,1,0,0,2,0,0	test	ward_and_allport	1,0,0,0,0,0,3,2,0	82.0	40.0	0.122	0,0,0,1,2,3,0,0,0	to_board	s642
470.954	0.346	0	PA_without_intermediate	0,0,0,1,0,0,2,0,0	test	ward_and_allport	1,0,0,0,0,0,3,2,0	89.0	40.0	0.346	0,0,0,1,2,3,0,0,0	to_hand	s642
471.301	0.092	0	PA_without_intermediate	0,0,0,1,0,0,2,3,0	test	ward_and_allport	1,0,0,0,0,0,3,2,0	82.0	40.0	0.092	0,0,0,1,2,3,0,0,0	to_board	s642
471.403	1.913	0	PA_without_intermediate	0,0,0,1,0,0,2,0,0	test	ward_and_allport	1,0,0,0,0,0,3,2,0	82.0	40.0	1.913	0,0,0,1,2,3,0,0,0	to_hand	s642
473.318	0.129	0	PA_without_intermediate	3,0,0,1,0,0,2,0,0	test	ward_and_allport	1,0,0,0,0,0,3,2,0	89.0	40.0	0.129	0,0,0,1,2,3,0,0,0	to_board	s642
473.458	1.131	0	PA_without_intermediate	3,0,0,1,0,0,0,0,0	test	ward_and_allport	1,0,0,0,0,0,3,2,0	82.0	40.0	1.131	0,0,0,1,2,3,0,0,0	to_hand	s642
474.591	0.291	0	PA_without_intermediate	3,0,0,1,2,0,0,0,0	test	ward_and_allport	1,0,0,0,0,0,3,2,0	71.0	40.0	0.291	0,0,0,1,2,3,0,0,0	to_board	s642
474.893	0.661	0	PA_without_intermediate	0,0,0,1,2,0,0,0,0	test	ward_and_allport	1,0,0,0,0,0,3,2,0	89.0	40.0	0.661	0,0,0,1,2,3,0,0,0	to_hand	s642
475.556	0.152	0	PA_without_intermediate	0,0,0,1,2,0,3,0,0	test	ward_and_allport	1,0,0,0,0,0,3,2,0	82.0	40.0	0.152	0,0,0,1,2,3,0,0,0	to_board	s642
475.718	0.92	0	PA_without_intermediate	0,0,0,1,0,0,3,0,0	test	ward_and_allport	1,0,0,0,0,0,3,2,0	71.0	40.0	0.92	0,0,0,1,2,3,0,0,0	to_hand	s642
476.639	0.171	0	PA_without_intermediate	0,0,0,1,0,0,3,2,0	test	ward_and_allport	1,0,0,0,0,0,3,2,0	82.0	40.0	0.171	0,0,0,1,2,3,0,0,0	to_board	s642
476.82	2.109	0	PA_without_intermediate	0,0,0,0,0,0,3,2,0	test	ward_and_allport	1,0,0,0,0,0,3,2,0	71.0	40.0	2.109	0,0,0,1,2,3,0,0,0	to_hand	s642
478.93	0.154	0	PA_without_intermediate	1,0,0,0,0,0,3,2,0	test	ward_and_allport	1,0,0,0,0,0,3,2,0	89.0	40.0	0.154	0,0,0,1,2,3,0,0,0	to_board	s642
479.094	1.0	0	PA_without_intermediate	n/a	test	ward_and_allport	n/a	-1.0	40.0	n/a	n/a	feedback	s642
480.094	1.272	0	PA_without_intermediate	n/a	test	ward_and_allport	n/a	-1.0	40.0	n/a	n/a	ITI	s642
481.374	6.578	1	PA_with_intermediate	0,0,0,1,2,0,0,0,0	test	ward_and_allport	0,0,0,1,0,0,2,3,0	71.0	41.0	6.578	0,0,0,1,2,3,0,0,0	to_hand	s642
487.954	0.121	0	PA_with_intermediate	3,0,0,1,2,0,0,0,0	test	ward_and_allport	0,0,0,1,0,0,2,3,0	89.0	41.0	0.121	0,0,0,1,2,3,0,0,0	to_board	s642
488.084	0.325	0	PA_with_intermediate	3,0,0,1,0,0,0,0,0	test	ward_and_allport	0,0,0,1,0,0,2,3,0	71.0	41.0	0.325	0,0,0,1,2,3,0,0,0	to_hand	s642
488.41	0.131	0	PA_with_intermediate	3,0,0,1,0,0,2,0,0	test	ward_and_allport	0,0,0,1,0,0,2,3,0	82.0	41.0	0.131	0,0,0,1,2,3,0,0,0	to_board	s642
488.553	0.402	0	PA_with_intermediate	0,0,0,1,0,0,2,0,0	test	ward_and_allport	0,0,0,1,0,0,2,3,0	89.0	41.0	0.402	0,0,0,1,2,3,0,0,0	to_hand	s642
488.955	0.159	0	PA_with_intermediate	0,0,0,1,0,0,2,3,0	test	ward_and_allport	0,0,0,1,0,0,2,3,0	82.0	41.0	0.159	0,0,0,1,2,3,0,0,0	to_board	s642
489.127	1.0	0	PA_with_intermediate	n/a	test	ward_and_allport	n/a	-1.0	41.0	n/a	n/a	feedback	s642
490.127	2.632	0	PA_with_intermediate	n/a	test	ward_and_allport	n/a	-1.0	41.0	n/a	n/a	ITI	s642
492.772	5.695	1	PA_without_intermediate	1,2,0,0,0,0,0,0,0	test	ward_and_allport	0,0,0,1,0,0,3,2,0	89.0	42.0	5.695	1,2,3,0,0,0,0,0,0	to_hand	s642
498.469	0.094	0	PA_without_intermediate	1,2,0,0,0,0,3,0,0	test	ward_and_allport	0,0,0,1,0,0,3,2,0	82.0	42.0	0.094	1,2,3,0,0,0,0,0,0	to_board	s642
498.575	0.331	0	PA_without_intermediate	1,0,0,0,0,0,3,0,0	test	ward_and_allport	0,0,0,1,0,0,3,2,0	89.0	42.0	0.331	1,2,3,0,0,0,0,0,0	to_hand	s642
498.907	0.09	0	PA_without_intermediate	1,0,0,0,0,0,3,2,0	test	ward_and_allport	0,0,0,1,0,0,3,2,0	82.0	42.0	0.09	1,2,3,0,0,0,0,0,0	to_board	s642
499.009	0.449	0	PA_without_intermediate	0,0,0,0,0,0,3,2,0	test	ward_and_allport	0,0,0,1,0,0,3,2,0	89.0	42.0	0.449	1,2,3,0,0,0,0,0,0	to_hand	s642
499.46	0.097	0	PA_without_intermediate	0,0,0,1,0,0,3,2,0	test	ward_and_allport	0,0,0,1,0,0,3,2,0	71.0	42.0	0.097	1,2,3,0,0,0,0,0,0	to_board	s642
499.568	1.0	0	PA_without_intermediate	n/a	test	ward_and_allport	n/a	-1.0	42.0	n/a	n/a	feedback	s642
500.568	1.408	0	PA_without_intermediate	n/a	test	ward_and_allport	n/a	-1.0	42.0	n/a	n/a	ITI	s642
501.986	9.881	1	PA_without_intermediate	0,0,0,0,0,0,1,2,0	test	ward_and_allport	3,1,0,2,0,0,0,0,0	82.0	43.0	9.881	0,0,0,0,0,0,1,2,3	to_hand	s642
511.867	0.025	0	PA_without_intermediate	3,0,0,0,0,0,1,2,0	test	ward_and_allport	3,1,0,2,0,0,0,0,0	89.0	43.0	0.025	0,0,0,0,0,0,1,2,3	to_board	s642
511.898	0.867	0	PA_without_intermediate	3,0,0,0,0,0,1,0,0	test	ward_and_allport	3,1,0,2,0,0,0,0,0	82.0	43.0	0.867	0,0,0,0,0,0,1,2,3	to_hand	s642
512.766	0.088	0	PA_without_intermediate	3,0,0,2,0,0,1,0,0	test	ward_and_allport	3,1,0,2,0,0,0,0,0	71.0	43.0	0.088	0,0,0,0,0,0,1,2,3	to_board	s642
512.866	0.702	0	PA_without_intermediate	3,0,0,2,0,0,0,0,0	test	ward_and_allport	3,1,0,2,0,0,0,0,0	82.0	43.0	0.702	0,0,0,0,0,0,1,2,3	to_hand	s642
513.569	0.045	0	PA_without_intermediate	3,1,0,2,0,0,0,0,0	test	ward_and_allport	3,1,0,2,0,0,0,0,0	89.0	43.0	0.045	0,0,0,0,0,0,1,2,3	to_board	s642
513.627	1.0	0	PA_without_intermediate	n/a	test	ward_and_allport	n/a	-1.0	43.0	n/a	n/a	feedback	s642
514.627	1.0	0	PA_without_intermediate	n/a	test	ward_and_allport	n/a	-1.0	43.0	n/a	n/a	ITI	s642
515.639	4.252	1	PA_with_intermediate	0,0,0,1,2,0,0,0,0	test	ward_and_allport	2,3,0,1,0,0,0,0,0	71.0	44.0	4.252	0,0,0,1,2,3,0,0,0	to_hand	s642
519.893	0.121	0	PA_with_intermediate	3,0,0,1,2,0,0,0,0	test	ward_and_allport	2,3,0,1,0,0,0,0,0	89.0	44.0	0.121	0,0,0,1,2,3,0,0,0	to_board	s642
520.026	0.329	0	PA_with_intermediate	3,0,0,1,0,0,0,0,0	test	ward_and_allport	2,3,0,1,0,0,0,0,0	71.0	44.0	0.329	0,0,0,1,2,3,0,0,0	to_hand	s642
520.356	0.105	0	PA_with_intermediate	3,2,0,1,0,0,0,0,0	test	ward_and_allport	2,3,0,1,0,0,0,0,0	89.0	44.0	0.105	0,0,0,1,2,3,0,0,0	to_board	s642
520.471	2.107	0	PA_with_intermediate	3,2,0,0,0,0,0,0,0	test	ward_and_allport	2,3,0,1,0,0,0,0,0	71.0	44.0	2.107	0,0,0,1,2,3,0,0,0	to_hand	s642
522.58	0.163	0	PA_with_intermediate	3,2,0,0,0,0,1,0,0	test	ward_and_allport	2,3,0,1,0,0,0,0,0	82.0	44.0	0.163	0,0,0,1,2,3,0,0,0	to_board	s642
522.753	1.591	0	PA_with_intermediate	3,2,0,0,0,0,0,0,0	test	ward_and_allport	2,3,0,1,0,0,0,0,0	82.0	44.0	1.591	0,0,0,1,2,3,0,0,0	to_hand	s642
524.345	0.363	0	PA_with_intermediate	3,2,0,1,0,0,0,0,0	test	ward_and_allport	2,3,0,1,0,0,0,0,0	71.0	44.0	0.363	0,0,0,1,2,3,0,0,0	to_board	s642
524.717	0.989	0	PA_with_intermediate	3,0,0,1,0,0,0,0,0	test	ward_and_allport	2,3,0,1,0,0,0,0,0	89.0	44.0	0.989	0,0,0,1,2,3,0,0,0	to_hand	s642
525.707	0.402	0	PA_with_intermediate	3,0,0,1,0,0,2,0,0	test	ward_and_allport	2,3,0,1,0,0,0,0,0	82.0	44.0	0.402	0,0,0,1,2,3,0,0,0	to_board	s642
526.118	0.989	0	PA_with_intermediate	0,0,0,1,0,0,2,0,0	test	ward_and_allport	2,3,0,1,0,0,0,0,0	89.0	44.0	0.989	0,0,0,1,2,3,0,0,0	to_hand	s642
527.108	0.546	0	PA_with_intermediate	0,0,0,1,3,0,2,0,0	test	ward_and_allport	2,3,0,1,0,0,0,0,0	71.0	44.0	0.546	0,0,0,1,2,3,0,0,0	to_board	s642
527.665	0.592	0	PA_with_intermediate	0,0,0,1,3,0,0,0,0	test	ward_and_allport	2,3,0,1,0,0,0,0,0	82.0	44.0	0.592	0,0,0,1,2,3,0,0,0	to_hand	s642
528.258	0.389	0	PA_with_intermediate	2,0,0,1,3,0,0,0,0	test	ward_and_allport	2,3,0,1,0,0,0,0,0	89.0	44.0	0.389	0,0,0,1,2,3,0,0,0	to_board	s642
528.657	0.423	0	PA_with_intermediate	2,0,0,1,0,0,0,0,0	test	ward_and_allport	2,3,0,1,0,0,0,0,0	71.0	44.0	0.423	0,0,0,1,2,3,0,0,0	to_hand	s642
529.082	0.256	0	PA_with_intermediate	2,3,0,1,0,0,0,0,0	test	ward_and_allport	2,3,0,1,0,0,0,0,0	89.0	44.0	0.256	0,0,0,1,2,3,0,0,0	to_board	s642
529.346	1.0	0	PA_with_intermediate	n/a	test	ward_and_allport	n/a	-1.0	44.0	n/a	n/a	feedback	s642
530.346	1.0	0	PA_with_intermediate	n/a	test	ward_and_allport	n/a	-1.0	44.0	n/a	n/a	ITI	s642
536.358	7.004	1	PA_with_intermediate	1,2,0,0,0,0,0,0,0	test	ward_and_allport	1,3,0,0,0,0,2,0,0	89.0	45.0	7.004	1,2,3,0,0,0,0,0,0	to_hand	s642
543.363	0.095	0	PA_with_intermediate	1,2,0,3,0,0,0,0,0	test	ward_and_allport	1,3,0,0,0,0,2,0,0	71.0	45.0	0.095	1,2,3,0,0,0,0,0,0	to_board	s642
543.469	0.672	0	PA_with_intermediate	1,0,0,3,0,0,0,0,0	test	ward_and_allport	1,3,0,0,0,0,2,0,0	89.0	45.0	0.672	1,2,3,0,0,0,0,0,0	to_hand	s642
544.143	0.145	0	PA_with_intermediate	1,0,0,3,0,0,2,0,0	test	ward_and_allport	1,3,0,0,0,0,2,0,0	82.0	45.0	0.145	1,2,3,0,0,0,0,0,0	to_board	s642
544.299	0.769	0	PA_with_intermediate	1,0,0,0,0,0,2,0,0	test	ward_and_allport	1,3,0,0,0,0,2,0,0	71.0	45.0	0.769	1,2,3,0,0,0,0,0,0	to_hand	s642
545.069	1.107	0	PA_with_intermediate	1,3,0,0,0,0,2,0,0	test	ward_and_allport	1,3,0,0,0,0,2,0,0	89.0	45.0	1.107	1,2,3,0,0,0,0,0,0	to_board	s642
546.19	1.0	0	PA_with_intermediate	n/a	test	ward_and_allport	n/a	-1.0	45.0	n/a	n/a	feedback	s642
547.19	1.0	0	PA_with_intermediate	n/a	test	ward_and_allport	n/a	-1.0	45.0	n/a	n/a	ITI	s642
548.202	7.619	1	PA_with_intermediate	0,0,0,1,2,0,0,0,0	test	ward_and_allport	2,3,0,1,0,0,0,0,0	71.0	46.0	7.619	0,0,0,1,2,3,0,0,0	to_hand	s642
555.823	0.156	0	PA_with_intermediate	0,0,0,1,2,0,3,0,0	test	ward_and_allport	2,3,0,1,0,0,0,0,0	82.0	46.0	0.156	0,0,0,1,2,3,0,0,0	to_board	s642
555.99	0.534	0	PA_with_intermediate	0,0,0,1,0,0,3,0,0	test	ward_and_allport	2,3,0,1,0,0,0,0,0	71.0	46.0	0.534	0,0,0,1,2,3,0,0,0	to_hand	s642
556.524	0.13	0	PA_with_intermediate	2,0,0,1,0,0,3,0,0	test	ward_and_allport	2,3,0,1,0,0,0,0,0	89.0	46.0	0.13	0,0,0,1,2,3,0,0,0	to_board	s642
556.667	0.452	0	PA_with_intermediate	2,0,0,1,0,0,0,0,0	test	ward_and_allport	2,3,0,1,0,0,0,0,0	82.0	46.0	0.452	0,0,0,1,2,3,0,0,0	to_hand	s642
557.121	0.096	0	PA_with_intermediate	2,3,0,1,0,0,0,0,0	test	ward_and_allport	2,3,0,1,0,0,0,0,0	89.0	46.0	0.096	0,0,0,1,2,3,0,0,0	to_board	s642
557.231	1.0	0	PA_with_intermediate	n/a	test	ward_and_allport	n/a	-1.0	46.0	n/a	n/a	feedback	s642
558.231	1.408	0	PA_with_intermediate	n/a	test	ward_and_allport	n/a	-1.0	46.0	n/a	n/a	ITI	s642
559.65	6.508	1	PA_without_intermediate	1,2,0,0,0,0,0,0,0	test	ward_and_allport	0,0,0,2,0,0,3,1,0	89.0	47.0	6.508	1,2,3,0,0,0,0,0,0	to_hand	s642
566.16	0.105	0	PA_without_intermediate	1,2,0,0,0,0,3,0,0	test	ward_and_allport	0,0,0,2,0,0,3,1,0	82.0	47.0	0.105	1,2,3,0,0,0,0,0,0	to_board	s642
566.277	0.951	0	PA_without_intermediate	1,0,0,0,0,0,3,0,0	test	ward_and_allport	0,0,0,2,0,0,3,1,0	89.0	47.0	0.951	1,2,3,0,0,0,0,0,0	to_hand	s642
567.229	0.146	0	PA_without_intermediate	1,0,0,2,0,0,3,0,0	test	ward_and_allport	0,0,0,2,0,0,3,1,0	71.0	47.0	0.146	1,2,3,0,0,0,0,0,0	to_board	s642
567.388	0.467	0	PA_without_intermediate	0,0,0,2,0,0,3,0,0	test	ward_and_allport	0,0,0,2,0,0,3,1,0	89.0	47.0	0.467	1,2,3,0,0,0,0,0,0	to_hand	s642
567.857	0.151	0	PA_without_intermediate	0,0,0,2,0,0,3,1,0	test	ward_and_allport	0,0,0,2,0,0,3,1,0	82.0	47.0	0.151	1,2,3,0,0,0,0,0,0	to_board	s642
568.022	1.0	0	PA_without_intermediate	n/a	test	ward_and_allport	n/a	-1.0	47.0	n/a	n/a	feedback	s642
569.022	1.816	0	PA_without_intermediate	n/a	test	ward_and_allport	n/a	-1.0	47.0	n/a	n/a	ITI	s642
n/a	n/a	0	n/a	n/a	n/a	n/a	n/a	n/a	n/a	n/a	n/a	ITI	n/a
