onset	duration	SS_delay	correct_response	experiment_exp_id	key_press	response_time	stopped	trial_type	worker_id
3.019	0.85	0.1	89.0	stop_signal	89.0	0.754	False	go	s570
5.547	0.85	0.1	71.0	stop_signal	71.0	0.641	False	go	s570
7.803	0.85	0.1	71.0	stop_signal	-1.0	n/a	True	stop_success	s570
10.059	0.85	0.15	71.0	stop_signal	71.0	0.736	False	go	s570
12.315	0.85	0.15	71.0	stop_signal	71.0	0.51	False	go	s570
14.568	0.85	0.15	89.0	stop_signal	89.0	0.523	False	go	s570
16.957	0.85	0.15	71.0	stop_signal	71.0	0.85	False	go	s570
19.211	0.85	0.15	89.0	stop_signal	-1.0	n/a	True	stop_success	s570
21.464	0.85	0.2	89.0	stop_signal	89.0	0.666	False	go	s570
23.718	0.85	0.2	89.0	stop_signal	-1.0	n/a	True	stop_success	s570
25.974	0.85	0.25	89.0	stop_signal	-1.0	n/a	True	stop_success	s570
28.499	0.85	0.3	89.0	stop_signal	89.0	0.597	False	go	s570
30.891	0.85	0.3	71.0	stop_signal	71.0	0.601	False	go	s570
33.42	0.85	0.3	89.0	stop_signal	-1.0	n/a	True	stop_success	s570
35.673	0.85	0.35	89.0	stop_signal	89.0	0.553	False	go	s570
38.062	0.85	0.35	89.0	stop_signal	89.0	0.777	False	go	s570
40.454	0.85	0.35	89.0	stop_signal	89.0	1.018	False	go	s570
42.708	0.85	0.35	89.0	stop_signal	89.0	0.435	False	go	s570
45.097	0.85	0.35	71.0	stop_signal	71.0	0.846	False	go	s570
47.487	0.85	0.35	89.0	stop_signal	-1.0	n/a	True	stop_success	s570
49.876	0.85	0.4	89.0	stop_signal	89.0	0.939	False	go	s570
52.54	0.85	0.4	89.0	stop_signal	89.0	0.693	False	go	s570
55.068	0.85	0.4	71.0	stop_signal	-1.0	n/a	True	stop_success	s570
57.322	0.85	0.45	71.0	stop_signal	71.0	0.539	False	stop_failure	s570
60.258	0.85	0.4	71.0	stop_signal	71.0	0.633	False	go	s570
62.514	0.85	0.4	71.0	stop_signal	71.0	0.551	False	go	s570
65.042	0.85	0.4	71.0	stop_signal	-1.0	n/a	True	stop_success	s570
67.298	0.85	0.45	71.0	stop_signal	71.0	0.637	False	go	s570
69.554	0.85	0.45	71.0	stop_signal	71.0	0.876	False	go	s570
71.81	0.85	0.45	89.0	stop_signal	89.0	0.76	False	go	s570
74.066	0.85	0.45	89.0	stop_signal	89.0	0.784	False	go	s570
76.594	0.85	0.45	71.0	stop_signal	-1.0	n/a	True	stop_success	s570
79.667	0.85	0.5	89.0	stop_signal	89.0	0.727	False	stop_failure	s570
81.92	0.85	0.45	89.0	stop_signal	89.0	0.7	False	go	s570
84.312	0.85	0.45	89.0	stop_signal	-1.0	n/a	True	stop_success	s570
86.701	0.85	0.5	89.0	stop_signal	89.0	0.718	False	go	s570
89.227	0.85	0.5	71.0	stop_signal	71.0	0.84	False	go	s570
91.616	0.85	0.5	71.0	stop_signal	71.0	0.833	False	go	s570
94.003	0.85	0.5	89.0	stop_signal	-1.0	n/a	True	stop_success	s570
96.8	0.85	0.55	89.0	stop_signal	89.0	0.699	False	go	s570
99.192	0.85	0.55	71.0	stop_signal	-1.0	n/a	True	stop_success	s570
111.961	0.85	0.6	89.0	stop_signal	89.0	0.785	False	stop_failure	s570
114.486	0.85	0.55	71.0	stop_signal	-1.0	n/a	True	stop_success	s570
116.875	0.85	0.6	71.0	stop_signal	71.0	0.824	False	go	s570
119.268	0.85	0.6	89.0	stop_signal	-1.0	n/a	True	stop_success	s570
121.521	0.85	0.65	89.0	stop_signal	89.0	0.841	False	go	s570
123.913	0.85	0.65	71.0	stop_signal	71.0	1.443	False	go	s570
126.169	0.85	0.65	89.0	stop_signal	89.0	0.849	False	stop_failure	s570
128.425	0.85	0.6	71.0	stop_signal	71.0	0.999	False	go	s570
130.679	0.85	0.6	89.0	stop_signal	89.0	0.845	False	go	s570
133.069	0.85	0.6	71.0	stop_signal	71.0	0.741	False	stop_failure	s570
135.322	0.85	0.55	71.0	stop_signal	71.0	0.715	False	stop_failure	s570
137.575	0.85	0.5	71.0	stop_signal	71.0	0.697	False	stop_failure	s570
139.963	0.85	0.45	89.0	stop_signal	-1.0	n/a	True	stop_success	s570
142.351	0.85	0.5	89.0	stop_signal	89.0	0.914	False	go	s570
144.607	0.85	0.5	71.0	stop_signal	-1.0	n/a	True	stop_success	s570
147.135	0.85	0.55	71.0	stop_signal	71.0	0.813	False	go	s570
149.389	0.85	0.55	71.0	stop_signal	71.0	0.885	False	go	s570
151.781	0.85	0.55	89.0	stop_signal	89.0	1.067	False	go	s570
154.037	0.85	0.55	89.0	stop_signal	-1.0	n/a	True	stop_success	s570
156.29	0.85	0.6	71.0	stop_signal	71.0	1.274	False	go	s570
158.683	0.85	0.6	89.0	stop_signal	71.0	0.963	False	go	s570
161.208	0.85	0.6	89.0	stop_signal	89.0	0.674	False	go	s570
163.598	0.85	0.6	71.0	stop_signal	71.0	1.008	False	go	s570
166.122	0.85	0.6	71.0	stop_signal	71.0	0.768	False	stop_failure	s570
169.058	0.85	0.55	71.0	stop_signal	71.0	1.054	False	go	s570
171.583	0.85	0.55	89.0	stop_signal	89.0	0.858	False	go	s570
174.107	0.85	0.55	89.0	stop_signal	89.0	0.901	False	go	s570
176.363	0.85	0.55	71.0	stop_signal	71.0	0.843	False	stop_failure	s570
178.888	0.85	0.5	71.0	stop_signal	71.0	1.237	False	go	s570
181.28	0.85	0.5	71.0	stop_signal	71.0	1.261	False	go	s570
183.533	0.85	0.5	89.0	stop_signal	89.0	0.978	False	go	s570
185.926	0.85	0.5	71.0	stop_signal	71.0	0.976	False	go	s570
188.179	0.85	0.5	89.0	stop_signal	-1.0	n/a	True	stop_success	s570
190.571	0.85	0.55	89.0	stop_signal	89.0	1.171	False	go	s570
193.099	0.85	0.55	89.0	stop_signal	-1.0	n/a	True	stop_success	s570
195.353	0.85	0.6	89.0	stop_signal	-1.0	n/a	True	stop_success	s570
197.742	0.85	0.65	71.0	stop_signal	71.0	0.938	False	go	s570
200.405	0.85	0.65	89.0	stop_signal	-1.0	n/a	True	stop_success	s570
202.66	0.85	0.7	71.0	stop_signal	71.0	1.183	False	go	s570
205.865	0.85	0.7	71.0	stop_signal	71.0	1.003	False	go	s570
208.253	0.85	0.7	71.0	stop_signal	71.0	0.696	False	go	s570
210.641	0.85	0.7	89.0	stop_signal	89.0	0.882	False	stop_failure	s570
223.682	0.85	0.65	89.0	stop_signal	89.0	0.715	False	go	s570
225.938	0.85	0.65	71.0	stop_signal	71.0	0.927	False	stop_failure	s570
228.194	0.85	0.6	71.0	stop_signal	-1.0	n/a	True	stop_success	s570
230.447	0.85	0.65	71.0	stop_signal	71.0	0.955	False	go	s570
233.383	0.85	0.65	71.0	stop_signal	71.0	0.946	False	go	s570
235.911	0.85	0.65	89.0	stop_signal	89.0	1.288	False	go	s570
238.44	0.85	0.65	71.0	stop_signal	71.0	0.635	False	go	s570
240.694	0.85	0.65	71.0	stop_signal	71.0	0.528	False	stop_failure	s570
243.219	0.85	0.6	71.0	stop_signal	-1.0	n/a	True	stop_success	s570
245.472	0.85	0.65	89.0	stop_signal	89.0	1.098	False	go	s570
247.864	0.85	0.65	89.0	stop_signal	-1.0	n/a	True	stop_success	s570
250.117	0.85	0.7	71.0	stop_signal	71.0	1.236	False	go	s570
252.779	0.85	0.7	71.0	stop_signal	71.0	0.75	False	go	s570
255.443	0.85	0.7	71.0	stop_signal	71.0	0.896	False	go	s570
257.699	0.85	0.7	89.0	stop_signal	89.0	1.049	False	go	s570
259.952	0.85	0.7	71.0	stop_signal	71.0	1.26	False	go	s570
262.344	0.85	0.7	89.0	stop_signal	89.0	0.801	False	stop_failure	s570
265.142	0.85	0.65	89.0	stop_signal	-1.0	n/a	True	stop_success	s570
267.534	0.85	0.7	89.0	stop_signal	-1.0	n/a	True	stop_success	s570
269.79	0.85	0.75	71.0	stop_signal	-1.0	n/a	True	stop_success	s570
272.046	0.85	0.8	71.0	stop_signal	-1.0	n/a	True	stop_success	s570
274.299	0.85	0.85	89.0	stop_signal	89.0	1.314	False	go	s570
276.961	0.85	0.85	89.0	stop_signal	89.0	0.671	False	go	s570
279.622	0.85	0.85	71.0	stop_signal	71.0	0.698	False	go	s570
281.876	0.85	0.85	89.0	stop_signal	89.0	0.585	False	go	s570
284.404	0.85	0.85	71.0	stop_signal	71.0	0.606	False	go	s570
286.66	0.85	0.85	89.0	stop_signal	89.0	0.867	False	stop_failure	s570
289.188	0.85	0.8	89.0	stop_signal	-1.0	n/a	True	go	s570
291.716	0.85	0.8	89.0	stop_signal	89.0	0.661	False	stop_failure	s570
294.242	0.85	0.75	71.0	stop_signal	71.0	0.521	False	stop_failure	s570
296.634	0.85	0.7	89.0	stop_signal	89.0	0.5	False	stop_failure	s570
299.162	0.85	0.65	89.0	stop_signal	71.0	1.356	False	go	s570
301.687	0.85	0.65	89.0	stop_signal	89.0	0.697	False	go	s570
304.079	0.85	0.65	89.0	stop_signal	89.0	0.534	False	go	s570
306.335	0.85	0.65	89.0	stop_signal	89.0	0.751	False	go	s570
308.863	0.85	0.65	89.0	stop_signal	89.0	0.564	False	go	s570
311.659	0.85	0.65	71.0	stop_signal	71.0	0.825	False	stop_failure	s570
314.184	0.85	0.6	71.0	stop_signal	71.0	0.744	False	stop_failure	s570
316.576	0.85	0.55	71.0	stop_signal	71.0	0.937	False	go	s570
318.832	0.85	0.55	71.0	stop_signal	-1.0	n/a	True	stop_success	s570
321.084	0.85	0.6	71.0	stop_signal	-1.0	n/a	True	stop_success	s570
323.339	0.85	0.65	71.0	stop_signal	-1.0	n/a	True	stop_success	s570
