onset	duration	planning	condition	current_position	exp_stage	experiment_exp_id	goal_state	key_press	problem_id	response_time	start_state	trial_id	worker_id
-93.756	0.0	0	n/a	n/a	n/a	ward_and_allport	n/a	32.0	n/a	38.665	n/a	instructions	s570
3.02	8.931	1	UA_with_intermediate	1,0,0,2,0,0,0,0,0	practice	ward_and_allport	1,2,3,0,0,0,0,0,0	71.0	0.0	8.931	1,0,0,2,3,0,0,0,0	to_hand	s570
11.953	0.584	0	UA_with_intermediate	1,0,0,2,0,0,3,0,0	practice	ward_and_allport	1,2,3,0,0,0,0,0,0	82.0	0.0	0.584	1,0,0,2,3,0,0,0,0	to_board	s570
12.539	1.183	0	UA_with_intermediate	1,0,0,0,0,0,3,0,0	practice	ward_and_allport	1,2,3,0,0,0,0,0,0	71.0	0.0	1.183	1,0,0,2,3,0,0,0,0	to_hand	s570
13.723	0.422	0	UA_with_intermediate	1,2,0,0,0,0,3,0,0	practice	ward_and_allport	1,2,3,0,0,0,0,0,0	89.0	0.0	0.422	1,0,0,2,3,0,0,0,0	to_board	s570
14.147	0.599	0	UA_with_intermediate	1,2,0,0,0,0,0,0,0	practice	ward_and_allport	1,2,3,0,0,0,0,0,0	82.0	0.0	0.599	1,0,0,2,3,0,0,0,0	to_hand	s570
14.747	0.683	0	UA_with_intermediate	1,2,3,0,0,0,0,0,0	practice	ward_and_allport	1,2,3,0,0,0,0,0,0	89.0	0.0	0.683	1,0,0,2,3,0,0,0,0	to_board	s570
15.438	1.0	0	UA_with_intermediate	n/a	practice	ward_and_allport	n/a	-1.0	0.0	n/a	n/a	feedback	s570
17.94	5.691	1	UA_with_intermediate	1,0,0,3,0,0,0,0,0	practice	ward_and_allport	1,3,2,0,0,0,0,0,0	89.0	1.0	5.691	1,2,0,3,0,0,0,0,0	to_hand	s570
23.633	0.439	0	UA_with_intermediate	1,0,0,3,0,0,2,0,0	practice	ward_and_allport	1,3,2,0,0,0,0,0,0	82.0	1.0	0.439	1,2,0,3,0,0,0,0,0	to_board	s570
24.073	1.57	0	UA_with_intermediate	1,0,0,0,0,0,2,0,0	practice	ward_and_allport	1,3,2,0,0,0,0,0,0	71.0	1.0	1.57	1,2,0,3,0,0,0,0,0	to_hand	s570
25.645	0.302	0	UA_with_intermediate	1,3,0,0,0,0,2,0,0	practice	ward_and_allport	1,3,2,0,0,0,0,0,0	89.0	1.0	0.302	1,2,0,3,0,0,0,0,0	to_board	s570
25.948	1.086	0	UA_with_intermediate	1,3,0,0,0,0,0,0,0	practice	ward_and_allport	1,3,2,0,0,0,0,0,0	82.0	1.0	1.086	1,2,0,3,0,0,0,0,0	to_hand	s570
27.034	0.267	0	UA_with_intermediate	1,3,2,0,0,0,0,0,0	practice	ward_and_allport	1,3,2,0,0,0,0,0,0	89.0	1.0	0.267	1,2,0,3,0,0,0,0,0	to_board	s570
27.305	1.0	0	UA_with_intermediate	n/a	practice	ward_and_allport	n/a	-1.0	1.0	n/a	n/a	feedback	s570
28.305	1.1	0	UA_with_intermediate	n/a	practice	ward_and_allport	n/a	-1.0	1.0	n/a	n/a	ITI	s570
29.406	3.409	1	UA_without_intermediate	0,0,0,1,2,0,0,0,0	practice	ward_and_allport	3,2,1,0,0,0,0,0,0	82.0	2.0	3.409	0,0,0,1,2,0,3,0,0	to_hand	s570
32.816	0.726	0	UA_without_intermediate	3,0,0,1,2,0,0,0,0	practice	ward_and_allport	3,2,1,0,0,0,0,0,0	89.0	2.0	0.726	0,0,0,1,2,0,3,0,0	to_board	s570
33.545	0.932	0	UA_without_intermediate	3,0,0,1,0,0,0,0,0	practice	ward_and_allport	3,2,1,0,0,0,0,0,0	71.0	2.0	0.932	0,0,0,1,2,0,3,0,0	to_hand	s570
34.478	0.959	0	UA_without_intermediate	3,2,0,1,0,0,0,0,0	practice	ward_and_allport	3,2,1,0,0,0,0,0,0	89.0	2.0	0.959	0,0,0,1,2,0,3,0,0	to_board	s570
35.44	1.214	0	UA_without_intermediate	3,2,0,0,0,0,0,0,0	practice	ward_and_allport	3,2,1,0,0,0,0,0,0	71.0	2.0	1.214	0,0,0,1,2,0,3,0,0	to_hand	s570
36.654	1.398	0	UA_without_intermediate	3,2,1,0,0,0,0,0,0	practice	ward_and_allport	3,2,1,0,0,0,0,0,0	89.0	2.0	1.398	0,0,0,1,2,0,3,0,0	to_board	s570
38.058	1.0	0	UA_without_intermediate	n/a	practice	ward_and_allport	n/a	-1.0	2.0	n/a	n/a	feedback	s570
39.058	1.2	0	UA_without_intermediate	n/a	practice	ward_and_allport	n/a	-1.0	2.0	n/a	n/a	ITI	s570
40.26	3.665	1	UA_without_intermediate	0,0,0,1,0,0,3,0,0	practice	ward_and_allport	2,3,1,0,0,0,0,0,0	71.0	3.0	3.665	0,0,0,1,2,0,3,0,0	to_hand	s570
43.926	0.423	0	UA_without_intermediate	2,0,0,1,0,0,3,0,0	practice	ward_and_allport	2,3,1,0,0,0,0,0,0	89.0	3.0	0.423	0,0,0,1,2,0,3,0,0	to_board	s570
44.351	1.72	0	UA_without_intermediate	2,0,0,1,0,0,0,0,0	practice	ward_and_allport	2,3,1,0,0,0,0,0,0	82.0	3.0	1.72	0,0,0,1,2,0,3,0,0	to_hand	s570
46.072	0.296	0	UA_without_intermediate	2,3,0,1,0,0,0,0,0	practice	ward_and_allport	2,3,1,0,0,0,0,0,0	89.0	3.0	0.296	0,0,0,1,2,0,3,0,0	to_board	s570
46.37	0.294	0	UA_without_intermediate	2,3,0,0,0,0,0,0,0	practice	ward_and_allport	2,3,1,0,0,0,0,0,0	71.0	3.0	0.294	0,0,0,1,2,0,3,0,0	to_hand	s570
46.664	0.262	0	UA_without_intermediate	2,3,1,0,0,0,0,0,0	practice	ward_and_allport	2,3,1,0,0,0,0,0,0	89.0	3.0	0.262	0,0,0,1,2,0,3,0,0	to_board	s570
46.931	1.0	0	UA_without_intermediate	n/a	practice	ward_and_allport	n/a	-1.0	3.0	n/a	n/a	feedback	s570
47.931	1.0	0	UA_without_intermediate	n/a	practice	ward_and_allport	n/a	-1.0	3.0	n/a	n/a	ITI	s570
50.936	11.036	1	PA_with_intermediate	1,2,0,0,0,0,0,0,0	test	ward_and_allport	1,0,0,0,0,0,2,3,0	89.0	0.0	11.036	1,2,3,0,0,0,0,0,0	to_hand	s570
61.973	1.996	0	PA_with_intermediate	1,2,0,3,0,0,0,0,0	test	ward_and_allport	1,0,0,0,0,0,2,3,0	71.0	0.0	1.996	1,2,3,0,0,0,0,0,0	to_board	s570
63.972	0.491	0	PA_with_intermediate	1,0,0,3,0,0,0,0,0	test	ward_and_allport	1,0,0,0,0,0,2,3,0	89.0	0.0	0.491	1,2,3,0,0,0,0,0,0	to_hand	s570
64.463	0.336	0	PA_with_intermediate	1,0,0,3,0,0,2,0,0	test	ward_and_allport	1,0,0,0,0,0,2,3,0	82.0	0.0	0.336	1,2,3,0,0,0,0,0,0	to_board	s570
64.801	0.372	0	PA_with_intermediate	1,0,0,0,0,0,2,0,0	test	ward_and_allport	1,0,0,0,0,0,2,3,0	71.0	0.0	0.372	1,2,3,0,0,0,0,0,0	to_hand	s570
65.175	0.263	0	PA_with_intermediate	1,0,0,0,0,0,2,3,0	test	ward_and_allport	1,0,0,0,0,0,2,3,0	82.0	0.0	0.263	1,2,3,0,0,0,0,0,0	to_board	s570
65.441	1.0	0	PA_with_intermediate	n/a	test	ward_and_allport	n/a	-1.0	0.0	n/a	n/a	feedback	s570
66.441	2.768	0	PA_with_intermediate	n/a	test	ward_and_allport	n/a	-1.0	0.0	n/a	n/a	ITI	s570
69.211	5.099	1	PA_with_intermediate	0,0,0,1,2,0,0,0,0	test	ward_and_allport	0,0,0,1,3,0,2,0,0	71.0	1.0	5.099	0,0,0,1,2,3,0,0,0	to_hand	s570
74.311	0.293	0	PA_with_intermediate	3,0,0,1,2,0,0,0,0	test	ward_and_allport	0,0,0,1,3,0,2,0,0	89.0	1.0	0.293	0,0,0,1,2,3,0,0,0	to_board	s570
74.606	0.749	0	PA_with_intermediate	3,0,0,1,0,0,0,0,0	test	ward_and_allport	0,0,0,1,3,0,2,0,0	71.0	1.0	0.749	0,0,0,1,2,3,0,0,0	to_hand	s570
75.356	0.391	0	PA_with_intermediate	3,0,0,1,0,0,2,0,0	test	ward_and_allport	0,0,0,1,3,0,2,0,0	82.0	1.0	0.391	0,0,0,1,2,3,0,0,0	to_board	s570
75.749	0.735	0	PA_with_intermediate	0,0,0,1,0,0,2,0,0	test	ward_and_allport	0,0,0,1,3,0,2,0,0	89.0	1.0	0.735	0,0,0,1,2,3,0,0,0	to_hand	s570
76.484	0.475	0	PA_with_intermediate	0,0,0,1,3,0,2,0,0	test	ward_and_allport	0,0,0,1,3,0,2,0,0	71.0	1.0	0.475	0,0,0,1,2,3,0,0,0	to_board	s570
76.966	1.0	0	PA_with_intermediate	n/a	test	ward_and_allport	n/a	-1.0	1.0	n/a	n/a	feedback	s570
77.966	1.68	0	PA_with_intermediate	n/a	test	ward_and_allport	n/a	-1.0	1.0	n/a	n/a	ITI	s570
79.648	3.51	1	PA_without_intermediate	1,2,0,0,0,0,0,0,0	test	ward_and_allport	0,0,0,2,0,0,3,1,0	89.0	2.0	3.51	1,2,3,0,0,0,0,0,0	to_hand	s570
83.16	0.441	0	PA_without_intermediate	1,2,0,0,0,0,3,0,0	test	ward_and_allport	0,0,0,2,0,0,3,1,0	82.0	2.0	0.441	1,2,3,0,0,0,0,0,0	to_board	s570
83.603	1.035	0	PA_without_intermediate	1,0,0,0,0,0,3,0,0	test	ward_and_allport	0,0,0,2,0,0,3,1,0	89.0	2.0	1.035	1,2,3,0,0,0,0,0,0	to_hand	s570
84.639	1.072	0	PA_without_intermediate	1,0,0,2,0,0,3,0,0	test	ward_and_allport	0,0,0,2,0,0,3,1,0	71.0	2.0	1.072	1,2,3,0,0,0,0,0,0	to_board	s570
85.712	0.353	0	PA_without_intermediate	0,0,0,2,0,0,3,0,0	test	ward_and_allport	0,0,0,2,0,0,3,1,0	89.0	2.0	0.353	1,2,3,0,0,0,0,0,0	to_hand	s570
86.067	0.357	0	PA_without_intermediate	0,0,0,2,0,0,3,1,0	test	ward_and_allport	0,0,0,2,0,0,3,1,0	82.0	2.0	0.357	1,2,3,0,0,0,0,0,0	to_board	s570
86.427	1.0	0	PA_without_intermediate	n/a	test	ward_and_allport	n/a	-1.0	2.0	n/a	n/a	feedback	s570
87.427	2.224	0	PA_without_intermediate	n/a	test	ward_and_allport	n/a	-1.0	2.0	n/a	n/a	ITI	s570
89.654	3.732	1	PA_without_intermediate	0,0,0,0,0,0,1,2,0	test	ward_and_allport	2,0,0,3,1,0,0,0,0	82.0	3.0	3.732	0,0,0,0,0,0,1,2,3	to_hand	s570
93.386	0.305	0	PA_without_intermediate	0,0,0,3,0,0,1,2,0	test	ward_and_allport	2,0,0,3,1,0,0,0,0	71.0	3.0	0.305	0,0,0,0,0,0,1,2,3	to_board	s570
93.694	1.287	0	PA_without_intermediate	0,0,0,3,0,0,1,0,0	test	ward_and_allport	2,0,0,3,1,0,0,0,0	82.0	3.0	1.287	0,0,0,0,0,0,1,2,3	to_hand	s570
94.981	0.316	0	PA_without_intermediate	2,0,0,3,0,0,1,0,0	test	ward_and_allport	2,0,0,3,1,0,0,0,0	89.0	3.0	0.316	0,0,0,0,0,0,1,2,3	to_board	s570
95.3	0.724	0	PA_without_intermediate	2,0,0,3,0,0,0,0,0	test	ward_and_allport	2,0,0,3,1,0,0,0,0	82.0	3.0	0.724	0,0,0,0,0,0,1,2,3	to_hand	s570
96.026	0.304	0	PA_without_intermediate	2,0,0,3,1,0,0,0,0	test	ward_and_allport	2,0,0,3,1,0,0,0,0	71.0	3.0	0.304	0,0,0,0,0,0,1,2,3	to_board	s570
96.335	1.0	0	PA_without_intermediate	n/a	test	ward_and_allport	n/a	-1.0	3.0	n/a	n/a	feedback	s570
97.335	2.36	0	PA_without_intermediate	n/a	test	ward_and_allport	n/a	-1.0	3.0	n/a	n/a	ITI	s570
99.698	6.152	1	PA_without_intermediate	1,2,0,0,0,0,0,0,0	test	ward_and_allport	0,0,0,3,2,0,1,0,0	89.0	4.0	6.152	1,2,3,0,0,0,0,0,0	to_hand	s570
105.851	0.351	0	PA_without_intermediate	1,2,0,3,0,0,0,0,0	test	ward_and_allport	0,0,0,3,2,0,1,0,0	71.0	4.0	0.351	1,2,3,0,0,0,0,0,0	to_board	s570
106.205	0.419	0	PA_without_intermediate	1,0,0,3,0,0,0,0,0	test	ward_and_allport	0,0,0,3,2,0,1,0,0	89.0	4.0	0.419	1,2,3,0,0,0,0,0,0	to_hand	s570
106.625	0.572	0	PA_without_intermediate	1,0,0,3,2,0,0,0,0	test	ward_and_allport	0,0,0,3,2,0,1,0,0	71.0	4.0	0.572	1,2,3,0,0,0,0,0,0	to_board	s570
107.2	0.392	0	PA_without_intermediate	0,0,0,3,2,0,0,0,0	test	ward_and_allport	0,0,0,3,2,0,1,0,0	89.0	4.0	0.392	1,2,3,0,0,0,0,0,0	to_hand	s570
107.593	0.355	0	PA_without_intermediate	0,0,0,3,2,0,1,0,0	test	ward_and_allport	0,0,0,3,2,0,1,0,0	82.0	4.0	0.355	1,2,3,0,0,0,0,0,0	to_board	s570
107.955	1.0	0	PA_without_intermediate	n/a	test	ward_and_allport	n/a	-1.0	4.0	n/a	n/a	feedback	s570
108.955	1.0	0	PA_without_intermediate	n/a	test	ward_and_allport	n/a	-1.0	4.0	n/a	n/a	ITI	s570
109.958	6.425	1	PA_without_intermediate	0,0,0,1,2,0,0,0,0	test	ward_and_allport	3,1,0,0,0,0,2,0,0	71.0	5.0	6.425	0,0,0,1,2,3,0,0,0	to_hand	s570
116.383	0.341	0	PA_without_intermediate	3,0,0,1,2,0,0,0,0	test	ward_and_allport	3,1,0,0,0,0,2,0,0	89.0	5.0	0.341	0,0,0,1,2,3,0,0,0	to_board	s570
116.728	0.466	0	PA_without_intermediate	3,0,0,1,0,0,0,0,0	test	ward_and_allport	3,1,0,0,0,0,2,0,0	71.0	5.0	0.466	0,0,0,1,2,3,0,0,0	to_hand	s570
117.194	0.531	0	PA_without_intermediate	3,0,0,1,0,0,2,0,0	test	ward_and_allport	3,1,0,0,0,0,2,0,0	82.0	5.0	0.531	0,0,0,1,2,3,0,0,0	to_board	s570
117.728	0.385	0	PA_without_intermediate	3,0,0,0,0,0,2,0,0	test	ward_and_allport	3,1,0,0,0,0,2,0,0	71.0	5.0	0.385	0,0,0,1,2,3,0,0,0	to_hand	s570
118.115	0.359	0	PA_without_intermediate	3,1,0,0,0,0,2,0,0	test	ward_and_allport	3,1,0,0,0,0,2,0,0	89.0	5.0	0.359	0,0,0,1,2,3,0,0,0	to_board	s570
118.482	1.0	0	PA_without_intermediate	n/a	test	ward_and_allport	n/a	-1.0	5.0	n/a	n/a	feedback	s570
119.482	1.408	0	PA_without_intermediate	n/a	test	ward_and_allport	n/a	-1.0	5.0	n/a	n/a	ITI	s570
120.893	5.357	1	PA_with_intermediate	0,0,0,1,2,0,0,0,0	test	ward_and_allport	0,0,0,1,3,0,2,0,0	71.0	6.0	5.357	0,0,0,1,2,3,0,0,0	to_hand	s570
126.25	0.317	0	PA_with_intermediate	3,0,0,1,2,0,0,0,0	test	ward_and_allport	0,0,0,1,3,0,2,0,0	89.0	6.0	0.317	0,0,0,1,2,3,0,0,0	to_board	s570
126.571	0.476	0	PA_with_intermediate	3,0,0,1,0,0,0,0,0	test	ward_and_allport	0,0,0,1,3,0,2,0,0	71.0	6.0	0.476	0,0,0,1,2,3,0,0,0	to_hand	s570
127.048	0.401	0	PA_with_intermediate	3,0,0,1,0,0,2,0,0	test	ward_and_allport	0,0,0,1,3,0,2,0,0	82.0	6.0	0.401	0,0,0,1,2,3,0,0,0	to_board	s570
127.452	0.443	0	PA_with_intermediate	3,0,0,0,0,0,2,0,0	test	ward_and_allport	0,0,0,1,3,0,2,0,0	71.0	6.0	0.443	0,0,0,1,2,3,0,0,0	to_hand	s570
127.896	2.572	0	PA_with_intermediate	3,0,0,1,0,0,2,0,0	test	ward_and_allport	0,0,0,1,3,0,2,0,0	71.0	6.0	2.572	0,0,0,1,2,3,0,0,0	to_board	s570
130.472	0.57	0	PA_with_intermediate	0,0,0,1,0,0,2,0,0	test	ward_and_allport	0,0,0,1,3,0,2,0,0	89.0	6.0	0.57	0,0,0,1,2,3,0,0,0	to_hand	s570
131.043	0.281	0	PA_with_intermediate	0,0,0,1,3,0,2,0,0	test	ward_and_allport	0,0,0,1,3,0,2,0,0	71.0	6.0	0.281	0,0,0,1,2,3,0,0,0	to_board	s570
131.331	1.0	0	PA_with_intermediate	n/a	test	ward_and_allport	n/a	-1.0	6.0	n/a	n/a	feedback	s570
132.331	1.136	0	PA_with_intermediate	n/a	test	ward_and_allport	n/a	-1.0	6.0	n/a	n/a	ITI	s570
133.47	1.835	1	PA_without_intermediate	0,0,0,1,2,0,0,0,0	test	ward_and_allport	1,0,0,0,0,0,3,2,0	71.0	7.0	1.835	0,0,0,1,2,3,0,0,0	to_hand	s570
135.306	0.368	0	PA_without_intermediate	0,0,0,1,2,0,3,0,0	test	ward_and_allport	1,0,0,0,0,0,3,2,0	82.0	7.0	0.368	0,0,0,1,2,3,0,0,0	to_board	s570
135.678	0.716	0	PA_without_intermediate	0,0,0,1,0,0,3,0,0	test	ward_and_allport	1,0,0,0,0,0,3,2,0	71.0	7.0	0.716	0,0,0,1,2,3,0,0,0	to_hand	s570
136.395	1.561	0	PA_without_intermediate	0,0,0,1,0,0,3,2,0	test	ward_and_allport	1,0,0,0,0,0,3,2,0	82.0	7.0	1.561	0,0,0,1,2,3,0,0,0	to_board	s570
137.96	1.205	0	PA_without_intermediate	0,0,0,0,0,0,3,2,0	test	ward_and_allport	1,0,0,0,0,0,3,2,0	71.0	7.0	1.205	0,0,0,1,2,3,0,0,0	to_hand	s570
139.166	0.313	0	PA_without_intermediate	1,0,0,0,0,0,3,2,0	test	ward_and_allport	1,0,0,0,0,0,3,2,0	89.0	7.0	0.313	0,0,0,1,2,3,0,0,0	to_board	s570
139.486	1.0	0	PA_without_intermediate	n/a	test	ward_and_allport	n/a	-1.0	7.0	n/a	n/a	feedback	s570
140.486	4.128	0	PA_without_intermediate	n/a	test	ward_and_allport	n/a	-1.0	7.0	n/a	n/a	ITI	s570
144.616	2.343	1	PA_without_intermediate	0,0,0,1,2,0,0,0,0	test	ward_and_allport	2,0,0,0,0,0,3,1,0	71.0	8.0	2.343	0,0,0,1,2,3,0,0,0	to_hand	s570
146.96	0.344	0	PA_without_intermediate	0,0,0,1,2,0,3,0,0	test	ward_and_allport	2,0,0,0,0,0,3,1,0	82.0	8.0	0.344	0,0,0,1,2,3,0,0,0	to_board	s570
147.307	1.324	0	PA_without_intermediate	0,0,0,1,0,0,3,0,0	test	ward_and_allport	2,0,0,0,0,0,3,1,0	71.0	8.0	1.324	0,0,0,1,2,3,0,0,0	to_hand	s570
148.632	0.283	0	PA_without_intermediate	2,0,0,1,0,0,3,0,0	test	ward_and_allport	2,0,0,0,0,0,3,1,0	89.0	8.0	0.283	0,0,0,1,2,3,0,0,0	to_board	s570
148.918	0.468	0	PA_without_intermediate	2,0,0,0,0,0,3,0,0	test	ward_and_allport	2,0,0,0,0,0,3,1,0	71.0	8.0	0.468	0,0,0,1,2,3,0,0,0	to_hand	s570
149.388	0.257	0	PA_without_intermediate	2,0,0,0,0,0,3,1,0	test	ward_and_allport	2,0,0,0,0,0,3,1,0	82.0	8.0	0.257	0,0,0,1,2,3,0,0,0	to_board	s570
149.651	1.0	0	PA_without_intermediate	n/a	test	ward_and_allport	n/a	-1.0	8.0	n/a	n/a	feedback	s570
150.651	1.136	0	PA_without_intermediate	n/a	test	ward_and_allport	n/a	-1.0	8.0	n/a	n/a	ITI	s570
151.791	2.945	1	PA_without_intermediate	1,2,0,0,0,0,0,0,0	test	ward_and_allport	0,0,0,2,0,0,3,1,0	89.0	9.0	2.945	1,2,3,0,0,0,0,0,0	to_hand	s570
154.736	0.33	0	PA_without_intermediate	1,2,0,3,0,0,0,0,0	test	ward_and_allport	0,0,0,2,0,0,3,1,0	71.0	9.0	0.33	1,2,3,0,0,0,0,0,0	to_board	s570
155.07	0.921	0	PA_without_intermediate	1,2,0,0,0,0,0,0,0	test	ward_and_allport	0,0,0,2,0,0,3,1,0	71.0	9.0	0.921	1,2,3,0,0,0,0,0,0	to_hand	s570
155.992	0.898	0	PA_without_intermediate	1,2,0,0,0,0,3,0,0	test	ward_and_allport	0,0,0,2,0,0,3,1,0	82.0	9.0	0.898	1,2,3,0,0,0,0,0,0	to_board	s570
156.894	1.781	0	PA_without_intermediate	1,0,0,0,0,0,3,0,0	test	ward_and_allport	0,0,0,2,0,0,3,1,0	89.0	9.0	1.781	1,2,3,0,0,0,0,0,0	to_hand	s570
158.676	0.741	0	PA_without_intermediate	1,0,0,2,0,0,3,0,0	test	ward_and_allport	0,0,0,2,0,0,3,1,0	71.0	9.0	0.741	1,2,3,0,0,0,0,0,0	to_board	s570
159.421	0.481	0	PA_without_intermediate	0,0,0,2,0,0,3,0,0	test	ward_and_allport	0,0,0,2,0,0,3,1,0	89.0	9.0	0.481	1,2,3,0,0,0,0,0,0	to_hand	s570
159.903	0.412	0	PA_without_intermediate	0,0,0,2,0,0,3,1,0	test	ward_and_allport	0,0,0,2,0,0,3,1,0	82.0	9.0	0.412	1,2,3,0,0,0,0,0,0	to_board	s570
160.322	1.0	0	PA_without_intermediate	n/a	test	ward_and_allport	n/a	-1.0	9.0	n/a	n/a	feedback	s570
161.322	4.264	0	PA_without_intermediate	n/a	test	ward_and_allport	n/a	-1.0	9.0	n/a	n/a	ITI	s570
165.592	5.553	1	PA_with_intermediate	0,0,0,0,0,0,1,2,0	test	ward_and_allport	2,0,0,0,0,0,1,3,0	82.0	10.0	5.553	0,0,0,0,0,0,1,2,3	to_hand	s570
171.146	2.052	0	PA_with_intermediate	0,0,0,3,0,0,1,2,0	test	ward_and_allport	2,0,0,0,0,0,1,3,0	71.0	10.0	2.052	0,0,0,0,0,0,1,2,3	to_board	s570
173.202	1.448	0	PA_with_intermediate	0,0,0,3,0,0,1,0,0	test	ward_and_allport	2,0,0,0,0,0,1,3,0	82.0	10.0	1.448	0,0,0,0,0,0,1,2,3	to_hand	s570
174.651	1.159	0	PA_with_intermediate	2,0,0,3,0,0,1,0,0	test	ward_and_allport	2,0,0,0,0,0,1,3,0	89.0	10.0	1.159	0,0,0,0,0,0,1,2,3	to_board	s570
175.815	1.145	0	PA_with_intermediate	2,0,0,0,0,0,1,0,0	test	ward_and_allport	2,0,0,0,0,0,1,3,0	71.0	10.0	1.145	0,0,0,0,0,0,1,2,3	to_hand	s570
176.961	1.038	0	PA_with_intermediate	2,0,0,0,0,0,1,3,0	test	ward_and_allport	2,0,0,0,0,0,1,3,0	82.0	10.0	1.038	0,0,0,0,0,0,1,2,3	to_board	s570
178.005	1.0	0	PA_with_intermediate	n/a	test	ward_and_allport	n/a	-1.0	10.0	n/a	n/a	feedback	s570
179.005	3.04	0	PA_with_intermediate	n/a	test	ward_and_allport	n/a	-1.0	10.0	n/a	n/a	ITI	s570
182.049	6.16	1	PA_with_intermediate	0,0,0,1,2,0,0,0,0	test	ward_and_allport	0,0,0,1,0,0,2,3,0	71.0	11.0	6.16	0,0,0,1,2,3,0,0,0	to_hand	s570
188.21	0.62	0	PA_with_intermediate	3,0,0,1,2,0,0,0,0	test	ward_and_allport	0,0,0,1,0,0,2,3,0	89.0	11.0	0.62	0,0,0,1,2,3,0,0,0	to_board	s570
188.834	0.528	0	PA_with_intermediate	3,0,0,1,0,0,0,0,0	test	ward_and_allport	0,0,0,1,0,0,2,3,0	71.0	11.0	0.528	0,0,0,1,2,3,0,0,0	to_hand	s570
189.364	0.363	0	PA_with_intermediate	3,0,0,1,0,0,2,0,0	test	ward_and_allport	0,0,0,1,0,0,2,3,0	82.0	11.0	0.363	0,0,0,1,2,3,0,0,0	to_board	s570
189.731	0.423	0	PA_with_intermediate	0,0,0,1,0,0,2,0,0	test	ward_and_allport	0,0,0,1,0,0,2,3,0	89.0	11.0	0.423	0,0,0,1,2,3,0,0,0	to_hand	s570
190.155	0.339	0	PA_with_intermediate	0,0,0,1,0,0,2,3,0	test	ward_and_allport	0,0,0,1,0,0,2,3,0	82.0	11.0	0.339	0,0,0,1,2,3,0,0,0	to_board	s570
190.501	1.0	0	PA_with_intermediate	n/a	test	ward_and_allport	n/a	-1.0	11.0	n/a	n/a	feedback	s570
191.501	1.136	0	PA_with_intermediate	n/a	test	ward_and_allport	n/a	-1.0	11.0	n/a	n/a	ITI	s570
192.641	4.843	1	PA_with_intermediate	1,2,0,0,0,0,0,0,0	test	ward_and_allport	1,3,0,0,0,0,2,0,0	89.0	12.0	4.843	1,2,3,0,0,0,0,0,0	to_hand	s570
197.485	0.341	0	PA_with_intermediate	1,2,0,3,0,0,0,0,0	test	ward_and_allport	1,3,0,0,0,0,2,0,0	71.0	12.0	0.341	1,2,3,0,0,0,0,0,0	to_board	s570
197.831	0.468	0	PA_with_intermediate	1,0,0,3,0,0,0,0,0	test	ward_and_allport	1,3,0,0,0,0,2,0,0	89.0	12.0	0.468	1,2,3,0,0,0,0,0,0	to_hand	s570
198.3	0.422	0	PA_with_intermediate	1,0,0,3,0,0,2,0,0	test	ward_and_allport	1,3,0,0,0,0,2,0,0	82.0	12.0	0.422	1,2,3,0,0,0,0,0,0	to_board	s570
198.726	0.524	0	PA_with_intermediate	1,0,0,0,0,0,2,0,0	test	ward_and_allport	1,3,0,0,0,0,2,0,0	71.0	12.0	0.524	1,2,3,0,0,0,0,0,0	to_hand	s570
199.251	0.396	0	PA_with_intermediate	1,3,0,0,0,0,2,0,0	test	ward_and_allport	1,3,0,0,0,0,2,0,0	89.0	12.0	0.396	1,2,3,0,0,0,0,0,0	to_board	s570
199.653	1.0	0	PA_with_intermediate	n/a	test	ward_and_allport	n/a	-1.0	12.0	n/a	n/a	feedback	s570
200.653	1.408	0	PA_with_intermediate	n/a	test	ward_and_allport	n/a	-1.0	12.0	n/a	n/a	ITI	s570
202.065	4.451	1	PA_without_intermediate	0,0,0,0,0,0,1,2,0	test	ward_and_allport	1,0,0,3,2,0,0,0,0	82.0	13.0	4.451	0,0,0,0,0,0,1,2,3	to_hand	s570
206.517	0.484	0	PA_without_intermediate	0,0,0,3,0,0,1,2,0	test	ward_and_allport	1,0,0,3,2,0,0,0,0	71.0	13.0	0.484	0,0,0,0,0,0,1,2,3	to_board	s570
207.005	0.46	0	PA_without_intermediate	0,0,0,3,0,0,1,0,0	test	ward_and_allport	1,0,0,3,2,0,0,0,0	82.0	13.0	0.46	0,0,0,0,0,0,1,2,3	to_hand	s570
207.466	0.927	0	PA_without_intermediate	0,0,0,3,2,0,1,0,0	test	ward_and_allport	1,0,0,3,2,0,0,0,0	71.0	13.0	0.927	0,0,0,0,0,0,1,2,3	to_board	s570
208.397	1.207	0	PA_without_intermediate	0,0,0,3,2,0,0,0,0	test	ward_and_allport	1,0,0,3,2,0,0,0,0	82.0	13.0	1.207	0,0,0,0,0,0,1,2,3	to_hand	s570
209.604	0.358	0	PA_without_intermediate	1,0,0,3,2,0,0,0,0	test	ward_and_allport	1,0,0,3,2,0,0,0,0	89.0	13.0	0.358	0,0,0,0,0,0,1,2,3	to_board	s570
209.972	1.0	0	PA_without_intermediate	n/a	test	ward_and_allport	n/a	-1.0	13.0	n/a	n/a	feedback	s570
210.972	1.68	0	PA_without_intermediate	n/a	test	ward_and_allport	n/a	-1.0	13.0	n/a	n/a	ITI	s570
212.657	4.305	1	PA_with_intermediate	1,2,0,0,0,0,0,0,0	test	ward_and_allport	1,0,0,2,3,0,0,0,0	89.0	14.0	4.305	1,2,3,0,0,0,0,0,0	to_hand	s570
216.963	0.267	0	PA_with_intermediate	1,2,0,0,0,0,3,0,0	test	ward_and_allport	1,0,0,2,3,0,0,0,0	82.0	14.0	0.267	1,2,3,0,0,0,0,0,0	to_board	s570
217.234	0.387	0	PA_with_intermediate	1,0,0,0,0,0,3,0,0	test	ward_and_allport	1,0,0,2,3,0,0,0,0	89.0	14.0	0.387	1,2,3,0,0,0,0,0,0	to_hand	s570
217.621	0.313	0	PA_with_intermediate	1,0,0,2,0,0,3,0,0	test	ward_and_allport	1,0,0,2,3,0,0,0,0	71.0	14.0	0.313	1,2,3,0,0,0,0,0,0	to_board	s570
217.939	0.366	0	PA_with_intermediate	1,0,0,2,0,0,0,0,0	test	ward_and_allport	1,0,0,2,3,0,0,0,0	82.0	14.0	0.366	1,2,3,0,0,0,0,0,0	to_hand	s570
218.306	0.277	0	PA_with_intermediate	1,0,0,2,3,0,0,0,0	test	ward_and_allport	1,0,0,2,3,0,0,0,0	71.0	14.0	0.277	1,2,3,0,0,0,0,0,0	to_board	s570
218.59	1.0	0	PA_with_intermediate	n/a	test	ward_and_allport	n/a	-1.0	14.0	n/a	n/a	feedback	s570
219.59	3.72	0	PA_with_intermediate	n/a	test	ward_and_allport	n/a	-1.0	14.0	n/a	n/a	ITI	s570
228.316	7.579	1	PA_without_intermediate	0,0,0,0,0,0,1,2,0	test	ward_and_allport	3,1,0,2,0,0,0,0,0	82.0	15.0	7.579	0,0,0,0,0,0,1,2,3	to_hand	s570
235.896	0.271	0	PA_without_intermediate	3,0,0,0,0,0,1,2,0	test	ward_and_allport	3,1,0,2,0,0,0,0,0	89.0	15.0	0.271	0,0,0,0,0,0,1,2,3	to_board	s570
236.172	0.531	0	PA_without_intermediate	3,0,0,0,0,0,1,0,0	test	ward_and_allport	3,1,0,2,0,0,0,0,0	82.0	15.0	0.531	0,0,0,0,0,0,1,2,3	to_hand	s570
236.703	0.304	0	PA_without_intermediate	3,0,0,2,0,0,1,0,0	test	ward_and_allport	3,1,0,2,0,0,0,0,0	71.0	15.0	0.304	0,0,0,0,0,0,1,2,3	to_board	s570
237.013	0.325	0	PA_without_intermediate	3,0,0,2,0,0,0,0,0	test	ward_and_allport	3,1,0,2,0,0,0,0,0	82.0	15.0	0.325	0,0,0,0,0,0,1,2,3	to_hand	s570
237.338	0.275	0	PA_without_intermediate	3,1,0,2,0,0,0,0,0	test	ward_and_allport	3,1,0,2,0,0,0,0,0	89.0	15.0	0.275	0,0,0,0,0,0,1,2,3	to_board	s570
237.622	1.0	0	PA_without_intermediate	n/a	test	ward_and_allport	n/a	-1.0	15.0	n/a	n/a	feedback	s570
238.622	2.224	0	PA_without_intermediate	n/a	test	ward_and_allport	n/a	-1.0	15.0	n/a	n/a	ITI	s570
240.851	3.03	1	PA_without_intermediate	0,0,0,1,2,0,0,0,0	test	ward_and_allport	1,0,0,0,0,0,3,2,0	71.0	16.0	3.03	0,0,0,1,2,3,0,0,0	to_hand	s570
243.882	0.28	0	PA_without_intermediate	0,0,0,1,2,0,3,0,0	test	ward_and_allport	1,0,0,0,0,0,3,2,0	82.0	16.0	0.28	0,0,0,1,2,3,0,0,0	to_board	s570
244.166	0.381	0	PA_without_intermediate	0,0,0,1,0,0,3,0,0	test	ward_and_allport	1,0,0,0,0,0,3,2,0	71.0	16.0	0.381	0,0,0,1,2,3,0,0,0	to_hand	s570
244.548	0.303	0	PA_without_intermediate	0,0,0,1,0,0,3,2,0	test	ward_and_allport	1,0,0,0,0,0,3,2,0	82.0	16.0	0.303	0,0,0,1,2,3,0,0,0	to_board	s570
244.856	0.518	0	PA_without_intermediate	0,0,0,0,0,0,3,2,0	test	ward_and_allport	1,0,0,0,0,0,3,2,0	71.0	16.0	0.518	0,0,0,1,2,3,0,0,0	to_hand	s570
245.375	0.306	0	PA_without_intermediate	1,0,0,0,0,0,3,2,0	test	ward_and_allport	1,0,0,0,0,0,3,2,0	89.0	16.0	0.306	0,0,0,1,2,3,0,0,0	to_board	s570
245.689	1.0	0	PA_without_intermediate	n/a	test	ward_and_allport	n/a	-1.0	16.0	n/a	n/a	feedback	s570
246.689	1.272	0	PA_without_intermediate	n/a	test	ward_and_allport	n/a	-1.0	16.0	n/a	n/a	ITI	s570
247.968	7.189	1	PA_with_intermediate	0,0,0,0,0,0,1,2,0	test	ward_and_allport	0,0,0,2,0,0,1,3,0	82.0	17.0	7.189	0,0,0,0,0,0,1,2,3	to_hand	s570
255.157	0.283	0	PA_with_intermediate	3,0,0,0,0,0,1,2,0	test	ward_and_allport	0,0,0,2,0,0,1,3,0	89.0	17.0	0.283	0,0,0,0,0,0,1,2,3	to_board	s570
255.444	0.746	0	PA_with_intermediate	3,0,0,0,0,0,1,0,0	test	ward_and_allport	0,0,0,2,0,0,1,3,0	82.0	17.0	0.746	0,0,0,0,0,0,1,2,3	to_hand	s570
256.191	0.358	0	PA_with_intermediate	3,0,0,2,0,0,1,0,0	test	ward_and_allport	0,0,0,2,0,0,1,3,0	71.0	17.0	0.358	0,0,0,0,0,0,1,2,3	to_board	s570
256.555	0.434	0	PA_with_intermediate	0,0,0,2,0,0,1,0,0	test	ward_and_allport	0,0,0,2,0,0,1,3,0	89.0	17.0	0.434	0,0,0,0,0,0,1,2,3	to_hand	s570
256.989	0.326	0	PA_with_intermediate	0,0,0,2,0,0,1,3,0	test	ward_and_allport	0,0,0,2,0,0,1,3,0	82.0	17.0	0.326	0,0,0,0,0,0,1,2,3	to_board	s570
257.322	1.0	0	PA_with_intermediate	n/a	test	ward_and_allport	n/a	-1.0	17.0	n/a	n/a	feedback	s570
258.322	2.632	0	PA_with_intermediate	n/a	test	ward_and_allport	n/a	-1.0	17.0	n/a	n/a	ITI	s570
260.959	6.552	1	PA_without_intermediate	1,2,0,0,0,0,0,0,0	test	ward_and_allport	0,0,0,3,2,0,1,0,0	89.0	18.0	6.552	1,2,3,0,0,0,0,0,0	to_hand	s570
267.511	0.245	0	PA_without_intermediate	1,2,0,3,0,0,0,0,0	test	ward_and_allport	0,0,0,3,2,0,1,0,0	71.0	18.0	0.245	1,2,3,0,0,0,0,0,0	to_board	s570
267.76	0.306	0	PA_without_intermediate	1,0,0,3,0,0,0,0,0	test	ward_and_allport	0,0,0,3,2,0,1,0,0	89.0	18.0	0.306	1,2,3,0,0,0,0,0,0	to_hand	s570
268.067	0.218	0	PA_without_intermediate	1,0,0,3,2,0,0,0,0	test	ward_and_allport	0,0,0,3,2,0,1,0,0	71.0	18.0	0.218	1,2,3,0,0,0,0,0,0	to_board	s570
268.291	0.44	0	PA_without_intermediate	0,0,0,3,2,0,0,0,0	test	ward_and_allport	0,0,0,3,2,0,1,0,0	89.0	18.0	0.44	1,2,3,0,0,0,0,0,0	to_hand	s570
268.731	0.248	0	PA_without_intermediate	0,0,0,3,2,0,1,0,0	test	ward_and_allport	0,0,0,3,2,0,1,0,0	82.0	18.0	0.248	1,2,3,0,0,0,0,0,0	to_board	s570
268.989	1.0	0	PA_without_intermediate	n/a	test	ward_and_allport	n/a	-1.0	18.0	n/a	n/a	feedback	s570
269.989	1.408	0	PA_without_intermediate	n/a	test	ward_and_allport	n/a	-1.0	18.0	n/a	n/a	ITI	s570
271.402	12.382	1	PA_without_intermediate	0,0,0,0,0,0,1,2,0	test	ward_and_allport	3,2,0,1,0,0,0,0,0	82.0	19.0	12.382	0,0,0,0,0,0,1,2,3	to_hand	s570
283.785	0.179	0	PA_without_intermediate	3,0,0,0,0,0,1,2,0	test	ward_and_allport	3,2,0,1,0,0,0,0,0	89.0	19.0	0.179	0,0,0,0,0,0,1,2,3	to_board	s570
283.969	0.232	0	PA_without_intermediate	3,0,0,0,0,0,1,0,0	test	ward_and_allport	3,2,0,1,0,0,0,0,0	82.0	19.0	0.232	0,0,0,0,0,0,1,2,3	to_hand	s570
284.201	0.21	0	PA_without_intermediate	3,2,0,0,0,0,1,0,0	test	ward_and_allport	3,2,0,1,0,0,0,0,0	89.0	19.0	0.21	0,0,0,0,0,0,1,2,3	to_board	s570
284.416	0.518	0	PA_without_intermediate	3,2,0,0,0,0,0,0,0	test	ward_and_allport	3,2,0,1,0,0,0,0,0	82.0	19.0	0.518	0,0,0,0,0,0,1,2,3	to_hand	s570
284.936	0.153	0	PA_without_intermediate	3,2,0,1,0,0,0,0,0	test	ward_and_allport	3,2,0,1,0,0,0,0,0	71.0	19.0	0.153	0,0,0,0,0,0,1,2,3	to_board	s570
285.094	1.0	0	PA_without_intermediate	n/a	test	ward_and_allport	n/a	-1.0	19.0	n/a	n/a	feedback	s570
286.094	1.0	0	PA_without_intermediate	n/a	test	ward_and_allport	n/a	-1.0	19.0	n/a	n/a	ITI	s570
287.099	11.932	1	PA_with_intermediate	1,2,0,0,0,0,0,0,0	test	ward_and_allport	1,0,0,0,0,0,2,3,0	89.0	20.0	11.932	1,2,3,0,0,0,0,0,0	to_hand	s570
299.031	0.252	0	PA_with_intermediate	1,2,0,3,0,0,0,0,0	test	ward_and_allport	1,0,0,0,0,0,2,3,0	71.0	20.0	0.252	1,2,3,0,0,0,0,0,0	to_board	s570
299.288	0.236	0	PA_with_intermediate	1,0,0,3,0,0,0,0,0	test	ward_and_allport	1,0,0,0,0,0,2,3,0	89.0	20.0	0.236	1,2,3,0,0,0,0,0,0	to_hand	s570
299.526	0.278	0	PA_with_intermediate	1,0,0,3,0,0,2,0,0	test	ward_and_allport	1,0,0,0,0,0,2,3,0	82.0	20.0	0.278	1,2,3,0,0,0,0,0,0	to_board	s570
299.809	0.256	0	PA_with_intermediate	0,0,0,3,0,0,2,0,0	test	ward_and_allport	1,0,0,0,0,0,2,3,0	89.0	20.0	0.256	1,2,3,0,0,0,0,0,0	to_hand	s570
300.065	0.865	0	PA_with_intermediate	1,0,0,3,0,0,2,0,0	test	ward_and_allport	1,0,0,0,0,0,2,3,0	89.0	20.0	0.865	1,2,3,0,0,0,0,0,0	to_board	s570
300.935	0.32	0	PA_with_intermediate	1,0,0,0,0,0,2,0,0	test	ward_and_allport	1,0,0,0,0,0,2,3,0	71.0	20.0	0.32	1,2,3,0,0,0,0,0,0	to_hand	s570
301.256	0.278	0	PA_with_intermediate	1,0,0,0,0,0,2,3,0	test	ward_and_allport	1,0,0,0,0,0,2,3,0	82.0	20.0	0.278	1,2,3,0,0,0,0,0,0	to_board	s570
301.542	1.0	0	PA_with_intermediate	n/a	test	ward_and_allport	n/a	-1.0	20.0	n/a	n/a	feedback	s570
302.542	1.0	0	PA_with_intermediate	n/a	test	ward_and_allport	n/a	-1.0	20.0	n/a	n/a	ITI	s570
303.548	7.026	1	PA_with_intermediate	1,2,0,0,0,0,0,0,0	test	ward_and_allport	1,3,0,2,0,0,0,0,0	89.0	21.0	7.026	1,2,3,0,0,0,0,0,0	to_hand	s570
310.575	0.508	0	PA_with_intermediate	1,2,0,0,0,0,3,0,0	test	ward_and_allport	1,3,0,2,0,0,0,0,0	82.0	21.0	0.508	1,2,3,0,0,0,0,0,0	to_board	s570
311.09	0.484	0	PA_with_intermediate	1,0,0,0,0,0,3,0,0	test	ward_and_allport	1,3,0,2,0,0,0,0,0	89.0	21.0	0.484	1,2,3,0,0,0,0,0,0	to_hand	s570
311.575	0.486	0	PA_with_intermediate	1,0,0,2,0,0,3,0,0	test	ward_and_allport	1,3,0,2,0,0,0,0,0	71.0	21.0	0.486	1,2,3,0,0,0,0,0,0	to_board	s570
312.066	0.632	0	PA_with_intermediate	1,0,0,2,0,0,0,0,0	test	ward_and_allport	1,3,0,2,0,0,0,0,0	82.0	21.0	0.632	1,2,3,0,0,0,0,0,0	to_hand	s570
312.699	0.403	0	PA_with_intermediate	1,3,0,2,0,0,0,0,0	test	ward_and_allport	1,3,0,2,0,0,0,0,0	89.0	21.0	0.403	1,2,3,0,0,0,0,0,0	to_board	s570
313.11	1.0	0	PA_with_intermediate	n/a	test	ward_and_allport	n/a	-1.0	21.0	n/a	n/a	feedback	s570
314.11	1.0	0	PA_with_intermediate	n/a	test	ward_and_allport	n/a	-1.0	21.0	n/a	n/a	ITI	s570
315.116	7.633	1	PA_with_intermediate	0,0,0,0,0,0,1,2,0	test	ward_and_allport	2,3,0,0,0,0,1,0,0	82.0	22.0	7.633	0,0,0,0,0,0,1,2,3	to_hand	s570
322.749	0.819	0	PA_with_intermediate	0,0,0,3,0,0,1,2,0	test	ward_and_allport	2,3,0,0,0,0,1,0,0	71.0	22.0	0.819	0,0,0,0,0,0,1,2,3	to_board	s570
323.575	0.672	0	PA_with_intermediate	0,0,0,3,0,0,1,0,0	test	ward_and_allport	2,3,0,0,0,0,1,0,0	82.0	22.0	0.672	0,0,0,0,0,0,1,2,3	to_hand	s570
324.247	0.817	0	PA_with_intermediate	2,0,0,3,0,0,1,0,0	test	ward_and_allport	2,3,0,0,0,0,1,0,0	89.0	22.0	0.817	0,0,0,0,0,0,1,2,3	to_board	s570
325.07	0.533	0	PA_with_intermediate	2,0,0,0,0,0,1,0,0	test	ward_and_allport	2,3,0,0,0,0,1,0,0	71.0	22.0	0.533	0,0,0,0,0,0,1,2,3	to_hand	s570
325.604	0.469	0	PA_with_intermediate	2,3,0,0,0,0,1,0,0	test	ward_and_allport	2,3,0,0,0,0,1,0,0	89.0	22.0	0.469	0,0,0,0,0,0,1,2,3	to_board	s570
326.084	1.0	0	PA_with_intermediate	n/a	test	ward_and_allport	n/a	-1.0	22.0	n/a	n/a	feedback	s570
327.084	1.408	0	PA_with_intermediate	n/a	test	ward_and_allport	n/a	-1.0	22.0	n/a	n/a	ITI	s570
328.498	2.565	1	PA_without_intermediate	0,0,0,1,2,0,0,0,0	test	ward_and_allport	3,1,0,0,0,0,2,0,0	71.0	23.0	2.565	0,0,0,1,2,3,0,0,0	to_hand	s570
331.063	0.364	0	PA_without_intermediate	3,0,0,1,2,0,0,0,0	test	ward_and_allport	3,1,0,0,0,0,2,0,0	89.0	23.0	0.364	0,0,0,1,2,3,0,0,0	to_board	s570
331.433	1.018	0	PA_without_intermediate	3,0,0,1,0,0,0,0,0	test	ward_and_allport	3,1,0,0,0,0,2,0,0	71.0	23.0	1.018	0,0,0,1,2,3,0,0,0	to_hand	s570
332.452	0.384	0	PA_without_intermediate	3,0,0,1,0,0,2,0,0	test	ward_and_allport	3,1,0,0,0,0,2,0,0	82.0	23.0	0.384	0,0,0,1,2,3,0,0,0	to_board	s570
332.843	0.443	0	PA_without_intermediate	3,0,0,0,0,0,2,0,0	test	ward_and_allport	3,1,0,0,0,0,2,0,0	71.0	23.0	0.443	0,0,0,1,2,3,0,0,0	to_hand	s570
333.288	0.423	0	PA_without_intermediate	3,1,0,0,0,0,2,0,0	test	ward_and_allport	3,1,0,0,0,0,2,0,0	89.0	23.0	0.423	0,0,0,1,2,3,0,0,0	to_board	s570
333.719	1.0	0	PA_without_intermediate	n/a	test	ward_and_allport	n/a	-1.0	23.0	n/a	n/a	feedback	s570
334.719	1.816	0	PA_without_intermediate	n/a	test	ward_and_allport	n/a	-1.0	23.0	n/a	n/a	ITI	s570
336.541	4.72	1	PA_with_intermediate	0,0,0,1,2,0,0,0,0	test	ward_and_allport	2,0,0,1,3,0,0,0,0	71.0	24.0	4.72	0,0,0,1,2,3,0,0,0	to_hand	s570
341.263	0.299	0	PA_with_intermediate	0,0,0,1,2,0,3,0,0	test	ward_and_allport	2,0,0,1,3,0,0,0,0	82.0	24.0	0.299	0,0,0,1,2,3,0,0,0	to_board	s570
341.569	0.286	0	PA_with_intermediate	0,0,0,1,0,0,3,0,0	test	ward_and_allport	2,0,0,1,3,0,0,0,0	71.0	24.0	0.286	0,0,0,1,2,3,0,0,0	to_hand	s570
341.855	0.275	0	PA_with_intermediate	2,0,0,1,0,0,3,0,0	test	ward_and_allport	2,0,0,1,3,0,0,0,0	89.0	24.0	0.275	0,0,0,1,2,3,0,0,0	to_board	s570
342.137	0.419	0	PA_with_intermediate	2,0,0,0,0,0,3,0,0	test	ward_and_allport	2,0,0,1,3,0,0,0,0	71.0	24.0	0.419	0,0,0,1,2,3,0,0,0	to_hand	s570
342.557	0.568	0	PA_with_intermediate	2,0,0,1,0,0,3,0,0	test	ward_and_allport	2,0,0,1,3,0,0,0,0	71.0	24.0	0.568	0,0,0,1,2,3,0,0,0	to_board	s570
343.131	0.28	0	PA_with_intermediate	2,0,0,1,0,0,0,0,0	test	ward_and_allport	2,0,0,1,3,0,0,0,0	82.0	24.0	0.28	0,0,0,1,2,3,0,0,0	to_hand	s570
343.413	0.307	0	PA_with_intermediate	2,0,0,1,3,0,0,0,0	test	ward_and_allport	2,0,0,1,3,0,0,0,0	71.0	24.0	0.307	0,0,0,1,2,3,0,0,0	to_board	s570
343.73	1.0	0	PA_with_intermediate	n/a	test	ward_and_allport	n/a	-1.0	24.0	n/a	n/a	feedback	s570
344.73	3.176	0	PA_with_intermediate	n/a	test	ward_and_allport	n/a	-1.0	24.0	n/a	n/a	ITI	s570
347.912	4.987	1	PA_with_intermediate	0,0,0,1,2,0,0,0,0	test	ward_and_allport	2,0,0,1,3,0,0,0,0	71.0	25.0	4.987	0,0,0,1,2,3,0,0,0	to_hand	s570
352.901	0.293	0	PA_with_intermediate	0,0,0,1,2,0,3,0,0	test	ward_and_allport	2,0,0,1,3,0,0,0,0	82.0	25.0	0.293	0,0,0,1,2,3,0,0,0	to_board	s570
353.2	0.539	0	PA_with_intermediate	0,0,0,1,0,0,3,0,0	test	ward_and_allport	2,0,0,1,3,0,0,0,0	71.0	25.0	0.539	0,0,0,1,2,3,0,0,0	to_hand	s570
353.74	0.318	0	PA_with_intermediate	2,0,0,1,0,0,3,0,0	test	ward_and_allport	2,0,0,1,3,0,0,0,0	89.0	25.0	0.318	0,0,0,1,2,3,0,0,0	to_board	s570
354.064	0.643	0	PA_with_intermediate	2,0,0,1,0,0,0,0,0	test	ward_and_allport	2,0,0,1,3,0,0,0,0	82.0	25.0	0.643	0,0,0,1,2,3,0,0,0	to_hand	s570
354.708	0.32	0	PA_with_intermediate	2,0,0,1,3,0,0,0,0	test	ward_and_allport	2,0,0,1,3,0,0,0,0	71.0	25.0	0.32	0,0,0,1,2,3,0,0,0	to_board	s570
355.037	1.0	0	PA_with_intermediate	n/a	test	ward_and_allport	n/a	-1.0	25.0	n/a	n/a	feedback	s570
356.037	2.36	0	PA_with_intermediate	n/a	test	ward_and_allport	n/a	-1.0	25.0	n/a	n/a	ITI	s570
358.404	3.205	1	PA_with_intermediate	0,0,0,0,0,0,1,2,0	test	ward_and_allport	2,3,0,0,0,0,1,0,0	82.0	26.0	3.205	0,0,0,0,0,0,1,2,3	to_hand	s570
361.61	0.351	0	PA_with_intermediate	0,0,0,3,0,0,1,2,0	test	ward_and_allport	2,3,0,0,0,0,1,0,0	71.0	26.0	0.351	0,0,0,0,0,0,1,2,3	to_board	s570
361.967	1.562	0	PA_with_intermediate	0,0,0,3,0,0,1,0,0	test	ward_and_allport	2,3,0,0,0,0,1,0,0	82.0	26.0	1.562	0,0,0,0,0,0,1,2,3	to_hand	s570
363.531	0.621	0	PA_with_intermediate	2,0,0,3,0,0,1,0,0	test	ward_and_allport	2,3,0,0,0,0,1,0,0	89.0	26.0	0.621	0,0,0,0,0,0,1,2,3	to_board	s570
364.158	1.073	0	PA_with_intermediate	2,0,0,0,0,0,1,0,0	test	ward_and_allport	2,3,0,0,0,0,1,0,0	71.0	26.0	1.073	0,0,0,0,0,0,1,2,3	to_hand	s570
365.233	0.298	0	PA_with_intermediate	2,3,0,0,0,0,1,0,0	test	ward_and_allport	2,3,0,0,0,0,1,0,0	89.0	26.0	0.298	0,0,0,0,0,0,1,2,3	to_board	s570
365.539	1.0	0	PA_with_intermediate	n/a	test	ward_and_allport	n/a	-1.0	26.0	n/a	n/a	feedback	s570
366.539	1.0	0	PA_with_intermediate	n/a	test	ward_and_allport	n/a	-1.0	26.0	n/a	n/a	ITI	s570
367.545	6.56	1	PA_without_intermediate	0,0,0,0,0,0,1,2,0	test	ward_and_allport	3,1,0,2,0,0,0,0,0	82.0	27.0	6.56	0,0,0,0,0,0,1,2,3	to_hand	s570
374.107	0.347	0	PA_without_intermediate	3,0,0,0,0,0,1,2,0	test	ward_and_allport	3,1,0,2,0,0,0,0,0	89.0	27.0	0.347	0,0,0,0,0,0,1,2,3	to_board	s570
374.461	0.837	0	PA_without_intermediate	3,0,0,0,0,0,1,0,0	test	ward_and_allport	3,1,0,2,0,0,0,0,0	82.0	27.0	0.837	0,0,0,0,0,0,1,2,3	to_hand	s570
375.299	0.303	0	PA_without_intermediate	3,0,0,2,0,0,1,0,0	test	ward_and_allport	3,1,0,2,0,0,0,0,0	71.0	27.0	0.303	0,0,0,0,0,0,1,2,3	to_board	s570
375.609	0.783	0	PA_without_intermediate	3,0,0,2,0,0,0,0,0	test	ward_and_allport	3,1,0,2,0,0,0,0,0	82.0	27.0	0.783	0,0,0,0,0,0,1,2,3	to_hand	s570
376.393	0.243	0	PA_without_intermediate	3,1,0,2,0,0,0,0,0	test	ward_and_allport	3,1,0,2,0,0,0,0,0	89.0	27.0	0.243	0,0,0,0,0,0,1,2,3	to_board	s570
376.646	1.0	0	PA_without_intermediate	n/a	test	ward_and_allport	n/a	-1.0	27.0	n/a	n/a	feedback	s570
377.646	1.408	0	PA_without_intermediate	n/a	test	ward_and_allport	n/a	-1.0	27.0	n/a	n/a	ITI	s570
379.061	2.944	1	PA_with_intermediate	0,0,0,0,0,0,1,2,0	test	ward_and_allport	0,0,0,2,3,0,1,0,0	82.0	28.0	2.944	0,0,0,0,0,0,1,2,3	to_hand	s570
382.006	0.236	0	PA_with_intermediate	3,0,0,0,0,0,1,2,0	test	ward_and_allport	0,0,0,2,3,0,1,0,0	89.0	28.0	0.236	0,0,0,0,0,0,1,2,3	to_board	s570
382.25	0.678	0	PA_with_intermediate	3,0,0,0,0,0,1,0,0	test	ward_and_allport	0,0,0,2,3,0,1,0,0	82.0	28.0	0.678	0,0,0,0,0,0,1,2,3	to_hand	s570
382.928	0.734	0	PA_with_intermediate	3,0,0,2,0,0,1,0,0	test	ward_and_allport	0,0,0,2,3,0,1,0,0	71.0	28.0	0.734	0,0,0,0,0,0,1,2,3	to_board	s570
383.669	1.348	0	PA_with_intermediate	0,0,0,2,0,0,1,0,0	test	ward_and_allport	0,0,0,2,3,0,1,0,0	89.0	28.0	1.348	0,0,0,0,0,0,1,2,3	to_hand	s570
385.018	0.389	0	PA_with_intermediate	0,0,0,2,3,0,1,0,0	test	ward_and_allport	0,0,0,2,3,0,1,0,0	71.0	28.0	0.389	0,0,0,0,0,0,1,2,3	to_board	s570
385.417	1.0	0	PA_with_intermediate	n/a	test	ward_and_allport	n/a	-1.0	28.0	n/a	n/a	feedback	s570
386.417	1.816	0	PA_with_intermediate	n/a	test	ward_and_allport	n/a	-1.0	28.0	n/a	n/a	ITI	s570
388.241	2.768	1	PA_without_intermediate	1,2,0,0,0,0,0,0,0	test	ward_and_allport	0,0,0,1,0,0,3,2,0	89.0	29.0	2.768	1,2,3,0,0,0,0,0,0	to_hand	s570
391.009	0.302	0	PA_without_intermediate	1,2,0,0,0,0,3,0,0	test	ward_and_allport	0,0,0,1,0,0,3,2,0	82.0	29.0	0.302	1,2,3,0,0,0,0,0,0	to_board	s570
391.319	0.446	0	PA_without_intermediate	1,0,0,0,0,0,3,0,0	test	ward_and_allport	0,0,0,1,0,0,3,2,0	89.0	29.0	0.446	1,2,3,0,0,0,0,0,0	to_hand	s570
391.765	0.348	0	PA_without_intermediate	1,0,0,0,0,0,3,2,0	test	ward_and_allport	0,0,0,1,0,0,3,2,0	82.0	29.0	0.348	1,2,3,0,0,0,0,0,0	to_board	s570
392.12	0.525	0	PA_without_intermediate	0,0,0,0,0,0,3,2,0	test	ward_and_allport	0,0,0,1,0,0,3,2,0	89.0	29.0	0.525	1,2,3,0,0,0,0,0,0	to_hand	s570
392.646	0.34	0	PA_without_intermediate	0,0,0,1,0,0,3,2,0	test	ward_and_allport	0,0,0,1,0,0,3,2,0	71.0	29.0	0.34	1,2,3,0,0,0,0,0,0	to_board	s570
392.997	1.0	0	PA_without_intermediate	n/a	test	ward_and_allport	n/a	-1.0	29.0	n/a	n/a	feedback	s570
393.997	2.088	0	PA_without_intermediate	n/a	test	ward_and_allport	n/a	-1.0	29.0	n/a	n/a	ITI	s570
401.1	4.24	1	PA_without_intermediate	0,0,0,0,0,0,1,2,0	test	ward_and_allport	2,0,0,3,1,0,0,0,0	82.0	30.0	4.24	0,0,0,0,0,0,1,2,3	to_hand	s570
405.341	0.276	0	PA_without_intermediate	0,0,0,3,0,0,1,2,0	test	ward_and_allport	2,0,0,3,1,0,0,0,0	71.0	30.0	0.276	0,0,0,0,0,0,1,2,3	to_board	s570
405.624	0.863	0	PA_without_intermediate	0,0,0,3,0,0,1,0,0	test	ward_and_allport	2,0,0,3,1,0,0,0,0	82.0	30.0	0.863	0,0,0,0,0,0,1,2,3	to_hand	s570
406.488	0.421	0	PA_without_intermediate	2,0,0,3,0,0,1,0,0	test	ward_and_allport	2,0,0,3,1,0,0,0,0	89.0	30.0	0.421	0,0,0,0,0,0,1,2,3	to_board	s570
406.919	0.743	0	PA_without_intermediate	2,0,0,3,0,0,0,0,0	test	ward_and_allport	2,0,0,3,1,0,0,0,0	82.0	30.0	0.743	0,0,0,0,0,0,1,2,3	to_hand	s570
407.663	0.491	0	PA_without_intermediate	2,0,0,3,1,0,0,0,0	test	ward_and_allport	2,0,0,3,1,0,0,0,0	71.0	30.0	0.491	0,0,0,0,0,0,1,2,3	to_board	s570
408.167	1.0	0	PA_without_intermediate	n/a	test	ward_and_allport	n/a	-1.0	30.0	n/a	n/a	feedback	s570
409.167	1.136	0	PA_without_intermediate	n/a	test	ward_and_allport	n/a	-1.0	30.0	n/a	n/a	ITI	s570
410.311	2.007	1	PA_without_intermediate	0,0,0,0,0,0,1,2,0	test	ward_and_allport	3,2,0,1,0,0,0,0,0	82.0	31.0	2.007	0,0,0,0,0,0,1,2,3	to_hand	s570
412.318	0.321	0	PA_without_intermediate	3,0,0,0,0,0,1,2,0	test	ward_and_allport	3,2,0,1,0,0,0,0,0	89.0	31.0	0.321	0,0,0,0,0,0,1,2,3	to_board	s570
412.647	0.698	0	PA_without_intermediate	3,0,0,0,0,0,1,0,0	test	ward_and_allport	3,2,0,1,0,0,0,0,0	82.0	31.0	0.698	0,0,0,0,0,0,1,2,3	to_hand	s570
413.346	0.41	0	PA_without_intermediate	3,2,0,0,0,0,1,0,0	test	ward_and_allport	3,2,0,1,0,0,0,0,0	89.0	31.0	0.41	0,0,0,0,0,0,1,2,3	to_board	s570
413.764	0.748	0	PA_without_intermediate	3,2,0,0,0,0,0,0,0	test	ward_and_allport	3,2,0,1,0,0,0,0,0	82.0	31.0	0.748	0,0,0,0,0,0,1,2,3	to_hand	s570
414.513	0.77	0	PA_without_intermediate	3,2,0,1,0,0,0,0,0	test	ward_and_allport	3,2,0,1,0,0,0,0,0	71.0	31.0	0.77	0,0,0,0,0,0,1,2,3	to_board	s570
415.295	1.0	0	PA_without_intermediate	n/a	test	ward_and_allport	n/a	-1.0	31.0	n/a	n/a	feedback	s570
416.295	6.168	0	PA_without_intermediate	n/a	test	ward_and_allport	n/a	-1.0	31.0	n/a	n/a	ITI	s570
422.468	2.824	1	PA_without_intermediate	0,0,0,1,2,0,0,0,0	test	ward_and_allport	3,2,0,0,0,0,1,0,0	71.0	32.0	2.824	0,0,0,1,2,3,0,0,0	to_hand	s570
425.294	0.261	0	PA_without_intermediate	3,0,0,1,2,0,0,0,0	test	ward_and_allport	3,2,0,0,0,0,1,0,0	89.0	32.0	0.261	0,0,0,1,2,3,0,0,0	to_board	s570
425.563	0.391	0	PA_without_intermediate	3,0,0,1,0,0,0,0,0	test	ward_and_allport	3,2,0,0,0,0,1,0,0	71.0	32.0	0.391	0,0,0,1,2,3,0,0,0	to_hand	s570
425.955	0.311	0	PA_without_intermediate	3,2,0,1,0,0,0,0,0	test	ward_and_allport	3,2,0,0,0,0,1,0,0	89.0	32.0	0.311	0,0,0,1,2,3,0,0,0	to_board	s570
426.274	0.528	0	PA_without_intermediate	3,2,0,0,0,0,0,0,0	test	ward_and_allport	3,2,0,0,0,0,1,0,0	71.0	32.0	0.528	0,0,0,1,2,3,0,0,0	to_hand	s570
426.804	0.303	0	PA_without_intermediate	3,2,0,0,0,0,1,0,0	test	ward_and_allport	3,2,0,0,0,0,1,0,0	82.0	32.0	0.303	0,0,0,1,2,3,0,0,0	to_board	s570
427.119	1.0	0	PA_without_intermediate	n/a	test	ward_and_allport	n/a	-1.0	32.0	n/a	n/a	feedback	s570
428.119	1.816	0	PA_without_intermediate	n/a	test	ward_and_allport	n/a	-1.0	32.0	n/a	n/a	ITI	s570
429.944	3.449	1	PA_with_intermediate	0,0,0,1,2,0,0,0,0	test	ward_and_allport	2,3,0,1,0,0,0,0,0	71.0	33.0	3.449	0,0,0,1,2,3,0,0,0	to_hand	s570
433.394	0.251	0	PA_with_intermediate	0,0,0,1,2,0,3,0,0	test	ward_and_allport	2,3,0,1,0,0,0,0,0	82.0	33.0	0.251	0,0,0,1,2,3,0,0,0	to_board	s570
433.65	0.408	0	PA_with_intermediate	0,0,0,1,0,0,3,0,0	test	ward_and_allport	2,3,0,1,0,0,0,0,0	71.0	33.0	0.408	0,0,0,1,2,3,0,0,0	to_hand	s570
434.06	0.311	0	PA_with_intermediate	2,0,0,1,0,0,3,0,0	test	ward_and_allport	2,3,0,1,0,0,0,0,0	89.0	33.0	0.311	0,0,0,1,2,3,0,0,0	to_board	s570
434.377	0.379	0	PA_with_intermediate	2,0,0,1,0,0,0,0,0	test	ward_and_allport	2,3,0,1,0,0,0,0,0	82.0	33.0	0.379	0,0,0,1,2,3,0,0,0	to_hand	s570
434.758	0.293	0	PA_with_intermediate	2,3,0,1,0,0,0,0,0	test	ward_and_allport	2,3,0,1,0,0,0,0,0	89.0	33.0	0.293	0,0,0,1,2,3,0,0,0	to_board	s570
435.064	1.0	0	PA_with_intermediate	n/a	test	ward_and_allport	n/a	-1.0	33.0	n/a	n/a	feedback	s570
436.064	1.952	0	PA_with_intermediate	n/a	test	ward_and_allport	n/a	-1.0	33.0	n/a	n/a	ITI	s570
438.024	1.835	1	PA_with_intermediate	0,0,0,1,2,0,0,0,0	test	ward_and_allport	0,0,0,1,0,0,2,3,0	71.0	34.0	1.835	0,0,0,1,2,3,0,0,0	to_hand	s570
439.859	0.237	0	PA_with_intermediate	0,0,0,1,2,0,3,0,0	test	ward_and_allport	0,0,0,1,0,0,2,3,0	82.0	34.0	0.237	0,0,0,1,2,3,0,0,0	to_board	s570
440.103	0.242	0	PA_with_intermediate	0,0,0,1,0,0,3,0,0	test	ward_and_allport	0,0,0,1,0,0,2,3,0	71.0	34.0	0.242	0,0,0,1,2,3,0,0,0	to_hand	s570
440.346	0.252	0	PA_with_intermediate	0,0,0,1,0,0,3,2,0	test	ward_and_allport	0,0,0,1,0,0,2,3,0	82.0	34.0	0.252	0,0,0,1,2,3,0,0,0	to_board	s570
440.607	3.034	0	PA_with_intermediate	0,0,0,1,0,0,3,0,0	test	ward_and_allport	0,0,0,1,0,0,2,3,0	82.0	34.0	3.034	0,0,0,1,2,3,0,0,0	to_hand	s570
443.642	4.988	0	PA_with_intermediate	0,0,0,1,2,0,3,0,0	test	ward_and_allport	0,0,0,1,0,0,2,3,0	71.0	34.0	4.988	0,0,0,1,2,3,0,0,0	to_board	s570
448.64	0.303	0	PA_with_intermediate	0,0,0,1,2,0,0,0,0	test	ward_and_allport	0,0,0,1,0,0,2,3,0	82.0	34.0	0.303	0,0,0,1,2,3,0,0,0	to_hand	s570
448.944	1.411	0	PA_with_intermediate	3,0,0,1,2,0,0,0,0	test	ward_and_allport	0,0,0,1,0,0,2,3,0	89.0	34.0	1.411	0,0,0,1,2,3,0,0,0	to_board	s570
450.364	0.469	0	PA_with_intermediate	3,0,0,1,0,0,0,0,0	test	ward_and_allport	0,0,0,1,0,0,2,3,0	71.0	34.0	0.469	0,0,0,1,2,3,0,0,0	to_hand	s570
450.834	0.385	0	PA_with_intermediate	3,0,0,1,0,0,2,0,0	test	ward_and_allport	0,0,0,1,0,0,2,3,0	82.0	34.0	0.385	0,0,0,1,2,3,0,0,0	to_board	s570
451.229	0.425	0	PA_with_intermediate	0,0,0,1,0,0,2,0,0	test	ward_and_allport	0,0,0,1,0,0,2,3,0	89.0	34.0	0.425	0,0,0,1,2,3,0,0,0	to_hand	s570
451.655	0.357	0	PA_with_intermediate	0,0,0,1,0,0,2,3,0	test	ward_and_allport	0,0,0,1,0,0,2,3,0	82.0	34.0	0.357	0,0,0,1,2,3,0,0,0	to_board	s570
452.024	1.0	0	PA_with_intermediate	n/a	test	ward_and_allport	n/a	-1.0	34.0	n/a	n/a	feedback	s570
453.024	1.136	0	PA_with_intermediate	n/a	test	ward_and_allport	n/a	-1.0	34.0	n/a	n/a	ITI	s570
454.168	3.254	1	PA_without_intermediate	0,0,0,0,0,0,1,2,0	test	ward_and_allport	1,0,0,3,2,0,0,0,0	82.0	35.0	3.254	0,0,0,0,0,0,1,2,3	to_hand	s570
457.425	0.435	0	PA_without_intermediate	0,0,0,3,0,0,1,2,0	test	ward_and_allport	1,0,0,3,2,0,0,0,0	71.0	35.0	0.435	0,0,0,0,0,0,1,2,3	to_board	s570
457.87	0.884	0	PA_without_intermediate	0,0,0,3,0,0,1,0,0	test	ward_and_allport	1,0,0,3,2,0,0,0,0	82.0	35.0	0.884	0,0,0,0,0,0,1,2,3	to_hand	s570
458.756	0.716	0	PA_without_intermediate	0,0,0,3,2,0,1,0,0	test	ward_and_allport	1,0,0,3,2,0,0,0,0	71.0	35.0	0.716	0,0,0,0,0,0,1,2,3	to_board	s570
459.48	0.771	0	PA_without_intermediate	0,0,0,3,2,0,0,0,0	test	ward_and_allport	1,0,0,3,2,0,0,0,0	82.0	35.0	0.771	0,0,0,0,0,0,1,2,3	to_hand	s570
460.253	0.461	0	PA_without_intermediate	1,0,0,3,2,0,0,0,0	test	ward_and_allport	1,0,0,3,2,0,0,0,0	89.0	35.0	0.461	0,0,0,0,0,0,1,2,3	to_board	s570
460.728	1.0	0	PA_without_intermediate	n/a	test	ward_and_allport	n/a	-1.0	35.0	n/a	n/a	feedback	s570
461.728	1.68	0	PA_without_intermediate	n/a	test	ward_and_allport	n/a	-1.0	35.0	n/a	n/a	ITI	s570
463.415	1.453	1	PA_without_intermediate	0,0,0,1,2,0,0,0,0	test	ward_and_allport	2,0,0,0,0,0,3,1,0	71.0	36.0	1.453	0,0,0,1,2,3,0,0,0	to_hand	s570
464.87	0.307	0	PA_without_intermediate	0,0,0,1,2,0,3,0,0	test	ward_and_allport	2,0,0,0,0,0,3,1,0	82.0	36.0	0.307	0,0,0,1,2,3,0,0,0	to_board	s570
465.183	1.01	0	PA_without_intermediate	0,0,0,1,0,0,3,0,0	test	ward_and_allport	2,0,0,0,0,0,3,1,0	71.0	36.0	1.01	0,0,0,1,2,3,0,0,0	to_hand	s570
466.194	0.292	0	PA_without_intermediate	2,0,0,1,0,0,3,0,0	test	ward_and_allport	2,0,0,0,0,0,3,1,0	89.0	36.0	0.292	0,0,0,1,2,3,0,0,0	to_board	s570
466.493	0.459	0	PA_without_intermediate	2,0,0,0,0,0,3,0,0	test	ward_and_allport	2,0,0,0,0,0,3,1,0	71.0	36.0	0.459	0,0,0,1,2,3,0,0,0	to_hand	s570
466.952	0.345	0	PA_without_intermediate	2,0,0,0,0,0,3,1,0	test	ward_and_allport	2,0,0,0,0,0,3,1,0	82.0	36.0	0.345	0,0,0,1,2,3,0,0,0	to_board	s570
467.307	1.0	0	PA_without_intermediate	n/a	test	ward_and_allport	n/a	-1.0	36.0	n/a	n/a	feedback	s570
468.307	2.088	0	PA_without_intermediate	n/a	test	ward_and_allport	n/a	-1.0	36.0	n/a	n/a	ITI	s570
470.405	3.037	1	PA_with_intermediate	0,0,0,1,2,0,0,0,0	test	ward_and_allport	2,3,0,1,0,0,0,0,0	71.0	37.0	3.037	0,0,0,1,2,3,0,0,0	to_hand	s570
473.442	0.336	0	PA_with_intermediate	0,0,0,1,2,0,3,0,0	test	ward_and_allport	2,3,0,1,0,0,0,0,0	82.0	37.0	0.336	0,0,0,1,2,3,0,0,0	to_board	s570
473.785	0.361	0	PA_with_intermediate	0,0,0,1,0,0,3,0,0	test	ward_and_allport	2,3,0,1,0,0,0,0,0	71.0	37.0	0.361	0,0,0,1,2,3,0,0,0	to_hand	s570
474.147	0.275	0	PA_with_intermediate	2,0,0,1,0,0,3,0,0	test	ward_and_allport	2,3,0,1,0,0,0,0,0	89.0	37.0	0.275	0,0,0,1,2,3,0,0,0	to_board	s570
474.43	0.34	0	PA_with_intermediate	2,0,0,1,0,0,0,0,0	test	ward_and_allport	2,3,0,1,0,0,0,0,0	82.0	37.0	0.34	0,0,0,1,2,3,0,0,0	to_hand	s570
474.771	0.266	0	PA_with_intermediate	2,0,0,1,3,0,0,0,0	test	ward_and_allport	2,3,0,1,0,0,0,0,0	71.0	37.0	0.266	0,0,0,1,2,3,0,0,0	to_board	s570
475.045	1.216	0	PA_with_intermediate	2,0,0,1,0,0,0,0,0	test	ward_and_allport	2,3,0,1,0,0,0,0,0	71.0	37.0	1.216	0,0,0,1,2,3,0,0,0	to_hand	s570
476.262	0.236	0	PA_with_intermediate	2,3,0,1,0,0,0,0,0	test	ward_and_allport	2,3,0,1,0,0,0,0,0	89.0	37.0	0.236	0,0,0,1,2,3,0,0,0	to_board	s570
476.508	1.0	0	PA_with_intermediate	n/a	test	ward_and_allport	n/a	-1.0	37.0	n/a	n/a	feedback	s570
477.508	1.0	0	PA_with_intermediate	n/a	test	ward_and_allport	n/a	-1.0	37.0	n/a	n/a	ITI	s570
478.515	3.624	1	PA_without_intermediate	1,2,0,0,0,0,0,0,0	test	ward_and_allport	0,0,0,3,1,0,2,0,0	89.0	38.0	3.624	1,2,3,0,0,0,0,0,0	to_hand	s570
482.139	0.238	0	PA_without_intermediate	1,2,0,3,0,0,0,0,0	test	ward_and_allport	0,0,0,3,1,0,2,0,0	71.0	38.0	0.238	1,2,3,0,0,0,0,0,0	to_board	s570
482.384	0.685	0	PA_without_intermediate	1,0,0,3,0,0,0,0,0	test	ward_and_allport	0,0,0,3,1,0,2,0,0	89.0	38.0	0.685	1,2,3,0,0,0,0,0,0	to_hand	s570
483.069	0.304	0	PA_without_intermediate	1,0,0,3,0,0,2,0,0	test	ward_and_allport	0,0,0,3,1,0,2,0,0	82.0	38.0	0.304	1,2,3,0,0,0,0,0,0	to_board	s570
483.383	0.715	0	PA_without_intermediate	0,0,0,3,0,0,2,0,0	test	ward_and_allport	0,0,0,3,1,0,2,0,0	89.0	38.0	0.715	1,2,3,0,0,0,0,0,0	to_hand	s570
484.099	0.177	0	PA_without_intermediate	0,0,0,3,1,0,2,0,0	test	ward_and_allport	0,0,0,3,1,0,2,0,0	71.0	38.0	0.177	1,2,3,0,0,0,0,0,0	to_board	s570
484.289	1.0	0	PA_without_intermediate	n/a	test	ward_and_allport	n/a	-1.0	38.0	n/a	n/a	feedback	s570
485.289	1.0	0	PA_without_intermediate	n/a	test	ward_and_allport	n/a	-1.0	38.0	n/a	n/a	ITI	s570
486.298	2.215	1	PA_without_intermediate	1,2,0,0,0,0,0,0,0	test	ward_and_allport	0,0,0,3,1,0,2,0,0	89.0	39.0	2.215	1,2,3,0,0,0,0,0,0	to_hand	s570
488.514	0.235	0	PA_without_intermediate	1,2,0,3,0,0,0,0,0	test	ward_and_allport	0,0,0,3,1,0,2,0,0	71.0	39.0	0.235	1,2,3,0,0,0,0,0,0	to_board	s570
488.756	0.947	0	PA_without_intermediate	1,0,0,3,0,0,0,0,0	test	ward_and_allport	0,0,0,3,1,0,2,0,0	89.0	39.0	0.947	1,2,3,0,0,0,0,0,0	to_hand	s570
489.705	0.209	0	PA_without_intermediate	1,0,0,3,0,0,2,0,0	test	ward_and_allport	0,0,0,3,1,0,2,0,0	82.0	39.0	0.209	1,2,3,0,0,0,0,0,0	to_board	s570
489.922	0.809	0	PA_without_intermediate	0,0,0,3,0,0,2,0,0	test	ward_and_allport	0,0,0,3,1,0,2,0,0	89.0	39.0	0.809	1,2,3,0,0,0,0,0,0	to_hand	s570
490.731	0.208	0	PA_without_intermediate	0,0,0,3,1,0,2,0,0	test	ward_and_allport	0,0,0,3,1,0,2,0,0	71.0	39.0	0.208	1,2,3,0,0,0,0,0,0	to_board	s570
490.951	1.0	0	PA_without_intermediate	n/a	test	ward_and_allport	n/a	-1.0	39.0	n/a	n/a	feedback	s570
491.951	1.0	0	PA_without_intermediate	n/a	test	ward_and_allport	n/a	-1.0	39.0	n/a	n/a	ITI	s570
492.962	5.346	1	PA_with_intermediate	0,0,0,0,0,0,1,2,0	test	ward_and_allport	0,0,0,2,0,0,1,3,0	82.0	40.0	5.346	0,0,0,0,0,0,1,2,3	to_hand	s570
498.309	0.189	0	PA_with_intermediate	3,0,0,0,0,0,1,2,0	test	ward_and_allport	0,0,0,2,0,0,1,3,0	89.0	40.0	0.189	0,0,0,0,0,0,1,2,3	to_board	s570
498.505	1.13	0	PA_with_intermediate	3,0,0,0,0,0,1,0,0	test	ward_and_allport	0,0,0,2,0,0,1,3,0	82.0	40.0	1.13	0,0,0,0,0,0,1,2,3	to_hand	s570
499.636	0.213	0	PA_with_intermediate	3,0,0,2,0,0,1,0,0	test	ward_and_allport	0,0,0,2,0,0,1,3,0	71.0	40.0	0.213	0,0,0,0,0,0,1,2,3	to_board	s570
499.857	0.799	0	PA_with_intermediate	0,0,0,2,0,0,1,0,0	test	ward_and_allport	0,0,0,2,0,0,1,3,0	89.0	40.0	0.799	0,0,0,0,0,0,1,2,3	to_hand	s570
500.656	0.154	0	PA_with_intermediate	0,0,0,2,0,0,1,3,0	test	ward_and_allport	0,0,0,2,0,0,1,3,0	82.0	40.0	0.154	0,0,0,0,0,0,1,2,3	to_board	s570
500.823	1.0	0	PA_with_intermediate	n/a	test	ward_and_allport	n/a	-1.0	40.0	n/a	n/a	feedback	s570
501.823	1.544	0	PA_with_intermediate	n/a	test	ward_and_allport	n/a	-1.0	40.0	n/a	n/a	ITI	s570
503.38	1.731	1	PA_without_intermediate	1,2,0,0,0,0,0,0,0	test	ward_and_allport	0,0,0,1,0,0,3,2,0	89.0	41.0	1.731	1,2,3,0,0,0,0,0,0	to_hand	s570
505.111	0.173	0	PA_without_intermediate	1,2,0,0,0,0,3,0,0	test	ward_and_allport	0,0,0,1,0,0,3,2,0	82.0	41.0	0.173	1,2,3,0,0,0,0,0,0	to_board	s570
505.299	0.727	0	PA_without_intermediate	1,0,0,0,0,0,3,0,0	test	ward_and_allport	0,0,0,1,0,0,3,2,0	89.0	41.0	0.727	1,2,3,0,0,0,0,0,0	to_hand	s570
506.027	0.165	0	PA_without_intermediate	1,0,0,0,0,0,3,2,0	test	ward_and_allport	0,0,0,1,0,0,3,2,0	82.0	41.0	0.165	1,2,3,0,0,0,0,0,0	to_board	s570
506.199	1.064	0	PA_without_intermediate	0,0,0,0,0,0,3,2,0	test	ward_and_allport	0,0,0,1,0,0,3,2,0	89.0	41.0	1.064	1,2,3,0,0,0,0,0,0	to_hand	s570
507.264	0.236	0	PA_without_intermediate	0,0,0,1,0,0,3,2,0	test	ward_and_allport	0,0,0,1,0,0,3,2,0	71.0	41.0	0.236	1,2,3,0,0,0,0,0,0	to_board	s570
507.511	1.0	0	PA_without_intermediate	n/a	test	ward_and_allport	n/a	-1.0	41.0	n/a	n/a	feedback	s570
508.511	1.272	0	PA_without_intermediate	n/a	test	ward_and_allport	n/a	-1.0	41.0	n/a	n/a	ITI	s570
509.79	4.847	1	PA_with_intermediate	1,2,0,0,0,0,0,0,0	test	ward_and_allport	1,3,0,0,0,0,2,0,0	89.0	42.0	4.847	1,2,3,0,0,0,0,0,0	to_hand	s570
514.638	0.293	0	PA_with_intermediate	1,2,0,3,0,0,0,0,0	test	ward_and_allport	1,3,0,0,0,0,2,0,0	71.0	42.0	0.293	1,2,3,0,0,0,0,0,0	to_board	s570
514.937	0.539	0	PA_with_intermediate	1,0,0,3,0,0,0,0,0	test	ward_and_allport	1,3,0,0,0,0,2,0,0	89.0	42.0	0.539	1,2,3,0,0,0,0,0,0	to_hand	s570
515.477	0.234	0	PA_with_intermediate	1,0,0,3,0,0,2,0,0	test	ward_and_allport	1,3,0,0,0,0,2,0,0	82.0	42.0	0.234	1,2,3,0,0,0,0,0,0	to_board	s570
515.722	0.692	0	PA_with_intermediate	1,0,0,0,0,0,2,0,0	test	ward_and_allport	1,3,0,0,0,0,2,0,0	71.0	42.0	0.692	1,2,3,0,0,0,0,0,0	to_hand	s570
516.415	0.175	0	PA_with_intermediate	1,3,0,0,0,0,2,0,0	test	ward_and_allport	1,3,0,0,0,0,2,0,0	89.0	42.0	0.175	1,2,3,0,0,0,0,0,0	to_board	s570
516.602	1.0	0	PA_with_intermediate	n/a	test	ward_and_allport	n/a	-1.0	42.0	n/a	n/a	feedback	s570
517.602	3.04	0	PA_with_intermediate	n/a	test	ward_and_allport	n/a	-1.0	42.0	n/a	n/a	ITI	s570
520.652	3.742	1	PA_with_intermediate	0,0,0,0,0,0,1,2,0	test	ward_and_allport	2,0,0,0,0,0,1,3,0	82.0	43.0	3.742	0,0,0,0,0,0,1,2,3	to_hand	s570
524.395	0.398	0	PA_with_intermediate	0,0,0,3,0,0,1,2,0	test	ward_and_allport	2,0,0,0,0,0,1,3,0	71.0	43.0	0.398	0,0,0,0,0,0,1,2,3	to_board	s570
524.801	0.822	0	PA_with_intermediate	0,0,0,3,0,0,1,0,0	test	ward_and_allport	2,0,0,0,0,0,1,3,0	82.0	43.0	0.822	0,0,0,0,0,0,1,2,3	to_hand	s570
525.624	0.607	0	PA_with_intermediate	2,0,0,3,0,0,1,0,0	test	ward_and_allport	2,0,0,0,0,0,1,3,0	89.0	43.0	0.607	0,0,0,0,0,0,1,2,3	to_board	s570
526.24	0.735	0	PA_with_intermediate	2,0,0,0,0,0,1,0,0	test	ward_and_allport	2,0,0,0,0,0,1,3,0	71.0	43.0	0.735	0,0,0,0,0,0,1,2,3	to_hand	s570
526.975	0.292	0	PA_with_intermediate	2,0,0,0,0,0,1,3,0	test	ward_and_allport	2,0,0,0,0,0,1,3,0	82.0	43.0	0.292	0,0,0,0,0,0,1,2,3	to_board	s570
527.277	1.0	0	PA_with_intermediate	n/a	test	ward_and_allport	n/a	-1.0	43.0	n/a	n/a	feedback	s570
528.277	1.272	0	PA_with_intermediate	n/a	test	ward_and_allport	n/a	-1.0	43.0	n/a	n/a	ITI	s570
529.56	3.532	1	PA_with_intermediate	1,2,0,0,0,0,0,0,0	test	ward_and_allport	1,3,0,2,0,0,0,0,0	89.0	44.0	3.532	1,2,3,0,0,0,0,0,0	to_hand	s570
533.094	0.314	0	PA_with_intermediate	1,2,0,0,0,0,3,0,0	test	ward_and_allport	1,3,0,2,0,0,0,0,0	82.0	44.0	0.314	1,2,3,0,0,0,0,0,0	to_board	s570
533.418	1.232	0	PA_with_intermediate	1,0,0,0,0,0,3,0,0	test	ward_and_allport	1,3,0,2,0,0,0,0,0	89.0	44.0	1.232	1,2,3,0,0,0,0,0,0	to_hand	s570
534.65	0.239	0	PA_with_intermediate	1,0,0,2,0,0,3,0,0	test	ward_and_allport	1,3,0,2,0,0,0,0,0	71.0	44.0	0.239	1,2,3,0,0,0,0,0,0	to_board	s570
534.9	0.465	0	PA_with_intermediate	1,0,0,2,0,0,0,0,0	test	ward_and_allport	1,3,0,2,0,0,0,0,0	82.0	44.0	0.465	1,2,3,0,0,0,0,0,0	to_hand	s570
535.367	0.19	0	PA_with_intermediate	1,3,0,2,0,0,0,0,0	test	ward_and_allport	1,3,0,2,0,0,0,0,0	89.0	44.0	0.19	1,2,3,0,0,0,0,0,0	to_board	s570
535.567	1.0	0	PA_with_intermediate	n/a	test	ward_and_allport	n/a	-1.0	44.0	n/a	n/a	feedback	s570
536.567	1.136	0	PA_with_intermediate	n/a	test	ward_and_allport	n/a	-1.0	44.0	n/a	n/a	ITI	s570
542.714	2.58	1	PA_with_intermediate	1,2,0,0,0,0,0,0,0	test	ward_and_allport	1,0,0,2,3,0,0,0,0	89.0	45.0	2.58	1,2,3,0,0,0,0,0,0	to_hand	s570
545.296	0.211	0	PA_with_intermediate	1,2,0,3,0,0,0,0,0	test	ward_and_allport	1,0,0,2,3,0,0,0,0	71.0	45.0	0.211	1,2,3,0,0,0,0,0,0	to_board	s570
545.517	0.311	0	PA_with_intermediate	1,0,0,3,0,0,0,0,0	test	ward_and_allport	1,0,0,2,3,0,0,0,0	89.0	45.0	0.311	1,2,3,0,0,0,0,0,0	to_hand	s570
545.829	0.175	0	PA_with_intermediate	1,0,0,3,2,0,0,0,0	test	ward_and_allport	1,0,0,2,3,0,0,0,0	71.0	45.0	0.175	1,2,3,0,0,0,0,0,0	to_board	s570
546.015	9.123	0	PA_with_intermediate	0,0,0,3,2,0,0,0,0	test	ward_and_allport	1,0,0,2,3,0,0,0,0	89.0	45.0	9.123	1,2,3,0,0,0,0,0,0	to_hand	s570
555.14	0.822	0	PA_with_intermediate	1,0,0,3,2,0,0,0,0	test	ward_and_allport	1,0,0,2,3,0,0,0,0	89.0	45.0	0.822	1,2,3,0,0,0,0,0,0	to_board	s570
555.974	0.533	0	PA_with_intermediate	1,0,0,3,0,0,0,0,0	test	ward_and_allport	1,0,0,2,3,0,0,0,0	71.0	45.0	0.533	1,2,3,0,0,0,0,0,0	to_hand	s570
556.509	0.217	0	PA_with_intermediate	1,2,0,3,0,0,0,0,0	test	ward_and_allport	1,0,0,2,3,0,0,0,0	89.0	45.0	0.217	1,2,3,0,0,0,0,0,0	to_board	s570
556.736	0.863	0	PA_with_intermediate	1,2,0,0,0,0,0,0,0	test	ward_and_allport	1,0,0,2,3,0,0,0,0	71.0	45.0	0.863	1,2,3,0,0,0,0,0,0	to_hand	s570
557.6	1.028	0	PA_with_intermediate	1,2,0,0,0,0,3,0,0	test	ward_and_allport	1,0,0,2,3,0,0,0,0	82.0	45.0	1.028	1,2,3,0,0,0,0,0,0	to_board	s570
558.64	0.439	0	PA_with_intermediate	1,0,0,0,0,0,3,0,0	test	ward_and_allport	1,0,0,2,3,0,0,0,0	89.0	45.0	0.439	1,2,3,0,0,0,0,0,0	to_hand	s570
559.081	0.298	0	PA_with_intermediate	1,0,0,2,0,0,3,0,0	test	ward_and_allport	1,0,0,2,3,0,0,0,0	71.0	45.0	0.298	1,2,3,0,0,0,0,0,0	to_board	s570
559.39	0.294	0	PA_with_intermediate	1,0,0,2,0,0,0,0,0	test	ward_and_allport	1,0,0,2,3,0,0,0,0	82.0	45.0	0.294	1,2,3,0,0,0,0,0,0	to_hand	s570
559.685	0.267	0	PA_with_intermediate	1,3,0,2,0,0,0,0,0	test	ward_and_allport	1,0,0,2,3,0,0,0,0	89.0	45.0	0.267	1,2,3,0,0,0,0,0,0	to_board	s570
559.963	0.173	0	PA_with_intermediate	1,3,0,0,0,0,0,0,0	test	ward_and_allport	1,0,0,2,3,0,0,0,0	71.0	45.0	0.173	1,2,3,0,0,0,0,0,0	to_hand	s570
560.138	0.934	0	PA_with_intermediate	1,3,0,2,0,0,0,0,0	test	ward_and_allport	1,0,0,2,3,0,0,0,0	71.0	45.0	0.934	1,2,3,0,0,0,0,0,0	to_board	s570
561.079	1.404	0	PA_with_intermediate	1,0,0,2,0,0,0,0,0	test	ward_and_allport	1,0,0,2,3,0,0,0,0	89.0	45.0	1.404	1,2,3,0,0,0,0,0,0	to_hand	s570
562.485	0.374	0	PA_with_intermediate	1,0,0,2,3,0,0,0,0	test	ward_and_allport	1,0,0,2,3,0,0,0,0	71.0	45.0	0.374	1,2,3,0,0,0,0,0,0	to_board	s570
562.873	1.0	0	PA_with_intermediate	n/a	test	ward_and_allport	n/a	-1.0	45.0	n/a	n/a	feedback	s570
563.873	1.0	0	PA_with_intermediate	n/a	test	ward_and_allport	n/a	-1.0	45.0	n/a	n/a	ITI	s570
n/a	n/a	0	n/a	n/a	n/a	n/a	n/a	n/a	n/a	n/a	n/a	ITI	n/a
