onset	duration	planning	condition	current_position	exp_stage	experiment_exp_id	goal_state	key_press	problem_id	response_time	start_state	trial_id	worker_id
-72.429	0.0	0	n/a	n/a	n/a	ward_and_allport	n/a	32.0	n/a	6.419	n/a	instructions	s519
3.009	7.368	1	UA_with_intermediate	1,0,0,2,0,0,0,0,0	practice	ward_and_allport	1,2,3,0,0,0,0,0,0	71.0	0.0	7.368	1,0,0,2,3,0,0,0,0	to_hand	s519
10.379	0.704	0	UA_with_intermediate	1,0,0,2,0,0,3,0,0	practice	ward_and_allport	1,2,3,0,0,0,0,0,0	82.0	0.0	0.704	1,0,0,2,3,0,0,0,0	to_board	s519
11.085	2.268	0	UA_with_intermediate	1,0,0,0,0,0,3,0,0	practice	ward_and_allport	1,2,3,0,0,0,0,0,0	71.0	0.0	2.268	1,0,0,2,3,0,0,0,0	to_hand	s519
13.355	0.63	0	UA_with_intermediate	1,2,0,0,0,0,3,0,0	practice	ward_and_allport	1,2,3,0,0,0,0,0,0	89.0	0.0	0.63	1,0,0,2,3,0,0,0,0	to_board	s519
13.987	1.693	0	UA_with_intermediate	1,2,0,0,0,0,0,0,0	practice	ward_and_allport	1,2,3,0,0,0,0,0,0	82.0	0.0	1.693	1,0,0,2,3,0,0,0,0	to_hand	s519
15.681	0.904	0	UA_with_intermediate	1,2,3,0,0,0,0,0,0	practice	ward_and_allport	1,2,3,0,0,0,0,0,0	89.0	0.0	0.904	1,0,0,2,3,0,0,0,0	to_board	s519
16.589	1.0	0	UA_with_intermediate	n/a	practice	ward_and_allport	n/a	-1.0	0.0	n/a	n/a	feedback	s519
19.091	3.924	1	UA_with_intermediate	1,0,0,3,0,0,0,0,0	practice	ward_and_allport	1,3,2,0,0,0,0,0,0	89.0	1.0	3.924	1,2,0,3,0,0,0,0,0	to_hand	s519
23.016	1.255	0	UA_with_intermediate	1,0,0,3,0,0,2,0,0	practice	ward_and_allport	1,3,2,0,0,0,0,0,0	82.0	1.0	1.255	1,2,0,3,0,0,0,0,0	to_board	s519
24.273	1.186	0	UA_with_intermediate	1,0,0,0,0,0,2,0,0	practice	ward_and_allport	1,3,2,0,0,0,0,0,0	71.0	1.0	1.186	1,2,0,3,0,0,0,0,0	to_hand	s519
25.459	0.3	0	UA_with_intermediate	1,3,0,0,0,0,2,0,0	practice	ward_and_allport	1,3,2,0,0,0,0,0,0	89.0	1.0	0.3	1,2,0,3,0,0,0,0,0	to_board	s519
25.761	0.501	0	UA_with_intermediate	1,3,0,0,0,0,0,0,0	practice	ward_and_allport	1,3,2,0,0,0,0,0,0	82.0	1.0	0.501	1,2,0,3,0,0,0,0,0	to_hand	s519
26.263	0.369	0	UA_with_intermediate	1,3,2,0,0,0,0,0,0	practice	ward_and_allport	1,3,2,0,0,0,0,0,0	89.0	1.0	0.369	1,2,0,3,0,0,0,0,0	to_board	s519
26.635	1.0	0	UA_with_intermediate	n/a	practice	ward_and_allport	n/a	-1.0	1.0	n/a	n/a	feedback	s519
27.635	1.1	0	UA_with_intermediate	n/a	practice	ward_and_allport	n/a	-1.0	1.0	n/a	n/a	ITI	s519
28.736	4.41	1	UA_without_intermediate	0,0,0,1,0,0,3,0,0	practice	ward_and_allport	3,2,1,0,0,0,0,0,0	71.0	2.0	4.41	0,0,0,1,2,0,3,0,0	to_hand	s519
33.148	0.518	0	UA_without_intermediate	2,0,0,1,0,0,3,0,0	practice	ward_and_allport	3,2,1,0,0,0,0,0,0	89.0	2.0	0.518	0,0,0,1,2,0,3,0,0	to_board	s519
33.668	10.371	0	UA_without_intermediate	2,0,0,1,0,0,0,0,0	practice	ward_and_allport	3,2,1,0,0,0,0,0,0	82.0	2.0	10.371	0,0,0,1,2,0,3,0,0	to_hand	s519
44.04	1.949	0	UA_without_intermediate	2,0,0,1,3,0,0,0,0	practice	ward_and_allport	3,2,1,0,0,0,0,0,0	71.0	2.0	1.949	0,0,0,1,2,0,3,0,0	to_board	s519
45.991	0.315	0	UA_without_intermediate	0,0,0,1,3,0,0,0,0	practice	ward_and_allport	3,2,1,0,0,0,0,0,0	89.0	2.0	0.315	0,0,0,1,2,0,3,0,0	to_hand	s519
46.307	1.053	0	UA_without_intermediate	0,0,0,1,3,0,2,0,0	practice	ward_and_allport	3,2,1,0,0,0,0,0,0	82.0	2.0	1.053	0,0,0,1,2,0,3,0,0	to_board	s519
47.362	2.842	0	UA_without_intermediate	0,0,0,1,0,0,2,0,0	practice	ward_and_allport	3,2,1,0,0,0,0,0,0	71.0	2.0	2.842	0,0,0,1,2,0,3,0,0	to_hand	s519
50.206	0.407	0	UA_without_intermediate	3,0,0,1,0,0,2,0,0	practice	ward_and_allport	3,2,1,0,0,0,0,0,0	89.0	2.0	0.407	0,0,0,1,2,0,3,0,0	to_board	s519
50.614	0.962	0	UA_without_intermediate	3,0,0,0,0,0,2,0,0	practice	ward_and_allport	3,2,1,0,0,0,0,0,0	71.0	2.0	0.962	0,0,0,1,2,0,3,0,0	to_hand	s519
51.577	0.326	0	UA_without_intermediate	3,1,0,0,0,0,2,0,0	practice	ward_and_allport	3,2,1,0,0,0,0,0,0	89.0	2.0	0.326	0,0,0,1,2,0,3,0,0	to_board	s519
51.906	0.466	0	UA_without_intermediate	3,1,0,0,0,0,0,0,0	practice	ward_and_allport	3,2,1,0,0,0,0,0,0	82.0	2.0	0.466	0,0,0,1,2,0,3,0,0	to_hand	s519
52.373	0.353	0	UA_without_intermediate	3,1,2,0,0,0,0,0,0	practice	ward_and_allport	3,2,1,0,0,0,0,0,0	89.0	2.0	0.353	0,0,0,1,2,0,3,0,0	to_board	s519
52.727	3.277	0	UA_without_intermediate	3,1,0,0,0,0,0,0,0	practice	ward_and_allport	3,2,1,0,0,0,0,0,0	89.0	2.0	3.277	0,0,0,1,2,0,3,0,0	to_hand	s519
56.005	0.463	0	UA_without_intermediate	3,1,0,0,0,0,2,0,0	practice	ward_and_allport	3,2,1,0,0,0,0,0,0	82.0	2.0	0.463	0,0,0,1,2,0,3,0,0	to_board	s519
56.47	1.393	0	UA_without_intermediate	3,0,0,0,0,0,2,0,0	practice	ward_and_allport	3,2,1,0,0,0,0,0,0	89.0	2.0	1.393	0,0,0,1,2,0,3,0,0	to_hand	s519
57.864	0.877	0	UA_without_intermediate	3,0,0,1,0,0,2,0,0	practice	ward_and_allport	3,2,1,0,0,0,0,0,0	71.0	2.0	0.877	0,0,0,1,2,0,3,0,0	to_board	s519
58.743	1.987	0	UA_without_intermediate	3,0,0,1,0,0,0,0,0	practice	ward_and_allport	3,2,1,0,0,0,0,0,0	82.0	2.0	1.987	0,0,0,1,2,0,3,0,0	to_hand	s519
60.732	1.058	0	UA_without_intermediate	3,2,0,1,0,0,0,0,0	practice	ward_and_allport	3,2,1,0,0,0,0,0,0	89.0	2.0	1.058	0,0,0,1,2,0,3,0,0	to_board	s519
61.791	0.909	0	UA_without_intermediate	3,2,0,0,0,0,0,0,0	practice	ward_and_allport	3,2,1,0,0,0,0,0,0	71.0	2.0	0.909	0,0,0,1,2,0,3,0,0	to_hand	s519
62.701	0.291	0	UA_without_intermediate	3,2,1,0,0,0,0,0,0	practice	ward_and_allport	3,2,1,0,0,0,0,0,0	89.0	2.0	0.291	0,0,0,1,2,0,3,0,0	to_board	s519
62.996	1.0	0	UA_without_intermediate	n/a	practice	ward_and_allport	n/a	-1.0	2.0	n/a	n/a	feedback	s519
63.996	1.2	0	UA_without_intermediate	n/a	practice	ward_and_allport	n/a	-1.0	2.0	n/a	n/a	ITI	s519
65.199	3.098	1	UA_without_intermediate	0,0,0,1,0,0,3,0,0	practice	ward_and_allport	2,3,1,0,0,0,0,0,0	71.0	3.0	3.098	0,0,0,1,2,0,3,0,0	to_hand	s519
68.297	0.485	0	UA_without_intermediate	2,0,0,1,0,0,3,0,0	practice	ward_and_allport	2,3,1,0,0,0,0,0,0	89.0	3.0	0.485	0,0,0,1,2,0,3,0,0	to_board	s519
68.785	3.489	0	UA_without_intermediate	2,0,0,1,0,0,0,0,0	practice	ward_and_allport	2,3,1,0,0,0,0,0,0	82.0	3.0	3.489	0,0,0,1,2,0,3,0,0	to_hand	s519
72.275	0.48	0	UA_without_intermediate	2,3,0,1,0,0,0,0,0	practice	ward_and_allport	2,3,1,0,0,0,0,0,0	89.0	3.0	0.48	0,0,0,1,2,0,3,0,0	to_board	s519
72.757	0.48	0	UA_without_intermediate	2,3,0,0,0,0,0,0,0	practice	ward_and_allport	2,3,1,0,0,0,0,0,0	71.0	3.0	0.48	0,0,0,1,2,0,3,0,0	to_hand	s519
73.238	0.288	0	UA_without_intermediate	2,3,1,0,0,0,0,0,0	practice	ward_and_allport	2,3,1,0,0,0,0,0,0	89.0	3.0	0.288	0,0,0,1,2,0,3,0,0	to_board	s519
73.529	1.0	0	UA_without_intermediate	n/a	practice	ward_and_allport	n/a	-1.0	3.0	n/a	n/a	feedback	s519
74.529	1.0	0	UA_without_intermediate	n/a	practice	ward_and_allport	n/a	-1.0	3.0	n/a	n/a	ITI	s519
77.536	4.001	1	PA_with_intermediate	0,0,0,1,2,0,0,0,0	test	ward_and_allport	0,0,0,1,3,0,2,0,0	71.0	0.0	4.001	0,0,0,1,2,3,0,0,0	to_hand	s519
81.539	7.122	0	PA_with_intermediate	3,0,0,1,2,0,0,0,0	test	ward_and_allport	0,0,0,1,3,0,2,0,0	89.0	0.0	7.122	0,0,0,1,2,3,0,0,0	to_board	s519
88.663	0.692	0	PA_with_intermediate	3,0,0,1,0,0,0,0,0	test	ward_and_allport	0,0,0,1,3,0,2,0,0	71.0	0.0	0.692	0,0,0,1,2,3,0,0,0	to_hand	s519
89.356	0.554	0	PA_with_intermediate	3,0,0,1,0,0,2,0,0	test	ward_and_allport	0,0,0,1,3,0,2,0,0	82.0	0.0	0.554	0,0,0,1,2,3,0,0,0	to_board	s519
89.913	3.527	0	PA_with_intermediate	0,0,0,1,0,0,2,0,0	test	ward_and_allport	0,0,0,1,3,0,2,0,0	89.0	0.0	3.527	0,0,0,1,2,3,0,0,0	to_hand	s519
93.442	0.957	0	PA_with_intermediate	0,0,0,1,3,0,2,0,0	test	ward_and_allport	0,0,0,1,3,0,2,0,0	71.0	0.0	0.957	0,0,0,1,2,3,0,0,0	to_board	s519
94.403	1.0	0	PA_with_intermediate	n/a	test	ward_and_allport	n/a	-1.0	0.0	n/a	n/a	feedback	s519
95.403	3.176	0	PA_with_intermediate	n/a	test	ward_and_allport	n/a	-1.0	0.0	n/a	n/a	ITI	s519
98.582	3.532	1	PA_with_intermediate	0,0,0,1,2,0,0,0,0	test	ward_and_allport	0,0,0,1,0,0,2,3,0	71.0	1.0	3.532	0,0,0,1,2,3,0,0,0	to_hand	s519
102.115	0.567	0	PA_with_intermediate	0,0,0,1,2,0,3,0,0	test	ward_and_allport	0,0,0,1,0,0,2,3,0	82.0	1.0	0.567	0,0,0,1,2,3,0,0,0	to_board	s519
102.684	3.354	0	PA_with_intermediate	0,0,0,1,0,0,3,0,0	test	ward_and_allport	0,0,0,1,0,0,2,3,0	71.0	1.0	3.354	0,0,0,1,2,3,0,0,0	to_hand	s519
106.039	3.258	0	PA_with_intermediate	2,0,0,1,0,0,3,0,0	test	ward_and_allport	0,0,0,1,0,0,2,3,0	89.0	1.0	3.258	0,0,0,1,2,3,0,0,0	to_board	s519
109.299	2.403	0	PA_with_intermediate	2,0,0,1,0,0,0,0,0	test	ward_and_allport	0,0,0,1,0,0,2,3,0	82.0	1.0	2.403	0,0,0,1,2,3,0,0,0	to_hand	s519
111.703	1.712	0	PA_with_intermediate	2,0,0,1,3,0,0,0,0	test	ward_and_allport	0,0,0,1,0,0,2,3,0	71.0	1.0	1.712	0,0,0,1,2,3,0,0,0	to_board	s519
113.417	0.442	0	PA_with_intermediate	0,0,0,1,3,0,0,0,0	test	ward_and_allport	0,0,0,1,0,0,2,3,0	89.0	1.0	0.442	0,0,0,1,2,3,0,0,0	to_hand	s519
113.861	1.703	0	PA_with_intermediate	0,0,0,1,3,0,2,0,0	test	ward_and_allport	0,0,0,1,0,0,2,3,0	82.0	1.0	1.703	0,0,0,1,2,3,0,0,0	to_board	s519
115.566	2.25	0	PA_with_intermediate	0,0,0,1,0,0,2,0,0	test	ward_and_allport	0,0,0,1,0,0,2,3,0	71.0	1.0	2.25	0,0,0,1,2,3,0,0,0	to_hand	s519
117.817	0.821	0	PA_with_intermediate	0,0,0,1,0,0,2,3,0	test	ward_and_allport	0,0,0,1,0,0,2,3,0	82.0	1.0	0.821	0,0,0,1,2,3,0,0,0	to_board	s519
118.642	1.0	0	PA_with_intermediate	n/a	test	ward_and_allport	n/a	-1.0	1.0	n/a	n/a	feedback	s519
119.642	2.36	0	PA_with_intermediate	n/a	test	ward_and_allport	n/a	-1.0	1.0	n/a	n/a	ITI	s519
122.006	5.275	1	PA_with_intermediate	1,2,0,0,0,0,0,0,0	test	ward_and_allport	1,3,0,0,0,0,2,0,0	89.0	2.0	5.275	1,2,3,0,0,0,0,0,0	to_hand	s519
127.282	2.344	0	PA_with_intermediate	1,2,0,3,0,0,0,0,0	test	ward_and_allport	1,3,0,0,0,0,2,0,0	71.0	2.0	2.344	1,2,3,0,0,0,0,0,0	to_board	s519
129.629	0.495	0	PA_with_intermediate	1,0,0,3,0,0,0,0,0	test	ward_and_allport	1,3,0,0,0,0,2,0,0	89.0	2.0	0.495	1,2,3,0,0,0,0,0,0	to_hand	s519
130.125	0.439	0	PA_with_intermediate	1,0,0,3,0,0,2,0,0	test	ward_and_allport	1,3,0,0,0,0,2,0,0	82.0	2.0	0.439	1,2,3,0,0,0,0,0,0	to_board	s519
130.567	0.506	0	PA_with_intermediate	1,0,0,0,0,0,2,0,0	test	ward_and_allport	1,3,0,0,0,0,2,0,0	71.0	2.0	0.506	1,2,3,0,0,0,0,0,0	to_hand	s519
131.075	0.333	0	PA_with_intermediate	1,3,0,0,0,0,2,0,0	test	ward_and_allport	1,3,0,0,0,0,2,0,0	89.0	2.0	0.333	1,2,3,0,0,0,0,0,0	to_board	s519
131.411	1.0	0	PA_with_intermediate	n/a	test	ward_and_allport	n/a	-1.0	2.0	n/a	n/a	feedback	s519
132.411	1.0	0	PA_with_intermediate	n/a	test	ward_and_allport	n/a	-1.0	2.0	n/a	n/a	ITI	s519
133.415	4.963	1	PA_without_intermediate	0,0,0,1,2,0,0,0,0	test	ward_and_allport	3,1,0,0,0,0,2,0,0	71.0	3.0	4.963	0,0,0,1,2,3,0,0,0	to_hand	s519
138.38	0.297	0	PA_without_intermediate	3,0,0,1,2,0,0,0,0	test	ward_and_allport	3,1,0,0,0,0,2,0,0	89.0	3.0	0.297	0,0,0,1,2,3,0,0,0	to_board	s519
138.68	1.429	0	PA_without_intermediate	3,0,0,1,0,0,0,0,0	test	ward_and_allport	3,1,0,0,0,0,2,0,0	71.0	3.0	1.429	0,0,0,1,2,3,0,0,0	to_hand	s519
140.109	0.354	0	PA_without_intermediate	3,0,0,1,0,0,2,0,0	test	ward_and_allport	3,1,0,0,0,0,2,0,0	82.0	3.0	0.354	0,0,0,1,2,3,0,0,0	to_board	s519
140.466	0.74	0	PA_without_intermediate	3,0,0,0,0,0,2,0,0	test	ward_and_allport	3,1,0,0,0,0,2,0,0	71.0	3.0	0.74	0,0,0,1,2,3,0,0,0	to_hand	s519
141.208	0.254	0	PA_without_intermediate	3,1,0,0,0,0,2,0,0	test	ward_and_allport	3,1,0,0,0,0,2,0,0	89.0	3.0	0.254	0,0,0,1,2,3,0,0,0	to_board	s519
141.465	1.0	0	PA_without_intermediate	n/a	test	ward_and_allport	n/a	-1.0	3.0	n/a	n/a	feedback	s519
142.465	1.408	0	PA_without_intermediate	n/a	test	ward_and_allport	n/a	-1.0	3.0	n/a	n/a	ITI	s519
143.876	2.847	1	PA_with_intermediate	1,2,0,0,0,0,0,0,0	test	ward_and_allport	1,0,0,2,3,0,0,0,0	89.0	4.0	2.847	1,2,3,0,0,0,0,0,0	to_hand	s519
146.725	1.26	0	PA_with_intermediate	1,2,0,0,0,0,3,0,0	test	ward_and_allport	1,0,0,2,3,0,0,0,0	82.0	4.0	1.26	1,2,3,0,0,0,0,0,0	to_board	s519
147.987	1.313	0	PA_with_intermediate	1,0,0,0,0,0,3,0,0	test	ward_and_allport	1,0,0,2,3,0,0,0,0	89.0	4.0	1.313	1,2,3,0,0,0,0,0,0	to_hand	s519
149.302	0.46	0	PA_with_intermediate	1,0,0,2,0,0,3,0,0	test	ward_and_allport	1,0,0,2,3,0,0,0,0	71.0	4.0	0.46	1,2,3,0,0,0,0,0,0	to_board	s519
149.764	0.575	0	PA_with_intermediate	1,0,0,2,0,0,0,0,0	test	ward_and_allport	1,0,0,2,3,0,0,0,0	82.0	4.0	0.575	1,2,3,0,0,0,0,0,0	to_hand	s519
150.34	0.469	0	PA_with_intermediate	1,0,0,2,3,0,0,0,0	test	ward_and_allport	1,0,0,2,3,0,0,0,0	71.0	4.0	0.469	1,2,3,0,0,0,0,0,0	to_board	s519
150.814	1.0	0	PA_with_intermediate	n/a	test	ward_and_allport	n/a	-1.0	4.0	n/a	n/a	feedback	s519
151.814	1.816	0	PA_with_intermediate	n/a	test	ward_and_allport	n/a	-1.0	4.0	n/a	n/a	ITI	s519
153.633	2.927	1	PA_without_intermediate	0,0,0,1,2,0,0,0,0	test	ward_and_allport	3,2,0,0,0,0,1,0,0	71.0	5.0	2.927	0,0,0,1,2,3,0,0,0	to_hand	s519
156.56	0.238	0	PA_without_intermediate	3,0,0,1,2,0,0,0,0	test	ward_and_allport	3,2,0,0,0,0,1,0,0	89.0	5.0	0.238	0,0,0,1,2,3,0,0,0	to_board	s519
156.802	1.341	0	PA_without_intermediate	3,0,0,1,0,0,0,0,0	test	ward_and_allport	3,2,0,0,0,0,1,0,0	71.0	5.0	1.341	0,0,0,1,2,3,0,0,0	to_hand	s519
158.144	0.302	0	PA_without_intermediate	3,2,0,1,0,0,0,0,0	test	ward_and_allport	3,2,0,0,0,0,1,0,0	89.0	5.0	0.302	0,0,0,1,2,3,0,0,0	to_board	s519
158.449	0.516	0	PA_without_intermediate	3,2,0,0,0,0,0,0,0	test	ward_and_allport	3,2,0,0,0,0,1,0,0	71.0	5.0	0.516	0,0,0,1,2,3,0,0,0	to_hand	s519
158.967	0.266	0	PA_without_intermediate	3,2,0,0,0,0,1,0,0	test	ward_and_allport	3,2,0,0,0,0,1,0,0	82.0	5.0	0.266	0,0,0,1,2,3,0,0,0	to_board	s519
159.239	1.0	0	PA_without_intermediate	n/a	test	ward_and_allport	n/a	-1.0	5.0	n/a	n/a	feedback	s519
160.239	2.088	0	PA_without_intermediate	n/a	test	ward_and_allport	n/a	-1.0	5.0	n/a	n/a	ITI	s519
162.33	2.014	1	PA_without_intermediate	1,2,0,0,0,0,0,0,0	test	ward_and_allport	0,0,0,1,0,0,3,2,0	89.0	6.0	2.014	1,2,3,0,0,0,0,0,0	to_hand	s519
164.344	0.681	0	PA_without_intermediate	1,2,0,0,0,0,3,0,0	test	ward_and_allport	0,0,0,1,0,0,3,2,0	82.0	6.0	0.681	1,2,3,0,0,0,0,0,0	to_board	s519
165.029	1.001	0	PA_without_intermediate	1,0,0,0,0,0,3,0,0	test	ward_and_allport	0,0,0,1,0,0,3,2,0	89.0	6.0	1.001	1,2,3,0,0,0,0,0,0	to_hand	s519
166.031	0.941	0	PA_without_intermediate	1,0,0,0,0,0,3,2,0	test	ward_and_allport	0,0,0,1,0,0,3,2,0	82.0	6.0	0.941	1,2,3,0,0,0,0,0,0	to_board	s519
166.976	1.968	0	PA_without_intermediate	0,0,0,0,0,0,3,2,0	test	ward_and_allport	0,0,0,1,0,0,3,2,0	89.0	6.0	1.968	1,2,3,0,0,0,0,0,0	to_hand	s519
168.944	0.343	0	PA_without_intermediate	0,0,0,1,0,0,3,2,0	test	ward_and_allport	0,0,0,1,0,0,3,2,0	71.0	6.0	0.343	1,2,3,0,0,0,0,0,0	to_board	s519
169.291	1.0	0	PA_without_intermediate	n/a	test	ward_and_allport	n/a	-1.0	6.0	n/a	n/a	feedback	s519
170.291	1.136	0	PA_without_intermediate	n/a	test	ward_and_allport	n/a	-1.0	6.0	n/a	n/a	ITI	s519
171.43	1.825	1	PA_without_intermediate	1,2,0,0,0,0,0,0,0	test	ward_and_allport	0,0,0,2,0,0,3,1,0	89.0	7.0	1.825	1,2,3,0,0,0,0,0,0	to_hand	s519
173.256	0.703	0	PA_without_intermediate	1,2,0,0,0,0,3,0,0	test	ward_and_allport	0,0,0,2,0,0,3,1,0	82.0	7.0	0.703	1,2,3,0,0,0,0,0,0	to_board	s519
173.962	0.978	0	PA_without_intermediate	1,0,0,0,0,0,3,0,0	test	ward_and_allport	0,0,0,2,0,0,3,1,0	89.0	7.0	0.978	1,2,3,0,0,0,0,0,0	to_hand	s519
174.941	0.349	0	PA_without_intermediate	1,0,0,2,0,0,3,0,0	test	ward_and_allport	0,0,0,2,0,0,3,1,0	71.0	7.0	0.349	1,2,3,0,0,0,0,0,0	to_board	s519
175.294	0.416	0	PA_without_intermediate	0,0,0,2,0,0,3,0,0	test	ward_and_allport	0,0,0,2,0,0,3,1,0	89.0	7.0	0.416	1,2,3,0,0,0,0,0,0	to_hand	s519
175.711	0.6	0	PA_without_intermediate	0,0,0,2,0,0,3,1,0	test	ward_and_allport	0,0,0,2,0,0,3,1,0	82.0	7.0	0.6	1,2,3,0,0,0,0,0,0	to_board	s519
176.318	1.0	0	PA_without_intermediate	n/a	test	ward_and_allport	n/a	-1.0	7.0	n/a	n/a	feedback	s519
177.318	6.168	0	PA_without_intermediate	n/a	test	ward_and_allport	n/a	-1.0	7.0	n/a	n/a	ITI	s519
183.49	2.635	1	PA_without_intermediate	1,2,0,0,0,0,0,0,0	test	ward_and_allport	0,0,0,1,0,0,3,2,0	89.0	8.0	2.635	1,2,3,0,0,0,0,0,0	to_hand	s519
186.125	0.452	0	PA_without_intermediate	1,2,0,0,0,0,3,0,0	test	ward_and_allport	0,0,0,1,0,0,3,2,0	82.0	8.0	0.452	1,2,3,0,0,0,0,0,0	to_board	s519
186.582	0.461	0	PA_without_intermediate	1,0,0,0,0,0,3,0,0	test	ward_and_allport	0,0,0,1,0,0,3,2,0	89.0	8.0	0.461	1,2,3,0,0,0,0,0,0	to_hand	s519
187.044	0.582	0	PA_without_intermediate	1,0,0,0,0,0,3,2,0	test	ward_and_allport	0,0,0,1,0,0,3,2,0	82.0	8.0	0.582	1,2,3,0,0,0,0,0,0	to_board	s519
187.63	0.374	0	PA_without_intermediate	0,0,0,0,0,0,3,2,0	test	ward_and_allport	0,0,0,1,0,0,3,2,0	89.0	8.0	0.374	1,2,3,0,0,0,0,0,0	to_hand	s519
188.008	0.28	0	PA_without_intermediate	0,0,0,1,0,0,3,2,0	test	ward_and_allport	0,0,0,1,0,0,3,2,0	71.0	8.0	0.28	1,2,3,0,0,0,0,0,0	to_board	s519
188.293	1.0	0	PA_without_intermediate	n/a	test	ward_and_allport	n/a	-1.0	8.0	n/a	n/a	feedback	s519
189.293	1.816	0	PA_without_intermediate	n/a	test	ward_and_allport	n/a	-1.0	8.0	n/a	n/a	ITI	s519
191.114	4.119	1	PA_with_intermediate	0,0,0,1,2,0,0,0,0	test	ward_and_allport	0,0,0,1,0,0,2,3,0	71.0	9.0	4.119	0,0,0,1,2,3,0,0,0	to_hand	s519
195.234	0.561	0	PA_with_intermediate	3,0,0,1,2,0,0,0,0	test	ward_and_allport	0,0,0,1,0,0,2,3,0	89.0	9.0	0.561	0,0,0,1,2,3,0,0,0	to_board	s519
195.799	0.733	0	PA_with_intermediate	3,0,0,1,0,0,0,0,0	test	ward_and_allport	0,0,0,1,0,0,2,3,0	71.0	9.0	0.733	0,0,0,1,2,3,0,0,0	to_hand	s519
196.533	0.83	0	PA_with_intermediate	3,0,0,1,0,0,2,0,0	test	ward_and_allport	0,0,0,1,0,0,2,3,0	82.0	9.0	0.83	0,0,0,1,2,3,0,0,0	to_board	s519
197.367	0.641	0	PA_with_intermediate	0,0,0,1,0,0,2,0,0	test	ward_and_allport	0,0,0,1,0,0,2,3,0	89.0	9.0	0.641	0,0,0,1,2,3,0,0,0	to_hand	s519
198.009	0.449	0	PA_with_intermediate	0,0,0,1,0,0,2,3,0	test	ward_and_allport	0,0,0,1,0,0,2,3,0	82.0	9.0	0.449	0,0,0,1,2,3,0,0,0	to_board	s519
198.464	1.0	0	PA_with_intermediate	n/a	test	ward_and_allport	n/a	-1.0	9.0	n/a	n/a	feedback	s519
199.464	1.952	0	PA_with_intermediate	n/a	test	ward_and_allport	n/a	-1.0	9.0	n/a	n/a	ITI	s519
201.42	2.209	1	PA_with_intermediate	0,0,0,1,2,0,0,0,0	test	ward_and_allport	2,3,0,1,0,0,0,0,0	71.0	10.0	2.209	0,0,0,1,2,3,0,0,0	to_hand	s519
203.63	0.331	0	PA_with_intermediate	0,0,0,1,2,0,3,0,0	test	ward_and_allport	2,3,0,1,0,0,0,0,0	82.0	10.0	0.331	0,0,0,1,2,3,0,0,0	to_board	s519
203.965	1.003	0	PA_with_intermediate	0,0,0,1,0,0,3,0,0	test	ward_and_allport	2,3,0,1,0,0,0,0,0	71.0	10.0	1.003	0,0,0,1,2,3,0,0,0	to_hand	s519
204.969	0.34	0	PA_with_intermediate	2,0,0,1,0,0,3,0,0	test	ward_and_allport	2,3,0,1,0,0,0,0,0	89.0	10.0	0.34	0,0,0,1,2,3,0,0,0	to_board	s519
205.313	0.635	0	PA_with_intermediate	2,0,0,1,0,0,0,0,0	test	ward_and_allport	2,3,0,1,0,0,0,0,0	82.0	10.0	0.635	0,0,0,1,2,3,0,0,0	to_hand	s519
205.95	0.716	0	PA_with_intermediate	2,3,0,1,0,0,0,0,0	test	ward_and_allport	2,3,0,1,0,0,0,0,0	89.0	10.0	0.716	0,0,0,1,2,3,0,0,0	to_board	s519
206.671	1.0	0	PA_with_intermediate	n/a	test	ward_and_allport	n/a	-1.0	10.0	n/a	n/a	feedback	s519
207.671	1.136	0	PA_with_intermediate	n/a	test	ward_and_allport	n/a	-1.0	10.0	n/a	n/a	ITI	s519
208.81	4.051	1	PA_without_intermediate	0,0,0,1,2,0,0,0,0	test	ward_and_allport	3,1,0,0,0,0,2,0,0	71.0	11.0	4.051	0,0,0,1,2,3,0,0,0	to_hand	s519
212.863	2.262	0	PA_without_intermediate	3,0,0,1,2,0,0,0,0	test	ward_and_allport	3,1,0,0,0,0,2,0,0	89.0	11.0	2.262	0,0,0,1,2,3,0,0,0	to_board	s519
215.129	0.792	0	PA_without_intermediate	3,0,0,1,0,0,0,0,0	test	ward_and_allport	3,1,0,0,0,0,2,0,0	71.0	11.0	0.792	0,0,0,1,2,3,0,0,0	to_hand	s519
215.923	0.283	0	PA_without_intermediate	3,0,0,1,0,0,2,0,0	test	ward_and_allport	3,1,0,0,0,0,2,0,0	82.0	11.0	0.283	0,0,0,1,2,3,0,0,0	to_board	s519
216.21	0.524	0	PA_without_intermediate	3,0,0,0,0,0,2,0,0	test	ward_and_allport	3,1,0,0,0,0,2,0,0	71.0	11.0	0.524	0,0,0,1,2,3,0,0,0	to_hand	s519
216.736	0.406	0	PA_without_intermediate	3,1,0,0,0,0,2,0,0	test	ward_and_allport	3,1,0,0,0,0,2,0,0	89.0	11.0	0.406	0,0,0,1,2,3,0,0,0	to_board	s519
217.147	1.0	0	PA_without_intermediate	n/a	test	ward_and_allport	n/a	-1.0	11.0	n/a	n/a	feedback	s519
218.147	1.68	0	PA_without_intermediate	n/a	test	ward_and_allport	n/a	-1.0	11.0	n/a	n/a	ITI	s519
219.832	3.126	1	PA_without_intermediate	0,0,0,0,0,0,1,2,0	test	ward_and_allport	1,0,0,3,2,0,0,0,0	82.0	12.0	3.126	0,0,0,0,0,0,1,2,3	to_hand	s519
222.959	0.35	0	PA_without_intermediate	0,0,0,3,0,0,1,2,0	test	ward_and_allport	1,0,0,3,2,0,0,0,0	71.0	12.0	0.35	0,0,0,0,0,0,1,2,3	to_board	s519
223.313	3.287	0	PA_without_intermediate	0,0,0,3,0,0,1,0,0	test	ward_and_allport	1,0,0,3,2,0,0,0,0	82.0	12.0	3.287	0,0,0,0,0,0,1,2,3	to_hand	s519
226.601	0.351	0	PA_without_intermediate	0,0,0,3,2,0,1,0,0	test	ward_and_allport	1,0,0,3,2,0,0,0,0	71.0	12.0	0.351	0,0,0,0,0,0,1,2,3	to_board	s519
226.956	0.829	0	PA_without_intermediate	0,0,0,3,2,0,0,0,0	test	ward_and_allport	1,0,0,3,2,0,0,0,0	82.0	12.0	0.829	0,0,0,0,0,0,1,2,3	to_hand	s519
227.786	0.579	0	PA_without_intermediate	1,0,0,3,2,0,0,0,0	test	ward_and_allport	1,0,0,3,2,0,0,0,0	89.0	12.0	0.579	0,0,0,0,0,0,1,2,3	to_board	s519
228.371	1.0	0	PA_without_intermediate	n/a	test	ward_and_allport	n/a	-1.0	12.0	n/a	n/a	feedback	s519
229.371	2.088	0	PA_without_intermediate	n/a	test	ward_and_allport	n/a	-1.0	12.0	n/a	n/a	ITI	s519
231.464	2.599	1	PA_with_intermediate	0,0,0,0,0,0,1,2,0	test	ward_and_allport	2,3,0,0,0,0,1,0,0	82.0	13.0	2.599	0,0,0,0,0,0,1,2,3	to_hand	s519
234.063	0.418	0	PA_with_intermediate	0,0,0,3,0,0,1,2,0	test	ward_and_allport	2,3,0,0,0,0,1,0,0	71.0	13.0	0.418	0,0,0,0,0,0,1,2,3	to_board	s519
234.485	1.179	0	PA_with_intermediate	0,0,0,3,0,0,1,0,0	test	ward_and_allport	2,3,0,0,0,0,1,0,0	82.0	13.0	1.179	0,0,0,0,0,0,1,2,3	to_hand	s519
235.665	0.543	0	PA_with_intermediate	2,0,0,3,0,0,1,0,0	test	ward_and_allport	2,3,0,0,0,0,1,0,0	89.0	13.0	0.543	0,0,0,0,0,0,1,2,3	to_board	s519
236.212	1.682	0	PA_with_intermediate	2,0,0,0,0,0,1,0,0	test	ward_and_allport	2,3,0,0,0,0,1,0,0	71.0	13.0	1.682	0,0,0,0,0,0,1,2,3	to_hand	s519
237.895	0.342	0	PA_with_intermediate	2,3,0,0,0,0,1,0,0	test	ward_and_allport	2,3,0,0,0,0,1,0,0	89.0	13.0	0.342	0,0,0,0,0,0,1,2,3	to_board	s519
238.243	1.0	0	PA_with_intermediate	n/a	test	ward_and_allport	n/a	-1.0	13.0	n/a	n/a	feedback	s519
239.243	1.0	0	PA_with_intermediate	n/a	test	ward_and_allport	n/a	-1.0	13.0	n/a	n/a	ITI	s519
240.248	2.524	1	PA_without_intermediate	0,0,0,0,0,0,1,2,0	test	ward_and_allport	3,1,0,2,0,0,0,0,0	82.0	14.0	2.524	0,0,0,0,0,0,1,2,3	to_hand	s519
242.772	0.568	0	PA_without_intermediate	3,0,0,0,0,0,1,2,0	test	ward_and_allport	3,1,0,2,0,0,0,0,0	89.0	14.0	0.568	0,0,0,0,0,0,1,2,3	to_board	s519
243.344	1.1	0	PA_without_intermediate	3,0,0,0,0,0,1,0,0	test	ward_and_allport	3,1,0,2,0,0,0,0,0	82.0	14.0	1.1	0,0,0,0,0,0,1,2,3	to_hand	s519
244.446	0.391	0	PA_without_intermediate	3,0,0,2,0,0,1,0,0	test	ward_and_allport	3,1,0,2,0,0,0,0,0	71.0	14.0	0.391	0,0,0,0,0,0,1,2,3	to_board	s519
244.842	0.517	0	PA_without_intermediate	3,0,0,2,0,0,0,0,0	test	ward_and_allport	3,1,0,2,0,0,0,0,0	82.0	14.0	0.517	0,0,0,0,0,0,1,2,3	to_hand	s519
245.361	0.425	0	PA_without_intermediate	3,1,0,2,0,0,0,0,0	test	ward_and_allport	3,1,0,2,0,0,0,0,0	89.0	14.0	0.425	0,0,0,0,0,0,1,2,3	to_board	s519
245.792	1.0	0	PA_without_intermediate	n/a	test	ward_and_allport	n/a	-1.0	14.0	n/a	n/a	feedback	s519
246.792	1.0	0	PA_without_intermediate	n/a	test	ward_and_allport	n/a	-1.0	14.0	n/a	n/a	ITI	s519
252.799	2.313	1	PA_without_intermediate	0,0,0,0,0,0,1,2,0	test	ward_and_allport	3,1,0,2,0,0,0,0,0	82.0	15.0	2.313	0,0,0,0,0,0,1,2,3	to_hand	s519
255.113	0.447	0	PA_without_intermediate	3,0,0,0,0,0,1,2,0	test	ward_and_allport	3,1,0,2,0,0,0,0,0	89.0	15.0	0.447	0,0,0,0,0,0,1,2,3	to_board	s519
255.565	0.843	0	PA_without_intermediate	3,0,0,0,0,0,1,0,0	test	ward_and_allport	3,1,0,2,0,0,0,0,0	82.0	15.0	0.843	0,0,0,0,0,0,1,2,3	to_hand	s519
256.409	0.829	0	PA_without_intermediate	3,0,0,2,0,0,1,0,0	test	ward_and_allport	3,1,0,2,0,0,0,0,0	71.0	15.0	0.829	0,0,0,0,0,0,1,2,3	to_board	s519
257.242	0.603	0	PA_without_intermediate	3,0,0,2,0,0,0,0,0	test	ward_and_allport	3,1,0,2,0,0,0,0,0	82.0	15.0	0.603	0,0,0,0,0,0,1,2,3	to_hand	s519
257.847	0.325	0	PA_without_intermediate	3,1,0,2,0,0,0,0,0	test	ward_and_allport	3,1,0,2,0,0,0,0,0	89.0	15.0	0.325	0,0,0,0,0,0,1,2,3	to_board	s519
258.178	1.0	0	PA_without_intermediate	n/a	test	ward_and_allport	n/a	-1.0	15.0	n/a	n/a	feedback	s519
259.178	1.0	0	PA_without_intermediate	n/a	test	ward_and_allport	n/a	-1.0	15.0	n/a	n/a	ITI	s519
260.183	4.886	1	PA_with_intermediate	0,0,0,1,2,0,0,0,0	test	ward_and_allport	0,0,0,1,3,0,2,0,0	71.0	16.0	4.886	0,0,0,1,2,3,0,0,0	to_hand	s519
265.07	0.805	0	PA_with_intermediate	3,0,0,1,2,0,0,0,0	test	ward_and_allport	0,0,0,1,3,0,2,0,0	89.0	16.0	0.805	0,0,0,1,2,3,0,0,0	to_board	s519
265.879	0.97	0	PA_with_intermediate	3,0,0,1,0,0,0,0,0	test	ward_and_allport	0,0,0,1,3,0,2,0,0	71.0	16.0	0.97	0,0,0,1,2,3,0,0,0	to_hand	s519
266.85	0.27	0	PA_with_intermediate	3,0,0,1,0,0,2,0,0	test	ward_and_allport	0,0,0,1,3,0,2,0,0	82.0	16.0	0.27	0,0,0,1,2,3,0,0,0	to_board	s519
267.125	1.053	0	PA_with_intermediate	0,0,0,1,0,0,2,0,0	test	ward_and_allport	0,0,0,1,3,0,2,0,0	89.0	16.0	1.053	0,0,0,1,2,3,0,0,0	to_hand	s519
268.179	0.302	0	PA_with_intermediate	0,0,0,1,3,0,2,0,0	test	ward_and_allport	0,0,0,1,3,0,2,0,0	71.0	16.0	0.302	0,0,0,1,2,3,0,0,0	to_board	s519
268.486	1.0	0	PA_with_intermediate	n/a	test	ward_and_allport	n/a	-1.0	16.0	n/a	n/a	feedback	s519
269.486	1.544	0	PA_with_intermediate	n/a	test	ward_and_allport	n/a	-1.0	16.0	n/a	n/a	ITI	s519
271.035	1.691	1	PA_without_intermediate	0,0,0,1,2,0,0,0,0	test	ward_and_allport	2,0,0,0,0,0,3,1,0	71.0	17.0	1.691	0,0,0,1,2,3,0,0,0	to_hand	s519
272.728	0.487	0	PA_without_intermediate	0,0,0,1,2,0,3,0,0	test	ward_and_allport	2,0,0,0,0,0,3,1,0	82.0	17.0	0.487	0,0,0,1,2,3,0,0,0	to_board	s519
273.22	0.803	0	PA_without_intermediate	0,0,0,1,0,0,3,0,0	test	ward_and_allport	2,0,0,0,0,0,3,1,0	71.0	17.0	0.803	0,0,0,1,2,3,0,0,0	to_hand	s519
274.023	0.335	0	PA_without_intermediate	2,0,0,1,0,0,3,0,0	test	ward_and_allport	2,0,0,0,0,0,3,1,0	89.0	17.0	0.335	0,0,0,1,2,3,0,0,0	to_board	s519
274.363	0.621	0	PA_without_intermediate	2,0,0,0,0,0,3,0,0	test	ward_and_allport	2,0,0,0,0,0,3,1,0	71.0	17.0	0.621	0,0,0,1,2,3,0,0,0	to_hand	s519
274.985	0.424	0	PA_without_intermediate	2,0,0,0,0,0,3,1,0	test	ward_and_allport	2,0,0,0,0,0,3,1,0	82.0	17.0	0.424	0,0,0,1,2,3,0,0,0	to_board	s519
275.415	1.0	0	PA_without_intermediate	n/a	test	ward_and_allport	n/a	-1.0	17.0	n/a	n/a	feedback	s519
276.415	1.272	0	PA_without_intermediate	n/a	test	ward_and_allport	n/a	-1.0	17.0	n/a	n/a	ITI	s519
277.693	3.137	1	PA_with_intermediate	1,2,0,0,0,0,0,0,0	test	ward_and_allport	1,0,0,0,0,0,2,3,0	89.0	18.0	3.137	1,2,3,0,0,0,0,0,0	to_hand	s519
280.83	0.382	0	PA_with_intermediate	1,2,0,3,0,0,0,0,0	test	ward_and_allport	1,0,0,0,0,0,2,3,0	71.0	18.0	0.382	1,2,3,0,0,0,0,0,0	to_board	s519
281.218	1.232	0	PA_with_intermediate	1,0,0,3,0,0,0,0,0	test	ward_and_allport	1,0,0,0,0,0,2,3,0	89.0	18.0	1.232	1,2,3,0,0,0,0,0,0	to_hand	s519
282.451	0.48	0	PA_with_intermediate	1,0,0,3,0,0,2,0,0	test	ward_and_allport	1,0,0,0,0,0,2,3,0	82.0	18.0	0.48	1,2,3,0,0,0,0,0,0	to_board	s519
282.936	2.192	0	PA_with_intermediate	1,0,0,0,0,0,2,0,0	test	ward_and_allport	1,0,0,0,0,0,2,3,0	71.0	18.0	2.192	1,2,3,0,0,0,0,0,0	to_hand	s519
285.129	0.285	0	PA_with_intermediate	1,0,0,0,0,0,2,3,0	test	ward_and_allport	1,0,0,0,0,0,2,3,0	82.0	18.0	0.285	1,2,3,0,0,0,0,0,0	to_board	s519
285.421	1.0	0	PA_with_intermediate	n/a	test	ward_and_allport	n/a	-1.0	18.0	n/a	n/a	feedback	s519
286.421	3.04	0	PA_with_intermediate	n/a	test	ward_and_allport	n/a	-1.0	18.0	n/a	n/a	ITI	s519
289.466	3.106	1	PA_with_intermediate	0,0,0,0,0,0,1,2,0	test	ward_and_allport	0,0,0,2,0,0,1,3,0	82.0	19.0	3.106	0,0,0,0,0,0,1,2,3	to_hand	s519
292.573	1.713	0	PA_with_intermediate	3,0,0,0,0,0,1,2,0	test	ward_and_allport	0,0,0,2,0,0,1,3,0	89.0	19.0	1.713	0,0,0,0,0,0,1,2,3	to_board	s519
294.292	2.276	0	PA_with_intermediate	3,0,0,0,0,0,1,0,0	test	ward_and_allport	0,0,0,2,0,0,1,3,0	82.0	19.0	2.276	0,0,0,0,0,0,1,2,3	to_hand	s519
296.57	0.309	0	PA_with_intermediate	3,0,0,2,0,0,1,0,0	test	ward_and_allport	0,0,0,2,0,0,1,3,0	71.0	19.0	0.309	0,0,0,0,0,0,1,2,3	to_board	s519
296.886	0.748	0	PA_with_intermediate	0,0,0,2,0,0,1,0,0	test	ward_and_allport	0,0,0,2,0,0,1,3,0	89.0	19.0	0.748	0,0,0,0,0,0,1,2,3	to_hand	s519
297.634	0.363	0	PA_with_intermediate	0,0,0,2,0,0,1,3,0	test	ward_and_allport	0,0,0,2,0,0,1,3,0	82.0	19.0	0.363	0,0,0,0,0,0,1,2,3	to_board	s519
298.005	1.0	0	PA_with_intermediate	n/a	test	ward_and_allport	n/a	-1.0	19.0	n/a	n/a	feedback	s519
299.005	1.272	0	PA_with_intermediate	n/a	test	ward_and_allport	n/a	-1.0	19.0	n/a	n/a	ITI	s519
300.281	1.893	1	PA_with_intermediate	1,2,0,0,0,0,0,0,0	test	ward_and_allport	1,3,0,0,0,0,2,0,0	89.0	20.0	1.893	1,2,3,0,0,0,0,0,0	to_hand	s519
302.176	1.832	0	PA_with_intermediate	1,2,0,3,0,0,0,0,0	test	ward_and_allport	1,3,0,0,0,0,2,0,0	71.0	20.0	1.832	1,2,3,0,0,0,0,0,0	to_board	s519
304.015	0.739	0	PA_with_intermediate	1,0,0,3,0,0,0,0,0	test	ward_and_allport	1,3,0,0,0,0,2,0,0	89.0	20.0	0.739	1,2,3,0,0,0,0,0,0	to_hand	s519
304.754	0.355	0	PA_with_intermediate	1,0,0,3,0,0,2,0,0	test	ward_and_allport	1,3,0,0,0,0,2,0,0	82.0	20.0	0.355	1,2,3,0,0,0,0,0,0	to_board	s519
305.116	2.123	0	PA_with_intermediate	1,0,0,0,0,0,2,0,0	test	ward_and_allport	1,3,0,0,0,0,2,0,0	71.0	20.0	2.123	1,2,3,0,0,0,0,0,0	to_hand	s519
307.24	0.304	0	PA_with_intermediate	1,3,0,0,0,0,2,0,0	test	ward_and_allport	1,3,0,0,0,0,2,0,0	89.0	20.0	0.304	1,2,3,0,0,0,0,0,0	to_board	s519
307.551	1.0	0	PA_with_intermediate	n/a	test	ward_and_allport	n/a	-1.0	20.0	n/a	n/a	feedback	s519
308.551	1.136	0	PA_with_intermediate	n/a	test	ward_and_allport	n/a	-1.0	20.0	n/a	n/a	ITI	s519
309.693	1.949	1	PA_with_intermediate	1,2,0,0,0,0,0,0,0	test	ward_and_allport	1,3,0,2,0,0,0,0,0	89.0	21.0	1.949	1,2,3,0,0,0,0,0,0	to_hand	s519
311.643	1.06	0	PA_with_intermediate	1,2,0,0,0,0,3,0,0	test	ward_and_allport	1,3,0,2,0,0,0,0,0	82.0	21.0	1.06	1,2,3,0,0,0,0,0,0	to_board	s519
312.709	2.005	0	PA_with_intermediate	1,0,0,0,0,0,3,0,0	test	ward_and_allport	1,3,0,2,0,0,0,0,0	89.0	21.0	2.005	1,2,3,0,0,0,0,0,0	to_hand	s519
314.715	0.582	0	PA_with_intermediate	1,0,0,2,0,0,3,0,0	test	ward_and_allport	1,3,0,2,0,0,0,0,0	71.0	21.0	0.582	1,2,3,0,0,0,0,0,0	to_board	s519
315.304	0.536	0	PA_with_intermediate	1,0,0,2,0,0,0,0,0	test	ward_and_allport	1,3,0,2,0,0,0,0,0	82.0	21.0	0.536	1,2,3,0,0,0,0,0,0	to_hand	s519
315.842	0.356	0	PA_with_intermediate	1,3,0,2,0,0,0,0,0	test	ward_and_allport	1,3,0,2,0,0,0,0,0	89.0	21.0	0.356	1,2,3,0,0,0,0,0,0	to_board	s519
316.206	1.0	0	PA_with_intermediate	n/a	test	ward_and_allport	n/a	-1.0	21.0	n/a	n/a	feedback	s519
317.206	1.0	0	PA_with_intermediate	n/a	test	ward_and_allport	n/a	-1.0	21.0	n/a	n/a	ITI	s519
318.213	3.504	1	PA_with_intermediate	0,0,0,1,2,0,0,0,0	test	ward_and_allport	2,3,0,1,0,0,0,0,0	71.0	22.0	3.504	0,0,0,1,2,3,0,0,0	to_hand	s519
321.717	0.38	0	PA_with_intermediate	0,0,0,1,2,0,3,0,0	test	ward_and_allport	2,3,0,1,0,0,0,0,0	82.0	22.0	0.38	0,0,0,1,2,3,0,0,0	to_board	s519
322.104	1.159	0	PA_with_intermediate	0,0,0,1,0,0,3,0,0	test	ward_and_allport	2,3,0,1,0,0,0,0,0	71.0	22.0	1.159	0,0,0,1,2,3,0,0,0	to_hand	s519
323.263	0.299	0	PA_with_intermediate	2,0,0,1,0,0,3,0,0	test	ward_and_allport	2,3,0,1,0,0,0,0,0	89.0	22.0	0.299	0,0,0,1,2,3,0,0,0	to_board	s519
323.569	1.087	0	PA_with_intermediate	2,0,0,1,0,0,0,0,0	test	ward_and_allport	2,3,0,1,0,0,0,0,0	82.0	22.0	1.087	0,0,0,1,2,3,0,0,0	to_hand	s519
324.657	0.492	0	PA_with_intermediate	2,3,0,1,0,0,0,0,0	test	ward_and_allport	2,3,0,1,0,0,0,0,0	89.0	22.0	0.492	0,0,0,1,2,3,0,0,0	to_board	s519
325.157	1.0	0	PA_with_intermediate	n/a	test	ward_and_allport	n/a	-1.0	22.0	n/a	n/a	feedback	s519
326.157	1.0	0	PA_with_intermediate	n/a	test	ward_and_allport	n/a	-1.0	22.0	n/a	n/a	ITI	s519
327.163	1.31	1	PA_without_intermediate	1,2,0,0,0,0,0,0,0	test	ward_and_allport	0,0,0,3,2,0,1,0,0	89.0	23.0	1.31	1,2,3,0,0,0,0,0,0	to_hand	s519
328.474	1.246	0	PA_without_intermediate	1,2,0,3,0,0,0,0,0	test	ward_and_allport	0,0,0,3,2,0,1,0,0	71.0	23.0	1.246	1,2,3,0,0,0,0,0,0	to_board	s519
329.726	1.282	0	PA_without_intermediate	1,0,0,3,0,0,0,0,0	test	ward_and_allport	0,0,0,3,2,0,1,0,0	89.0	23.0	1.282	1,2,3,0,0,0,0,0,0	to_hand	s519
331.009	0.523	0	PA_without_intermediate	1,0,0,3,2,0,0,0,0	test	ward_and_allport	0,0,0,3,2,0,1,0,0	71.0	23.0	0.523	1,2,3,0,0,0,0,0,0	to_board	s519
331.538	0.876	0	PA_without_intermediate	0,0,0,3,2,0,0,0,0	test	ward_and_allport	0,0,0,3,2,0,1,0,0	89.0	23.0	0.876	1,2,3,0,0,0,0,0,0	to_hand	s519
332.415	0.319	0	PA_without_intermediate	0,0,0,3,2,0,1,0,0	test	ward_and_allport	0,0,0,3,2,0,1,0,0	82.0	23.0	0.319	1,2,3,0,0,0,0,0,0	to_board	s519
332.742	1.0	0	PA_without_intermediate	n/a	test	ward_and_allport	n/a	-1.0	23.0	n/a	n/a	feedback	s519
333.742	1.408	0	PA_without_intermediate	n/a	test	ward_and_allport	n/a	-1.0	23.0	n/a	n/a	ITI	s519
335.157	2.611	1	PA_with_intermediate	0,0,0,1,2,0,0,0,0	test	ward_and_allport	2,0,0,1,3,0,0,0,0	71.0	24.0	2.611	0,0,0,1,2,3,0,0,0	to_hand	s519
337.768	0.987	0	PA_with_intermediate	0,0,0,1,2,0,3,0,0	test	ward_and_allport	2,0,0,1,3,0,0,0,0	82.0	24.0	0.987	0,0,0,1,2,3,0,0,0	to_board	s519
338.763	0.314	0	PA_with_intermediate	0,0,0,1,0,0,3,0,0	test	ward_and_allport	2,0,0,1,3,0,0,0,0	71.0	24.0	0.314	0,0,0,1,2,3,0,0,0	to_hand	s519
339.077	0.318	0	PA_with_intermediate	2,0,0,1,0,0,3,0,0	test	ward_and_allport	2,0,0,1,3,0,0,0,0	89.0	24.0	0.318	0,0,0,1,2,3,0,0,0	to_board	s519
339.403	0.637	0	PA_with_intermediate	2,0,0,1,0,0,0,0,0	test	ward_and_allport	2,0,0,1,3,0,0,0,0	82.0	24.0	0.637	0,0,0,1,2,3,0,0,0	to_hand	s519
340.041	0.231	0	PA_with_intermediate	2,0,0,1,3,0,0,0,0	test	ward_and_allport	2,0,0,1,3,0,0,0,0	71.0	24.0	0.231	0,0,0,1,2,3,0,0,0	to_board	s519
340.28	1.0	0	PA_with_intermediate	n/a	test	ward_and_allport	n/a	-1.0	24.0	n/a	n/a	feedback	s519
341.28	2.768	0	PA_with_intermediate	n/a	test	ward_and_allport	n/a	-1.0	24.0	n/a	n/a	ITI	s519
344.055	2.189	1	PA_with_intermediate	0,0,0,0,0,0,1,2,0	test	ward_and_allport	0,0,0,2,3,0,1,0,0	82.0	25.0	2.189	0,0,0,0,0,0,1,2,3	to_hand	s519
346.245	0.47	0	PA_with_intermediate	3,0,0,0,0,0,1,2,0	test	ward_and_allport	0,0,0,2,3,0,1,0,0	89.0	25.0	0.47	0,0,0,0,0,0,1,2,3	to_board	s519
346.722	3.079	0	PA_with_intermediate	3,0,0,0,0,0,1,0,0	test	ward_and_allport	0,0,0,2,3,0,1,0,0	82.0	25.0	3.079	0,0,0,0,0,0,1,2,3	to_hand	s519
349.802	0.326	0	PA_with_intermediate	3,0,0,2,0,0,1,0,0	test	ward_and_allport	0,0,0,2,3,0,1,0,0	71.0	25.0	0.326	0,0,0,0,0,0,1,2,3	to_board	s519
350.134	0.353	0	PA_with_intermediate	0,0,0,2,0,0,1,0,0	test	ward_and_allport	0,0,0,2,3,0,1,0,0	89.0	25.0	0.353	0,0,0,0,0,0,1,2,3	to_hand	s519
350.488	0.26	0	PA_with_intermediate	0,0,0,2,3,0,1,0,0	test	ward_and_allport	0,0,0,2,3,0,1,0,0	71.0	25.0	0.26	0,0,0,0,0,0,1,2,3	to_board	s519
350.757	1.0	0	PA_with_intermediate	n/a	test	ward_and_allport	n/a	-1.0	25.0	n/a	n/a	feedback	s519
351.757	1.68	0	PA_with_intermediate	n/a	test	ward_and_allport	n/a	-1.0	25.0	n/a	n/a	ITI	s519
353.444	2.172	1	PA_without_intermediate	0,0,0,0,0,0,1,2,0	test	ward_and_allport	2,0,0,3,1,0,0,0,0	82.0	26.0	2.172	0,0,0,0,0,0,1,2,3	to_hand	s519
355.618	0.439	0	PA_without_intermediate	0,0,0,3,0,0,1,2,0	test	ward_and_allport	2,0,0,3,1,0,0,0,0	71.0	26.0	0.439	0,0,0,0,0,0,1,2,3	to_board	s519
356.064	1.407	0	PA_without_intermediate	0,0,0,3,0,0,1,0,0	test	ward_and_allport	2,0,0,3,1,0,0,0,0	82.0	26.0	1.407	0,0,0,0,0,0,1,2,3	to_hand	s519
357.473	0.275	0	PA_without_intermediate	2,0,0,3,0,0,1,0,0	test	ward_and_allport	2,0,0,3,1,0,0,0,0	89.0	26.0	0.275	0,0,0,0,0,0,1,2,3	to_board	s519
357.755	1.097	0	PA_without_intermediate	2,0,0,3,0,0,0,0,0	test	ward_and_allport	2,0,0,3,1,0,0,0,0	82.0	26.0	1.097	0,0,0,0,0,0,1,2,3	to_hand	s519
358.853	0.245	0	PA_without_intermediate	2,0,0,3,1,0,0,0,0	test	ward_and_allport	2,0,0,3,1,0,0,0,0	71.0	26.0	0.245	0,0,0,0,0,0,1,2,3	to_board	s519
359.107	1.0	0	PA_without_intermediate	n/a	test	ward_and_allport	n/a	-1.0	26.0	n/a	n/a	feedback	s519
360.107	2.224	0	PA_without_intermediate	n/a	test	ward_and_allport	n/a	-1.0	26.0	n/a	n/a	ITI	s519
362.338	1.606	1	PA_without_intermediate	1,2,0,0,0,0,0,0,0	test	ward_and_allport	0,0,0,3,1,0,2,0,0	89.0	27.0	1.606	1,2,3,0,0,0,0,0,0	to_hand	s519
363.946	0.644	0	PA_without_intermediate	1,2,0,3,0,0,0,0,0	test	ward_and_allport	0,0,0,3,1,0,2,0,0	71.0	27.0	0.644	1,2,3,0,0,0,0,0,0	to_board	s519
364.597	0.999	0	PA_without_intermediate	1,0,0,3,0,0,0,0,0	test	ward_and_allport	0,0,0,3,1,0,2,0,0	89.0	27.0	0.999	1,2,3,0,0,0,0,0,0	to_hand	s519
365.598	0.213	0	PA_without_intermediate	1,0,0,3,0,0,2,0,0	test	ward_and_allport	0,0,0,3,1,0,2,0,0	82.0	27.0	0.213	1,2,3,0,0,0,0,0,0	to_board	s519
365.818	0.462	0	PA_without_intermediate	0,0,0,3,0,0,2,0,0	test	ward_and_allport	0,0,0,3,1,0,2,0,0	89.0	27.0	0.462	1,2,3,0,0,0,0,0,0	to_hand	s519
366.281	0.346	0	PA_without_intermediate	0,0,0,3,1,0,2,0,0	test	ward_and_allport	0,0,0,3,1,0,2,0,0	71.0	27.0	0.346	1,2,3,0,0,0,0,0,0	to_board	s519
366.636	1.0	0	PA_without_intermediate	n/a	test	ward_and_allport	n/a	-1.0	27.0	n/a	n/a	feedback	s519
367.636	2.36	0	PA_without_intermediate	n/a	test	ward_and_allport	n/a	-1.0	27.0	n/a	n/a	ITI	s519
370.003	1.647	1	PA_without_intermediate	1,2,0,0,0,0,0,0,0	test	ward_and_allport	0,0,0,3,1,0,2,0,0	89.0	28.0	1.647	1,2,3,0,0,0,0,0,0	to_hand	s519
371.65	0.415	0	PA_without_intermediate	1,2,0,3,0,0,0,0,0	test	ward_and_allport	0,0,0,3,1,0,2,0,0	71.0	28.0	0.415	1,2,3,0,0,0,0,0,0	to_board	s519
372.073	0.77	0	PA_without_intermediate	1,0,0,3,0,0,0,0,0	test	ward_and_allport	0,0,0,3,1,0,2,0,0	89.0	28.0	0.77	1,2,3,0,0,0,0,0,0	to_hand	s519
372.843	0.269	0	PA_without_intermediate	1,0,0,3,0,0,2,0,0	test	ward_and_allport	0,0,0,3,1,0,2,0,0	82.0	28.0	0.269	1,2,3,0,0,0,0,0,0	to_board	s519
373.12	0.437	0	PA_without_intermediate	0,0,0,3,0,0,2,0,0	test	ward_and_allport	0,0,0,3,1,0,2,0,0	89.0	28.0	0.437	1,2,3,0,0,0,0,0,0	to_hand	s519
373.558	0.247	0	PA_without_intermediate	0,0,0,3,1,0,2,0,0	test	ward_and_allport	0,0,0,3,1,0,2,0,0	71.0	28.0	0.247	1,2,3,0,0,0,0,0,0	to_board	s519
373.814	1.0	0	PA_without_intermediate	n/a	test	ward_and_allport	n/a	-1.0	28.0	n/a	n/a	feedback	s519
374.814	1.0	0	PA_without_intermediate	n/a	test	ward_and_allport	n/a	-1.0	28.0	n/a	n/a	ITI	s519
375.822	2.759	1	PA_without_intermediate	0,0,0,1,2,0,0,0,0	test	ward_and_allport	1,0,0,0,0,0,3,2,0	71.0	29.0	2.759	0,0,0,1,2,3,0,0,0	to_hand	s519
378.582	0.274	0	PA_without_intermediate	0,0,0,1,2,0,3,0,0	test	ward_and_allport	1,0,0,0,0,0,3,2,0	82.0	29.0	0.274	0,0,0,1,2,3,0,0,0	to_board	s519
378.865	0.534	0	PA_without_intermediate	0,0,0,1,0,0,3,0,0	test	ward_and_allport	1,0,0,0,0,0,3,2,0	71.0	29.0	0.534	0,0,0,1,2,3,0,0,0	to_hand	s519
379.399	0.269	0	PA_without_intermediate	0,0,0,1,0,0,3,2,0	test	ward_and_allport	1,0,0,0,0,0,3,2,0	82.0	29.0	0.269	0,0,0,1,2,3,0,0,0	to_board	s519
379.677	0.846	0	PA_without_intermediate	0,0,0,0,0,0,3,2,0	test	ward_and_allport	1,0,0,0,0,0,3,2,0	71.0	29.0	0.846	0,0,0,1,2,3,0,0,0	to_hand	s519
380.524	0.379	0	PA_without_intermediate	1,0,0,0,0,0,3,2,0	test	ward_and_allport	1,0,0,0,0,0,3,2,0	89.0	29.0	0.379	0,0,0,1,2,3,0,0,0	to_board	s519
380.913	1.0	0	PA_without_intermediate	n/a	test	ward_and_allport	n/a	-1.0	29.0	n/a	n/a	feedback	s519
381.913	1.408	0	PA_without_intermediate	n/a	test	ward_and_allport	n/a	-1.0	29.0	n/a	n/a	ITI	s519
388.33	1.277	1	PA_with_intermediate	0,0,0,0,0,0,1,2,0	test	ward_and_allport	2,0,0,0,0,0,1,3,0	82.0	30.0	1.277	0,0,0,0,0,0,1,2,3	to_hand	s519
389.608	3.519	0	PA_with_intermediate	0,0,0,3,0,0,1,2,0	test	ward_and_allport	2,0,0,0,0,0,1,3,0	71.0	30.0	3.519	0,0,0,0,0,0,1,2,3	to_board	s519
393.135	1.403	0	PA_with_intermediate	0,0,0,3,0,0,1,0,0	test	ward_and_allport	2,0,0,0,0,0,1,3,0	82.0	30.0	1.403	0,0,0,0,0,0,1,2,3	to_hand	s519
394.54	0.501	0	PA_with_intermediate	2,0,0,3,0,0,1,0,0	test	ward_and_allport	2,0,0,0,0,0,1,3,0	89.0	30.0	0.501	0,0,0,0,0,0,1,2,3	to_board	s519
395.05	0.324	0	PA_with_intermediate	2,0,0,0,0,0,1,0,0	test	ward_and_allport	2,0,0,0,0,0,1,3,0	71.0	30.0	0.324	0,0,0,0,0,0,1,2,3	to_hand	s519
395.374	0.318	0	PA_with_intermediate	2,0,0,3,0,0,1,0,0	test	ward_and_allport	2,0,0,0,0,0,1,3,0	71.0	30.0	0.318	0,0,0,0,0,0,1,2,3	to_board	s519
395.701	0.835	0	PA_with_intermediate	2,0,0,0,0,0,1,0,0	test	ward_and_allport	2,0,0,0,0,0,1,3,0	71.0	30.0	0.835	0,0,0,0,0,0,1,2,3	to_hand	s519
396.538	0.518	0	PA_with_intermediate	2,0,0,0,0,0,1,3,0	test	ward_and_allport	2,0,0,0,0,0,1,3,0	82.0	30.0	0.518	0,0,0,0,0,0,1,2,3	to_board	s519
397.066	1.0	0	PA_with_intermediate	n/a	test	ward_and_allport	n/a	-1.0	30.0	n/a	n/a	feedback	s519
398.066	1.136	0	PA_with_intermediate	n/a	test	ward_and_allport	n/a	-1.0	30.0	n/a	n/a	ITI	s519
399.211	2.474	1	PA_without_intermediate	0,0,0,0,0,0,1,2,0	test	ward_and_allport	1,0,0,3,2,0,0,0,0	82.0	31.0	2.474	0,0,0,0,0,0,1,2,3	to_hand	s519
401.686	0.984	0	PA_without_intermediate	0,0,0,3,0,0,1,2,0	test	ward_and_allport	1,0,0,3,2,0,0,0,0	71.0	31.0	0.984	0,0,0,0,0,0,1,2,3	to_board	s519
402.678	0.526	0	PA_without_intermediate	0,0,0,3,0,0,1,0,0	test	ward_and_allport	1,0,0,3,2,0,0,0,0	82.0	31.0	0.526	0,0,0,0,0,0,1,2,3	to_hand	s519
403.206	0.599	0	PA_without_intermediate	0,0,0,3,2,0,1,0,0	test	ward_and_allport	1,0,0,3,2,0,0,0,0	71.0	31.0	0.599	0,0,0,0,0,0,1,2,3	to_board	s519
403.814	0.611	0	PA_without_intermediate	0,0,0,3,2,0,0,0,0	test	ward_and_allport	1,0,0,3,2,0,0,0,0	82.0	31.0	0.611	0,0,0,0,0,0,1,2,3	to_hand	s519
404.426	0.315	0	PA_without_intermediate	1,0,0,3,2,0,0,0,0	test	ward_and_allport	1,0,0,3,2,0,0,0,0	89.0	31.0	0.315	0,0,0,0,0,0,1,2,3	to_board	s519
404.751	1.0	0	PA_without_intermediate	n/a	test	ward_and_allport	n/a	-1.0	31.0	n/a	n/a	feedback	s519
405.751	4.128	0	PA_without_intermediate	n/a	test	ward_and_allport	n/a	-1.0	31.0	n/a	n/a	ITI	s519
409.888	1.606	1	PA_without_intermediate	0,0,0,0,0,0,1,2,0	test	ward_and_allport	2,0,0,3,1,0,0,0,0	82.0	32.0	1.606	0,0,0,0,0,0,1,2,3	to_hand	s519
411.494	0.693	0	PA_without_intermediate	0,0,0,3,0,0,1,2,0	test	ward_and_allport	2,0,0,3,1,0,0,0,0	71.0	32.0	0.693	0,0,0,0,0,0,1,2,3	to_board	s519
412.195	0.828	0	PA_without_intermediate	0,0,0,3,0,0,1,0,0	test	ward_and_allport	2,0,0,3,1,0,0,0,0	82.0	32.0	0.828	0,0,0,0,0,0,1,2,3	to_hand	s519
413.025	0.45	0	PA_without_intermediate	2,0,0,3,0,0,1,0,0	test	ward_and_allport	2,0,0,3,1,0,0,0,0	89.0	32.0	0.45	0,0,0,0,0,0,1,2,3	to_board	s519
413.482	1.108	0	PA_without_intermediate	2,0,0,3,0,0,0,0,0	test	ward_and_allport	2,0,0,3,1,0,0,0,0	82.0	32.0	1.108	0,0,0,0,0,0,1,2,3	to_hand	s519
414.592	0.563	0	PA_without_intermediate	2,0,0,3,1,0,0,0,0	test	ward_and_allport	2,0,0,3,1,0,0,0,0	71.0	32.0	0.563	0,0,0,0,0,0,1,2,3	to_board	s519
415.165	1.0	0	PA_without_intermediate	n/a	test	ward_and_allport	n/a	-1.0	32.0	n/a	n/a	feedback	s519
416.165	1.136	0	PA_without_intermediate	n/a	test	ward_and_allport	n/a	-1.0	32.0	n/a	n/a	ITI	s519
417.307	1.524	1	PA_without_intermediate	0,0,0,1,2,0,0,0,0	test	ward_and_allport	2,0,0,0,0,0,3,1,0	71.0	33.0	1.524	0,0,0,1,2,3,0,0,0	to_hand	s519
418.832	0.445	0	PA_without_intermediate	0,0,0,1,2,0,3,0,0	test	ward_and_allport	2,0,0,0,0,0,3,1,0	82.0	33.0	0.445	0,0,0,1,2,3,0,0,0	to_board	s519
419.284	0.457	0	PA_without_intermediate	0,0,0,1,0,0,3,0,0	test	ward_and_allport	2,0,0,0,0,0,3,1,0	71.0	33.0	0.457	0,0,0,1,2,3,0,0,0	to_hand	s519
419.741	0.477	0	PA_without_intermediate	2,0,0,1,0,0,3,0,0	test	ward_and_allport	2,0,0,0,0,0,3,1,0	89.0	33.0	0.477	0,0,0,1,2,3,0,0,0	to_board	s519
420.225	0.507	0	PA_without_intermediate	2,0,0,0,0,0,3,0,0	test	ward_and_allport	2,0,0,0,0,0,3,1,0	71.0	33.0	0.507	0,0,0,1,2,3,0,0,0	to_hand	s519
420.732	0.503	0	PA_without_intermediate	2,0,0,0,0,0,3,1,0	test	ward_and_allport	2,0,0,0,0,0,3,1,0	82.0	33.0	0.503	0,0,0,1,2,3,0,0,0	to_board	s519
421.243	1.0	0	PA_without_intermediate	n/a	test	ward_and_allport	n/a	-1.0	33.0	n/a	n/a	feedback	s519
422.243	4.264	0	PA_without_intermediate	n/a	test	ward_and_allport	n/a	-1.0	33.0	n/a	n/a	ITI	s519
426.514	1.73	1	PA_with_intermediate	0,0,0,1,2,0,0,0,0	test	ward_and_allport	2,0,0,1,3,0,0,0,0	71.0	34.0	1.73	0,0,0,1,2,3,0,0,0	to_hand	s519
428.245	1.009	0	PA_with_intermediate	0,0,0,1,2,0,3,0,0	test	ward_and_allport	2,0,0,1,3,0,0,0,0	82.0	34.0	1.009	0,0,0,1,2,3,0,0,0	to_board	s519
429.264	0.462	0	PA_with_intermediate	0,0,0,1,0,0,3,0,0	test	ward_and_allport	2,0,0,1,3,0,0,0,0	71.0	34.0	0.462	0,0,0,1,2,3,0,0,0	to_hand	s519
429.726	0.362	0	PA_with_intermediate	2,0,0,1,0,0,3,0,0	test	ward_and_allport	2,0,0,1,3,0,0,0,0	89.0	34.0	0.362	0,0,0,1,2,3,0,0,0	to_board	s519
430.097	0.606	0	PA_with_intermediate	2,0,0,1,0,0,0,0,0	test	ward_and_allport	2,0,0,1,3,0,0,0,0	82.0	34.0	0.606	0,0,0,1,2,3,0,0,0	to_hand	s519
430.704	0.242	0	PA_with_intermediate	2,0,0,1,3,0,0,0,0	test	ward_and_allport	2,0,0,1,3,0,0,0,0	71.0	34.0	0.242	0,0,0,1,2,3,0,0,0	to_board	s519
430.957	1.0	0	PA_with_intermediate	n/a	test	ward_and_allport	n/a	-1.0	34.0	n/a	n/a	feedback	s519
431.957	3.04	0	PA_with_intermediate	n/a	test	ward_and_allport	n/a	-1.0	34.0	n/a	n/a	ITI	s519
435.006	0.951	1	PA_with_intermediate	0,0,0,0,0,0,1,2,0	test	ward_and_allport	2,3,0,0,0,0,1,0,0	82.0	35.0	0.951	0,0,0,0,0,0,1,2,3	to_hand	s519
435.959	0.617	0	PA_with_intermediate	0,0,0,3,0,0,1,2,0	test	ward_and_allport	2,3,0,0,0,0,1,0,0	71.0	35.0	0.617	0,0,0,0,0,0,1,2,3	to_board	s519
436.583	3.473	0	PA_with_intermediate	0,0,0,3,0,0,1,0,0	test	ward_and_allport	2,3,0,0,0,0,1,0,0	82.0	35.0	3.473	0,0,0,0,0,0,1,2,3	to_hand	s519
440.057	0.514	0	PA_with_intermediate	2,0,0,3,0,0,1,0,0	test	ward_and_allport	2,3,0,0,0,0,1,0,0	89.0	35.0	0.514	0,0,0,0,0,0,1,2,3	to_board	s519
440.58	1.364	0	PA_with_intermediate	2,0,0,0,0,0,1,0,0	test	ward_and_allport	2,3,0,0,0,0,1,0,0	71.0	35.0	1.364	0,0,0,0,0,0,1,2,3	to_hand	s519
441.944	0.323	0	PA_with_intermediate	2,3,0,0,0,0,1,0,0	test	ward_and_allport	2,3,0,0,0,0,1,0,0	89.0	35.0	0.323	0,0,0,0,0,0,1,2,3	to_board	s519
442.278	1.0	0	PA_with_intermediate	n/a	test	ward_and_allport	n/a	-1.0	35.0	n/a	n/a	feedback	s519
443.278	1.136	0	PA_with_intermediate	n/a	test	ward_and_allport	n/a	-1.0	35.0	n/a	n/a	ITI	s519
444.424	2.612	1	PA_with_intermediate	0,0,0,0,0,0,1,2,0	test	ward_and_allport	2,0,0,0,0,0,1,3,0	82.0	36.0	2.612	0,0,0,0,0,0,1,2,3	to_hand	s519
447.038	0.454	0	PA_with_intermediate	0,0,0,3,0,0,1,2,0	test	ward_and_allport	2,0,0,0,0,0,1,3,0	71.0	36.0	0.454	0,0,0,0,0,0,1,2,3	to_board	s519
447.502	0.992	0	PA_with_intermediate	0,0,0,3,0,0,1,0,0	test	ward_and_allport	2,0,0,0,0,0,1,3,0	82.0	36.0	0.992	0,0,0,0,0,0,1,2,3	to_hand	s519
448.496	0.338	0	PA_with_intermediate	2,0,0,3,0,0,1,0,0	test	ward_and_allport	2,0,0,0,0,0,1,3,0	89.0	36.0	0.338	0,0,0,0,0,0,1,2,3	to_board	s519
448.843	2.474	0	PA_with_intermediate	2,0,0,0,0,0,1,0,0	test	ward_and_allport	2,0,0,0,0,0,1,3,0	71.0	36.0	2.474	0,0,0,0,0,0,1,2,3	to_hand	s519
451.318	1.014	0	PA_with_intermediate	2,0,0,0,0,0,1,3,0	test	ward_and_allport	2,0,0,0,0,0,1,3,0	82.0	36.0	1.014	0,0,0,0,0,0,1,2,3	to_board	s519
452.342	1.0	0	PA_with_intermediate	n/a	test	ward_and_allport	n/a	-1.0	36.0	n/a	n/a	feedback	s519
453.342	1.408	0	PA_with_intermediate	n/a	test	ward_and_allport	n/a	-1.0	36.0	n/a	n/a	ITI	s519
454.758	1.455	1	PA_without_intermediate	0,0,0,0,0,0,1,2,0	test	ward_and_allport	3,2,0,1,0,0,0,0,0	82.0	37.0	1.455	0,0,0,0,0,0,1,2,3	to_hand	s519
456.214	0.374	0	PA_without_intermediate	3,0,0,0,0,0,1,2,0	test	ward_and_allport	3,2,0,1,0,0,0,0,0	89.0	37.0	0.374	0,0,0,0,0,0,1,2,3	to_board	s519
456.595	1.008	0	PA_without_intermediate	3,0,0,0,0,0,1,0,0	test	ward_and_allport	3,2,0,1,0,0,0,0,0	82.0	37.0	1.008	0,0,0,0,0,0,1,2,3	to_hand	s519
457.605	1.004	0	PA_without_intermediate	3,2,0,0,0,0,1,0,0	test	ward_and_allport	3,2,0,1,0,0,0,0,0	89.0	37.0	1.004	0,0,0,0,0,0,1,2,3	to_board	s519
458.617	1.37	0	PA_without_intermediate	3,2,0,0,0,0,0,0,0	test	ward_and_allport	3,2,0,1,0,0,0,0,0	82.0	37.0	1.37	0,0,0,0,0,0,1,2,3	to_hand	s519
459.989	0.317	0	PA_without_intermediate	3,2,0,1,0,0,0,0,0	test	ward_and_allport	3,2,0,1,0,0,0,0,0	71.0	37.0	0.317	0,0,0,0,0,0,1,2,3	to_board	s519
460.316	1.0	0	PA_without_intermediate	n/a	test	ward_and_allport	n/a	-1.0	37.0	n/a	n/a	feedback	s519
461.316	1.68	0	PA_without_intermediate	n/a	test	ward_and_allport	n/a	-1.0	37.0	n/a	n/a	ITI	s519
463.006	1.426	1	PA_with_intermediate	1,2,0,0,0,0,0,0,0	test	ward_and_allport	1,0,0,0,0,0,2,3,0	89.0	38.0	1.426	1,2,3,0,0,0,0,0,0	to_hand	s519
464.434	0.976	0	PA_with_intermediate	1,2,0,3,0,0,0,0,0	test	ward_and_allport	1,0,0,0,0,0,2,3,0	71.0	38.0	0.976	1,2,3,0,0,0,0,0,0	to_board	s519
465.417	1.111	0	PA_with_intermediate	1,0,0,3,0,0,0,0,0	test	ward_and_allport	1,0,0,0,0,0,2,3,0	89.0	38.0	1.111	1,2,3,0,0,0,0,0,0	to_hand	s519
466.529	0.458	0	PA_with_intermediate	1,0,0,3,0,0,2,0,0	test	ward_and_allport	1,0,0,0,0,0,2,3,0	82.0	38.0	0.458	1,2,3,0,0,0,0,0,0	to_board	s519
466.996	0.837	0	PA_with_intermediate	1,0,0,0,0,0,2,0,0	test	ward_and_allport	1,0,0,0,0,0,2,3,0	71.0	38.0	0.837	1,2,3,0,0,0,0,0,0	to_hand	s519
467.834	0.408	0	PA_with_intermediate	1,0,0,0,0,0,2,3,0	test	ward_and_allport	1,0,0,0,0,0,2,3,0	82.0	38.0	0.408	1,2,3,0,0,0,0,0,0	to_board	s519
468.252	1.0	0	PA_with_intermediate	n/a	test	ward_and_allport	n/a	-1.0	38.0	n/a	n/a	feedback	s519
469.252	3.72	0	PA_with_intermediate	n/a	test	ward_and_allport	n/a	-1.0	38.0	n/a	n/a	ITI	s519
472.98	1.391	1	PA_without_intermediate	0,0,0,0,0,0,1,2,0	test	ward_and_allport	3,2,0,1,0,0,0,0,0	82.0	39.0	1.391	0,0,0,0,0,0,1,2,3	to_hand	s519
474.372	0.374	0	PA_without_intermediate	3,0,0,0,0,0,1,2,0	test	ward_and_allport	3,2,0,1,0,0,0,0,0	89.0	39.0	0.374	0,0,0,0,0,0,1,2,3	to_board	s519
474.756	0.768	0	PA_without_intermediate	3,0,0,0,0,0,1,0,0	test	ward_and_allport	3,2,0,1,0,0,0,0,0	82.0	39.0	0.768	0,0,0,0,0,0,1,2,3	to_hand	s519
475.524	0.589	0	PA_without_intermediate	3,2,0,0,0,0,1,0,0	test	ward_and_allport	3,2,0,1,0,0,0,0,0	89.0	39.0	0.589	0,0,0,0,0,0,1,2,3	to_board	s519
476.123	0.495	0	PA_without_intermediate	3,2,0,0,0,0,0,0,0	test	ward_and_allport	3,2,0,1,0,0,0,0,0	82.0	39.0	0.495	0,0,0,0,0,0,1,2,3	to_hand	s519
476.618	0.262	0	PA_without_intermediate	3,2,0,1,0,0,0,0,0	test	ward_and_allport	3,2,0,1,0,0,0,0,0	71.0	39.0	0.262	0,0,0,0,0,0,1,2,3	to_board	s519
476.892	1.0	0	PA_without_intermediate	n/a	test	ward_and_allport	n/a	-1.0	39.0	n/a	n/a	feedback	s519
477.892	2.224	0	PA_without_intermediate	n/a	test	ward_and_allport	n/a	-1.0	39.0	n/a	n/a	ITI	s519
480.125	1.019	1	PA_without_intermediate	1,2,0,0,0,0,0,0,0	test	ward_and_allport	0,0,0,3,2,0,1,0,0	89.0	40.0	1.019	1,2,3,0,0,0,0,0,0	to_hand	s519
481.145	0.488	0	PA_without_intermediate	1,2,0,3,0,0,0,0,0	test	ward_and_allport	0,0,0,3,2,0,1,0,0	71.0	40.0	0.488	1,2,3,0,0,0,0,0,0	to_board	s519
481.643	0.605	0	PA_without_intermediate	1,0,0,3,0,0,0,0,0	test	ward_and_allport	0,0,0,3,2,0,1,0,0	89.0	40.0	0.605	1,2,3,0,0,0,0,0,0	to_hand	s519
482.249	0.255	0	PA_without_intermediate	1,0,0,3,2,0,0,0,0	test	ward_and_allport	0,0,0,3,2,0,1,0,0	71.0	40.0	0.255	1,2,3,0,0,0,0,0,0	to_board	s519
482.51	0.424	0	PA_without_intermediate	0,0,0,3,2,0,0,0,0	test	ward_and_allport	0,0,0,3,2,0,1,0,0	89.0	40.0	0.424	1,2,3,0,0,0,0,0,0	to_hand	s519
482.936	0.245	0	PA_without_intermediate	0,0,0,3,2,0,1,0,0	test	ward_and_allport	0,0,0,3,2,0,1,0,0	82.0	40.0	0.245	1,2,3,0,0,0,0,0,0	to_board	s519
483.191	1.0	0	PA_without_intermediate	n/a	test	ward_and_allport	n/a	-1.0	40.0	n/a	n/a	feedback	s519
484.191	1.272	0	PA_without_intermediate	n/a	test	ward_and_allport	n/a	-1.0	40.0	n/a	n/a	ITI	s519
485.471	1.68	1	PA_with_intermediate	0,0,0,0,0,0,1,2,0	test	ward_and_allport	0,0,0,2,3,0,1,0,0	82.0	41.0	1.68	0,0,0,0,0,0,1,2,3	to_hand	s519
487.153	0.898	0	PA_with_intermediate	3,0,0,0,0,0,1,2,0	test	ward_and_allport	0,0,0,2,3,0,1,0,0	89.0	41.0	0.898	0,0,0,0,0,0,1,2,3	to_board	s519
488.058	1.253	0	PA_with_intermediate	3,0,0,0,0,0,1,0,0	test	ward_and_allport	0,0,0,2,3,0,1,0,0	82.0	41.0	1.253	0,0,0,0,0,0,1,2,3	to_hand	s519
489.312	0.413	0	PA_with_intermediate	3,0,0,2,0,0,1,0,0	test	ward_and_allport	0,0,0,2,3,0,1,0,0	71.0	41.0	0.413	0,0,0,0,0,0,1,2,3	to_board	s519
489.733	0.334	0	PA_with_intermediate	0,0,0,2,0,0,1,0,0	test	ward_and_allport	0,0,0,2,3,0,1,0,0	89.0	41.0	0.334	0,0,0,0,0,0,1,2,3	to_hand	s519
490.067	0.465	0	PA_with_intermediate	0,0,0,2,3,0,1,0,0	test	ward_and_allport	0,0,0,2,3,0,1,0,0	71.0	41.0	0.465	0,0,0,0,0,0,1,2,3	to_board	s519
490.54	1.0	0	PA_with_intermediate	n/a	test	ward_and_allport	n/a	-1.0	41.0	n/a	n/a	feedback	s519
491.54	2.632	0	PA_with_intermediate	n/a	test	ward_and_allport	n/a	-1.0	41.0	n/a	n/a	ITI	s519
494.18	1.013	1	PA_without_intermediate	1,2,0,0,0,0,0,0,0	test	ward_and_allport	0,0,0,2,0,0,3,1,0	89.0	42.0	1.013	1,2,3,0,0,0,0,0,0	to_hand	s519
495.194	0.378	0	PA_without_intermediate	1,2,0,0,0,0,3,0,0	test	ward_and_allport	0,0,0,2,0,0,3,1,0	82.0	42.0	0.378	1,2,3,0,0,0,0,0,0	to_board	s519
495.579	1.079	0	PA_without_intermediate	1,0,0,0,0,0,3,0,0	test	ward_and_allport	0,0,0,2,0,0,3,1,0	89.0	42.0	1.079	1,2,3,0,0,0,0,0,0	to_hand	s519
496.658	0.283	0	PA_without_intermediate	1,0,0,2,0,0,3,0,0	test	ward_and_allport	0,0,0,2,0,0,3,1,0	71.0	42.0	0.283	1,2,3,0,0,0,0,0,0	to_board	s519
496.951	0.484	0	PA_without_intermediate	0,0,0,2,0,0,3,0,0	test	ward_and_allport	0,0,0,2,0,0,3,1,0	89.0	42.0	0.484	1,2,3,0,0,0,0,0,0	to_hand	s519
497.436	0.235	0	PA_without_intermediate	0,0,0,2,0,0,3,1,0	test	ward_and_allport	0,0,0,2,0,0,3,1,0	82.0	42.0	0.235	1,2,3,0,0,0,0,0,0	to_board	s519
497.681	1.0	0	PA_without_intermediate	n/a	test	ward_and_allport	n/a	-1.0	42.0	n/a	n/a	feedback	s519
498.681	1.408	0	PA_without_intermediate	n/a	test	ward_and_allport	n/a	-1.0	42.0	n/a	n/a	ITI	s519
500.098	1.424	1	PA_without_intermediate	0,0,0,1,2,0,0,0,0	test	ward_and_allport	3,2,0,0,0,0,1,0,0	71.0	43.0	1.424	0,0,0,1,2,3,0,0,0	to_hand	s519
501.523	0.52	0	PA_without_intermediate	3,0,0,1,2,0,0,0,0	test	ward_and_allport	3,2,0,0,0,0,1,0,0	89.0	43.0	0.52	0,0,0,1,2,3,0,0,0	to_board	s519
502.05	1.01	0	PA_without_intermediate	3,0,0,1,0,0,0,0,0	test	ward_and_allport	3,2,0,0,0,0,1,0,0	71.0	43.0	1.01	0,0,0,1,2,3,0,0,0	to_hand	s519
503.061	0.233	0	PA_without_intermediate	3,2,0,1,0,0,0,0,0	test	ward_and_allport	3,2,0,0,0,0,1,0,0	89.0	43.0	0.233	0,0,0,1,2,3,0,0,0	to_board	s519
503.302	0.511	0	PA_without_intermediate	3,2,0,0,0,0,0,0,0	test	ward_and_allport	3,2,0,0,0,0,1,0,0	71.0	43.0	0.511	0,0,0,1,2,3,0,0,0	to_hand	s519
503.813	0.286	0	PA_without_intermediate	3,2,0,0,0,0,1,0,0	test	ward_and_allport	3,2,0,0,0,0,1,0,0	82.0	43.0	0.286	0,0,0,1,2,3,0,0,0	to_board	s519
504.108	1.0	0	PA_without_intermediate	n/a	test	ward_and_allport	n/a	-1.0	43.0	n/a	n/a	feedback	s519
505.108	1.0	0	PA_without_intermediate	n/a	test	ward_and_allport	n/a	-1.0	43.0	n/a	n/a	ITI	s519
506.116	2.593	1	PA_with_intermediate	1,2,0,0,0,0,0,0,0	test	ward_and_allport	1,3,0,2,0,0,0,0,0	89.0	44.0	2.593	1,2,3,0,0,0,0,0,0	to_hand	s519
508.71	0.298	0	PA_with_intermediate	1,2,0,0,0,0,3,0,0	test	ward_and_allport	1,3,0,2,0,0,0,0,0	82.0	44.0	0.298	1,2,3,0,0,0,0,0,0	to_board	s519
509.016	0.675	0	PA_with_intermediate	1,0,0,0,0,0,3,0,0	test	ward_and_allport	1,3,0,2,0,0,0,0,0	89.0	44.0	0.675	1,2,3,0,0,0,0,0,0	to_hand	s519
509.692	0.25	0	PA_with_intermediate	1,0,0,2,0,0,3,0,0	test	ward_and_allport	1,3,0,2,0,0,0,0,0	71.0	44.0	0.25	1,2,3,0,0,0,0,0,0	to_board	s519
509.949	0.427	0	PA_with_intermediate	0,0,0,2,0,0,3,0,0	test	ward_and_allport	1,3,0,2,0,0,0,0,0	89.0	44.0	0.427	1,2,3,0,0,0,0,0,0	to_hand	s519
510.377	3.842	0	PA_with_intermediate	1,0,0,2,0,0,3,0,0	test	ward_and_allport	1,3,0,2,0,0,0,0,0	89.0	44.0	3.842	1,2,3,0,0,0,0,0,0	to_board	s519
514.226	1.03	0	PA_with_intermediate	1,0,0,2,0,0,0,0,0	test	ward_and_allport	1,3,0,2,0,0,0,0,0	82.0	44.0	1.03	1,2,3,0,0,0,0,0,0	to_hand	s519
515.257	0.466	0	PA_with_intermediate	1,3,0,2,0,0,0,0,0	test	ward_and_allport	1,3,0,2,0,0,0,0,0	89.0	44.0	0.466	1,2,3,0,0,0,0,0,0	to_board	s519
515.735	1.0	0	PA_with_intermediate	n/a	test	ward_and_allport	n/a	-1.0	44.0	n/a	n/a	feedback	s519
516.735	1.0	0	PA_with_intermediate	n/a	test	ward_and_allport	n/a	-1.0	44.0	n/a	n/a	ITI	s519
522.751	1.437	1	PA_with_intermediate	1,2,0,0,0,0,0,0,0	test	ward_and_allport	1,0,0,2,3,0,0,0,0	89.0	45.0	1.437	1,2,3,0,0,0,0,0,0	to_hand	s519
524.189	0.25	0	PA_with_intermediate	1,2,0,0,0,0,3,0,0	test	ward_and_allport	1,0,0,2,3,0,0,0,0	82.0	45.0	0.25	1,2,3,0,0,0,0,0,0	to_board	s519
524.451	0.787	0	PA_with_intermediate	1,0,0,0,0,0,3,0,0	test	ward_and_allport	1,0,0,2,3,0,0,0,0	89.0	45.0	0.787	1,2,3,0,0,0,0,0,0	to_hand	s519
525.238	0.294	0	PA_with_intermediate	1,0,0,2,0,0,3,0,0	test	ward_and_allport	1,0,0,2,3,0,0,0,0	71.0	45.0	0.294	1,2,3,0,0,0,0,0,0	to_board	s519
525.544	0.319	0	PA_with_intermediate	1,0,0,2,0,0,0,0,0	test	ward_and_allport	1,0,0,2,3,0,0,0,0	82.0	45.0	0.319	1,2,3,0,0,0,0,0,0	to_hand	s519
525.864	0.371	0	PA_with_intermediate	1,0,0,2,3,0,0,0,0	test	ward_and_allport	1,0,0,2,3,0,0,0,0	71.0	45.0	0.371	1,2,3,0,0,0,0,0,0	to_board	s519
526.245	1.0	0	PA_with_intermediate	n/a	test	ward_and_allport	n/a	-1.0	45.0	n/a	n/a	feedback	s519
527.245	1.0	0	PA_with_intermediate	n/a	test	ward_and_allport	n/a	-1.0	45.0	n/a	n/a	ITI	s519
528.255	1.382	1	PA_with_intermediate	0,0,0,0,0,0,1,2,0	test	ward_and_allport	0,0,0,2,0,0,1,3,0	82.0	46.0	1.382	0,0,0,0,0,0,1,2,3	to_hand	s519
529.638	2.583	0	PA_with_intermediate	3,0,0,0,0,0,1,2,0	test	ward_and_allport	0,0,0,2,0,0,1,3,0	89.0	46.0	2.583	0,0,0,0,0,0,1,2,3	to_board	s519
532.229	0.529	0	PA_with_intermediate	3,0,0,0,0,0,1,0,0	test	ward_and_allport	0,0,0,2,0,0,1,3,0	82.0	46.0	0.529	0,0,0,0,0,0,1,2,3	to_hand	s519
532.759	0.415	0	PA_with_intermediate	3,0,0,2,0,0,1,0,0	test	ward_and_allport	0,0,0,2,0,0,1,3,0	71.0	46.0	0.415	0,0,0,0,0,0,1,2,3	to_board	s519
533.184	0.35	0	PA_with_intermediate	0,0,0,2,0,0,1,0,0	test	ward_and_allport	0,0,0,2,0,0,1,3,0	89.0	46.0	0.35	0,0,0,0,0,0,1,2,3	to_hand	s519
533.536	0.444	0	PA_with_intermediate	0,0,0,2,0,0,1,3,0	test	ward_and_allport	0,0,0,2,0,0,1,3,0	82.0	46.0	0.444	0,0,0,0,0,0,1,2,3	to_board	s519
533.992	1.0	0	PA_with_intermediate	n/a	test	ward_and_allport	n/a	-1.0	46.0	n/a	n/a	feedback	s519
534.992	1.408	0	PA_with_intermediate	n/a	test	ward_and_allport	n/a	-1.0	46.0	n/a	n/a	ITI	s519
n/a	n/a	0	n/a	n/a	n/a	n/a	n/a	n/a	n/a	n/a	n/a	ITI	n/a
