onset	duration	SS_delay	correct_response	experiment_exp_id	key_press	response_time	stop_response	stopped	trial_type	worker_id
3.018	0.85	0.35	89.0	motor_selective_stop_signal	89.0	0.524	89.0	False	crit_go	s607
5.274	0.85	0.35	89.0	motor_selective_stop_signal	89.0	0.406	89.0	False	crit_go	s607
7.526	0.85	0.35	71.0	motor_selective_stop_signal	71.0	0.455	89.0	False	noncrit_signal	s607
9.881	0.85	0.35	89.0	motor_selective_stop_signal	89.0	0.516	89.0	False	crit_stop_failure	s607
12.435	0.85	0.3	89.0	motor_selective_stop_signal	89.0	0.516	89.0	False	crit_go	s607
15.389	0.85	0.3	89.0	motor_selective_stop_signal	89.0	0.854	89.0	False	crit_stop_failure	s607
17.643	0.85	0.25	71.0	motor_selective_stop_signal	71.0	0.525	89.0	False	noncrit_nosignal	s607
19.998	0.85	0.25	71.0	motor_selective_stop_signal	71.0	0.453	89.0	False	noncrit_nosignal	s607
22.552	0.85	0.25	71.0	motor_selective_stop_signal	71.0	0.528	89.0	False	noncrit_signal	s607
24.806	0.85	0.25	71.0	motor_selective_stop_signal	71.0	0.612	89.0	False	noncrit_signal	s607
27.161	0.85	0.25	71.0	motor_selective_stop_signal	71.0	0.544	89.0	False	noncrit_signal	s607
29.714	0.85	0.25	71.0	motor_selective_stop_signal	71.0	0.567	89.0	False	noncrit_signal	s607
32.166	0.85	0.25	71.0	motor_selective_stop_signal	71.0	0.587	89.0	False	noncrit_nosignal	s607
34.522	0.85	0.25	89.0	motor_selective_stop_signal	89.0	0.812	89.0	False	crit_go	s607
37.177	0.85	0.25	89.0	motor_selective_stop_signal	89.0	0.354	89.0	False	crit_go	s607
39.731	0.85	0.25	89.0	motor_selective_stop_signal	89.0	0.386	89.0	False	crit_stop_failure	s607
42.483	0.85	0.2	89.0	motor_selective_stop_signal	71.0	0.399	89.0	False	crit_stop_failure	s607
45.037	0.85	0.15	71.0	motor_selective_stop_signal	71.0	0.471	89.0	False	noncrit_signal	s607
47.489	0.85	0.15	89.0	motor_selective_stop_signal	89.0	0.75	89.0	False	crit_go	s607
50.245	0.85	0.15	71.0	motor_selective_stop_signal	71.0	0.542	89.0	False	noncrit_nosignal	s607
52.801	0.85	0.15	89.0	motor_selective_stop_signal	71.0	0.888	89.0	False	crit_stop_failure	s607
55.157	0.85	0.1	71.0	motor_selective_stop_signal	71.0	0.489	89.0	False	noncrit_nosignal	s607
57.409	0.85	0.1	89.0	motor_selective_stop_signal	89.0	0.834	89.0	False	crit_go	s607
60.063	0.85	0.1	89.0	motor_selective_stop_signal	-1.0	n/a	89.0	True	crit_stop_success	s607
62.315	0.85	0.15	71.0	motor_selective_stop_signal	71.0	0.423	89.0	False	noncrit_nosignal	s607
64.668	0.85	0.15	89.0	motor_selective_stop_signal	89.0	0.679	89.0	False	crit_go	s607
66.923	0.85	0.15	71.0	motor_selective_stop_signal	71.0	0.456	89.0	False	noncrit_nosignal	s607
69.278	0.85	0.15	71.0	motor_selective_stop_signal	71.0	0.486	89.0	False	noncrit_nosignal	s607
71.631	0.85	0.15	71.0	motor_selective_stop_signal	71.0	0.406	89.0	False	noncrit_nosignal	s607
73.885	0.85	0.15	71.0	motor_selective_stop_signal	71.0	0.557	89.0	False	noncrit_signal	s607
76.737	0.85	0.15	89.0	motor_selective_stop_signal	89.0	0.414	89.0	False	crit_go	s607
79.093	0.85	0.15	71.0	motor_selective_stop_signal	71.0	0.425	89.0	False	noncrit_nosignal	s607
81.345	0.85	0.15	89.0	motor_selective_stop_signal	89.0	0.361	89.0	False	crit_go	s607
83.698	0.85	0.15	89.0	motor_selective_stop_signal	89.0	0.473	89.0	False	crit_go	s607
86.15	0.85	0.15	89.0	motor_selective_stop_signal	71.0	0.416	89.0	False	crit_stop_failure	s607
88.405	0.85	0.1	71.0	motor_selective_stop_signal	71.0	0.487	89.0	False	noncrit_signal	s607
90.659	0.85	0.1	89.0	motor_selective_stop_signal	89.0	0.521	89.0	False	crit_go	s607
93.414	0.85	0.1	71.0	motor_selective_stop_signal	71.0	0.502	89.0	False	noncrit_signal	s607
95.767	0.85	0.1	89.0	motor_selective_stop_signal	89.0	0.521	89.0	False	crit_go	s607
98.519	0.85	0.1	89.0	motor_selective_stop_signal	89.0	0.513	89.0	False	crit_go	s607
100.975	0.85	0.1	89.0	motor_selective_stop_signal	89.0	0.551	89.0	False	crit_go	s607
103.227	0.85	0.1	89.0	motor_selective_stop_signal	-1.0	n/a	89.0	True	crit_stop_success	s607
105.583	0.85	0.15	71.0	motor_selective_stop_signal	71.0	0.447	89.0	False	noncrit_nosignal	s607
108.237	0.85	0.15	89.0	motor_selective_stop_signal	-1.0	n/a	89.0	True	crit_stop_success	s607
110.693	0.85	0.2	89.0	motor_selective_stop_signal	89.0	0.598	89.0	False	crit_go	s607
112.945	0.85	0.2	71.0	motor_selective_stop_signal	71.0	0.449	89.0	False	noncrit_signal	s607
115.299	0.85	0.2	71.0	motor_selective_stop_signal	71.0	0.503	89.0	False	noncrit_signal	s607
118.255	0.85	0.2	89.0	motor_selective_stop_signal	89.0	0.494	89.0	False	crit_go	s607
120.51	0.85	0.2	71.0	motor_selective_stop_signal	71.0	0.46	89.0	False	noncrit_nosignal	s607
123.463	0.85	0.2	71.0	motor_selective_stop_signal	71.0	0.444	89.0	False	noncrit_signal	s607
136.426	0.85	0.2	89.0	motor_selective_stop_signal	89.0	0.583	89.0	False	crit_stop_failure	s607
138.678	0.85	0.15	71.0	motor_selective_stop_signal	71.0	0.468	89.0	False	noncrit_nosignal	s607
141.03	0.85	0.15	71.0	motor_selective_stop_signal	71.0	0.472	89.0	False	noncrit_nosignal	s607
143.484	0.85	0.15	89.0	motor_selective_stop_signal	-1.0	n/a	89.0	True	crit_stop_success	s607
145.735	0.85	0.2	71.0	motor_selective_stop_signal	71.0	0.455	89.0	False	noncrit_signal	s607
148.187	0.85	0.2	71.0	motor_selective_stop_signal	71.0	0.359	89.0	False	noncrit_nosignal	s607
150.943	0.85	0.2	71.0	motor_selective_stop_signal	71.0	0.409	89.0	False	noncrit_signal	s607
153.195	0.85	0.2	89.0	motor_selective_stop_signal	89.0	0.537	89.0	False	crit_go	s607
155.549	0.85	0.2	71.0	motor_selective_stop_signal	71.0	0.49	89.0	False	noncrit_signal	s607
158.0	0.85	0.2	71.0	motor_selective_stop_signal	71.0	0.455	89.0	False	noncrit_nosignal	s607
160.356	0.85	0.2	71.0	motor_selective_stop_signal	71.0	0.555	89.0	False	noncrit_signal	s607
162.611	0.85	0.2	71.0	motor_selective_stop_signal	71.0	0.486	89.0	False	noncrit_nosignal	s607
165.164	0.85	0.2	71.0	motor_selective_stop_signal	71.0	0.417	89.0	False	noncrit_nosignal	s607
167.621	0.85	0.2	89.0	motor_selective_stop_signal	71.0	0.4	89.0	False	crit_go	s607
170.277	0.85	0.2	89.0	motor_selective_stop_signal	89.0	0.555	89.0	False	crit_stop_failure	s607
172.531	0.85	0.15	71.0	motor_selective_stop_signal	71.0	0.571	89.0	False	noncrit_signal	s607
175.185	0.85	0.15	71.0	motor_selective_stop_signal	71.0	0.523	89.0	False	noncrit_nosignal	s607
177.537	0.85	0.15	71.0	motor_selective_stop_signal	71.0	0.497	89.0	False	noncrit_nosignal	s607
179.791	0.85	0.15	71.0	motor_selective_stop_signal	71.0	0.515	89.0	False	noncrit_nosignal	s607
182.042	0.85	0.15	71.0	motor_selective_stop_signal	71.0	0.423	89.0	False	noncrit_nosignal	s607
184.294	0.85	0.15	89.0	motor_selective_stop_signal	89.0	0.828	89.0	False	crit_go	s607
186.648	0.85	0.15	71.0	motor_selective_stop_signal	71.0	0.503	89.0	False	noncrit_signal	s607
189.201	0.85	0.15	89.0	motor_selective_stop_signal	89.0	0.545	89.0	False	crit_go	s607
191.558	0.85	0.15	89.0	motor_selective_stop_signal	-1.0	n/a	89.0	True	crit_stop_success	s607
194.011	0.85	0.2	89.0	motor_selective_stop_signal	89.0	0.508	89.0	False	crit_go	s607
196.465	0.85	0.2	89.0	motor_selective_stop_signal	89.0	0.425	89.0	False	crit_stop_failure	s607
198.821	0.85	0.15	71.0	motor_selective_stop_signal	71.0	0.455	89.0	False	noncrit_signal	s607
201.075	0.85	0.15	71.0	motor_selective_stop_signal	71.0	0.582	89.0	False	noncrit_nosignal	s607
203.63	0.85	0.15	71.0	motor_selective_stop_signal	71.0	0.468	89.0	False	noncrit_nosignal	s607
206.186	0.85	0.15	71.0	motor_selective_stop_signal	71.0	0.482	89.0	False	noncrit_signal	s607
208.442	0.85	0.15	71.0	motor_selective_stop_signal	71.0	0.483	89.0	False	noncrit_nosignal	s607
210.695	0.85	0.15	89.0	motor_selective_stop_signal	-1.0	n/a	89.0	True	crit_stop_success	s607
213.147	0.85	0.2	71.0	motor_selective_stop_signal	71.0	0.451	89.0	False	noncrit_nosignal	s607
215.499	0.85	0.2	89.0	motor_selective_stop_signal	89.0	0.505	89.0	False	crit_go	s607
217.75	0.85	0.2	71.0	motor_selective_stop_signal	71.0	0.452	89.0	False	noncrit_nosignal	s607
220.905	0.85	0.2	89.0	motor_selective_stop_signal	89.0	0.545	89.0	False	crit_go	s607
223.557	0.85	0.2	71.0	motor_selective_stop_signal	71.0	0.418	89.0	False	noncrit_signal	s607
225.81	0.85	0.2	89.0	motor_selective_stop_signal	89.0	0.503	89.0	False	crit_stop_failure	s607
228.263	0.85	0.15	71.0	motor_selective_stop_signal	71.0	0.502	89.0	False	noncrit_signal	s607
231.117	0.85	0.15	89.0	motor_selective_stop_signal	89.0	0.489	89.0	False	crit_go	s607
233.569	0.85	0.15	71.0	motor_selective_stop_signal	71.0	0.482	89.0	False	noncrit_nosignal	s607
235.823	0.85	0.15	71.0	motor_selective_stop_signal	71.0	0.438	89.0	False	noncrit_nosignal	s607
238.078	0.85	0.15	71.0	motor_selective_stop_signal	71.0	0.406	89.0	False	noncrit_signal	s607
240.635	0.85	0.15	89.0	motor_selective_stop_signal	71.0	0.571	89.0	False	crit_stop_failure	s607
242.891	0.85	0.1	89.0	motor_selective_stop_signal	71.0	0.684	89.0	False	crit_go	s607
245.243	0.85	0.1	89.0	motor_selective_stop_signal	71.0	0.52	89.0	False	crit_stop_failure	s607
247.594	0.85	0.05	71.0	motor_selective_stop_signal	71.0	0.546	89.0	False	noncrit_nosignal	s607
249.846	0.85	0.05	71.0	motor_selective_stop_signal	71.0	0.5	89.0	False	noncrit_signal	s607
252.202	0.85	0.05	71.0	motor_selective_stop_signal	71.0	0.747	89.0	False	noncrit_nosignal	s607
254.455	0.85	0.05	89.0	motor_selective_stop_signal	89.0	0.66	89.0	False	crit_go	s607
267.418	0.85	0.05	71.0	motor_selective_stop_signal	71.0	0.44	89.0	False	noncrit_nosignal	s607
269.67	0.85	0.05	89.0	motor_selective_stop_signal	89.0	0.484	89.0	False	crit_go	s607
272.024	0.85	0.05	71.0	motor_selective_stop_signal	71.0	0.423	89.0	False	noncrit_signal	s607
274.48	0.85	0.05	89.0	motor_selective_stop_signal	89.0	0.667	89.0	False	crit_stop_failure	s607
276.733	0.85	0.0	89.0	motor_selective_stop_signal	89.0	0.537	89.0	False	crit_go	s607
278.989	0.85	0.0	71.0	motor_selective_stop_signal	71.0	0.444	89.0	False	noncrit_nosignal	s607
281.844	0.85	0.0	89.0	motor_selective_stop_signal	89.0	0.532	89.0	False	crit_go	s607
284.095	0.85	0.0	71.0	motor_selective_stop_signal	71.0	0.391	89.0	False	noncrit_nosignal	s607
287.547	0.85	0.0	71.0	motor_selective_stop_signal	71.0	0.495	89.0	False	noncrit_signal	s607
289.899	0.85	0.0	71.0	motor_selective_stop_signal	71.0	0.531	89.0	False	noncrit_signal	s607
292.252	0.85	0.0	71.0	motor_selective_stop_signal	71.0	0.573	89.0	False	noncrit_nosignal	s607
294.605	0.85	0.0	89.0	motor_selective_stop_signal	-1.0	n/a	89.0	True	crit_stop_success	s607
297.059	0.85	0.05	71.0	motor_selective_stop_signal	71.0	0.443	89.0	False	noncrit_signal	s607
299.611	0.85	0.05	71.0	motor_selective_stop_signal	71.0	0.523	89.0	False	noncrit_nosignal	s607
301.967	0.85	0.05	89.0	motor_selective_stop_signal	-1.0	n/a	89.0	True	crit_stop_success	s607
304.221	0.85	0.1	89.0	motor_selective_stop_signal	89.0	0.691	89.0	False	crit_go	s607
306.474	0.85	0.1	71.0	motor_selective_stop_signal	71.0	0.458	89.0	False	noncrit_nosignal	s607
309.527	0.85	0.1	89.0	motor_selective_stop_signal	89.0	0.485	89.0	False	crit_go	s607
311.979	0.85	0.1	71.0	motor_selective_stop_signal	71.0	0.516	89.0	False	noncrit_nosignal	s607
314.335	0.85	0.1	89.0	motor_selective_stop_signal	-1.0	n/a	89.0	True	crit_stop_success	s607
316.589	0.85	0.15	89.0	motor_selective_stop_signal	-1.0	n/a	89.0	True	crit_stop_success	s607
319.843	0.85	0.2	89.0	motor_selective_stop_signal	89.0	0.535	89.0	False	crit_go	s607
322.798	0.85	0.2	89.0	motor_selective_stop_signal	-1.0	n/a	89.0	True	crit_stop_success	s607
325.35	0.85	0.25	71.0	motor_selective_stop_signal	71.0	0.46	89.0	False	noncrit_nosignal	s607
327.704	0.85	0.25	89.0	motor_selective_stop_signal	89.0	0.536	89.0	False	crit_stop_failure	s607
330.257	0.85	0.2	89.0	motor_selective_stop_signal	89.0	0.596	89.0	False	crit_go	s607
332.609	0.85	0.2	89.0	motor_selective_stop_signal	89.0	0.636	89.0	False	crit_go	s607
334.862	0.85	0.2	71.0	motor_selective_stop_signal	71.0	0.523	89.0	False	noncrit_signal	s607
337.318	0.85	0.2	71.0	motor_selective_stop_signal	71.0	0.494	89.0	False	noncrit_nosignal	s607
339.674	0.85	0.2	71.0	motor_selective_stop_signal	71.0	0.444	89.0	False	noncrit_signal	s607
342.327	0.85	0.2	71.0	motor_selective_stop_signal	71.0	0.505	89.0	False	noncrit_nosignal	s607
344.581	0.85	0.2	89.0	motor_selective_stop_signal	-1.0	n/a	89.0	True	crit_stop_success	s607
346.834	0.85	0.25	89.0	motor_selective_stop_signal	89.0	0.406	89.0	False	crit_go	s607
349.29	0.85	0.25	89.0	motor_selective_stop_signal	89.0	0.497	89.0	False	crit_go	s607
351.545	0.85	0.25	89.0	motor_selective_stop_signal	89.0	0.413	89.0	False	crit_stop_failure	s607
354.101	0.85	0.2	71.0	motor_selective_stop_signal	71.0	0.422	89.0	False	noncrit_nosignal	s607
356.353	0.85	0.2	71.0	motor_selective_stop_signal	71.0	0.502	89.0	False	noncrit_signal	s607
358.708	0.85	0.2	89.0	motor_selective_stop_signal	-1.0	n/a	89.0	True	crit_stop_success	s607
360.963	0.85	0.25	89.0	motor_selective_stop_signal	-1.0	n/a	89.0	True	crit_stop_success	s607
363.518	0.85	0.3	89.0	motor_selective_stop_signal	89.0	0.565	89.0	False	crit_go	s607
366.07	0.85	0.3	71.0	motor_selective_stop_signal	71.0	0.613	89.0	False	noncrit_nosignal	s607
368.422	0.85	0.3	89.0	motor_selective_stop_signal	89.0	0.668	89.0	False	crit_go	s607
370.778	0.85	0.3	89.0	motor_selective_stop_signal	89.0	0.617	89.0	False	crit_go	s607
373.031	0.85	0.3	71.0	motor_selective_stop_signal	71.0	0.535	89.0	False	noncrit_signal	s607
375.482	0.85	0.3	89.0	motor_selective_stop_signal	89.0	0.588	89.0	False	crit_go	s607
377.735	0.85	0.3	71.0	motor_selective_stop_signal	71.0	0.462	89.0	False	noncrit_signal	s607
380.189	0.85	0.3	89.0	motor_selective_stop_signal	89.0	0.495	89.0	False	crit_stop_failure	s607
382.845	0.85	0.25	71.0	motor_selective_stop_signal	71.0	0.451	89.0	False	noncrit_nosignal	s607
385.296	0.85	0.25	71.0	motor_selective_stop_signal	71.0	0.59	89.0	False	noncrit_nosignal	s607
387.653	0.85	0.25	71.0	motor_selective_stop_signal	71.0	0.52	89.0	False	noncrit_signal	s607
400.419	0.85	0.25	89.0	motor_selective_stop_signal	89.0	0.504	89.0	False	crit_go	s607
402.975	0.85	0.25	71.0	motor_selective_stop_signal	71.0	0.553	89.0	False	noncrit_nosignal	s607
405.23	0.85	0.25	71.0	motor_selective_stop_signal	71.0	0.551	89.0	False	noncrit_nosignal	s607
407.483	0.85	0.25	89.0	motor_selective_stop_signal	89.0	0.541	89.0	False	crit_go	s607
409.835	0.85	0.25	71.0	motor_selective_stop_signal	71.0	0.55	89.0	False	noncrit_nosignal	s607
412.09	0.85	0.25	71.0	motor_selective_stop_signal	71.0	0.472	89.0	False	noncrit_signal	s607
414.742	0.85	0.25	71.0	motor_selective_stop_signal	71.0	0.497	89.0	False	noncrit_signal	s607
417.094	0.85	0.25	89.0	motor_selective_stop_signal	89.0	0.558	89.0	False	crit_go	s607
419.547	0.85	0.25	71.0	motor_selective_stop_signal	71.0	0.563	89.0	False	noncrit_signal	s607
421.903	0.85	0.25	89.0	motor_selective_stop_signal	-1.0	n/a	89.0	True	crit_stop_success	s607
424.159	0.85	0.3	89.0	motor_selective_stop_signal	89.0	0.638	89.0	False	crit_go	s607
426.411	0.85	0.3	89.0	motor_selective_stop_signal	89.0	0.525	89.0	False	crit_stop_failure	s607
428.666	0.85	0.25	89.0	motor_selective_stop_signal	89.0	0.516	89.0	False	crit_go	s607
430.917	0.85	0.25	89.0	motor_selective_stop_signal	-1.0	n/a	89.0	True	crit_stop_success	s607
433.273	0.85	0.3	89.0	motor_selective_stop_signal	89.0	0.547	89.0	False	crit_go	s607
436.627	0.85	0.3	89.0	motor_selective_stop_signal	89.0	0.532	89.0	False	crit_go	s607
439.179	0.85	0.3	89.0	motor_selective_stop_signal	89.0	0.479	89.0	False	crit_stop_failure	s607
441.931	0.85	0.25	89.0	motor_selective_stop_signal	89.0	0.512	89.0	False	crit_go	s607
444.683	0.85	0.25	71.0	motor_selective_stop_signal	71.0	0.499	89.0	False	noncrit_nosignal	s607
447.335	0.85	0.25	89.0	motor_selective_stop_signal	-1.0	n/a	89.0	True	crit_stop_success	s607
449.791	0.85	0.3	71.0	motor_selective_stop_signal	71.0	0.587	89.0	False	noncrit_nosignal	s607
452.043	0.85	0.3	71.0	motor_selective_stop_signal	71.0	0.573	89.0	False	noncrit_nosignal	s607
454.397	0.85	0.3	71.0	motor_selective_stop_signal	71.0	0.516	89.0	False	noncrit_nosignal	s607
456.851	0.85	0.3	71.0	motor_selective_stop_signal	71.0	0.462	89.0	False	noncrit_nosignal	s607
459.905	0.85	0.3	71.0	motor_selective_stop_signal	71.0	0.419	89.0	False	noncrit_nosignal	s607
462.261	0.85	0.3	71.0	motor_selective_stop_signal	71.0	0.441	89.0	False	noncrit_signal	s607
464.513	0.85	0.3	71.0	motor_selective_stop_signal	71.0	0.902	89.0	False	noncrit_nosignal	s607
466.865	0.85	0.3	89.0	motor_selective_stop_signal	89.0	0.705	89.0	False	crit_go	s607
469.216	0.85	0.3	89.0	motor_selective_stop_signal	89.0	0.448	89.0	False	crit_go	s607
471.569	0.85	0.3	71.0	motor_selective_stop_signal	71.0	0.401	89.0	False	noncrit_signal	s607
473.921	0.85	0.3	89.0	motor_selective_stop_signal	89.0	0.661	89.0	False	crit_go	s607
476.277	0.85	0.3	89.0	motor_selective_stop_signal	89.0	0.495	89.0	False	crit_go	s607
478.529	0.85	0.3	89.0	motor_selective_stop_signal	89.0	0.487	89.0	False	crit_stop_failure	s607
480.882	0.85	0.25	71.0	motor_selective_stop_signal	71.0	0.369	89.0	False	noncrit_nosignal	s607
483.334	0.85	0.25	71.0	motor_selective_stop_signal	71.0	0.463	89.0	False	noncrit_nosignal	s607
485.687	0.85	0.25	89.0	motor_selective_stop_signal	89.0	0.493	89.0	False	crit_go	s607
488.542	0.85	0.25	71.0	motor_selective_stop_signal	71.0	0.466	89.0	False	noncrit_nosignal	s607
491.094	0.85	0.25	89.0	motor_selective_stop_signal	89.0	0.633	89.0	False	crit_go	s607
493.847	0.85	0.25	71.0	motor_selective_stop_signal	71.0	0.497	89.0	False	noncrit_signal	s607
496.102	0.85	0.25	89.0	motor_selective_stop_signal	89.0	0.613	89.0	False	crit_go	s607
498.354	0.85	0.25	89.0	motor_selective_stop_signal	-1.0	n/a	89.0	True	crit_stop_success	s607
501.206	0.85	0.3	89.0	motor_selective_stop_signal	89.0	0.646	89.0	False	crit_go	s607
503.561	0.85	0.3	89.0	motor_selective_stop_signal	89.0	0.569	89.0	False	crit_go	s607
505.813	0.85	0.3	89.0	motor_selective_stop_signal	-1.0	n/a	89.0	True	crit_stop_success	s607
508.068	0.85	0.35	89.0	motor_selective_stop_signal	89.0	0.615	89.0	False	crit_go	s607
510.322	0.85	0.35	89.0	motor_selective_stop_signal	89.0	0.475	89.0	False	crit_go	s607
512.677	0.85	0.35	89.0	motor_selective_stop_signal	89.0	0.496	89.0	False	crit_go	s607
515.328	0.85	0.35	89.0	motor_selective_stop_signal	89.0	0.489	89.0	False	crit_stop_failure	s607
518.085	0.85	0.3	89.0	motor_selective_stop_signal	89.0	0.607	89.0	False	crit_go	s607
520.337	0.85	0.3	89.0	motor_selective_stop_signal	-1.0	n/a	89.0	True	crit_stop_success	s607
533.605	0.85	0.35	71.0	motor_selective_stop_signal	71.0	0.484	89.0	False	noncrit_signal	s607
535.857	0.85	0.35	71.0	motor_selective_stop_signal	71.0	0.413	89.0	False	noncrit_nosignal	s607
538.209	0.85	0.35	71.0	motor_selective_stop_signal	71.0	0.46	89.0	False	noncrit_nosignal	s607
540.563	0.85	0.35	89.0	motor_selective_stop_signal	89.0	0.447	89.0	False	crit_go	s607
543.114	0.85	0.35	71.0	motor_selective_stop_signal	71.0	0.492	89.0	False	noncrit_nosignal	s607
545.365	0.85	0.35	71.0	motor_selective_stop_signal	71.0	0.474	89.0	False	noncrit_signal	s607
547.621	0.85	0.35	71.0	motor_selective_stop_signal	71.0	0.463	89.0	False	noncrit_nosignal	s607
549.873	0.85	0.35	89.0	motor_selective_stop_signal	89.0	0.551	89.0	False	crit_go	s607
552.227	0.85	0.35	89.0	motor_selective_stop_signal	89.0	0.581	89.0	False	crit_stop_failure	s607
554.881	0.85	0.3	89.0	motor_selective_stop_signal	89.0	0.57	89.0	False	crit_go	s607
557.233	0.85	0.3	71.0	motor_selective_stop_signal	71.0	0.466	89.0	False	noncrit_signal	s607
559.489	0.85	0.3	89.0	motor_selective_stop_signal	71.0	0.801	89.0	False	crit_go	s607
561.84	0.85	0.3	89.0	motor_selective_stop_signal	89.0	0.551	89.0	False	crit_stop_failure	s607
564.194	0.85	0.25	89.0	motor_selective_stop_signal	89.0	0.568	89.0	False	crit_go	s607
567.047	0.85	0.25	89.0	motor_selective_stop_signal	89.0	0.532	89.0	False	crit_go	s607
569.499	0.85	0.25	89.0	motor_selective_stop_signal	89.0	0.554	89.0	False	crit_go	s607
571.855	0.85	0.25	71.0	motor_selective_stop_signal	89.0	0.455	89.0	False	noncrit_nosignal	s607
574.511	0.85	0.25	71.0	motor_selective_stop_signal	71.0	0.531	89.0	False	noncrit_nosignal	s607
576.767	0.85	0.25	71.0	motor_selective_stop_signal	71.0	0.388	89.0	False	noncrit_signal	s607
579.023	0.85	0.25	89.0	motor_selective_stop_signal	-1.0	n/a	89.0	True	crit_go	s607
581.277	0.85	0.25	71.0	motor_selective_stop_signal	71.0	0.505	89.0	False	noncrit_nosignal	s607
583.728	0.85	0.25	89.0	motor_selective_stop_signal	89.0	0.422	89.0	False	crit_go	s607
586.079	0.85	0.25	89.0	motor_selective_stop_signal	89.0	0.513	89.0	False	crit_stop_failure	s607
588.331	0.85	0.2	89.0	motor_selective_stop_signal	89.0	0.474	89.0	False	crit_stop_failure	s607
590.685	0.85	0.15	71.0	motor_selective_stop_signal	71.0	0.509	89.0	False	noncrit_signal	s607
593.137	0.85	0.15	71.0	motor_selective_stop_signal	71.0	0.683	89.0	False	noncrit_nosignal	s607
595.488	0.85	0.15	71.0	motor_selective_stop_signal	71.0	0.622	89.0	False	noncrit_nosignal	s607
597.743	0.85	0.15	89.0	motor_selective_stop_signal	89.0	0.543	89.0	False	crit_go	s607
599.995	0.85	0.15	71.0	motor_selective_stop_signal	71.0	0.44	89.0	False	noncrit_signal	s607
602.347	0.85	0.15	89.0	motor_selective_stop_signal	89.0	0.469	89.0	False	crit_stop_failure	s607
604.699	0.85	0.1	71.0	motor_selective_stop_signal	71.0	0.451	89.0	False	noncrit_nosignal	s607
607.054	0.85	0.1	71.0	motor_selective_stop_signal	71.0	0.587	89.0	False	noncrit_nosignal	s607
610.01	0.85	0.1	71.0	motor_selective_stop_signal	71.0	0.548	89.0	False	noncrit_nosignal	s607
612.266	0.85	0.1	71.0	motor_selective_stop_signal	71.0	0.487	89.0	False	noncrit_nosignal	s607
614.618	0.85	0.1	71.0	motor_selective_stop_signal	71.0	0.569	89.0	False	noncrit_nosignal	s607
616.871	0.85	0.1	71.0	motor_selective_stop_signal	71.0	0.54	89.0	False	noncrit_signal	s607
619.323	0.85	0.1	71.0	motor_selective_stop_signal	71.0	0.469	89.0	False	noncrit_signal	s607
621.677	0.85	0.1	71.0	motor_selective_stop_signal	71.0	0.508	89.0	False	noncrit_signal	s607
624.23	0.85	0.1	71.0	motor_selective_stop_signal	71.0	0.482	89.0	False	noncrit_nosignal	s607
626.783	0.85	0.1	89.0	motor_selective_stop_signal	89.0	0.643	89.0	False	crit_go	s607
629.036	0.85	0.1	89.0	motor_selective_stop_signal	89.0	0.565	89.0	False	crit_go	s607
631.291	0.85	0.1	89.0	motor_selective_stop_signal	71.0	0.608	89.0	False	crit_stop_failure	s607
634.043	0.85	0.05	89.0	motor_selective_stop_signal	-1.0	n/a	89.0	True	crit_stop_success	s607
636.4	0.85	0.1	89.0	motor_selective_stop_signal	-1.0	n/a	89.0	True	crit_stop_success	s607
638.653	0.85	0.15	71.0	motor_selective_stop_signal	71.0	0.572	89.0	False	noncrit_nosignal	s607
641.109	0.85	0.15	89.0	motor_selective_stop_signal	89.0	0.638	89.0	False	crit_go	s607
643.362	0.85	0.15	89.0	motor_selective_stop_signal	89.0	0.572	89.0	False	crit_go	s607
645.717	0.85	0.15	71.0	motor_selective_stop_signal	71.0	0.569	89.0	False	noncrit_nosignal	s607
647.971	0.85	0.15	89.0	motor_selective_stop_signal	-1.0	n/a	89.0	True	crit_stop_success	s607
650.223	0.85	0.2	89.0	motor_selective_stop_signal	-1.0	n/a	89.0	True	crit_stop_success	s607
