onset	duration	planning	condition	current_position	exp_stage	experiment_exp_id	goal_state	key_press	problem_id	response_time	start_state	trial_id	worker_id
-36.898	0.0	0	n/a	n/a	n/a	ward_and_allport	n/a	32.0	n/a	7.736	n/a	instructions	s513
3.007	5.486	1	UA_with_intermediate	1,0,0,2,0,0,0,0,0	practice	ward_and_allport	1,2,3,0,0,0,0,0,0	71.0	0.0	5.486	1,0,0,2,3,0,0,0,0	to_hand	s513
8.494	1.053	0	UA_with_intermediate	1,0,0,2,0,0,3,0,0	practice	ward_and_allport	1,2,3,0,0,0,0,0,0	82.0	0.0	1.053	1,0,0,2,3,0,0,0,0	to_board	s513
9.549	0.512	0	UA_with_intermediate	1,0,0,0,0,0,3,0,0	practice	ward_and_allport	1,2,3,0,0,0,0,0,0	71.0	0.0	0.512	1,0,0,2,3,0,0,0,0	to_hand	s513
10.061	0.446	0	UA_with_intermediate	1,2,0,0,0,0,3,0,0	practice	ward_and_allport	1,2,3,0,0,0,0,0,0	89.0	0.0	0.446	1,0,0,2,3,0,0,0,0	to_board	s513
10.508	0.432	0	UA_with_intermediate	1,2,0,0,0,0,0,0,0	practice	ward_and_allport	1,2,3,0,0,0,0,0,0	82.0	0.0	0.432	1,0,0,2,3,0,0,0,0	to_hand	s513
10.942	1.372	0	UA_with_intermediate	1,2,3,0,0,0,0,0,0	practice	ward_and_allport	1,2,3,0,0,0,0,0,0	89.0	0.0	1.372	1,0,0,2,3,0,0,0,0	to_board	s513
12.318	1.0	0	UA_with_intermediate	n/a	practice	ward_and_allport	n/a	-1.0	0.0	n/a	n/a	feedback	s513
14.819	2.679	1	UA_with_intermediate	1,2,0,0,0,0,0,0,0	practice	ward_and_allport	1,3,2,0,0,0,0,0,0	71.0	1.0	2.679	1,2,0,3,0,0,0,0,0	to_hand	s513
17.5	1.813	0	UA_with_intermediate	1,2,0,3,0,0,0,0,0	practice	ward_and_allport	1,3,2,0,0,0,0,0,0	71.0	1.0	1.813	1,2,0,3,0,0,0,0,0	to_board	s513
19.315	1.15	0	UA_with_intermediate	1,0,0,3,0,0,0,0,0	practice	ward_and_allport	1,3,2,0,0,0,0,0,0	89.0	1.0	1.15	1,2,0,3,0,0,0,0,0	to_hand	s513
20.466	0.394	0	UA_with_intermediate	1,0,0,3,0,0,2,0,0	practice	ward_and_allport	1,3,2,0,0,0,0,0,0	82.0	1.0	0.394	1,2,0,3,0,0,0,0,0	to_board	s513
20.862	1.015	0	UA_with_intermediate	1,0,0,0,0,0,2,0,0	practice	ward_and_allport	1,3,2,0,0,0,0,0,0	71.0	1.0	1.015	1,2,0,3,0,0,0,0,0	to_hand	s513
21.878	0.3	0	UA_with_intermediate	1,3,0,0,0,0,2,0,0	practice	ward_and_allport	1,3,2,0,0,0,0,0,0	89.0	1.0	0.3	1,2,0,3,0,0,0,0,0	to_board	s513
22.179	0.458	0	UA_with_intermediate	1,3,0,0,0,0,0,0,0	practice	ward_and_allport	1,3,2,0,0,0,0,0,0	82.0	1.0	0.458	1,2,0,3,0,0,0,0,0	to_hand	s513
22.638	0.334	0	UA_with_intermediate	1,3,2,0,0,0,0,0,0	practice	ward_and_allport	1,3,2,0,0,0,0,0,0	89.0	1.0	0.334	1,2,0,3,0,0,0,0,0	to_board	s513
22.975	1.0	0	UA_with_intermediate	n/a	practice	ward_and_allport	n/a	-1.0	1.0	n/a	n/a	feedback	s513
23.975	1.1	0	UA_with_intermediate	n/a	practice	ward_and_allport	n/a	-1.0	1.0	n/a	n/a	ITI	s513
25.077	3.407	1	UA_without_intermediate	0,0,0,1,2,0,0,0,0	practice	ward_and_allport	3,2,1,0,0,0,0,0,0	82.0	2.0	3.407	0,0,0,1,2,0,3,0,0	to_hand	s513
28.484	0.386	0	UA_without_intermediate	3,0,0,1,2,0,0,0,0	practice	ward_and_allport	3,2,1,0,0,0,0,0,0	89.0	2.0	0.386	0,0,0,1,2,0,3,0,0	to_board	s513
28.874	0.829	0	UA_without_intermediate	3,0,0,1,0,0,0,0,0	practice	ward_and_allport	3,2,1,0,0,0,0,0,0	71.0	2.0	0.829	0,0,0,1,2,0,3,0,0	to_hand	s513
29.703	0.26	0	UA_without_intermediate	3,2,0,1,0,0,0,0,0	practice	ward_and_allport	3,2,1,0,0,0,0,0,0	89.0	2.0	0.26	0,0,0,1,2,0,3,0,0	to_board	s513
29.965	0.587	0	UA_without_intermediate	3,2,0,0,0,0,0,0,0	practice	ward_and_allport	3,2,1,0,0,0,0,0,0	71.0	2.0	0.587	0,0,0,1,2,0,3,0,0	to_hand	s513
30.553	0.22	0	UA_without_intermediate	3,2,1,0,0,0,0,0,0	practice	ward_and_allport	3,2,1,0,0,0,0,0,0	89.0	2.0	0.22	0,0,0,1,2,0,3,0,0	to_board	s513
30.776	1.0	0	UA_without_intermediate	n/a	practice	ward_and_allport	n/a	-1.0	2.0	n/a	n/a	feedback	s513
31.776	1.2	0	UA_without_intermediate	n/a	practice	ward_and_allport	n/a	-1.0	2.0	n/a	n/a	ITI	s513
32.977	1.889	1	UA_without_intermediate	0,0,0,1,0,0,3,0,0	practice	ward_and_allport	2,3,1,0,0,0,0,0,0	71.0	3.0	1.889	0,0,0,1,2,0,3,0,0	to_hand	s513
34.867	0.379	0	UA_without_intermediate	2,0,0,1,0,0,3,0,0	practice	ward_and_allport	2,3,1,0,0,0,0,0,0	89.0	3.0	0.379	0,0,0,1,2,0,3,0,0	to_board	s513
35.247	1.44	0	UA_without_intermediate	2,0,0,1,0,0,0,0,0	practice	ward_and_allport	2,3,1,0,0,0,0,0,0	82.0	3.0	1.44	0,0,0,1,2,0,3,0,0	to_hand	s513
36.689	0.373	0	UA_without_intermediate	2,3,0,1,0,0,0,0,0	practice	ward_and_allport	2,3,1,0,0,0,0,0,0	89.0	3.0	0.373	0,0,0,1,2,0,3,0,0	to_board	s513
37.063	0.721	0	UA_without_intermediate	2,3,0,0,0,0,0,0,0	practice	ward_and_allport	2,3,1,0,0,0,0,0,0	71.0	3.0	0.721	0,0,0,1,2,0,3,0,0	to_hand	s513
37.785	0.191	0	UA_without_intermediate	2,3,1,0,0,0,0,0,0	practice	ward_and_allport	2,3,1,0,0,0,0,0,0	89.0	3.0	0.191	0,0,0,1,2,0,3,0,0	to_board	s513
37.979	1.0	0	UA_without_intermediate	n/a	practice	ward_and_allport	n/a	-1.0	3.0	n/a	n/a	feedback	s513
38.979	1.0	0	UA_without_intermediate	n/a	practice	ward_and_allport	n/a	-1.0	3.0	n/a	n/a	ITI	s513
41.984	6.245	1	PA_with_intermediate	1,2,0,0,0,0,0,0,0	test	ward_and_allport	1,3,0,0,0,0,2,0,0	89.0	0.0	6.245	1,2,3,0,0,0,0,0,0	to_hand	s513
48.23	0.623	0	PA_with_intermediate	1,2,0,3,0,0,0,0,0	test	ward_and_allport	1,3,0,0,0,0,2,0,0	71.0	0.0	0.623	1,2,3,0,0,0,0,0,0	to_board	s513
48.855	0.934	0	PA_with_intermediate	1,0,0,3,0,0,0,0,0	test	ward_and_allport	1,3,0,0,0,0,2,0,0	89.0	0.0	0.934	1,2,3,0,0,0,0,0,0	to_hand	s513
49.79	0.307	0	PA_with_intermediate	1,0,0,3,0,0,2,0,0	test	ward_and_allport	1,3,0,0,0,0,2,0,0	82.0	0.0	0.307	1,2,3,0,0,0,0,0,0	to_board	s513
50.099	0.62	0	PA_with_intermediate	1,0,0,0,0,0,2,0,0	test	ward_and_allport	1,3,0,0,0,0,2,0,0	71.0	0.0	0.62	1,2,3,0,0,0,0,0,0	to_hand	s513
50.719	0.211	0	PA_with_intermediate	1,3,0,0,0,0,2,0,0	test	ward_and_allport	1,3,0,0,0,0,2,0,0	89.0	0.0	0.211	1,2,3,0,0,0,0,0,0	to_board	s513
50.934	1.0	0	PA_with_intermediate	n/a	test	ward_and_allport	n/a	-1.0	0.0	n/a	n/a	feedback	s513
51.934	3.176	0	PA_with_intermediate	n/a	test	ward_and_allport	n/a	-1.0	0.0	n/a	n/a	ITI	s513
55.113	2.71	1	PA_with_intermediate	0,0,0,1,2,0,0,0,0	test	ward_and_allport	2,0,0,1,3,0,0,0,0	71.0	1.0	2.71	0,0,0,1,2,3,0,0,0	to_hand	s513
57.824	0.692	0	PA_with_intermediate	0,0,0,1,2,0,3,0,0	test	ward_and_allport	2,0,0,1,3,0,0,0,0	82.0	1.0	0.692	0,0,0,1,2,3,0,0,0	to_board	s513
58.519	0.807	0	PA_with_intermediate	0,0,0,1,0,0,3,0,0	test	ward_and_allport	2,0,0,1,3,0,0,0,0	71.0	1.0	0.807	0,0,0,1,2,3,0,0,0	to_hand	s513
59.328	0.312	0	PA_with_intermediate	2,0,0,1,0,0,3,0,0	test	ward_and_allport	2,0,0,1,3,0,0,0,0	89.0	1.0	0.312	0,0,0,1,2,3,0,0,0	to_board	s513
59.642	0.555	0	PA_with_intermediate	2,0,0,1,0,0,0,0,0	test	ward_and_allport	2,0,0,1,3,0,0,0,0	82.0	1.0	0.555	0,0,0,1,2,3,0,0,0	to_hand	s513
60.199	0.3	0	PA_with_intermediate	2,0,0,1,3,0,0,0,0	test	ward_and_allport	2,0,0,1,3,0,0,0,0	71.0	1.0	0.3	0,0,0,1,2,3,0,0,0	to_board	s513
60.503	1.0	0	PA_with_intermediate	n/a	test	ward_and_allport	n/a	-1.0	1.0	n/a	n/a	feedback	s513
61.503	2.36	0	PA_with_intermediate	n/a	test	ward_and_allport	n/a	-1.0	1.0	n/a	n/a	ITI	s513
63.865	2.881	1	PA_with_intermediate	0,0,0,1,2,0,0,0,0	test	ward_and_allport	0,0,0,1,0,0,2,3,0	71.0	2.0	2.881	0,0,0,1,2,3,0,0,0	to_hand	s513
66.746	0.515	0	PA_with_intermediate	3,0,0,1,2,0,0,0,0	test	ward_and_allport	0,0,0,1,0,0,2,3,0	89.0	2.0	0.515	0,0,0,1,2,3,0,0,0	to_board	s513
67.265	0.637	0	PA_with_intermediate	3,0,0,1,0,0,0,0,0	test	ward_and_allport	0,0,0,1,0,0,2,3,0	71.0	2.0	0.637	0,0,0,1,2,3,0,0,0	to_hand	s513
67.903	0.379	0	PA_with_intermediate	3,0,0,1,0,0,2,0,0	test	ward_and_allport	0,0,0,1,0,0,2,3,0	82.0	2.0	0.379	0,0,0,1,2,3,0,0,0	to_board	s513
68.284	0.44	0	PA_with_intermediate	0,0,0,1,0,0,2,0,0	test	ward_and_allport	0,0,0,1,0,0,2,3,0	89.0	2.0	0.44	0,0,0,1,2,3,0,0,0	to_hand	s513
68.725	0.557	0	PA_with_intermediate	0,0,0,1,0,0,2,3,0	test	ward_and_allport	0,0,0,1,0,0,2,3,0	82.0	2.0	0.557	0,0,0,1,2,3,0,0,0	to_board	s513
69.286	1.0	0	PA_with_intermediate	n/a	test	ward_and_allport	n/a	-1.0	2.0	n/a	n/a	feedback	s513
70.286	1.0	0	PA_with_intermediate	n/a	test	ward_and_allport	n/a	-1.0	2.0	n/a	n/a	ITI	s513
71.288	2.482	1	PA_without_intermediate	0,0,0,1,2,0,0,0,0	test	ward_and_allport	3,1,0,0,0,0,2,0,0	71.0	3.0	2.482	0,0,0,1,2,3,0,0,0	to_hand	s513
73.772	0.352	0	PA_without_intermediate	3,0,0,1,2,0,0,0,0	test	ward_and_allport	3,1,0,0,0,0,2,0,0	89.0	3.0	0.352	0,0,0,1,2,3,0,0,0	to_board	s513
74.125	0.784	0	PA_without_intermediate	3,0,0,1,0,0,0,0,0	test	ward_and_allport	3,1,0,0,0,0,2,0,0	71.0	3.0	0.784	0,0,0,1,2,3,0,0,0	to_hand	s513
74.911	0.309	0	PA_without_intermediate	3,0,0,1,0,0,2,0,0	test	ward_and_allport	3,1,0,0,0,0,2,0,0	82.0	3.0	0.309	0,0,0,1,2,3,0,0,0	to_board	s513
75.221	0.904	0	PA_without_intermediate	3,0,0,0,0,0,2,0,0	test	ward_and_allport	3,1,0,0,0,0,2,0,0	71.0	3.0	0.904	0,0,0,1,2,3,0,0,0	to_hand	s513
76.127	0.242	0	PA_without_intermediate	3,1,0,0,0,0,2,0,0	test	ward_and_allport	3,1,0,0,0,0,2,0,0	89.0	3.0	0.242	0,0,0,1,2,3,0,0,0	to_board	s513
76.373	1.0	0	PA_without_intermediate	n/a	test	ward_and_allport	n/a	-1.0	3.0	n/a	n/a	feedback	s513
77.373	1.408	0	PA_without_intermediate	n/a	test	ward_and_allport	n/a	-1.0	3.0	n/a	n/a	ITI	s513
78.782	3.43	1	PA_with_intermediate	1,2,0,0,0,0,0,0,0	test	ward_and_allport	1,3,0,0,0,0,2,0,0	89.0	4.0	3.43	1,2,3,0,0,0,0,0,0	to_hand	s513
82.214	0.267	0	PA_with_intermediate	1,2,0,3,0,0,0,0,0	test	ward_and_allport	1,3,0,0,0,0,2,0,0	71.0	4.0	0.267	1,2,3,0,0,0,0,0,0	to_board	s513
82.484	0.857	0	PA_with_intermediate	1,0,0,3,0,0,0,0,0	test	ward_and_allport	1,3,0,0,0,0,2,0,0	89.0	4.0	0.857	1,2,3,0,0,0,0,0,0	to_hand	s513
83.342	0.5	0	PA_with_intermediate	1,0,0,3,0,0,2,0,0	test	ward_and_allport	1,3,0,0,0,0,2,0,0	82.0	4.0	0.5	1,2,3,0,0,0,0,0,0	to_board	s513
83.845	0.449	0	PA_with_intermediate	1,0,0,0,0,0,2,0,0	test	ward_and_allport	1,3,0,0,0,0,2,0,0	71.0	4.0	0.449	1,2,3,0,0,0,0,0,0	to_hand	s513
84.295	0.277	0	PA_with_intermediate	1,3,0,0,0,0,2,0,0	test	ward_and_allport	1,3,0,0,0,0,2,0,0	89.0	4.0	0.277	1,2,3,0,0,0,0,0,0	to_board	s513
84.576	1.0	0	PA_with_intermediate	n/a	test	ward_and_allport	n/a	-1.0	4.0	n/a	n/a	feedback	s513
85.576	1.816	0	PA_with_intermediate	n/a	test	ward_and_allport	n/a	-1.0	4.0	n/a	n/a	ITI	s513
87.396	3.42	1	PA_without_intermediate	0,0,0,0,0,0,1,2,0	test	ward_and_allport	1,0,0,3,2,0,0,0,0	82.0	5.0	3.42	0,0,0,0,0,0,1,2,3	to_hand	s513
90.816	0.851	0	PA_without_intermediate	0,0,0,3,0,0,1,2,0	test	ward_and_allport	1,0,0,3,2,0,0,0,0	71.0	5.0	0.851	0,0,0,0,0,0,1,2,3	to_board	s513
91.67	1.871	0	PA_without_intermediate	0,0,0,3,0,0,1,0,0	test	ward_and_allport	1,0,0,3,2,0,0,0,0	82.0	5.0	1.871	0,0,0,0,0,0,1,2,3	to_hand	s513
93.543	0.451	0	PA_without_intermediate	0,0,0,3,2,0,1,0,0	test	ward_and_allport	1,0,0,3,2,0,0,0,0	71.0	5.0	0.451	0,0,0,0,0,0,1,2,3	to_board	s513
93.997	1.103	0	PA_without_intermediate	0,0,0,3,2,0,0,0,0	test	ward_and_allport	1,0,0,3,2,0,0,0,0	82.0	5.0	1.103	0,0,0,0,0,0,1,2,3	to_hand	s513
95.102	0.284	0	PA_without_intermediate	1,0,0,3,2,0,0,0,0	test	ward_and_allport	1,0,0,3,2,0,0,0,0	89.0	5.0	0.284	0,0,0,0,0,0,1,2,3	to_board	s513
95.39	1.0	0	PA_without_intermediate	n/a	test	ward_and_allport	n/a	-1.0	5.0	n/a	n/a	feedback	s513
96.39	2.088	0	PA_without_intermediate	n/a	test	ward_and_allport	n/a	-1.0	5.0	n/a	n/a	ITI	s513
98.481	3.863	1	PA_without_intermediate	0,0,0,1,2,0,0,0,0	test	ward_and_allport	1,0,0,0,0,0,3,2,0	71.0	6.0	3.863	0,0,0,1,2,3,0,0,0	to_hand	s513
102.345	0.375	0	PA_without_intermediate	0,0,0,1,2,0,3,0,0	test	ward_and_allport	1,0,0,0,0,0,3,2,0	82.0	6.0	0.375	0,0,0,1,2,3,0,0,0	to_board	s513
102.723	2.333	0	PA_without_intermediate	0,0,0,1,0,0,3,0,0	test	ward_and_allport	1,0,0,0,0,0,3,2,0	71.0	6.0	2.333	0,0,0,1,2,3,0,0,0	to_hand	s513
105.057	0.576	0	PA_without_intermediate	0,0,0,1,0,0,3,2,0	test	ward_and_allport	1,0,0,0,0,0,3,2,0	82.0	6.0	0.576	0,0,0,1,2,3,0,0,0	to_board	s513
105.637	0.554	0	PA_without_intermediate	0,0,0,0,0,0,3,2,0	test	ward_and_allport	1,0,0,0,0,0,3,2,0	71.0	6.0	0.554	0,0,0,1,2,3,0,0,0	to_hand	s513
106.191	0.294	0	PA_without_intermediate	1,0,0,0,0,0,3,2,0	test	ward_and_allport	1,0,0,0,0,0,3,2,0	89.0	6.0	0.294	0,0,0,1,2,3,0,0,0	to_board	s513
106.49	1.0	0	PA_without_intermediate	n/a	test	ward_and_allport	n/a	-1.0	6.0	n/a	n/a	feedback	s513
107.49	1.136	0	PA_without_intermediate	n/a	test	ward_and_allport	n/a	-1.0	6.0	n/a	n/a	ITI	s513
108.629	2.008	1	PA_without_intermediate	0,0,0,0,0,0,1,2,0	test	ward_and_allport	3,2,0,1,0,0,0,0,0	82.0	7.0	2.008	0,0,0,0,0,0,1,2,3	to_hand	s513
110.637	0.376	0	PA_without_intermediate	3,0,0,0,0,0,1,2,0	test	ward_and_allport	3,2,0,1,0,0,0,0,0	89.0	7.0	0.376	0,0,0,0,0,0,1,2,3	to_board	s513
111.017	1.211	0	PA_without_intermediate	3,0,0,0,0,0,1,0,0	test	ward_and_allport	3,2,0,1,0,0,0,0,0	82.0	7.0	1.211	0,0,0,0,0,0,1,2,3	to_hand	s513
112.229	0.586	0	PA_without_intermediate	3,2,0,0,0,0,1,0,0	test	ward_and_allport	3,2,0,1,0,0,0,0,0	89.0	7.0	0.586	0,0,0,0,0,0,1,2,3	to_board	s513
112.817	1.528	0	PA_without_intermediate	3,2,0,0,0,0,0,0,0	test	ward_and_allport	3,2,0,1,0,0,0,0,0	82.0	7.0	1.528	0,0,0,0,0,0,1,2,3	to_hand	s513
114.346	0.275	0	PA_without_intermediate	3,2,0,1,0,0,0,0,0	test	ward_and_allport	3,2,0,1,0,0,0,0,0	71.0	7.0	0.275	0,0,0,0,0,0,1,2,3	to_board	s513
114.626	1.0	0	PA_without_intermediate	n/a	test	ward_and_allport	n/a	-1.0	7.0	n/a	n/a	feedback	s513
115.626	6.168	0	PA_without_intermediate	n/a	test	ward_and_allport	n/a	-1.0	7.0	n/a	n/a	ITI	s513
121.797	1.693	1	PA_without_intermediate	0,0,0,0,0,0,1,2,0	test	ward_and_allport	3,1,0,2,0,0,0,0,0	82.0	8.0	1.693	0,0,0,0,0,0,1,2,3	to_hand	s513
123.491	0.496	0	PA_without_intermediate	3,0,0,0,0,0,1,2,0	test	ward_and_allport	3,1,0,2,0,0,0,0,0	89.0	8.0	0.496	0,0,0,0,0,0,1,2,3	to_board	s513
123.991	2.4	0	PA_without_intermediate	3,0,0,0,0,0,1,0,0	test	ward_and_allport	3,1,0,2,0,0,0,0,0	82.0	8.0	2.4	0,0,0,0,0,0,1,2,3	to_hand	s513
126.391	0.482	0	PA_without_intermediate	3,0,0,2,0,0,1,0,0	test	ward_and_allport	3,1,0,2,0,0,0,0,0	71.0	8.0	0.482	0,0,0,0,0,0,1,2,3	to_board	s513
126.877	1.098	0	PA_without_intermediate	3,0,0,2,0,0,0,0,0	test	ward_and_allport	3,1,0,2,0,0,0,0,0	82.0	8.0	1.098	0,0,0,0,0,0,1,2,3	to_hand	s513
127.976	0.351	0	PA_without_intermediate	3,1,0,2,0,0,0,0,0	test	ward_and_allport	3,1,0,2,0,0,0,0,0	89.0	8.0	0.351	0,0,0,0,0,0,1,2,3	to_board	s513
128.332	1.0	0	PA_without_intermediate	n/a	test	ward_and_allport	n/a	-1.0	8.0	n/a	n/a	feedback	s513
129.332	1.816	0	PA_without_intermediate	n/a	test	ward_and_allport	n/a	-1.0	8.0	n/a	n/a	ITI	s513
131.151	2.05	1	PA_with_intermediate	0,0,0,0,0,0,1,2,0	test	ward_and_allport	0,0,0,2,3,0,1,0,0	82.0	9.0	2.05	0,0,0,0,0,0,1,2,3	to_hand	s513
133.202	0.495	0	PA_with_intermediate	0,0,0,3,0,0,1,2,0	test	ward_and_allport	0,0,0,2,3,0,1,0,0	71.0	9.0	0.495	0,0,0,0,0,0,1,2,3	to_board	s513
133.7	2.665	0	PA_with_intermediate	0,0,0,0,0,0,1,2,0	test	ward_and_allport	0,0,0,2,3,0,1,0,0	71.0	9.0	2.665	0,0,0,0,0,0,1,2,3	to_hand	s513
136.366	0.559	0	PA_with_intermediate	3,0,0,0,0,0,1,2,0	test	ward_and_allport	0,0,0,2,3,0,1,0,0	89.0	9.0	0.559	0,0,0,0,0,0,1,2,3	to_board	s513
136.929	0.668	0	PA_with_intermediate	3,0,0,0,0,0,1,0,0	test	ward_and_allport	0,0,0,2,3,0,1,0,0	82.0	9.0	0.668	0,0,0,0,0,0,1,2,3	to_hand	s513
137.599	0.304	0	PA_with_intermediate	3,0,0,2,0,0,1,0,0	test	ward_and_allport	0,0,0,2,3,0,1,0,0	71.0	9.0	0.304	0,0,0,0,0,0,1,2,3	to_board	s513
137.906	0.296	0	PA_with_intermediate	0,0,0,2,0,0,1,0,0	test	ward_and_allport	0,0,0,2,3,0,1,0,0	89.0	9.0	0.296	0,0,0,0,0,0,1,2,3	to_hand	s513
138.203	0.298	0	PA_with_intermediate	0,0,0,2,3,0,1,0,0	test	ward_and_allport	0,0,0,2,3,0,1,0,0	71.0	9.0	0.298	0,0,0,0,0,0,1,2,3	to_board	s513
138.507	1.0	0	PA_with_intermediate	n/a	test	ward_and_allport	n/a	-1.0	9.0	n/a	n/a	feedback	s513
139.507	1.952	0	PA_with_intermediate	n/a	test	ward_and_allport	n/a	-1.0	9.0	n/a	n/a	ITI	s513
141.463	2.839	1	PA_with_intermediate	0,0,0,1,2,0,0,0,0	test	ward_and_allport	2,0,0,1,3,0,0,0,0	71.0	10.0	2.839	0,0,0,1,2,3,0,0,0	to_hand	s513
144.303	0.342	0	PA_with_intermediate	0,0,0,1,2,0,3,0,0	test	ward_and_allport	2,0,0,1,3,0,0,0,0	82.0	10.0	0.342	0,0,0,1,2,3,0,0,0	to_board	s513
144.649	0.496	0	PA_with_intermediate	0,0,0,1,0,0,3,0,0	test	ward_and_allport	2,0,0,1,3,0,0,0,0	71.0	10.0	0.496	0,0,0,1,2,3,0,0,0	to_hand	s513
145.146	0.335	0	PA_with_intermediate	2,0,0,1,0,0,3,0,0	test	ward_and_allport	2,0,0,1,3,0,0,0,0	89.0	10.0	0.335	0,0,0,1,2,3,0,0,0	to_board	s513
145.485	0.46	0	PA_with_intermediate	2,0,0,1,0,0,0,0,0	test	ward_and_allport	2,0,0,1,3,0,0,0,0	82.0	10.0	0.46	0,0,0,1,2,3,0,0,0	to_hand	s513
145.947	0.263	0	PA_with_intermediate	2,0,0,1,3,0,0,0,0	test	ward_and_allport	2,0,0,1,3,0,0,0,0	71.0	10.0	0.263	0,0,0,1,2,3,0,0,0	to_board	s513
146.215	1.0	0	PA_with_intermediate	n/a	test	ward_and_allport	n/a	-1.0	10.0	n/a	n/a	feedback	s513
147.215	1.136	0	PA_with_intermediate	n/a	test	ward_and_allport	n/a	-1.0	10.0	n/a	n/a	ITI	s513
148.355	1.546	1	PA_without_intermediate	0,0,0,1,2,0,0,0,0	test	ward_and_allport	3,1,0,0,0,0,2,0,0	71.0	11.0	1.546	0,0,0,1,2,3,0,0,0	to_hand	s513
149.902	0.205	0	PA_without_intermediate	3,0,0,1,2,0,0,0,0	test	ward_and_allport	3,1,0,0,0,0,2,0,0	89.0	11.0	0.205	0,0,0,1,2,3,0,0,0	to_board	s513
150.112	1.281	0	PA_without_intermediate	3,0,0,1,0,0,0,0,0	test	ward_and_allport	3,1,0,0,0,0,2,0,0	71.0	11.0	1.281	0,0,0,1,2,3,0,0,0	to_hand	s513
151.394	0.346	0	PA_without_intermediate	3,0,0,1,0,0,2,0,0	test	ward_and_allport	3,1,0,0,0,0,2,0,0	82.0	11.0	0.346	0,0,0,1,2,3,0,0,0	to_board	s513
151.744	0.319	0	PA_without_intermediate	3,0,0,0,0,0,2,0,0	test	ward_and_allport	3,1,0,0,0,0,2,0,0	71.0	11.0	0.319	0,0,0,1,2,3,0,0,0	to_hand	s513
152.064	0.39	0	PA_without_intermediate	3,1,0,0,0,0,2,0,0	test	ward_and_allport	3,1,0,0,0,0,2,0,0	89.0	11.0	0.39	0,0,0,1,2,3,0,0,0	to_board	s513
152.46	1.0	0	PA_without_intermediate	n/a	test	ward_and_allport	n/a	-1.0	11.0	n/a	n/a	feedback	s513
153.46	1.68	0	PA_without_intermediate	n/a	test	ward_and_allport	n/a	-1.0	11.0	n/a	n/a	ITI	s513
155.143	3.113	1	PA_without_intermediate	1,2,0,0,0,0,0,0,0	test	ward_and_allport	0,0,0,3,2,0,1,0,0	89.0	12.0	3.113	1,2,3,0,0,0,0,0,0	to_hand	s513
158.257	0.265	0	PA_without_intermediate	1,2,0,3,0,0,0,0,0	test	ward_and_allport	0,0,0,3,2,0,1,0,0	71.0	12.0	0.265	1,2,3,0,0,0,0,0,0	to_board	s513
158.527	1.325	0	PA_without_intermediate	1,0,0,3,0,0,0,0,0	test	ward_and_allport	0,0,0,3,2,0,1,0,0	89.0	12.0	1.325	1,2,3,0,0,0,0,0,0	to_hand	s513
159.852	0.28	0	PA_without_intermediate	1,0,0,3,2,0,0,0,0	test	ward_and_allport	0,0,0,3,2,0,1,0,0	71.0	12.0	0.28	1,2,3,0,0,0,0,0,0	to_board	s513
160.137	0.573	0	PA_without_intermediate	0,0,0,3,2,0,0,0,0	test	ward_and_allport	0,0,0,3,2,0,1,0,0	89.0	12.0	0.573	1,2,3,0,0,0,0,0,0	to_hand	s513
160.71	0.375	0	PA_without_intermediate	0,0,0,3,2,0,1,0,0	test	ward_and_allport	0,0,0,3,2,0,1,0,0	82.0	12.0	0.375	1,2,3,0,0,0,0,0,0	to_board	s513
161.091	1.0	0	PA_without_intermediate	n/a	test	ward_and_allport	n/a	-1.0	12.0	n/a	n/a	feedback	s513
162.091	2.088	0	PA_without_intermediate	n/a	test	ward_and_allport	n/a	-1.0	12.0	n/a	n/a	ITI	s513
164.183	1.548	1	PA_with_intermediate	0,0,0,0,0,0,1,2,0	test	ward_and_allport	0,0,0,2,3,0,1,0,0	82.0	13.0	1.548	0,0,0,0,0,0,1,2,3	to_hand	s513
165.734	0.282	0	PA_with_intermediate	3,0,0,0,0,0,1,2,0	test	ward_and_allport	0,0,0,2,3,0,1,0,0	89.0	13.0	0.282	0,0,0,0,0,0,1,2,3	to_board	s513
166.019	0.926	0	PA_with_intermediate	0,0,0,0,0,0,1,2,0	test	ward_and_allport	0,0,0,2,3,0,1,0,0	89.0	13.0	0.926	0,0,0,0,0,0,1,2,3	to_hand	s513
166.946	0.317	0	PA_with_intermediate	0,0,0,3,0,0,1,2,0	test	ward_and_allport	0,0,0,2,3,0,1,0,0	71.0	13.0	0.317	0,0,0,0,0,0,1,2,3	to_board	s513
167.267	2.408	0	PA_with_intermediate	0,0,0,0,0,0,1,2,0	test	ward_and_allport	0,0,0,2,3,0,1,0,0	71.0	13.0	2.408	0,0,0,0,0,0,1,2,3	to_hand	s513
169.677	0.382	0	PA_with_intermediate	3,0,0,0,0,0,1,2,0	test	ward_and_allport	0,0,0,2,3,0,1,0,0	89.0	13.0	0.382	0,0,0,0,0,0,1,2,3	to_board	s513
170.062	1.373	0	PA_with_intermediate	3,0,0,0,0,0,1,0,0	test	ward_and_allport	0,0,0,2,3,0,1,0,0	82.0	13.0	1.373	0,0,0,0,0,0,1,2,3	to_hand	s513
171.436	0.751	0	PA_with_intermediate	3,0,0,2,0,0,1,0,0	test	ward_and_allport	0,0,0,2,3,0,1,0,0	71.0	13.0	0.751	0,0,0,0,0,0,1,2,3	to_board	s513
172.191	0.446	0	PA_with_intermediate	0,0,0,2,0,0,1,0,0	test	ward_and_allport	0,0,0,2,3,0,1,0,0	89.0	13.0	0.446	0,0,0,0,0,0,1,2,3	to_hand	s513
172.638	0.329	0	PA_with_intermediate	0,0,0,2,3,0,1,0,0	test	ward_and_allport	0,0,0,2,3,0,1,0,0	71.0	13.0	0.329	0,0,0,0,0,0,1,2,3	to_board	s513
172.973	1.0	0	PA_with_intermediate	n/a	test	ward_and_allport	n/a	-1.0	13.0	n/a	n/a	feedback	s513
173.973	1.0	0	PA_with_intermediate	n/a	test	ward_and_allport	n/a	-1.0	13.0	n/a	n/a	ITI	s513
174.978	1.786	1	PA_without_intermediate	0,0,0,1,2,0,0,0,0	test	ward_and_allport	1,0,0,0,0,0,3,2,0	71.0	14.0	1.786	0,0,0,1,2,3,0,0,0	to_hand	s513
176.765	0.396	0	PA_without_intermediate	0,0,0,1,2,0,3,0,0	test	ward_and_allport	1,0,0,0,0,0,3,2,0	82.0	14.0	0.396	0,0,0,1,2,3,0,0,0	to_board	s513
177.166	1.458	0	PA_without_intermediate	0,0,0,1,0,0,3,0,0	test	ward_and_allport	1,0,0,0,0,0,3,2,0	71.0	14.0	1.458	0,0,0,1,2,3,0,0,0	to_hand	s513
178.625	0.345	0	PA_without_intermediate	0,0,0,1,0,0,3,2,0	test	ward_and_allport	1,0,0,0,0,0,3,2,0	82.0	14.0	0.345	0,0,0,1,2,3,0,0,0	to_board	s513
178.975	1.301	0	PA_without_intermediate	0,0,0,0,0,0,3,2,0	test	ward_and_allport	1,0,0,0,0,0,3,2,0	71.0	14.0	1.301	0,0,0,1,2,3,0,0,0	to_hand	s513
180.277	0.21	0	PA_without_intermediate	1,0,0,0,0,0,3,2,0	test	ward_and_allport	1,0,0,0,0,0,3,2,0	89.0	14.0	0.21	0,0,0,1,2,3,0,0,0	to_board	s513
180.491	1.0	0	PA_without_intermediate	n/a	test	ward_and_allport	n/a	-1.0	14.0	n/a	n/a	feedback	s513
181.491	1.0	0	PA_without_intermediate	n/a	test	ward_and_allport	n/a	-1.0	14.0	n/a	n/a	ITI	s513
187.498	2.221	1	PA_without_intermediate	0,0,0,0,0,0,1,2,0	test	ward_and_allport	3,2,0,1,0,0,0,0,0	82.0	15.0	2.221	0,0,0,0,0,0,1,2,3	to_hand	s513
189.721	0.242	0	PA_without_intermediate	3,0,0,0,0,0,1,2,0	test	ward_and_allport	3,2,0,1,0,0,0,0,0	89.0	15.0	0.242	0,0,0,0,0,0,1,2,3	to_board	s513
189.967	2.197	0	PA_without_intermediate	3,0,0,0,0,0,1,0,0	test	ward_and_allport	3,2,0,1,0,0,0,0,0	82.0	15.0	2.197	0,0,0,0,0,0,1,2,3	to_hand	s513
192.165	0.382	0	PA_without_intermediate	3,2,0,0,0,0,1,0,0	test	ward_and_allport	3,2,0,1,0,0,0,0,0	89.0	15.0	0.382	0,0,0,0,0,0,1,2,3	to_board	s513
192.551	1.169	0	PA_without_intermediate	3,2,0,0,0,0,0,0,0	test	ward_and_allport	3,2,0,1,0,0,0,0,0	82.0	15.0	1.169	0,0,0,0,0,0,1,2,3	to_hand	s513
193.721	0.157	0	PA_without_intermediate	3,2,0,1,0,0,0,0,0	test	ward_and_allport	3,2,0,1,0,0,0,0,0	71.0	15.0	0.157	0,0,0,0,0,0,1,2,3	to_board	s513
193.883	1.0	0	PA_without_intermediate	n/a	test	ward_and_allport	n/a	-1.0	15.0	n/a	n/a	feedback	s513
194.883	1.0	0	PA_without_intermediate	n/a	test	ward_and_allport	n/a	-1.0	15.0	n/a	n/a	ITI	s513
195.887	2.949	1	PA_with_intermediate	0,0,0,0,0,0,1,2,0	test	ward_and_allport	2,3,0,0,0,0,1,0,0	82.0	16.0	2.949	0,0,0,0,0,0,1,2,3	to_hand	s513
198.838	0.858	0	PA_with_intermediate	0,0,0,3,0,0,1,2,0	test	ward_and_allport	2,3,0,0,0,0,1,0,0	71.0	16.0	0.858	0,0,0,0,0,0,1,2,3	to_board	s513
199.701	0.544	0	PA_with_intermediate	0,0,0,3,0,0,1,0,0	test	ward_and_allport	2,3,0,0,0,0,1,0,0	82.0	16.0	0.544	0,0,0,0,0,0,1,2,3	to_hand	s513
200.245	0.411	0	PA_with_intermediate	2,0,0,3,0,0,1,0,0	test	ward_and_allport	2,3,0,0,0,0,1,0,0	89.0	16.0	0.411	0,0,0,0,0,0,1,2,3	to_board	s513
200.661	0.657	0	PA_with_intermediate	2,0,0,0,0,0,1,0,0	test	ward_and_allport	2,3,0,0,0,0,1,0,0	71.0	16.0	0.657	0,0,0,0,0,0,1,2,3	to_hand	s513
201.319	0.25	0	PA_with_intermediate	2,3,0,0,0,0,1,0,0	test	ward_and_allport	2,3,0,0,0,0,1,0,0	89.0	16.0	0.25	0,0,0,0,0,0,1,2,3	to_board	s513
201.574	1.0	0	PA_with_intermediate	n/a	test	ward_and_allport	n/a	-1.0	16.0	n/a	n/a	feedback	s513
202.574	1.544	0	PA_with_intermediate	n/a	test	ward_and_allport	n/a	-1.0	16.0	n/a	n/a	ITI	s513
204.123	1.754	1	PA_without_intermediate	1,2,0,0,0,0,0,0,0	test	ward_and_allport	0,0,0,3,1,0,2,0,0	89.0	17.0	1.754	1,2,3,0,0,0,0,0,0	to_hand	s513
205.878	0.273	0	PA_without_intermediate	1,2,0,3,0,0,0,0,0	test	ward_and_allport	0,0,0,3,1,0,2,0,0	71.0	17.0	0.273	1,2,3,0,0,0,0,0,0	to_board	s513
206.156	0.942	0	PA_without_intermediate	1,0,0,3,0,0,0,0,0	test	ward_and_allport	0,0,0,3,1,0,2,0,0	89.0	17.0	0.942	1,2,3,0,0,0,0,0,0	to_hand	s513
207.099	0.241	0	PA_without_intermediate	1,0,0,3,0,0,2,0,0	test	ward_and_allport	0,0,0,3,1,0,2,0,0	82.0	17.0	0.241	1,2,3,0,0,0,0,0,0	to_board	s513
207.344	0.715	0	PA_without_intermediate	0,0,0,3,0,0,2,0,0	test	ward_and_allport	0,0,0,3,1,0,2,0,0	89.0	17.0	0.715	1,2,3,0,0,0,0,0,0	to_hand	s513
208.06	0.206	0	PA_without_intermediate	0,0,0,3,1,0,2,0,0	test	ward_and_allport	0,0,0,3,1,0,2,0,0	71.0	17.0	0.206	1,2,3,0,0,0,0,0,0	to_board	s513
208.272	1.0	0	PA_without_intermediate	n/a	test	ward_and_allport	n/a	-1.0	17.0	n/a	n/a	feedback	s513
209.272	1.272	0	PA_without_intermediate	n/a	test	ward_and_allport	n/a	-1.0	17.0	n/a	n/a	ITI	s513
210.549	3.76	1	PA_with_intermediate	1,2,0,0,0,0,0,0,0	test	ward_and_allport	1,0,0,2,3,0,0,0,0	89.0	18.0	3.76	1,2,3,0,0,0,0,0,0	to_hand	s513
214.309	0.747	0	PA_with_intermediate	1,2,0,0,0,0,3,0,0	test	ward_and_allport	1,0,0,2,3,0,0,0,0	82.0	18.0	0.747	1,2,3,0,0,0,0,0,0	to_board	s513
215.061	0.845	0	PA_with_intermediate	1,0,0,0,0,0,3,0,0	test	ward_and_allport	1,0,0,2,3,0,0,0,0	89.0	18.0	0.845	1,2,3,0,0,0,0,0,0	to_hand	s513
215.906	0.275	0	PA_with_intermediate	1,0,0,2,0,0,3,0,0	test	ward_and_allport	1,0,0,2,3,0,0,0,0	71.0	18.0	0.275	1,2,3,0,0,0,0,0,0	to_board	s513
216.187	0.568	0	PA_with_intermediate	1,0,0,2,0,0,0,0,0	test	ward_and_allport	1,0,0,2,3,0,0,0,0	82.0	18.0	0.568	1,2,3,0,0,0,0,0,0	to_hand	s513
216.756	0.209	0	PA_with_intermediate	1,0,0,2,3,0,0,0,0	test	ward_and_allport	1,0,0,2,3,0,0,0,0	71.0	18.0	0.209	1,2,3,0,0,0,0,0,0	to_board	s513
216.971	1.0	0	PA_with_intermediate	n/a	test	ward_and_allport	n/a	-1.0	18.0	n/a	n/a	feedback	s513
217.971	3.04	0	PA_with_intermediate	n/a	test	ward_and_allport	n/a	-1.0	18.0	n/a	n/a	ITI	s513
221.015	1.83	1	PA_with_intermediate	0,0,0,0,0,0,1,2,0	test	ward_and_allport	0,0,0,2,0,0,1,3,0	82.0	19.0	1.83	0,0,0,0,0,0,1,2,3	to_hand	s513
222.846	1.469	0	PA_with_intermediate	0,0,0,3,0,0,1,2,0	test	ward_and_allport	0,0,0,2,0,0,1,3,0	71.0	19.0	1.469	0,0,0,0,0,0,1,2,3	to_board	s513
224.321	1.041	0	PA_with_intermediate	0,0,0,0,0,0,1,2,0	test	ward_and_allport	0,0,0,2,0,0,1,3,0	71.0	19.0	1.041	0,0,0,0,0,0,1,2,3	to_hand	s513
225.362	1.411	0	PA_with_intermediate	3,0,0,0,0,0,1,2,0	test	ward_and_allport	0,0,0,2,0,0,1,3,0	89.0	19.0	1.411	0,0,0,0,0,0,1,2,3	to_board	s513
226.778	0.335	0	PA_with_intermediate	3,0,0,0,0,0,1,0,0	test	ward_and_allport	0,0,0,2,0,0,1,3,0	82.0	19.0	0.335	0,0,0,0,0,0,1,2,3	to_hand	s513
227.114	0.773	0	PA_with_intermediate	3,0,0,2,0,0,1,0,0	test	ward_and_allport	0,0,0,2,0,0,1,3,0	71.0	19.0	0.773	0,0,0,0,0,0,1,2,3	to_board	s513
227.892	0.441	0	PA_with_intermediate	0,0,0,2,0,0,1,0,0	test	ward_and_allport	0,0,0,2,0,0,1,3,0	89.0	19.0	0.441	0,0,0,0,0,0,1,2,3	to_hand	s513
228.334	0.716	0	PA_with_intermediate	0,0,0,2,0,0,1,3,0	test	ward_and_allport	0,0,0,2,0,0,1,3,0	82.0	19.0	0.716	0,0,0,0,0,0,1,2,3	to_board	s513
229.057	1.0	0	PA_with_intermediate	n/a	test	ward_and_allport	n/a	-1.0	19.0	n/a	n/a	feedback	s513
230.057	1.272	0	PA_with_intermediate	n/a	test	ward_and_allport	n/a	-1.0	19.0	n/a	n/a	ITI	s513
231.334	2.064	1	PA_with_intermediate	0,0,0,1,2,0,0,0,0	test	ward_and_allport	0,0,0,1,3,0,2,0,0	71.0	20.0	2.064	0,0,0,1,2,3,0,0,0	to_hand	s513
233.399	0.374	0	PA_with_intermediate	3,0,0,1,2,0,0,0,0	test	ward_and_allport	0,0,0,1,3,0,2,0,0	89.0	20.0	0.374	0,0,0,1,2,3,0,0,0	to_board	s513
233.777	0.52	0	PA_with_intermediate	3,0,0,1,0,0,0,0,0	test	ward_and_allport	0,0,0,1,3,0,2,0,0	71.0	20.0	0.52	0,0,0,1,2,3,0,0,0	to_hand	s513
234.299	0.375	0	PA_with_intermediate	3,0,0,1,0,0,2,0,0	test	ward_and_allport	0,0,0,1,3,0,2,0,0	82.0	20.0	0.375	0,0,0,1,2,3,0,0,0	to_board	s513
234.678	0.29	0	PA_with_intermediate	0,0,0,1,0,0,2,0,0	test	ward_and_allport	0,0,0,1,3,0,2,0,0	89.0	20.0	0.29	0,0,0,1,2,3,0,0,0	to_hand	s513
234.97	0.32	0	PA_with_intermediate	0,0,0,1,3,0,2,0,0	test	ward_and_allport	0,0,0,1,3,0,2,0,0	71.0	20.0	0.32	0,0,0,1,2,3,0,0,0	to_board	s513
235.297	1.0	0	PA_with_intermediate	n/a	test	ward_and_allport	n/a	-1.0	20.0	n/a	n/a	feedback	s513
236.297	1.136	0	PA_with_intermediate	n/a	test	ward_and_allport	n/a	-1.0	20.0	n/a	n/a	ITI	s513
237.439	2.367	1	PA_with_intermediate	1,2,0,0,0,0,0,0,0	test	ward_and_allport	1,3,0,2,0,0,0,0,0	89.0	21.0	2.367	1,2,3,0,0,0,0,0,0	to_hand	s513
239.807	0.603	0	PA_with_intermediate	1,2,0,0,0,0,3,0,0	test	ward_and_allport	1,3,0,2,0,0,0,0,0	82.0	21.0	0.603	1,2,3,0,0,0,0,0,0	to_board	s513
240.416	0.573	0	PA_with_intermediate	1,0,0,0,0,0,3,0,0	test	ward_and_allport	1,3,0,2,0,0,0,0,0	89.0	21.0	0.573	1,2,3,0,0,0,0,0,0	to_hand	s513
240.99	0.291	0	PA_with_intermediate	1,0,0,2,0,0,3,0,0	test	ward_and_allport	1,3,0,2,0,0,0,0,0	71.0	21.0	0.291	1,2,3,0,0,0,0,0,0	to_board	s513
241.288	0.455	0	PA_with_intermediate	1,0,0,2,0,0,0,0,0	test	ward_and_allport	1,3,0,2,0,0,0,0,0	82.0	21.0	0.455	1,2,3,0,0,0,0,0,0	to_hand	s513
241.744	0.196	0	PA_with_intermediate	1,0,0,2,3,0,0,0,0	test	ward_and_allport	1,3,0,2,0,0,0,0,0	71.0	21.0	0.196	1,2,3,0,0,0,0,0,0	to_board	s513
241.946	0.048	0	PA_with_intermediate	0,0,0,2,3,0,0,0,0	test	ward_and_allport	1,3,0,2,0,0,0,0,0	89.0	21.0	0.048	1,2,3,0,0,0,0,0,0	to_hand	s513
241.995	1.394	0	PA_with_intermediate	1,0,0,2,3,0,0,0,0	test	ward_and_allport	1,3,0,2,0,0,0,0,0	89.0	21.0	1.394	1,2,3,0,0,0,0,0,0	to_board	s513
243.395	1.036	0	PA_with_intermediate	1,0,0,2,0,0,0,0,0	test	ward_and_allport	1,3,0,2,0,0,0,0,0	71.0	21.0	1.036	1,2,3,0,0,0,0,0,0	to_hand	s513
244.432	1.375	0	PA_with_intermediate	1,3,0,2,0,0,0,0,0	test	ward_and_allport	1,3,0,2,0,0,0,0,0	89.0	21.0	1.375	1,2,3,0,0,0,0,0,0	to_board	s513
245.814	1.0	0	PA_with_intermediate	n/a	test	ward_and_allport	n/a	-1.0	21.0	n/a	n/a	feedback	s513
246.814	1.0	0	PA_with_intermediate	n/a	test	ward_and_allport	n/a	-1.0	21.0	n/a	n/a	ITI	s513
247.821	3.174	1	PA_with_intermediate	1,2,0,0,0,0,0,0,0	test	ward_and_allport	1,0,0,2,3,0,0,0,0	89.0	22.0	3.174	1,2,3,0,0,0,0,0,0	to_hand	s513
250.995	0.474	0	PA_with_intermediate	1,2,0,0,0,0,3,0,0	test	ward_and_allport	1,0,0,2,3,0,0,0,0	82.0	22.0	0.474	1,2,3,0,0,0,0,0,0	to_board	s513
251.475	0.384	0	PA_with_intermediate	1,0,0,0,0,0,3,0,0	test	ward_and_allport	1,0,0,2,3,0,0,0,0	89.0	22.0	0.384	1,2,3,0,0,0,0,0,0	to_hand	s513
251.86	0.43	0	PA_with_intermediate	1,0,0,2,0,0,3,0,0	test	ward_and_allport	1,0,0,2,3,0,0,0,0	71.0	22.0	0.43	1,2,3,0,0,0,0,0,0	to_board	s513
252.296	0.598	0	PA_with_intermediate	1,0,0,2,0,0,0,0,0	test	ward_and_allport	1,0,0,2,3,0,0,0,0	82.0	22.0	0.598	1,2,3,0,0,0,0,0,0	to_hand	s513
252.895	0.397	0	PA_with_intermediate	1,0,0,2,3,0,0,0,0	test	ward_and_allport	1,0,0,2,3,0,0,0,0	71.0	22.0	0.397	1,2,3,0,0,0,0,0,0	to_board	s513
253.3	1.0	0	PA_with_intermediate	n/a	test	ward_and_allport	n/a	-1.0	22.0	n/a	n/a	feedback	s513
254.3	1.0	0	PA_with_intermediate	n/a	test	ward_and_allport	n/a	-1.0	22.0	n/a	n/a	ITI	s513
255.307	2.908	1	PA_without_intermediate	0,0,0,0,0,0,1,2,0	test	ward_and_allport	2,0,0,3,1,0,0,0,0	82.0	23.0	2.908	0,0,0,0,0,0,1,2,3	to_hand	s513
258.216	0.784	0	PA_without_intermediate	0,0,0,3,0,0,1,2,0	test	ward_and_allport	2,0,0,3,1,0,0,0,0	71.0	23.0	0.784	0,0,0,0,0,0,1,2,3	to_board	s513
259.005	2.123	0	PA_without_intermediate	0,0,0,3,0,0,1,0,0	test	ward_and_allport	2,0,0,3,1,0,0,0,0	82.0	23.0	2.123	0,0,0,0,0,0,1,2,3	to_hand	s513
261.129	0.244	0	PA_without_intermediate	2,0,0,3,0,0,1,0,0	test	ward_and_allport	2,0,0,3,1,0,0,0,0	89.0	23.0	0.244	0,0,0,0,0,0,1,2,3	to_board	s513
261.38	2.762	0	PA_without_intermediate	2,0,0,3,0,0,0,0,0	test	ward_and_allport	2,0,0,3,1,0,0,0,0	82.0	23.0	2.762	0,0,0,0,0,0,1,2,3	to_hand	s513
264.142	0.241	0	PA_without_intermediate	2,0,0,3,1,0,0,0,0	test	ward_and_allport	2,0,0,3,1,0,0,0,0	71.0	23.0	0.241	0,0,0,0,0,0,1,2,3	to_board	s513
264.391	1.0	0	PA_without_intermediate	n/a	test	ward_and_allport	n/a	-1.0	23.0	n/a	n/a	feedback	s513
265.391	1.408	0	PA_without_intermediate	n/a	test	ward_and_allport	n/a	-1.0	23.0	n/a	n/a	ITI	s513
266.806	1.244	1	PA_with_intermediate	1,2,0,0,0,0,0,0,0	test	ward_and_allport	1,0,0,0,0,0,2,3,0	89.0	24.0	1.244	1,2,3,0,0,0,0,0,0	to_hand	s513
268.05	1.74	0	PA_with_intermediate	1,2,0,3,0,0,0,0,0	test	ward_and_allport	1,0,0,0,0,0,2,3,0	71.0	24.0	1.74	1,2,3,0,0,0,0,0,0	to_board	s513
269.796	0.314	0	PA_with_intermediate	1,0,0,3,0,0,0,0,0	test	ward_and_allport	1,0,0,0,0,0,2,3,0	89.0	24.0	0.314	1,2,3,0,0,0,0,0,0	to_hand	s513
270.112	0.378	0	PA_with_intermediate	1,0,0,3,0,0,2,0,0	test	ward_and_allport	1,0,0,0,0,0,2,3,0	82.0	24.0	0.378	1,2,3,0,0,0,0,0,0	to_board	s513
270.496	0.553	0	PA_with_intermediate	1,0,0,0,0,0,2,0,0	test	ward_and_allport	1,0,0,0,0,0,2,3,0	71.0	24.0	0.553	1,2,3,0,0,0,0,0,0	to_hand	s513
271.051	0.504	0	PA_with_intermediate	1,0,0,0,0,0,2,3,0	test	ward_and_allport	1,0,0,0,0,0,2,3,0	82.0	24.0	0.504	1,2,3,0,0,0,0,0,0	to_board	s513
271.563	1.0	0	PA_with_intermediate	n/a	test	ward_and_allport	n/a	-1.0	24.0	n/a	n/a	feedback	s513
272.563	2.768	0	PA_with_intermediate	n/a	test	ward_and_allport	n/a	-1.0	24.0	n/a	n/a	ITI	s513
275.337	2.355	1	PA_with_intermediate	0,0,0,1,2,0,0,0,0	test	ward_and_allport	2,3,0,1,0,0,0,0,0	71.0	25.0	2.355	0,0,0,1,2,3,0,0,0	to_hand	s513
277.692	0.347	0	PA_with_intermediate	0,0,0,1,2,0,3,0,0	test	ward_and_allport	2,3,0,1,0,0,0,0,0	82.0	25.0	0.347	0,0,0,1,2,3,0,0,0	to_board	s513
278.046	0.416	0	PA_with_intermediate	0,0,0,1,0,0,3,0,0	test	ward_and_allport	2,3,0,1,0,0,0,0,0	71.0	25.0	0.416	0,0,0,1,2,3,0,0,0	to_hand	s513
278.463	0.282	0	PA_with_intermediate	2,0,0,1,0,0,3,0,0	test	ward_and_allport	2,3,0,1,0,0,0,0,0	89.0	25.0	0.282	0,0,0,1,2,3,0,0,0	to_board	s513
278.751	0.372	0	PA_with_intermediate	2,0,0,1,0,0,0,0,0	test	ward_and_allport	2,3,0,1,0,0,0,0,0	82.0	25.0	0.372	0,0,0,1,2,3,0,0,0	to_hand	s513
279.124	0.37	0	PA_with_intermediate	2,3,0,1,0,0,0,0,0	test	ward_and_allport	2,3,0,1,0,0,0,0,0	89.0	25.0	0.37	0,0,0,1,2,3,0,0,0	to_board	s513
279.502	1.0	0	PA_with_intermediate	n/a	test	ward_and_allport	n/a	-1.0	25.0	n/a	n/a	feedback	s513
280.502	1.68	0	PA_with_intermediate	n/a	test	ward_and_allport	n/a	-1.0	25.0	n/a	n/a	ITI	s513
282.189	2.207	1	PA_without_intermediate	1,2,0,0,0,0,0,0,0	test	ward_and_allport	0,0,0,3,2,0,1,0,0	89.0	26.0	2.207	1,2,3,0,0,0,0,0,0	to_hand	s513
284.397	0.845	0	PA_without_intermediate	1,2,0,3,0,0,0,0,0	test	ward_and_allport	0,0,0,3,2,0,1,0,0	71.0	26.0	0.845	1,2,3,0,0,0,0,0,0	to_board	s513
285.249	1.011	0	PA_without_intermediate	1,0,0,3,0,0,0,0,0	test	ward_and_allport	0,0,0,3,2,0,1,0,0	89.0	26.0	1.011	1,2,3,0,0,0,0,0,0	to_hand	s513
286.26	0.224	0	PA_without_intermediate	1,0,0,3,2,0,0,0,0	test	ward_and_allport	0,0,0,3,2,0,1,0,0	71.0	26.0	0.224	1,2,3,0,0,0,0,0,0	to_board	s513
286.491	0.544	0	PA_without_intermediate	0,0,0,3,2,0,0,0,0	test	ward_and_allport	0,0,0,3,2,0,1,0,0	89.0	26.0	0.544	1,2,3,0,0,0,0,0,0	to_hand	s513
287.036	0.259	0	PA_without_intermediate	0,0,0,3,2,0,1,0,0	test	ward_and_allport	0,0,0,3,2,0,1,0,0	82.0	26.0	0.259	1,2,3,0,0,0,0,0,0	to_board	s513
287.304	1.0	0	PA_without_intermediate	n/a	test	ward_and_allport	n/a	-1.0	26.0	n/a	n/a	feedback	s513
288.304	2.224	0	PA_without_intermediate	n/a	test	ward_and_allport	n/a	-1.0	26.0	n/a	n/a	ITI	s513
290.535	1.339	1	PA_without_intermediate	1,2,0,0,0,0,0,0,0	test	ward_and_allport	0,0,0,1,0,0,3,2,0	89.0	27.0	1.339	1,2,3,0,0,0,0,0,0	to_hand	s513
291.875	0.235	0	PA_without_intermediate	1,2,0,0,0,0,3,0,0	test	ward_and_allport	0,0,0,1,0,0,3,2,0	82.0	27.0	0.235	1,2,3,0,0,0,0,0,0	to_board	s513
292.117	0.975	0	PA_without_intermediate	1,0,0,0,0,0,3,0,0	test	ward_and_allport	0,0,0,1,0,0,3,2,0	89.0	27.0	0.975	1,2,3,0,0,0,0,0,0	to_hand	s513
293.093	0.255	0	PA_without_intermediate	1,0,0,0,0,0,3,2,0	test	ward_and_allport	0,0,0,1,0,0,3,2,0	82.0	27.0	0.255	1,2,3,0,0,0,0,0,0	to_board	s513
293.354	1.034	0	PA_without_intermediate	0,0,0,0,0,0,3,2,0	test	ward_and_allport	0,0,0,1,0,0,3,2,0	89.0	27.0	1.034	1,2,3,0,0,0,0,0,0	to_hand	s513
294.39	0.319	0	PA_without_intermediate	0,0,0,1,0,0,3,2,0	test	ward_and_allport	0,0,0,1,0,0,3,2,0	71.0	27.0	0.319	1,2,3,0,0,0,0,0,0	to_board	s513
294.717	1.0	0	PA_without_intermediate	n/a	test	ward_and_allport	n/a	-1.0	27.0	n/a	n/a	feedback	s513
295.717	2.36	0	PA_without_intermediate	n/a	test	ward_and_allport	n/a	-1.0	27.0	n/a	n/a	ITI	s513
298.086	1.12	1	PA_without_intermediate	1,2,0,0,0,0,0,0,0	test	ward_and_allport	0,0,0,2,0,0,3,1,0	89.0	28.0	1.12	1,2,3,0,0,0,0,0,0	to_hand	s513
299.207	0.252	0	PA_without_intermediate	1,2,0,0,0,0,3,0,0	test	ward_and_allport	0,0,0,2,0,0,3,1,0	82.0	28.0	0.252	1,2,3,0,0,0,0,0,0	to_board	s513
299.466	0.954	0	PA_without_intermediate	1,0,0,0,0,0,3,0,0	test	ward_and_allport	0,0,0,2,0,0,3,1,0	89.0	28.0	0.954	1,2,3,0,0,0,0,0,0	to_hand	s513
300.422	0.294	0	PA_without_intermediate	1,0,0,2,0,0,3,0,0	test	ward_and_allport	0,0,0,2,0,0,3,1,0	71.0	28.0	0.294	1,2,3,0,0,0,0,0,0	to_board	s513
300.723	0.246	0	PA_without_intermediate	0,0,0,2,0,0,3,0,0	test	ward_and_allport	0,0,0,2,0,0,3,1,0	89.0	28.0	0.246	1,2,3,0,0,0,0,0,0	to_hand	s513
300.97	0.283	0	PA_without_intermediate	0,0,0,2,1,0,3,0,0	test	ward_and_allport	0,0,0,2,0,0,3,1,0	71.0	28.0	0.283	1,2,3,0,0,0,0,0,0	to_board	s513
301.261	0.875	0	PA_without_intermediate	0,0,0,2,0,0,3,0,0	test	ward_and_allport	0,0,0,2,0,0,3,1,0	71.0	28.0	0.875	1,2,3,0,0,0,0,0,0	to_hand	s513
302.138	0.321	0	PA_without_intermediate	0,0,0,2,0,0,3,1,0	test	ward_and_allport	0,0,0,2,0,0,3,1,0	82.0	28.0	0.321	1,2,3,0,0,0,0,0,0	to_board	s513
302.468	1.0	0	PA_without_intermediate	n/a	test	ward_and_allport	n/a	-1.0	28.0	n/a	n/a	feedback	s513
303.468	1.0	0	PA_without_intermediate	n/a	test	ward_and_allport	n/a	-1.0	28.0	n/a	n/a	ITI	s513
304.475	2.363	1	PA_without_intermediate	0,0,0,1,2,0,0,0,0	test	ward_and_allport	3,2,0,0,0,0,1,0,0	71.0	29.0	2.363	0,0,0,1,2,3,0,0,0	to_hand	s513
306.84	0.18	0	PA_without_intermediate	3,0,0,1,2,0,0,0,0	test	ward_and_allport	3,2,0,0,0,0,1,0,0	89.0	29.0	0.18	0,0,0,1,2,3,0,0,0	to_board	s513
307.026	2.101	0	PA_without_intermediate	3,0,0,1,0,0,0,0,0	test	ward_and_allport	3,2,0,0,0,0,1,0,0	71.0	29.0	2.101	0,0,0,1,2,3,0,0,0	to_hand	s513
309.128	0.17	0	PA_without_intermediate	3,2,0,1,0,0,0,0,0	test	ward_and_allport	3,2,0,0,0,0,1,0,0	89.0	29.0	0.17	0,0,0,1,2,3,0,0,0	to_board	s513
309.305	1.442	0	PA_without_intermediate	3,2,0,0,0,0,0,0,0	test	ward_and_allport	3,2,0,0,0,0,1,0,0	71.0	29.0	1.442	0,0,0,1,2,3,0,0,0	to_hand	s513
310.748	0.231	0	PA_without_intermediate	3,2,0,0,0,0,1,0,0	test	ward_and_allport	3,2,0,0,0,0,1,0,0	82.0	29.0	0.231	0,0,0,1,2,3,0,0,0	to_board	s513
310.988	1.0	0	PA_without_intermediate	n/a	test	ward_and_allport	n/a	-1.0	29.0	n/a	n/a	feedback	s513
311.988	1.408	0	PA_without_intermediate	n/a	test	ward_and_allport	n/a	-1.0	29.0	n/a	n/a	ITI	s513
318.408	2.837	1	PA_with_intermediate	1,2,0,0,0,0,0,0,0	test	ward_and_allport	1,3,0,2,0,0,0,0,0	89.0	30.0	2.837	1,2,3,0,0,0,0,0,0	to_hand	s513
321.246	1.131	0	PA_with_intermediate	1,2,0,0,0,0,3,0,0	test	ward_and_allport	1,3,0,2,0,0,0,0,0	82.0	30.0	1.131	1,2,3,0,0,0,0,0,0	to_board	s513
322.386	2.1	0	PA_with_intermediate	1,0,0,0,0,0,3,0,0	test	ward_and_allport	1,3,0,2,0,0,0,0,0	89.0	30.0	2.1	1,2,3,0,0,0,0,0,0	to_hand	s513
324.487	0.269	0	PA_with_intermediate	1,0,0,2,0,0,3,0,0	test	ward_and_allport	1,3,0,2,0,0,0,0,0	71.0	30.0	0.269	1,2,3,0,0,0,0,0,0	to_board	s513
324.766	0.641	0	PA_with_intermediate	1,0,0,2,0,0,0,0,0	test	ward_and_allport	1,3,0,2,0,0,0,0,0	82.0	30.0	0.641	1,2,3,0,0,0,0,0,0	to_hand	s513
325.409	0.371	0	PA_with_intermediate	1,3,0,2,0,0,0,0,0	test	ward_and_allport	1,3,0,2,0,0,0,0,0	89.0	30.0	0.371	1,2,3,0,0,0,0,0,0	to_board	s513
325.789	1.0	0	PA_with_intermediate	n/a	test	ward_and_allport	n/a	-1.0	30.0	n/a	n/a	feedback	s513
326.789	1.136	0	PA_with_intermediate	n/a	test	ward_and_allport	n/a	-1.0	30.0	n/a	n/a	ITI	s513
327.933	2.089	1	PA_without_intermediate	0,0,0,1,2,0,0,0,0	test	ward_and_allport	2,0,0,0,0,0,3,1,0	71.0	31.0	2.089	0,0,0,1,2,3,0,0,0	to_hand	s513
330.023	0.368	0	PA_without_intermediate	0,0,0,1,2,0,3,0,0	test	ward_and_allport	2,0,0,0,0,0,3,1,0	82.0	31.0	0.368	0,0,0,1,2,3,0,0,0	to_board	s513
330.396	1.034	0	PA_without_intermediate	0,0,0,1,0,0,3,0,0	test	ward_and_allport	2,0,0,0,0,0,3,1,0	71.0	31.0	1.034	0,0,0,1,2,3,0,0,0	to_hand	s513
331.431	0.508	0	PA_without_intermediate	2,0,0,1,0,0,3,0,0	test	ward_and_allport	2,0,0,0,0,0,3,1,0	89.0	31.0	0.508	0,0,0,1,2,3,0,0,0	to_board	s513
331.947	0.57	0	PA_without_intermediate	2,0,0,0,0,0,3,0,0	test	ward_and_allport	2,0,0,0,0,0,3,1,0	71.0	31.0	0.57	0,0,0,1,2,3,0,0,0	to_hand	s513
332.518	0.304	0	PA_without_intermediate	2,0,0,0,0,0,3,1,0	test	ward_and_allport	2,0,0,0,0,0,3,1,0	82.0	31.0	0.304	0,0,0,1,2,3,0,0,0	to_board	s513
332.831	1.0	0	PA_without_intermediate	n/a	test	ward_and_allport	n/a	-1.0	31.0	n/a	n/a	feedback	s513
333.831	4.128	0	PA_without_intermediate	n/a	test	ward_and_allport	n/a	-1.0	31.0	n/a	n/a	ITI	s513
337.968	1.373	1	PA_without_intermediate	1,2,0,0,0,0,0,0,0	test	ward_and_allport	0,0,0,2,0,0,3,1,0	89.0	32.0	1.373	1,2,3,0,0,0,0,0,0	to_hand	s513
339.343	0.262	0	PA_without_intermediate	1,2,0,0,0,0,3,0,0	test	ward_and_allport	0,0,0,2,0,0,3,1,0	82.0	32.0	0.262	1,2,3,0,0,0,0,0,0	to_board	s513
339.614	0.911	0	PA_without_intermediate	1,0,0,0,0,0,3,0,0	test	ward_and_allport	0,0,0,2,0,0,3,1,0	89.0	32.0	0.911	1,2,3,0,0,0,0,0,0	to_hand	s513
340.527	0.299	0	PA_without_intermediate	1,0,0,2,0,0,3,0,0	test	ward_and_allport	0,0,0,2,0,0,3,1,0	71.0	32.0	0.299	1,2,3,0,0,0,0,0,0	to_board	s513
340.833	0.391	0	PA_without_intermediate	0,0,0,2,0,0,3,0,0	test	ward_and_allport	0,0,0,2,0,0,3,1,0	89.0	32.0	0.391	1,2,3,0,0,0,0,0,0	to_hand	s513
341.225	0.367	0	PA_without_intermediate	0,0,0,2,0,0,3,1,0	test	ward_and_allport	0,0,0,2,0,0,3,1,0	82.0	32.0	0.367	1,2,3,0,0,0,0,0,0	to_board	s513
341.603	1.0	0	PA_without_intermediate	n/a	test	ward_and_allport	n/a	-1.0	32.0	n/a	n/a	feedback	s513
342.603	1.136	0	PA_without_intermediate	n/a	test	ward_and_allport	n/a	-1.0	32.0	n/a	n/a	ITI	s513
343.746	1.396	1	PA_without_intermediate	0,0,0,1,2,0,0,0,0	test	ward_and_allport	3,2,0,0,0,0,1,0,0	71.0	33.0	1.396	0,0,0,1,2,3,0,0,0	to_hand	s513
345.143	0.343	0	PA_without_intermediate	3,0,0,1,2,0,0,0,0	test	ward_and_allport	3,2,0,0,0,0,1,0,0	89.0	33.0	0.343	0,0,0,1,2,3,0,0,0	to_board	s513
345.492	1.867	0	PA_without_intermediate	3,0,0,1,0,0,0,0,0	test	ward_and_allport	3,2,0,0,0,0,1,0,0	71.0	33.0	1.867	0,0,0,1,2,3,0,0,0	to_hand	s513
347.359	0.23	0	PA_without_intermediate	3,2,0,1,0,0,0,0,0	test	ward_and_allport	3,2,0,0,0,0,1,0,0	89.0	33.0	0.23	0,0,0,1,2,3,0,0,0	to_board	s513
347.596	1.257	0	PA_without_intermediate	3,2,0,0,0,0,0,0,0	test	ward_and_allport	3,2,0,0,0,0,1,0,0	71.0	33.0	1.257	0,0,0,1,2,3,0,0,0	to_hand	s513
348.853	0.342	0	PA_without_intermediate	3,2,0,0,0,0,1,0,0	test	ward_and_allport	3,2,0,0,0,0,1,0,0	82.0	33.0	0.342	0,0,0,1,2,3,0,0,0	to_board	s513
349.204	1.0	0	PA_without_intermediate	n/a	test	ward_and_allport	n/a	-1.0	33.0	n/a	n/a	feedback	s513
350.204	4.264	0	PA_without_intermediate	n/a	test	ward_and_allport	n/a	-1.0	33.0	n/a	n/a	ITI	s513
354.479	1.486	1	PA_with_intermediate	0,0,0,1,2,0,0,0,0	test	ward_and_allport	0,0,0,1,0,0,2,3,0	71.0	34.0	1.486	0,0,0,1,2,3,0,0,0	to_hand	s513
355.966	0.346	0	PA_with_intermediate	0,0,0,1,2,0,3,0,0	test	ward_and_allport	0,0,0,1,0,0,2,3,0	82.0	34.0	0.346	0,0,0,1,2,3,0,0,0	to_board	s513
356.321	1.06	0	PA_with_intermediate	0,0,0,1,0,0,3,0,0	test	ward_and_allport	0,0,0,1,0,0,2,3,0	71.0	34.0	1.06	0,0,0,1,2,3,0,0,0	to_hand	s513
357.383	0.349	0	PA_with_intermediate	0,0,0,1,0,0,3,2,0	test	ward_and_allport	0,0,0,1,0,0,2,3,0	82.0	34.0	0.349	0,0,0,1,2,3,0,0,0	to_board	s513
357.741	6.038	0	PA_with_intermediate	0,0,0,0,0,0,3,2,0	test	ward_and_allport	0,0,0,1,0,0,2,3,0	71.0	34.0	6.038	0,0,0,1,2,3,0,0,0	to_hand	s513
363.78	1.066	0	PA_with_intermediate	0,0,0,1,0,0,3,2,0	test	ward_and_allport	0,0,0,1,0,0,2,3,0	71.0	34.0	1.066	0,0,0,1,2,3,0,0,0	to_board	s513
364.855	0.777	0	PA_with_intermediate	0,0,0,1,0,0,3,0,0	test	ward_and_allport	0,0,0,1,0,0,2,3,0	82.0	34.0	0.777	0,0,0,1,2,3,0,0,0	to_hand	s513
365.634	0.299	0	PA_with_intermediate	2,0,0,1,0,0,3,0,0	test	ward_and_allport	0,0,0,1,0,0,2,3,0	89.0	34.0	0.299	0,0,0,1,2,3,0,0,0	to_board	s513
365.941	1.512	0	PA_with_intermediate	2,0,0,1,0,0,0,0,0	test	ward_and_allport	0,0,0,1,0,0,2,3,0	82.0	34.0	1.512	0,0,0,1,2,3,0,0,0	to_hand	s513
367.454	0.588	0	PA_with_intermediate	2,0,0,1,3,0,0,0,0	test	ward_and_allport	0,0,0,1,0,0,2,3,0	71.0	34.0	0.588	0,0,0,1,2,3,0,0,0	to_board	s513
368.052	0.372	0	PA_with_intermediate	0,0,0,1,3,0,0,0,0	test	ward_and_allport	0,0,0,1,0,0,2,3,0	89.0	34.0	0.372	0,0,0,1,2,3,0,0,0	to_hand	s513
368.425	0.292	0	PA_with_intermediate	0,0,0,1,3,0,2,0,0	test	ward_and_allport	0,0,0,1,0,0,2,3,0	82.0	34.0	0.292	0,0,0,1,2,3,0,0,0	to_board	s513
368.726	0.586	0	PA_with_intermediate	0,0,0,1,0,0,2,0,0	test	ward_and_allport	0,0,0,1,0,0,2,3,0	71.0	34.0	0.586	0,0,0,1,2,3,0,0,0	to_hand	s513
369.313	0.444	0	PA_with_intermediate	0,0,0,1,0,0,2,3,0	test	ward_and_allport	0,0,0,1,0,0,2,3,0	82.0	34.0	0.444	0,0,0,1,2,3,0,0,0	to_board	s513
369.769	1.0	0	PA_with_intermediate	n/a	test	ward_and_allport	n/a	-1.0	34.0	n/a	n/a	feedback	s513
370.769	3.04	0	PA_with_intermediate	n/a	test	ward_and_allport	n/a	-1.0	34.0	n/a	n/a	ITI	s513
373.817	5.161	1	PA_with_intermediate	0,0,0,0,0,0,1,2,0	test	ward_and_allport	2,0,0,0,0,0,1,3,0	82.0	35.0	5.161	0,0,0,0,0,0,1,2,3	to_hand	s513
378.98	3.83	0	PA_with_intermediate	0,0,0,3,0,0,1,2,0	test	ward_and_allport	2,0,0,0,0,0,1,3,0	71.0	35.0	3.83	0,0,0,0,0,0,1,2,3	to_board	s513
382.819	0.495	0	PA_with_intermediate	0,0,0,3,0,0,1,0,0	test	ward_and_allport	2,0,0,0,0,0,1,3,0	82.0	35.0	0.495	0,0,0,0,0,0,1,2,3	to_hand	s513
383.316	0.402	0	PA_with_intermediate	2,0,0,3,0,0,1,0,0	test	ward_and_allport	2,0,0,0,0,0,1,3,0	89.0	35.0	0.402	0,0,0,0,0,0,1,2,3	to_board	s513
383.728	0.371	0	PA_with_intermediate	2,0,0,0,0,0,1,0,0	test	ward_and_allport	2,0,0,0,0,0,1,3,0	71.0	35.0	0.371	0,0,0,0,0,0,1,2,3	to_hand	s513
384.1	0.328	0	PA_with_intermediate	2,0,0,0,0,0,1,3,0	test	ward_and_allport	2,0,0,0,0,0,1,3,0	82.0	35.0	0.328	0,0,0,0,0,0,1,2,3	to_board	s513
384.438	1.0	0	PA_with_intermediate	n/a	test	ward_and_allport	n/a	-1.0	35.0	n/a	n/a	feedback	s513
385.438	1.136	0	PA_with_intermediate	n/a	test	ward_and_allport	n/a	-1.0	35.0	n/a	n/a	ITI	s513
386.581	1.301	1	PA_with_intermediate	1,2,0,0,0,0,0,0,0	test	ward_and_allport	1,0,0,0,0,0,2,3,0	89.0	36.0	1.301	1,2,3,0,0,0,0,0,0	to_hand	s513
387.882	0.849	0	PA_with_intermediate	1,2,0,3,0,0,0,0,0	test	ward_and_allport	1,0,0,0,0,0,2,3,0	71.0	36.0	0.849	1,2,3,0,0,0,0,0,0	to_board	s513
388.741	0.364	0	PA_with_intermediate	1,0,0,3,0,0,0,0,0	test	ward_and_allport	1,0,0,0,0,0,2,3,0	89.0	36.0	0.364	1,2,3,0,0,0,0,0,0	to_hand	s513
389.107	0.427	0	PA_with_intermediate	1,0,0,3,0,0,2,0,0	test	ward_and_allport	1,0,0,0,0,0,2,3,0	82.0	36.0	0.427	1,2,3,0,0,0,0,0,0	to_board	s513
389.54	0.612	0	PA_with_intermediate	1,0,0,0,0,0,2,0,0	test	ward_and_allport	1,0,0,0,0,0,2,3,0	71.0	36.0	0.612	1,2,3,0,0,0,0,0,0	to_hand	s513
390.153	0.31	0	PA_with_intermediate	1,0,0,0,0,0,2,3,0	test	ward_and_allport	1,0,0,0,0,0,2,3,0	82.0	36.0	0.31	1,2,3,0,0,0,0,0,0	to_board	s513
390.471	1.0	0	PA_with_intermediate	n/a	test	ward_and_allport	n/a	-1.0	36.0	n/a	n/a	feedback	s513
391.471	1.408	0	PA_with_intermediate	n/a	test	ward_and_allport	n/a	-1.0	36.0	n/a	n/a	ITI	s513
392.886	1.076	1	PA_without_intermediate	1,2,0,0,0,0,0,0,0	test	ward_and_allport	0,0,0,1,0,0,3,2,0	89.0	37.0	1.076	1,2,3,0,0,0,0,0,0	to_hand	s513
393.963	0.377	0	PA_without_intermediate	1,2,0,0,0,0,3,0,0	test	ward_and_allport	0,0,0,1,0,0,3,2,0	82.0	37.0	0.377	1,2,3,0,0,0,0,0,0	to_board	s513
394.346	0.555	0	PA_without_intermediate	1,0,0,0,0,0,3,0,0	test	ward_and_allport	0,0,0,1,0,0,3,2,0	89.0	37.0	0.555	1,2,3,0,0,0,0,0,0	to_hand	s513
394.903	0.353	0	PA_without_intermediate	1,0,0,0,0,0,3,2,0	test	ward_and_allport	0,0,0,1,0,0,3,2,0	82.0	37.0	0.353	1,2,3,0,0,0,0,0,0	to_board	s513
395.263	0.989	0	PA_without_intermediate	0,0,0,0,0,0,3,2,0	test	ward_and_allport	0,0,0,1,0,0,3,2,0	89.0	37.0	0.989	1,2,3,0,0,0,0,0,0	to_hand	s513
396.252	0.189	0	PA_without_intermediate	0,0,0,1,0,0,3,2,0	test	ward_and_allport	0,0,0,1,0,0,3,2,0	71.0	37.0	0.189	1,2,3,0,0,0,0,0,0	to_board	s513
396.449	1.0	0	PA_without_intermediate	n/a	test	ward_and_allport	n/a	-1.0	37.0	n/a	n/a	feedback	s513
397.449	1.68	0	PA_without_intermediate	n/a	test	ward_and_allport	n/a	-1.0	37.0	n/a	n/a	ITI	s513
399.136	2.737	1	PA_with_intermediate	0,0,0,0,0,0,1,2,0	test	ward_and_allport	2,3,0,0,0,0,1,0,0	82.0	38.0	2.737	0,0,0,0,0,0,1,2,3	to_hand	s513
401.874	0.354	0	PA_with_intermediate	0,0,0,3,0,0,1,2,0	test	ward_and_allport	2,3,0,0,0,0,1,0,0	71.0	38.0	0.354	0,0,0,0,0,0,1,2,3	to_board	s513
402.235	0.4	0	PA_with_intermediate	0,0,0,3,0,0,1,0,0	test	ward_and_allport	2,3,0,0,0,0,1,0,0	82.0	38.0	0.4	0,0,0,0,0,0,1,2,3	to_hand	s513
402.636	0.305	0	PA_with_intermediate	2,0,0,3,0,0,1,0,0	test	ward_and_allport	2,3,0,0,0,0,1,0,0	89.0	38.0	0.305	0,0,0,0,0,0,1,2,3	to_board	s513
402.951	0.59	0	PA_with_intermediate	2,0,0,0,0,0,1,0,0	test	ward_and_allport	2,3,0,0,0,0,1,0,0	71.0	38.0	0.59	0,0,0,0,0,0,1,2,3	to_hand	s513
403.542	0.467	0	PA_with_intermediate	2,3,0,0,0,0,1,0,0	test	ward_and_allport	2,3,0,0,0,0,1,0,0	89.0	38.0	0.467	0,0,0,0,0,0,1,2,3	to_board	s513
404.02	1.0	0	PA_with_intermediate	n/a	test	ward_and_allport	n/a	-1.0	38.0	n/a	n/a	feedback	s513
405.02	3.72	0	PA_with_intermediate	n/a	test	ward_and_allport	n/a	-1.0	38.0	n/a	n/a	ITI	s513
408.748	1.475	1	PA_without_intermediate	0,0,0,1,2,0,0,0,0	test	ward_and_allport	2,0,0,0,0,0,3,1,0	71.0	39.0	1.475	0,0,0,1,2,3,0,0,0	to_hand	s513
410.223	0.34	0	PA_without_intermediate	0,0,0,1,2,0,3,0,0	test	ward_and_allport	2,0,0,0,0,0,3,1,0	82.0	39.0	0.34	0,0,0,1,2,3,0,0,0	to_board	s513
410.573	1.118	0	PA_without_intermediate	0,0,0,1,0,0,3,0,0	test	ward_and_allport	2,0,0,0,0,0,3,1,0	71.0	39.0	1.118	0,0,0,1,2,3,0,0,0	to_hand	s513
411.692	0.224	0	PA_without_intermediate	2,0,0,1,0,0,3,0,0	test	ward_and_allport	2,0,0,0,0,0,3,1,0	89.0	39.0	0.224	0,0,0,1,2,3,0,0,0	to_board	s513
411.927	0.607	0	PA_without_intermediate	2,0,0,0,0,0,3,0,0	test	ward_and_allport	2,0,0,0,0,0,3,1,0	71.0	39.0	0.607	0,0,0,1,2,3,0,0,0	to_hand	s513
412.534	0.534	0	PA_without_intermediate	2,0,0,0,0,0,3,1,0	test	ward_and_allport	2,0,0,0,0,0,3,1,0	82.0	39.0	0.534	0,0,0,1,2,3,0,0,0	to_board	s513
413.08	1.0	0	PA_without_intermediate	n/a	test	ward_and_allport	n/a	-1.0	39.0	n/a	n/a	feedback	s513
414.08	2.224	0	PA_without_intermediate	n/a	test	ward_and_allport	n/a	-1.0	39.0	n/a	n/a	ITI	s513
416.31	1.499	1	PA_without_intermediate	1,2,0,0,0,0,0,0,0	test	ward_and_allport	0,0,0,3,1,0,2,0,0	89.0	40.0	1.499	1,2,3,0,0,0,0,0,0	to_hand	s513
417.81	0.429	0	PA_without_intermediate	1,2,0,3,0,0,0,0,0	test	ward_and_allport	0,0,0,3,1,0,2,0,0	71.0	40.0	0.429	1,2,3,0,0,0,0,0,0	to_board	s513
418.246	0.757	0	PA_without_intermediate	1,0,0,3,0,0,0,0,0	test	ward_and_allport	0,0,0,3,1,0,2,0,0	89.0	40.0	0.757	1,2,3,0,0,0,0,0,0	to_hand	s513
419.004	0.242	0	PA_without_intermediate	1,0,0,3,0,0,2,0,0	test	ward_and_allport	0,0,0,3,1,0,2,0,0	82.0	40.0	0.242	1,2,3,0,0,0,0,0,0	to_board	s513
419.255	0.334	0	PA_without_intermediate	0,0,0,3,0,0,2,0,0	test	ward_and_allport	0,0,0,3,1,0,2,0,0	89.0	40.0	0.334	1,2,3,0,0,0,0,0,0	to_hand	s513
419.591	0.275	0	PA_without_intermediate	0,0,0,3,1,0,2,0,0	test	ward_and_allport	0,0,0,3,1,0,2,0,0	71.0	40.0	0.275	1,2,3,0,0,0,0,0,0	to_board	s513
419.875	1.0	0	PA_without_intermediate	n/a	test	ward_and_allport	n/a	-1.0	40.0	n/a	n/a	feedback	s513
420.875	1.272	0	PA_without_intermediate	n/a	test	ward_and_allport	n/a	-1.0	40.0	n/a	n/a	ITI	s513
422.158	2.46	1	PA_with_intermediate	0,0,0,1,2,0,0,0,0	test	ward_and_allport	2,3,0,1,0,0,0,0,0	71.0	41.0	2.46	0,0,0,1,2,3,0,0,0	to_hand	s513
424.619	0.356	0	PA_with_intermediate	0,0,0,1,2,0,3,0,0	test	ward_and_allport	2,3,0,1,0,0,0,0,0	82.0	41.0	0.356	0,0,0,1,2,3,0,0,0	to_board	s513
424.983	0.532	0	PA_with_intermediate	0,0,0,1,0,0,3,0,0	test	ward_and_allport	2,3,0,1,0,0,0,0,0	71.0	41.0	0.532	0,0,0,1,2,3,0,0,0	to_hand	s513
425.516	0.243	0	PA_with_intermediate	2,0,0,1,0,0,3,0,0	test	ward_and_allport	2,3,0,1,0,0,0,0,0	89.0	41.0	0.243	0,0,0,1,2,3,0,0,0	to_board	s513
425.769	1.708	0	PA_with_intermediate	2,0,0,1,0,0,0,0,0	test	ward_and_allport	2,3,0,1,0,0,0,0,0	82.0	41.0	1.708	0,0,0,1,2,3,0,0,0	to_hand	s513
427.477	0.277	0	PA_with_intermediate	2,3,0,1,0,0,0,0,0	test	ward_and_allport	2,3,0,1,0,0,0,0,0	89.0	41.0	0.277	0,0,0,1,2,3,0,0,0	to_board	s513
427.765	1.0	0	PA_with_intermediate	n/a	test	ward_and_allport	n/a	-1.0	41.0	n/a	n/a	feedback	s513
428.765	2.632	0	PA_with_intermediate	n/a	test	ward_and_allport	n/a	-1.0	41.0	n/a	n/a	ITI	s513
431.404	2.108	1	PA_without_intermediate	0,0,0,0,0,0,1,2,0	test	ward_and_allport	1,0,0,3,2,0,0,0,0	82.0	42.0	2.108	0,0,0,0,0,0,1,2,3	to_hand	s513
433.513	0.437	0	PA_without_intermediate	0,0,0,3,0,0,1,2,0	test	ward_and_allport	1,0,0,3,2,0,0,0,0	71.0	42.0	0.437	0,0,0,0,0,0,1,2,3	to_board	s513
433.96	1.236	0	PA_without_intermediate	0,0,0,3,0,0,1,0,0	test	ward_and_allport	1,0,0,3,2,0,0,0,0	82.0	42.0	1.236	0,0,0,0,0,0,1,2,3	to_hand	s513
435.197	1.505	0	PA_without_intermediate	0,0,0,3,2,0,1,0,0	test	ward_and_allport	1,0,0,3,2,0,0,0,0	71.0	42.0	1.505	0,0,0,0,0,0,1,2,3	to_board	s513
436.713	0.428	0	PA_without_intermediate	0,0,0,3,2,0,0,0,0	test	ward_and_allport	1,0,0,3,2,0,0,0,0	82.0	42.0	0.428	0,0,0,0,0,0,1,2,3	to_hand	s513
437.141	0.269	0	PA_without_intermediate	1,0,0,3,2,0,0,0,0	test	ward_and_allport	1,0,0,3,2,0,0,0,0	89.0	42.0	0.269	0,0,0,0,0,0,1,2,3	to_board	s513
437.421	1.0	0	PA_without_intermediate	n/a	test	ward_and_allport	n/a	-1.0	42.0	n/a	n/a	feedback	s513
438.421	1.408	0	PA_without_intermediate	n/a	test	ward_and_allport	n/a	-1.0	42.0	n/a	n/a	ITI	s513
439.838	1.732	1	PA_without_intermediate	0,0,0,0,0,0,1,2,0	test	ward_and_allport	3,1,0,2,0,0,0,0,0	82.0	43.0	1.732	0,0,0,0,0,0,1,2,3	to_hand	s513
441.571	0.471	0	PA_without_intermediate	3,0,0,0,0,0,1,2,0	test	ward_and_allport	3,1,0,2,0,0,0,0,0	89.0	43.0	0.471	0,0,0,0,0,0,1,2,3	to_board	s513
442.05	1.601	0	PA_without_intermediate	3,0,0,0,0,0,1,0,0	test	ward_and_allport	3,1,0,2,0,0,0,0,0	82.0	43.0	1.601	0,0,0,0,0,0,1,2,3	to_hand	s513
443.652	0.317	0	PA_without_intermediate	3,0,0,2,0,0,1,0,0	test	ward_and_allport	3,1,0,2,0,0,0,0,0	71.0	43.0	0.317	0,0,0,0,0,0,1,2,3	to_board	s513
443.977	0.413	0	PA_without_intermediate	3,0,0,2,0,0,0,0,0	test	ward_and_allport	3,1,0,2,0,0,0,0,0	82.0	43.0	0.413	0,0,0,0,0,0,1,2,3	to_hand	s513
444.391	0.267	0	PA_without_intermediate	3,1,0,2,0,0,0,0,0	test	ward_and_allport	3,1,0,2,0,0,0,0,0	89.0	43.0	0.267	0,0,0,0,0,0,1,2,3	to_board	s513
444.667	1.0	0	PA_without_intermediate	n/a	test	ward_and_allport	n/a	-1.0	43.0	n/a	n/a	feedback	s513
445.667	1.0	0	PA_without_intermediate	n/a	test	ward_and_allport	n/a	-1.0	43.0	n/a	n/a	ITI	s513
446.674	2.407	1	PA_with_intermediate	0,0,0,0,0,0,1,2,0	test	ward_and_allport	0,0,0,2,0,0,1,3,0	82.0	44.0	2.407	0,0,0,0,0,0,1,2,3	to_hand	s513
449.082	0.303	0	PA_with_intermediate	0,0,0,3,0,0,1,2,0	test	ward_and_allport	0,0,0,2,0,0,1,3,0	71.0	44.0	0.303	0,0,0,0,0,0,1,2,3	to_board	s513
449.394	0.851	0	PA_with_intermediate	0,0,0,0,0,0,1,2,0	test	ward_and_allport	0,0,0,2,0,0,1,3,0	71.0	44.0	0.851	0,0,0,0,0,0,1,2,3	to_hand	s513
450.245	0.449	0	PA_with_intermediate	3,0,0,0,0,0,1,2,0	test	ward_and_allport	0,0,0,2,0,0,1,3,0	89.0	44.0	0.449	0,0,0,0,0,0,1,2,3	to_board	s513
450.703	0.508	0	PA_with_intermediate	3,0,0,0,0,0,1,0,0	test	ward_and_allport	0,0,0,2,0,0,1,3,0	82.0	44.0	0.508	0,0,0,0,0,0,1,2,3	to_hand	s513
451.212	0.307	0	PA_with_intermediate	3,0,0,2,0,0,1,0,0	test	ward_and_allport	0,0,0,2,0,0,1,3,0	71.0	44.0	0.307	0,0,0,0,0,0,1,2,3	to_board	s513
451.528	0.297	0	PA_with_intermediate	0,0,0,2,0,0,1,0,0	test	ward_and_allport	0,0,0,2,0,0,1,3,0	89.0	44.0	0.297	0,0,0,0,0,0,1,2,3	to_hand	s513
451.826	0.388	0	PA_with_intermediate	0,0,0,2,0,0,1,3,0	test	ward_and_allport	0,0,0,2,0,0,1,3,0	82.0	44.0	0.388	0,0,0,0,0,0,1,2,3	to_board	s513
452.224	1.0	0	PA_with_intermediate	n/a	test	ward_and_allport	n/a	-1.0	44.0	n/a	n/a	feedback	s513
453.224	1.0	0	PA_with_intermediate	n/a	test	ward_and_allport	n/a	-1.0	44.0	n/a	n/a	ITI	s513
459.237	1.332	1	PA_with_intermediate	0,0,0,0,0,0,1,2,0	test	ward_and_allport	2,0,0,0,0,0,1,3,0	82.0	45.0	1.332	0,0,0,0,0,0,1,2,3	to_hand	s513
460.57	1.766	0	PA_with_intermediate	0,0,0,3,0,0,1,2,0	test	ward_and_allport	2,0,0,0,0,0,1,3,0	71.0	45.0	1.766	0,0,0,0,0,0,1,2,3	to_board	s513
462.347	0.292	0	PA_with_intermediate	0,0,0,3,0,0,1,0,0	test	ward_and_allport	2,0,0,0,0,0,1,3,0	82.0	45.0	0.292	0,0,0,0,0,0,1,2,3	to_hand	s513
462.64	0.249	0	PA_with_intermediate	2,0,0,3,0,0,1,0,0	test	ward_and_allport	2,0,0,0,0,0,1,3,0	89.0	45.0	0.249	0,0,0,0,0,0,1,2,3	to_board	s513
462.902	0.51	0	PA_with_intermediate	2,0,0,0,0,0,1,0,0	test	ward_and_allport	2,0,0,0,0,0,1,3,0	71.0	45.0	0.51	0,0,0,0,0,0,1,2,3	to_hand	s513
463.413	0.321	0	PA_with_intermediate	2,0,0,0,0,0,1,3,0	test	ward_and_allport	2,0,0,0,0,0,1,3,0	82.0	45.0	0.321	0,0,0,0,0,0,1,2,3	to_board	s513
463.746	1.0	0	PA_with_intermediate	n/a	test	ward_and_allport	n/a	-1.0	45.0	n/a	n/a	feedback	s513
464.746	1.0	0	PA_with_intermediate	n/a	test	ward_and_allport	n/a	-1.0	45.0	n/a	n/a	ITI	s513
465.758	4.173	1	PA_with_intermediate	0,0,0,1,2,0,0,0,0	test	ward_and_allport	0,0,0,1,3,0,2,0,0	71.0	46.0	4.173	0,0,0,1,2,3,0,0,0	to_hand	s513
469.933	0.26	0	PA_with_intermediate	3,0,0,1,2,0,0,0,0	test	ward_and_allport	0,0,0,1,3,0,2,0,0	89.0	46.0	0.26	0,0,0,1,2,3,0,0,0	to_board	s513
470.201	0.329	0	PA_with_intermediate	3,0,0,1,0,0,0,0,0	test	ward_and_allport	0,0,0,1,3,0,2,0,0	71.0	46.0	0.329	0,0,0,1,2,3,0,0,0	to_hand	s513
470.531	0.373	0	PA_with_intermediate	3,0,0,1,0,0,2,0,0	test	ward_and_allport	0,0,0,1,3,0,2,0,0	82.0	46.0	0.373	0,0,0,1,2,3,0,0,0	to_board	s513
470.913	1.245	0	PA_with_intermediate	0,0,0,1,0,0,2,0,0	test	ward_and_allport	0,0,0,1,3,0,2,0,0	89.0	46.0	1.245	0,0,0,1,2,3,0,0,0	to_hand	s513
472.159	0.231	0	PA_with_intermediate	0,0,0,1,3,0,2,0,0	test	ward_and_allport	0,0,0,1,3,0,2,0,0	71.0	46.0	0.231	0,0,0,1,2,3,0,0,0	to_board	s513
472.402	1.0	0	PA_with_intermediate	n/a	test	ward_and_allport	n/a	-1.0	46.0	n/a	n/a	feedback	s513
473.402	1.408	0	PA_with_intermediate	n/a	test	ward_and_allport	n/a	-1.0	46.0	n/a	n/a	ITI	s513
474.822	1.924	1	PA_without_intermediate	0,0,0,0,0,0,1,2,0	test	ward_and_allport	2,0,0,3,1,0,0,0,0	82.0	47.0	1.924	0,0,0,0,0,0,1,2,3	to_hand	s513
476.748	1.174	0	PA_without_intermediate	0,0,0,3,0,0,1,2,0	test	ward_and_allport	2,0,0,3,1,0,0,0,0	71.0	47.0	1.174	0,0,0,0,0,0,1,2,3	to_board	s513
477.931	1.005	0	PA_without_intermediate	0,0,0,3,0,0,1,0,0	test	ward_and_allport	2,0,0,3,1,0,0,0,0	82.0	47.0	1.005	0,0,0,0,0,0,1,2,3	to_hand	s513
478.938	0.217	0	PA_without_intermediate	2,0,0,3,0,0,1,0,0	test	ward_and_allport	2,0,0,3,1,0,0,0,0	89.0	47.0	0.217	0,0,0,0,0,0,1,2,3	to_board	s513
479.163	0.312	0	PA_without_intermediate	2,0,0,3,0,0,0,0,0	test	ward_and_allport	2,0,0,3,1,0,0,0,0	82.0	47.0	0.312	0,0,0,0,0,0,1,2,3	to_hand	s513
479.477	0.271	0	PA_without_intermediate	2,0,0,3,1,0,0,0,0	test	ward_and_allport	2,0,0,3,1,0,0,0,0	71.0	47.0	0.271	0,0,0,0,0,0,1,2,3	to_board	s513
479.762	1.0	0	PA_without_intermediate	n/a	test	ward_and_allport	n/a	-1.0	47.0	n/a	n/a	feedback	s513
480.762	1.816	0	PA_without_intermediate	n/a	test	ward_and_allport	n/a	-1.0	47.0	n/a	n/a	ITI	s513
n/a	n/a	0	n/a	n/a	n/a	n/a	n/a	n/a	n/a	n/a	n/a	ITI	n/a
