onset	duration	EV	action	clicked_on_loss_card	experiment_exp_id	gain_amount	gain_probability	key_press	loss_amount	loss_probability	num_cards	num_click_in_round	num_loss_cards	risk	response_time	total_cards	trial_id	worker_id
3.008	4.042	-1.6462342476117986	draw_card	0.0	columbia_card_task_fmri	12.0	0.8333333333333334	89.0	-70.0	0.1666666666666666	6.0	1.0	1.0	-2.270451372778496	4.042	n/a	stim	s513
7.053	1.482	-4.379567580945131	end_round	0.0	columbia_card_task_fmri	12.0	0.8	71.0	-70.0	0.2	6.0	2.0	1.0	-0.0300475318430244	1.482	1.0	stim	s513
8.538	2.25	n/a	-1.0	n/a	columbia_card_task_fmri	n/a	n/a	-1.0	n/a	n/a	n/a	n/a	n/a	n/a	n/a	n/a	feedback	s513
10.788	0.068	n/a	-1.0	n/a	columbia_card_task_fmri	n/a	n/a	-1.0	n/a	n/a	n/a	n/a	n/a	n/a	n/a	n/a	ITI	s513
10.858	5.267	-0.8129009142784646	draw_card	0.0	columbia_card_task_fmri	14.0	0.8333333333333334	89.0	-75.0	0.1666666666666666	6.0	1.0	1.0	0.3382940637293643	5.267	n/a	stim	s513
16.126	0.766	-3.7795675809451312	end_round	0.0	columbia_card_task_fmri	14.0	0.8	71.0	-75.0	0.2	6.0	2.0	1.0	2.769951967611369	0.766	1.0	stim	s513
16.895	2.25	n/a	-1.0	n/a	columbia_card_task_fmri	n/a	n/a	-1.0	n/a	n/a	n/a	n/a	n/a	n/a	n/a	n/a	feedback	s513
19.145	0.068	n/a	-1.0	n/a	columbia_card_task_fmri	n/a	n/a	-1.0	n/a	n/a	n/a	n/a	n/a	n/a	n/a	n/a	ITI	s513
19.214	2.258	0.8537657523882015	draw_card	0.0	columbia_card_task_fmri	15.0	0.8333333333333334	89.0	-70.0	0.1666666666666666	6.0	1.0	1.0	-1.1524176251102567	2.258	n/a	stim	s513
21.476	0.493	-1.9795675809451323	end_round	0.0	columbia_card_task_fmri	15.0	0.8	71.0	-70.0	0.2	6.0	2.0	1.0	1.1699522435423972	0.493	1.0	stim	s513
21.972	2.25	n/a	-1.0	n/a	columbia_card_task_fmri	n/a	n/a	-1.0	n/a	n/a	n/a	n/a	n/a	n/a	n/a	n/a	feedback	s513
24.222	0.612	n/a	-1.0	n/a	columbia_card_task_fmri	n/a	n/a	-1.0	n/a	n/a	n/a	n/a	n/a	n/a	n/a	n/a	ITI	s513
24.836	3.648	1.687099085721535	end_round	0.0	columbia_card_task_fmri	17.0	0.8333333333333334	71.0	-75.0	0.1666666666666666	6.0	1.0	1.0	1.456327847259523	3.648	0.0	stim	s513
28.486	2.25	n/a	-1.0	n/a	columbia_card_task_fmri	n/a	n/a	-1.0	n/a	n/a	n/a	n/a	n/a	n/a	n/a	n/a	feedback	s513
30.736	0.476	n/a	-1.0	n/a	columbia_card_task_fmri	n/a	n/a	-1.0	n/a	n/a	n/a	n/a	n/a	n/a	n/a	n/a	ITI	s513
31.214	3.648	3.020432419054868	draw_card	0.0	columbia_card_task_fmri	24.0	0.75	89.0	-60.0	0.25	8.0	1.0	2.0	3.54301880193524	3.648	n/a	stim	s513
34.864	1.549	0.0204324190548675	draw_card	0.0	columbia_card_task_fmri	24.0	0.7142857142857143	89.0	-60.0	0.2857142857142857	8.0	2.0	2.0	5.117283526927594	1.549	n/a	stim	s513
36.415	0.492	-3.979567580945132	end_round	0.0	columbia_card_task_fmri	24.0	0.6666666666666667	71.0	-60.0	0.3333333333333333	8.0	3.0	2.0	6.767931122050761	0.492	2.0	stim	s513
36.91	2.25	n/a	-1.0	n/a	columbia_card_task_fmri	n/a	n/a	-1.0	n/a	n/a	n/a	n/a	n/a	n/a	n/a	n/a	feedback	s513
39.16	0.0	n/a	-1.0	n/a	columbia_card_task_fmri	n/a	n/a	-1.0	n/a	n/a	n/a	n/a	n/a	n/a	n/a	n/a	ITI	s513
39.161	1.46	3.020432419054868	draw_card	0.0	columbia_card_task_fmri	29.0	0.75	89.0	-75.0	0.25	8.0	1.0	2.0	12.203271736142682	1.46	n/a	stim	s513
40.622	1.354	-0.6938532952308442	end_round	0.0	columbia_card_task_fmri	29.0	0.7142857142857143	71.0	-75.0	0.2857142857142857	8.0	2.0	2.0	14.152361498128109	1.354	1.0	stim	s513
41.978	2.25	n/a	-1.0	n/a	columbia_card_task_fmri	n/a	n/a	-1.0	n/a	n/a	n/a	n/a	n/a	n/a	n/a	n/a	feedback	s513
44.228	0.068	n/a	-1.0	n/a	columbia_card_task_fmri	n/a	n/a	-1.0	n/a	n/a	n/a	n/a	n/a	n/a	n/a	n/a	ITI	s513
44.297	3.312	-1.2017898031673522	end_round	0.0	columbia_card_task_fmri	17.0	0.7777777777777778	71.0	-65.0	0.2222222222222222	9.0	1.0	2.0	1.2606084178229295	3.312	0.0	stim	s513
47.613	2.25	n/a	-1.0	n/a	columbia_card_task_fmri	n/a	n/a	-1.0	n/a	n/a	n/a	n/a	n/a	n/a	n/a	n/a	feedback	s513
49.863	0.204	n/a	-1.0	n/a	columbia_card_task_fmri	n/a	n/a	-1.0	n/a	n/a	n/a	n/a	n/a	n/a	n/a	n/a	ITI	s513
50.069	1.711	3.120432419054868	end_round	0.0	columbia_card_task_fmri	14.0	0.9	71.0	-95.0	0.1	10.0	1.0	1.0	-0.1300475123810116	1.711	0.0	stim	s513
51.783	2.25	n/a	-1.0	n/a	columbia_card_task_fmri	n/a	n/a	-1.0	n/a	n/a	n/a	n/a	n/a	n/a	n/a	n/a	feedback	s513
54.033	0.272	n/a	-1.0	n/a	columbia_card_task_fmri	n/a	n/a	-1.0	n/a	n/a	n/a	n/a	n/a	n/a	n/a	n/a	ITI	s513
54.307	2.434	-0.9795675809451324	draw_card	0.0	columbia_card_task_fmri	15.0	0.8	89.0	-65.0	0.2	10.0	1.0	2.0	-0.8300473727410349	2.434	n/a	stim	s513
56.742	0.359	-2.757345358722909	end_round	0.0	columbia_card_task_fmri	15.0	0.7777777777777778	71.0	-65.0	0.2222222222222222	10.0	2.0	2.0	0.429129151618298	0.359	1.0	stim	s513
57.104	2.25	n/a	-1.0	n/a	columbia_card_task_fmri	n/a	n/a	-1.0	n/a	n/a	n/a	n/a	n/a	n/a	n/a	n/a	feedback	s513
59.354	0.068	n/a	-1.0	n/a	columbia_card_task_fmri	n/a	n/a	-1.0	n/a	n/a	n/a	n/a	n/a	n/a	n/a	n/a	ITI	s513
59.424	4.324	0.620432419054869	draw_card	0.0	columbia_card_task_fmri	17.0	0.8	89.0	-65.0	0.2	10.0	1.0	2.0	-0.0300475318430244	4.324	n/a	stim	s513
63.749	0.775	-1.2017898031673522	draw_card	0.0	columbia_card_task_fmri	17.0	0.7777777777777778	89.0	-65.0	0.2222222222222222	10.0	2.0	2.0	1.2606084178229295	0.775	n/a	stim	s513
64.526	1.127	-3.4795675809451323	draw_card	0.0	columbia_card_task_fmri	17.0	0.75	89.0	-65.0	0.25	10.0	3.0	2.0	2.6769935381242576	1.127	n/a	stim	s513
65.654	0.641	-6.408139009516559	end_round	0.0	columbia_card_task_fmri	17.0	0.7142857142857143	71.0	-65.0	0.2857142857142857	10.0	4.0	2.0	4.21377575818893	0.641	3.0	stim	s513
66.298	2.25	n/a	-1.0	n/a	columbia_card_task_fmri	n/a	n/a	-1.0	n/a	n/a	n/a	n/a	n/a	n/a	n/a	n/a	feedback	s513
68.548	0.272	n/a	-1.0	n/a	columbia_card_task_fmri	n/a	n/a	-1.0	n/a	n/a	n/a	n/a	n/a	n/a	n/a	n/a	ITI	s513
68.822	2.534	-0.8129009142784646	draw_card	0.0	columbia_card_task_fmri	13.0	0.8333333333333334	89.0	-70.0	0.1666666666666666	12.0	1.0	2.0	-1.89777345882548	2.534	n/a	stim	s513
71.357	1.107	-2.070476671854226	draw_card	0.0	columbia_card_task_fmri	13.0	0.8181818181818181	89.0	-70.0	0.1818181818181818	12.0	2.0	2.0	-0.8173949179646058	1.107	n/a	stim	s513
72.467	0.474	-3.579567580945132	draw_card	1.0	columbia_card_task_fmri	13.0	0.8	89.0	-70.0	0.2	12.0	3.0	2.0	0.3699523914813127	0.474	3.0	stim	s513
72.944	2.25	n/a	-1.0	n/a	columbia_card_task_fmri	n/a	n/a	-1.0	n/a	n/a	n/a	n/a	n/a	n/a	n/a	n/a	feedback	s513
75.194	0.748	n/a	-1.0	n/a	columbia_card_task_fmri	n/a	n/a	-1.0	n/a	n/a	n/a	n/a	n/a	n/a	n/a	n/a	ITI	s513
75.945	2.755	-0.8129009142784646	draw_card	0.0	columbia_card_task_fmri	15.0	0.8333333333333334	89.0	-80.0	0.1666666666666666	12.0	1.0	2.0	2.574361643750919	2.755	n/a	stim	s513
78.701	0.994	-2.2522948536724074	end_round	0.0	columbia_card_task_fmri	15.0	0.8181818181818181	71.0	-80.0	0.1818181818181818	12.0	2.0	2.0	3.810939553419416	0.994	1.0	stim	s513
79.699	2.25	n/a	-1.0	n/a	columbia_card_task_fmri	n/a	n/a	-1.0	n/a	n/a	n/a	n/a	n/a	n/a	n/a	n/a	feedback	s513
81.949	0.068	n/a	-1.0	n/a	columbia_card_task_fmri	n/a	n/a	-1.0	n/a	n/a	n/a	n/a	n/a	n/a	n/a	n/a	ITI	s513
82.019	2.679	-1.7795675809451317	draw_card	1.0	columbia_card_task_fmri	14.0	0.8	89.0	-65.0	0.2	15.0	1.0	3.0	-1.2300472901691144	2.679	1.0	stim	s513
84.701	2.25	n/a	-1.0	n/a	columbia_card_task_fmri	n/a	n/a	-1.0	n/a	n/a	n/a	n/a	n/a	n/a	n/a	n/a	feedback	s513
86.951	0.0	n/a	-1.0	n/a	columbia_card_task_fmri	n/a	n/a	-1.0	n/a	n/a	n/a	n/a	n/a	n/a	n/a	n/a	ITI	s513
86.952	1.382	-1.8545675809451323	end_round	0.0	columbia_card_task_fmri	1.0	0.9375	71.0	-45.0	0.0625	16.0	1.0	1.0	-21.69520802883856	1.382	0.0	stim	s513
88.336	2.25	n/a	-1.0	n/a	columbia_card_task_fmri	n/a	n/a	-1.0	n/a	n/a	n/a	n/a	n/a	n/a	n/a	n/a	feedback	s513
90.586	0.204	n/a	-1.0	n/a	columbia_card_task_fmri	n/a	n/a	-1.0	n/a	n/a	n/a	n/a	n/a	n/a	n/a	n/a	ITI	s513
90.793	1.841	-0.9170675809451324	draw_card	0.0	columbia_card_task_fmri	15.0	0.8125	89.0	-70.0	0.1875	16.0	1.0	3.0	0.3465042624165448	1.841	n/a	stim	s513
92.637	0.574	-1.9795675809451323	draw_card	0.0	columbia_card_task_fmri	15.0	0.8	89.0	-70.0	0.2	16.0	2.0	3.0	1.1699522435423972	0.574	n/a	stim	s513
93.212	0.871	-3.193853295230848	draw_card	1.0	columbia_card_task_fmri	15.0	0.7857142857142857	89.0	-70.0	0.2142857142857142	16.0	3.0	3.0	2.047653871594292	0.871	3.0	stim	s513
94.087	2.25	n/a	-1.0	n/a	columbia_card_task_fmri	n/a	n/a	-1.0	n/a	n/a	n/a	n/a	n/a	n/a	n/a	n/a	feedback	s513
96.337	0.068	n/a	-1.0	n/a	columbia_card_task_fmri	n/a	n/a	-1.0	n/a	n/a	n/a	n/a	n/a	n/a	n/a	n/a	ITI	s513
96.407	3.336	6.020432419054868	draw_card	0.0	columbia_card_task_fmri	30.0	0.7	89.0	-50.0	0.3	10.0	1.0	3.0	3.8305573576237606	3.336	n/a	stim	s513
99.745	0.417	3.353765752388207	end_round	0.0	columbia_card_task_fmri	30.0	0.6666666666666667	71.0	-50.0	0.3333333333333333	10.0	2.0	3.0	4.88231330246299	0.417	1.0	stim	s513
100.164	2.25	n/a	-1.0	n/a	columbia_card_task_fmri	n/a	n/a	-1.0	n/a	n/a	n/a	n/a	n/a	n/a	n/a	n/a	feedback	s513
102.414	0.068	n/a	-1.0	n/a	columbia_card_task_fmri	n/a	n/a	-1.0	n/a	n/a	n/a	n/a	n/a	n/a	n/a	n/a	ITI	s513
102.484	2.359	5.420432419054868	draw_card	0.0	columbia_card_task_fmri	17.0	0.8666666666666667	89.0	-70.0	0.1333333333333333	15.0	1.0	2.0	-3.2557336588711827	2.359	n/a	stim	s513
104.845	0.904	4.591860990483441	draw_card	0.0	columbia_card_task_fmri	17.0	0.8571428571428572	89.0	-70.0	0.1428571428571428	15.0	2.0	2.0	-2.386388807528938	0.904	n/a	stim	s513
105.75	1.135	3.6358170344394822	draw_card	0.0	columbia_card_task_fmri	17.0	0.8461538461538461	89.0	-70.0	0.1538461538461538	15.0	3.0	2.0	-1.4403417763264734	1.135	n/a	stim	s513
106.887	2.025	2.520432419054869	draw_card	1.0	columbia_card_task_fmri	17.0	0.8333333333333334	89.0	-70.0	0.1666666666666666	15.0	4.0	2.0	-0.4070617840945871	2.025	4.0	stim	s513
108.915	2.25	n/a	-1.0	n/a	columbia_card_task_fmri	n/a	n/a	-1.0	n/a	n/a	n/a	n/a	n/a	n/a	n/a	n/a	feedback	s513
111.165	0.34	n/a	-1.0	n/a	columbia_card_task_fmri	n/a	n/a	-1.0	n/a	n/a	n/a	n/a	n/a	n/a	n/a	n/a	ITI	s513
111.508	2.123	0.6454324190548676	end_round	0.0	columbia_card_task_fmri	7.0	0.9375	71.0	-95.0	0.0625	16.0	1.0	1.0	-8.139776609434254	2.123	0.0	stim	s513
113.634	2.25	n/a	-1.0	n/a	columbia_card_task_fmri	n/a	n/a	-1.0	n/a	n/a	n/a	n/a	n/a	n/a	n/a	n/a	feedback	s513
115.884	0.0	n/a	-1.0	n/a	columbia_card_task_fmri	n/a	n/a	-1.0	n/a	n/a	n/a	n/a	n/a	n/a	n/a	n/a	ITI	s513
115.886	4.517	2.207932419054868	draw_card	0.0	columbia_card_task_fmri	9.0	0.9375	89.0	-100.0	0.0625	16.0	1.0	1.0	-6.445346938412577	4.517	n/a	stim	s513
120.405	0.242	1.7537657523882009	draw_card	0.0	columbia_card_task_fmri	9.0	0.9333333333333332	89.0	-100.0	0.0666666666666666	16.0	2.0	1.0	-5.640669208035714	0.242	n/a	stim	s513
120.648	0.646	1.2347181333405828	draw_card	0.0	columbia_card_task_fmri	9.0	0.9285714285714286	89.0	-100.0	0.0714285714285714	16.0	3.0	1.0	-4.758254386668572	0.646	n/a	stim	s513
121.296	0.457	0.6358170344394835	draw_card	0.0	columbia_card_task_fmri	9.0	0.9230769230769232	89.0	-100.0	0.0769230769230769	16.0	4.0	1.0	-3.784887012965658	0.457	n/a	stim	s513
121.755	0.518	-0.0629009142784645	draw_card	0.0	columbia_card_task_fmri	9.0	0.9166666666666666	89.0	-100.0	0.0833333333333333	16.0	5.0	1.0	-2.704038454570973	0.518	n/a	stim	s513
122.276	3.468	-0.8886584900360425	draw_card	0.0	columbia_card_task_fmri	9.0	0.9090909090909092	89.0	-100.0	0.0909090909090909	16.0	6.0	1.0	-1.49475041997162	3.468	n/a	stim	s513
125.746	0.767	-1.8795675809451329	draw_card	0.0	columbia_card_task_fmri	9.0	0.9	89.0	-100.0	0.1	16.0	7.0	1.0	-0.1300475123810116	0.767	n/a	stim	s513
126.515	1.231	-3.090678692056243	end_round	0.0	columbia_card_task_fmri	9.0	0.8888888888888888	71.0	-100.0	0.1111111111111111	16.0	8.0	1.0	1.42534737525051	1.231	7.0	stim	s513
127.749	2.25	n/a	-1.0	n/a	columbia_card_task_fmri	n/a	n/a	-1.0	n/a	n/a	n/a	n/a	n/a	n/a	n/a	n/a	feedback	s513
129.999	0.0	n/a	-1.0	n/a	columbia_card_task_fmri	n/a	n/a	-1.0	n/a	n/a	n/a	n/a	n/a	n/a	n/a	n/a	ITI	s513
130.001	2.493	3.145432419054868	draw_card	0.0	columbia_card_task_fmri	15.0	0.875	89.0	-80.0	0.125	16.0	1.0	2.0	-1.4117504330736814	2.493	n/a	stim	s513
132.497	0.2	2.3537657523882016	draw_card	0.0	columbia_card_task_fmri	15.0	0.8666666666666667	89.0	-80.0	0.1333333333333333	16.0	2.0	2.0	-0.5362571793308675	0.2	n/a	stim	s513
132.699	0.716	1.449003847626298	draw_card	0.0	columbia_card_task_fmri	15.0	0.8571428571428572	89.0	-80.0	0.1428571428571428	16.0	3.0	2.0	0.4130274639631892	0.716	n/a	stim	s513
133.418	0.493	0.4050478036702508	draw_card	0.0	columbia_card_task_fmri	15.0	0.8461538461538461	89.0	-80.0	0.1538461538461538	16.0	4.0	2.0	1.44606736202568	0.493	n/a	stim	s513
133.913	0.752	-0.8129009142784646	draw_card	0.0	columbia_card_task_fmri	15.0	0.8333333333333334	89.0	-80.0	0.1666666666666666	16.0	5.0	2.0	2.574361643750919	0.752	n/a	stim	s513
134.668	0.451	-2.2522948536724074	end_round	0.0	columbia_card_task_fmri	15.0	0.8181818181818181	71.0	-80.0	0.1818181818181818	16.0	6.0	2.0	3.810939553419416	0.451	5.0	stim	s513
135.123	2.25	n/a	-1.0	n/a	columbia_card_task_fmri	n/a	n/a	-1.0	n/a	n/a	n/a	n/a	n/a	n/a	n/a	n/a	feedback	s513
137.373	0.272	n/a	-1.0	n/a	columbia_card_task_fmri	n/a	n/a	-1.0	n/a	n/a	n/a	n/a	n/a	n/a	n/a	n/a	ITI	s513
137.647	1.872	5.270432419054868	draw_card	0.0	columbia_card_task_fmri	16.0	0.875	89.0	-70.0	0.125	16.0	1.0	2.0	-4.388219962723561	1.872	n/a	stim	s513
139.52	0.586	4.553765752388201	draw_card	0.0	columbia_card_task_fmri	16.0	0.8666666666666667	89.0	-70.0	0.1333333333333333	16.0	2.0	2.0	-3.595668211038454	0.586	n/a	stim	s513
140.109	0.253	3.734718133340583	draw_card	0.0	columbia_card_task_fmri	16.0	0.8571428571428572	89.0	-70.0	0.1428571428571428	16.0	3.0	2.0	-2.7363158339122187	0.253	n/a	stim	s513
140.365	0.451	2.789663188285636	draw_card	0.0	columbia_card_task_fmri	16.0	0.8461538461538461	89.0	-70.0	0.1538461538461538	16.0	4.0	2.0	-1.8011429112949031	0.451	n/a	stim	s513
140.818	0.781	1.687099085721535	draw_card	0.0	columbia_card_task_fmri	16.0	0.8333333333333334	89.0	-70.0	0.1666666666666666	16.0	5.0	2.0	-0.7797397054831379	0.781	n/a	stim	s513
141.601	0.444	0.3840687826912291	end_round	0.0	columbia_card_task_fmri	16.0	0.8181818181818181	71.0	-70.0	0.1818181818181818	16.0	6.0	2.0	0.339688678332287	0.444	5.0	stim	s513
142.048	2.25	n/a	-1.0	n/a	columbia_card_task_fmri	n/a	n/a	-1.0	n/a	n/a	n/a	n/a	n/a	n/a	n/a	n/a	feedback	s513
144.298	0.204	n/a	-1.0	n/a	columbia_card_task_fmri	n/a	n/a	-1.0	n/a	n/a	n/a	n/a	n/a	n/a	n/a	n/a	ITI	s513
144.505	2.212	6.582932419054868	draw_card	1.0	columbia_card_task_fmri	30.0	0.6875	89.0	-45.0	0.3125	16.0	1.0	5.0	1.93338251697616	2.212	1.0	stim	s513
146.72	2.25	n/a	-1.0	n/a	columbia_card_task_fmri	n/a	n/a	-1.0	n/a	n/a	n/a	n/a	n/a	n/a	n/a	n/a	feedback	s513
148.97	0.0	n/a	-1.0	n/a	columbia_card_task_fmri	n/a	n/a	-1.0	n/a	n/a	n/a	n/a	n/a	n/a	n/a	n/a	ITI	s513
148.973	2.766	-1.6462342476117986	draw_card	0.0	columbia_card_task_fmri	13.0	0.8333333333333334	89.0	-75.0	0.1666666666666666	6.0	1.0	1.0	-0.0343838610046347	2.766	n/a	stim	s513
151.74	0.622	-4.579567580945132	end_round	0.0	columbia_card_task_fmri	13.0	0.8	71.0	-75.0	0.2	6.0	2.0	1.0	2.369952034242438	0.622	1.0	stim	s513
152.366	2.25	n/a	-1.0	n/a	columbia_card_task_fmri	n/a	n/a	-1.0	n/a	n/a	n/a	n/a	n/a	n/a	n/a	n/a	feedback	s513
154.616	0.204	n/a	-1.0	n/a	columbia_card_task_fmri	n/a	n/a	-1.0	n/a	n/a	n/a	n/a	n/a	n/a	n/a	n/a	ITI	s513
154.822	3.355	0.0204324190548693	draw_card	0.0	columbia_card_task_fmri	14.0	0.8333333333333334	89.0	-70.0	0.1666666666666666	6.0	1.0	1.0	-1.5250955429130144	3.355	n/a	stim	s513
158.179	0.549	-2.7795675809451312	end_round	0.0	columbia_card_task_fmri	14.0	0.8	71.0	-70.0	0.2	6.0	2.0	1.0	0.7699523166312687	0.549	1.0	stim	s513
158.732	2.25	n/a	-1.0	n/a	columbia_card_task_fmri	n/a	n/a	-1.0	n/a	n/a	n/a	n/a	n/a	n/a	n/a	n/a	feedback	s513
160.982	0.204	n/a	-1.0	n/a	columbia_card_task_fmri	n/a	n/a	-1.0	n/a	n/a	n/a	n/a	n/a	n/a	n/a	n/a	ITI	s513
161.187	1.61	0.0204324190548693	draw_card	0.0	columbia_card_task_fmri	16.0	0.8333333333333334	89.0	-80.0	0.1666666666666666	6.0	1.0	1.0	2.947039578584977	1.61	n/a	stim	s513
162.8	0.309	-3.179567580945132	end_round	0.0	columbia_card_task_fmri	16.0	0.8	71.0	-80.0	0.2	6.0	2.0	1.0	5.569951540061986	0.309	1.0	stim	s513
163.112	2.25	n/a	-1.0	n/a	columbia_card_task_fmri	n/a	n/a	-1.0	n/a	n/a	n/a	n/a	n/a	n/a	n/a	n/a	feedback	s513
165.362	0.272	n/a	-1.0	n/a	columbia_card_task_fmri	n/a	n/a	-1.0	n/a	n/a	n/a	n/a	n/a	n/a	n/a	n/a	ITI	s513
165.638	2.259	2.520432419054869	draw_card	1.0	columbia_card_task_fmri	17.0	0.8333333333333334	89.0	-70.0	0.1666666666666666	6.0	1.0	1.0	-0.4070617840945871	2.259	1.0	stim	s513
167.899	2.25	n/a	-1.0	n/a	columbia_card_task_fmri	n/a	n/a	-1.0	n/a	n/a	n/a	n/a	n/a	n/a	n/a	n/a	feedback	s513
170.149	0.204	n/a	-1.0	n/a	columbia_card_task_fmri	n/a	n/a	-1.0	n/a	n/a	n/a	n/a	n/a	n/a	n/a	n/a	ITI	s513
170.356	1.015	2.520432419054868	draw_card	0.0	columbia_card_task_fmri	25.0	0.75	89.0	-65.0	0.25	8.0	1.0	2.0	6.141094630694425	1.015	n/a	stim	s513
171.372	1.604	-0.6938532952308442	draw_card	0.0	columbia_card_task_fmri	25.0	0.7142857142857143	89.0	-65.0	0.2857142857142857	8.0	2.0	2.0	7.827806868921336	1.604	n/a	stim	s513
172.978	2.324	-4.979567580945129	draw_card	0.0	columbia_card_task_fmri	25.0	0.6666666666666667	89.0	-65.0	0.3333333333333333	8.0	3.0	2.0	9.596357895361791	2.324	n/a	stim	s513
175.305	0.533	-10.979567580945131	end_round	0.0	columbia_card_task_fmri	25.0	0.6	71.0	-65.0	0.4	8.0	4.0	2.0	11.260766208534868	0.533	3.0	stim	s513
175.842	2.25	n/a	-1.0	n/a	columbia_card_task_fmri	n/a	n/a	-1.0	n/a	n/a	n/a	n/a	n/a	n/a	n/a	n/a	feedback	s513
178.092	0.408	n/a	-1.0	n/a	columbia_card_task_fmri	n/a	n/a	-1.0	n/a	n/a	n/a	n/a	n/a	n/a	n/a	n/a	ITI	s513
178.502	4.464	2.520432419054868	draw_card	0.0	columbia_card_task_fmri	30.0	0.75	89.0	-80.0	0.25	8.0	1.0	2.0	14.801347694662796	4.464	n/a	stim	s513
182.968	0.46	-1.408139009516556	end_round	0.0	columbia_card_task_fmri	30.0	0.7142857142857143	71.0	-80.0	0.2857142857142857	8.0	2.0	2.0	16.86288496449957	0.46	1.0	stim	s513
183.433	2.25	n/a	-1.0	n/a	columbia_card_task_fmri	n/a	n/a	-1.0	n/a	n/a	n/a	n/a	n/a	n/a	n/a	n/a	feedback	s513
185.683	0.136	n/a	-1.0	n/a	columbia_card_task_fmri	n/a	n/a	-1.0	n/a	n/a	n/a	n/a	n/a	n/a	n/a	n/a	ITI	s513
185.822	3.902	2.2204324190548688	draw_card	0.0	columbia_card_task_fmri	13.0	0.9	89.0	-95.0	0.1	10.0	1.0	1.0	-0.4300474532741347	3.902	n/a	stim	s513
189.725	0.465	1.0204324190548677	end_round	0.0	columbia_card_task_fmri	13.0	0.8888888888888888	71.0	-95.0	0.1111111111111111	10.0	2.0	1.0	1.111077751146233	0.465	1.0	stim	s513
190.193	2.25	n/a	-1.0	n/a	columbia_card_task_fmri	n/a	n/a	-1.0	n/a	n/a	n/a	n/a	n/a	n/a	n/a	n/a	feedback	s513
192.443	0.272	n/a	-1.0	n/a	columbia_card_task_fmri	n/a	n/a	-1.0	n/a	n/a	n/a	n/a	n/a	n/a	n/a	n/a	ITI	s513
192.718	2.764	3.6204324190548673	draw_card	0.0	columbia_card_task_fmri	14.0	0.9	89.0	-90.0	0.1	10.0	1.0	1.0	-1.6300472054799684	2.764	n/a	stim	s513
195.485	0.535	2.4648768634993106	draw_card	0.0	columbia_card_task_fmri	14.0	0.8888888888888888	89.0	-90.0	0.1111111111111111	10.0	2.0	1.0	-0.1460007344203049	0.535	n/a	stim	s513
196.022	0.487	1.0204324190548677	end_round	0.0	columbia_card_task_fmri	14.0	0.875	71.0	-90.0	0.125	10.0	3.0	1.0	1.56471921691616	0.487	2.0	stim	s513
196.514	2.25	n/a	-1.0	n/a	columbia_card_task_fmri	n/a	n/a	-1.0	n/a	n/a	n/a	n/a	n/a	n/a	n/a	n/a	feedback	s513
198.764	0.34	n/a	-1.0	n/a	columbia_card_task_fmri	n/a	n/a	-1.0	n/a	n/a	n/a	n/a	n/a	n/a	n/a	n/a	ITI	s513
199.107	2.338	-1.1795675809451318	draw_card	0.0	columbia_card_task_fmri	16.0	0.8	89.0	-70.0	0.2	10.0	1.0	2.0	1.5699521721532648	2.338	n/a	stim	s513
201.448	1.125	-3.090678692056243	draw_card	0.0	columbia_card_task_fmri	16.0	0.7777777777777778	89.0	-70.0	0.2222222222222222	10.0	2.0	2.0	2.923566971591974	1.125	n/a	stim	s513
202.575	0.432	-5.479567580945132	end_round	0.0	columbia_card_task_fmri	16.0	0.75	71.0	-70.0	0.25	10.0	3.0	2.0	4.409044072256606	0.432	2.0	stim	s513
203.013	2.25	n/a	-1.0	n/a	columbia_card_task_fmri	n/a	n/a	-1.0	n/a	n/a	n/a	n/a	n/a	n/a	n/a	n/a	feedback	s513
205.263	0.136	n/a	-1.0	n/a	columbia_card_task_fmri	n/a	n/a	-1.0	n/a	n/a	n/a	n/a	n/a	n/a	n/a	n/a	ITI	s513
205.401	3.517	-1.8962342476117984	draw_card	0.0	columbia_card_task_fmri	7.0	0.9166666666666666	89.0	-100.0	0.0833333333333333	12.0	1.0	1.0	-3.2568091234503385	3.517	n/a	stim	s513
208.92	1.536	-2.7068403082178607	draw_card	0.0	columbia_card_task_fmri	7.0	0.9090909090909092	89.0	-100.0	0.0909090909090909	12.0	2.0	1.0	-2.069709870032643	1.536	n/a	stim	s513
210.458	0.546	-3.679567580945133	end_round	0.0	columbia_card_task_fmri	7.0	0.9	71.0	-100.0	0.1	12.0	3.0	1.0	-0.7300473930624705	0.546	2.0	stim	s513
211.008	2.25	n/a	-1.0	n/a	columbia_card_task_fmri	n/a	n/a	-1.0	n/a	n/a	n/a	n/a	n/a	n/a	n/a	n/a	feedback	s513
213.258	0.34	n/a	-1.0	n/a	columbia_card_task_fmri	n/a	n/a	-1.0	n/a	n/a	n/a	n/a	n/a	n/a	n/a	n/a	ITI	s513
213.601	2.717	-1.6462342476117968	draw_card	0.0	columbia_card_task_fmri	14.0	0.8333333333333334	89.0	-80.0	0.1666666666666666	12.0	1.0	2.0	2.201683710223584	2.717	n/a	stim	s513
216.321	0.382	-3.070476671854226	draw_card	1.0	columbia_card_task_fmri	14.0	0.8181818181818181	89.0	-80.0	0.1818181818181818	12.0	2.0	2.0	3.425245006105321	0.382	2.0	stim	s513
216.707	2.25	n/a	-1.0	n/a	columbia_card_task_fmri	n/a	n/a	-1.0	n/a	n/a	n/a	n/a	n/a	n/a	n/a	n/a	feedback	s513
218.957	0.068	n/a	-1.0	n/a	columbia_card_task_fmri	n/a	n/a	-1.0	n/a	n/a	n/a	n/a	n/a	n/a	n/a	n/a	ITI	s513
219.028	2.788	0.0204324190548675	draw_card	0.0	columbia_card_task_fmri	15.0	0.8333333333333334	89.0	-75.0	0.1666666666666666	12.0	1.0	2.0	0.7109719900526059	2.788	n/a	stim	s513
221.818	0.4	-1.3432039445814976	draw_card	0.0	columbia_card_task_fmri	15.0	0.8181818181818181	89.0	-75.0	0.1818181818181818	12.0	2.0	2.0	1.8824668303168863	0.4	n/a	stim	s513
222.221	0.418	-2.9795675809451323	draw_card	1.0	columbia_card_task_fmri	15.0	0.8	89.0	-75.0	0.2	12.0	3.0	2.0	3.169951902460994	0.418	3.0	stim	s513
222.643	2.25	n/a	-1.0	n/a	columbia_card_task_fmri	n/a	n/a	-1.0	n/a	n/a	n/a	n/a	n/a	n/a	n/a	n/a	feedback	s513
224.893	0.0	n/a	-1.0	n/a	columbia_card_task_fmri	n/a	n/a	-1.0	n/a	n/a	n/a	n/a	n/a	n/a	n/a	n/a	ITI	s513
224.896	2.767	-0.9795675809451324	draw_card	0.0	columbia_card_task_fmri	15.0	0.8	89.0	-65.0	0.2	15.0	1.0	3.0	-0.8300473727410349	2.767	n/a	stim	s513
227.665	0.22	-2.122424723802274	draw_card	0.0	columbia_card_task_fmri	15.0	0.7857142857142857	89.0	-65.0	0.2142857142857142	15.0	2.0	3.0	-0.0039752709661371	0.22	n/a	stim	s513
227.889	0.21	-3.441106042483596	draw_card	0.0	columbia_card_task_fmri	15.0	0.7692307692307692	89.0	-65.0	0.2307692307692307	15.0	3.0	3.0	0.8759558358725812	0.21	n/a	stim	s513
228.102	0.666	-4.979567580945132	draw_card	0.0	columbia_card_task_fmri	15.0	0.75	89.0	-65.0	0.25	15.0	4.0	3.0	1.8109682813119503	0.666	n/a	stim	s513
228.772	1.426	-6.797749399126949	draw_card	0.0	columbia_card_task_fmri	15.0	0.7272727272727273	89.0	-65.0	0.2727272727272727	15.0	5.0	3.0	2.798893676058235	1.426	n/a	stim	s513
230.2	1.508	-8.979567580945133	draw_card	0.0	columbia_card_task_fmri	15.0	0.7	89.0	-65.0	0.3	15.0	6.0	3.0	3.8305573576237606	1.508	n/a	stim	s513
231.712	0.997	-11.646234247611796	end_round	0.0	columbia_card_task_fmri	15.0	0.6666666666666667	71.0	-65.0	0.3333333333333333	15.0	7.0	3.0	4.88231330246299	0.997	6.0	stim	s513
232.713	2.25	n/a	-1.0	n/a	columbia_card_task_fmri	n/a	n/a	-1.0	n/a	n/a	n/a	n/a	n/a	n/a	n/a	n/a	feedback	s513
234.963	0.204	n/a	-1.0	n/a	columbia_card_task_fmri	n/a	n/a	-1.0	n/a	n/a	n/a	n/a	n/a	n/a	n/a	n/a	ITI	s513
235.17	1.976	-1.7295675809451323	draw_card	0.0	columbia_card_task_fmri	14.0	0.8125	89.0	-70.0	0.1875	16.0	1.0	3.0	-0.0438080375804048	1.976	n/a	stim	s513
237.148	0.203	-2.7795675809451312	draw_card	0.0	columbia_card_task_fmri	14.0	0.8	89.0	-70.0	0.2	16.0	2.0	3.0	0.7699523166312687	0.203	n/a	stim	s513
237.354	1.117	-3.979567580945132	end_round	0.0	columbia_card_task_fmri	14.0	0.7857142857142857	71.0	-70.0	0.2142857142857142	16.0	3.0	3.0	1.6373280395197298	1.117	2.0	stim	s513
238.477	2.25	n/a	-1.0	n/a	columbia_card_task_fmri	n/a	n/a	-1.0	n/a	n/a	n/a	n/a	n/a	n/a	n/a	n/a	feedback	s513
240.727	1.02	n/a	-1.0	n/a	columbia_card_task_fmri	n/a	n/a	-1.0	n/a	n/a	n/a	n/a	n/a	n/a	n/a	n/a	ITI	s513
241.749	5.116	-1.7920675809451323	end_round	0.0	columbia_card_task_fmri	11.0	0.6875	71.0	-30.0	0.3125	16.0	1.0	5.0	-13.82603428864747	5.116	0.0	stim	s513
246.87	2.25	n/a	-1.0	n/a	columbia_card_task_fmri	n/a	n/a	-1.0	n/a	n/a	n/a	n/a	n/a	n/a	n/a	n/a	feedback	s513
249.12	0.0	n/a	-1.0	n/a	columbia_card_task_fmri	n/a	n/a	-1.0	n/a	n/a	n/a	n/a	n/a	n/a	n/a	n/a	ITI	s513
249.124	2.955	3.020432419054868	draw_card	0.0	columbia_card_task_fmri	15.0	0.8666666666666667	89.0	-75.0	0.1333333333333333	15.0	1.0	2.0	-2.235929991426385	2.955	n/a	stim	s513
252.082	0.346	2.163289561912012	draw_card	0.0	columbia_card_task_fmri	15.0	0.8571428571428572	89.0	-75.0	0.1428571428571428	15.0	2.0	2.0	-1.3366077177486169	0.346	n/a	stim	s513
252.431	0.85	1.1742785729010208	draw_card	0.0	columbia_card_task_fmri	15.0	0.8461538461538461	89.0	-75.0	0.1538461538461538	15.0	3.0	2.0	-0.3579383611110955	0.85	n/a	stim	s513
253.283	0.566	0.0204324190548675	end_round	0.0	columbia_card_task_fmri	15.0	0.8333333333333334	71.0	-75.0	0.1666666666666666	15.0	4.0	2.0	0.7109719900526059	0.566	3.0	stim	s513
253.852	2.25	n/a	-1.0	n/a	columbia_card_task_fmri	n/a	n/a	-1.0	n/a	n/a	n/a	n/a	n/a	n/a	n/a	n/a	feedback	s513
256.102	0.0	n/a	-1.0	n/a	columbia_card_task_fmri	n/a	n/a	-1.0	n/a	n/a	n/a	n/a	n/a	n/a	n/a	n/a	ITI	s513
256.106	1.862	4.753765752388202	draw_card	0.0	columbia_card_task_fmri	17.0	0.8666666666666667	89.0	-75.0	0.1333333333333333	15.0	1.0	2.0	-1.5560608712721198	1.862	n/a	stim	s513
257.971	1.07	3.877575276197727	draw_card	0.0	columbia_card_task_fmri	17.0	0.8571428571428572	89.0	-75.0	0.1428571428571428	15.0	2.0	2.0	-0.6367536496140787	1.07	n/a	stim	s513
259.045	0.521	2.8665862652087144	draw_card	0.0	columbia_card_task_fmri	17.0	0.8461538461538461	89.0	-75.0	0.1538461538461538	15.0	3.0	2.0	0.363663923730563	0.521	n/a	stim	s513
259.568	0.782	1.687099085721535	end_round	0.0	columbia_card_task_fmri	17.0	0.8333333333333334	71.0	-75.0	0.1666666666666666	15.0	4.0	2.0	1.456327847259523	0.782	3.0	stim	s513
260.355	2.25	n/a	-1.0	n/a	columbia_card_task_fmri	n/a	n/a	-1.0	n/a	n/a	n/a	n/a	n/a	n/a	n/a	n/a	feedback	s513
262.605	0.068	n/a	-1.0	n/a	columbia_card_task_fmri	n/a	n/a	-1.0	n/a	n/a	n/a	n/a	n/a	n/a	n/a	n/a	ITI	s513
262.675	1.813	0.3329324190548676	end_round	0.0	columbia_card_task_fmri	2.0	0.9375	71.0	-25.0	0.0625	16.0	1.0	1.0	-26.294362560361307	1.813	0.0	stim	s513
264.493	2.25	n/a	-1.0	n/a	columbia_card_task_fmri	n/a	n/a	-1.0	n/a	n/a	n/a	n/a	n/a	n/a	n/a	n/a	feedback	s513
266.743	0.476	n/a	-1.0	n/a	columbia_card_task_fmri	n/a	n/a	-1.0	n/a	n/a	n/a	n/a	n/a	n/a	n/a	n/a	ITI	s513
267.223	2.456	2.520432419054868	draw_card	0.0	columbia_card_task_fmri	9.0	0.9375	89.0	-95.0	0.0625	16.0	1.0	1.0	-7.655653853743221	2.456	n/a	stim	s513
269.681	0.665	2.087099085721535	draw_card	0.0	columbia_card_task_fmri	9.0	0.9333333333333332	89.0	-95.0	0.0666666666666666	16.0	2.0	1.0	-6.887887967858024	0.665	n/a	stim	s513
270.348	0.395	1.5918609904834395	draw_card	1.0	columbia_card_task_fmri	9.0	0.9285714285714286	89.0	-95.0	0.0714285714285714	16.0	3.0	1.0	-6.045950913262953	0.395	3.0	stim	s513
270.748	2.25	n/a	-1.0	n/a	columbia_card_task_fmri	n/a	n/a	-1.0	n/a	n/a	n/a	n/a	n/a	n/a	n/a	n/a	feedback	s513
272.998	0.136	n/a	-1.0	n/a	columbia_card_task_fmri	n/a	n/a	-1.0	n/a	n/a	n/a	n/a	n/a	n/a	n/a	n/a	ITI	s513
273.137	0.574	4.082932419054868	draw_card	0.0	columbia_card_task_fmri	11.0	0.9375	89.0	-100.0	0.0625	16.0	1.0	1.0	-5.961224162685678	0.574	n/a	stim	s513
273.715	1.415	3.620432419054868	draw_card	0.0	columbia_card_task_fmri	11.0	0.9333333333333332	89.0	-100.0	0.0666666666666666	16.0	2.0	1.0	-5.141781694796105	1.415	n/a	stim	s513
275.132	0.602	3.0918609904834407	draw_card	0.0	columbia_card_task_fmri	11.0	0.9285714285714286	89.0	-100.0	0.0714285714285714	16.0	3.0	1.0	-4.243175767012801	0.602	n/a	stim	s513
275.737	0.438	2.4819708805933303	draw_card	0.0	columbia_card_task_fmri	11.0	0.9230769230769232	89.0	-100.0	0.0769230769230769	16.0	4.0	1.0	-3.2519484324363823	0.438	n/a	stim	s513
276.179	1.263	1.7704324190548677	draw_card	0.0	columbia_card_task_fmri	11.0	0.9166666666666666	89.0	-100.0	0.0833333333333333	16.0	5.0	1.0	-2.1512677810244725	1.263	n/a	stim	s513
277.444	0.74	0.929523328145776	end_round	0.0	columbia_card_task_fmri	11.0	0.9090909090909092	71.0	-100.0	0.0909090909090909	16.0	6.0	1.0	-0.919790965423573	0.74	5.0	stim	s513
278.189	2.25	n/a	-1.0	n/a	columbia_card_task_fmri	n/a	n/a	-1.0	n/a	n/a	n/a	n/a	n/a	n/a	n/a	n/a	feedback	s513
280.439	0.068	n/a	-1.0	n/a	columbia_card_task_fmri	n/a	n/a	-1.0	n/a	n/a	n/a	n/a	n/a	n/a	n/a	n/a	ITI	s513
280.51	2.147	4.645432419054868	draw_card	0.0	columbia_card_task_fmri	16.0	0.875	89.0	-75.0	0.125	16.0	1.0	2.0	-2.734625796563922	2.147	n/a	stim	s513
282.66	0.223	3.887099085721535	draw_card	0.0	columbia_card_task_fmri	16.0	0.8666666666666667	89.0	-75.0	0.1333333333333333	16.0	2.0	2.0	-1.8959954321642272	0.223	n/a	stim	s513
282.887	0.221	3.020432419054869	draw_card	0.0	columbia_card_task_fmri	16.0	0.8571428571428572	89.0	-75.0	0.1428571428571428	16.0	3.0	2.0	-0.9866806844730434	0.221	n/a	stim	s513
283.111	0.524	2.020432419054868	draw_card	0.0	columbia_card_task_fmri	16.0	0.8461538461538461	89.0	-75.0	0.1538461538461538	16.0	4.0	2.0	0.0028627805419034	0.524	n/a	stim	s513
283.639	0.459	0.8537657523882015	draw_card	0.0	columbia_card_task_fmri	16.0	0.8333333333333334	89.0	-75.0	0.1666666666666666	16.0	5.0	2.0	1.0836499179126946	0.459	n/a	stim	s513
284.101	0.533	-0.5250221263996792	draw_card	0.0	columbia_card_task_fmri	16.0	0.8181818181818181	89.0	-75.0	0.1818181818181818	16.0	6.0	2.0	2.2681613721550065	0.533	n/a	stim	s513
284.638	0.642	-2.179567580945132	end_round	0.0	columbia_card_task_fmri	16.0	0.8	71.0	-75.0	0.2	16.0	7.0	2.0	3.569951838742483	0.642	6.0	stim	s513
285.284	2.25	n/a	-1.0	n/a	columbia_card_task_fmri	n/a	n/a	-1.0	n/a	n/a	n/a	n/a	n/a	n/a	n/a	n/a	feedback	s513
287.534	0.0	n/a	-1.0	n/a	columbia_card_task_fmri	n/a	n/a	-1.0	n/a	n/a	n/a	n/a	n/a	n/a	n/a	n/a	ITI	s513
287.538	1.735	4.895432419054868	draw_card	0.0	columbia_card_task_fmri	17.0	0.875	89.0	-80.0	0.125	16.0	1.0	2.0	-0.7503127422963303	1.735	n/a	stim	s513
289.275	0.235	4.087099085721536	draw_card	0.0	columbia_card_task_fmri	17.0	0.8666666666666667	89.0	-80.0	0.1333333333333333	16.0	2.0	2.0	0.143611955873169	0.235	n/a	stim	s513
289.514	0.243	3.1632895619120136	draw_card	0.0	columbia_card_task_fmri	17.0	0.8571428571428572	89.0	-80.0	0.1428571428571428	16.0	3.0	2.0	1.1128815467177304	0.243	n/a	stim	s513
289.76	0.231	2.0973554959779444	draw_card	1.0	columbia_card_task_fmri	17.0	0.8461538461538461	89.0	-80.0	0.1538461538461538	16.0	4.0	2.0	2.167669661046723	0.231	4.0	stim	s513
289.996	2.25	n/a	-1.0	n/a	columbia_card_task_fmri	n/a	n/a	-1.0	n/a	n/a	n/a	n/a	n/a	n/a	n/a	n/a	feedback	s513
292.246	0.0	n/a	-1.0	n/a	columbia_card_task_fmri	n/a	n/a	-1.0	n/a	n/a	n/a	n/a	n/a	n/a	n/a	n/a	ITI	s513
303.252	3.154	-0.8129009142784646	draw_card	1.0	columbia_card_task_fmri	13.0	0.8333333333333334	89.0	-70.0	0.1666666666666666	6.0	1.0	1.0	-1.89777345882548	3.154	1.0	stim	s513
306.411	2.25	n/a	-1.0	n/a	columbia_card_task_fmri	n/a	n/a	-1.0	n/a	n/a	n/a	n/a	n/a	n/a	n/a	n/a	feedback	s513
308.661	0.204	n/a	-1.0	n/a	columbia_card_task_fmri	n/a	n/a	-1.0	n/a	n/a	n/a	n/a	n/a	n/a	n/a	n/a	ITI	s513
308.867	1.596	-0.8129009142784646	draw_card	0.0	columbia_card_task_fmri	15.0	0.8333333333333334	89.0	-80.0	0.1666666666666666	6.0	1.0	1.0	2.574361643750919	1.596	n/a	stim	s513
310.467	2.159	-3.979567580945132	draw_card	0.0	columbia_card_task_fmri	15.0	0.8	89.0	-80.0	0.2	6.0	2.0	1.0	5.169951597282882	2.159	n/a	stim	s513
312.629	0.958	-8.729567580945133	end_round	0.0	columbia_card_task_fmri	15.0	0.75	71.0	-80.0	0.25	6.0	3.0	1.0	8.306157858244049	0.958	2.0	stim	s513
313.592	2.25	n/a	-1.0	n/a	columbia_card_task_fmri	n/a	n/a	-1.0	n/a	n/a	n/a	n/a	n/a	n/a	n/a	n/a	feedback	s513
315.842	0.204	n/a	-1.0	n/a	columbia_card_task_fmri	n/a	n/a	-1.0	n/a	n/a	n/a	n/a	n/a	n/a	n/a	n/a	ITI	s513
316.049	3.304	0.8537657523882015	draw_card	0.0	columbia_card_task_fmri	16.0	0.8333333333333334	89.0	-75.0	0.1666666666666666	6.0	1.0	1.0	1.0836499179126946	3.304	n/a	stim	s513
319.358	1.52	-2.179567580945132	end_round	0.0	columbia_card_task_fmri	16.0	0.8	71.0	-75.0	0.2	6.0	2.0	1.0	3.569951838742483	1.52	1.0	stim	s513
320.882	2.25	n/a	-1.0	n/a	columbia_card_task_fmri	n/a	n/a	-1.0	n/a	n/a	n/a	n/a	n/a	n/a	n/a	n/a	feedback	s513
323.132	0.272	n/a	-1.0	n/a	columbia_card_task_fmri	n/a	n/a	-1.0	n/a	n/a	n/a	n/a	n/a	n/a	n/a	n/a	ITI	s513
323.408	2.11	2.020432419054868	end_round	0.0	columbia_card_task_fmri	21.0	0.75	71.0	-55.0	0.25	8.0	1.0	2.0	0.078917790893449	2.11	0.0	stim	s513
325.523	2.25	n/a	-1.0	n/a	columbia_card_task_fmri	n/a	n/a	-1.0	n/a	n/a	n/a	n/a	n/a	n/a	n/a	n/a	feedback	s513
327.773	0.136	n/a	-1.0	n/a	columbia_card_task_fmri	n/a	n/a	-1.0	n/a	n/a	n/a	n/a	n/a	n/a	n/a	n/a	ITI	s513
327.912	1.607	3.270432419054868	draw_card	0.0	columbia_card_task_fmri	26.0	0.75	89.0	-65.0	0.25	8.0	1.0	2.0	6.574107273726007	1.607	n/a	stim	s513
329.523	1.672	0.0204324190548711	draw_card	0.0	columbia_card_task_fmri	26.0	0.7142857142857143	89.0	-65.0	0.2857142857142857	8.0	2.0	2.0	8.279560763955182	1.672	n/a	stim	s513
331.198	0.458	-4.312900914278461	end_round	0.0	columbia_card_task_fmri	26.0	0.6666666666666667	71.0	-65.0	0.3333333333333333	8.0	3.0	2.0	10.067762362085872	0.458	2.0	stim	s513
331.661	2.25	n/a	-1.0	n/a	columbia_card_task_fmri	n/a	n/a	-1.0	n/a	n/a	n/a	n/a	n/a	n/a	n/a	n/a	feedback	s513
333.911	0.204	n/a	-1.0	n/a	columbia_card_task_fmri	n/a	n/a	-1.0	n/a	n/a	n/a	n/a	n/a	n/a	n/a	n/a	ITI	s513
334.118	1.825	-1.6462342476117986	end_round	0.0	columbia_card_task_fmri	15.0	0.7777777777777778	71.0	-60.0	0.2222222222222222	9.0	1.0	2.0	-1.649568978174976	1.825	0.0	stim	s513
335.948	2.25	n/a	-1.0	n/a	columbia_card_task_fmri	n/a	n/a	-1.0	n/a	n/a	n/a	n/a	n/a	n/a	n/a	n/a	feedback	s513
338.198	0.272	n/a	-1.0	n/a	columbia_card_task_fmri	n/a	n/a	-1.0	n/a	n/a	n/a	n/a	n/a	n/a	n/a	n/a	ITI	s513
338.474	1.309	2.7204324190548688	draw_card	0.0	columbia_card_task_fmri	13.0	0.9	89.0	-90.0	0.1	10.0	1.0	1.0	-1.9300471405242128	1.309	n/a	stim	s513
339.788	0.481	1.5759879746104228	draw_card	0.0	columbia_card_task_fmri	13.0	0.8888888888888888	89.0	-90.0	0.1111111111111111	10.0	2.0	1.0	-0.4602703529412792	0.481	n/a	stim	s513
340.272	1.045	0.1454324190548676	draw_card	0.0	columbia_card_task_fmri	13.0	0.875	89.0	-90.0	0.125	10.0	3.0	1.0	1.2340003619554167	1.045	n/a	stim	s513
341.32	0.463	-1.6938532952308445	end_round	0.0	columbia_card_task_fmri	13.0	0.8571428571428572	71.0	-90.0	0.1428571428571428	10.0	4.0	1.0	3.212443825148952	0.463	3.0	stim	s513
341.788	2.25	n/a	-1.0	n/a	columbia_card_task_fmri	n/a	n/a	-1.0	n/a	n/a	n/a	n/a	n/a	n/a	n/a	n/a	feedback	s513
344.038	0.272	n/a	-1.0	n/a	columbia_card_task_fmri	n/a	n/a	-1.0	n/a	n/a	n/a	n/a	n/a	n/a	n/a	n/a	ITI	s513
344.314	1.596	4.020432419054868	draw_card	0.0	columbia_card_task_fmri	15.0	0.9	89.0	-95.0	0.1	10.0	1.0	1.0	0.1699524295868002	1.596	n/a	stim	s513
345.913	0.805	2.7982101968326445	draw_card	0.0	columbia_card_task_fmri	15.0	0.8888888888888888	89.0	-95.0	0.1111111111111111	10.0	2.0	1.0	1.7396170003806688	0.805	n/a	stim	s513
346.722	0.592	1.2704324190548677	end_round	0.0	columbia_card_task_fmri	15.0	0.875	71.0	-95.0	0.125	10.0	3.0	1.0	3.5490323691782777	0.592	2.0	stim	s513
347.319	2.25	n/a	-1.0	n/a	columbia_card_task_fmri	n/a	n/a	-1.0	n/a	n/a	n/a	n/a	n/a	n/a	n/a	n/a	feedback	s513
349.569	0.34	n/a	-1.0	n/a	columbia_card_task_fmri	n/a	n/a	-1.0	n/a	n/a	n/a	n/a	n/a	n/a	n/a	n/a	ITI	s513
349.913	1.94	-0.1795675809451317	draw_card	1.0	columbia_card_task_fmri	16.0	0.8	89.0	-65.0	0.2	10.0	1.0	2.0	-0.4300474532741347	1.94	1.0	stim	s513
351.856	2.25	n/a	-1.0	n/a	columbia_card_task_fmri	n/a	n/a	-1.0	n/a	n/a	n/a	n/a	n/a	n/a	n/a	n/a	feedback	s513
354.106	0.204	n/a	-1.0	n/a	columbia_card_task_fmri	n/a	n/a	-1.0	n/a	n/a	n/a	n/a	n/a	n/a	n/a	n/a	ITI	s513
354.315	1.422	-1.4795675809451323	draw_card	0.0	columbia_card_task_fmri	7.0	0.9166666666666666	89.0	-95.0	0.0833333333333333	12.0	1.0	1.0	-4.638735773428348	1.422	n/a	stim	s513
355.741	1.19	-2.2522948536724057	end_round	0.0	columbia_card_task_fmri	7.0	0.9090909090909092	71.0	-95.0	0.0909090909090909	12.0	2.0	1.0	-3.507108473822324	1.19	1.0	stim	s513
356.936	2.25	n/a	-1.0	n/a	columbia_card_task_fmri	n/a	n/a	-1.0	n/a	n/a	n/a	n/a	n/a	n/a	n/a	n/a	feedback	s513
359.186	0.068	n/a	-1.0	n/a	columbia_card_task_fmri	n/a	n/a	-1.0	n/a	n/a	n/a	n/a	n/a	n/a	n/a	n/a	ITI	s513
359.258	2.336	-0.8129009142784646	draw_card	0.0	columbia_card_task_fmri	14.0	0.8333333333333334	89.0	-75.0	0.1666666666666666	12.0	1.0	2.0	0.3382940637293643	2.336	n/a	stim	s513
361.597	0.918	-2.161385762763316	draw_card	0.0	columbia_card_task_fmri	14.0	0.8181818181818181	89.0	-75.0	0.1818181818181818	12.0	2.0	2.0	1.496772289963758	0.918	n/a	stim	s513
362.518	0.676	-3.7795675809451312	end_round	0.0	columbia_card_task_fmri	14.0	0.8	71.0	-75.0	0.2	12.0	3.0	2.0	2.769951967611369	0.676	2.0	stim	s513
363.199	2.25	n/a	-1.0	n/a	columbia_card_task_fmri	n/a	n/a	-1.0	n/a	n/a	n/a	n/a	n/a	n/a	n/a	n/a	feedback	s513
365.449	0.0	n/a	-1.0	n/a	columbia_card_task_fmri	n/a	n/a	-1.0	n/a	n/a	n/a	n/a	n/a	n/a	n/a	n/a	ITI	s513
365.454	1.56	0.8537657523882015	draw_card	0.0	columbia_card_task_fmri	15.0	0.8333333333333334	89.0	-70.0	0.1666666666666666	12.0	1.0	2.0	-1.1524176251102567	1.56	n/a	stim	s513
367.019	0.553	-0.4341130354905892	draw_card	0.0	columbia_card_task_fmri	15.0	0.8181818181818181	89.0	-70.0	0.1818181818181818	12.0	2.0	2.0	-0.0460058555506961	0.553	n/a	stim	s513
367.576	0.452	-1.9795675809451323	end_round	0.0	columbia_card_task_fmri	15.0	0.8	71.0	-70.0	0.2	12.0	3.0	2.0	1.1699522435423972	0.452	2.0	stim	s513
368.032	2.25	n/a	-1.0	n/a	columbia_card_task_fmri	n/a	n/a	-1.0	n/a	n/a	n/a	n/a	n/a	n/a	n/a	n/a	feedback	s513
370.282	0.408	n/a	-1.0	n/a	columbia_card_task_fmri	n/a	n/a	-1.0	n/a	n/a	n/a	n/a	n/a	n/a	n/a	n/a	ITI	s513
370.693	1.377	-1.1795675809451318	draw_card	0.0	columbia_card_task_fmri	16.0	0.8	89.0	-70.0	0.2	15.0	1.0	3.0	1.5699521721532648	1.377	n/a	stim	s513
372.075	0.488	-2.408139009516561	draw_card	1.0	columbia_card_task_fmri	16.0	0.7857142857142857	89.0	-70.0	0.2142857142857142	15.0	2.0	3.0	2.457979705325819	0.488	2.0	stim	s513
372.567	2.25	n/a	-1.0	n/a	columbia_card_task_fmri	n/a	n/a	-1.0	n/a	n/a	n/a	n/a	n/a	n/a	n/a	n/a	feedback	s513
374.817	0.204	n/a	-1.0	n/a	columbia_card_task_fmri	n/a	n/a	-1.0	n/a	n/a	n/a	n/a	n/a	n/a	n/a	n/a	ITI	s513
375.025	0.757	-0.7920675809451324	draw_card	0.0	columbia_card_task_fmri	14.0	0.8125	89.0	-65.0	0.1875	16.0	1.0	3.0	-1.995369509121005	0.757	n/a	stim	s513
375.786	1.126	-1.7795675809451317	draw_card	0.0	columbia_card_task_fmri	14.0	0.8	89.0	-65.0	0.2	16.0	2.0	3.0	-1.2300472901691144	1.126	n/a	stim	s513
376.915	1.007	-2.90813900951656	draw_card	0.0	columbia_card_task_fmri	14.0	0.7857142857142857	89.0	-65.0	0.2142857142857142	16.0	3.0	3.0	-0.414301093796297	1.007	n/a	stim	s513
377.925	1.07	-4.210336811714364	draw_card	0.0	columbia_card_task_fmri	14.0	0.7692307692307692	89.0	-65.0	0.2307692307692307	16.0	4.0	3.0	0.4546308700304422	1.07	n/a	stim	s513
378.998	0.865	-5.729567580945132	end_round	0.0	columbia_card_task_fmri	14.0	0.75	71.0	-65.0	0.25	16.0	5.0	3.0	1.377955655696404	0.865	4.0	stim	s513
379.868	2.25	n/a	-1.0	n/a	columbia_card_task_fmri	n/a	n/a	-1.0	n/a	n/a	n/a	n/a	n/a	n/a	n/a	n/a	feedback	s513
382.118	0.136	n/a	-1.0	n/a	columbia_card_task_fmri	n/a	n/a	-1.0	n/a	n/a	n/a	n/a	n/a	n/a	n/a	n/a	ITI	s513
382.258	0.672	-1.0420675809451323	draw_card	0.0	columbia_card_task_fmri	16.0	0.8125	89.0	-75.0	0.1875	16.0	1.0	3.0	2.688378096968826	0.672	n/a	stim	s513
382.933	0.741	-2.179567580945132	draw_card	0.0	columbia_card_task_fmri	16.0	0.8	89.0	-75.0	0.2	16.0	2.0	3.0	3.569951838742483	0.741	n/a	stim	s513
383.678	0.628	-3.4795675809451305	end_round	0.0	columbia_card_task_fmri	16.0	0.7857142857142857	71.0	-75.0	0.2142857142857142	16.0	3.0	3.0	4.509608896926082	0.628	2.0	stim	s513
384.311	2.25	n/a	-1.0	n/a	columbia_card_task_fmri	n/a	n/a	-1.0	n/a	n/a	n/a	n/a	n/a	n/a	n/a	n/a	feedback	s513
386.561	0.34	n/a	-1.0	n/a	columbia_card_task_fmri	n/a	n/a	-1.0	n/a	n/a	n/a	n/a	n/a	n/a	n/a	n/a	ITI	s513
386.904	1.716	3.2204324190548688	draw_card	0.0	columbia_card_task_fmri	16.0	0.8666666666666667	89.0	-80.0	0.1333333333333333	15.0	1.0	2.0	-0.1963226124229891	1.716	n/a	stim	s513
388.625	0.328	2.306146704769156	draw_card	1.0	columbia_card_task_fmri	16.0	0.8571428571428572	89.0	-80.0	0.1428571428571428	15.0	2.0	2.0	0.7629545046661406	0.328	2.0	stim	s513
388.958	2.25	n/a	-1.0	n/a	columbia_card_task_fmri	n/a	n/a	-1.0	n/a	n/a	n/a	n/a	n/a	n/a	n/a	n/a	feedback	s513
391.208	0.068	n/a	-1.0	n/a	columbia_card_task_fmri	n/a	n/a	-1.0	n/a	n/a	n/a	n/a	n/a	n/a	n/a	n/a	ITI	s513
391.279	0.55	4.087099085721536	draw_card	0.0	columbia_card_task_fmri	17.0	0.8666666666666667	89.0	-80.0	0.1333333333333333	15.0	1.0	2.0	0.143611955873169	0.55	n/a	stim	s513
391.834	0.258	3.1632895619120136	draw_card	0.0	columbia_card_task_fmri	17.0	0.8571428571428572	89.0	-80.0	0.1428571428571428	15.0	2.0	2.0	1.1128815467177304	0.258	n/a	stim	s513
392.096	0.703	2.0973554959779444	draw_card	0.0	columbia_card_task_fmri	17.0	0.8461538461538461	89.0	-80.0	0.1538461538461538	15.0	3.0	2.0	2.167669661046723	0.703	n/a	stim	s513
392.803	0.519	0.8537657523882033	end_round	0.0	columbia_card_task_fmri	17.0	0.8333333333333334	71.0	-80.0	0.1666666666666666	15.0	4.0	2.0	3.319717514685337	0.519	3.0	stim	s513
393.327	2.25	n/a	-1.0	n/a	columbia_card_task_fmri	n/a	n/a	-1.0	n/a	n/a	n/a	n/a	n/a	n/a	n/a	n/a	feedback	s513
395.577	0.34	n/a	-1.0	n/a	columbia_card_task_fmri	n/a	n/a	-1.0	n/a	n/a	n/a	n/a	n/a	n/a	n/a	n/a	ITI	s513
395.921	0.607	0.0204324190548675	draw_card	1.0	columbia_card_task_fmri	1.0	0.9375	89.0	-15.0	0.0625	16.0	1.0	1.0	-28.95701665317137	0.607	1.0	stim	s513
396.534	2.25	n/a	-1.0	n/a	columbia_card_task_fmri	n/a	n/a	-1.0	n/a	n/a	n/a	n/a	n/a	n/a	n/a	n/a	feedback	s513
398.784	0.136	n/a	-1.0	n/a	columbia_card_task_fmri	n/a	n/a	-1.0	n/a	n/a	n/a	n/a	n/a	n/a	n/a	n/a	ITI	s513
398.924	2.41	3.145432419054868	draw_card	0.0	columbia_card_task_fmri	10.0	0.9375	89.0	-100.0	0.0625	16.0	1.0	1.0	-6.203285551197077	2.41	n/a	stim	s513
401.338	0.231	2.6870990857215347	draw_card	0.0	columbia_card_task_fmri	10.0	0.9333333333333332	89.0	-100.0	0.0666666666666666	16.0	2.0	1.0	-5.391225452044683	0.231	n/a	stim	s513
401.573	0.402	2.163289561912012	draw_card	0.0	columbia_card_task_fmri	10.0	0.9285714285714286	89.0	-100.0	0.0714285714285714	16.0	3.0	1.0	-4.500715077449694	0.402	n/a	stim	s513
401.98	0.343	1.5588939575164067	draw_card	0.0	columbia_card_task_fmri	10.0	0.9230769230769232	89.0	-100.0	0.0769230769230769	16.0	4.0	1.0	-3.518417723289623	0.343	n/a	stim	s513
402.327	0.755	0.8537657523882015	draw_card	0.0	columbia_card_task_fmri	10.0	0.9166666666666666	89.0	-100.0	0.0833333333333333	16.0	5.0	1.0	-2.4276531183652037	0.755	n/a	stim	s513
403.086	0.527	0.0204324190548658	draw_card	0.0	columbia_card_task_fmri	10.0	0.9090909090909092	89.0	-100.0	0.0909090909090909	16.0	6.0	1.0	-1.2072706932431778	0.527	n/a	stim	s513
403.617	0.838	-0.9795675809451324	end_round	0.0	columbia_card_task_fmri	10.0	0.9	71.0	-100.0	0.1	16.0	7.0	1.0	0.1699524295868002	0.838	6.0	stim	s513
404.461	2.25	n/a	-1.0	n/a	columbia_card_task_fmri	n/a	n/a	-1.0	n/a	n/a	n/a	n/a	n/a	n/a	n/a	n/a	feedback	s513
406.711	0.068	n/a	-1.0	n/a	columbia_card_task_fmri	n/a	n/a	-1.0	n/a	n/a	n/a	n/a	n/a	n/a	n/a	n/a	ITI	s513
406.784	1.842	3.770432419054868	draw_card	0.0	columbia_card_task_fmri	15.0	0.875	89.0	-75.0	0.125	16.0	1.0	2.0	-3.065344633380345	1.842	n/a	stim	s513
408.63	0.425	3.020432419054868	draw_card	1.0	columbia_card_task_fmri	15.0	0.8666666666666667	89.0	-75.0	0.1333333333333333	16.0	2.0	2.0	-2.235929991426385	0.425	2.0	stim	s513
409.061	2.25	n/a	-1.0	n/a	columbia_card_task_fmri	n/a	n/a	-1.0	n/a	n/a	n/a	n/a	n/a	n/a	n/a	n/a	feedback	s513
411.311	0.068	n/a	-1.0	n/a	columbia_card_task_fmri	n/a	n/a	-1.0	n/a	n/a	n/a	n/a	n/a	n/a	n/a	n/a	ITI	s513
411.384	0.835	4.020432419054868	draw_card	0.0	columbia_card_task_fmri	16.0	0.875	89.0	-80.0	0.125	16.0	1.0	2.0	-1.0810315883984885	0.835	n/a	stim	s513
412.222	0.278	3.2204324190548688	draw_card	0.0	columbia_card_task_fmri	16.0	0.8666666666666667	89.0	-80.0	0.1333333333333333	16.0	2.0	2.0	-0.1963226124229891	0.278	n/a	stim	s513
412.503	0.305	2.306146704769156	draw_card	0.0	columbia_card_task_fmri	16.0	0.8571428571428572	89.0	-80.0	0.1428571428571428	16.0	3.0	2.0	0.7629545046661406	0.305	n/a	stim	s513
412.812	0.45	1.2512016498240974	draw_card	0.0	columbia_card_task_fmri	16.0	0.8461538461538461	89.0	-80.0	0.1538461538461538	16.0	4.0	2.0	1.806868510882204	0.45	n/a	stim	s513
413.267	0.437	0.0204324190548693	draw_card	0.0	columbia_card_task_fmri	16.0	0.8333333333333334	89.0	-80.0	0.1666666666666666	16.0	5.0	2.0	2.947039578584977	0.437	n/a	stim	s513
413.707	0.75	-1.434113035490589	draw_card	0.0	columbia_card_task_fmri	16.0	0.8181818181818181	89.0	-80.0	0.1818181818181818	16.0	6.0	2.0	4.196634101996139	0.75	n/a	stim	s513
414.46	0.751	-3.179567580945132	draw_card	0.0	columbia_card_task_fmri	16.0	0.8	89.0	-80.0	0.2	16.0	7.0	2.0	5.569951540061986	0.751	n/a	stim	s513
415.215	1.362	-5.312900914278466	end_round	0.0	columbia_card_task_fmri	16.0	0.7777777777777778	71.0	-80.0	0.2222222222222222	16.0	8.0	2.0	7.080963459846849	1.362	7.0	stim	s513
416.582	2.25	n/a	-1.0	n/a	columbia_card_task_fmri	n/a	n/a	-1.0	n/a	n/a	n/a	n/a	n/a	n/a	n/a	n/a	feedback	s513
418.832	0.068	n/a	-1.0	n/a	columbia_card_task_fmri	n/a	n/a	-1.0	n/a	n/a	n/a	n/a	n/a	n/a	n/a	n/a	ITI	s513
418.903	1.197	1.2079324190548677	end_round	0.0	columbia_card_task_fmri	4.0	0.6875	71.0	-5.0	0.3125	16.0	1.0	5.0	-28.6583922085686	1.197	0.0	stim	s513
420.106	2.25	n/a	-1.0	n/a	columbia_card_task_fmri	n/a	n/a	-1.0	n/a	n/a	n/a	n/a	n/a	n/a	n/a	n/a	feedback	s513
422.356	0.136	n/a	-1.0	n/a	columbia_card_task_fmri	n/a	n/a	-1.0	n/a	n/a	n/a	n/a	n/a	n/a	n/a	n/a	ITI	s513
422.496	1.414	-1.6462342476117968	draw_card	0.0	columbia_card_task_fmri	14.0	0.8333333333333334	89.0	-80.0	0.1666666666666666	6.0	1.0	1.0	2.201683710223584	1.414	n/a	stim	s513
423.914	0.438	-4.779567580945131	end_round	0.0	columbia_card_task_fmri	14.0	0.8	71.0	-80.0	0.2	6.0	2.0	1.0	4.769951655721243	0.438	1.0	stim	s513
424.358	2.25	n/a	-1.0	n/a	columbia_card_task_fmri	n/a	n/a	-1.0	n/a	n/a	n/a	n/a	n/a	n/a	n/a	n/a	feedback	s513
426.608	0.0	n/a	-1.0	n/a	columbia_card_task_fmri	n/a	n/a	-1.0	n/a	n/a	n/a	n/a	n/a	n/a	n/a	n/a	ITI	s513
426.611	1.064	0.0204324190548675	draw_card	0.0	columbia_card_task_fmri	15.0	0.8333333333333334	89.0	-75.0	0.1666666666666666	6.0	1.0	1.0	0.7109719900526059	1.064	n/a	stim	s513
427.68	0.399	-2.9795675809451323	end_round	0.0	columbia_card_task_fmri	15.0	0.8	71.0	-75.0	0.2	6.0	2.0	1.0	3.169951902460994	0.399	1.0	stim	s513
428.084	2.25	n/a	-1.0	n/a	columbia_card_task_fmri	n/a	n/a	-1.0	n/a	n/a	n/a	n/a	n/a	n/a	n/a	n/a	feedback	s513
430.334	0.136	n/a	-1.0	n/a	columbia_card_task_fmri	n/a	n/a	-1.0	n/a	n/a	n/a	n/a	n/a	n/a	n/a	n/a	ITI	s513
430.475	0.664	1.687099085721535	draw_card	0.0	columbia_card_task_fmri	16.0	0.8333333333333334	89.0	-70.0	0.1666666666666666	6.0	1.0	1.0	-0.7797397054831379	0.664	n/a	stim	s513
431.142	0.34	-1.1795675809451318	end_round	0.0	columbia_card_task_fmri	16.0	0.8	71.0	-70.0	0.2	6.0	2.0	1.0	1.5699521721532648	0.34	1.0	stim	s513
431.488	2.25	n/a	-1.0	n/a	columbia_card_task_fmri	n/a	n/a	-1.0	n/a	n/a	n/a	n/a	n/a	n/a	n/a	n/a	feedback	s513
433.738	0.34	n/a	-1.0	n/a	columbia_card_task_fmri	n/a	n/a	-1.0	n/a	n/a	n/a	n/a	n/a	n/a	n/a	n/a	ITI	s513
434.082	0.505	2.270432419054868	draw_card	0.0	columbia_card_task_fmri	23.0	0.75	89.0	-60.0	0.25	8.0	1.0	2.0	3.110006169186533	0.505	n/a	stim	s513
434.591	0.43	-0.6938532952308442	draw_card	1.0	columbia_card_task_fmri	23.0	0.7142857142857143	89.0	-60.0	0.2857142857142857	8.0	2.0	2.0	4.665529641750034	0.43	2.0	stim	s513
435.026	2.25	n/a	-1.0	n/a	columbia_card_task_fmri	n/a	n/a	-1.0	n/a	n/a	n/a	n/a	n/a	n/a	n/a	n/a	feedback	s513
437.276	0.408	n/a	-1.0	n/a	columbia_card_task_fmri	n/a	n/a	-1.0	n/a	n/a	n/a	n/a	n/a	n/a	n/a	n/a	ITI	s513
437.687	0.886	2.770432419054868	draw_card	0.0	columbia_card_task_fmri	27.0	0.75	89.0	-70.0	0.25	8.0	1.0	2.0	9.172183157401548	0.886	n/a	stim	s513
438.578	0.241	-0.6938532952308477	draw_card	1.0	columbia_card_task_fmri	27.0	0.7142857142857143	89.0	-70.0	0.2857142857142857	8.0	2.0	2.0	10.990084158587038	0.241	2.0	stim	s513
438.825	2.25	n/a	-1.0	n/a	columbia_card_task_fmri	n/a	n/a	-1.0	n/a	n/a	n/a	n/a	n/a	n/a	n/a	n/a	feedback	s513
441.075	0.136	n/a	-1.0	n/a	columbia_card_task_fmri	n/a	n/a	-1.0	n/a	n/a	n/a	n/a	n/a	n/a	n/a	n/a	ITI	s513
441.214	1.041	-1.9795675809451307	draw_card	1.0	columbia_card_task_fmri	16.0	0.7777777777777778	89.0	-65.0	0.2222222222222222	9.0	1.0	2.0	0.8448687837756879	1.041	1.0	stim	s513
442.261	2.25	n/a	-1.0	n/a	columbia_card_task_fmri	n/a	n/a	-1.0	n/a	n/a	n/a	n/a	n/a	n/a	n/a	n/a	feedback	s513
444.511	0.136	n/a	-1.0	n/a	columbia_card_task_fmri	n/a	n/a	-1.0	n/a	n/a	n/a	n/a	n/a	n/a	n/a	n/a	ITI	s513
444.651	0.487	3.2204324190548688	draw_card	1.0	columbia_card_task_fmri	13.0	0.9	89.0	-85.0	0.1	10.0	1.0	1.0	-3.430046795861045	0.487	1.0	stim	s513
445.144	2.25	n/a	-1.0	n/a	columbia_card_task_fmri	n/a	n/a	-1.0	n/a	n/a	n/a	n/a	n/a	n/a	n/a	n/a	feedback	s513
447.394	0.0	n/a	-1.0	n/a	columbia_card_task_fmri	n/a	n/a	-1.0	n/a	n/a	n/a	n/a	n/a	n/a	n/a	n/a	ITI	s513
447.398	0.474	-1.7795675809451317	draw_card	0.0	columbia_card_task_fmri	14.0	0.8	89.0	-65.0	0.2	10.0	1.0	2.0	-1.2300472901691144	0.474	n/a	stim	s513
447.875	1.213	-3.535123136500686	draw_card	1.0	columbia_card_task_fmri	14.0	0.7777777777777778	89.0	-65.0	0.2222222222222222	10.0	2.0	2.0	0.013389521422539	1.213	2.0	stim	s513
449.094	2.25	n/a	-1.0	n/a	columbia_card_task_fmri	n/a	n/a	-1.0	n/a	n/a	n/a	n/a	n/a	n/a	n/a	n/a	feedback	s513
451.344	0.068	n/a	-1.0	n/a	columbia_card_task_fmri	n/a	n/a	-1.0	n/a	n/a	n/a	n/a	n/a	n/a	n/a	n/a	ITI	s513
451.416	0.354	-0.379567580945131	draw_card	0.0	columbia_card_task_fmri	17.0	0.8	89.0	-70.0	0.2	10.0	1.0	2.0	1.9699521024052584	0.354	n/a	stim	s513
451.774	1.406	-2.3129009142784644	draw_card	0.0	columbia_card_task_fmri	17.0	0.7777777777777778	89.0	-70.0	0.2222222222222222	10.0	2.0	2.0	3.339306614126152	1.406	n/a	stim	s513
453.185	1.066	-4.729567580945132	draw_card	0.0	columbia_card_task_fmri	17.0	0.75	89.0	-70.0	0.25	10.0	3.0	2.0	4.842056709718385	1.066	n/a	stim	s513
454.254	0.831	-7.83671043808799	draw_card	1.0	columbia_card_task_fmri	17.0	0.7142857142857143	89.0	-70.0	0.2857142857142857	10.0	4.0	2.0	6.472545191601668	0.831	4.0	stim	s513
455.092	2.25	n/a	-1.0	n/a	columbia_card_task_fmri	n/a	n/a	-1.0	n/a	n/a	n/a	n/a	n/a	n/a	n/a	n/a	feedback	s513
457.342	0.0	n/a	-1.0	n/a	columbia_card_task_fmri	n/a	n/a	-1.0	n/a	n/a	n/a	n/a	n/a	n/a	n/a	n/a	ITI	s513
457.346	0.681	-1.6462342476117986	draw_card	1.0	columbia_card_task_fmri	13.0	0.8333333333333334	89.0	-75.0	0.1666666666666666	12.0	1.0	2.0	-0.0343838610046347	0.681	1.0	stim	s513
458.032	2.25	n/a	-1.0	n/a	columbia_card_task_fmri	n/a	n/a	-1.0	n/a	n/a	n/a	n/a	n/a	n/a	n/a	n/a	feedback	s513
460.282	0.0	n/a	-1.0	n/a	columbia_card_task_fmri	n/a	n/a	-1.0	n/a	n/a	n/a	n/a	n/a	n/a	n/a	n/a	ITI	s513
460.287	0.684	0.0204324190548693	draw_card	0.0	columbia_card_task_fmri	14.0	0.8333333333333334	89.0	-70.0	0.1666666666666666	12.0	1.0	2.0	-1.5250955429130144	0.684	n/a	stim	s513
460.975	0.7	-1.2522948536724077	end_round	0.0	columbia_card_task_fmri	14.0	0.8181818181818181	71.0	-70.0	0.1818181818181818	12.0	2.0	2.0	-0.4317003876709009	0.7	1.0	stim	s513
461.681	2.25	n/a	-1.0	n/a	columbia_card_task_fmri	n/a	n/a	-1.0	n/a	n/a	n/a	n/a	n/a	n/a	n/a	n/a	feedback	s513
463.931	0.136	n/a	-1.0	n/a	columbia_card_task_fmri	n/a	n/a	-1.0	n/a	n/a	n/a	n/a	n/a	n/a	n/a	n/a	ITI	s513
464.072	0.878	0.0204324190548693	draw_card	0.0	columbia_card_task_fmri	16.0	0.8333333333333334	89.0	-80.0	0.1666666666666666	12.0	1.0	2.0	2.947039578584977	0.878	n/a	stim	s513
464.954	0.997	-1.434113035490589	draw_card	1.0	columbia_card_task_fmri	16.0	0.8181818181818181	89.0	-80.0	0.1818181818181818	12.0	2.0	2.0	4.196634101996139	0.997	2.0	stim	s513
465.957	2.25	n/a	-1.0	n/a	columbia_card_task_fmri	n/a	n/a	-1.0	n/a	n/a	n/a	n/a	n/a	n/a	n/a	n/a	feedback	s513
468.207	0.136	n/a	-1.0	n/a	columbia_card_task_fmri	n/a	n/a	-1.0	n/a	n/a	n/a	n/a	n/a	n/a	n/a	n/a	ITI	s513
468.348	2.78	-0.1795675809451317	draw_card	0.0	columbia_card_task_fmri	16.0	0.8	89.0	-65.0	0.2	15.0	1.0	3.0	-0.4300474532741347	2.78	n/a	stim	s513
471.133	0.521	-1.3367104380879884	end_round	0.0	columbia_card_task_fmri	16.0	0.7857142857142857	71.0	-65.0	0.2142857142857142	15.0	2.0	3.0	0.4063505538515244	0.521	1.0	stim	s513
471.658	2.25	n/a	-1.0	n/a	columbia_card_task_fmri	n/a	n/a	-1.0	n/a	n/a	n/a	n/a	n/a	n/a	n/a	n/a	feedback	s513
473.908	0.476	n/a	-1.0	n/a	columbia_card_task_fmri	n/a	n/a	-1.0	n/a	n/a	n/a	n/a	n/a	n/a	n/a	n/a	ITI	s513
474.389	1.644	-1.8545675809451323	draw_card	0.0	columbia_card_task_fmri	15.0	0.8125	89.0	-75.0	0.1875	16.0	1.0	3.0	2.298065787368941	1.644	n/a	stim	s513
476.036	2.55	-2.9795675809451323	end_round	0.0	columbia_card_task_fmri	15.0	0.8	71.0	-75.0	0.2	16.0	2.0	3.0	3.169951902460994	2.55	1.0	stim	s513
478.591	2.25	n/a	-1.0	n/a	columbia_card_task_fmri	n/a	n/a	-1.0	n/a	n/a	n/a	n/a	n/a	n/a	n/a	n/a	feedback	s513
480.841	0.204	n/a	-1.0	n/a	columbia_card_task_fmri	n/a	n/a	-1.0	n/a	n/a	n/a	n/a	n/a	n/a	n/a	n/a	ITI	s513
481.049	0.847	-1.2920675809451323	draw_card	0.0	columbia_card_task_fmri	14.0	0.6875	89.0	-35.0	0.3125	16.0	1.0	5.0	-10.11793683842028	0.847	n/a	stim	s513
481.902	2.12	-2.3129009142784644	end_round	0.0	columbia_card_task_fmri	14.0	0.6666666666666667	71.0	-35.0	0.3333333333333333	16.0	2.0	5.0	-9.731223340259351	2.12	1.0	stim	s513
484.028	2.25	n/a	-1.0	n/a	columbia_card_task_fmri	n/a	n/a	-1.0	n/a	n/a	n/a	n/a	n/a	n/a	n/a	n/a	feedback	s513
486.278	0.068	n/a	-1.0	n/a	columbia_card_task_fmri	n/a	n/a	-1.0	n/a	n/a	n/a	n/a	n/a	n/a	n/a	n/a	ITI	s513
486.351	2.628	3.887099085721535	draw_card	0.0	columbia_card_task_fmri	16.0	0.8666666666666667	89.0	-75.0	0.1333333333333333	15.0	1.0	2.0	-1.8959954321642272	2.628	n/a	stim	s513
488.983	0.498	3.020432419054869	draw_card	0.0	columbia_card_task_fmri	16.0	0.8571428571428572	89.0	-75.0	0.1428571428571428	15.0	2.0	2.0	-0.9866806844730434	0.498	n/a	stim	s513
489.486	0.435	2.020432419054868	draw_card	0.0	columbia_card_task_fmri	16.0	0.8461538461538461	89.0	-75.0	0.1538461538461538	15.0	3.0	2.0	0.0028627805419034	0.435	n/a	stim	s513
489.926	0.657	0.8537657523882015	end_round	0.0	columbia_card_task_fmri	16.0	0.8333333333333334	71.0	-75.0	0.1666666666666666	15.0	4.0	2.0	1.0836499179126946	0.657	3.0	stim	s513
490.589	2.25	n/a	-1.0	n/a	columbia_card_task_fmri	n/a	n/a	-1.0	n/a	n/a	n/a	n/a	n/a	n/a	n/a	n/a	feedback	s513
492.839	0.068	n/a	-1.0	n/a	columbia_card_task_fmri	n/a	n/a	-1.0	n/a	n/a	n/a	n/a	n/a	n/a	n/a	n/a	ITI	s513
492.912	0.469	4.553765752388201	draw_card	0.0	columbia_card_task_fmri	16.0	0.8666666666666667	89.0	-70.0	0.1333333333333333	15.0	1.0	2.0	-3.595668211038454	0.469	n/a	stim	s513
493.386	0.381	3.734718133340583	draw_card	0.0	columbia_card_task_fmri	16.0	0.8571428571428572	89.0	-70.0	0.1428571428571428	15.0	2.0	2.0	-2.7363158339122187	0.381	n/a	stim	s513
493.772	1.948	2.789663188285636	draw_card	0.0	columbia_card_task_fmri	16.0	0.8461538461538461	89.0	-70.0	0.1538461538461538	15.0	3.0	2.0	-1.8011429112949031	1.948	n/a	stim	s513
495.726	1.084	1.687099085721535	draw_card	0.0	columbia_card_task_fmri	16.0	0.8333333333333334	89.0	-70.0	0.1666666666666666	15.0	4.0	2.0	-0.7797397054831379	1.084	n/a	stim	s513
496.815	0.494	0.3840687826912291	end_round	0.0	columbia_card_task_fmri	16.0	0.8181818181818181	71.0	-70.0	0.1818181818181818	15.0	5.0	2.0	0.339688678332287	0.494	4.0	stim	s513
497.315	2.25	n/a	-1.0	n/a	columbia_card_task_fmri	n/a	n/a	-1.0	n/a	n/a	n/a	n/a	n/a	n/a	n/a	n/a	feedback	s513
499.565	0.34	n/a	-1.0	n/a	columbia_card_task_fmri	n/a	n/a	-1.0	n/a	n/a	n/a	n/a	n/a	n/a	n/a	n/a	ITI	s513
499.908	0.664	1.8954324190548677	draw_card	0.0	columbia_card_task_fmri	8.0	0.9375	89.0	-90.0	0.0625	16.0	1.0	1.0	-9.10802210090797	0.664	n/a	stim	s513
500.578	0.613	1.4870990857215345	draw_card	1.0	columbia_card_task_fmri	8.0	0.9333333333333332	89.0	-90.0	0.0666666666666666	16.0	2.0	1.0	-8.384550429928996	0.613	2.0	stim	s513
501.197	2.25	n/a	-1.0	n/a	columbia_card_task_fmri	n/a	n/a	-1.0	n/a	n/a	n/a	n/a	n/a	n/a	n/a	n/a	feedback	s513
503.447	0.476	n/a	-1.0	n/a	columbia_card_task_fmri	n/a	n/a	-1.0	n/a	n/a	n/a	n/a	n/a	n/a	n/a	n/a	ITI	s513
503.927	1.538	3.457932419054868	draw_card	0.0	columbia_card_task_fmri	10.0	0.9375	89.0	-95.0	0.0625	16.0	1.0	1.0	-7.413592473575065	1.538	n/a	stim	s513
505.47	0.277	3.0204324190548686	draw_card	0.0	columbia_card_task_fmri	10.0	0.9333333333333332	89.0	-95.0	0.0666666666666666	16.0	2.0	1.0	-6.638444218705768	0.277	n/a	stim	s513
505.752	0.185	2.5204324190548686	draw_card	0.0	columbia_card_task_fmri	10.0	0.9285714285714286	89.0	-95.0	0.0714285714285714	16.0	3.0	1.0	-5.7884116106678825	0.185	n/a	stim	s513
505.942	0.187	1.9435093421317908	draw_card	0.0	columbia_card_task_fmri	10.0	0.9230769230769232	89.0	-95.0	0.0769230769230769	16.0	4.0	1.0	-4.850764159225136	0.187	n/a	stim	s513
506.134	0.509	1.2704324190548677	draw_card	0.0	columbia_card_task_fmri	10.0	0.9166666666666666	89.0	-95.0	0.0833333333333333	16.0	5.0	1.0	-3.809579787395865	0.509	n/a	stim	s513
506.647	1.41	0.4749778736003208	draw_card	0.0	columbia_card_task_fmri	10.0	0.9090909090909092	89.0	-95.0	0.0909090909090909	16.0	6.0	1.0	-2.644669315350232	1.41	n/a	stim	s513
508.063	0.59	-0.4795675809451324	draw_card	0.0	columbia_card_task_fmri	10.0	0.9	89.0	-95.0	0.1	16.0	7.0	1.0	-1.3300472691984666	0.59	n/a	stim	s513
508.658	0.523	-1.6462342476117986	draw_card	0.0	columbia_card_task_fmri	10.0	0.8888888888888888	89.0	-95.0	0.1111111111111111	16.0	8.0	1.0	0.1682688852817335	0.523	n/a	stim	s513
509.185	0.844	-3.1045675809451323	end_round	0.0	columbia_card_task_fmri	10.0	0.875	71.0	-95.0	0.125	16.0	9.0	1.0	1.895438072999248	0.844	8.0	stim	s513
510.034	2.25	n/a	-1.0	n/a	columbia_card_task_fmri	n/a	n/a	-1.0	n/a	n/a	n/a	n/a	n/a	n/a	n/a	n/a	feedback	s513
512.284	0.272	n/a	-1.0	n/a	columbia_card_task_fmri	n/a	n/a	-1.0	n/a	n/a	n/a	n/a	n/a	n/a	n/a	n/a	ITI	s513
512.561	1.286	4.395432419054868	draw_card	0.0	columbia_card_task_fmri	15.0	0.875	89.0	-70.0	0.125	16.0	1.0	2.0	-4.71893879026247	1.286	n/a	stim	s513
513.851	0.37	3.6870990857215338	draw_card	0.0	columbia_card_task_fmri	15.0	0.8666666666666667	89.0	-70.0	0.1333333333333333	16.0	2.0	2.0	-3.935602761274623	0.37	n/a	stim	s513
514.226	0.57	2.8775752761977254	draw_card	0.0	columbia_card_task_fmri	15.0	0.8571428571428572	89.0	-70.0	0.1428571428571428	16.0	3.0	2.0	-3.0862428584195314	0.57	n/a	stim	s513
514.8	0.643	1.943509342131789	draw_card	0.0	columbia_card_task_fmri	15.0	0.8461538461538461	89.0	-70.0	0.1538461538461538	16.0	4.0	2.0	-2.161944044443903	0.643	n/a	stim	s513
515.448	0.4	0.8537657523882015	end_round	0.0	columbia_card_task_fmri	15.0	0.8333333333333334	71.0	-70.0	0.1666666666666666	16.0	5.0	2.0	-1.1524176251102567	0.4	4.0	stim	s513
515.854	2.25	n/a	-1.0	n/a	columbia_card_task_fmri	n/a	n/a	-1.0	n/a	n/a	n/a	n/a	n/a	n/a	n/a	n/a	feedback	s513
518.104	0.884	n/a	-1.0	n/a	columbia_card_task_fmri	n/a	n/a	-1.0	n/a	n/a	n/a	n/a	n/a	n/a	n/a	n/a	ITI	s513
518.993	0.686	3.395432419054868	draw_card	0.0	columbia_card_task_fmri	16.0	0.875	89.0	-85.0	0.125	16.0	1.0	2.0	0.5725626555342487	0.686	n/a	stim	s513
519.684	0.237	2.553765752388201	draw_card	1.0	columbia_card_task_fmri	16.0	0.8666666666666667	89.0	-85.0	0.1333333333333333	16.0	2.0	2.0	1.5033502421158929	0.237	2.0	stim	s513
519.929	2.25	n/a	-1.0	n/a	columbia_card_task_fmri	n/a	n/a	-1.0	n/a	n/a	n/a	n/a	n/a	n/a	n/a	n/a	feedback	s513
522.179	0.136	n/a	-1.0	n/a	columbia_card_task_fmri	n/a	n/a	-1.0	n/a	n/a	n/a	n/a	n/a	n/a	n/a	n/a	ITI	s513
