onset	duration	condition	correct	correct_response	experiment_exp_id	key_press	response_time	trial_id	trial_type	worker_id
3.008	0.5	AX	n/a	n/a	dot_pattern_expectancy	-1.0	n/a	cue	AX	s251
5.51	0.5	AX	1.0	89.0	dot_pattern_expectancy	89.0	0.455	probe	AX	s251
7.692	0.5	AY	n/a	n/a	dot_pattern_expectancy	-1.0	n/a	cue	AY	s251
10.196	0.5	AY	1.0	71.0	dot_pattern_expectancy	71.0	1.049	probe	AY	s251
12.513	0.5	AY	n/a	n/a	dot_pattern_expectancy	-1.0	n/a	cue	AY	s251
15.017	0.5	AY	1.0	71.0	dot_pattern_expectancy	71.0	0.723	probe	AY	s251
16.656	0.5	BX	n/a	n/a	dot_pattern_expectancy	-1.0	n/a	cue	BX	s251
19.159	0.5	BX	1.0	71.0	dot_pattern_expectancy	71.0	0.491	probe	BX	s251
21.068	0.5	AX	n/a	n/a	dot_pattern_expectancy	-1.0	n/a	cue	AX	s251
23.573	0.5	AX	1.0	89.0	dot_pattern_expectancy	89.0	0.512	probe	AX	s251
27.116	0.5	BX	n/a	n/a	dot_pattern_expectancy	-1.0	n/a	cue	BX	s251
29.62	0.5	BX	1.0	71.0	dot_pattern_expectancy	71.0	0.37	probe	BX	s251
31.258	0.5	BY	n/a	n/a	dot_pattern_expectancy	-1.0	n/a	cue	BY	s251
33.763	0.5	BY	1.0	71.0	dot_pattern_expectancy	71.0	0.482	probe	BY	s251
35.264	0.5	AX	n/a	n/a	dot_pattern_expectancy	-1.0	n/a	cue	AX	s251
37.768	0.5	AX	1.0	89.0	dot_pattern_expectancy	89.0	0.436	probe	AX	s251
39.27	0.5	AX	n/a	n/a	dot_pattern_expectancy	-1.0	n/a	cue	AX	s251
41.775	0.5	AX	1.0	89.0	dot_pattern_expectancy	89.0	0.423	probe	AX	s251
43.549	0.5	BY	n/a	n/a	dot_pattern_expectancy	-1.0	n/a	cue	BY	s251
46.055	0.5	BY	1.0	71.0	dot_pattern_expectancy	71.0	0.519	probe	BY	s251
48.509	0.5	AX	n/a	n/a	dot_pattern_expectancy	-1.0	n/a	cue	AX	s251
51.013	0.5	AX	1.0	89.0	dot_pattern_expectancy	89.0	0.421	probe	AX	s251
52.924	0.5	BX	n/a	n/a	dot_pattern_expectancy	-1.0	n/a	cue	BX	s251
55.428	0.5	BX	1.0	71.0	dot_pattern_expectancy	71.0	0.303	probe	BX	s251
57.066	0.5	AX	n/a	n/a	dot_pattern_expectancy	-1.0	n/a	cue	AX	s251
59.57	0.5	AX	1.0	89.0	dot_pattern_expectancy	89.0	0.439	probe	AX	s251
61.074	0.5	AX	n/a	n/a	dot_pattern_expectancy	-1.0	n/a	cue	AX	s251
63.579	0.5	AX	1.0	89.0	dot_pattern_expectancy	89.0	0.462	probe	AX	s251
65.217	0.5	AX	n/a	n/a	dot_pattern_expectancy	-1.0	n/a	cue	AX	s251
67.72	0.5	AX	1.0	89.0	dot_pattern_expectancy	89.0	0.408	probe	AX	s251
69.357	0.5	BY	n/a	n/a	dot_pattern_expectancy	-1.0	n/a	cue	BY	s251
71.862	0.5	BY	1.0	71.0	dot_pattern_expectancy	71.0	0.36	probe	BY	s251
74.317	0.5	AX	n/a	n/a	dot_pattern_expectancy	-1.0	n/a	cue	AX	s251
76.821	0.5	AX	1.0	89.0	dot_pattern_expectancy	89.0	0.475	probe	AX	s251
78.323	0.5	BY	n/a	n/a	dot_pattern_expectancy	-1.0	n/a	cue	BY	s251
80.827	0.5	BY	1.0	71.0	dot_pattern_expectancy	71.0	0.408	probe	BY	s251
82.328	0.5	AX	n/a	n/a	dot_pattern_expectancy	-1.0	n/a	cue	AX	s251
84.832	0.5	AX	1.0	89.0	dot_pattern_expectancy	89.0	0.619	probe	AX	s251
86.471	0.5	AX	n/a	n/a	dot_pattern_expectancy	-1.0	n/a	cue	AX	s251
88.974	0.5	AX	1.0	89.0	dot_pattern_expectancy	89.0	0.385	probe	AX	s251
90.611	0.5	AY	n/a	n/a	dot_pattern_expectancy	-1.0	n/a	cue	AY	s251
93.115	0.5	AY	1.0	71.0	dot_pattern_expectancy	71.0	0.631	probe	AY	s251
94.754	0.5	AX	n/a	n/a	dot_pattern_expectancy	-1.0	n/a	cue	AX	s251
97.257	0.5	AX	1.0	89.0	dot_pattern_expectancy	89.0	0.354	probe	AX	s251
98.76	0.5	AX	n/a	n/a	dot_pattern_expectancy	-1.0	n/a	cue	AX	s251
101.265	0.5	AX	1.0	89.0	dot_pattern_expectancy	89.0	0.388	probe	AX	s251
102.766	0.5	AX	n/a	n/a	dot_pattern_expectancy	-1.0	n/a	cue	AX	s251
105.271	0.5	AX	1.0	89.0	dot_pattern_expectancy	89.0	0.473	probe	AX	s251
107.046	0.5	AX	n/a	n/a	dot_pattern_expectancy	-1.0	n/a	cue	AX	s251
109.549	0.5	AX	1.0	89.0	dot_pattern_expectancy	89.0	0.409	probe	AX	s251
111.731	0.5	BX	n/a	n/a	dot_pattern_expectancy	-1.0	n/a	cue	BX	s251
114.236	0.5	BX	1.0	71.0	dot_pattern_expectancy	71.0	0.35	probe	BX	s251
116.009	0.5	BY	n/a	n/a	dot_pattern_expectancy	-1.0	n/a	cue	BY	s251
118.513	0.5	BY	1.0	71.0	dot_pattern_expectancy	71.0	0.419	probe	BY	s251
120.014	0.5	AX	n/a	n/a	dot_pattern_expectancy	-1.0	n/a	cue	AX	s251
122.518	0.5	AX	1.0	89.0	dot_pattern_expectancy	89.0	0.469	probe	AX	s251
124.021	0.5	AX	n/a	n/a	dot_pattern_expectancy	-1.0	n/a	cue	AX	s251
126.525	0.5	AX	1.0	89.0	dot_pattern_expectancy	89.0	0.611	probe	AX	s251
128.163	0.5	AY	n/a	n/a	dot_pattern_expectancy	-1.0	n/a	cue	AY	s251
130.668	0.5	AY	1.0	71.0	dot_pattern_expectancy	71.0	0.604	probe	AY	s251
132.85	0.5	AY	n/a	n/a	dot_pattern_expectancy	-1.0	n/a	cue	AY	s251
135.354	0.5	AY	1.0	71.0	dot_pattern_expectancy	71.0	0.478	probe	AY	s251
137.673	0.5	BX	n/a	n/a	dot_pattern_expectancy	-1.0	n/a	cue	BX	s251
140.177	0.5	BX	1.0	71.0	dot_pattern_expectancy	71.0	0.362	probe	BX	s251
141.816	0.5	BX	n/a	n/a	dot_pattern_expectancy	-1.0	n/a	cue	BX	s251
144.319	0.5	BX	1.0	71.0	dot_pattern_expectancy	71.0	0.392	probe	BX	s251
146.5	0.5	AY	n/a	n/a	dot_pattern_expectancy	-1.0	n/a	cue	AY	s251
149.004	0.5	AY	0.0	71.0	dot_pattern_expectancy	89.0	0.734	probe	AY	s251
151.05	0.5	AX	n/a	n/a	dot_pattern_expectancy	-1.0	n/a	cue	AX	s251
153.554	0.5	AX	1.0	89.0	dot_pattern_expectancy	89.0	0.457	probe	AX	s251
155.327	0.5	AX	n/a	n/a	dot_pattern_expectancy	-1.0	n/a	cue	AX	s251
157.831	0.5	AX	1.0	89.0	dot_pattern_expectancy	89.0	0.718	probe	AX	s251
159.333	0.5	AX	n/a	n/a	dot_pattern_expectancy	-1.0	n/a	cue	AX	s251
161.837	0.5	AX	1.0	89.0	dot_pattern_expectancy	89.0	0.381	probe	AX	s251
164.02	0.5	AY	n/a	n/a	dot_pattern_expectancy	-1.0	n/a	cue	AY	s251
166.522	0.5	AY	0.0	71.0	dot_pattern_expectancy	89.0	0.666	probe	AY	s251
168.976	0.5	AX	n/a	n/a	dot_pattern_expectancy	-1.0	n/a	cue	AX	s251
171.48	0.5	AX	1.0	89.0	dot_pattern_expectancy	89.0	0.496	probe	AX	s251
173.119	0.5	AX	n/a	n/a	dot_pattern_expectancy	-1.0	n/a	cue	AX	s251
175.623	0.5	AX	1.0	89.0	dot_pattern_expectancy	89.0	0.434	probe	AX	s251
188.041	0.5	AX	n/a	n/a	dot_pattern_expectancy	-1.0	n/a	cue	AX	s251
190.545	0.5	AX	1.0	89.0	dot_pattern_expectancy	89.0	0.571	probe	AX	s251
192.32	0.5	AX	n/a	n/a	dot_pattern_expectancy	-1.0	n/a	cue	AX	s251
194.824	0.5	AX	1.0	89.0	dot_pattern_expectancy	89.0	0.473	probe	AX	s251
196.326	0.5	AY	n/a	n/a	dot_pattern_expectancy	-1.0	n/a	cue	AY	s251
198.829	0.5	AY	1.0	71.0	dot_pattern_expectancy	71.0	0.891	probe	AY	s251
201.284	0.5	AY	n/a	n/a	dot_pattern_expectancy	-1.0	n/a	cue	AY	s251
203.788	0.5	AY	1.0	71.0	dot_pattern_expectancy	71.0	0.654	probe	AY	s251
205.562	0.5	AX	n/a	n/a	dot_pattern_expectancy	-1.0	n/a	cue	AX	s251
208.066	0.5	AX	0.0	89.0	dot_pattern_expectancy	71.0	0.48	probe	AX	s251
209.977	0.5	AX	n/a	n/a	dot_pattern_expectancy	-1.0	n/a	cue	AX	s251
212.48	0.5	AX	1.0	89.0	dot_pattern_expectancy	89.0	0.45	probe	AX	s251
214.39	0.5	AX	n/a	n/a	dot_pattern_expectancy	-1.0	n/a	cue	AX	s251
216.894	0.5	AX	1.0	89.0	dot_pattern_expectancy	89.0	0.352	probe	AX	s251
219.483	0.5	AY	n/a	n/a	dot_pattern_expectancy	-1.0	n/a	cue	AY	s251
221.987	0.5	AY	1.0	71.0	dot_pattern_expectancy	71.0	0.594	probe	AY	s251
223.489	0.5	BY	n/a	n/a	dot_pattern_expectancy	-1.0	n/a	cue	BY	s251
225.993	0.5	BY	1.0	71.0	dot_pattern_expectancy	71.0	0.437	probe	BY	s251
227.494	0.5	BY	n/a	n/a	dot_pattern_expectancy	-1.0	n/a	cue	BY	s251
229.998	0.5	BY	1.0	71.0	dot_pattern_expectancy	71.0	0.397	probe	BY	s251
231.5	0.5	AX	n/a	n/a	dot_pattern_expectancy	-1.0	n/a	cue	AX	s251
234.004	0.5	AX	1.0	89.0	dot_pattern_expectancy	89.0	0.65	probe	AX	s251
235.642	0.5	BX	n/a	n/a	dot_pattern_expectancy	-1.0	n/a	cue	BX	s251
238.146	0.5	BX	1.0	71.0	dot_pattern_expectancy	71.0	0.416	probe	BX	s251
240.193	0.5	AX	n/a	n/a	dot_pattern_expectancy	-1.0	n/a	cue	AX	s251
242.697	0.5	AX	1.0	89.0	dot_pattern_expectancy	89.0	0.372	probe	AX	s251
244.471	0.5	BX	n/a	n/a	dot_pattern_expectancy	-1.0	n/a	cue	BX	s251
246.974	0.5	BX	1.0	71.0	dot_pattern_expectancy	71.0	0.398	probe	BX	s251
249.564	0.5	AY	n/a	n/a	dot_pattern_expectancy	-1.0	n/a	cue	AY	s251
252.068	0.5	AY	1.0	71.0	dot_pattern_expectancy	71.0	1.097	probe	AY	s251
253.57	0.5	AX	n/a	n/a	dot_pattern_expectancy	-1.0	n/a	cue	AX	s251
256.074	0.5	AX	1.0	89.0	dot_pattern_expectancy	89.0	0.594	probe	AX	s251
258.528	0.5	BY	n/a	n/a	dot_pattern_expectancy	-1.0	n/a	cue	BY	s251
261.031	0.5	BY	1.0	71.0	dot_pattern_expectancy	71.0	0.46	probe	BY	s251
262.668	0.5	AX	n/a	n/a	dot_pattern_expectancy	-1.0	n/a	cue	AX	s251
265.173	0.5	AX	1.0	89.0	dot_pattern_expectancy	89.0	0.512	probe	AX	s251
266.811	0.5	AX	n/a	n/a	dot_pattern_expectancy	-1.0	n/a	cue	AX	s251
269.315	0.5	AX	1.0	89.0	dot_pattern_expectancy	89.0	0.408	probe	AX	s251
270.817	0.5	BY	n/a	n/a	dot_pattern_expectancy	-1.0	n/a	cue	BY	s251
273.319	0.5	BY	1.0	71.0	dot_pattern_expectancy	71.0	0.534	probe	BY	s251
274.958	0.5	AX	n/a	n/a	dot_pattern_expectancy	-1.0	n/a	cue	AX	s251
277.461	0.5	AX	1.0	89.0	dot_pattern_expectancy	89.0	0.475	probe	AX	s251
278.962	0.5	AY	n/a	n/a	dot_pattern_expectancy	-1.0	n/a	cue	AY	s251
281.465	0.5	AY	1.0	71.0	dot_pattern_expectancy	71.0	0.563	probe	AY	s251
283.648	0.5	AX	n/a	n/a	dot_pattern_expectancy	-1.0	n/a	cue	AX	s251
286.151	0.5	AX	1.0	89.0	dot_pattern_expectancy	89.0	0.437	probe	AX	s251
287.653	0.5	AX	n/a	n/a	dot_pattern_expectancy	-1.0	n/a	cue	AX	s251
290.157	0.5	AX	1.0	89.0	dot_pattern_expectancy	89.0	0.438	probe	AX	s251
292.066	0.5	BY	n/a	n/a	dot_pattern_expectancy	-1.0	n/a	cue	BY	s251
294.57	0.5	BY	1.0	71.0	dot_pattern_expectancy	71.0	0.378	probe	BY	s251
296.209	0.5	BY	n/a	n/a	dot_pattern_expectancy	-1.0	n/a	cue	BY	s251
298.712	0.5	BY	1.0	71.0	dot_pattern_expectancy	71.0	0.576	probe	BY	s251
300.349	0.5	AX	n/a	n/a	dot_pattern_expectancy	-1.0	n/a	cue	AX	s251
302.853	0.5	AX	1.0	89.0	dot_pattern_expectancy	89.0	0.373	probe	AX	s251
304.492	0.5	AX	n/a	n/a	dot_pattern_expectancy	-1.0	n/a	cue	AX	s251
306.996	0.5	AX	0.0	89.0	dot_pattern_expectancy	71.0	0.465	probe	AX	s251
308.498	0.5	BY	n/a	n/a	dot_pattern_expectancy	-1.0	n/a	cue	BY	s251
311.003	0.5	BY	1.0	71.0	dot_pattern_expectancy	71.0	0.611	probe	BY	s251
313.048	0.5	AY	n/a	n/a	dot_pattern_expectancy	-1.0	n/a	cue	AY	s251
315.553	0.5	AY	1.0	71.0	dot_pattern_expectancy	71.0	0.546	probe	AY	s251
317.735	0.5	AY	n/a	n/a	dot_pattern_expectancy	-1.0	n/a	cue	AY	s251
320.238	0.5	AY	1.0	71.0	dot_pattern_expectancy	71.0	0.623	probe	AY	s251
321.875	0.5	AY	n/a	n/a	dot_pattern_expectancy	-1.0	n/a	cue	AY	s251
324.379	0.5	AY	1.0	71.0	dot_pattern_expectancy	71.0	0.585	probe	AY	s251
326.152	0.5	BY	n/a	n/a	dot_pattern_expectancy	-1.0	n/a	cue	BY	s251
328.657	0.5	BY	1.0	71.0	dot_pattern_expectancy	71.0	0.468	probe	BY	s251
330.158	0.5	BX	n/a	n/a	dot_pattern_expectancy	-1.0	n/a	cue	BX	s251
332.663	0.5	BX	1.0	71.0	dot_pattern_expectancy	71.0	0.659	probe	BX	s251
334.573	0.5	AX	n/a	n/a	dot_pattern_expectancy	-1.0	n/a	cue	AX	s251
337.078	0.5	AX	1.0	89.0	dot_pattern_expectancy	89.0	0.356	probe	AX	s251
339.124	0.5	AX	n/a	n/a	dot_pattern_expectancy	-1.0	n/a	cue	AX	s251
341.627	0.5	AX	1.0	89.0	dot_pattern_expectancy	89.0	0.632	probe	AX	s251
343.265	0.5	AX	n/a	n/a	dot_pattern_expectancy	-1.0	n/a	cue	AX	s251
345.771	0.5	AX	1.0	89.0	dot_pattern_expectancy	89.0	0.499	probe	AX	s251
347.545	0.5	AX	n/a	n/a	dot_pattern_expectancy	-1.0	n/a	cue	AX	s251
350.049	0.5	AX	1.0	89.0	dot_pattern_expectancy	89.0	0.544	probe	AX	s251
351.688	0.5	BX	n/a	n/a	dot_pattern_expectancy	-1.0	n/a	cue	BX	s251
354.191	0.5	BX	1.0	71.0	dot_pattern_expectancy	71.0	0.374	probe	BX	s251
355.966	0.5	AX	n/a	n/a	dot_pattern_expectancy	-1.0	n/a	cue	AX	s251
358.47	0.5	AX	1.0	89.0	dot_pattern_expectancy	89.0	0.449	probe	AX	s251
370.479	0.5	BY	n/a	n/a	dot_pattern_expectancy	-1.0	n/a	cue	BY	s251
372.983	0.5	BY	1.0	71.0	dot_pattern_expectancy	71.0	0.474	probe	BY	s251
374.621	0.5	AY	n/a	n/a	dot_pattern_expectancy	-1.0	n/a	cue	AY	s251
377.125	0.5	AY	1.0	71.0	dot_pattern_expectancy	71.0	0.534	probe	AY	s251
378.628	0.5	AX	n/a	n/a	dot_pattern_expectancy	-1.0	n/a	cue	AX	s251
381.132	0.5	AX	1.0	89.0	dot_pattern_expectancy	89.0	0.39	probe	AX	s251
383.178	0.5	BY	n/a	n/a	dot_pattern_expectancy	-1.0	n/a	cue	BY	s251
385.682	0.5	BY	1.0	71.0	dot_pattern_expectancy	71.0	0.448	probe	BY	s251
387.455	0.5	BX	n/a	n/a	dot_pattern_expectancy	-1.0	n/a	cue	BX	s251
389.96	0.5	BX	1.0	71.0	dot_pattern_expectancy	71.0	0.349	probe	BX	s251
391.598	0.5	AX	n/a	n/a	dot_pattern_expectancy	-1.0	n/a	cue	AX	s251
394.101	0.5	AX	1.0	89.0	dot_pattern_expectancy	89.0	0.489	probe	AX	s251
395.738	0.5	AX	n/a	n/a	dot_pattern_expectancy	-1.0	n/a	cue	AX	s251
398.242	0.5	AX	1.0	89.0	dot_pattern_expectancy	89.0	0.446	probe	AX	s251
399.744	0.5	AX	n/a	n/a	dot_pattern_expectancy	-1.0	n/a	cue	AX	s251
402.247	0.5	AX	1.0	89.0	dot_pattern_expectancy	89.0	0.435	probe	AX	s251
403.749	0.5	AY	n/a	n/a	dot_pattern_expectancy	-1.0	n/a	cue	AY	s251
406.253	0.5	AY	1.0	71.0	dot_pattern_expectancy	71.0	0.593	probe	AY	s251
408.298	0.5	AX	n/a	n/a	dot_pattern_expectancy	-1.0	n/a	cue	AX	s251
410.803	0.5	AX	1.0	89.0	dot_pattern_expectancy	89.0	0.475	probe	AX	s251
413.257	0.5	AX	n/a	n/a	dot_pattern_expectancy	-1.0	n/a	cue	AX	s251
415.76	0.5	AX	1.0	89.0	dot_pattern_expectancy	89.0	0.421	probe	AX	s251
417.669	0.5	AX	n/a	n/a	dot_pattern_expectancy	-1.0	n/a	cue	AX	s251
420.173	0.5	AX	1.0	89.0	dot_pattern_expectancy	89.0	0.436	probe	AX	s251
421.675	0.5	AX	n/a	n/a	dot_pattern_expectancy	-1.0	n/a	cue	AX	s251
424.18	0.5	AX	1.0	89.0	dot_pattern_expectancy	89.0	0.459	probe	AX	s251
426.091	0.5	BX	n/a	n/a	dot_pattern_expectancy	-1.0	n/a	cue	BX	s251
428.595	0.5	BX	1.0	71.0	dot_pattern_expectancy	71.0	0.318	probe	BX	s251
430.777	0.5	AX	n/a	n/a	dot_pattern_expectancy	-1.0	n/a	cue	AX	s251
433.281	0.5	AX	1.0	89.0	dot_pattern_expectancy	89.0	0.431	probe	AX	s251
434.784	0.5	BY	n/a	n/a	dot_pattern_expectancy	-1.0	n/a	cue	BY	s251
437.288	0.5	BY	1.0	71.0	dot_pattern_expectancy	71.0	0.313	probe	BY	s251
439.198	0.5	BX	n/a	n/a	dot_pattern_expectancy	-1.0	n/a	cue	BX	s251
441.703	0.5	BX	1.0	71.0	dot_pattern_expectancy	71.0	0.274	probe	BX	s251
444.021	0.5	AY	n/a	n/a	dot_pattern_expectancy	-1.0	n/a	cue	AY	s251
446.526	0.5	AY	1.0	71.0	dot_pattern_expectancy	71.0	0.622	probe	AY	s251
448.843	0.5	BX	n/a	n/a	dot_pattern_expectancy	-1.0	n/a	cue	BX	s251
451.348	0.5	BX	1.0	71.0	dot_pattern_expectancy	71.0	0.623	probe	BX	s251
452.986	0.5	AY	n/a	n/a	dot_pattern_expectancy	-1.0	n/a	cue	AY	s251
455.49	0.5	AY	1.0	71.0	dot_pattern_expectancy	71.0	0.554	probe	AY	s251
456.993	0.5	BY	n/a	n/a	dot_pattern_expectancy	-1.0	n/a	cue	BY	s251
459.497	0.5	BY	1.0	71.0	dot_pattern_expectancy	71.0	0.409	probe	BY	s251
461.406	0.5	AX	n/a	n/a	dot_pattern_expectancy	-1.0	n/a	cue	AX	s251
463.911	0.5	AX	1.0	89.0	dot_pattern_expectancy	89.0	0.432	probe	AX	s251
465.413	0.5	AY	n/a	n/a	dot_pattern_expectancy	-1.0	n/a	cue	AY	s251
467.918	0.5	AY	1.0	71.0	dot_pattern_expectancy	71.0	0.56	probe	AY	s251
470.236	0.5	AX	n/a	n/a	dot_pattern_expectancy	-1.0	n/a	cue	AX	s251
472.74	0.5	AX	1.0	89.0	dot_pattern_expectancy	89.0	0.533	probe	AX	s251
474.241	0.5	AY	n/a	n/a	dot_pattern_expectancy	-1.0	n/a	cue	AY	s251
476.745	0.5	AY	1.0	71.0	dot_pattern_expectancy	71.0	0.72	probe	AY	s251
479.472	0.5	AX	n/a	n/a	dot_pattern_expectancy	-1.0	n/a	cue	AX	s251
481.974	0.5	AX	1.0	89.0	dot_pattern_expectancy	89.0	0.498	probe	AX	s251
483.477	0.5	AX	n/a	n/a	dot_pattern_expectancy	-1.0	n/a	cue	AX	s251
485.98	0.5	AX	1.0	89.0	dot_pattern_expectancy	89.0	0.363	probe	AX	s251
487.618	0.5	AX	n/a	n/a	dot_pattern_expectancy	-1.0	n/a	cue	AX	s251
490.121	0.5	AX	1.0	89.0	dot_pattern_expectancy	89.0	0.414	probe	AX	s251
491.759	0.5	AX	n/a	n/a	dot_pattern_expectancy	-1.0	n/a	cue	AX	s251
494.265	0.5	AX	1.0	89.0	dot_pattern_expectancy	89.0	0.407	probe	AX	s251
496.039	0.5	BY	n/a	n/a	dot_pattern_expectancy	-1.0	n/a	cue	BY	s251
498.543	0.5	BY	1.0	71.0	dot_pattern_expectancy	71.0	0.628	probe	BY	s251
500.316	0.5	AX	n/a	n/a	dot_pattern_expectancy	-1.0	n/a	cue	AX	s251
502.82	0.5	AX	1.0	89.0	dot_pattern_expectancy	89.0	0.433	probe	AX	s251
504.322	0.5	BY	n/a	n/a	dot_pattern_expectancy	-1.0	n/a	cue	BY	s251
506.826	0.5	BY	1.0	71.0	dot_pattern_expectancy	71.0	0.292	probe	BY	s251
509.28	0.5	AX	n/a	n/a	dot_pattern_expectancy	-1.0	n/a	cue	AX	s251
511.783	0.5	AX	1.0	89.0	dot_pattern_expectancy	89.0	0.475	probe	AX	s251
513.421	0.5	AX	n/a	n/a	dot_pattern_expectancy	-1.0	n/a	cue	AX	s251
515.925	0.5	AX	1.0	89.0	dot_pattern_expectancy	89.0	0.479	probe	AX	s251
517.563	0.5	BX	n/a	n/a	dot_pattern_expectancy	-1.0	n/a	cue	BX	s251
520.067	0.5	BX	1.0	71.0	dot_pattern_expectancy	71.0	0.353	probe	BX	s251
521.57	0.5	BX	n/a	n/a	dot_pattern_expectancy	-1.0	n/a	cue	BX	s251
524.074	0.5	BX	1.0	71.0	dot_pattern_expectancy	71.0	0.465	probe	BX	s251
525.576	0.5	AX	n/a	n/a	dot_pattern_expectancy	-1.0	n/a	cue	AX	s251
528.079	0.5	AX	1.0	89.0	dot_pattern_expectancy	89.0	0.377	probe	AX	s251
530.397	0.5	AY	n/a	n/a	dot_pattern_expectancy	-1.0	n/a	cue	AY	s251
532.901	0.5	AY	1.0	71.0	dot_pattern_expectancy	71.0	0.705	probe	AY	s251
534.947	0.5	AX	n/a	n/a	dot_pattern_expectancy	-1.0	n/a	cue	AX	s251
537.451	0.5	AX	1.0	89.0	dot_pattern_expectancy	89.0	0.376	probe	AX	s251
541.402	0.5	AX	n/a	n/a	dot_pattern_expectancy	-1.0	n/a	cue	AX	s251
543.906	0.5	AX	1.0	89.0	dot_pattern_expectancy	89.0	0.471	probe	AX	s251
556.051	0.5	AY	n/a	n/a	dot_pattern_expectancy	-1.0	n/a	cue	AY	s251
558.555	0.5	AY	1.0	71.0	dot_pattern_expectancy	71.0	0.654	probe	AY	s251
560.193	0.5	AX	n/a	n/a	dot_pattern_expectancy	-1.0	n/a	cue	AX	s251
562.697	0.5	AX	1.0	89.0	dot_pattern_expectancy	89.0	0.535	probe	AX	s251
564.334	0.5	AX	n/a	n/a	dot_pattern_expectancy	-1.0	n/a	cue	AX	s251
566.838	0.5	AX	1.0	89.0	dot_pattern_expectancy	89.0	0.533	probe	AX	s251
568.339	0.5	AX	n/a	n/a	dot_pattern_expectancy	-1.0	n/a	cue	AX	s251
570.843	0.5	AX	1.0	89.0	dot_pattern_expectancy	89.0	0.561	probe	AX	s251
572.345	0.5	AX	n/a	n/a	dot_pattern_expectancy	-1.0	n/a	cue	AX	s251
574.848	0.5	AX	1.0	89.0	dot_pattern_expectancy	89.0	0.475	probe	AX	s251
576.758	0.5	BX	n/a	n/a	dot_pattern_expectancy	-1.0	n/a	cue	BX	s251
579.262	0.5	BX	1.0	71.0	dot_pattern_expectancy	71.0	0.343	probe	BX	s251
580.9	0.5	AX	n/a	n/a	dot_pattern_expectancy	-1.0	n/a	cue	AX	s251
583.404	0.5	AX	1.0	89.0	dot_pattern_expectancy	89.0	0.582	probe	AX	s251
585.449	0.5	AX	n/a	n/a	dot_pattern_expectancy	-1.0	n/a	cue	AX	s251
587.953	0.5	AX	1.0	89.0	dot_pattern_expectancy	89.0	0.607	probe	AX	s251
589.727	0.5	AX	n/a	n/a	dot_pattern_expectancy	-1.0	n/a	cue	AX	s251
592.23	0.5	AX	1.0	89.0	dot_pattern_expectancy	89.0	0.512	probe	AX	s251
593.732	0.5	AX	n/a	n/a	dot_pattern_expectancy	-1.0	n/a	cue	AX	s251
596.235	0.5	AX	1.0	89.0	dot_pattern_expectancy	89.0	0.628	probe	AX	s251
598.417	0.5	AX	n/a	n/a	dot_pattern_expectancy	-1.0	n/a	cue	AX	s251
600.922	0.5	AX	1.0	89.0	dot_pattern_expectancy	89.0	0.435	probe	AX	s251
602.423	0.5	BX	n/a	n/a	dot_pattern_expectancy	-1.0	n/a	cue	BX	s251
604.928	0.5	BX	0.0	71.0	dot_pattern_expectancy	89.0	0.525	probe	BX	s251
608.606	0.5	BY	n/a	n/a	dot_pattern_expectancy	-1.0	n/a	cue	BY	s251
611.109	0.5	BY	1.0	71.0	dot_pattern_expectancy	71.0	0.752	probe	BY	s251
612.748	0.5	BY	n/a	n/a	dot_pattern_expectancy	-1.0	n/a	cue	BY	s251
615.252	0.5	BY	1.0	71.0	dot_pattern_expectancy	71.0	0.533	probe	BY	s251
616.89	0.5	BX	n/a	n/a	dot_pattern_expectancy	-1.0	n/a	cue	BX	s251
619.394	0.5	BX	0.0	71.0	dot_pattern_expectancy	89.0	0.498	probe	BX	s251
620.895	0.5	AX	n/a	n/a	dot_pattern_expectancy	-1.0	n/a	cue	AX	s251
623.399	0.5	AX	1.0	89.0	dot_pattern_expectancy	89.0	0.375	probe	AX	s251
625.31	0.5	AX	n/a	n/a	dot_pattern_expectancy	-1.0	n/a	cue	AX	s251
627.813	0.5	AX	0.0	89.0	dot_pattern_expectancy	71.0	0.472	probe	AX	s251
629.45	0.5	BX	n/a	n/a	dot_pattern_expectancy	-1.0	n/a	cue	BX	s251
631.954	0.5	BX	1.0	71.0	dot_pattern_expectancy	71.0	0.359	probe	BX	s251
633.456	0.5	AX	n/a	n/a	dot_pattern_expectancy	-1.0	n/a	cue	AX	s251
635.96	0.5	AX	1.0	89.0	dot_pattern_expectancy	89.0	0.702	probe	AX	s251
637.87	0.5	BY	n/a	n/a	dot_pattern_expectancy	-1.0	n/a	cue	BY	s251
640.373	0.5	BY	1.0	71.0	dot_pattern_expectancy	71.0	0.554	probe	BY	s251
642.554	0.5	AX	n/a	n/a	dot_pattern_expectancy	-1.0	n/a	cue	AX	s251
645.058	0.5	AX	1.0	89.0	dot_pattern_expectancy	89.0	0.454	probe	AX	s251
646.832	0.5	AX	n/a	n/a	dot_pattern_expectancy	-1.0	n/a	cue	AX	s251
649.336	0.5	AX	1.0	89.0	dot_pattern_expectancy	89.0	0.412	probe	AX	s251
650.837	0.5	AX	n/a	n/a	dot_pattern_expectancy	-1.0	n/a	cue	AX	s251
653.341	0.5	AX	1.0	89.0	dot_pattern_expectancy	89.0	0.587	probe	AX	s251
654.843	0.5	AX	n/a	n/a	dot_pattern_expectancy	-1.0	n/a	cue	AX	s251
657.347	0.5	AX	1.0	89.0	dot_pattern_expectancy	89.0	0.545	probe	AX	s251
659.392	0.5	AX	n/a	n/a	dot_pattern_expectancy	-1.0	n/a	cue	AX	s251
661.896	0.5	AX	1.0	89.0	dot_pattern_expectancy	89.0	0.412	probe	AX	s251
664.758	0.5	BX	n/a	n/a	dot_pattern_expectancy	-1.0	n/a	cue	BX	s251
667.262	0.5	BX	0.0	71.0	dot_pattern_expectancy	-1.0	n/a	probe	BX	s251
668.763	0.5	BY	n/a	n/a	dot_pattern_expectancy	-1.0	n/a	cue	BY	s251
671.267	0.5	BY	1.0	71.0	dot_pattern_expectancy	71.0	0.562	probe	BY	s251
673.041	0.5	AX	n/a	n/a	dot_pattern_expectancy	-1.0	n/a	cue	AX	s251
675.544	0.5	AX	1.0	89.0	dot_pattern_expectancy	89.0	0.656	probe	AX	s251
677.318	0.5	AX	n/a	n/a	dot_pattern_expectancy	-1.0	n/a	cue	AX	s251
679.822	0.5	AX	1.0	89.0	dot_pattern_expectancy	89.0	0.468	probe	AX	s251
682.683	0.5	AX	n/a	n/a	dot_pattern_expectancy	-1.0	n/a	cue	AX	s251
685.187	0.5	AX	1.0	89.0	dot_pattern_expectancy	89.0	0.505	probe	AX	s251
686.961	0.5	BX	n/a	n/a	dot_pattern_expectancy	-1.0	n/a	cue	BX	s251
689.464	0.5	BX	0.0	71.0	dot_pattern_expectancy	89.0	0.595	probe	BX	s251
691.102	0.5	BX	n/a	n/a	dot_pattern_expectancy	-1.0	n/a	cue	BX	s251
693.606	0.5	BX	0.0	71.0	dot_pattern_expectancy	89.0	1.495	probe	BX	s251
696.06	0.5	AX	n/a	n/a	dot_pattern_expectancy	-1.0	n/a	cue	AX	s251
698.564	0.5	AX	1.0	89.0	dot_pattern_expectancy	89.0	0.375	probe	AX	s251
700.202	0.5	BX	n/a	n/a	dot_pattern_expectancy	-1.0	n/a	cue	BX	s251
702.706	0.5	BX	1.0	71.0	dot_pattern_expectancy	71.0	0.408	probe	BX	s251
704.208	0.5	AX	n/a	n/a	dot_pattern_expectancy	-1.0	n/a	cue	AX	s251
706.712	0.5	AX	1.0	89.0	dot_pattern_expectancy	89.0	0.425	probe	AX	s251
708.351	0.5	AX	n/a	n/a	dot_pattern_expectancy	-1.0	n/a	cue	AX	s251
710.854	0.5	AX	1.0	89.0	dot_pattern_expectancy	89.0	0.518	probe	AX	s251
712.492	0.5	BY	n/a	n/a	dot_pattern_expectancy	-1.0	n/a	cue	BY	s251
714.996	0.5	BY	1.0	71.0	dot_pattern_expectancy	71.0	0.554	probe	BY	s251
717.178	0.5	AX	n/a	n/a	dot_pattern_expectancy	-1.0	n/a	cue	AX	s251
719.682	0.5	AX	1.0	89.0	dot_pattern_expectancy	89.0	0.406	probe	AX	s251
721.185	0.5	AY	n/a	n/a	dot_pattern_expectancy	-1.0	n/a	cue	AY	s251
723.69	0.5	AY	1.0	71.0	dot_pattern_expectancy	71.0	0.677	probe	AY	s251
725.328	0.5	AX	n/a	n/a	dot_pattern_expectancy	-1.0	n/a	cue	AX	s251
727.831	0.5	AX	1.0	89.0	dot_pattern_expectancy	89.0	0.515	probe	AX	s251
