onset	duration	planning	condition	current_position	exp_stage	experiment_exp_id	goal_state	key_press	problem_id	response_time	start_state	trial_id	worker_id
-65.255	0.0	0	n/a	n/a	n/a	ward_and_allport	n/a	32.0	n/a	25.441	n/a	instructions	s593
3.014	6.118	1	UA_with_intermediate	1,0,0,2,0,0,0,0,0	practice	ward_and_allport	1,2,3,0,0,0,0,0,0	71.0	0.0	6.118	1,0,0,2,3,0,0,0,0	to_hand	s593
9.134	1.041	0	UA_with_intermediate	1,0,0,2,0,0,3,0,0	practice	ward_and_allport	1,2,3,0,0,0,0,0,0	82.0	0.0	1.041	1,0,0,2,3,0,0,0,0	to_board	s593
10.177	0.676	0	UA_with_intermediate	1,0,0,0,0,0,3,0,0	practice	ward_and_allport	1,2,3,0,0,0,0,0,0	71.0	0.0	0.676	1,0,0,2,3,0,0,0,0	to_hand	s593
10.854	0.553	0	UA_with_intermediate	1,2,0,0,0,0,3,0,0	practice	ward_and_allport	1,2,3,0,0,0,0,0,0	89.0	0.0	0.553	1,0,0,2,3,0,0,0,0	to_board	s593
11.409	1.431	0	UA_with_intermediate	1,2,0,0,0,0,0,0,0	practice	ward_and_allport	1,2,3,0,0,0,0,0,0	82.0	0.0	1.431	1,0,0,2,3,0,0,0,0	to_hand	s593
12.841	0.543	0	UA_with_intermediate	1,2,3,0,0,0,0,0,0	practice	ward_and_allport	1,2,3,0,0,0,0,0,0	89.0	0.0	0.543	1,0,0,2,3,0,0,0,0	to_board	s593
13.387	1.0	0	UA_with_intermediate	n/a	practice	ward_and_allport	n/a	-1.0	0.0	n/a	n/a	feedback	s593
15.889	4.505	1	UA_with_intermediate	1,0,0,3,0,0,0,0,0	practice	ward_and_allport	1,3,2,0,0,0,0,0,0	89.0	1.0	4.505	1,2,0,3,0,0,0,0,0	to_hand	s593
20.395	0.671	0	UA_with_intermediate	1,0,0,3,0,0,2,0,0	practice	ward_and_allport	1,3,2,0,0,0,0,0,0	82.0	1.0	0.671	1,2,0,3,0,0,0,0,0	to_board	s593
21.068	0.654	0	UA_with_intermediate	1,0,0,0,0,0,2,0,0	practice	ward_and_allport	1,3,2,0,0,0,0,0,0	71.0	1.0	0.654	1,2,0,3,0,0,0,0,0	to_hand	s593
21.723	0.463	0	UA_with_intermediate	1,3,0,0,0,0,2,0,0	practice	ward_and_allport	1,3,2,0,0,0,0,0,0	89.0	1.0	0.463	1,2,0,3,0,0,0,0,0	to_board	s593
22.188	0.848	0	UA_with_intermediate	1,3,0,0,0,0,0,0,0	practice	ward_and_allport	1,3,2,0,0,0,0,0,0	82.0	1.0	0.848	1,2,0,3,0,0,0,0,0	to_hand	s593
23.037	0.335	0	UA_with_intermediate	1,3,2,0,0,0,0,0,0	practice	ward_and_allport	1,3,2,0,0,0,0,0,0	89.0	1.0	0.335	1,2,0,3,0,0,0,0,0	to_board	s593
23.376	1.0	0	UA_with_intermediate	n/a	practice	ward_and_allport	n/a	-1.0	1.0	n/a	n/a	feedback	s593
24.376	1.1	0	UA_with_intermediate	n/a	practice	ward_and_allport	n/a	-1.0	1.0	n/a	n/a	ITI	s593
25.478	12.129	1	UA_without_intermediate	0,0,0,1,0,0,3,0,0	practice	ward_and_allport	3,2,1,0,0,0,0,0,0	71.0	2.0	12.129	0,0,0,1,2,0,3,0,0	to_hand	s593
37.608	9.894	0	UA_without_intermediate	0,0,0,1,2,0,3,0,0	practice	ward_and_allport	3,2,1,0,0,0,0,0,0	71.0	2.0	9.894	0,0,0,1,2,0,3,0,0	to_board	s593
47.504	0.967	0	UA_without_intermediate	0,0,0,1,2,0,0,0,0	practice	ward_and_allport	3,2,1,0,0,0,0,0,0	82.0	2.0	0.967	0,0,0,1,2,0,3,0,0	to_hand	s593
48.472	0.427	0	UA_without_intermediate	3,0,0,1,2,0,0,0,0	practice	ward_and_allport	3,2,1,0,0,0,0,0,0	89.0	2.0	0.427	0,0,0,1,2,0,3,0,0	to_board	s593
48.901	1.478	0	UA_without_intermediate	3,0,0,1,0,0,0,0,0	practice	ward_and_allport	3,2,1,0,0,0,0,0,0	71.0	2.0	1.478	0,0,0,1,2,0,3,0,0	to_hand	s593
50.38	0.386	0	UA_without_intermediate	3,2,0,1,0,0,0,0,0	practice	ward_and_allport	3,2,1,0,0,0,0,0,0	89.0	2.0	0.386	0,0,0,1,2,0,3,0,0	to_board	s593
50.769	0.614	0	UA_without_intermediate	3,2,0,0,0,0,0,0,0	practice	ward_and_allport	3,2,1,0,0,0,0,0,0	71.0	2.0	0.614	0,0,0,1,2,0,3,0,0	to_hand	s593
51.384	0.28	0	UA_without_intermediate	3,2,1,0,0,0,0,0,0	practice	ward_and_allport	3,2,1,0,0,0,0,0,0	89.0	2.0	0.28	0,0,0,1,2,0,3,0,0	to_board	s593
51.67	1.0	0	UA_without_intermediate	n/a	practice	ward_and_allport	n/a	-1.0	2.0	n/a	n/a	feedback	s593
52.67	1.2	0	UA_without_intermediate	n/a	practice	ward_and_allport	n/a	-1.0	2.0	n/a	n/a	ITI	s593
53.872	3.746	1	UA_without_intermediate	0,0,0,1,0,0,3,0,0	practice	ward_and_allport	2,3,1,0,0,0,0,0,0	71.0	3.0	3.746	0,0,0,1,2,0,3,0,0	to_hand	s593
57.619	0.322	0	UA_without_intermediate	2,0,0,1,0,0,3,0,0	practice	ward_and_allport	2,3,1,0,0,0,0,0,0	89.0	3.0	0.322	0,0,0,1,2,0,3,0,0	to_board	s593
57.943	1.166	0	UA_without_intermediate	2,0,0,1,0,0,0,0,0	practice	ward_and_allport	2,3,1,0,0,0,0,0,0	82.0	3.0	1.166	0,0,0,1,2,0,3,0,0	to_hand	s593
59.11	0.267	0	UA_without_intermediate	2,3,0,1,0,0,0,0,0	practice	ward_and_allport	2,3,1,0,0,0,0,0,0	89.0	3.0	0.267	0,0,0,1,2,0,3,0,0	to_board	s593
59.379	0.315	0	UA_without_intermediate	2,3,0,0,0,0,0,0,0	practice	ward_and_allport	2,3,1,0,0,0,0,0,0	71.0	3.0	0.315	0,0,0,1,2,0,3,0,0	to_hand	s593
59.695	0.304	0	UA_without_intermediate	2,3,1,0,0,0,0,0,0	practice	ward_and_allport	2,3,1,0,0,0,0,0,0	89.0	3.0	0.304	0,0,0,1,2,0,3,0,0	to_board	s593
60.004	1.0	0	UA_without_intermediate	n/a	practice	ward_and_allport	n/a	-1.0	3.0	n/a	n/a	feedback	s593
61.004	1.0	0	UA_without_intermediate	n/a	practice	ward_and_allport	n/a	-1.0	3.0	n/a	n/a	ITI	s593
64.01	17.447	1	PA_with_intermediate	1,2,0,0,0,0,0,0,0	test	ward_and_allport	1,3,0,0,0,0,2,0,0	89.0	0.0	17.447	1,2,3,0,0,0,0,0,0	to_hand	s593
81.458	1.354	0	PA_with_intermediate	1,2,0,3,0,0,0,0,0	test	ward_and_allport	1,3,0,0,0,0,2,0,0	71.0	0.0	1.354	1,2,3,0,0,0,0,0,0	to_board	s593
82.814	0.698	0	PA_with_intermediate	1,0,0,3,0,0,0,0,0	test	ward_and_allport	1,3,0,0,0,0,2,0,0	89.0	0.0	0.698	1,2,3,0,0,0,0,0,0	to_hand	s593
83.513	0.743	0	PA_with_intermediate	1,0,0,3,0,0,2,0,0	test	ward_and_allport	1,3,0,0,0,0,2,0,0	82.0	0.0	0.743	1,2,3,0,0,0,0,0,0	to_board	s593
84.258	1.809	0	PA_with_intermediate	1,0,0,0,0,0,2,0,0	test	ward_and_allport	1,3,0,0,0,0,2,0,0	71.0	0.0	1.809	1,2,3,0,0,0,0,0,0	to_hand	s593
86.068	0.345	0	PA_with_intermediate	1,3,0,0,0,0,2,0,0	test	ward_and_allport	1,3,0,0,0,0,2,0,0	89.0	0.0	0.345	1,2,3,0,0,0,0,0,0	to_board	s593
86.42	1.0	0	PA_with_intermediate	n/a	test	ward_and_allport	n/a	-1.0	0.0	n/a	n/a	feedback	s593
87.42	3.176	0	PA_with_intermediate	n/a	test	ward_and_allport	n/a	-1.0	0.0	n/a	n/a	ITI	s593
90.598	5.934	1	PA_with_intermediate	0,0,0,1,2,0,0,0,0	test	ward_and_allport	2,0,0,1,3,0,0,0,0	71.0	1.0	5.934	0,0,0,1,2,3,0,0,0	to_hand	s593
96.533	0.44	0	PA_with_intermediate	0,0,0,1,2,0,3,0,0	test	ward_and_allport	2,0,0,1,3,0,0,0,0	82.0	1.0	0.44	0,0,0,1,2,3,0,0,0	to_board	s593
96.975	1.289	0	PA_with_intermediate	0,0,0,1,0,0,3,0,0	test	ward_and_allport	2,0,0,1,3,0,0,0,0	71.0	1.0	1.289	0,0,0,1,2,3,0,0,0	to_hand	s593
98.265	0.341	0	PA_with_intermediate	2,0,0,1,0,0,3,0,0	test	ward_and_allport	2,0,0,1,3,0,0,0,0	89.0	1.0	0.341	0,0,0,1,2,3,0,0,0	to_board	s593
98.609	1.286	0	PA_with_intermediate	2,0,0,1,0,0,0,0,0	test	ward_and_allport	2,0,0,1,3,0,0,0,0	82.0	1.0	1.286	0,0,0,1,2,3,0,0,0	to_hand	s593
99.896	0.599	0	PA_with_intermediate	2,0,0,1,3,0,0,0,0	test	ward_and_allport	2,0,0,1,3,0,0,0,0	71.0	1.0	0.599	0,0,0,1,2,3,0,0,0	to_board	s593
100.5	1.0	0	PA_with_intermediate	n/a	test	ward_and_allport	n/a	-1.0	1.0	n/a	n/a	feedback	s593
101.5	2.36	0	PA_with_intermediate	n/a	test	ward_and_allport	n/a	-1.0	1.0	n/a	n/a	ITI	s593
103.864	4.448	1	PA_with_intermediate	0,0,0,0,0,0,1,2,0	test	ward_and_allport	0,0,0,2,3,0,1,0,0	82.0	2.0	4.448	0,0,0,0,0,0,1,2,3	to_hand	s593
108.313	0.37	0	PA_with_intermediate	3,0,0,0,0,0,1,2,0	test	ward_and_allport	0,0,0,2,3,0,1,0,0	89.0	2.0	0.37	0,0,0,0,0,0,1,2,3	to_board	s593
108.686	1.771	0	PA_with_intermediate	3,0,0,0,0,0,1,0,0	test	ward_and_allport	0,0,0,2,3,0,1,0,0	82.0	2.0	1.771	0,0,0,0,0,0,1,2,3	to_hand	s593
110.458	0.362	0	PA_with_intermediate	3,0,0,2,0,0,1,0,0	test	ward_and_allport	0,0,0,2,3,0,1,0,0	71.0	2.0	0.362	0,0,0,0,0,0,1,2,3	to_board	s593
110.822	2.832	0	PA_with_intermediate	0,0,0,2,0,0,1,0,0	test	ward_and_allport	0,0,0,2,3,0,1,0,0	89.0	2.0	2.832	0,0,0,0,0,0,1,2,3	to_hand	s593
113.655	0.505	0	PA_with_intermediate	0,0,0,2,3,0,1,0,0	test	ward_and_allport	0,0,0,2,3,0,1,0,0	71.0	2.0	0.505	0,0,0,0,0,0,1,2,3	to_board	s593
114.164	1.0	0	PA_with_intermediate	n/a	test	ward_and_allport	n/a	-1.0	2.0	n/a	n/a	feedback	s593
115.164	1.0	0	PA_with_intermediate	n/a	test	ward_and_allport	n/a	-1.0	2.0	n/a	n/a	ITI	s593
116.167	3.419	1	PA_without_intermediate	1,2,0,0,0,0,0,0,0	test	ward_and_allport	0,0,0,3,1,0,2,0,0	89.0	3.0	3.419	1,2,3,0,0,0,0,0,0	to_hand	s593
119.587	0.279	0	PA_without_intermediate	1,2,0,3,0,0,0,0,0	test	ward_and_allport	0,0,0,3,1,0,2,0,0	71.0	3.0	0.279	1,2,3,0,0,0,0,0,0	to_board	s593
119.868	1.086	0	PA_without_intermediate	1,0,0,3,0,0,0,0,0	test	ward_and_allport	0,0,0,3,1,0,2,0,0	89.0	3.0	1.086	1,2,3,0,0,0,0,0,0	to_hand	s593
120.956	0.494	0	PA_without_intermediate	1,0,0,3,0,0,2,0,0	test	ward_and_allport	0,0,0,3,1,0,2,0,0	82.0	3.0	0.494	1,2,3,0,0,0,0,0,0	to_board	s593
121.452	0.716	0	PA_without_intermediate	0,0,0,3,0,0,2,0,0	test	ward_and_allport	0,0,0,3,1,0,2,0,0	89.0	3.0	0.716	1,2,3,0,0,0,0,0,0	to_hand	s593
122.17	0.275	0	PA_without_intermediate	0,0,0,3,1,0,2,0,0	test	ward_and_allport	0,0,0,3,1,0,2,0,0	71.0	3.0	0.275	1,2,3,0,0,0,0,0,0	to_board	s593
122.45	1.0	0	PA_without_intermediate	n/a	test	ward_and_allport	n/a	-1.0	3.0	n/a	n/a	feedback	s593
123.45	1.408	0	PA_without_intermediate	n/a	test	ward_and_allport	n/a	-1.0	3.0	n/a	n/a	ITI	s593
124.86	4.353	1	PA_with_intermediate	1,2,0,0,0,0,0,0,0	test	ward_and_allport	1,3,0,0,0,0,2,0,0	89.0	4.0	4.353	1,2,3,0,0,0,0,0,0	to_hand	s593
129.214	0.333	0	PA_with_intermediate	1,2,0,3,0,0,0,0,0	test	ward_and_allport	1,3,0,0,0,0,2,0,0	71.0	4.0	0.333	1,2,3,0,0,0,0,0,0	to_board	s593
129.55	0.385	0	PA_with_intermediate	1,0,0,3,0,0,0,0,0	test	ward_and_allport	1,3,0,0,0,0,2,0,0	89.0	4.0	0.385	1,2,3,0,0,0,0,0,0	to_hand	s593
129.936	0.41	0	PA_with_intermediate	1,0,0,3,0,0,2,0,0	test	ward_and_allport	1,3,0,0,0,0,2,0,0	82.0	4.0	0.41	1,2,3,0,0,0,0,0,0	to_board	s593
130.349	0.968	0	PA_with_intermediate	1,0,0,0,0,0,2,0,0	test	ward_and_allport	1,3,0,0,0,0,2,0,0	71.0	4.0	0.968	1,2,3,0,0,0,0,0,0	to_hand	s593
131.318	0.24	0	PA_with_intermediate	1,3,0,0,0,0,2,0,0	test	ward_and_allport	1,3,0,0,0,0,2,0,0	89.0	4.0	0.24	1,2,3,0,0,0,0,0,0	to_board	s593
131.562	1.0	0	PA_with_intermediate	n/a	test	ward_and_allport	n/a	-1.0	4.0	n/a	n/a	feedback	s593
132.562	1.816	0	PA_with_intermediate	n/a	test	ward_and_allport	n/a	-1.0	4.0	n/a	n/a	ITI	s593
134.38	3.721	1	PA_without_intermediate	0,0,0,0,0,0,1,2,0	test	ward_and_allport	2,0,0,3,1,0,0,0,0	82.0	5.0	3.721	0,0,0,0,0,0,1,2,3	to_hand	s593
138.102	0.332	0	PA_without_intermediate	0,0,0,3,0,0,1,2,0	test	ward_and_allport	2,0,0,3,1,0,0,0,0	71.0	5.0	0.332	0,0,0,0,0,0,1,2,3	to_board	s593
138.437	0.995	0	PA_without_intermediate	0,0,0,3,0,0,1,0,0	test	ward_and_allport	2,0,0,3,1,0,0,0,0	82.0	5.0	0.995	0,0,0,0,0,0,1,2,3	to_hand	s593
139.434	0.278	0	PA_without_intermediate	2,0,0,3,0,0,1,0,0	test	ward_and_allport	2,0,0,3,1,0,0,0,0	89.0	5.0	0.278	0,0,0,0,0,0,1,2,3	to_board	s593
139.715	1.187	0	PA_without_intermediate	2,0,0,3,0,0,0,0,0	test	ward_and_allport	2,0,0,3,1,0,0,0,0	82.0	5.0	1.187	0,0,0,0,0,0,1,2,3	to_hand	s593
140.903	0.346	0	PA_without_intermediate	2,0,0,3,1,0,0,0,0	test	ward_and_allport	2,0,0,3,1,0,0,0,0	71.0	5.0	0.346	0,0,0,0,0,0,1,2,3	to_board	s593
141.252	1.0	0	PA_without_intermediate	n/a	test	ward_and_allport	n/a	-1.0	5.0	n/a	n/a	feedback	s593
142.252	2.088	0	PA_without_intermediate	n/a	test	ward_and_allport	n/a	-1.0	5.0	n/a	n/a	ITI	s593
144.343	4.031	1	PA_without_intermediate	0,0,0,0,0,0,1,2,0	test	ward_and_allport	3,1,0,2,0,0,0,0,0	82.0	6.0	4.031	0,0,0,0,0,0,1,2,3	to_hand	s593
148.375	0.256	0	PA_without_intermediate	3,0,0,0,0,0,1,2,0	test	ward_and_allport	3,1,0,2,0,0,0,0,0	89.0	6.0	0.256	0,0,0,0,0,0,1,2,3	to_board	s593
148.634	1.872	0	PA_without_intermediate	3,0,0,0,0,0,1,0,0	test	ward_and_allport	3,1,0,2,0,0,0,0,0	82.0	6.0	1.872	0,0,0,0,0,0,1,2,3	to_hand	s593
150.507	0.243	0	PA_without_intermediate	3,0,0,2,0,0,1,0,0	test	ward_and_allport	3,1,0,2,0,0,0,0,0	71.0	6.0	0.243	0,0,0,0,0,0,1,2,3	to_board	s593
150.753	0.535	0	PA_without_intermediate	3,0,0,2,0,0,0,0,0	test	ward_and_allport	3,1,0,2,0,0,0,0,0	82.0	6.0	0.535	0,0,0,0,0,0,1,2,3	to_hand	s593
151.289	0.312	0	PA_without_intermediate	3,1,0,2,0,0,0,0,0	test	ward_and_allport	3,1,0,2,0,0,0,0,0	89.0	6.0	0.312	0,0,0,0,0,0,1,2,3	to_board	s593
151.607	1.0	0	PA_without_intermediate	n/a	test	ward_and_allport	n/a	-1.0	6.0	n/a	n/a	feedback	s593
152.607	1.136	0	PA_without_intermediate	n/a	test	ward_and_allport	n/a	-1.0	6.0	n/a	n/a	ITI	s593
153.747	4.01	1	PA_without_intermediate	1,2,0,0,0,0,0,0,0	test	ward_and_allport	0,0,0,3,1,0,2,0,0	89.0	7.0	4.01	1,2,3,0,0,0,0,0,0	to_hand	s593
157.759	0.424	0	PA_without_intermediate	1,2,0,3,0,0,0,0,0	test	ward_and_allport	0,0,0,3,1,0,2,0,0	71.0	7.0	0.424	1,2,3,0,0,0,0,0,0	to_board	s593
158.188	1.348	0	PA_without_intermediate	1,0,0,3,0,0,0,0,0	test	ward_and_allport	0,0,0,3,1,0,2,0,0	89.0	7.0	1.348	1,2,3,0,0,0,0,0,0	to_hand	s593
159.537	0.265	0	PA_without_intermediate	1,0,0,3,0,0,2,0,0	test	ward_and_allport	0,0,0,3,1,0,2,0,0	82.0	7.0	0.265	1,2,3,0,0,0,0,0,0	to_board	s593
159.805	0.507	0	PA_without_intermediate	0,0,0,3,0,0,2,0,0	test	ward_and_allport	0,0,0,3,1,0,2,0,0	89.0	7.0	0.507	1,2,3,0,0,0,0,0,0	to_hand	s593
160.313	0.269	0	PA_without_intermediate	0,0,0,3,1,0,2,0,0	test	ward_and_allport	0,0,0,3,1,0,2,0,0	71.0	7.0	0.269	1,2,3,0,0,0,0,0,0	to_board	s593
160.589	1.0	0	PA_without_intermediate	n/a	test	ward_and_allport	n/a	-1.0	7.0	n/a	n/a	feedback	s593
161.589	6.168	0	PA_without_intermediate	n/a	test	ward_and_allport	n/a	-1.0	7.0	n/a	n/a	ITI	s593
167.761	3.049	1	PA_without_intermediate	1,2,0,0,0,0,0,0,0	test	ward_and_allport	0,0,0,1,0,0,3,2,0	89.0	8.0	3.049	1,2,3,0,0,0,0,0,0	to_hand	s593
170.812	0.282	0	PA_without_intermediate	1,2,0,0,0,0,3,0,0	test	ward_and_allport	0,0,0,1,0,0,3,2,0	82.0	8.0	0.282	1,2,3,0,0,0,0,0,0	to_board	s593
171.098	1.427	0	PA_without_intermediate	1,0,0,0,0,0,3,0,0	test	ward_and_allport	0,0,0,1,0,0,3,2,0	89.0	8.0	1.427	1,2,3,0,0,0,0,0,0	to_hand	s593
172.526	0.567	0	PA_without_intermediate	1,0,0,0,0,0,3,2,0	test	ward_and_allport	0,0,0,1,0,0,3,2,0	82.0	8.0	0.567	1,2,3,0,0,0,0,0,0	to_board	s593
173.097	0.4	0	PA_without_intermediate	0,0,0,0,0,0,3,2,0	test	ward_and_allport	0,0,0,1,0,0,3,2,0	89.0	8.0	0.4	1,2,3,0,0,0,0,0,0	to_hand	s593
173.499	0.266	0	PA_without_intermediate	0,0,0,1,0,0,3,2,0	test	ward_and_allport	0,0,0,1,0,0,3,2,0	71.0	8.0	0.266	1,2,3,0,0,0,0,0,0	to_board	s593
173.769	1.0	0	PA_without_intermediate	n/a	test	ward_and_allport	n/a	-1.0	8.0	n/a	n/a	feedback	s593
174.769	1.816	0	PA_without_intermediate	n/a	test	ward_and_allport	n/a	-1.0	8.0	n/a	n/a	ITI	s593
176.589	4.56	1	PA_with_intermediate	1,2,0,0,0,0,0,0,0	test	ward_and_allport	1,0,0,0,0,0,2,3,0	89.0	9.0	4.56	1,2,3,0,0,0,0,0,0	to_hand	s593
181.15	0.272	0	PA_with_intermediate	1,2,0,3,0,0,0,0,0	test	ward_and_allport	1,0,0,0,0,0,2,3,0	71.0	9.0	0.272	1,2,3,0,0,0,0,0,0	to_board	s593
181.426	0.306	0	PA_with_intermediate	1,0,0,3,0,0,0,0,0	test	ward_and_allport	1,0,0,0,0,0,2,3,0	89.0	9.0	0.306	1,2,3,0,0,0,0,0,0	to_hand	s593
181.733	0.426	0	PA_with_intermediate	1,0,0,3,0,0,2,0,0	test	ward_and_allport	1,0,0,0,0,0,2,3,0	82.0	9.0	0.426	1,2,3,0,0,0,0,0,0	to_board	s593
182.162	0.427	0	PA_with_intermediate	0,0,0,3,0,0,2,0,0	test	ward_and_allport	1,0,0,0,0,0,2,3,0	89.0	9.0	0.427	1,2,3,0,0,0,0,0,0	to_hand	s593
182.59	2.753	0	PA_with_intermediate	1,0,0,3,0,0,2,0,0	test	ward_and_allport	1,0,0,0,0,0,2,3,0	89.0	9.0	2.753	1,2,3,0,0,0,0,0,0	to_board	s593
185.347	1.026	0	PA_with_intermediate	1,0,0,0,0,0,2,0,0	test	ward_and_allport	1,0,0,0,0,0,2,3,0	71.0	9.0	1.026	1,2,3,0,0,0,0,0,0	to_hand	s593
186.374	0.891	0	PA_with_intermediate	1,0,0,0,0,0,2,3,0	test	ward_and_allport	1,0,0,0,0,0,2,3,0	82.0	9.0	0.891	1,2,3,0,0,0,0,0,0	to_board	s593
187.271	1.0	0	PA_with_intermediate	n/a	test	ward_and_allport	n/a	-1.0	9.0	n/a	n/a	feedback	s593
188.271	1.952	0	PA_with_intermediate	n/a	test	ward_and_allport	n/a	-1.0	9.0	n/a	n/a	ITI	s593
190.227	5.093	1	PA_with_intermediate	0,0,0,1,2,0,0,0,0	test	ward_and_allport	0,0,0,1,3,0,2,0,0	71.0	10.0	5.093	0,0,0,1,2,3,0,0,0	to_hand	s593
195.321	0.724	0	PA_with_intermediate	3,0,0,1,2,0,0,0,0	test	ward_and_allport	0,0,0,1,3,0,2,0,0	89.0	10.0	0.724	0,0,0,1,2,3,0,0,0	to_board	s593
196.049	0.593	0	PA_with_intermediate	3,0,0,1,0,0,0,0,0	test	ward_and_allport	0,0,0,1,3,0,2,0,0	71.0	10.0	0.593	0,0,0,1,2,3,0,0,0	to_hand	s593
196.643	0.346	0	PA_with_intermediate	3,0,0,1,0,0,2,0,0	test	ward_and_allport	0,0,0,1,3,0,2,0,0	82.0	10.0	0.346	0,0,0,1,2,3,0,0,0	to_board	s593
196.994	0.699	0	PA_with_intermediate	0,0,0,1,0,0,2,0,0	test	ward_and_allport	0,0,0,1,3,0,2,0,0	89.0	10.0	0.699	0,0,0,1,2,3,0,0,0	to_hand	s593
197.696	0.285	0	PA_with_intermediate	0,0,0,1,3,0,2,0,0	test	ward_and_allport	0,0,0,1,3,0,2,0,0	71.0	10.0	0.285	0,0,0,1,2,3,0,0,0	to_board	s593
197.985	1.0	0	PA_with_intermediate	n/a	test	ward_and_allport	n/a	-1.0	10.0	n/a	n/a	feedback	s593
198.985	1.136	0	PA_with_intermediate	n/a	test	ward_and_allport	n/a	-1.0	10.0	n/a	n/a	ITI	s593
200.125	2.701	1	PA_without_intermediate	0,0,0,0,0,0,1,2,0	test	ward_and_allport	2,0,0,3,1,0,0,0,0	82.0	11.0	2.701	0,0,0,0,0,0,1,2,3	to_hand	s593
202.827	0.244	0	PA_without_intermediate	0,0,0,3,0,0,1,2,0	test	ward_and_allport	2,0,0,3,1,0,0,0,0	71.0	11.0	0.244	0,0,0,0,0,0,1,2,3	to_board	s593
203.074	0.802	0	PA_without_intermediate	0,0,0,3,0,0,1,0,0	test	ward_and_allport	2,0,0,3,1,0,0,0,0	82.0	11.0	0.802	0,0,0,0,0,0,1,2,3	to_hand	s593
203.878	0.252	0	PA_without_intermediate	2,0,0,3,0,0,1,0,0	test	ward_and_allport	2,0,0,3,1,0,0,0,0	89.0	11.0	0.252	0,0,0,0,0,0,1,2,3	to_board	s593
204.134	1.573	0	PA_without_intermediate	2,0,0,3,0,0,0,0,0	test	ward_and_allport	2,0,0,3,1,0,0,0,0	82.0	11.0	1.573	0,0,0,0,0,0,1,2,3	to_hand	s593
205.708	0.261	0	PA_without_intermediate	2,0,0,3,1,0,0,0,0	test	ward_and_allport	2,0,0,3,1,0,0,0,0	71.0	11.0	0.261	0,0,0,0,0,0,1,2,3	to_board	s593
205.975	1.0	0	PA_without_intermediate	n/a	test	ward_and_allport	n/a	-1.0	11.0	n/a	n/a	feedback	s593
206.975	1.68	0	PA_without_intermediate	n/a	test	ward_and_allport	n/a	-1.0	11.0	n/a	n/a	ITI	s593
208.659	2.739	1	PA_without_intermediate	1,2,0,0,0,0,0,0,0	test	ward_and_allport	0,0,0,2,0,0,3,1,0	89.0	12.0	2.739	1,2,3,0,0,0,0,0,0	to_hand	s593
211.399	0.343	0	PA_without_intermediate	1,2,0,0,0,0,3,0,0	test	ward_and_allport	0,0,0,2,0,0,3,1,0	82.0	12.0	0.343	1,2,3,0,0,0,0,0,0	to_board	s593
211.746	0.999	0	PA_without_intermediate	1,0,0,0,0,0,3,0,0	test	ward_and_allport	0,0,0,2,0,0,3,1,0	89.0	12.0	0.999	1,2,3,0,0,0,0,0,0	to_hand	s593
212.747	0.274	0	PA_without_intermediate	1,0,0,2,0,0,3,0,0	test	ward_and_allport	0,0,0,2,0,0,3,1,0	71.0	12.0	0.274	1,2,3,0,0,0,0,0,0	to_board	s593
213.024	1.014	0	PA_without_intermediate	0,0,0,2,0,0,3,0,0	test	ward_and_allport	0,0,0,2,0,0,3,1,0	89.0	12.0	1.014	1,2,3,0,0,0,0,0,0	to_hand	s593
214.04	0.263	0	PA_without_intermediate	0,0,0,2,0,0,3,1,0	test	ward_and_allport	0,0,0,2,0,0,3,1,0	82.0	12.0	0.263	1,2,3,0,0,0,0,0,0	to_board	s593
214.308	1.0	0	PA_without_intermediate	n/a	test	ward_and_allport	n/a	-1.0	12.0	n/a	n/a	feedback	s593
215.308	2.088	0	PA_without_intermediate	n/a	test	ward_and_allport	n/a	-1.0	12.0	n/a	n/a	ITI	s593
217.4	4.915	1	PA_with_intermediate	1,2,0,0,0,0,0,0,0	test	ward_and_allport	1,3,0,2,0,0,0,0,0	89.0	13.0	4.915	1,2,3,0,0,0,0,0,0	to_hand	s593
222.317	0.297	0	PA_with_intermediate	1,2,0,0,0,0,3,0,0	test	ward_and_allport	1,3,0,2,0,0,0,0,0	82.0	13.0	0.297	1,2,3,0,0,0,0,0,0	to_board	s593
222.617	1.024	0	PA_with_intermediate	1,0,0,0,0,0,3,0,0	test	ward_and_allport	1,3,0,2,0,0,0,0,0	89.0	13.0	1.024	1,2,3,0,0,0,0,0,0	to_hand	s593
223.643	0.34	0	PA_with_intermediate	1,0,0,2,0,0,3,0,0	test	ward_and_allport	1,3,0,2,0,0,0,0,0	71.0	13.0	0.34	1,2,3,0,0,0,0,0,0	to_board	s593
223.987	0.775	0	PA_with_intermediate	1,0,0,2,0,0,0,0,0	test	ward_and_allport	1,3,0,2,0,0,0,0,0	82.0	13.0	0.775	1,2,3,0,0,0,0,0,0	to_hand	s593
224.763	0.261	0	PA_with_intermediate	1,3,0,2,0,0,0,0,0	test	ward_and_allport	1,3,0,2,0,0,0,0,0	89.0	13.0	0.261	1,2,3,0,0,0,0,0,0	to_board	s593
225.028	1.0	0	PA_with_intermediate	n/a	test	ward_and_allport	n/a	-1.0	13.0	n/a	n/a	feedback	s593
226.028	1.0	0	PA_with_intermediate	n/a	test	ward_and_allport	n/a	-1.0	13.0	n/a	n/a	ITI	s593
227.032	4.176	1	PA_without_intermediate	1,2,0,0,0,0,0,0,0	test	ward_and_allport	0,0,0,3,2,0,1,0,0	89.0	14.0	4.176	1,2,3,0,0,0,0,0,0	to_hand	s593
231.21	0.453	0	PA_without_intermediate	1,2,0,3,0,0,0,0,0	test	ward_and_allport	0,0,0,3,2,0,1,0,0	71.0	14.0	0.453	1,2,3,0,0,0,0,0,0	to_board	s593
231.667	0.91	0	PA_without_intermediate	1,0,0,3,0,0,0,0,0	test	ward_and_allport	0,0,0,3,2,0,1,0,0	89.0	14.0	0.91	1,2,3,0,0,0,0,0,0	to_hand	s593
232.578	0.466	0	PA_without_intermediate	1,0,0,3,2,0,0,0,0	test	ward_and_allport	0,0,0,3,2,0,1,0,0	71.0	14.0	0.466	1,2,3,0,0,0,0,0,0	to_board	s593
233.048	0.576	0	PA_without_intermediate	0,0,0,3,2,0,0,0,0	test	ward_and_allport	0,0,0,3,2,0,1,0,0	89.0	14.0	0.576	1,2,3,0,0,0,0,0,0	to_hand	s593
233.625	0.25	0	PA_without_intermediate	0,0,0,3,2,0,1,0,0	test	ward_and_allport	0,0,0,3,2,0,1,0,0	82.0	14.0	0.25	1,2,3,0,0,0,0,0,0	to_board	s593
233.881	1.0	0	PA_without_intermediate	n/a	test	ward_and_allport	n/a	-1.0	14.0	n/a	n/a	feedback	s593
234.881	1.0	0	PA_without_intermediate	n/a	test	ward_and_allport	n/a	-1.0	14.0	n/a	n/a	ITI	s593
240.888	3.184	1	PA_without_intermediate	1,2,0,0,0,0,0,0,0	test	ward_and_allport	0,0,0,3,2,0,1,0,0	89.0	15.0	3.184	1,2,3,0,0,0,0,0,0	to_hand	s593
244.073	0.275	0	PA_without_intermediate	1,2,0,3,0,0,0,0,0	test	ward_and_allport	0,0,0,3,2,0,1,0,0	71.0	15.0	0.275	1,2,3,0,0,0,0,0,0	to_board	s593
244.352	0.973	0	PA_without_intermediate	1,0,0,3,0,0,0,0,0	test	ward_and_allport	0,0,0,3,2,0,1,0,0	89.0	15.0	0.973	1,2,3,0,0,0,0,0,0	to_hand	s593
245.326	0.461	0	PA_without_intermediate	1,0,0,3,2,0,0,0,0	test	ward_and_allport	0,0,0,3,2,0,1,0,0	71.0	15.0	0.461	1,2,3,0,0,0,0,0,0	to_board	s593
245.791	0.544	0	PA_without_intermediate	0,0,0,3,2,0,0,0,0	test	ward_and_allport	0,0,0,3,2,0,1,0,0	89.0	15.0	0.544	1,2,3,0,0,0,0,0,0	to_hand	s593
246.336	0.397	0	PA_without_intermediate	0,0,0,3,2,0,1,0,0	test	ward_and_allport	0,0,0,3,2,0,1,0,0	82.0	15.0	0.397	1,2,3,0,0,0,0,0,0	to_board	s593
246.74	1.0	0	PA_without_intermediate	n/a	test	ward_and_allport	n/a	-1.0	15.0	n/a	n/a	feedback	s593
247.74	1.0	0	PA_without_intermediate	n/a	test	ward_and_allport	n/a	-1.0	15.0	n/a	n/a	ITI	s593
248.745	5.171	1	PA_with_intermediate	0,0,0,1,2,0,0,0,0	test	ward_and_allport	0,0,0,1,0,0,2,3,0	71.0	16.0	5.171	0,0,0,1,2,3,0,0,0	to_hand	s593
253.917	0.29	0	PA_with_intermediate	3,0,0,1,2,0,0,0,0	test	ward_and_allport	0,0,0,1,0,0,2,3,0	89.0	16.0	0.29	0,0,0,1,2,3,0,0,0	to_board	s593
254.213	0.413	0	PA_with_intermediate	3,0,0,1,0,0,0,0,0	test	ward_and_allport	0,0,0,1,0,0,2,3,0	71.0	16.0	0.413	0,0,0,1,2,3,0,0,0	to_hand	s593
254.627	0.493	0	PA_with_intermediate	3,0,0,1,0,0,2,0,0	test	ward_and_allport	0,0,0,1,0,0,2,3,0	82.0	16.0	0.493	0,0,0,1,2,3,0,0,0	to_board	s593
255.124	0.689	0	PA_with_intermediate	0,0,0,1,0,0,2,0,0	test	ward_and_allport	0,0,0,1,0,0,2,3,0	89.0	16.0	0.689	0,0,0,1,2,3,0,0,0	to_hand	s593
255.814	0.411	0	PA_with_intermediate	0,0,0,1,0,0,2,3,0	test	ward_and_allport	0,0,0,1,0,0,2,3,0	82.0	16.0	0.411	0,0,0,1,2,3,0,0,0	to_board	s593
256.234	1.0	0	PA_with_intermediate	n/a	test	ward_and_allport	n/a	-1.0	16.0	n/a	n/a	feedback	s593
257.234	1.544	0	PA_with_intermediate	n/a	test	ward_and_allport	n/a	-1.0	16.0	n/a	n/a	ITI	s593
258.783	4.648	1	PA_without_intermediate	0,0,0,0,0,0,1,2,0	test	ward_and_allport	1,0,0,3,2,0,0,0,0	82.0	17.0	4.648	0,0,0,0,0,0,1,2,3	to_hand	s593
263.433	0.675	0	PA_without_intermediate	0,0,0,3,0,0,1,2,0	test	ward_and_allport	1,0,0,3,2,0,0,0,0	71.0	17.0	0.675	0,0,0,0,0,0,1,2,3	to_board	s593
264.112	2.349	0	PA_without_intermediate	0,0,0,3,0,0,1,0,0	test	ward_and_allport	1,0,0,3,2,0,0,0,0	82.0	17.0	2.349	0,0,0,0,0,0,1,2,3	to_hand	s593
266.462	0.274	0	PA_without_intermediate	0,0,0,3,2,0,1,0,0	test	ward_and_allport	1,0,0,3,2,0,0,0,0	71.0	17.0	0.274	0,0,0,0,0,0,1,2,3	to_board	s593
266.74	0.701	0	PA_without_intermediate	0,0,0,3,2,0,0,0,0	test	ward_and_allport	1,0,0,3,2,0,0,0,0	82.0	17.0	0.701	0,0,0,0,0,0,1,2,3	to_hand	s593
267.442	0.233	0	PA_without_intermediate	1,0,0,3,2,0,0,0,0	test	ward_and_allport	1,0,0,3,2,0,0,0,0	89.0	17.0	0.233	0,0,0,0,0,0,1,2,3	to_board	s593
267.681	1.0	0	PA_without_intermediate	n/a	test	ward_and_allport	n/a	-1.0	17.0	n/a	n/a	feedback	s593
268.681	1.272	0	PA_without_intermediate	n/a	test	ward_and_allport	n/a	-1.0	17.0	n/a	n/a	ITI	s593
269.957	6.636	1	PA_with_intermediate	0,0,0,0,0,0,1,2,0	test	ward_and_allport	2,3,0,0,0,0,1,0,0	82.0	18.0	6.636	0,0,0,0,0,0,1,2,3	to_hand	s593
276.594	0.349	0	PA_with_intermediate	0,0,0,3,0,0,1,2,0	test	ward_and_allport	2,3,0,0,0,0,1,0,0	71.0	18.0	0.349	0,0,0,0,0,0,1,2,3	to_board	s593
276.947	0.456	0	PA_with_intermediate	0,0,0,3,0,0,1,0,0	test	ward_and_allport	2,3,0,0,0,0,1,0,0	82.0	18.0	0.456	0,0,0,0,0,0,1,2,3	to_hand	s593
277.404	0.364	0	PA_with_intermediate	2,0,0,3,0,0,1,0,0	test	ward_and_allport	2,3,0,0,0,0,1,0,0	89.0	18.0	0.364	0,0,0,0,0,0,1,2,3	to_board	s593
277.773	0.546	0	PA_with_intermediate	2,0,0,0,0,0,1,0,0	test	ward_and_allport	2,3,0,0,0,0,1,0,0	71.0	18.0	0.546	0,0,0,0,0,0,1,2,3	to_hand	s593
278.32	0.329	0	PA_with_intermediate	2,3,0,0,0,0,1,0,0	test	ward_and_allport	2,3,0,0,0,0,1,0,0	89.0	18.0	0.329	0,0,0,0,0,0,1,2,3	to_board	s593
278.657	1.0	0	PA_with_intermediate	n/a	test	ward_and_allport	n/a	-1.0	18.0	n/a	n/a	feedback	s593
279.657	3.04	0	PA_with_intermediate	n/a	test	ward_and_allport	n/a	-1.0	18.0	n/a	n/a	ITI	s593
282.702	3.844	1	PA_with_intermediate	0,0,0,1,2,0,0,0,0	test	ward_and_allport	0,0,0,1,0,0,2,3,0	71.0	19.0	3.844	0,0,0,1,2,3,0,0,0	to_hand	s593
286.547	0.295	0	PA_with_intermediate	3,0,0,1,2,0,0,0,0	test	ward_and_allport	0,0,0,1,0,0,2,3,0	89.0	19.0	0.295	0,0,0,1,2,3,0,0,0	to_board	s593
286.846	0.349	0	PA_with_intermediate	3,0,0,1,0,0,0,0,0	test	ward_and_allport	0,0,0,1,0,0,2,3,0	71.0	19.0	0.349	0,0,0,1,2,3,0,0,0	to_hand	s593
287.196	0.313	0	PA_with_intermediate	3,0,0,1,0,0,2,0,0	test	ward_and_allport	0,0,0,1,0,0,2,3,0	82.0	19.0	0.313	0,0,0,1,2,3,0,0,0	to_board	s593
287.514	0.435	0	PA_with_intermediate	0,0,0,1,0,0,2,0,0	test	ward_and_allport	0,0,0,1,0,0,2,3,0	89.0	19.0	0.435	0,0,0,1,2,3,0,0,0	to_hand	s593
287.95	0.279	0	PA_with_intermediate	0,0,0,1,0,0,2,3,0	test	ward_and_allport	0,0,0,1,0,0,2,3,0	82.0	19.0	0.279	0,0,0,1,2,3,0,0,0	to_board	s593
288.234	1.0	0	PA_with_intermediate	n/a	test	ward_and_allport	n/a	-1.0	19.0	n/a	n/a	feedback	s593
289.234	1.272	0	PA_with_intermediate	n/a	test	ward_and_allport	n/a	-1.0	19.0	n/a	n/a	ITI	s593
290.51	3.688	1	PA_with_intermediate	0,0,0,0,0,0,1,2,0	test	ward_and_allport	2,0,0,0,0,0,1,3,0	82.0	20.0	3.688	0,0,0,0,0,0,1,2,3	to_hand	s593
294.199	0.35	0	PA_with_intermediate	0,0,0,3,0,0,1,2,0	test	ward_and_allport	2,0,0,0,0,0,1,3,0	71.0	20.0	0.35	0,0,0,0,0,0,1,2,3	to_board	s593
294.553	0.379	0	PA_with_intermediate	0,0,0,3,0,0,1,0,0	test	ward_and_allport	2,0,0,0,0,0,1,3,0	82.0	20.0	0.379	0,0,0,0,0,0,1,2,3	to_hand	s593
294.933	0.348	0	PA_with_intermediate	2,0,0,3,0,0,1,0,0	test	ward_and_allport	2,0,0,0,0,0,1,3,0	89.0	20.0	0.348	0,0,0,0,0,0,1,2,3	to_board	s593
295.286	0.725	0	PA_with_intermediate	2,0,0,0,0,0,1,0,0	test	ward_and_allport	2,0,0,0,0,0,1,3,0	71.0	20.0	0.725	0,0,0,0,0,0,1,2,3	to_hand	s593
296.012	0.287	0	PA_with_intermediate	2,0,0,0,0,0,1,3,0	test	ward_and_allport	2,0,0,0,0,0,1,3,0	82.0	20.0	0.287	0,0,0,0,0,0,1,2,3	to_board	s593
296.307	1.0	0	PA_with_intermediate	n/a	test	ward_and_allport	n/a	-1.0	20.0	n/a	n/a	feedback	s593
297.307	1.136	0	PA_with_intermediate	n/a	test	ward_and_allport	n/a	-1.0	20.0	n/a	n/a	ITI	s593
298.449	3.259	1	PA_with_intermediate	0,0,0,1,2,0,0,0,0	test	ward_and_allport	2,0,0,1,3,0,0,0,0	71.0	21.0	3.259	0,0,0,1,2,3,0,0,0	to_hand	s593
301.709	0.336	0	PA_with_intermediate	0,0,0,1,2,0,3,0,0	test	ward_and_allport	2,0,0,1,3,0,0,0,0	82.0	21.0	0.336	0,0,0,1,2,3,0,0,0	to_board	s593
302.05	0.668	0	PA_with_intermediate	0,0,0,1,0,0,3,0,0	test	ward_and_allport	2,0,0,1,3,0,0,0,0	71.0	21.0	0.668	0,0,0,1,2,3,0,0,0	to_hand	s593
302.719	0.589	0	PA_with_intermediate	2,0,0,1,0,0,3,0,0	test	ward_and_allport	2,0,0,1,3,0,0,0,0	89.0	21.0	0.589	0,0,0,1,2,3,0,0,0	to_board	s593
303.313	1.031	0	PA_with_intermediate	2,0,0,1,0,0,0,0,0	test	ward_and_allport	2,0,0,1,3,0,0,0,0	82.0	21.0	1.031	0,0,0,1,2,3,0,0,0	to_hand	s593
304.345	0.368	0	PA_with_intermediate	2,0,0,1,3,0,0,0,0	test	ward_and_allport	2,0,0,1,3,0,0,0,0	71.0	21.0	0.368	0,0,0,1,2,3,0,0,0	to_board	s593
304.719	1.0	0	PA_with_intermediate	n/a	test	ward_and_allport	n/a	-1.0	21.0	n/a	n/a	feedback	s593
305.719	1.0	0	PA_with_intermediate	n/a	test	ward_and_allport	n/a	-1.0	21.0	n/a	n/a	ITI	s593
306.723	5.019	1	PA_with_intermediate	1,2,0,0,0,0,0,0,0	test	ward_and_allport	1,0,0,2,3,0,0,0,0	89.0	22.0	5.019	1,2,3,0,0,0,0,0,0	to_hand	s593
311.743	0.234	0	PA_with_intermediate	1,2,0,0,0,0,3,0,0	test	ward_and_allport	1,0,0,2,3,0,0,0,0	82.0	22.0	0.234	1,2,3,0,0,0,0,0,0	to_board	s593
311.983	0.653	0	PA_with_intermediate	1,0,0,0,0,0,3,0,0	test	ward_and_allport	1,0,0,2,3,0,0,0,0	89.0	22.0	0.653	1,2,3,0,0,0,0,0,0	to_hand	s593
312.637	0.284	0	PA_with_intermediate	1,0,0,2,0,0,3,0,0	test	ward_and_allport	1,0,0,2,3,0,0,0,0	71.0	22.0	0.284	1,2,3,0,0,0,0,0,0	to_board	s593
312.927	0.405	0	PA_with_intermediate	1,0,0,2,0,0,0,0,0	test	ward_and_allport	1,0,0,2,3,0,0,0,0	82.0	22.0	0.405	1,2,3,0,0,0,0,0,0	to_hand	s593
313.333	0.26	0	PA_with_intermediate	1,0,0,2,3,0,0,0,0	test	ward_and_allport	1,0,0,2,3,0,0,0,0	71.0	22.0	0.26	1,2,3,0,0,0,0,0,0	to_board	s593
313.599	1.0	0	PA_with_intermediate	n/a	test	ward_and_allport	n/a	-1.0	22.0	n/a	n/a	feedback	s593
314.599	1.0	0	PA_with_intermediate	n/a	test	ward_and_allport	n/a	-1.0	22.0	n/a	n/a	ITI	s593
315.605	4.516	1	PA_without_intermediate	0,0,0,0,0,0,1,2,0	test	ward_and_allport	3,1,0,2,0,0,0,0,0	82.0	23.0	4.516	0,0,0,0,0,0,1,2,3	to_hand	s593
320.122	0.35	0	PA_without_intermediate	3,0,0,0,0,0,1,2,0	test	ward_and_allport	3,1,0,2,0,0,0,0,0	89.0	23.0	0.35	0,0,0,0,0,0,1,2,3	to_board	s593
320.478	1.931	0	PA_without_intermediate	3,0,0,0,0,0,1,0,0	test	ward_and_allport	3,1,0,2,0,0,0,0,0	82.0	23.0	1.931	0,0,0,0,0,0,1,2,3	to_hand	s593
322.41	0.284	0	PA_without_intermediate	3,0,0,2,0,0,1,0,0	test	ward_and_allport	3,1,0,2,0,0,0,0,0	71.0	23.0	0.284	0,0,0,0,0,0,1,2,3	to_board	s593
322.7	0.925	0	PA_without_intermediate	3,0,0,2,0,0,0,0,0	test	ward_and_allport	3,1,0,2,0,0,0,0,0	82.0	23.0	0.925	0,0,0,0,0,0,1,2,3	to_hand	s593
323.626	0.268	0	PA_without_intermediate	3,1,0,2,0,0,0,0,0	test	ward_and_allport	3,1,0,2,0,0,0,0,0	89.0	23.0	0.268	0,0,0,0,0,0,1,2,3	to_board	s593
323.9	1.0	0	PA_without_intermediate	n/a	test	ward_and_allport	n/a	-1.0	23.0	n/a	n/a	feedback	s593
324.9	1.408	0	PA_without_intermediate	n/a	test	ward_and_allport	n/a	-1.0	23.0	n/a	n/a	ITI	s593
326.314	3.142	1	PA_with_intermediate	0,0,0,1,2,0,0,0,0	test	ward_and_allport	2,3,0,1,0,0,0,0,0	71.0	24.0	3.142	0,0,0,1,2,3,0,0,0	to_hand	s593
329.457	0.329	0	PA_with_intermediate	0,0,0,1,2,0,3,0,0	test	ward_and_allport	2,3,0,1,0,0,0,0,0	82.0	24.0	0.329	0,0,0,1,2,3,0,0,0	to_board	s593
329.793	1.26	0	PA_with_intermediate	0,0,0,1,0,0,3,0,0	test	ward_and_allport	2,3,0,1,0,0,0,0,0	71.0	24.0	1.26	0,0,0,1,2,3,0,0,0	to_hand	s593
331.054	0.344	0	PA_with_intermediate	2,0,0,1,0,0,3,0,0	test	ward_and_allport	2,3,0,1,0,0,0,0,0	89.0	24.0	0.344	0,0,0,1,2,3,0,0,0	to_board	s593
331.404	1.375	0	PA_with_intermediate	2,0,0,1,0,0,0,0,0	test	ward_and_allport	2,3,0,1,0,0,0,0,0	82.0	24.0	1.375	0,0,0,1,2,3,0,0,0	to_hand	s593
332.78	0.222	0	PA_with_intermediate	2,3,0,1,0,0,0,0,0	test	ward_and_allport	2,3,0,1,0,0,0,0,0	89.0	24.0	0.222	0,0,0,1,2,3,0,0,0	to_board	s593
333.009	1.0	0	PA_with_intermediate	n/a	test	ward_and_allport	n/a	-1.0	24.0	n/a	n/a	feedback	s593
334.009	2.768	0	PA_with_intermediate	n/a	test	ward_and_allport	n/a	-1.0	24.0	n/a	n/a	ITI	s593
336.784	4.155	1	PA_with_intermediate	0,0,0,0,0,0,1,2,0	test	ward_and_allport	0,0,0,2,0,0,1,3,0	82.0	25.0	4.155	0,0,0,0,0,0,1,2,3	to_hand	s593
340.94	0.352	0	PA_with_intermediate	3,0,0,0,0,0,1,2,0	test	ward_and_allport	0,0,0,2,0,0,1,3,0	89.0	25.0	0.352	0,0,0,0,0,0,1,2,3	to_board	s593
341.298	0.619	0	PA_with_intermediate	3,0,0,0,0,0,1,0,0	test	ward_and_allport	0,0,0,2,0,0,1,3,0	82.0	25.0	0.619	0,0,0,0,0,0,1,2,3	to_hand	s593
341.918	0.394	0	PA_with_intermediate	3,0,0,2,0,0,1,0,0	test	ward_and_allport	0,0,0,2,0,0,1,3,0	71.0	25.0	0.394	0,0,0,0,0,0,1,2,3	to_board	s593
342.318	0.58	0	PA_with_intermediate	0,0,0,2,0,0,1,0,0	test	ward_and_allport	0,0,0,2,0,0,1,3,0	89.0	25.0	0.58	0,0,0,0,0,0,1,2,3	to_hand	s593
342.899	0.26	0	PA_with_intermediate	0,0,0,2,0,0,1,3,0	test	ward_and_allport	0,0,0,2,0,0,1,3,0	82.0	25.0	0.26	0,0,0,0,0,0,1,2,3	to_board	s593
343.169	1.0	0	PA_with_intermediate	n/a	test	ward_and_allport	n/a	-1.0	25.0	n/a	n/a	feedback	s593
344.169	1.68	0	PA_with_intermediate	n/a	test	ward_and_allport	n/a	-1.0	25.0	n/a	n/a	ITI	s593
345.856	2.816	1	PA_without_intermediate	1,2,0,0,0,0,0,0,0	test	ward_and_allport	0,0,0,1,0,0,3,2,0	89.0	26.0	2.816	1,2,3,0,0,0,0,0,0	to_hand	s593
348.673	0.334	0	PA_without_intermediate	1,2,0,0,0,0,3,0,0	test	ward_and_allport	0,0,0,1,0,0,3,2,0	82.0	26.0	0.334	1,2,3,0,0,0,0,0,0	to_board	s593
349.013	0.934	0	PA_without_intermediate	1,0,0,0,0,0,3,0,0	test	ward_and_allport	0,0,0,1,0,0,3,2,0	89.0	26.0	0.934	1,2,3,0,0,0,0,0,0	to_hand	s593
349.948	0.288	0	PA_without_intermediate	1,0,0,2,0,0,3,0,0	test	ward_and_allport	0,0,0,1,0,0,3,2,0	71.0	26.0	0.288	1,2,3,0,0,0,0,0,0	to_board	s593
350.242	2.308	0	PA_without_intermediate	1,0,0,0,0,0,3,0,0	test	ward_and_allport	0,0,0,1,0,0,3,2,0	71.0	26.0	2.308	1,2,3,0,0,0,0,0,0	to_hand	s593
352.551	0.355	0	PA_without_intermediate	1,0,0,0,0,0,3,2,0	test	ward_and_allport	0,0,0,1,0,0,3,2,0	82.0	26.0	0.355	1,2,3,0,0,0,0,0,0	to_board	s593
352.913	1.201	0	PA_without_intermediate	0,0,0,0,0,0,3,2,0	test	ward_and_allport	0,0,0,1,0,0,3,2,0	89.0	26.0	1.201	1,2,3,0,0,0,0,0,0	to_hand	s593
354.115	0.245	0	PA_without_intermediate	0,0,0,1,0,0,3,2,0	test	ward_and_allport	0,0,0,1,0,0,3,2,0	71.0	26.0	0.245	1,2,3,0,0,0,0,0,0	to_board	s593
354.369	1.0	0	PA_without_intermediate	n/a	test	ward_and_allport	n/a	-1.0	26.0	n/a	n/a	feedback	s593
355.369	2.224	0	PA_without_intermediate	n/a	test	ward_and_allport	n/a	-1.0	26.0	n/a	n/a	ITI	s593
357.6	6.3	1	PA_without_intermediate	0,0,0,1,2,0,0,0,0	test	ward_and_allport	1,0,0,0,0,0,3,2,0	71.0	27.0	6.3	0,0,0,1,2,3,0,0,0	to_hand	s593
363.901	0.29	0	PA_without_intermediate	0,0,0,1,2,0,3,0,0	test	ward_and_allport	1,0,0,0,0,0,3,2,0	82.0	27.0	0.29	0,0,0,1,2,3,0,0,0	to_board	s593
364.197	0.47	0	PA_without_intermediate	0,0,0,1,0,0,3,0,0	test	ward_and_allport	1,0,0,0,0,0,3,2,0	71.0	27.0	0.47	0,0,0,1,2,3,0,0,0	to_hand	s593
364.668	0.475	0	PA_without_intermediate	0,0,0,1,0,0,3,2,0	test	ward_and_allport	1,0,0,0,0,0,3,2,0	82.0	27.0	0.475	0,0,0,1,2,3,0,0,0	to_board	s593
365.15	0.69	0	PA_without_intermediate	0,0,0,0,0,0,3,2,0	test	ward_and_allport	1,0,0,0,0,0,3,2,0	71.0	27.0	0.69	0,0,0,1,2,3,0,0,0	to_hand	s593
365.841	0.371	0	PA_without_intermediate	1,0,0,0,0,0,3,2,0	test	ward_and_allport	1,0,0,0,0,0,3,2,0	89.0	27.0	0.371	0,0,0,1,2,3,0,0,0	to_board	s593
366.223	1.0	0	PA_without_intermediate	n/a	test	ward_and_allport	n/a	-1.0	27.0	n/a	n/a	feedback	s593
367.223	2.36	0	PA_without_intermediate	n/a	test	ward_and_allport	n/a	-1.0	27.0	n/a	n/a	ITI	s593
369.592	3.915	1	PA_without_intermediate	0,0,0,1,2,0,0,0,0	test	ward_and_allport	1,0,0,0,0,0,3,2,0	71.0	28.0	3.915	0,0,0,1,2,3,0,0,0	to_hand	s593
373.509	0.293	0	PA_without_intermediate	0,0,0,1,2,0,3,0,0	test	ward_and_allport	1,0,0,0,0,0,3,2,0	82.0	28.0	0.293	0,0,0,1,2,3,0,0,0	to_board	s593
373.808	0.289	0	PA_without_intermediate	0,0,0,1,0,0,3,0,0	test	ward_and_allport	1,0,0,0,0,0,3,2,0	71.0	28.0	0.289	0,0,0,1,2,3,0,0,0	to_hand	s593
374.098	0.311	0	PA_without_intermediate	0,0,0,1,0,0,3,2,0	test	ward_and_allport	1,0,0,0,0,0,3,2,0	82.0	28.0	0.311	0,0,0,1,2,3,0,0,0	to_board	s593
374.416	0.382	0	PA_without_intermediate	0,0,0,0,0,0,3,2,0	test	ward_and_allport	1,0,0,0,0,0,3,2,0	71.0	28.0	0.382	0,0,0,1,2,3,0,0,0	to_hand	s593
374.799	0.44	0	PA_without_intermediate	1,0,0,0,0,0,3,2,0	test	ward_and_allport	1,0,0,0,0,0,3,2,0	89.0	28.0	0.44	0,0,0,1,2,3,0,0,0	to_board	s593
375.247	1.0	0	PA_without_intermediate	n/a	test	ward_and_allport	n/a	-1.0	28.0	n/a	n/a	feedback	s593
376.247	1.0	0	PA_without_intermediate	n/a	test	ward_and_allport	n/a	-1.0	28.0	n/a	n/a	ITI	s593
377.254	3.095	1	PA_without_intermediate	0,0,0,1,2,0,0,0,0	test	ward_and_allport	3,1,0,0,0,0,2,0,0	71.0	29.0	3.095	0,0,0,1,2,3,0,0,0	to_hand	s593
380.35	0.38	0	PA_without_intermediate	3,0,0,1,2,0,0,0,0	test	ward_and_allport	3,1,0,0,0,0,2,0,0	89.0	29.0	0.38	0,0,0,1,2,3,0,0,0	to_board	s593
380.737	0.432	0	PA_without_intermediate	3,0,0,1,0,0,0,0,0	test	ward_and_allport	3,1,0,0,0,0,2,0,0	71.0	29.0	0.432	0,0,0,1,2,3,0,0,0	to_hand	s593
381.17	0.353	0	PA_without_intermediate	3,0,0,1,0,0,2,0,0	test	ward_and_allport	3,1,0,0,0,0,2,0,0	82.0	29.0	0.353	0,0,0,1,2,3,0,0,0	to_board	s593
381.53	0.446	0	PA_without_intermediate	3,0,0,0,0,0,2,0,0	test	ward_and_allport	3,1,0,0,0,0,2,0,0	71.0	29.0	0.446	0,0,0,1,2,3,0,0,0	to_hand	s593
381.977	0.27	0	PA_without_intermediate	3,1,0,0,0,0,2,0,0	test	ward_and_allport	3,1,0,0,0,0,2,0,0	89.0	29.0	0.27	0,0,0,1,2,3,0,0,0	to_board	s593
382.257	1.0	0	PA_without_intermediate	n/a	test	ward_and_allport	n/a	-1.0	29.0	n/a	n/a	feedback	s593
383.257	1.408	0	PA_without_intermediate	n/a	test	ward_and_allport	n/a	-1.0	29.0	n/a	n/a	ITI	s593
389.677	3.594	1	PA_with_intermediate	0,0,0,0,0,0,1,2,0	test	ward_and_allport	0,0,0,2,0,0,1,3,0	82.0	30.0	3.594	0,0,0,0,0,0,1,2,3	to_hand	s593
393.272	0.318	0	PA_with_intermediate	3,0,0,0,0,0,1,2,0	test	ward_and_allport	0,0,0,2,0,0,1,3,0	89.0	30.0	0.318	0,0,0,0,0,0,1,2,3	to_board	s593
393.597	0.496	0	PA_with_intermediate	3,0,0,0,0,0,1,0,0	test	ward_and_allport	0,0,0,2,0,0,1,3,0	82.0	30.0	0.496	0,0,0,0,0,0,1,2,3	to_hand	s593
394.094	0.316	0	PA_with_intermediate	3,0,0,2,0,0,1,0,0	test	ward_and_allport	0,0,0,2,0,0,1,3,0	71.0	30.0	0.316	0,0,0,0,0,0,1,2,3	to_board	s593
394.417	0.73	0	PA_with_intermediate	0,0,0,2,0,0,1,0,0	test	ward_and_allport	0,0,0,2,0,0,1,3,0	89.0	30.0	0.73	0,0,0,0,0,0,1,2,3	to_hand	s593
395.148	0.26	0	PA_with_intermediate	0,0,0,2,0,0,1,3,0	test	ward_and_allport	0,0,0,2,0,0,1,3,0	82.0	30.0	0.26	0,0,0,0,0,0,1,2,3	to_board	s593
395.415	1.0	0	PA_with_intermediate	n/a	test	ward_and_allport	n/a	-1.0	30.0	n/a	n/a	feedback	s593
396.415	1.136	0	PA_with_intermediate	n/a	test	ward_and_allport	n/a	-1.0	30.0	n/a	n/a	ITI	s593
397.558	2.558	1	PA_without_intermediate	0,0,0,0,0,0,1,2,0	test	ward_and_allport	1,0,0,3,2,0,0,0,0	82.0	31.0	2.558	0,0,0,0,0,0,1,2,3	to_hand	s593
400.117	0.335	0	PA_without_intermediate	0,0,0,3,0,0,1,2,0	test	ward_and_allport	1,0,0,3,2,0,0,0,0	71.0	31.0	0.335	0,0,0,0,0,0,1,2,3	to_board	s593
400.46	0.399	0	PA_without_intermediate	0,0,0,3,0,0,1,0,0	test	ward_and_allport	1,0,0,3,2,0,0,0,0	82.0	31.0	0.399	0,0,0,0,0,0,1,2,3	to_hand	s593
400.86	0.315	0	PA_without_intermediate	0,0,0,3,2,0,1,0,0	test	ward_and_allport	1,0,0,3,2,0,0,0,0	71.0	31.0	0.315	0,0,0,0,0,0,1,2,3	to_board	s593
401.183	0.384	0	PA_without_intermediate	0,0,0,3,2,0,0,0,0	test	ward_and_allport	1,0,0,3,2,0,0,0,0	82.0	31.0	0.384	0,0,0,0,0,0,1,2,3	to_hand	s593
401.568	0.307	0	PA_without_intermediate	1,0,0,3,2,0,0,0,0	test	ward_and_allport	1,0,0,3,2,0,0,0,0	89.0	31.0	0.307	0,0,0,0,0,0,1,2,3	to_board	s593
401.884	1.0	0	PA_without_intermediate	n/a	test	ward_and_allport	n/a	-1.0	31.0	n/a	n/a	feedback	s593
402.884	4.128	0	PA_without_intermediate	n/a	test	ward_and_allport	n/a	-1.0	31.0	n/a	n/a	ITI	s593
407.018	3.12	1	PA_without_intermediate	0,0,0,0,0,0,1,2,0	test	ward_and_allport	3,2,0,1,0,0,0,0,0	82.0	32.0	3.12	0,0,0,0,0,0,1,2,3	to_hand	s593
410.139	0.336	0	PA_without_intermediate	3,0,0,0,0,0,1,2,0	test	ward_and_allport	3,2,0,1,0,0,0,0,0	89.0	32.0	0.336	0,0,0,0,0,0,1,2,3	to_board	s593
410.482	0.612	0	PA_without_intermediate	3,0,0,0,0,0,1,0,0	test	ward_and_allport	3,2,0,1,0,0,0,0,0	82.0	32.0	0.612	0,0,0,0,0,0,1,2,3	to_hand	s593
411.095	0.522	0	PA_without_intermediate	3,2,0,0,0,0,1,0,0	test	ward_and_allport	3,2,0,1,0,0,0,0,0	89.0	32.0	0.522	0,0,0,0,0,0,1,2,3	to_board	s593
411.625	0.472	0	PA_without_intermediate	3,2,0,0,0,0,0,0,0	test	ward_and_allport	3,2,0,1,0,0,0,0,0	82.0	32.0	0.472	0,0,0,0,0,0,1,2,3	to_hand	s593
412.098	0.316	0	PA_without_intermediate	3,2,0,1,0,0,0,0,0	test	ward_and_allport	3,2,0,1,0,0,0,0,0	71.0	32.0	0.316	0,0,0,0,0,0,1,2,3	to_board	s593
412.423	1.0	0	PA_without_intermediate	n/a	test	ward_and_allport	n/a	-1.0	32.0	n/a	n/a	feedback	s593
413.423	1.136	0	PA_without_intermediate	n/a	test	ward_and_allport	n/a	-1.0	32.0	n/a	n/a	ITI	s593
414.565	3.263	1	PA_without_intermediate	0,0,0,1,2,0,0,0,0	test	ward_and_allport	2,0,0,0,0,0,3,1,0	71.0	33.0	3.263	0,0,0,1,2,3,0,0,0	to_hand	s593
417.828	0.329	0	PA_without_intermediate	0,0,0,1,2,0,3,0,0	test	ward_and_allport	2,0,0,0,0,0,3,1,0	82.0	33.0	0.329	0,0,0,1,2,3,0,0,0	to_board	s593
418.163	0.315	0	PA_without_intermediate	0,0,0,1,0,0,3,0,0	test	ward_and_allport	2,0,0,0,0,0,3,1,0	71.0	33.0	0.315	0,0,0,1,2,3,0,0,0	to_hand	s593
418.479	0.325	0	PA_without_intermediate	2,0,0,1,0,0,3,0,0	test	ward_and_allport	2,0,0,0,0,0,3,1,0	89.0	33.0	0.325	0,0,0,1,2,3,0,0,0	to_board	s593
418.811	0.46	0	PA_without_intermediate	2,0,0,0,0,0,3,0,0	test	ward_and_allport	2,0,0,0,0,0,3,1,0	71.0	33.0	0.46	0,0,0,1,2,3,0,0,0	to_hand	s593
419.272	0.271	0	PA_without_intermediate	2,0,0,0,0,0,3,1,0	test	ward_and_allport	2,0,0,0,0,0,3,1,0	82.0	33.0	0.271	0,0,0,1,2,3,0,0,0	to_board	s593
419.555	1.0	0	PA_without_intermediate	n/a	test	ward_and_allport	n/a	-1.0	33.0	n/a	n/a	feedback	s593
420.555	4.264	0	PA_without_intermediate	n/a	test	ward_and_allport	n/a	-1.0	33.0	n/a	n/a	ITI	s593
424.827	2.992	1	PA_with_intermediate	1,2,0,0,0,0,0,0,0	test	ward_and_allport	1,3,0,2,0,0,0,0,0	89.0	34.0	2.992	1,2,3,0,0,0,0,0,0	to_hand	s593
427.82	0.315	0	PA_with_intermediate	1,2,0,0,0,0,3,0,0	test	ward_and_allport	1,3,0,2,0,0,0,0,0	82.0	34.0	0.315	1,2,3,0,0,0,0,0,0	to_board	s593
428.142	0.362	0	PA_with_intermediate	1,0,0,0,0,0,3,0,0	test	ward_and_allport	1,3,0,2,0,0,0,0,0	89.0	34.0	0.362	1,2,3,0,0,0,0,0,0	to_hand	s593
428.505	0.338	0	PA_with_intermediate	1,0,0,2,0,0,3,0,0	test	ward_and_allport	1,3,0,2,0,0,0,0,0	71.0	34.0	0.338	1,2,3,0,0,0,0,0,0	to_board	s593
428.852	1.277	0	PA_with_intermediate	1,0,0,2,0,0,0,0,0	test	ward_and_allport	1,3,0,2,0,0,0,0,0	82.0	34.0	1.277	1,2,3,0,0,0,0,0,0	to_hand	s593
430.13	0.211	0	PA_with_intermediate	1,3,0,2,0,0,0,0,0	test	ward_and_allport	1,3,0,2,0,0,0,0,0	89.0	34.0	0.211	1,2,3,0,0,0,0,0,0	to_board	s593
430.354	1.0	0	PA_with_intermediate	n/a	test	ward_and_allport	n/a	-1.0	34.0	n/a	n/a	feedback	s593
431.354	3.04	0	PA_with_intermediate	n/a	test	ward_and_allport	n/a	-1.0	34.0	n/a	n/a	ITI	s593
434.401	11.327	1	PA_with_intermediate	0,0,0,0,0,0,1,2,0	test	ward_and_allport	0,0,0,2,3,0,1,0,0	82.0	35.0	11.327	0,0,0,0,0,0,1,2,3	to_hand	s593
445.73	0.334	0	PA_with_intermediate	0,0,0,3,0,0,1,2,0	test	ward_and_allport	0,0,0,2,3,0,1,0,0	71.0	35.0	0.334	0,0,0,0,0,0,1,2,3	to_board	s593
446.073	3.581	0	PA_with_intermediate	0,0,0,3,0,0,1,0,0	test	ward_and_allport	0,0,0,2,3,0,1,0,0	82.0	35.0	3.581	0,0,0,0,0,0,1,2,3	to_hand	s593
449.655	0.253	0	PA_with_intermediate	0,0,0,3,2,0,1,0,0	test	ward_and_allport	0,0,0,2,3,0,1,0,0	71.0	35.0	0.253	0,0,0,0,0,0,1,2,3	to_board	s593
449.916	0.454	0	PA_with_intermediate	0,0,0,3,2,0,0,0,0	test	ward_and_allport	0,0,0,2,3,0,1,0,0	82.0	35.0	0.454	0,0,0,0,0,0,1,2,3	to_hand	s593
450.371	0.522	0	PA_with_intermediate	1,0,0,3,2,0,0,0,0	test	ward_and_allport	0,0,0,2,3,0,1,0,0	89.0	35.0	0.522	0,0,0,0,0,0,1,2,3	to_board	s593
450.902	2.706	0	PA_with_intermediate	1,0,0,3,0,0,0,0,0	test	ward_and_allport	0,0,0,2,3,0,1,0,0	71.0	35.0	2.706	0,0,0,0,0,0,1,2,3	to_hand	s593
453.609	5.514	0	PA_with_intermediate	1,0,0,3,0,0,2,0,0	test	ward_and_allport	0,0,0,2,3,0,1,0,0	82.0	35.0	5.514	0,0,0,0,0,0,1,2,3	to_board	s593
459.131	0.889	0	PA_with_intermediate	1,0,0,0,0,0,2,0,0	test	ward_and_allport	0,0,0,2,3,0,1,0,0	71.0	35.0	0.889	0,0,0,0,0,0,1,2,3	to_hand	s593
460.021	0.66	0	PA_with_intermediate	1,3,0,0,0,0,2,0,0	test	ward_and_allport	0,0,0,2,3,0,1,0,0	89.0	35.0	0.66	0,0,0,0,0,0,1,2,3	to_board	s593
460.689	1.819	0	PA_with_intermediate	1,3,0,0,0,0,0,0,0	test	ward_and_allport	0,0,0,2,3,0,1,0,0	82.0	35.0	1.819	0,0,0,0,0,0,1,2,3	to_hand	s593
462.509	0.324	0	PA_with_intermediate	1,3,0,2,0,0,0,0,0	test	ward_and_allport	0,0,0,2,3,0,1,0,0	71.0	35.0	0.324	0,0,0,0,0,0,1,2,3	to_board	s593
462.841	1.752	0	PA_with_intermediate	1,0,0,2,0,0,0,0,0	test	ward_and_allport	0,0,0,2,3,0,1,0,0	89.0	35.0	1.752	0,0,0,0,0,0,1,2,3	to_hand	s593
464.594	0.899	0	PA_with_intermediate	1,0,0,2,3,0,0,0,0	test	ward_and_allport	0,0,0,2,3,0,1,0,0	71.0	35.0	0.899	0,0,0,0,0,0,1,2,3	to_board	s593
465.501	2.977	0	PA_with_intermediate	0,0,0,2,3,0,0,0,0	test	ward_and_allport	0,0,0,2,3,0,1,0,0	89.0	35.0	2.977	0,0,0,0,0,0,1,2,3	to_hand	s593
468.479	0.298	0	PA_with_intermediate	0,0,0,2,3,0,1,0,0	test	ward_and_allport	0,0,0,2,3,0,1,0,0	82.0	35.0	0.298	0,0,0,0,0,0,1,2,3	to_board	s593
468.786	1.0	0	PA_with_intermediate	n/a	test	ward_and_allport	n/a	-1.0	35.0	n/a	n/a	feedback	s593
469.786	1.136	0	PA_with_intermediate	n/a	test	ward_and_allport	n/a	-1.0	35.0	n/a	n/a	ITI	s593
470.931	3.877	1	PA_with_intermediate	0,0,0,1,2,0,0,0,0	test	ward_and_allport	0,0,0,1,3,0,2,0,0	71.0	36.0	3.877	0,0,0,1,2,3,0,0,0	to_hand	s593
474.81	0.323	0	PA_with_intermediate	3,0,0,1,2,0,0,0,0	test	ward_and_allport	0,0,0,1,3,0,2,0,0	89.0	36.0	0.323	0,0,0,1,2,3,0,0,0	to_board	s593
475.144	0.306	0	PA_with_intermediate	3,0,0,1,0,0,0,0,0	test	ward_and_allport	0,0,0,1,3,0,2,0,0	71.0	36.0	0.306	0,0,0,1,2,3,0,0,0	to_hand	s593
475.451	0.287	0	PA_with_intermediate	3,0,0,1,0,0,2,0,0	test	ward_and_allport	0,0,0,1,3,0,2,0,0	82.0	36.0	0.287	0,0,0,1,2,3,0,0,0	to_board	s593
475.747	0.581	0	PA_with_intermediate	0,0,0,1,0,0,2,0,0	test	ward_and_allport	0,0,0,1,3,0,2,0,0	89.0	36.0	0.581	0,0,0,1,2,3,0,0,0	to_hand	s593
476.33	0.255	0	PA_with_intermediate	0,0,0,1,3,0,2,0,0	test	ward_and_allport	0,0,0,1,3,0,2,0,0	71.0	36.0	0.255	0,0,0,1,2,3,0,0,0	to_board	s593
476.594	1.0	0	PA_with_intermediate	n/a	test	ward_and_allport	n/a	-1.0	36.0	n/a	n/a	feedback	s593
477.594	1.408	0	PA_with_intermediate	n/a	test	ward_and_allport	n/a	-1.0	36.0	n/a	n/a	ITI	s593
479.008	2.428	1	PA_without_intermediate	0,0,0,0,0,0,1,2,0	test	ward_and_allport	3,2,0,1,0,0,0,0,0	82.0	37.0	2.428	0,0,0,0,0,0,1,2,3	to_hand	s593
481.437	0.35	0	PA_without_intermediate	3,0,0,0,0,0,1,2,0	test	ward_and_allport	3,2,0,1,0,0,0,0,0	89.0	37.0	0.35	0,0,0,0,0,0,1,2,3	to_board	s593
481.793	2.845	0	PA_without_intermediate	3,0,0,0,0,0,1,0,0	test	ward_and_allport	3,2,0,1,0,0,0,0,0	82.0	37.0	2.845	0,0,0,0,0,0,1,2,3	to_hand	s593
484.64	0.269	0	PA_without_intermediate	3,2,0,0,0,0,1,0,0	test	ward_and_allport	3,2,0,1,0,0,0,0,0	89.0	37.0	0.269	0,0,0,0,0,0,1,2,3	to_board	s593
484.918	0.408	0	PA_without_intermediate	3,2,0,0,0,0,0,0,0	test	ward_and_allport	3,2,0,1,0,0,0,0,0	82.0	37.0	0.408	0,0,0,0,0,0,1,2,3	to_hand	s593
485.327	0.265	0	PA_without_intermediate	3,2,0,1,0,0,0,0,0	test	ward_and_allport	3,2,0,1,0,0,0,0,0	71.0	37.0	0.265	0,0,0,0,0,0,1,2,3	to_board	s593
485.602	1.0	0	PA_without_intermediate	n/a	test	ward_and_allport	n/a	-1.0	37.0	n/a	n/a	feedback	s593
486.602	1.68	0	PA_without_intermediate	n/a	test	ward_and_allport	n/a	-1.0	37.0	n/a	n/a	ITI	s593
488.289	4.268	1	PA_with_intermediate	0,0,0,0,0,0,1,2,0	test	ward_and_allport	2,3,0,0,0,0,1,0,0	82.0	38.0	4.268	0,0,0,0,0,0,1,2,3	to_hand	s593
492.558	0.255	0	PA_with_intermediate	0,0,0,3,0,0,1,2,0	test	ward_and_allport	2,3,0,0,0,0,1,0,0	71.0	38.0	0.255	0,0,0,0,0,0,1,2,3	to_board	s593
492.82	0.283	0	PA_with_intermediate	0,0,0,3,0,0,1,0,0	test	ward_and_allport	2,3,0,0,0,0,1,0,0	82.0	38.0	0.283	0,0,0,0,0,0,1,2,3	to_hand	s593
493.104	0.261	0	PA_with_intermediate	2,0,0,3,0,0,1,0,0	test	ward_and_allport	2,3,0,0,0,0,1,0,0	89.0	38.0	0.261	0,0,0,0,0,0,1,2,3	to_board	s593
493.375	0.57	0	PA_with_intermediate	2,0,0,0,0,0,1,0,0	test	ward_and_allport	2,3,0,0,0,0,1,0,0	71.0	38.0	0.57	0,0,0,0,0,0,1,2,3	to_hand	s593
493.947	0.181	0	PA_with_intermediate	2,3,0,0,0,0,1,0,0	test	ward_and_allport	2,3,0,0,0,0,1,0,0	89.0	38.0	0.181	0,0,0,0,0,0,1,2,3	to_board	s593
494.138	1.0	0	PA_with_intermediate	n/a	test	ward_and_allport	n/a	-1.0	38.0	n/a	n/a	feedback	s593
495.138	3.72	0	PA_with_intermediate	n/a	test	ward_and_allport	n/a	-1.0	38.0	n/a	n/a	ITI	s593
498.866	3.197	1	PA_without_intermediate	1,2,0,0,0,0,0,0,0	test	ward_and_allport	0,0,0,2,0,0,3,1,0	89.0	39.0	3.197	1,2,3,0,0,0,0,0,0	to_hand	s593
502.064	0.267	0	PA_without_intermediate	1,2,0,0,0,0,3,0,0	test	ward_and_allport	0,0,0,2,0,0,3,1,0	82.0	39.0	0.267	1,2,3,0,0,0,0,0,0	to_board	s593
502.34	0.251	0	PA_without_intermediate	1,0,0,0,0,0,3,0,0	test	ward_and_allport	0,0,0,2,0,0,3,1,0	89.0	39.0	0.251	1,2,3,0,0,0,0,0,0	to_hand	s593
502.592	0.254	0	PA_without_intermediate	1,0,0,2,0,0,3,0,0	test	ward_and_allport	0,0,0,2,0,0,3,1,0	71.0	39.0	0.254	1,2,3,0,0,0,0,0,0	to_board	s593
502.856	0.273	0	PA_without_intermediate	0,0,0,2,0,0,3,0,0	test	ward_and_allport	0,0,0,2,0,0,3,1,0	89.0	39.0	0.273	1,2,3,0,0,0,0,0,0	to_hand	s593
503.13	0.216	0	PA_without_intermediate	0,0,0,2,0,0,3,1,0	test	ward_and_allport	0,0,0,2,0,0,3,1,0	82.0	39.0	0.216	1,2,3,0,0,0,0,0,0	to_board	s593
503.356	1.0	0	PA_without_intermediate	n/a	test	ward_and_allport	n/a	-1.0	39.0	n/a	n/a	feedback	s593
504.356	2.224	0	PA_without_intermediate	n/a	test	ward_and_allport	n/a	-1.0	39.0	n/a	n/a	ITI	s593
506.585	3.203	1	PA_without_intermediate	0,0,0,1,2,0,0,0,0	test	ward_and_allport	3,1,0,0,0,0,2,0,0	71.0	40.0	3.203	0,0,0,1,2,3,0,0,0	to_hand	s593
509.79	0.283	0	PA_without_intermediate	3,0,0,1,2,0,0,0,0	test	ward_and_allport	3,1,0,0,0,0,2,0,0	89.0	40.0	0.283	0,0,0,1,2,3,0,0,0	to_board	s593
510.079	0.32	0	PA_without_intermediate	3,0,0,1,0,0,0,0,0	test	ward_and_allport	3,1,0,0,0,0,2,0,0	71.0	40.0	0.32	0,0,0,1,2,3,0,0,0	to_hand	s593
510.4	0.262	0	PA_without_intermediate	3,0,0,1,0,0,2,0,0	test	ward_and_allport	3,1,0,0,0,0,2,0,0	82.0	40.0	0.262	0,0,0,1,2,3,0,0,0	to_board	s593
510.671	0.284	0	PA_without_intermediate	3,0,0,0,0,0,2,0,0	test	ward_and_allport	3,1,0,0,0,0,2,0,0	71.0	40.0	0.284	0,0,0,1,2,3,0,0,0	to_hand	s593
510.956	0.221	0	PA_without_intermediate	3,1,0,0,0,0,2,0,0	test	ward_and_allport	3,1,0,0,0,0,2,0,0	89.0	40.0	0.221	0,0,0,1,2,3,0,0,0	to_board	s593
511.191	1.0	0	PA_without_intermediate	n/a	test	ward_and_allport	n/a	-1.0	40.0	n/a	n/a	feedback	s593
512.191	1.272	0	PA_without_intermediate	n/a	test	ward_and_allport	n/a	-1.0	40.0	n/a	n/a	ITI	s593
513.47	6.23	1	PA_with_intermediate	0,0,0,1,2,0,0,0,0	test	ward_and_allport	2,3,0,1,0,0,0,0,0	71.0	41.0	6.23	0,0,0,1,2,3,0,0,0	to_hand	s593
519.7	0.26	0	PA_with_intermediate	0,0,0,1,2,0,3,0,0	test	ward_and_allport	2,3,0,1,0,0,0,0,0	82.0	41.0	0.26	0,0,0,1,2,3,0,0,0	to_board	s593
519.969	0.252	0	PA_with_intermediate	0,0,0,1,0,0,3,0,0	test	ward_and_allport	2,3,0,1,0,0,0,0,0	71.0	41.0	0.252	0,0,0,1,2,3,0,0,0	to_hand	s593
520.222	0.268	0	PA_with_intermediate	2,0,0,1,0,0,3,0,0	test	ward_and_allport	2,3,0,1,0,0,0,0,0	89.0	41.0	0.268	0,0,0,1,2,3,0,0,0	to_board	s593
520.499	0.244	0	PA_with_intermediate	2,0,0,1,0,0,0,0,0	test	ward_and_allport	2,3,0,1,0,0,0,0,0	82.0	41.0	0.244	0,0,0,1,2,3,0,0,0	to_hand	s593
520.743	0.222	0	PA_with_intermediate	2,3,0,1,0,0,0,0,0	test	ward_and_allport	2,3,0,1,0,0,0,0,0	89.0	41.0	0.222	0,0,0,1,2,3,0,0,0	to_board	s593
520.975	1.0	0	PA_with_intermediate	n/a	test	ward_and_allport	n/a	-1.0	41.0	n/a	n/a	feedback	s593
521.975	2.632	0	PA_with_intermediate	n/a	test	ward_and_allport	n/a	-1.0	41.0	n/a	n/a	ITI	s593
524.616	5.506	1	PA_without_intermediate	0,0,0,1,2,0,0,0,0	test	ward_and_allport	3,2,0,0,0,0,1,0,0	71.0	42.0	5.506	0,0,0,1,2,3,0,0,0	to_hand	s593
530.123	0.323	0	PA_without_intermediate	3,0,0,1,2,0,0,0,0	test	ward_and_allport	3,2,0,0,0,0,1,0,0	89.0	42.0	0.323	0,0,0,1,2,3,0,0,0	to_board	s593
530.455	0.292	0	PA_without_intermediate	3,0,0,1,0,0,0,0,0	test	ward_and_allport	3,2,0,0,0,0,1,0,0	71.0	42.0	0.292	0,0,0,1,2,3,0,0,0	to_hand	s593
530.748	0.254	0	PA_without_intermediate	3,2,0,1,0,0,0,0,0	test	ward_and_allport	3,2,0,0,0,0,1,0,0	89.0	42.0	0.254	0,0,0,1,2,3,0,0,0	to_board	s593
531.013	0.266	0	PA_without_intermediate	3,2,0,0,0,0,0,0,0	test	ward_and_allport	3,2,0,0,0,0,1,0,0	71.0	42.0	0.266	0,0,0,1,2,3,0,0,0	to_hand	s593
531.28	0.276	0	PA_without_intermediate	3,2,0,0,0,0,1,0,0	test	ward_and_allport	3,2,0,0,0,0,1,0,0	82.0	42.0	0.276	0,0,0,1,2,3,0,0,0	to_board	s593
531.569	1.0	0	PA_without_intermediate	n/a	test	ward_and_allport	n/a	-1.0	42.0	n/a	n/a	feedback	s593
532.569	1.408	0	PA_without_intermediate	n/a	test	ward_and_allport	n/a	-1.0	42.0	n/a	n/a	ITI	s593
533.986	3.093	1	PA_without_intermediate	0,0,0,1,2,0,0,0,0	test	ward_and_allport	3,2,0,0,0,0,1,0,0	71.0	43.0	3.093	0,0,0,1,2,3,0,0,0	to_hand	s593
537.08	0.435	0	PA_without_intermediate	3,0,0,1,2,0,0,0,0	test	ward_and_allport	3,2,0,0,0,0,1,0,0	89.0	43.0	0.435	0,0,0,1,2,3,0,0,0	to_board	s593
537.522	0.257	0	PA_without_intermediate	3,0,0,1,0,0,0,0,0	test	ward_and_allport	3,2,0,0,0,0,1,0,0	71.0	43.0	0.257	0,0,0,1,2,3,0,0,0	to_hand	s593
537.78	0.27	0	PA_without_intermediate	3,2,0,1,0,0,0,0,0	test	ward_and_allport	3,2,0,0,0,0,1,0,0	89.0	43.0	0.27	0,0,0,1,2,3,0,0,0	to_board	s593
538.058	0.269	0	PA_without_intermediate	3,2,0,0,0,0,0,0,0	test	ward_and_allport	3,2,0,0,0,0,1,0,0	71.0	43.0	0.269	0,0,0,1,2,3,0,0,0	to_hand	s593
538.328	0.253	0	PA_without_intermediate	3,2,0,0,0,0,1,0,0	test	ward_and_allport	3,2,0,0,0,0,1,0,0	82.0	43.0	0.253	0,0,0,1,2,3,0,0,0	to_board	s593
538.589	1.0	0	PA_without_intermediate	n/a	test	ward_and_allport	n/a	-1.0	43.0	n/a	n/a	feedback	s593
539.589	1.0	0	PA_without_intermediate	n/a	test	ward_and_allport	n/a	-1.0	43.0	n/a	n/a	ITI	s593
540.597	5.259	1	PA_with_intermediate	0,0,0,0,0,0,1,2,0	test	ward_and_allport	2,0,0,0,0,0,1,3,0	82.0	44.0	5.259	0,0,0,0,0,0,1,2,3	to_hand	s593
545.857	0.259	0	PA_with_intermediate	0,0,0,3,0,0,1,2,0	test	ward_and_allport	2,0,0,0,0,0,1,3,0	71.0	44.0	0.259	0,0,0,0,0,0,1,2,3	to_board	s593
546.123	0.56	0	PA_with_intermediate	0,0,0,3,0,0,1,0,0	test	ward_and_allport	2,0,0,0,0,0,1,3,0	82.0	44.0	0.56	0,0,0,0,0,0,1,2,3	to_hand	s593
546.684	0.248	0	PA_with_intermediate	2,0,0,3,0,0,1,0,0	test	ward_and_allport	2,0,0,0,0,0,1,3,0	89.0	44.0	0.248	0,0,0,0,0,0,1,2,3	to_board	s593
546.939	0.623	0	PA_with_intermediate	2,0,0,0,0,0,1,0,0	test	ward_and_allport	2,0,0,0,0,0,1,3,0	71.0	44.0	0.623	0,0,0,0,0,0,1,2,3	to_hand	s593
547.563	0.441	0	PA_with_intermediate	2,0,0,0,0,0,1,3,0	test	ward_and_allport	2,0,0,0,0,0,1,3,0	82.0	44.0	0.441	0,0,0,0,0,0,1,2,3	to_board	s593
548.015	1.0	0	PA_with_intermediate	n/a	test	ward_and_allport	n/a	-1.0	44.0	n/a	n/a	feedback	s593
549.015	1.0	0	PA_with_intermediate	n/a	test	ward_and_allport	n/a	-1.0	44.0	n/a	n/a	ITI	s593
555.028	12.371	1	PA_with_intermediate	1,2,0,0,0,0,0,0,0	test	ward_and_allport	1,0,0,0,0,0,2,3,0	89.0	45.0	12.371	1,2,3,0,0,0,0,0,0	to_hand	s593
567.4	0.271	0	PA_with_intermediate	1,2,0,3,0,0,0,0,0	test	ward_and_allport	1,0,0,0,0,0,2,3,0	71.0	45.0	0.271	1,2,3,0,0,0,0,0,0	to_board	s593
567.682	0.283	0	PA_with_intermediate	1,0,0,3,0,0,0,0,0	test	ward_and_allport	1,0,0,0,0,0,2,3,0	89.0	45.0	0.283	1,2,3,0,0,0,0,0,0	to_hand	s593
567.966	0.446	0	PA_with_intermediate	1,0,0,3,0,0,2,0,0	test	ward_and_allport	1,0,0,0,0,0,2,3,0	82.0	45.0	0.446	1,2,3,0,0,0,0,0,0	to_board	s593
568.422	1.064	0	PA_with_intermediate	1,0,0,0,0,0,2,0,0	test	ward_and_allport	1,0,0,0,0,0,2,3,0	71.0	45.0	1.064	1,2,3,0,0,0,0,0,0	to_hand	s593
569.487	0.244	0	PA_with_intermediate	1,0,0,0,0,0,2,3,0	test	ward_and_allport	1,0,0,0,0,0,2,3,0	82.0	45.0	0.244	1,2,3,0,0,0,0,0,0	to_board	s593
569.745	1.0	0	PA_with_intermediate	n/a	test	ward_and_allport	n/a	-1.0	45.0	n/a	n/a	feedback	s593
570.745	1.0	0	PA_with_intermediate	n/a	test	ward_and_allport	n/a	-1.0	45.0	n/a	n/a	ITI	s593
n/a	n/a	0	n/a	n/a	n/a	n/a	n/a	n/a	n/a	n/a	n/a	ITI	n/a
