onset	duration	condition	correct	correct_response	experiment_exp_id	key_press	response_time	stim_color	stim_word	trial_type	worker_id
3.518	1.5	incongruent	1.0	71.0	stroop	71	0.713	blue	green	incongruent	s192
5.523	1.5	congruent	1.0	82.0	stroop	82	0.549	green	green	congruent	s192
7.529	1.5	incongruent	1.0	89.0	stroop	89	0.379	red	green	incongruent	s192
9.806	1.5	incongruent	1.0	82.0	stroop	82	0.618	green	blue	incongruent	s192
11.809	1.5	congruent	1.0	89.0	stroop	89	0.442	red	red	congruent	s192
13.95	1.5	congruent	1.0	71.0	stroop	71	0.347	blue	blue	congruent	s192
15.955	1.5	congruent	1.0	89.0	stroop	89	0.508	red	red	congruent	s192
18.094	1.5	congruent	1.0	71.0	stroop	71	0.347	blue	blue	congruent	s192
20.1	1.5	congruent	1.0	71.0	stroop	71	0.692	blue	blue	congruent	s192
22.105	1.5	incongruent	1.0	71.0	stroop	71	0.637	blue	red	incongruent	s192
24.111	1.5	incongruent	1.0	82.0	stroop	82	0.773	green	red	incongruent	s192
26.388	1.5	incongruent	0.0	71.0	stroop	89	0.614	blue	red	incongruent	s192
28.391	1.5	incongruent	1.0	71.0	stroop	71	0.677	blue	green	incongruent	s192
30.53	1.5	congruent	1.0	89.0	stroop	89	0.481	red	red	congruent	s192
32.943	1.5	incongruent	1.0	82.0	stroop	82	0.563	green	red	incongruent	s192
35.218	1.5	congruent	1.0	82.0	stroop	82	0.446	green	green	congruent	s192
37.903	1.5	congruent	1.0	71.0	stroop	71	0.374	blue	blue	congruent	s192
39.906	1.5	congruent	1.0	71.0	stroop	71	0.488	blue	blue	congruent	s192
42.319	1.5	congruent	1.0	89.0	stroop	89	0.352	red	red	congruent	s192
44.461	1.5	incongruent	1.0	82.0	stroop	82	0.8	green	red	incongruent	s192
47.146	1.5	incongruent	1.0	71.0	stroop	71	0.467	blue	red	incongruent	s192
49.149	1.5	incongruent	0.0	82.0	stroop	71	0.499	green	blue	incongruent	s192
51.287	1.5	congruent	1.0	89.0	stroop	89	0.433	red	red	congruent	s192
54.245	1.5	incongruent	1.0	89.0	stroop	89	0.54	red	blue	incongruent	s192
56.25	1.5	incongruent	0.0	71.0	stroop	82	0.62	blue	green	incongruent	s192
58.525	1.5	incongruent	1.0	71.0	stroop	71	0.766	blue	red	incongruent	s192
60.528	1.5	congruent	1.0	89.0	stroop	89	0.494	red	red	congruent	s192
62.533	1.5	congruent	1.0	71.0	stroop	71	0.453	blue	blue	congruent	s192
64.539	1.5	incongruent	1.0	71.0	stroop	71	0.421	blue	green	incongruent	s192
66.541	1.5	congruent	1.0	82.0	stroop	82	0.759	green	green	congruent	s192
68.683	1.5	congruent	1.0	71.0	stroop	71	0.425	blue	blue	congruent	s192
70.688	1.5	incongruent	1.0	89.0	stroop	89	0.661	red	green	incongruent	s192
72.691	1.5	congruent	1.0	89.0	stroop	89	0.41	red	red	congruent	s192
74.832	1.5	incongruent	1.0	89.0	stroop	89	0.46	red	green	incongruent	s192
76.838	1.5	incongruent	1.0	71.0	stroop	71	0.528	blue	red	incongruent	s192
78.84	1.5	incongruent	1.0	89.0	stroop	89	0.741	red	green	incongruent	s192
80.979	1.5	congruent	1.0	89.0	stroop	89	0.458	red	red	congruent	s192
83.12	1.5	congruent	0.0	82.0	stroop	-1	n/a	green	green	congruent	s192
85.395	1.5	incongruent	1.0	71.0	stroop	71	0.394	blue	green	incongruent	s192
88.078	1.5	congruent	1.0	82.0	stroop	82	0.729	green	green	congruent	s192
90.081	1.5	congruent	1.0	89.0	stroop	89	0.538	red	red	congruent	s192
92.086	1.5	incongruent	1.0	82.0	stroop	82	0.656	green	red	incongruent	s192
94.362	1.5	incongruent	1.0	82.0	stroop	82	0.474	green	blue	incongruent	s192
96.364	1.5	congruent	0.0	89.0	stroop	71	0.48	red	red	congruent	s192
98.369	1.5	incongruent	1.0	71.0	stroop	71	0.972	blue	red	incongruent	s192
100.37	1.5	incongruent	1.0	71.0	stroop	71	0.568	blue	green	incongruent	s192
102.374	1.5	incongruent	1.0	82.0	stroop	82	0.719	green	blue	incongruent	s192
104.379	1.5	incongruent	1.0	89.0	stroop	89	0.519	red	blue	incongruent	s192
106.385	1.5	congruent	1.0	71.0	stroop	71	0.477	blue	blue	congruent	s192
108.662	1.5	incongruent	1.0	89.0	stroop	89	0.726	red	green	incongruent	s192
110.664	1.5	congruent	1.0	89.0	stroop	89	0.39	red	red	congruent	s192
113.078	1.5	congruent	1.0	71.0	stroop	71	0.505	blue	blue	congruent	s192
115.08	1.5	congruent	1.0	82.0	stroop	82	0.703	green	green	congruent	s192
117.223	1.5	congruent	0.0	71.0	stroop	89	0.524	blue	blue	congruent	s192
119.228	1.5	congruent	1.0	71.0	stroop	71	0.502	blue	blue	congruent	s192
121.233	1.5	incongruent	1.0	71.0	stroop	71	0.695	blue	green	incongruent	s192
123.239	1.5	congruent	1.0	82.0	stroop	82	0.64	green	green	congruent	s192
125.516	1.5	incongruent	1.0	89.0	stroop	89	0.579	red	green	incongruent	s192
127.522	1.5	incongruent	1.0	89.0	stroop	89	0.446	red	blue	incongruent	s192
129.799	1.5	incongruent	1.0	89.0	stroop	89	0.417	red	blue	incongruent	s192
132.076	1.5	incongruent	1.0	82.0	stroop	82	0.563	green	red	incongruent	s192
134.079	1.5	congruent	1.0	89.0	stroop	89	0.614	red	red	congruent	s192
136.765	1.5	incongruent	1.0	82.0	stroop	82	0.524	green	blue	incongruent	s192
138.768	1.5	congruent	1.0	82.0	stroop	82	0.498	green	green	congruent	s192
141.046	1.5	congruent	1.0	82.0	stroop	82	0.579	green	green	congruent	s192
143.047	1.5	congruent	1.0	89.0	stroop	89	0.405	red	red	congruent	s192
145.053	1.5	incongruent	1.0	71.0	stroop	71	0.373	blue	red	incongruent	s192
147.328	1.5	congruent	1.0	89.0	stroop	89	0.627	red	red	congruent	s192
149.469	1.5	congruent	1.0	82.0	stroop	82	0.569	green	green	congruent	s192
152.016	1.5	incongruent	1.0	89.0	stroop	89	0.59	red	green	incongruent	s192
154.426	1.5	incongruent	0.0	82.0	stroop	71	0.4	green	blue	incongruent	s192
156.429	1.5	incongruent	1.0	71.0	stroop	71	0.558	blue	red	incongruent	s192
158.434	1.5	incongruent	1.0	82.0	stroop	82	0.977	green	red	incongruent	s192
160.44	1.5	congruent	1.0	71.0	stroop	71	0.542	blue	blue	congruent	s192
162.987	1.5	congruent	1.0	71.0	stroop	71	0.53	blue	blue	congruent	s192
165.128	1.5	congruent	1.0	71.0	stroop	71	0.41	blue	blue	congruent	s192
167.133	1.5	congruent	1.0	89.0	stroop	89	0.477	red	red	congruent	s192
169.139	1.5	congruent	1.0	82.0	stroop	82	0.545	green	green	congruent	s192
171.412	1.5	incongruent	1.0	82.0	stroop	82	0.459	green	red	incongruent	s192
173.416	1.5	congruent	1.0	71.0	stroop	71	0.444	blue	blue	congruent	s192
175.419	1.5	incongruent	1.0	82.0	stroop	82	1.124	green	red	incongruent	s192
177.56	1.5	incongruent	1.0	89.0	stroop	89	0.494	red	blue	incongruent	s192
179.566	1.5	incongruent	1.0	89.0	stroop	89	0.48	red	blue	incongruent	s192
181.841	1.5	congruent	0.0	82.0	stroop	71	0.509	green	green	congruent	s192
183.979	1.5	incongruent	1.0	71.0	stroop	71	0.753	blue	green	incongruent	s192
186.39	1.5	congruent	1.0	82.0	stroop	82	0.572	green	green	congruent	s192
188.393	1.5	congruent	1.0	82.0	stroop	82	0.466	green	green	congruent	s192
190.398	1.5	incongruent	1.0	89.0	stroop	89	0.486	red	blue	incongruent	s192
193.22	1.5	incongruent	1.0	89.0	stroop	89	0.536	red	blue	incongruent	s192
195.222	1.5	incongruent	1.0	82.0	stroop	82	0.497	green	blue	incongruent	s192
197.228	1.5	congruent	1.0	82.0	stroop	82	0.65	green	green	congruent	s192
199.369	1.5	congruent	1.0	89.0	stroop	89	0.573	red	red	congruent	s192
201.374	1.5	incongruent	1.0	82.0	stroop	82	0.971	green	blue	incongruent	s192
203.379	1.5	congruent	1.0	82.0	stroop	82	0.474	green	green	congruent	s192
205.381	1.5	incongruent	1.0	89.0	stroop	89	0.639	red	green	incongruent	s192
207.385	1.5	congruent	1.0	71.0	stroop	71	0.483	blue	blue	congruent	s192
