onset	duration	SS_delay	correct_response	experiment_exp_id	key_press	response_time	stopped	trial_type	worker_id
3.008	0.85	0.3	71.0	stop_signal	71.0	0.593	False	stop_failure	s172
6.076	0.85	0.25	71.0	stop_signal	-1.0	n/a	True	stop_success	s172
8.328	0.85	0.3	71.0	stop_signal	71.0	0.63	False	go	s172
10.717	0.85	0.3	71.0	stop_signal	71.0	0.625	False	stop_failure	s172
13.104	0.85	0.25	89.0	stop_signal	89.0	0.621	False	go	s172
15.629	0.85	0.25	89.0	stop_signal	89.0	0.64	False	go	s172
18.017	0.85	0.25	89.0	stop_signal	89.0	0.571	False	go	s172
20.406	0.85	0.25	71.0	stop_signal	-1.0	n/a	True	stop_success	s172
23.202	0.85	0.3	89.0	stop_signal	89.0	0.477	False	go	s172
25.59	0.85	0.3	89.0	stop_signal	-1.0	n/a	True	stop_success	s172
27.842	0.85	0.35	89.0	stop_signal	89.0	0.632	False	stop_failure	s172
30.366	0.85	0.3	71.0	stop_signal	-1.0	n/a	True	stop_success	s172
32.754	0.85	0.35	89.0	stop_signal	89.0	0.593	False	go	s172
35.142	0.85	0.35	89.0	stop_signal	-1.0	n/a	True	stop_success	s172
37.394	0.85	0.4	89.0	stop_signal	89.0	0.614	False	go	s172
39.782	0.85	0.4	89.0	stop_signal	89.0	0.773	False	go	s172
42.034	0.85	0.4	89.0	stop_signal	-1.0	n/a	True	stop_success	s172
44.287	0.85	0.45	71.0	stop_signal	71.0	0.672	False	go	s172
46.539	0.85	0.45	71.0	stop_signal	71.0	0.687	False	go	s172
48.926	0.85	0.45	89.0	stop_signal	89.0	0.54	False	stop_failure	s172
51.179	0.85	0.4	89.0	stop_signal	89.0	0.605	False	stop_failure	s172
53.432	0.85	0.35	71.0	stop_signal	-1.0	n/a	True	stop_success	s172
55.82	0.85	0.4	71.0	stop_signal	-1.0	n/a	True	stop_success	s172
58.209	0.85	0.45	71.0	stop_signal	71.0	0.647	False	go	s172
60.46	0.85	0.45	71.0	stop_signal	-1.0	n/a	True	stop_success	s172
62.984	0.85	0.5	89.0	stop_signal	89.0	0.515	False	go	s172
65.236	0.85	0.5	71.0	stop_signal	71.0	0.968	False	go	s172
67.625	0.85	0.5	71.0	stop_signal	71.0	0.493	False	go	s172
69.877	0.85	0.5	71.0	stop_signal	71.0	0.607	False	stop_failure	s172
72.13	0.85	0.45	71.0	stop_signal	89.0	0.596	False	go	s172
74.519	0.85	0.45	89.0	stop_signal	89.0	0.585	False	go	s172
77.043	0.85	0.45	71.0	stop_signal	71.0	0.54	False	go	s172
79.431	0.85	0.45	89.0	stop_signal	89.0	0.669	False	go	s172
81.955	0.85	0.45	71.0	stop_signal	71.0	0.573	False	stop_failure	s172
84.888	0.85	0.4	89.0	stop_signal	89.0	0.551	False	go	s172
87.412	0.85	0.4	89.0	stop_signal	89.0	0.656	False	go	s172
89.936	0.85	0.4	71.0	stop_signal	71.0	0.735	False	go	s172
92.189	0.85	0.4	71.0	stop_signal	-1.0	n/a	True	stop_success	s172
94.714	0.85	0.45	89.0	stop_signal	89.0	0.624	False	go	s172
97.102	0.85	0.45	89.0	stop_signal	89.0	0.604	False	go	s172
99.354	0.85	0.45	71.0	stop_signal	71.0	0.558	False	go	s172
112.249	0.85	0.45	71.0	stop_signal	71.0	0.494	False	go	s172
114.501	0.85	0.45	89.0	stop_signal	89.0	0.655	False	stop_failure	s172
116.889	0.85	0.4	89.0	stop_signal	89.0	0.501	False	go	s172
119.413	0.85	0.4	71.0	stop_signal	71.0	0.487	False	stop_failure	s172
121.665	0.85	0.35	71.0	stop_signal	-1.0	n/a	True	stop_success	s172
124.053	0.85	0.4	89.0	stop_signal	89.0	0.456	False	go	s172
126.713	0.85	0.4	89.0	stop_signal	89.0	0.505	False	stop_failure	s172
128.965	0.85	0.35	71.0	stop_signal	71.0	0.687	False	go	s172
132.171	0.85	0.35	89.0	stop_signal	89.0	0.567	False	go	s172
134.558	0.85	0.35	89.0	stop_signal	89.0	0.554	False	go	s172
136.947	0.85	0.35	71.0	stop_signal	71.0	0.545	False	stop_failure	s172
139.471	0.85	0.3	71.0	stop_signal	71.0	0.517	False	go	s172
141.723	0.85	0.3	71.0	stop_signal	-1.0	n/a	True	stop_success	s172
143.975	0.85	0.35	71.0	stop_signal	-1.0	n/a	True	stop_success	s172
146.228	0.85	0.4	89.0	stop_signal	89.0	0.441	False	go	s172
149.16	0.85	0.4	71.0	stop_signal	71.0	0.542	False	go	s172
151.684	0.85	0.4	71.0	stop_signal	71.0	0.676	False	go	s172
154.209	0.85	0.4	89.0	stop_signal	89.0	0.592	False	go	s172
156.461	0.85	0.4	71.0	stop_signal	71.0	0.569	False	stop_failure	s172
158.986	0.85	0.35	89.0	stop_signal	89.0	0.484	False	stop_failure	s172
161.239	0.85	0.3	89.0	stop_signal	89.0	0.604	False	go	s172
163.626	0.85	0.3	89.0	stop_signal	-1.0	n/a	True	stop_success	s172
165.879	0.85	0.35	71.0	stop_signal	71.0	0.551	False	go	s172
168.539	0.85	0.35	71.0	stop_signal	71.0	0.712	False	go	s172
171.2	0.85	0.35	71.0	stop_signal	71.0	0.537	False	go	s172
173.452	0.85	0.35	71.0	stop_signal	71.0	0.514	False	go	s172
175.704	0.85	0.35	71.0	stop_signal	71.0	0.624	False	go	s172
178.092	0.85	0.35	89.0	stop_signal	89.0	0.495	False	stop_failure	s172
180.888	0.85	0.3	89.0	stop_signal	89.0	0.384	False	stop_failure	s172
183.277	0.85	0.25	71.0	stop_signal	-1.0	n/a	True	stop_success	s172
185.53	0.85	0.3	89.0	stop_signal	-1.0	n/a	True	stop_success	s172
187.782	0.85	0.35	71.0	stop_signal	-1.0	n/a	True	stop_success	s172
190.034	0.85	0.4	89.0	stop_signal	89.0	0.502	False	go	s172
192.695	0.85	0.4	71.0	stop_signal	71.0	0.823	False	go	s172
195.355	0.85	0.4	89.0	stop_signal	89.0	0.614	False	go	s172
197.607	0.85	0.4	89.0	stop_signal	89.0	0.56	False	go	s172
200.132	0.85	0.4	89.0	stop_signal	89.0	0.557	False	go	s172
202.385	0.85	0.4	89.0	stop_signal	89.0	0.504	False	stop_failure	s172
204.909	0.85	0.35	71.0	stop_signal	71.0	0.559	False	go	s172
207.433	0.85	0.35	89.0	stop_signal	89.0	0.667	False	stop_failure	s172
209.958	0.85	0.3	89.0	stop_signal	-1.0	n/a	True	stop_success	s172
212.346	0.85	0.35	89.0	stop_signal	-1.0	n/a	True	stop_success	s172
225.377	0.85	0.4	89.0	stop_signal	89.0	0.666	False	go	s172
227.901	0.85	0.4	89.0	stop_signal	89.0	0.531	False	go	s172
230.29	0.85	0.4	71.0	stop_signal	71.0	0.589	False	go	s172
232.542	0.85	0.4	89.0	stop_signal	89.0	0.673	False	go	s172
235.066	0.85	0.4	89.0	stop_signal	89.0	0.506	False	go	s172
237.863	0.85	0.4	89.0	stop_signal	89.0	0.459	False	stop_failure	s172
240.388	0.85	0.35	71.0	stop_signal	-1.0	n/a	True	stop_success	s172
242.775	0.85	0.4	71.0	stop_signal	71.0	0.628	False	go	s172
245.028	0.85	0.4	71.0	stop_signal	-1.0	n/a	True	stop_success	s172
247.281	0.85	0.45	89.0	stop_signal	89.0	0.612	False	stop_failure	s172
249.532	0.85	0.4	71.0	stop_signal	-1.0	n/a	True	stop_success	s172
251.784	0.85	0.45	89.0	stop_signal	89.0	0.402	False	go	s172
254.308	0.85	0.45	71.0	stop_signal	71.0	0.547	False	go	s172
256.56	0.85	0.45	89.0	stop_signal	89.0	0.655	False	stop_failure	s172
258.813	0.85	0.4	89.0	stop_signal	89.0	0.595	False	go	s172
261.065	0.85	0.4	71.0	stop_signal	71.0	0.819	False	go	s172
263.317	0.85	0.4	71.0	stop_signal	71.0	0.5	False	go	s172
265.706	0.85	0.4	71.0	stop_signal	71.0	0.597	False	go	s172
267.958	0.85	0.4	71.0	stop_signal	71.0	0.658	False	stop_failure	s172
270.211	0.85	0.35	71.0	stop_signal	71.0	0.562	False	go	s172
272.463	0.85	0.35	89.0	stop_signal	-1.0	n/a	True	stop_success	s172
274.716	0.85	0.4	89.0	stop_signal	89.0	0.542	False	stop_failure	s172
277.24	0.85	0.35	89.0	stop_signal	89.0	0.526	False	go	s172
279.629	0.85	0.35	71.0	stop_signal	71.0	0.563	False	go	s172
282.153	0.85	0.35	71.0	stop_signal	71.0	0.539	False	stop_failure	s172
284.405	0.85	0.3	71.0	stop_signal	71.0	0.69	False	go	s172
286.794	0.85	0.3	71.0	stop_signal	71.0	0.9	False	go	s172
289.182	0.85	0.3	89.0	stop_signal	89.0	0.694	False	go	s172
291.434	0.85	0.3	71.0	stop_signal	71.0	0.565	False	go	s172
293.823	0.85	0.3	89.0	stop_signal	89.0	0.535	False	go	s172
296.211	0.85	0.3	89.0	stop_signal	-1.0	n/a	True	stop_success	s172
298.6	0.85	0.35	89.0	stop_signal	89.0	0.364	False	go	s172
301.26	0.85	0.35	71.0	stop_signal	71.0	0.549	False	go	s172
303.785	0.85	0.35	89.0	stop_signal	89.0	0.389	False	stop_failure	s172
306.038	0.85	0.3	89.0	stop_signal	89.0	0.469	False	stop_failure	s172
308.97	0.85	0.25	71.0	stop_signal	71.0	0.526	False	go	s172
311.222	0.85	0.25	89.0	stop_signal	89.0	0.62	False	go	s172
313.747	0.85	0.25	89.0	stop_signal	-1.0	n/a	True	stop_success	s172
315.999	0.85	0.3	89.0	stop_signal	89.0	0.589	False	go	s172
318.251	0.85	0.3	71.0	stop_signal	71.0	0.461	False	go	s172
320.504	0.85	0.3	71.0	stop_signal	71.0	0.576	False	go	s172
322.756	0.85	0.3	89.0	stop_signal	89.0	0.534	False	go	s172
