onset	duration	planning	condition	current_position	exp_stage	experiment_exp_id	goal_state	key_press	problem_id	response_time	start_state	trial_id	worker_id
-56.012	0.0	0	n/a	n/a	n/a	ward_and_allport	n/a	32.0	n/a	14.903	n/a	instructions	s172
3.007	2.559	1	UA_with_intermediate	0,0,0,2,3,0,0,0,0	practice	ward_and_allport	1,2,3,0,0,0,0,0,0	89.0	0.0	2.559	1,0,0,2,3,0,0,0,0	to_hand	s172
5.567	0.563	0	UA_with_intermediate	0,0,0,2,3,0,1,0,0	practice	ward_and_allport	1,2,3,0,0,0,0,0,0	82.0	0.0	0.563	1,0,0,2,3,0,0,0,0	to_board	s172
6.132	1.33	0	UA_with_intermediate	0,0,0,2,0,0,1,0,0	practice	ward_and_allport	1,2,3,0,0,0,0,0,0	71.0	0.0	1.33	1,0,0,2,3,0,0,0,0	to_hand	s172
7.462	0.333	0	UA_with_intermediate	3,0,0,2,0,0,1,0,0	practice	ward_and_allport	1,2,3,0,0,0,0,0,0	89.0	0.0	0.333	1,0,0,2,3,0,0,0,0	to_board	s172
7.797	0.895	0	UA_with_intermediate	3,0,0,0,0,0,1,0,0	practice	ward_and_allport	1,2,3,0,0,0,0,0,0	71.0	0.0	0.895	1,0,0,2,3,0,0,0,0	to_hand	s172
8.693	0.371	0	UA_with_intermediate	3,2,0,0,0,0,1,0,0	practice	ward_and_allport	1,2,3,0,0,0,0,0,0	89.0	0.0	0.371	1,0,0,2,3,0,0,0,0	to_board	s172
9.066	0.354	0	UA_with_intermediate	3,2,0,0,0,0,0,0,0	practice	ward_and_allport	1,2,3,0,0,0,0,0,0	82.0	0.0	0.354	1,0,0,2,3,0,0,0,0	to_hand	s172
9.421	0.471	0	UA_with_intermediate	3,2,0,1,0,0,0,0,0	practice	ward_and_allport	1,2,3,0,0,0,0,0,0	71.0	0.0	0.471	1,0,0,2,3,0,0,0,0	to_board	s172
9.894	0.731	0	UA_with_intermediate	3,2,0,0,0,0,0,0,0	practice	ward_and_allport	1,2,3,0,0,0,0,0,0	71.0	0.0	0.731	1,0,0,2,3,0,0,0,0	to_hand	s172
10.626	0.558	0	UA_with_intermediate	3,2,0,1,0,0,0,0,0	practice	ward_and_allport	1,2,3,0,0,0,0,0,0	71.0	0.0	0.558	1,0,0,2,3,0,0,0,0	to_board	s172
11.187	0.341	0	UA_with_intermediate	3,0,0,1,0,0,0,0,0	practice	ward_and_allport	1,2,3,0,0,0,0,0,0	89.0	0.0	0.341	1,0,0,2,3,0,0,0,0	to_hand	s172
11.529	0.311	0	UA_with_intermediate	3,0,0,1,2,0,0,0,0	practice	ward_and_allport	1,2,3,0,0,0,0,0,0	71.0	0.0	0.311	1,0,0,2,3,0,0,0,0	to_board	s172
11.84	0.451	0	UA_with_intermediate	0,0,0,1,2,0,0,0,0	practice	ward_and_allport	1,2,3,0,0,0,0,0,0	89.0	0.0	0.451	1,0,0,2,3,0,0,0,0	to_hand	s172
12.293	0.324	0	UA_with_intermediate	0,0,0,1,2,3,0,0,0	practice	ward_and_allport	1,2,3,0,0,0,0,0,0	71.0	0.0	0.324	1,0,0,2,3,0,0,0,0	to_board	s172
12.619	13.449	0	UA_with_intermediate	0,0,0,1,2,0,0,0,0	practice	ward_and_allport	1,2,3,0,0,0,0,0,0	71.0	0.0	13.449	1,0,0,2,3,0,0,0,0	to_hand	s172
26.068	0.616	0	UA_with_intermediate	0,0,0,1,2,0,3,0,0	practice	ward_and_allport	1,2,3,0,0,0,0,0,0	82.0	0.0	0.616	1,0,0,2,3,0,0,0,0	to_board	s172
26.686	0.4	0	UA_with_intermediate	0,0,0,1,0,0,3,0,0	practice	ward_and_allport	1,2,3,0,0,0,0,0,0	71.0	0.0	0.4	1,0,0,2,3,0,0,0,0	to_hand	s172
27.087	0.312	0	UA_with_intermediate	0,0,0,1,0,0,3,2,0	practice	ward_and_allport	1,2,3,0,0,0,0,0,0	82.0	0.0	0.312	1,0,0,2,3,0,0,0,0	to_board	s172
27.402	0.628	0	UA_with_intermediate	0,0,0,0,0,0,3,2,0	practice	ward_and_allport	1,2,3,0,0,0,0,0,0	71.0	0.0	0.628	1,0,0,2,3,0,0,0,0	to_hand	s172
28.031	0.305	0	UA_with_intermediate	1,0,0,0,0,0,3,2,0	practice	ward_and_allport	1,2,3,0,0,0,0,0,0	89.0	0.0	0.305	1,0,0,2,3,0,0,0,0	to_board	s172
28.338	0.984	0	UA_with_intermediate	1,0,0,0,0,0,3,0,0	practice	ward_and_allport	1,2,3,0,0,0,0,0,0	82.0	0.0	0.984	1,0,0,2,3,0,0,0,0	to_hand	s172
29.324	0.348	0	UA_with_intermediate	1,2,0,0,0,0,3,0,0	practice	ward_and_allport	1,2,3,0,0,0,0,0,0	89.0	0.0	0.348	1,0,0,2,3,0,0,0,0	to_board	s172
29.673	0.463	0	UA_with_intermediate	1,2,0,0,0,0,0,0,0	practice	ward_and_allport	1,2,3,0,0,0,0,0,0	82.0	0.0	0.463	1,0,0,2,3,0,0,0,0	to_hand	s172
30.137	0.277	0	UA_with_intermediate	1,2,3,0,0,0,0,0,0	practice	ward_and_allport	1,2,3,0,0,0,0,0,0	89.0	0.0	0.277	1,0,0,2,3,0,0,0,0	to_board	s172
30.418	1.0	0	UA_with_intermediate	n/a	practice	ward_and_allport	n/a	-1.0	0.0	n/a	n/a	feedback	s172
32.92	2.135	1	UA_with_intermediate	1,2,0,0,0,0,0,0,0	practice	ward_and_allport	1,3,2,0,0,0,0,0,0	71.0	1.0	2.135	1,2,0,3,0,0,0,0,0	to_hand	s172
35.057	1.235	0	UA_with_intermediate	1,2,0,0,0,0,3,0,0	practice	ward_and_allport	1,3,2,0,0,0,0,0,0	82.0	1.0	1.235	1,2,0,3,0,0,0,0,0	to_board	s172
36.294	1.454	0	UA_with_intermediate	1,0,0,0,0,0,3,0,0	practice	ward_and_allport	1,3,2,0,0,0,0,0,0	89.0	1.0	1.454	1,2,0,3,0,0,0,0,0	to_hand	s172
37.748	0.235	0	UA_with_intermediate	1,0,0,2,0,0,3,0,0	practice	ward_and_allport	1,3,2,0,0,0,0,0,0	71.0	1.0	0.235	1,2,0,3,0,0,0,0,0	to_board	s172
37.985	0.965	0	UA_with_intermediate	1,0,0,2,0,0,0,0,0	practice	ward_and_allport	1,3,2,0,0,0,0,0,0	82.0	1.0	0.965	1,2,0,3,0,0,0,0,0	to_hand	s172
38.952	0.538	0	UA_with_intermediate	1,3,0,2,0,0,0,0,0	practice	ward_and_allport	1,3,2,0,0,0,0,0,0	89.0	1.0	0.538	1,2,0,3,0,0,0,0,0	to_board	s172
39.492	0.544	0	UA_with_intermediate	1,3,0,0,0,0,0,0,0	practice	ward_and_allport	1,3,2,0,0,0,0,0,0	71.0	1.0	0.544	1,2,0,3,0,0,0,0,0	to_hand	s172
40.036	0.363	0	UA_with_intermediate	1,3,2,0,0,0,0,0,0	practice	ward_and_allport	1,3,2,0,0,0,0,0,0	89.0	1.0	0.363	1,2,0,3,0,0,0,0,0	to_board	s172
40.403	1.0	0	UA_with_intermediate	n/a	practice	ward_and_allport	n/a	-1.0	1.0	n/a	n/a	feedback	s172
41.403	1.1	0	UA_with_intermediate	n/a	practice	ward_and_allport	n/a	-1.0	1.0	n/a	n/a	ITI	s172
42.506	1.471	1	UA_without_intermediate	0,0,0,1,0,0,3,0,0	practice	ward_and_allport	3,2,1,0,0,0,0,0,0	71.0	2.0	1.471	0,0,0,1,2,0,3,0,0	to_hand	s172
43.977	0.471	0	UA_without_intermediate	0,0,0,1,0,0,3,2,0	practice	ward_and_allport	3,2,1,0,0,0,0,0,0	82.0	2.0	0.471	0,0,0,1,2,0,3,0,0	to_board	s172
44.45	1.014	0	UA_without_intermediate	0,0,0,0,0,0,3,2,0	practice	ward_and_allport	3,2,1,0,0,0,0,0,0	71.0	2.0	1.014	0,0,0,1,2,0,3,0,0	to_hand	s172
45.466	0.624	0	UA_without_intermediate	0,0,0,1,0,0,3,2,0	practice	ward_and_allport	3,2,1,0,0,0,0,0,0	71.0	2.0	0.624	0,0,0,1,2,0,3,0,0	to_board	s172
46.092	0.453	0	UA_without_intermediate	0,0,0,1,0,0,3,0,0	practice	ward_and_allport	3,2,1,0,0,0,0,0,0	82.0	2.0	0.453	0,0,0,1,2,0,3,0,0	to_hand	s172
46.546	0.311	0	UA_without_intermediate	0,0,0,1,2,0,3,0,0	practice	ward_and_allport	3,2,1,0,0,0,0,0,0	71.0	2.0	0.311	0,0,0,1,2,0,3,0,0	to_board	s172
46.859	0.47	0	UA_without_intermediate	0,0,0,1,2,0,0,0,0	practice	ward_and_allport	3,2,1,0,0,0,0,0,0	82.0	2.0	0.47	0,0,0,1,2,0,3,0,0	to_hand	s172
47.33	0.363	0	UA_without_intermediate	3,0,0,1,2,0,0,0,0	practice	ward_and_allport	3,2,1,0,0,0,0,0,0	89.0	2.0	0.363	0,0,0,1,2,0,3,0,0	to_board	s172
47.696	0.423	0	UA_without_intermediate	3,0,0,1,0,0,0,0,0	practice	ward_and_allport	3,2,1,0,0,0,0,0,0	71.0	2.0	0.423	0,0,0,1,2,0,3,0,0	to_hand	s172
48.12	0.348	0	UA_without_intermediate	3,2,0,1,0,0,0,0,0	practice	ward_and_allport	3,2,1,0,0,0,0,0,0	89.0	2.0	0.348	0,0,0,1,2,0,3,0,0	to_board	s172
48.177	1.0	0	UA_without_intermediate	n/a	practice	ward_and_allport	n/a	-1.0	2.0	n/a	n/a	feedback	s172
48.469	0.712	0	UA_without_intermediate	3,2,0,0,0,0,0,0,0	practice	ward_and_allport	3,2,1,0,0,0,0,0,0	71.0	2.0	0.712	0,0,0,1,2,0,3,0,0	to_hand	s172
49.177	1.2	0	UA_without_intermediate	n/a	practice	ward_and_allport	n/a	-1.0	2.0	n/a	n/a	ITI	s172
49.182	-1.008	0	UA_without_intermediate	3,2,1,0,0,0,0,0,0	practice	ward_and_allport	3,2,1,0,0,0,0,0,0	89.0	2.0	-1.008	0,0,0,1,2,0,3,0,0	to_board	s172
50.38	1.219	1	UA_without_intermediate	0,0,0,1,0,0,3,0,0	practice	ward_and_allport	2,3,1,0,0,0,0,0,0	71.0	3.0	1.219	0,0,0,1,2,0,3,0,0	to_hand	s172
51.599	0.351	0	UA_without_intermediate	2,0,0,1,0,0,3,0,0	practice	ward_and_allport	2,3,1,0,0,0,0,0,0	89.0	3.0	0.351	0,0,0,1,2,0,3,0,0	to_board	s172
51.953	0.829	0	UA_without_intermediate	2,0,0,1,0,0,0,0,0	practice	ward_and_allport	2,3,1,0,0,0,0,0,0	82.0	3.0	0.829	0,0,0,1,2,0,3,0,0	to_hand	s172
52.783	0.345	0	UA_without_intermediate	2,3,0,1,0,0,0,0,0	practice	ward_and_allport	2,3,1,0,0,0,0,0,0	89.0	3.0	0.345	0,0,0,1,2,0,3,0,0	to_board	s172
53.13	0.395	0	UA_without_intermediate	2,3,0,0,0,0,0,0,0	practice	ward_and_allport	2,3,1,0,0,0,0,0,0	71.0	3.0	0.395	0,0,0,1,2,0,3,0,0	to_hand	s172
53.526	0.324	0	UA_without_intermediate	2,3,1,0,0,0,0,0,0	practice	ward_and_allport	2,3,1,0,0,0,0,0,0	89.0	3.0	0.324	0,0,0,1,2,0,3,0,0	to_board	s172
53.854	1.0	0	UA_without_intermediate	n/a	practice	ward_and_allport	n/a	-1.0	3.0	n/a	n/a	feedback	s172
54.854	1.0	0	UA_without_intermediate	n/a	practice	ward_and_allport	n/a	-1.0	3.0	n/a	n/a	ITI	s172
57.86	2.849	1	PA_with_intermediate	1,2,0,0,0,0,0,0,0	test	ward_and_allport	1,0,0,0,0,0,2,3,0	89.0	0.0	2.849	1,2,3,0,0,0,0,0,0	to_hand	s172
60.71	0.405	0	PA_with_intermediate	1,2,0,3,0,0,0,0,0	test	ward_and_allport	1,0,0,0,0,0,2,3,0	71.0	0.0	0.405	1,2,3,0,0,0,0,0,0	to_board	s172
61.118	0.632	0	PA_with_intermediate	1,0,0,3,0,0,0,0,0	test	ward_and_allport	1,0,0,0,0,0,2,3,0	89.0	0.0	0.632	1,2,3,0,0,0,0,0,0	to_hand	s172
61.75	0.412	0	PA_with_intermediate	1,0,0,3,0,0,2,0,0	test	ward_and_allport	1,0,0,0,0,0,2,3,0	82.0	0.0	0.412	1,2,3,0,0,0,0,0,0	to_board	s172
62.165	1.201	0	PA_with_intermediate	1,0,0,0,0,0,2,0,0	test	ward_and_allport	1,0,0,0,0,0,2,3,0	71.0	0.0	1.201	1,2,3,0,0,0,0,0,0	to_hand	s172
63.366	0.343	0	PA_with_intermediate	1,0,0,0,0,0,2,3,0	test	ward_and_allport	1,0,0,0,0,0,2,3,0	82.0	0.0	0.343	1,2,3,0,0,0,0,0,0	to_board	s172
63.714	1.0	0	PA_with_intermediate	n/a	test	ward_and_allport	n/a	-1.0	0.0	n/a	n/a	feedback	s172
64.714	1.408	0	PA_with_intermediate	n/a	test	ward_and_allport	n/a	-1.0	0.0	n/a	n/a	ITI	s172
66.125	1.405	1	PA_without_intermediate	0,0,0,1,2,0,0,0,0	test	ward_and_allport	2,0,0,0,0,0,3,1,0	71.0	1.0	1.405	0,0,0,1,2,3,0,0,0	to_hand	s172
67.531	0.794	0	PA_without_intermediate	0,0,0,1,2,0,3,0,0	test	ward_and_allport	2,0,0,0,0,0,3,1,0	82.0	1.0	0.794	0,0,0,1,2,3,0,0,0	to_board	s172
68.327	0.365	0	PA_without_intermediate	0,0,0,1,0,0,3,0,0	test	ward_and_allport	2,0,0,0,0,0,3,1,0	71.0	1.0	0.365	0,0,0,1,2,3,0,0,0	to_hand	s172
68.694	0.373	0	PA_without_intermediate	2,0,0,1,0,0,3,0,0	test	ward_and_allport	2,0,0,0,0,0,3,1,0	89.0	1.0	0.373	0,0,0,1,2,3,0,0,0	to_board	s172
69.07	0.411	0	PA_without_intermediate	2,0,0,0,0,0,3,0,0	test	ward_and_allport	2,0,0,0,0,0,3,1,0	71.0	1.0	0.411	0,0,0,1,2,3,0,0,0	to_hand	s172
69.482	0.4	0	PA_without_intermediate	2,0,0,0,0,0,3,1,0	test	ward_and_allport	2,0,0,0,0,0,3,1,0	82.0	1.0	0.4	0,0,0,1,2,3,0,0,0	to_board	s172
69.885	1.0	0	PA_without_intermediate	n/a	test	ward_and_allport	n/a	-1.0	1.0	n/a	n/a	feedback	s172
70.885	1.68	0	PA_without_intermediate	n/a	test	ward_and_allport	n/a	-1.0	1.0	n/a	n/a	ITI	s172
72.568	1.489	1	PA_with_intermediate	0,0,0,0,0,0,1,2,0	test	ward_and_allport	2,0,0,0,0,0,1,3,0	82.0	2.0	1.489	0,0,0,0,0,0,1,2,3	to_hand	s172
74.058	1.144	0	PA_with_intermediate	3,0,0,0,0,0,1,2,0	test	ward_and_allport	2,0,0,0,0,0,1,3,0	89.0	2.0	1.144	0,0,0,0,0,0,1,2,3	to_board	s172
75.204	0.984	0	PA_with_intermediate	3,0,0,0,0,0,1,0,0	test	ward_and_allport	2,0,0,0,0,0,1,3,0	82.0	2.0	0.984	0,0,0,0,0,0,1,2,3	to_hand	s172
76.19	0.447	0	PA_with_intermediate	3,0,0,2,0,0,1,0,0	test	ward_and_allport	2,0,0,0,0,0,1,3,0	71.0	2.0	0.447	0,0,0,0,0,0,1,2,3	to_board	s172
76.64	0.561	0	PA_with_intermediate	0,0,0,2,0,0,1,0,0	test	ward_and_allport	2,0,0,0,0,0,1,3,0	89.0	2.0	0.561	0,0,0,0,0,0,1,2,3	to_hand	s172
77.202	0.623	0	PA_with_intermediate	0,0,0,2,0,0,1,3,0	test	ward_and_allport	2,0,0,0,0,0,1,3,0	82.0	2.0	0.623	0,0,0,0,0,0,1,2,3	to_board	s172
77.828	0.336	0	PA_with_intermediate	0,0,0,0,0,0,1,3,0	test	ward_and_allport	2,0,0,0,0,0,1,3,0	71.0	2.0	0.336	0,0,0,0,0,0,1,2,3	to_hand	s172
78.164	0.299	0	PA_with_intermediate	2,0,0,0,0,0,1,3,0	test	ward_and_allport	2,0,0,0,0,0,1,3,0	89.0	2.0	0.299	0,0,0,0,0,0,1,2,3	to_board	s172
78.467	1.0	0	PA_with_intermediate	n/a	test	ward_and_allport	n/a	-1.0	2.0	n/a	n/a	feedback	s172
79.467	3.72	0	PA_with_intermediate	n/a	test	ward_and_allport	n/a	-1.0	2.0	n/a	n/a	ITI	s172
83.191	2.302	1	PA_without_intermediate	0,0,0,0,0,0,1,2,0	test	ward_and_allport	3,1,0,2,0,0,0,0,0	82.0	3.0	2.302	0,0,0,0,0,0,1,2,3	to_hand	s172
85.494	0.327	0	PA_without_intermediate	3,0,0,0,0,0,1,2,0	test	ward_and_allport	3,1,0,2,0,0,0,0,0	89.0	3.0	0.327	0,0,0,0,0,0,1,2,3	to_board	s172
85.823	2.129	0	PA_without_intermediate	0,0,0,0,0,0,1,2,0	test	ward_and_allport	3,1,0,2,0,0,0,0,0	89.0	3.0	2.129	0,0,0,0,0,0,1,2,3	to_hand	s172
87.952	0.945	0	PA_without_intermediate	3,0,0,0,0,0,1,2,0	test	ward_and_allport	3,1,0,2,0,0,0,0,0	89.0	3.0	0.945	0,0,0,0,0,0,1,2,3	to_board	s172
88.9	1.038	0	PA_without_intermediate	3,0,0,0,0,0,1,0,0	test	ward_and_allport	3,1,0,2,0,0,0,0,0	82.0	3.0	1.038	0,0,0,0,0,0,1,2,3	to_hand	s172
89.939	0.497	0	PA_without_intermediate	3,0,0,2,0,0,1,0,0	test	ward_and_allport	3,1,0,2,0,0,0,0,0	71.0	3.0	0.497	0,0,0,0,0,0,1,2,3	to_board	s172
90.44	0.639	0	PA_without_intermediate	3,0,0,2,0,0,0,0,0	test	ward_and_allport	3,1,0,2,0,0,0,0,0	82.0	3.0	0.639	0,0,0,0,0,0,1,2,3	to_hand	s172
91.081	0.323	0	PA_without_intermediate	3,1,0,2,0,0,0,0,0	test	ward_and_allport	3,1,0,2,0,0,0,0,0	89.0	3.0	0.323	0,0,0,0,0,0,1,2,3	to_board	s172
91.408	1.0	0	PA_without_intermediate	n/a	test	ward_and_allport	n/a	-1.0	3.0	n/a	n/a	feedback	s172
92.408	2.224	0	PA_without_intermediate	n/a	test	ward_and_allport	n/a	-1.0	3.0	n/a	n/a	ITI	s172
94.636	1.141	1	PA_without_intermediate	0,0,0,0,0,0,1,2,0	test	ward_and_allport	2,0,0,3,1,0,0,0,0	82.0	4.0	1.141	0,0,0,0,0,0,1,2,3	to_hand	s172
95.777	0.424	0	PA_without_intermediate	0,0,0,3,0,0,1,2,0	test	ward_and_allport	2,0,0,3,1,0,0,0,0	71.0	4.0	0.424	0,0,0,0,0,0,1,2,3	to_board	s172
96.205	0.692	0	PA_without_intermediate	0,0,0,3,0,0,1,0,0	test	ward_and_allport	2,0,0,3,1,0,0,0,0	82.0	4.0	0.692	0,0,0,0,0,0,1,2,3	to_hand	s172
96.898	0.366	0	PA_without_intermediate	2,0,0,3,0,0,1,0,0	test	ward_and_allport	2,0,0,3,1,0,0,0,0	89.0	4.0	0.366	0,0,0,0,0,0,1,2,3	to_board	s172
97.267	0.428	0	PA_without_intermediate	2,0,0,3,0,0,0,0,0	test	ward_and_allport	2,0,0,3,1,0,0,0,0	82.0	4.0	0.428	0,0,0,0,0,0,1,2,3	to_hand	s172
97.696	0.33	0	PA_without_intermediate	2,0,0,3,1,0,0,0,0	test	ward_and_allport	2,0,0,3,1,0,0,0,0	71.0	4.0	0.33	0,0,0,0,0,0,1,2,3	to_board	s172
98.031	1.0	0	PA_without_intermediate	n/a	test	ward_and_allport	n/a	-1.0	4.0	n/a	n/a	feedback	s172
99.031	1.272	0	PA_without_intermediate	n/a	test	ward_and_allport	n/a	-1.0	4.0	n/a	n/a	ITI	s172
100.307	1.826	1	PA_with_intermediate	0,0,0,0,0,0,1,2,0	test	ward_and_allport	0,0,0,2,3,0,1,0,0	82.0	5.0	1.826	0,0,0,0,0,0,1,2,3	to_hand	s172
102.134	0.561	0	PA_with_intermediate	0,0,0,3,0,0,1,2,0	test	ward_and_allport	0,0,0,2,3,0,1,0,0	71.0	5.0	0.561	0,0,0,0,0,0,1,2,3	to_board	s172
102.698	0.738	0	PA_with_intermediate	0,0,0,3,0,0,1,0,0	test	ward_and_allport	0,0,0,2,3,0,1,0,0	82.0	5.0	0.738	0,0,0,0,0,0,1,2,3	to_hand	s172
103.437	0.724	0	PA_with_intermediate	0,0,0,3,0,0,1,2,0	test	ward_and_allport	0,0,0,2,3,0,1,0,0	82.0	5.0	0.724	0,0,0,0,0,0,1,2,3	to_board	s172
104.165	0.705	0	PA_with_intermediate	0,0,0,0,0,0,1,2,0	test	ward_and_allport	0,0,0,2,3,0,1,0,0	71.0	5.0	0.705	0,0,0,0,0,0,1,2,3	to_hand	s172
104.87	0.467	0	PA_with_intermediate	3,0,0,0,0,0,1,2,0	test	ward_and_allport	0,0,0,2,3,0,1,0,0	89.0	5.0	0.467	0,0,0,0,0,0,1,2,3	to_board	s172
105.343	0.398	0	PA_with_intermediate	3,0,0,0,0,0,1,0,0	test	ward_and_allport	0,0,0,2,3,0,1,0,0	82.0	5.0	0.398	0,0,0,0,0,0,1,2,3	to_hand	s172
105.741	0.481	0	PA_with_intermediate	3,0,0,2,0,0,1,0,0	test	ward_and_allport	0,0,0,2,3,0,1,0,0	71.0	5.0	0.481	0,0,0,0,0,0,1,2,3	to_board	s172
106.227	0.472	0	PA_with_intermediate	0,0,0,2,0,0,1,0,0	test	ward_and_allport	0,0,0,2,3,0,1,0,0	89.0	5.0	0.472	0,0,0,0,0,0,1,2,3	to_hand	s172
106.701	0.268	0	PA_with_intermediate	0,0,0,2,3,0,1,0,0	test	ward_and_allport	0,0,0,2,3,0,1,0,0	71.0	5.0	0.268	0,0,0,0,0,0,1,2,3	to_board	s172
106.974	1.0	0	PA_with_intermediate	n/a	test	ward_and_allport	n/a	-1.0	5.0	n/a	n/a	feedback	s172
107.974	2.632	0	PA_with_intermediate	n/a	test	ward_and_allport	n/a	-1.0	5.0	n/a	n/a	ITI	s172
110.611	1.339	1	PA_without_intermediate	0,0,0,0,0,0,1,2,0	test	ward_and_allport	2,0,0,3,1,0,0,0,0	82.0	6.0	1.339	0,0,0,0,0,0,1,2,3	to_hand	s172
111.951	0.737	0	PA_without_intermediate	0,0,0,3,0,0,1,2,0	test	ward_and_allport	2,0,0,3,1,0,0,0,0	71.0	6.0	0.737	0,0,0,0,0,0,1,2,3	to_board	s172
112.693	0.382	0	PA_without_intermediate	0,0,0,3,0,0,1,0,0	test	ward_and_allport	2,0,0,3,1,0,0,0,0	82.0	6.0	0.382	0,0,0,0,0,0,1,2,3	to_hand	s172
113.079	0.298	0	PA_without_intermediate	2,0,0,3,0,0,1,0,0	test	ward_and_allport	2,0,0,3,1,0,0,0,0	89.0	6.0	0.298	0,0,0,0,0,0,1,2,3	to_board	s172
113.381	0.429	0	PA_without_intermediate	2,0,0,3,0,0,0,0,0	test	ward_and_allport	2,0,0,3,1,0,0,0,0	82.0	6.0	0.429	0,0,0,0,0,0,1,2,3	to_hand	s172
113.811	0.368	0	PA_without_intermediate	2,0,0,3,1,0,0,0,0	test	ward_and_allport	2,0,0,3,1,0,0,0,0	71.0	6.0	0.368	0,0,0,0,0,0,1,2,3	to_board	s172
114.185	1.0	0	PA_without_intermediate	n/a	test	ward_and_allport	n/a	-1.0	6.0	n/a	n/a	feedback	s172
115.185	1.408	0	PA_without_intermediate	n/a	test	ward_and_allport	n/a	-1.0	6.0	n/a	n/a	ITI	s172
116.596	1.981	1	PA_without_intermediate	1,2,0,0,0,0,0,0,0	test	ward_and_allport	0,0,0,1,0,0,3,2,0	89.0	7.0	1.981	1,2,3,0,0,0,0,0,0	to_hand	s172
118.578	0.359	0	PA_without_intermediate	1,2,0,0,0,0,3,0,0	test	ward_and_allport	0,0,0,1,0,0,3,2,0	82.0	7.0	0.359	1,2,3,0,0,0,0,0,0	to_board	s172
118.942	0.559	0	PA_without_intermediate	1,0,0,0,0,0,3,0,0	test	ward_and_allport	0,0,0,1,0,0,3,2,0	89.0	7.0	0.559	1,2,3,0,0,0,0,0,0	to_hand	s172
119.501	0.288	0	PA_without_intermediate	1,0,0,0,0,0,3,2,0	test	ward_and_allport	0,0,0,1,0,0,3,2,0	82.0	7.0	0.288	1,2,3,0,0,0,0,0,0	to_board	s172
119.794	1.005	0	PA_without_intermediate	0,0,0,0,0,0,3,2,0	test	ward_and_allport	0,0,0,1,0,0,3,2,0	89.0	7.0	1.005	1,2,3,0,0,0,0,0,0	to_hand	s172
120.8	0.254	0	PA_without_intermediate	0,0,0,1,0,0,3,2,0	test	ward_and_allport	0,0,0,1,0,0,3,2,0	71.0	7.0	0.254	1,2,3,0,0,0,0,0,0	to_board	s172
121.06	1.0	0	PA_without_intermediate	n/a	test	ward_and_allport	n/a	-1.0	7.0	n/a	n/a	feedback	s172
122.06	1.0	0	PA_without_intermediate	n/a	test	ward_and_allport	n/a	-1.0	7.0	n/a	n/a	ITI	s172
123.064	1.404	1	PA_with_intermediate	1,2,0,0,0,0,0,0,0	test	ward_and_allport	1,3,0,0,0,0,2,0,0	89.0	8.0	1.404	1,2,3,0,0,0,0,0,0	to_hand	s172
124.468	0.922	0	PA_with_intermediate	1,2,0,3,0,0,0,0,0	test	ward_and_allport	1,3,0,0,0,0,2,0,0	71.0	8.0	0.922	1,2,3,0,0,0,0,0,0	to_board	s172
125.393	0.342	0	PA_with_intermediate	1,0,0,3,0,0,0,0,0	test	ward_and_allport	1,3,0,0,0,0,2,0,0	89.0	8.0	0.342	1,2,3,0,0,0,0,0,0	to_hand	s172
125.736	0.325	0	PA_with_intermediate	1,0,0,3,0,0,2,0,0	test	ward_and_allport	1,3,0,0,0,0,2,0,0	82.0	8.0	0.325	1,2,3,0,0,0,0,0,0	to_board	s172
126.065	0.653	0	PA_with_intermediate	1,0,0,0,0,0,2,0,0	test	ward_and_allport	1,3,0,0,0,0,2,0,0	71.0	8.0	0.653	1,2,3,0,0,0,0,0,0	to_hand	s172
126.719	0.27	0	PA_with_intermediate	1,3,0,0,0,0,2,0,0	test	ward_and_allport	1,3,0,0,0,0,2,0,0	89.0	8.0	0.27	1,2,3,0,0,0,0,0,0	to_board	s172
126.996	1.0	0	PA_with_intermediate	n/a	test	ward_and_allport	n/a	-1.0	8.0	n/a	n/a	feedback	s172
127.996	1.0	0	PA_with_intermediate	n/a	test	ward_and_allport	n/a	-1.0	8.0	n/a	n/a	ITI	s172
129.0	0.934	1	PA_with_intermediate	1,2,0,0,0,0,0,0,0	test	ward_and_allport	1,0,0,2,3,0,0,0,0	89.0	9.0	0.934	1,2,3,0,0,0,0,0,0	to_hand	s172
129.935	1.02	0	PA_with_intermediate	1,2,0,0,0,0,3,0,0	test	ward_and_allport	1,0,0,2,3,0,0,0,0	82.0	9.0	1.02	1,2,3,0,0,0,0,0,0	to_board	s172
130.959	0.397	0	PA_with_intermediate	1,0,0,0,0,0,3,0,0	test	ward_and_allport	1,0,0,2,3,0,0,0,0	89.0	9.0	0.397	1,2,3,0,0,0,0,0,0	to_hand	s172
131.358	0.349	0	PA_with_intermediate	1,0,0,2,0,0,3,0,0	test	ward_and_allport	1,0,0,2,3,0,0,0,0	71.0	9.0	0.349	1,2,3,0,0,0,0,0,0	to_board	s172
131.712	0.337	0	PA_with_intermediate	1,0,0,2,0,0,0,0,0	test	ward_and_allport	1,0,0,2,3,0,0,0,0	82.0	9.0	0.337	1,2,3,0,0,0,0,0,0	to_hand	s172
132.049	0.35	0	PA_with_intermediate	1,3,0,2,0,0,0,0,0	test	ward_and_allport	1,0,0,2,3,0,0,0,0	89.0	9.0	0.35	1,2,3,0,0,0,0,0,0	to_board	s172
132.404	1.064	0	PA_with_intermediate	1,0,0,2,0,0,0,0,0	test	ward_and_allport	1,0,0,2,3,0,0,0,0	89.0	9.0	1.064	1,2,3,0,0,0,0,0,0	to_hand	s172
133.469	0.41	0	PA_with_intermediate	1,0,0,2,3,0,0,0,0	test	ward_and_allport	1,0,0,2,3,0,0,0,0	71.0	9.0	0.41	1,2,3,0,0,0,0,0,0	to_board	s172
133.884	1.0	0	PA_with_intermediate	n/a	test	ward_and_allport	n/a	-1.0	9.0	n/a	n/a	feedback	s172
134.884	1.0	0	PA_with_intermediate	n/a	test	ward_and_allport	n/a	-1.0	9.0	n/a	n/a	ITI	s172
135.887	1.603	1	PA_with_intermediate	0,0,0,0,0,0,1,2,0	test	ward_and_allport	0,0,0,2,0,0,1,3,0	82.0	10.0	1.603	0,0,0,0,0,0,1,2,3	to_hand	s172
137.491	0.936	0	PA_with_intermediate	3,0,0,0,0,0,1,2,0	test	ward_and_allport	0,0,0,2,0,0,1,3,0	89.0	10.0	0.936	0,0,0,0,0,0,1,2,3	to_board	s172
138.431	0.479	0	PA_with_intermediate	3,0,0,0,0,0,1,0,0	test	ward_and_allport	0,0,0,2,0,0,1,3,0	82.0	10.0	0.479	0,0,0,0,0,0,1,2,3	to_hand	s172
138.912	0.396	0	PA_with_intermediate	3,0,0,2,0,0,1,0,0	test	ward_and_allport	0,0,0,2,0,0,1,3,0	71.0	10.0	0.396	0,0,0,0,0,0,1,2,3	to_board	s172
139.312	0.611	0	PA_with_intermediate	0,0,0,2,0,0,1,0,0	test	ward_and_allport	0,0,0,2,0,0,1,3,0	89.0	10.0	0.611	0,0,0,0,0,0,1,2,3	to_hand	s172
139.924	0.546	0	PA_with_intermediate	0,0,0,2,0,0,1,3,0	test	ward_and_allport	0,0,0,2,0,0,1,3,0	82.0	10.0	0.546	0,0,0,0,0,0,1,2,3	to_board	s172
140.475	1.0	0	PA_with_intermediate	n/a	test	ward_and_allport	n/a	-1.0	10.0	n/a	n/a	feedback	s172
141.475	1.408	0	PA_with_intermediate	n/a	test	ward_and_allport	n/a	-1.0	10.0	n/a	n/a	ITI	s172
142.888	2.689	1	PA_without_intermediate	0,0,0,1,2,0,0,0,0	test	ward_and_allport	3,2,0,0,0,0,1,0,0	71.0	11.0	2.689	0,0,0,1,2,3,0,0,0	to_hand	s172
145.578	0.265	0	PA_without_intermediate	3,0,0,1,2,0,0,0,0	test	ward_and_allport	3,2,0,0,0,0,1,0,0	89.0	11.0	0.265	0,0,0,1,2,3,0,0,0	to_board	s172
145.847	0.715	0	PA_without_intermediate	3,0,0,1,0,0,0,0,0	test	ward_and_allport	3,2,0,0,0,0,1,0,0	71.0	11.0	0.715	0,0,0,1,2,3,0,0,0	to_hand	s172
146.563	0.248	0	PA_without_intermediate	3,2,0,1,0,0,0,0,0	test	ward_and_allport	3,2,0,0,0,0,1,0,0	89.0	11.0	0.248	0,0,0,1,2,3,0,0,0	to_board	s172
146.816	0.759	0	PA_without_intermediate	3,2,0,0,0,0,0,0,0	test	ward_and_allport	3,2,0,0,0,0,1,0,0	71.0	11.0	0.759	0,0,0,1,2,3,0,0,0	to_hand	s172
147.577	0.283	0	PA_without_intermediate	3,2,0,0,0,0,1,0,0	test	ward_and_allport	3,2,0,0,0,0,1,0,0	82.0	11.0	0.283	0,0,0,1,2,3,0,0,0	to_board	s172
147.866	1.0	0	PA_without_intermediate	n/a	test	ward_and_allport	n/a	-1.0	11.0	n/a	n/a	feedback	s172
148.866	1.816	0	PA_without_intermediate	n/a	test	ward_and_allport	n/a	-1.0	11.0	n/a	n/a	ITI	s172
150.687	1.293	1	PA_with_intermediate	0,0,0,1,2,0,0,0,0	test	ward_and_allport	2,3,0,1,0,0,0,0,0	71.0	12.0	1.293	0,0,0,1,2,3,0,0,0	to_hand	s172
151.981	0.524	0	PA_with_intermediate	0,0,0,1,2,0,3,0,0	test	ward_and_allport	2,3,0,1,0,0,0,0,0	82.0	12.0	0.524	0,0,0,1,2,3,0,0,0	to_board	s172
152.509	0.398	0	PA_with_intermediate	0,0,0,1,0,0,3,0,0	test	ward_and_allport	2,3,0,1,0,0,0,0,0	71.0	12.0	0.398	0,0,0,1,2,3,0,0,0	to_hand	s172
152.908	0.327	0	PA_with_intermediate	2,0,0,1,0,0,3,0,0	test	ward_and_allport	2,3,0,1,0,0,0,0,0	89.0	12.0	0.327	0,0,0,1,2,3,0,0,0	to_board	s172
153.24	0.39	0	PA_with_intermediate	2,0,0,1,0,0,0,0,0	test	ward_and_allport	2,3,0,1,0,0,0,0,0	82.0	12.0	0.39	0,0,0,1,2,3,0,0,0	to_hand	s172
153.63	0.338	0	PA_with_intermediate	2,3,0,1,0,0,0,0,0	test	ward_and_allport	2,3,0,1,0,0,0,0,0	89.0	12.0	0.338	0,0,0,1,2,3,0,0,0	to_board	s172
153.974	1.0	0	PA_with_intermediate	n/a	test	ward_and_allport	n/a	-1.0	12.0	n/a	n/a	feedback	s172
154.974	3.176	0	PA_with_intermediate	n/a	test	ward_and_allport	n/a	-1.0	12.0	n/a	n/a	ITI	s172
158.154	1.349	1	PA_with_intermediate	0,0,0,0,0,0,1,2,0	test	ward_and_allport	2,3,0,0,0,0,1,0,0	82.0	13.0	1.349	0,0,0,0,0,0,1,2,3	to_hand	s172
159.504	0.462	0	PA_with_intermediate	0,0,0,3,0,0,1,2,0	test	ward_and_allport	2,3,0,0,0,0,1,0,0	71.0	13.0	0.462	0,0,0,0,0,0,1,2,3	to_board	s172
159.97	0.704	0	PA_with_intermediate	0,0,0,3,0,0,1,0,0	test	ward_and_allport	2,3,0,0,0,0,1,0,0	82.0	13.0	0.704	0,0,0,0,0,0,1,2,3	to_hand	s172
160.675	0.332	0	PA_with_intermediate	2,0,0,3,0,0,1,0,0	test	ward_and_allport	2,3,0,0,0,0,1,0,0	89.0	13.0	0.332	0,0,0,0,0,0,1,2,3	to_board	s172
161.013	0.628	0	PA_with_intermediate	2,0,0,0,0,0,1,0,0	test	ward_and_allport	2,3,0,0,0,0,1,0,0	71.0	13.0	0.628	0,0,0,0,0,0,1,2,3	to_hand	s172
161.641	0.274	0	PA_with_intermediate	2,3,0,0,0,0,1,0,0	test	ward_and_allport	2,3,0,0,0,0,1,0,0	89.0	13.0	0.274	0,0,0,0,0,0,1,2,3	to_board	s172
161.921	1.0	0	PA_with_intermediate	n/a	test	ward_and_allport	n/a	-1.0	13.0	n/a	n/a	feedback	s172
162.921	2.36	0	PA_with_intermediate	n/a	test	ward_and_allport	n/a	-1.0	13.0	n/a	n/a	ITI	s172
165.286	1.15	1	PA_with_intermediate	0,0,0,1,2,0,0,0,0	test	ward_and_allport	0,0,0,1,0,0,2,3,0	71.0	14.0	1.15	0,0,0,1,2,3,0,0,0	to_hand	s172
166.438	0.745	0	PA_with_intermediate	3,0,0,1,2,0,0,0,0	test	ward_and_allport	0,0,0,1,0,0,2,3,0	89.0	14.0	0.745	0,0,0,1,2,3,0,0,0	to_board	s172
167.187	0.284	0	PA_with_intermediate	3,0,0,1,0,0,0,0,0	test	ward_and_allport	0,0,0,1,0,0,2,3,0	71.0	14.0	0.284	0,0,0,1,2,3,0,0,0	to_hand	s172
167.472	0.297	0	PA_with_intermediate	3,0,0,1,0,0,2,0,0	test	ward_and_allport	0,0,0,1,0,0,2,3,0	82.0	14.0	0.297	0,0,0,1,2,3,0,0,0	to_board	s172
167.775	0.287	0	PA_with_intermediate	0,0,0,1,0,0,2,0,0	test	ward_and_allport	0,0,0,1,0,0,2,3,0	89.0	14.0	0.287	0,0,0,1,2,3,0,0,0	to_hand	s172
168.064	0.32	0	PA_with_intermediate	0,0,0,1,0,0,2,3,0	test	ward_and_allport	0,0,0,1,0,0,2,3,0	82.0	14.0	0.32	0,0,0,1,2,3,0,0,0	to_board	s172
168.39	1.0	0	PA_with_intermediate	n/a	test	ward_and_allport	n/a	-1.0	14.0	n/a	n/a	feedback	s172
169.39	1.0	0	PA_with_intermediate	n/a	test	ward_and_allport	n/a	-1.0	14.0	n/a	n/a	ITI	s172
175.398	1.228	1	PA_without_intermediate	0,0,0,1,2,0,0,0,0	test	ward_and_allport	3,2,0,0,0,0,1,0,0	71.0	15.0	1.228	0,0,0,1,2,3,0,0,0	to_hand	s172
176.626	0.631	0	PA_without_intermediate	3,0,0,1,2,0,0,0,0	test	ward_and_allport	3,2,0,0,0,0,1,0,0	89.0	15.0	0.631	0,0,0,1,2,3,0,0,0	to_board	s172
177.263	0.296	0	PA_without_intermediate	3,0,0,1,0,0,0,0,0	test	ward_and_allport	3,2,0,0,0,0,1,0,0	71.0	15.0	0.296	0,0,0,1,2,3,0,0,0	to_hand	s172
177.559	0.327	0	PA_without_intermediate	3,2,0,1,0,0,0,0,0	test	ward_and_allport	3,2,0,0,0,0,1,0,0	89.0	15.0	0.327	0,0,0,1,2,3,0,0,0	to_board	s172
177.891	0.67	0	PA_without_intermediate	3,2,0,0,0,0,0,0,0	test	ward_and_allport	3,2,0,0,0,0,1,0,0	71.0	15.0	0.67	0,0,0,1,2,3,0,0,0	to_hand	s172
178.562	0.298	0	PA_without_intermediate	3,2,0,0,0,0,1,0,0	test	ward_and_allport	3,2,0,0,0,0,1,0,0	82.0	15.0	0.298	0,0,0,1,2,3,0,0,0	to_board	s172
178.866	1.0	0	PA_without_intermediate	n/a	test	ward_and_allport	n/a	-1.0	15.0	n/a	n/a	feedback	s172
179.866	1.408	0	PA_without_intermediate	n/a	test	ward_and_allport	n/a	-1.0	15.0	n/a	n/a	ITI	s172
181.279	2.133	1	PA_with_intermediate	0,0,0,0,0,0,1,2,0	test	ward_and_allport	2,0,0,0,0,0,1,3,0	82.0	16.0	2.133	0,0,0,0,0,0,1,2,3	to_hand	s172
183.412	1.203	0	PA_with_intermediate	0,0,0,3,0,0,1,2,0	test	ward_and_allport	2,0,0,0,0,0,1,3,0	71.0	16.0	1.203	0,0,0,0,0,0,1,2,3	to_board	s172
184.62	0.521	0	PA_with_intermediate	0,0,0,0,0,0,1,2,0	test	ward_and_allport	2,0,0,0,0,0,1,3,0	71.0	16.0	0.521	0,0,0,0,0,0,1,2,3	to_hand	s172
185.142	0.693	0	PA_with_intermediate	0,0,0,3,0,0,1,2,0	test	ward_and_allport	2,0,0,0,0,0,1,3,0	71.0	16.0	0.693	0,0,0,0,0,0,1,2,3	to_board	s172
185.841	0.76	0	PA_with_intermediate	0,0,0,3,0,0,1,0,0	test	ward_and_allport	2,0,0,0,0,0,1,3,0	82.0	16.0	0.76	0,0,0,0,0,0,1,2,3	to_hand	s172
186.602	0.311	0	PA_with_intermediate	2,0,0,3,0,0,1,0,0	test	ward_and_allport	2,0,0,0,0,0,1,3,0	89.0	16.0	0.311	0,0,0,0,0,0,1,2,3	to_board	s172
186.918	0.898	0	PA_with_intermediate	2,0,0,0,0,0,1,0,0	test	ward_and_allport	2,0,0,0,0,0,1,3,0	71.0	16.0	0.898	0,0,0,0,0,0,1,2,3	to_hand	s172
187.817	0.294	0	PA_with_intermediate	2,0,0,0,0,0,1,3,0	test	ward_and_allport	2,0,0,0,0,0,1,3,0	82.0	16.0	0.294	0,0,0,0,0,0,1,2,3	to_board	s172
188.119	1.0	0	PA_with_intermediate	n/a	test	ward_and_allport	n/a	-1.0	16.0	n/a	n/a	feedback	s172
189.119	1.816	0	PA_with_intermediate	n/a	test	ward_and_allport	n/a	-1.0	16.0	n/a	n/a	ITI	s172
190.94	1.932	1	PA_without_intermediate	1,2,0,0,0,0,0,0,0	test	ward_and_allport	0,0,0,3,1,0,2,0,0	89.0	17.0	1.932	1,2,3,0,0,0,0,0,0	to_hand	s172
192.872	0.366	0	PA_without_intermediate	1,2,0,3,0,0,0,0,0	test	ward_and_allport	0,0,0,3,1,0,2,0,0	71.0	17.0	0.366	1,2,3,0,0,0,0,0,0	to_board	s172
193.244	0.89	0	PA_without_intermediate	1,0,0,3,0,0,0,0,0	test	ward_and_allport	0,0,0,3,1,0,2,0,0	89.0	17.0	0.89	1,2,3,0,0,0,0,0,0	to_hand	s172
194.135	0.286	0	PA_without_intermediate	1,0,0,3,0,0,2,0,0	test	ward_and_allport	0,0,0,3,1,0,2,0,0	82.0	17.0	0.286	1,2,3,0,0,0,0,0,0	to_board	s172
194.428	0.524	0	PA_without_intermediate	0,0,0,3,0,0,2,0,0	test	ward_and_allport	0,0,0,3,1,0,2,0,0	89.0	17.0	0.524	1,2,3,0,0,0,0,0,0	to_hand	s172
194.953	0.268	0	PA_without_intermediate	0,0,0,3,1,0,2,0,0	test	ward_and_allport	0,0,0,3,1,0,2,0,0	71.0	17.0	0.268	1,2,3,0,0,0,0,0,0	to_board	s172
195.229	1.0	0	PA_without_intermediate	n/a	test	ward_and_allport	n/a	-1.0	17.0	n/a	n/a	feedback	s172
196.229	2.088	0	PA_without_intermediate	n/a	test	ward_and_allport	n/a	-1.0	17.0	n/a	n/a	ITI	s172
198.324	1.594	1	PA_without_intermediate	1,2,0,0,0,0,0,0,0	test	ward_and_allport	0,0,0,2,0,0,3,1,0	89.0	18.0	1.594	1,2,3,0,0,0,0,0,0	to_hand	s172
199.919	0.339	0	PA_without_intermediate	1,2,0,0,0,0,3,0,0	test	ward_and_allport	0,0,0,2,0,0,3,1,0	82.0	18.0	0.339	1,2,3,0,0,0,0,0,0	to_board	s172
200.263	0.954	0	PA_without_intermediate	1,0,0,0,0,0,3,0,0	test	ward_and_allport	0,0,0,2,0,0,3,1,0	89.0	18.0	0.954	1,2,3,0,0,0,0,0,0	to_hand	s172
201.219	0.26	0	PA_without_intermediate	1,0,0,2,0,0,3,0,0	test	ward_and_allport	0,0,0,2,0,0,3,1,0	71.0	18.0	0.26	1,2,3,0,0,0,0,0,0	to_board	s172
201.484	0.387	0	PA_without_intermediate	0,0,0,2,0,0,3,0,0	test	ward_and_allport	0,0,0,2,0,0,3,1,0	89.0	18.0	0.387	1,2,3,0,0,0,0,0,0	to_hand	s172
201.872	0.433	0	PA_without_intermediate	0,0,0,2,0,0,3,1,0	test	ward_and_allport	0,0,0,2,0,0,3,1,0	82.0	18.0	0.433	1,2,3,0,0,0,0,0,0	to_board	s172
202.313	1.0	0	PA_without_intermediate	n/a	test	ward_and_allport	n/a	-1.0	18.0	n/a	n/a	feedback	s172
203.313	1.136	0	PA_without_intermediate	n/a	test	ward_and_allport	n/a	-1.0	18.0	n/a	n/a	ITI	s172
204.456	1.991	1	PA_without_intermediate	0,0,0,0,0,0,1,2,0	test	ward_and_allport	3,2,0,1,0,0,0,0,0	82.0	19.0	1.991	0,0,0,0,0,0,1,2,3	to_hand	s172
206.448	0.939	0	PA_without_intermediate	3,0,0,0,0,0,1,2,0	test	ward_and_allport	3,2,0,1,0,0,0,0,0	89.0	19.0	0.939	0,0,0,0,0,0,1,2,3	to_board	s172
207.394	0.74	0	PA_without_intermediate	3,0,0,0,0,0,1,0,0	test	ward_and_allport	3,2,0,1,0,0,0,0,0	82.0	19.0	0.74	0,0,0,0,0,0,1,2,3	to_hand	s172
208.134	0.334	0	PA_without_intermediate	3,2,0,0,0,0,1,0,0	test	ward_and_allport	3,2,0,1,0,0,0,0,0	89.0	19.0	0.334	0,0,0,0,0,0,1,2,3	to_board	s172
208.474	0.899	0	PA_without_intermediate	3,2,0,0,0,0,0,0,0	test	ward_and_allport	3,2,0,1,0,0,0,0,0	82.0	19.0	0.899	0,0,0,0,0,0,1,2,3	to_hand	s172
209.374	0.298	0	PA_without_intermediate	3,2,0,1,0,0,0,0,0	test	ward_and_allport	3,2,0,1,0,0,0,0,0	71.0	19.0	0.298	0,0,0,0,0,0,1,2,3	to_board	s172
209.68	1.0	0	PA_without_intermediate	n/a	test	ward_and_allport	n/a	-1.0	19.0	n/a	n/a	feedback	s172
210.68	6.168	0	PA_without_intermediate	n/a	test	ward_and_allport	n/a	-1.0	19.0	n/a	n/a	ITI	s172
216.854	1.289	1	PA_without_intermediate	0,0,0,1,2,0,0,0,0	test	ward_and_allport	2,0,0,0,0,0,3,1,0	71.0	20.0	1.289	0,0,0,1,2,3,0,0,0	to_hand	s172
218.144	0.785	0	PA_without_intermediate	0,0,0,1,2,0,3,0,0	test	ward_and_allport	2,0,0,0,0,0,3,1,0	82.0	20.0	0.785	0,0,0,1,2,3,0,0,0	to_board	s172
218.935	0.566	0	PA_without_intermediate	0,0,0,1,0,0,3,0,0	test	ward_and_allport	2,0,0,0,0,0,3,1,0	71.0	20.0	0.566	0,0,0,1,2,3,0,0,0	to_hand	s172
219.503	0.369	0	PA_without_intermediate	2,0,0,1,0,0,3,0,0	test	ward_and_allport	2,0,0,0,0,0,3,1,0	89.0	20.0	0.369	0,0,0,1,2,3,0,0,0	to_board	s172
219.878	0.291	0	PA_without_intermediate	2,0,0,0,0,0,3,0,0	test	ward_and_allport	2,0,0,0,0,0,3,1,0	71.0	20.0	0.291	0,0,0,1,2,3,0,0,0	to_hand	s172
220.17	0.333	0	PA_without_intermediate	2,0,0,0,0,0,3,1,0	test	ward_and_allport	2,0,0,0,0,0,3,1,0	82.0	20.0	0.333	0,0,0,1,2,3,0,0,0	to_board	s172
220.511	1.0	0	PA_without_intermediate	n/a	test	ward_and_allport	n/a	-1.0	20.0	n/a	n/a	feedback	s172
221.511	1.816	0	PA_without_intermediate	n/a	test	ward_and_allport	n/a	-1.0	20.0	n/a	n/a	ITI	s172
223.333	1.371	1	PA_with_intermediate	1,2,0,0,0,0,0,0,0	test	ward_and_allport	1,0,0,0,0,0,2,3,0	89.0	21.0	1.371	1,2,3,0,0,0,0,0,0	to_hand	s172
224.706	0.793	0	PA_with_intermediate	1,2,0,3,0,0,0,0,0	test	ward_and_allport	1,0,0,0,0,0,2,3,0	71.0	21.0	0.793	1,2,3,0,0,0,0,0,0	to_board	s172
225.506	0.464	0	PA_with_intermediate	1,0,0,3,0,0,0,0,0	test	ward_and_allport	1,0,0,0,0,0,2,3,0	89.0	21.0	0.464	1,2,3,0,0,0,0,0,0	to_hand	s172
225.971	0.414	0	PA_with_intermediate	1,0,0,3,0,0,2,0,0	test	ward_and_allport	1,0,0,0,0,0,2,3,0	82.0	21.0	0.414	1,2,3,0,0,0,0,0,0	to_board	s172
226.391	0.324	0	PA_with_intermediate	1,0,0,0,0,0,2,0,0	test	ward_and_allport	1,0,0,0,0,0,2,3,0	71.0	21.0	0.324	1,2,3,0,0,0,0,0,0	to_hand	s172
226.717	0.308	0	PA_with_intermediate	1,0,0,0,0,0,2,3,0	test	ward_and_allport	1,0,0,0,0,0,2,3,0	82.0	21.0	0.308	1,2,3,0,0,0,0,0,0	to_board	s172
227.033	1.0	0	PA_with_intermediate	n/a	test	ward_and_allport	n/a	-1.0	21.0	n/a	n/a	feedback	s172
228.033	1.952	0	PA_with_intermediate	n/a	test	ward_and_allport	n/a	-1.0	21.0	n/a	n/a	ITI	s172
229.992	1.371	1	PA_with_intermediate	0,0,0,1,2,0,0,0,0	test	ward_and_allport	0,0,0,1,0,0,2,3,0	71.0	22.0	1.371	0,0,0,1,2,3,0,0,0	to_hand	s172
231.364	0.939	0	PA_with_intermediate	3,0,0,1,2,0,0,0,0	test	ward_and_allport	0,0,0,1,0,0,2,3,0	89.0	22.0	0.939	0,0,0,1,2,3,0,0,0	to_board	s172
232.31	0.304	0	PA_with_intermediate	3,0,0,1,0,0,0,0,0	test	ward_and_allport	0,0,0,1,0,0,2,3,0	71.0	22.0	0.304	0,0,0,1,2,3,0,0,0	to_hand	s172
232.615	0.309	0	PA_with_intermediate	3,0,0,1,0,0,2,0,0	test	ward_and_allport	0,0,0,1,0,0,2,3,0	82.0	22.0	0.309	0,0,0,1,2,3,0,0,0	to_board	s172
232.931	0.284	0	PA_with_intermediate	0,0,0,1,0,0,2,0,0	test	ward_and_allport	0,0,0,1,0,0,2,3,0	89.0	22.0	0.284	0,0,0,1,2,3,0,0,0	to_hand	s172
233.216	0.271	0	PA_with_intermediate	0,0,0,1,3,0,2,0,0	test	ward_and_allport	0,0,0,1,0,0,2,3,0	71.0	22.0	0.271	0,0,0,1,2,3,0,0,0	to_board	s172
233.494	0.989	0	PA_with_intermediate	0,0,0,1,0,0,2,0,0	test	ward_and_allport	0,0,0,1,0,0,2,3,0	71.0	22.0	0.989	0,0,0,1,2,3,0,0,0	to_hand	s172
234.484	0.282	0	PA_with_intermediate	0,0,0,1,0,0,2,3,0	test	ward_and_allport	0,0,0,1,0,0,2,3,0	82.0	22.0	0.282	0,0,0,1,2,3,0,0,0	to_board	s172
234.775	1.0	0	PA_with_intermediate	n/a	test	ward_and_allport	n/a	-1.0	22.0	n/a	n/a	feedback	s172
235.775	1.136	0	PA_with_intermediate	n/a	test	ward_and_allport	n/a	-1.0	22.0	n/a	n/a	ITI	s172
236.919	1.117	1	PA_without_intermediate	0,0,0,1,2,0,0,0,0	test	ward_and_allport	1,0,0,0,0,0,3,2,0	71.0	23.0	1.117	0,0,0,1,2,3,0,0,0	to_hand	s172
238.038	0.299	0	PA_without_intermediate	0,0,0,1,2,0,3,0,0	test	ward_and_allport	1,0,0,0,0,0,3,2,0	82.0	23.0	0.299	0,0,0,1,2,3,0,0,0	to_board	s172
238.344	0.297	0	PA_without_intermediate	0,0,0,1,0,0,3,0,0	test	ward_and_allport	1,0,0,0,0,0,3,2,0	71.0	23.0	0.297	0,0,0,1,2,3,0,0,0	to_hand	s172
238.642	0.309	0	PA_without_intermediate	0,0,0,1,0,0,3,2,0	test	ward_and_allport	1,0,0,0,0,0,3,2,0	82.0	23.0	0.309	0,0,0,1,2,3,0,0,0	to_board	s172
238.957	1.052	0	PA_without_intermediate	0,0,0,0,0,0,3,2,0	test	ward_and_allport	1,0,0,0,0,0,3,2,0	71.0	23.0	1.052	0,0,0,1,2,3,0,0,0	to_hand	s172
240.011	0.256	0	PA_without_intermediate	1,0,0,0,0,0,3,2,0	test	ward_and_allport	1,0,0,0,0,0,3,2,0	89.0	23.0	0.256	0,0,0,1,2,3,0,0,0	to_board	s172
240.274	1.0	0	PA_without_intermediate	n/a	test	ward_and_allport	n/a	-1.0	23.0	n/a	n/a	feedback	s172
241.274	1.68	0	PA_without_intermediate	n/a	test	ward_and_allport	n/a	-1.0	23.0	n/a	n/a	ITI	s172
242.961	1.087	1	PA_without_intermediate	0,0,0,1,2,0,0,0,0	test	ward_and_allport	3,1,0,0,0,0,2,0,0	71.0	24.0	1.087	0,0,0,1,2,3,0,0,0	to_hand	s172
244.05	0.449	0	PA_without_intermediate	3,0,0,1,2,0,0,0,0	test	ward_and_allport	3,1,0,0,0,0,2,0,0	89.0	24.0	0.449	0,0,0,1,2,3,0,0,0	to_board	s172
244.506	0.257	0	PA_without_intermediate	3,0,0,1,0,0,0,0,0	test	ward_and_allport	3,1,0,0,0,0,2,0,0	71.0	24.0	0.257	0,0,0,1,2,3,0,0,0	to_hand	s172
244.765	0.291	0	PA_without_intermediate	3,0,0,1,0,0,2,0,0	test	ward_and_allport	3,1,0,0,0,0,2,0,0	82.0	24.0	0.291	0,0,0,1,2,3,0,0,0	to_board	s172
245.063	0.305	0	PA_without_intermediate	3,0,0,0,0,0,2,0,0	test	ward_and_allport	3,1,0,0,0,0,2,0,0	71.0	24.0	0.305	0,0,0,1,2,3,0,0,0	to_hand	s172
245.369	0.3	0	PA_without_intermediate	3,1,0,0,0,0,2,0,0	test	ward_and_allport	3,1,0,0,0,0,2,0,0	89.0	24.0	0.3	0,0,0,1,2,3,0,0,0	to_board	s172
245.678	1.0	0	PA_without_intermediate	n/a	test	ward_and_allport	n/a	-1.0	24.0	n/a	n/a	feedback	s172
246.678	2.088	0	PA_without_intermediate	n/a	test	ward_and_allport	n/a	-1.0	24.0	n/a	n/a	ITI	s172
248.774	1.285	1	PA_with_intermediate	0,0,0,1,2,0,0,0,0	test	ward_and_allport	0,0,0,1,3,0,2,0,0	71.0	25.0	1.285	0,0,0,1,2,3,0,0,0	to_hand	s172
250.06	0.765	0	PA_with_intermediate	3,0,0,1,2,0,0,0,0	test	ward_and_allport	0,0,0,1,3,0,2,0,0	89.0	25.0	0.765	0,0,0,1,2,3,0,0,0	to_board	s172
250.832	0.227	0	PA_with_intermediate	3,0,0,1,0,0,0,0,0	test	ward_and_allport	0,0,0,1,3,0,2,0,0	71.0	25.0	0.227	0,0,0,1,2,3,0,0,0	to_hand	s172
251.06	0.285	0	PA_with_intermediate	3,0,0,1,0,0,2,0,0	test	ward_and_allport	0,0,0,1,3,0,2,0,0	82.0	25.0	0.285	0,0,0,1,2,3,0,0,0	to_board	s172
251.353	0.332	0	PA_with_intermediate	0,0,0,1,0,0,2,0,0	test	ward_and_allport	0,0,0,1,3,0,2,0,0	89.0	25.0	0.332	0,0,0,1,2,3,0,0,0	to_hand	s172
251.686	0.26	0	PA_with_intermediate	0,0,0,1,3,0,2,0,0	test	ward_and_allport	0,0,0,1,3,0,2,0,0	71.0	25.0	0.26	0,0,0,1,2,3,0,0,0	to_board	s172
251.956	1.0	0	PA_with_intermediate	n/a	test	ward_and_allport	n/a	-1.0	25.0	n/a	n/a	feedback	s172
252.956	1.0	0	PA_with_intermediate	n/a	test	ward_and_allport	n/a	-1.0	25.0	n/a	n/a	ITI	s172
253.965	1.81	1	PA_without_intermediate	0,0,0,0,0,0,1,2,0	test	ward_and_allport	3,1,0,2,0,0,0,0,0	82.0	26.0	1.81	0,0,0,0,0,0,1,2,3	to_hand	s172
255.775	0.338	0	PA_without_intermediate	3,0,0,0,0,0,1,2,0	test	ward_and_allport	3,1,0,2,0,0,0,0,0	89.0	26.0	0.338	0,0,0,0,0,0,1,2,3	to_board	s172
256.12	1.204	0	PA_without_intermediate	3,0,0,0,0,0,1,0,0	test	ward_and_allport	3,1,0,2,0,0,0,0,0	82.0	26.0	1.204	0,0,0,0,0,0,1,2,3	to_hand	s172
257.324	0.358	0	PA_without_intermediate	3,0,0,2,0,0,1,0,0	test	ward_and_allport	3,1,0,2,0,0,0,0,0	71.0	26.0	0.358	0,0,0,0,0,0,1,2,3	to_board	s172
257.687	0.988	0	PA_without_intermediate	3,0,0,2,0,0,0,0,0	test	ward_and_allport	3,1,0,2,0,0,0,0,0	82.0	26.0	0.988	0,0,0,0,0,0,1,2,3	to_hand	s172
258.677	0.221	0	PA_without_intermediate	3,1,0,2,0,0,0,0,0	test	ward_and_allport	3,1,0,2,0,0,0,0,0	89.0	26.0	0.221	0,0,0,0,0,0,1,2,3	to_board	s172
258.905	1.0	0	PA_without_intermediate	n/a	test	ward_and_allport	n/a	-1.0	26.0	n/a	n/a	feedback	s172
259.905	1.0	0	PA_without_intermediate	n/a	test	ward_and_allport	n/a	-1.0	26.0	n/a	n/a	ITI	s172
260.914	1.52	1	PA_without_intermediate	0,0,0,0,0,0,1,2,0	test	ward_and_allport	3,2,0,1,0,0,0,0,0	82.0	27.0	1.52	0,0,0,0,0,0,1,2,3	to_hand	s172
262.435	0.303	0	PA_without_intermediate	3,0,0,0,0,0,1,2,0	test	ward_and_allport	3,2,0,1,0,0,0,0,0	89.0	27.0	0.303	0,0,0,0,0,0,1,2,3	to_board	s172
262.746	0.818	0	PA_without_intermediate	3,0,0,0,0,0,1,0,0	test	ward_and_allport	3,2,0,1,0,0,0,0,0	82.0	27.0	0.818	0,0,0,0,0,0,1,2,3	to_hand	s172
263.566	0.332	0	PA_without_intermediate	3,2,0,0,0,0,1,0,0	test	ward_and_allport	3,2,0,1,0,0,0,0,0	89.0	27.0	0.332	0,0,0,0,0,0,1,2,3	to_board	s172
263.903	0.752	0	PA_without_intermediate	3,2,0,0,0,0,0,0,0	test	ward_and_allport	3,2,0,1,0,0,0,0,0	82.0	27.0	0.752	0,0,0,0,0,0,1,2,3	to_hand	s172
264.656	0.39	0	PA_without_intermediate	3,2,0,1,0,0,0,0,0	test	ward_and_allport	3,2,0,1,0,0,0,0,0	71.0	27.0	0.39	0,0,0,0,0,0,1,2,3	to_board	s172
265.054	1.0	0	PA_without_intermediate	n/a	test	ward_and_allport	n/a	-1.0	27.0	n/a	n/a	feedback	s172
266.054	1.0	0	PA_without_intermediate	n/a	test	ward_and_allport	n/a	-1.0	27.0	n/a	n/a	ITI	s172
267.06	1.366	1	PA_with_intermediate	1,2,0,0,0,0,0,0,0	test	ward_and_allport	1,3,0,0,0,0,2,0,0	89.0	28.0	1.366	1,2,3,0,0,0,0,0,0	to_hand	s172
268.427	0.93	0	PA_with_intermediate	1,2,0,3,0,0,0,0,0	test	ward_and_allport	1,3,0,0,0,0,2,0,0	71.0	28.0	0.93	1,2,3,0,0,0,0,0,0	to_board	s172
269.363	0.367	0	PA_with_intermediate	1,0,0,3,0,0,0,0,0	test	ward_and_allport	1,3,0,0,0,0,2,0,0	89.0	28.0	0.367	1,2,3,0,0,0,0,0,0	to_hand	s172
269.73	0.334	0	PA_with_intermediate	1,0,0,3,0,0,2,0,0	test	ward_and_allport	1,3,0,0,0,0,2,0,0	82.0	28.0	0.334	1,2,3,0,0,0,0,0,0	to_board	s172
270.073	0.556	0	PA_with_intermediate	1,0,0,0,0,0,2,0,0	test	ward_and_allport	1,3,0,0,0,0,2,0,0	71.0	28.0	0.556	1,2,3,0,0,0,0,0,0	to_hand	s172
270.631	0.285	0	PA_with_intermediate	1,3,0,0,0,0,2,0,0	test	ward_and_allport	1,3,0,0,0,0,2,0,0	89.0	28.0	0.285	1,2,3,0,0,0,0,0,0	to_board	s172
270.925	1.0	0	PA_with_intermediate	n/a	test	ward_and_allport	n/a	-1.0	28.0	n/a	n/a	feedback	s172
271.925	1.544	0	PA_with_intermediate	n/a	test	ward_and_allport	n/a	-1.0	28.0	n/a	n/a	ITI	s172
273.477	1.586	1	PA_without_intermediate	0,0,0,0,0,0,1,2,0	test	ward_and_allport	1,0,0,3,2,0,0,0,0	82.0	29.0	1.586	0,0,0,0,0,0,1,2,3	to_hand	s172
275.063	0.491	0	PA_without_intermediate	0,0,0,3,0,0,1,2,0	test	ward_and_allport	1,0,0,3,2,0,0,0,0	71.0	29.0	0.491	0,0,0,0,0,0,1,2,3	to_board	s172
275.56	0.402	0	PA_without_intermediate	0,0,0,3,0,0,1,0,0	test	ward_and_allport	1,0,0,3,2,0,0,0,0	82.0	29.0	0.402	0,0,0,0,0,0,1,2,3	to_hand	s172
275.962	0.381	0	PA_without_intermediate	0,0,0,3,2,0,1,0,0	test	ward_and_allport	1,0,0,3,2,0,0,0,0	71.0	29.0	0.381	0,0,0,0,0,0,1,2,3	to_board	s172
276.349	0.38	0	PA_without_intermediate	0,0,0,3,2,0,0,0,0	test	ward_and_allport	1,0,0,3,2,0,0,0,0	82.0	29.0	0.38	0,0,0,0,0,0,1,2,3	to_hand	s172
276.73	0.284	0	PA_without_intermediate	1,0,0,3,2,0,0,0,0	test	ward_and_allport	1,0,0,3,2,0,0,0,0	89.0	29.0	0.284	0,0,0,0,0,0,1,2,3	to_board	s172
277.022	1.0	0	PA_without_intermediate	n/a	test	ward_and_allport	n/a	-1.0	29.0	n/a	n/a	feedback	s172
278.022	1.272	0	PA_without_intermediate	n/a	test	ward_and_allport	n/a	-1.0	29.0	n/a	n/a	ITI	s172
284.302	1.149	1	PA_with_intermediate	0,0,0,1,2,0,0,0,0	test	ward_and_allport	2,0,0,1,3,0,0,0,0	71.0	30.0	1.149	0,0,0,1,2,3,0,0,0	to_hand	s172
285.453	1.141	0	PA_with_intermediate	0,0,0,1,2,0,3,0,0	test	ward_and_allport	2,0,0,1,3,0,0,0,0	82.0	30.0	1.141	0,0,0,1,2,3,0,0,0	to_board	s172
286.603	0.295	0	PA_with_intermediate	0,0,0,1,0,0,3,0,0	test	ward_and_allport	2,0,0,1,3,0,0,0,0	71.0	30.0	0.295	0,0,0,1,2,3,0,0,0	to_hand	s172
286.898	0.29	0	PA_with_intermediate	2,0,0,1,0,0,3,0,0	test	ward_and_allport	2,0,0,1,3,0,0,0,0	89.0	30.0	0.29	0,0,0,1,2,3,0,0,0	to_board	s172
287.198	0.312	0	PA_with_intermediate	2,0,0,1,0,0,0,0,0	test	ward_and_allport	2,0,0,1,3,0,0,0,0	82.0	30.0	0.312	0,0,0,1,2,3,0,0,0	to_hand	s172
287.511	0.287	0	PA_with_intermediate	2,0,0,1,3,0,0,0,0	test	ward_and_allport	2,0,0,1,3,0,0,0,0	71.0	30.0	0.287	0,0,0,1,2,3,0,0,0	to_board	s172
287.808	1.0	0	PA_with_intermediate	n/a	test	ward_and_allport	n/a	-1.0	30.0	n/a	n/a	feedback	s172
288.808	3.04	0	PA_with_intermediate	n/a	test	ward_and_allport	n/a	-1.0	30.0	n/a	n/a	ITI	s172
291.857	2.301	1	PA_with_intermediate	0,0,0,0,0,0,1,2,0	test	ward_and_allport	0,0,0,2,3,0,1,0,0	82.0	31.0	2.301	0,0,0,0,0,0,1,2,3	to_hand	s172
294.159	0.49	0	PA_with_intermediate	3,0,0,0,0,0,1,2,0	test	ward_and_allport	0,0,0,2,3,0,1,0,0	89.0	31.0	0.49	0,0,0,0,0,0,1,2,3	to_board	s172
294.656	1.019	0	PA_with_intermediate	3,0,0,0,0,0,1,0,0	test	ward_and_allport	0,0,0,2,3,0,1,0,0	82.0	31.0	1.019	0,0,0,0,0,0,1,2,3	to_hand	s172
295.677	0.392	0	PA_with_intermediate	3,0,0,2,0,0,1,0,0	test	ward_and_allport	0,0,0,2,3,0,1,0,0	71.0	31.0	0.392	0,0,0,0,0,0,1,2,3	to_board	s172
296.078	0.495	0	PA_with_intermediate	0,0,0,2,0,0,1,0,0	test	ward_and_allport	0,0,0,2,3,0,1,0,0	89.0	31.0	0.495	0,0,0,0,0,0,1,2,3	to_hand	s172
296.573	0.426	0	PA_with_intermediate	0,0,0,2,3,0,1,0,0	test	ward_and_allport	0,0,0,2,3,0,1,0,0	71.0	31.0	0.426	0,0,0,0,0,0,1,2,3	to_board	s172
297.01	1.0	0	PA_with_intermediate	n/a	test	ward_and_allport	n/a	-1.0	31.0	n/a	n/a	feedback	s172
298.01	1.272	0	PA_with_intermediate	n/a	test	ward_and_allport	n/a	-1.0	31.0	n/a	n/a	ITI	s172
299.289	1.279	1	PA_with_intermediate	0,0,0,1,2,0,0,0,0	test	ward_and_allport	0,0,0,1,3,0,2,0,0	71.0	32.0	1.279	0,0,0,1,2,3,0,0,0	to_hand	s172
300.569	0.822	0	PA_with_intermediate	3,0,0,1,2,0,0,0,0	test	ward_and_allport	0,0,0,1,3,0,2,0,0	89.0	32.0	0.822	0,0,0,1,2,3,0,0,0	to_board	s172
301.398	0.29	0	PA_with_intermediate	3,0,0,1,0,0,0,0,0	test	ward_and_allport	0,0,0,1,3,0,2,0,0	71.0	32.0	0.29	0,0,0,1,2,3,0,0,0	to_hand	s172
301.688	0.479	0	PA_with_intermediate	3,0,0,1,0,0,2,0,0	test	ward_and_allport	0,0,0,1,3,0,2,0,0	82.0	32.0	0.479	0,0,0,1,2,3,0,0,0	to_board	s172
302.174	0.449	0	PA_with_intermediate	0,0,0,1,0,0,2,0,0	test	ward_and_allport	0,0,0,1,3,0,2,0,0	89.0	32.0	0.449	0,0,0,1,2,3,0,0,0	to_hand	s172
302.623	0.252	0	PA_with_intermediate	0,0,0,1,3,0,2,0,0	test	ward_and_allport	0,0,0,1,3,0,2,0,0	71.0	32.0	0.252	0,0,0,1,2,3,0,0,0	to_board	s172
302.884	1.0	0	PA_with_intermediate	n/a	test	ward_and_allport	n/a	-1.0	32.0	n/a	n/a	feedback	s172
303.884	1.136	0	PA_with_intermediate	n/a	test	ward_and_allport	n/a	-1.0	32.0	n/a	n/a	ITI	s172
305.028	2.182	1	PA_with_intermediate	0,0,0,0,0,0,1,2,0	test	ward_and_allport	2,3,0,0,0,0,1,0,0	82.0	33.0	2.182	0,0,0,0,0,0,1,2,3	to_hand	s172
307.211	0.345	0	PA_with_intermediate	0,0,0,3,0,0,1,2,0	test	ward_and_allport	2,3,0,0,0,0,1,0,0	71.0	33.0	0.345	0,0,0,0,0,0,1,2,3	to_board	s172
307.565	0.381	0	PA_with_intermediate	0,0,0,3,0,0,1,0,0	test	ward_and_allport	2,3,0,0,0,0,1,0,0	82.0	33.0	0.381	0,0,0,0,0,0,1,2,3	to_hand	s172
307.946	0.372	0	PA_with_intermediate	2,0,0,3,0,0,1,0,0	test	ward_and_allport	2,3,0,0,0,0,1,0,0	89.0	33.0	0.372	0,0,0,0,0,0,1,2,3	to_board	s172
308.325	0.649	0	PA_with_intermediate	2,0,0,0,0,0,1,0,0	test	ward_and_allport	2,3,0,0,0,0,1,0,0	71.0	33.0	0.649	0,0,0,0,0,0,1,2,3	to_hand	s172
308.974	0.409	0	PA_with_intermediate	2,3,0,0,0,0,1,0,0	test	ward_and_allport	2,3,0,0,0,0,1,0,0	89.0	33.0	0.409	0,0,0,0,0,0,1,2,3	to_board	s172
309.392	1.0	0	PA_with_intermediate	n/a	test	ward_and_allport	n/a	-1.0	33.0	n/a	n/a	feedback	s172
310.392	1.0	0	PA_with_intermediate	n/a	test	ward_and_allport	n/a	-1.0	33.0	n/a	n/a	ITI	s172
311.398	1.69	1	PA_with_intermediate	0,0,0,1,2,0,0,0,0	test	ward_and_allport	2,3,0,1,0,0,0,0,0	71.0	34.0	1.69	0,0,0,1,2,3,0,0,0	to_hand	s172
313.089	0.38	0	PA_with_intermediate	0,0,0,1,2,0,3,0,0	test	ward_and_allport	2,3,0,1,0,0,0,0,0	82.0	34.0	0.38	0,0,0,1,2,3,0,0,0	to_board	s172
313.475	0.304	0	PA_with_intermediate	0,0,0,1,0,0,3,0,0	test	ward_and_allport	2,3,0,1,0,0,0,0,0	71.0	34.0	0.304	0,0,0,1,2,3,0,0,0	to_hand	s172
313.78	0.366	0	PA_with_intermediate	2,0,0,1,0,0,3,0,0	test	ward_and_allport	2,3,0,1,0,0,0,0,0	89.0	34.0	0.366	0,0,0,1,2,3,0,0,0	to_board	s172
314.153	0.5	0	PA_with_intermediate	2,0,0,1,0,0,0,0,0	test	ward_and_allport	2,3,0,1,0,0,0,0,0	82.0	34.0	0.5	0,0,0,1,2,3,0,0,0	to_hand	s172
314.653	0.354	0	PA_with_intermediate	2,3,0,1,0,0,0,0,0	test	ward_and_allport	2,3,0,1,0,0,0,0,0	89.0	34.0	0.354	0,0,0,1,2,3,0,0,0	to_board	s172
315.015	1.0	0	PA_with_intermediate	n/a	test	ward_and_allport	n/a	-1.0	34.0	n/a	n/a	feedback	s172
316.015	1.0	0	PA_with_intermediate	n/a	test	ward_and_allport	n/a	-1.0	34.0	n/a	n/a	ITI	s172
317.022	1.953	1	PA_without_intermediate	1,2,0,0,0,0,0,0,0	test	ward_and_allport	0,0,0,3,2,0,1,0,0	89.0	35.0	1.953	1,2,3,0,0,0,0,0,0	to_hand	s172
318.976	0.417	0	PA_without_intermediate	1,2,0,3,0,0,0,0,0	test	ward_and_allport	0,0,0,3,2,0,1,0,0	71.0	35.0	0.417	1,2,3,0,0,0,0,0,0	to_board	s172
319.4	0.827	0	PA_without_intermediate	1,0,0,3,0,0,0,0,0	test	ward_and_allport	0,0,0,3,2,0,1,0,0	89.0	35.0	0.827	1,2,3,0,0,0,0,0,0	to_hand	s172
320.228	0.468	0	PA_without_intermediate	1,0,0,3,2,0,0,0,0	test	ward_and_allport	0,0,0,3,2,0,1,0,0	71.0	35.0	0.468	1,2,3,0,0,0,0,0,0	to_board	s172
320.706	0.364	0	PA_without_intermediate	0,0,0,3,2,0,0,0,0	test	ward_and_allport	0,0,0,3,2,0,1,0,0	89.0	35.0	0.364	1,2,3,0,0,0,0,0,0	to_hand	s172
321.071	0.377	0	PA_without_intermediate	0,0,0,3,2,0,1,0,0	test	ward_and_allport	0,0,0,3,2,0,1,0,0	82.0	35.0	0.377	1,2,3,0,0,0,0,0,0	to_board	s172
321.457	1.0	0	PA_without_intermediate	n/a	test	ward_and_allport	n/a	-1.0	35.0	n/a	n/a	feedback	s172
322.457	1.408	0	PA_without_intermediate	n/a	test	ward_and_allport	n/a	-1.0	35.0	n/a	n/a	ITI	s172
323.873	1.487	1	PA_with_intermediate	1,2,0,0,0,0,0,0,0	test	ward_and_allport	1,3,0,2,0,0,0,0,0	89.0	36.0	1.487	1,2,3,0,0,0,0,0,0	to_hand	s172
325.361	1.092	0	PA_with_intermediate	1,2,0,0,0,0,3,0,0	test	ward_and_allport	1,3,0,2,0,0,0,0,0	82.0	36.0	1.092	1,2,3,0,0,0,0,0,0	to_board	s172
326.466	0.803	0	PA_with_intermediate	1,0,0,0,0,0,3,0,0	test	ward_and_allport	1,3,0,2,0,0,0,0,0	89.0	36.0	0.803	1,2,3,0,0,0,0,0,0	to_hand	s172
327.27	0.405	0	PA_with_intermediate	1,0,0,2,0,0,3,0,0	test	ward_and_allport	1,3,0,2,0,0,0,0,0	71.0	36.0	0.405	1,2,3,0,0,0,0,0,0	to_board	s172
327.686	0.739	0	PA_with_intermediate	1,0,0,2,0,0,0,0,0	test	ward_and_allport	1,3,0,2,0,0,0,0,0	82.0	36.0	0.739	1,2,3,0,0,0,0,0,0	to_hand	s172
328.425	0.33	0	PA_with_intermediate	1,3,0,2,0,0,0,0,0	test	ward_and_allport	1,3,0,2,0,0,0,0,0	89.0	36.0	0.33	1,2,3,0,0,0,0,0,0	to_board	s172
328.768	1.0	0	PA_with_intermediate	n/a	test	ward_and_allport	n/a	-1.0	36.0	n/a	n/a	feedback	s172
329.768	2.768	0	PA_with_intermediate	n/a	test	ward_and_allport	n/a	-1.0	36.0	n/a	n/a	ITI	s172
332.545	1.555	1	PA_with_intermediate	0,0,0,0,0,0,1,2,0	test	ward_and_allport	0,0,0,2,0,0,1,3,0	82.0	37.0	1.555	0,0,0,0,0,0,1,2,3	to_hand	s172
334.101	0.597	0	PA_with_intermediate	3,0,0,0,0,0,1,2,0	test	ward_and_allport	0,0,0,2,0,0,1,3,0	89.0	37.0	0.597	0,0,0,0,0,0,1,2,3	to_board	s172
334.705	0.703	0	PA_with_intermediate	3,0,0,0,0,0,1,0,0	test	ward_and_allport	0,0,0,2,0,0,1,3,0	82.0	37.0	0.703	0,0,0,0,0,0,1,2,3	to_hand	s172
335.41	0.349	0	PA_with_intermediate	3,0,0,2,0,0,1,0,0	test	ward_and_allport	0,0,0,2,0,0,1,3,0	71.0	37.0	0.349	0,0,0,0,0,0,1,2,3	to_board	s172
335.767	0.488	0	PA_with_intermediate	0,0,0,2,0,0,1,0,0	test	ward_and_allport	0,0,0,2,0,0,1,3,0	89.0	37.0	0.488	0,0,0,0,0,0,1,2,3	to_hand	s172
336.256	0.392	0	PA_with_intermediate	0,0,0,2,0,0,1,3,0	test	ward_and_allport	0,0,0,2,0,0,1,3,0	82.0	37.0	0.392	0,0,0,0,0,0,1,2,3	to_board	s172
336.658	1.0	0	PA_with_intermediate	n/a	test	ward_and_allport	n/a	-1.0	37.0	n/a	n/a	feedback	s172
337.658	1.68	0	PA_with_intermediate	n/a	test	ward_and_allport	n/a	-1.0	37.0	n/a	n/a	ITI	s172
339.348	0.992	1	PA_without_intermediate	0,0,0,1,2,0,0,0,0	test	ward_and_allport	1,0,0,0,0,0,3,2,0	71.0	38.0	0.992	0,0,0,1,2,3,0,0,0	to_hand	s172
340.342	0.377	0	PA_without_intermediate	0,0,0,1,2,0,3,0,0	test	ward_and_allport	1,0,0,0,0,0,3,2,0	82.0	38.0	0.377	0,0,0,1,2,3,0,0,0	to_board	s172
340.725	0.347	0	PA_without_intermediate	0,0,0,1,0,0,3,0,0	test	ward_and_allport	1,0,0,0,0,0,3,2,0	71.0	38.0	0.347	0,0,0,1,2,3,0,0,0	to_hand	s172
341.073	0.377	0	PA_without_intermediate	0,0,0,1,0,0,3,2,0	test	ward_and_allport	1,0,0,0,0,0,3,2,0	82.0	38.0	0.377	0,0,0,1,2,3,0,0,0	to_board	s172
341.457	1.199	0	PA_without_intermediate	0,0,0,0,0,0,3,2,0	test	ward_and_allport	1,0,0,0,0,0,3,2,0	71.0	38.0	1.199	0,0,0,1,2,3,0,0,0	to_hand	s172
342.657	0.285	0	PA_without_intermediate	1,0,0,0,0,0,3,2,0	test	ward_and_allport	1,0,0,0,0,0,3,2,0	89.0	38.0	0.285	0,0,0,1,2,3,0,0,0	to_board	s172
342.95	1.0	0	PA_without_intermediate	n/a	test	ward_and_allport	n/a	-1.0	38.0	n/a	n/a	feedback	s172
343.95	2.224	0	PA_without_intermediate	n/a	test	ward_and_allport	n/a	-1.0	38.0	n/a	n/a	ITI	s172
346.18	1.378	1	PA_without_intermediate	1,2,0,0,0,0,0,0,0	test	ward_and_allport	0,0,0,1,0,0,3,2,0	89.0	39.0	1.378	1,2,3,0,0,0,0,0,0	to_hand	s172
347.559	0.355	0	PA_without_intermediate	1,2,0,0,0,0,3,0,0	test	ward_and_allport	0,0,0,1,0,0,3,2,0	82.0	39.0	0.355	1,2,3,0,0,0,0,0,0	to_board	s172
347.923	0.475	0	PA_without_intermediate	1,0,0,0,0,0,3,0,0	test	ward_and_allport	0,0,0,1,0,0,3,2,0	89.0	39.0	0.475	1,2,3,0,0,0,0,0,0	to_hand	s172
348.399	0.349	0	PA_without_intermediate	1,0,0,0,0,0,3,2,0	test	ward_and_allport	0,0,0,1,0,0,3,2,0	82.0	39.0	0.349	1,2,3,0,0,0,0,0,0	to_board	s172
348.756	0.503	0	PA_without_intermediate	0,0,0,0,0,0,3,2,0	test	ward_and_allport	0,0,0,1,0,0,3,2,0	89.0	39.0	0.503	1,2,3,0,0,0,0,0,0	to_hand	s172
349.261	0.321	0	PA_without_intermediate	0,0,0,1,0,0,3,2,0	test	ward_and_allport	0,0,0,1,0,0,3,2,0	71.0	39.0	0.321	1,2,3,0,0,0,0,0,0	to_board	s172
349.592	1.0	0	PA_without_intermediate	n/a	test	ward_and_allport	n/a	-1.0	39.0	n/a	n/a	feedback	s172
350.592	2.36	0	PA_without_intermediate	n/a	test	ward_and_allport	n/a	-1.0	39.0	n/a	n/a	ITI	s172
352.961	1.258	1	PA_without_intermediate	1,2,0,0,0,0,0,0,0	test	ward_and_allport	0,0,0,3,2,0,1,0,0	89.0	40.0	1.258	1,2,3,0,0,0,0,0,0	to_hand	s172
354.221	0.422	0	PA_without_intermediate	1,2,0,3,0,0,0,0,0	test	ward_and_allport	0,0,0,3,2,0,1,0,0	71.0	40.0	0.422	1,2,3,0,0,0,0,0,0	to_board	s172
354.653	0.345	0	PA_without_intermediate	1,0,0,3,0,0,0,0,0	test	ward_and_allport	0,0,0,3,2,0,1,0,0	89.0	40.0	0.345	1,2,3,0,0,0,0,0,0	to_hand	s172
354.998	0.269	0	PA_without_intermediate	1,0,0,3,2,0,0,0,0	test	ward_and_allport	0,0,0,3,2,0,1,0,0	71.0	40.0	0.269	1,2,3,0,0,0,0,0,0	to_board	s172
355.276	0.305	0	PA_without_intermediate	0,0,0,3,2,0,0,0,0	test	ward_and_allport	0,0,0,3,2,0,1,0,0	89.0	40.0	0.305	1,2,3,0,0,0,0,0,0	to_hand	s172
355.582	0.318	0	PA_without_intermediate	0,0,0,3,2,0,1,0,0	test	ward_and_allport	0,0,0,3,2,0,1,0,0	82.0	40.0	0.318	1,2,3,0,0,0,0,0,0	to_board	s172
355.909	1.0	0	PA_without_intermediate	n/a	test	ward_and_allport	n/a	-1.0	40.0	n/a	n/a	feedback	s172
356.909	1.0	0	PA_without_intermediate	n/a	test	ward_and_allport	n/a	-1.0	40.0	n/a	n/a	ITI	s172
357.917	1.217	1	PA_without_intermediate	0,0,0,0,0,0,1,2,0	test	ward_and_allport	1,0,0,3,2,0,0,0,0	82.0	41.0	1.217	0,0,0,0,0,0,1,2,3	to_hand	s172
359.134	0.422	0	PA_without_intermediate	0,0,0,3,0,0,1,2,0	test	ward_and_allport	1,0,0,3,2,0,0,0,0	71.0	41.0	0.422	0,0,0,0,0,0,1,2,3	to_board	s172
359.564	0.358	0	PA_without_intermediate	0,0,0,3,0,0,1,0,0	test	ward_and_allport	1,0,0,3,2,0,0,0,0	82.0	41.0	0.358	0,0,0,0,0,0,1,2,3	to_hand	s172
359.924	0.377	0	PA_without_intermediate	0,0,0,3,2,0,1,0,0	test	ward_and_allport	1,0,0,3,2,0,0,0,0	71.0	41.0	0.377	0,0,0,0,0,0,1,2,3	to_board	s172
360.309	0.569	0	PA_without_intermediate	0,0,0,3,2,0,0,0,0	test	ward_and_allport	1,0,0,3,2,0,0,0,0	82.0	41.0	0.569	0,0,0,0,0,0,1,2,3	to_hand	s172
360.879	0.38	0	PA_without_intermediate	1,0,0,3,2,0,0,0,0	test	ward_and_allport	1,0,0,3,2,0,0,0,0	89.0	41.0	0.38	0,0,0,0,0,0,1,2,3	to_board	s172
361.269	1.0	0	PA_without_intermediate	n/a	test	ward_and_allport	n/a	-1.0	41.0	n/a	n/a	feedback	s172
362.269	1.408	0	PA_without_intermediate	n/a	test	ward_and_allport	n/a	-1.0	41.0	n/a	n/a	ITI	s172
363.684	0.77	1	PA_with_intermediate	1,2,0,0,0,0,0,0,0	test	ward_and_allport	1,3,0,2,0,0,0,0,0	89.0	42.0	0.77	1,2,3,0,0,0,0,0,0	to_hand	s172
364.455	0.98	0	PA_with_intermediate	1,2,3,0,0,0,0,0,0	test	ward_and_allport	1,3,0,2,0,0,0,0,0	89.0	42.0	0.98	1,2,3,0,0,0,0,0,0	to_board	s172
365.442	1.368	0	PA_with_intermediate	1,2,0,0,0,0,0,0,0	test	ward_and_allport	1,3,0,2,0,0,0,0,0	89.0	42.0	1.368	1,2,3,0,0,0,0,0,0	to_hand	s172
366.812	0.59	0	PA_with_intermediate	1,2,0,0,0,0,3,0,0	test	ward_and_allport	1,3,0,2,0,0,0,0,0	82.0	42.0	0.59	1,2,3,0,0,0,0,0,0	to_board	s172
367.41	0.55	0	PA_with_intermediate	1,0,0,0,0,0,3,0,0	test	ward_and_allport	1,3,0,2,0,0,0,0,0	89.0	42.0	0.55	1,2,3,0,0,0,0,0,0	to_hand	s172
367.961	0.342	0	PA_with_intermediate	1,0,0,2,0,0,3,0,0	test	ward_and_allport	1,3,0,2,0,0,0,0,0	71.0	42.0	0.342	1,2,3,0,0,0,0,0,0	to_board	s172
368.31	0.359	0	PA_with_intermediate	1,0,0,2,0,0,0,0,0	test	ward_and_allport	1,3,0,2,0,0,0,0,0	82.0	42.0	0.359	1,2,3,0,0,0,0,0,0	to_hand	s172
368.67	0.372	0	PA_with_intermediate	1,3,0,2,0,0,0,0,0	test	ward_and_allport	1,3,0,2,0,0,0,0,0	89.0	42.0	0.372	1,2,3,0,0,0,0,0,0	to_board	s172
369.052	1.0	0	PA_with_intermediate	n/a	test	ward_and_allport	n/a	-1.0	42.0	n/a	n/a	feedback	s172
370.052	1.136	0	PA_with_intermediate	n/a	test	ward_and_allport	n/a	-1.0	42.0	n/a	n/a	ITI	s172
371.196	1.161	1	PA_without_intermediate	1,2,0,0,0,0,0,0,0	test	ward_and_allport	0,0,0,2,0,0,3,1,0	89.0	43.0	1.161	1,2,3,0,0,0,0,0,0	to_hand	s172
372.358	0.35	0	PA_without_intermediate	1,2,0,0,0,0,3,0,0	test	ward_and_allport	0,0,0,2,0,0,3,1,0	82.0	43.0	0.35	1,2,3,0,0,0,0,0,0	to_board	s172
372.715	1.14	0	PA_without_intermediate	1,0,0,0,0,0,3,0,0	test	ward_and_allport	0,0,0,2,0,0,3,1,0	89.0	43.0	1.14	1,2,3,0,0,0,0,0,0	to_hand	s172
373.856	0.381	0	PA_without_intermediate	1,0,0,2,0,0,3,0,0	test	ward_and_allport	0,0,0,2,0,0,3,1,0	71.0	43.0	0.381	1,2,3,0,0,0,0,0,0	to_board	s172
374.246	0.442	0	PA_without_intermediate	0,0,0,2,0,0,3,0,0	test	ward_and_allport	0,0,0,2,0,0,3,1,0	89.0	43.0	0.442	1,2,3,0,0,0,0,0,0	to_hand	s172
374.688	0.286	0	PA_without_intermediate	0,0,0,2,0,0,3,1,0	test	ward_and_allport	0,0,0,2,0,0,3,1,0	82.0	43.0	0.286	1,2,3,0,0,0,0,0,0	to_board	s172
374.983	1.0	0	PA_without_intermediate	n/a	test	ward_and_allport	n/a	-1.0	43.0	n/a	n/a	feedback	s172
375.983	4.128	0	PA_without_intermediate	n/a	test	ward_and_allport	n/a	-1.0	43.0	n/a	n/a	ITI	s172
380.121	0.946	1	PA_without_intermediate	0,0,0,1,2,0,0,0,0	test	ward_and_allport	3,1,0,0,0,0,2,0,0	71.0	44.0	0.946	0,0,0,1,2,3,0,0,0	to_hand	s172
381.067	0.369	0	PA_without_intermediate	3,0,0,1,2,0,0,0,0	test	ward_and_allport	3,1,0,0,0,0,2,0,0	89.0	44.0	0.369	0,0,0,1,2,3,0,0,0	to_board	s172
381.447	0.275	0	PA_without_intermediate	3,0,0,1,0,0,0,0,0	test	ward_and_allport	3,1,0,0,0,0,2,0,0	71.0	44.0	0.275	0,0,0,1,2,3,0,0,0	to_hand	s172
381.723	0.345	0	PA_without_intermediate	3,0,0,1,0,0,2,0,0	test	ward_and_allport	3,1,0,0,0,0,2,0,0	82.0	44.0	0.345	0,0,0,1,2,3,0,0,0	to_board	s172
382.079	0.318	0	PA_without_intermediate	3,0,0,0,0,0,2,0,0	test	ward_and_allport	3,1,0,0,0,0,2,0,0	71.0	44.0	0.318	0,0,0,1,2,3,0,0,0	to_hand	s172
382.398	0.313	0	PA_without_intermediate	3,1,0,0,0,0,2,0,0	test	ward_and_allport	3,1,0,0,0,0,2,0,0	89.0	44.0	0.313	0,0,0,1,2,3,0,0,0	to_board	s172
382.722	1.0	0	PA_without_intermediate	n/a	test	ward_and_allport	n/a	-1.0	44.0	n/a	n/a	feedback	s172
383.722	1.136	0	PA_without_intermediate	n/a	test	ward_and_allport	n/a	-1.0	44.0	n/a	n/a	ITI	s172
389.868	1.114	1	PA_without_intermediate	1,2,0,0,0,0,0,0,0	test	ward_and_allport	0,0,0,3,1,0,2,0,0	89.0	45.0	1.114	1,2,3,0,0,0,0,0,0	to_hand	s172
390.984	0.499	0	PA_without_intermediate	1,2,0,3,0,0,0,0,0	test	ward_and_allport	0,0,0,3,1,0,2,0,0	71.0	45.0	0.499	1,2,3,0,0,0,0,0,0	to_board	s172
391.493	0.492	0	PA_without_intermediate	1,0,0,3,0,0,0,0,0	test	ward_and_allport	0,0,0,3,1,0,2,0,0	89.0	45.0	0.492	1,2,3,0,0,0,0,0,0	to_hand	s172
391.987	0.318	0	PA_without_intermediate	1,0,0,3,0,0,2,0,0	test	ward_and_allport	0,0,0,3,1,0,2,0,0	82.0	45.0	0.318	1,2,3,0,0,0,0,0,0	to_board	s172
392.316	0.282	0	PA_without_intermediate	0,0,0,3,0,0,2,0,0	test	ward_and_allport	0,0,0,3,1,0,2,0,0	89.0	45.0	0.282	1,2,3,0,0,0,0,0,0	to_hand	s172
392.599	0.268	0	PA_without_intermediate	0,0,0,3,1,0,2,0,0	test	ward_and_allport	0,0,0,3,1,0,2,0,0	71.0	45.0	0.268	1,2,3,0,0,0,0,0,0	to_board	s172
392.88	1.0	0	PA_without_intermediate	n/a	test	ward_and_allport	n/a	-1.0	45.0	n/a	n/a	feedback	s172
393.88	4.264	0	PA_without_intermediate	n/a	test	ward_and_allport	n/a	-1.0	45.0	n/a	n/a	ITI	s172
398.156	1.85	1	PA_with_intermediate	1,2,0,0,0,0,0,0,0	test	ward_and_allport	1,0,0,2,3,0,0,0,0	89.0	46.0	1.85	1,2,3,0,0,0,0,0,0	to_hand	s172
400.007	0.343	0	PA_with_intermediate	1,2,0,0,0,0,3,0,0	test	ward_and_allport	1,0,0,2,3,0,0,0,0	82.0	46.0	0.343	1,2,3,0,0,0,0,0,0	to_board	s172
400.363	0.802	0	PA_with_intermediate	1,0,0,0,0,0,3,0,0	test	ward_and_allport	1,0,0,2,3,0,0,0,0	89.0	46.0	0.802	1,2,3,0,0,0,0,0,0	to_hand	s172
401.166	0.448	0	PA_with_intermediate	1,0,0,2,0,0,3,0,0	test	ward_and_allport	1,0,0,2,3,0,0,0,0	71.0	46.0	0.448	1,2,3,0,0,0,0,0,0	to_board	s172
401.625	0.621	0	PA_with_intermediate	1,0,0,2,0,0,0,0,0	test	ward_and_allport	1,0,0,2,3,0,0,0,0	82.0	46.0	0.621	1,2,3,0,0,0,0,0,0	to_hand	s172
402.247	0.351	0	PA_with_intermediate	1,0,0,2,3,0,0,0,0	test	ward_and_allport	1,0,0,2,3,0,0,0,0	71.0	46.0	0.351	1,2,3,0,0,0,0,0,0	to_board	s172
402.61	1.0	0	PA_with_intermediate	n/a	test	ward_and_allport	n/a	-1.0	46.0	n/a	n/a	feedback	s172
403.61	3.04	0	PA_with_intermediate	n/a	test	ward_and_allport	n/a	-1.0	46.0	n/a	n/a	ITI	s172
406.658	0.747	1	PA_with_intermediate	0,0,0,1,2,0,0,0,0	test	ward_and_allport	2,0,0,1,3,0,0,0,0	71.0	47.0	0.747	0,0,0,1,2,3,0,0,0	to_hand	s172
407.407	1.196	0	PA_with_intermediate	0,0,0,1,2,0,3,0,0	test	ward_and_allport	2,0,0,1,3,0,0,0,0	82.0	47.0	1.196	0,0,0,1,2,3,0,0,0	to_board	s172
408.616	0.328	0	PA_with_intermediate	0,0,0,1,0,0,3,0,0	test	ward_and_allport	2,0,0,1,3,0,0,0,0	71.0	47.0	0.328	0,0,0,1,2,3,0,0,0	to_hand	s172
408.945	0.297	0	PA_with_intermediate	2,0,0,1,0,0,3,0,0	test	ward_and_allport	2,0,0,1,3,0,0,0,0	89.0	47.0	0.297	0,0,0,1,2,3,0,0,0	to_board	s172
409.253	0.353	0	PA_with_intermediate	2,0,0,1,0,0,0,0,0	test	ward_and_allport	2,0,0,1,3,0,0,0,0	82.0	47.0	0.353	0,0,0,1,2,3,0,0,0	to_hand	s172
409.607	0.289	0	PA_with_intermediate	2,0,0,1,3,0,0,0,0	test	ward_and_allport	2,0,0,1,3,0,0,0,0	71.0	47.0	0.289	0,0,0,1,2,3,0,0,0	to_board	s172
409.909	1.0	0	PA_with_intermediate	n/a	test	ward_and_allport	n/a	-1.0	47.0	n/a	n/a	feedback	s172
410.909	1.136	0	PA_with_intermediate	n/a	test	ward_and_allport	n/a	-1.0	47.0	n/a	n/a	ITI	s172
n/a	n/a	0	n/a	n/a	n/a	n/a	n/a	n/a	n/a	n/a	n/a	ITI	n/a
