onset	duration	CTI	correct	correct_response	cue	cue_switch	experiment_exp_id	key_press	response_time	stim_color	stim_number	switch_type	task_type	task_switch	worker_id	first_trial_of_block
3.615	1.0	0.1	True	71.0	High-Low	n/a	twobytwo	71.0	0.865	orange	7.0	task_switch	magnitude	switch	s172	1
6.655	1.0	0.9	True	71.0	High-Low	stay	twobytwo	71.0	0.475	orange	9.0	cue_stay	magnitude	stay	s172	0
10.24	1.0	0.9	True	89.0	Magnitude	switch	twobytwo	89.0	0.527	blue	4.0	cue_switch	magnitude	stay	s172	0
13.689	1.0	0.9	True	89.0	High-Low	switch	twobytwo	89.0	0.424	orange	2.0	cue_switch	magnitude	stay	s172	0
16.066	1.0	0.1	True	89.0	Magnitude	switch	twobytwo	89.0	0.632	orange	3.0	cue_switch	magnitude	stay	s172	0
18.442	1.0	0.1	True	71.0	Color	n/a	twobytwo	71.0	0.653	orange	2.0	task_switch	color	switch	s172	0
20.954	1.0	0.1	True	89.0	Color	stay	twobytwo	89.0	0.551	blue	4.0	cue_stay	color	stay	s172	0
23.194	1.0	0.1	True	89.0	High-Low	n/a	twobytwo	89.0	0.609	blue	2.0	task_switch	magnitude	switch	s172	0
26.37	1.0	0.9	True	71.0	Magnitude	switch	twobytwo	71.0	0.363	orange	8.0	cue_switch	magnitude	stay	s172	0
28.476	1.0	0.1	True	71.0	High-Low	switch	twobytwo	71.0	0.593	orange	7.0	cue_switch	magnitude	stay	s172	0
31.517	1.0	0.9	True	71.0	High-Low	stay	twobytwo	71.0	0.489	blue	8.0	cue_stay	magnitude	stay	s172	0
33.892	1.0	0.1	True	71.0	Orange-Blue	n/a	twobytwo	71.0	0.86	orange	1.0	task_switch	color	switch	s172	0
35.998	1.0	0.1	True	71.0	High-Low	n/a	twobytwo	71.0	0.829	orange	7.0	task_switch	magnitude	switch	s172	0
39.583	1.0	0.9	True	71.0	Magnitude	switch	twobytwo	71.0	0.555	blue	7.0	cue_switch	magnitude	stay	s172	0
42.487	1.0	0.9	True	89.0	Orange-Blue	n/a	twobytwo	89.0	0.456	blue	7.0	task_switch	color	switch	s172	0
45.391	1.0	0.9	True	89.0	Orange-Blue	stay	twobytwo	89.0	0.47	blue	2.0	cue_stay	color	stay	s172	0
48.296	1.0	0.9	True	89.0	High-Low	n/a	twobytwo	89.0	0.505	blue	1.0	task_switch	magnitude	switch	s172	0
51.472	1.0	0.9	True	71.0	Orange-Blue	n/a	twobytwo	71.0	0.496	orange	9.0	task_switch	color	switch	s172	0
53.576	1.0	0.1	True	89.0	High-Low	n/a	twobytwo	89.0	0.621	orange	3.0	task_switch	magnitude	switch	s172	0
55.683	1.0	0.1	True	89.0	Color	n/a	twobytwo	89.0	0.687	blue	8.0	task_switch	color	switch	s172	0
58.587	1.0	0.9	True	89.0	Color	stay	twobytwo	89.0	0.384	blue	2.0	cue_stay	color	stay	s172	0
62.17	1.0	0.9	True	71.0	Color	stay	twobytwo	71.0	0.555	orange	7.0	cue_stay	color	stay	s172	0
64.275	1.0	0.1	True	71.0	Magnitude	n/a	twobytwo	71.0	0.646	orange	9.0	task_switch	magnitude	switch	s172	0
67.316	1.0	0.9	True	89.0	High-Low	switch	twobytwo	89.0	0.486	blue	2.0	cue_switch	magnitude	stay	s172	0
69.83	1.0	0.1	True	89.0	High-Low	stay	twobytwo	89.0	0.582	blue	3.0	cue_stay	magnitude	stay	s172	0
72.87	1.0	0.9	True	89.0	High-Low	stay	twobytwo	89.0	0.457	blue	2.0	cue_stay	magnitude	stay	s172	0
75.774	1.0	0.9	True	71.0	Orange-Blue	n/a	twobytwo	71.0	0.388	orange	2.0	task_switch	color	switch	s172	0
78.678	1.0	0.9	True	71.0	Magnitude	n/a	twobytwo	71.0	0.405	blue	8.0	task_switch	magnitude	switch	s172	0
81.326	1.0	0.1	True	71.0	Magnitude	stay	twobytwo	71.0	0.713	orange	6.0	cue_stay	magnitude	stay	s172	0
83.567	1.0	0.1	True	71.0	Magnitude	stay	twobytwo	71.0	0.687	blue	6.0	cue_stay	magnitude	stay	s172	0
87.014	1.0	0.9	True	71.0	Orange-Blue	n/a	twobytwo	71.0	0.438	orange	6.0	task_switch	color	switch	s172	0
89.798	1.0	0.1	True	89.0	Color	switch	twobytwo	89.0	0.641	blue	8.0	cue_switch	color	stay	s172	0
92.703	1.0	0.9	True	71.0	High-Low	n/a	twobytwo	71.0	0.559	orange	9.0	task_switch	magnitude	switch	s172	0
95.078	1.0	0.1	True	89.0	Orange-Blue	n/a	twobytwo	89.0	0.611	blue	3.0	task_switch	color	switch	s172	0
98.271	1.0	0.1	True	71.0	Magnitude	n/a	twobytwo	71.0	0.621	blue	9.0	task_switch	magnitude	switch	s172	0
100.375	1.0	0.1	True	89.0	Magnitude	stay	twobytwo	89.0	0.58	blue	1.0	cue_stay	magnitude	stay	s172	0
102.615	1.0	0.1	True	71.0	Color	n/a	twobytwo	71.0	0.511	orange	4.0	task_switch	color	switch	s172	0
105.655	1.0	0.9	True	71.0	Color	stay	twobytwo	71.0	0.375	orange	4.0	cue_stay	color	stay	s172	0
108.559	1.0	0.9	True	71.0	Orange-Blue	switch	twobytwo	71.0	0.523	orange	7.0	cue_switch	color	stay	s172	0
110.935	1.0	0.1	True	89.0	Magnitude	n/a	twobytwo	89.0	0.698	blue	4.0	task_switch	magnitude	switch	s172	0
113.838	1.0	0.9	True	89.0	Color	n/a	twobytwo	89.0	0.431	blue	4.0	task_switch	color	switch	s172	0
116.078	1.0	0.1	True	71.0	High-Low	n/a	twobytwo	71.0	0.779	blue	6.0	task_switch	magnitude	switch	s172	0
119.119	1.0	0.9	True	89.0	High-Low	stay	twobytwo	89.0	0.46	blue	2.0	cue_stay	magnitude	stay	s172	0
122.567	1.0	0.9	True	71.0	Orange-Blue	n/a	twobytwo	71.0	0.449	orange	3.0	task_switch	color	switch	s172	0
125.471	1.0	0.9	True	71.0	Orange-Blue	stay	twobytwo	71.0	0.445	orange	8.0	cue_stay	color	stay	s172	0
128.511	1.0	0.9	True	71.0	High-Low	n/a	twobytwo	71.0	0.466	orange	6.0	task_switch	magnitude	switch	s172	0
131.552	1.0	0.9	True	89.0	Orange-Blue	n/a	twobytwo	89.0	0.453	blue	9.0	task_switch	color	switch	s172	0
134.592	1.0	0.9	True	71.0	High-Low	n/a	twobytwo	71.0	0.576	blue	8.0	task_switch	magnitude	switch	s172	0
136.695	1.0	0.1	True	89.0	Orange-Blue	n/a	twobytwo	89.0	0.654	blue	1.0	task_switch	color	switch	s172	0
139.736	1.0	0.9	True	89.0	Orange-Blue	stay	twobytwo	89.0	0.425	blue	3.0	cue_stay	color	stay	s172	0
141.842	1.0	0.1	True	71.0	Color	switch	twobytwo	71.0	0.649	orange	2.0	cue_switch	color	stay	s172	0
144.883	1.0	0.9	True	89.0	Magnitude	n/a	twobytwo	89.0	0.415	blue	2.0	task_switch	magnitude	switch	s172	0
148.604	1.0	0.9	True	71.0	Magnitude	stay	twobytwo	71.0	0.476	orange	6.0	cue_stay	magnitude	stay	s172	0
151.643	1.0	0.9	True	71.0	Magnitude	stay	twobytwo	71.0	0.536	orange	6.0	cue_stay	magnitude	stay	s172	0
153.747	1.0	0.1	True	71.0	Color	n/a	twobytwo	71.0	0.552	orange	6.0	task_switch	color	switch	s172	0
156.652	1.0	0.9	True	89.0	Color	stay	twobytwo	89.0	0.408	blue	6.0	cue_stay	color	stay	s172	0
159.027	1.0	0.1	True	71.0	Magnitude	n/a	twobytwo	71.0	0.699	blue	7.0	task_switch	magnitude	switch	s172	0
161.932	1.0	0.9	True	71.0	Orange-Blue	n/a	twobytwo	71.0	0.525	orange	1.0	task_switch	color	switch	s172	0
164.038	1.0	0.1	True	89.0	High-Low	n/a	twobytwo	89.0	0.598	blue	3.0	task_switch	magnitude	switch	s172	0
166.142	1.0	0.1	True	71.0	Orange-Blue	n/a	twobytwo	71.0	0.545	orange	1.0	task_switch	color	switch	s172	0
168.654	1.0	0.1	True	71.0	Orange-Blue	stay	twobytwo	71.0	0.507	orange	7.0	cue_stay	color	stay	s172	0
171.83	1.0	0.9	True	89.0	Magnitude	n/a	twobytwo	89.0	0.559	blue	1.0	task_switch	magnitude	switch	s172	0
174.871	1.0	0.9	True	71.0	High-Low	switch	twobytwo	71.0	0.439	blue	7.0	cue_switch	magnitude	stay	s172	0
176.974	1.0	0.1	True	71.0	Orange-Blue	n/a	twobytwo	71.0	0.607	orange	3.0	task_switch	color	switch	s172	0
179.079	1.0	0.1	True	71.0	Magnitude	n/a	twobytwo	71.0	0.754	blue	6.0	task_switch	magnitude	switch	s172	0
182.119	1.0	0.9	True	89.0	Orange-Blue	n/a	twobytwo	89.0	0.487	blue	1.0	task_switch	color	switch	s172	0
185.023	1.0	0.9	True	89.0	Magnitude	n/a	twobytwo	89.0	0.47	orange	2.0	task_switch	magnitude	switch	s172	0
188.063	1.0	0.9	True	71.0	Magnitude	stay	twobytwo	71.0	0.668	blue	6.0	cue_stay	magnitude	stay	s172	0
191.375	1.0	0.9	True	71.0	Color	n/a	twobytwo	71.0	0.426	orange	9.0	task_switch	color	switch	s172	0
193.615	1.0	0.1	True	71.0	High-Low	n/a	twobytwo	71.0	0.771	blue	8.0	task_switch	magnitude	switch	s172	0
196.519	1.0	0.9	True	89.0	Orange-Blue	n/a	twobytwo	89.0	0.52	blue	7.0	task_switch	color	switch	s172	0
198.759	1.0	0.1	True	71.0	Orange-Blue	stay	twobytwo	71.0	0.537	orange	3.0	cue_stay	color	stay	s172	0
201.135	1.0	0.1	True	71.0	Magnitude	n/a	twobytwo	71.0	0.622	orange	6.0	task_switch	magnitude	switch	s172	0
204.04	1.0	0.9	False	89.0	Orange-Blue	n/a	twobytwo	71.0	0.641	blue	9.0	task_switch	color	switch	s172	0
207.352	1.0	0.9	True	71.0	Color	switch	twobytwo	71.0	0.522	orange	7.0	cue_switch	color	stay	s172	0
209.456	1.0	0.1	True	89.0	Magnitude	n/a	twobytwo	89.0	0.62	blue	2.0	task_switch	magnitude	switch	s172	0
211.696	1.0	0.1	True	71.0	Orange-Blue	n/a	twobytwo	71.0	0.579	orange	8.0	task_switch	color	switch	s172	0
215.008	1.0	0.9	True	89.0	Magnitude	n/a	twobytwo	89.0	0.431	orange	4.0	task_switch	magnitude	switch	s172	0
218.048	1.0	0.9	True	71.0	Color	n/a	twobytwo	71.0	0.467	orange	8.0	task_switch	color	switch	s172	0
221.36	1.0	0.9	True	71.0	Magnitude	n/a	twobytwo	71.0	0.458	orange	7.0	task_switch	magnitude	switch	s172	0
237.109	1.0	0.1	True	71.0	High-Low	n/a	twobytwo	71.0	0.588	orange	7.0	task_switch	magnitude	switch	s172	1
240.014	1.0	0.9	True	71.0	High-Low	stay	twobytwo	71.0	0.531	orange	9.0	cue_stay	magnitude	stay	s172	0
243.189	1.0	0.9	True	89.0	Magnitude	switch	twobytwo	89.0	0.645	blue	4.0	cue_switch	magnitude	stay	s172	0
246.093	1.0	0.9	False	89.0	High-Low	switch	twobytwo	71.0	0.552	orange	2.0	cue_switch	magnitude	stay	s172	0
248.47	1.0	0.1	True	89.0	Magnitude	switch	twobytwo	89.0	0.882	orange	3.0	cue_switch	magnitude	stay	s172	0
250.847	1.0	0.1	True	71.0	Orange-Blue	n/a	twobytwo	71.0	0.58	orange	2.0	task_switch	color	switch	s172	0
253.903	1.0	0.1	True	89.0	Orange-Blue	stay	twobytwo	89.0	0.631	blue	4.0	cue_stay	color	stay	s172	0
256.689	1.0	0.1	True	89.0	High-Low	n/a	twobytwo	89.0	0.627	blue	2.0	task_switch	magnitude	switch	s172	0
259.729	1.0	0.9	True	71.0	Magnitude	switch	twobytwo	71.0	0.392	orange	8.0	cue_switch	magnitude	stay	s172	0
262.105	1.0	0.1	True	71.0	High-Low	switch	twobytwo	71.0	0.632	orange	7.0	cue_switch	magnitude	stay	s172	0
265.281	1.0	0.9	True	71.0	High-Low	stay	twobytwo	71.0	0.571	blue	8.0	cue_stay	magnitude	stay	s172	0
267.521	1.0	0.1	True	71.0	Color	n/a	twobytwo	71.0	0.626	orange	1.0	task_switch	color	switch	s172	0
270.033	1.0	0.1	True	71.0	High-Low	n/a	twobytwo	71.0	0.822	orange	7.0	task_switch	magnitude	switch	s172	0
273.073	1.0	0.9	True	71.0	Magnitude	switch	twobytwo	71.0	0.544	blue	7.0	cue_switch	magnitude	stay	s172	0
276.113	1.0	0.9	True	89.0	Color	n/a	twobytwo	89.0	0.36	blue	7.0	task_switch	color	switch	s172	0
279.02	1.0	0.9	True	89.0	Color	stay	twobytwo	89.0	0.427	blue	2.0	cue_stay	color	stay	s172	0
281.925	1.0	0.9	True	89.0	High-Low	n/a	twobytwo	89.0	0.448	blue	1.0	task_switch	magnitude	switch	s172	0
284.829	1.0	0.9	True	71.0	Color	n/a	twobytwo	71.0	0.52	orange	9.0	task_switch	color	switch	s172	0
286.933	1.0	0.1	True	89.0	High-Low	n/a	twobytwo	89.0	0.989	orange	3.0	task_switch	magnitude	switch	s172	0
289.037	1.0	0.1	True	89.0	Color	n/a	twobytwo	89.0	0.697	blue	8.0	task_switch	color	switch	s172	0
292.214	1.0	0.9	True	89.0	Color	stay	twobytwo	89.0	0.368	blue	2.0	cue_stay	color	stay	s172	0
295.525	1.0	0.9	True	71.0	Color	stay	twobytwo	71.0	0.423	orange	7.0	cue_stay	color	stay	s172	0
297.629	1.0	0.1	True	71.0	High-Low	n/a	twobytwo	71.0	0.639	orange	9.0	task_switch	magnitude	switch	s172	0
300.669	1.0	0.9	True	89.0	Magnitude	switch	twobytwo	89.0	0.442	blue	2.0	cue_switch	magnitude	stay	s172	0
302.773	1.0	0.1	True	89.0	Magnitude	stay	twobytwo	89.0	0.605	blue	3.0	cue_stay	magnitude	stay	s172	0
305.813	1.0	0.9	True	89.0	Magnitude	stay	twobytwo	89.0	0.453	blue	2.0	cue_stay	magnitude	stay	s172	0
309.261	1.0	0.9	True	71.0	Orange-Blue	n/a	twobytwo	71.0	0.408	orange	2.0	task_switch	color	switch	s172	0
312.845	1.0	0.9	True	71.0	Magnitude	n/a	twobytwo	71.0	0.458	blue	8.0	task_switch	magnitude	switch	s172	0
316.038	1.0	0.1	True	71.0	Magnitude	stay	twobytwo	71.0	0.757	orange	6.0	cue_stay	magnitude	stay	s172	0
318.279	1.0	0.1	True	71.0	Magnitude	stay	twobytwo	71.0	0.564	blue	6.0	cue_stay	magnitude	stay	s172	0
321.726	1.0	0.9	True	71.0	Orange-Blue	n/a	twobytwo	71.0	0.483	orange	6.0	task_switch	color	switch	s172	0
323.832	1.0	0.1	True	89.0	Color	switch	twobytwo	89.0	0.676	blue	8.0	cue_switch	color	stay	s172	0
326.872	1.0	0.9	True	71.0	High-Low	n/a	twobytwo	71.0	0.437	orange	9.0	task_switch	magnitude	switch	s172	0
328.977	1.0	0.1	True	89.0	Color	n/a	twobytwo	89.0	0.596	blue	3.0	task_switch	color	switch	s172	0
331.491	1.0	0.1	True	71.0	Magnitude	n/a	twobytwo	71.0	0.62	blue	9.0	task_switch	magnitude	switch	s172	0
333.597	1.0	0.1	True	89.0	Magnitude	stay	twobytwo	89.0	0.608	blue	1.0	cue_stay	magnitude	stay	s172	0
335.702	1.0	0.1	True	71.0	Color	n/a	twobytwo	71.0	0.634	orange	4.0	task_switch	color	switch	s172	0
338.606	1.0	0.9	False	71.0	Color	stay	twobytwo	89.0	0.449	orange	4.0	cue_stay	color	stay	s172	0
342.19	1.0	0.9	True	71.0	Orange-Blue	switch	twobytwo	71.0	0.63	orange	7.0	cue_switch	color	stay	s172	0
344.567	1.0	0.1	True	89.0	High-Low	n/a	twobytwo	89.0	0.65	blue	4.0	task_switch	magnitude	switch	s172	0
347.881	1.0	0.9	True	89.0	Color	n/a	twobytwo	89.0	0.492	blue	4.0	task_switch	color	switch	s172	0
351.209	1.0	0.1	True	71.0	Magnitude	n/a	twobytwo	71.0	0.72	blue	6.0	task_switch	magnitude	switch	s172	0
354.521	1.0	0.9	True	89.0	Magnitude	stay	twobytwo	89.0	0.447	blue	2.0	cue_stay	magnitude	stay	s172	0
358.243	1.0	0.9	True	71.0	Orange-Blue	n/a	twobytwo	71.0	0.44	orange	3.0	task_switch	color	switch	s172	0
361.556	1.0	0.9	True	71.0	Orange-Blue	stay	twobytwo	71.0	0.475	orange	8.0	cue_stay	color	stay	s172	0
364.597	1.0	0.9	True	71.0	Magnitude	n/a	twobytwo	71.0	0.535	orange	6.0	task_switch	magnitude	switch	s172	0
367.636	1.0	0.9	True	89.0	Orange-Blue	n/a	twobytwo	89.0	0.422	blue	9.0	task_switch	color	switch	s172	0
370.541	1.0	0.9	True	71.0	High-Low	n/a	twobytwo	71.0	0.881	blue	8.0	task_switch	magnitude	switch	s172	0
372.645	1.0	0.1	True	89.0	Orange-Blue	n/a	twobytwo	89.0	0.624	blue	1.0	task_switch	color	switch	s172	0
375.822	1.0	0.9	True	89.0	Orange-Blue	stay	twobytwo	89.0	0.471	blue	3.0	cue_stay	color	stay	s172	0
378.335	1.0	0.1	True	71.0	Color	switch	twobytwo	71.0	0.639	orange	2.0	cue_switch	color	stay	s172	0
381.24	1.0	0.9	True	89.0	High-Low	n/a	twobytwo	89.0	0.472	blue	2.0	task_switch	magnitude	switch	s172	0
384.28	1.0	0.9	True	71.0	High-Low	stay	twobytwo	71.0	0.55	orange	6.0	cue_stay	magnitude	stay	s172	0
387.184	1.0	0.9	True	71.0	High-Low	stay	twobytwo	71.0	0.528	orange	6.0	cue_stay	magnitude	stay	s172	0
389.697	1.0	0.1	True	71.0	Color	n/a	twobytwo	71.0	0.551	orange	6.0	task_switch	color	switch	s172	0
392.874	1.0	0.9	True	89.0	Color	stay	twobytwo	89.0	0.451	blue	6.0	cue_stay	color	stay	s172	0
394.979	1.0	0.1	True	71.0	High-Low	n/a	twobytwo	71.0	0.647	blue	7.0	task_switch	magnitude	switch	s172	0
398.155	1.0	0.9	False	71.0	Color	n/a	twobytwo	89.0	0.597	orange	1.0	task_switch	color	switch	s172	0
400.26	1.0	0.1	True	89.0	Magnitude	n/a	twobytwo	89.0	0.595	blue	3.0	task_switch	magnitude	switch	s172	0
402.365	1.0	0.1	True	71.0	Orange-Blue	n/a	twobytwo	71.0	0.554	orange	1.0	task_switch	color	switch	s172	0
404.742	1.0	0.1	True	71.0	Orange-Blue	stay	twobytwo	71.0	0.475	orange	7.0	cue_stay	color	stay	s172	0
407.781	1.0	0.9	True	89.0	High-Low	n/a	twobytwo	89.0	0.459	blue	1.0	task_switch	magnitude	switch	s172	0
410.686	1.0	0.9	True	71.0	Magnitude	switch	twobytwo	71.0	0.428	blue	7.0	cue_switch	magnitude	stay	s172	0
412.79	1.0	0.1	True	71.0	Color	n/a	twobytwo	71.0	0.654	orange	3.0	task_switch	color	switch	s172	0
414.894	1.0	0.1	True	71.0	Magnitude	n/a	twobytwo	71.0	0.588	blue	6.0	task_switch	magnitude	switch	s172	0
417.798	1.0	0.9	True	89.0	Orange-Blue	n/a	twobytwo	89.0	0.439	blue	1.0	task_switch	color	switch	s172	0
420.702	1.0	0.9	True	89.0	High-Low	n/a	twobytwo	89.0	0.542	orange	2.0	task_switch	magnitude	switch	s172	0
423.742	1.0	0.9	True	71.0	High-Low	stay	twobytwo	71.0	0.545	blue	6.0	cue_stay	magnitude	stay	s172	0
426.646	1.0	0.9	True	71.0	Orange-Blue	n/a	twobytwo	71.0	0.461	orange	9.0	task_switch	color	switch	s172	0
428.751	1.0	0.1	False	71.0	High-Low	n/a	twobytwo	89.0	0.612	blue	8.0	task_switch	magnitude	switch	s172	0
431.792	1.0	0.9	True	89.0	Orange-Blue	n/a	twobytwo	89.0	0.456	blue	7.0	task_switch	color	switch	s172	0
433.898	1.0	0.1	True	71.0	Orange-Blue	stay	twobytwo	71.0	0.541	orange	3.0	cue_stay	color	stay	s172	0
436.139	1.0	0.1	True	71.0	Magnitude	n/a	twobytwo	71.0	0.588	orange	6.0	task_switch	magnitude	switch	s172	0
439.723	1.0	0.9	True	89.0	Color	n/a	twobytwo	89.0	0.428	blue	9.0	task_switch	color	switch	s172	0
442.899	1.0	0.9	True	71.0	Orange-Blue	switch	twobytwo	71.0	0.426	orange	7.0	cue_switch	color	stay	s172	0
445.139	1.0	0.1	True	89.0	Magnitude	n/a	twobytwo	89.0	0.589	blue	2.0	task_switch	magnitude	switch	s172	0
447.244	1.0	0.1	True	71.0	Color	n/a	twobytwo	71.0	0.623	orange	8.0	task_switch	color	switch	s172	0
450.285	1.0	0.9	True	89.0	Magnitude	n/a	twobytwo	89.0	0.558	orange	4.0	task_switch	magnitude	switch	s172	0
453.869	1.0	0.9	True	71.0	Color	n/a	twobytwo	71.0	0.439	orange	8.0	task_switch	color	switch	s172	0
457.045	1.0	0.9	True	71.0	High-Low	n/a	twobytwo	71.0	0.448	orange	7.0	task_switch	magnitude	switch	s172	0
472.657	1.0	0.1	True	71.0	Color	n/a	twobytwo	71.0	0.545	orange	7.0	task_switch	color	switch	s172	1
475.56	1.0	0.9	True	71.0	Color	stay	twobytwo	71.0	0.445	orange	9.0	cue_stay	color	stay	s172	0
478.6	1.0	0.9	True	89.0	Orange-Blue	switch	twobytwo	89.0	0.397	blue	4.0	cue_switch	color	stay	s172	0
481.504	1.0	0.9	True	71.0	Color	switch	twobytwo	71.0	0.555	orange	2.0	cue_switch	color	stay	s172	0
483.608	1.0	0.1	True	71.0	Orange-Blue	switch	twobytwo	71.0	0.603	orange	3.0	cue_switch	color	stay	s172	0
485.712	1.0	0.1	True	89.0	High-Low	n/a	twobytwo	89.0	0.853	orange	2.0	task_switch	magnitude	switch	s172	0
488.088	1.0	0.1	True	89.0	High-Low	stay	twobytwo	89.0	0.671	blue	4.0	cue_stay	magnitude	stay	s172	0
490.601	1.0	0.1	True	89.0	Orange-Blue	n/a	twobytwo	89.0	0.62	blue	2.0	task_switch	color	switch	s172	0
493.505	1.0	0.9	True	71.0	Color	switch	twobytwo	71.0	0.475	orange	8.0	cue_switch	color	stay	s172	0
495.608	1.0	0.1	True	71.0	Orange-Blue	switch	twobytwo	71.0	0.552	orange	7.0	cue_switch	color	stay	s172	0
498.513	1.0	0.9	True	89.0	Orange-Blue	stay	twobytwo	89.0	0.467	blue	8.0	cue_stay	color	stay	s172	0
500.889	1.0	0.1	True	89.0	Magnitude	n/a	twobytwo	89.0	0.58	orange	1.0	task_switch	magnitude	switch	s172	0
503.129	1.0	0.1	True	71.0	Color	n/a	twobytwo	71.0	0.513	orange	7.0	task_switch	color	switch	s172	0
506.033	1.0	0.9	True	89.0	Orange-Blue	switch	twobytwo	89.0	0.426	blue	7.0	cue_switch	color	stay	s172	0
509.481	1.0	0.9	True	71.0	High-Low	n/a	twobytwo	71.0	0.403	blue	7.0	task_switch	magnitude	switch	s172	0
512.657	1.0	0.9	True	89.0	High-Low	stay	twobytwo	89.0	0.424	blue	2.0	cue_stay	magnitude	stay	s172	0
515.833	1.0	0.9	True	89.0	Orange-Blue	n/a	twobytwo	89.0	0.464	blue	1.0	task_switch	color	switch	s172	0
518.737	1.0	0.9	True	71.0	Magnitude	n/a	twobytwo	71.0	0.575	orange	9.0	task_switch	magnitude	switch	s172	0
520.841	1.0	0.1	True	71.0	Orange-Blue	n/a	twobytwo	71.0	0.663	orange	3.0	task_switch	color	switch	s172	0
523.081	1.0	0.1	True	71.0	High-Low	n/a	twobytwo	71.0	0.763	blue	8.0	task_switch	magnitude	switch	s172	0
525.986	1.0	0.9	True	89.0	High-Low	stay	twobytwo	89.0	0.452	blue	2.0	cue_stay	magnitude	stay	s172	0
529.027	1.0	0.9	True	71.0	High-Low	stay	twobytwo	71.0	0.45	orange	7.0	cue_stay	magnitude	stay	s172	0
531.404	1.0	0.1	True	71.0	Orange-Blue	n/a	twobytwo	71.0	0.517	orange	9.0	task_switch	color	switch	s172	0
534.445	1.0	0.9	True	89.0	Color	switch	twobytwo	89.0	0.444	blue	2.0	cue_switch	color	stay	s172	0
536.821	1.0	0.1	True	89.0	Color	stay	twobytwo	89.0	0.588	blue	3.0	cue_stay	color	stay	s172	0
539.725	1.0	0.9	True	89.0	Color	stay	twobytwo	89.0	0.476	blue	2.0	cue_stay	color	stay	s172	0
543.444	1.0	0.9	True	89.0	Magnitude	n/a	twobytwo	89.0	0.429	orange	2.0	task_switch	magnitude	switch	s172	0
546.756	1.0	0.9	True	89.0	Orange-Blue	n/a	twobytwo	89.0	0.477	blue	8.0	task_switch	color	switch	s172	0
548.861	1.0	0.1	True	71.0	Orange-Blue	stay	twobytwo	71.0	0.583	orange	6.0	cue_stay	color	stay	s172	0
551.509	1.0	0.1	False	89.0	Orange-Blue	stay	twobytwo	71.0	1.087	blue	6.0	cue_stay	color	stay	s172	0
554.549	1.0	0.9	True	71.0	Magnitude	n/a	twobytwo	71.0	0.41	orange	6.0	task_switch	magnitude	switch	s172	0
556.655	1.0	0.1	True	71.0	High-Low	switch	twobytwo	71.0	0.647	blue	8.0	cue_switch	magnitude	stay	s172	0
559.56	1.0	0.9	True	71.0	Color	n/a	twobytwo	71.0	0.518	orange	9.0	task_switch	color	switch	s172	0
561.801	1.0	0.1	True	89.0	Magnitude	n/a	twobytwo	89.0	0.557	blue	3.0	task_switch	magnitude	switch	s172	0
564.042	1.0	0.1	False	89.0	Color	n/a	twobytwo	71.0	0.569	blue	9.0	task_switch	color	switch	s172	0
566.418	1.0	0.1	True	89.0	Color	stay	twobytwo	89.0	0.616	blue	1.0	cue_stay	color	stay	s172	0
569.747	1.0	0.1	True	89.0	Magnitude	n/a	twobytwo	89.0	0.735	orange	4.0	task_switch	magnitude	switch	s172	0
572.651	1.0	0.9	True	89.0	Magnitude	stay	twobytwo	89.0	0.482	orange	4.0	cue_stay	magnitude	stay	s172	0
575.555	1.0	0.9	True	71.0	High-Low	switch	twobytwo	71.0	0.44	orange	7.0	cue_switch	magnitude	stay	s172	0
577.931	1.0	0.1	True	89.0	Orange-Blue	n/a	twobytwo	89.0	0.655	blue	4.0	task_switch	color	switch	s172	0
580.971	1.0	0.9	True	89.0	High-Low	n/a	twobytwo	89.0	0.465	blue	4.0	task_switch	magnitude	switch	s172	0
583.075	1.0	0.1	True	89.0	Orange-Blue	n/a	twobytwo	89.0	0.634	blue	6.0	task_switch	color	switch	s172	0
585.979	1.0	0.9	True	89.0	Orange-Blue	stay	twobytwo	89.0	0.449	blue	2.0	cue_stay	color	stay	s172	0
588.883	1.0	0.9	True	89.0	High-Low	n/a	twobytwo	89.0	0.542	orange	3.0	task_switch	magnitude	switch	s172	0
592.468	1.0	0.9	True	71.0	High-Low	stay	twobytwo	71.0	0.442	orange	8.0	cue_stay	magnitude	stay	s172	0
595.372	1.0	0.9	True	71.0	Orange-Blue	n/a	twobytwo	71.0	0.444	orange	6.0	task_switch	color	switch	s172	0
598.548	1.0	0.9	True	71.0	High-Low	n/a	twobytwo	71.0	0.551	blue	9.0	task_switch	magnitude	switch	s172	0
601.452	1.0	0.9	True	89.0	Color	n/a	twobytwo	89.0	0.502	blue	8.0	task_switch	color	switch	s172	0
603.828	1.0	0.1	True	89.0	Magnitude	n/a	twobytwo	89.0	0.583	blue	1.0	task_switch	magnitude	switch	s172	0
607.685	1.0	0.9	True	89.0	Magnitude	stay	twobytwo	89.0	0.433	blue	3.0	cue_stay	magnitude	stay	s172	0
609.788	1.0	0.1	True	89.0	High-Low	switch	twobytwo	89.0	0.659	orange	2.0	cue_switch	magnitude	stay	s172	0
612.693	1.0	0.9	True	89.0	Orange-Blue	n/a	twobytwo	89.0	0.44	blue	2.0	task_switch	color	switch	s172	0
615.596	1.0	0.9	True	71.0	Orange-Blue	stay	twobytwo	71.0	0.443	orange	6.0	cue_stay	color	stay	s172	0
618.501	1.0	0.9	True	71.0	Orange-Blue	stay	twobytwo	71.0	0.462	orange	6.0	cue_stay	color	stay	s172	0
620.743	1.0	0.1	True	71.0	Magnitude	n/a	twobytwo	71.0	0.681	orange	6.0	task_switch	magnitude	switch	s172	0
623.647	1.0	0.9	True	71.0	Magnitude	stay	twobytwo	71.0	0.467	blue	6.0	cue_stay	magnitude	stay	s172	0
625.751	1.0	0.1	True	89.0	Orange-Blue	n/a	twobytwo	89.0	0.71	blue	7.0	task_switch	color	switch	s172	0
628.655	1.0	0.9	True	89.0	Magnitude	n/a	twobytwo	89.0	0.481	orange	1.0	task_switch	magnitude	switch	s172	0
631.032	1.0	0.1	True	89.0	Color	n/a	twobytwo	89.0	0.635	blue	3.0	task_switch	color	switch	s172	0
633.271	1.0	0.1	True	89.0	High-Low	n/a	twobytwo	89.0	0.535	orange	1.0	task_switch	magnitude	switch	s172	0
635.375	1.0	0.1	False	71.0	High-Low	stay	twobytwo	89.0	0.546	orange	7.0	cue_stay	magnitude	stay	s172	0
638.416	1.0	0.9	True	89.0	Color	n/a	twobytwo	89.0	0.456	blue	1.0	task_switch	color	switch	s172	0
642.136	1.0	0.9	True	89.0	Orange-Blue	switch	twobytwo	89.0	0.464	blue	7.0	cue_switch	color	stay	s172	0
644.648	1.0	0.1	True	89.0	Magnitude	n/a	twobytwo	89.0	0.834	orange	3.0	task_switch	magnitude	switch	s172	0
646.753	1.0	0.1	True	89.0	Color	n/a	twobytwo	89.0	0.649	blue	6.0	task_switch	color	switch	s172	0
649.793	1.0	0.9	True	89.0	Magnitude	n/a	twobytwo	89.0	0.47	blue	1.0	task_switch	magnitude	switch	s172	0
652.835	1.0	0.9	True	71.0	Orange-Blue	n/a	twobytwo	71.0	0.478	orange	2.0	task_switch	color	switch	s172	0
655.874	1.0	0.9	True	89.0	Orange-Blue	stay	twobytwo	89.0	0.443	blue	6.0	cue_stay	color	stay	s172	0
659.323	1.0	0.9	True	71.0	High-Low	n/a	twobytwo	71.0	0.531	orange	9.0	task_switch	magnitude	switch	s172	0
661.563	1.0	0.1	True	89.0	Orange-Blue	n/a	twobytwo	89.0	1.077	blue	8.0	task_switch	color	switch	s172	0
664.467	1.0	0.9	True	71.0	Magnitude	n/a	twobytwo	71.0	0.521	blue	7.0	task_switch	magnitude	switch	s172	0
666.571	1.0	0.1	True	89.0	Magnitude	stay	twobytwo	89.0	0.73	orange	3.0	cue_stay	magnitude	stay	s172	0
668.675	1.0	0.1	True	71.0	Orange-Blue	n/a	twobytwo	71.0	0.742	orange	6.0	task_switch	color	switch	s172	0
671.578	1.0	0.9	True	71.0	Magnitude	n/a	twobytwo	71.0	0.462	blue	9.0	task_switch	magnitude	switch	s172	0
674.619	1.0	0.9	True	71.0	High-Low	switch	twobytwo	71.0	0.463	orange	7.0	cue_switch	magnitude	stay	s172	0
676.723	1.0	0.1	True	89.0	Color	n/a	twobytwo	89.0	0.623	blue	2.0	task_switch	color	switch	s172	0
678.827	1.0	0.1	True	71.0	Magnitude	n/a	twobytwo	71.0	0.58	orange	8.0	task_switch	magnitude	switch	s172	0
681.732	1.0	0.9	True	71.0	Color	n/a	twobytwo	71.0	0.456	orange	4.0	task_switch	color	switch	s172	0
684.772	1.0	0.9	True	71.0	High-Low	n/a	twobytwo	71.0	0.39	orange	8.0	task_switch	magnitude	switch	s172	0
687.812	1.0	0.9	True	71.0	Orange-Blue	n/a	twobytwo	71.0	0.488	orange	7.0	task_switch	color	switch	s172	0
