onset	duration	condition	correct	correct_response	experiment_exp_id	key_press	response_time	stim_color	stim_word	trial_type	worker_id
3.525	1.5	incongruent	1.0	71.0	stroop	71	1.104	blue	green	incongruent	s629
5.802	1.5	incongruent	1.0	71.0	stroop	71	0.519	blue	green	incongruent	s629
7.808	1.5	congruent	1.0	71.0	stroop	71	0.646	blue	blue	congruent	s629
9.813	1.5	congruent	1.0	71.0	stroop	71	0.464	blue	blue	congruent	s629
11.818	1.5	incongruent	1.0	89.0	stroop	89	0.872	red	green	incongruent	s629
13.825	1.5	congruent	1.0	71.0	stroop	71	0.758	blue	blue	congruent	s629
15.966	1.5	congruent	1.0	82.0	stroop	82	0.622	green	green	congruent	s629
17.971	1.5	incongruent	1.0	82.0	stroop	82	0.811	green	blue	incongruent	s629
19.978	1.5	congruent	1.0	82.0	stroop	82	0.689	green	green	congruent	s629
22.119	1.5	incongruent	0.0	89.0	stroop	71	0.711	red	green	incongruent	s629
24.124	1.5	incongruent	1.0	89.0	stroop	89	0.682	red	blue	incongruent	s629
26.13	1.5	incongruent	1.0	82.0	stroop	82	1.248	green	red	incongruent	s629
28.271	1.5	congruent	1.0	82.0	stroop	82	0.57	green	green	congruent	s629
30.412	1.5	congruent	1.0	71.0	stroop	71	0.739	blue	blue	congruent	s629
32.687	1.5	incongruent	1.0	82.0	stroop	82	0.852	green	blue	incongruent	s629
35.372	1.5	congruent	1.0	71.0	stroop	71	0.94	blue	blue	congruent	s629
37.377	1.5	congruent	1.0	71.0	stroop	71	0.542	blue	blue	congruent	s629
39.382	1.5	incongruent	1.0	89.0	stroop	89	0.588	red	green	incongruent	s629
41.66	1.5	incongruent	1.0	71.0	stroop	71	0.711	blue	green	incongruent	s629
43.665	1.5	congruent	1.0	71.0	stroop	71	1.004	blue	blue	congruent	s629
45.67	1.5	incongruent	1.0	82.0	stroop	82	0.815	green	red	incongruent	s629
47.673	1.5	incongruent	1.0	71.0	stroop	71	0.649	blue	green	incongruent	s629
49.678	1.5	incongruent	1.0	71.0	stroop	71	0.651	blue	red	incongruent	s629
51.684	1.5	incongruent	1.0	71.0	stroop	71	0.399	blue	red	incongruent	s629
53.689	1.5	congruent	1.0	89.0	stroop	89	0.507	red	red	congruent	s629
55.967	1.5	incongruent	1.0	89.0	stroop	89	0.519	red	green	incongruent	s629
57.973	1.5	congruent	1.0	89.0	stroop	89	0.485	red	red	congruent	s629
60.386	1.5	congruent	1.0	71.0	stroop	71	0.503	blue	blue	congruent	s629
62.393	1.5	congruent	1.0	89.0	stroop	89	0.714	red	red	congruent	s629
64.534	1.5	congruent	1.0	71.0	stroop	71	0.741	blue	blue	congruent	s629
66.539	1.5	congruent	1.0	71.0	stroop	71	0.543	blue	blue	congruent	s629
68.545	1.5	incongruent	1.0	89.0	stroop	89	0.518	red	blue	incongruent	s629
70.55	1.5	congruent	1.0	82.0	stroop	82	0.608	green	green	congruent	s629
72.823	1.5	incongruent	1.0	89.0	stroop	89	0.803	red	blue	incongruent	s629
74.829	1.5	incongruent	1.0	71.0	stroop	71	0.703	blue	green	incongruent	s629
77.106	1.5	incongruent	1.0	82.0	stroop	82	0.81	green	blue	incongruent	s629
79.383	1.5	incongruent	0.0	89.0	stroop	71	0.61	red	green	incongruent	s629
81.39	1.5	congruent	1.0	82.0	stroop	82	0.653	green	green	congruent	s629
84.075	1.5	incongruent	1.0	82.0	stroop	82	0.753	green	blue	incongruent	s629
86.08	1.5	congruent	1.0	89.0	stroop	89	0.594	red	red	congruent	s629
88.359	1.5	congruent	1.0	82.0	stroop	82	0.825	green	green	congruent	s629
90.365	1.5	congruent	1.0	89.0	stroop	89	0.604	red	red	congruent	s629
92.37	1.5	incongruent	1.0	89.0	stroop	89	1.043	red	green	incongruent	s629
94.648	1.5	congruent	1.0	89.0	stroop	89	0.45	red	red	congruent	s629
96.789	1.5	congruent	1.0	71.0	stroop	71	0.596	blue	blue	congruent	s629
99.339	1.5	incongruent	1.0	71.0	stroop	71	0.786	blue	red	incongruent	s629
101.752	1.5	incongruent	1.0	82.0	stroop	82	0.643	green	red	incongruent	s629
103.758	1.5	incongruent	1.0	82.0	stroop	82	0.627	green	red	incongruent	s629
105.763	1.5	incongruent	1.0	71.0	stroop	71	0.523	blue	red	incongruent	s629
107.768	1.5	congruent	1.0	89.0	stroop	89	0.425	red	red	congruent	s629
110.319	1.5	congruent	1.0	89.0	stroop	89	0.488	red	red	congruent	s629
112.46	1.5	congruent	1.0	82.0	stroop	82	0.603	green	green	congruent	s629
114.465	1.5	congruent	1.0	82.0	stroop	82	0.497	green	green	congruent	s629
116.471	1.5	congruent	1.0	82.0	stroop	82	0.637	green	green	congruent	s629
118.748	1.5	incongruent	0.0	89.0	stroop	71	0.728	red	green	incongruent	s629
120.753	1.5	congruent	1.0	82.0	stroop	82	0.998	green	green	congruent	s629
122.759	1.5	incongruent	1.0	89.0	stroop	89	0.714	red	blue	incongruent	s629
124.901	1.5	incongruent	1.0	82.0	stroop	82	1.09	green	red	incongruent	s629
126.906	1.5	incongruent	1.0	82.0	stroop	82	0.542	green	red	incongruent	s629
129.184	1.5	congruent	1.0	82.0	stroop	82	0.612	green	green	congruent	s629
131.325	1.5	incongruent	1.0	71.0	stroop	71	0.49	blue	green	incongruent	s629
133.738	1.5	congruent	1.0	89.0	stroop	89	0.5	red	red	congruent	s629
135.743	1.5	congruent	0.0	71.0	stroop	82	0.961	blue	blue	congruent	s629
137.748	1.5	incongruent	1.0	89.0	stroop	89	0.614	red	blue	incongruent	s629
140.57	1.5	incongruent	1.0	82.0	stroop	82	0.644	green	blue	incongruent	s629
142.574	1.5	incongruent	1.0	82.0	stroop	82	0.715	green	blue	incongruent	s629
144.581	1.5	congruent	1.0	71.0	stroop	71	0.481	blue	blue	congruent	s629
146.722	1.5	congruent	1.0	89.0	stroop	89	0.487	red	red	congruent	s629
148.727	1.5	incongruent	1.0	71.0	stroop	71	0.451	blue	red	incongruent	s629
150.733	1.5	congruent	1.0	71.0	stroop	71	0.632	blue	blue	congruent	s629
152.738	1.5	incongruent	1.0	82.0	stroop	82	1.228	green	red	incongruent	s629
154.743	1.5	congruent	1.0	71.0	stroop	71	0.806	blue	blue	congruent	s629
156.749	1.5	incongruent	1.0	71.0	stroop	71	0.704	blue	red	incongruent	s629
158.754	1.5	congruent	0.0	82.0	stroop	89	0.701	green	green	congruent	s629
160.759	1.5	incongruent	1.0	71.0	stroop	71	0.921	blue	green	incongruent	s629
163.036	1.5	incongruent	1.0	71.0	stroop	71	0.69	blue	green	incongruent	s629
165.043	1.5	congruent	1.0	89.0	stroop	89	0.58	red	red	congruent	s629
167.184	1.5	congruent	1.0	82.0	stroop	82	0.473	green	green	congruent	s629
169.191	1.5	congruent	1.0	89.0	stroop	89	0.725	red	red	congruent	s629
171.332	1.5	congruent	1.0	89.0	stroop	89	0.582	red	red	congruent	s629
173.337	1.5	congruent	1.0	82.0	stroop	82	0.824	green	green	congruent	s629
175.342	1.5	incongruent	0.0	82.0	stroop	71	0.77	green	blue	incongruent	s629
177.348	1.5	incongruent	1.0	71.0	stroop	71	1.007	blue	red	incongruent	s629
179.625	1.5	incongruent	1.0	89.0	stroop	89	0.723	red	blue	incongruent	s629
181.631	1.5	incongruent	1.0	89.0	stroop	89	1.188	red	green	incongruent	s629
183.772	1.5	congruent	1.0	89.0	stroop	89	0.53	red	red	congruent	s629
186.185	1.5	incongruent	0.0	71.0	stroop	89	0.639	blue	red	incongruent	s629
188.463	1.5	congruent	1.0	89.0	stroop	89	0.482	red	red	congruent	s629
191.145	1.5	congruent	1.0	82.0	stroop	82	0.517	green	green	congruent	s629
193.15	1.5	congruent	1.0	71.0	stroop	71	0.612	blue	blue	congruent	s629
195.563	1.5	congruent	1.0	82.0	stroop	82	0.794	green	green	congruent	s629
197.705	1.5	incongruent	1.0	89.0	stroop	89	0.835	red	blue	incongruent	s629
200.39	1.5	incongruent	0.0	82.0	stroop	71	0.686	green	blue	incongruent	s629
202.397	1.5	incongruent	1.0	89.0	stroop	89	0.619	red	blue	incongruent	s629
204.539	1.5	congruent	1.0	89.0	stroop	89	0.585	red	red	congruent	s629
207.496	1.5	incongruent	1.0	82.0	stroop	82	0.567	green	red	incongruent	s629
