onset	duration	CTI	correct	correct_response	cue	cue_switch	experiment_exp_id	key_press	response_time	stim_color	stim_number	switch_type	task_type	task_switch	worker_id	first_trial_of_block
4.411	1.0	0.9	True	89.0	Color	switch	twobytwo	89.0	0.587	orange	1.0	cue_switch	color	stay	s556	1
7.453	1.0	0.9	True	89.0	High-Low	n/a	twobytwo	89.0	0.64	blue	2.0	task_switch	magnitude	switch	s556	0
10.629	1.0	0.9	True	89.0	Color	n/a	twobytwo	89.0	0.557	orange	2.0	task_switch	color	switch	s556	0
13.669	1.0	0.9	True	89.0	Color	stay	twobytwo	89.0	0.546	orange	8.0	cue_stay	color	stay	s556	0
16.045	1.0	0.1	True	71.0	Magnitude	n/a	twobytwo	71.0	1.011	blue	9.0	task_switch	magnitude	switch	s556	0
18.949	1.0	0.9	True	71.0	Magnitude	stay	twobytwo	71.0	1.476	orange	8.0	cue_stay	magnitude	stay	s556	0
22.669	1.0	0.9	True	89.0	High-Low	switch	twobytwo	89.0	0.875	orange	4.0	cue_switch	magnitude	stay	s556	0
25.981	1.0	0.9	True	71.0	High-Low	stay	twobytwo	71.0	0.531	blue	7.0	cue_stay	magnitude	stay	s556	0
28.886	1.0	0.9	True	71.0	High-Low	stay	twobytwo	71.0	0.773	orange	9.0	cue_stay	magnitude	stay	s556	0
31.536	1.0	0.1	True	89.0	Orange-Blue	n/a	twobytwo	89.0	0.79	orange	7.0	task_switch	color	switch	s556	0
33.776	1.0	0.1	True	89.0	High-Low	n/a	twobytwo	89.0	0.853	orange	3.0	task_switch	magnitude	switch	s556	0
35.881	1.0	0.1	True	71.0	High-Low	stay	twobytwo	71.0	0.797	blue	8.0	cue_stay	magnitude	stay	s556	0
38.785	1.0	0.9	True	71.0	Magnitude	switch	twobytwo	71.0	0.658	blue	9.0	cue_switch	magnitude	stay	s556	0
41.025	1.0	0.1	True	89.0	Magnitude	stay	twobytwo	89.0	0.633	blue	2.0	cue_stay	magnitude	stay	s556	0
44.064	1.0	0.9	True	89.0	Orange-Blue	n/a	twobytwo	89.0	0.542	orange	7.0	task_switch	color	switch	s556	0
47.241	1.0	0.9	True	89.0	Color	switch	twobytwo	89.0	1.102	orange	6.0	cue_switch	color	stay	s556	0
50.569	1.0	0.1	True	89.0	Orange-Blue	switch	twobytwo	89.0	1.012	orange	2.0	cue_switch	color	stay	s556	0
52.673	1.0	0.1	True	89.0	High-Low	n/a	twobytwo	89.0	0.64	blue	1.0	task_switch	magnitude	switch	s556	0
54.777	1.0	0.1	True	89.0	Orange-Blue	n/a	twobytwo	89.0	0.986	orange	6.0	task_switch	color	switch	s556	0
57.154	1.0	0.1	True	71.0	High-Low	n/a	twobytwo	71.0	1.039	blue	7.0	task_switch	magnitude	switch	s556	0
59.396	1.0	0.1	True	89.0	Magnitude	switch	twobytwo	89.0	1.114	orange	4.0	cue_switch	magnitude	stay	s556	0
61.5	1.0	0.1	True	71.0	Magnitude	stay	twobytwo	71.0	0.607	blue	9.0	cue_stay	magnitude	stay	s556	0
64.403	1.0	0.9	True	71.0	Magnitude	stay	twobytwo	71.0	0.773	orange	6.0	cue_stay	magnitude	stay	s556	0
66.508	1.0	0.1	True	89.0	Magnitude	stay	twobytwo	89.0	0.635	orange	2.0	cue_stay	magnitude	stay	s556	0
70.092	1.0	0.9	True	89.0	Orange-Blue	n/a	twobytwo	89.0	0.591	orange	3.0	task_switch	color	switch	s556	0
72.997	1.0	0.9	True	89.0	High-Low	n/a	twobytwo	89.0	0.504	orange	2.0	task_switch	magnitude	switch	s556	0
75.372	1.0	0.1	True	71.0	Color	n/a	twobytwo	71.0	1.006	blue	9.0	task_switch	color	switch	s556	0
77.477	1.0	0.1	True	89.0	Orange-Blue	switch	twobytwo	89.0	0.849	orange	8.0	cue_switch	color	stay	s556	0
79.853	1.0	0.1	True	89.0	Color	switch	twobytwo	89.0	0.98	orange	7.0	cue_switch	color	stay	s556	0
82.908	1.0	0.1	True	89.0	Magnitude	n/a	twobytwo	89.0	0.807	orange	3.0	task_switch	magnitude	switch	s556	0
85.813	1.0	0.9	True	71.0	High-Low	switch	twobytwo	71.0	0.586	orange	6.0	cue_switch	magnitude	stay	s556	0
88.717	1.0	0.9	True	71.0	Color	n/a	twobytwo	71.0	0.403	blue	4.0	task_switch	color	switch	s556	0
91.621	1.0	0.9	True	89.0	Color	stay	twobytwo	89.0	0.765	orange	4.0	cue_stay	color	stay	s556	0
94.525	1.0	0.9	True	89.0	Orange-Blue	switch	twobytwo	89.0	0.517	orange	3.0	cue_switch	color	stay	s556	0
97.565	1.0	0.9	True	71.0	Magnitude	n/a	twobytwo	71.0	0.544	blue	8.0	task_switch	magnitude	switch	s556	0
100.471	1.0	0.9	True	71.0	Color	n/a	twobytwo	71.0	0.491	blue	7.0	task_switch	color	switch	s556	0
102.575	1.0	0.1	True	89.0	Orange-Blue	switch	twobytwo	89.0	0.936	orange	3.0	cue_switch	color	stay	s556	0
105.48	1.0	0.9	True	71.0	High-Low	n/a	twobytwo	71.0	0.478	orange	9.0	task_switch	magnitude	switch	s556	0
107.856	1.0	0.1	True	71.0	Orange-Blue	n/a	twobytwo	71.0	0.954	blue	3.0	task_switch	color	switch	s556	0
110.896	1.0	0.9	True	71.0	Magnitude	n/a	twobytwo	71.0	0.5	blue	7.0	task_switch	magnitude	switch	s556	0
113.801	1.0	0.9	True	89.0	Color	n/a	twobytwo	89.0	0.579	orange	1.0	task_switch	color	switch	s556	0
116.84	1.0	0.9	True	89.0	High-Low	n/a	twobytwo	89.0	0.518	orange	3.0	task_switch	magnitude	switch	s556	0
119.761	1.0	0.1	True	71.0	Magnitude	switch	twobytwo	71.0	0.914	orange	7.0	cue_switch	magnitude	stay	s556	0
122.273	1.0	0.1	True	71.0	Orange-Blue	n/a	twobytwo	71.0	1.025	blue	8.0	task_switch	color	switch	s556	0
124.377	1.0	0.1	True	71.0	High-Low	n/a	twobytwo	71.0	1.243	blue	8.0	task_switch	magnitude	switch	s556	0
127.417	1.0	0.9	True	71.0	High-Low	stay	twobytwo	71.0	0.642	blue	8.0	cue_stay	magnitude	stay	s556	0
130.457	1.0	0.9	True	89.0	Magnitude	switch	twobytwo	89.0	0.583	orange	4.0	cue_switch	magnitude	stay	s556	0
133.497	1.0	0.9	True	71.0	Orange-Blue	n/a	twobytwo	71.0	0.528	blue	9.0	task_switch	color	switch	s556	0
136.946	1.0	0.9	True	89.0	High-Low	n/a	twobytwo	89.0	0.618	orange	3.0	task_switch	magnitude	switch	s556	0
139.987	1.0	0.9	True	89.0	Orange-Blue	n/a	twobytwo	89.0	0.477	orange	8.0	task_switch	color	switch	s556	0
142.892	1.0	0.9	True	89.0	Magnitude	n/a	twobytwo	89.0	0.449	orange	4.0	task_switch	magnitude	switch	s556	0
145.796	1.0	0.9	True	89.0	Magnitude	stay	twobytwo	89.0	1.342	blue	4.0	cue_stay	magnitude	stay	s556	0
147.901	1.0	0.1	True	89.0	Color	n/a	twobytwo	89.0	0.849	orange	1.0	task_switch	color	switch	s556	0
150.004	1.0	0.1	True	71.0	Magnitude	n/a	twobytwo	71.0	0.776	orange	8.0	task_switch	magnitude	switch	s556	0
152.244	1.0	0.1	True	71.0	High-Low	switch	twobytwo	71.0	0.744	orange	8.0	cue_switch	magnitude	stay	s556	0
155.149	1.0	0.9	True	89.0	Magnitude	switch	twobytwo	89.0	0.538	blue	4.0	cue_switch	magnitude	stay	s556	0
158.052	1.0	0.9	True	89.0	Magnitude	stay	twobytwo	89.0	0.438	orange	4.0	cue_stay	magnitude	stay	s556	0
160.957	1.0	0.9	True	89.0	Color	n/a	twobytwo	89.0	0.435	orange	1.0	task_switch	color	switch	s556	0
163.199	1.0	0.1	True	89.0	Magnitude	n/a	twobytwo	89.0	0.7	orange	4.0	task_switch	magnitude	switch	s556	0
165.439	1.0	0.1	True	89.0	Magnitude	stay	twobytwo	89.0	0.647	orange	2.0	cue_stay	magnitude	stay	s556	0
167.678	1.0	0.1	True	71.0	Color	n/a	twobytwo	71.0	0.669	blue	2.0	task_switch	color	switch	s556	0
169.919	1.0	0.1	False	71.0	Color	stay	twobytwo	89.0	0.944	blue	1.0	cue_stay	color	stay	s556	0
172.704	1.0	0.1	True	71.0	Orange-Blue	switch	twobytwo	71.0	1.642	blue	7.0	cue_switch	color	stay	s556	0
175.352	1.0	0.1	True	71.0	Color	switch	twobytwo	71.0	0.843	blue	9.0	cue_switch	color	stay	s556	0
178.528	1.0	0.9	True	89.0	Orange-Blue	switch	twobytwo	89.0	0.619	orange	1.0	cue_switch	color	stay	s556	0
181.704	1.0	0.9	True	89.0	High-Low	n/a	twobytwo	89.0	1.094	blue	2.0	task_switch	magnitude	switch	s556	0
184.217	1.0	0.1	True	71.0	High-Low	stay	twobytwo	71.0	0.681	blue	9.0	cue_stay	magnitude	stay	s556	0
187.258	1.0	0.9	True	89.0	Orange-Blue	n/a	twobytwo	89.0	0.594	orange	4.0	task_switch	color	switch	s556	0
189.635	1.0	0.1	True	71.0	Color	switch	twobytwo	71.0	0.844	blue	4.0	cue_switch	color	stay	s556	0
192.538	1.0	0.9	True	71.0	Orange-Blue	switch	twobytwo	71.0	1.015	blue	1.0	cue_switch	color	stay	s556	0
195.578	1.0	0.9	True	71.0	Orange-Blue	stay	twobytwo	71.0	0.518	blue	4.0	cue_stay	color	stay	s556	0
197.955	1.0	0.1	True	71.0	Magnitude	n/a	twobytwo	71.0	0.952	blue	7.0	task_switch	magnitude	switch	s556	0
200.059	1.0	0.1	False	71.0	Orange-Blue	n/a	twobytwo	89.0	0.883	blue	4.0	task_switch	color	switch	s556	0
202.843	1.0	0.1	True	89.0	Color	switch	twobytwo	89.0	0.852	orange	4.0	cue_switch	color	stay	s556	0
204.948	1.0	0.1	True	89.0	High-Low	n/a	twobytwo	89.0	0.756	blue	2.0	task_switch	magnitude	switch	s556	0
207.852	1.0	0.9	True	89.0	High-Low	stay	twobytwo	89.0	0.575	blue	1.0	cue_stay	magnitude	stay	s556	0
209.956	1.0	0.1	True	89.0	Orange-Blue	n/a	twobytwo	89.0	1.257	orange	2.0	task_switch	color	switch	s556	0
212.332	1.0	0.1	True	71.0	Magnitude	n/a	twobytwo	71.0	0.756	blue	7.0	task_switch	magnitude	switch	s556	0
215.238	1.0	0.9	True	89.0	Color	n/a	twobytwo	89.0	0.477	orange	4.0	task_switch	color	switch	s556	0
217.342	1.0	0.1	True	71.0	Magnitude	n/a	twobytwo	71.0	0.815	blue	8.0	task_switch	magnitude	switch	s556	0
233.756	1.0	0.9	True	89.0	High-Low	switch	twobytwo	89.0	0.473	orange	1.0	cue_switch	magnitude	stay	s556	1
237.34	1.0	0.9	True	71.0	Orange-Blue	n/a	twobytwo	71.0	1.208	blue	2.0	task_switch	color	switch	s556	0
240.245	1.0	0.9	True	89.0	Magnitude	n/a	twobytwo	89.0	0.903	orange	2.0	task_switch	magnitude	switch	s556	0
243.286	1.0	0.9	True	71.0	Magnitude	stay	twobytwo	71.0	0.671	orange	8.0	cue_stay	magnitude	stay	s556	0
245.799	1.0	0.1	True	71.0	Orange-Blue	n/a	twobytwo	71.0	0.859	blue	9.0	task_switch	color	switch	s556	0
248.839	1.0	0.9	True	89.0	Orange-Blue	stay	twobytwo	89.0	0.757	orange	8.0	cue_stay	color	stay	s556	0
251.744	1.0	0.9	True	89.0	Color	switch	twobytwo	89.0	0.485	orange	4.0	cue_switch	color	stay	s556	0
254.648	1.0	0.9	True	71.0	Color	stay	twobytwo	71.0	0.546	blue	7.0	cue_stay	color	stay	s556	0
258.097	1.0	0.9	False	89.0	Color	stay	twobytwo	71.0	0.599	orange	9.0	cue_stay	color	stay	s556	0
260.336	1.0	0.1	True	71.0	High-Low	n/a	twobytwo	71.0	1.025	orange	7.0	task_switch	magnitude	switch	s556	0
262.984	1.0	0.1	True	89.0	Orange-Blue	n/a	twobytwo	89.0	1.296	orange	3.0	task_switch	color	switch	s556	0
265.768	1.0	0.1	True	71.0	Orange-Blue	stay	twobytwo	71.0	0.919	blue	8.0	cue_stay	color	stay	s556	0
268.672	1.0	0.9	True	71.0	Color	switch	twobytwo	71.0	0.583	blue	9.0	cue_switch	color	stay	s556	0
271.047	1.0	0.1	True	71.0	Color	stay	twobytwo	71.0	0.935	blue	2.0	cue_stay	color	stay	s556	0
275.041	1.0	0.9	True	71.0	Magnitude	n/a	twobytwo	71.0	0.615	orange	7.0	task_switch	magnitude	switch	s556	0
277.946	1.0	0.9	True	71.0	High-Low	switch	twobytwo	71.0	0.584	orange	6.0	cue_switch	magnitude	stay	s556	0
280.185	1.0	0.1	True	89.0	Magnitude	switch	twobytwo	89.0	0.837	orange	2.0	cue_switch	magnitude	stay	s556	0
282.424	1.0	0.1	False	71.0	Color	n/a	twobytwo	89.0	0.998	blue	1.0	task_switch	color	switch	s556	0
284.529	1.0	0.1	True	71.0	High-Low	n/a	twobytwo	71.0	0.963	orange	6.0	task_switch	magnitude	switch	s556	0
286.905	1.0	0.1	True	71.0	Color	n/a	twobytwo	71.0	1.188	blue	7.0	task_switch	color	switch	s556	0
289.009	1.0	0.1	True	89.0	Orange-Blue	switch	twobytwo	89.0	0.93	orange	4.0	cue_switch	color	stay	s556	0
291.251	1.0	0.1	True	71.0	Orange-Blue	stay	twobytwo	71.0	0.684	blue	9.0	cue_stay	color	stay	s556	0
294.292	1.0	0.9	True	89.0	Orange-Blue	stay	twobytwo	89.0	0.839	orange	6.0	cue_stay	color	stay	s556	0
296.94	1.0	0.1	True	89.0	Orange-Blue	stay	twobytwo	89.0	0.689	orange	2.0	cue_stay	color	stay	s556	0
299.843	1.0	0.9	True	89.0	Magnitude	n/a	twobytwo	89.0	0.56	orange	3.0	task_switch	magnitude	switch	s556	0
302.884	1.0	0.9	True	89.0	Orange-Blue	n/a	twobytwo	89.0	0.566	orange	2.0	task_switch	color	switch	s556	0
305.124	1.0	0.1	True	71.0	High-Low	n/a	twobytwo	71.0	0.96	blue	9.0	task_switch	magnitude	switch	s556	0
307.363	1.0	0.1	True	71.0	Magnitude	switch	twobytwo	71.0	0.673	orange	8.0	cue_switch	magnitude	stay	s556	0
309.469	1.0	0.1	True	71.0	High-Low	switch	twobytwo	71.0	0.532	orange	7.0	cue_switch	magnitude	stay	s556	0
311.71	1.0	0.1	True	89.0	Color	n/a	twobytwo	89.0	0.998	orange	3.0	task_switch	color	switch	s556	0
314.615	1.0	0.9	True	89.0	Orange-Blue	switch	twobytwo	89.0	0.53	orange	6.0	cue_switch	color	stay	s556	0
317.655	1.0	0.9	True	89.0	High-Low	n/a	twobytwo	89.0	0.731	blue	4.0	task_switch	magnitude	switch	s556	0
321.375	1.0	0.9	True	89.0	High-Low	stay	twobytwo	89.0	0.481	orange	4.0	cue_stay	magnitude	stay	s556	0
324.415	1.0	0.9	True	89.0	Magnitude	switch	twobytwo	89.0	0.929	orange	3.0	cue_switch	magnitude	stay	s556	0
327.319	1.0	0.9	True	71.0	Color	n/a	twobytwo	71.0	0.433	blue	8.0	task_switch	color	switch	s556	0
330.225	1.0	0.9	True	71.0	Magnitude	n/a	twobytwo	71.0	0.623	blue	7.0	task_switch	magnitude	switch	s556	0
332.602	1.0	0.1	True	89.0	High-Low	switch	twobytwo	89.0	1.141	orange	3.0	cue_switch	magnitude	stay	s556	0
335.506	1.0	0.9	True	89.0	Color	n/a	twobytwo	89.0	0.803	orange	9.0	task_switch	color	switch	s556	0
337.61	1.0	0.1	True	89.0	Magnitude	n/a	twobytwo	89.0	1.069	blue	3.0	task_switch	magnitude	switch	s556	0
340.515	1.0	0.9	True	71.0	Orange-Blue	n/a	twobytwo	71.0	0.632	blue	7.0	task_switch	color	switch	s556	0
343.828	1.0	0.9	True	89.0	Magnitude	n/a	twobytwo	89.0	0.588	orange	1.0	task_switch	magnitude	switch	s556	0
347.005	1.0	0.9	True	89.0	Color	n/a	twobytwo	89.0	0.659	orange	3.0	task_switch	color	switch	s556	0
349.246	1.0	0.1	True	89.0	Orange-Blue	switch	twobytwo	89.0	0.696	orange	7.0	cue_switch	color	stay	s556	0
351.35	1.0	0.1	True	71.0	High-Low	n/a	twobytwo	71.0	0.947	blue	8.0	task_switch	magnitude	switch	s556	0
353.454	1.0	0.1	True	71.0	Orange-Blue	n/a	twobytwo	71.0	0.946	blue	8.0	task_switch	color	switch	s556	0
356.495	1.0	0.9	True	71.0	Orange-Blue	stay	twobytwo	71.0	0.456	blue	8.0	cue_stay	color	stay	s556	0
359.4	1.0	0.9	True	89.0	Color	switch	twobytwo	89.0	0.591	orange	4.0	cue_switch	color	stay	s556	0
362.441	1.0	0.9	True	71.0	High-Low	n/a	twobytwo	71.0	0.684	blue	9.0	task_switch	magnitude	switch	s556	0
365.754	1.0	0.9	True	89.0	Color	n/a	twobytwo	89.0	0.7	orange	3.0	task_switch	color	switch	s556	0
368.795	1.0	0.9	True	71.0	High-Low	n/a	twobytwo	71.0	0.75	orange	8.0	task_switch	magnitude	switch	s556	0
371.7	1.0	0.9	True	89.0	Orange-Blue	n/a	twobytwo	89.0	0.664	orange	4.0	task_switch	color	switch	s556	0
374.742	1.0	0.9	True	71.0	Orange-Blue	stay	twobytwo	71.0	0.331	blue	4.0	cue_stay	color	stay	s556	0
377.117	1.0	0.1	True	89.0	High-Low	n/a	twobytwo	89.0	0.541	orange	1.0	task_switch	magnitude	switch	s556	0
379.222	1.0	0.1	True	89.0	Orange-Blue	n/a	twobytwo	89.0	0.971	orange	8.0	task_switch	color	switch	s556	0
381.734	1.0	0.1	True	89.0	Color	switch	twobytwo	89.0	1.236	orange	8.0	cue_switch	color	stay	s556	0
384.64	1.0	0.9	True	71.0	Orange-Blue	switch	twobytwo	71.0	0.396	blue	4.0	cue_switch	color	stay	s556	0
387.68	1.0	0.9	True	89.0	Orange-Blue	stay	twobytwo	89.0	0.631	orange	4.0	cue_stay	color	stay	s556	0
390.994	1.0	0.9	True	89.0	Magnitude	n/a	twobytwo	89.0	0.464	orange	1.0	task_switch	magnitude	switch	s556	0
393.233	1.0	0.1	True	89.0	Color	n/a	twobytwo	89.0	0.882	orange	4.0	task_switch	color	switch	s556	0
395.745	1.0	0.1	True	89.0	Color	stay	twobytwo	89.0	0.716	orange	2.0	cue_stay	color	stay	s556	0
397.985	1.0	0.1	True	89.0	High-Low	n/a	twobytwo	89.0	1.149	blue	2.0	task_switch	magnitude	switch	s556	0
400.09	1.0	0.1	True	89.0	High-Low	stay	twobytwo	89.0	0.902	blue	1.0	cue_stay	magnitude	stay	s556	0
402.465	1.0	0.1	True	71.0	Magnitude	switch	twobytwo	71.0	1.084	blue	7.0	cue_switch	magnitude	stay	s556	0
404.569	1.0	0.1	True	71.0	High-Low	switch	twobytwo	71.0	0.792	blue	9.0	cue_switch	magnitude	stay	s556	0
407.745	1.0	0.9	True	89.0	Magnitude	switch	twobytwo	89.0	0.667	orange	1.0	cue_switch	magnitude	stay	s556	0
410.922	1.0	0.9	True	71.0	Color	n/a	twobytwo	71.0	0.363	blue	2.0	task_switch	color	switch	s556	0
413.979	1.0	0.1	True	71.0	Color	stay	twobytwo	71.0	0.722	blue	9.0	cue_stay	color	stay	s556	0
417.563	1.0	0.9	True	89.0	Magnitude	n/a	twobytwo	89.0	0.805	orange	4.0	task_switch	magnitude	switch	s556	0
419.802	1.0	0.1	True	89.0	High-Low	switch	twobytwo	89.0	1.106	blue	4.0	cue_switch	magnitude	stay	s556	0
422.98	1.0	0.9	True	89.0	Magnitude	switch	twobytwo	89.0	0.67	blue	1.0	cue_switch	magnitude	stay	s556	0
426.155	1.0	0.9	True	89.0	Magnitude	stay	twobytwo	89.0	0.597	blue	4.0	cue_stay	magnitude	stay	s556	0
428.397	1.0	0.1	True	71.0	Orange-Blue	n/a	twobytwo	71.0	1.266	blue	7.0	task_switch	color	switch	s556	0
430.908	1.0	0.1	True	89.0	High-Low	n/a	twobytwo	89.0	1.048	blue	4.0	task_switch	magnitude	switch	s556	0
433.149	1.0	0.1	True	89.0	Magnitude	switch	twobytwo	89.0	0.949	orange	4.0	cue_switch	magnitude	stay	s556	0
435.389	1.0	0.1	True	71.0	Color	n/a	twobytwo	71.0	0.857	blue	2.0	task_switch	color	switch	s556	0
438.294	1.0	0.9	True	71.0	Color	stay	twobytwo	71.0	1.051	blue	1.0	cue_stay	color	stay	s556	0
440.397	1.0	0.1	True	89.0	Magnitude	n/a	twobytwo	89.0	0.899	orange	2.0	task_switch	magnitude	switch	s556	0
442.502	1.0	0.1	True	71.0	Color	n/a	twobytwo	71.0	0.866	blue	7.0	task_switch	color	switch	s556	0
445.406	1.0	0.9	True	89.0	High-Low	n/a	twobytwo	89.0	0.548	orange	4.0	task_switch	magnitude	switch	s556	0
447.51	1.0	0.1	True	71.0	Color	n/a	twobytwo	71.0	1.097	blue	8.0	task_switch	color	switch	s556	0
464.194	1.0	0.9	True	89.0	High-Low	switch	twobytwo	89.0	0.517	orange	1.0	cue_switch	magnitude	stay	s556	1
467.507	1.0	0.9	True	71.0	Orange-Blue	n/a	twobytwo	71.0	0.493	blue	2.0	task_switch	color	switch	s556	0
470.411	1.0	0.9	True	89.0	Magnitude	n/a	twobytwo	89.0	0.497	orange	2.0	task_switch	magnitude	switch	s556	0
473.451	1.0	0.9	True	71.0	Magnitude	stay	twobytwo	71.0	0.557	orange	8.0	cue_stay	magnitude	stay	s556	0
475.556	1.0	0.1	True	71.0	Orange-Blue	n/a	twobytwo	71.0	0.919	blue	9.0	task_switch	color	switch	s556	0
478.597	1.0	0.9	True	89.0	Orange-Blue	stay	twobytwo	89.0	0.652	orange	8.0	cue_stay	color	stay	s556	0
482.046	1.0	0.9	True	89.0	Color	switch	twobytwo	89.0	0.587	orange	4.0	cue_switch	color	stay	s556	0
485.631	1.0	0.9	True	71.0	Color	stay	twobytwo	71.0	0.39	blue	7.0	cue_stay	color	stay	s556	0
489.623	1.0	0.9	True	89.0	Color	stay	twobytwo	89.0	0.535	orange	9.0	cue_stay	color	stay	s556	0
491.862	1.0	0.1	True	71.0	High-Low	n/a	twobytwo	71.0	0.981	orange	7.0	task_switch	magnitude	switch	s556	0
494.511	1.0	0.1	True	89.0	Orange-Blue	n/a	twobytwo	89.0	0.988	orange	3.0	task_switch	color	switch	s556	0
496.616	1.0	0.1	True	71.0	Orange-Blue	stay	twobytwo	71.0	0.79	blue	8.0	cue_stay	color	stay	s556	0
499.656	1.0	0.9	True	71.0	Color	switch	twobytwo	71.0	0.508	blue	9.0	cue_switch	color	stay	s556	0
501.759	1.0	0.1	True	71.0	Color	stay	twobytwo	71.0	0.634	blue	2.0	cue_stay	color	stay	s556	0
505.07	1.0	0.9	True	71.0	High-Low	n/a	twobytwo	71.0	0.653	orange	7.0	task_switch	magnitude	switch	s556	0
507.975	1.0	0.9	True	71.0	Magnitude	switch	twobytwo	71.0	0.75	orange	6.0	cue_switch	magnitude	stay	s556	0
510.08	1.0	0.1	True	89.0	High-Low	switch	twobytwo	89.0	0.869	orange	2.0	cue_switch	magnitude	stay	s556	0
512.185	1.0	0.1	True	71.0	Color	n/a	twobytwo	71.0	0.909	blue	1.0	task_switch	color	switch	s556	0
514.97	1.0	0.1	True	71.0	High-Low	n/a	twobytwo	71.0	0.88	orange	6.0	task_switch	magnitude	switch	s556	0
517.346	1.0	0.1	True	71.0	Orange-Blue	n/a	twobytwo	71.0	0.7	blue	7.0	task_switch	color	switch	s556	0
519.858	1.0	0.1	True	89.0	Color	switch	twobytwo	89.0	1.304	orange	4.0	cue_switch	color	stay	s556	0
523.186	1.0	0.1	True	71.0	Color	stay	twobytwo	71.0	0.644	blue	9.0	cue_stay	color	stay	s556	0
526.499	1.0	0.9	True	89.0	Color	stay	twobytwo	89.0	0.378	orange	6.0	cue_stay	color	stay	s556	0
529.419	1.0	0.1	True	89.0	Color	stay	twobytwo	89.0	0.613	orange	2.0	cue_stay	color	stay	s556	0
532.731	1.0	0.9	True	89.0	Magnitude	n/a	twobytwo	89.0	0.517	orange	3.0	task_switch	magnitude	switch	s556	0
535.771	1.0	0.9	True	89.0	Color	n/a	twobytwo	89.0	0.393	orange	2.0	task_switch	color	switch	s556	0
538.011	1.0	0.1	True	71.0	High-Low	n/a	twobytwo	71.0	0.742	blue	9.0	task_switch	magnitude	switch	s556	0
540.116	1.0	0.1	True	71.0	Magnitude	switch	twobytwo	71.0	0.946	orange	8.0	cue_switch	magnitude	stay	s556	0
542.219	1.0	0.1	True	71.0	High-Low	switch	twobytwo	71.0	0.809	orange	7.0	cue_switch	magnitude	stay	s556	0
544.596	1.0	0.1	True	89.0	Orange-Blue	n/a	twobytwo	89.0	1.103	orange	3.0	task_switch	color	switch	s556	0
547.908	1.0	0.9	True	89.0	Color	switch	twobytwo	89.0	1.257	orange	6.0	cue_switch	color	stay	s556	0
550.811	1.0	0.9	True	89.0	High-Low	n/a	twobytwo	89.0	1.172	blue	4.0	task_switch	magnitude	switch	s556	0
553.851	1.0	0.9	True	89.0	High-Low	stay	twobytwo	89.0	0.57	orange	4.0	cue_stay	magnitude	stay	s556	0
556.756	1.0	0.9	True	89.0	Magnitude	switch	twobytwo	89.0	0.468	orange	3.0	cue_switch	magnitude	stay	s556	0
560.068	1.0	0.9	True	71.0	Color	n/a	twobytwo	71.0	0.521	blue	8.0	task_switch	color	switch	s556	0
563.244	1.0	0.9	True	71.0	High-Low	n/a	twobytwo	71.0	0.805	blue	7.0	task_switch	magnitude	switch	s556	0
565.348	1.0	0.1	True	89.0	Magnitude	switch	twobytwo	89.0	0.719	orange	3.0	cue_switch	magnitude	stay	s556	0
568.523	1.0	0.9	True	89.0	Color	n/a	twobytwo	89.0	0.521	orange	9.0	task_switch	color	switch	s556	0
570.628	1.0	0.1	True	89.0	Magnitude	n/a	twobytwo	89.0	0.873	blue	3.0	task_switch	magnitude	switch	s556	0
573.532	1.0	0.9	True	71.0	Orange-Blue	n/a	twobytwo	71.0	1.412	blue	7.0	task_switch	color	switch	s556	0
576.71	1.0	0.9	True	89.0	High-Low	n/a	twobytwo	89.0	0.675	orange	1.0	task_switch	magnitude	switch	s556	0
579.75	1.0	0.9	True	89.0	Color	n/a	twobytwo	89.0	0.482	orange	3.0	task_switch	color	switch	s556	0
581.855	1.0	0.1	True	89.0	Orange-Blue	switch	twobytwo	89.0	0.951	orange	7.0	cue_switch	color	stay	s556	0
583.959	1.0	0.1	True	71.0	High-Low	n/a	twobytwo	71.0	0.883	blue	8.0	task_switch	magnitude	switch	s556	0
586.064	1.0	0.1	True	71.0	Orange-Blue	n/a	twobytwo	71.0	1.141	blue	8.0	task_switch	color	switch	s556	0
588.968	1.0	0.9	True	71.0	Orange-Blue	stay	twobytwo	71.0	0.726	blue	8.0	cue_stay	color	stay	s556	0
591.872	1.0	0.9	True	89.0	Color	switch	twobytwo	89.0	0.511	orange	4.0	cue_switch	color	stay	s556	0
594.914	1.0	0.9	True	71.0	Magnitude	n/a	twobytwo	71.0	0.688	blue	9.0	task_switch	magnitude	switch	s556	0
597.818	1.0	0.9	True	89.0	Orange-Blue	n/a	twobytwo	89.0	0.584	orange	3.0	task_switch	color	switch	s556	0
600.723	1.0	0.9	True	71.0	High-Low	n/a	twobytwo	71.0	0.802	orange	8.0	task_switch	magnitude	switch	s556	0
603.762	1.0	0.9	True	89.0	Orange-Blue	n/a	twobytwo	89.0	0.596	orange	4.0	task_switch	color	switch	s556	0
606.667	1.0	0.9	True	71.0	Orange-Blue	stay	twobytwo	71.0	0.663	blue	4.0	cue_stay	color	stay	s556	0
608.908	1.0	0.1	True	89.0	High-Low	n/a	twobytwo	89.0	0.833	orange	1.0	task_switch	magnitude	switch	s556	0
611.693	1.0	0.1	True	89.0	Color	n/a	twobytwo	89.0	0.854	orange	8.0	task_switch	color	switch	s556	0
614.069	1.0	0.1	True	89.0	Orange-Blue	switch	twobytwo	89.0	0.885	orange	8.0	cue_switch	color	stay	s556	0
617.11	1.0	0.9	True	71.0	Color	switch	twobytwo	71.0	0.572	blue	4.0	cue_switch	color	stay	s556	0
620.014	1.0	0.9	True	89.0	Color	stay	twobytwo	89.0	0.551	orange	4.0	cue_stay	color	stay	s556	0
623.054	1.0	0.9	True	89.0	High-Low	n/a	twobytwo	89.0	0.597	orange	1.0	task_switch	magnitude	switch	s556	0
625.838	1.0	0.1	True	89.0	Orange-Blue	n/a	twobytwo	89.0	0.926	orange	4.0	task_switch	color	switch	s556	0
628.214	1.0	0.1	True	89.0	Orange-Blue	stay	twobytwo	89.0	0.747	orange	2.0	cue_stay	color	stay	s556	0
630.318	1.0	0.1	True	89.0	Magnitude	n/a	twobytwo	89.0	0.845	blue	2.0	task_switch	magnitude	switch	s556	0
632.422	1.0	0.1	True	89.0	Magnitude	stay	twobytwo	89.0	0.67	blue	1.0	cue_stay	magnitude	stay	s556	0
634.662	1.0	0.1	True	71.0	High-Low	switch	twobytwo	71.0	1.235	blue	7.0	cue_switch	magnitude	stay	s556	0
636.766	1.0	0.1	True	71.0	Magnitude	switch	twobytwo	71.0	0.71	blue	9.0	cue_switch	magnitude	stay	s556	0
639.67	1.0	0.9	True	89.0	High-Low	switch	twobytwo	89.0	0.444	orange	1.0	cue_switch	magnitude	stay	s556	0
642.574	1.0	0.9	True	71.0	Orange-Blue	n/a	twobytwo	71.0	0.414	blue	2.0	task_switch	color	switch	s556	0
644.949	1.0	0.1	True	71.0	Orange-Blue	stay	twobytwo	71.0	0.667	blue	9.0	cue_stay	color	stay	s556	0
648.262	1.0	0.9	True	89.0	High-Low	n/a	twobytwo	89.0	0.626	orange	4.0	task_switch	magnitude	switch	s556	0
650.366	1.0	0.1	True	89.0	Magnitude	switch	twobytwo	89.0	1.424	blue	4.0	cue_switch	magnitude	stay	s556	0
653.271	1.0	0.9	True	89.0	High-Low	switch	twobytwo	89.0	0.794	blue	1.0	cue_switch	magnitude	stay	s556	0
656.176	1.0	0.9	True	89.0	High-Low	stay	twobytwo	89.0	0.911	blue	4.0	cue_stay	magnitude	stay	s556	0
658.553	1.0	0.1	True	71.0	Orange-Blue	n/a	twobytwo	71.0	1.212	blue	7.0	task_switch	color	switch	s556	0
660.793	1.0	0.1	True	89.0	High-Low	n/a	twobytwo	89.0	0.802	blue	4.0	task_switch	magnitude	switch	s556	0
662.898	1.0	0.1	True	89.0	Magnitude	switch	twobytwo	89.0	0.813	orange	4.0	cue_switch	magnitude	stay	s556	0
665.545	1.0	0.1	True	71.0	Color	n/a	twobytwo	71.0	0.77	blue	2.0	task_switch	color	switch	s556	0
668.722	1.0	0.9	False	71.0	Color	stay	twobytwo	89.0	0.897	blue	1.0	cue_stay	color	stay	s556	0
671.099	1.0	0.1	True	89.0	Magnitude	n/a	twobytwo	89.0	1.009	orange	2.0	task_switch	magnitude	switch	s556	0
673.204	1.0	0.1	True	71.0	Orange-Blue	n/a	twobytwo	71.0	0.9	blue	7.0	task_switch	color	switch	s556	0
676.108	1.0	0.9	True	89.0	Magnitude	n/a	twobytwo	89.0	1.374	orange	4.0	task_switch	magnitude	switch	s556	0
678.349	1.0	0.1	True	71.0	Color	n/a	twobytwo	71.0	0.879	blue	8.0	task_switch	color	switch	s556	0
