onset	duration	EV	action	clicked_on_loss_card	experiment_exp_id	gain_amount	gain_probability	key_press	loss_amount	loss_probability	num_cards	num_click_in_round	num_loss_cards	risk	response_time	total_cards	trial_id	worker_id
3.009	0.913	0.7944011455275994	draw_card	0.0	columbia_card_task_fmri	12.0	0.8333333333333334	89.0	-70.0	0.1666666666666666	6.0	1.0	1.0	-2.902265015821005	0.913	n/a	stim	s556
3.923	0.732	-1.938932187805733	draw_card	0.0	columbia_card_task_fmri	12.0	0.8	89.0	-70.0	0.2	6.0	2.0	1.0	-0.6685990974344378	0.732	n/a	stim	s556
4.657	1.722	-6.038932187805735	draw_card	0.0	columbia_card_task_fmri	12.0	0.75	89.0	-70.0	0.25	6.0	3.0	1.0	2.0314306452252566	1.722	n/a	stim	s556
6.381	4.707	-12.872265521139068	draw_card	0.0	columbia_card_task_fmri	12.0	0.6666666666666667	89.0	-70.0	0.3333333333333333	6.0	4.0	1.0	5.172636549762956	4.707	n/a	stim	s556
11.089	3.519	-26.53893218780573	end_round	0.0	columbia_card_task_fmri	12.0	0.5	71.0	-70.0	0.5	6.0	5.0	1.0	7.512998053531696	3.519	4.0	stim	s556
14.61	2.25	n/a	-1.0	n/a	columbia_card_task_fmri	n/a	n/a	-1.0	n/a	n/a	n/a	n/a	n/a	n/a	n/a	n/a	feedback	s556
16.86	0.204	n/a	-1.0	n/a	columbia_card_task_fmri	n/a	n/a	-1.0	n/a	n/a	n/a	n/a	n/a	n/a	n/a	n/a	ITI	s556
17.067	2.379	1.6277344788609334	draw_card	0.0	columbia_card_task_fmri	14.0	0.8333333333333334	89.0	-75.0	0.1666666666666666	6.0	1.0	1.0	-0.3012785153528483	2.379	n/a	stim	s556
19.447	4.348	-1.3389321878057334	draw_card	0.0	columbia_card_task_fmri	14.0	0.8	89.0	-75.0	0.2	6.0	2.0	1.0	2.1241671763143657	4.348	n/a	stim	s556
23.796	6.539	-5.788932187805735	end_round	0.0	columbia_card_task_fmri	14.0	0.75	71.0	-75.0	0.25	6.0	3.0	1.0	5.05583352289991	6.539	2.0	stim	s556
30.337	2.25	n/a	-1.0	n/a	columbia_card_task_fmri	n/a	n/a	-1.0	n/a	n/a	n/a	n/a	n/a	n/a	n/a	n/a	feedback	s556
32.587	0.204	n/a	-1.0	n/a	columbia_card_task_fmri	n/a	n/a	-1.0	n/a	n/a	n/a	n/a	n/a	n/a	n/a	n/a	ITI	s556
32.792	1.295	3.2944011455275994	draw_card	0.0	columbia_card_task_fmri	15.0	0.8333333333333334	89.0	-70.0	0.1666666666666666	6.0	1.0	1.0	-1.7877123066163847	1.295	n/a	stim	s556
34.088	2.022	0.4610678121942655	draw_card	0.0	columbia_card_task_fmri	15.0	0.8	89.0	-70.0	0.2	6.0	2.0	1.0	0.5281554128649333	2.022	n/a	stim	s556
36.112	7.428	-3.7889321878057354	end_round	0.0	columbia_card_task_fmri	15.0	0.75	71.0	-70.0	0.25	6.0	3.0	1.0	3.3274689117455907	7.428	2.0	stim	s556
43.543	2.25	n/a	-1.0	n/a	columbia_card_task_fmri	n/a	n/a	-1.0	n/a	n/a	n/a	n/a	n/a	n/a	n/a	n/a	feedback	s556
45.793	0.272	n/a	-1.0	n/a	columbia_card_task_fmri	n/a	n/a	-1.0	n/a	n/a	n/a	n/a	n/a	n/a	n/a	n/a	ITI	s556
46.067	5.512	4.127734478860933	draw_card	0.0	columbia_card_task_fmri	17.0	0.8333333333333334	89.0	-75.0	0.1666666666666666	6.0	1.0	1.0	0.8137899890712177	5.512	n/a	stim	s556
51.58	0.867	1.061067812194267	draw_card	0.0	columbia_card_task_fmri	17.0	0.8	89.0	-75.0	0.2	6.0	2.0	1.0	3.321402798918669	0.867	n/a	stim	s556
52.449	6.645	-3.5389321878057345	end_round	0.0	columbia_card_task_fmri	17.0	0.75	71.0	-75.0	0.25	6.0	3.0	1.0	6.35231671173581	6.645	2.0	stim	s556
59.097	2.25	n/a	-1.0	n/a	columbia_card_task_fmri	n/a	n/a	-1.0	n/a	n/a	n/a	n/a	n/a	n/a	n/a	n/a	feedback	s556
61.347	0.136	n/a	-1.0	n/a	columbia_card_task_fmri	n/a	n/a	-1.0	n/a	n/a	n/a	n/a	n/a	n/a	n/a	n/a	ITI	s556
61.484	2.597	5.4610678121942655	draw_card	0.0	columbia_card_task_fmri	24.0	0.75	89.0	-60.0	0.25	8.0	1.0	2.0	2.8954324297385767	2.597	n/a	stim	s556
64.083	1.276	2.461067812194265	draw_card	0.0	columbia_card_task_fmri	24.0	0.7142857142857143	89.0	-60.0	0.2857142857142857	8.0	2.0	2.0	4.466254634641132	1.276	n/a	stim	s556
65.361	1.052	-1.5389321878057345	draw_card	1.0	columbia_card_task_fmri	24.0	0.6666666666666667	89.0	-60.0	0.3333333333333333	8.0	3.0	2.0	6.113585760336754	1.052	3.0	stim	s556
66.416	2.25	n/a	-1.0	n/a	columbia_card_task_fmri	n/a	n/a	-1.0	n/a	n/a	n/a	n/a	n/a	n/a	n/a	n/a	feedback	s556
68.666	0.204	n/a	-1.0	n/a	columbia_card_task_fmri	n/a	n/a	-1.0	n/a	n/a	n/a	n/a	n/a	n/a	n/a	n/a	ITI	s556
68.871	4.462	5.4610678121942655	draw_card	0.0	columbia_card_task_fmri	29.0	0.75	89.0	-75.0	0.25	8.0	1.0	2.0	11.5397198379856	4.462	n/a	stim	s556
73.335	3.674	1.7467820979085538	draw_card	0.0	columbia_card_task_fmri	29.0	0.7142857142857143	89.0	-75.0	0.2857142857142857	8.0	2.0	2.0	13.486025928401348	3.674	n/a	stim	s556
77.011	7.39	-3.205598854472399	end_round	0.0	columbia_card_task_fmri	29.0	0.6666666666666667	71.0	-75.0	0.3333333333333333	8.0	3.0	2.0	15.527003457639204	7.39	2.0	stim	s556
84.404	2.25	n/a	-1.0	n/a	columbia_card_task_fmri	n/a	n/a	-1.0	n/a	n/a	n/a	n/a	n/a	n/a	n/a	n/a	feedback	s556
86.654	0.272	n/a	-1.0	n/a	columbia_card_task_fmri	n/a	n/a	-1.0	n/a	n/a	n/a	n/a	n/a	n/a	n/a	n/a	ITI	s556
86.928	4.996	1.238845589972046	draw_card	0.0	columbia_card_task_fmri	17.0	0.7777777777777778	89.0	-65.0	0.2222222222222222	9.0	1.0	2.0	0.6185756630573351	4.996	n/a	stim	s556
91.926	0.487	-1.0389321878057345	draw_card	0.0	columbia_card_task_fmri	17.0	0.75	89.0	-65.0	0.25	9.0	2.0	2.0	2.0314306452252566	0.487	n/a	stim	s556
92.414	7.332	-3.9675036163771615	draw_card	1.0	columbia_card_task_fmri	17.0	0.7142857142857143	89.0	-65.0	0.2857142857142857	9.0	3.0	2.0	3.564686952333723	7.332	3.0	stim	s556
99.749	2.25	n/a	-1.0	n/a	columbia_card_task_fmri	n/a	n/a	-1.0	n/a	n/a	n/a	n/a	n/a	n/a	n/a	n/a	feedback	s556
101.999	0.272	n/a	-1.0	n/a	columbia_card_task_fmri	n/a	n/a	-1.0	n/a	n/a	n/a	n/a	n/a	n/a	n/a	n/a	ITI	s556
102.272	2.189	5.561067812194265	draw_card	0.0	columbia_card_task_fmri	14.0	0.9	89.0	-95.0	0.1	10.0	1.0	1.0	-0.7683179326478395	2.189	n/a	stim	s556
104.462	4.347	4.349956701083153	draw_card	1.0	columbia_card_task_fmri	14.0	0.8888888888888888	89.0	-95.0	0.1111111111111111	10.0	2.0	1.0	0.7828890869739524	4.347	2.0	stim	s556
108.812	2.25	n/a	-1.0	n/a	columbia_card_task_fmri	n/a	n/a	-1.0	n/a	n/a	n/a	n/a	n/a	n/a	n/a	n/a	feedback	s556
111.062	0.34	n/a	-1.0	n/a	columbia_card_task_fmri	n/a	n/a	-1.0	n/a	n/a	n/a	n/a	n/a	n/a	n/a	n/a	ITI	s556
111.404	8.998	1.4610678121942655	draw_card	1.0	columbia_card_task_fmri	15.0	0.8	89.0	-65.0	0.2	10.0	1.0	2.0	-1.4663007891102993	8.998	1.0	stim	s556
120.404	2.25	n/a	-1.0	n/a	columbia_card_task_fmri	n/a	n/a	-1.0	n/a	n/a	n/a	n/a	n/a	n/a	n/a	n/a	feedback	s556
122.654	0.204	n/a	-1.0	n/a	columbia_card_task_fmri	n/a	n/a	-1.0	n/a	n/a	n/a	n/a	n/a	n/a	n/a	n/a	ITI	s556
122.86	1.538	3.061067812194267	draw_card	0.0	columbia_card_task_fmri	17.0	0.8	89.0	-65.0	0.2	10.0	1.0	2.0	-0.6685990974344378	1.538	n/a	stim	s556
124.4	1.49	1.238845589972046	draw_card	0.0	columbia_card_task_fmri	17.0	0.7777777777777778	89.0	-65.0	0.2222222222222222	10.0	2.0	2.0	0.6185756630573351	1.49	n/a	stim	s556
125.892	0.937	-1.0389321878057345	draw_card	0.0	columbia_card_task_fmri	17.0	0.75	89.0	-65.0	0.25	10.0	3.0	2.0	2.0314306452252566	0.937	n/a	stim	s556
126.83	3.549	-3.9675036163771615	draw_card	1.0	columbia_card_task_fmri	17.0	0.7142857142857143	89.0	-65.0	0.2857142857142857	10.0	4.0	2.0	3.564686952333723	3.549	4.0	stim	s556
130.382	2.25	n/a	-1.0	n/a	columbia_card_task_fmri	n/a	n/a	-1.0	n/a	n/a	n/a	n/a	n/a	n/a	n/a	n/a	feedback	s556
132.632	0.068	n/a	-1.0	n/a	columbia_card_task_fmri	n/a	n/a	-1.0	n/a	n/a	n/a	n/a	n/a	n/a	n/a	n/a	ITI	s556
132.703	1.799	1.6277344788609334	draw_card	0.0	columbia_card_task_fmri	13.0	0.8333333333333334	89.0	-70.0	0.1666666666666666	12.0	1.0	2.0	-2.530775276675968	1.799	n/a	stim	s556
134.503	0.792	0.370158721285172	draw_card	0.0	columbia_card_task_fmri	13.0	0.8181818181818181	89.0	-70.0	0.1818181818181818	12.0	2.0	2.0	-1.4536855709061245	0.792	n/a	stim	s556
135.297	0.328	-1.138932187805734	draw_card	0.0	columbia_card_task_fmri	13.0	0.8	89.0	-70.0	0.2	12.0	3.0	2.0	-0.2697068890306013	0.328	n/a	stim	s556
135.627	1.607	-2.983376632250179	draw_card	0.0	columbia_card_task_fmri	13.0	0.7777777777777778	89.0	-70.0	0.2222222222222222	12.0	4.0	2.0	1.0332491928253305	1.607	n/a	stim	s556
137.235	0.356	-5.288932187805735	draw_card	0.0	columbia_card_task_fmri	13.0	0.75	89.0	-70.0	0.25	12.0	5.0	2.0	2.463419389696817	0.356	n/a	stim	s556
137.592	0.213	-8.253217902091448	draw_card	0.0	columbia_card_task_fmri	13.0	0.7142857142857143	89.0	-70.0	0.2857142857142857	12.0	6.0	2.0	4.015459143031784	0.213	n/a	stim	s556
137.808	0.705	-12.2055988544724	draw_card	0.0	columbia_card_task_fmri	13.0	0.6666666666666667	89.0	-70.0	0.3333333333333333	12.0	7.0	2.0	5.64309998437696	0.705	n/a	stim	s556
138.515	0.721	-17.738932187805734	draw_card	0.0	columbia_card_task_fmri	13.0	0.6	89.0	-70.0	0.4	12.0	8.0	2.0	7.175140964718231	0.721	n/a	stim	s556
139.238	2.312	-26.03893218780573	end_round	0.0	columbia_card_task_fmri	13.0	0.5	71.0	-70.0	0.5	12.0	9.0	2.0	8.01211049383376	2.312	8.0	stim	s556
141.553	2.25	n/a	-1.0	n/a	columbia_card_task_fmri	n/a	n/a	-1.0	n/a	n/a	n/a	n/a	n/a	n/a	n/a	n/a	feedback	s556
143.803	0.0	n/a	-1.0	n/a	columbia_card_task_fmri	n/a	n/a	-1.0	n/a	n/a	n/a	n/a	n/a	n/a	n/a	n/a	ITI	s556
143.805	1.984	1.6277344788609334	draw_card	0.0	columbia_card_task_fmri	15.0	0.8333333333333334	89.0	-80.0	0.1666666666666666	12.0	1.0	2.0	1.929045089066676	1.984	n/a	stim	s556
145.791	0.818	0.1883405394669903	draw_card	0.0	columbia_card_task_fmri	15.0	0.8181818181818181	89.0	-80.0	0.1818181818181818	12.0	2.0	2.0	3.162746487899767	0.818	n/a	stim	s556
146.611	0.373	-1.5389321878057345	draw_card	0.0	columbia_card_task_fmri	15.0	0.8	89.0	-80.0	0.2	12.0	3.0	2.0	4.518812448482585	0.373	n/a	stim	s556
146.986	2.073	-3.650043298916847	end_round	0.0	columbia_card_task_fmri	15.0	0.7777777777777778	71.0	-80.0	0.2222222222222222	12.0	4.0	2.0	6.011076738292424	2.073	3.0	stim	s556
149.062	2.25	n/a	-1.0	n/a	columbia_card_task_fmri	n/a	n/a	-1.0	n/a	n/a	n/a	n/a	n/a	n/a	n/a	n/a	feedback	s556
151.312	0.408	n/a	-1.0	n/a	columbia_card_task_fmri	n/a	n/a	-1.0	n/a	n/a	n/a	n/a	n/a	n/a	n/a	n/a	ITI	s556
151.722	1.825	0.6610678121942666	draw_card	1.0	columbia_card_task_fmri	14.0	0.8	89.0	-65.0	0.2	15.0	1.0	3.0	-1.865108190396512	1.825	1.0	stim	s556
153.551	2.25	n/a	-1.0	n/a	columbia_card_task_fmri	n/a	n/a	-1.0	n/a	n/a	n/a	n/a	n/a	n/a	n/a	n/a	feedback	s556
155.801	0.204	n/a	-1.0	n/a	columbia_card_task_fmri	n/a	n/a	-1.0	n/a	n/a	n/a	n/a	n/a	n/a	n/a	n/a	ITI	s556
156.006	2.18	0.5860678121942655	draw_card	0.0	columbia_card_task_fmri	1.0	0.9375	89.0	-45.0	0.0625	16.0	1.0	1.0	-22.15723746035365	2.18	n/a	stim	s556
158.188	0.185	0.3944011455275991	draw_card	0.0	columbia_card_task_fmri	1.0	0.9333333333333332	89.0	-45.0	0.0666666666666666	16.0	2.0	1.0	-21.82542245709707	0.185	n/a	stim	s556
158.376	0.157	0.1753535264799799	draw_card	0.0	columbia_card_task_fmri	1.0	0.9285714285714286	89.0	-45.0	0.0714285714285714	16.0	3.0	1.0	-21.461056080827337	0.157	n/a	stim	s556
158.536	0.149	-0.0773937262672728	draw_card	0.0	columbia_card_task_fmri	1.0	0.9230769230769232	89.0	-45.0	0.0769230769230769	16.0	4.0	1.0	-21.058584790071308	0.149	n/a	stim	s556
158.686	0.846	-0.3722655211390679	draw_card	0.0	columbia_card_task_fmri	1.0	0.9166666666666666	89.0	-45.0	0.0833333333333333	16.0	5.0	1.0	-20.61106047828324	0.846	n/a	stim	s556
159.534	3.574	-0.7207503696239161	draw_card	1.0	columbia_card_task_fmri	1.0	0.9090909090909092	89.0	-45.0	0.0909090909090909	16.0	6.0	1.0	-20.109670001481437	3.574	6.0	stim	s556
163.112	2.25	n/a	-1.0	n/a	columbia_card_task_fmri	n/a	n/a	-1.0	n/a	n/a	n/a	n/a	n/a	n/a	n/a	n/a	feedback	s556
165.362	0.136	n/a	-1.0	n/a	columbia_card_task_fmri	n/a	n/a	-1.0	n/a	n/a	n/a	n/a	n/a	n/a	n/a	n/a	ITI	s556
165.501	0.872	1.5235678121942655	draw_card	0.0	columbia_card_task_fmri	15.0	0.8125	89.0	-70.0	0.1875	16.0	1.0	3.0	-0.29309081744357	0.872	n/a	stim	s556
166.374	0.174	0.4610678121942655	draw_card	0.0	columbia_card_task_fmri	15.0	0.8	89.0	-70.0	0.2	16.0	2.0	3.0	0.5281554128649333	0.174	n/a	stim	s556
166.55	0.154	-0.7532179020914498	draw_card	0.0	columbia_card_task_fmri	15.0	0.7857142857142857	89.0	-70.0	0.2142857142857142	16.0	3.0	3.0	1.4036242545194142	0.154	n/a	stim	s556
166.706	0.365	-2.1543168031903512	draw_card	0.0	columbia_card_task_fmri	15.0	0.7692307692307692	89.0	-70.0	0.2307692307692307	16.0	4.0	3.0	2.3362926571625597	0.365	n/a	stim	s556
167.073	0.285	-3.7889321878057354	draw_card	1.0	columbia_card_task_fmri	15.0	0.75	89.0	-70.0	0.25	16.0	5.0	3.0	3.3274689117455907	0.285	5.0	stim	s556
167.363	2.25	n/a	-1.0	n/a	columbia_card_task_fmri	n/a	n/a	-1.0	n/a	n/a	n/a	n/a	n/a	n/a	n/a	n/a	feedback	s556
169.613	0.34	n/a	-1.0	n/a	columbia_card_task_fmri	n/a	n/a	-1.0	n/a	n/a	n/a	n/a	n/a	n/a	n/a	n/a	ITI	s556
169.954	1.33	8.461067812194266	draw_card	0.0	columbia_card_task_fmri	30.0	0.7	89.0	-50.0	0.3	10.0	1.0	3.0	3.182320215803649	1.33	n/a	stim	s556
171.286	0.173	5.794401145527605	draw_card	0.0	columbia_card_task_fmri	30.0	0.6666666666666667	89.0	-50.0	0.3333333333333333	10.0	2.0	3.0	4.231780041945584	0.173	n/a	stim	s556
171.462	0.153	2.461067812194265	draw_card	1.0	columbia_card_task_fmri	30.0	0.625	89.0	-50.0	0.375	10.0	3.0	3.0	5.247148732056395	0.153	3.0	stim	s556
171.619	2.25	n/a	-1.0	n/a	columbia_card_task_fmri	n/a	n/a	-1.0	n/a	n/a	n/a	n/a	n/a	n/a	n/a	n/a	feedback	s556
173.869	0.068	n/a	-1.0	n/a	columbia_card_task_fmri	n/a	n/a	-1.0	n/a	n/a	n/a	n/a	n/a	n/a	n/a	n/a	ITI	s556
173.939	2.766	7.861067812194266	draw_card	0.0	columbia_card_task_fmri	17.0	0.8666666666666667	89.0	-70.0	0.1333333333333333	15.0	1.0	2.0	-3.8842625043996897	2.766	n/a	stim	s556
176.707	0.178	7.032496383622839	draw_card	0.0	columbia_card_task_fmri	17.0	0.8571428571428572	89.0	-70.0	0.1428571428571428	15.0	2.0	2.0	-3.017826914059654	0.178	n/a	stim	s556
176.888	0.167	6.0764524275788805	draw_card	0.0	columbia_card_task_fmri	17.0	0.8461538461538461	89.0	-70.0	0.1538461538461538	15.0	3.0	2.0	-2.074763593448665	0.167	n/a	stim	s556
177.057	0.165	4.961067812194267	draw_card	0.0	columbia_card_task_fmri	17.0	0.8333333333333334	89.0	-70.0	0.1666666666666666	15.0	4.0	2.0	-1.0445443741752172	0.165	n/a	stim	s556
177.224	0.17	3.642885994012445	draw_card	0.0	columbia_card_task_fmri	17.0	0.8181818181818181	89.0	-70.0	0.1818181818181818	15.0	5.0	2.0	0.0847617124478574	0.17	n/a	stim	s556
177.397	0.165	2.061067812194267	draw_card	1.0	columbia_card_task_fmri	17.0	0.8	89.0	-70.0	0.2	15.0	6.0	2.0	1.3261156240190957	0.165	6.0	stim	s556
177.566	2.25	n/a	-1.0	n/a	columbia_card_task_fmri	n/a	n/a	-1.0	n/a	n/a	n/a	n/a	n/a	n/a	n/a	n/a	feedback	s556
179.816	0.34	n/a	-1.0	n/a	columbia_card_task_fmri	n/a	n/a	-1.0	n/a	n/a	n/a	n/a	n/a	n/a	n/a	n/a	ITI	s556
180.158	1.084	3.086067812194265	draw_card	0.0	columbia_card_task_fmri	7.0	0.9375	89.0	-95.0	0.0625	16.0	1.0	1.0	-8.748177225168927	1.084	n/a	stim	s556
181.245	0.708	2.6610678121942657	draw_card	0.0	columbia_card_task_fmri	7.0	0.9333333333333332	89.0	-95.0	0.0666666666666666	16.0	2.0	1.0	-7.998779842241689	0.708	n/a	stim	s556
181.956	0.236	2.17535352647998	draw_card	0.0	columbia_card_task_fmri	7.0	0.9285714285714286	89.0	-95.0	0.0714285714285714	16.0	3.0	1.0	-7.176749900153912	0.236	n/a	stim	s556
182.195	0.483	1.6149139660404188	draw_card	0.0	columbia_card_task_fmri	7.0	0.9230769230769232	89.0	-95.0	0.0769230769230769	16.0	4.0	1.0	-6.269731167631971	0.483	n/a	stim	s556
182.68	0.322	0.9610678121942656	draw_card	0.0	columbia_card_task_fmri	7.0	0.9166666666666666	89.0	-95.0	0.0833333333333333	16.0	5.0	1.0	-5.262268648319679	0.322	n/a	stim	s556
183.005	0.497	0.1883405394669921	draw_card	0.0	columbia_card_task_fmri	7.0	0.9090909090909092	89.0	-95.0	0.0909090909090909	16.0	6.0	1.0	-4.134764108670069	0.497	n/a	stim	s556
183.503	0.482	-0.7389321878057347	draw_card	0.0	columbia_card_task_fmri	7.0	0.9	89.0	-95.0	0.1	16.0	7.0	1.0	-2.861990926708799	0.482	n/a	stim	s556
183.988	0.402	-1.8722655211390684	draw_card	0.0	columbia_card_task_fmri	7.0	0.8888888888888888	89.0	-95.0	0.1111111111111111	16.0	8.0	1.0	-1.4109565292121855	0.402	n/a	stim	s556
184.392	0.392	-3.2889321878057345	draw_card	0.0	columbia_card_task_fmri	7.0	0.875	89.0	-95.0	0.125	16.0	9.0	1.0	0.2621859848978332	0.392	n/a	stim	s556
184.786	0.714	-5.110360759234306	draw_card	0.0	columbia_card_task_fmri	7.0	0.8571428571428572	89.0	-95.0	0.1428571428571428	16.0	10.0	1.0	2.2165121701382304	0.714	n/a	stim	s556
185.503	3.478	-7.538932187805733	end_round	0.0	columbia_card_task_fmri	7.0	0.8333333333333334	71.0	-95.0	0.1666666666666666	16.0	11.0	1.0	4.5319405713579854	3.478	10.0	stim	s556
188.986	2.25	n/a	-1.0	n/a	columbia_card_task_fmri	n/a	n/a	-1.0	n/a	n/a	n/a	n/a	n/a	n/a	n/a	n/a	feedback	s556
191.236	0.136	n/a	-1.0	n/a	columbia_card_task_fmri	n/a	n/a	-1.0	n/a	n/a	n/a	n/a	n/a	n/a	n/a	n/a	ITI	s556
191.374	4.439	4.6485678121942655	draw_card	0.0	columbia_card_task_fmri	9.0	0.9375	89.0	-100.0	0.0625	16.0	1.0	1.0	-7.061569463615136	4.439	n/a	stim	s556
195.815	1.047	4.194401145527599	draw_card	0.0	columbia_card_task_fmri	9.0	0.9333333333333332	89.0	-100.0	0.0666666666666666	16.0	2.0	1.0	-6.260267072739886	1.047	n/a	stim	s556
196.865	3.096	3.675353526479981	end_round	0.0	columbia_card_task_fmri	9.0	0.9285714285714286	71.0	-100.0	0.0714285714285714	16.0	3.0	1.0	-5.381332532107127	3.096	2.0	stim	s556
199.965	2.25	n/a	-1.0	n/a	columbia_card_task_fmri	n/a	n/a	-1.0	n/a	n/a	n/a	n/a	n/a	n/a	n/a	n/a	feedback	s556
202.215	0.068	n/a	-1.0	n/a	columbia_card_task_fmri	n/a	n/a	-1.0	n/a	n/a	n/a	n/a	n/a	n/a	n/a	n/a	ITI	s556
202.285	2.19	5.5860678121942655	draw_card	0.0	columbia_card_task_fmri	15.0	0.875	89.0	-80.0	0.125	16.0	1.0	2.0	-2.0462596392512005	2.19	n/a	stim	s556
204.479	0.905	4.794401145527599	draw_card	0.0	columbia_card_task_fmri	15.0	0.8666666666666667	89.0	-80.0	0.1333333333333333	16.0	2.0	2.0	-1.1733677351037883	0.905	n/a	stim	s556
205.387	3.587	3.889639240765696	draw_card	0.0	columbia_card_task_fmri	15.0	0.8571428571428572	89.0	-80.0	0.1428571428571428	16.0	3.0	2.0	-0.2267495204560674	3.587	n/a	stim	s556
208.977	1.93	2.8456831968096488	end_round	0.0	columbia_card_task_fmri	15.0	0.8461538461538461	71.0	-80.0	0.1538461538461538	16.0	4.0	2.0	0.8035558408884214	1.93	3.0	stim	s556
210.911	2.25	n/a	-1.0	n/a	columbia_card_task_fmri	n/a	n/a	-1.0	n/a	n/a	n/a	n/a	n/a	n/a	n/a	n/a	feedback	s556
213.161	0.068	n/a	-1.0	n/a	columbia_card_task_fmri	n/a	n/a	-1.0	n/a	n/a	n/a	n/a	n/a	n/a	n/a	n/a	ITI	s556
213.232	0.975	7.7110678121942655	draw_card	0.0	columbia_card_task_fmri	16.0	0.875	89.0	-70.0	0.125	16.0	1.0	2.0	-5.012693638017719	0.975	n/a	stim	s556
214.211	0.295	6.994401145527599	draw_card	0.0	columbia_card_task_fmri	16.0	0.8666666666666667	89.0	-70.0	0.1333333333333333	16.0	2.0	2.0	-4.223012654075738	0.295	n/a	stim	s556
214.509	0.402	6.175353526479981	draw_card	0.0	columbia_card_task_fmri	16.0	0.8571428571428572	89.0	-70.0	0.1428571428571428	16.0	3.0	2.0	-3.3666030212865543	0.402	n/a	stim	s556
214.913	2.071	5.230298581425034	draw_card	0.0	columbia_card_task_fmri	16.0	0.8461538461538461	89.0	-70.0	0.1538461538461538	16.0	4.0	2.0	-2.43444816980108	2.071	n/a	stim	s556
216.987	0.189	4.127734478860933	draw_card	0.0	columbia_card_task_fmri	16.0	0.8333333333333334	89.0	-70.0	0.1666666666666666	16.0	5.0	2.0	-1.416141005715822	0.189	n/a	stim	s556
217.178	0.195	2.824704175830627	draw_card	0.0	columbia_card_task_fmri	16.0	0.8181818181818181	89.0	-70.0	0.1818181818181818	16.0	6.0	2.0	-0.2998877235970809	0.195	n/a	stim	s556
217.376	0.459	1.2610678121942662	draw_card	0.0	columbia_card_task_fmri	16.0	0.8	89.0	-70.0	0.2	16.0	7.0	2.0	0.9271237045208522	0.459	n/a	stim	s556
217.84	0.386	-0.6500432989168452	draw_card	1.0	columbia_card_task_fmri	16.0	0.7777777777777778	89.0	-70.0	0.2222222222222222	16.0	8.0	2.0	2.2774180102119104	0.386	8.0	stim	s556
218.23	2.25	n/a	-1.0	n/a	columbia_card_task_fmri	n/a	n/a	-1.0	n/a	n/a	n/a	n/a	n/a	n/a	n/a	n/a	feedback	s556
220.48	0.068	n/a	-1.0	n/a	columbia_card_task_fmri	n/a	n/a	-1.0	n/a	n/a	n/a	n/a	n/a	n/a	n/a	n/a	ITI	s556
220.551	1.041	9.023567812194266	draw_card	0.0	columbia_card_task_fmri	30.0	0.6875	89.0	-45.0	0.3125	16.0	1.0	5.0	1.289637235122548	1.041	n/a	stim	s556
221.595	0.263	7.461067812194269	draw_card	0.0	columbia_card_task_fmri	30.0	0.6666666666666667	89.0	-45.0	0.3333333333333333	16.0	2.0	5.0	1.8800927961171536	0.263	n/a	stim	s556
221.86	0.169	5.675353526479977	draw_card	0.0	columbia_card_task_fmri	30.0	0.6428571428571428	89.0	-45.0	0.3571428571428571	16.0	3.0	5.0	2.460179501773069	0.169	n/a	stim	s556
222.033	0.318	3.614913966040419	draw_card	0.0	columbia_card_task_fmri	30.0	0.6153846153846154	89.0	-45.0	0.3846153846153846	16.0	4.0	5.0	3.009923670789334	0.318	n/a	stim	s556
222.354	1.703	1.211067812194262	end_round	0.0	columbia_card_task_fmri	30.0	0.5833333333333333	71.0	-45.0	0.4166666666666667	16.0	5.0	5.0	3.496512145324189	1.703	4.0	stim	s556
224.061	2.25	n/a	-1.0	n/a	columbia_card_task_fmri	n/a	n/a	-1.0	n/a	n/a	n/a	n/a	n/a	n/a	n/a	n/a	feedback	s556
226.311	0.136	n/a	-1.0	n/a	columbia_card_task_fmri	n/a	n/a	-1.0	n/a	n/a	n/a	n/a	n/a	n/a	n/a	n/a	ITI	s556
226.449	1.317	0.7944011455275994	draw_card	0.0	columbia_card_task_fmri	13.0	0.8333333333333334	89.0	-75.0	0.1666666666666666	6.0	1.0	1.0	-0.6729232706192221	1.317	n/a	stim	s556
227.768	2.02	-2.138932187805734	draw_card	0.0	columbia_card_task_fmri	13.0	0.8	89.0	-75.0	0.2	6.0	2.0	1.0	1.7251303698516978	2.02	n/a	stim	s556
229.791	0.523	-6.538932187805735	draw_card	0.0	columbia_card_task_fmri	13.0	0.75	89.0	-75.0	0.25	6.0	3.0	1.0	4.623711052359397	0.523	n/a	stim	s556
230.316	1.582	-13.872265521139068	end_round	0.0	columbia_card_task_fmri	13.0	0.6666666666666667	71.0	-75.0	0.3333333333333333	6.0	4.0	1.0	7.995737100732285	1.582	3.0	stim	s556
231.902	2.25	n/a	-1.0	n/a	columbia_card_task_fmri	n/a	n/a	-1.0	n/a	n/a	n/a	n/a	n/a	n/a	n/a	n/a	feedback	s556
234.152	0.0	n/a	-1.0	n/a	columbia_card_task_fmri	n/a	n/a	-1.0	n/a	n/a	n/a	n/a	n/a	n/a	n/a	n/a	ITI	s556
234.154	7.154	2.4610678121942677	end_round	0.0	columbia_card_task_fmri	14.0	0.8333333333333334	71.0	-70.0	0.1666666666666666	6.0	1.0	1.0	-2.1592573776721338	7.154	0.0	stim	s556
241.313	2.25	n/a	-1.0	n/a	columbia_card_task_fmri	n/a	n/a	-1.0	n/a	n/a	n/a	n/a	n/a	n/a	n/a	n/a	feedback	s556
243.563	0.136	n/a	-1.0	n/a	columbia_card_task_fmri	n/a	n/a	-1.0	n/a	n/a	n/a	n/a	n/a	n/a	n/a	n/a	ITI	s556
243.702	1.019	2.4610678121942677	draw_card	0.0	columbia_card_task_fmri	16.0	0.8333333333333334	89.0	-80.0	0.1666666666666666	6.0	1.0	1.0	2.3008352459179804	1.019	n/a	stim	s556
244.724	0.344	-0.7389321878057338	draw_card	1.0	columbia_card_task_fmri	16.0	0.8	89.0	-80.0	0.2	6.0	2.0	1.0	4.917984863029993	0.344	2.0	stim	s556
245.072	2.25	n/a	-1.0	n/a	columbia_card_task_fmri	n/a	n/a	-1.0	n/a	n/a	n/a	n/a	n/a	n/a	n/a	n/a	feedback	s556
247.322	0.34	n/a	-1.0	n/a	columbia_card_task_fmri	n/a	n/a	-1.0	n/a	n/a	n/a	n/a	n/a	n/a	n/a	n/a	ITI	s556
247.665	0.846	4.961067812194267	draw_card	1.0	columbia_card_task_fmri	17.0	0.8333333333333334	89.0	-70.0	0.1666666666666666	6.0	1.0	1.0	-1.0445443741752172	0.846	1.0	stim	s556
248.515	2.25	n/a	-1.0	n/a	columbia_card_task_fmri	n/a	n/a	-1.0	n/a	n/a	n/a	n/a	n/a	n/a	n/a	n/a	feedback	s556
250.765	0.408	n/a	-1.0	n/a	columbia_card_task_fmri	n/a	n/a	-1.0	n/a	n/a	n/a	n/a	n/a	n/a	n/a	n/a	ITI	s556
251.175	0.64	4.9610678121942655	draw_card	0.0	columbia_card_task_fmri	25.0	0.75	89.0	-65.0	0.25	8.0	1.0	2.0	5.487975716738816	0.64	n/a	stim	s556
251.818	0.181	1.7467820979085538	draw_card	0.0	columbia_card_task_fmri	25.0	0.7142857142857143	89.0	-65.0	0.2857142857142857	8.0	2.0	2.0	7.171473577201262	0.181	n/a	stim	s556
252.002	0.167	-2.538932187805731	draw_card	0.0	columbia_card_task_fmri	25.0	0.6666666666666667	89.0	-65.0	0.3333333333333333	8.0	3.0	2.0	8.936928029196551	0.167	n/a	stim	s556
252.172	1.171	-8.538932187805734	end_round	0.0	columbia_card_task_fmri	25.0	0.6	71.0	-65.0	0.4	8.0	4.0	2.0	10.59864846721613	1.171	3.0	stim	s556
253.348	2.25	n/a	-1.0	n/a	columbia_card_task_fmri	n/a	n/a	-1.0	n/a	n/a	n/a	n/a	n/a	n/a	n/a	n/a	feedback	s556
255.598	0.136	n/a	-1.0	n/a	columbia_card_task_fmri	n/a	n/a	-1.0	n/a	n/a	n/a	n/a	n/a	n/a	n/a	n/a	ITI	s556
255.737	0.777	4.9610678121942655	draw_card	0.0	columbia_card_task_fmri	30.0	0.75	89.0	-80.0	0.25	8.0	1.0	2.0	14.134135702472951	0.777	n/a	stim	s556
256.517	0.168	1.032496383622842	draw_card	0.0	columbia_card_task_fmri	30.0	0.7142857142857143	89.0	-80.0	0.2857142857142857	8.0	2.0	2.0	16.193040538770546	0.168	n/a	stim	s556
256.687	1.111	-4.205598854472395	end_round	0.0	columbia_card_task_fmri	30.0	0.6666666666666667	71.0	-80.0	0.3333333333333333	8.0	3.0	2.0	18.352067227827305	1.111	2.0	stim	s556
257.803	2.25	n/a	-1.0	n/a	columbia_card_task_fmri	n/a	n/a	-1.0	n/a	n/a	n/a	n/a	n/a	n/a	n/a	n/a	feedback	s556
260.053	0.136	n/a	-1.0	n/a	columbia_card_task_fmri	n/a	n/a	-1.0	n/a	n/a	n/a	n/a	n/a	n/a	n/a	n/a	ITI	s556
260.193	0.58	4.661067812194267	draw_card	0.0	columbia_card_task_fmri	13.0	0.9	89.0	-95.0	0.1	10.0	1.0	1.0	-1.0674640692855917	0.58	n/a	stim	s556
260.775	0.186	3.461067812194265	draw_card	0.0	columbia_card_task_fmri	13.0	0.8888888888888888	89.0	-95.0	0.1111111111111111	10.0	2.0	1.0	0.4694348081067403	0.186	n/a	stim	s556
260.964	0.137	1.9610678121942653	draw_card	0.0	columbia_card_task_fmri	13.0	0.875	89.0	-95.0	0.125	10.0	3.0	1.0	2.241530684822763	0.137	n/a	stim	s556
261.105	2.146	0.0324963836228384	end_round	0.0	columbia_card_task_fmri	13.0	0.8571428571428572	71.0	-95.0	0.1428571428571428	10.0	4.0	1.0	4.3113768852199	2.146	3.0	stim	s556
263.255	2.25	n/a	-1.0	n/a	columbia_card_task_fmri	n/a	n/a	-1.0	n/a	n/a	n/a	n/a	n/a	n/a	n/a	n/a	feedback	s556
265.505	0.0	n/a	-1.0	n/a	columbia_card_task_fmri	n/a	n/a	-1.0	n/a	n/a	n/a	n/a	n/a	n/a	n/a	n/a	ITI	s556
265.508	0.737	6.061067812194265	draw_card	0.0	columbia_card_task_fmri	14.0	0.9	89.0	-90.0	0.1	10.0	1.0	1.0	-2.2638851523515875	0.737	n/a	stim	s556
266.248	1.783	4.905512256638708	end_round	0.0	columbia_card_task_fmri	14.0	0.8888888888888888	71.0	-90.0	0.1111111111111111	10.0	2.0	1.0	-0.7842261444922158	1.783	1.0	stim	s556
268.035	2.25	n/a	-1.0	n/a	columbia_card_task_fmri	n/a	n/a	-1.0	n/a	n/a	n/a	n/a	n/a	n/a	n/a	n/a	feedback	s556
270.285	0.068	n/a	-1.0	n/a	columbia_card_task_fmri	n/a	n/a	-1.0	n/a	n/a	n/a	n/a	n/a	n/a	n/a	n/a	ITI	s556
270.357	0.376	1.2610678121942662	draw_card	0.0	columbia_card_task_fmri	16.0	0.8	89.0	-70.0	0.2	10.0	1.0	2.0	0.9271237045208522	0.376	n/a	stim	s556
270.736	0.2	-0.6500432989168452	draw_card	1.0	columbia_card_task_fmri	16.0	0.7777777777777778	89.0	-70.0	0.2222222222222222	10.0	2.0	2.0	2.2774180102119104	0.2	2.0	stim	s556
270.941	2.25	n/a	-1.0	n/a	columbia_card_task_fmri	n/a	n/a	-1.0	n/a	n/a	n/a	n/a	n/a	n/a	n/a	n/a	feedback	s556
273.191	0.0	n/a	-1.0	n/a	columbia_card_task_fmri	n/a	n/a	-1.0	n/a	n/a	n/a	n/a	n/a	n/a	n/a	n/a	ITI	s556
273.194	0.736	0.5444011455275994	draw_card	0.0	columbia_card_task_fmri	7.0	0.9166666666666666	89.0	-100.0	0.0833333333333333	12.0	1.0	1.0	-3.885334264550608	0.736	n/a	stim	s556
273.933	0.185	-0.2662049150784629	draw_card	0.0	columbia_card_task_fmri	7.0	0.9090909090909092	89.0	-100.0	0.0909090909090909	12.0	2.0	1.0	-2.702167079058242	0.185	n/a	stim	s556
274.122	0.165	-1.2389321878057349	draw_card	0.0	columbia_card_task_fmri	7.0	0.9	89.0	-100.0	0.1	12.0	3.0	1.0	-1.3665943152046085	0.165	n/a	stim	s556
274.29	0.925	-2.427821076694624	draw_card	0.0	columbia_card_task_fmri	7.0	0.8888888888888888	89.0	-100.0	0.1111111111111111	12.0	4.0	1.0	0.1559957100201572	0.925	n/a	stim	s556
275.218	0.169	-3.9139321878057354	draw_card	0.0	columbia_card_task_fmri	7.0	0.875	89.0	-100.0	0.125	12.0	5.0	1.0	1.9116013454155265	0.169	n/a	stim	s556
275.39	0.701	-5.824646473520019	draw_card	0.0	columbia_card_task_fmri	7.0	0.8571428571428572	89.0	-100.0	0.1428571428571428	12.0	6.0	1.0	3.962196297511831	0.701	n/a	stim	s556
276.094	0.82	-8.372265521139065	end_round	0.0	columbia_card_task_fmri	7.0	0.8333333333333334	71.0	-100.0	0.1666666666666666	12.0	7.0	1.0	6.391618882514848	0.82	6.0	stim	s556
276.919	2.25	n/a	-1.0	n/a	columbia_card_task_fmri	n/a	n/a	-1.0	n/a	n/a	n/a	n/a	n/a	n/a	n/a	n/a	feedback	s556
279.169	0.0	n/a	-1.0	n/a	columbia_card_task_fmri	n/a	n/a	-1.0	n/a	n/a	n/a	n/a	n/a	n/a	n/a	n/a	ITI	s556
279.171	2.292	0.7944011455276012	draw_card	1.0	columbia_card_task_fmri	14.0	0.8333333333333334	89.0	-80.0	0.1666666666666666	12.0	1.0	2.0	1.557273753530751	2.292	1.0	stim	s556
281.468	2.25	n/a	-1.0	n/a	columbia_card_task_fmri	n/a	n/a	-1.0	n/a	n/a	n/a	n/a	n/a	n/a	n/a	n/a	feedback	s556
283.718	0.136	n/a	-1.0	n/a	columbia_card_task_fmri	n/a	n/a	-1.0	n/a	n/a	n/a	n/a	n/a	n/a	n/a	n/a	ITI	s556
283.858	1.41	2.461067812194265	draw_card	0.0	columbia_card_task_fmri	15.0	0.8333333333333334	89.0	-75.0	0.1666666666666666	12.0	1.0	2.0	0.0703891075272764	1.41	n/a	stim	s556
285.272	0.174	1.0974314485579004	draw_card	0.0	columbia_card_task_fmri	15.0	0.8181818181818181	89.0	-75.0	0.1818181818181818	12.0	2.0	2.0	1.2388488398358248	0.174	n/a	stim	s556
285.449	0.589	-0.5389321878057345	draw_card	0.0	columbia_card_task_fmri	15.0	0.8	89.0	-75.0	0.2	12.0	3.0	2.0	2.523225311531718	0.589	n/a	stim	s556
286.04	0.18	-2.5389321878057327	draw_card	0.0	columbia_card_task_fmri	15.0	0.7777777777777778	89.0	-75.0	0.2222222222222222	12.0	4.0	2.0	3.936625028611914	0.18	n/a	stim	s556
286.224	0.411	-5.038932187805735	draw_card	0.0	columbia_card_task_fmri	15.0	0.75	89.0	-75.0	0.25	12.0	5.0	2.0	5.487975716738816	0.411	n/a	stim	s556
286.639	0.152	-8.253217902091446	draw_card	0.0	columbia_card_task_fmri	15.0	0.7142857142857143	89.0	-75.0	0.2857142857142857	12.0	6.0	2.0	7.171473577201262	0.152	n/a	stim	s556
286.795	0.349	-12.538932187805733	draw_card	0.0	columbia_card_task_fmri	15.0	0.6666666666666667	89.0	-75.0	0.3333333333333333	12.0	7.0	2.0	8.936928029196551	0.349	n/a	stim	s556
287.147	1.056	-18.53893218780573	end_round	0.0	columbia_card_task_fmri	15.0	0.6	71.0	-75.0	0.4	12.0	8.0	2.0	10.59864846721613	1.056	7.0	stim	s556
288.208	2.25	n/a	-1.0	n/a	columbia_card_task_fmri	n/a	n/a	-1.0	n/a	n/a	n/a	n/a	n/a	n/a	n/a	n/a	feedback	s556
290.458	0.136	n/a	-1.0	n/a	columbia_card_task_fmri	n/a	n/a	-1.0	n/a	n/a	n/a	n/a	n/a	n/a	n/a	n/a	ITI	s556
290.597	0.862	1.4610678121942655	draw_card	0.0	columbia_card_task_fmri	15.0	0.8	89.0	-65.0	0.2	15.0	1.0	3.0	-1.4663007891102993	0.862	n/a	stim	s556
291.462	0.171	0.3182106693371231	draw_card	0.0	columbia_card_task_fmri	15.0	0.7857142857142857	89.0	-65.0	0.2142857142857142	15.0	2.0	3.0	-0.6425998571761937	0.171	n/a	stim	s556
291.637	0.149	-1.000470649344198	draw_card	0.0	columbia_card_task_fmri	15.0	0.7692307692307692	89.0	-65.0	0.2307692307692307	15.0	3.0	3.0	0.2349327997149757	0.149	n/a	stim	s556
291.788	0.394	-2.5389321878057345	draw_card	0.0	columbia_card_task_fmri	15.0	0.75	89.0	-65.0	0.25	15.0	4.0	3.0	1.1675296695187924	0.394	n/a	stim	s556
292.186	0.175	-4.357114005987551	draw_card	0.0	columbia_card_task_fmri	15.0	0.7272727272727273	89.0	-65.0	0.2727272727272727	15.0	5.0	3.0	2.1530400343657945	0.175	n/a	stim	s556
292.364	0.766	-6.538932187805735	end_round	0.0	columbia_card_task_fmri	15.0	0.7	71.0	-65.0	0.3	15.0	6.0	3.0	3.182320215803649	0.766	5.0	stim	s556
293.135	2.25	n/a	-1.0	n/a	columbia_card_task_fmri	n/a	n/a	-1.0	n/a	n/a	n/a	n/a	n/a	n/a	n/a	n/a	feedback	s556
295.385	0.476	n/a	-1.0	n/a	columbia_card_task_fmri	n/a	n/a	-1.0	n/a	n/a	n/a	n/a	n/a	n/a	n/a	n/a	ITI	s556
295.865	1.14	0.7110678121942655	draw_card	0.0	columbia_card_task_fmri	14.0	0.8125	89.0	-70.0	0.1875	16.0	1.0	3.0	-0.6823210174782801	1.14	n/a	stim	s556
297.009	0.738	-0.3389321878057334	draw_card	0.0	columbia_card_task_fmri	14.0	0.8	89.0	-70.0	0.2	16.0	2.0	3.0	0.129211588477581	0.738	n/a	stim	s556
297.75	1.237	-1.5389321878057345	end_round	0.0	columbia_card_task_fmri	14.0	0.7857142857142857	71.0	-70.0	0.2142857142857142	16.0	3.0	3.0	0.994328150548462	1.237	2.0	stim	s556
298.991	2.25	n/a	-1.0	n/a	columbia_card_task_fmri	n/a	n/a	-1.0	n/a	n/a	n/a	n/a	n/a	n/a	n/a	n/a	feedback	s556
301.241	0.204	n/a	-1.0	n/a	columbia_card_task_fmri	n/a	n/a	-1.0	n/a	n/a	n/a	n/a	n/a	n/a	n/a	n/a	ITI	s556
301.448	0.525	0.6485678121942655	draw_card	0.0	columbia_card_task_fmri	11.0	0.6875	89.0	-30.0	0.3125	16.0	1.0	5.0	-14.398096293412255	0.525	n/a	stim	s556
301.977	0.198	-0.2055988544724005	draw_card	1.0	columbia_card_task_fmri	11.0	0.6666666666666667	89.0	-30.0	0.3333333333333333	16.0	2.0	5.0	-14.077154925213808	0.198	2.0	stim	s556
302.18	2.25	n/a	-1.0	n/a	columbia_card_task_fmri	n/a	n/a	-1.0	n/a	n/a	n/a	n/a	n/a	n/a	n/a	n/a	feedback	s556
304.43	0.068	n/a	-1.0	n/a	columbia_card_task_fmri	n/a	n/a	-1.0	n/a	n/a	n/a	n/a	n/a	n/a	n/a	n/a	ITI	s556
304.502	0.391	5.4610678121942655	draw_card	0.0	columbia_card_task_fmri	15.0	0.8666666666666667	89.0	-75.0	0.1333333333333333	15.0	1.0	2.0	-2.8678549064797103	0.391	n/a	stim	s556
304.896	0.144	4.60392495505141	draw_card	0.0	columbia_card_task_fmri	15.0	0.8571428571428572	89.0	-75.0	0.1428571428571428	15.0	2.0	2.0	-1.971345843571779	0.144	n/a	stim	s556
305.043	0.156	3.614913966040419	draw_card	0.0	columbia_card_task_fmri	15.0	0.8461538461538461	89.0	-75.0	0.1538461538461538	15.0	3.0	2.0	-0.9955616347684284	0.156	n/a	stim	s556
305.204	0.137	2.461067812194265	draw_card	0.0	columbia_card_task_fmri	15.0	0.8333333333333334	89.0	-75.0	0.1666666666666666	15.0	4.0	2.0	0.0703891075272764	0.137	n/a	stim	s556
305.345	0.15	1.0974314485579004	draw_card	0.0	columbia_card_task_fmri	15.0	0.8181818181818181	89.0	-75.0	0.1818181818181818	15.0	5.0	2.0	1.2388488398358248	0.15	n/a	stim	s556
305.499	0.139	-0.5389321878057345	draw_card	0.0	columbia_card_task_fmri	15.0	0.8	89.0	-75.0	0.2	15.0	6.0	2.0	2.523225311531718	0.139	n/a	stim	s556
305.642	0.145	-2.5389321878057327	draw_card	0.0	columbia_card_task_fmri	15.0	0.7777777777777778	89.0	-75.0	0.2222222222222222	15.0	7.0	2.0	3.936625028611914	0.145	n/a	stim	s556
305.79	0.417	-5.038932187805735	draw_card	1.0	columbia_card_task_fmri	15.0	0.75	89.0	-75.0	0.25	15.0	8.0	2.0	5.487975716738816	0.417	8.0	stim	s556
306.213	2.25	n/a	-1.0	n/a	columbia_card_task_fmri	n/a	n/a	-1.0	n/a	n/a	n/a	n/a	n/a	n/a	n/a	n/a	feedback	s556
308.463	0.068	n/a	-1.0	n/a	columbia_card_task_fmri	n/a	n/a	-1.0	n/a	n/a	n/a	n/a	n/a	n/a	n/a	n/a	ITI	s556
308.535	0.811	7.1944011455276	draw_card	0.0	columbia_card_task_fmri	17.0	0.8666666666666667	89.0	-75.0	0.1333333333333333	15.0	1.0	2.0	-2.190127369974657	0.811	n/a	stim	s556
309.35	0.201	6.318210669337125	draw_card	0.0	columbia_card_task_fmri	17.0	0.8571428571428572	89.0	-75.0	0.1428571428571428	15.0	2.0	2.0	-1.2735727574484983	0.201	n/a	stim	s556
309.554	0.172	5.307221658348112	draw_card	0.0	columbia_card_task_fmri	17.0	0.8461538461538461	89.0	-75.0	0.1538461538461538	15.0	3.0	2.0	-0.2759781479082477	0.172	n/a	stim	s556
309.731	0.857	4.127734478860933	draw_card	0.0	columbia_card_task_fmri	17.0	0.8333333333333334	89.0	-75.0	0.1666666666666666	15.0	4.0	2.0	0.8137899890712177	0.857	n/a	stim	s556
310.591	0.175	2.733795084921537	draw_card	0.0	columbia_card_task_fmri	17.0	0.8181818181818181	89.0	-75.0	0.1818181818181818	15.0	5.0	2.0	2.008348433742256	0.175	n/a	stim	s556
310.769	0.659	1.061067812194267	draw_card	0.0	columbia_card_task_fmri	17.0	0.8	89.0	-75.0	0.2	15.0	6.0	2.0	3.321402798918669	0.659	n/a	stim	s556
311.431	1.042	-0.9833766322501756	end_round	0.0	columbia_card_task_fmri	17.0	0.7777777777777778	71.0	-75.0	0.2222222222222222	15.0	7.0	2.0	4.76635048976361	1.042	6.0	stim	s556
312.479	2.25	n/a	-1.0	n/a	columbia_card_task_fmri	n/a	n/a	-1.0	n/a	n/a	n/a	n/a	n/a	n/a	n/a	n/a	feedback	s556
314.729	0.34	n/a	-1.0	n/a	columbia_card_task_fmri	n/a	n/a	-1.0	n/a	n/a	n/a	n/a	n/a	n/a	n/a	n/a	ITI	s556
315.073	0.49	2.773567812194265	draw_card	0.0	columbia_card_task_fmri	2.0	0.9375	89.0	-25.0	0.0625	16.0	1.0	1.0	-26.57712590055021	0.49	n/a	stim	s556
315.566	0.191	2.6610678121942657	draw_card	0.0	columbia_card_task_fmri	2.0	0.9333333333333332	89.0	-25.0	0.0666666666666666	16.0	2.0	1.0	-26.390244908386958	0.191	n/a	stim	s556
315.761	0.395	2.532496383622837	draw_card	0.0	columbia_card_task_fmri	2.0	0.9285714285714286	89.0	-25.0	0.0714285714285714	16.0	3.0	1.0	-26.184561033069883	0.395	n/a	stim	s556
316.16	0.232	2.384144735271189	draw_card	0.0	columbia_card_task_fmri	2.0	0.9230769230769232	89.0	-25.0	0.0769230769230769	16.0	4.0	1.0	-25.95684219721632	0.232	n/a	stim	s556
316.397	0.173	2.211067812194265	draw_card	0.0	columbia_card_task_fmri	2.0	0.9166666666666666	89.0	-25.0	0.0833333333333333	16.0	5.0	1.0	-25.70304199575133	0.173	n/a	stim	s556
316.574	0.436	2.0065223576488105	draw_card	0.0	columbia_card_task_fmri	2.0	0.9090909090909092	89.0	-25.0	0.0909090909090909	16.0	6.0	1.0	-25.41802437015108	0.436	n/a	stim	s556
317.014	0.453	1.7610678121942656	draw_card	0.0	columbia_card_task_fmri	2.0	0.9	89.0	-25.0	0.1	16.0	7.0	1.0	-25.095171770302272	0.453	n/a	stim	s556
317.47	0.601	1.4610678121942655	end_round	0.0	columbia_card_task_fmri	2.0	0.8888888888888888	71.0	-25.0	0.1111111111111111	16.0	8.0	1.0	-24.725820565439456	0.601	7.0	stim	s556
318.076	2.25	n/a	-1.0	n/a	columbia_card_task_fmri	n/a	n/a	-1.0	n/a	n/a	n/a	n/a	n/a	n/a	n/a	n/a	feedback	s556
320.326	0.476	n/a	-1.0	n/a	columbia_card_task_fmri	n/a	n/a	-1.0	n/a	n/a	n/a	n/a	n/a	n/a	n/a	n/a	ITI	s556
320.807	0.395	4.9610678121942655	draw_card	0.0	columbia_card_task_fmri	9.0	0.9375	89.0	-95.0	0.0625	16.0	1.0	1.0	-8.266395987676038	0.395	n/a	stim	s556
321.206	0.173	4.527734478860933	draw_card	1.0	columbia_card_task_fmri	9.0	0.9333333333333332	89.0	-95.0	0.0666666666666666	16.0	2.0	1.0	-7.502165529151863	0.173	2.0	stim	s556
321.384	2.25	n/a	-1.0	n/a	columbia_card_task_fmri	n/a	n/a	-1.0	n/a	n/a	n/a	n/a	n/a	n/a	n/a	n/a	feedback	s556
323.634	0.272	n/a	-1.0	n/a	columbia_card_task_fmri	n/a	n/a	-1.0	n/a	n/a	n/a	n/a	n/a	n/a	n/a	n/a	ITI	s556
323.91	0.285	6.5235678121942655	draw_card	0.0	columbia_card_task_fmri	11.0	0.9375	89.0	-100.0	0.0625	16.0	1.0	1.0	-6.579501488006571	0.285	n/a	stim	s556
324.199	0.162	6.061067812194266	draw_card	0.0	columbia_card_task_fmri	11.0	0.9333333333333332	89.0	-100.0	0.0666666666666666	16.0	2.0	1.0	-5.763374286914914	0.162	n/a	stim	s556
324.365	0.153	5.532496383622839	draw_card	0.0	columbia_card_task_fmri	11.0	0.9285714285714286	89.0	-100.0	0.0714285714285714	16.0	3.0	1.0	-4.868186653699826	0.153	n/a	stim	s556
324.523	0.142	4.922606273732728	draw_card	0.0	columbia_card_task_fmri	11.0	0.9230769230769232	89.0	-100.0	0.0769230769230769	16.0	4.0	1.0	-3.880490314012352	0.142	n/a	stim	s556
324.669	0.157	4.2110678121942655	draw_card	0.0	columbia_card_task_fmri	11.0	0.9166666666666666	89.0	-100.0	0.0833333333333333	16.0	5.0	1.0	-2.78346453087406	0.157	n/a	stim	s556
324.83	0.145	3.370158721285174	draw_card	0.0	columbia_card_task_fmri	11.0	0.9090909090909092	89.0	-100.0	0.0909090909090909	16.0	6.0	1.0	-1.555779419807969	0.145	n/a	stim	s556
324.979	0.139	2.361067812194266	draw_card	0.0	columbia_card_task_fmri	11.0	0.9	89.0	-100.0	0.1	16.0	7.0	1.0	-0.1699796956055266	0.139	n/a	stim	s556
325.122	0.14	1.1277344788609316	draw_card	0.0	columbia_card_task_fmri	11.0	0.8888888888888888	89.0	-100.0	0.1111111111111111	16.0	8.0	1.0	1.4098415541818383	0.14	n/a	stim	s556
325.265	0.141	-0.4139321878057345	draw_card	0.0	columbia_card_task_fmri	11.0	0.875	89.0	-100.0	0.125	16.0	9.0	1.0	3.231403769697728	0.141	n/a	stim	s556
325.41	0.392	-2.3960750449485904	draw_card	0.0	columbia_card_task_fmri	11.0	0.8571428571428572	89.0	-100.0	0.1428571428571428	16.0	10.0	1.0	5.358999105692234	0.392	n/a	stim	s556
325.806	0.15	-5.038932187805731	draw_card	1.0	columbia_card_task_fmri	11.0	0.8333333333333334	89.0	-100.0	0.1666666666666666	16.0	11.0	1.0	7.87960162481334	0.15	11.0	stim	s556
325.96	2.25	n/a	-1.0	n/a	columbia_card_task_fmri	n/a	n/a	-1.0	n/a	n/a	n/a	n/a	n/a	n/a	n/a	n/a	feedback	s556
328.21	0.884	n/a	-1.0	n/a	columbia_card_task_fmri	n/a	n/a	-1.0	n/a	n/a	n/a	n/a	n/a	n/a	n/a	n/a	ITI	s556
329.098	0.422	7.0860678121942655	draw_card	0.0	columbia_card_task_fmri	16.0	0.875	89.0	-75.0	0.125	16.0	1.0	2.0	-3.3649186065147845	0.422	n/a	stim	s556
329.524	0.159	6.327734478860933	draw_card	0.0	columbia_card_task_fmri	16.0	0.8666666666666667	89.0	-75.0	0.1333333333333333	16.0	2.0	2.0	-2.529002850439497	0.159	n/a	stim	s556
329.687	0.147	5.461067812194267	draw_card	1.0	columbia_card_task_fmri	16.0	0.8571428571428572	89.0	-75.0	0.1428571428571428	16.0	3.0	2.0	-1.622470684316948	0.147	3.0	stim	s556
329.839	2.25	n/a	-1.0	n/a	columbia_card_task_fmri	n/a	n/a	-1.0	n/a	n/a	n/a	n/a	n/a	n/a	n/a	n/a	feedback	s556
332.089	0.136	n/a	-1.0	n/a	columbia_card_task_fmri	n/a	n/a	-1.0	n/a	n/a	n/a	n/a	n/a	n/a	n/a	n/a	ITI	s556
332.228	0.504	7.3360678121942655	draw_card	0.0	columbia_card_task_fmri	17.0	0.875	89.0	-80.0	0.125	16.0	1.0	2.0	-1.386800331645354	0.504	n/a	stim	s556
332.736	0.182	6.527734478860934	draw_card	0.0	columbia_card_task_fmri	17.0	0.8666666666666667	89.0	-80.0	0.1333333333333333	16.0	2.0	2.0	-0.4954238102318129	0.182	n/a	stim	s556
332.922	0.163	5.603924955051411	draw_card	0.0	columbia_card_task_fmri	17.0	0.8571428571428572	89.0	-80.0	0.1428571428571428	16.0	3.0	2.0	0.4712338809754683	0.163	n/a	stim	s556
333.088	0.161	4.537990889117342	draw_card	0.0	columbia_card_task_fmri	17.0	0.8461538461538461	89.0	-80.0	0.1538461538461538	16.0	4.0	2.0	1.5233434069060934	0.161	n/a	stim	s556
333.254	0.158	3.294401145527601	draw_card	0.0	columbia_card_task_fmri	17.0	0.8333333333333334	89.0	-80.0	0.1666666666666666	16.0	5.0	2.0	2.67264364471	0.158	n/a	stim	s556
333.415	0.165	1.824704175830627	draw_card	0.0	columbia_card_task_fmri	17.0	0.8181818181818181	89.0	-80.0	0.1818181818181818	16.0	6.0	2.0	3.9324371793414974	0.165	n/a	stim	s556
333.583	0.147	0.0610678121942669	draw_card	0.0	columbia_card_task_fmri	17.0	0.8	89.0	-80.0	0.2	16.0	7.0	2.0	5.317174289359201	0.147	n/a	stim	s556
333.734	0.791	-2.09448774336129	draw_card	0.0	columbia_card_task_fmri	17.0	0.7777777777777778	89.0	-80.0	0.2222222222222222	16.0	8.0	2.0	6.840979658856845	0.791	n/a	stim	s556
334.529	0.152	-4.788932187805735	draw_card	1.0	columbia_card_task_fmri	17.0	0.75	89.0	-80.0	0.25	16.0	9.0	2.0	8.51347227316073	0.152	9.0	stim	s556
334.687	2.25	n/a	-1.0	n/a	columbia_card_task_fmri	n/a	n/a	-1.0	n/a	n/a	n/a	n/a	n/a	n/a	n/a	n/a	feedback	s556
336.937	0.136	n/a	-1.0	n/a	columbia_card_task_fmri	n/a	n/a	-1.0	n/a	n/a	n/a	n/a	n/a	n/a	n/a	n/a	ITI	s556
348.08	1.256	1.6277344788609334	draw_card	0.0	columbia_card_task_fmri	13.0	0.8333333333333334	89.0	-70.0	0.1666666666666666	6.0	1.0	1.0	-2.530775276675968	1.256	n/a	stim	s556
349.34	0.225	-1.138932187805734	draw_card	0.0	columbia_card_task_fmri	13.0	0.8	89.0	-70.0	0.2	6.0	2.0	1.0	-0.2697068890306013	0.225	n/a	stim	s556
349.569	1.318	-5.288932187805735	end_round	0.0	columbia_card_task_fmri	13.0	0.75	71.0	-70.0	0.25	6.0	3.0	1.0	2.463419389696817	1.318	2.0	stim	s556
350.892	2.25	n/a	-1.0	n/a	columbia_card_task_fmri	n/a	n/a	-1.0	n/a	n/a	n/a	n/a	n/a	n/a	n/a	n/a	feedback	s556
353.142	0.068	n/a	-1.0	n/a	columbia_card_task_fmri	n/a	n/a	-1.0	n/a	n/a	n/a	n/a	n/a	n/a	n/a	n/a	ITI	s556
353.215	1.781	1.6277344788609334	draw_card	0.0	columbia_card_task_fmri	15.0	0.8333333333333334	89.0	-80.0	0.1666666666666666	6.0	1.0	1.0	1.929045089066676	1.781	n/a	stim	s556
355.0	0.23	-1.5389321878057345	draw_card	0.0	columbia_card_task_fmri	15.0	0.8	89.0	-80.0	0.2	6.0	2.0	1.0	4.518812448482585	0.23	n/a	stim	s556
355.234	1.106	-6.288932187805735	end_round	0.0	columbia_card_task_fmri	15.0	0.75	71.0	-80.0	0.25	6.0	3.0	1.0	7.648960817644365	1.106	2.0	stim	s556
356.345	2.25	n/a	-1.0	n/a	columbia_card_task_fmri	n/a	n/a	-1.0	n/a	n/a	n/a	n/a	n/a	n/a	n/a	n/a	feedback	s556
358.595	0.068	n/a	-1.0	n/a	columbia_card_task_fmri	n/a	n/a	-1.0	n/a	n/a	n/a	n/a	n/a	n/a	n/a	n/a	ITI	s556
358.667	0.691	3.2944011455275994	draw_card	1.0	columbia_card_task_fmri	16.0	0.8333333333333334	89.0	-75.0	0.1666666666666666	6.0	1.0	1.0	0.4420788481594755	0.691	1.0	stim	s556
359.362	2.25	n/a	-1.0	n/a	columbia_card_task_fmri	n/a	n/a	-1.0	n/a	n/a	n/a	n/a	n/a	n/a	n/a	n/a	feedback	s556
361.612	0.612	n/a	-1.0	n/a	columbia_card_task_fmri	n/a	n/a	-1.0	n/a	n/a	n/a	n/a	n/a	n/a	n/a	n/a	ITI	s556
362.229	0.367	4.4610678121942655	draw_card	0.0	columbia_card_task_fmri	21.0	0.75	89.0	-55.0	0.25	8.0	1.0	2.0	-0.5599381885446562	0.367	n/a	stim	s556
362.599	0.177	1.746782097908552	draw_card	1.0	columbia_card_task_fmri	21.0	0.7142857142857143	89.0	-55.0	0.2857142857142857	8.0	2.0	2.0	0.8605943878146789	0.177	2.0	stim	s556
362.781	2.25	n/a	-1.0	n/a	columbia_card_task_fmri	n/a	n/a	-1.0	n/a	n/a	n/a	n/a	n/a	n/a	n/a	n/a	feedback	s556
365.031	0.476	n/a	-1.0	n/a	columbia_card_task_fmri	n/a	n/a	-1.0	n/a	n/a	n/a	n/a	n/a	n/a	n/a	n/a	ITI	s556
365.511	0.363	5.7110678121942655	draw_card	0.0	columbia_card_task_fmri	26.0	0.75	89.0	-65.0	0.25	8.0	1.0	2.0	5.920136986226666	0.363	n/a	stim	s556
365.879	0.183	2.461067812194269	draw_card	0.0	columbia_card_task_fmri	26.0	0.7142857142857143	89.0	-65.0	0.2857142857142857	8.0	2.0	2.0	7.622411222862688	0.183	n/a	stim	s556
366.066	0.157	-1.872265521139063	draw_card	0.0	columbia_card_task_fmri	26.0	0.6666666666666667	89.0	-65.0	0.3333333333333333	8.0	3.0	2.0	9.407550098994436	0.157	n/a	stim	s556
366.227	2.142	-7.938932187805735	draw_card	0.0	columbia_card_task_fmri	26.0	0.6	89.0	-65.0	0.4	8.0	4.0	2.0	11.08779336313986	2.142	n/a	stim	s556
368.373	0.498	-17.038932187805734	draw_card	0.0	columbia_card_task_fmri	26.0	0.5	89.0	-65.0	0.5	8.0	5.0	2.0	12.005710619279654	0.498	n/a	stim	s556
368.875	0.678	-32.20559885447239	end_round	0.0	columbia_card_task_fmri	26.0	0.3333333333333333	71.0	-65.0	0.6666666666666666	8.0	6.0	2.0	9.407550098994436	0.678	5.0	stim	s556
369.559	2.25	n/a	-1.0	n/a	columbia_card_task_fmri	n/a	n/a	-1.0	n/a	n/a	n/a	n/a	n/a	n/a	n/a	n/a	feedback	s556
371.809	0.0	n/a	-1.0	n/a	columbia_card_task_fmri	n/a	n/a	-1.0	n/a	n/a	n/a	n/a	n/a	n/a	n/a	n/a	ITI	s556
371.812	0.95	0.7944011455275994	draw_card	1.0	columbia_card_task_fmri	15.0	0.7777777777777778	89.0	-60.0	0.2222222222222222	9.0	1.0	2.0	-2.2833464401571426	0.95	1.0	stim	s556
372.767	2.25	n/a	-1.0	n/a	columbia_card_task_fmri	n/a	n/a	-1.0	n/a	n/a	n/a	n/a	n/a	n/a	n/a	n/a	feedback	s556
375.017	0.068	n/a	-1.0	n/a	columbia_card_task_fmri	n/a	n/a	-1.0	n/a	n/a	n/a	n/a	n/a	n/a	n/a	n/a	ITI	s556
375.089	0.373	5.161067812194267	draw_card	0.0	columbia_card_task_fmri	13.0	0.9	89.0	-90.0	0.1	10.0	1.0	1.0	-2.562947191302694	0.373	n/a	stim	s556
375.466	0.178	4.016623367749821	draw_card	0.0	columbia_card_task_fmri	13.0	0.8888888888888888	89.0	-90.0	0.1111111111111111	10.0	2.0	1.0	-1.0976000804179549	0.178	n/a	stim	s556
375.649	0.163	2.586067812194265	draw_card	0.0	columbia_card_task_fmri	13.0	0.875	89.0	-90.0	0.125	10.0	3.0	1.0	0.592036722440767	0.163	n/a	stim	s556
375.815	0.522	0.7467820979085538	draw_card	0.0	columbia_card_task_fmri	13.0	0.8571428571428572	89.0	-90.0	0.1428571428571428	10.0	4.0	1.0	2.565618410988982	0.522	n/a	stim	s556
376.341	0.415	-1.7055988544724006	draw_card	0.0	columbia_card_task_fmri	13.0	0.8333333333333334	89.0	-90.0	0.1666666666666666	10.0	5.0	1.0	4.903847492816496	0.415	n/a	stim	s556
376.762	2.008	-5.138932187805734	draw_card	0.0	columbia_card_task_fmri	13.0	0.8	89.0	-90.0	0.2	10.0	6.0	1.0	7.712640451417492	2.008	n/a	stim	s556
378.774	0.515	-10.288932187805734	end_round	0.0	columbia_card_task_fmri	13.0	0.75	71.0	-90.0	0.25	10.0	7.0	1.0	11.107358562024343	0.515	6.0	stim	s556
379.295	2.25	n/a	-1.0	n/a	columbia_card_task_fmri	n/a	n/a	-1.0	n/a	n/a	n/a	n/a	n/a	n/a	n/a	n/a	feedback	s556
381.545	0.204	n/a	-1.0	n/a	columbia_card_task_fmri	n/a	n/a	-1.0	n/a	n/a	n/a	n/a	n/a	n/a	n/a	n/a	ITI	s556
381.753	1.652	6.4610678121942655	draw_card	1.0	columbia_card_task_fmri	15.0	0.9	89.0	-95.0	0.1	10.0	1.0	1.0	-0.4691563362443105	1.652	1.0	stim	s556
383.41	2.25	n/a	-1.0	n/a	columbia_card_task_fmri	n/a	n/a	-1.0	n/a	n/a	n/a	n/a	n/a	n/a	n/a	n/a	feedback	s556
385.66	0.272	n/a	-1.0	n/a	columbia_card_task_fmri	n/a	n/a	-1.0	n/a	n/a	n/a	n/a	n/a	n/a	n/a	n/a	ITI	s556
385.937	0.34	2.2610678121942662	draw_card	0.0	columbia_card_task_fmri	16.0	0.8	89.0	-65.0	0.2	10.0	1.0	2.0	-1.0674640692855846	0.34	n/a	stim	s556
386.282	0.52	0.4610678121942673	draw_card	0.0	columbia_card_task_fmri	16.0	0.7777777777777778	89.0	-65.0	0.2222222222222222	10.0	2.0	2.0	0.2039283550384709	0.52	n/a	stim	s556
386.807	4.073	-1.7889321878057345	end_round	0.0	columbia_card_task_fmri	16.0	0.75	71.0	-65.0	0.25	10.0	3.0	2.0	1.5994670918301637	4.073	2.0	stim	s556
390.885	2.25	n/a	-1.0	n/a	columbia_card_task_fmri	n/a	n/a	-1.0	n/a	n/a	n/a	n/a	n/a	n/a	n/a	n/a	feedback	s556
393.135	0.068	n/a	-1.0	n/a	columbia_card_task_fmri	n/a	n/a	-1.0	n/a	n/a	n/a	n/a	n/a	n/a	n/a	n/a	ITI	s556
393.207	0.678	0.9610678121942656	draw_card	0.0	columbia_card_task_fmri	7.0	0.9166666666666666	89.0	-95.0	0.0833333333333333	12.0	1.0	1.0	-5.262268648319679	0.678	n/a	stim	s556
393.89	1.871	0.1883405394669921	draw_card	0.0	columbia_card_task_fmri	7.0	0.9090909090909092	89.0	-95.0	0.0909090909090909	12.0	2.0	1.0	-4.134764108670069	1.871	n/a	stim	s556
395.766	0.176	-0.7389321878057347	draw_card	0.0	columbia_card_task_fmri	7.0	0.9	89.0	-95.0	0.1	12.0	3.0	1.0	-2.861990926708799	0.176	n/a	stim	s556
395.946	0.156	-1.8722655211390684	draw_card	0.0	columbia_card_task_fmri	7.0	0.8888888888888888	89.0	-95.0	0.1111111111111111	12.0	4.0	1.0	-1.4109565292121855	0.156	n/a	stim	s556
396.106	1.697	-3.2889321878057345	draw_card	0.0	columbia_card_task_fmri	7.0	0.875	89.0	-95.0	0.125	12.0	5.0	1.0	0.2621859848978332	1.697	n/a	stim	s556
397.807	0.828	-5.110360759234306	end_round	0.0	columbia_card_task_fmri	7.0	0.8571428571428572	71.0	-95.0	0.1428571428571428	12.0	6.0	1.0	2.2165121701382304	0.828	5.0	stim	s556
398.642	2.25	n/a	-1.0	n/a	columbia_card_task_fmri	n/a	n/a	-1.0	n/a	n/a	n/a	n/a	n/a	n/a	n/a	n/a	feedback	s556
400.892	0.272	n/a	-1.0	n/a	columbia_card_task_fmri	n/a	n/a	-1.0	n/a	n/a	n/a	n/a	n/a	n/a	n/a	n/a	ITI	s556
401.168	0.344	1.6277344788609334	draw_card	1.0	columbia_card_task_fmri	14.0	0.8333333333333334	89.0	-75.0	0.1666666666666666	12.0	1.0	2.0	-0.3012785153528483	0.344	1.0	stim	s556
401.517	2.25	n/a	-1.0	n/a	columbia_card_task_fmri	n/a	n/a	-1.0	n/a	n/a	n/a	n/a	n/a	n/a	n/a	n/a	feedback	s556
403.767	0.748	n/a	-1.0	n/a	columbia_card_task_fmri	n/a	n/a	-1.0	n/a	n/a	n/a	n/a	n/a	n/a	n/a	n/a	ITI	s556
404.52	0.659	3.2944011455275994	draw_card	0.0	columbia_card_task_fmri	15.0	0.8333333333333334	89.0	-70.0	0.1666666666666666	12.0	1.0	2.0	-1.7877123066163847	0.659	n/a	stim	s556
405.183	0.289	2.0065223576488087	draw_card	0.0	columbia_card_task_fmri	15.0	0.8181818181818181	89.0	-70.0	0.1818181818181818	12.0	2.0	2.0	-0.684512669582368	0.289	n/a	stim	s556
405.477	0.325	0.4610678121942655	draw_card	0.0	columbia_card_task_fmri	15.0	0.8	89.0	-70.0	0.2	12.0	3.0	2.0	0.5281554128649333	0.325	n/a	stim	s556
405.806	0.739	-1.4278210766946238	end_round	0.0	columbia_card_task_fmri	15.0	0.7777777777777778	71.0	-70.0	0.2222222222222222	12.0	4.0	2.0	1.8626712340724796	0.739	3.0	stim	s556
406.552	2.25	n/a	-1.0	n/a	columbia_card_task_fmri	n/a	n/a	-1.0	n/a	n/a	n/a	n/a	n/a	n/a	n/a	n/a	feedback	s556
408.802	0.068	n/a	-1.0	n/a	columbia_card_task_fmri	n/a	n/a	-1.0	n/a	n/a	n/a	n/a	n/a	n/a	n/a	n/a	ITI	s556
408.875	0.394	1.2610678121942662	draw_card	0.0	columbia_card_task_fmri	16.0	0.8	89.0	-70.0	0.2	15.0	1.0	3.0	0.9271237045208522	0.394	n/a	stim	s556
409.274	0.187	0.0324963836228366	draw_card	0.0	columbia_card_task_fmri	16.0	0.7857142857142857	89.0	-70.0	0.2142857142857142	15.0	2.0	3.0	1.8129442193093297	0.187	n/a	stim	s556
409.466	0.183	-1.3850860339595812	draw_card	1.0	columbia_card_task_fmri	16.0	0.7692307692307692	89.0	-70.0	0.2307692307692307	15.0	3.0	3.0	2.756637838424176	0.183	3.0	stim	s556
409.656	2.25	n/a	-1.0	n/a	columbia_card_task_fmri	n/a	n/a	-1.0	n/a	n/a	n/a	n/a	n/a	n/a	n/a	n/a	feedback	s556
411.906	0.0	n/a	-1.0	n/a	columbia_card_task_fmri	n/a	n/a	-1.0	n/a	n/a	n/a	n/a	n/a	n/a	n/a	n/a	ITI	s556
411.911	0.347	1.6485678121942655	draw_card	0.0	columbia_card_task_fmri	14.0	0.8125	89.0	-65.0	0.1875	16.0	1.0	3.0	-2.6280629331107512	0.347	n/a	stim	s556
412.262	0.19	0.6610678121942666	draw_card	0.0	columbia_card_task_fmri	14.0	0.8	89.0	-65.0	0.2	16.0	2.0	3.0	-1.865108190396512	0.19	n/a	stim	s556
412.457	1.187	-0.4675036163771615	end_round	0.0	columbia_card_task_fmri	14.0	0.7857142857142857	71.0	-65.0	0.2142857142857142	16.0	3.0	3.0	-1.0517629154707606	1.187	2.0	stim	s556
413.651	2.25	n/a	-1.0	n/a	columbia_card_task_fmri	n/a	n/a	-1.0	n/a	n/a	n/a	n/a	n/a	n/a	n/a	n/a	feedback	s556
415.901	0.204	n/a	-1.0	n/a	columbia_card_task_fmri	n/a	n/a	-1.0	n/a	n/a	n/a	n/a	n/a	n/a	n/a	n/a	ITI	s556
416.11	0.44	1.3985678121942655	draw_card	0.0	columbia_card_task_fmri	16.0	0.8125	89.0	-75.0	0.1875	16.0	1.0	3.0	2.0427879661263333	0.44	n/a	stim	s556
416.555	0.171	0.2610678121942662	draw_card	0.0	columbia_card_task_fmri	16.0	0.8	89.0	-75.0	0.2	16.0	2.0	3.0	2.922304075611564	0.171	n/a	stim	s556
416.731	0.166	-1.0389321878057327	draw_card	0.0	columbia_card_task_fmri	16.0	0.7857142857142857	89.0	-75.0	0.2142857142857142	16.0	3.0	3.0	3.8598745491982456	0.166	n/a	stim	s556
416.901	0.164	-2.538932187805738	draw_card	1.0	columbia_card_task_fmri	16.0	0.7692307692307692	89.0	-75.0	0.2307692307692307	16.0	4.0	3.0	4.858685739523949	0.164	4.0	stim	s556
417.071	2.25	n/a	-1.0	n/a	columbia_card_task_fmri	n/a	n/a	-1.0	n/a	n/a	n/a	n/a	n/a	n/a	n/a	n/a	feedback	s556
419.321	0.068	n/a	-1.0	n/a	columbia_card_task_fmri	n/a	n/a	-1.0	n/a	n/a	n/a	n/a	n/a	n/a	n/a	n/a	ITI	s556
419.394	0.381	5.661067812194267	draw_card	1.0	columbia_card_task_fmri	16.0	0.8666666666666667	89.0	-80.0	0.1333333333333333	15.0	1.0	2.0	-0.834405757943621	0.381	1.0	stim	s556
419.781	2.25	n/a	-1.0	n/a	columbia_card_task_fmri	n/a	n/a	-1.0	n/a	n/a	n/a	n/a	n/a	n/a	n/a	n/a	feedback	s556
422.031	0.068	n/a	-1.0	n/a	columbia_card_task_fmri	n/a	n/a	-1.0	n/a	n/a	n/a	n/a	n/a	n/a	n/a	n/a	ITI	s556
422.105	0.174	6.527734478860934	draw_card	1.0	columbia_card_task_fmri	17.0	0.8666666666666667	89.0	-80.0	0.1333333333333333	15.0	1.0	2.0	-0.4954238102318129	0.174	1.0	stim	s556
422.285	2.25	n/a	-1.0	n/a	columbia_card_task_fmri	n/a	n/a	-1.0	n/a	n/a	n/a	n/a	n/a	n/a	n/a	n/a	feedback	s556
424.535	0.34	n/a	-1.0	n/a	columbia_card_task_fmri	n/a	n/a	-1.0	n/a	n/a	n/a	n/a	n/a	n/a	n/a	n/a	ITI	s556
424.881	0.394	2.461067812194265	end_round	0.0	columbia_card_task_fmri	1.0	0.9375	71.0	-15.0	0.0625	16.0	1.0	1.0	-28.97202474671795	0.394	0.0	stim	s556
425.281	2.25	n/a	-1.0	n/a	columbia_card_task_fmri	n/a	n/a	-1.0	n/a	n/a	n/a	n/a	n/a	n/a	n/a	n/a	feedback	s556
427.531	0.0	n/a	-1.0	n/a	columbia_card_task_fmri	n/a	n/a	-1.0	n/a	n/a	n/a	n/a	n/a	n/a	n/a	n/a	ITI	s556
427.536	0.597	5.5860678121942655	draw_card	0.0	columbia_card_task_fmri	10.0	0.9375	89.0	-100.0	0.0625	16.0	1.0	1.0	-6.820544757073126	0.597	n/a	stim	s556
428.138	0.183	5.1277344788609325	draw_card	0.0	columbia_card_task_fmri	10.0	0.9333333333333332	89.0	-100.0	0.0666666666666666	16.0	2.0	1.0	-6.011829693086174	0.183	n/a	stim	s556
428.327	0.174	4.60392495505141	draw_card	0.0	columbia_card_task_fmri	10.0	0.9285714285714286	89.0	-100.0	0.0714285714285714	16.0	3.0	1.0	-5.124768329309049	0.174	n/a	stim	s556
428.505	0.161	3.9995293506558047	draw_card	0.0	columbia_card_task_fmri	10.0	0.9230769230769232	89.0	-100.0	0.0769230769230769	16.0	4.0	1.0	-4.14603372252542	0.161	n/a	stim	s556
428.671	0.157	3.2944011455275994	draw_card	1.0	columbia_card_task_fmri	10.0	0.9166666666666666	89.0	-100.0	0.0833333333333333	16.0	5.0	1.0	-3.058956876647436	0.157	5.0	stim	s556
428.835	2.25	n/a	-1.0	n/a	columbia_card_task_fmri	n/a	n/a	-1.0	n/a	n/a	n/a	n/a	n/a	n/a	n/a	n/a	feedback	s556
431.085	0.0	n/a	-1.0	n/a	columbia_card_task_fmri	n/a	n/a	-1.0	n/a	n/a	n/a	n/a	n/a	n/a	n/a	n/a	ITI	s556
431.09	0.856	6.2110678121942655	draw_card	0.0	columbia_card_task_fmri	15.0	0.875	89.0	-75.0	0.125	16.0	1.0	2.0	-3.694525075354438	0.856	n/a	stim	s556
431.949	0.179	5.4610678121942655	draw_card	0.0	columbia_card_task_fmri	15.0	0.8666666666666667	89.0	-75.0	0.1333333333333333	16.0	2.0	2.0	-2.8678549064797103	0.179	n/a	stim	s556
432.133	0.17	4.60392495505141	draw_card	0.0	columbia_card_task_fmri	15.0	0.8571428571428572	89.0	-75.0	0.1428571428571428	16.0	3.0	2.0	-1.971345843571779	0.17	n/a	stim	s556
432.306	0.175	3.614913966040419	draw_card	0.0	columbia_card_task_fmri	15.0	0.8461538461538461	89.0	-75.0	0.1538461538461538	16.0	4.0	2.0	-0.9955616347684284	0.175	n/a	stim	s556
432.487	0.15	2.461067812194265	draw_card	0.0	columbia_card_task_fmri	15.0	0.8333333333333334	89.0	-75.0	0.1666666666666666	16.0	5.0	2.0	0.0703891075272764	0.15	n/a	stim	s556
432.641	0.93	1.0974314485579004	draw_card	0.0	columbia_card_task_fmri	15.0	0.8181818181818181	89.0	-75.0	0.1818181818181818	16.0	6.0	2.0	1.2388488398358248	0.93	n/a	stim	s556
433.575	0.437	-0.5389321878057345	draw_card	0.0	columbia_card_task_fmri	15.0	0.8	89.0	-75.0	0.2	16.0	7.0	2.0	2.523225311531718	0.437	n/a	stim	s556
434.016	0.637	-2.5389321878057327	draw_card	1.0	columbia_card_task_fmri	15.0	0.7777777777777778	89.0	-75.0	0.2222222222222222	16.0	8.0	2.0	3.936625028611914	0.637	8.0	stim	s556
434.659	2.25	n/a	-1.0	n/a	columbia_card_task_fmri	n/a	n/a	-1.0	n/a	n/a	n/a	n/a	n/a	n/a	n/a	n/a	feedback	s556
436.909	0.272	n/a	-1.0	n/a	columbia_card_task_fmri	n/a	n/a	-1.0	n/a	n/a	n/a	n/a	n/a	n/a	n/a	n/a	ITI	s556
437.186	0.373	6.4610678121942655	draw_card	0.0	columbia_card_task_fmri	16.0	0.875	89.0	-80.0	0.125	16.0	1.0	2.0	-1.71654024405235	0.373	n/a	stim	s556
437.562	0.217	5.661067812194267	draw_card	0.0	columbia_card_task_fmri	16.0	0.8666666666666667	89.0	-80.0	0.1333333333333333	16.0	2.0	2.0	-0.834405757943621	0.217	n/a	stim	s556
437.784	0.198	4.746782097908554	draw_card	0.0	columbia_card_task_fmri	16.0	0.8571428571428572	89.0	-80.0	0.1428571428571428	16.0	3.0	2.0	0.1222324754871735	0.198	n/a	stim	s556
437.986	0.212	3.691837042963496	draw_card	0.0	columbia_card_task_fmri	16.0	0.8461538461538461	89.0	-80.0	0.1538461538461538	16.0	4.0	2.0	1.1634402071373984	0.212	n/a	stim	s556
438.203	1.063	2.4610678121942677	end_round	0.0	columbia_card_task_fmri	16.0	0.8333333333333334	71.0	-80.0	0.1666666666666666	16.0	5.0	2.0	2.3008352459179804	1.063	4.0	stim	s556
439.272	2.25	n/a	-1.0	n/a	columbia_card_task_fmri	n/a	n/a	-1.0	n/a	n/a	n/a	n/a	n/a	n/a	n/a	n/a	feedback	s556
441.522	0.204	n/a	-1.0	n/a	columbia_card_task_fmri	n/a	n/a	-1.0	n/a	n/a	n/a	n/a	n/a	n/a	n/a	n/a	ITI	s556
441.729	0.361	3.6485678121942655	draw_card	1.0	columbia_card_task_fmri	4.0	0.6875	89.0	-5.0	0.3125	16.0	1.0	5.0	-28.71732993483884	0.361	1.0	stim	s556
442.096	2.25	n/a	-1.0	n/a	columbia_card_task_fmri	n/a	n/a	-1.0	n/a	n/a	n/a	n/a	n/a	n/a	n/a	n/a	feedback	s556
444.346	0.0	n/a	-1.0	n/a	columbia_card_task_fmri	n/a	n/a	-1.0	n/a	n/a	n/a	n/a	n/a	n/a	n/a	n/a	ITI	s556
444.35	0.949	0.7944011455276012	draw_card	0.0	columbia_card_task_fmri	14.0	0.8333333333333334	89.0	-80.0	0.1666666666666666	6.0	1.0	1.0	1.557273753530751	0.949	n/a	stim	s556
445.304	0.279	-2.3389321878057334	draw_card	0.0	columbia_card_task_fmri	14.0	0.8	89.0	-80.0	0.2	6.0	2.0	1.0	4.119657586365996	0.279	n/a	stim	s556
445.589	0.632	-7.038932187805735	draw_card	0.0	columbia_card_task_fmri	14.0	0.75	89.0	-80.0	0.25	6.0	3.0	1.0	7.216729183524258	0.632	n/a	stim	s556
446.227	0.784	-14.872265521139065	end_round	0.0	columbia_card_task_fmri	14.0	0.6666666666666667	71.0	-80.0	0.3333333333333333	6.0	4.0	1.0	10.819515959387772	0.784	3.0	stim	s556
447.017	2.25	n/a	-1.0	n/a	columbia_card_task_fmri	n/a	n/a	-1.0	n/a	n/a	n/a	n/a	n/a	n/a	n/a	n/a	feedback	s556
449.267	0.204	n/a	-1.0	n/a	columbia_card_task_fmri	n/a	n/a	-1.0	n/a	n/a	n/a	n/a	n/a	n/a	n/a	n/a	ITI	s556
449.478	0.332	2.461067812194265	draw_card	1.0	columbia_card_task_fmri	15.0	0.8333333333333334	89.0	-75.0	0.1666666666666666	6.0	1.0	1.0	0.0703891075272764	0.332	1.0	stim	s556
449.816	2.25	n/a	-1.0	n/a	columbia_card_task_fmri	n/a	n/a	-1.0	n/a	n/a	n/a	n/a	n/a	n/a	n/a	n/a	feedback	s556
452.066	0.204	n/a	-1.0	n/a	columbia_card_task_fmri	n/a	n/a	-1.0	n/a	n/a	n/a	n/a	n/a	n/a	n/a	n/a	ITI	s556
452.274	0.292	4.127734478860933	draw_card	0.0	columbia_card_task_fmri	16.0	0.8333333333333334	89.0	-70.0	0.1666666666666666	6.0	1.0	1.0	-1.416141005715822	0.292	n/a	stim	s556
452.571	0.244	1.2610678121942662	draw_card	0.0	columbia_card_task_fmri	16.0	0.8	89.0	-70.0	0.2	6.0	2.0	1.0	0.9271237045208522	0.244	n/a	stim	s556
452.82	0.306	-3.0389321878057345	draw_card	0.0	columbia_card_task_fmri	16.0	0.75	89.0	-70.0	0.25	6.0	3.0	1.0	3.759528021594427	0.306	n/a	stim	s556
453.13	0.407	-10.2055988544724	draw_card	0.0	columbia_card_task_fmri	16.0	0.6666666666666667	89.0	-70.0	0.3333333333333333	6.0	4.0	1.0	7.054621230652714	0.407	n/a	stim	s556
453.542	0.383	-24.53893218780573	end_round	0.0	columbia_card_task_fmri	16.0	0.5	71.0	-70.0	0.5	6.0	5.0	1.0	9.509571348369342	0.383	4.0	stim	s556
453.931	2.25	n/a	-1.0	n/a	columbia_card_task_fmri	n/a	n/a	-1.0	n/a	n/a	n/a	n/a	n/a	n/a	n/a	n/a	feedback	s556
456.181	0.272	n/a	-1.0	n/a	columbia_card_task_fmri	n/a	n/a	-1.0	n/a	n/a	n/a	n/a	n/a	n/a	n/a	n/a	ITI	s556
456.458	0.567	4.7110678121942655	draw_card	0.0	columbia_card_task_fmri	23.0	0.75	89.0	-60.0	0.25	8.0	1.0	2.0	2.463419389696817	0.567	n/a	stim	s556
457.029	0.659	1.7467820979085538	draw_card	1.0	columbia_card_task_fmri	23.0	0.7142857142857143	89.0	-60.0	0.2857142857142857	8.0	2.0	2.0	4.0154591430317765	0.659	2.0	stim	s556
457.693	2.25	n/a	-1.0	n/a	columbia_card_task_fmri	n/a	n/a	-1.0	n/a	n/a	n/a	n/a	n/a	n/a	n/a	n/a	feedback	s556
459.943	0.204	n/a	-1.0	n/a	columbia_card_task_fmri	n/a	n/a	-1.0	n/a	n/a	n/a	n/a	n/a	n/a	n/a	n/a	ITI	s556
460.151	0.28	5.2110678121942655	draw_card	1.0	columbia_card_task_fmri	27.0	0.75	89.0	-70.0	0.25	8.0	1.0	2.0	8.51347227316073	0.28	1.0	stim	s556
460.437	2.25	n/a	-1.0	n/a	columbia_card_task_fmri	n/a	n/a	-1.0	n/a	n/a	n/a	n/a	n/a	n/a	n/a	n/a	feedback	s556
462.687	0.408	n/a	-1.0	n/a	columbia_card_task_fmri	n/a	n/a	-1.0	n/a	n/a	n/a	n/a	n/a	n/a	n/a	n/a	ITI	s556
463.101	0.308	0.4610678121942673	draw_card	0.0	columbia_card_task_fmri	16.0	0.7777777777777778	89.0	-65.0	0.2222222222222222	9.0	1.0	2.0	0.2039283550384709	0.308	n/a	stim	s556
463.415	0.509	-1.7889321878057345	draw_card	0.0	columbia_card_task_fmri	16.0	0.75	89.0	-65.0	0.25	9.0	2.0	2.0	1.5994670918301637	0.509	n/a	stim	s556
463.928	0.224	-4.681789330662875	draw_card	0.0	columbia_card_task_fmri	16.0	0.7142857142857143	89.0	-65.0	0.2857142857142857	9.0	3.0	2.0	3.113938921727147	0.224	n/a	stim	s556
464.157	0.226	-8.538932187805731	draw_card	0.0	columbia_card_task_fmri	16.0	0.6666666666666667	89.0	-65.0	0.3333333333333333	9.0	4.0	2.0	4.702196280590165	0.226	n/a	stim	s556
464.389	0.681	-13.938932187805731	end_round	0.0	columbia_card_task_fmri	16.0	0.6	71.0	-65.0	0.4	9.0	5.0	2.0	6.197178891345345	0.681	4.0	stim	s556
465.076	2.25	n/a	-1.0	n/a	columbia_card_task_fmri	n/a	n/a	-1.0	n/a	n/a	n/a	n/a	n/a	n/a	n/a	n/a	feedback	s556
467.326	0.136	n/a	-1.0	n/a	columbia_card_task_fmri	n/a	n/a	-1.0	n/a	n/a	n/a	n/a	n/a	n/a	n/a	n/a	ITI	s556
467.467	0.957	5.661067812194267	draw_card	0.0	columbia_card_task_fmri	13.0	0.9	89.0	-85.0	0.1	10.0	1.0	1.0	-4.057971701793981	0.957	n/a	stim	s556
468.429	0.394	4.572178923305376	draw_card	1.0	columbia_card_task_fmri	13.0	0.8888888888888888	89.0	-85.0	0.1111111111111111	10.0	2.0	1.0	-2.6641968121429045	0.394	2.0	stim	s556
468.828	2.25	n/a	-1.0	n/a	columbia_card_task_fmri	n/a	n/a	-1.0	n/a	n/a	n/a	n/a	n/a	n/a	n/a	n/a	feedback	s556
471.078	0.272	n/a	-1.0	n/a	columbia_card_task_fmri	n/a	n/a	-1.0	n/a	n/a	n/a	n/a	n/a	n/a	n/a	n/a	ITI	s556
471.355	0.607	0.6610678121942666	draw_card	0.0	columbia_card_task_fmri	14.0	0.8	89.0	-65.0	0.2	10.0	1.0	2.0	-1.865108190396512	0.607	n/a	stim	s556
471.967	0.595	-1.094487743361288	end_round	0.0	columbia_card_task_fmri	14.0	0.7777777777777778	71.0	-65.0	0.2222222222222222	10.0	2.0	2.0	-0.6252836343359292	0.595	1.0	stim	s556
472.568	2.25	n/a	-1.0	n/a	columbia_card_task_fmri	n/a	n/a	-1.0	n/a	n/a	n/a	n/a	n/a	n/a	n/a	n/a	feedback	s556
474.818	0.34	n/a	-1.0	n/a	columbia_card_task_fmri	n/a	n/a	-1.0	n/a	n/a	n/a	n/a	n/a	n/a	n/a	n/a	ITI	s556
475.163	0.359	2.061067812194267	draw_card	0.0	columbia_card_task_fmri	17.0	0.8	89.0	-70.0	0.2	10.0	1.0	2.0	1.3261156240190957	0.359	n/a	stim	s556
475.527	0.41	0.1277344788609333	draw_card	0.0	columbia_card_task_fmri	17.0	0.7777777777777778	89.0	-70.0	0.2222222222222222	10.0	2.0	2.0	2.692187532562848	0.41	n/a	stim	s556
475.942	0.244	-2.2889321878057345	draw_card	0.0	columbia_card_task_fmri	17.0	0.75	89.0	-70.0	0.25	10.0	3.0	2.0	4.191608982389106	0.244	n/a	stim	s556
476.191	0.221	-5.396075044948592	draw_card	0.0	columbia_card_task_fmri	17.0	0.7142857142857143	89.0	-70.0	0.2857142857142857	10.0	4.0	2.0	5.818772912653927	0.221	n/a	stim	s556
476.417	0.377	-9.538932187805733	draw_card	0.0	columbia_card_task_fmri	17.0	0.6666666666666667	89.0	-70.0	0.3333333333333333	10.0	5.0	2.0	7.525169461018166	0.377	n/a	stim	s556
476.798	0.44	-15.338932187805735	draw_card	0.0	columbia_card_task_fmri	17.0	0.6	89.0	-70.0	0.4	10.0	6.0	2.0	9.131317396469072	0.44	n/a	stim	s556
477.244	0.629	-24.03893218780573	draw_card	1.0	columbia_card_task_fmri	17.0	0.5	89.0	-70.0	0.5	10.0	7.0	2.0	10.00876378565782	0.629	7.0	stim	s556
477.879	2.25	n/a	-1.0	n/a	columbia_card_task_fmri	n/a	n/a	-1.0	n/a	n/a	n/a	n/a	n/a	n/a	n/a	n/a	feedback	s556
480.129	0.136	n/a	-1.0	n/a	columbia_card_task_fmri	n/a	n/a	-1.0	n/a	n/a	n/a	n/a	n/a	n/a	n/a	n/a	ITI	s556
480.272	0.481	0.7944011455275994	draw_card	0.0	columbia_card_task_fmri	13.0	0.8333333333333334	89.0	-75.0	0.1666666666666666	12.0	1.0	2.0	-0.6729232706192221	0.481	n/a	stim	s556
480.757	0.324	-0.5389321878057363	draw_card	0.0	columbia_card_task_fmri	13.0	0.8181818181818181	89.0	-75.0	0.1818181818181818	12.0	2.0	2.0	0.4694348081067332	0.324	n/a	stim	s556
481.088	0.232	-2.138932187805734	draw_card	0.0	columbia_card_task_fmri	13.0	0.8	89.0	-75.0	0.2	12.0	3.0	2.0	1.7251303698516978	0.232	n/a	stim	s556
481.325	0.211	-4.094487743361288	draw_card	0.0	columbia_card_task_fmri	13.0	0.7777777777777778	89.0	-75.0	0.2222222222222222	12.0	4.0	2.0	3.106979029240371	0.211	n/a	stim	s556
481.541	0.224	-6.538932187805735	draw_card	0.0	columbia_card_task_fmri	13.0	0.75	89.0	-75.0	0.25	12.0	5.0	2.0	4.623711052359397	0.224	n/a	stim	s556
481.77	0.23	-9.681789330662877	draw_card	1.0	columbia_card_task_fmri	13.0	0.7142857142857143	89.0	-75.0	0.2857142857142857	12.0	6.0	2.0	6.26965378659424	0.23	6.0	stim	s556
482.007	2.25	n/a	-1.0	n/a	columbia_card_task_fmri	n/a	n/a	-1.0	n/a	n/a	n/a	n/a	n/a	n/a	n/a	n/a	feedback	s556
484.257	0.34	n/a	-1.0	n/a	columbia_card_task_fmri	n/a	n/a	-1.0	n/a	n/a	n/a	n/a	n/a	n/a	n/a	n/a	ITI	s556
484.601	0.279	2.4610678121942677	draw_card	0.0	columbia_card_task_fmri	14.0	0.8333333333333334	89.0	-70.0	0.1666666666666666	12.0	1.0	2.0	-2.1592573776721338	0.279	n/a	stim	s556
484.885	0.235	1.1883405394669904	draw_card	0.0	columbia_card_task_fmri	14.0	0.8181818181818181	89.0	-70.0	0.1818181818181818	12.0	2.0	2.0	-1.0691122557943302	0.235	n/a	stim	s556
485.125	0.223	-0.3389321878057334	draw_card	0.0	columbia_card_task_fmri	14.0	0.8	89.0	-70.0	0.2	12.0	3.0	2.0	0.129211588477581	0.223	n/a	stim	s556
485.352	0.232	-2.205598854472401	draw_card	0.0	columbia_card_task_fmri	14.0	0.7777777777777778	89.0	-70.0	0.2222222222222222	12.0	4.0	2.0	1.447948012564055	0.232	n/a	stim	s556
485.589	0.241	-4.538932187805735	draw_card	0.0	columbia_card_task_fmri	14.0	0.75	89.0	-70.0	0.25	12.0	5.0	2.0	2.8954324297385767	0.241	n/a	stim	s556
485.835	0.22	-7.5389321878057345	draw_card	1.0	columbia_card_task_fmri	14.0	0.7142857142857143	89.0	-70.0	0.2857142857142857	12.0	6.0	2.0	4.466254634641132	0.22	6.0	stim	s556
486.061	2.25	n/a	-1.0	n/a	columbia_card_task_fmri	n/a	n/a	-1.0	n/a	n/a	n/a	n/a	n/a	n/a	n/a	n/a	feedback	s556
488.311	0.068	n/a	-1.0	n/a	columbia_card_task_fmri	n/a	n/a	-1.0	n/a	n/a	n/a	n/a	n/a	n/a	n/a	n/a	ITI	s556
488.386	0.535	2.4610678121942677	draw_card	0.0	columbia_card_task_fmri	16.0	0.8333333333333334	89.0	-80.0	0.1666666666666666	12.0	1.0	2.0	2.3008352459179804	0.535	n/a	stim	s556
488.925	0.283	1.0065223576488087	draw_card	0.0	columbia_card_task_fmri	16.0	0.8181818181818181	89.0	-80.0	0.1818181818181818	12.0	2.0	2.0	3.547583016335537	0.283	n/a	stim	s556
489.212	0.231	-0.7389321878057338	draw_card	0.0	columbia_card_task_fmri	16.0	0.8	89.0	-80.0	0.2	12.0	3.0	2.0	4.917984863029993	0.231	n/a	stim	s556
489.449	0.254	-2.8722655211390684	draw_card	0.0	columbia_card_task_fmri	16.0	0.7777777777777778	89.0	-80.0	0.2222222222222222	12.0	4.0	2.0	6.426020010980302	0.254	n/a	stim	s556
489.707	0.26	-5.538932187805735	draw_card	0.0	columbia_card_task_fmri	16.0	0.75	89.0	-80.0	0.25	12.0	5.0	2.0	8.08120868091924	0.26	n/a	stim	s556
489.972	0.297	-8.96750361637716	draw_card	1.0	columbia_card_task_fmri	16.0	0.7142857142857143	89.0	-80.0	0.2857142857142857	12.0	6.0	2.0	9.87735390761314	0.297	6.0	stim	s556
490.276	2.25	n/a	-1.0	n/a	columbia_card_task_fmri	n/a	n/a	-1.0	n/a	n/a	n/a	n/a	n/a	n/a	n/a	n/a	feedback	s556
492.526	0.0	n/a	-1.0	n/a	columbia_card_task_fmri	n/a	n/a	-1.0	n/a	n/a	n/a	n/a	n/a	n/a	n/a	n/a	ITI	s556
492.53	0.445	2.2610678121942662	draw_card	1.0	columbia_card_task_fmri	16.0	0.8	89.0	-65.0	0.2	15.0	1.0	3.0	-1.0674640692855846	0.445	1.0	stim	s556
492.982	2.25	n/a	-1.0	n/a	columbia_card_task_fmri	n/a	n/a	-1.0	n/a	n/a	n/a	n/a	n/a	n/a	n/a	n/a	feedback	s556
495.232	0.204	n/a	-1.0	n/a	columbia_card_task_fmri	n/a	n/a	-1.0	n/a	n/a	n/a	n/a	n/a	n/a	n/a	n/a	ITI	s556
495.441	0.364	0.5860678121942655	draw_card	0.0	columbia_card_task_fmri	15.0	0.8125	89.0	-75.0	0.1875	16.0	1.0	3.0	1.6534195286302165	0.364	n/a	stim	s556
495.81	0.235	-0.5389321878057345	draw_card	0.0	columbia_card_task_fmri	15.0	0.8	89.0	-75.0	0.2	16.0	2.0	3.0	2.523225311531718	0.235	n/a	stim	s556
496.049	0.215	-1.8246464735200192	draw_card	0.0	columbia_card_task_fmri	15.0	0.7857142857142857	89.0	-75.0	0.2142857142857142	16.0	3.0	3.0	3.4504468528749683	0.215	n/a	stim	s556
496.269	0.268	-3.308162957036508	draw_card	0.0	columbia_card_task_fmri	15.0	0.7692307692307692	89.0	-75.0	0.2307692307692307	16.0	4.0	3.0	4.438235601571783	0.268	n/a	stim	s556
496.542	0.283	-5.038932187805735	draw_card	0.0	columbia_card_task_fmri	15.0	0.75	89.0	-75.0	0.25	16.0	5.0	3.0	5.487975716738816	0.283	n/a	stim	s556
496.83	0.313	-7.084386733260278	draw_card	0.0	columbia_card_task_fmri	15.0	0.7272727272727273	89.0	-75.0	0.2727272727272727	16.0	6.0	3.0	6.597243479258324	0.313	n/a	stim	s556
497.15	0.26	-9.538932187805734	draw_card	0.0	columbia_card_task_fmri	15.0	0.7	89.0	-75.0	0.3	16.0	7.0	3.0	7.755744951508738	0.26	n/a	stim	s556
497.415	0.251	-12.538932187805733	draw_card	0.0	columbia_card_task_fmri	15.0	0.6666666666666667	89.0	-75.0	0.3333333333333333	16.0	8.0	3.0	8.936928029196551	0.251	n/a	stim	s556
497.671	0.252	-16.288932187805734	draw_card	1.0	columbia_card_task_fmri	15.0	0.625	89.0	-75.0	0.375	16.0	9.0	3.0	10.079713156095876	0.252	9.0	stim	s556
497.929	2.25	n/a	-1.0	n/a	columbia_card_task_fmri	n/a	n/a	-1.0	n/a	n/a	n/a	n/a	n/a	n/a	n/a	n/a	feedback	s556
500.179	1.02	n/a	-1.0	n/a	columbia_card_task_fmri	n/a	n/a	-1.0	n/a	n/a	n/a	n/a	n/a	n/a	n/a	n/a	ITI	s556
501.205	0.618	1.1485678121942655	draw_card	1.0	columbia_card_task_fmri	14.0	0.6875	89.0	-35.0	0.3125	16.0	1.0	5.0	-10.715741098907838	0.618	1.0	stim	s556
501.829	2.25	n/a	-1.0	n/a	columbia_card_task_fmri	n/a	n/a	-1.0	n/a	n/a	n/a	n/a	n/a	n/a	n/a	n/a	feedback	s556
504.079	0.0	n/a	-1.0	n/a	columbia_card_task_fmri	n/a	n/a	-1.0	n/a	n/a	n/a	n/a	n/a	n/a	n/a	n/a	ITI	s556
504.085	0.525	6.327734478860933	draw_card	0.0	columbia_card_task_fmri	16.0	0.8666666666666667	89.0	-75.0	0.1333333333333333	15.0	1.0	2.0	-2.529002850439497	0.525	n/a	stim	s556
504.615	0.348	5.461067812194267	draw_card	1.0	columbia_card_task_fmri	16.0	0.8571428571428572	89.0	-75.0	0.1428571428571428	15.0	2.0	2.0	-1.622470684316948	0.348	2.0	stim	s556
504.971	2.25	n/a	-1.0	n/a	columbia_card_task_fmri	n/a	n/a	-1.0	n/a	n/a	n/a	n/a	n/a	n/a	n/a	n/a	feedback	s556
507.221	0.0	n/a	-1.0	n/a	columbia_card_task_fmri	n/a	n/a	-1.0	n/a	n/a	n/a	n/a	n/a	n/a	n/a	n/a	ITI	s556
507.227	0.359	6.994401145527599	draw_card	0.0	columbia_card_task_fmri	16.0	0.8666666666666667	89.0	-70.0	0.1333333333333333	15.0	1.0	2.0	-4.223012654075738	0.359	n/a	stim	s556
507.593	0.232	6.175353526479981	draw_card	0.0	columbia_card_task_fmri	16.0	0.8571428571428572	89.0	-70.0	0.1428571428571428	15.0	2.0	2.0	-3.3666030212865543	0.232	n/a	stim	s556
507.831	0.244	5.230298581425034	draw_card	1.0	columbia_card_task_fmri	16.0	0.8461538461538461	89.0	-70.0	0.1538461538461538	15.0	3.0	2.0	-2.43444816980108	0.244	3.0	stim	s556
508.082	2.25	n/a	-1.0	n/a	columbia_card_task_fmri	n/a	n/a	-1.0	n/a	n/a	n/a	n/a	n/a	n/a	n/a	n/a	feedback	s556
510.332	0.068	n/a	-1.0	n/a	columbia_card_task_fmri	n/a	n/a	-1.0	n/a	n/a	n/a	n/a	n/a	n/a	n/a	n/a	ITI	s556
510.405	1.077	4.3360678121942655	draw_card	0.0	columbia_card_task_fmri	8.0	0.9375	89.0	-90.0	0.0625	16.0	1.0	1.0	-9.711455182561608	1.077	n/a	stim	s556
511.487	0.249	3.927734478860932	draw_card	0.0	columbia_card_task_fmri	8.0	0.9333333333333332	89.0	-90.0	0.0666666666666666	16.0	2.0	1.0	-8.991732130015098	0.249	n/a	stim	s556
511.741	0.241	3.4610678121942664	draw_card	0.0	columbia_card_task_fmri	8.0	0.9285714285714286	89.0	-90.0	0.0714285714285714	16.0	3.0	1.0	-8.202233905122064	0.241	n/a	stim	s556
511.987	0.275	2.922606273732727	draw_card	0.0	columbia_card_task_fmri	8.0	0.9230769230769232	89.0	-90.0	0.0769230769230769	16.0	4.0	1.0	-7.331089680128098	0.275	n/a	stim	s556
512.267	0.296	2.2944011455275986	draw_card	0.0	columbia_card_task_fmri	8.0	0.9166666666666666	89.0	-90.0	0.0833333333333333	16.0	5.0	1.0	-6.363451513442001	0.296	n/a	stim	s556
512.568	0.301	1.5519769031033563	draw_card	1.0	columbia_card_task_fmri	8.0	0.9090909090909092	89.0	-90.0	0.0909090909090909	16.0	6.0	1.0	-5.280490862502866	0.301	6.0	stim	s556
512.876	2.25	n/a	-1.0	n/a	columbia_card_task_fmri	n/a	n/a	-1.0	n/a	n/a	n/a	n/a	n/a	n/a	n/a	n/a	feedback	s556
515.126	0.476	n/a	-1.0	n/a	columbia_card_task_fmri	n/a	n/a	-1.0	n/a	n/a	n/a	n/a	n/a	n/a	n/a	n/a	ITI	s556
515.606	0.395	5.8985678121942655	draw_card	0.0	columbia_card_task_fmri	10.0	0.9375	89.0	-95.0	0.0625	16.0	1.0	1.0	-8.025472152584396	0.395	n/a	stim	s556
516.007	0.306	5.461067812194266	draw_card	0.0	columbia_card_task_fmri	10.0	0.9333333333333332	89.0	-95.0	0.0666666666666666	16.0	2.0	1.0	-7.2538261124206365	0.306	n/a	stim	s556
516.318	0.229	4.961067812194266	draw_card	0.0	columbia_card_task_fmri	10.0	0.9285714285714286	89.0	-95.0	0.0714285714285714	16.0	3.0	1.0	-6.407404709974173	0.229	n/a	stim	s556
516.551	0.274	4.384144735271189	draw_card	0.0	columbia_card_task_fmri	10.0	0.9230769230769232	89.0	-95.0	0.0769230769230769	16.0	4.0	1.0	-5.473487683135826	0.274	n/a	stim	s556
516.831	0.276	3.7110678121942655	draw_card	0.0	columbia_card_task_fmri	10.0	0.9166666666666666	89.0	-95.0	0.0833333333333333	16.0	5.0	1.0	-4.436164769650159	0.276	n/a	stim	s556
517.111	0.378	2.9156132667397188	draw_card	1.0	columbia_card_task_fmri	10.0	0.9090909090909092	89.0	-95.0	0.0909090909090909	16.0	6.0	1.0	-3.275260496927654	0.378	6.0	stim	s556
517.495	2.25	n/a	-1.0	n/a	columbia_card_task_fmri	n/a	n/a	-1.0	n/a	n/a	n/a	n/a	n/a	n/a	n/a	n/a	feedback	s556
519.745	0.136	n/a	-1.0	n/a	columbia_card_task_fmri	n/a	n/a	-1.0	n/a	n/a	n/a	n/a	n/a	n/a	n/a	n/a	ITI	s556
519.886	0.367	6.8360678121942655	draw_card	0.0	columbia_card_task_fmri	15.0	0.875	89.0	-70.0	0.125	16.0	1.0	2.0	-5.342166943095176	0.367	n/a	stim	s556
520.258	0.285	6.127734478860932	draw_card	1.0	columbia_card_task_fmri	15.0	0.8666666666666667	89.0	-70.0	0.1333333333333333	16.0	2.0	2.0	-4.561735082442592	0.285	2.0	stim	s556
520.55	2.25	n/a	-1.0	n/a	columbia_card_task_fmri	n/a	n/a	-1.0	n/a	n/a	n/a	n/a	n/a	n/a	n/a	n/a	feedback	s556
522.8	0.068	n/a	-1.0	n/a	columbia_card_task_fmri	n/a	n/a	-1.0	n/a	n/a	n/a	n/a	n/a	n/a	n/a	n/a	ITI	s556
522.873	0.516	5.8360678121942655	draw_card	0.0	columbia_card_task_fmri	16.0	0.875	89.0	-85.0	0.125	16.0	1.0	2.0	-0.06764763000794	0.516	n/a	stim	s556
523.395	0.283	4.994401145527599	draw_card	0.0	columbia_card_task_fmri	16.0	0.8666666666666667	89.0	-85.0	0.1333333333333333	16.0	2.0	2.0	0.8606918854441261	0.283	n/a	stim	s556
523.685	0.261	4.032496383622839	draw_card	0.0	columbia_card_task_fmri	16.0	0.8571428571428572	89.0	-85.0	0.1428571428571428	16.0	3.0	2.0	1.8674221257629	0.261	n/a	stim	s556
523.951	1.789	2.9226062737327254	end_round	0.0	columbia_card_task_fmri	16.0	0.8461538461538461	71.0	-85.0	0.1538461538461538	16.0	4.0	2.0	2.963133405725195	1.789	3.0	stim	s556
525.747	2.25	n/a	-1.0	n/a	columbia_card_task_fmri	n/a	n/a	-1.0	n/a	n/a	n/a	n/a	n/a	n/a	n/a	n/a	feedback	s556
527.997	0.0	n/a	-1.0	n/a	columbia_card_task_fmri	n/a	n/a	-1.0	n/a	n/a	n/a	n/a	n/a	n/a	n/a	n/a	ITI	s556
