onset	duration	planning	condition	current_position	exp_stage	experiment_exp_id	goal_state	key_press	problem_id	response_time	start_state	trial_id	worker_id
-78.379	0.0	0	n/a	n/a	n/a	ward_and_allport	n/a	32.0	n/a	25.76	n/a	instructions	s556
3.009	4.312	1	UA_with_intermediate	1,0,0,2,0,0,0,0,0	practice	ward_and_allport	1,2,3,0,0,0,0,0,0	71.0	0.0	4.312	1,0,0,2,3,0,0,0,0	to_hand	s556
7.322	2.226	0	UA_with_intermediate	1,0,0,2,0,0,3,0,0	practice	ward_and_allport	1,2,3,0,0,0,0,0,0	82.0	0.0	2.226	1,0,0,2,3,0,0,0,0	to_board	s556
9.55	1.065	0	UA_with_intermediate	1,0,0,0,0,0,3,0,0	practice	ward_and_allport	1,2,3,0,0,0,0,0,0	71.0	0.0	1.065	1,0,0,2,3,0,0,0,0	to_hand	s556
10.617	1.515	0	UA_with_intermediate	1,2,0,0,0,0,3,0,0	practice	ward_and_allport	1,2,3,0,0,0,0,0,0	89.0	0.0	1.515	1,0,0,2,3,0,0,0,0	to_board	s556
12.133	0.809	0	UA_with_intermediate	1,2,0,0,0,0,0,0,0	practice	ward_and_allport	1,2,3,0,0,0,0,0,0	82.0	0.0	0.809	1,0,0,2,3,0,0,0,0	to_hand	s556
12.943	1.076	0	UA_with_intermediate	1,2,3,0,0,0,0,0,0	practice	ward_and_allport	1,2,3,0,0,0,0,0,0	89.0	0.0	1.076	1,0,0,2,3,0,0,0,0	to_board	s556
14.023	1.0	0	UA_with_intermediate	n/a	practice	ward_and_allport	n/a	-1.0	0.0	n/a	n/a	feedback	s556
16.525	4.071	1	UA_with_intermediate	1,0,0,3,0,0,0,0,0	practice	ward_and_allport	1,3,2,0,0,0,0,0,0	89.0	1.0	4.071	1,2,0,3,0,0,0,0,0	to_hand	s556
20.597	0.721	0	UA_with_intermediate	1,0,0,3,0,0,2,0,0	practice	ward_and_allport	1,3,2,0,0,0,0,0,0	82.0	1.0	0.721	1,2,0,3,0,0,0,0,0	to_board	s556
21.32	0.837	0	UA_with_intermediate	1,0,0,0,0,0,2,0,0	practice	ward_and_allport	1,3,2,0,0,0,0,0,0	71.0	1.0	0.837	1,2,0,3,0,0,0,0,0	to_hand	s556
22.158	0.431	0	UA_with_intermediate	1,3,0,0,0,0,2,0,0	practice	ward_and_allport	1,3,2,0,0,0,0,0,0	89.0	1.0	0.431	1,2,0,3,0,0,0,0,0	to_board	s556
22.59	0.911	0	UA_with_intermediate	1,3,0,0,0,0,0,0,0	practice	ward_and_allport	1,3,2,0,0,0,0,0,0	82.0	1.0	0.911	1,2,0,3,0,0,0,0,0	to_hand	s556
23.502	0.222	0	UA_with_intermediate	1,3,2,0,0,0,0,0,0	practice	ward_and_allport	1,3,2,0,0,0,0,0,0	89.0	1.0	0.222	1,2,0,3,0,0,0,0,0	to_board	s556
23.725	1.0	0	UA_with_intermediate	n/a	practice	ward_and_allport	n/a	-1.0	1.0	n/a	n/a	feedback	s556
24.725	1.1	0	UA_with_intermediate	n/a	practice	ward_and_allport	n/a	-1.0	1.0	n/a	n/a	ITI	s556
25.826	3.706	1	UA_without_intermediate	0,0,0,1,2,0,0,0,0	practice	ward_and_allport	3,2,1,0,0,0,0,0,0	82.0	2.0	3.706	0,0,0,1,2,0,3,0,0	to_hand	s556
29.533	0.5	0	UA_without_intermediate	3,0,0,1,2,0,0,0,0	practice	ward_and_allport	3,2,1,0,0,0,0,0,0	89.0	2.0	0.5	0,0,0,1,2,0,3,0,0	to_board	s556
30.035	1.69	0	UA_without_intermediate	3,0,0,1,0,0,0,0,0	practice	ward_and_allport	3,2,1,0,0,0,0,0,0	71.0	2.0	1.69	0,0,0,1,2,0,3,0,0	to_hand	s556
31.726	0.517	0	UA_without_intermediate	3,0,0,1,0,0,2,0,0	practice	ward_and_allport	3,2,1,0,0,0,0,0,0	82.0	2.0	0.517	0,0,0,1,2,0,3,0,0	to_board	s556
32.245	0.743	0	UA_without_intermediate	3,0,0,0,0,0,2,0,0	practice	ward_and_allport	3,2,1,0,0,0,0,0,0	71.0	2.0	0.743	0,0,0,1,2,0,3,0,0	to_hand	s556
32.988	1.719	0	UA_without_intermediate	3,0,0,1,0,0,2,0,0	practice	ward_and_allport	3,2,1,0,0,0,0,0,0	71.0	2.0	1.719	0,0,0,1,2,0,3,0,0	to_board	s556
34.71	1.037	0	UA_without_intermediate	3,0,0,1,0,0,0,0,0	practice	ward_and_allport	3,2,1,0,0,0,0,0,0	82.0	2.0	1.037	0,0,0,1,2,0,3,0,0	to_hand	s556
35.749	0.229	0	UA_without_intermediate	3,2,0,1,0,0,0,0,0	practice	ward_and_allport	3,2,1,0,0,0,0,0,0	89.0	2.0	0.229	0,0,0,1,2,0,3,0,0	to_board	s556
35.98	0.603	0	UA_without_intermediate	3,2,0,0,0,0,0,0,0	practice	ward_and_allport	3,2,1,0,0,0,0,0,0	71.0	2.0	0.603	0,0,0,1,2,0,3,0,0	to_hand	s556
36.585	0.326	0	UA_without_intermediate	3,2,1,0,0,0,0,0,0	practice	ward_and_allport	3,2,1,0,0,0,0,0,0	89.0	2.0	0.326	0,0,0,1,2,0,3,0,0	to_board	s556
36.918	1.0	0	UA_without_intermediate	n/a	practice	ward_and_allport	n/a	-1.0	2.0	n/a	n/a	feedback	s556
37.918	1.2	0	UA_without_intermediate	n/a	practice	ward_and_allport	n/a	-1.0	2.0	n/a	n/a	ITI	s556
39.12	3.492	1	UA_without_intermediate	0,0,0,1,0,0,3,0,0	practice	ward_and_allport	2,3,1,0,0,0,0,0,0	71.0	3.0	3.492	0,0,0,1,2,0,3,0,0	to_hand	s556
42.613	1.448	0	UA_without_intermediate	2,0,0,1,0,0,3,0,0	practice	ward_and_allport	2,3,1,0,0,0,0,0,0	89.0	3.0	1.448	0,0,0,1,2,0,3,0,0	to_board	s556
44.063	0.453	0	UA_without_intermediate	2,0,0,1,0,0,0,0,0	practice	ward_and_allport	2,3,1,0,0,0,0,0,0	82.0	3.0	0.453	0,0,0,1,2,0,3,0,0	to_hand	s556
44.517	0.4	0	UA_without_intermediate	2,3,0,1,0,0,0,0,0	practice	ward_and_allport	2,3,1,0,0,0,0,0,0	89.0	3.0	0.4	0,0,0,1,2,0,3,0,0	to_board	s556
44.92	0.388	0	UA_without_intermediate	2,3,0,0,0,0,0,0,0	practice	ward_and_allport	2,3,1,0,0,0,0,0,0	71.0	3.0	0.388	0,0,0,1,2,0,3,0,0	to_hand	s556
45.309	0.333	0	UA_without_intermediate	2,3,1,0,0,0,0,0,0	practice	ward_and_allport	2,3,1,0,0,0,0,0,0	89.0	3.0	0.333	0,0,0,1,2,0,3,0,0	to_board	s556
45.644	1.0	0	UA_without_intermediate	n/a	practice	ward_and_allport	n/a	-1.0	3.0	n/a	n/a	feedback	s556
46.644	1.0	0	UA_without_intermediate	n/a	practice	ward_and_allport	n/a	-1.0	3.0	n/a	n/a	ITI	s556
49.649	5.974	1	PA_with_intermediate	0,0,0,1,2,0,0,0,0	test	ward_and_allport	2,0,0,1,3,0,0,0,0	71.0	0.0	5.974	0,0,0,1,2,3,0,0,0	to_hand	s556
55.625	0.65	0	PA_with_intermediate	0,0,0,1,2,0,3,0,0	test	ward_and_allport	2,0,0,1,3,0,0,0,0	82.0	0.0	0.65	0,0,0,1,2,3,0,0,0	to_board	s556
56.276	2.617	0	PA_with_intermediate	0,0,0,1,0,0,3,0,0	test	ward_and_allport	2,0,0,1,3,0,0,0,0	71.0	0.0	2.617	0,0,0,1,2,3,0,0,0	to_hand	s556
58.895	0.854	0	PA_with_intermediate	2,0,0,1,0,0,3,0,0	test	ward_and_allport	2,0,0,1,3,0,0,0,0	89.0	0.0	0.854	0,0,0,1,2,3,0,0,0	to_board	s556
59.751	0.472	0	PA_with_intermediate	2,0,0,1,0,0,0,0,0	test	ward_and_allport	2,0,0,1,3,0,0,0,0	82.0	0.0	0.472	0,0,0,1,2,3,0,0,0	to_hand	s556
60.224	0.641	0	PA_with_intermediate	2,0,0,1,3,0,0,0,0	test	ward_and_allport	2,0,0,1,3,0,0,0,0	71.0	0.0	0.641	0,0,0,1,2,3,0,0,0	to_board	s556
60.868	1.0	0	PA_with_intermediate	n/a	test	ward_and_allport	n/a	-1.0	0.0	n/a	n/a	feedback	s556
61.868	2.768	0	PA_with_intermediate	n/a	test	ward_and_allport	n/a	-1.0	0.0	n/a	n/a	ITI	s556
64.638	6.347	1	PA_with_intermediate	1,2,0,0,0,0,0,0,0	test	ward_and_allport	1,0,0,2,3,0,0,0,0	89.0	1.0	6.347	1,2,3,0,0,0,0,0,0	to_hand	s556
70.986	1.227	0	PA_with_intermediate	1,2,0,0,0,0,3,0,0	test	ward_and_allport	1,0,0,2,3,0,0,0,0	82.0	1.0	1.227	1,2,3,0,0,0,0,0,0	to_board	s556
72.215	1.161	0	PA_with_intermediate	1,0,0,0,0,0,3,0,0	test	ward_and_allport	1,0,0,2,3,0,0,0,0	89.0	1.0	1.161	1,2,3,0,0,0,0,0,0	to_hand	s556
73.377	0.994	0	PA_with_intermediate	1,0,0,2,0,0,3,0,0	test	ward_and_allport	1,0,0,2,3,0,0,0,0	71.0	1.0	0.994	1,2,3,0,0,0,0,0,0	to_board	s556
74.374	0.543	0	PA_with_intermediate	1,0,0,2,0,0,0,0,0	test	ward_and_allport	1,0,0,2,3,0,0,0,0	82.0	1.0	0.543	1,2,3,0,0,0,0,0,0	to_hand	s556
74.918	0.496	0	PA_with_intermediate	1,0,0,2,3,0,0,0,0	test	ward_and_allport	1,0,0,2,3,0,0,0,0	71.0	1.0	0.496	1,2,3,0,0,0,0,0,0	to_board	s556
75.418	1.0	0	PA_with_intermediate	n/a	test	ward_and_allport	n/a	-1.0	1.0	n/a	n/a	feedback	s556
76.418	1.68	0	PA_with_intermediate	n/a	test	ward_and_allport	n/a	-1.0	1.0	n/a	n/a	ITI	s556
78.101	5.997	1	PA_without_intermediate	1,2,0,0,0,0,0,0,0	test	ward_and_allport	0,0,0,3,1,0,2,0,0	89.0	2.0	5.997	1,2,3,0,0,0,0,0,0	to_hand	s556
84.099	1.166	0	PA_without_intermediate	1,2,0,3,0,0,0,0,0	test	ward_and_allport	0,0,0,3,1,0,2,0,0	71.0	2.0	1.166	1,2,3,0,0,0,0,0,0	to_board	s556
85.268	1.014	0	PA_without_intermediate	1,0,0,3,0,0,0,0,0	test	ward_and_allport	0,0,0,3,1,0,2,0,0	89.0	2.0	1.014	1,2,3,0,0,0,0,0,0	to_hand	s556
86.283	0.505	0	PA_without_intermediate	1,0,0,3,0,0,2,0,0	test	ward_and_allport	0,0,0,3,1,0,2,0,0	82.0	2.0	0.505	1,2,3,0,0,0,0,0,0	to_board	s556
86.79	0.839	0	PA_without_intermediate	0,0,0,3,0,0,2,0,0	test	ward_and_allport	0,0,0,3,1,0,2,0,0	89.0	2.0	0.839	1,2,3,0,0,0,0,0,0	to_hand	s556
87.63	0.442	0	PA_without_intermediate	0,0,0,3,1,0,2,0,0	test	ward_and_allport	0,0,0,3,1,0,2,0,0	71.0	2.0	0.442	1,2,3,0,0,0,0,0,0	to_board	s556
88.076	1.0	0	PA_without_intermediate	n/a	test	ward_and_allport	n/a	-1.0	2.0	n/a	n/a	feedback	s556
89.076	2.224	0	PA_without_intermediate	n/a	test	ward_and_allport	n/a	-1.0	2.0	n/a	n/a	ITI	s556
91.302	3.687	1	PA_without_intermediate	0,0,0,0,0,0,1,2,0	test	ward_and_allport	3,2,0,1,0,0,0,0,0	82.0	3.0	3.687	0,0,0,0,0,0,1,2,3	to_hand	s556
94.99	1.003	0	PA_without_intermediate	3,0,0,0,0,0,1,2,0	test	ward_and_allport	3,2,0,1,0,0,0,0,0	89.0	3.0	1.003	0,0,0,0,0,0,1,2,3	to_board	s556
95.995	2.431	0	PA_without_intermediate	3,0,0,0,0,0,1,0,0	test	ward_and_allport	3,2,0,1,0,0,0,0,0	82.0	3.0	2.431	0,0,0,0,0,0,1,2,3	to_hand	s556
98.427	0.779	0	PA_without_intermediate	3,2,0,0,0,0,1,0,0	test	ward_and_allport	3,2,0,1,0,0,0,0,0	89.0	3.0	0.779	0,0,0,0,0,0,1,2,3	to_board	s556
99.208	1.462	0	PA_without_intermediate	3,2,0,0,0,0,0,0,0	test	ward_and_allport	3,2,0,1,0,0,0,0,0	82.0	3.0	1.462	0,0,0,0,0,0,1,2,3	to_hand	s556
100.671	0.661	0	PA_without_intermediate	3,2,0,1,0,0,0,0,0	test	ward_and_allport	3,2,0,1,0,0,0,0,0	71.0	3.0	0.661	0,0,0,0,0,0,1,2,3	to_board	s556
101.335	1.0	0	PA_without_intermediate	n/a	test	ward_and_allport	n/a	-1.0	3.0	n/a	n/a	feedback	s556
102.335	2.36	0	PA_without_intermediate	n/a	test	ward_and_allport	n/a	-1.0	3.0	n/a	n/a	ITI	s556
104.699	3.233	1	PA_without_intermediate	1,2,0,0,0,0,0,0,0	test	ward_and_allport	0,0,0,3,1,0,2,0,0	89.0	4.0	3.233	1,2,3,0,0,0,0,0,0	to_hand	s556
107.932	0.357	0	PA_without_intermediate	1,2,0,3,0,0,0,0,0	test	ward_and_allport	0,0,0,3,1,0,2,0,0	71.0	4.0	0.357	1,2,3,0,0,0,0,0,0	to_board	s556
108.292	1.406	0	PA_without_intermediate	1,0,0,3,0,0,0,0,0	test	ward_and_allport	0,0,0,3,1,0,2,0,0	89.0	4.0	1.406	1,2,3,0,0,0,0,0,0	to_hand	s556
109.699	0.321	0	PA_without_intermediate	1,0,0,3,0,0,2,0,0	test	ward_and_allport	0,0,0,3,1,0,2,0,0	82.0	4.0	0.321	1,2,3,0,0,0,0,0,0	to_board	s556
110.022	0.801	0	PA_without_intermediate	0,0,0,3,0,0,2,0,0	test	ward_and_allport	0,0,0,3,1,0,2,0,0	89.0	4.0	0.801	1,2,3,0,0,0,0,0,0	to_hand	s556
110.824	0.322	0	PA_without_intermediate	0,0,0,3,1,0,2,0,0	test	ward_and_allport	0,0,0,3,1,0,2,0,0	71.0	4.0	0.322	1,2,3,0,0,0,0,0,0	to_board	s556
111.15	1.0	0	PA_without_intermediate	n/a	test	ward_and_allport	n/a	-1.0	4.0	n/a	n/a	feedback	s556
112.15	1.0	0	PA_without_intermediate	n/a	test	ward_and_allport	n/a	-1.0	4.0	n/a	n/a	ITI	s556
113.154	3.353	1	PA_without_intermediate	0,0,0,0,0,0,1,2,0	test	ward_and_allport	3,1,0,2,0,0,0,0,0	82.0	5.0	3.353	0,0,0,0,0,0,1,2,3	to_hand	s556
116.508	0.334	0	PA_without_intermediate	3,0,0,0,0,0,1,2,0	test	ward_and_allport	3,1,0,2,0,0,0,0,0	89.0	5.0	0.334	0,0,0,0,0,0,1,2,3	to_board	s556
116.845	2.461	0	PA_without_intermediate	3,0,0,0,0,0,1,0,0	test	ward_and_allport	3,1,0,2,0,0,0,0,0	82.0	5.0	2.461	0,0,0,0,0,0,1,2,3	to_hand	s556
119.307	1.108	0	PA_without_intermediate	3,0,0,2,0,0,1,0,0	test	ward_and_allport	3,1,0,2,0,0,0,0,0	71.0	5.0	1.108	0,0,0,0,0,0,1,2,3	to_board	s556
120.417	0.557	0	PA_without_intermediate	3,0,0,2,0,0,0,0,0	test	ward_and_allport	3,1,0,2,0,0,0,0,0	82.0	5.0	0.557	0,0,0,0,0,0,1,2,3	to_hand	s556
120.975	0.535	0	PA_without_intermediate	3,1,0,2,0,0,0,0,0	test	ward_and_allport	3,1,0,2,0,0,0,0,0	89.0	5.0	0.535	0,0,0,0,0,0,1,2,3	to_board	s556
121.514	1.0	0	PA_without_intermediate	n/a	test	ward_and_allport	n/a	-1.0	5.0	n/a	n/a	feedback	s556
122.514	1.408	0	PA_without_intermediate	n/a	test	ward_and_allport	n/a	-1.0	5.0	n/a	n/a	ITI	s556
123.925	4.108	1	PA_with_intermediate	1,2,0,0,0,0,0,0,0	test	ward_and_allport	1,0,0,0,0,0,2,3,0	89.0	6.0	4.108	1,2,3,0,0,0,0,0,0	to_hand	s556
128.033	0.814	0	PA_with_intermediate	1,2,0,3,0,0,0,0,0	test	ward_and_allport	1,0,0,0,0,0,2,3,0	71.0	6.0	0.814	1,2,3,0,0,0,0,0,0	to_board	s556
128.85	0.973	0	PA_with_intermediate	1,0,0,3,0,0,0,0,0	test	ward_and_allport	1,0,0,0,0,0,2,3,0	89.0	6.0	0.973	1,2,3,0,0,0,0,0,0	to_hand	s556
129.824	0.698	0	PA_with_intermediate	1,0,0,3,0,0,2,0,0	test	ward_and_allport	1,0,0,0,0,0,2,3,0	82.0	6.0	0.698	1,2,3,0,0,0,0,0,0	to_board	s556
130.526	0.824	0	PA_with_intermediate	1,0,0,0,0,0,2,0,0	test	ward_and_allport	1,0,0,0,0,0,2,3,0	71.0	6.0	0.824	1,2,3,0,0,0,0,0,0	to_hand	s556
131.35	1.123	0	PA_with_intermediate	1,0,0,0,0,0,2,3,0	test	ward_and_allport	1,0,0,0,0,0,2,3,0	82.0	6.0	1.123	1,2,3,0,0,0,0,0,0	to_board	s556
132.477	1.0	0	PA_with_intermediate	n/a	test	ward_and_allport	n/a	-1.0	6.0	n/a	n/a	feedback	s556
133.477	1.136	0	PA_with_intermediate	n/a	test	ward_and_allport	n/a	-1.0	6.0	n/a	n/a	ITI	s556
134.617	3.426	1	PA_without_intermediate	1,2,0,0,0,0,0,0,0	test	ward_and_allport	0,0,0,3,2,0,1,0,0	89.0	7.0	3.426	1,2,3,0,0,0,0,0,0	to_hand	s556
138.044	0.432	0	PA_without_intermediate	1,2,0,3,0,0,0,0,0	test	ward_and_allport	0,0,0,3,2,0,1,0,0	71.0	7.0	0.432	1,2,3,0,0,0,0,0,0	to_board	s556
138.48	2.067	0	PA_without_intermediate	1,0,0,3,0,0,0,0,0	test	ward_and_allport	0,0,0,3,2,0,1,0,0	89.0	7.0	2.067	1,2,3,0,0,0,0,0,0	to_hand	s556
140.547	0.432	0	PA_without_intermediate	1,0,0,3,2,0,0,0,0	test	ward_and_allport	0,0,0,3,2,0,1,0,0	71.0	7.0	0.432	1,2,3,0,0,0,0,0,0	to_board	s556
140.982	0.962	0	PA_without_intermediate	0,0,0,3,2,0,0,0,0	test	ward_and_allport	0,0,0,3,2,0,1,0,0	89.0	7.0	0.962	1,2,3,0,0,0,0,0,0	to_hand	s556
141.946	0.507	0	PA_without_intermediate	0,0,0,3,2,0,1,0,0	test	ward_and_allport	0,0,0,3,2,0,1,0,0	82.0	7.0	0.507	1,2,3,0,0,0,0,0,0	to_board	s556
142.457	1.0	0	PA_without_intermediate	n/a	test	ward_and_allport	n/a	-1.0	7.0	n/a	n/a	feedback	s556
143.457	4.128	0	PA_without_intermediate	n/a	test	ward_and_allport	n/a	-1.0	7.0	n/a	n/a	ITI	s556
147.589	3.394	1	PA_without_intermediate	0,0,0,0,0,0,1,2,0	test	ward_and_allport	2,0,0,3,1,0,0,0,0	82.0	8.0	3.394	0,0,0,0,0,0,1,2,3	to_hand	s556
150.984	2.619	0	PA_without_intermediate	0,0,0,3,0,0,1,2,0	test	ward_and_allport	2,0,0,3,1,0,0,0,0	71.0	8.0	2.619	0,0,0,0,0,0,1,2,3	to_board	s556
153.607	0.762	0	PA_without_intermediate	0,0,0,3,0,0,1,0,0	test	ward_and_allport	2,0,0,3,1,0,0,0,0	82.0	8.0	0.762	0,0,0,0,0,0,1,2,3	to_hand	s556
154.37	1.165	0	PA_without_intermediate	2,0,0,3,0,0,1,0,0	test	ward_and_allport	2,0,0,3,1,0,0,0,0	89.0	8.0	1.165	0,0,0,0,0,0,1,2,3	to_board	s556
155.537	1.176	0	PA_without_intermediate	2,0,0,3,0,0,0,0,0	test	ward_and_allport	2,0,0,3,1,0,0,0,0	82.0	8.0	1.176	0,0,0,0,0,0,1,2,3	to_hand	s556
156.715	0.749	0	PA_without_intermediate	2,0,0,3,1,0,0,0,0	test	ward_and_allport	2,0,0,3,1,0,0,0,0	71.0	8.0	0.749	0,0,0,0,0,0,1,2,3	to_board	s556
157.468	1.0	0	PA_without_intermediate	n/a	test	ward_and_allport	n/a	-1.0	8.0	n/a	n/a	feedback	s556
158.468	1.136	0	PA_without_intermediate	n/a	test	ward_and_allport	n/a	-1.0	8.0	n/a	n/a	ITI	s556
159.608	3.7	1	PA_without_intermediate	1,2,0,0,0,0,0,0,0	test	ward_and_allport	0,0,0,2,0,0,3,1,0	89.0	9.0	3.7	1,2,3,0,0,0,0,0,0	to_hand	s556
163.309	0.638	0	PA_without_intermediate	1,2,0,0,0,0,3,0,0	test	ward_and_allport	0,0,0,2,0,0,3,1,0	82.0	9.0	0.638	1,2,3,0,0,0,0,0,0	to_board	s556
163.949	1.816	0	PA_without_intermediate	1,0,0,0,0,0,3,0,0	test	ward_and_allport	0,0,0,2,0,0,3,1,0	89.0	9.0	1.816	1,2,3,0,0,0,0,0,0	to_hand	s556
165.767	0.545	0	PA_without_intermediate	1,0,0,2,0,0,3,0,0	test	ward_and_allport	0,0,0,2,0,0,3,1,0	71.0	9.0	0.545	1,2,3,0,0,0,0,0,0	to_board	s556
166.317	0.469	0	PA_without_intermediate	0,0,0,2,0,0,3,0,0	test	ward_and_allport	0,0,0,2,0,0,3,1,0	89.0	9.0	0.469	1,2,3,0,0,0,0,0,0	to_hand	s556
166.786	0.456	0	PA_without_intermediate	0,0,0,2,0,0,3,1,0	test	ward_and_allport	0,0,0,2,0,0,3,1,0	82.0	9.0	0.456	1,2,3,0,0,0,0,0,0	to_board	s556
167.248	1.0	0	PA_without_intermediate	n/a	test	ward_and_allport	n/a	-1.0	9.0	n/a	n/a	feedback	s556
168.248	4.264	0	PA_without_intermediate	n/a	test	ward_and_allport	n/a	-1.0	9.0	n/a	n/a	ITI	s556
172.516	4.368	1	PA_with_intermediate	0,0,0,1,2,0,0,0,0	test	ward_and_allport	2,3,0,1,0,0,0,0,0	71.0	10.0	4.368	0,0,0,1,2,3,0,0,0	to_hand	s556
176.885	0.463	0	PA_with_intermediate	0,0,0,1,2,0,3,0,0	test	ward_and_allport	2,3,0,1,0,0,0,0,0	82.0	10.0	0.463	0,0,0,1,2,3,0,0,0	to_board	s556
177.352	0.797	0	PA_with_intermediate	0,0,0,1,0,0,3,0,0	test	ward_and_allport	2,3,0,1,0,0,0,0,0	71.0	10.0	0.797	0,0,0,1,2,3,0,0,0	to_hand	s556
178.149	0.419	0	PA_with_intermediate	2,0,0,1,0,0,3,0,0	test	ward_and_allport	2,3,0,1,0,0,0,0,0	89.0	10.0	0.419	0,0,0,1,2,3,0,0,0	to_board	s556
178.572	0.783	0	PA_with_intermediate	2,0,0,1,0,0,0,0,0	test	ward_and_allport	2,3,0,1,0,0,0,0,0	82.0	10.0	0.783	0,0,0,1,2,3,0,0,0	to_hand	s556
179.356	0.398	0	PA_with_intermediate	2,3,0,1,0,0,0,0,0	test	ward_and_allport	2,3,0,1,0,0,0,0,0	89.0	10.0	0.398	0,0,0,1,2,3,0,0,0	to_board	s556
179.759	1.0	0	PA_with_intermediate	n/a	test	ward_and_allport	n/a	-1.0	10.0	n/a	n/a	feedback	s556
180.759	3.04	0	PA_with_intermediate	n/a	test	ward_and_allport	n/a	-1.0	10.0	n/a	n/a	ITI	s556
183.804	4.016	1	PA_with_intermediate	0,0,0,0,0,0,1,2,0	test	ward_and_allport	0,0,0,2,0,0,1,3,0	82.0	11.0	4.016	0,0,0,0,0,0,1,2,3	to_hand	s556
187.821	2.255	0	PA_with_intermediate	3,0,0,0,0,0,1,2,0	test	ward_and_allport	0,0,0,2,0,0,1,3,0	89.0	11.0	2.255	0,0,0,0,0,0,1,2,3	to_board	s556
190.081	1.458	0	PA_with_intermediate	3,0,0,0,0,0,1,0,0	test	ward_and_allport	0,0,0,2,0,0,1,3,0	82.0	11.0	1.458	0,0,0,0,0,0,1,2,3	to_hand	s556
191.54	1.279	0	PA_with_intermediate	3,0,0,2,0,0,1,0,0	test	ward_and_allport	0,0,0,2,0,0,1,3,0	71.0	11.0	1.279	0,0,0,0,0,0,1,2,3	to_board	s556
192.823	0.881	0	PA_with_intermediate	0,0,0,2,0,0,1,0,0	test	ward_and_allport	0,0,0,2,0,0,1,3,0	89.0	11.0	0.881	0,0,0,0,0,0,1,2,3	to_hand	s556
193.705	0.929	0	PA_with_intermediate	0,0,0,2,0,0,1,3,0	test	ward_and_allport	0,0,0,2,0,0,1,3,0	82.0	11.0	0.929	0,0,0,0,0,0,1,2,3	to_board	s556
194.639	1.0	0	PA_with_intermediate	n/a	test	ward_and_allport	n/a	-1.0	11.0	n/a	n/a	feedback	s556
195.639	1.136	0	PA_with_intermediate	n/a	test	ward_and_allport	n/a	-1.0	11.0	n/a	n/a	ITI	s556
196.78	4.984	1	PA_with_intermediate	0,0,0,1,2,0,0,0,0	test	ward_and_allport	2,0,0,1,3,0,0,0,0	71.0	12.0	4.984	0,0,0,1,2,3,0,0,0	to_hand	s556
201.764	0.332	0	PA_with_intermediate	0,0,0,1,2,0,3,0,0	test	ward_and_allport	2,0,0,1,3,0,0,0,0	82.0	12.0	0.332	0,0,0,1,2,3,0,0,0	to_board	s556
202.1	0.477	0	PA_with_intermediate	0,0,0,1,0,0,3,0,0	test	ward_and_allport	2,0,0,1,3,0,0,0,0	71.0	12.0	0.477	0,0,0,1,2,3,0,0,0	to_hand	s556
202.578	0.246	0	PA_with_intermediate	2,0,0,1,0,0,3,0,0	test	ward_and_allport	2,0,0,1,3,0,0,0,0	89.0	12.0	0.246	0,0,0,1,2,3,0,0,0	to_board	s556
202.829	1.262	0	PA_with_intermediate	2,0,0,0,0,0,3,0,0	test	ward_and_allport	2,0,0,1,3,0,0,0,0	71.0	12.0	1.262	0,0,0,1,2,3,0,0,0	to_hand	s556
204.091	1.027	0	PA_with_intermediate	2,0,0,1,0,0,3,0,0	test	ward_and_allport	2,0,0,1,3,0,0,0,0	71.0	12.0	1.027	0,0,0,1,2,3,0,0,0	to_board	s556
205.122	0.37	0	PA_with_intermediate	2,0,0,1,0,0,0,0,0	test	ward_and_allport	2,0,0,1,3,0,0,0,0	82.0	12.0	0.37	0,0,0,1,2,3,0,0,0	to_hand	s556
205.493	0.171	0	PA_with_intermediate	2,0,0,1,3,0,0,0,0	test	ward_and_allport	2,0,0,1,3,0,0,0,0	71.0	12.0	0.171	0,0,0,1,2,3,0,0,0	to_board	s556
205.67	1.0	0	PA_with_intermediate	n/a	test	ward_and_allport	n/a	-1.0	12.0	n/a	n/a	feedback	s556
206.67	1.408	0	PA_with_intermediate	n/a	test	ward_and_allport	n/a	-1.0	12.0	n/a	n/a	ITI	s556
208.082	3.589	1	PA_without_intermediate	1,2,0,0,0,0,0,0,0	test	ward_and_allport	0,0,0,3,2,0,1,0,0	89.0	13.0	3.589	1,2,3,0,0,0,0,0,0	to_hand	s556
211.672	0.212	0	PA_without_intermediate	1,2,0,3,0,0,0,0,0	test	ward_and_allport	0,0,0,3,2,0,1,0,0	71.0	13.0	0.212	1,2,3,0,0,0,0,0,0	to_board	s556
211.888	2.159	0	PA_without_intermediate	1,0,0,3,0,0,0,0,0	test	ward_and_allport	0,0,0,3,2,0,1,0,0	89.0	13.0	2.159	1,2,3,0,0,0,0,0,0	to_hand	s556
214.048	0.275	0	PA_without_intermediate	1,0,0,3,2,0,0,0,0	test	ward_and_allport	0,0,0,3,2,0,1,0,0	71.0	13.0	0.275	1,2,3,0,0,0,0,0,0	to_board	s556
214.328	0.933	0	PA_without_intermediate	0,0,0,3,2,0,0,0,0	test	ward_and_allport	0,0,0,3,2,0,1,0,0	89.0	13.0	0.933	1,2,3,0,0,0,0,0,0	to_hand	s556
215.261	0.337	0	PA_without_intermediate	0,0,0,3,2,0,1,0,0	test	ward_and_allport	0,0,0,3,2,0,1,0,0	82.0	13.0	0.337	1,2,3,0,0,0,0,0,0	to_board	s556
215.603	1.0	0	PA_without_intermediate	n/a	test	ward_and_allport	n/a	-1.0	13.0	n/a	n/a	feedback	s556
216.603	1.68	0	PA_without_intermediate	n/a	test	ward_and_allport	n/a	-1.0	13.0	n/a	n/a	ITI	s556
218.288	4.789	1	PA_with_intermediate	0,0,0,1,2,0,0,0,0	test	ward_and_allport	0,0,0,1,0,0,2,3,0	71.0	14.0	4.789	0,0,0,1,2,3,0,0,0	to_hand	s556
223.078	0.639	0	PA_with_intermediate	3,0,0,1,2,0,0,0,0	test	ward_and_allport	0,0,0,1,0,0,2,3,0	89.0	14.0	0.639	0,0,0,1,2,3,0,0,0	to_board	s556
223.722	0.38	0	PA_with_intermediate	3,0,0,1,0,0,0,0,0	test	ward_and_allport	0,0,0,1,0,0,2,3,0	71.0	14.0	0.38	0,0,0,1,2,3,0,0,0	to_hand	s556
224.103	0.39	0	PA_with_intermediate	3,0,0,1,0,0,2,0,0	test	ward_and_allport	0,0,0,1,0,0,2,3,0	82.0	14.0	0.39	0,0,0,1,2,3,0,0,0	to_board	s556
224.497	0.577	0	PA_with_intermediate	0,0,0,1,0,0,2,0,0	test	ward_and_allport	0,0,0,1,0,0,2,3,0	89.0	14.0	0.577	0,0,0,1,2,3,0,0,0	to_hand	s556
225.075	0.35	0	PA_with_intermediate	0,0,0,1,0,0,2,3,0	test	ward_and_allport	0,0,0,1,0,0,2,3,0	82.0	14.0	0.35	0,0,0,1,2,3,0,0,0	to_board	s556
225.43	1.0	0	PA_with_intermediate	n/a	test	ward_and_allport	n/a	-1.0	14.0	n/a	n/a	feedback	s556
226.43	3.72	0	PA_with_intermediate	n/a	test	ward_and_allport	n/a	-1.0	14.0	n/a	n/a	ITI	s556
235.157	2.644	1	PA_without_intermediate	0,0,0,0,0,0,1,2,0	test	ward_and_allport	2,0,0,3,1,0,0,0,0	82.0	15.0	2.644	0,0,0,0,0,0,1,2,3	to_hand	s556
237.802	0.497	0	PA_without_intermediate	0,0,0,3,0,0,1,2,0	test	ward_and_allport	2,0,0,3,1,0,0,0,0	71.0	15.0	0.497	0,0,0,0,0,0,1,2,3	to_board	s556
238.304	1.145	0	PA_without_intermediate	0,0,0,3,0,0,1,0,0	test	ward_and_allport	2,0,0,3,1,0,0,0,0	82.0	15.0	1.145	0,0,0,0,0,0,1,2,3	to_hand	s556
239.449	0.259	0	PA_without_intermediate	2,0,0,3,0,0,1,0,0	test	ward_and_allport	2,0,0,3,1,0,0,0,0	89.0	15.0	0.259	0,0,0,0,0,0,1,2,3	to_board	s556
239.712	0.738	0	PA_without_intermediate	2,0,0,3,0,0,0,0,0	test	ward_and_allport	2,0,0,3,1,0,0,0,0	82.0	15.0	0.738	0,0,0,0,0,0,1,2,3	to_hand	s556
240.451	0.411	0	PA_without_intermediate	2,0,0,3,1,0,0,0,0	test	ward_and_allport	2,0,0,3,1,0,0,0,0	71.0	15.0	0.411	0,0,0,0,0,0,1,2,3	to_board	s556
240.868	1.0	0	PA_without_intermediate	n/a	test	ward_and_allport	n/a	-1.0	15.0	n/a	n/a	feedback	s556
241.868	2.224	0	PA_without_intermediate	n/a	test	ward_and_allport	n/a	-1.0	15.0	n/a	n/a	ITI	s556
244.096	3.556	1	PA_without_intermediate	0,0,0,1,2,0,0,0,0	test	ward_and_allport	1,0,0,0,0,0,3,2,0	71.0	16.0	3.556	0,0,0,1,2,3,0,0,0	to_hand	s556
247.653	0.939	0	PA_without_intermediate	0,0,0,1,2,0,3,0,0	test	ward_and_allport	1,0,0,0,0,0,3,2,0	82.0	16.0	0.939	0,0,0,1,2,3,0,0,0	to_board	s556
248.598	0.338	0	PA_without_intermediate	0,0,0,1,0,0,3,0,0	test	ward_and_allport	1,0,0,0,0,0,3,2,0	71.0	16.0	0.338	0,0,0,1,2,3,0,0,0	to_hand	s556
248.936	0.311	0	PA_without_intermediate	0,0,0,1,0,0,3,2,0	test	ward_and_allport	1,0,0,0,0,0,3,2,0	82.0	16.0	0.311	0,0,0,1,2,3,0,0,0	to_board	s556
249.252	0.563	0	PA_without_intermediate	0,0,0,0,0,0,3,2,0	test	ward_and_allport	1,0,0,0,0,0,3,2,0	71.0	16.0	0.563	0,0,0,1,2,3,0,0,0	to_hand	s556
249.816	0.272	0	PA_without_intermediate	1,0,0,0,0,0,3,2,0	test	ward_and_allport	1,0,0,0,0,0,3,2,0	89.0	16.0	0.272	0,0,0,1,2,3,0,0,0	to_board	s556
250.094	1.0	0	PA_without_intermediate	n/a	test	ward_and_allport	n/a	-1.0	16.0	n/a	n/a	feedback	s556
251.094	1.272	0	PA_without_intermediate	n/a	test	ward_and_allport	n/a	-1.0	16.0	n/a	n/a	ITI	s556
252.37	2.65	1	PA_with_intermediate	0,0,0,1,2,0,0,0,0	test	ward_and_allport	0,0,0,1,0,0,2,3,0	71.0	17.0	2.65	0,0,0,1,2,3,0,0,0	to_hand	s556
255.021	0.22	0	PA_with_intermediate	3,0,0,1,2,0,0,0,0	test	ward_and_allport	0,0,0,1,0,0,2,3,0	89.0	17.0	0.22	0,0,0,1,2,3,0,0,0	to_board	s556
255.246	0.45	0	PA_with_intermediate	3,0,0,1,0,0,0,0,0	test	ward_and_allport	0,0,0,1,0,0,2,3,0	71.0	17.0	0.45	0,0,0,1,2,3,0,0,0	to_hand	s556
255.697	0.214	0	PA_with_intermediate	3,0,0,1,0,0,2,0,0	test	ward_and_allport	0,0,0,1,0,0,2,3,0	82.0	17.0	0.214	0,0,0,1,2,3,0,0,0	to_board	s556
255.915	0.797	0	PA_with_intermediate	0,0,0,1,0,0,2,0,0	test	ward_and_allport	0,0,0,1,0,0,2,3,0	89.0	17.0	0.797	0,0,0,1,2,3,0,0,0	to_hand	s556
256.714	0.226	0	PA_with_intermediate	0,0,0,1,0,0,2,3,0	test	ward_and_allport	0,0,0,1,0,0,2,3,0	82.0	17.0	0.226	0,0,0,1,2,3,0,0,0	to_board	s556
256.947	1.0	0	PA_with_intermediate	n/a	test	ward_and_allport	n/a	-1.0	17.0	n/a	n/a	feedback	s556
257.947	2.632	0	PA_with_intermediate	n/a	test	ward_and_allport	n/a	-1.0	17.0	n/a	n/a	ITI	s556
260.584	3.005	1	PA_without_intermediate	0,0,0,0,0,0,1,2,0	test	ward_and_allport	1,0,0,3,2,0,0,0,0	82.0	18.0	3.005	0,0,0,0,0,0,1,2,3	to_hand	s556
263.59	0.214	0	PA_without_intermediate	0,0,0,3,0,0,1,2,0	test	ward_and_allport	1,0,0,3,2,0,0,0,0	71.0	18.0	0.214	0,0,0,0,0,0,1,2,3	to_board	s556
263.809	1.567	0	PA_without_intermediate	0,0,0,3,0,0,1,0,0	test	ward_and_allport	1,0,0,3,2,0,0,0,0	82.0	18.0	1.567	0,0,0,0,0,0,1,2,3	to_hand	s556
265.377	0.079	0	PA_without_intermediate	0,0,0,3,2,0,1,0,0	test	ward_and_allport	1,0,0,3,2,0,0,0,0	71.0	18.0	0.079	0,0,0,0,0,0,1,2,3	to_board	s556
265.461	2.102	0	PA_without_intermediate	0,0,0,3,2,0,0,0,0	test	ward_and_allport	1,0,0,3,2,0,0,0,0	82.0	18.0	2.102	0,0,0,0,0,0,1,2,3	to_hand	s556
267.564	0.089	0	PA_without_intermediate	1,0,0,3,2,0,0,0,0	test	ward_and_allport	1,0,0,3,2,0,0,0,0	89.0	18.0	0.089	0,0,0,0,0,0,1,2,3	to_board	s556
267.658	1.0	0	PA_without_intermediate	n/a	test	ward_and_allport	n/a	-1.0	18.0	n/a	n/a	feedback	s556
268.658	1.408	0	PA_without_intermediate	n/a	test	ward_and_allport	n/a	-1.0	18.0	n/a	n/a	ITI	s556
270.071	2.589	1	PA_without_intermediate	0,0,0,1,2,0,0,0,0	test	ward_and_allport	2,0,0,0,0,0,3,1,0	71.0	19.0	2.589	0,0,0,1,2,3,0,0,0	to_hand	s556
272.661	0.166	0	PA_without_intermediate	0,0,0,1,2,0,3,0,0	test	ward_and_allport	2,0,0,0,0,0,3,1,0	82.0	19.0	0.166	0,0,0,1,2,3,0,0,0	to_board	s556
272.832	1.112	0	PA_without_intermediate	0,0,0,1,0,0,3,0,0	test	ward_and_allport	2,0,0,0,0,0,3,1,0	71.0	19.0	1.112	0,0,0,1,2,3,0,0,0	to_hand	s556
273.946	0.118	0	PA_without_intermediate	2,0,0,1,0,0,3,0,0	test	ward_and_allport	2,0,0,0,0,0,3,1,0	89.0	19.0	0.118	0,0,0,1,2,3,0,0,0	to_board	s556
274.068	0.692	0	PA_without_intermediate	2,0,0,0,0,0,3,0,0	test	ward_and_allport	2,0,0,0,0,0,3,1,0	71.0	19.0	0.692	0,0,0,1,2,3,0,0,0	to_hand	s556
274.761	0.361	0	PA_without_intermediate	2,0,0,0,0,0,3,1,0	test	ward_and_allport	2,0,0,0,0,0,3,1,0	82.0	19.0	0.361	0,0,0,1,2,3,0,0,0	to_board	s556
275.127	1.0	0	PA_without_intermediate	n/a	test	ward_and_allport	n/a	-1.0	19.0	n/a	n/a	feedback	s556
276.127	1.0	0	PA_without_intermediate	n/a	test	ward_and_allport	n/a	-1.0	19.0	n/a	n/a	ITI	s556
277.133	3.198	1	PA_with_intermediate	0,0,0,0,0,0,1,2,0	test	ward_and_allport	2,0,0,0,0,0,1,3,0	82.0	20.0	3.198	0,0,0,0,0,0,1,2,3	to_hand	s556
280.331	0.151	0	PA_with_intermediate	0,0,0,3,0,0,1,2,0	test	ward_and_allport	2,0,0,0,0,0,1,3,0	71.0	20.0	0.151	0,0,0,0,0,0,1,2,3	to_board	s556
280.489	4.256	0	PA_with_intermediate	0,0,0,3,0,0,1,0,0	test	ward_and_allport	2,0,0,0,0,0,1,3,0	82.0	20.0	4.256	0,0,0,0,0,0,1,2,3	to_hand	s556
284.745	0.088	0	PA_with_intermediate	2,0,0,3,0,0,1,0,0	test	ward_and_allport	2,0,0,0,0,0,1,3,0	89.0	20.0	0.088	0,0,0,0,0,0,1,2,3	to_board	s556
284.839	2.295	0	PA_with_intermediate	2,0,0,0,0,0,1,0,0	test	ward_and_allport	2,0,0,0,0,0,1,3,0	71.0	20.0	2.295	0,0,0,0,0,0,1,2,3	to_hand	s556
287.134	0.204	0	PA_with_intermediate	2,0,0,0,0,0,1,3,0	test	ward_and_allport	2,0,0,0,0,0,1,3,0	82.0	20.0	0.204	0,0,0,0,0,0,1,2,3	to_board	s556
287.345	1.0	0	PA_with_intermediate	n/a	test	ward_and_allport	n/a	-1.0	20.0	n/a	n/a	feedback	s556
288.345	1.0	0	PA_with_intermediate	n/a	test	ward_and_allport	n/a	-1.0	20.0	n/a	n/a	ITI	s556
289.35	4.211	1	PA_with_intermediate	1,2,0,0,0,0,0,0,0	test	ward_and_allport	1,0,0,2,3,0,0,0,0	89.0	21.0	4.211	1,2,3,0,0,0,0,0,0	to_hand	s556
293.562	0.154	0	PA_with_intermediate	1,2,0,0,0,0,3,0,0	test	ward_and_allport	1,0,0,2,3,0,0,0,0	82.0	21.0	0.154	1,2,3,0,0,0,0,0,0	to_board	s556
293.722	1.092	0	PA_with_intermediate	1,0,0,0,0,0,3,0,0	test	ward_and_allport	1,0,0,2,3,0,0,0,0	89.0	21.0	1.092	1,2,3,0,0,0,0,0,0	to_hand	s556
294.814	0.106	0	PA_with_intermediate	1,0,0,2,0,0,3,0,0	test	ward_and_allport	1,0,0,2,3,0,0,0,0	71.0	21.0	0.106	1,2,3,0,0,0,0,0,0	to_board	s556
294.927	0.632	0	PA_with_intermediate	1,0,0,2,0,0,0,0,0	test	ward_and_allport	1,0,0,2,3,0,0,0,0	82.0	21.0	0.632	1,2,3,0,0,0,0,0,0	to_hand	s556
295.56	0.116	0	PA_with_intermediate	1,0,0,2,3,0,0,0,0	test	ward_and_allport	1,0,0,2,3,0,0,0,0	71.0	21.0	0.116	1,2,3,0,0,0,0,0,0	to_board	s556
295.683	1.0	0	PA_with_intermediate	n/a	test	ward_and_allport	n/a	-1.0	21.0	n/a	n/a	feedback	s556
296.683	1.0	0	PA_with_intermediate	n/a	test	ward_and_allport	n/a	-1.0	21.0	n/a	n/a	ITI	s556
297.688	4.398	1	PA_with_intermediate	0,0,0,0,0,0,1,2,0	test	ward_and_allport	2,3,0,0,0,0,1,0,0	82.0	22.0	4.398	0,0,0,0,0,0,1,2,3	to_hand	s556
302.087	0.061	0	PA_with_intermediate	0,0,0,3,0,0,1,2,0	test	ward_and_allport	2,3,0,0,0,0,1,0,0	71.0	22.0	0.061	0,0,0,0,0,0,1,2,3	to_board	s556
302.154	2.243	0	PA_with_intermediate	0,0,0,3,0,0,1,0,0	test	ward_and_allport	2,3,0,0,0,0,1,0,0	82.0	22.0	2.243	0,0,0,0,0,0,1,2,3	to_hand	s556
304.397	0.076	0	PA_with_intermediate	2,0,0,3,0,0,1,0,0	test	ward_and_allport	2,3,0,0,0,0,1,0,0	89.0	22.0	0.076	0,0,0,0,0,0,1,2,3	to_board	s556
304.48	0.52	0	PA_with_intermediate	2,0,0,0,0,0,1,0,0	test	ward_and_allport	2,3,0,0,0,0,1,0,0	71.0	22.0	0.52	0,0,0,0,0,0,1,2,3	to_hand	s556
305.001	0.087	0	PA_with_intermediate	2,3,0,0,0,0,1,0,0	test	ward_and_allport	2,3,0,0,0,0,1,0,0	89.0	22.0	0.087	0,0,0,0,0,0,1,2,3	to_board	s556
305.095	1.0	0	PA_with_intermediate	n/a	test	ward_and_allport	n/a	-1.0	22.0	n/a	n/a	feedback	s556
306.095	1.408	0	PA_with_intermediate	n/a	test	ward_and_allport	n/a	-1.0	22.0	n/a	n/a	ITI	s556
307.51	5.445	1	PA_without_intermediate	0,0,0,1,2,0,0,0,0	test	ward_and_allport	3,2,0,0,0,0,1,0,0	71.0	23.0	5.445	0,0,0,1,2,3,0,0,0	to_hand	s556
312.955	0.101	0	PA_without_intermediate	3,0,0,1,2,0,0,0,0	test	ward_and_allport	3,2,0,0,0,0,1,0,0	89.0	23.0	0.101	0,0,0,1,2,3,0,0,0	to_board	s556
313.062	1.251	0	PA_without_intermediate	3,0,0,1,0,0,0,0,0	test	ward_and_allport	3,2,0,0,0,0,1,0,0	71.0	23.0	1.251	0,0,0,1,2,3,0,0,0	to_hand	s556
314.315	0.12	0	PA_without_intermediate	3,2,0,1,0,0,0,0,0	test	ward_and_allport	3,2,0,0,0,0,1,0,0	89.0	23.0	0.12	0,0,0,1,2,3,0,0,0	to_board	s556
314.441	1.888	0	PA_without_intermediate	3,2,0,0,0,0,0,0,0	test	ward_and_allport	3,2,0,0,0,0,1,0,0	71.0	23.0	1.888	0,0,0,1,2,3,0,0,0	to_hand	s556
316.331	0.457	0	PA_without_intermediate	3,2,0,0,0,0,1,0,0	test	ward_and_allport	3,2,0,0,0,0,1,0,0	82.0	23.0	0.457	0,0,0,1,2,3,0,0,0	to_board	s556
316.795	1.0	0	PA_without_intermediate	n/a	test	ward_and_allport	n/a	-1.0	23.0	n/a	n/a	feedback	s556
317.795	1.816	0	PA_without_intermediate	n/a	test	ward_and_allport	n/a	-1.0	23.0	n/a	n/a	ITI	s556
319.618	5.229	1	PA_with_intermediate	1,2,0,0,0,0,0,0,0	test	ward_and_allport	1,3,0,2,0,0,0,0,0	89.0	24.0	5.229	1,2,3,0,0,0,0,0,0	to_hand	s556
324.849	0.072	0	PA_with_intermediate	1,2,0,3,0,0,0,0,0	test	ward_and_allport	1,3,0,2,0,0,0,0,0	71.0	24.0	0.072	1,2,3,0,0,0,0,0,0	to_board	s556
324.928	1.294	0	PA_with_intermediate	1,0,0,3,0,0,0,0,0	test	ward_and_allport	1,3,0,2,0,0,0,0,0	89.0	24.0	1.294	1,2,3,0,0,0,0,0,0	to_hand	s556
326.222	0.098	0	PA_with_intermediate	1,0,0,3,0,0,2,0,0	test	ward_and_allport	1,3,0,2,0,0,0,0,0	82.0	24.0	0.098	1,2,3,0,0,0,0,0,0	to_board	s556
326.327	6.989	0	PA_with_intermediate	1,0,0,0,0,0,2,0,0	test	ward_and_allport	1,3,0,2,0,0,0,0,0	71.0	24.0	6.989	1,2,3,0,0,0,0,0,0	to_hand	s556
333.317	0.101	0	PA_with_intermediate	1,3,0,0,0,0,2,0,0	test	ward_and_allport	1,3,0,2,0,0,0,0,0	89.0	24.0	0.101	1,2,3,0,0,0,0,0,0	to_board	s556
333.425	1.344	0	PA_with_intermediate	1,3,0,0,0,0,0,0,0	test	ward_and_allport	1,3,0,2,0,0,0,0,0	82.0	24.0	1.344	1,2,3,0,0,0,0,0,0	to_hand	s556
334.77	0.082	0	PA_with_intermediate	1,3,0,2,0,0,0,0,0	test	ward_and_allport	1,3,0,2,0,0,0,0,0	71.0	24.0	0.082	1,2,3,0,0,0,0,0,0	to_board	s556
334.86	1.0	0	PA_with_intermediate	n/a	test	ward_and_allport	n/a	-1.0	24.0	n/a	n/a	feedback	s556
335.86	3.176	0	PA_with_intermediate	n/a	test	ward_and_allport	n/a	-1.0	24.0	n/a	n/a	ITI	s556
339.043	5.566	1	PA_with_intermediate	1,2,0,0,0,0,0,0,0	test	ward_and_allport	1,3,0,0,0,0,2,0,0	89.0	25.0	5.566	1,2,3,0,0,0,0,0,0	to_hand	s556
344.61	0.124	0	PA_with_intermediate	1,2,0,3,0,0,0,0,0	test	ward_and_allport	1,3,0,0,0,0,2,0,0	71.0	25.0	0.124	1,2,3,0,0,0,0,0,0	to_board	s556
344.741	0.52	0	PA_with_intermediate	1,0,0,3,0,0,0,0,0	test	ward_and_allport	1,3,0,0,0,0,2,0,0	89.0	25.0	0.52	1,2,3,0,0,0,0,0,0	to_hand	s556
345.262	0.109	0	PA_with_intermediate	1,0,0,3,0,0,2,0,0	test	ward_and_allport	1,3,0,0,0,0,2,0,0	82.0	25.0	0.109	1,2,3,0,0,0,0,0,0	to_board	s556
345.378	0.88	0	PA_with_intermediate	1,0,0,0,0,0,2,0,0	test	ward_and_allport	1,3,0,0,0,0,2,0,0	71.0	25.0	0.88	1,2,3,0,0,0,0,0,0	to_hand	s556
346.258	0.086	0	PA_with_intermediate	1,3,0,0,0,0,2,0,0	test	ward_and_allport	1,3,0,0,0,0,2,0,0	89.0	25.0	0.086	1,2,3,0,0,0,0,0,0	to_board	s556
346.352	1.0	0	PA_with_intermediate	n/a	test	ward_and_allport	n/a	-1.0	25.0	n/a	n/a	feedback	s556
347.352	2.36	0	PA_with_intermediate	n/a	test	ward_and_allport	n/a	-1.0	25.0	n/a	n/a	ITI	s556
349.719	5.111	1	PA_with_intermediate	1,2,0,0,0,0,0,0,0	test	ward_and_allport	1,3,0,2,0,0,0,0,0	89.0	26.0	5.111	1,2,3,0,0,0,0,0,0	to_hand	s556
354.831	0.111	0	PA_with_intermediate	1,2,0,0,0,0,3,0,0	test	ward_and_allport	1,3,0,2,0,0,0,0,0	82.0	26.0	0.111	1,2,3,0,0,0,0,0,0	to_board	s556
354.95	1.332	0	PA_with_intermediate	1,0,0,0,0,0,3,0,0	test	ward_and_allport	1,3,0,2,0,0,0,0,0	89.0	26.0	1.332	1,2,3,0,0,0,0,0,0	to_hand	s556
356.283	0.08	0	PA_with_intermediate	1,0,0,2,0,0,3,0,0	test	ward_and_allport	1,3,0,2,0,0,0,0,0	71.0	26.0	0.08	1,2,3,0,0,0,0,0,0	to_board	s556
356.369	1.227	0	PA_with_intermediate	1,0,0,2,0,0,0,0,0	test	ward_and_allport	1,3,0,2,0,0,0,0,0	82.0	26.0	1.227	1,2,3,0,0,0,0,0,0	to_hand	s556
357.597	0.125	0	PA_with_intermediate	1,3,0,2,0,0,0,0,0	test	ward_and_allport	1,3,0,2,0,0,0,0,0	89.0	26.0	0.125	1,2,3,0,0,0,0,0,0	to_board	s556
357.731	1.0	0	PA_with_intermediate	n/a	test	ward_and_allport	n/a	-1.0	26.0	n/a	n/a	feedback	s556
358.731	1.0	0	PA_with_intermediate	n/a	test	ward_and_allport	n/a	-1.0	26.0	n/a	n/a	ITI	s556
359.739	4.164	1	PA_without_intermediate	0,0,0,1,2,0,0,0,0	test	ward_and_allport	2,0,0,0,0,0,3,1,0	71.0	27.0	4.164	0,0,0,1,2,3,0,0,0	to_hand	s556
363.903	0.083	0	PA_without_intermediate	0,0,0,1,2,0,3,0,0	test	ward_and_allport	2,0,0,0,0,0,3,1,0	82.0	27.0	0.083	0,0,0,1,2,3,0,0,0	to_board	s556
363.994	0.9	0	PA_without_intermediate	0,0,0,1,0,0,3,0,0	test	ward_and_allport	2,0,0,0,0,0,3,1,0	71.0	27.0	0.9	0,0,0,1,2,3,0,0,0	to_hand	s556
364.895	0.102	0	PA_without_intermediate	2,0,0,1,0,0,3,0,0	test	ward_and_allport	2,0,0,0,0,0,3,1,0	89.0	27.0	0.102	0,0,0,1,2,3,0,0,0	to_board	s556
365.004	2.196	0	PA_without_intermediate	2,0,0,0,0,0,3,0,0	test	ward_and_allport	2,0,0,0,0,0,3,1,0	71.0	27.0	2.196	0,0,0,1,2,3,0,0,0	to_hand	s556
367.2	0.157	0	PA_without_intermediate	2,0,0,0,0,0,3,1,0	test	ward_and_allport	2,0,0,0,0,0,3,1,0	82.0	27.0	0.157	0,0,0,1,2,3,0,0,0	to_board	s556
367.365	1.0	0	PA_without_intermediate	n/a	test	ward_and_allport	n/a	-1.0	27.0	n/a	n/a	feedback	s556
368.365	1.408	0	PA_without_intermediate	n/a	test	ward_and_allport	n/a	-1.0	27.0	n/a	n/a	ITI	s556
369.781	3.928	1	PA_with_intermediate	0,0,0,1,2,0,0,0,0	test	ward_and_allport	0,0,0,1,3,0,2,0,0	71.0	28.0	3.928	0,0,0,1,2,3,0,0,0	to_hand	s556
373.71	0.067	0	PA_with_intermediate	3,0,0,1,2,0,0,0,0	test	ward_and_allport	0,0,0,1,3,0,2,0,0	89.0	28.0	0.067	0,0,0,1,2,3,0,0,0	to_board	s556
373.783	0.489	0	PA_with_intermediate	3,0,0,1,0,0,0,0,0	test	ward_and_allport	0,0,0,1,3,0,2,0,0	71.0	28.0	0.489	0,0,0,1,2,3,0,0,0	to_hand	s556
374.273	0.094	0	PA_with_intermediate	3,0,0,1,0,0,2,0,0	test	ward_and_allport	0,0,0,1,3,0,2,0,0	82.0	28.0	0.094	0,0,0,1,2,3,0,0,0	to_board	s556
374.374	1.146	0	PA_with_intermediate	3,0,0,0,0,0,2,0,0	test	ward_and_allport	0,0,0,1,3,0,2,0,0	71.0	28.0	1.146	0,0,0,1,2,3,0,0,0	to_hand	s556
375.522	0.075	0	PA_with_intermediate	3,1,0,0,0,0,2,0,0	test	ward_and_allport	0,0,0,1,3,0,2,0,0	89.0	28.0	0.075	0,0,0,1,2,3,0,0,0	to_board	s556
375.605	2.626	0	PA_with_intermediate	3,0,0,0,0,0,2,0,0	test	ward_and_allport	0,0,0,1,3,0,2,0,0	89.0	28.0	2.626	0,0,0,1,2,3,0,0,0	to_hand	s556
378.232	0.048	0	PA_with_intermediate	3,0,0,1,0,0,2,0,0	test	ward_and_allport	0,0,0,1,3,0,2,0,0	71.0	28.0	0.048	0,0,0,1,2,3,0,0,0	to_board	s556
378.286	0.322	0	PA_with_intermediate	0,0,0,1,0,0,2,0,0	test	ward_and_allport	0,0,0,1,3,0,2,0,0	89.0	28.0	0.322	0,0,0,1,2,3,0,0,0	to_hand	s556
378.609	0.064	0	PA_with_intermediate	0,0,0,1,3,0,2,0,0	test	ward_and_allport	0,0,0,1,3,0,2,0,0	71.0	28.0	0.064	0,0,0,1,2,3,0,0,0	to_board	s556
378.681	1.0	0	PA_with_intermediate	n/a	test	ward_and_allport	n/a	-1.0	28.0	n/a	n/a	feedback	s556
379.681	1.816	0	PA_with_intermediate	n/a	test	ward_and_allport	n/a	-1.0	28.0	n/a	n/a	ITI	s556
381.503	6.846	1	PA_without_intermediate	0,0,0,0,0,0,1,2,0	test	ward_and_allport	3,1,0,2,0,0,0,0,0	82.0	29.0	6.846	0,0,0,0,0,0,1,2,3	to_hand	s556
388.351	0.061	0	PA_without_intermediate	3,0,0,0,0,0,1,2,0	test	ward_and_allport	3,1,0,2,0,0,0,0,0	89.0	29.0	0.061	0,0,0,0,0,0,1,2,3	to_board	s556
388.418	2.169	0	PA_without_intermediate	3,0,0,0,0,0,1,0,0	test	ward_and_allport	3,1,0,2,0,0,0,0,0	82.0	29.0	2.169	0,0,0,0,0,0,1,2,3	to_hand	s556
390.588	0.642	0	PA_without_intermediate	3,0,0,2,0,0,1,0,0	test	ward_and_allport	3,1,0,2,0,0,0,0,0	71.0	29.0	0.642	0,0,0,0,0,0,1,2,3	to_board	s556
391.238	1.462	0	PA_without_intermediate	3,0,0,2,0,0,0,0,0	test	ward_and_allport	3,1,0,2,0,0,0,0,0	82.0	29.0	1.462	0,0,0,0,0,0,1,2,3	to_hand	s556
392.7	0.03	0	PA_without_intermediate	3,1,0,2,0,0,0,0,0	test	ward_and_allport	3,1,0,2,0,0,0,0,0	89.0	29.0	0.03	0,0,0,0,0,0,1,2,3	to_board	s556
392.739	1.0	0	PA_without_intermediate	n/a	test	ward_and_allport	n/a	-1.0	29.0	n/a	n/a	feedback	s556
393.739	2.088	0	PA_without_intermediate	n/a	test	ward_and_allport	n/a	-1.0	29.0	n/a	n/a	ITI	s556
400.837	2.257	1	PA_without_intermediate	0,0,0,1,2,0,0,0,0	test	ward_and_allport	3,1,0,0,0,0,2,0,0	71.0	30.0	2.257	0,0,0,1,2,3,0,0,0	to_hand	s556
403.095	0.032	0	PA_without_intermediate	3,0,0,1,2,0,0,0,0	test	ward_and_allport	3,1,0,0,0,0,2,0,0	89.0	30.0	0.032	0,0,0,1,2,3,0,0,0	to_board	s556
403.134	1.519	0	PA_without_intermediate	3,0,0,1,0,0,0,0,0	test	ward_and_allport	3,1,0,0,0,0,2,0,0	71.0	30.0	1.519	0,0,0,1,2,3,0,0,0	to_hand	s556
404.655	0.094	0	PA_without_intermediate	3,0,0,1,0,0,2,0,0	test	ward_and_allport	3,1,0,0,0,0,2,0,0	82.0	30.0	0.094	0,0,0,1,2,3,0,0,0	to_board	s556
404.757	0.585	0	PA_without_intermediate	3,0,0,0,0,0,2,0,0	test	ward_and_allport	3,1,0,0,0,0,2,0,0	71.0	30.0	0.585	0,0,0,1,2,3,0,0,0	to_hand	s556
405.342	0.034	0	PA_without_intermediate	3,1,0,0,0,0,2,0,0	test	ward_and_allport	3,1,0,0,0,0,2,0,0	89.0	30.0	0.034	0,0,0,1,2,3,0,0,0	to_board	s556
405.386	1.0	0	PA_without_intermediate	n/a	test	ward_and_allport	n/a	-1.0	30.0	n/a	n/a	feedback	s556
406.386	1.136	0	PA_without_intermediate	n/a	test	ward_and_allport	n/a	-1.0	30.0	n/a	n/a	ITI	s556
407.531	3.584	1	PA_without_intermediate	0,0,0,0,0,0,1,2,0	test	ward_and_allport	1,0,0,3,2,0,0,0,0	82.0	31.0	3.584	0,0,0,0,0,0,1,2,3	to_hand	s556
411.116	0.056	0	PA_without_intermediate	0,0,0,3,0,0,1,2,0	test	ward_and_allport	1,0,0,3,2,0,0,0,0	71.0	31.0	0.056	0,0,0,0,0,0,1,2,3	to_board	s556
411.178	0.358	0	PA_without_intermediate	0,0,0,3,0,0,1,0,0	test	ward_and_allport	1,0,0,3,2,0,0,0,0	82.0	31.0	0.358	0,0,0,0,0,0,1,2,3	to_hand	s556
411.537	0.029	0	PA_without_intermediate	0,0,0,3,2,0,1,0,0	test	ward_and_allport	1,0,0,3,2,0,0,0,0	71.0	31.0	0.029	0,0,0,0,0,0,1,2,3	to_board	s556
411.572	1.395	0	PA_without_intermediate	0,0,0,3,2,0,0,0,0	test	ward_and_allport	1,0,0,3,2,0,0,0,0	82.0	31.0	1.395	0,0,0,0,0,0,1,2,3	to_hand	s556
412.968	0.039	0	PA_without_intermediate	1,0,0,3,2,0,0,0,0	test	ward_and_allport	1,0,0,3,2,0,0,0,0	89.0	31.0	0.039	0,0,0,0,0,0,1,2,3	to_board	s556
413.019	1.0	0	PA_without_intermediate	n/a	test	ward_and_allport	n/a	-1.0	31.0	n/a	n/a	feedback	s556
414.019	6.168	0	PA_without_intermediate	n/a	test	ward_and_allport	n/a	-1.0	31.0	n/a	n/a	ITI	s556
420.195	3.32	1	PA_without_intermediate	1,2,0,0,0,0,0,0,0	test	ward_and_allport	0,0,0,1,0,0,3,2,0	89.0	32.0	3.32	1,2,3,0,0,0,0,0,0	to_hand	s556
423.517	0.082	0	PA_without_intermediate	1,2,0,0,0,0,3,0,0	test	ward_and_allport	0,0,0,1,0,0,3,2,0	82.0	32.0	0.082	1,2,3,0,0,0,0,0,0	to_board	s556
423.607	0.44	0	PA_without_intermediate	1,0,0,0,0,0,3,0,0	test	ward_and_allport	0,0,0,1,0,0,3,2,0	89.0	32.0	0.44	1,2,3,0,0,0,0,0,0	to_hand	s556
424.047	0.074	0	PA_without_intermediate	1,0,0,0,0,0,3,2,0	test	ward_and_allport	0,0,0,1,0,0,3,2,0	82.0	32.0	0.074	1,2,3,0,0,0,0,0,0	to_board	s556
424.131	1.253	0	PA_without_intermediate	0,0,0,0,0,0,3,2,0	test	ward_and_allport	0,0,0,1,0,0,3,2,0	89.0	32.0	1.253	1,2,3,0,0,0,0,0,0	to_hand	s556
425.385	0.049	0	PA_without_intermediate	0,0,0,1,0,0,3,2,0	test	ward_and_allport	0,0,0,1,0,0,3,2,0	71.0	32.0	0.049	1,2,3,0,0,0,0,0,0	to_board	s556
425.445	1.0	0	PA_without_intermediate	n/a	test	ward_and_allport	n/a	-1.0	32.0	n/a	n/a	feedback	s556
426.445	1.816	0	PA_without_intermediate	n/a	test	ward_and_allport	n/a	-1.0	32.0	n/a	n/a	ITI	s556
428.269	5.221	1	PA_with_intermediate	1,2,0,0,0,0,0,0,0	test	ward_and_allport	1,3,0,0,0,0,2,0,0	89.0	33.0	5.221	1,2,3,0,0,0,0,0,0	to_hand	s556
433.49	0.054	0	PA_with_intermediate	1,2,0,3,0,0,0,0,0	test	ward_and_allport	1,3,0,0,0,0,2,0,0	71.0	33.0	0.054	1,2,3,0,0,0,0,0,0	to_board	s556
433.55	0.586	0	PA_with_intermediate	1,0,0,3,0,0,0,0,0	test	ward_and_allport	1,3,0,0,0,0,2,0,0	89.0	33.0	0.586	1,2,3,0,0,0,0,0,0	to_hand	s556
434.137	0.07	0	PA_with_intermediate	1,0,0,3,0,0,2,0,0	test	ward_and_allport	1,3,0,0,0,0,2,0,0	82.0	33.0	0.07	1,2,3,0,0,0,0,0,0	to_board	s556
434.214	1.371	0	PA_with_intermediate	1,0,0,0,0,0,2,0,0	test	ward_and_allport	1,3,0,0,0,0,2,0,0	71.0	33.0	1.371	1,2,3,0,0,0,0,0,0	to_hand	s556
435.585	0.067	0	PA_with_intermediate	1,3,0,0,0,0,2,0,0	test	ward_and_allport	1,3,0,0,0,0,2,0,0	89.0	33.0	0.067	1,2,3,0,0,0,0,0,0	to_board	s556
435.663	1.0	0	PA_with_intermediate	n/a	test	ward_and_allport	n/a	-1.0	33.0	n/a	n/a	feedback	s556
436.663	1.952	0	PA_with_intermediate	n/a	test	ward_and_allport	n/a	-1.0	33.0	n/a	n/a	ITI	s556
438.626	6.437	1	PA_with_intermediate	0,0,0,0,0,0,1,2,0	test	ward_and_allport	0,0,0,2,0,0,1,3,0	82.0	34.0	6.437	0,0,0,0,0,0,1,2,3	to_hand	s556
445.064	0.036	0	PA_with_intermediate	3,0,0,0,0,0,1,2,0	test	ward_and_allport	0,0,0,2,0,0,1,3,0	89.0	34.0	0.036	0,0,0,0,0,0,1,2,3	to_board	s556
445.109	1.231	0	PA_with_intermediate	3,0,0,0,0,0,1,0,0	test	ward_and_allport	0,0,0,2,0,0,1,3,0	82.0	34.0	1.231	0,0,0,0,0,0,1,2,3	to_hand	s556
446.341	0.032	0	PA_with_intermediate	3,0,0,2,0,0,1,0,0	test	ward_and_allport	0,0,0,2,0,0,1,3,0	71.0	34.0	0.032	0,0,0,0,0,0,1,2,3	to_board	s556
446.382	0.985	0	PA_with_intermediate	0,0,0,2,0,0,1,0,0	test	ward_and_allport	0,0,0,2,0,0,1,3,0	89.0	34.0	0.985	0,0,0,0,0,0,1,2,3	to_hand	s556
447.368	0.069	0	PA_with_intermediate	0,0,0,2,0,0,1,3,0	test	ward_and_allport	0,0,0,2,0,0,1,3,0	82.0	34.0	0.069	0,0,0,0,0,0,1,2,3	to_board	s556
447.447	1.0	0	PA_with_intermediate	n/a	test	ward_and_allport	n/a	-1.0	34.0	n/a	n/a	feedback	s556
448.447	1.136	0	PA_with_intermediate	n/a	test	ward_and_allport	n/a	-1.0	34.0	n/a	n/a	ITI	s556
449.592	6.027	1	PA_without_intermediate	0,0,0,0,0,0,1,2,0	test	ward_and_allport	3,2,0,1,0,0,0,0,0	82.0	35.0	6.027	0,0,0,0,0,0,1,2,3	to_hand	s556
455.619	0.022	0	PA_without_intermediate	3,0,0,0,0,0,1,2,0	test	ward_and_allport	3,2,0,1,0,0,0,0,0	89.0	35.0	0.022	0,0,0,0,0,0,1,2,3	to_board	s556
455.65	0.939	0	PA_without_intermediate	3,0,0,0,0,0,1,0,0	test	ward_and_allport	3,2,0,1,0,0,0,0,0	82.0	35.0	0.939	0,0,0,0,0,0,1,2,3	to_hand	s556
456.591	0.03	0	PA_without_intermediate	3,2,0,0,0,0,1,0,0	test	ward_and_allport	3,2,0,1,0,0,0,0,0	89.0	35.0	0.03	0,0,0,0,0,0,1,2,3	to_board	s556
456.63	1.131	0	PA_without_intermediate	3,0,0,0,0,0,1,0,0	test	ward_and_allport	3,2,0,1,0,0,0,0,0	89.0	35.0	1.131	0,0,0,0,0,0,1,2,3	to_hand	s556
457.761	1.239	0	PA_without_intermediate	3,2,0,0,0,0,1,0,0	test	ward_and_allport	3,2,0,1,0,0,0,0,0	89.0	35.0	1.239	0,0,0,0,0,0,1,2,3	to_board	s556
459.009	0.95	0	PA_without_intermediate	3,2,0,0,0,0,0,0,0	test	ward_and_allport	3,2,0,1,0,0,0,0,0	82.0	35.0	0.95	0,0,0,0,0,0,1,2,3	to_hand	s556
459.96	0.442	0	PA_without_intermediate	3,2,0,1,0,0,0,0,0	test	ward_and_allport	3,2,0,1,0,0,0,0,0	71.0	35.0	0.442	0,0,0,0,0,0,1,2,3	to_board	s556
460.412	1.0	0	PA_without_intermediate	n/a	test	ward_and_allport	n/a	-1.0	35.0	n/a	n/a	feedback	s556
461.412	1.68	0	PA_without_intermediate	n/a	test	ward_and_allport	n/a	-1.0	35.0	n/a	n/a	ITI	s556
463.102	5.957	1	PA_without_intermediate	1,2,0,0,0,0,0,0,0	test	ward_and_allport	0,0,0,2,0,0,3,1,0	89.0	36.0	5.957	1,2,3,0,0,0,0,0,0	to_hand	s556
469.059	0.06	0	PA_without_intermediate	1,2,0,0,0,0,3,0,0	test	ward_and_allport	0,0,0,2,0,0,3,1,0	82.0	36.0	0.06	1,2,3,0,0,0,0,0,0	to_board	s556
469.128	2.934	0	PA_without_intermediate	1,0,0,0,0,0,3,0,0	test	ward_and_allport	0,0,0,2,0,0,3,1,0	89.0	36.0	2.934	1,2,3,0,0,0,0,0,0	to_hand	s556
472.063	0.071	0	PA_without_intermediate	1,0,0,2,0,0,3,0,0	test	ward_and_allport	0,0,0,2,0,0,3,1,0	71.0	36.0	0.071	1,2,3,0,0,0,0,0,0	to_board	s556
472.144	0.904	0	PA_without_intermediate	0,0,0,2,0,0,3,0,0	test	ward_and_allport	0,0,0,2,0,0,3,1,0	89.0	36.0	0.904	1,2,3,0,0,0,0,0,0	to_hand	s556
473.048	0.084	0	PA_without_intermediate	0,0,0,2,0,0,3,1,0	test	ward_and_allport	0,0,0,2,0,0,3,1,0	82.0	36.0	0.084	1,2,3,0,0,0,0,0,0	to_board	s556
473.143	1.0	0	PA_without_intermediate	n/a	test	ward_and_allport	n/a	-1.0	36.0	n/a	n/a	feedback	s556
474.143	2.088	0	PA_without_intermediate	n/a	test	ward_and_allport	n/a	-1.0	36.0	n/a	n/a	ITI	s556
476.241	4.337	1	PA_with_intermediate	0,0,0,1,2,0,0,0,0	test	ward_and_allport	2,3,0,1,0,0,0,0,0	71.0	37.0	4.337	0,0,0,1,2,3,0,0,0	to_hand	s556
480.579	0.041	0	PA_with_intermediate	3,0,0,1,2,0,0,0,0	test	ward_and_allport	2,3,0,1,0,0,0,0,0	89.0	37.0	0.041	0,0,0,1,2,3,0,0,0	to_board	s556
480.63	0.297	0	PA_with_intermediate	3,0,0,1,0,0,0,0,0	test	ward_and_allport	2,3,0,1,0,0,0,0,0	71.0	37.0	0.297	0,0,0,1,2,3,0,0,0	to_hand	s556
480.927	0.048	0	PA_with_intermediate	3,2,0,1,0,0,0,0,0	test	ward_and_allport	2,3,0,1,0,0,0,0,0	89.0	37.0	0.048	0,0,0,1,2,3,0,0,0	to_board	s556
480.984	5.604	0	PA_with_intermediate	3,2,0,0,0,0,0,0,0	test	ward_and_allport	2,3,0,1,0,0,0,0,0	71.0	37.0	5.604	0,0,0,1,2,3,0,0,0	to_hand	s556
486.589	0.09	0	PA_with_intermediate	3,2,0,0,0,0,1,0,0	test	ward_and_allport	2,3,0,1,0,0,0,0,0	82.0	37.0	0.09	0,0,0,1,2,3,0,0,0	to_board	s556
486.689	1.84	0	PA_with_intermediate	3,2,0,0,0,0,0,0,0	test	ward_and_allport	2,3,0,1,0,0,0,0,0	82.0	37.0	1.84	0,0,0,1,2,3,0,0,0	to_hand	s556
488.53	0.076	0	PA_with_intermediate	3,2,0,1,0,0,0,0,0	test	ward_and_allport	2,3,0,1,0,0,0,0,0	71.0	37.0	0.076	0,0,0,1,2,3,0,0,0	to_board	s556
488.615	3.922	0	PA_with_intermediate	3,0,0,1,0,0,0,0,0	test	ward_and_allport	2,3,0,1,0,0,0,0,0	89.0	37.0	3.922	0,0,0,1,2,3,0,0,0	to_hand	s556
492.537	0.047	0	PA_with_intermediate	3,0,0,1,2,0,0,0,0	test	ward_and_allport	2,3,0,1,0,0,0,0,0	71.0	37.0	0.047	0,0,0,1,2,3,0,0,0	to_board	s556
492.593	2.274	0	PA_with_intermediate	0,0,0,1,2,0,0,0,0	test	ward_and_allport	2,3,0,1,0,0,0,0,0	89.0	37.0	2.274	0,0,0,1,2,3,0,0,0	to_hand	s556
494.869	0.115	0	PA_with_intermediate	0,0,0,1,2,0,3,0,0	test	ward_and_allport	2,3,0,1,0,0,0,0,0	82.0	37.0	0.115	0,0,0,1,2,3,0,0,0	to_board	s556
494.992	0.921	0	PA_with_intermediate	0,0,0,1,0,0,3,0,0	test	ward_and_allport	2,3,0,1,0,0,0,0,0	71.0	37.0	0.921	0,0,0,1,2,3,0,0,0	to_hand	s556
495.915	0.058	0	PA_with_intermediate	2,0,0,1,0,0,3,0,0	test	ward_and_allport	2,3,0,1,0,0,0,0,0	89.0	37.0	0.058	0,0,0,1,2,3,0,0,0	to_board	s556
495.984	0.997	0	PA_with_intermediate	2,0,0,1,0,0,0,0,0	test	ward_and_allport	2,3,0,1,0,0,0,0,0	82.0	37.0	0.997	0,0,0,1,2,3,0,0,0	to_hand	s556
496.982	0.046	0	PA_with_intermediate	2,3,0,1,0,0,0,0,0	test	ward_and_allport	2,3,0,1,0,0,0,0,0	89.0	37.0	0.046	0,0,0,1,2,3,0,0,0	to_board	s556
497.037	1.0	0	PA_with_intermediate	n/a	test	ward_and_allport	n/a	-1.0	37.0	n/a	n/a	feedback	s556
498.037	1.0	0	PA_with_intermediate	n/a	test	ward_and_allport	n/a	-1.0	37.0	n/a	n/a	ITI	s556
499.045	4.64	1	PA_without_intermediate	1,2,0,0,0,0,0,0,0	test	ward_and_allport	0,0,0,1,0,0,3,2,0	89.0	38.0	4.64	1,2,3,0,0,0,0,0,0	to_hand	s556
503.686	0.128	0	PA_without_intermediate	1,2,0,0,0,0,3,0,0	test	ward_and_allport	0,0,0,1,0,0,3,2,0	82.0	38.0	0.128	1,2,3,0,0,0,0,0,0	to_board	s556
503.82	1.273	0	PA_without_intermediate	1,0,0,0,0,0,3,0,0	test	ward_and_allport	0,0,0,1,0,0,3,2,0	89.0	38.0	1.273	1,2,3,0,0,0,0,0,0	to_hand	s556
505.094	0.074	0	PA_without_intermediate	1,0,0,0,0,0,3,2,0	test	ward_and_allport	0,0,0,1,0,0,3,2,0	82.0	38.0	0.074	1,2,3,0,0,0,0,0,0	to_board	s556
505.177	1.538	0	PA_without_intermediate	0,0,0,0,0,0,3,2,0	test	ward_and_allport	0,0,0,1,0,0,3,2,0	89.0	38.0	1.538	1,2,3,0,0,0,0,0,0	to_hand	s556
506.716	0.047	0	PA_without_intermediate	0,0,0,1,0,0,3,2,0	test	ward_and_allport	0,0,0,1,0,0,3,2,0	71.0	38.0	0.047	1,2,3,0,0,0,0,0,0	to_board	s556
506.775	1.0	0	PA_without_intermediate	n/a	test	ward_and_allport	n/a	-1.0	38.0	n/a	n/a	feedback	s556
507.775	1.0	0	PA_without_intermediate	n/a	test	ward_and_allport	n/a	-1.0	38.0	n/a	n/a	ITI	s556
508.785	6.144	1	PA_without_intermediate	0,0,0,1,2,0,0,0,0	test	ward_and_allport	1,0,0,0,0,0,3,2,0	71.0	39.0	6.144	0,0,0,1,2,3,0,0,0	to_hand	s556
514.931	0.087	0	PA_without_intermediate	0,0,0,1,2,0,3,0,0	test	ward_and_allport	1,0,0,0,0,0,3,2,0	82.0	39.0	0.087	0,0,0,1,2,3,0,0,0	to_board	s556
515.028	0.665	0	PA_without_intermediate	0,0,0,1,0,0,3,0,0	test	ward_and_allport	1,0,0,0,0,0,3,2,0	71.0	39.0	0.665	0,0,0,1,2,3,0,0,0	to_hand	s556
515.693	0.056	0	PA_without_intermediate	0,0,0,1,0,0,3,2,0	test	ward_and_allport	1,0,0,0,0,0,3,2,0	82.0	39.0	0.056	0,0,0,1,2,3,0,0,0	to_board	s556
515.76	0.631	0	PA_without_intermediate	0,0,0,0,0,0,3,2,0	test	ward_and_allport	1,0,0,0,0,0,3,2,0	71.0	39.0	0.631	0,0,0,1,2,3,0,0,0	to_hand	s556
516.392	0.066	0	PA_without_intermediate	1,0,0,0,0,0,3,2,0	test	ward_and_allport	1,0,0,0,0,0,3,2,0	89.0	39.0	0.066	0,0,0,1,2,3,0,0,0	to_board	s556
516.469	1.0	0	PA_without_intermediate	n/a	test	ward_and_allport	n/a	-1.0	39.0	n/a	n/a	feedback	s556
517.469	1.0	0	PA_without_intermediate	n/a	test	ward_and_allport	n/a	-1.0	39.0	n/a	n/a	ITI	s556
518.48	10.474	1	PA_with_intermediate	0,0,0,0,0,0,1,2,0	test	ward_and_allport	0,0,0,2,3,0,1,0,0	82.0	40.0	10.474	0,0,0,0,0,0,1,2,3	to_hand	s556
528.955	0.054	0	PA_with_intermediate	3,0,0,0,0,0,1,2,0	test	ward_and_allport	0,0,0,2,3,0,1,0,0	89.0	40.0	0.054	0,0,0,0,0,0,1,2,3	to_board	s556
529.02	1.064	0	PA_with_intermediate	3,0,0,0,0,0,1,0,0	test	ward_and_allport	0,0,0,2,3,0,1,0,0	82.0	40.0	1.064	0,0,0,0,0,0,1,2,3	to_hand	s556
530.085	0.041	0	PA_with_intermediate	3,0,0,2,0,0,1,0,0	test	ward_and_allport	0,0,0,2,3,0,1,0,0	71.0	40.0	0.041	0,0,0,0,0,0,1,2,3	to_board	s556
530.136	1.279	0	PA_with_intermediate	0,0,0,2,0,0,1,0,0	test	ward_and_allport	0,0,0,2,3,0,1,0,0	89.0	40.0	1.279	0,0,0,0,0,0,1,2,3	to_hand	s556
531.416	0.035	0	PA_with_intermediate	0,0,0,2,3,0,1,0,0	test	ward_and_allport	0,0,0,2,3,0,1,0,0	71.0	40.0	0.035	0,0,0,0,0,0,1,2,3	to_board	s556
531.463	1.0	0	PA_with_intermediate	n/a	test	ward_and_allport	n/a	-1.0	40.0	n/a	n/a	feedback	s556
532.463	1.544	0	PA_with_intermediate	n/a	test	ward_and_allport	n/a	-1.0	40.0	n/a	n/a	ITI	s556
534.016	4.296	1	PA_without_intermediate	0,0,0,1,2,0,0,0,0	test	ward_and_allport	3,1,0,0,0,0,2,0,0	71.0	41.0	4.296	0,0,0,1,2,3,0,0,0	to_hand	s556
538.313	0.039	0	PA_without_intermediate	3,0,0,1,2,0,0,0,0	test	ward_and_allport	3,1,0,0,0,0,2,0,0	89.0	41.0	0.039	0,0,0,1,2,3,0,0,0	to_board	s556
538.358	0.358	0	PA_without_intermediate	3,0,0,1,0,0,0,0,0	test	ward_and_allport	3,1,0,0,0,0,2,0,0	71.0	41.0	0.358	0,0,0,1,2,3,0,0,0	to_hand	s556
538.717	0.464	0	PA_without_intermediate	3,0,0,1,0,0,2,0,0	test	ward_and_allport	3,1,0,0,0,0,2,0,0	82.0	41.0	0.464	0,0,0,1,2,3,0,0,0	to_board	s556
539.189	0.543	0	PA_without_intermediate	3,0,0,0,0,0,2,0,0	test	ward_and_allport	3,1,0,0,0,0,2,0,0	71.0	41.0	0.543	0,0,0,1,2,3,0,0,0	to_hand	s556
539.733	0.047	0	PA_without_intermediate	3,1,0,0,0,0,2,0,0	test	ward_and_allport	3,1,0,0,0,0,2,0,0	89.0	41.0	0.047	0,0,0,1,2,3,0,0,0	to_board	s556
539.791	1.0	0	PA_without_intermediate	n/a	test	ward_and_allport	n/a	-1.0	41.0	n/a	n/a	feedback	s556
540.791	1.272	0	PA_without_intermediate	n/a	test	ward_and_allport	n/a	-1.0	41.0	n/a	n/a	ITI	s556
542.073	5.968	1	PA_with_intermediate	0,0,0,0,0,0,1,2,0	test	ward_and_allport	2,0,0,0,0,0,1,3,0	82.0	42.0	5.968	0,0,0,0,0,0,1,2,3	to_hand	s556
548.041	0.06	0	PA_with_intermediate	3,0,0,0,0,0,1,2,0	test	ward_and_allport	2,0,0,0,0,0,1,3,0	89.0	42.0	0.06	0,0,0,0,0,0,1,2,3	to_board	s556
548.109	3.299	0	PA_with_intermediate	0,0,0,0,0,0,1,2,0	test	ward_and_allport	2,0,0,0,0,0,1,3,0	89.0	42.0	3.299	0,0,0,0,0,0,1,2,3	to_hand	s556
551.408	0.036	0	PA_with_intermediate	0,0,0,3,0,0,1,2,0	test	ward_and_allport	2,0,0,0,0,0,1,3,0	71.0	42.0	0.036	0,0,0,0,0,0,1,2,3	to_board	s556
551.454	1.384	0	PA_with_intermediate	0,0,0,3,0,0,1,0,0	test	ward_and_allport	2,0,0,0,0,0,1,3,0	82.0	42.0	1.384	0,0,0,0,0,0,1,2,3	to_hand	s556
552.84	0.029	0	PA_with_intermediate	2,0,0,3,0,0,1,0,0	test	ward_and_allport	2,0,0,0,0,0,1,3,0	89.0	42.0	0.029	0,0,0,0,0,0,1,2,3	to_board	s556
552.881	2.26	0	PA_with_intermediate	2,0,0,0,0,0,1,0,0	test	ward_and_allport	2,0,0,0,0,0,1,3,0	71.0	42.0	2.26	0,0,0,0,0,0,1,2,3	to_hand	s556
555.142	0.097	0	PA_with_intermediate	2,0,0,0,0,0,1,3,0	test	ward_and_allport	2,0,0,0,0,0,1,3,0	82.0	42.0	0.097	0,0,0,0,0,0,1,2,3	to_board	s556
555.252	1.0	0	PA_with_intermediate	n/a	test	ward_and_allport	n/a	-1.0	42.0	n/a	n/a	feedback	s556
556.252	3.04	0	PA_with_intermediate	n/a	test	ward_and_allport	n/a	-1.0	42.0	n/a	n/a	ITI	s556
n/a	n/a	0	n/a	n/a	n/a	n/a	n/a	n/a	n/a	n/a	n/a	ITI	n/a
