onset	duration	planning	condition	current_position	exp_stage	experiment_exp_id	goal_state	key_press	problem_id	response_time	start_state	trial_id	worker_id
-70.151	0.0	0	n/a	n/a	n/a	ward_and_allport	n/a	32.0	n/a	34.179	n/a	instructions	s615
3.009	2.598	1	UA_with_intermediate	1,0,0,2,0,0,0,0,0	practice	ward_and_allport	1,2,3,0,0,0,0,0,0	71.0	0.0	2.598	1,0,0,2,3,0,0,0,0	to_hand	s615
5.609	1.15	0	UA_with_intermediate	1,0,0,2,0,0,3,0,0	practice	ward_and_allport	1,2,3,0,0,0,0,0,0	82.0	0.0	1.15	1,0,0,2,3,0,0,0,0	to_board	s615
6.762	0.596	0	UA_with_intermediate	1,0,0,0,0,0,3,0,0	practice	ward_and_allport	1,2,3,0,0,0,0,0,0	71.0	0.0	0.596	1,0,0,2,3,0,0,0,0	to_hand	s615
7.359	0.474	0	UA_with_intermediate	1,2,0,0,0,0,3,0,0	practice	ward_and_allport	1,2,3,0,0,0,0,0,0	89.0	0.0	0.474	1,0,0,2,3,0,0,0,0	to_board	s615
7.835	0.978	0	UA_with_intermediate	1,2,0,0,0,0,0,0,0	practice	ward_and_allport	1,2,3,0,0,0,0,0,0	82.0	0.0	0.978	1,0,0,2,3,0,0,0,0	to_hand	s615
8.815	0.45	0	UA_with_intermediate	1,2,3,0,0,0,0,0,0	practice	ward_and_allport	1,2,3,0,0,0,0,0,0	89.0	0.0	0.45	1,0,0,2,3,0,0,0,0	to_board	s615
9.27	1.0	0	UA_with_intermediate	n/a	practice	ward_and_allport	n/a	-1.0	0.0	n/a	n/a	feedback	s615
11.773	3.492	1	UA_with_intermediate	1,0,0,3,0,0,0,0,0	practice	ward_and_allport	1,3,2,0,0,0,0,0,0	89.0	1.0	3.492	1,2,0,3,0,0,0,0,0	to_hand	s615
15.267	0.886	0	UA_with_intermediate	1,0,0,3,0,0,2,0,0	practice	ward_and_allport	1,3,2,0,0,0,0,0,0	82.0	1.0	0.886	1,2,0,3,0,0,0,0,0	to_board	s615
16.156	0.52	0	UA_with_intermediate	1,0,0,0,0,0,2,0,0	practice	ward_and_allport	1,3,2,0,0,0,0,0,0	71.0	1.0	0.52	1,2,0,3,0,0,0,0,0	to_hand	s615
16.679	0.542	0	UA_with_intermediate	1,3,0,0,0,0,2,0,0	practice	ward_and_allport	1,3,2,0,0,0,0,0,0	89.0	1.0	0.542	1,2,0,3,0,0,0,0,0	to_board	s615
17.223	0.541	0	UA_with_intermediate	1,3,0,0,0,0,0,0,0	practice	ward_and_allport	1,3,2,0,0,0,0,0,0	82.0	1.0	0.541	1,2,0,3,0,0,0,0,0	to_hand	s615
17.766	0.515	0	UA_with_intermediate	1,3,2,0,0,0,0,0,0	practice	ward_and_allport	1,3,2,0,0,0,0,0,0	89.0	1.0	0.515	1,2,0,3,0,0,0,0,0	to_board	s615
18.284	1.0	0	UA_with_intermediate	n/a	practice	ward_and_allport	n/a	-1.0	1.0	n/a	n/a	feedback	s615
19.284	1.1	0	UA_with_intermediate	n/a	practice	ward_and_allport	n/a	-1.0	1.0	n/a	n/a	ITI	s615
20.385	2.003	1	UA_without_intermediate	0,0,0,1,2,0,0,0,0	practice	ward_and_allport	3,2,1,0,0,0,0,0,0	82.0	2.0	2.003	0,0,0,1,2,0,3,0,0	to_hand	s615
22.39	0.455	0	UA_without_intermediate	3,0,0,1,2,0,0,0,0	practice	ward_and_allport	3,2,1,0,0,0,0,0,0	89.0	2.0	0.455	0,0,0,1,2,0,3,0,0	to_board	s615
22.849	0.604	0	UA_without_intermediate	3,0,0,1,0,0,0,0,0	practice	ward_and_allport	3,2,1,0,0,0,0,0,0	71.0	2.0	0.604	0,0,0,1,2,0,3,0,0	to_hand	s615
23.455	0.449	0	UA_without_intermediate	3,2,0,1,0,0,0,0,0	practice	ward_and_allport	3,2,1,0,0,0,0,0,0	89.0	2.0	0.449	0,0,0,1,2,0,3,0,0	to_board	s615
23.905	0.78	0	UA_without_intermediate	3,2,0,0,0,0,0,0,0	practice	ward_and_allport	3,2,1,0,0,0,0,0,0	71.0	2.0	0.78	0,0,0,1,2,0,3,0,0	to_hand	s615
24.686	0.358	0	UA_without_intermediate	3,2,1,0,0,0,0,0,0	practice	ward_and_allport	3,2,1,0,0,0,0,0,0	89.0	2.0	0.358	0,0,0,1,2,0,3,0,0	to_board	s615
25.048	1.0	0	UA_without_intermediate	n/a	practice	ward_and_allport	n/a	-1.0	2.0	n/a	n/a	feedback	s615
26.048	1.2	0	UA_without_intermediate	n/a	practice	ward_and_allport	n/a	-1.0	2.0	n/a	n/a	ITI	s615
27.25	1.364	1	UA_without_intermediate	0,0,0,1,0,0,3,0,0	practice	ward_and_allport	2,3,1,0,0,0,0,0,0	71.0	3.0	1.364	0,0,0,1,2,0,3,0,0	to_hand	s615
28.616	0.428	0	UA_without_intermediate	2,0,0,1,0,0,3,0,0	practice	ward_and_allport	2,3,1,0,0,0,0,0,0	89.0	3.0	0.428	0,0,0,1,2,0,3,0,0	to_board	s615
29.046	0.639	0	UA_without_intermediate	2,0,0,1,0,0,0,0,0	practice	ward_and_allport	2,3,1,0,0,0,0,0,0	82.0	3.0	0.639	0,0,0,1,2,0,3,0,0	to_hand	s615
29.686	0.561	0	UA_without_intermediate	2,3,0,1,0,0,0,0,0	practice	ward_and_allport	2,3,1,0,0,0,0,0,0	89.0	3.0	0.561	0,0,0,1,2,0,3,0,0	to_board	s615
30.249	0.355	0	UA_without_intermediate	2,3,0,0,0,0,0,0,0	practice	ward_and_allport	2,3,1,0,0,0,0,0,0	71.0	3.0	0.355	0,0,0,1,2,0,3,0,0	to_hand	s615
30.605	0.41	0	UA_without_intermediate	2,3,1,0,0,0,0,0,0	practice	ward_and_allport	2,3,1,0,0,0,0,0,0	89.0	3.0	0.41	0,0,0,1,2,0,3,0,0	to_board	s615
31.019	1.0	0	UA_without_intermediate	n/a	practice	ward_and_allport	n/a	-1.0	3.0	n/a	n/a	feedback	s615
32.019	1.0	0	UA_without_intermediate	n/a	practice	ward_and_allport	n/a	-1.0	3.0	n/a	n/a	ITI	s615
35.025	1.454	1	PA_without_intermediate	0,0,0,1,2,0,0,0,0	test	ward_and_allport	1,0,0,0,0,0,3,2,0	71.0	0.0	1.454	0,0,0,1,2,3,0,0,0	to_hand	s615
36.479	0.538	0	PA_without_intermediate	0,0,0,1,2,0,3,0,0	test	ward_and_allport	1,0,0,0,0,0,3,2,0	82.0	0.0	0.538	0,0,0,1,2,3,0,0,0	to_board	s615
37.02	0.561	0	PA_without_intermediate	0,0,0,1,0,0,3,0,0	test	ward_and_allport	1,0,0,0,0,0,3,2,0	71.0	0.0	0.561	0,0,0,1,2,3,0,0,0	to_hand	s615
37.582	0.474	0	PA_without_intermediate	0,0,0,1,0,0,3,2,0	test	ward_and_allport	1,0,0,0,0,0,3,2,0	82.0	0.0	0.474	0,0,0,1,2,3,0,0,0	to_board	s615
38.059	0.425	0	PA_without_intermediate	0,0,0,0,0,0,3,2,0	test	ward_and_allport	1,0,0,0,0,0,3,2,0	71.0	0.0	0.425	0,0,0,1,2,3,0,0,0	to_hand	s615
38.486	0.387	0	PA_without_intermediate	1,0,0,0,0,0,3,2,0	test	ward_and_allport	1,0,0,0,0,0,3,2,0	89.0	0.0	0.387	0,0,0,1,2,3,0,0,0	to_board	s615
38.875	1.0	0	PA_without_intermediate	n/a	test	ward_and_allport	n/a	-1.0	0.0	n/a	n/a	feedback	s615
39.875	2.088	0	PA_without_intermediate	n/a	test	ward_and_allport	n/a	-1.0	0.0	n/a	n/a	ITI	s615
41.966	2.294	1	PA_with_intermediate	1,2,0,0,0,0,0,0,0	test	ward_and_allport	1,3,0,2,0,0,0,0,0	89.0	1.0	2.294	1,2,3,0,0,0,0,0,0	to_hand	s615
44.261	0.683	0	PA_with_intermediate	1,2,0,0,0,0,3,0,0	test	ward_and_allport	1,3,0,2,0,0,0,0,0	82.0	1.0	0.683	1,2,3,0,0,0,0,0,0	to_board	s615
44.947	1.131	0	PA_with_intermediate	1,0,0,0,0,0,3,0,0	test	ward_and_allport	1,3,0,2,0,0,0,0,0	89.0	1.0	1.131	1,2,3,0,0,0,0,0,0	to_hand	s615
46.079	0.522	0	PA_with_intermediate	1,0,0,2,0,0,3,0,0	test	ward_and_allport	1,3,0,2,0,0,0,0,0	71.0	1.0	0.522	1,2,3,0,0,0,0,0,0	to_board	s615
46.604	0.737	0	PA_with_intermediate	1,0,0,2,0,0,0,0,0	test	ward_and_allport	1,3,0,2,0,0,0,0,0	82.0	1.0	0.737	1,2,3,0,0,0,0,0,0	to_hand	s615
47.342	0.385	0	PA_with_intermediate	1,3,0,2,0,0,0,0,0	test	ward_and_allport	1,3,0,2,0,0,0,0,0	89.0	1.0	0.385	1,2,3,0,0,0,0,0,0	to_board	s615
47.734	1.0	0	PA_with_intermediate	n/a	test	ward_and_allport	n/a	-1.0	1.0	n/a	n/a	feedback	s615
48.734	1.0	0	PA_with_intermediate	n/a	test	ward_and_allport	n/a	-1.0	1.0	n/a	n/a	ITI	s615
49.736	2.11	1	PA_without_intermediate	0,0,0,0,0,0,1,2,0	test	ward_and_allport	3,1,0,2,0,0,0,0,0	82.0	2.0	2.11	0,0,0,0,0,0,1,2,3	to_hand	s615
51.847	0.488	0	PA_without_intermediate	3,0,0,0,0,0,1,2,0	test	ward_and_allport	3,1,0,2,0,0,0,0,0	89.0	2.0	0.488	0,0,0,0,0,0,1,2,3	to_board	s615
52.339	1.356	0	PA_without_intermediate	3,0,0,0,0,0,1,0,0	test	ward_and_allport	3,1,0,2,0,0,0,0,0	82.0	2.0	1.356	0,0,0,0,0,0,1,2,3	to_hand	s615
53.695	0.442	0	PA_without_intermediate	3,0,0,2,0,0,1,0,0	test	ward_and_allport	3,1,0,2,0,0,0,0,0	71.0	2.0	0.442	0,0,0,0,0,0,1,2,3	to_board	s615
54.14	0.523	0	PA_without_intermediate	3,0,0,2,0,0,0,0,0	test	ward_and_allport	3,1,0,2,0,0,0,0,0	82.0	2.0	0.523	0,0,0,0,0,0,1,2,3	to_hand	s615
54.664	0.397	0	PA_without_intermediate	3,1,0,2,0,0,0,0,0	test	ward_and_allport	3,1,0,2,0,0,0,0,0	89.0	2.0	0.397	0,0,0,0,0,0,1,2,3	to_board	s615
55.064	1.0	0	PA_without_intermediate	n/a	test	ward_and_allport	n/a	-1.0	2.0	n/a	n/a	feedback	s615
56.064	1.0	0	PA_without_intermediate	n/a	test	ward_and_allport	n/a	-1.0	2.0	n/a	n/a	ITI	s615
57.067	1.71	1	PA_without_intermediate	0,0,0,1,2,0,0,0,0	test	ward_and_allport	3,1,0,0,0,0,2,0,0	71.0	3.0	1.71	0,0,0,1,2,3,0,0,0	to_hand	s615
58.779	0.617	0	PA_without_intermediate	3,0,0,1,2,0,0,0,0	test	ward_and_allport	3,1,0,0,0,0,2,0,0	89.0	3.0	0.617	0,0,0,1,2,3,0,0,0	to_board	s615
59.399	0.616	0	PA_without_intermediate	3,0,0,1,0,0,0,0,0	test	ward_and_allport	3,1,0,0,0,0,2,0,0	71.0	3.0	0.616	0,0,0,1,2,3,0,0,0	to_hand	s615
60.017	0.368	0	PA_without_intermediate	3,0,0,1,0,0,2,0,0	test	ward_and_allport	3,1,0,0,0,0,2,0,0	82.0	3.0	0.368	0,0,0,1,2,3,0,0,0	to_board	s615
60.388	0.525	0	PA_without_intermediate	3,0,0,0,0,0,2,0,0	test	ward_and_allport	3,1,0,0,0,0,2,0,0	71.0	3.0	0.525	0,0,0,1,2,3,0,0,0	to_hand	s615
60.914	0.327	0	PA_without_intermediate	3,1,0,0,0,0,2,0,0	test	ward_and_allport	3,1,0,0,0,0,2,0,0	89.0	3.0	0.327	0,0,0,1,2,3,0,0,0	to_board	s615
61.244	1.0	0	PA_without_intermediate	n/a	test	ward_and_allport	n/a	-1.0	3.0	n/a	n/a	feedback	s615
62.244	1.0	0	PA_without_intermediate	n/a	test	ward_and_allport	n/a	-1.0	3.0	n/a	n/a	ITI	s615
63.247	1.855	1	PA_with_intermediate	0,0,0,1,2,0,0,0,0	test	ward_and_allport	2,0,0,1,3,0,0,0,0	71.0	4.0	1.855	0,0,0,1,2,3,0,0,0	to_hand	s615
65.103	0.567	0	PA_with_intermediate	0,0,0,1,2,0,3,0,0	test	ward_and_allport	2,0,0,1,3,0,0,0,0	82.0	4.0	0.567	0,0,0,1,2,3,0,0,0	to_board	s615
65.674	0.586	0	PA_with_intermediate	0,0,0,1,0,0,3,0,0	test	ward_and_allport	2,0,0,1,3,0,0,0,0	71.0	4.0	0.586	0,0,0,1,2,3,0,0,0	to_hand	s615
66.262	0.373	0	PA_with_intermediate	2,0,0,1,0,0,3,0,0	test	ward_and_allport	2,0,0,1,3,0,0,0,0	89.0	4.0	0.373	0,0,0,1,2,3,0,0,0	to_board	s615
66.638	0.371	0	PA_with_intermediate	2,0,0,1,0,0,0,0,0	test	ward_and_allport	2,0,0,1,3,0,0,0,0	82.0	4.0	0.371	0,0,0,1,2,3,0,0,0	to_hand	s615
67.01	0.447	0	PA_with_intermediate	2,0,0,1,3,0,0,0,0	test	ward_and_allport	2,0,0,1,3,0,0,0,0	71.0	4.0	0.447	0,0,0,1,2,3,0,0,0	to_board	s615
67.463	1.0	0	PA_with_intermediate	n/a	test	ward_and_allport	n/a	-1.0	4.0	n/a	n/a	feedback	s615
68.463	1.544	0	PA_with_intermediate	n/a	test	ward_and_allport	n/a	-1.0	4.0	n/a	n/a	ITI	s615
70.011	0.751	1	PA_without_intermediate	0,0,0,1,2,0,0,0,0	test	ward_and_allport	1,0,0,0,0,0,3,2,0	71.0	5.0	0.751	0,0,0,1,2,3,0,0,0	to_hand	s615
70.763	0.57	0	PA_without_intermediate	0,0,0,1,2,0,3,0,0	test	ward_and_allport	1,0,0,0,0,0,3,2,0	82.0	5.0	0.57	0,0,0,1,2,3,0,0,0	to_board	s615
71.337	0.404	0	PA_without_intermediate	0,0,0,1,0,0,3,0,0	test	ward_and_allport	1,0,0,0,0,0,3,2,0	71.0	5.0	0.404	0,0,0,1,2,3,0,0,0	to_hand	s615
71.741	0.394	0	PA_without_intermediate	0,0,0,1,0,0,3,2,0	test	ward_and_allport	1,0,0,0,0,0,3,2,0	82.0	5.0	0.394	0,0,0,1,2,3,0,0,0	to_board	s615
72.139	0.548	0	PA_without_intermediate	0,0,0,0,0,0,3,2,0	test	ward_and_allport	1,0,0,0,0,0,3,2,0	71.0	5.0	0.548	0,0,0,1,2,3,0,0,0	to_hand	s615
72.689	0.343	0	PA_without_intermediate	1,0,0,0,0,0,3,2,0	test	ward_and_allport	1,0,0,0,0,0,3,2,0	89.0	5.0	0.343	0,0,0,1,2,3,0,0,0	to_board	s615
73.036	1.0	0	PA_without_intermediate	n/a	test	ward_and_allport	n/a	-1.0	5.0	n/a	n/a	feedback	s615
74.036	1.272	0	PA_without_intermediate	n/a	test	ward_and_allport	n/a	-1.0	5.0	n/a	n/a	ITI	s615
75.312	0.779	1	PA_with_intermediate	0,0,0,1,2,0,0,0,0	test	ward_and_allport	2,0,0,1,3,0,0,0,0	71.0	6.0	0.779	0,0,0,1,2,3,0,0,0	to_hand	s615
76.092	0.993	0	PA_with_intermediate	0,0,0,1,2,0,3,0,0	test	ward_and_allport	2,0,0,1,3,0,0,0,0	82.0	6.0	0.993	0,0,0,1,2,3,0,0,0	to_board	s615
77.089	0.388	0	PA_with_intermediate	0,0,0,1,0,0,3,0,0	test	ward_and_allport	2,0,0,1,3,0,0,0,0	71.0	6.0	0.388	0,0,0,1,2,3,0,0,0	to_hand	s615
77.478	0.37	0	PA_with_intermediate	2,0,0,1,0,0,3,0,0	test	ward_and_allport	2,0,0,1,3,0,0,0,0	89.0	6.0	0.37	0,0,0,1,2,3,0,0,0	to_board	s615
77.853	0.82	0	PA_with_intermediate	2,0,0,1,0,0,0,0,0	test	ward_and_allport	2,0,0,1,3,0,0,0,0	82.0	6.0	0.82	0,0,0,1,2,3,0,0,0	to_hand	s615
78.675	0.334	0	PA_with_intermediate	2,0,0,1,3,0,0,0,0	test	ward_and_allport	2,0,0,1,3,0,0,0,0	71.0	6.0	0.334	0,0,0,1,2,3,0,0,0	to_board	s615
79.018	1.0	0	PA_with_intermediate	n/a	test	ward_and_allport	n/a	-1.0	6.0	n/a	n/a	feedback	s615
80.018	3.04	0	PA_with_intermediate	n/a	test	ward_and_allport	n/a	-1.0	6.0	n/a	n/a	ITI	s615
83.061	1.285	1	PA_with_intermediate	0,0,0,0,0,0,1,2,0	test	ward_and_allport	0,0,0,2,0,0,1,3,0	82.0	7.0	1.285	0,0,0,0,0,0,1,2,3	to_hand	s615
84.347	0.948	0	PA_with_intermediate	3,0,0,0,0,0,1,2,0	test	ward_and_allport	0,0,0,2,0,0,1,3,0	89.0	7.0	0.948	0,0,0,0,0,0,1,2,3	to_board	s615
85.299	0.941	0	PA_with_intermediate	3,0,0,0,0,0,1,0,0	test	ward_and_allport	0,0,0,2,0,0,1,3,0	82.0	7.0	0.941	0,0,0,0,0,0,1,2,3	to_hand	s615
86.241	0.41	0	PA_with_intermediate	3,0,0,2,0,0,1,0,0	test	ward_and_allport	0,0,0,2,0,0,1,3,0	71.0	7.0	0.41	0,0,0,0,0,0,1,2,3	to_board	s615
86.654	0.802	0	PA_with_intermediate	0,0,0,2,0,0,1,0,0	test	ward_and_allport	0,0,0,2,0,0,1,3,0	89.0	7.0	0.802	0,0,0,0,0,0,1,2,3	to_hand	s615
87.457	0.469	0	PA_with_intermediate	0,0,0,2,0,0,1,3,0	test	ward_and_allport	0,0,0,2,0,0,1,3,0	82.0	7.0	0.469	0,0,0,0,0,0,1,2,3	to_board	s615
87.933	1.0	0	PA_with_intermediate	n/a	test	ward_and_allport	n/a	-1.0	7.0	n/a	n/a	feedback	s615
88.933	1.272	0	PA_with_intermediate	n/a	test	ward_and_allport	n/a	-1.0	7.0	n/a	n/a	ITI	s615
90.209	2.144	1	PA_with_intermediate	0,0,0,0,0,0,1,2,0	test	ward_and_allport	2,3,0,0,0,0,1,0,0	82.0	8.0	2.144	0,0,0,0,0,0,1,2,3	to_hand	s615
92.354	0.523	0	PA_with_intermediate	0,0,0,3,0,0,1,2,0	test	ward_and_allport	2,3,0,0,0,0,1,0,0	71.0	8.0	0.523	0,0,0,0,0,0,1,2,3	to_board	s615
92.881	0.995	0	PA_with_intermediate	0,0,0,3,0,0,1,0,0	test	ward_and_allport	2,3,0,0,0,0,1,0,0	82.0	8.0	0.995	0,0,0,0,0,0,1,2,3	to_hand	s615
93.878	0.427	0	PA_with_intermediate	2,0,0,3,0,0,1,0,0	test	ward_and_allport	2,3,0,0,0,0,1,0,0	89.0	8.0	0.427	0,0,0,0,0,0,1,2,3	to_board	s615
94.309	0.557	0	PA_with_intermediate	2,0,0,0,0,0,1,0,0	test	ward_and_allport	2,3,0,0,0,0,1,0,0	71.0	8.0	0.557	0,0,0,0,0,0,1,2,3	to_hand	s615
94.867	0.403	0	PA_with_intermediate	2,3,0,0,0,0,1,0,0	test	ward_and_allport	2,3,0,0,0,0,1,0,0	89.0	8.0	0.403	0,0,0,0,0,0,1,2,3	to_board	s615
95.279	1.0	0	PA_with_intermediate	n/a	test	ward_and_allport	n/a	-1.0	8.0	n/a	n/a	feedback	s615
96.279	1.136	0	PA_with_intermediate	n/a	test	ward_and_allport	n/a	-1.0	8.0	n/a	n/a	ITI	s615
97.42	2.699	1	PA_with_intermediate	1,2,0,0,0,0,0,0,0	test	ward_and_allport	1,0,0,2,3,0,0,0,0	89.0	9.0	2.699	1,2,3,0,0,0,0,0,0	to_hand	s615
100.121	0.408	0	PA_with_intermediate	1,2,0,0,0,0,3,0,0	test	ward_and_allport	1,0,0,2,3,0,0,0,0	82.0	9.0	0.408	1,2,3,0,0,0,0,0,0	to_board	s615
100.533	0.89	0	PA_with_intermediate	1,0,0,0,0,0,3,0,0	test	ward_and_allport	1,0,0,2,3,0,0,0,0	89.0	9.0	0.89	1,2,3,0,0,0,0,0,0	to_hand	s615
101.424	0.378	0	PA_with_intermediate	1,0,0,2,0,0,3,0,0	test	ward_and_allport	1,0,0,2,3,0,0,0,0	71.0	9.0	0.378	1,2,3,0,0,0,0,0,0	to_board	s615
101.807	0.697	0	PA_with_intermediate	1,0,0,2,0,0,0,0,0	test	ward_and_allport	1,0,0,2,3,0,0,0,0	82.0	9.0	0.697	1,2,3,0,0,0,0,0,0	to_hand	s615
102.505	0.734	0	PA_with_intermediate	1,0,0,2,3,0,0,0,0	test	ward_and_allport	1,0,0,2,3,0,0,0,0	71.0	9.0	0.734	1,2,3,0,0,0,0,0,0	to_board	s615
103.245	1.0	0	PA_with_intermediate	n/a	test	ward_and_allport	n/a	-1.0	9.0	n/a	n/a	feedback	s615
104.245	1.0	0	PA_with_intermediate	n/a	test	ward_and_allport	n/a	-1.0	9.0	n/a	n/a	ITI	s615
105.25	1.904	1	PA_with_intermediate	0,0,0,0,0,0,1,2,0	test	ward_and_allport	0,0,0,2,0,0,1,3,0	82.0	10.0	1.904	0,0,0,0,0,0,1,2,3	to_hand	s615
107.156	0.482	0	PA_with_intermediate	3,0,0,0,0,0,1,2,0	test	ward_and_allport	0,0,0,2,0,0,1,3,0	89.0	10.0	0.482	0,0,0,0,0,0,1,2,3	to_board	s615
107.643	0.711	0	PA_with_intermediate	3,0,0,0,0,0,1,0,0	test	ward_and_allport	0,0,0,2,0,0,1,3,0	82.0	10.0	0.711	0,0,0,0,0,0,1,2,3	to_hand	s615
108.357	0.376	0	PA_with_intermediate	3,0,0,2,0,0,1,0,0	test	ward_and_allport	0,0,0,2,0,0,1,3,0	71.0	10.0	0.376	0,0,0,0,0,0,1,2,3	to_board	s615
108.739	0.706	0	PA_with_intermediate	0,0,0,2,0,0,1,0,0	test	ward_and_allport	0,0,0,2,0,0,1,3,0	89.0	10.0	0.706	0,0,0,0,0,0,1,2,3	to_hand	s615
109.446	0.434	0	PA_with_intermediate	0,0,0,2,0,0,1,3,0	test	ward_and_allport	0,0,0,2,0,0,1,3,0	82.0	10.0	0.434	0,0,0,0,0,0,1,2,3	to_board	s615
109.89	1.0	0	PA_with_intermediate	n/a	test	ward_and_allport	n/a	-1.0	10.0	n/a	n/a	feedback	s615
110.89	1.0	0	PA_with_intermediate	n/a	test	ward_and_allport	n/a	-1.0	10.0	n/a	n/a	ITI	s615
111.894	1.177	1	PA_without_intermediate	0,0,0,0,0,0,1,2,0	test	ward_and_allport	3,1,0,2,0,0,0,0,0	82.0	11.0	1.177	0,0,0,0,0,0,1,2,3	to_hand	s615
113.074	0.853	0	PA_without_intermediate	3,0,0,0,0,0,1,2,0	test	ward_and_allport	3,1,0,2,0,0,0,0,0	89.0	11.0	0.853	0,0,0,0,0,0,1,2,3	to_board	s615
113.933	0.922	0	PA_without_intermediate	3,0,0,0,0,0,1,0,0	test	ward_and_allport	3,1,0,2,0,0,0,0,0	82.0	11.0	0.922	0,0,0,0,0,0,1,2,3	to_hand	s615
114.855	0.482	0	PA_without_intermediate	3,0,0,2,0,0,1,0,0	test	ward_and_allport	3,1,0,2,0,0,0,0,0	71.0	11.0	0.482	0,0,0,0,0,0,1,2,3	to_board	s615
115.343	0.609	0	PA_without_intermediate	3,0,0,2,0,0,0,0,0	test	ward_and_allport	3,1,0,2,0,0,0,0,0	82.0	11.0	0.609	0,0,0,0,0,0,1,2,3	to_hand	s615
115.953	0.429	0	PA_without_intermediate	3,1,0,2,0,0,0,0,0	test	ward_and_allport	3,1,0,2,0,0,0,0,0	89.0	11.0	0.429	0,0,0,0,0,0,1,2,3	to_board	s615
116.389	1.0	0	PA_without_intermediate	n/a	test	ward_and_allport	n/a	-1.0	11.0	n/a	n/a	feedback	s615
117.389	1.408	0	PA_without_intermediate	n/a	test	ward_and_allport	n/a	-1.0	11.0	n/a	n/a	ITI	s615
118.802	1.768	1	PA_with_intermediate	1,2,0,0,0,0,0,0,0	test	ward_and_allport	1,3,0,2,0,0,0,0,0	89.0	12.0	1.768	1,2,3,0,0,0,0,0,0	to_hand	s615
120.572	0.87	0	PA_with_intermediate	1,2,0,0,0,0,3,0,0	test	ward_and_allport	1,3,0,2,0,0,0,0,0	82.0	12.0	0.87	1,2,3,0,0,0,0,0,0	to_board	s615
121.448	0.81	0	PA_with_intermediate	1,0,0,0,0,0,3,0,0	test	ward_and_allport	1,3,0,2,0,0,0,0,0	89.0	12.0	0.81	1,2,3,0,0,0,0,0,0	to_hand	s615
122.259	0.408	0	PA_with_intermediate	1,0,0,2,0,0,3,0,0	test	ward_and_allport	1,3,0,2,0,0,0,0,0	71.0	12.0	0.408	1,2,3,0,0,0,0,0,0	to_board	s615
122.672	0.706	0	PA_with_intermediate	1,0,0,2,0,0,0,0,0	test	ward_and_allport	1,3,0,2,0,0,0,0,0	82.0	12.0	0.706	1,2,3,0,0,0,0,0,0	to_hand	s615
123.379	0.383	0	PA_with_intermediate	1,3,0,2,0,0,0,0,0	test	ward_and_allport	1,3,0,2,0,0,0,0,0	89.0	12.0	0.383	1,2,3,0,0,0,0,0,0	to_board	s615
123.771	1.0	0	PA_with_intermediate	n/a	test	ward_and_allport	n/a	-1.0	12.0	n/a	n/a	feedback	s615
124.771	2.768	0	PA_with_intermediate	n/a	test	ward_and_allport	n/a	-1.0	12.0	n/a	n/a	ITI	s615
127.544	1.758	1	PA_with_intermediate	0,0,0,0,0,0,1,2,0	test	ward_and_allport	2,0,0,0,0,0,1,3,0	82.0	13.0	1.758	0,0,0,0,0,0,1,2,3	to_hand	s615
129.303	0.511	0	PA_with_intermediate	0,0,0,3,0,0,1,2,0	test	ward_and_allport	2,0,0,0,0,0,1,3,0	71.0	13.0	0.511	0,0,0,0,0,0,1,2,3	to_board	s615
129.819	0.709	0	PA_with_intermediate	0,0,0,3,0,0,1,0,0	test	ward_and_allport	2,0,0,0,0,0,1,3,0	82.0	13.0	0.709	0,0,0,0,0,0,1,2,3	to_hand	s615
130.53	0.451	0	PA_with_intermediate	2,0,0,3,0,0,1,0,0	test	ward_and_allport	2,0,0,0,0,0,1,3,0	89.0	13.0	0.451	0,0,0,0,0,0,1,2,3	to_board	s615
130.987	0.64	0	PA_with_intermediate	2,0,0,0,0,0,1,0,0	test	ward_and_allport	2,0,0,0,0,0,1,3,0	71.0	13.0	0.64	0,0,0,0,0,0,1,2,3	to_hand	s615
131.629	0.458	0	PA_with_intermediate	2,0,0,0,0,0,1,3,0	test	ward_and_allport	2,0,0,0,0,0,1,3,0	82.0	13.0	0.458	0,0,0,0,0,0,1,2,3	to_board	s615
132.096	1.0	0	PA_with_intermediate	n/a	test	ward_and_allport	n/a	-1.0	13.0	n/a	n/a	feedback	s615
133.096	1.68	0	PA_with_intermediate	n/a	test	ward_and_allport	n/a	-1.0	13.0	n/a	n/a	ITI	s615
134.782	2.513	1	PA_without_intermediate	0,0,0,0,0,0,1,2,0	test	ward_and_allport	2,0,0,3,1,0,0,0,0	82.0	14.0	2.513	0,0,0,0,0,0,1,2,3	to_hand	s615
137.296	0.505	0	PA_without_intermediate	0,0,0,3,0,0,1,2,0	test	ward_and_allport	2,0,0,3,1,0,0,0,0	71.0	14.0	0.505	0,0,0,0,0,0,1,2,3	to_board	s615
137.807	0.491	0	PA_without_intermediate	0,0,0,3,0,0,1,0,0	test	ward_and_allport	2,0,0,3,1,0,0,0,0	82.0	14.0	0.491	0,0,0,0,0,0,1,2,3	to_hand	s615
138.299	0.467	0	PA_without_intermediate	2,0,0,3,0,0,1,0,0	test	ward_and_allport	2,0,0,3,1,0,0,0,0	89.0	14.0	0.467	0,0,0,0,0,0,1,2,3	to_board	s615
138.772	0.514	0	PA_without_intermediate	2,0,0,3,0,0,0,0,0	test	ward_and_allport	2,0,0,3,1,0,0,0,0	82.0	14.0	0.514	0,0,0,0,0,0,1,2,3	to_hand	s615
139.288	0.464	0	PA_without_intermediate	2,0,0,3,1,0,0,0,0	test	ward_and_allport	2,0,0,3,1,0,0,0,0	71.0	14.0	0.464	0,0,0,0,0,0,1,2,3	to_board	s615
139.759	1.0	0	PA_without_intermediate	n/a	test	ward_and_allport	n/a	-1.0	14.0	n/a	n/a	feedback	s615
140.759	2.224	0	PA_without_intermediate	n/a	test	ward_and_allport	n/a	-1.0	14.0	n/a	n/a	ITI	s615
147.991	2.064	1	PA_without_intermediate	1,2,0,0,0,0,0,0,0	test	ward_and_allport	0,0,0,3,2,0,1,0,0	89.0	15.0	2.064	1,2,3,0,0,0,0,0,0	to_hand	s615
150.056	0.508	0	PA_without_intermediate	1,2,0,3,0,0,0,0,0	test	ward_and_allport	0,0,0,3,2,0,1,0,0	71.0	15.0	0.508	1,2,3,0,0,0,0,0,0	to_board	s615
150.571	0.414	0	PA_without_intermediate	1,0,0,3,0,0,0,0,0	test	ward_and_allport	0,0,0,3,2,0,1,0,0	89.0	15.0	0.414	1,2,3,0,0,0,0,0,0	to_hand	s615
150.985	0.489	0	PA_without_intermediate	1,0,0,3,2,0,0,0,0	test	ward_and_allport	0,0,0,3,2,0,1,0,0	71.0	15.0	0.489	1,2,3,0,0,0,0,0,0	to_board	s615
151.479	0.483	0	PA_without_intermediate	0,0,0,3,2,0,0,0,0	test	ward_and_allport	0,0,0,3,2,0,1,0,0	89.0	15.0	0.483	1,2,3,0,0,0,0,0,0	to_hand	s615
151.964	0.477	0	PA_without_intermediate	0,0,0,3,2,0,1,0,0	test	ward_and_allport	0,0,0,3,2,0,1,0,0	82.0	15.0	0.477	1,2,3,0,0,0,0,0,0	to_board	s615
152.447	1.0	0	PA_without_intermediate	n/a	test	ward_and_allport	n/a	-1.0	15.0	n/a	n/a	feedback	s615
153.447	2.36	0	PA_without_intermediate	n/a	test	ward_and_allport	n/a	-1.0	15.0	n/a	n/a	ITI	s615
155.812	1.545	1	PA_without_intermediate	0,0,0,0,0,0,1,2,0	test	ward_and_allport	1,0,0,3,2,0,0,0,0	82.0	16.0	1.545	0,0,0,0,0,0,1,2,3	to_hand	s615
157.358	0.409	0	PA_without_intermediate	0,0,0,3,0,0,1,2,0	test	ward_and_allport	1,0,0,3,2,0,0,0,0	71.0	16.0	0.409	0,0,0,0,0,0,1,2,3	to_board	s615
157.772	0.437	0	PA_without_intermediate	0,0,0,3,0,0,1,0,0	test	ward_and_allport	1,0,0,3,2,0,0,0,0	82.0	16.0	0.437	0,0,0,0,0,0,1,2,3	to_hand	s615
158.21	0.455	0	PA_without_intermediate	0,0,0,3,2,0,1,0,0	test	ward_and_allport	1,0,0,3,2,0,0,0,0	71.0	16.0	0.455	0,0,0,0,0,0,1,2,3	to_board	s615
158.67	0.375	0	PA_without_intermediate	0,0,0,3,2,0,0,0,0	test	ward_and_allport	1,0,0,3,2,0,0,0,0	82.0	16.0	0.375	0,0,0,0,0,0,1,2,3	to_hand	s615
159.046	0.421	0	PA_without_intermediate	1,0,0,3,2,0,0,0,0	test	ward_and_allport	1,0,0,3,2,0,0,0,0	89.0	16.0	0.421	0,0,0,0,0,0,1,2,3	to_board	s615
159.474	1.0	0	PA_without_intermediate	n/a	test	ward_and_allport	n/a	-1.0	16.0	n/a	n/a	feedback	s615
160.474	1.0	0	PA_without_intermediate	n/a	test	ward_and_allport	n/a	-1.0	16.0	n/a	n/a	ITI	s615
161.48	1.69	1	PA_without_intermediate	1,2,0,0,0,0,0,0,0	test	ward_and_allport	0,0,0,3,1,0,2,0,0	89.0	17.0	1.69	1,2,3,0,0,0,0,0,0	to_hand	s615
163.171	0.396	0	PA_without_intermediate	1,2,0,3,0,0,0,0,0	test	ward_and_allport	0,0,0,3,1,0,2,0,0	71.0	17.0	0.396	1,2,3,0,0,0,0,0,0	to_board	s615
163.573	0.761	0	PA_without_intermediate	1,0,0,3,0,0,0,0,0	test	ward_and_allport	0,0,0,3,1,0,2,0,0	89.0	17.0	0.761	1,2,3,0,0,0,0,0,0	to_hand	s615
164.335	0.368	0	PA_without_intermediate	1,0,0,3,0,0,2,0,0	test	ward_and_allport	0,0,0,3,1,0,2,0,0	82.0	17.0	0.368	1,2,3,0,0,0,0,0,0	to_board	s615
164.709	0.47	0	PA_without_intermediate	0,0,0,3,0,0,2,0,0	test	ward_and_allport	0,0,0,3,1,0,2,0,0	89.0	17.0	0.47	1,2,3,0,0,0,0,0,0	to_hand	s615
165.181	0.493	0	PA_without_intermediate	0,0,0,3,1,0,2,0,0	test	ward_and_allport	0,0,0,3,1,0,2,0,0	71.0	17.0	0.493	1,2,3,0,0,0,0,0,0	to_board	s615
165.682	1.0	0	PA_without_intermediate	n/a	test	ward_and_allport	n/a	-1.0	17.0	n/a	n/a	feedback	s615
166.682	1.408	0	PA_without_intermediate	n/a	test	ward_and_allport	n/a	-1.0	17.0	n/a	n/a	ITI	s615
168.095	1.557	1	PA_with_intermediate	1,2,0,0,0,0,0,0,0	test	ward_and_allport	1,3,0,0,0,0,2,0,0	89.0	18.0	1.557	1,2,3,0,0,0,0,0,0	to_hand	s615
169.654	0.534	0	PA_with_intermediate	1,2,0,3,0,0,0,0,0	test	ward_and_allport	1,3,0,0,0,0,2,0,0	71.0	18.0	0.534	1,2,3,0,0,0,0,0,0	to_board	s615
170.195	0.459	0	PA_with_intermediate	1,0,0,3,0,0,0,0,0	test	ward_and_allport	1,3,0,0,0,0,2,0,0	89.0	18.0	0.459	1,2,3,0,0,0,0,0,0	to_hand	s615
170.655	0.444	0	PA_with_intermediate	1,0,0,3,0,0,2,0,0	test	ward_and_allport	1,3,0,0,0,0,2,0,0	82.0	18.0	0.444	1,2,3,0,0,0,0,0,0	to_board	s615
171.105	0.781	0	PA_with_intermediate	1,0,0,0,0,0,2,0,0	test	ward_and_allport	1,3,0,0,0,0,2,0,0	71.0	18.0	0.781	1,2,3,0,0,0,0,0,0	to_hand	s615
171.888	0.385	0	PA_with_intermediate	1,3,0,0,0,0,2,0,0	test	ward_and_allport	1,3,0,0,0,0,2,0,0	89.0	18.0	0.385	1,2,3,0,0,0,0,0,0	to_board	s615
172.279	1.0	0	PA_with_intermediate	n/a	test	ward_and_allport	n/a	-1.0	18.0	n/a	n/a	feedback	s615
173.279	1.136	0	PA_with_intermediate	n/a	test	ward_and_allport	n/a	-1.0	18.0	n/a	n/a	ITI	s615
174.421	1.949	1	PA_without_intermediate	1,2,0,0,0,0,0,0,0	test	ward_and_allport	0,0,0,1,0,0,3,2,0	89.0	19.0	1.949	1,2,3,0,0,0,0,0,0	to_hand	s615
176.372	0.4	0	PA_without_intermediate	1,2,0,0,0,0,3,0,0	test	ward_and_allport	0,0,0,1,0,0,3,2,0	82.0	19.0	0.4	1,2,3,0,0,0,0,0,0	to_board	s615
176.779	0.965	0	PA_without_intermediate	1,0,0,0,0,0,3,0,0	test	ward_and_allport	0,0,0,1,0,0,3,2,0	89.0	19.0	0.965	1,2,3,0,0,0,0,0,0	to_hand	s615
177.744	0.559	0	PA_without_intermediate	1,0,0,0,0,0,3,2,0	test	ward_and_allport	0,0,0,1,0,0,3,2,0	82.0	19.0	0.559	1,2,3,0,0,0,0,0,0	to_board	s615
178.308	0.754	0	PA_without_intermediate	0,0,0,0,0,0,3,2,0	test	ward_and_allport	0,0,0,1,0,0,3,2,0	89.0	19.0	0.754	1,2,3,0,0,0,0,0,0	to_hand	s615
179.063	0.401	0	PA_without_intermediate	0,0,0,1,0,0,3,2,0	test	ward_and_allport	0,0,0,1,0,0,3,2,0	71.0	19.0	0.401	1,2,3,0,0,0,0,0,0	to_board	s615
179.474	1.0	0	PA_without_intermediate	n/a	test	ward_and_allport	n/a	-1.0	19.0	n/a	n/a	feedback	s615
180.474	4.128	0	PA_without_intermediate	n/a	test	ward_and_allport	n/a	-1.0	19.0	n/a	n/a	ITI	s615
184.608	1.515	1	PA_without_intermediate	0,0,0,1,2,0,0,0,0	test	ward_and_allport	3,2,0,0,0,0,1,0,0	71.0	20.0	1.515	0,0,0,1,2,3,0,0,0	to_hand	s615
186.124	0.354	0	PA_without_intermediate	3,0,0,1,2,0,0,0,0	test	ward_and_allport	3,2,0,0,0,0,1,0,0	89.0	20.0	0.354	0,0,0,1,2,3,0,0,0	to_board	s615
186.483	0.356	0	PA_without_intermediate	3,0,0,1,0,0,0,0,0	test	ward_and_allport	3,2,0,0,0,0,1,0,0	71.0	20.0	0.356	0,0,0,1,2,3,0,0,0	to_hand	s615
186.841	0.332	0	PA_without_intermediate	3,2,0,1,0,0,0,0,0	test	ward_and_allport	3,2,0,0,0,0,1,0,0	89.0	20.0	0.332	0,0,0,1,2,3,0,0,0	to_board	s615
187.179	0.434	0	PA_without_intermediate	3,2,0,0,0,0,0,0,0	test	ward_and_allport	3,2,0,0,0,0,1,0,0	71.0	20.0	0.434	0,0,0,1,2,3,0,0,0	to_hand	s615
187.614	0.38	0	PA_without_intermediate	3,2,0,0,0,0,1,0,0	test	ward_and_allport	3,2,0,0,0,0,1,0,0	82.0	20.0	0.38	0,0,0,1,2,3,0,0,0	to_board	s615
188.002	1.0	0	PA_without_intermediate	n/a	test	ward_and_allport	n/a	-1.0	20.0	n/a	n/a	feedback	s615
189.002	1.136	0	PA_without_intermediate	n/a	test	ward_and_allport	n/a	-1.0	20.0	n/a	n/a	ITI	s615
190.144	1.698	1	PA_without_intermediate	1,2,0,0,0,0,0,0,0	test	ward_and_allport	0,0,0,1,0,0,3,2,0	89.0	21.0	1.698	1,2,3,0,0,0,0,0,0	to_hand	s615
191.843	0.391	0	PA_without_intermediate	1,2,0,0,0,0,3,0,0	test	ward_and_allport	0,0,0,1,0,0,3,2,0	82.0	21.0	0.391	1,2,3,0,0,0,0,0,0	to_board	s615
192.241	0.47	0	PA_without_intermediate	1,0,0,0,0,0,3,0,0	test	ward_and_allport	0,0,0,1,0,0,3,2,0	89.0	21.0	0.47	1,2,3,0,0,0,0,0,0	to_hand	s615
192.712	0.467	0	PA_without_intermediate	1,0,0,0,0,0,3,2,0	test	ward_and_allport	0,0,0,1,0,0,3,2,0	82.0	21.0	0.467	1,2,3,0,0,0,0,0,0	to_board	s615
193.185	0.451	0	PA_without_intermediate	0,0,0,0,0,0,3,2,0	test	ward_and_allport	0,0,0,1,0,0,3,2,0	89.0	21.0	0.451	1,2,3,0,0,0,0,0,0	to_hand	s615
193.638	0.367	0	PA_without_intermediate	0,0,0,1,0,0,3,2,0	test	ward_and_allport	0,0,0,1,0,0,3,2,0	71.0	21.0	0.367	1,2,3,0,0,0,0,0,0	to_board	s615
194.012	1.0	0	PA_without_intermediate	n/a	test	ward_and_allport	n/a	-1.0	21.0	n/a	n/a	feedback	s615
195.012	4.264	0	PA_without_intermediate	n/a	test	ward_and_allport	n/a	-1.0	21.0	n/a	n/a	ITI	s615
199.282	2.353	1	PA_with_intermediate	0,0,0,1,2,0,0,0,0	test	ward_and_allport	2,3,0,1,0,0,0,0,0	71.0	22.0	2.353	0,0,0,1,2,3,0,0,0	to_hand	s615
201.635	0.414	0	PA_with_intermediate	0,0,0,1,2,0,3,0,0	test	ward_and_allport	2,3,0,1,0,0,0,0,0	82.0	22.0	0.414	0,0,0,1,2,3,0,0,0	to_board	s615
202.056	0.397	0	PA_with_intermediate	0,0,0,1,0,0,3,0,0	test	ward_and_allport	2,3,0,1,0,0,0,0,0	71.0	22.0	0.397	0,0,0,1,2,3,0,0,0	to_hand	s615
202.455	0.327	0	PA_with_intermediate	2,0,0,1,0,0,3,0,0	test	ward_and_allport	2,3,0,1,0,0,0,0,0	89.0	22.0	0.327	0,0,0,1,2,3,0,0,0	to_board	s615
202.789	0.32	0	PA_with_intermediate	2,0,0,0,0,0,3,0,0	test	ward_and_allport	2,3,0,1,0,0,0,0,0	71.0	22.0	0.32	0,0,0,1,2,3,0,0,0	to_hand	s615
203.11	0.99	0	PA_with_intermediate	2,0,0,1,0,0,3,0,0	test	ward_and_allport	2,3,0,1,0,0,0,0,0	71.0	22.0	0.99	0,0,0,1,2,3,0,0,0	to_board	s615
204.108	0.741	0	PA_with_intermediate	2,0,0,1,0,0,0,0,0	test	ward_and_allport	2,3,0,1,0,0,0,0,0	82.0	22.0	0.741	0,0,0,1,2,3,0,0,0	to_hand	s615
204.851	0.303	0	PA_with_intermediate	2,3,0,1,0,0,0,0,0	test	ward_and_allport	2,3,0,1,0,0,0,0,0	89.0	22.0	0.303	0,0,0,1,2,3,0,0,0	to_board	s615
205.165	1.0	0	PA_with_intermediate	n/a	test	ward_and_allport	n/a	-1.0	22.0	n/a	n/a	feedback	s615
206.165	3.04	0	PA_with_intermediate	n/a	test	ward_and_allport	n/a	-1.0	22.0	n/a	n/a	ITI	s615
209.212	2.591	1	PA_with_intermediate	1,2,0,0,0,0,0,0,0	test	ward_and_allport	1,0,0,0,0,0,2,3,0	89.0	23.0	2.591	1,2,3,0,0,0,0,0,0	to_hand	s615
211.804	0.352	0	PA_with_intermediate	1,2,0,3,0,0,0,0,0	test	ward_and_allport	1,0,0,0,0,0,2,3,0	71.0	23.0	0.352	1,2,3,0,0,0,0,0,0	to_board	s615
212.164	0.504	0	PA_with_intermediate	1,0,0,3,0,0,0,0,0	test	ward_and_allport	1,0,0,0,0,0,2,3,0	89.0	23.0	0.504	1,2,3,0,0,0,0,0,0	to_hand	s615
212.67	0.809	0	PA_with_intermediate	1,0,0,3,0,0,2,0,0	test	ward_and_allport	1,0,0,0,0,0,2,3,0	82.0	23.0	0.809	1,2,3,0,0,0,0,0,0	to_board	s615
213.487	0.383	0	PA_with_intermediate	1,0,0,0,0,0,2,0,0	test	ward_and_allport	1,0,0,0,0,0,2,3,0	71.0	23.0	0.383	1,2,3,0,0,0,0,0,0	to_hand	s615
213.871	0.362	0	PA_with_intermediate	1,0,0,0,0,0,2,3,0	test	ward_and_allport	1,0,0,0,0,0,2,3,0	82.0	23.0	0.362	1,2,3,0,0,0,0,0,0	to_board	s615
214.243	1.0	0	PA_with_intermediate	n/a	test	ward_and_allport	n/a	-1.0	23.0	n/a	n/a	feedback	s615
215.243	1.136	0	PA_with_intermediate	n/a	test	ward_and_allport	n/a	-1.0	23.0	n/a	n/a	ITI	s615
216.387	1.689	1	PA_with_intermediate	0,0,0,1,2,0,0,0,0	test	ward_and_allport	0,0,0,1,0,0,2,3,0	71.0	24.0	1.689	0,0,0,1,2,3,0,0,0	to_hand	s615
218.077	0.441	0	PA_with_intermediate	3,0,0,1,2,0,0,0,0	test	ward_and_allport	0,0,0,1,0,0,2,3,0	89.0	24.0	0.441	0,0,0,1,2,3,0,0,0	to_board	s615
218.526	0.397	0	PA_with_intermediate	3,0,0,1,0,0,0,0,0	test	ward_and_allport	0,0,0,1,0,0,2,3,0	71.0	24.0	0.397	0,0,0,1,2,3,0,0,0	to_hand	s615
218.924	0.396	0	PA_with_intermediate	3,0,0,1,0,0,2,0,0	test	ward_and_allport	0,0,0,1,0,0,2,3,0	82.0	24.0	0.396	0,0,0,1,2,3,0,0,0	to_board	s615
219.328	0.487	0	PA_with_intermediate	0,0,0,1,0,0,2,0,0	test	ward_and_allport	0,0,0,1,0,0,2,3,0	89.0	24.0	0.487	0,0,0,1,2,3,0,0,0	to_hand	s615
219.817	0.423	0	PA_with_intermediate	0,0,0,1,0,0,2,3,0	test	ward_and_allport	0,0,0,1,0,0,2,3,0	82.0	24.0	0.423	0,0,0,1,2,3,0,0,0	to_board	s615
220.249	1.0	0	PA_with_intermediate	n/a	test	ward_and_allport	n/a	-1.0	24.0	n/a	n/a	feedback	s615
221.249	1.408	0	PA_with_intermediate	n/a	test	ward_and_allport	n/a	-1.0	24.0	n/a	n/a	ITI	s615
222.665	1.17	1	PA_without_intermediate	1,2,0,0,0,0,0,0,0	test	ward_and_allport	0,0,0,2,0,0,3,1,0	89.0	25.0	1.17	1,2,3,0,0,0,0,0,0	to_hand	s615
223.836	0.432	0	PA_without_intermediate	1,2,0,0,0,0,3,0,0	test	ward_and_allport	0,0,0,2,0,0,3,1,0	82.0	25.0	0.432	1,2,3,0,0,0,0,0,0	to_board	s615
224.277	0.54	0	PA_without_intermediate	1,0,0,0,0,0,3,0,0	test	ward_and_allport	0,0,0,2,0,0,3,1,0	89.0	25.0	0.54	1,2,3,0,0,0,0,0,0	to_hand	s615
224.819	0.597	0	PA_without_intermediate	1,0,0,2,0,0,3,0,0	test	ward_and_allport	0,0,0,2,0,0,3,1,0	71.0	25.0	0.597	1,2,3,0,0,0,0,0,0	to_board	s615
225.424	0.457	0	PA_without_intermediate	0,0,0,2,0,0,3,0,0	test	ward_and_allport	0,0,0,2,0,0,3,1,0	89.0	25.0	0.457	1,2,3,0,0,0,0,0,0	to_hand	s615
225.882	0.394	0	PA_without_intermediate	0,0,0,2,0,0,3,1,0	test	ward_and_allport	0,0,0,2,0,0,3,1,0	82.0	25.0	0.394	1,2,3,0,0,0,0,0,0	to_board	s615
226.286	1.0	0	PA_without_intermediate	n/a	test	ward_and_allport	n/a	-1.0	25.0	n/a	n/a	feedback	s615
227.286	1.68	0	PA_without_intermediate	n/a	test	ward_and_allport	n/a	-1.0	25.0	n/a	n/a	ITI	s615
228.975	1.243	1	PA_with_intermediate	0,0,0,1,2,0,0,0,0	test	ward_and_allport	0,0,0,1,3,0,2,0,0	71.0	26.0	1.243	0,0,0,1,2,3,0,0,0	to_hand	s615
230.219	0.455	0	PA_with_intermediate	3,0,0,1,2,0,0,0,0	test	ward_and_allport	0,0,0,1,3,0,2,0,0	89.0	26.0	0.455	0,0,0,1,2,3,0,0,0	to_board	s615
230.683	0.346	0	PA_with_intermediate	3,0,0,1,0,0,0,0,0	test	ward_and_allport	0,0,0,1,3,0,2,0,0	71.0	26.0	0.346	0,0,0,1,2,3,0,0,0	to_hand	s615
231.031	0.394	0	PA_with_intermediate	3,0,0,1,0,0,2,0,0	test	ward_and_allport	0,0,0,1,3,0,2,0,0	82.0	26.0	0.394	0,0,0,1,2,3,0,0,0	to_board	s615
231.434	0.332	0	PA_with_intermediate	0,0,0,1,0,0,2,0,0	test	ward_and_allport	0,0,0,1,3,0,2,0,0	89.0	26.0	0.332	0,0,0,1,2,3,0,0,0	to_hand	s615
231.768	0.337	0	PA_with_intermediate	0,0,0,1,3,0,2,0,0	test	ward_and_allport	0,0,0,1,3,0,2,0,0	71.0	26.0	0.337	0,0,0,1,2,3,0,0,0	to_board	s615
232.116	1.0	0	PA_with_intermediate	n/a	test	ward_and_allport	n/a	-1.0	26.0	n/a	n/a	feedback	s615
233.116	3.72	0	PA_with_intermediate	n/a	test	ward_and_allport	n/a	-1.0	26.0	n/a	n/a	ITI	s615
236.843	1.648	1	PA_without_intermediate	0,0,0,1,2,0,0,0,0	test	ward_and_allport	3,2,0,0,0,0,1,0,0	71.0	27.0	1.648	0,0,0,1,2,3,0,0,0	to_hand	s615
238.492	0.345	0	PA_without_intermediate	3,0,0,1,2,0,0,0,0	test	ward_and_allport	3,2,0,0,0,0,1,0,0	89.0	27.0	0.345	0,0,0,1,2,3,0,0,0	to_board	s615
238.846	0.301	0	PA_without_intermediate	3,0,0,1,0,0,0,0,0	test	ward_and_allport	3,2,0,0,0,0,1,0,0	71.0	27.0	0.301	0,0,0,1,2,3,0,0,0	to_hand	s615
239.149	0.347	0	PA_without_intermediate	3,2,0,1,0,0,0,0,0	test	ward_and_allport	3,2,0,0,0,0,1,0,0	89.0	27.0	0.347	0,0,0,1,2,3,0,0,0	to_board	s615
239.503	0.411	0	PA_without_intermediate	3,2,0,0,0,0,0,0,0	test	ward_and_allport	3,2,0,0,0,0,1,0,0	71.0	27.0	0.411	0,0,0,1,2,3,0,0,0	to_hand	s615
239.915	0.382	0	PA_without_intermediate	3,2,0,0,0,0,1,0,0	test	ward_and_allport	3,2,0,0,0,0,1,0,0	82.0	27.0	0.382	0,0,0,1,2,3,0,0,0	to_board	s615
240.308	1.0	0	PA_without_intermediate	n/a	test	ward_and_allport	n/a	-1.0	27.0	n/a	n/a	feedback	s615
241.308	2.224	0	PA_without_intermediate	n/a	test	ward_and_allport	n/a	-1.0	27.0	n/a	n/a	ITI	s615
243.541	1.199	1	PA_without_intermediate	0,0,0,0,0,0,1,2,0	test	ward_and_allport	3,2,0,1,0,0,0,0,0	82.0	28.0	1.199	0,0,0,0,0,0,1,2,3	to_hand	s615
244.741	0.354	0	PA_without_intermediate	3,0,0,0,0,0,1,2,0	test	ward_and_allport	3,2,0,1,0,0,0,0,0	89.0	28.0	0.354	0,0,0,0,0,0,1,2,3	to_board	s615
245.103	0.359	0	PA_without_intermediate	3,0,0,0,0,0,1,0,0	test	ward_and_allport	3,2,0,1,0,0,0,0,0	82.0	28.0	0.359	0,0,0,0,0,0,1,2,3	to_hand	s615
245.463	0.354	0	PA_without_intermediate	3,2,0,0,0,0,1,0,0	test	ward_and_allport	3,2,0,1,0,0,0,0,0	89.0	28.0	0.354	0,0,0,0,0,0,1,2,3	to_board	s615
245.826	0.897	0	PA_without_intermediate	3,2,0,0,0,0,0,0,0	test	ward_and_allport	3,2,0,1,0,0,0,0,0	82.0	28.0	0.897	0,0,0,0,0,0,1,2,3	to_hand	s615
246.725	0.325	0	PA_without_intermediate	3,2,0,1,0,0,0,0,0	test	ward_and_allport	3,2,0,1,0,0,0,0,0	71.0	28.0	0.325	0,0,0,0,0,0,1,2,3	to_board	s615
247.062	1.0	0	PA_without_intermediate	n/a	test	ward_and_allport	n/a	-1.0	28.0	n/a	n/a	feedback	s615
248.062	1.272	0	PA_without_intermediate	n/a	test	ward_and_allport	n/a	-1.0	28.0	n/a	n/a	ITI	s615
249.343	1.671	1	PA_with_intermediate	1,2,0,0,0,0,0,0,0	test	ward_and_allport	1,3,0,0,0,0,2,0,0	89.0	29.0	1.671	1,2,3,0,0,0,0,0,0	to_hand	s615
251.016	0.382	0	PA_with_intermediate	1,2,0,3,0,0,0,0,0	test	ward_and_allport	1,3,0,0,0,0,2,0,0	71.0	29.0	0.382	1,2,3,0,0,0,0,0,0	to_board	s615
251.408	0.332	0	PA_with_intermediate	1,0,0,3,0,0,0,0,0	test	ward_and_allport	1,3,0,0,0,0,2,0,0	89.0	29.0	0.332	1,2,3,0,0,0,0,0,0	to_hand	s615
251.741	0.324	0	PA_with_intermediate	1,0,0,3,0,0,2,0,0	test	ward_and_allport	1,3,0,0,0,0,2,0,0	82.0	29.0	0.324	1,2,3,0,0,0,0,0,0	to_board	s615
252.074	0.406	0	PA_with_intermediate	1,0,0,0,0,0,2,0,0	test	ward_and_allport	1,3,0,0,0,0,2,0,0	71.0	29.0	0.406	1,2,3,0,0,0,0,0,0	to_hand	s615
252.481	0.345	0	PA_with_intermediate	1,3,0,0,0,0,2,0,0	test	ward_and_allport	1,3,0,0,0,0,2,0,0	89.0	29.0	0.345	1,2,3,0,0,0,0,0,0	to_board	s615
252.839	1.0	0	PA_with_intermediate	n/a	test	ward_and_allport	n/a	-1.0	29.0	n/a	n/a	feedback	s615
253.839	2.632	0	PA_with_intermediate	n/a	test	ward_and_allport	n/a	-1.0	29.0	n/a	n/a	ITI	s615
261.483	1.319	1	PA_without_intermediate	1,2,0,0,0,0,0,0,0	test	ward_and_allport	0,0,0,2,0,0,3,1,0	89.0	30.0	1.319	1,2,3,0,0,0,0,0,0	to_hand	s615
262.804	0.48	0	PA_without_intermediate	1,2,0,0,0,0,3,0,0	test	ward_and_allport	0,0,0,2,0,0,3,1,0	82.0	30.0	0.48	1,2,3,0,0,0,0,0,0	to_board	s615
263.293	0.394	0	PA_without_intermediate	1,0,0,0,0,0,3,0,0	test	ward_and_allport	0,0,0,2,0,0,3,1,0	89.0	30.0	0.394	1,2,3,0,0,0,0,0,0	to_hand	s615
263.689	0.333	0	PA_without_intermediate	1,0,0,2,0,0,3,0,0	test	ward_and_allport	0,0,0,2,0,0,3,1,0	71.0	30.0	0.333	1,2,3,0,0,0,0,0,0	to_board	s615
264.031	0.296	0	PA_without_intermediate	0,0,0,2,0,0,3,0,0	test	ward_and_allport	0,0,0,2,0,0,3,1,0	89.0	30.0	0.296	1,2,3,0,0,0,0,0,0	to_hand	s615
264.329	0.273	0	PA_without_intermediate	0,0,0,2,0,0,3,1,0	test	ward_and_allport	0,0,0,2,0,0,3,1,0	82.0	30.0	0.273	1,2,3,0,0,0,0,0,0	to_board	s615
264.613	1.0	0	PA_without_intermediate	n/a	test	ward_and_allport	n/a	-1.0	30.0	n/a	n/a	feedback	s615
265.613	1.408	0	PA_without_intermediate	n/a	test	ward_and_allport	n/a	-1.0	30.0	n/a	n/a	ITI	s615
267.03	1.404	1	PA_without_intermediate	0,0,0,1,2,0,0,0,0	test	ward_and_allport	3,1,0,0,0,0,2,0,0	71.0	31.0	1.404	0,0,0,1,2,3,0,0,0	to_hand	s615
268.434	0.437	0	PA_without_intermediate	3,0,0,1,2,0,0,0,0	test	ward_and_allport	3,1,0,0,0,0,2,0,0	89.0	31.0	0.437	0,0,0,1,2,3,0,0,0	to_board	s615
268.881	0.386	0	PA_without_intermediate	3,0,0,1,0,0,0,0,0	test	ward_and_allport	3,1,0,0,0,0,2,0,0	71.0	31.0	0.386	0,0,0,1,2,3,0,0,0	to_hand	s615
269.267	0.386	0	PA_without_intermediate	3,0,0,1,0,0,2,0,0	test	ward_and_allport	3,1,0,0,0,0,2,0,0	82.0	31.0	0.386	0,0,0,1,2,3,0,0,0	to_board	s615
269.662	0.397	0	PA_without_intermediate	3,0,0,0,0,0,2,0,0	test	ward_and_allport	3,1,0,0,0,0,2,0,0	71.0	31.0	0.397	0,0,0,1,2,3,0,0,0	to_hand	s615
270.06	0.337	0	PA_without_intermediate	3,1,0,0,0,0,2,0,0	test	ward_and_allport	3,1,0,0,0,0,2,0,0	89.0	31.0	0.337	0,0,0,1,2,3,0,0,0	to_board	s615
270.413	1.0	0	PA_without_intermediate	n/a	test	ward_and_allport	n/a	-1.0	31.0	n/a	n/a	feedback	s615
271.413	1.0	0	PA_without_intermediate	n/a	test	ward_and_allport	n/a	-1.0	31.0	n/a	n/a	ITI	s615
272.422	1.931	1	PA_with_intermediate	0,0,0,0,0,0,1,2,0	test	ward_and_allport	0,0,0,2,3,0,1,0,0	82.0	32.0	1.931	0,0,0,0,0,0,1,2,3	to_hand	s615
274.354	0.427	0	PA_with_intermediate	3,0,0,0,0,0,1,2,0	test	ward_and_allport	0,0,0,2,3,0,1,0,0	89.0	32.0	0.427	0,0,0,0,0,0,1,2,3	to_board	s615
274.789	1.065	0	PA_with_intermediate	3,0,0,0,0,0,1,0,0	test	ward_and_allport	0,0,0,2,3,0,1,0,0	82.0	32.0	1.065	0,0,0,0,0,0,1,2,3	to_hand	s615
275.855	0.78	0	PA_with_intermediate	3,0,0,2,0,0,1,0,0	test	ward_and_allport	0,0,0,2,3,0,1,0,0	71.0	32.0	0.78	0,0,0,0,0,0,1,2,3	to_board	s615
276.645	0.319	0	PA_with_intermediate	0,0,0,2,0,0,1,0,0	test	ward_and_allport	0,0,0,2,3,0,1,0,0	89.0	32.0	0.319	0,0,0,0,0,0,1,2,3	to_hand	s615
276.965	0.227	0	PA_with_intermediate	0,0,0,2,3,0,1,0,0	test	ward_and_allport	0,0,0,2,3,0,1,0,0	71.0	32.0	0.227	0,0,0,0,0,0,1,2,3	to_board	s615
277.202	1.0	0	PA_with_intermediate	n/a	test	ward_and_allport	n/a	-1.0	32.0	n/a	n/a	feedback	s615
278.202	1.0	0	PA_with_intermediate	n/a	test	ward_and_allport	n/a	-1.0	32.0	n/a	n/a	ITI	s615
279.21	1.732	1	PA_with_intermediate	0,0,0,1,2,0,0,0,0	test	ward_and_allport	0,0,0,1,0,0,2,3,0	71.0	33.0	1.732	0,0,0,1,2,3,0,0,0	to_hand	s615
280.943	0.419	0	PA_with_intermediate	3,0,0,1,2,0,0,0,0	test	ward_and_allport	0,0,0,1,0,0,2,3,0	89.0	33.0	0.419	0,0,0,1,2,3,0,0,0	to_board	s615
281.37	0.365	0	PA_with_intermediate	3,0,0,1,0,0,0,0,0	test	ward_and_allport	0,0,0,1,0,0,2,3,0	71.0	33.0	0.365	0,0,0,1,2,3,0,0,0	to_hand	s615
281.736	0.377	0	PA_with_intermediate	3,0,0,1,0,0,2,0,0	test	ward_and_allport	0,0,0,1,0,0,2,3,0	82.0	33.0	0.377	0,0,0,1,2,3,0,0,0	to_board	s615
282.121	0.499	0	PA_with_intermediate	0,0,0,1,0,0,2,0,0	test	ward_and_allport	0,0,0,1,0,0,2,3,0	89.0	33.0	0.499	0,0,0,1,2,3,0,0,0	to_hand	s615
282.622	0.442	0	PA_with_intermediate	0,0,0,1,0,0,2,3,0	test	ward_and_allport	0,0,0,1,0,0,2,3,0	82.0	33.0	0.442	0,0,0,1,2,3,0,0,0	to_board	s615
283.074	1.0	0	PA_with_intermediate	n/a	test	ward_and_allport	n/a	-1.0	33.0	n/a	n/a	feedback	s615
284.074	1.0	0	PA_with_intermediate	n/a	test	ward_and_allport	n/a	-1.0	33.0	n/a	n/a	ITI	s615
285.082	1.737	1	PA_with_intermediate	1,2,0,0,0,0,0,0,0	test	ward_and_allport	1,0,0,2,3,0,0,0,0	89.0	34.0	1.737	1,2,3,0,0,0,0,0,0	to_hand	s615
286.82	0.397	0	PA_with_intermediate	1,2,0,0,0,0,3,0,0	test	ward_and_allport	1,0,0,2,3,0,0,0,0	82.0	34.0	0.397	1,2,3,0,0,0,0,0,0	to_board	s615
287.224	0.536	0	PA_with_intermediate	1,0,0,0,0,0,3,0,0	test	ward_and_allport	1,0,0,2,3,0,0,0,0	89.0	34.0	0.536	1,2,3,0,0,0,0,0,0	to_hand	s615
287.761	0.491	0	PA_with_intermediate	1,0,0,2,0,0,3,0,0	test	ward_and_allport	1,0,0,2,3,0,0,0,0	71.0	34.0	0.491	1,2,3,0,0,0,0,0,0	to_board	s615
288.262	0.43	0	PA_with_intermediate	1,0,0,2,0,0,0,0,0	test	ward_and_allport	1,0,0,2,3,0,0,0,0	82.0	34.0	0.43	1,2,3,0,0,0,0,0,0	to_hand	s615
288.694	0.349	0	PA_with_intermediate	1,0,0,2,3,0,0,0,0	test	ward_and_allport	1,0,0,2,3,0,0,0,0	71.0	34.0	0.349	1,2,3,0,0,0,0,0,0	to_board	s615
289.056	1.0	0	PA_with_intermediate	n/a	test	ward_and_allport	n/a	-1.0	34.0	n/a	n/a	feedback	s615
290.056	1.408	0	PA_with_intermediate	n/a	test	ward_and_allport	n/a	-1.0	34.0	n/a	n/a	ITI	s615
291.474	1.394	1	PA_without_intermediate	0,0,0,0,0,0,1,2,0	test	ward_and_allport	1,0,0,3,2,0,0,0,0	82.0	35.0	1.394	0,0,0,0,0,0,1,2,3	to_hand	s615
292.87	0.673	0	PA_without_intermediate	0,0,0,3,0,0,1,2,0	test	ward_and_allport	1,0,0,3,2,0,0,0,0	71.0	35.0	0.673	0,0,0,0,0,0,1,2,3	to_board	s615
293.551	0.373	0	PA_without_intermediate	0,0,0,3,0,0,1,0,0	test	ward_and_allport	1,0,0,3,2,0,0,0,0	82.0	35.0	0.373	0,0,0,0,0,0,1,2,3	to_hand	s615
293.926	0.359	0	PA_without_intermediate	0,0,0,3,2,0,1,0,0	test	ward_and_allport	1,0,0,3,2,0,0,0,0	71.0	35.0	0.359	0,0,0,0,0,0,1,2,3	to_board	s615
294.292	0.388	0	PA_without_intermediate	0,0,0,3,2,0,0,0,0	test	ward_and_allport	1,0,0,3,2,0,0,0,0	82.0	35.0	0.388	0,0,0,0,0,0,1,2,3	to_hand	s615
294.681	0.299	0	PA_without_intermediate	1,0,0,3,2,0,0,0,0	test	ward_and_allport	1,0,0,3,2,0,0,0,0	89.0	35.0	0.299	0,0,0,0,0,0,1,2,3	to_board	s615
294.989	1.0	0	PA_without_intermediate	n/a	test	ward_and_allport	n/a	-1.0	35.0	n/a	n/a	feedback	s615
295.989	1.816	0	PA_without_intermediate	n/a	test	ward_and_allport	n/a	-1.0	35.0	n/a	n/a	ITI	s615
297.815	1.998	1	PA_with_intermediate	0,0,0,1,2,0,0,0,0	test	ward_and_allport	2,3,0,1,0,0,0,0,0	71.0	36.0	1.998	0,0,0,1,2,3,0,0,0	to_hand	s615
299.813	0.388	0	PA_with_intermediate	0,0,0,1,2,0,3,0,0	test	ward_and_allport	2,3,0,1,0,0,0,0,0	82.0	36.0	0.388	0,0,0,1,2,3,0,0,0	to_board	s615
300.211	0.317	0	PA_with_intermediate	0,0,0,1,0,0,3,0,0	test	ward_and_allport	2,3,0,1,0,0,0,0,0	71.0	36.0	0.317	0,0,0,1,2,3,0,0,0	to_hand	s615
300.53	0.373	0	PA_with_intermediate	2,0,0,1,0,0,3,0,0	test	ward_and_allport	2,3,0,1,0,0,0,0,0	89.0	36.0	0.373	0,0,0,1,2,3,0,0,0	to_board	s615
300.915	0.338	0	PA_with_intermediate	2,0,0,1,0,0,0,0,0	test	ward_and_allport	2,3,0,1,0,0,0,0,0	82.0	36.0	0.338	0,0,0,1,2,3,0,0,0	to_hand	s615
301.254	0.332	0	PA_with_intermediate	2,3,0,1,0,0,0,0,0	test	ward_and_allport	2,3,0,1,0,0,0,0,0	89.0	36.0	0.332	0,0,0,1,2,3,0,0,0	to_board	s615
301.598	1.0	0	PA_with_intermediate	n/a	test	ward_and_allport	n/a	-1.0	36.0	n/a	n/a	feedback	s615
302.598	3.176	0	PA_with_intermediate	n/a	test	ward_and_allport	n/a	-1.0	36.0	n/a	n/a	ITI	s615
305.781	1.333	1	PA_with_intermediate	0,0,0,1,2,0,0,0,0	test	ward_and_allport	0,0,0,1,3,0,2,0,0	71.0	37.0	1.333	0,0,0,1,2,3,0,0,0	to_hand	s615
307.116	0.355	0	PA_with_intermediate	3,0,0,1,2,0,0,0,0	test	ward_and_allport	0,0,0,1,3,0,2,0,0	89.0	37.0	0.355	0,0,0,1,2,3,0,0,0	to_board	s615
307.479	0.306	0	PA_with_intermediate	3,0,0,1,0,0,0,0,0	test	ward_and_allport	0,0,0,1,3,0,2,0,0	71.0	37.0	0.306	0,0,0,1,2,3,0,0,0	to_hand	s615
307.786	0.317	0	PA_with_intermediate	3,0,0,1,0,0,2,0,0	test	ward_and_allport	0,0,0,1,3,0,2,0,0	82.0	37.0	0.317	0,0,0,1,2,3,0,0,0	to_board	s615
308.114	0.27	0	PA_with_intermediate	0,0,0,1,0,0,2,0,0	test	ward_and_allport	0,0,0,1,3,0,2,0,0	89.0	37.0	0.27	0,0,0,1,2,3,0,0,0	to_hand	s615
308.384	0.242	0	PA_with_intermediate	0,0,0,1,3,0,2,0,0	test	ward_and_allport	0,0,0,1,3,0,2,0,0	71.0	37.0	0.242	0,0,0,1,2,3,0,0,0	to_board	s615
308.639	1.0	0	PA_with_intermediate	n/a	test	ward_and_allport	n/a	-1.0	37.0	n/a	n/a	feedback	s615
309.639	2.36	0	PA_with_intermediate	n/a	test	ward_and_allport	n/a	-1.0	37.0	n/a	n/a	ITI	s615
312.007	2.148	1	PA_with_intermediate	1,2,0,0,0,0,0,0,0	test	ward_and_allport	1,0,0,0,0,0,2,3,0	89.0	38.0	2.148	1,2,3,0,0,0,0,0,0	to_hand	s615
314.157	0.311	0	PA_with_intermediate	1,2,0,3,0,0,0,0,0	test	ward_and_allport	1,0,0,0,0,0,2,3,0	71.0	38.0	0.311	1,2,3,0,0,0,0,0,0	to_board	s615
314.476	0.34	0	PA_with_intermediate	1,0,0,3,0,0,0,0,0	test	ward_and_allport	1,0,0,0,0,0,2,3,0	89.0	38.0	0.34	1,2,3,0,0,0,0,0,0	to_hand	s615
314.817	0.304	0	PA_with_intermediate	1,0,0,3,0,0,2,0,0	test	ward_and_allport	1,0,0,0,0,0,2,3,0	82.0	38.0	0.304	1,2,3,0,0,0,0,0,0	to_board	s615
315.132	0.501	0	PA_with_intermediate	1,0,0,0,0,0,2,0,0	test	ward_and_allport	1,0,0,0,0,0,2,3,0	71.0	38.0	0.501	1,2,3,0,0,0,0,0,0	to_hand	s615
315.634	0.278	0	PA_with_intermediate	1,0,0,0,0,0,2,3,0	test	ward_and_allport	1,0,0,0,0,0,2,3,0	82.0	38.0	0.278	1,2,3,0,0,0,0,0,0	to_board	s615
315.924	1.0	0	PA_with_intermediate	n/a	test	ward_and_allport	n/a	-1.0	38.0	n/a	n/a	feedback	s615
316.924	1.0	0	PA_with_intermediate	n/a	test	ward_and_allport	n/a	-1.0	38.0	n/a	n/a	ITI	s615
317.933	1.469	1	PA_without_intermediate	0,0,0,0,0,0,1,2,0	test	ward_and_allport	2,0,0,3,1,0,0,0,0	82.0	39.0	1.469	0,0,0,0,0,0,1,2,3	to_hand	s615
319.404	0.424	0	PA_without_intermediate	3,0,0,0,0,0,1,2,0	test	ward_and_allport	2,0,0,3,1,0,0,0,0	89.0	39.0	0.424	0,0,0,0,0,0,1,2,3	to_board	s615
319.837	0.61	0	PA_without_intermediate	0,0,0,0,0,0,1,2,0	test	ward_and_allport	2,0,0,3,1,0,0,0,0	89.0	39.0	0.61	0,0,0,0,0,0,1,2,3	to_hand	s615
320.449	0.357	0	PA_without_intermediate	0,0,0,3,0,0,1,2,0	test	ward_and_allport	2,0,0,3,1,0,0,0,0	71.0	39.0	0.357	0,0,0,0,0,0,1,2,3	to_board	s615
320.814	0.561	0	PA_without_intermediate	0,0,0,3,0,0,1,0,0	test	ward_and_allport	2,0,0,3,1,0,0,0,0	82.0	39.0	0.561	0,0,0,0,0,0,1,2,3	to_hand	s615
321.377	0.632	0	PA_without_intermediate	2,0,0,3,0,0,1,0,0	test	ward_and_allport	2,0,0,3,1,0,0,0,0	89.0	39.0	0.632	0,0,0,0,0,0,1,2,3	to_board	s615
322.016	0.815	0	PA_without_intermediate	2,0,0,3,0,0,0,0,0	test	ward_and_allport	2,0,0,3,1,0,0,0,0	82.0	39.0	0.815	0,0,0,0,0,0,1,2,3	to_hand	s615
322.833	0.326	0	PA_without_intermediate	2,0,0,3,1,0,0,0,0	test	ward_and_allport	2,0,0,3,1,0,0,0,0	71.0	39.0	0.326	0,0,0,0,0,0,1,2,3	to_board	s615
323.169	1.0	0	PA_without_intermediate	n/a	test	ward_and_allport	n/a	-1.0	39.0	n/a	n/a	feedback	s615
324.169	1.408	0	PA_without_intermediate	n/a	test	ward_and_allport	n/a	-1.0	39.0	n/a	n/a	ITI	s615
325.585	1.702	1	PA_with_intermediate	0,0,0,0,0,0,1,2,0	test	ward_and_allport	0,0,0,2,3,0,1,0,0	82.0	40.0	1.702	0,0,0,0,0,0,1,2,3	to_hand	s615
327.288	0.374	0	PA_with_intermediate	3,0,0,0,0,0,1,2,0	test	ward_and_allport	0,0,0,2,3,0,1,0,0	89.0	40.0	0.374	0,0,0,0,0,0,1,2,3	to_board	s615
327.67	0.548	0	PA_with_intermediate	3,0,0,0,0,0,1,0,0	test	ward_and_allport	0,0,0,2,3,0,1,0,0	82.0	40.0	0.548	0,0,0,0,0,0,1,2,3	to_hand	s615
328.219	0.407	0	PA_with_intermediate	3,0,0,2,0,0,1,0,0	test	ward_and_allport	0,0,0,2,3,0,1,0,0	71.0	40.0	0.407	0,0,0,0,0,0,1,2,3	to_board	s615
328.636	0.426	0	PA_with_intermediate	0,0,0,2,0,0,1,0,0	test	ward_and_allport	0,0,0,2,3,0,1,0,0	89.0	40.0	0.426	0,0,0,0,0,0,1,2,3	to_hand	s615
329.064	0.302	0	PA_with_intermediate	0,0,0,2,3,0,1,0,0	test	ward_and_allport	0,0,0,2,3,0,1,0,0	71.0	40.0	0.302	0,0,0,0,0,0,1,2,3	to_board	s615
329.38	1.0	0	PA_with_intermediate	n/a	test	ward_and_allport	n/a	-1.0	40.0	n/a	n/a	feedback	s615
330.38	1.816	0	PA_with_intermediate	n/a	test	ward_and_allport	n/a	-1.0	40.0	n/a	n/a	ITI	s615
332.205	2.02	1	PA_without_intermediate	0,0,0,1,2,0,0,0,0	test	ward_and_allport	2,0,0,0,0,0,3,1,0	71.0	41.0	2.02	0,0,0,1,2,3,0,0,0	to_hand	s615
334.225	0.349	0	PA_without_intermediate	0,0,0,1,2,0,3,0,0	test	ward_and_allport	2,0,0,0,0,0,3,1,0	82.0	41.0	0.349	0,0,0,1,2,3,0,0,0	to_board	s615
334.584	0.316	0	PA_without_intermediate	0,0,0,1,0,0,3,0,0	test	ward_and_allport	2,0,0,0,0,0,3,1,0	71.0	41.0	0.316	0,0,0,1,2,3,0,0,0	to_hand	s615
334.9	0.34	0	PA_without_intermediate	2,0,0,1,0,0,3,0,0	test	ward_and_allport	2,0,0,0,0,0,3,1,0	89.0	41.0	0.34	0,0,0,1,2,3,0,0,0	to_board	s615
335.252	0.326	0	PA_without_intermediate	2,0,0,0,0,0,3,0,0	test	ward_and_allport	2,0,0,0,0,0,3,1,0	71.0	41.0	0.326	0,0,0,1,2,3,0,0,0	to_hand	s615
335.579	0.383	0	PA_without_intermediate	2,0,0,0,0,0,3,1,0	test	ward_and_allport	2,0,0,0,0,0,3,1,0	82.0	41.0	0.383	0,0,0,1,2,3,0,0,0	to_board	s615
335.973	1.0	0	PA_without_intermediate	n/a	test	ward_and_allport	n/a	-1.0	41.0	n/a	n/a	feedback	s615
336.973	2.088	0	PA_without_intermediate	n/a	test	ward_and_allport	n/a	-1.0	41.0	n/a	n/a	ITI	s615
339.07	1.883	1	PA_without_intermediate	0,0,0,0,0,0,1,2,0	test	ward_and_allport	3,2,0,1,0,0,0,0,0	82.0	42.0	1.883	0,0,0,0,0,0,1,2,3	to_hand	s615
340.954	0.398	0	PA_without_intermediate	3,0,0,0,0,0,1,2,0	test	ward_and_allport	3,2,0,1,0,0,0,0,0	89.0	42.0	0.398	0,0,0,0,0,0,1,2,3	to_board	s615
341.361	0.337	0	PA_without_intermediate	3,0,0,0,0,0,1,0,0	test	ward_and_allport	3,2,0,1,0,0,0,0,0	82.0	42.0	0.337	0,0,0,0,0,0,1,2,3	to_hand	s615
341.699	0.327	0	PA_without_intermediate	3,2,0,0,0,0,1,0,0	test	ward_and_allport	3,2,0,1,0,0,0,0,0	89.0	42.0	0.327	0,0,0,0,0,0,1,2,3	to_board	s615
342.038	0.786	0	PA_without_intermediate	3,2,0,0,0,0,0,0,0	test	ward_and_allport	3,2,0,1,0,0,0,0,0	82.0	42.0	0.786	0,0,0,0,0,0,1,2,3	to_hand	s615
342.825	0.234	0	PA_without_intermediate	3,2,0,1,0,0,0,0,0	test	ward_and_allport	3,2,0,1,0,0,0,0,0	71.0	42.0	0.234	0,0,0,0,0,0,1,2,3	to_board	s615
343.073	1.0	0	PA_without_intermediate	n/a	test	ward_and_allport	n/a	-1.0	42.0	n/a	n/a	feedback	s615
344.073	1.136	0	PA_without_intermediate	n/a	test	ward_and_allport	n/a	-1.0	42.0	n/a	n/a	ITI	s615
345.22	2.013	1	PA_without_intermediate	0,0,0,1,2,0,0,0,0	test	ward_and_allport	2,0,0,0,0,0,3,1,0	71.0	43.0	2.013	0,0,0,1,2,3,0,0,0	to_hand	s615
347.235	0.361	0	PA_without_intermediate	0,0,0,1,2,0,3,0,0	test	ward_and_allport	2,0,0,0,0,0,3,1,0	82.0	43.0	0.361	0,0,0,1,2,3,0,0,0	to_board	s615
347.606	0.295	0	PA_without_intermediate	0,0,0,1,0,0,3,0,0	test	ward_and_allport	2,0,0,0,0,0,3,1,0	71.0	43.0	0.295	0,0,0,1,2,3,0,0,0	to_hand	s615
347.902	0.369	0	PA_without_intermediate	2,0,0,1,0,0,3,0,0	test	ward_and_allport	2,0,0,0,0,0,3,1,0	89.0	43.0	0.369	0,0,0,1,2,3,0,0,0	to_board	s615
348.281	0.286	0	PA_without_intermediate	2,0,0,0,0,0,3,0,0	test	ward_and_allport	2,0,0,0,0,0,3,1,0	71.0	43.0	0.286	0,0,0,1,2,3,0,0,0	to_hand	s615
348.568	0.318	0	PA_without_intermediate	2,0,0,0,0,0,3,1,0	test	ward_and_allport	2,0,0,0,0,0,3,1,0	82.0	43.0	0.318	0,0,0,1,2,3,0,0,0	to_board	s615
348.896	1.0	0	PA_without_intermediate	n/a	test	ward_and_allport	n/a	-1.0	43.0	n/a	n/a	feedback	s615
349.896	6.168	0	PA_without_intermediate	n/a	test	ward_and_allport	n/a	-1.0	43.0	n/a	n/a	ITI	s615
356.075	2.172	1	PA_without_intermediate	1,2,0,0,0,0,0,0,0	test	ward_and_allport	0,0,0,3,2,0,1,0,0	89.0	44.0	2.172	1,2,3,0,0,0,0,0,0	to_hand	s615
358.247	0.305	0	PA_without_intermediate	1,2,0,3,0,0,0,0,0	test	ward_and_allport	0,0,0,3,2,0,1,0,0	71.0	44.0	0.305	1,2,3,0,0,0,0,0,0	to_board	s615
358.563	0.296	0	PA_without_intermediate	1,0,0,3,0,0,0,0,0	test	ward_and_allport	0,0,0,3,2,0,1,0,0	89.0	44.0	0.296	1,2,3,0,0,0,0,0,0	to_hand	s615
358.86	0.271	0	PA_without_intermediate	1,0,0,3,2,0,0,0,0	test	ward_and_allport	0,0,0,3,2,0,1,0,0	71.0	44.0	0.271	1,2,3,0,0,0,0,0,0	to_board	s615
359.143	0.271	0	PA_without_intermediate	0,0,0,3,2,0,0,0,0	test	ward_and_allport	0,0,0,3,2,0,1,0,0	89.0	44.0	0.271	1,2,3,0,0,0,0,0,0	to_hand	s615
359.416	0.272	0	PA_without_intermediate	0,0,0,3,2,0,1,0,0	test	ward_and_allport	0,0,0,3,2,0,1,0,0	82.0	44.0	0.272	1,2,3,0,0,0,0,0,0	to_board	s615
359.706	1.0	0	PA_without_intermediate	n/a	test	ward_and_allport	n/a	-1.0	44.0	n/a	n/a	feedback	s615
360.706	1.816	0	PA_without_intermediate	n/a	test	ward_and_allport	n/a	-1.0	44.0	n/a	n/a	ITI	s615
367.538	1.87	1	PA_with_intermediate	0,0,0,0,0,0,1,2,0	test	ward_and_allport	2,0,0,0,0,0,1,3,0	82.0	45.0	1.87	0,0,0,0,0,0,1,2,3	to_hand	s615
369.409	0.366	0	PA_with_intermediate	3,0,0,0,0,0,1,2,0	test	ward_and_allport	2,0,0,0,0,0,1,3,0	89.0	45.0	0.366	0,0,0,0,0,0,1,2,3	to_board	s615
369.788	0.693	0	PA_with_intermediate	0,0,0,0,0,0,1,2,0	test	ward_and_allport	2,0,0,0,0,0,1,3,0	89.0	45.0	0.693	0,0,0,0,0,0,1,2,3	to_hand	s615
370.482	0.366	0	PA_with_intermediate	0,0,0,3,0,0,1,2,0	test	ward_and_allport	2,0,0,0,0,0,1,3,0	71.0	45.0	0.366	0,0,0,0,0,0,1,2,3	to_board	s615
370.862	0.403	0	PA_with_intermediate	0,0,0,3,0,0,1,0,0	test	ward_and_allport	2,0,0,0,0,0,1,3,0	82.0	45.0	0.403	0,0,0,0,0,0,1,2,3	to_hand	s615
371.266	0.293	0	PA_with_intermediate	2,0,0,3,0,0,1,0,0	test	ward_and_allport	2,0,0,0,0,0,1,3,0	89.0	45.0	0.293	0,0,0,0,0,0,1,2,3	to_board	s615
371.573	0.594	0	PA_with_intermediate	2,0,0,0,0,0,1,0,0	test	ward_and_allport	2,0,0,0,0,0,1,3,0	71.0	45.0	0.594	0,0,0,0,0,0,1,2,3	to_hand	s615
372.168	0.344	0	PA_with_intermediate	2,0,0,0,0,0,1,3,0	test	ward_and_allport	2,0,0,0,0,0,1,3,0	82.0	45.0	0.344	0,0,0,0,0,0,1,2,3	to_board	s615
372.526	1.0	0	PA_with_intermediate	n/a	test	ward_and_allport	n/a	-1.0	45.0	n/a	n/a	feedback	s615
373.526	1.952	0	PA_with_intermediate	n/a	test	ward_and_allport	n/a	-1.0	45.0	n/a	n/a	ITI	s615
375.488	1.986	1	PA_with_intermediate	0,0,0,0,0,0,1,2,0	test	ward_and_allport	2,3,0,0,0,0,1,0,0	82.0	46.0	1.986	0,0,0,0,0,0,1,2,3	to_hand	s615
377.475	0.428	0	PA_with_intermediate	0,0,0,3,0,0,1,2,0	test	ward_and_allport	2,3,0,0,0,0,1,0,0	71.0	46.0	0.428	0,0,0,0,0,0,1,2,3	to_board	s615
377.913	0.341	0	PA_with_intermediate	0,0,0,3,0,0,1,0,0	test	ward_and_allport	2,3,0,0,0,0,1,0,0	82.0	46.0	0.341	0,0,0,0,0,0,1,2,3	to_hand	s615
378.255	0.377	0	PA_with_intermediate	2,0,0,3,0,0,1,0,0	test	ward_and_allport	2,3,0,0,0,0,1,0,0	89.0	46.0	0.377	0,0,0,0,0,0,1,2,3	to_board	s615
378.645	0.293	0	PA_with_intermediate	2,0,0,0,0,0,1,0,0	test	ward_and_allport	2,3,0,0,0,0,1,0,0	71.0	46.0	0.293	0,0,0,0,0,0,1,2,3	to_hand	s615
378.939	0.341	0	PA_with_intermediate	2,3,0,0,0,0,1,0,0	test	ward_and_allport	2,3,0,0,0,0,1,0,0	89.0	46.0	0.341	0,0,0,0,0,0,1,2,3	to_board	s615
379.294	1.0	0	PA_with_intermediate	n/a	test	ward_and_allport	n/a	-1.0	46.0	n/a	n/a	feedback	s615
380.294	1.136	0	PA_with_intermediate	n/a	test	ward_and_allport	n/a	-1.0	46.0	n/a	n/a	ITI	s615
381.443	1.61	1	PA_without_intermediate	1,2,0,0,0,0,0,0,0	test	ward_and_allport	0,0,0,3,1,0,2,0,0	89.0	47.0	1.61	1,2,3,0,0,0,0,0,0	to_hand	s615
383.055	0.266	0	PA_without_intermediate	1,2,0,3,0,0,0,0,0	test	ward_and_allport	0,0,0,3,1,0,2,0,0	71.0	47.0	0.266	1,2,3,0,0,0,0,0,0	to_board	s615
383.335	0.307	0	PA_without_intermediate	1,0,0,3,0,0,0,0,0	test	ward_and_allport	0,0,0,3,1,0,2,0,0	89.0	47.0	0.307	1,2,3,0,0,0,0,0,0	to_hand	s615
383.643	0.659	0	PA_without_intermediate	1,0,0,3,0,0,2,0,0	test	ward_and_allport	0,0,0,3,1,0,2,0,0	82.0	47.0	0.659	1,2,3,0,0,0,0,0,0	to_board	s615
384.314	0.373	0	PA_without_intermediate	0,0,0,3,0,0,2,0,0	test	ward_and_allport	0,0,0,3,1,0,2,0,0	89.0	47.0	0.373	1,2,3,0,0,0,0,0,0	to_hand	s615
384.688	0.284	0	PA_without_intermediate	0,0,0,3,1,0,2,0,0	test	ward_and_allport	0,0,0,3,1,0,2,0,0	71.0	47.0	0.284	1,2,3,0,0,0,0,0,0	to_board	s615
384.985	1.0	0	PA_without_intermediate	n/a	test	ward_and_allport	n/a	-1.0	47.0	n/a	n/a	feedback	s615
385.985	1.68	0	PA_without_intermediate	n/a	test	ward_and_allport	n/a	-1.0	47.0	n/a	n/a	ITI	s615
n/a	n/a	0	n/a	n/a	n/a	n/a	n/a	n/a	n/a	n/a	n/a	ITI	n/a
