onset	duration	EV	action	clicked_on_loss_card	experiment_exp_id	gain_amount	gain_probability	key_press	loss_amount	loss_probability	num_cards	num_click_in_round	num_loss_cards	risk	response_time	total_cards	trial_id	worker_id
3.013	10.441	-1.1867106391341085	draw_card	0.0	columbia_card_task_fmri	12.0	0.8333333333333334	89.0	-70.0	0.1666666666666666	6.0	1.0	1.0	-1.181519426602602	10.441	n/a	stim	s615
13.456	1.613	-3.920043972467441	draw_card	1.0	columbia_card_task_fmri	12.0	0.8	89.0	-70.0	0.2	6.0	2.0	1.0	1.0586274842548136	1.613	2.0	stim	s615
15.075	2.25	n/a	-1.0	n/a	columbia_card_task_fmri	n/a	n/a	-1.0	n/a	n/a	n/a	n/a	n/a	n/a	n/a	n/a	feedback	s615
17.325	0.204	n/a	-1.0	n/a	columbia_card_task_fmri	n/a	n/a	-1.0	n/a	n/a	n/a	n/a	n/a	n/a	n/a	n/a	ITI	s615
17.532	2.925	-0.3533773058007745	draw_card	0.0	columbia_card_task_fmri	14.0	0.8333333333333334	89.0	-75.0	0.1666666666666666	6.0	1.0	1.0	1.4269301601469806	2.925	n/a	stim	s615
20.458	1.025	-3.3200439724674413	end_round	0.0	columbia_card_task_fmri	14.0	0.8	71.0	-75.0	0.2	6.0	2.0	1.0	3.858351335748353	1.025	1.0	stim	s615
21.485	2.25	n/a	-1.0	n/a	columbia_card_task_fmri	n/a	n/a	-1.0	n/a	n/a	n/a	n/a	n/a	n/a	n/a	n/a	feedback	s615
23.735	0.204	n/a	-1.0	n/a	columbia_card_task_fmri	n/a	n/a	-1.0	n/a	n/a	n/a	n/a	n/a	n/a	n/a	n/a	ITI	s615
23.942	2.406	1.3132893608658915	draw_card	0.0	columbia_card_task_fmri	15.0	0.8333333333333334	89.0	-70.0	0.1666666666666666	6.0	1.0	1.0	-0.0636184373796489	2.406	n/a	stim	s615
26.35	1.104	-1.5200439724674424	end_round	0.0	columbia_card_task_fmri	15.0	0.8	71.0	-70.0	0.2	6.0	2.0	1.0	2.258503566343151	1.104	1.0	stim	s615
27.456	2.25	n/a	-1.0	n/a	columbia_card_task_fmri	n/a	n/a	-1.0	n/a	n/a	n/a	n/a	n/a	n/a	n/a	n/a	feedback	s615
29.706	0.272	n/a	-1.0	n/a	columbia_card_task_fmri	n/a	n/a	-1.0	n/a	n/a	n/a	n/a	n/a	n/a	n/a	n/a	ITI	s615
29.981	2.642	2.146622694199225	draw_card	0.0	columbia_card_task_fmri	17.0	0.8333333333333334	89.0	-75.0	0.1666666666666666	6.0	1.0	1.0	2.5448509306106004	2.642	n/a	stim	s615
32.625	3.111	-0.920043972467441	draw_card	0.0	columbia_card_task_fmri	17.0	0.8	89.0	-75.0	0.2	6.0	2.0	1.0	5.058245848723296	3.111	n/a	stim	s615
35.738	1.114	-5.520043972467443	end_round	0.0	columbia_card_task_fmri	17.0	0.75	71.0	-75.0	0.25	6.0	3.0	1.0	8.09517583170988	1.114	2.0	stim	s615
36.857	2.25	n/a	-1.0	n/a	columbia_card_task_fmri	n/a	n/a	-1.0	n/a	n/a	n/a	n/a	n/a	n/a	n/a	n/a	feedback	s615
39.107	0.204	n/a	-1.0	n/a	columbia_card_task_fmri	n/a	n/a	-1.0	n/a	n/a	n/a	n/a	n/a	n/a	n/a	n/a	ITI	s615
39.312	4.302	3.4799560275325576	draw_card	0.0	columbia_card_task_fmri	24.0	0.75	89.0	-60.0	0.25	8.0	1.0	2.0	4.631349540033504	4.302	n/a	stim	s615
43.617	0.823	0.4799560275325576	end_round	0.0	columbia_card_task_fmri	24.0	0.7142857142857143	71.0	-60.0	0.2857142857142857	8.0	2.0	2.0	6.20548315156519	0.823	1.0	stim	s615
44.444	2.25	n/a	-1.0	n/a	columbia_card_task_fmri	n/a	n/a	-1.0	n/a	n/a	n/a	n/a	n/a	n/a	n/a	n/a	feedback	s615
46.694	0.408	n/a	-1.0	n/a	columbia_card_task_fmri	n/a	n/a	-1.0	n/a	n/a	n/a	n/a	n/a	n/a	n/a	n/a	ITI	s615
47.103	4.298	3.4799560275325576	draw_card	0.0	columbia_card_task_fmri	29.0	0.75	89.0	-75.0	0.25	8.0	1.0	2.0	13.290994681857534	4.298	n/a	stim	s615
51.403	0.736	-0.2343296867531541	draw_card	0.0	columbia_card_task_fmri	29.0	0.7142857142857143	89.0	-75.0	0.2857142857142857	8.0	2.0	2.0	15.239978539890656	0.736	n/a	stim	s615
52.141	3.193	-5.186710639134107	end_round	0.0	columbia_card_task_fmri	29.0	0.6666666666666667	71.0	-75.0	0.3333333333333333	8.0	3.0	2.0	17.283535566259616	3.193	2.0	stim	s615
55.336	2.25	n/a	-1.0	n/a	columbia_card_task_fmri	n/a	n/a	-1.0	n/a	n/a	n/a	n/a	n/a	n/a	n/a	n/a	feedback	s615
57.586	0.136	n/a	-1.0	n/a	columbia_card_task_fmri	n/a	n/a	-1.0	n/a	n/a	n/a	n/a	n/a	n/a	n/a	n/a	ITI	s615
57.724	5.575	-0.742266194689662	draw_card	1.0	columbia_card_task_fmri	17.0	0.7777777777777778	89.0	-65.0	0.2222222222222222	9.0	1.0	2.0	2.349150749717857	5.575	1.0	stim	s615
63.301	2.25	n/a	-1.0	n/a	columbia_card_task_fmri	n/a	n/a	-1.0	n/a	n/a	n/a	n/a	n/a	n/a	n/a	n/a	feedback	s615
65.551	0.272	n/a	-1.0	n/a	columbia_card_task_fmri	n/a	n/a	-1.0	n/a	n/a	n/a	n/a	n/a	n/a	n/a	n/a	ITI	s615
65.825	8.172	3.5799560275325573	draw_card	0.0	columbia_card_task_fmri	14.0	0.9	89.0	-95.0	0.1	10.0	1.0	1.0	0.958638221215388	8.172	n/a	stim	s615
73.998	2.968	2.368844916421445	draw_card	0.0	columbia_card_task_fmri	14.0	0.8888888888888888	89.0	-95.0	0.1111111111111111	10.0	2.0	1.0	2.513873490807292	2.968	n/a	stim	s615
76.969	7.138	0.8549560275325576	draw_card	0.0	columbia_card_task_fmri	14.0	0.875	89.0	-95.0	0.125	10.0	3.0	1.0	4.306672713695114	7.138	n/a	stim	s615
84.108	2.021	-1.0914725438960136	end_round	0.0	columbia_card_task_fmri	14.0	0.8571428571428572	71.0	-95.0	0.1428571428571428	10.0	4.0	1.0	6.400190302144921	2.021	3.0	stim	s615
86.136	2.25	n/a	-1.0	n/a	columbia_card_task_fmri	n/a	n/a	-1.0	n/a	n/a	n/a	n/a	n/a	n/a	n/a	n/a	feedback	s615
88.386	0.34	n/a	-1.0	n/a	columbia_card_task_fmri	n/a	n/a	-1.0	n/a	n/a	n/a	n/a	n/a	n/a	n/a	n/a	ITI	s615
88.728	2.531	-0.5200439724674424	draw_card	0.0	columbia_card_task_fmri	15.0	0.8	89.0	-65.0	0.2	10.0	1.0	2.0	0.25871525859543	2.531	n/a	stim	s615
91.262	2.955	-2.297821750245219	draw_card	0.0	columbia_card_task_fmri	15.0	0.7777777777777778	89.0	-65.0	0.2222222222222222	10.0	2.0	2.0	1.5177557827128396	2.955	n/a	stim	s615
94.219	0.706	-4.520043972467443	draw_card	0.0	columbia_card_task_fmri	15.0	0.75	89.0	-65.0	0.25	10.0	3.0	2.0	2.8994570406588736	0.706	n/a	stim	s615
94.927	2.773	-7.377186829610297	draw_card	0.0	columbia_card_task_fmri	15.0	0.7142857142857143	89.0	-65.0	0.2857142857142857	10.0	4.0	2.0	4.398619088142084	2.773	n/a	stim	s615
97.702	1.256	-11.186710639134104	end_round	0.0	columbia_card_task_fmri	15.0	0.6666666666666667	71.0	-65.0	0.3333333333333333	10.0	5.0	2.0	5.970531801819973	1.256	4.0	stim	s615
98.96	2.25	n/a	-1.0	n/a	columbia_card_task_fmri	n/a	n/a	-1.0	n/a	n/a	n/a	n/a	n/a	n/a	n/a	n/a	feedback	s615
101.21	0.136	n/a	-1.0	n/a	columbia_card_task_fmri	n/a	n/a	-1.0	n/a	n/a	n/a	n/a	n/a	n/a	n/a	n/a	ITI	s615
101.348	3.252	1.079956027532559	draw_card	1.0	columbia_card_task_fmri	17.0	0.8	89.0	-65.0	0.2	10.0	1.0	2.0	1.0586274842548136	3.252	1.0	stim	s615
104.603	2.25	n/a	-1.0	n/a	columbia_card_task_fmri	n/a	n/a	-1.0	n/a	n/a	n/a	n/a	n/a	n/a	n/a	n/a	feedback	s615
106.853	0.34	n/a	-1.0	n/a	columbia_card_task_fmri	n/a	n/a	-1.0	n/a	n/a	n/a	n/a	n/a	n/a	n/a	n/a	ITI	s615
107.195	3.347	-0.3533773058007745	draw_card	1.0	columbia_card_task_fmri	13.0	0.8333333333333334	89.0	-70.0	0.1666666666666666	12.0	1.0	2.0	-0.8088868316054523	3.347	1.0	stim	s615
110.547	2.25	n/a	-1.0	n/a	columbia_card_task_fmri	n/a	n/a	-1.0	n/a	n/a	n/a	n/a	n/a	n/a	n/a	n/a	feedback	s615
112.797	0.068	n/a	-1.0	n/a	columbia_card_task_fmri	n/a	n/a	-1.0	n/a	n/a	n/a	n/a	n/a	n/a	n/a	n/a	ITI	s615
112.867	4.353	-0.3533773058007745	draw_card	1.0	columbia_card_task_fmri	15.0	0.8333333333333334	89.0	-80.0	0.1666666666666666	12.0	1.0	2.0	3.66277885068456	4.353	1.0	stim	s615
117.223	2.25	n/a	-1.0	n/a	columbia_card_task_fmri	n/a	n/a	-1.0	n/a	n/a	n/a	n/a	n/a	n/a	n/a	n/a	feedback	s615
119.473	0.0	n/a	-1.0	n/a	columbia_card_task_fmri	n/a	n/a	-1.0	n/a	n/a	n/a	n/a	n/a	n/a	n/a	n/a	ITI	s615
119.476	2.939	-1.320043972467441	draw_card	0.0	columbia_card_task_fmri	14.0	0.8	89.0	-65.0	0.2	15.0	1.0	3.0	-0.1412391879164261	2.939	n/a	stim	s615
122.416	14.971	-2.448615401038869	draw_card	0.0	columbia_card_task_fmri	14.0	0.7857142857142857	89.0	-65.0	0.2142857142857142	15.0	2.0	3.0	0.6744154657487513	14.971	n/a	stim	s615
137.39	1.284	-3.750813203236674	draw_card	1.0	columbia_card_task_fmri	14.0	0.7692307692307692	89.0	-65.0	0.2307692307692307	15.0	3.0	3.0	1.543254853046335	1.284	3.0	stim	s615
138.679	2.25	n/a	-1.0	n/a	columbia_card_task_fmri	n/a	n/a	-1.0	n/a	n/a	n/a	n/a	n/a	n/a	n/a	n/a	feedback	s615
140.929	0.204	n/a	-1.0	n/a	columbia_card_task_fmri	n/a	n/a	-1.0	n/a	n/a	n/a	n/a	n/a	n/a	n/a	n/a	ITI	s615
141.136	5.153	-1.3950439724674424	draw_card	0.0	columbia_card_task_fmri	1.0	0.9375	89.0	-45.0	0.0625	16.0	1.0	1.0	-20.5997175375562	5.153	n/a	stim	s615
146.291	0.495	-1.5867106391341088	draw_card	0.0	columbia_card_task_fmri	1.0	0.9333333333333332	89.0	-45.0	0.0666666666666666	16.0	2.0	1.0	-20.2604343928308	0.495	n/a	stim	s615
146.788	1.155	-1.805758258181728	draw_card	0.0	columbia_card_task_fmri	1.0	0.9285714285714286	89.0	-45.0	0.0714285714285714	16.0	3.0	1.0	-19.88835417788892	1.155	n/a	stim	s615
147.945	0.631	-2.0585055109289807	end_round	0.0	columbia_card_task_fmri	1.0	0.9230769230769232	71.0	-45.0	0.0769230769230769	16.0	4.0	1.0	-19.477900611402664	0.631	3.0	stim	s615
148.581	2.25	n/a	-1.0	n/a	columbia_card_task_fmri	n/a	n/a	-1.0	n/a	n/a	n/a	n/a	n/a	n/a	n/a	n/a	feedback	s615
150.831	1.02	n/a	-1.0	n/a	columbia_card_task_fmri	n/a	n/a	-1.0	n/a	n/a	n/a	n/a	n/a	n/a	n/a	n/a	ITI	s615
151.854	2.381	-0.4575439724674424	draw_card	0.0	columbia_card_task_fmri	15.0	0.8125	89.0	-70.0	0.1875	16.0	1.0	3.0	1.4351395011733885	2.381	n/a	stim	s615
154.238	1.448	-1.5200439724674424	draw_card	0.0	columbia_card_task_fmri	15.0	0.8	89.0	-70.0	0.2	16.0	2.0	3.0	2.258503566343151	1.448	n/a	stim	s615
155.688	3.454	-2.7343296867531577	end_round	0.0	columbia_card_task_fmri	15.0	0.7857142857142857	71.0	-70.0	0.2142857142857142	16.0	3.0	3.0	3.1361201115676	3.454	2.0	stim	s615
159.145	2.25	n/a	-1.0	n/a	columbia_card_task_fmri	n/a	n/a	-1.0	n/a	n/a	n/a	n/a	n/a	n/a	n/a	n/a	feedback	s615
161.395	0.0	n/a	-1.0	n/a	columbia_card_task_fmri	n/a	n/a	-1.0	n/a	n/a	n/a	n/a	n/a	n/a	n/a	n/a	ITI	s615
161.397	1.815	6.479956027532557	draw_card	0.0	columbia_card_task_fmri	30.0	0.7	89.0	-50.0	0.3	10.0	1.0	3.0	4.918863307502285	1.815	n/a	stim	s615
163.215	0.535	3.813289360865897	end_round	0.0	columbia_card_task_fmri	30.0	0.6666666666666667	71.0	-50.0	0.3333333333333333	10.0	2.0	3.0	5.970531801819966	0.535	1.0	stim	s615
163.753	2.25	n/a	-1.0	n/a	columbia_card_task_fmri	n/a	n/a	-1.0	n/a	n/a	n/a	n/a	n/a	n/a	n/a	n/a	feedback	s615
166.003	0.0	n/a	-1.0	n/a	columbia_card_task_fmri	n/a	n/a	-1.0	n/a	n/a	n/a	n/a	n/a	n/a	n/a	n/a	ITI	s615
166.006	1.859	5.8799560275325575	draw_card	1.0	columbia_card_task_fmri	17.0	0.8666666666666667	89.0	-70.0	0.1333333333333333	15.0	1.0	2.0	-2.166676398456893	1.859	1.0	stim	s615
167.872	2.25	n/a	-1.0	n/a	columbia_card_task_fmri	n/a	n/a	-1.0	n/a	n/a	n/a	n/a	n/a	n/a	n/a	n/a	feedback	s615
170.122	0.068	n/a	-1.0	n/a	columbia_card_task_fmri	n/a	n/a	-1.0	n/a	n/a	n/a	n/a	n/a	n/a	n/a	n/a	ITI	s615
170.193	2.985	1.1049560275325576	draw_card	0.0	columbia_card_task_fmri	7.0	0.9375	89.0	-95.0	0.0625	16.0	1.0	1.0	-7.04995053698833	2.985	n/a	stim	s615
173.181	1.013	0.6799560275325578	draw_card	0.0	columbia_card_task_fmri	7.0	0.9333333333333332	89.0	-95.0	0.0666666666666666	16.0	2.0	1.0	-6.297087161686143	1.013	n/a	stim	s615
174.196	2.05	0.194241741818272	draw_card	0.0	columbia_card_task_fmri	7.0	0.9285714285714286	89.0	-95.0	0.0714285714285714	16.0	3.0	1.0	-5.471483218735415	2.05	n/a	stim	s615
176.248	0.721	-0.3661978186212891	draw_card	0.0	columbia_card_task_fmri	7.0	0.9230769230769232	89.0	-95.0	0.0769230769230769	16.0	4.0	1.0	-4.560772344974037	0.721	n/a	stim	s615
176.971	0.956	-1.0200439724674424	draw_card	0.0	columbia_card_task_fmri	7.0	0.9166666666666666	89.0	-95.0	0.0833333333333333	16.0	5.0	1.0	-3.5494878405811363	0.956	n/a	stim	s615
177.929	3.688	-1.7927712451947158	draw_card	0.0	columbia_card_task_fmri	7.0	0.9090909090909092	89.0	-95.0	0.0909090909090909	16.0	6.0	1.0	-2.418017893932973	3.688	n/a	stim	s615
181.62	1.252	-2.7200439724674426	end_round	0.0	columbia_card_task_fmri	7.0	0.9	71.0	-95.0	0.1	16.0	7.0	1.0	-1.1411200947667872	1.252	6.0	stim	s615
182.877	2.25	n/a	-1.0	n/a	columbia_card_task_fmri	n/a	n/a	-1.0	n/a	n/a	n/a	n/a	n/a	n/a	n/a	n/a	feedback	s615
185.127	0.476	n/a	-1.0	n/a	columbia_card_task_fmri	n/a	n/a	-1.0	n/a	n/a	n/a	n/a	n/a	n/a	n/a	n/a	ITI	s615
185.606	2.336	2.6674560275325576	draw_card	0.0	columbia_card_task_fmri	9.0	0.9375	89.0	-100.0	0.0625	16.0	1.0	1.0	-5.355819827486297	2.336	n/a	stim	s615
187.945	0.752	2.213289360865891	draw_card	0.0	columbia_card_task_fmri	9.0	0.9333333333333332	89.0	-100.0	0.0666666666666666	16.0	2.0	1.0	-4.551271026228868	0.752	n/a	stim	s615
188.7	0.599	1.694241741818273	draw_card	0.0	columbia_card_task_fmri	9.0	0.9285714285714286	89.0	-100.0	0.0714285714285714	16.0	3.0	1.0	-3.668989094194405	0.599	n/a	stim	s615
189.302	1.606	1.0953406429171737	draw_card	0.0	columbia_card_task_fmri	9.0	0.9230769230769232	89.0	-100.0	0.0769230769230769	16.0	4.0	1.0	-2.695758943166304	1.606	n/a	stim	s615
190.911	1.239	0.3966226941992254	draw_card	0.0	columbia_card_task_fmri	9.0	0.9166666666666666	89.0	-100.0	0.0833333333333333	16.0	5.0	1.0	-1.6150523718299965	1.239	n/a	stim	s615
192.153	2.127	-0.4291348815583524	draw_card	1.0	columbia_card_task_fmri	9.0	0.9090909090909092	89.0	-100.0	0.0909090909090909	16.0	6.0	1.0	-0.4059115887864735	2.127	6.0	stim	s615
194.285	2.25	n/a	-1.0	n/a	columbia_card_task_fmri	n/a	n/a	-1.0	n/a	n/a	n/a	n/a	n/a	n/a	n/a	n/a	feedback	s615
196.535	0.136	n/a	-1.0	n/a	columbia_card_task_fmri	n/a	n/a	-1.0	n/a	n/a	n/a	n/a	n/a	n/a	n/a	n/a	ITI	s615
196.674	2.729	3.6049560275325576	draw_card	0.0	columbia_card_task_fmri	15.0	0.875	89.0	-80.0	0.125	16.0	1.0	2.0	-0.3229212929294682	2.729	n/a	stim	s615
199.404	0.543	2.8132893608658915	draw_card	0.0	columbia_card_task_fmri	15.0	0.8666666666666667	89.0	-80.0	0.1333333333333333	16.0	2.0	2.0	0.5524727721026821	0.543	n/a	stim	s615
199.95	0.418	1.908527456103988	draw_card	0.0	columbia_card_task_fmri	15.0	0.8571428571428572	89.0	-80.0	0.1428571428571428	16.0	3.0	2.0	1.5016557691366117	0.418	n/a	stim	s615
200.37	0.699	0.8645714121479409	draw_card	0.0	columbia_card_task_fmri	15.0	0.8461538461538461	89.0	-80.0	0.1538461538461538	16.0	4.0	2.0	2.534591449012119	0.699	n/a	stim	s615
201.07	1.593	-0.3533773058007745	end_round	0.0	columbia_card_task_fmri	15.0	0.8333333333333334	71.0	-80.0	0.1666666666666666	16.0	5.0	2.0	3.66277885068456	1.593	4.0	stim	s615
202.667	2.25	n/a	-1.0	n/a	columbia_card_task_fmri	n/a	n/a	-1.0	n/a	n/a	n/a	n/a	n/a	n/a	n/a	n/a	feedback	s615
204.917	0.068	n/a	-1.0	n/a	columbia_card_task_fmri	n/a	n/a	-1.0	n/a	n/a	n/a	n/a	n/a	n/a	n/a	n/a	ITI	s615
204.988	3.701	5.729956027532557	draw_card	0.0	columbia_card_task_fmri	16.0	0.875	89.0	-70.0	0.125	16.0	1.0	2.0	-3.29900794305696	3.701	n/a	stim	s615
208.692	0.343	5.01328936086589	draw_card	0.0	columbia_card_task_fmri	16.0	0.8666666666666667	89.0	-70.0	0.1333333333333333	16.0	2.0	2.0	-2.506565756179608	0.343	n/a	stim	s615
209.038	0.35	4.1942417418182725	draw_card	0.0	columbia_card_task_fmri	16.0	0.8571428571428572	89.0	-70.0	0.1428571428571428	16.0	3.0	2.0	-1.647325658725407	0.35	n/a	stim	s615
209.391	0.423	3.249186796763326	draw_card	0.0	columbia_card_task_fmri	16.0	0.8461538461538461	89.0	-70.0	0.1538461538461538	16.0	4.0	2.0	-0.7122678569974923	0.423	n/a	stim	s615
209.816	1.473	2.146622694199225	draw_card	0.0	columbia_card_task_fmri	16.0	0.8333333333333334	89.0	-70.0	0.1666666666666666	16.0	5.0	2.0	0.3090172873490999	1.473	n/a	stim	s615
211.292	0.513	0.8435923911689192	end_round	0.0	columbia_card_task_fmri	16.0	0.8181818181818181	71.0	-70.0	0.1818181818181818	16.0	6.0	2.0	1.428324629034563	0.513	5.0	stim	s615
211.81	2.25	n/a	-1.0	n/a	columbia_card_task_fmri	n/a	n/a	-1.0	n/a	n/a	n/a	n/a	n/a	n/a	n/a	n/a	feedback	s615
214.06	0.0	n/a	-1.0	n/a	columbia_card_task_fmri	n/a	n/a	-1.0	n/a	n/a	n/a	n/a	n/a	n/a	n/a	n/a	ITI	s615
214.062	8.335	7.042456027532557	draw_card	0.0	columbia_card_task_fmri	30.0	0.6875	89.0	-45.0	0.3125	16.0	1.0	5.0	3.02185959098064	8.335	n/a	stim	s615
222.4	1.467	5.479956027532561	draw_card	0.0	columbia_card_task_fmri	30.0	0.6666666666666667	89.0	-45.0	0.3333333333333333	16.0	2.0	5.0	3.613712780891845	1.467	n/a	stim	s615
223.87	1.725	3.694241741818269	end_round	0.0	columbia_card_task_fmri	30.0	0.6428571428571428	71.0	-45.0	0.3571428571428571	16.0	3.0	5.0	4.195127798642105	1.725	2.0	stim	s615
225.599	2.25	n/a	-1.0	n/a	columbia_card_task_fmri	n/a	n/a	-1.0	n/a	n/a	n/a	n/a	n/a	n/a	n/a	n/a	feedback	s615
227.849	0.0	n/a	-1.0	n/a	columbia_card_task_fmri	n/a	n/a	-1.0	n/a	n/a	n/a	n/a	n/a	n/a	n/a	n/a	ITI	s615
227.852	1.97	-1.1867106391341085	draw_card	1.0	columbia_card_task_fmri	13.0	0.8333333333333334	89.0	-75.0	0.1666666666666666	6.0	1.0	1.0	1.0542916184838802	1.97	1.0	stim	s615
229.829	2.25	n/a	-1.0	n/a	columbia_card_task_fmri	n/a	n/a	-1.0	n/a	n/a	n/a	n/a	n/a	n/a	n/a	n/a	feedback	s615
232.079	0.204	n/a	-1.0	n/a	columbia_card_task_fmri	n/a	n/a	-1.0	n/a	n/a	n/a	n/a	n/a	n/a	n/a	n/a	ITI	s615
232.286	2.188	0.4799560275325594	draw_card	0.0	columbia_card_task_fmri	14.0	0.8333333333333334	89.0	-70.0	0.1666666666666666	6.0	1.0	1.0	-0.4362531558189353	2.188	n/a	stim	s615
234.476	0.741	-2.3200439724674413	end_round	0.0	columbia_card_task_fmri	14.0	0.8	71.0	-70.0	0.2	6.0	2.0	1.0	1.858543888989324	0.741	1.0	stim	s615
235.221	2.25	n/a	-1.0	n/a	columbia_card_task_fmri	n/a	n/a	-1.0	n/a	n/a	n/a	n/a	n/a	n/a	n/a	n/a	feedback	s615
237.471	0.204	n/a	-1.0	n/a	columbia_card_task_fmri	n/a	n/a	-1.0	n/a	n/a	n/a	n/a	n/a	n/a	n/a	n/a	ITI	s615
237.678	3.334	0.4799560275325594	draw_card	0.0	columbia_card_task_fmri	16.0	0.8333333333333334	89.0	-80.0	0.1666666666666666	6.0	1.0	1.0	4.03542296368289	3.334	n/a	stim	s615
241.015	0.882	-2.7200439724674417	end_round	0.0	columbia_card_task_fmri	16.0	0.8	71.0	-80.0	0.2	6.0	2.0	1.0	6.658115453789193	0.882	1.0	stim	s615
241.902	2.25	n/a	-1.0	n/a	columbia_card_task_fmri	n/a	n/a	-1.0	n/a	n/a	n/a	n/a	n/a	n/a	n/a	n/a	feedback	s615
244.152	0.272	n/a	-1.0	n/a	columbia_card_task_fmri	n/a	n/a	-1.0	n/a	n/a	n/a	n/a	n/a	n/a	n/a	n/a	ITI	s615
244.427	2.059	2.9799560275325594	draw_card	0.0	columbia_card_task_fmri	17.0	0.8333333333333334	89.0	-70.0	0.1666666666666666	6.0	1.0	1.0	0.6816539836754245	2.059	n/a	stim	s615
246.489	0.496	0.079956027532559	end_round	0.0	columbia_card_task_fmri	17.0	0.8	71.0	-70.0	0.2	6.0	2.0	1.0	3.0584257015184733	0.496	1.0	stim	s615
246.991	2.25	n/a	-1.0	n/a	columbia_card_task_fmri	n/a	n/a	-1.0	n/a	n/a	n/a	n/a	n/a	n/a	n/a	n/a	feedback	s615
249.241	0.136	n/a	-1.0	n/a	columbia_card_task_fmri	n/a	n/a	-1.0	n/a	n/a	n/a	n/a	n/a	n/a	n/a	n/a	ITI	s615
249.38	7.417	2.9799560275325576	draw_card	0.0	columbia_card_task_fmri	25.0	0.75	89.0	-65.0	0.25	8.0	1.0	2.0	7.2292146705969955	7.417	n/a	stim	s615
256.799	0.693	-0.2343296867531541	end_round	0.0	columbia_card_task_fmri	25.0	0.7142857142857143	71.0	-65.0	0.2857142857142857	8.0	2.0	2.0	8.915804534281875	0.693	1.0	stim	s615
257.499	2.25	n/a	-1.0	n/a	columbia_card_task_fmri	n/a	n/a	-1.0	n/a	n/a	n/a	n/a	n/a	n/a	n/a	n/a	feedback	s615
259.749	0.204	n/a	-1.0	n/a	columbia_card_task_fmri	n/a	n/a	-1.0	n/a	n/a	n/a	n/a	n/a	n/a	n/a	n/a	ITI	s615
259.956	1.967	2.9799560275325576	draw_card	0.0	columbia_card_task_fmri	30.0	0.75	89.0	-80.0	0.25	8.0	1.0	2.0	15.888931396978007	1.967	n/a	stim	s615
261.927	1.185	-0.948615401038866	end_round	0.0	columbia_card_task_fmri	30.0	0.7142857142857143	71.0	-80.0	0.2857142857142857	8.0	2.0	2.0	17.95036853857208	1.185	1.0	stim	s615
263.116	2.25	n/a	-1.0	n/a	columbia_card_task_fmri	n/a	n/a	-1.0	n/a	n/a	n/a	n/a	n/a	n/a	n/a	n/a	feedback	s615
265.366	0.272	n/a	-1.0	n/a	columbia_card_task_fmri	n/a	n/a	-1.0	n/a	n/a	n/a	n/a	n/a	n/a	n/a	n/a	ITI	s615
265.642	2.079	2.6799560275325587	draw_card	0.0	columbia_card_task_fmri	13.0	0.9	89.0	-95.0	0.1	10.0	1.0	1.0	0.658670829697364	2.079	n/a	stim	s615
267.724	0.967	1.4799560275325576	draw_card	0.0	columbia_card_task_fmri	13.0	0.8888888888888888	89.0	-95.0	0.1111111111111111	10.0	2.0	1.0	2.1996349385966454	0.967	n/a	stim	s615
268.695	0.479	-0.0200439724674423	end_round	0.0	columbia_card_task_fmri	13.0	0.875	71.0	-95.0	0.125	10.0	3.0	1.0	3.975983380300868	0.479	2.0	stim	s615
269.181	2.25	n/a	-1.0	n/a	columbia_card_task_fmri	n/a	n/a	-1.0	n/a	n/a	n/a	n/a	n/a	n/a	n/a	n/a	feedback	s615
271.431	0.272	n/a	-1.0	n/a	columbia_card_task_fmri	n/a	n/a	-1.0	n/a	n/a	n/a	n/a	n/a	n/a	n/a	n/a	ITI	s615
271.705	1.704	4.079956027532557	draw_card	0.0	columbia_card_task_fmri	14.0	0.9	89.0	-90.0	0.1	10.0	1.0	1.0	-0.5411924665947865	1.704	n/a	stim	s615
273.412	0.442	2.9244004719770005	draw_card	0.0	columbia_card_task_fmri	14.0	0.8888888888888888	89.0	-90.0	0.1111111111111111	10.0	2.0	1.0	0.942686715027591	0.442	n/a	stim	s615
273.859	0.774	1.4799560275325576	end_round	0.0	columbia_card_task_fmri	14.0	0.875	71.0	-90.0	0.125	10.0	3.0	1.0	2.6532317344717526	0.774	2.0	stim	s615
274.638	2.25	n/a	-1.0	n/a	columbia_card_task_fmri	n/a	n/a	-1.0	n/a	n/a	n/a	n/a	n/a	n/a	n/a	n/a	feedback	s615
276.888	0.34	n/a	-1.0	n/a	columbia_card_task_fmri	n/a	n/a	-1.0	n/a	n/a	n/a	n/a	n/a	n/a	n/a	n/a	ITI	s615
277.232	1.883	-0.7200439724674417	draw_card	1.0	columbia_card_task_fmri	16.0	0.8	89.0	-70.0	0.2	10.0	1.0	2.0	2.658464181294434	1.883	1.0	stim	s615
279.121	2.25	n/a	-1.0	n/a	columbia_card_task_fmri	n/a	n/a	-1.0	n/a	n/a	n/a	n/a	n/a	n/a	n/a	n/a	feedback	s615
281.371	0.204	n/a	-1.0	n/a	columbia_card_task_fmri	n/a	n/a	-1.0	n/a	n/a	n/a	n/a	n/a	n/a	n/a	n/a	ITI	s615
281.578	2.314	-1.4367106391341085	draw_card	0.0	columbia_card_task_fmri	7.0	0.9166666666666666	89.0	-100.0	0.0833333333333333	12.0	1.0	1.0	-2.1677517216905926	2.314	n/a	stim	s615
283.895	0.414	-2.247316699740171	end_round	0.0	columbia_card_task_fmri	7.0	0.9090909090909092	71.0	-100.0	0.0909090909090909	12.0	2.0	1.0	-0.9808024711562168	0.414	1.0	stim	s615
284.313	2.25	n/a	-1.0	n/a	columbia_card_task_fmri	n/a	n/a	-1.0	n/a	n/a	n/a	n/a	n/a	n/a	n/a	n/a	feedback	s615
286.563	0.068	n/a	-1.0	n/a	columbia_card_task_fmri	n/a	n/a	-1.0	n/a	n/a	n/a	n/a	n/a	n/a	n/a	n/a	ITI	s615
286.634	2.156	-1.186710639134107	draw_card	0.0	columbia_card_task_fmri	14.0	0.8333333333333334	89.0	-80.0	0.1666666666666666	12.0	1.0	2.0	3.2901354585060787	2.156	n/a	stim	s615
288.793	1.165	-2.610953063376536	end_round	0.0	columbia_card_task_fmri	14.0	0.8181818181818181	71.0	-80.0	0.1818181818181818	12.0	2.0	2.0	4.513586010776784	1.165	1.0	stim	s615
289.965	2.25	n/a	-1.0	n/a	columbia_card_task_fmri	n/a	n/a	-1.0	n/a	n/a	n/a	n/a	n/a	n/a	n/a	n/a	feedback	s615
292.215	0.0	n/a	-1.0	n/a	columbia_card_task_fmri	n/a	n/a	-1.0	n/a	n/a	n/a	n/a	n/a	n/a	n/a	n/a	ITI	s615
292.217	2.261	0.4799560275325576	draw_card	0.0	columbia_card_task_fmri	15.0	0.8333333333333334	89.0	-75.0	0.1666666666666666	12.0	1.0	2.0	1.7995695784425365	2.261	n/a	stim	s615
294.482	0.46	-0.8836803361038075	draw_card	0.0	columbia_card_task_fmri	15.0	0.8181818181818181	89.0	-75.0	0.1818181818181818	12.0	2.0	2.0	2.970948754590069	0.46	n/a	stim	s615
294.945	1.538	-2.5200439724674424	draw_card	0.0	columbia_card_task_fmri	15.0	0.8	89.0	-75.0	0.2	12.0	3.0	2.0	4.258315392125077	1.538	n/a	stim	s615
296.487	1.168	-4.520043972467441	end_round	0.0	columbia_card_task_fmri	15.0	0.7777777777777778	71.0	-75.0	0.2222222222222222	12.0	4.0	2.0	5.674768147108971	1.168	3.0	stim	s615
297.659	2.25	n/a	-1.0	n/a	columbia_card_task_fmri	n/a	n/a	-1.0	n/a	n/a	n/a	n/a	n/a	n/a	n/a	n/a	feedback	s615
299.909	0.408	n/a	-1.0	n/a	columbia_card_task_fmri	n/a	n/a	-1.0	n/a	n/a	n/a	n/a	n/a	n/a	n/a	n/a	ITI	s615
300.32	5.424	-0.5200439724674424	draw_card	0.0	columbia_card_task_fmri	15.0	0.8	89.0	-65.0	0.2	15.0	1.0	3.0	0.25871525859543	5.424	n/a	stim	s615
305.747	0.671	-1.6629011153245847	draw_card	0.0	columbia_card_task_fmri	15.0	0.7857142857142857	89.0	-65.0	0.2142857142857142	15.0	2.0	3.0	1.0846969615670543	0.671	n/a	stim	s615
306.421	2.48	-2.981582434005906	draw_card	0.0	columbia_card_task_fmri	15.0	0.7692307692307692	89.0	-65.0	0.2307692307692307	15.0	3.0	3.0	1.964536648718877	2.48	n/a	stim	s615
308.905	0.672	-4.520043972467443	draw_card	0.0	columbia_card_task_fmri	15.0	0.75	89.0	-65.0	0.25	15.0	4.0	3.0	2.8994570406588736	0.672	n/a	stim	s615
309.581	0.726	-6.338225790649259	draw_card	0.0	columbia_card_task_fmri	15.0	0.7272727272727273	89.0	-65.0	0.2727272727272727	15.0	5.0	3.0	3.8872904212020174	0.726	n/a	stim	s615
310.312	1.574	-8.520043972467443	end_round	0.0	columbia_card_task_fmri	15.0	0.7	71.0	-65.0	0.3	15.0	6.0	3.0	4.918863307502285	1.574	5.0	stim	s615
311.89	2.25	n/a	-1.0	n/a	columbia_card_task_fmri	n/a	n/a	-1.0	n/a	n/a	n/a	n/a	n/a	n/a	n/a	n/a	feedback	s615
314.14	0.204	n/a	-1.0	n/a	columbia_card_task_fmri	n/a	n/a	-1.0	n/a	n/a	n/a	n/a	n/a	n/a	n/a	n/a	ITI	s615
314.349	2.822	-1.2700439724674424	draw_card	0.0	columbia_card_task_fmri	14.0	0.8125	89.0	-70.0	0.1875	16.0	1.0	3.0	1.0448684494211378	2.822	n/a	stim	s615
317.174	0.384	-2.3200439724674413	draw_card	0.0	columbia_card_task_fmri	14.0	0.8	89.0	-70.0	0.2	16.0	2.0	3.0	1.858543888989324	0.384	n/a	stim	s615
317.563	0.358	-3.5200439724674424	draw_card	0.0	columbia_card_task_fmri	14.0	0.7857142857142857	89.0	-70.0	0.2142857142857142	16.0	3.0	3.0	2.7258335164605185	0.358	n/a	stim	s615
317.925	0.288	-4.904659357082828	draw_card	0.0	columbia_card_task_fmri	14.0	0.7692307692307692	89.0	-70.0	0.2307692307692307	16.0	4.0	3.0	3.6496741272120232	0.288	n/a	stim	s615
318.217	0.361	-6.520043972467443	draw_card	0.0	columbia_card_task_fmri	14.0	0.75	89.0	-70.0	0.25	16.0	5.0	3.0	4.631349540033504	0.361	n/a	stim	s615
318.581	3.648	-8.429134881558351	draw_card	0.0	columbia_card_task_fmri	14.0	0.7272727272727273	89.0	-70.0	0.2727272727272727	16.0	6.0	3.0	5.668583587110803	3.648	n/a	stim	s615
322.233	1.101	-10.720043972467444	end_round	0.0	columbia_card_task_fmri	14.0	0.7	71.0	-70.0	0.3	16.0	7.0	3.0	6.751743996102562	1.101	6.0	stim	s615
323.337	2.25	n/a	-1.0	n/a	columbia_card_task_fmri	n/a	n/a	-1.0	n/a	n/a	n/a	n/a	n/a	n/a	n/a	n/a	feedback	s615
325.587	0.136	n/a	-1.0	n/a	columbia_card_task_fmri	n/a	n/a	-1.0	n/a	n/a	n/a	n/a	n/a	n/a	n/a	n/a	ITI	s615
325.727	1.977	-1.3325439724674424	draw_card	0.0	columbia_card_task_fmri	11.0	0.6875	89.0	-30.0	0.3125	16.0	1.0	5.0	-12.734815454045393	1.977	n/a	stim	s615
327.707	1.314	-2.1867106391341085	end_round	0.0	columbia_card_task_fmri	11.0	0.6666666666666667	71.0	-30.0	0.3333333333333333	16.0	2.0	5.0	-12.411340144683624	1.314	1.0	stim	s615
329.029	2.25	n/a	-1.0	n/a	columbia_card_task_fmri	n/a	n/a	-1.0	n/a	n/a	n/a	n/a	n/a	n/a	n/a	n/a	feedback	s615
331.279	0.34	n/a	-1.0	n/a	columbia_card_task_fmri	n/a	n/a	-1.0	n/a	n/a	n/a	n/a	n/a	n/a	n/a	n/a	ITI	s615
331.623	1.175	3.4799560275325576	draw_card	0.0	columbia_card_task_fmri	15.0	0.8666666666666667	89.0	-75.0	0.1333333333333333	15.0	1.0	2.0	-1.1470022895639571	1.175	n/a	stim	s615
332.802	2.651	2.6228131703897017	draw_card	0.0	columbia_card_task_fmri	15.0	0.8571428571428572	89.0	-75.0	0.1428571428571428	15.0	2.0	2.0	-0.2477873071852094	2.651	n/a	stim	s615
335.457	1.8	1.633802181378711	draw_card	0.0	columbia_card_task_fmri	15.0	0.8461538461538461	89.0	-75.0	0.1538461538461538	15.0	3.0	2.0	0.730772043274527	1.8	n/a	stim	s615
337.262	2.95	0.4799560275325576	draw_card	0.0	columbia_card_task_fmri	15.0	0.8333333333333334	89.0	-75.0	0.1666666666666666	15.0	4.0	2.0	1.7995695784425365	2.95	n/a	stim	s615
340.216	1.387	-0.8836803361038075	draw_card	0.0	columbia_card_task_fmri	15.0	0.8181818181818181	89.0	-75.0	0.1818181818181818	15.0	5.0	2.0	2.970948754590069	1.387	n/a	stim	s615
341.607	1.248	-2.5200439724674424	draw_card	0.0	columbia_card_task_fmri	15.0	0.8	89.0	-75.0	0.2	15.0	6.0	2.0	4.258315392125077	1.248	n/a	stim	s615
342.858	0.772	-4.520043972467441	end_round	0.0	columbia_card_task_fmri	15.0	0.7777777777777778	71.0	-75.0	0.2222222222222222	15.0	7.0	2.0	5.674768147108971	0.772	6.0	stim	s615
343.634	2.25	n/a	-1.0	n/a	columbia_card_task_fmri	n/a	n/a	-1.0	n/a	n/a	n/a	n/a	n/a	n/a	n/a	n/a	feedback	s615
345.884	0.068	n/a	-1.0	n/a	columbia_card_task_fmri	n/a	n/a	-1.0	n/a	n/a	n/a	n/a	n/a	n/a	n/a	n/a	ITI	s615
345.955	1.448	5.213289360865892	draw_card	0.0	columbia_card_task_fmri	17.0	0.8666666666666667	89.0	-75.0	0.1333333333333333	15.0	1.0	2.0	-0.4672148484797311	1.448	n/a	stim	s615
347.406	0.456	4.337098884675417	draw_card	0.0	columbia_card_task_fmri	17.0	0.8571428571428572	89.0	-75.0	0.1428571428571428	15.0	2.0	2.0	0.4519874134879273	0.456	n/a	stim	s615
347.866	0.457	3.3261098736864043	draw_card	0.0	columbia_card_task_fmri	17.0	0.8461538461538461	89.0	-75.0	0.1538461538461538	15.0	3.0	2.0	1.4522973713100669	0.457	n/a	stim	s615
348.327	1.425	2.146622694199225	draw_card	1.0	columbia_card_task_fmri	17.0	0.8333333333333334	89.0	-75.0	0.1666666666666666	15.0	4.0	2.0	2.5448509306106004	1.425	4.0	stim	s615
349.761	2.25	n/a	-1.0	n/a	columbia_card_task_fmri	n/a	n/a	-1.0	n/a	n/a	n/a	n/a	n/a	n/a	n/a	n/a	feedback	s615
352.011	0.34	n/a	-1.0	n/a	columbia_card_task_fmri	n/a	n/a	-1.0	n/a	n/a	n/a	n/a	n/a	n/a	n/a	n/a	ITI	s615
352.355	2.243	0.7924560275325576	draw_card	0.0	columbia_card_task_fmri	2.0	0.9375	89.0	-25.0	0.0625	16.0	1.0	1.0	-25.19162503072184	2.243	n/a	stim	s615
354.602	0.357	0.6799560275325576	draw_card	0.0	columbia_card_task_fmri	2.0	0.9333333333333332	89.0	-25.0	0.0666666666666666	16.0	2.0	1.0	-24.99282065489145	0.357	n/a	stim	s615
354.963	0.325	0.5513845989611292	draw_card	0.0	columbia_card_task_fmri	2.0	0.9285714285714286	89.0	-25.0	0.0714285714285714	16.0	3.0	1.0	-24.774776376350435	0.325	n/a	stim	s615
355.291	0.349	0.4030329506094807	draw_card	0.0	columbia_card_task_fmri	2.0	0.9230769230769232	89.0	-25.0	0.0769230769230769	16.0	4.0	1.0	-24.5342201514768	0.349	n/a	stim	s615
355.645	1.722	0.2299560275325578	end_round	0.0	columbia_card_task_fmri	2.0	0.9166666666666666	71.0	-25.0	0.0833333333333333	16.0	5.0	1.0	-24.26705947736328	1.722	4.0	stim	s615
357.374	2.25	n/a	-1.0	n/a	columbia_card_task_fmri	n/a	n/a	-1.0	n/a	n/a	n/a	n/a	n/a	n/a	n/a	n/a	feedback	s615
359.624	0.136	n/a	-1.0	n/a	columbia_card_task_fmri	n/a	n/a	-1.0	n/a	n/a	n/a	n/a	n/a	n/a	n/a	n/a	ITI	s615
359.764	1.836	2.9799560275325576	draw_card	0.0	columbia_card_task_fmri	9.0	0.9375	89.0	-95.0	0.0625	16.0	1.0	1.0	-6.565917304377258	1.836	n/a	stim	s615
361.604	0.371	2.546622694199225	draw_card	0.0	columbia_card_task_fmri	9.0	0.9333333333333332	89.0	-95.0	0.0666666666666666	16.0	2.0	1.0	-5.798286542916756	0.371	n/a	stim	s615
361.979	1.059	2.0513845989611297	draw_card	0.0	columbia_card_task_fmri	9.0	0.9285714285714286	89.0	-95.0	0.0714285714285714	16.0	3.0	1.0	-4.956488763454562	1.059	n/a	stim	s615
363.042	1.421	1.4799560275325576	draw_card	0.0	columbia_card_task_fmri	9.0	0.9230769230769232	89.0	-95.0	0.0769230769230769	16.0	4.0	1.0	-4.027915109603306	1.421	n/a	stim	s615
364.467	0.409	0.8132893608658915	draw_card	0.0	columbia_card_task_fmri	9.0	0.9166666666666666	89.0	-95.0	0.0833333333333333	16.0	5.0	1.0	-2.99679559499376	0.409	n/a	stim	s615
364.879	1.608	0.0254105729871025	draw_card	0.0	columbia_card_task_fmri	9.0	0.9090909090909092	89.0	-95.0	0.0909090909090909	16.0	6.0	1.0	-1.8431338418796024	1.608	n/a	stim	s615
366.493	1.224	-0.9200439724674428	draw_card	0.0	columbia_card_task_fmri	9.0	0.9	89.0	-95.0	0.1	16.0	7.0	1.0	-0.5411924665947865	1.224	n/a	stim	s615
367.721	2.203	-2.0755995280229977	draw_card	0.0	columbia_card_task_fmri	9.0	0.8888888888888888	89.0	-95.0	0.1111111111111111	16.0	8.0	1.0	0.9426867150275982	2.203	n/a	stim	s615
369.93	0.628	-3.5200439724674424	end_round	0.0	columbia_card_task_fmri	9.0	0.875	71.0	-95.0	0.125	16.0	9.0	1.0	2.6532317344717526	0.628	8.0	stim	s615
370.567	2.25	n/a	-1.0	n/a	columbia_card_task_fmri	n/a	n/a	-1.0	n/a	n/a	n/a	n/a	n/a	n/a	n/a	n/a	feedback	s615
372.817	0.068	n/a	-1.0	n/a	columbia_card_task_fmri	n/a	n/a	-1.0	n/a	n/a	n/a	n/a	n/a	n/a	n/a	n/a	ITI	s615
372.889	1.793	4.542456027532557	draw_card	0.0	columbia_card_task_fmri	11.0	0.9375	89.0	-100.0	0.0625	16.0	1.0	1.0	-4.8717755453058444	1.793	n/a	stim	s615
374.687	0.383	4.079956027532559	draw_card	0.0	columbia_card_task_fmri	11.0	0.9333333333333332	89.0	-100.0	0.0666666666666666	16.0	2.0	1.0	-4.0524596845793575	0.383	n/a	stim	s615
375.074	0.298	3.5513845989611306	draw_card	0.0	columbia_card_task_fmri	11.0	0.9285714285714286	89.0	-100.0	0.0714285714285714	16.0	3.0	1.0	-3.153984252783204	0.298	n/a	stim	s615
375.376	0.852	2.94149448907102	draw_card	0.0	columbia_card_task_fmri	11.0	0.9230769230769232	89.0	-100.0	0.0769230769230769	16.0	4.0	1.0	-2.162891669422621	0.852	n/a	stim	s615
376.231	1.212	2.2299560275325576	draw_card	0.0	columbia_card_task_fmri	11.0	0.9166666666666666	89.0	-100.0	0.0833333333333333	16.0	5.0	1.0	-1.0623504477288144	1.212	n/a	stim	s615
377.448	0.982	1.389046936623466	draw_card	0.0	columbia_card_task_fmri	11.0	0.9090909090909092	89.0	-100.0	0.0909090909090909	16.0	6.0	1.0	0.1689817685503811	0.982	n/a	stim	s615
378.435	0.874	0.3799560275325579	draw_card	0.0	columbia_card_task_fmri	11.0	0.9	89.0	-100.0	0.1	16.0	7.0	1.0	1.5585747665932956	0.874	n/a	stim	s615
379.313	0.898	-0.8533773058007763	draw_card	0.0	columbia_card_task_fmri	11.0	0.8888888888888888	89.0	-100.0	0.1111111111111111	16.0	8.0	1.0	3.142352277597773	0.898	n/a	stim	s615
380.216	1.151	-2.3950439724674424	end_round	0.0	columbia_card_task_fmri	11.0	0.875	71.0	-100.0	0.125	16.0	9.0	1.0	4.968052979220836	1.151	8.0	stim	s615
381.372	2.25	n/a	-1.0	n/a	columbia_card_task_fmri	n/a	n/a	-1.0	n/a	n/a	n/a	n/a	n/a	n/a	n/a	n/a	feedback	s615
383.622	0.068	n/a	-1.0	n/a	columbia_card_task_fmri	n/a	n/a	-1.0	n/a	n/a	n/a	n/a	n/a	n/a	n/a	n/a	ITI	s615
383.694	1.889	5.104956027532557	draw_card	0.0	columbia_card_task_fmri	16.0	0.875	89.0	-75.0	0.125	16.0	1.0	2.0	-1.6456358358745256	1.889	n/a	stim	s615
385.587	0.352	4.346622694199224	draw_card	0.0	columbia_card_task_fmri	16.0	0.8666666666666667	89.0	-75.0	0.1333333333333333	16.0	2.0	2.0	-0.8071090185417482	0.352	n/a	stim	s615
385.942	0.327	3.4799560275325594	draw_card	0.0	columbia_card_task_fmri	16.0	0.8571428571428572	89.0	-75.0	0.1428571428571428	16.0	3.0	2.0	0.1020996164590073	0.327	n/a	stim	s615
386.274	1.188	2.4799560275325576	draw_card	0.0	columbia_card_task_fmri	16.0	0.8461538461538461	89.0	-75.0	0.1538461538461538	16.0	4.0	2.0	1.0915342837527433	1.188	n/a	stim	s615
387.465	0.446	1.3132893608658915	draw_card	1.0	columbia_card_task_fmri	16.0	0.8333333333333334	89.0	-75.0	0.1666666666666666	16.0	5.0	2.0	2.1722098444764555	0.446	5.0	stim	s615
387.916	2.25	n/a	-1.0	n/a	columbia_card_task_fmri	n/a	n/a	-1.0	n/a	n/a	n/a	n/a	n/a	n/a	n/a	n/a	feedback	s615
390.166	0.068	n/a	-1.0	n/a	columbia_card_task_fmri	n/a	n/a	-1.0	n/a	n/a	n/a	n/a	n/a	n/a	n/a	n/a	ITI	s615
390.239	3.501	5.354956027532557	draw_card	0.0	columbia_card_task_fmri	17.0	0.875	89.0	-80.0	0.125	16.0	1.0	2.0	0.3384409605459808	3.501	n/a	stim	s615
393.745	0.281	4.546622694199225	draw_card	0.0	columbia_card_task_fmri	17.0	0.8666666666666667	89.0	-80.0	0.1333333333333333	16.0	2.0	2.0	1.2322685144565213	0.281	n/a	stim	s615
394.03	0.269	3.622813170389704	draw_card	0.0	columbia_card_task_fmri	17.0	0.8571428571428572	89.0	-80.0	0.1428571428571428	16.0	3.0	2.0	2.201438554185053	0.269	n/a	stim	s615
394.303	1.54	2.5568791044556343	draw_card	0.0	columbia_card_task_fmri	17.0	0.8461538461538461	89.0	-80.0	0.1538461538461538	16.0	4.0	2.0	3.2561245985228098	1.54	n/a	stim	s615
395.847	1.449	1.313289360865893	draw_card	0.0	columbia_card_task_fmri	17.0	0.8333333333333334	89.0	-80.0	0.1666666666666666	16.0	5.0	2.0	4.408067775211634	1.449	n/a	stim	s615
397.3	1.337	-0.1564076088310808	draw_card	0.0	columbia_card_task_fmri	17.0	0.8181818181818181	89.0	-80.0	0.1818181818181818	16.0	6.0	2.0	5.670571592880982	1.337	n/a	stim	s615
398.642	1.75	-1.920043972467441	draw_card	0.0	columbia_card_task_fmri	17.0	0.8	89.0	-80.0	0.2	16.0	7.0	2.0	7.058084535205779	1.75	n/a	stim	s615
400.396	1.08	-4.075599528022998	end_round	0.0	columbia_card_task_fmri	17.0	0.7777777777777778	71.0	-80.0	0.2222222222222222	16.0	8.0	2.0	8.584723995770375	1.08	7.0	stim	s615
401.483	2.25	n/a	-1.0	n/a	columbia_card_task_fmri	n/a	n/a	-1.0	n/a	n/a	n/a	n/a	n/a	n/a	n/a	n/a	feedback	s615
403.733	0.136	n/a	-1.0	n/a	columbia_card_task_fmri	n/a	n/a	-1.0	n/a	n/a	n/a	n/a	n/a	n/a	n/a	n/a	ITI	s615
414.874	1.705	-0.3533773058007745	draw_card	0.0	columbia_card_task_fmri	13.0	0.8333333333333334	89.0	-70.0	0.1666666666666666	6.0	1.0	1.0	-0.8088868316054523	1.705	n/a	stim	s615
416.584	0.578	-3.120043972467442	end_round	0.0	columbia_card_task_fmri	13.0	0.8	71.0	-70.0	0.2	6.0	2.0	1.0	1.458585183115062	0.578	1.0	stim	s615
417.17	2.25	n/a	-1.0	n/a	columbia_card_task_fmri	n/a	n/a	-1.0	n/a	n/a	n/a	n/a	n/a	n/a	n/a	n/a	feedback	s615
419.42	0.0	n/a	-1.0	n/a	columbia_card_task_fmri	n/a	n/a	-1.0	n/a	n/a	n/a	n/a	n/a	n/a	n/a	n/a	ITI	s615
419.423	1.182	-0.3533773058007745	draw_card	0.0	columbia_card_task_fmri	15.0	0.8333333333333334	89.0	-80.0	0.1666666666666666	6.0	1.0	1.0	3.66277885068456	1.182	n/a	stim	s615
420.609	0.446	-3.5200439724674424	end_round	0.0	columbia_card_task_fmri	15.0	0.8	71.0	-80.0	0.2	6.0	2.0	1.0	6.258147023213084	0.446	1.0	stim	s615
421.06	2.25	n/a	-1.0	n/a	columbia_card_task_fmri	n/a	n/a	-1.0	n/a	n/a	n/a	n/a	n/a	n/a	n/a	n/a	feedback	s615
423.31	0.136	n/a	-1.0	n/a	columbia_card_task_fmri	n/a	n/a	-1.0	n/a	n/a	n/a	n/a	n/a	n/a	n/a	n/a	ITI	s615
423.45	1.177	1.3132893608658915	draw_card	1.0	columbia_card_task_fmri	16.0	0.8333333333333334	89.0	-75.0	0.1666666666666666	6.0	1.0	1.0	2.1722098444764555	1.177	1.0	stim	s615
424.632	2.25	n/a	-1.0	n/a	columbia_card_task_fmri	n/a	n/a	-1.0	n/a	n/a	n/a	n/a	n/a	n/a	n/a	n/a	feedback	s615
426.882	0.34	n/a	-1.0	n/a	columbia_card_task_fmri	n/a	n/a	-1.0	n/a	n/a	n/a	n/a	n/a	n/a	n/a	n/a	ITI	s615
427.226	1.985	2.4799560275325576	draw_card	0.0	columbia_card_task_fmri	21.0	0.75	89.0	-55.0	0.25	8.0	1.0	2.0	1.1675812027754873	1.985	n/a	stim	s615
429.216	0.47	-0.2343296867531559	end_round	0.0	columbia_card_task_fmri	21.0	0.7142857142857143	71.0	-55.0	0.2857142857142857	8.0	2.0	2.0	2.591770995374489	0.47	1.0	stim	s615
429.69	2.25	n/a	-1.0	n/a	columbia_card_task_fmri	n/a	n/a	-1.0	n/a	n/a	n/a	n/a	n/a	n/a	n/a	n/a	feedback	s615
431.94	0.408	n/a	-1.0	n/a	columbia_card_task_fmri	n/a	n/a	-1.0	n/a	n/a	n/a	n/a	n/a	n/a	n/a	n/a	ITI	s615
432.352	1.693	3.7299560275325576	draw_card	0.0	columbia_card_task_fmri	26.0	0.75	89.0	-65.0	0.25	8.0	1.0	2.0	7.662194898210998	1.693	n/a	stim	s615
434.048	0.588	0.4799560275325611	end_round	0.0	columbia_card_task_fmri	26.0	0.7142857142857143	71.0	-65.0	0.2857142857142857	8.0	2.0	2.0	9.36752735838423	0.588	1.0	stim	s615
434.645	2.25	n/a	-1.0	n/a	columbia_card_task_fmri	n/a	n/a	-1.0	n/a	n/a	n/a	n/a	n/a	n/a	n/a	n/a	feedback	s615
436.895	0.136	n/a	-1.0	n/a	columbia_card_task_fmri	n/a	n/a	-1.0	n/a	n/a	n/a	n/a	n/a	n/a	n/a	n/a	ITI	s615
437.035	1.719	-1.1867106391341085	draw_card	0.0	columbia_card_task_fmri	15.0	0.7777777777777778	89.0	-60.0	0.2222222222222222	9.0	1.0	2.0	-0.5607119325966465	1.719	n/a	stim	s615
438.759	0.347	-3.2700439724674424	end_round	0.0	columbia_card_task_fmri	15.0	0.75	71.0	-60.0	0.25	9.0	2.0	2.0	0.734615159000505	0.347	1.0	stim	s615
439.114	2.25	n/a	-1.0	n/a	columbia_card_task_fmri	n/a	n/a	-1.0	n/a	n/a	n/a	n/a	n/a	n/a	n/a	n/a	feedback	s615
441.364	0.136	n/a	-1.0	n/a	columbia_card_task_fmri	n/a	n/a	-1.0	n/a	n/a	n/a	n/a	n/a	n/a	n/a	n/a	ITI	s615
441.504	1.684	3.1799560275325587	draw_card	0.0	columbia_card_task_fmri	13.0	0.9	89.0	-90.0	0.1	10.0	1.0	1.0	-0.8411566319367871	1.684	n/a	stim	s615
443.193	0.635	2.035511583088113	draw_card	0.0	columbia_card_task_fmri	13.0	0.8888888888888888	89.0	-90.0	0.1111111111111111	10.0	2.0	1.0	0.6284512425992688	0.635	n/a	stim	s615
443.832	1.193	0.6049560275325576	draw_card	0.0	columbia_card_task_fmri	13.0	0.875	89.0	-90.0	0.125	10.0	3.0	1.0	2.3225453277667327	1.193	n/a	stim	s615
445.03	0.495	-1.234329686753154	end_round	0.0	columbia_card_task_fmri	13.0	0.8571428571428572	71.0	-90.0	0.1428571428571428	10.0	4.0	1.0	4.300803550234853	0.495	3.0	stim	s615
445.533	2.25	n/a	-1.0	n/a	columbia_card_task_fmri	n/a	n/a	-1.0	n/a	n/a	n/a	n/a	n/a	n/a	n/a	n/a	feedback	s615
447.783	0.0	n/a	-1.0	n/a	columbia_card_task_fmri	n/a	n/a	-1.0	n/a	n/a	n/a	n/a	n/a	n/a	n/a	n/a	ITI	s615
447.786	2.46	4.479956027532557	draw_card	0.0	columbia_card_task_fmri	15.0	0.9	89.0	-95.0	0.1	10.0	1.0	1.0	1.258606205519996	2.46	n/a	stim	s615
450.251	0.482	3.2577338053103344	draw_card	0.0	columbia_card_task_fmri	15.0	0.8888888888888888	89.0	-95.0	0.1111111111111111	10.0	2.0	1.0	2.8281126089047675	0.482	n/a	stim	s615
450.736	0.918	1.7299560275325576	draw_card	0.0	columbia_card_task_fmri	15.0	0.875	89.0	-95.0	0.125	10.0	3.0	1.0	4.637362584845583	0.918	n/a	stim	s615
451.659	0.69	-0.2343296867531559	end_round	0.0	columbia_card_task_fmri	15.0	0.8571428571428572	71.0	-95.0	0.1428571428571428	10.0	4.0	1.0	6.7500899593512855	0.69	3.0	stim	s615
452.355	2.25	n/a	-1.0	n/a	columbia_card_task_fmri	n/a	n/a	-1.0	n/a	n/a	n/a	n/a	n/a	n/a	n/a	n/a	feedback	s615
454.605	0.068	n/a	-1.0	n/a	columbia_card_task_fmri	n/a	n/a	-1.0	n/a	n/a	n/a	n/a	n/a	n/a	n/a	n/a	ITI	s615
454.678	1.644	0.2799560275325583	draw_card	0.0	columbia_card_task_fmri	16.0	0.8	89.0	-65.0	0.2	10.0	1.0	2.0	0.6586708296973711	1.644	n/a	stim	s615
456.325	0.479	-1.5200439724674406	draw_card	0.0	columbia_card_task_fmri	16.0	0.7777777777777778	89.0	-65.0	0.2222222222222222	10.0	2.0	2.0	1.9334527449844077	0.479	n/a	stim	s615
456.809	0.603	-3.7700439724674415	end_round	0.0	columbia_card_task_fmri	16.0	0.75	71.0	-65.0	0.25	10.0	3.0	2.0	3.332428699890152	0.603	2.0	stim	s615
457.421	2.25	n/a	-1.0	n/a	columbia_card_task_fmri	n/a	n/a	-1.0	n/a	n/a	n/a	n/a	n/a	n/a	n/a	n/a	feedback	s615
459.671	0.0	n/a	-1.0	n/a	columbia_card_task_fmri	n/a	n/a	-1.0	n/a	n/a	n/a	n/a	n/a	n/a	n/a	n/a	ITI	s615
459.676	2.553	-1.0200439724674424	draw_card	0.0	columbia_card_task_fmri	7.0	0.9166666666666666	89.0	-95.0	0.0833333333333333	12.0	1.0	1.0	-3.5494878405811363	2.553	n/a	stim	s615
462.234	0.651	-1.7927712451947158	draw_card	0.0	columbia_card_task_fmri	7.0	0.9090909090909092	89.0	-95.0	0.0909090909090909	12.0	2.0	1.0	-2.418017893932973	0.651	n/a	stim	s615
462.89	1.734	-2.7200439724674426	draw_card	0.0	columbia_card_task_fmri	7.0	0.9	89.0	-95.0	0.1	12.0	3.0	1.0	-1.1411200947667872	1.734	n/a	stim	s615
464.63	1.463	-3.853377305800776	draw_card	0.0	columbia_card_task_fmri	7.0	0.8888888888888888	89.0	-95.0	0.1111111111111111	12.0	4.0	1.0	0.3142164408063053	1.463	n/a	stim	s615
466.098	0.551	-5.270043972467443	end_round	0.0	columbia_card_task_fmri	7.0	0.875	71.0	-95.0	0.125	12.0	5.0	1.0	1.991859558361547	0.551	4.0	stim	s615
466.659	2.25	n/a	-1.0	n/a	columbia_card_task_fmri	n/a	n/a	-1.0	n/a	n/a	n/a	n/a	n/a	n/a	n/a	n/a	feedback	s615
468.909	0.0	n/a	-1.0	n/a	columbia_card_task_fmri	n/a	n/a	-1.0	n/a	n/a	n/a	n/a	n/a	n/a	n/a	n/a	ITI	s615
468.914	1.871	-0.3533773058007745	draw_card	1.0	columbia_card_task_fmri	14.0	0.8333333333333334	89.0	-75.0	0.1666666666666666	12.0	1.0	2.0	1.4269301601469806	1.871	1.0	stim	s615
470.795	2.25	n/a	-1.0	n/a	columbia_card_task_fmri	n/a	n/a	-1.0	n/a	n/a	n/a	n/a	n/a	n/a	n/a	n/a	feedback	s615
473.045	0.136	n/a	-1.0	n/a	columbia_card_task_fmri	n/a	n/a	-1.0	n/a	n/a	n/a	n/a	n/a	n/a	n/a	n/a	ITI	s615
473.187	1.567	1.3132893608658915	draw_card	0.0	columbia_card_task_fmri	15.0	0.8333333333333334	89.0	-70.0	0.1666666666666666	12.0	1.0	2.0	-0.0636184373796489	1.567	n/a	stim	s615
474.758	1.448	0.0254105729871008	draw_card	1.0	columbia_card_task_fmri	15.0	0.8181818181818181	89.0	-70.0	0.1818181818181818	12.0	2.0	2.0	1.042670866496863	1.448	2.0	stim	s615
476.214	2.25	n/a	-1.0	n/a	columbia_card_task_fmri	n/a	n/a	-1.0	n/a	n/a	n/a	n/a	n/a	n/a	n/a	n/a	feedback	s615
478.464	0.136	n/a	-1.0	n/a	columbia_card_task_fmri	n/a	n/a	-1.0	n/a	n/a	n/a	n/a	n/a	n/a	n/a	n/a	ITI	s615
478.604	2.618	-0.7200439724674417	draw_card	0.0	columbia_card_task_fmri	16.0	0.8	89.0	-70.0	0.2	15.0	1.0	3.0	2.658464181294434	2.618	n/a	stim	s615
481.228	0.353	-1.9486154010388712	draw_card	1.0	columbia_card_task_fmri	16.0	0.7857142857142857	89.0	-70.0	0.2142857142857142	15.0	2.0	3.0	3.5464076206909496	0.353	2.0	stim	s615
481.586	2.25	n/a	-1.0	n/a	columbia_card_task_fmri	n/a	n/a	-1.0	n/a	n/a	n/a	n/a	n/a	n/a	n/a	n/a	feedback	s615
483.836	0.476	n/a	-1.0	n/a	columbia_card_task_fmri	n/a	n/a	-1.0	n/a	n/a	n/a	n/a	n/a	n/a	n/a	n/a	ITI	s615
484.317	2.571	-0.3325439724674424	draw_card	0.0	columbia_card_task_fmri	14.0	0.8125	89.0	-65.0	0.1875	16.0	1.0	3.0	-0.9064711197327816	2.571	n/a	stim	s615
486.894	0.473	-1.320043972467441	draw_card	1.0	columbia_card_task_fmri	14.0	0.8	89.0	-65.0	0.2	16.0	2.0	3.0	-0.1412391879164261	0.473	2.0	stim	s615
487.375	2.25	n/a	-1.0	n/a	columbia_card_task_fmri	n/a	n/a	-1.0	n/a	n/a	n/a	n/a	n/a	n/a	n/a	n/a	feedback	s615
489.625	0.204	n/a	-1.0	n/a	columbia_card_task_fmri	n/a	n/a	-1.0	n/a	n/a	n/a	n/a	n/a	n/a	n/a	n/a	ITI	s615
489.835	2.128	-0.5825439724674424	draw_card	0.0	columbia_card_task_fmri	16.0	0.8125	89.0	-75.0	0.1875	16.0	1.0	3.0	3.7767848811634153	2.128	n/a	stim	s615
491.968	0.553	-1.7200439724674417	end_round	0.0	columbia_card_task_fmri	16.0	0.8	71.0	-75.0	0.2	16.0	2.0	3.0	4.658280238367404	0.553	1.0	stim	s615
492.528	2.25	n/a	-1.0	n/a	columbia_card_task_fmri	n/a	n/a	-1.0	n/a	n/a	n/a	n/a	n/a	n/a	n/a	n/a	feedback	s615
494.778	0.068	n/a	-1.0	n/a	columbia_card_task_fmri	n/a	n/a	-1.0	n/a	n/a	n/a	n/a	n/a	n/a	n/a	n/a	ITI	s615
494.851	1.347	3.679956027532559	draw_card	0.0	columbia_card_task_fmri	16.0	0.8666666666666667	89.0	-80.0	0.1333333333333333	15.0	1.0	2.0	0.8923702603931503	1.347	n/a	stim	s615
496.204	0.262	2.765670313246846	draw_card	0.0	columbia_card_task_fmri	16.0	0.8571428571428572	89.0	-80.0	0.1428571428571428	15.0	2.0	2.0	1.8515467897012456	0.262	n/a	stim	s615
496.471	0.588	1.7107252583017876	draw_card	0.0	columbia_card_task_fmri	16.0	0.8461538461538461	89.0	-80.0	0.1538461538461538	15.0	3.0	2.0	2.8953576630117297	0.588	n/a	stim	s615
497.064	2.795	0.4799560275325594	draw_card	1.0	columbia_card_task_fmri	16.0	0.8333333333333334	89.0	-80.0	0.1666666666666666	15.0	4.0	2.0	4.03542296368289	2.795	4.0	stim	s615
499.866	2.25	n/a	-1.0	n/a	columbia_card_task_fmri	n/a	n/a	-1.0	n/a	n/a	n/a	n/a	n/a	n/a	n/a	n/a	feedback	s615
502.116	0.068	n/a	-1.0	n/a	columbia_card_task_fmri	n/a	n/a	-1.0	n/a	n/a	n/a	n/a	n/a	n/a	n/a	n/a	ITI	s615
502.19	1.344	4.546622694199225	draw_card	0.0	columbia_card_task_fmri	17.0	0.8666666666666667	89.0	-80.0	0.1333333333333333	15.0	1.0	2.0	1.2322685144565213	1.344	n/a	stim	s615
503.539	0.587	3.622813170389704	draw_card	0.0	columbia_card_task_fmri	17.0	0.8571428571428572	89.0	-80.0	0.1428571428571428	15.0	2.0	2.0	2.201438554185053	0.587	n/a	stim	s615
504.132	3.693	2.5568791044556343	draw_card	1.0	columbia_card_task_fmri	17.0	0.8461538461538461	89.0	-80.0	0.1538461538461538	15.0	3.0	2.0	3.2561245985228098	3.693	3.0	stim	s615
507.835	2.25	n/a	-1.0	n/a	columbia_card_task_fmri	n/a	n/a	-1.0	n/a	n/a	n/a	n/a	n/a	n/a	n/a	n/a	feedback	s615
510.085	0.34	n/a	-1.0	n/a	columbia_card_task_fmri	n/a	n/a	-1.0	n/a	n/a	n/a	n/a	n/a	n/a	n/a	n/a	ITI	s615
510.428	1.523	0.4799560275325576	draw_card	0.0	columbia_card_task_fmri	1.0	0.9375	89.0	-15.0	0.0625	16.0	1.0	1.0	-27.842274779321475	1.523	n/a	stim	s615
511.955	0.479	0.4132893608658909	draw_card	0.0	columbia_card_task_fmri	1.0	0.9333333333333332	89.0	-15.0	0.0666666666666666	16.0	2.0	1.0	-27.72502733010696	0.479	n/a	stim	s615
512.439	0.293	0.3370988846754148	draw_card	0.0	columbia_card_task_fmri	1.0	0.9285714285714286	89.0	-15.0	0.0714285714285714	16.0	3.0	1.0	-27.5963962483797	0.293	n/a	stim	s615
512.737	0.911	0.2491867967633267	draw_card	0.0	columbia_card_task_fmri	1.0	0.9230769230769232	89.0	-15.0	0.0769230769230769	16.0	4.0	1.0	-27.454444207189187	0.911	n/a	stim	s615
513.653	1.337	0.1466226941992242	draw_card	0.0	columbia_card_task_fmri	1.0	0.9166666666666666	89.0	-15.0	0.0833333333333333	16.0	5.0	1.0	-27.29674793908495	1.337	n/a	stim	s615
514.994	0.594	0.0254105729871029	draw_card	1.0	columbia_card_task_fmri	1.0	0.9090909090909092	89.0	-15.0	0.0909090909090909	16.0	6.0	1.0	-27.1202344244316	0.594	6.0	stim	s615
515.593	2.25	n/a	-1.0	n/a	columbia_card_task_fmri	n/a	n/a	-1.0	n/a	n/a	n/a	n/a	n/a	n/a	n/a	n/a	feedback	s615
517.843	0.476	n/a	-1.0	n/a	columbia_card_task_fmri	n/a	n/a	-1.0	n/a	n/a	n/a	n/a	n/a	n/a	n/a	n/a	ITI	s615
518.323	1.098	3.6049560275325576	draw_card	0.0	columbia_card_task_fmri	10.0	0.9375	89.0	-100.0	0.0625	16.0	1.0	1.0	-5.113798043745788	1.098	n/a	stim	s615
519.426	0.483	3.1466226941992246	draw_card	0.0	columbia_card_task_fmri	10.0	0.9333333333333332	89.0	-100.0	0.0666666666666666	16.0	2.0	1.0	-4.301865702187808	0.483	n/a	stim	s615
519.914	0.502	2.6228131703897017	draw_card	0.0	columbia_card_task_fmri	10.0	0.9285714285714286	89.0	-100.0	0.0714285714285714	16.0	3.0	1.0	-3.4114870093811582	0.502	n/a	stim	s615
520.421	1.743	2.018417565994097	draw_card	1.0	columbia_card_task_fmri	10.0	0.9230769230769232	89.0	-100.0	0.0769230769230769	16.0	4.0	1.0	-2.429325630939534	1.743	4.0	stim	s615
522.171	2.25	n/a	-1.0	n/a	columbia_card_task_fmri	n/a	n/a	-1.0	n/a	n/a	n/a	n/a	n/a	n/a	n/a	n/a	feedback	s615
524.421	0.272	n/a	-1.0	n/a	columbia_card_task_fmri	n/a	n/a	-1.0	n/a	n/a	n/a	n/a	n/a	n/a	n/a	n/a	ITI	s615
524.698	1.493	4.229956027532557	draw_card	0.0	columbia_card_task_fmri	15.0	0.875	89.0	-75.0	0.125	16.0	1.0	2.0	-1.976312234362986	1.493	n/a	stim	s615
526.196	0.936	3.4799560275325576	draw_card	0.0	columbia_card_task_fmri	15.0	0.8666666666666667	89.0	-75.0	0.1333333333333333	16.0	2.0	2.0	-1.1470022895639571	0.936	n/a	stim	s615
527.136	0.353	2.6228131703897017	draw_card	0.0	columbia_card_task_fmri	15.0	0.8571428571428572	89.0	-75.0	0.1428571428571428	16.0	3.0	2.0	-0.2477873071852094	0.353	n/a	stim	s615
527.494	0.529	1.633802181378711	draw_card	0.0	columbia_card_task_fmri	15.0	0.8461538461538461	89.0	-75.0	0.1538461538461538	16.0	4.0	2.0	0.730772043274527	0.529	n/a	stim	s615
528.029	1.768	0.4799560275325576	draw_card	0.0	columbia_card_task_fmri	15.0	0.8333333333333334	89.0	-75.0	0.1666666666666666	16.0	5.0	2.0	1.7995695784425365	1.768	n/a	stim	s615
529.802	1.571	-0.8836803361038075	end_round	0.0	columbia_card_task_fmri	15.0	0.8181818181818181	71.0	-75.0	0.1818181818181818	16.0	6.0	2.0	2.970948754590069	1.571	5.0	stim	s615
531.382	2.25	n/a	-1.0	n/a	columbia_card_task_fmri	n/a	n/a	-1.0	n/a	n/a	n/a	n/a	n/a	n/a	n/a	n/a	feedback	s615
533.632	0.884	n/a	-1.0	n/a	columbia_card_task_fmri	n/a	n/a	-1.0	n/a	n/a	n/a	n/a	n/a	n/a	n/a	n/a	ITI	s615
534.521	2.8	4.479956027532557	draw_card	0.0	columbia_card_task_fmri	16.0	0.875	89.0	-80.0	0.125	16.0	1.0	2.0	0.0077594402596119	2.8	n/a	stim	s615
537.327	0.332	3.679956027532559	draw_card	0.0	columbia_card_task_fmri	16.0	0.8666666666666667	89.0	-80.0	0.1333333333333333	16.0	2.0	2.0	0.8923702603931503	0.332	n/a	stim	s615
537.663	0.303	2.765670313246846	draw_card	0.0	columbia_card_task_fmri	16.0	0.8571428571428572	89.0	-80.0	0.1428571428571428	16.0	3.0	2.0	1.8515467897012456	0.303	n/a	stim	s615
537.971	0.315	1.7107252583017876	draw_card	0.0	columbia_card_task_fmri	16.0	0.8461538461538461	89.0	-80.0	0.1538461538461538	16.0	4.0	2.0	2.8953576630117297	0.315	n/a	stim	s615
538.292	0.808	0.4799560275325594	draw_card	0.0	columbia_card_task_fmri	16.0	0.8333333333333334	89.0	-80.0	0.1666666666666666	16.0	5.0	2.0	4.03542296368289	0.808	n/a	stim	s615
539.105	0.458	-0.9745894270128992	draw_card	1.0	columbia_card_task_fmri	16.0	0.8181818181818181	89.0	-80.0	0.1818181818181818	16.0	6.0	2.0	5.284909050032141	0.458	6.0	stim	s615
539.571	2.25	n/a	-1.0	n/a	columbia_card_task_fmri	n/a	n/a	-1.0	n/a	n/a	n/a	n/a	n/a	n/a	n/a	n/a	feedback	s615
541.821	0.136	n/a	-1.0	n/a	columbia_card_task_fmri	n/a	n/a	-1.0	n/a	n/a	n/a	n/a	n/a	n/a	n/a	n/a	ITI	s615
541.962	1.58	1.6674560275325576	draw_card	1.0	columbia_card_task_fmri	4.0	0.6875	89.0	-5.0	0.3125	16.0	1.0	5.0	-27.545752833815783	1.58	1.0	stim	s615
543.552	2.25	n/a	-1.0	n/a	columbia_card_task_fmri	n/a	n/a	-1.0	n/a	n/a	n/a	n/a	n/a	n/a	n/a	n/a	feedback	s615
545.802	0.136	n/a	-1.0	n/a	columbia_card_task_fmri	n/a	n/a	-1.0	n/a	n/a	n/a	n/a	n/a	n/a	n/a	n/a	ITI	s615
545.943	2.38	-1.186710639134107	draw_card	0.0	columbia_card_task_fmri	14.0	0.8333333333333334	89.0	-80.0	0.1666666666666666	6.0	1.0	1.0	3.2901354585060787	2.38	n/a	stim	s615
548.327	0.49	-4.320043972467442	end_round	0.0	columbia_card_task_fmri	14.0	0.8	71.0	-80.0	0.2	6.0	2.0	1.0	5.858179264245642	0.49	1.0	stim	s615
548.823	2.25	n/a	-1.0	n/a	columbia_card_task_fmri	n/a	n/a	-1.0	n/a	n/a	n/a	n/a	n/a	n/a	n/a	n/a	feedback	s615
551.073	0.068	n/a	-1.0	n/a	columbia_card_task_fmri	n/a	n/a	-1.0	n/a	n/a	n/a	n/a	n/a	n/a	n/a	n/a	ITI	s615
551.146	1.665	0.4799560275325576	draw_card	0.0	columbia_card_task_fmri	15.0	0.8333333333333334	89.0	-75.0	0.1666666666666666	6.0	1.0	1.0	1.7995695784425365	1.665	n/a	stim	s615
552.816	0.383	-2.5200439724674424	end_round	0.0	columbia_card_task_fmri	15.0	0.8	71.0	-75.0	0.2	6.0	2.0	1.0	4.258315392125077	0.383	1.0	stim	s615
553.207	2.25	n/a	-1.0	n/a	columbia_card_task_fmri	n/a	n/a	-1.0	n/a	n/a	n/a	n/a	n/a	n/a	n/a	n/a	feedback	s615
555.457	0.068	n/a	-1.0	n/a	columbia_card_task_fmri	n/a	n/a	-1.0	n/a	n/a	n/a	n/a	n/a	n/a	n/a	n/a	ITI	s615
555.531	1.549	2.146622694199225	draw_card	0.0	columbia_card_task_fmri	16.0	0.8333333333333334	89.0	-70.0	0.1666666666666666	6.0	1.0	1.0	0.3090172873490999	1.549	n/a	stim	s615
557.085	0.404	-0.7200439724674417	end_round	0.0	columbia_card_task_fmri	16.0	0.8	71.0	-70.0	0.2	6.0	2.0	1.0	2.658464181294434	0.404	1.0	stim	s615
557.495	2.25	n/a	-1.0	n/a	columbia_card_task_fmri	n/a	n/a	-1.0	n/a	n/a	n/a	n/a	n/a	n/a	n/a	n/a	feedback	s615
559.745	0.612	n/a	-1.0	n/a	columbia_card_task_fmri	n/a	n/a	-1.0	n/a	n/a	n/a	n/a	n/a	n/a	n/a	n/a	ITI	s615
560.362	1.388	2.7299560275325576	draw_card	0.0	columbia_card_task_fmri	23.0	0.75	89.0	-60.0	0.25	8.0	1.0	2.0	4.198374984887053	1.388	n/a	stim	s615
561.756	1.066	-0.2343296867531541	end_round	0.0	columbia_card_task_fmri	23.0	0.7142857142857143	71.0	-60.0	0.2857142857142857	8.0	2.0	2.0	5.753765764713172	1.066	1.0	stim	s615
562.831	2.25	n/a	-1.0	n/a	columbia_card_task_fmri	n/a	n/a	-1.0	n/a	n/a	n/a	n/a	n/a	n/a	n/a	n/a	feedback	s615
565.081	0.476	n/a	-1.0	n/a	columbia_card_task_fmri	n/a	n/a	-1.0	n/a	n/a	n/a	n/a	n/a	n/a	n/a	n/a	ITI	s615
565.564	1.748	3.2299560275325576	draw_card	0.0	columbia_card_task_fmri	27.0	0.75	89.0	-70.0	0.25	8.0	1.0	2.0	10.260090323479917	1.748	n/a	stim	s615
567.316	0.797	-0.2343296867531576	draw_card	0.0	columbia_card_task_fmri	27.0	0.7142857142857143	89.0	-70.0	0.2857142857142857	8.0	2.0	2.0	12.07787777954954	0.797	n/a	stim	s615
568.118	0.432	-4.853377305800771	end_round	0.0	columbia_card_task_fmri	27.0	0.6666666666666667	71.0	-70.0	0.3333333333333333	8.0	3.0	2.0	13.983873447616476	0.432	2.0	stim	s615
568.559	2.25	n/a	-1.0	n/a	columbia_card_task_fmri	n/a	n/a	-1.0	n/a	n/a	n/a	n/a	n/a	n/a	n/a	n/a	feedback	s615
570.809	0.0	n/a	-1.0	n/a	columbia_card_task_fmri	n/a	n/a	-1.0	n/a	n/a	n/a	n/a	n/a	n/a	n/a	n/a	ITI	s615
570.813	1.608	-1.5200439724674406	draw_card	0.0	columbia_card_task_fmri	16.0	0.7777777777777778	89.0	-65.0	0.2222222222222222	9.0	1.0	2.0	1.9334527449844077	1.608	n/a	stim	s615
572.426	1.172	-3.7700439724674415	draw_card	0.0	columbia_card_task_fmri	16.0	0.75	89.0	-65.0	0.25	9.0	2.0	2.0	3.332428699890152	1.172	n/a	stim	s615
573.604	0.42	-6.662901115324583	end_round	0.0	columbia_card_task_fmri	16.0	0.7142857142857143	71.0	-65.0	0.2857142857142857	9.0	3.0	2.0	4.8503336991556125	0.42	2.0	stim	s615
574.029	2.25	n/a	-1.0	n/a	columbia_card_task_fmri	n/a	n/a	-1.0	n/a	n/a	n/a	n/a	n/a	n/a	n/a	n/a	feedback	s615
576.279	0.068	n/a	-1.0	n/a	columbia_card_task_fmri	n/a	n/a	-1.0	n/a	n/a	n/a	n/a	n/a	n/a	n/a	n/a	ITI	s615
576.351	1.246	3.679956027532559	draw_card	0.0	columbia_card_task_fmri	13.0	0.9	89.0	-85.0	0.1	10.0	1.0	1.0	-2.3409664909679897	1.246	n/a	stim	s615
577.602	1.065	2.5910671386436683	draw_card	0.0	columbia_card_task_fmri	13.0	0.8888888888888888	89.0	-85.0	0.1111111111111111	10.0	2.0	1.0	-0.9427156495147456	1.065	n/a	stim	s615
578.673	0.51	1.2299560275325576	draw_card	0.0	columbia_card_task_fmri	13.0	0.875	89.0	-85.0	0.125	10.0	3.0	1.0	0.6691232438401755	0.51	n/a	stim	s615
579.187	0.448	-0.5200439724674406	end_round	0.0	columbia_card_task_fmri	13.0	0.8571428571428572	71.0	-85.0	0.1428571428571428	10.0	4.0	1.0	2.551331039819537	0.448	3.0	stim	s615
579.642	2.25	n/a	-1.0	n/a	columbia_card_task_fmri	n/a	n/a	-1.0	n/a	n/a	n/a	n/a	n/a	n/a	n/a	n/a	feedback	s615
581.892	0.204	n/a	-1.0	n/a	columbia_card_task_fmri	n/a	n/a	-1.0	n/a	n/a	n/a	n/a	n/a	n/a	n/a	n/a	ITI	s615
582.102	2.254	-1.320043972467441	draw_card	0.0	columbia_card_task_fmri	14.0	0.8	89.0	-65.0	0.2	10.0	1.0	2.0	-0.1412391879164261	2.254	n/a	stim	s615
584.362	0.395	-3.075599528022996	draw_card	0.0	columbia_card_task_fmri	14.0	0.7777777777777778	89.0	-65.0	0.2222222222222222	10.0	2.0	2.0	1.1020599024820117	0.395	n/a	stim	s615
584.762	1.634	-5.270043972467443	end_round	0.0	columbia_card_task_fmri	14.0	0.75	71.0	-65.0	0.25	10.0	3.0	2.0	2.466486420330824	1.634	2.0	stim	s615
586.407	2.25	n/a	-1.0	n/a	columbia_card_task_fmri	n/a	n/a	-1.0	n/a	n/a	n/a	n/a	n/a	n/a	n/a	n/a	feedback	s615
588.657	0.272	n/a	-1.0	n/a	columbia_card_task_fmri	n/a	n/a	-1.0	n/a	n/a	n/a	n/a	n/a	n/a	n/a	n/a	ITI	s615
588.934	1.412	0.079956027532559	draw_card	0.0	columbia_card_task_fmri	17.0	0.8	89.0	-70.0	0.2	10.0	1.0	2.0	3.0584257015184733	1.412	n/a	stim	s615
590.352	1.559	-1.8533773058007743	draw_card	0.0	columbia_card_task_fmri	17.0	0.7777777777777778	89.0	-70.0	0.2222222222222222	10.0	2.0	2.0	4.4276551524035455	1.559	n/a	stim	s615
591.918	0.535	-4.270043972467443	draw_card	0.0	columbia_card_task_fmri	17.0	0.75	89.0	-70.0	0.25	10.0	3.0	2.0	5.930278466434615	0.535	n/a	stim	s615
592.459	0.412	-7.3771868296103005	end_round	0.0	columbia_card_task_fmri	17.0	0.7142857142857143	71.0	-70.0	0.2857142857142857	10.0	4.0	2.0	7.560640354934655	0.412	3.0	stim	s615
592.878	2.25	n/a	-1.0	n/a	columbia_card_task_fmri	n/a	n/a	-1.0	n/a	n/a	n/a	n/a	n/a	n/a	n/a	n/a	feedback	s615
595.128	0.068	n/a	-1.0	n/a	columbia_card_task_fmri	n/a	n/a	-1.0	n/a	n/a	n/a	n/a	n/a	n/a	n/a	n/a	ITI	s615
595.201	1.563	-1.1867106391341085	draw_card	0.0	columbia_card_task_fmri	13.0	0.8333333333333334	89.0	-75.0	0.1666666666666666	12.0	1.0	2.0	1.0542916184838802	1.563	n/a	stim	s615
596.77	0.364	-2.520043972467444	draw_card	0.0	columbia_card_task_fmri	13.0	0.8181818181818181	89.0	-75.0	0.1818181818181818	12.0	2.0	2.0	2.1996349385966454	0.364	n/a	stim	s615
597.139	0.36	-4.1200439724674425	draw_card	0.0	columbia_card_task_fmri	13.0	0.8	89.0	-75.0	0.2	12.0	3.0	2.0	3.4583880961595383	0.36	n/a	stim	s615
597.505	0.437	-6.075599528022996	draw_card	0.0	columbia_card_task_fmri	13.0	0.7777777777777778	89.0	-75.0	0.2222222222222222	12.0	4.0	2.0	4.8433586800283095	0.437	n/a	stim	s615
597.947	0.467	-8.520043972467443	draw_card	1.0	columbia_card_task_fmri	13.0	0.75	89.0	-75.0	0.25	12.0	5.0	2.0	6.363256429265753	0.467	5.0	stim	s615
598.42	2.25	n/a	-1.0	n/a	columbia_card_task_fmri	n/a	n/a	-1.0	n/a	n/a	n/a	n/a	n/a	n/a	n/a	n/a	feedback	s615
600.67	0.272	n/a	-1.0	n/a	columbia_card_task_fmri	n/a	n/a	-1.0	n/a	n/a	n/a	n/a	n/a	n/a	n/a	n/a	ITI	s615
600.946	3.565	0.4799560275325594	draw_card	0.0	columbia_card_task_fmri	14.0	0.8333333333333334	89.0	-70.0	0.1666666666666666	12.0	1.0	2.0	-0.4362531558189353	3.565	n/a	stim	s615
604.517	0.359	-0.7927712451947175	draw_card	0.0	columbia_card_task_fmri	14.0	0.8181818181818181	89.0	-70.0	0.1818181818181818	12.0	2.0	2.0	0.657018076310095	0.359	n/a	stim	s615
604.88	0.793	-2.3200439724674413	draw_card	0.0	columbia_card_task_fmri	14.0	0.8	89.0	-70.0	0.2	12.0	3.0	2.0	1.858543888989324	0.793	n/a	stim	s615
605.679	0.632	-4.186710639134109	draw_card	0.0	columbia_card_task_fmri	14.0	0.7777777777777778	89.0	-70.0	0.2222222222222222	12.0	4.0	2.0	3.180549737676202	0.632	n/a	stim	s615
606.317	0.965	-6.520043972467443	end_round	0.0	columbia_card_task_fmri	14.0	0.75	71.0	-70.0	0.25	12.0	5.0	2.0	4.631349540033504	0.965	4.0	stim	s615
607.291	2.25	n/a	-1.0	n/a	columbia_card_task_fmri	n/a	n/a	-1.0	n/a	n/a	n/a	n/a	n/a	n/a	n/a	n/a	feedback	s615
609.541	0.748	n/a	-1.0	n/a	columbia_card_task_fmri	n/a	n/a	-1.0	n/a	n/a	n/a	n/a	n/a	n/a	n/a	n/a	ITI	s615
610.294	1.262	0.4799560275325594	draw_card	1.0	columbia_card_task_fmri	16.0	0.8333333333333334	89.0	-80.0	0.1666666666666666	12.0	1.0	2.0	4.03542296368289	1.262	1.0	stim	s615
611.566	2.25	n/a	-1.0	n/a	columbia_card_task_fmri	n/a	n/a	-1.0	n/a	n/a	n/a	n/a	n/a	n/a	n/a	n/a	feedback	s615
613.816	0.068	n/a	-1.0	n/a	columbia_card_task_fmri	n/a	n/a	-1.0	n/a	n/a	n/a	n/a	n/a	n/a	n/a	n/a	ITI	s615
613.89	1.887	0.2799560275325583	draw_card	0.0	columbia_card_task_fmri	16.0	0.8	89.0	-65.0	0.2	15.0	1.0	3.0	0.6586708296973711	1.887	n/a	stim	s615
615.783	0.485	-0.8771868296102983	draw_card	0.0	columbia_card_task_fmri	16.0	0.7857142857142857	89.0	-65.0	0.2142857142857142	15.0	2.0	3.0	1.494979553693362	0.485	n/a	stim	s615
616.274	0.433	-2.212351664775136	draw_card	0.0	columbia_card_task_fmri	16.0	0.7692307692307692	89.0	-65.0	0.2307692307692307	15.0	3.0	3.0	2.3858195120967736	0.433	n/a	stim	s615
616.713	0.555	-3.7700439724674415	draw_card	0.0	columbia_card_task_fmri	16.0	0.75	89.0	-65.0	0.25	15.0	4.0	3.0	3.332428699890152	0.555	n/a	stim	s615
617.275	0.982	-5.610953063376533	end_round	0.0	columbia_card_task_fmri	16.0	0.7272727272727273	71.0	-65.0	0.2727272727272727	15.0	5.0	3.0	4.332612287684043	0.982	4.0	stim	s615
618.264	2.25	n/a	-1.0	n/a	columbia_card_task_fmri	n/a	n/a	-1.0	n/a	n/a	n/a	n/a	n/a	n/a	n/a	n/a	feedback	s615
620.514	0.0	n/a	-1.0	n/a	columbia_card_task_fmri	n/a	n/a	-1.0	n/a	n/a	n/a	n/a	n/a	n/a	n/a	n/a	ITI	s615
620.52	2.178	-1.3950439724674424	draw_card	0.0	columbia_card_task_fmri	15.0	0.8125	89.0	-75.0	0.1875	16.0	1.0	3.0	3.386508532305257	2.178	n/a	stim	s615
622.704	1.003	-2.5200439724674424	draw_card	0.0	columbia_card_task_fmri	15.0	0.8	89.0	-75.0	0.2	16.0	2.0	3.0	4.258315392125077	1.003	n/a	stim	s615
623.713	0.738	-3.805758258181727	draw_card	0.0	columbia_card_task_fmri	15.0	0.7857142857142857	89.0	-75.0	0.2142857142857142	16.0	3.0	3.0	5.18756618811031	0.738	n/a	stim	s615
624.456	1.861	-5.289274741698216	draw_card	1.0	columbia_card_task_fmri	15.0	0.7692307692307692	89.0	-75.0	0.2307692307692307	16.0	4.0	3.0	6.177407457888407	1.861	4.0	stim	s615
626.327	2.25	n/a	-1.0	n/a	columbia_card_task_fmri	n/a	n/a	-1.0	n/a	n/a	n/a	n/a	n/a	n/a	n/a	n/a	feedback	s615
628.577	0.204	n/a	-1.0	n/a	columbia_card_task_fmri	n/a	n/a	-1.0	n/a	n/a	n/a	n/a	n/a	n/a	n/a	n/a	ITI	s615
628.786	1.472	-0.8325439724674424	draw_card	0.0	columbia_card_task_fmri	14.0	0.6875	89.0	-35.0	0.3125	16.0	1.0	5.0	-9.027705323594866	1.472	n/a	stim	s615
630.263	1.952	-1.8533773058007743	draw_card	0.0	columbia_card_task_fmri	14.0	0.6666666666666667	89.0	-35.0	0.3333333333333333	16.0	2.0	5.0	-8.641076545069723	1.952	n/a	stim	s615
632.221	2.34	-3.0200439724674424	draw_card	0.0	columbia_card_task_fmri	14.0	0.6428571428571428	89.0	-35.0	0.3571428571428571	16.0	3.0	5.0	-8.2612649550037	2.34	n/a	stim	s615
634.568	0.967	-4.366197818621288	end_round	0.0	columbia_card_task_fmri	14.0	0.6153846153846154	71.0	-35.0	0.3846153846153846	16.0	4.0	5.0	-7.901344262663752	0.967	3.0	stim	s615
635.541	2.25	n/a	-1.0	n/a	columbia_card_task_fmri	n/a	n/a	-1.0	n/a	n/a	n/a	n/a	n/a	n/a	n/a	n/a	feedback	s615
637.791	0.068	n/a	-1.0	n/a	columbia_card_task_fmri	n/a	n/a	-1.0	n/a	n/a	n/a	n/a	n/a	n/a	n/a	n/a	ITI	s615
637.865	1.486	4.346622694199224	draw_card	0.0	columbia_card_task_fmri	16.0	0.8666666666666667	89.0	-75.0	0.1333333333333333	15.0	1.0	2.0	-0.8071090185417482	1.486	n/a	stim	s615
639.357	0.282	3.4799560275325594	draw_card	0.0	columbia_card_task_fmri	16.0	0.8571428571428572	89.0	-75.0	0.1428571428571428	15.0	2.0	2.0	0.1020996164590073	0.282	n/a	stim	s615
639.645	0.291	2.4799560275325576	draw_card	0.0	columbia_card_task_fmri	16.0	0.8461538461538461	89.0	-75.0	0.1538461538461538	15.0	3.0	2.0	1.0915342837527433	0.291	n/a	stim	s615
639.94	0.506	1.3132893608658915	draw_card	0.0	columbia_card_task_fmri	16.0	0.8333333333333334	89.0	-75.0	0.1666666666666666	15.0	4.0	2.0	2.1722098444764555	0.506	n/a	stim	s615
640.452	0.496	-0.0654985179219891	draw_card	1.0	columbia_card_task_fmri	16.0	0.8181818181818181	89.0	-75.0	0.1818181818181818	15.0	5.0	2.0	3.356606905264485	0.496	5.0	stim	s615
640.959	2.25	n/a	-1.0	n/a	columbia_card_task_fmri	n/a	n/a	-1.0	n/a	n/a	n/a	n/a	n/a	n/a	n/a	n/a	feedback	s615
643.209	0.068	n/a	-1.0	n/a	columbia_card_task_fmri	n/a	n/a	-1.0	n/a	n/a	n/a	n/a	n/a	n/a	n/a	n/a	ITI	s615
643.283	1.594	5.01328936086589	draw_card	0.0	columbia_card_task_fmri	16.0	0.8666666666666667	89.0	-70.0	0.1333333333333333	15.0	1.0	2.0	-2.506565756179608	1.594	n/a	stim	s615
644.882	0.358	4.1942417418182725	draw_card	0.0	columbia_card_task_fmri	16.0	0.8571428571428572	89.0	-70.0	0.1428571428571428	15.0	2.0	2.0	-1.647325658725407	0.358	n/a	stim	s615
645.245	0.401	3.249186796763326	draw_card	1.0	columbia_card_task_fmri	16.0	0.8461538461538461	89.0	-70.0	0.1538461538461538	15.0	3.0	2.0	-0.7122678569974923	0.401	3.0	stim	s615
645.653	2.25	n/a	-1.0	n/a	columbia_card_task_fmri	n/a	n/a	-1.0	n/a	n/a	n/a	n/a	n/a	n/a	n/a	n/a	feedback	s615
647.903	0.34	n/a	-1.0	n/a	columbia_card_task_fmri	n/a	n/a	-1.0	n/a	n/a	n/a	n/a	n/a	n/a	n/a	n/a	ITI	s615
648.249	2.548	2.3549560275325576	draw_card	0.0	columbia_card_task_fmri	8.0	0.9375	89.0	-90.0	0.0625	16.0	1.0	1.0	-8.018006023553855	2.548	n/a	stim	s615
650.803	0.344	1.9466226941992244	draw_card	0.0	columbia_card_task_fmri	8.0	0.9333333333333332	89.0	-90.0	0.0666666666666666	16.0	2.0	1.0	-7.294677745127846	0.344	n/a	stim	s615
651.153	0.861	1.4799560275325585	draw_card	0.0	columbia_card_task_fmri	8.0	0.9285714285714286	89.0	-90.0	0.0714285714285714	16.0	3.0	1.0	-6.50146180975765	0.861	n/a	stim	s615
652.021	0.466	0.9414944890710192	draw_card	0.0	columbia_card_task_fmri	8.0	0.9230769230769232	89.0	-90.0	0.0769230769230769	16.0	4.0	1.0	-5.626476841672847	0.466	n/a	stim	s615
652.494	0.466	0.3132893608658906	draw_card	0.0	columbia_card_task_fmri	8.0	0.9166666666666666	89.0	-90.0	0.0833333333333333	16.0	5.0	1.0	-4.654862715236426	0.466	n/a	stim	s615
652.966	0.682	-0.4291348815583515	draw_card	0.0	columbia_card_task_fmri	8.0	0.9090909090909092	89.0	-90.0	0.0909090909090909	16.0	6.0	1.0	-3.5677767523312767	0.682	n/a	stim	s615
653.654	0.519	-1.3200439724674422	draw_card	0.0	columbia_card_task_fmri	8.0	0.9	89.0	-90.0	0.1	16.0	7.0	1.0	-2.3409664909679897	0.519	n/a	stim	s615
654.177	1.49	-2.408932861356332	draw_card	0.0	columbia_card_task_fmri	8.0	0.8888888888888888	89.0	-90.0	0.1111111111111111	16.0	8.0	1.0	-0.9427156495147456	1.49	n/a	stim	s615
655.675	0.488	-3.7700439724674415	end_round	0.0	columbia_card_task_fmri	8.0	0.875	71.0	-90.0	0.125	16.0	9.0	1.0	0.6691232438401755	0.488	8.0	stim	s615
656.175	2.25	n/a	-1.0	n/a	columbia_card_task_fmri	n/a	n/a	-1.0	n/a	n/a	n/a	n/a	n/a	n/a	n/a	n/a	feedback	s615
658.425	0.0	n/a	-1.0	n/a	columbia_card_task_fmri	n/a	n/a	-1.0	n/a	n/a	n/a	n/a	n/a	n/a	n/a	n/a	ITI	s615
658.431	2.044	3.9174560275325576	draw_card	0.0	columbia_card_task_fmri	10.0	0.9375	89.0	-95.0	0.0625	16.0	1.0	1.0	-6.32389940719494	2.044	n/a	stim	s615
660.481	0.684	3.4799560275325585	draw_card	0.0	columbia_card_task_fmri	10.0	0.9333333333333332	89.0	-95.0	0.0666666666666666	16.0	2.0	1.0	-5.548884990523455	0.684	n/a	stim	s615
661.171	0.369	2.9799560275325585	draw_card	0.0	columbia_card_task_fmri	10.0	0.9285714285714286	89.0	-95.0	0.0714285714285714	16.0	3.0	1.0	-4.698990331840044	0.369	n/a	stim	s615
661.547	0.371	2.403032950609481	draw_card	1.0	columbia_card_task_fmri	10.0	0.9230769230769232	89.0	-95.0	0.0769230769230769	16.0	4.0	1.0	-3.7614853282544978	0.371	4.0	stim	s615
661.929	2.25	n/a	-1.0	n/a	columbia_card_task_fmri	n/a	n/a	-1.0	n/a	n/a	n/a	n/a	n/a	n/a	n/a	n/a	feedback	s615
664.179	0.0	n/a	-1.0	n/a	columbia_card_task_fmri	n/a	n/a	-1.0	n/a	n/a	n/a	n/a	n/a	n/a	n/a	n/a	ITI	s615
664.187	1.503	4.854956027532557	draw_card	1.0	columbia_card_task_fmri	15.0	0.875	89.0	-70.0	0.125	16.0	1.0	2.0	-3.6296792245188714	1.503	1.0	stim	s615
665.695	2.25	n/a	-1.0	n/a	columbia_card_task_fmri	n/a	n/a	-1.0	n/a	n/a	n/a	n/a	n/a	n/a	n/a	n/a	feedback	s615
667.945	0.272	n/a	-1.0	n/a	columbia_card_task_fmri	n/a	n/a	-1.0	n/a	n/a	n/a	n/a	n/a	n/a	n/a	n/a	ITI	s615
668.224	1.367	3.8549560275325576	draw_card	0.0	columbia_card_task_fmri	16.0	0.875	89.0	-85.0	0.125	16.0	1.0	2.0	1.6611744451820272	1.367	n/a	stim	s615
669.598	0.362	3.013289360865891	draw_card	1.0	columbia_card_task_fmri	16.0	0.8666666666666667	89.0	-85.0	0.1333333333333333	16.0	2.0	2.0	2.591868733616792	0.362	2.0	stim	s615
669.971	2.25	n/a	-1.0	n/a	columbia_card_task_fmri	n/a	n/a	-1.0	n/a	n/a	n/a	n/a	n/a	n/a	n/a	n/a	feedback	s615
672.221	0.204	n/a	-1.0	n/a	columbia_card_task_fmri	n/a	n/a	-1.0	n/a	n/a	n/a	n/a	n/a	n/a	n/a	n/a	ITI	s615
