onset	duration	planning	condition	current_position	exp_stage	experiment_exp_id	goal_state	key_press	problem_id	response_time	start_state	trial_id	worker_id
-64.375	0.0	0	n/a	n/a	n/a	ward_and_allport	n/a	32.0	n/a	25.504	n/a	instructions	s589
3.014	2.757	1	UA_with_intermediate	1,0,0,2,0,0,0,0,0	practice	ward_and_allport	1,2,3,0,0,0,0,0,0	71.0	0.0	2.757	1,0,0,2,3,0,0,0,0	to_hand	s589
5.773	0.388	0	UA_with_intermediate	1,0,0,2,0,0,3,0,0	practice	ward_and_allport	1,2,3,0,0,0,0,0,0	82.0	0.0	0.388	1,0,0,2,3,0,0,0,0	to_board	s589
6.164	0.41	0	UA_with_intermediate	1,0,0,0,0,0,3,0,0	practice	ward_and_allport	1,2,3,0,0,0,0,0,0	71.0	0.0	0.41	1,0,0,2,3,0,0,0,0	to_hand	s589
6.575	0.349	0	UA_with_intermediate	1,2,0,0,0,0,3,0,0	practice	ward_and_allport	1,2,3,0,0,0,0,0,0	89.0	0.0	0.349	1,0,0,2,3,0,0,0,0	to_board	s589
6.926	0.537	0	UA_with_intermediate	1,2,0,0,0,0,0,0,0	practice	ward_and_allport	1,2,3,0,0,0,0,0,0	82.0	0.0	0.537	1,0,0,2,3,0,0,0,0	to_hand	s589
7.464	0.325	0	UA_with_intermediate	1,2,0,3,0,0,0,0,0	practice	ward_and_allport	1,2,3,0,0,0,0,0,0	71.0	0.0	0.325	1,0,0,2,3,0,0,0,0	to_board	s589
7.79	0.757	0	UA_with_intermediate	1,2,0,0,0,0,0,0,0	practice	ward_and_allport	1,2,3,0,0,0,0,0,0	71.0	0.0	0.757	1,0,0,2,3,0,0,0,0	to_hand	s589
8.549	0.326	0	UA_with_intermediate	1,2,3,0,0,0,0,0,0	practice	ward_and_allport	1,2,3,0,0,0,0,0,0	89.0	0.0	0.326	1,0,0,2,3,0,0,0,0	to_board	s589
8.88	1.0	0	UA_with_intermediate	n/a	practice	ward_and_allport	n/a	-1.0	0.0	n/a	n/a	feedback	s589
11.382	3.595	1	UA_with_intermediate	1,0,0,3,0,0,0,0,0	practice	ward_and_allport	1,3,2,0,0,0,0,0,0	89.0	1.0	3.595	1,2,0,3,0,0,0,0,0	to_hand	s589
14.978	0.568	0	UA_with_intermediate	1,0,0,3,0,0,2,0,0	practice	ward_and_allport	1,3,2,0,0,0,0,0,0	82.0	1.0	0.568	1,2,0,3,0,0,0,0,0	to_board	s589
15.549	0.423	0	UA_with_intermediate	1,0,0,0,0,0,2,0,0	practice	ward_and_allport	1,3,2,0,0,0,0,0,0	71.0	1.0	0.423	1,2,0,3,0,0,0,0,0	to_hand	s589
15.973	0.325	0	UA_with_intermediate	1,3,0,0,0,0,2,0,0	practice	ward_and_allport	1,3,2,0,0,0,0,0,0	89.0	1.0	0.325	1,2,0,3,0,0,0,0,0	to_board	s589
16.299	0.454	0	UA_with_intermediate	1,3,0,0,0,0,0,0,0	practice	ward_and_allport	1,3,2,0,0,0,0,0,0	82.0	1.0	0.454	1,2,0,3,0,0,0,0,0	to_hand	s589
16.755	0.443	0	UA_with_intermediate	1,3,2,0,0,0,0,0,0	practice	ward_and_allport	1,3,2,0,0,0,0,0,0	89.0	1.0	0.443	1,2,0,3,0,0,0,0,0	to_board	s589
17.202	1.0	0	UA_with_intermediate	n/a	practice	ward_and_allport	n/a	-1.0	1.0	n/a	n/a	feedback	s589
18.202	1.1	0	UA_with_intermediate	n/a	practice	ward_and_allport	n/a	-1.0	1.0	n/a	n/a	ITI	s589
19.303	2.267	1	UA_without_intermediate	0,0,0,1,2,0,0,0,0	practice	ward_and_allport	3,2,1,0,0,0,0,0,0	82.0	2.0	2.267	0,0,0,1,2,0,3,0,0	to_hand	s589
21.572	0.42	0	UA_without_intermediate	3,0,0,1,2,0,0,0,0	practice	ward_and_allport	3,2,1,0,0,0,0,0,0	89.0	2.0	0.42	0,0,0,1,2,0,3,0,0	to_board	s589
21.995	1.718	0	UA_without_intermediate	3,0,0,1,0,0,0,0,0	practice	ward_and_allport	3,2,1,0,0,0,0,0,0	71.0	2.0	1.718	0,0,0,1,2,0,3,0,0	to_hand	s589
23.713	0.847	0	UA_without_intermediate	3,0,0,1,0,0,2,0,0	practice	ward_and_allport	3,2,1,0,0,0,0,0,0	82.0	2.0	0.847	0,0,0,1,2,0,3,0,0	to_board	s589
24.563	0.917	0	UA_without_intermediate	3,0,0,0,0,0,2,0,0	practice	ward_and_allport	3,2,1,0,0,0,0,0,0	71.0	2.0	0.917	0,0,0,1,2,0,3,0,0	to_hand	s589
25.481	0.838	0	UA_without_intermediate	3,0,0,1,0,0,2,0,0	practice	ward_and_allport	3,2,1,0,0,0,0,0,0	71.0	2.0	0.838	0,0,0,1,2,0,3,0,0	to_board	s589
26.321	0.525	0	UA_without_intermediate	3,0,0,1,0,0,0,0,0	practice	ward_and_allport	3,2,1,0,0,0,0,0,0	82.0	2.0	0.525	0,0,0,1,2,0,3,0,0	to_hand	s589
26.847	0.197	0	UA_without_intermediate	3,2,0,1,0,0,0,0,0	practice	ward_and_allport	3,2,1,0,0,0,0,0,0	89.0	2.0	0.197	0,0,0,1,2,0,3,0,0	to_board	s589
27.046	0.472	0	UA_without_intermediate	3,2,0,0,0,0,0,0,0	practice	ward_and_allport	3,2,1,0,0,0,0,0,0	71.0	2.0	0.472	0,0,0,1,2,0,3,0,0	to_hand	s589
27.519	0.323	0	UA_without_intermediate	3,2,1,0,0,0,0,0,0	practice	ward_and_allport	3,2,1,0,0,0,0,0,0	89.0	2.0	0.323	0,0,0,1,2,0,3,0,0	to_board	s589
27.848	1.0	0	UA_without_intermediate	n/a	practice	ward_and_allport	n/a	-1.0	2.0	n/a	n/a	feedback	s589
28.848	1.2	0	UA_without_intermediate	n/a	practice	ward_and_allport	n/a	-1.0	2.0	n/a	n/a	ITI	s589
30.051	2.396	1	UA_without_intermediate	0,0,0,1,0,0,3,0,0	practice	ward_and_allport	2,3,1,0,0,0,0,0,0	71.0	3.0	2.396	0,0,0,1,2,0,3,0,0	to_hand	s589
32.448	0.291	0	UA_without_intermediate	2,0,0,1,0,0,3,0,0	practice	ward_and_allport	2,3,1,0,0,0,0,0,0	89.0	3.0	0.291	0,0,0,1,2,0,3,0,0	to_board	s589
32.741	1.076	0	UA_without_intermediate	2,0,0,1,0,0,0,0,0	practice	ward_and_allport	2,3,1,0,0,0,0,0,0	82.0	3.0	1.076	0,0,0,1,2,0,3,0,0	to_hand	s589
33.819	0.275	0	UA_without_intermediate	2,3,0,1,0,0,0,0,0	practice	ward_and_allport	2,3,1,0,0,0,0,0,0	89.0	3.0	0.275	0,0,0,1,2,0,3,0,0	to_board	s589
34.097	0.749	0	UA_without_intermediate	2,3,0,0,0,0,0,0,0	practice	ward_and_allport	2,3,1,0,0,0,0,0,0	71.0	3.0	0.749	0,0,0,1,2,0,3,0,0	to_hand	s589
34.847	0.221	0	UA_without_intermediate	2,3,1,0,0,0,0,0,0	practice	ward_and_allport	2,3,1,0,0,0,0,0,0	89.0	3.0	0.221	0,0,0,1,2,0,3,0,0	to_board	s589
35.072	1.0	0	UA_without_intermediate	n/a	practice	ward_and_allport	n/a	-1.0	3.0	n/a	n/a	feedback	s589
36.072	1.0	0	UA_without_intermediate	n/a	practice	ward_and_allport	n/a	-1.0	3.0	n/a	n/a	ITI	s589
39.078	3.357	1	PA_with_intermediate	0,0,0,1,2,0,0,0,0	test	ward_and_allport	0,0,0,1,3,0,2,0,0	71.0	0.0	3.357	0,0,0,1,2,3,0,0,0	to_hand	s589
42.437	0.654	0	PA_with_intermediate	3,0,0,1,2,0,0,0,0	test	ward_and_allport	0,0,0,1,3,0,2,0,0	89.0	0.0	0.654	0,0,0,1,2,3,0,0,0	to_board	s589
43.093	0.648	0	PA_with_intermediate	3,0,0,1,0,0,0,0,0	test	ward_and_allport	0,0,0,1,3,0,2,0,0	71.0	0.0	0.648	0,0,0,1,2,3,0,0,0	to_hand	s589
43.743	0.355	0	PA_with_intermediate	3,0,0,1,0,0,2,0,0	test	ward_and_allport	0,0,0,1,3,0,2,0,0	82.0	0.0	0.355	0,0,0,1,2,3,0,0,0	to_board	s589
44.1	0.578	0	PA_with_intermediate	0,0,0,1,0,0,2,0,0	test	ward_and_allport	0,0,0,1,3,0,2,0,0	89.0	0.0	0.578	0,0,0,1,2,3,0,0,0	to_hand	s589
44.68	0.339	0	PA_with_intermediate	0,0,0,1,3,0,2,0,0	test	ward_and_allport	0,0,0,1,3,0,2,0,0	71.0	0.0	0.339	0,0,0,1,2,3,0,0,0	to_board	s589
45.022	1.0	0	PA_with_intermediate	n/a	test	ward_and_allport	n/a	-1.0	0.0	n/a	n/a	feedback	s589
46.022	1.408	0	PA_with_intermediate	n/a	test	ward_and_allport	n/a	-1.0	0.0	n/a	n/a	ITI	s589
47.432	2.793	1	PA_without_intermediate	0,0,0,1,2,0,0,0,0	test	ward_and_allport	3,1,0,0,0,0,2,0,0	71.0	1.0	2.793	0,0,0,1,2,3,0,0,0	to_hand	s589
50.226	0.349	0	PA_without_intermediate	3,0,0,1,2,0,0,0,0	test	ward_and_allport	3,1,0,0,0,0,2,0,0	89.0	1.0	0.349	0,0,0,1,2,3,0,0,0	to_board	s589
50.578	0.992	0	PA_without_intermediate	3,0,0,1,0,0,0,0,0	test	ward_and_allport	3,1,0,0,0,0,2,0,0	71.0	1.0	0.992	0,0,0,1,2,3,0,0,0	to_hand	s589
51.571	0.305	0	PA_without_intermediate	3,0,0,1,0,0,2,0,0	test	ward_and_allport	3,1,0,0,0,0,2,0,0	82.0	1.0	0.305	0,0,0,1,2,3,0,0,0	to_board	s589
51.879	0.427	0	PA_without_intermediate	3,0,0,0,0,0,2,0,0	test	ward_and_allport	3,1,0,0,0,0,2,0,0	71.0	1.0	0.427	0,0,0,1,2,3,0,0,0	to_hand	s589
52.306	0.28	0	PA_without_intermediate	3,1,0,0,0,0,2,0,0	test	ward_and_allport	3,1,0,0,0,0,2,0,0	89.0	1.0	0.28	0,0,0,1,2,3,0,0,0	to_board	s589
52.59	1.0	0	PA_without_intermediate	n/a	test	ward_and_allport	n/a	-1.0	1.0	n/a	n/a	feedback	s589
53.59	1.68	0	PA_without_intermediate	n/a	test	ward_and_allport	n/a	-1.0	1.0	n/a	n/a	ITI	s589
55.273	2.745	1	PA_with_intermediate	1,2,0,0,0,0,0,0,0	test	ward_and_allport	1,3,0,0,0,0,2,0,0	89.0	2.0	2.745	1,2,3,0,0,0,0,0,0	to_hand	s589
58.019	0.497	0	PA_with_intermediate	1,2,0,3,0,0,0,0,0	test	ward_and_allport	1,3,0,0,0,0,2,0,0	71.0	2.0	0.497	1,2,3,0,0,0,0,0,0	to_board	s589
58.519	0.689	0	PA_with_intermediate	1,0,0,3,0,0,0,0,0	test	ward_and_allport	1,3,0,0,0,0,2,0,0	89.0	2.0	0.689	1,2,3,0,0,0,0,0,0	to_hand	s589
59.209	0.352	0	PA_with_intermediate	1,0,0,3,0,0,2,0,0	test	ward_and_allport	1,3,0,0,0,0,2,0,0	82.0	2.0	0.352	1,2,3,0,0,0,0,0,0	to_board	s589
59.564	0.422	0	PA_with_intermediate	1,0,0,0,0,0,2,0,0	test	ward_and_allport	1,3,0,0,0,0,2,0,0	71.0	2.0	0.422	1,2,3,0,0,0,0,0,0	to_hand	s589
59.987	0.314	0	PA_with_intermediate	1,3,0,0,0,0,2,0,0	test	ward_and_allport	1,3,0,0,0,0,2,0,0	89.0	2.0	0.314	1,2,3,0,0,0,0,0,0	to_board	s589
60.305	1.0	0	PA_with_intermediate	n/a	test	ward_and_allport	n/a	-1.0	2.0	n/a	n/a	feedback	s589
61.305	3.72	0	PA_with_intermediate	n/a	test	ward_and_allport	n/a	-1.0	2.0	n/a	n/a	ITI	s589
65.028	2.716	1	PA_without_intermediate	1,2,0,0,0,0,0,0,0	test	ward_and_allport	0,0,0,3,2,0,1,0,0	89.0	3.0	2.716	1,2,3,0,0,0,0,0,0	to_hand	s589
67.746	0.785	0	PA_without_intermediate	1,2,0,3,0,0,0,0,0	test	ward_and_allport	0,0,0,3,2,0,1,0,0	71.0	3.0	0.785	1,2,3,0,0,0,0,0,0	to_board	s589
68.534	0.455	0	PA_without_intermediate	1,0,0,3,0,0,0,0,0	test	ward_and_allport	0,0,0,3,2,0,1,0,0	89.0	3.0	0.455	1,2,3,0,0,0,0,0,0	to_hand	s589
68.991	0.355	0	PA_without_intermediate	1,0,0,3,2,0,0,0,0	test	ward_and_allport	0,0,0,3,2,0,1,0,0	71.0	3.0	0.355	1,2,3,0,0,0,0,0,0	to_board	s589
69.349	0.352	0	PA_without_intermediate	0,0,0,3,2,0,0,0,0	test	ward_and_allport	0,0,0,3,2,0,1,0,0	89.0	3.0	0.352	1,2,3,0,0,0,0,0,0	to_hand	s589
69.703	0.247	0	PA_without_intermediate	0,0,0,3,2,0,1,0,0	test	ward_and_allport	0,0,0,3,2,0,1,0,0	82.0	3.0	0.247	1,2,3,0,0,0,0,0,0	to_board	s589
69.956	1.0	0	PA_without_intermediate	n/a	test	ward_and_allport	n/a	-1.0	3.0	n/a	n/a	feedback	s589
70.956	2.224	0	PA_without_intermediate	n/a	test	ward_and_allport	n/a	-1.0	3.0	n/a	n/a	ITI	s589
73.182	1.969	1	PA_without_intermediate	0,0,0,1,2,0,0,0,0	test	ward_and_allport	1,0,0,0,0,0,3,2,0	71.0	4.0	1.969	0,0,0,1,2,3,0,0,0	to_hand	s589
75.152	0.474	0	PA_without_intermediate	0,0,0,1,2,0,3,0,0	test	ward_and_allport	1,0,0,0,0,0,3,2,0	82.0	4.0	0.474	0,0,0,1,2,3,0,0,0	to_board	s589
75.63	0.395	0	PA_without_intermediate	0,0,0,1,0,0,3,0,0	test	ward_and_allport	1,0,0,0,0,0,3,2,0	71.0	4.0	0.395	0,0,0,1,2,3,0,0,0	to_hand	s589
76.026	0.361	0	PA_without_intermediate	0,0,0,1,0,0,3,2,0	test	ward_and_allport	1,0,0,0,0,0,3,2,0	82.0	4.0	0.361	0,0,0,1,2,3,0,0,0	to_board	s589
76.39	0.422	0	PA_without_intermediate	0,0,0,0,0,0,3,2,0	test	ward_and_allport	1,0,0,0,0,0,3,2,0	71.0	4.0	0.422	0,0,0,1,2,3,0,0,0	to_hand	s589
76.813	0.275	0	PA_without_intermediate	1,0,0,0,0,0,3,2,0	test	ward_and_allport	1,0,0,0,0,0,3,2,0	89.0	4.0	0.275	0,0,0,1,2,3,0,0,0	to_board	s589
77.095	1.0	0	PA_without_intermediate	n/a	test	ward_and_allport	n/a	-1.0	4.0	n/a	n/a	feedback	s589
78.095	1.272	0	PA_without_intermediate	n/a	test	ward_and_allport	n/a	-1.0	4.0	n/a	n/a	ITI	s589
79.369	1.717	1	PA_with_intermediate	1,2,0,0,0,0,0,0,0	test	ward_and_allport	1,0,0,0,0,0,2,3,0	89.0	5.0	1.717	1,2,3,0,0,0,0,0,0	to_hand	s589
81.088	0.383	0	PA_with_intermediate	1,2,0,3,0,0,0,0,0	test	ward_and_allport	1,0,0,0,0,0,2,3,0	71.0	5.0	0.383	1,2,3,0,0,0,0,0,0	to_board	s589
81.474	0.433	0	PA_with_intermediate	1,0,0,3,0,0,0,0,0	test	ward_and_allport	1,0,0,0,0,0,2,3,0	89.0	5.0	0.433	1,2,3,0,0,0,0,0,0	to_hand	s589
81.908	0.388	0	PA_with_intermediate	1,0,0,3,0,0,2,0,0	test	ward_and_allport	1,0,0,0,0,0,2,3,0	82.0	5.0	0.388	1,2,3,0,0,0,0,0,0	to_board	s589
82.299	0.58	0	PA_with_intermediate	1,0,0,0,0,0,2,0,0	test	ward_and_allport	1,0,0,0,0,0,2,3,0	71.0	5.0	0.58	1,2,3,0,0,0,0,0,0	to_hand	s589
82.88	0.325	0	PA_with_intermediate	1,0,0,0,0,0,2,3,0	test	ward_and_allport	1,0,0,0,0,0,2,3,0	82.0	5.0	0.325	1,2,3,0,0,0,0,0,0	to_board	s589
83.213	1.0	0	PA_with_intermediate	n/a	test	ward_and_allport	n/a	-1.0	5.0	n/a	n/a	feedback	s589
84.213	2.632	0	PA_with_intermediate	n/a	test	ward_and_allport	n/a	-1.0	5.0	n/a	n/a	ITI	s589
86.848	1.825	1	PA_without_intermediate	0,0,0,0,0,0,1,2,0	test	ward_and_allport	3,1,0,2,0,0,0,0,0	82.0	6.0	1.825	0,0,0,0,0,0,1,2,3	to_hand	s589
88.674	0.482	0	PA_without_intermediate	3,0,0,0,0,0,1,2,0	test	ward_and_allport	3,1,0,2,0,0,0,0,0	89.0	6.0	0.482	0,0,0,0,0,0,1,2,3	to_board	s589
89.16	0.805	0	PA_without_intermediate	3,0,0,0,0,0,1,0,0	test	ward_and_allport	3,1,0,2,0,0,0,0,0	82.0	6.0	0.805	0,0,0,0,0,0,1,2,3	to_hand	s589
89.966	0.369	0	PA_without_intermediate	3,0,0,2,0,0,1,0,0	test	ward_and_allport	3,1,0,2,0,0,0,0,0	71.0	6.0	0.369	0,0,0,0,0,0,1,2,3	to_board	s589
90.339	0.444	0	PA_without_intermediate	3,0,0,2,0,0,0,0,0	test	ward_and_allport	3,1,0,2,0,0,0,0,0	82.0	6.0	0.444	0,0,0,0,0,0,1,2,3	to_hand	s589
90.784	0.42	0	PA_without_intermediate	3,1,0,2,0,0,0,0,0	test	ward_and_allport	3,1,0,2,0,0,0,0,0	89.0	6.0	0.42	0,0,0,0,0,0,1,2,3	to_board	s589
91.21	1.0	0	PA_without_intermediate	n/a	test	ward_and_allport	n/a	-1.0	6.0	n/a	n/a	feedback	s589
92.21	1.408	0	PA_without_intermediate	n/a	test	ward_and_allport	n/a	-1.0	6.0	n/a	n/a	ITI	s589
93.622	1.393	1	PA_without_intermediate	0,0,0,1,2,0,0,0,0	test	ward_and_allport	2,0,0,0,0,0,3,1,0	71.0	7.0	1.393	0,0,0,1,2,3,0,0,0	to_hand	s589
95.017	0.384	0	PA_without_intermediate	0,0,0,1,2,0,3,0,0	test	ward_and_allport	2,0,0,0,0,0,3,1,0	82.0	7.0	0.384	0,0,0,1,2,3,0,0,0	to_board	s589
95.405	0.468	0	PA_without_intermediate	0,0,0,1,0,0,3,0,0	test	ward_and_allport	2,0,0,0,0,0,3,1,0	71.0	7.0	0.468	0,0,0,1,2,3,0,0,0	to_hand	s589
95.875	0.343	0	PA_without_intermediate	2,0,0,1,0,0,3,0,0	test	ward_and_allport	2,0,0,0,0,0,3,1,0	89.0	7.0	0.343	0,0,0,1,2,3,0,0,0	to_board	s589
96.222	0.472	0	PA_without_intermediate	2,0,0,0,0,0,3,0,0	test	ward_and_allport	2,0,0,0,0,0,3,1,0	71.0	7.0	0.472	0,0,0,1,2,3,0,0,0	to_hand	s589
96.696	0.365	0	PA_without_intermediate	2,0,0,0,0,0,3,1,0	test	ward_and_allport	2,0,0,0,0,0,3,1,0	82.0	7.0	0.365	0,0,0,1,2,3,0,0,0	to_board	s589
97.068	1.0	0	PA_without_intermediate	n/a	test	ward_and_allport	n/a	-1.0	7.0	n/a	n/a	feedback	s589
98.068	1.0	0	PA_without_intermediate	n/a	test	ward_and_allport	n/a	-1.0	7.0	n/a	n/a	ITI	s589
99.072	2.196	1	PA_with_intermediate	0,0,0,0,0,0,1,2,0	test	ward_and_allport	2,3,0,0,0,0,1,0,0	82.0	8.0	2.196	0,0,0,0,0,0,1,2,3	to_hand	s589
101.27	0.751	0	PA_with_intermediate	0,0,0,3,0,0,1,2,0	test	ward_and_allport	2,3,0,0,0,0,1,0,0	71.0	8.0	0.751	0,0,0,0,0,0,1,2,3	to_board	s589
102.026	0.511	0	PA_with_intermediate	0,0,0,3,0,0,1,0,0	test	ward_and_allport	2,3,0,0,0,0,1,0,0	82.0	8.0	0.511	0,0,0,0,0,0,1,2,3	to_hand	s589
102.537	0.32	0	PA_with_intermediate	2,0,0,3,0,0,1,0,0	test	ward_and_allport	2,3,0,0,0,0,1,0,0	89.0	8.0	0.32	0,0,0,0,0,0,1,2,3	to_board	s589
102.861	0.433	0	PA_with_intermediate	2,0,0,0,0,0,1,0,0	test	ward_and_allport	2,3,0,0,0,0,1,0,0	71.0	8.0	0.433	0,0,0,0,0,0,1,2,3	to_hand	s589
103.295	0.291	0	PA_with_intermediate	2,3,0,0,0,0,1,0,0	test	ward_and_allport	2,3,0,0,0,0,1,0,0	89.0	8.0	0.291	0,0,0,0,0,0,1,2,3	to_board	s589
103.592	1.0	0	PA_with_intermediate	n/a	test	ward_and_allport	n/a	-1.0	8.0	n/a	n/a	feedback	s589
104.592	1.0	0	PA_with_intermediate	n/a	test	ward_and_allport	n/a	-1.0	8.0	n/a	n/a	ITI	s589
105.597	2.028	1	PA_with_intermediate	0,0,0,0,0,0,1,2,0	test	ward_and_allport	0,0,0,2,0,0,1,3,0	82.0	9.0	2.028	0,0,0,0,0,0,1,2,3	to_hand	s589
107.626	0.424	0	PA_with_intermediate	0,0,0,3,0,0,1,2,0	test	ward_and_allport	0,0,0,2,0,0,1,3,0	71.0	9.0	0.424	0,0,0,0,0,0,1,2,3	to_board	s589
108.055	0.901	0	PA_with_intermediate	0,0,0,0,0,0,1,2,0	test	ward_and_allport	0,0,0,2,0,0,1,3,0	71.0	9.0	0.901	0,0,0,0,0,0,1,2,3	to_hand	s589
108.958	1.091	0	PA_with_intermediate	3,0,0,0,0,0,1,2,0	test	ward_and_allport	0,0,0,2,0,0,1,3,0	89.0	9.0	1.091	0,0,0,0,0,0,1,2,3	to_board	s589
110.053	0.985	0	PA_with_intermediate	3,0,0,0,0,0,1,0,0	test	ward_and_allport	0,0,0,2,0,0,1,3,0	82.0	9.0	0.985	0,0,0,0,0,0,1,2,3	to_hand	s589
111.04	0.336	0	PA_with_intermediate	3,0,0,2,0,0,1,0,0	test	ward_and_allport	0,0,0,2,0,0,1,3,0	71.0	9.0	0.336	0,0,0,0,0,0,1,2,3	to_board	s589
111.38	0.588	0	PA_with_intermediate	0,0,0,2,0,0,1,0,0	test	ward_and_allport	0,0,0,2,0,0,1,3,0	89.0	9.0	0.588	0,0,0,0,0,0,1,2,3	to_hand	s589
111.97	0.367	0	PA_with_intermediate	0,0,0,2,0,0,1,3,0	test	ward_and_allport	0,0,0,2,0,0,1,3,0	82.0	9.0	0.367	0,0,0,0,0,0,1,2,3	to_board	s589
112.344	1.0	0	PA_with_intermediate	n/a	test	ward_and_allport	n/a	-1.0	9.0	n/a	n/a	feedback	s589
113.344	1.0	0	PA_with_intermediate	n/a	test	ward_and_allport	n/a	-1.0	9.0	n/a	n/a	ITI	s589
114.35	1.908	1	PA_with_intermediate	0,0,0,1,2,0,0,0,0	test	ward_and_allport	0,0,0,1,0,0,2,3,0	71.0	10.0	1.908	0,0,0,1,2,3,0,0,0	to_hand	s589
116.261	0.342	0	PA_with_intermediate	3,0,0,1,2,0,0,0,0	test	ward_and_allport	0,0,0,1,0,0,2,3,0	89.0	10.0	0.342	0,0,0,1,2,3,0,0,0	to_board	s589
116.608	0.413	0	PA_with_intermediate	3,0,0,1,0,0,0,0,0	test	ward_and_allport	0,0,0,1,0,0,2,3,0	71.0	10.0	0.413	0,0,0,1,2,3,0,0,0	to_hand	s589
117.022	0.328	0	PA_with_intermediate	3,0,0,1,0,0,2,0,0	test	ward_and_allport	0,0,0,1,0,0,2,3,0	82.0	10.0	0.328	0,0,0,1,2,3,0,0,0	to_board	s589
117.356	0.612	0	PA_with_intermediate	0,0,0,1,0,0,2,0,0	test	ward_and_allport	0,0,0,1,0,0,2,3,0	89.0	10.0	0.612	0,0,0,1,2,3,0,0,0	to_hand	s589
117.969	0.344	0	PA_with_intermediate	0,0,0,1,0,0,2,3,0	test	ward_and_allport	0,0,0,1,0,0,2,3,0	82.0	10.0	0.344	0,0,0,1,2,3,0,0,0	to_board	s589
118.32	1.0	0	PA_with_intermediate	n/a	test	ward_and_allport	n/a	-1.0	10.0	n/a	n/a	feedback	s589
119.32	1.408	0	PA_with_intermediate	n/a	test	ward_and_allport	n/a	-1.0	10.0	n/a	n/a	ITI	s589
120.734	1.595	1	PA_without_intermediate	1,2,0,0,0,0,0,0,0	test	ward_and_allport	0,0,0,2,0,0,3,1,0	89.0	11.0	1.595	1,2,3,0,0,0,0,0,0	to_hand	s589
122.33	0.313	0	PA_without_intermediate	1,2,0,0,0,0,3,0,0	test	ward_and_allport	0,0,0,2,0,0,3,1,0	82.0	11.0	0.313	1,2,3,0,0,0,0,0,0	to_board	s589
122.649	0.697	0	PA_without_intermediate	1,0,0,0,0,0,3,0,0	test	ward_and_allport	0,0,0,2,0,0,3,1,0	89.0	11.0	0.697	1,2,3,0,0,0,0,0,0	to_hand	s589
123.347	0.397	0	PA_without_intermediate	1,0,0,2,0,0,3,0,0	test	ward_and_allport	0,0,0,2,0,0,3,1,0	71.0	11.0	0.397	1,2,3,0,0,0,0,0,0	to_board	s589
123.749	0.39	0	PA_without_intermediate	0,0,0,2,0,0,3,0,0	test	ward_and_allport	0,0,0,2,0,0,3,1,0	89.0	11.0	0.39	1,2,3,0,0,0,0,0,0	to_hand	s589
124.141	0.347	0	PA_without_intermediate	0,0,0,2,0,0,3,1,0	test	ward_and_allport	0,0,0,2,0,0,3,1,0	82.0	11.0	0.347	1,2,3,0,0,0,0,0,0	to_board	s589
124.494	1.0	0	PA_without_intermediate	n/a	test	ward_and_allport	n/a	-1.0	11.0	n/a	n/a	feedback	s589
125.494	1.816	0	PA_without_intermediate	n/a	test	ward_and_allport	n/a	-1.0	11.0	n/a	n/a	ITI	s589
127.315	2.106	1	PA_with_intermediate	1,2,0,0,0,0,0,0,0	test	ward_and_allport	1,0,0,2,3,0,0,0,0	89.0	12.0	2.106	1,2,3,0,0,0,0,0,0	to_hand	s589
129.422	0.298	0	PA_with_intermediate	1,2,0,0,0,0,3,0,0	test	ward_and_allport	1,0,0,2,3,0,0,0,0	82.0	12.0	0.298	1,2,3,0,0,0,0,0,0	to_board	s589
129.726	0.926	0	PA_with_intermediate	1,0,0,0,0,0,3,0,0	test	ward_and_allport	1,0,0,2,3,0,0,0,0	89.0	12.0	0.926	1,2,3,0,0,0,0,0,0	to_hand	s589
130.653	0.374	0	PA_with_intermediate	1,0,0,2,0,0,3,0,0	test	ward_and_allport	1,0,0,2,3,0,0,0,0	71.0	12.0	0.374	1,2,3,0,0,0,0,0,0	to_board	s589
131.032	0.564	0	PA_with_intermediate	1,0,0,2,0,0,0,0,0	test	ward_and_allport	1,0,0,2,3,0,0,0,0	82.0	12.0	0.564	1,2,3,0,0,0,0,0,0	to_hand	s589
131.598	0.287	0	PA_with_intermediate	1,0,0,2,3,0,0,0,0	test	ward_and_allport	1,0,0,2,3,0,0,0,0	71.0	12.0	0.287	1,2,3,0,0,0,0,0,0	to_board	s589
131.892	1.0	0	PA_with_intermediate	n/a	test	ward_and_allport	n/a	-1.0	12.0	n/a	n/a	feedback	s589
132.892	3.176	0	PA_with_intermediate	n/a	test	ward_and_allport	n/a	-1.0	12.0	n/a	n/a	ITI	s589
136.073	2.006	1	PA_with_intermediate	0,0,0,0,0,0,1,2,0	test	ward_and_allport	0,0,0,2,3,0,1,0,0	82.0	13.0	2.006	0,0,0,0,0,0,1,2,3	to_hand	s589
138.08	0.43	0	PA_with_intermediate	3,0,0,0,0,0,1,2,0	test	ward_and_allport	0,0,0,2,3,0,1,0,0	89.0	13.0	0.43	0,0,0,0,0,0,1,2,3	to_board	s589
138.515	0.756	0	PA_with_intermediate	3,0,0,0,0,0,1,0,0	test	ward_and_allport	0,0,0,2,3,0,1,0,0	82.0	13.0	0.756	0,0,0,0,0,0,1,2,3	to_hand	s589
139.272	0.347	0	PA_with_intermediate	3,0,0,2,0,0,1,0,0	test	ward_and_allport	0,0,0,2,3,0,1,0,0	71.0	13.0	0.347	0,0,0,0,0,0,1,2,3	to_board	s589
139.624	0.461	0	PA_with_intermediate	0,0,0,2,0,0,1,0,0	test	ward_and_allport	0,0,0,2,3,0,1,0,0	89.0	13.0	0.461	0,0,0,0,0,0,1,2,3	to_hand	s589
140.087	0.439	0	PA_with_intermediate	0,0,0,2,3,0,1,0,0	test	ward_and_allport	0,0,0,2,3,0,1,0,0	71.0	13.0	0.439	0,0,0,0,0,0,1,2,3	to_board	s589
140.532	1.0	0	PA_with_intermediate	n/a	test	ward_and_allport	n/a	-1.0	13.0	n/a	n/a	feedback	s589
141.532	2.36	0	PA_with_intermediate	n/a	test	ward_and_allport	n/a	-1.0	13.0	n/a	n/a	ITI	s589
143.897	1.821	1	PA_with_intermediate	1,2,0,0,0,0,0,0,0	test	ward_and_allport	1,3,0,2,0,0,0,0,0	89.0	14.0	1.821	1,2,3,0,0,0,0,0,0	to_hand	s589
145.719	0.818	0	PA_with_intermediate	1,2,0,0,0,0,3,0,0	test	ward_and_allport	1,3,0,2,0,0,0,0,0	82.0	14.0	0.818	1,2,3,0,0,0,0,0,0	to_board	s589
146.543	1.418	0	PA_with_intermediate	1,0,0,0,0,0,3,0,0	test	ward_and_allport	1,3,0,2,0,0,0,0,0	89.0	14.0	1.418	1,2,3,0,0,0,0,0,0	to_hand	s589
147.963	0.556	0	PA_with_intermediate	1,0,0,2,0,0,3,0,0	test	ward_and_allport	1,3,0,2,0,0,0,0,0	71.0	14.0	0.556	1,2,3,0,0,0,0,0,0	to_board	s589
148.525	1.232	0	PA_with_intermediate	1,0,0,2,0,0,0,0,0	test	ward_and_allport	1,3,0,2,0,0,0,0,0	82.0	14.0	1.232	1,2,3,0,0,0,0,0,0	to_hand	s589
149.759	0.43	0	PA_with_intermediate	1,3,0,2,0,0,0,0,0	test	ward_and_allport	1,3,0,2,0,0,0,0,0	89.0	14.0	0.43	1,2,3,0,0,0,0,0,0	to_board	s589
150.196	1.0	0	PA_with_intermediate	n/a	test	ward_and_allport	n/a	-1.0	14.0	n/a	n/a	feedback	s589
151.196	1.0	0	PA_with_intermediate	n/a	test	ward_and_allport	n/a	-1.0	14.0	n/a	n/a	ITI	s589
157.204	1.396	1	PA_without_intermediate	1,2,0,0,0,0,0,0,0	test	ward_and_allport	0,0,0,2,0,0,3,1,0	89.0	15.0	1.396	1,2,3,0,0,0,0,0,0	to_hand	s589
158.601	0.311	0	PA_without_intermediate	1,2,0,0,0,0,3,0,0	test	ward_and_allport	0,0,0,2,0,0,3,1,0	82.0	15.0	0.311	1,2,3,0,0,0,0,0,0	to_board	s589
158.918	0.852	0	PA_without_intermediate	1,0,0,0,0,0,3,0,0	test	ward_and_allport	0,0,0,2,0,0,3,1,0	89.0	15.0	0.852	1,2,3,0,0,0,0,0,0	to_hand	s589
159.77	0.245	0	PA_without_intermediate	1,0,0,2,0,0,3,0,0	test	ward_and_allport	0,0,0,2,0,0,3,1,0	71.0	15.0	0.245	1,2,3,0,0,0,0,0,0	to_board	s589
160.022	0.384	0	PA_without_intermediate	0,0,0,2,0,0,3,0,0	test	ward_and_allport	0,0,0,2,0,0,3,1,0	89.0	15.0	0.384	1,2,3,0,0,0,0,0,0	to_hand	s589
160.406	0.196	0	PA_without_intermediate	0,0,0,2,0,0,3,1,0	test	ward_and_allport	0,0,0,2,0,0,3,1,0	82.0	15.0	0.196	1,2,3,0,0,0,0,0,0	to_board	s589
160.612	1.0	0	PA_without_intermediate	n/a	test	ward_and_allport	n/a	-1.0	15.0	n/a	n/a	feedback	s589
161.612	1.408	0	PA_without_intermediate	n/a	test	ward_and_allport	n/a	-1.0	15.0	n/a	n/a	ITI	s589
163.026	1.863	1	PA_with_intermediate	0,0,0,0,0,0,1,2,0	test	ward_and_allport	0,0,0,2,3,0,1,0,0	82.0	16.0	1.863	0,0,0,0,0,0,1,2,3	to_hand	s589
164.89	0.274	0	PA_with_intermediate	3,0,0,0,0,0,1,2,0	test	ward_and_allport	0,0,0,2,3,0,1,0,0	89.0	16.0	0.274	0,0,0,0,0,0,1,2,3	to_board	s589
165.169	0.697	0	PA_with_intermediate	3,0,0,0,0,0,1,0,0	test	ward_and_allport	0,0,0,2,3,0,1,0,0	82.0	16.0	0.697	0,0,0,0,0,0,1,2,3	to_hand	s589
165.868	0.475	0	PA_with_intermediate	3,0,0,2,0,0,1,0,0	test	ward_and_allport	0,0,0,2,3,0,1,0,0	71.0	16.0	0.475	0,0,0,0,0,0,1,2,3	to_board	s589
166.348	0.548	0	PA_with_intermediate	0,0,0,2,0,0,1,0,0	test	ward_and_allport	0,0,0,2,3,0,1,0,0	89.0	16.0	0.548	0,0,0,0,0,0,1,2,3	to_hand	s589
166.897	0.25	0	PA_with_intermediate	0,0,0,2,3,0,1,0,0	test	ward_and_allport	0,0,0,2,3,0,1,0,0	71.0	16.0	0.25	0,0,0,0,0,0,1,2,3	to_board	s589
167.155	1.0	0	PA_with_intermediate	n/a	test	ward_and_allport	n/a	-1.0	16.0	n/a	n/a	feedback	s589
168.155	1.816	0	PA_with_intermediate	n/a	test	ward_and_allport	n/a	-1.0	16.0	n/a	n/a	ITI	s589
169.977	1.411	1	PA_without_intermediate	0,0,0,0,0,0,1,2,0	test	ward_and_allport	2,0,0,3,1,0,0,0,0	82.0	17.0	1.411	0,0,0,0,0,0,1,2,3	to_hand	s589
171.389	0.414	0	PA_without_intermediate	0,0,0,3,0,0,1,2,0	test	ward_and_allport	2,0,0,3,1,0,0,0,0	71.0	17.0	0.414	0,0,0,0,0,0,1,2,3	to_board	s589
171.809	1.072	0	PA_without_intermediate	0,0,0,0,0,0,1,2,0	test	ward_and_allport	2,0,0,3,1,0,0,0,0	71.0	17.0	1.072	0,0,0,0,0,0,1,2,3	to_hand	s589
172.882	0.698	0	PA_without_intermediate	0,0,0,3,0,0,1,2,0	test	ward_and_allport	2,0,0,3,1,0,0,0,0	71.0	17.0	0.698	0,0,0,0,0,0,1,2,3	to_board	s589
173.586	0.401	0	PA_without_intermediate	0,0,0,3,0,0,1,0,0	test	ward_and_allport	2,0,0,3,1,0,0,0,0	82.0	17.0	0.401	0,0,0,0,0,0,1,2,3	to_hand	s589
173.989	0.322	0	PA_without_intermediate	2,0,0,3,0,0,1,0,0	test	ward_and_allport	2,0,0,3,1,0,0,0,0	89.0	17.0	0.322	0,0,0,0,0,0,1,2,3	to_board	s589
174.317	0.819	0	PA_without_intermediate	2,0,0,3,0,0,0,0,0	test	ward_and_allport	2,0,0,3,1,0,0,0,0	82.0	17.0	0.819	0,0,0,0,0,0,1,2,3	to_hand	s589
175.138	0.215	0	PA_without_intermediate	2,0,0,3,1,0,0,0,0	test	ward_and_allport	2,0,0,3,1,0,0,0,0	71.0	17.0	0.215	0,0,0,0,0,0,1,2,3	to_board	s589
175.36	1.0	0	PA_without_intermediate	n/a	test	ward_and_allport	n/a	-1.0	17.0	n/a	n/a	feedback	s589
176.36	2.088	0	PA_without_intermediate	n/a	test	ward_and_allport	n/a	-1.0	17.0	n/a	n/a	ITI	s589
178.454	1.883	1	PA_without_intermediate	0,0,0,1,2,0,0,0,0	test	ward_and_allport	1,0,0,0,0,0,3,2,0	71.0	18.0	1.883	0,0,0,1,2,3,0,0,0	to_hand	s589
180.338	0.244	0	PA_without_intermediate	0,0,0,1,2,0,3,0,0	test	ward_and_allport	1,0,0,0,0,0,3,2,0	82.0	18.0	0.244	0,0,0,1,2,3,0,0,0	to_board	s589
180.589	0.56	0	PA_without_intermediate	0,0,0,1,0,0,3,0,0	test	ward_and_allport	1,0,0,0,0,0,3,2,0	71.0	18.0	0.56	0,0,0,1,2,3,0,0,0	to_hand	s589
181.151	0.174	0	PA_without_intermediate	0,0,0,1,0,0,3,2,0	test	ward_and_allport	1,0,0,0,0,0,3,2,0	82.0	18.0	0.174	0,0,0,1,2,3,0,0,0	to_board	s589
181.33	0.502	0	PA_without_intermediate	0,0,0,0,0,0,3,2,0	test	ward_and_allport	1,0,0,0,0,0,3,2,0	71.0	18.0	0.502	0,0,0,1,2,3,0,0,0	to_hand	s589
181.833	0.349	0	PA_without_intermediate	1,0,0,0,0,0,3,2,0	test	ward_and_allport	1,0,0,0,0,0,3,2,0	89.0	18.0	0.349	0,0,0,1,2,3,0,0,0	to_board	s589
182.189	1.0	0	PA_without_intermediate	n/a	test	ward_and_allport	n/a	-1.0	18.0	n/a	n/a	feedback	s589
183.189	1.136	0	PA_without_intermediate	n/a	test	ward_and_allport	n/a	-1.0	18.0	n/a	n/a	ITI	s589
184.331	1.952	1	PA_without_intermediate	0,0,0,0,0,0,1,2,0	test	ward_and_allport	1,0,0,3,2,0,0,0,0	82.0	19.0	1.952	0,0,0,0,0,0,1,2,3	to_hand	s589
186.284	0.176	0	PA_without_intermediate	0,0,0,3,0,0,1,2,0	test	ward_and_allport	1,0,0,3,2,0,0,0,0	71.0	19.0	0.176	0,0,0,0,0,0,1,2,3	to_board	s589
186.466	0.653	0	PA_without_intermediate	0,0,0,3,0,0,1,0,0	test	ward_and_allport	1,0,0,3,2,0,0,0,0	82.0	19.0	0.653	0,0,0,0,0,0,1,2,3	to_hand	s589
187.12	0.236	0	PA_without_intermediate	0,0,0,3,2,0,1,0,0	test	ward_and_allport	1,0,0,3,2,0,0,0,0	71.0	19.0	0.236	0,0,0,0,0,0,1,2,3	to_board	s589
187.362	0.506	0	PA_without_intermediate	0,0,0,3,2,0,0,0,0	test	ward_and_allport	1,0,0,3,2,0,0,0,0	82.0	19.0	0.506	0,0,0,0,0,0,1,2,3	to_hand	s589
187.869	0.193	0	PA_without_intermediate	1,0,0,3,2,0,0,0,0	test	ward_and_allport	1,0,0,3,2,0,0,0,0	89.0	19.0	0.193	0,0,0,0,0,0,1,2,3	to_board	s589
188.07	1.0	0	PA_without_intermediate	n/a	test	ward_and_allport	n/a	-1.0	19.0	n/a	n/a	feedback	s589
189.07	6.168	0	PA_without_intermediate	n/a	test	ward_and_allport	n/a	-1.0	19.0	n/a	n/a	ITI	s589
195.244	1.335	1	PA_without_intermediate	0,0,0,0,0,0,1,2,0	test	ward_and_allport	2,0,0,3,1,0,0,0,0	82.0	20.0	1.335	0,0,0,0,0,0,1,2,3	to_hand	s589
196.58	0.288	0	PA_without_intermediate	0,0,0,3,0,0,1,2,0	test	ward_and_allport	2,0,0,3,1,0,0,0,0	71.0	20.0	0.288	0,0,0,0,0,0,1,2,3	to_board	s589
196.874	1.188	0	PA_without_intermediate	0,0,0,3,0,0,1,0,0	test	ward_and_allport	2,0,0,3,1,0,0,0,0	82.0	20.0	1.188	0,0,0,0,0,0,1,2,3	to_hand	s589
198.063	0.236	0	PA_without_intermediate	2,0,0,3,0,0,1,0,0	test	ward_and_allport	2,0,0,3,1,0,0,0,0	89.0	20.0	0.236	0,0,0,0,0,0,1,2,3	to_board	s589
198.305	1.013	0	PA_without_intermediate	2,0,0,3,0,0,0,0,0	test	ward_and_allport	2,0,0,3,1,0,0,0,0	82.0	20.0	1.013	0,0,0,0,0,0,1,2,3	to_hand	s589
199.319	0.238	0	PA_without_intermediate	2,0,0,3,1,0,0,0,0	test	ward_and_allport	2,0,0,3,1,0,0,0,0	71.0	20.0	0.238	0,0,0,0,0,0,1,2,3	to_board	s589
199.569	1.0	0	PA_without_intermediate	n/a	test	ward_and_allport	n/a	-1.0	20.0	n/a	n/a	feedback	s589
200.569	1.816	0	PA_without_intermediate	n/a	test	ward_and_allport	n/a	-1.0	20.0	n/a	n/a	ITI	s589
202.392	1.878	1	PA_with_intermediate	0,0,0,1,2,0,0,0,0	test	ward_and_allport	2,3,0,1,0,0,0,0,0	71.0	21.0	1.878	0,0,0,1,2,3,0,0,0	to_hand	s589
204.272	0.183	0	PA_with_intermediate	0,0,0,1,2,0,3,0,0	test	ward_and_allport	2,3,0,1,0,0,0,0,0	82.0	21.0	0.183	0,0,0,1,2,3,0,0,0	to_board	s589
204.463	0.467	0	PA_with_intermediate	0,0,0,1,0,0,3,0,0	test	ward_and_allport	2,3,0,1,0,0,0,0,0	71.0	21.0	0.467	0,0,0,1,2,3,0,0,0	to_hand	s589
204.932	0.146	0	PA_with_intermediate	2,0,0,1,0,0,3,0,0	test	ward_and_allport	2,3,0,1,0,0,0,0,0	89.0	21.0	0.146	0,0,0,1,2,3,0,0,0	to_board	s589
205.086	1.025	0	PA_with_intermediate	2,0,0,1,0,0,0,0,0	test	ward_and_allport	2,3,0,1,0,0,0,0,0	82.0	21.0	1.025	0,0,0,1,2,3,0,0,0	to_hand	s589
206.113	0.103	0	PA_with_intermediate	2,0,0,1,3,0,0,0,0	test	ward_and_allport	2,3,0,1,0,0,0,0,0	71.0	21.0	0.103	0,0,0,1,2,3,0,0,0	to_board	s589
206.224	0.047	0	PA_with_intermediate	0,0,0,1,3,0,0,0,0	test	ward_and_allport	2,3,0,1,0,0,0,0,0	89.0	21.0	0.047	0,0,0,1,2,3,0,0,0	to_hand	s589
206.273	1.302	0	PA_with_intermediate	2,0,0,1,3,0,0,0,0	test	ward_and_allport	2,3,0,1,0,0,0,0,0	89.0	21.0	1.302	0,0,0,1,2,3,0,0,0	to_board	s589
207.583	0.676	0	PA_with_intermediate	2,0,0,1,0,0,0,0,0	test	ward_and_allport	2,3,0,1,0,0,0,0,0	71.0	21.0	0.676	0,0,0,1,2,3,0,0,0	to_hand	s589
208.261	0.147	0	PA_with_intermediate	2,3,0,1,0,0,0,0,0	test	ward_and_allport	2,3,0,1,0,0,0,0,0	89.0	21.0	0.147	0,0,0,1,2,3,0,0,0	to_board	s589
208.42	1.0	0	PA_with_intermediate	n/a	test	ward_and_allport	n/a	-1.0	21.0	n/a	n/a	feedback	s589
209.42	1.952	0	PA_with_intermediate	n/a	test	ward_and_allport	n/a	-1.0	21.0	n/a	n/a	ITI	s589
211.379	1.761	1	PA_with_intermediate	1,2,0,0,0,0,0,0,0	test	ward_and_allport	1,0,0,0,0,0,2,3,0	89.0	22.0	1.761	1,2,3,0,0,0,0,0,0	to_hand	s589
213.142	0.247	0	PA_with_intermediate	1,2,0,3,0,0,0,0,0	test	ward_and_allport	1,0,0,0,0,0,2,3,0	71.0	22.0	0.247	1,2,3,0,0,0,0,0,0	to_board	s589
213.396	0.645	0	PA_with_intermediate	1,0,0,3,0,0,0,0,0	test	ward_and_allport	1,0,0,0,0,0,2,3,0	89.0	22.0	0.645	1,2,3,0,0,0,0,0,0	to_hand	s589
214.042	0.221	0	PA_with_intermediate	1,0,0,3,0,0,2,0,0	test	ward_and_allport	1,0,0,0,0,0,2,3,0	82.0	22.0	0.221	1,2,3,0,0,0,0,0,0	to_board	s589
214.27	0.675	0	PA_with_intermediate	1,0,0,0,0,0,2,0,0	test	ward_and_allport	1,0,0,0,0,0,2,3,0	71.0	22.0	0.675	1,2,3,0,0,0,0,0,0	to_hand	s589
214.946	0.19	0	PA_with_intermediate	1,0,0,0,0,0,2,3,0	test	ward_and_allport	1,0,0,0,0,0,2,3,0	82.0	22.0	0.19	1,2,3,0,0,0,0,0,0	to_board	s589
215.146	1.0	0	PA_with_intermediate	n/a	test	ward_and_allport	n/a	-1.0	22.0	n/a	n/a	feedback	s589
216.146	1.136	0	PA_with_intermediate	n/a	test	ward_and_allport	n/a	-1.0	22.0	n/a	n/a	ITI	s589
217.29	1.39	1	PA_without_intermediate	1,2,0,0,0,0,0,0,0	test	ward_and_allport	0,0,0,3,1,0,2,0,0	89.0	23.0	1.39	1,2,3,0,0,0,0,0,0	to_hand	s589
218.682	0.243	0	PA_without_intermediate	1,2,0,3,0,0,0,0,0	test	ward_and_allport	0,0,0,3,1,0,2,0,0	71.0	23.0	0.243	1,2,3,0,0,0,0,0,0	to_board	s589
218.933	0.949	0	PA_without_intermediate	1,0,0,3,0,0,0,0,0	test	ward_and_allport	0,0,0,3,1,0,2,0,0	89.0	23.0	0.949	1,2,3,0,0,0,0,0,0	to_hand	s589
219.883	0.162	0	PA_without_intermediate	1,0,0,3,0,0,2,0,0	test	ward_and_allport	0,0,0,3,1,0,2,0,0	82.0	23.0	0.162	1,2,3,0,0,0,0,0,0	to_board	s589
220.054	0.699	0	PA_without_intermediate	0,0,0,3,0,0,2,0,0	test	ward_and_allport	0,0,0,3,1,0,2,0,0	89.0	23.0	0.699	1,2,3,0,0,0,0,0,0	to_hand	s589
220.754	0.158	0	PA_without_intermediate	0,0,0,3,1,0,2,0,0	test	ward_and_allport	0,0,0,3,1,0,2,0,0	71.0	23.0	0.158	1,2,3,0,0,0,0,0,0	to_board	s589
220.924	1.0	0	PA_without_intermediate	n/a	test	ward_and_allport	n/a	-1.0	23.0	n/a	n/a	feedback	s589
221.924	1.68	0	PA_without_intermediate	n/a	test	ward_and_allport	n/a	-1.0	23.0	n/a	n/a	ITI	s589
223.613	2.212	1	PA_without_intermediate	0,0,0,0,0,0,1,2,0	test	ward_and_allport	3,2,0,1,0,0,0,0,0	82.0	24.0	2.212	0,0,0,0,0,0,1,2,3	to_hand	s589
225.826	0.276	0	PA_without_intermediate	3,0,0,0,0,0,1,2,0	test	ward_and_allport	3,2,0,1,0,0,0,0,0	89.0	24.0	0.276	0,0,0,0,0,0,1,2,3	to_board	s589
226.11	0.78	0	PA_without_intermediate	3,0,0,0,0,0,1,0,0	test	ward_and_allport	3,2,0,1,0,0,0,0,0	82.0	24.0	0.78	0,0,0,0,0,0,1,2,3	to_hand	s589
226.891	0.222	0	PA_without_intermediate	3,2,0,0,0,0,1,0,0	test	ward_and_allport	3,2,0,1,0,0,0,0,0	89.0	24.0	0.222	0,0,0,0,0,0,1,2,3	to_board	s589
227.121	0.786	0	PA_without_intermediate	3,2,0,0,0,0,0,0,0	test	ward_and_allport	3,2,0,1,0,0,0,0,0	82.0	24.0	0.786	0,0,0,0,0,0,1,2,3	to_hand	s589
227.909	0.21	0	PA_without_intermediate	3,2,0,1,0,0,0,0,0	test	ward_and_allport	3,2,0,1,0,0,0,0,0	71.0	24.0	0.21	0,0,0,0,0,0,1,2,3	to_board	s589
228.13	1.0	0	PA_without_intermediate	n/a	test	ward_and_allport	n/a	-1.0	24.0	n/a	n/a	feedback	s589
229.13	2.088	0	PA_without_intermediate	n/a	test	ward_and_allport	n/a	-1.0	24.0	n/a	n/a	ITI	s589
231.227	2.414	1	PA_with_intermediate	1,2,0,0,0,0,0,0,0	test	ward_and_allport	1,3,0,0,0,0,2,0,0	89.0	25.0	2.414	1,2,3,0,0,0,0,0,0	to_hand	s589
233.643	0.208	0	PA_with_intermediate	1,2,0,3,0,0,0,0,0	test	ward_and_allport	1,3,0,0,0,0,2,0,0	71.0	25.0	0.208	1,2,3,0,0,0,0,0,0	to_board	s589
233.861	0.422	0	PA_with_intermediate	1,0,0,3,0,0,0,0,0	test	ward_and_allport	1,3,0,0,0,0,2,0,0	89.0	25.0	0.422	1,2,3,0,0,0,0,0,0	to_hand	s589
234.285	0.168	0	PA_with_intermediate	1,0,0,3,0,0,2,0,0	test	ward_and_allport	1,3,0,0,0,0,2,0,0	82.0	25.0	0.168	1,2,3,0,0,0,0,0,0	to_board	s589
234.462	0.653	0	PA_with_intermediate	1,0,0,0,0,0,2,0,0	test	ward_and_allport	1,3,0,0,0,0,2,0,0	71.0	25.0	0.653	1,2,3,0,0,0,0,0,0	to_hand	s589
235.117	0.117	0	PA_with_intermediate	1,3,0,0,0,0,2,0,0	test	ward_and_allport	1,3,0,0,0,0,2,0,0	89.0	25.0	0.117	1,2,3,0,0,0,0,0,0	to_board	s589
235.245	1.0	0	PA_with_intermediate	n/a	test	ward_and_allport	n/a	-1.0	25.0	n/a	n/a	feedback	s589
236.245	1.0	0	PA_with_intermediate	n/a	test	ward_and_allport	n/a	-1.0	25.0	n/a	n/a	ITI	s589
237.253	1.361	1	PA_without_intermediate	1,2,0,0,0,0,0,0,0	test	ward_and_allport	0,0,0,3,2,0,1,0,0	89.0	26.0	1.361	1,2,3,0,0,0,0,0,0	to_hand	s589
238.615	0.146	0	PA_without_intermediate	1,2,0,3,0,0,0,0,0	test	ward_and_allport	0,0,0,3,2,0,1,0,0	71.0	26.0	0.146	1,2,3,0,0,0,0,0,0	to_board	s589
238.769	0.461	0	PA_without_intermediate	1,0,0,3,0,0,0,0,0	test	ward_and_allport	0,0,0,3,2,0,1,0,0	89.0	26.0	0.461	1,2,3,0,0,0,0,0,0	to_hand	s589
239.231	0.114	0	PA_without_intermediate	1,0,0,3,2,0,0,0,0	test	ward_and_allport	0,0,0,3,2,0,1,0,0	71.0	26.0	0.114	1,2,3,0,0,0,0,0,0	to_board	s589
239.352	0.375	0	PA_without_intermediate	0,0,0,3,2,0,0,0,0	test	ward_and_allport	0,0,0,3,2,0,1,0,0	89.0	26.0	0.375	1,2,3,0,0,0,0,0,0	to_hand	s589
239.728	0.12	0	PA_without_intermediate	0,0,0,3,2,0,1,0,0	test	ward_and_allport	0,0,0,3,2,0,1,0,0	82.0	26.0	0.12	1,2,3,0,0,0,0,0,0	to_board	s589
239.858	1.0	0	PA_without_intermediate	n/a	test	ward_and_allport	n/a	-1.0	26.0	n/a	n/a	feedback	s589
240.858	1.0	0	PA_without_intermediate	n/a	test	ward_and_allport	n/a	-1.0	26.0	n/a	n/a	ITI	s589
241.865	1.0	1	PA_without_intermediate	1,2,0,0,0,0,0,0,0	test	ward_and_allport	0,0,0,1,0,0,3,2,0	89.0	27.0	1.0	1,2,3,0,0,0,0,0,0	to_hand	s589
242.866	0.109	0	PA_without_intermediate	1,2,0,0,0,0,3,0,0	test	ward_and_allport	0,0,0,1,0,0,3,2,0	82.0	27.0	0.109	1,2,3,0,0,0,0,0,0	to_board	s589
242.982	0.417	0	PA_without_intermediate	1,0,0,0,0,0,3,0,0	test	ward_and_allport	0,0,0,1,0,0,3,2,0	89.0	27.0	0.417	1,2,3,0,0,0,0,0,0	to_hand	s589
243.4	0.124	0	PA_without_intermediate	1,0,0,0,0,0,3,2,0	test	ward_and_allport	0,0,0,1,0,0,3,2,0	82.0	27.0	0.124	1,2,3,0,0,0,0,0,0	to_board	s589
243.532	0.442	0	PA_without_intermediate	0,0,0,0,0,0,3,2,0	test	ward_and_allport	0,0,0,1,0,0,3,2,0	89.0	27.0	0.442	1,2,3,0,0,0,0,0,0	to_hand	s589
243.975	0.116	0	PA_without_intermediate	0,0,0,1,0,0,3,2,0	test	ward_and_allport	0,0,0,1,0,0,3,2,0	71.0	27.0	0.116	1,2,3,0,0,0,0,0,0	to_board	s589
244.099	1.0	0	PA_without_intermediate	n/a	test	ward_and_allport	n/a	-1.0	27.0	n/a	n/a	feedback	s589
245.099	1.0	0	PA_without_intermediate	n/a	test	ward_and_allport	n/a	-1.0	27.0	n/a	n/a	ITI	s589
246.107	1.589	1	PA_with_intermediate	1,2,0,0,0,0,0,0,0	test	ward_and_allport	1,3,0,2,0,0,0,0,0	89.0	28.0	1.589	1,2,3,0,0,0,0,0,0	to_hand	s589
247.697	0.16	0	PA_with_intermediate	1,2,0,0,0,0,3,0,0	test	ward_and_allport	1,3,0,2,0,0,0,0,0	82.0	28.0	0.16	1,2,3,0,0,0,0,0,0	to_board	s589
247.862	0.491	0	PA_with_intermediate	1,0,0,0,0,0,3,0,0	test	ward_and_allport	1,3,0,2,0,0,0,0,0	89.0	28.0	0.491	1,2,3,0,0,0,0,0,0	to_hand	s589
248.355	0.213	0	PA_with_intermediate	1,0,0,2,0,0,3,0,0	test	ward_and_allport	1,3,0,2,0,0,0,0,0	71.0	28.0	0.213	1,2,3,0,0,0,0,0,0	to_board	s589
248.575	0.54	0	PA_with_intermediate	1,0,0,2,0,0,0,0,0	test	ward_and_allport	1,3,0,2,0,0,0,0,0	82.0	28.0	0.54	1,2,3,0,0,0,0,0,0	to_hand	s589
249.116	0.121	0	PA_with_intermediate	1,3,0,2,0,0,0,0,0	test	ward_and_allport	1,3,0,2,0,0,0,0,0	89.0	28.0	0.121	1,2,3,0,0,0,0,0,0	to_board	s589
249.247	1.0	0	PA_with_intermediate	n/a	test	ward_and_allport	n/a	-1.0	28.0	n/a	n/a	feedback	s589
250.247	1.544	0	PA_with_intermediate	n/a	test	ward_and_allport	n/a	-1.0	28.0	n/a	n/a	ITI	s589
251.797	1.592	1	PA_without_intermediate	0,0,0,0,0,0,1,2,0	test	ward_and_allport	3,2,0,1,0,0,0,0,0	82.0	29.0	1.592	0,0,0,0,0,0,1,2,3	to_hand	s589
253.39	0.181	0	PA_without_intermediate	3,0,0,0,0,0,1,2,0	test	ward_and_allport	3,2,0,1,0,0,0,0,0	89.0	29.0	0.181	0,0,0,0,0,0,1,2,3	to_board	s589
253.579	1.011	0	PA_without_intermediate	3,0,0,0,0,0,1,0,0	test	ward_and_allport	3,2,0,1,0,0,0,0,0	82.0	29.0	1.011	0,0,0,0,0,0,1,2,3	to_hand	s589
254.591	0.155	0	PA_without_intermediate	3,2,0,0,0,0,1,0,0	test	ward_and_allport	3,2,0,1,0,0,0,0,0	89.0	29.0	0.155	0,0,0,0,0,0,1,2,3	to_board	s589
254.756	0.697	0	PA_without_intermediate	3,2,0,0,0,0,0,0,0	test	ward_and_allport	3,2,0,1,0,0,0,0,0	82.0	29.0	0.697	0,0,0,0,0,0,1,2,3	to_hand	s589
255.455	0.124	0	PA_without_intermediate	3,2,0,1,0,0,0,0,0	test	ward_and_allport	3,2,0,1,0,0,0,0,0	71.0	29.0	0.124	0,0,0,0,0,0,1,2,3	to_board	s589
255.592	1.0	0	PA_without_intermediate	n/a	test	ward_and_allport	n/a	-1.0	29.0	n/a	n/a	feedback	s589
256.592	1.272	0	PA_without_intermediate	n/a	test	ward_and_allport	n/a	-1.0	29.0	n/a	n/a	ITI	s589
262.877	1.645	1	PA_with_intermediate	0,0,0,1,2,0,0,0,0	test	ward_and_allport	2,0,0,1,3,0,0,0,0	71.0	30.0	1.645	0,0,0,1,2,3,0,0,0	to_hand	s589
264.523	0.139	0	PA_with_intermediate	0,0,0,1,2,0,3,0,0	test	ward_and_allport	2,0,0,1,3,0,0,0,0	82.0	30.0	0.139	0,0,0,1,2,3,0,0,0	to_board	s589
264.675	0.507	0	PA_with_intermediate	0,0,0,1,0,0,3,0,0	test	ward_and_allport	2,0,0,1,3,0,0,0,0	71.0	30.0	0.507	0,0,0,1,2,3,0,0,0	to_hand	s589
265.184	0.109	0	PA_with_intermediate	2,0,0,1,0,0,3,0,0	test	ward_and_allport	2,0,0,1,3,0,0,0,0	89.0	30.0	0.109	0,0,0,1,2,3,0,0,0	to_board	s589
265.303	0.478	0	PA_with_intermediate	2,0,0,1,0,0,0,0,0	test	ward_and_allport	2,0,0,1,3,0,0,0,0	82.0	30.0	0.478	0,0,0,1,2,3,0,0,0	to_hand	s589
265.782	0.419	0	PA_with_intermediate	2,0,0,1,3,0,0,0,0	test	ward_and_allport	2,0,0,1,3,0,0,0,0	71.0	30.0	0.419	0,0,0,1,2,3,0,0,0	to_board	s589
266.214	1.0	0	PA_with_intermediate	n/a	test	ward_and_allport	n/a	-1.0	30.0	n/a	n/a	feedback	s589
267.214	3.04	0	PA_with_intermediate	n/a	test	ward_and_allport	n/a	-1.0	30.0	n/a	n/a	ITI	s589
270.263	1.264	1	PA_with_intermediate	0,0,0,1,2,0,0,0,0	test	ward_and_allport	2,3,0,1,0,0,0,0,0	71.0	31.0	1.264	0,0,0,1,2,3,0,0,0	to_hand	s589
271.528	0.165	0	PA_with_intermediate	3,0,0,1,2,0,0,0,0	test	ward_and_allport	2,3,0,1,0,0,0,0,0	89.0	31.0	0.165	0,0,0,1,2,3,0,0,0	to_board	s589
271.702	1.251	0	PA_with_intermediate	3,0,0,1,0,0,0,0,0	test	ward_and_allport	2,3,0,1,0,0,0,0,0	71.0	31.0	1.251	0,0,0,1,2,3,0,0,0	to_hand	s589
272.953	0.314	0	PA_with_intermediate	3,0,0,1,0,0,2,0,0	test	ward_and_allport	2,3,0,1,0,0,0,0,0	82.0	31.0	0.314	0,0,0,1,2,3,0,0,0	to_board	s589
273.277	0.866	0	PA_with_intermediate	0,0,0,1,0,0,2,0,0	test	ward_and_allport	2,3,0,1,0,0,0,0,0	89.0	31.0	0.866	0,0,0,1,2,3,0,0,0	to_hand	s589
274.143	1.144	0	PA_with_intermediate	0,0,0,1,3,0,2,0,0	test	ward_and_allport	2,3,0,1,0,0,0,0,0	71.0	31.0	1.144	0,0,0,1,2,3,0,0,0	to_board	s589
275.299	0.472	0	PA_with_intermediate	0,0,0,1,3,0,0,0,0	test	ward_and_allport	2,3,0,1,0,0,0,0,0	82.0	31.0	0.472	0,0,0,1,2,3,0,0,0	to_hand	s589
275.772	0.31	0	PA_with_intermediate	2,0,0,1,3,0,0,0,0	test	ward_and_allport	2,3,0,1,0,0,0,0,0	89.0	31.0	0.31	0,0,0,1,2,3,0,0,0	to_board	s589
276.093	0.465	0	PA_with_intermediate	2,0,0,1,0,0,0,0,0	test	ward_and_allport	2,3,0,1,0,0,0,0,0	71.0	31.0	0.465	0,0,0,1,2,3,0,0,0	to_hand	s589
276.559	0.177	0	PA_with_intermediate	2,3,0,1,0,0,0,0,0	test	ward_and_allport	2,3,0,1,0,0,0,0,0	89.0	31.0	0.177	0,0,0,1,2,3,0,0,0	to_board	s589
276.747	1.0	0	PA_with_intermediate	n/a	test	ward_and_allport	n/a	-1.0	31.0	n/a	n/a	feedback	s589
277.747	1.272	0	PA_with_intermediate	n/a	test	ward_and_allport	n/a	-1.0	31.0	n/a	n/a	ITI	s589
279.027	1.881	1	PA_with_intermediate	1,2,0,0,0,0,0,0,0	test	ward_and_allport	1,0,0,2,3,0,0,0,0	89.0	32.0	1.881	1,2,3,0,0,0,0,0,0	to_hand	s589
280.91	0.186	0	PA_with_intermediate	1,2,0,0,0,0,3,0,0	test	ward_and_allport	1,0,0,2,3,0,0,0,0	82.0	32.0	0.186	1,2,3,0,0,0,0,0,0	to_board	s589
281.104	0.538	0	PA_with_intermediate	1,0,0,0,0,0,3,0,0	test	ward_and_allport	1,0,0,2,3,0,0,0,0	89.0	32.0	0.538	1,2,3,0,0,0,0,0,0	to_hand	s589
281.643	0.154	0	PA_with_intermediate	1,0,0,2,0,0,3,0,0	test	ward_and_allport	1,0,0,2,3,0,0,0,0	71.0	32.0	0.154	1,2,3,0,0,0,0,0,0	to_board	s589
281.804	0.679	0	PA_with_intermediate	1,0,0,2,0,0,0,0,0	test	ward_and_allport	1,0,0,2,3,0,0,0,0	82.0	32.0	0.679	1,2,3,0,0,0,0,0,0	to_hand	s589
282.484	0.212	0	PA_with_intermediate	1,0,0,2,3,0,0,0,0	test	ward_and_allport	1,0,0,2,3,0,0,0,0	71.0	32.0	0.212	1,2,3,0,0,0,0,0,0	to_board	s589
282.704	1.0	0	PA_with_intermediate	n/a	test	ward_and_allport	n/a	-1.0	32.0	n/a	n/a	feedback	s589
283.704	1.136	0	PA_with_intermediate	n/a	test	ward_and_allport	n/a	-1.0	32.0	n/a	n/a	ITI	s589
284.848	1.963	1	PA_with_intermediate	0,0,0,0,0,0,1,2,0	test	ward_and_allport	2,0,0,0,0,0,1,3,0	82.0	33.0	1.963	0,0,0,0,0,0,1,2,3	to_hand	s589
286.813	0.66	0	PA_with_intermediate	0,0,0,3,0,0,1,2,0	test	ward_and_allport	2,0,0,0,0,0,1,3,0	71.0	33.0	0.66	0,0,0,0,0,0,1,2,3	to_board	s589
287.48	0.535	0	PA_with_intermediate	0,0,0,3,0,0,1,0,0	test	ward_and_allport	2,0,0,0,0,0,1,3,0	82.0	33.0	0.535	0,0,0,0,0,0,1,2,3	to_hand	s589
288.017	0.202	0	PA_with_intermediate	2,0,0,3,0,0,1,0,0	test	ward_and_allport	2,0,0,0,0,0,1,3,0	89.0	33.0	0.202	0,0,0,0,0,0,1,2,3	to_board	s589
288.23	0.423	0	PA_with_intermediate	2,0,0,0,0,0,1,0,0	test	ward_and_allport	2,0,0,0,0,0,1,3,0	71.0	33.0	0.423	0,0,0,0,0,0,1,2,3	to_hand	s589
288.655	0.218	0	PA_with_intermediate	2,0,0,0,0,0,1,3,0	test	ward_and_allport	2,0,0,0,0,0,1,3,0	82.0	33.0	0.218	0,0,0,0,0,0,1,2,3	to_board	s589
288.887	1.0	0	PA_with_intermediate	n/a	test	ward_and_allport	n/a	-1.0	33.0	n/a	n/a	feedback	s589
289.887	1.0	0	PA_with_intermediate	n/a	test	ward_and_allport	n/a	-1.0	33.0	n/a	n/a	ITI	s589
290.895	2.521	1	PA_with_intermediate	0,0,0,1,2,0,0,0,0	test	ward_and_allport	0,0,0,1,0,0,2,3,0	71.0	34.0	2.521	0,0,0,1,2,3,0,0,0	to_hand	s589
293.418	0.168	0	PA_with_intermediate	3,0,0,1,2,0,0,0,0	test	ward_and_allport	0,0,0,1,0,0,2,3,0	89.0	34.0	0.168	0,0,0,1,2,3,0,0,0	to_board	s589
293.593	0.379	0	PA_with_intermediate	3,0,0,1,0,0,0,0,0	test	ward_and_allport	0,0,0,1,0,0,2,3,0	71.0	34.0	0.379	0,0,0,1,2,3,0,0,0	to_hand	s589
293.973	0.164	0	PA_with_intermediate	3,0,0,1,0,0,2,0,0	test	ward_and_allport	0,0,0,1,0,0,2,3,0	82.0	34.0	0.164	0,0,0,1,2,3,0,0,0	to_board	s589
294.144	0.332	0	PA_with_intermediate	0,0,0,1,0,0,2,0,0	test	ward_and_allport	0,0,0,1,0,0,2,3,0	89.0	34.0	0.332	0,0,0,1,2,3,0,0,0	to_hand	s589
294.477	0.102	0	PA_with_intermediate	0,0,0,1,3,0,2,0,0	test	ward_and_allport	0,0,0,1,0,0,2,3,0	71.0	34.0	0.102	0,0,0,1,2,3,0,0,0	to_board	s589
294.586	0.144	0	PA_with_intermediate	0,0,0,1,3,0,0,0,0	test	ward_and_allport	0,0,0,1,0,0,2,3,0	82.0	34.0	0.144	0,0,0,1,2,3,0,0,0	to_hand	s589
294.731	1.0	0	PA_with_intermediate	0,0,0,1,3,0,2,0,0	test	ward_and_allport	0,0,0,1,0,0,2,3,0	82.0	34.0	1.0	0,0,0,1,2,3,0,0,0	to_board	s589
295.738	0.558	0	PA_with_intermediate	0,0,0,1,0,0,2,0,0	test	ward_and_allport	0,0,0,1,0,0,2,3,0	71.0	34.0	0.558	0,0,0,1,2,3,0,0,0	to_hand	s589
296.297	0.163	0	PA_with_intermediate	0,0,0,1,0,0,2,3,0	test	ward_and_allport	0,0,0,1,0,0,2,3,0	82.0	34.0	0.163	0,0,0,1,2,3,0,0,0	to_board	s589
296.469	1.0	0	PA_with_intermediate	n/a	test	ward_and_allport	n/a	-1.0	34.0	n/a	n/a	feedback	s589
297.469	1.0	0	PA_with_intermediate	n/a	test	ward_and_allport	n/a	-1.0	34.0	n/a	n/a	ITI	s589
298.477	1.558	1	PA_without_intermediate	0,0,0,1,2,0,0,0,0	test	ward_and_allport	2,0,0,0,0,0,3,1,0	71.0	35.0	1.558	0,0,0,1,2,3,0,0,0	to_hand	s589
300.036	0.158	0	PA_without_intermediate	0,0,0,1,2,0,3,0,0	test	ward_and_allport	2,0,0,0,0,0,3,1,0	82.0	35.0	0.158	0,0,0,1,2,3,0,0,0	to_board	s589
300.203	0.94	0	PA_without_intermediate	0,0,0,1,0,0,3,0,0	test	ward_and_allport	2,0,0,0,0,0,3,1,0	71.0	35.0	0.94	0,0,0,1,2,3,0,0,0	to_hand	s589
301.144	0.121	0	PA_without_intermediate	2,0,0,1,0,0,3,0,0	test	ward_and_allport	2,0,0,0,0,0,3,1,0	89.0	35.0	0.121	0,0,0,1,2,3,0,0,0	to_board	s589
301.273	0.503	0	PA_without_intermediate	2,0,0,0,0,0,3,0,0	test	ward_and_allport	2,0,0,0,0,0,3,1,0	71.0	35.0	0.503	0,0,0,1,2,3,0,0,0	to_hand	s589
301.777	0.166	0	PA_without_intermediate	2,0,0,0,0,0,3,1,0	test	ward_and_allport	2,0,0,0,0,0,3,1,0	82.0	35.0	0.166	0,0,0,1,2,3,0,0,0	to_board	s589
301.956	1.0	0	PA_without_intermediate	n/a	test	ward_and_allport	n/a	-1.0	35.0	n/a	n/a	feedback	s589
302.956	1.408	0	PA_without_intermediate	n/a	test	ward_and_allport	n/a	-1.0	35.0	n/a	n/a	ITI	s589
304.372	1.701	1	PA_with_intermediate	0,0,0,0,0,0,1,2,0	test	ward_and_allport	2,3,0,0,0,0,1,0,0	82.0	36.0	1.701	0,0,0,0,0,0,1,2,3	to_hand	s589
306.075	0.376	0	PA_with_intermediate	0,0,0,3,0,0,1,2,0	test	ward_and_allport	2,3,0,0,0,0,1,0,0	71.0	36.0	0.376	0,0,0,0,0,0,1,2,3	to_board	s589
306.459	0.675	0	PA_with_intermediate	0,0,0,3,0,0,1,0,0	test	ward_and_allport	2,3,0,0,0,0,1,0,0	82.0	36.0	0.675	0,0,0,0,0,0,1,2,3	to_hand	s589
307.135	0.303	0	PA_with_intermediate	2,0,0,3,0,0,1,0,0	test	ward_and_allport	2,3,0,0,0,0,1,0,0	89.0	36.0	0.303	0,0,0,0,0,0,1,2,3	to_board	s589
307.448	0.492	0	PA_with_intermediate	2,0,0,0,0,0,1,0,0	test	ward_and_allport	2,3,0,0,0,0,1,0,0	71.0	36.0	0.492	0,0,0,0,0,0,1,2,3	to_hand	s589
307.942	0.165	0	PA_with_intermediate	2,3,0,0,0,0,1,0,0	test	ward_and_allport	2,3,0,0,0,0,1,0,0	89.0	36.0	0.165	0,0,0,0,0,0,1,2,3	to_board	s589
308.119	1.0	0	PA_with_intermediate	n/a	test	ward_and_allport	n/a	-1.0	36.0	n/a	n/a	feedback	s589
309.119	2.768	0	PA_with_intermediate	n/a	test	ward_and_allport	n/a	-1.0	36.0	n/a	n/a	ITI	s589
311.899	2.039	1	PA_with_intermediate	0,0,0,0,0,0,1,2,0	test	ward_and_allport	2,0,0,0,0,0,1,3,0	82.0	37.0	2.039	0,0,0,0,0,0,1,2,3	to_hand	s589
313.94	0.28	0	PA_with_intermediate	0,0,0,3,0,0,1,2,0	test	ward_and_allport	2,0,0,0,0,0,1,3,0	71.0	37.0	0.28	0,0,0,0,0,0,1,2,3	to_board	s589
314.228	0.729	0	PA_with_intermediate	0,0,0,3,0,0,1,0,0	test	ward_and_allport	2,0,0,0,0,0,1,3,0	82.0	37.0	0.729	0,0,0,0,0,0,1,2,3	to_hand	s589
314.958	0.145	0	PA_with_intermediate	2,0,0,3,0,0,1,0,0	test	ward_and_allport	2,0,0,0,0,0,1,3,0	89.0	37.0	0.145	0,0,0,0,0,0,1,2,3	to_board	s589
315.111	0.542	0	PA_with_intermediate	2,0,0,0,0,0,1,0,0	test	ward_and_allport	2,0,0,0,0,0,1,3,0	71.0	37.0	0.542	0,0,0,0,0,0,1,2,3	to_hand	s589
315.655	0.174	0	PA_with_intermediate	2,0,0,0,0,0,1,3,0	test	ward_and_allport	2,0,0,0,0,0,1,3,0	82.0	37.0	0.174	0,0,0,0,0,0,1,2,3	to_board	s589
315.841	1.0	0	PA_with_intermediate	n/a	test	ward_and_allport	n/a	-1.0	37.0	n/a	n/a	feedback	s589
316.841	1.68	0	PA_with_intermediate	n/a	test	ward_and_allport	n/a	-1.0	37.0	n/a	n/a	ITI	s589
318.529	1.424	1	PA_without_intermediate	1,2,0,0,0,0,0,0,0	test	ward_and_allport	0,0,0,3,1,0,2,0,0	89.0	38.0	1.424	1,2,3,0,0,0,0,0,0	to_hand	s589
319.955	0.118	0	PA_without_intermediate	1,2,0,3,0,0,0,0,0	test	ward_and_allport	0,0,0,3,1,0,2,0,0	71.0	38.0	0.118	1,2,3,0,0,0,0,0,0	to_board	s589
320.082	0.82	0	PA_without_intermediate	1,0,0,3,0,0,0,0,0	test	ward_and_allport	0,0,0,3,1,0,2,0,0	89.0	38.0	0.82	1,2,3,0,0,0,0,0,0	to_hand	s589
320.903	0.161	0	PA_without_intermediate	1,0,0,3,0,0,2,0,0	test	ward_and_allport	0,0,0,3,1,0,2,0,0	82.0	38.0	0.161	1,2,3,0,0,0,0,0,0	to_board	s589
321.074	0.528	0	PA_without_intermediate	0,0,0,3,0,0,2,0,0	test	ward_and_allport	0,0,0,3,1,0,2,0,0	89.0	38.0	0.528	1,2,3,0,0,0,0,0,0	to_hand	s589
321.604	0.137	0	PA_without_intermediate	0,0,0,3,1,0,2,0,0	test	ward_and_allport	0,0,0,3,1,0,2,0,0	71.0	38.0	0.137	1,2,3,0,0,0,0,0,0	to_board	s589
321.752	1.0	0	PA_without_intermediate	n/a	test	ward_and_allport	n/a	-1.0	38.0	n/a	n/a	feedback	s589
322.752	2.224	0	PA_without_intermediate	n/a	test	ward_and_allport	n/a	-1.0	38.0	n/a	n/a	ITI	s589
324.984	1.183	1	PA_without_intermediate	0,0,0,1,2,0,0,0,0	test	ward_and_allport	3,1,0,0,0,0,2,0,0	71.0	39.0	1.183	0,0,0,1,2,3,0,0,0	to_hand	s589
326.167	0.084	0	PA_without_intermediate	3,0,0,1,2,0,0,0,0	test	ward_and_allport	3,1,0,0,0,0,2,0,0	89.0	39.0	0.084	0,0,0,1,2,3,0,0,0	to_board	s589
326.26	0.699	0	PA_without_intermediate	3,0,0,1,0,0,0,0,0	test	ward_and_allport	3,1,0,0,0,0,2,0,0	71.0	39.0	0.699	0,0,0,1,2,3,0,0,0	to_hand	s589
326.96	0.155	0	PA_without_intermediate	3,0,0,1,0,0,2,0,0	test	ward_and_allport	3,1,0,0,0,0,2,0,0	82.0	39.0	0.155	0,0,0,1,2,3,0,0,0	to_board	s589
327.124	0.548	0	PA_without_intermediate	3,0,0,0,0,0,2,0,0	test	ward_and_allport	3,1,0,0,0,0,2,0,0	71.0	39.0	0.548	0,0,0,1,2,3,0,0,0	to_hand	s589
327.673	0.152	0	PA_without_intermediate	3,1,0,0,0,0,2,0,0	test	ward_and_allport	3,1,0,0,0,0,2,0,0	89.0	39.0	0.152	0,0,0,1,2,3,0,0,0	to_board	s589
327.837	1.0	0	PA_without_intermediate	n/a	test	ward_and_allport	n/a	-1.0	39.0	n/a	n/a	feedback	s589
328.837	2.36	0	PA_without_intermediate	n/a	test	ward_and_allport	n/a	-1.0	39.0	n/a	n/a	ITI	s589
331.209	1.441	1	PA_without_intermediate	0,0,0,0,0,0,1,2,0	test	ward_and_allport	1,0,0,3,2,0,0,0,0	82.0	40.0	1.441	0,0,0,0,0,0,1,2,3	to_hand	s589
332.652	0.205	0	PA_without_intermediate	0,0,0,3,0,0,1,2,0	test	ward_and_allport	1,0,0,3,2,0,0,0,0	71.0	40.0	0.205	0,0,0,0,0,0,1,2,3	to_board	s589
332.866	0.778	0	PA_without_intermediate	0,0,0,3,0,0,1,0,0	test	ward_and_allport	1,0,0,3,2,0,0,0,0	82.0	40.0	0.778	0,0,0,0,0,0,1,2,3	to_hand	s589
333.645	0.205	0	PA_without_intermediate	0,0,0,3,2,0,1,0,0	test	ward_and_allport	1,0,0,3,2,0,0,0,0	71.0	40.0	0.205	0,0,0,0,0,0,1,2,3	to_board	s589
333.86	1.028	0	PA_without_intermediate	0,0,0,3,2,0,0,0,0	test	ward_and_allport	1,0,0,3,2,0,0,0,0	82.0	40.0	1.028	0,0,0,0,0,0,1,2,3	to_hand	s589
334.889	0.147	0	PA_without_intermediate	1,0,0,3,2,0,0,0,0	test	ward_and_allport	1,0,0,3,2,0,0,0,0	89.0	40.0	0.147	0,0,0,0,0,0,1,2,3	to_board	s589
335.047	1.0	0	PA_without_intermediate	n/a	test	ward_and_allport	n/a	-1.0	40.0	n/a	n/a	feedback	s589
336.047	1.0	0	PA_without_intermediate	n/a	test	ward_and_allport	n/a	-1.0	40.0	n/a	n/a	ITI	s589
337.057	1.452	1	PA_without_intermediate	0,0,0,1,2,0,0,0,0	test	ward_and_allport	3,2,0,0,0,0,1,0,0	71.0	41.0	1.452	0,0,0,1,2,3,0,0,0	to_hand	s589
338.509	0.133	0	PA_without_intermediate	3,0,0,1,2,0,0,0,0	test	ward_and_allport	3,2,0,0,0,0,1,0,0	89.0	41.0	0.133	0,0,0,1,2,3,0,0,0	to_board	s589
338.651	0.508	0	PA_without_intermediate	3,0,0,1,0,0,0,0,0	test	ward_and_allport	3,2,0,0,0,0,1,0,0	71.0	41.0	0.508	0,0,0,1,2,3,0,0,0	to_hand	s589
339.16	0.147	0	PA_without_intermediate	3,2,0,1,0,0,0,0,0	test	ward_and_allport	3,2,0,0,0,0,1,0,0	89.0	41.0	0.147	0,0,0,1,2,3,0,0,0	to_board	s589
339.315	0.467	0	PA_without_intermediate	3,2,0,0,0,0,0,0,0	test	ward_and_allport	3,2,0,0,0,0,1,0,0	71.0	41.0	0.467	0,0,0,1,2,3,0,0,0	to_hand	s589
339.784	0.134	0	PA_without_intermediate	3,2,0,0,0,0,1,0,0	test	ward_and_allport	3,2,0,0,0,0,1,0,0	82.0	41.0	0.134	0,0,0,1,2,3,0,0,0	to_board	s589
339.928	1.0	0	PA_without_intermediate	n/a	test	ward_and_allport	n/a	-1.0	41.0	n/a	n/a	feedback	s589
340.928	1.408	0	PA_without_intermediate	n/a	test	ward_and_allport	n/a	-1.0	41.0	n/a	n/a	ITI	s589
342.344	1.688	1	PA_with_intermediate	0,0,0,0,0,0,1,2,0	test	ward_and_allport	0,0,0,2,0,0,1,3,0	82.0	42.0	1.688	0,0,0,0,0,0,1,2,3	to_hand	s589
344.034	0.161	0	PA_with_intermediate	0,0,0,3,0,0,1,2,0	test	ward_and_allport	0,0,0,2,0,0,1,3,0	71.0	42.0	0.161	0,0,0,0,0,0,1,2,3	to_board	s589
344.204	0.9	0	PA_with_intermediate	0,0,0,0,0,0,1,2,0	test	ward_and_allport	0,0,0,2,0,0,1,3,0	71.0	42.0	0.9	0,0,0,0,0,0,1,2,3	to_hand	s589
345.106	0.176	0	PA_with_intermediate	3,0,0,0,0,0,1,2,0	test	ward_and_allport	0,0,0,2,0,0,1,3,0	89.0	42.0	0.176	0,0,0,0,0,0,1,2,3	to_board	s589
345.296	0.717	0	PA_with_intermediate	3,0,0,0,0,0,1,0,0	test	ward_and_allport	0,0,0,2,0,0,1,3,0	82.0	42.0	0.717	0,0,0,0,0,0,1,2,3	to_hand	s589
346.015	0.228	0	PA_with_intermediate	3,2,0,0,0,0,1,0,0	test	ward_and_allport	0,0,0,2,0,0,1,3,0	89.0	42.0	0.228	0,0,0,0,0,0,1,2,3	to_board	s589
346.251	0.777	0	PA_with_intermediate	3,0,0,0,0,0,1,0,0	test	ward_and_allport	0,0,0,2,0,0,1,3,0	89.0	42.0	0.777	0,0,0,0,0,0,1,2,3	to_hand	s589
347.03	0.298	0	PA_with_intermediate	3,0,0,2,0,0,1,0,0	test	ward_and_allport	0,0,0,2,0,0,1,3,0	71.0	42.0	0.298	0,0,0,0,0,0,1,2,3	to_board	s589
347.336	0.466	0	PA_with_intermediate	0,0,0,2,0,0,1,0,0	test	ward_and_allport	0,0,0,2,0,0,1,3,0	89.0	42.0	0.466	0,0,0,0,0,0,1,2,3	to_hand	s589
347.804	0.174	0	PA_with_intermediate	0,0,0,2,0,0,1,3,0	test	ward_and_allport	0,0,0,2,0,0,1,3,0	82.0	42.0	0.174	0,0,0,0,0,0,1,2,3	to_board	s589
347.989	1.0	0	PA_with_intermediate	n/a	test	ward_and_allport	n/a	-1.0	42.0	n/a	n/a	feedback	s589
348.989	1.136	0	PA_with_intermediate	n/a	test	ward_and_allport	n/a	-1.0	42.0	n/a	n/a	ITI	s589
350.132	1.968	1	PA_without_intermediate	1,2,0,0,0,0,0,0,0	test	ward_and_allport	0,0,0,1,0,0,3,2,0	89.0	43.0	1.968	1,2,3,0,0,0,0,0,0	to_hand	s589
352.101	0.123	0	PA_without_intermediate	1,2,0,0,0,0,3,0,0	test	ward_and_allport	0,0,0,1,0,0,3,2,0	82.0	43.0	0.123	1,2,3,0,0,0,0,0,0	to_board	s589
352.232	0.642	0	PA_without_intermediate	1,0,0,0,0,0,3,0,0	test	ward_and_allport	0,0,0,1,0,0,3,2,0	89.0	43.0	0.642	1,2,3,0,0,0,0,0,0	to_hand	s589
352.876	0.156	0	PA_without_intermediate	1,0,0,0,0,0,3,2,0	test	ward_and_allport	0,0,0,1,0,0,3,2,0	82.0	43.0	0.156	1,2,3,0,0,0,0,0,0	to_board	s589
353.04	0.557	0	PA_without_intermediate	0,0,0,0,0,0,3,2,0	test	ward_and_allport	0,0,0,1,0,0,3,2,0	89.0	43.0	0.557	1,2,3,0,0,0,0,0,0	to_hand	s589
353.598	0.103	0	PA_without_intermediate	0,0,0,1,0,0,3,2,0	test	ward_and_allport	0,0,0,1,0,0,3,2,0	71.0	43.0	0.103	1,2,3,0,0,0,0,0,0	to_board	s589
353.713	1.0	0	PA_without_intermediate	n/a	test	ward_and_allport	n/a	-1.0	43.0	n/a	n/a	feedback	s589
354.713	4.128	0	PA_without_intermediate	n/a	test	ward_and_allport	n/a	-1.0	43.0	n/a	n/a	ITI	s589
358.852	1.652	1	PA_without_intermediate	0,0,0,0,0,0,1,2,0	test	ward_and_allport	3,1,0,2,0,0,0,0,0	82.0	44.0	1.652	0,0,0,0,0,0,1,2,3	to_hand	s589
360.505	0.159	0	PA_without_intermediate	3,0,0,0,0,0,1,2,0	test	ward_and_allport	3,1,0,2,0,0,0,0,0	89.0	44.0	0.159	0,0,0,0,0,0,1,2,3	to_board	s589
360.677	0.916	0	PA_without_intermediate	3,0,0,0,0,0,1,0,0	test	ward_and_allport	3,1,0,2,0,0,0,0,0	82.0	44.0	0.916	0,0,0,0,0,0,1,2,3	to_hand	s589
361.594	0.137	0	PA_without_intermediate	3,0,0,2,0,0,1,0,0	test	ward_and_allport	3,1,0,2,0,0,0,0,0	71.0	44.0	0.137	0,0,0,0,0,0,1,2,3	to_board	s589
361.746	0.655	0	PA_without_intermediate	3,0,0,2,0,0,0,0,0	test	ward_and_allport	3,1,0,2,0,0,0,0,0	82.0	44.0	0.655	0,0,0,0,0,0,1,2,3	to_hand	s589
362.403	0.126	0	PA_without_intermediate	3,1,0,2,0,0,0,0,0	test	ward_and_allport	3,1,0,2,0,0,0,0,0	89.0	44.0	0.126	0,0,0,0,0,0,1,2,3	to_board	s589
362.542	1.0	0	PA_without_intermediate	n/a	test	ward_and_allport	n/a	-1.0	44.0	n/a	n/a	feedback	s589
363.542	1.136	0	PA_without_intermediate	n/a	test	ward_and_allport	n/a	-1.0	44.0	n/a	n/a	ITI	s589
369.691	1.352	1	PA_without_intermediate	0,0,0,1,2,0,0,0,0	test	ward_and_allport	3,2,0,0,0,0,1,0,0	71.0	45.0	1.352	0,0,0,1,2,3,0,0,0	to_hand	s589
371.045	0.137	0	PA_without_intermediate	3,0,0,1,2,0,0,0,0	test	ward_and_allport	3,2,0,0,0,0,1,0,0	89.0	45.0	0.137	0,0,0,1,2,3,0,0,0	to_board	s589
371.194	0.604	0	PA_without_intermediate	3,0,0,1,0,0,0,0,0	test	ward_and_allport	3,2,0,0,0,0,1,0,0	71.0	45.0	0.604	0,0,0,1,2,3,0,0,0	to_hand	s589
371.8	0.11	0	PA_without_intermediate	3,2,0,1,0,0,0,0,0	test	ward_and_allport	3,2,0,0,0,0,1,0,0	89.0	45.0	0.11	0,0,0,1,2,3,0,0,0	to_board	s589
371.923	0.538	0	PA_without_intermediate	3,2,0,0,0,0,0,0,0	test	ward_and_allport	3,2,0,0,0,0,1,0,0	71.0	45.0	0.538	0,0,0,1,2,3,0,0,0	to_hand	s589
372.463	0.159	0	PA_without_intermediate	3,2,0,0,0,0,1,0,0	test	ward_and_allport	3,2,0,0,0,0,1,0,0	82.0	45.0	0.159	0,0,0,1,2,3,0,0,0	to_board	s589
372.637	1.0	0	PA_without_intermediate	n/a	test	ward_and_allport	n/a	-1.0	45.0	n/a	n/a	feedback	s589
373.637	4.264	0	PA_without_intermediate	n/a	test	ward_and_allport	n/a	-1.0	45.0	n/a	n/a	ITI	s589
377.913	1.587	1	PA_with_intermediate	0,0,0,1,2,0,0,0,0	test	ward_and_allport	2,0,0,1,3,0,0,0,0	71.0	46.0	1.587	0,0,0,1,2,3,0,0,0	to_hand	s589
379.501	0.194	0	PA_with_intermediate	0,0,0,1,2,0,3,0,0	test	ward_and_allport	2,0,0,1,3,0,0,0,0	82.0	46.0	0.194	0,0,0,1,2,3,0,0,0	to_board	s589
379.709	0.392	0	PA_with_intermediate	0,0,0,1,0,0,3,0,0	test	ward_and_allport	2,0,0,1,3,0,0,0,0	71.0	46.0	0.392	0,0,0,1,2,3,0,0,0	to_hand	s589
380.102	0.17	0	PA_with_intermediate	2,0,0,1,0,0,3,0,0	test	ward_and_allport	2,0,0,1,3,0,0,0,0	89.0	46.0	0.17	0,0,0,1,2,3,0,0,0	to_board	s589
380.286	0.563	0	PA_with_intermediate	2,0,0,1,0,0,0,0,0	test	ward_and_allport	2,0,0,1,3,0,0,0,0	82.0	46.0	0.563	0,0,0,1,2,3,0,0,0	to_hand	s589
380.85	0.094	0	PA_with_intermediate	2,0,0,1,3,0,0,0,0	test	ward_and_allport	2,0,0,1,3,0,0,0,0	71.0	46.0	0.094	0,0,0,1,2,3,0,0,0	to_board	s589
380.958	1.0	0	PA_with_intermediate	n/a	test	ward_and_allport	n/a	-1.0	46.0	n/a	n/a	feedback	s589
381.958	3.04	0	PA_with_intermediate	n/a	test	ward_and_allport	n/a	-1.0	46.0	n/a	n/a	ITI	s589
385.008	1.557	1	PA_with_intermediate	0,0,0,1,2,0,0,0,0	test	ward_and_allport	0,0,0,1,3,0,2,0,0	71.0	47.0	1.557	0,0,0,1,2,3,0,0,0	to_hand	s589
386.567	0.599	0	PA_with_intermediate	3,0,0,1,2,0,0,0,0	test	ward_and_allport	0,0,0,1,3,0,2,0,0	89.0	47.0	0.599	0,0,0,1,2,3,0,0,0	to_board	s589
387.177	0.299	0	PA_with_intermediate	3,0,0,1,0,0,0,0,0	test	ward_and_allport	0,0,0,1,3,0,2,0,0	71.0	47.0	0.299	0,0,0,1,2,3,0,0,0	to_hand	s589
387.478	0.605	0	PA_with_intermediate	3,0,0,1,0,0,2,0,0	test	ward_and_allport	0,0,0,1,3,0,2,0,0	82.0	47.0	0.605	0,0,0,1,2,3,0,0,0	to_board	s589
388.098	0.454	0	PA_with_intermediate	0,0,0,1,0,0,2,0,0	test	ward_and_allport	0,0,0,1,3,0,2,0,0	89.0	47.0	0.454	0,0,0,1,2,3,0,0,0	to_hand	s589
388.553	0.11	0	PA_with_intermediate	0,0,0,1,3,0,2,0,0	test	ward_and_allport	0,0,0,1,3,0,2,0,0	71.0	47.0	0.11	0,0,0,1,2,3,0,0,0	to_board	s589
388.677	1.0	0	PA_with_intermediate	n/a	test	ward_and_allport	n/a	-1.0	47.0	n/a	n/a	feedback	s589
389.677	1.136	0	PA_with_intermediate	n/a	test	ward_and_allport	n/a	-1.0	47.0	n/a	n/a	ITI	s589
n/a	n/a	0	n/a	n/a	n/a	n/a	n/a	n/a	n/a	n/a	n/a	ITI	n/a
