onset	duration	SS_delay	correct_response	experiment_exp_id	key_press	response_time	stopped	trial_type	worker_id
3.015	0.85	0.4	71.0	stop_signal	71.0	0.655	False	stop_failure	s587
5.272	0.85	0.35	89.0	stop_signal	89.0	0.62	False	go	s587
7.934	0.85	0.35	89.0	stop_signal	89.0	0.581	False	go	s587
10.598	0.85	0.35	71.0	stop_signal	71.0	0.722	False	go	s587
12.854	0.85	0.35	89.0	stop_signal	89.0	0.577	False	go	s587
15.107	0.85	0.35	89.0	stop_signal	89.0	0.652	False	go	s587
17.499	0.85	0.35	71.0	stop_signal	71.0	0.403	False	stop_failure	s587
20.297	0.85	0.3	71.0	stop_signal	-1.0	n/a	True	stop_success	s587
22.689	0.85	0.35	89.0	stop_signal	89.0	0.428	False	stop_failure	s587
24.945	0.85	0.3	71.0	stop_signal	-1.0	n/a	True	stop_success	s587
27.201	0.85	0.35	89.0	stop_signal	89.0	0.42	False	stop_failure	s587
29.455	0.85	0.3	71.0	stop_signal	71.0	0.638	False	go	s587
32.116	0.85	0.3	71.0	stop_signal	71.0	0.48	False	go	s587
34.778	0.85	0.3	71.0	stop_signal	71.0	0.671	False	go	s587
37.035	0.85	0.3	71.0	stop_signal	71.0	0.691	False	go	s587
39.564	0.85	0.3	71.0	stop_signal	71.0	0.515	False	go	s587
41.821	0.85	0.3	71.0	stop_signal	-1.0	n/a	True	stop_success	s587
44.348	0.85	0.35	89.0	stop_signal	89.0	0.75	False	go	s587
46.877	0.85	0.35	89.0	stop_signal	-1.0	n/a	True	stop_success	s587
49.402	0.85	0.4	71.0	stop_signal	71.0	0.57	False	stop_failure	s587
51.792	0.85	0.35	71.0	stop_signal	-1.0	n/a	True	stop_success	s587
54.318	0.85	0.4	89.0	stop_signal	89.0	0.515	False	go	s587
56.848	0.85	0.4	71.0	stop_signal	71.0	0.737	False	go	s587
59.241	0.85	0.4	89.0	stop_signal	89.0	0.621	False	go	s587
61.496	0.85	0.4	71.0	stop_signal	71.0	0.691	False	go	s587
64.024	0.85	0.4	89.0	stop_signal	89.0	0.579	False	go	s587
66.824	0.85	0.4	71.0	stop_signal	71.0	0.581	False	stop_failure	s587
69.35	0.85	0.35	89.0	stop_signal	-1.0	n/a	True	stop_success	s587
71.741	0.85	0.4	89.0	stop_signal	89.0	0.737	False	go	s587
73.997	0.85	0.4	71.0	stop_signal	-1.0	n/a	True	stop_success	s587
76.254	0.85	0.45	89.0	stop_signal	-1.0	n/a	True	stop_success	s587
78.51	0.85	0.5	71.0	stop_signal	-1.0	n/a	True	stop_success	s587
80.765	0.85	0.55	89.0	stop_signal	89.0	0.627	False	go	s587
83.294	0.85	0.55	71.0	stop_signal	71.0	0.788	False	go	s587
85.55	0.85	0.55	89.0	stop_signal	-1.0	n/a	True	stop_success	s587
87.806	0.85	0.6	71.0	stop_signal	71.0	0.8	False	go	s587
90.062	0.85	0.6	71.0	stop_signal	71.0	0.703	False	go	s587
92.315	0.85	0.6	89.0	stop_signal	89.0	0.834	False	go	s587
94.707	0.85	0.6	71.0	stop_signal	71.0	0.619	False	go	s587
96.964	0.85	0.6	71.0	stop_signal	71.0	0.673	False	stop_failure	s587
99.22	0.85	0.55	71.0	stop_signal	71.0	0.727	False	go	s587
111.988	0.85	0.55	89.0	stop_signal	89.0	0.763	False	stop_failure	s587
114.244	0.85	0.5	89.0	stop_signal	89.0	0.702	False	stop_failure	s587
116.771	0.85	0.45	71.0	stop_signal	71.0	0.742	False	go	s587
119.161	0.85	0.45	71.0	stop_signal	71.0	0.49	False	go	s587
121.69	0.85	0.45	71.0	stop_signal	-1.0	n/a	True	stop_success	s587
123.944	0.85	0.5	89.0	stop_signal	89.0	0.745	False	go	s587
126.333	0.85	0.5	71.0	stop_signal	71.0	0.752	False	go	s587
128.724	0.85	0.5	71.0	stop_signal	71.0	0.755	False	go	s587
130.978	0.85	0.5	71.0	stop_signal	71.0	0.606	False	go	s587
133.367	0.85	0.5	89.0	stop_signal	71.0	0.498	False	go	s587
135.757	0.85	0.5	89.0	stop_signal	89.0	0.71	False	stop_failure	s587
138.146	0.85	0.45	89.0	stop_signal	89.0	0.776	False	go	s587
140.81	0.85	0.45	71.0	stop_signal	71.0	0.656	False	go	s587
143.338	0.85	0.45	71.0	stop_signal	-1.0	n/a	True	stop_success	s587
145.597	0.85	0.5	89.0	stop_signal	-1.0	n/a	True	stop_success	s587
148.53	0.85	0.55	71.0	stop_signal	71.0	0.901	False	go	s587
150.784	0.85	0.55	89.0	stop_signal	89.0	0.581	False	go	s587
153.312	0.85	0.55	71.0	stop_signal	-1.0	n/a	True	stop_success	s587
155.565	0.85	0.6	89.0	stop_signal	89.0	0.674	False	go	s587
157.824	0.85	0.6	89.0	stop_signal	89.0	0.775	False	go	s587
160.08	0.85	0.6	89.0	stop_signal	89.0	0.656	False	go	s587
162.336	0.85	0.6	71.0	stop_signal	71.0	0.874	False	go	s587
164.864	0.85	0.6	89.0	stop_signal	89.0	0.678	False	stop_failure	s587
167.937	0.85	0.55	89.0	stop_signal	89.0	0.648	False	stop_failure	s587
170.19	0.85	0.5	89.0	stop_signal	89.0	0.901	False	go	s587
172.581	0.85	0.5	89.0	stop_signal	-1.0	n/a	True	stop_success	s587
174.971	0.85	0.55	71.0	stop_signal	71.0	0.675	False	go	s587
177.497	0.85	0.55	89.0	stop_signal	89.0	0.778	False	go	s587
179.888	0.85	0.55	71.0	stop_signal	71.0	0.721	False	go	s587
182.279	0.85	0.55	89.0	stop_signal	89.0	0.794	False	stop_failure	s587
185.076	0.85	0.5	89.0	stop_signal	89.0	0.636	False	go	s587
187.468	0.85	0.5	71.0	stop_signal	71.0	0.74	False	stop_failure	s587
189.724	0.85	0.45	89.0	stop_signal	-1.0	n/a	True	stop_success	s587
192.25	0.85	0.5	71.0	stop_signal	71.0	0.581	False	stop_failure	s587
194.642	0.85	0.45	71.0	stop_signal	71.0	0.654	False	go	s587
197.031	0.85	0.45	89.0	stop_signal	89.0	0.525	False	stop_failure	s587
199.284	0.85	0.4	71.0	stop_signal	71.0	0.788	False	go	s587
201.676	0.85	0.4	71.0	stop_signal	71.0	0.666	False	go	s587
203.933	0.85	0.4	71.0	stop_signal	71.0	0.613	False	stop_failure	s587
206.188	0.85	0.35	89.0	stop_signal	89.0	0.738	False	go	s587
208.442	0.85	0.35	71.0	stop_signal	71.0	0.695	False	go	s587
210.834	0.85	0.35	71.0	stop_signal	71.0	0.536	False	stop_failure	s587
223.603	0.85	0.3	89.0	stop_signal	-1.0	n/a	True	stop_success	s587
225.856	0.85	0.35	71.0	stop_signal	-1.0	n/a	True	stop_success	s587
228.246	0.85	0.4	71.0	stop_signal	-1.0	n/a	True	stop_success	s587
230.637	0.85	0.45	89.0	stop_signal	89.0	0.732	False	go	s587
232.894	0.85	0.45	71.0	stop_signal	71.0	0.545	False	stop_failure	s587
235.422	0.85	0.4	89.0	stop_signal	89.0	0.822	False	go	s587
237.675	0.85	0.4	71.0	stop_signal	71.0	0.666	False	go	s587
240.067	0.85	0.4	71.0	stop_signal	71.0	0.607	False	go	s587
242.324	0.85	0.4	71.0	stop_signal	-1.0	n/a	True	stop_success	s587
244.582	0.85	0.45	71.0	stop_signal	71.0	0.781	False	go	s587
246.976	0.85	0.45	71.0	stop_signal	71.0	0.829	False	go	s587
249.505	0.85	0.45	89.0	stop_signal	89.0	0.711	False	go	s587
251.897	0.85	0.45	89.0	stop_signal	89.0	1.554	False	go	s587
254.422	0.85	0.45	89.0	stop_signal	89.0	0.604	False	stop_failure	s587
257.358	0.85	0.4	89.0	stop_signal	89.0	0.625	False	go	s587
259.886	0.85	0.4	71.0	stop_signal	71.0	0.703	False	go	s587
262.411	0.85	0.4	89.0	stop_signal	89.0	0.605	False	go	s587
264.665	0.85	0.4	89.0	stop_signal	89.0	0.571	False	stop_failure	s587
267.191	0.85	0.35	71.0	stop_signal	71.0	0.674	False	go	s587
269.58	0.85	0.35	89.0	stop_signal	89.0	0.724	False	go	s587
271.836	0.85	0.35	89.0	stop_signal	89.0	0.566	False	go	s587
274.227	0.85	0.35	71.0	stop_signal	71.0	0.683	False	go	s587
276.481	0.85	0.35	89.0	stop_signal	-1.0	n/a	True	stop_success	s587
278.874	0.85	0.4	89.0	stop_signal	89.0	0.78	False	go	s587
281.402	0.85	0.4	71.0	stop_signal	-1.0	n/a	True	stop_success	s587
283.655	0.85	0.45	89.0	stop_signal	89.0	0.584	False	stop_failure	s587
286.045	0.85	0.4	89.0	stop_signal	89.0	0.715	False	go	s587
288.709	0.85	0.4	71.0	stop_signal	-1.0	n/a	True	stop_success	s587
290.966	0.85	0.45	89.0	stop_signal	89.0	0.946	False	go	s587
294.173	0.85	0.45	89.0	stop_signal	89.0	0.599	False	go	s587
296.562	0.85	0.45	71.0	stop_signal	71.0	0.692	False	go	s587
298.954	0.85	0.45	71.0	stop_signal	-1.0	n/a	True	stop_success	s587
301.482	0.85	0.5	89.0	stop_signal	89.0	0.622	False	go	s587
303.739	0.85	0.5	89.0	stop_signal	89.0	0.586	False	stop_failure	s587
305.995	0.85	0.45	89.0	stop_signal	89.0	0.608	False	stop_failure	s587
308.248	0.85	0.4	71.0	stop_signal	71.0	0.487	False	go	s587
311.184	0.85	0.4	89.0	stop_signal	89.0	0.534	False	go	s587
313.712	0.85	0.4	71.0	stop_signal	71.0	0.639	False	go	s587
316.24	0.85	0.4	89.0	stop_signal	89.0	0.475	False	go	s587
318.496	0.85	0.4	89.0	stop_signal	-1.0	n/a	True	stop_success	s587
321.023	0.85	0.45	89.0	stop_signal	-1.0	n/a	True	stop_success	s587
323.278	0.85	0.5	71.0	stop_signal	71.0	0.793	False	go	s587
