onset	duration	planning	condition	current_position	exp_stage	experiment_exp_id	goal_state	key_press	problem_id	response_time	start_state	trial_id	worker_id
-34.934	0.0	0	n/a	n/a	n/a	ward_and_allport	n/a	32.0	n/a	1.351	n/a	instructions	s587
3.014	15.509	1	UA_with_intermediate	1,0,0,2,0,0,0,0,0	practice	ward_and_allport	1,2,3,0,0,0,0,0,0	71.0	0.0	15.509	1,0,0,2,3,0,0,0,0	to_hand	s587
18.525	2.912	0	UA_with_intermediate	1,0,0,2,0,0,3,0,0	practice	ward_and_allport	1,2,3,0,0,0,0,0,0	82.0	0.0	2.912	1,0,0,2,3,0,0,0,0	to_board	s587
21.439	1.514	0	UA_with_intermediate	1,0,0,0,0,0,3,0,0	practice	ward_and_allport	1,2,3,0,0,0,0,0,0	71.0	0.0	1.514	1,0,0,2,3,0,0,0,0	to_hand	s587
22.955	1.051	0	UA_with_intermediate	1,2,0,0,0,0,3,0,0	practice	ward_and_allport	1,2,3,0,0,0,0,0,0	89.0	0.0	1.051	1,0,0,2,3,0,0,0,0	to_board	s587
24.008	1.781	0	UA_with_intermediate	1,2,0,0,0,0,0,0,0	practice	ward_and_allport	1,2,3,0,0,0,0,0,0	82.0	0.0	1.781	1,0,0,2,3,0,0,0,0	to_hand	s587
25.791	1.795	0	UA_with_intermediate	1,2,3,0,0,0,0,0,0	practice	ward_and_allport	1,2,3,0,0,0,0,0,0	89.0	0.0	1.795	1,0,0,2,3,0,0,0,0	to_board	s587
27.59	1.0	0	UA_with_intermediate	n/a	practice	ward_and_allport	n/a	-1.0	0.0	n/a	n/a	feedback	s587
30.092	8.066	1	UA_with_intermediate	1,0,0,3,0,0,0,0,0	practice	ward_and_allport	1,3,2,0,0,0,0,0,0	89.0	1.0	8.066	1,2,0,3,0,0,0,0,0	to_hand	s587
38.16	2.293	0	UA_with_intermediate	1,0,0,3,0,0,2,0,0	practice	ward_and_allport	1,3,2,0,0,0,0,0,0	82.0	1.0	2.293	1,2,0,3,0,0,0,0,0	to_board	s587
40.455	1.783	0	UA_with_intermediate	1,0,0,0,0,0,2,0,0	practice	ward_and_allport	1,3,2,0,0,0,0,0,0	71.0	1.0	1.783	1,2,0,3,0,0,0,0,0	to_hand	s587
42.239	0.718	0	UA_with_intermediate	1,3,0,0,0,0,2,0,0	practice	ward_and_allport	1,3,2,0,0,0,0,0,0	89.0	1.0	0.718	1,2,0,3,0,0,0,0,0	to_board	s587
42.959	1.093	0	UA_with_intermediate	1,3,0,0,0,0,0,0,0	practice	ward_and_allport	1,3,2,0,0,0,0,0,0	82.0	1.0	1.093	1,2,0,3,0,0,0,0,0	to_hand	s587
44.053	1.046	0	UA_with_intermediate	1,3,2,0,0,0,0,0,0	practice	ward_and_allport	1,3,2,0,0,0,0,0,0	89.0	1.0	1.046	1,2,0,3,0,0,0,0,0	to_board	s587
45.102	1.0	0	UA_with_intermediate	n/a	practice	ward_and_allport	n/a	-1.0	1.0	n/a	n/a	feedback	s587
46.102	1.1	0	UA_with_intermediate	n/a	practice	ward_and_allport	n/a	-1.0	1.0	n/a	n/a	ITI	s587
47.205	6.932	1	UA_without_intermediate	0,0,0,1,2,0,0,0,0	practice	ward_and_allport	3,2,1,0,0,0,0,0,0	82.0	2.0	6.932	0,0,0,1,2,0,3,0,0	to_hand	s587
54.139	2.124	0	UA_without_intermediate	3,0,0,1,2,0,0,0,0	practice	ward_and_allport	3,2,1,0,0,0,0,0,0	89.0	2.0	2.124	0,0,0,1,2,0,3,0,0	to_board	s587
56.265	1.211	0	UA_without_intermediate	3,0,0,1,0,0,0,0,0	practice	ward_and_allport	3,2,1,0,0,0,0,0,0	71.0	2.0	1.211	0,0,0,1,2,0,3,0,0	to_hand	s587
57.477	0.673	0	UA_without_intermediate	3,2,0,1,0,0,0,0,0	practice	ward_and_allport	3,2,1,0,0,0,0,0,0	89.0	2.0	0.673	0,0,0,1,2,0,3,0,0	to_board	s587
58.152	0.988	0	UA_without_intermediate	3,2,0,0,0,0,0,0,0	practice	ward_and_allport	3,2,1,0,0,0,0,0,0	71.0	2.0	0.988	0,0,0,1,2,0,3,0,0	to_hand	s587
59.141	0.469	0	UA_without_intermediate	3,2,1,0,0,0,0,0,0	practice	ward_and_allport	3,2,1,0,0,0,0,0,0	89.0	2.0	0.469	0,0,0,1,2,0,3,0,0	to_board	s587
59.614	1.0	0	UA_without_intermediate	n/a	practice	ward_and_allport	n/a	-1.0	2.0	n/a	n/a	feedback	s587
60.614	1.2	0	UA_without_intermediate	n/a	practice	ward_and_allport	n/a	-1.0	2.0	n/a	n/a	ITI	s587
61.817	6.845	1	UA_without_intermediate	0,0,0,1,0,0,3,0,0	practice	ward_and_allport	2,3,1,0,0,0,0,0,0	71.0	3.0	6.845	0,0,0,1,2,0,3,0,0	to_hand	s587
68.663	1.095	0	UA_without_intermediate	2,0,0,1,0,0,3,0,0	practice	ward_and_allport	2,3,1,0,0,0,0,0,0	89.0	3.0	1.095	0,0,0,1,2,0,3,0,0	to_board	s587
69.761	1.569	0	UA_without_intermediate	2,0,0,1,0,0,0,0,0	practice	ward_and_allport	2,3,1,0,0,0,0,0,0	82.0	3.0	1.569	0,0,0,1,2,0,3,0,0	to_hand	s587
71.331	0.667	0	UA_without_intermediate	2,3,0,1,0,0,0,0,0	practice	ward_and_allport	2,3,1,0,0,0,0,0,0	89.0	3.0	0.667	0,0,0,1,2,0,3,0,0	to_board	s587
71.999	0.685	0	UA_without_intermediate	2,3,0,0,0,0,0,0,0	practice	ward_and_allport	2,3,1,0,0,0,0,0,0	71.0	3.0	0.685	0,0,0,1,2,0,3,0,0	to_hand	s587
72.686	0.482	0	UA_without_intermediate	2,3,1,0,0,0,0,0,0	practice	ward_and_allport	2,3,1,0,0,0,0,0,0	89.0	3.0	0.482	0,0,0,1,2,0,3,0,0	to_board	s587
73.175	1.0	0	UA_without_intermediate	n/a	practice	ward_and_allport	n/a	-1.0	3.0	n/a	n/a	feedback	s587
74.175	1.0	0	UA_without_intermediate	n/a	practice	ward_and_allport	n/a	-1.0	3.0	n/a	n/a	ITI	s587
77.181	16.803	1	PA_without_intermediate	1,2,0,0,0,0,0,0,0	test	ward_and_allport	0,0,0,3,1,0,2,0,0	89.0	0.0	16.803	1,2,3,0,0,0,0,0,0	to_hand	s587
93.985	1.441	0	PA_without_intermediate	1,2,0,3,0,0,0,0,0	test	ward_and_allport	0,0,0,3,1,0,2,0,0	71.0	0.0	1.441	1,2,3,0,0,0,0,0,0	to_board	s587
95.428	2.133	0	PA_without_intermediate	1,0,0,3,0,0,0,0,0	test	ward_and_allport	0,0,0,3,1,0,2,0,0	89.0	0.0	2.133	1,2,3,0,0,0,0,0,0	to_hand	s587
97.562	1.475	0	PA_without_intermediate	1,0,0,3,0,0,2,0,0	test	ward_and_allport	0,0,0,3,1,0,2,0,0	82.0	0.0	1.475	1,2,3,0,0,0,0,0,0	to_board	s587
99.039	0.833	0	PA_without_intermediate	0,0,0,3,0,0,2,0,0	test	ward_and_allport	0,0,0,3,1,0,2,0,0	89.0	0.0	0.833	1,2,3,0,0,0,0,0,0	to_hand	s587
99.873	1.519	0	PA_without_intermediate	0,0,0,3,1,0,2,0,0	test	ward_and_allport	0,0,0,3,1,0,2,0,0	71.0	0.0	1.519	1,2,3,0,0,0,0,0,0	to_board	s587
101.394	1.0	0	PA_without_intermediate	n/a	test	ward_and_allport	n/a	-1.0	0.0	n/a	n/a	feedback	s587
102.394	2.088	0	PA_without_intermediate	n/a	test	ward_and_allport	n/a	-1.0	0.0	n/a	n/a	ITI	s587
104.485	11.786	1	PA_with_intermediate	0,0,0,1,2,0,0,0,0	test	ward_and_allport	2,0,0,1,3,0,0,0,0	71.0	1.0	11.786	0,0,0,1,2,3,0,0,0	to_hand	s587
116.272	4.433	0	PA_with_intermediate	0,0,0,1,2,0,3,0,0	test	ward_and_allport	2,0,0,1,3,0,0,0,0	82.0	1.0	4.433	0,0,0,1,2,3,0,0,0	to_board	s587
120.708	1.379	0	PA_with_intermediate	0,0,0,1,0,0,3,0,0	test	ward_and_allport	2,0,0,1,3,0,0,0,0	71.0	1.0	1.379	0,0,0,1,2,3,0,0,0	to_hand	s587
122.088	1.551	0	PA_with_intermediate	2,0,0,1,0,0,3,0,0	test	ward_and_allport	2,0,0,1,3,0,0,0,0	89.0	1.0	1.551	0,0,0,1,2,3,0,0,0	to_board	s587
123.641	1.441	0	PA_with_intermediate	2,0,0,1,0,0,0,0,0	test	ward_and_allport	2,0,0,1,3,0,0,0,0	82.0	1.0	1.441	0,0,0,1,2,3,0,0,0	to_hand	s587
125.084	1.707	0	PA_with_intermediate	2,0,0,1,3,0,0,0,0	test	ward_and_allport	2,0,0,1,3,0,0,0,0	71.0	1.0	1.707	0,0,0,1,2,3,0,0,0	to_board	s587
126.798	1.0	0	PA_with_intermediate	n/a	test	ward_and_allport	n/a	-1.0	1.0	n/a	n/a	feedback	s587
127.798	1.0	0	PA_with_intermediate	n/a	test	ward_and_allport	n/a	-1.0	1.0	n/a	n/a	ITI	s587
128.801	6.41	1	PA_without_intermediate	0,0,0,1,2,0,0,0,0	test	ward_and_allport	3,1,0,0,0,0,2,0,0	71.0	2.0	6.41	0,0,0,1,2,3,0,0,0	to_hand	s587
135.213	2.611	0	PA_without_intermediate	3,0,0,1,2,0,0,0,0	test	ward_and_allport	3,1,0,0,0,0,2,0,0	89.0	2.0	2.611	0,0,0,1,2,3,0,0,0	to_board	s587
137.827	2.293	0	PA_without_intermediate	3,0,0,1,0,0,0,0,0	test	ward_and_allport	3,1,0,0,0,0,2,0,0	71.0	2.0	2.293	0,0,0,1,2,3,0,0,0	to_hand	s587
140.12	1.233	0	PA_without_intermediate	3,0,0,1,0,0,2,0,0	test	ward_and_allport	3,1,0,0,0,0,2,0,0	82.0	2.0	1.233	0,0,0,1,2,3,0,0,0	to_board	s587
141.356	1.248	0	PA_without_intermediate	3,0,0,0,0,0,2,0,0	test	ward_and_allport	3,1,0,0,0,0,2,0,0	71.0	2.0	1.248	0,0,0,1,2,3,0,0,0	to_hand	s587
142.605	0.712	0	PA_without_intermediate	3,1,0,0,0,0,2,0,0	test	ward_and_allport	3,1,0,0,0,0,2,0,0	89.0	2.0	0.712	0,0,0,1,2,3,0,0,0	to_board	s587
143.321	1.0	0	PA_without_intermediate	n/a	test	ward_and_allport	n/a	-1.0	2.0	n/a	n/a	feedback	s587
144.321	1.0	0	PA_without_intermediate	n/a	test	ward_and_allport	n/a	-1.0	2.0	n/a	n/a	ITI	s587
145.324	5.726	1	PA_without_intermediate	1,2,0,0,0,0,0,0,0	test	ward_and_allport	0,0,0,1,0,0,3,2,0	89.0	3.0	5.726	1,2,3,0,0,0,0,0,0	to_hand	s587
151.051	1.236	0	PA_without_intermediate	1,2,0,0,0,0,3,0,0	test	ward_and_allport	0,0,0,1,0,0,3,2,0	82.0	3.0	1.236	1,2,3,0,0,0,0,0,0	to_board	s587
152.29	2.31	0	PA_without_intermediate	1,0,0,0,0,0,3,0,0	test	ward_and_allport	0,0,0,1,0,0,3,2,0	89.0	3.0	2.31	1,2,3,0,0,0,0,0,0	to_hand	s587
154.601	1.078	0	PA_without_intermediate	1,0,0,0,0,0,3,2,0	test	ward_and_allport	0,0,0,1,0,0,3,2,0	82.0	3.0	1.078	1,2,3,0,0,0,0,0,0	to_board	s587
155.682	0.886	0	PA_without_intermediate	0,0,0,0,0,0,3,2,0	test	ward_and_allport	0,0,0,1,0,0,3,2,0	89.0	3.0	0.886	1,2,3,0,0,0,0,0,0	to_hand	s587
156.569	0.796	0	PA_without_intermediate	0,0,0,1,0,0,3,2,0	test	ward_and_allport	0,0,0,1,0,0,3,2,0	71.0	3.0	0.796	1,2,3,0,0,0,0,0,0	to_board	s587
157.37	1.0	0	PA_without_intermediate	n/a	test	ward_and_allport	n/a	-1.0	3.0	n/a	n/a	feedback	s587
158.37	1.0	0	PA_without_intermediate	n/a	test	ward_and_allport	n/a	-1.0	3.0	n/a	n/a	ITI	s587
159.372	10.19	1	PA_with_intermediate	1,2,0,0,0,0,0,0,0	test	ward_and_allport	1,3,0,2,0,0,0,0,0	89.0	4.0	10.19	1,2,3,0,0,0,0,0,0	to_hand	s587
169.564	3.114	0	PA_with_intermediate	1,2,0,0,0,0,3,0,0	test	ward_and_allport	1,3,0,2,0,0,0,0,0	82.0	4.0	3.114	1,2,3,0,0,0,0,0,0	to_board	s587
172.68	1.499	0	PA_with_intermediate	1,0,0,0,0,0,3,0,0	test	ward_and_allport	1,3,0,2,0,0,0,0,0	89.0	4.0	1.499	1,2,3,0,0,0,0,0,0	to_hand	s587
174.181	1.491	0	PA_with_intermediate	1,0,0,2,0,0,3,0,0	test	ward_and_allport	1,3,0,2,0,0,0,0,0	71.0	4.0	1.491	1,2,3,0,0,0,0,0,0	to_board	s587
175.675	1.886	0	PA_with_intermediate	1,0,0,2,0,0,0,0,0	test	ward_and_allport	1,3,0,2,0,0,0,0,0	82.0	4.0	1.886	1,2,3,0,0,0,0,0,0	to_hand	s587
177.562	0.832	0	PA_with_intermediate	1,3,0,2,0,0,0,0,0	test	ward_and_allport	1,3,0,2,0,0,0,0,0	89.0	4.0	0.832	1,2,3,0,0,0,0,0,0	to_board	s587
178.4	1.0	0	PA_with_intermediate	n/a	test	ward_and_allport	n/a	-1.0	4.0	n/a	n/a	feedback	s587
179.4	1.544	0	PA_with_intermediate	n/a	test	ward_and_allport	n/a	-1.0	4.0	n/a	n/a	ITI	s587
180.947	4.948	1	PA_without_intermediate	0,0,0,0,0,0,1,2,0	test	ward_and_allport	3,1,0,2,0,0,0,0,0	82.0	5.0	4.948	0,0,0,0,0,0,1,2,3	to_hand	s587
185.896	1.624	0	PA_without_intermediate	3,0,0,0,0,0,1,2,0	test	ward_and_allport	3,1,0,2,0,0,0,0,0	89.0	5.0	1.624	0,0,0,0,0,0,1,2,3	to_board	s587
187.524	3.573	0	PA_without_intermediate	3,0,0,0,0,0,1,0,0	test	ward_and_allport	3,1,0,2,0,0,0,0,0	82.0	5.0	3.573	0,0,0,0,0,0,1,2,3	to_hand	s587
191.099	1.628	0	PA_without_intermediate	3,0,0,2,0,0,1,0,0	test	ward_and_allport	3,1,0,2,0,0,0,0,0	71.0	5.0	1.628	0,0,0,0,0,0,1,2,3	to_board	s587
192.73	1.453	0	PA_without_intermediate	3,0,0,2,0,0,0,0,0	test	ward_and_allport	3,1,0,2,0,0,0,0,0	82.0	5.0	1.453	0,0,0,0,0,0,1,2,3	to_hand	s587
194.184	0.692	0	PA_without_intermediate	3,1,0,2,0,0,0,0,0	test	ward_and_allport	3,1,0,2,0,0,0,0,0	89.0	5.0	0.692	0,0,0,0,0,0,1,2,3	to_board	s587
194.88	1.0	0	PA_without_intermediate	n/a	test	ward_and_allport	n/a	-1.0	5.0	n/a	n/a	feedback	s587
195.88	1.272	0	PA_without_intermediate	n/a	test	ward_and_allport	n/a	-1.0	5.0	n/a	n/a	ITI	s587
197.156	10.699	1	PA_with_intermediate	0,0,0,0,0,0,1,2,0	test	ward_and_allport	0,0,0,2,3,0,1,0,0	82.0	6.0	10.699	0,0,0,0,0,0,1,2,3	to_hand	s587
207.856	7.383	0	PA_with_intermediate	3,0,0,0,0,0,1,2,0	test	ward_and_allport	0,0,0,2,3,0,1,0,0	89.0	6.0	7.383	0,0,0,0,0,0,1,2,3	to_board	s587
215.243	0.926	0	PA_with_intermediate	3,0,0,0,0,0,1,0,0	test	ward_and_allport	0,0,0,2,3,0,1,0,0	82.0	6.0	0.926	0,0,0,0,0,0,1,2,3	to_hand	s587
216.17	0.872	0	PA_with_intermediate	3,0,0,2,0,0,1,0,0	test	ward_and_allport	0,0,0,2,3,0,1,0,0	71.0	6.0	0.872	0,0,0,0,0,0,1,2,3	to_board	s587
217.045	0.962	0	PA_with_intermediate	0,0,0,2,0,0,1,0,0	test	ward_and_allport	0,0,0,2,3,0,1,0,0	89.0	6.0	0.962	0,0,0,0,0,0,1,2,3	to_hand	s587
218.009	1.056	0	PA_with_intermediate	0,0,0,2,3,0,1,0,0	test	ward_and_allport	0,0,0,2,3,0,1,0,0	71.0	6.0	1.056	0,0,0,0,0,0,1,2,3	to_board	s587
219.07	1.0	0	PA_with_intermediate	n/a	test	ward_and_allport	n/a	-1.0	6.0	n/a	n/a	feedback	s587
220.07	3.04	0	PA_with_intermediate	n/a	test	ward_and_allport	n/a	-1.0	6.0	n/a	n/a	ITI	s587
223.114	7.071	1	PA_with_intermediate	0,0,0,1,2,0,0,0,0	test	ward_and_allport	0,0,0,1,0,0,2,3,0	71.0	7.0	7.071	0,0,0,1,2,3,0,0,0	to_hand	s587
230.186	0.593	0	PA_with_intermediate	3,0,0,1,2,0,0,0,0	test	ward_and_allport	0,0,0,1,0,0,2,3,0	89.0	7.0	0.593	0,0,0,1,2,3,0,0,0	to_board	s587
230.781	0.72	0	PA_with_intermediate	3,0,0,1,0,0,0,0,0	test	ward_and_allport	0,0,0,1,0,0,2,3,0	71.0	7.0	0.72	0,0,0,1,2,3,0,0,0	to_hand	s587
231.503	0.886	0	PA_with_intermediate	3,0,0,1,0,0,2,0,0	test	ward_and_allport	0,0,0,1,0,0,2,3,0	82.0	7.0	0.886	0,0,0,1,2,3,0,0,0	to_board	s587
232.393	0.73	0	PA_with_intermediate	0,0,0,1,0,0,2,0,0	test	ward_and_allport	0,0,0,1,0,0,2,3,0	89.0	7.0	0.73	0,0,0,1,2,3,0,0,0	to_hand	s587
233.124	1.036	0	PA_with_intermediate	0,0,0,1,0,0,2,3,0	test	ward_and_allport	0,0,0,1,0,0,2,3,0	82.0	7.0	1.036	0,0,0,1,2,3,0,0,0	to_board	s587
234.167	1.0	0	PA_with_intermediate	n/a	test	ward_and_allport	n/a	-1.0	7.0	n/a	n/a	feedback	s587
235.167	1.272	0	PA_with_intermediate	n/a	test	ward_and_allport	n/a	-1.0	7.0	n/a	n/a	ITI	s587
236.443	5.706	1	PA_with_intermediate	0,0,0,1,2,0,0,0,0	test	ward_and_allport	0,0,0,1,0,0,2,3,0	71.0	8.0	5.706	0,0,0,1,2,3,0,0,0	to_hand	s587
242.15	1.001	0	PA_with_intermediate	3,0,0,1,2,0,0,0,0	test	ward_and_allport	0,0,0,1,0,0,2,3,0	89.0	8.0	1.001	0,0,0,1,2,3,0,0,0	to_board	s587
243.155	0.833	0	PA_with_intermediate	3,0,0,1,0,0,0,0,0	test	ward_and_allport	0,0,0,1,0,0,2,3,0	71.0	8.0	0.833	0,0,0,1,2,3,0,0,0	to_hand	s587
243.99	0.958	0	PA_with_intermediate	3,0,0,1,0,0,2,0,0	test	ward_and_allport	0,0,0,1,0,0,2,3,0	82.0	8.0	0.958	0,0,0,1,2,3,0,0,0	to_board	s587
244.952	1.245	0	PA_with_intermediate	0,0,0,1,0,0,2,0,0	test	ward_and_allport	0,0,0,1,0,0,2,3,0	89.0	8.0	1.245	0,0,0,1,2,3,0,0,0	to_hand	s587
246.198	1.163	0	PA_with_intermediate	0,0,0,1,0,0,2,3,0	test	ward_and_allport	0,0,0,1,0,0,2,3,0	82.0	8.0	1.163	0,0,0,1,2,3,0,0,0	to_board	s587
247.37	1.0	0	PA_with_intermediate	n/a	test	ward_and_allport	n/a	-1.0	8.0	n/a	n/a	feedback	s587
248.37	1.136	0	PA_with_intermediate	n/a	test	ward_and_allport	n/a	-1.0	8.0	n/a	n/a	ITI	s587
249.509	4.671	1	PA_with_intermediate	0,0,0,1,2,0,0,0,0	test	ward_and_allport	0,0,0,1,3,0,2,0,0	71.0	9.0	4.671	0,0,0,1,2,3,0,0,0	to_hand	s587
254.181	1.67	0	PA_with_intermediate	3,0,0,1,2,0,0,0,0	test	ward_and_allport	0,0,0,1,3,0,2,0,0	89.0	9.0	1.67	0,0,0,1,2,3,0,0,0	to_board	s587
255.856	0.607	0	PA_with_intermediate	3,0,0,1,0,0,0,0,0	test	ward_and_allport	0,0,0,1,3,0,2,0,0	71.0	9.0	0.607	0,0,0,1,2,3,0,0,0	to_hand	s587
256.463	0.726	0	PA_with_intermediate	3,0,0,1,0,0,2,0,0	test	ward_and_allport	0,0,0,1,3,0,2,0,0	82.0	9.0	0.726	0,0,0,1,2,3,0,0,0	to_board	s587
257.194	0.564	0	PA_with_intermediate	0,0,0,1,0,0,2,0,0	test	ward_and_allport	0,0,0,1,3,0,2,0,0	89.0	9.0	0.564	0,0,0,1,2,3,0,0,0	to_hand	s587
257.76	0.783	0	PA_with_intermediate	0,0,0,1,3,0,2,0,0	test	ward_and_allport	0,0,0,1,3,0,2,0,0	71.0	9.0	0.783	0,0,0,1,2,3,0,0,0	to_board	s587
258.548	1.0	0	PA_with_intermediate	n/a	test	ward_and_allport	n/a	-1.0	9.0	n/a	n/a	feedback	s587
259.548	1.0	0	PA_with_intermediate	n/a	test	ward_and_allport	n/a	-1.0	9.0	n/a	n/a	ITI	s587
260.553	9.521	1	PA_with_intermediate	0,0,0,0,0,0,1,2,0	test	ward_and_allport	0,0,0,2,0,0,1,3,0	82.0	10.0	9.521	0,0,0,0,0,0,1,2,3	to_hand	s587
270.075	1.411	0	PA_with_intermediate	3,0,0,0,0,0,1,2,0	test	ward_and_allport	0,0,0,2,0,0,1,3,0	89.0	10.0	1.411	0,0,0,0,0,0,1,2,3	to_board	s587
271.491	1.943	0	PA_with_intermediate	3,0,0,0,0,0,1,0,0	test	ward_and_allport	0,0,0,2,0,0,1,3,0	82.0	10.0	1.943	0,0,0,0,0,0,1,2,3	to_hand	s587
273.436	1.022	0	PA_with_intermediate	3,0,0,2,0,0,1,0,0	test	ward_and_allport	0,0,0,2,0,0,1,3,0	71.0	10.0	1.022	0,0,0,0,0,0,1,2,3	to_board	s587
274.463	3.246	0	PA_with_intermediate	0,0,0,2,0,0,1,0,0	test	ward_and_allport	0,0,0,2,0,0,1,3,0	89.0	10.0	3.246	0,0,0,0,0,0,1,2,3	to_hand	s587
277.711	1.33	0	PA_with_intermediate	0,0,0,2,0,0,1,3,0	test	ward_and_allport	0,0,0,2,0,0,1,3,0	82.0	10.0	1.33	0,0,0,0,0,0,1,2,3	to_board	s587
279.049	1.0	0	PA_with_intermediate	n/a	test	ward_and_allport	n/a	-1.0	10.0	n/a	n/a	feedback	s587
280.049	1.0	0	PA_with_intermediate	n/a	test	ward_and_allport	n/a	-1.0	10.0	n/a	n/a	ITI	s587
281.052	7.823	1	PA_without_intermediate	0,0,0,0,0,0,1,2,0	test	ward_and_allport	3,2,0,1,0,0,0,0,0	82.0	11.0	7.823	0,0,0,0,0,0,1,2,3	to_hand	s587
288.878	1.524	0	PA_without_intermediate	3,0,0,0,0,0,1,2,0	test	ward_and_allport	3,2,0,1,0,0,0,0,0	89.0	11.0	1.524	0,0,0,0,0,0,1,2,3	to_board	s587
290.408	1.616	0	PA_without_intermediate	3,0,0,0,0,0,1,0,0	test	ward_and_allport	3,2,0,1,0,0,0,0,0	82.0	11.0	1.616	0,0,0,0,0,0,1,2,3	to_hand	s587
292.025	1.41	0	PA_without_intermediate	3,2,0,0,0,0,1,0,0	test	ward_and_allport	3,2,0,1,0,0,0,0,0	89.0	11.0	1.41	0,0,0,0,0,0,1,2,3	to_board	s587
293.44	1.869	0	PA_without_intermediate	3,2,0,0,0,0,0,0,0	test	ward_and_allport	3,2,0,1,0,0,0,0,0	82.0	11.0	1.869	0,0,0,0,0,0,1,2,3	to_hand	s587
295.31	0.861	0	PA_without_intermediate	3,2,0,1,0,0,0,0,0	test	ward_and_allport	3,2,0,1,0,0,0,0,0	71.0	11.0	0.861	0,0,0,0,0,0,1,2,3	to_board	s587
296.177	1.0	0	PA_without_intermediate	n/a	test	ward_and_allport	n/a	-1.0	11.0	n/a	n/a	feedback	s587
297.177	1.408	0	PA_without_intermediate	n/a	test	ward_and_allport	n/a	-1.0	11.0	n/a	n/a	ITI	s587
298.59	9.686	1	PA_with_intermediate	0,0,0,0,0,0,1,2,0	test	ward_and_allport	0,0,0,2,0,0,1,3,0	82.0	12.0	9.686	0,0,0,0,0,0,1,2,3	to_hand	s587
308.277	3.89	0	PA_with_intermediate	3,0,0,0,0,0,1,2,0	test	ward_and_allport	0,0,0,2,0,0,1,3,0	89.0	12.0	3.89	0,0,0,0,0,0,1,2,3	to_board	s587
312.172	1.345	0	PA_with_intermediate	3,0,0,0,0,0,1,0,0	test	ward_and_allport	0,0,0,2,0,0,1,3,0	82.0	12.0	1.345	0,0,0,0,0,0,1,2,3	to_hand	s587
313.518	1.01	0	PA_with_intermediate	3,0,0,2,0,0,1,0,0	test	ward_and_allport	0,0,0,2,0,0,1,3,0	71.0	12.0	1.01	0,0,0,0,0,0,1,2,3	to_board	s587
314.534	1.033	0	PA_with_intermediate	0,0,0,2,0,0,1,0,0	test	ward_and_allport	0,0,0,2,0,0,1,3,0	89.0	12.0	1.033	0,0,0,0,0,0,1,2,3	to_hand	s587
315.568	2.857	0	PA_with_intermediate	0,0,0,2,0,0,1,3,0	test	ward_and_allport	0,0,0,2,0,0,1,3,0	82.0	12.0	2.857	0,0,0,0,0,0,1,2,3	to_board	s587
318.434	1.0	0	PA_with_intermediate	n/a	test	ward_and_allport	n/a	-1.0	12.0	n/a	n/a	feedback	s587
319.434	2.768	0	PA_with_intermediate	n/a	test	ward_and_allport	n/a	-1.0	12.0	n/a	n/a	ITI	s587
322.208	6.538	1	PA_with_intermediate	0,0,0,0,0,0,1,2,0	test	ward_and_allport	2,3,0,0,0,0,1,0,0	82.0	13.0	6.538	0,0,0,0,0,0,1,2,3	to_hand	s587
328.747	1.291	0	PA_with_intermediate	0,0,0,3,0,0,1,2,0	test	ward_and_allport	2,3,0,0,0,0,1,0,0	71.0	13.0	1.291	0,0,0,0,0,0,1,2,3	to_board	s587
330.044	0.751	0	PA_with_intermediate	0,0,0,3,0,0,1,0,0	test	ward_and_allport	2,3,0,0,0,0,1,0,0	82.0	13.0	0.751	0,0,0,0,0,0,1,2,3	to_hand	s587
330.797	0.712	0	PA_with_intermediate	2,0,0,3,0,0,1,0,0	test	ward_and_allport	2,3,0,0,0,0,1,0,0	89.0	13.0	0.712	0,0,0,0,0,0,1,2,3	to_board	s587
331.514	0.979	0	PA_with_intermediate	2,0,0,0,0,0,1,0,0	test	ward_and_allport	2,3,0,0,0,0,1,0,0	71.0	13.0	0.979	0,0,0,0,0,0,1,2,3	to_hand	s587
332.495	1.435	0	PA_with_intermediate	2,3,0,0,0,0,1,0,0	test	ward_and_allport	2,3,0,0,0,0,1,0,0	89.0	13.0	1.435	0,0,0,0,0,0,1,2,3	to_board	s587
333.937	1.0	0	PA_with_intermediate	n/a	test	ward_and_allport	n/a	-1.0	13.0	n/a	n/a	feedback	s587
334.937	1.68	0	PA_with_intermediate	n/a	test	ward_and_allport	n/a	-1.0	13.0	n/a	n/a	ITI	s587
336.621	4.391	1	PA_without_intermediate	0,0,0,1,2,0,0,0,0	test	ward_and_allport	3,1,0,0,0,0,2,0,0	71.0	14.0	4.391	0,0,0,1,2,3,0,0,0	to_hand	s587
341.014	3.076	0	PA_without_intermediate	3,0,0,1,2,0,0,0,0	test	ward_and_allport	3,1,0,0,0,0,2,0,0	89.0	14.0	3.076	0,0,0,1,2,3,0,0,0	to_board	s587
344.095	1.373	0	PA_without_intermediate	3,0,0,1,0,0,0,0,0	test	ward_and_allport	3,1,0,0,0,0,2,0,0	71.0	14.0	1.373	0,0,0,1,2,3,0,0,0	to_hand	s587
345.469	1.817	0	PA_without_intermediate	3,0,0,1,0,0,2,0,0	test	ward_and_allport	3,1,0,0,0,0,2,0,0	82.0	14.0	1.817	0,0,0,1,2,3,0,0,0	to_board	s587
347.291	0.623	0	PA_without_intermediate	3,0,0,0,0,0,2,0,0	test	ward_and_allport	3,1,0,0,0,0,2,0,0	71.0	14.0	0.623	0,0,0,1,2,3,0,0,0	to_hand	s587
347.915	0.635	0	PA_without_intermediate	3,1,0,0,0,0,2,0,0	test	ward_and_allport	3,1,0,0,0,0,2,0,0	89.0	14.0	0.635	0,0,0,1,2,3,0,0,0	to_board	s587
348.558	1.0	0	PA_without_intermediate	n/a	test	ward_and_allport	n/a	-1.0	14.0	n/a	n/a	feedback	s587
349.558	2.224	0	PA_without_intermediate	n/a	test	ward_and_allport	n/a	-1.0	14.0	n/a	n/a	ITI	s587
356.79	8.123	1	PA_without_intermediate	1,2,0,0,0,0,0,0,0	test	ward_and_allport	0,0,0,3,2,0,1,0,0	89.0	15.0	8.123	1,2,3,0,0,0,0,0,0	to_hand	s587
364.913	1.255	0	PA_without_intermediate	1,2,0,3,0,0,0,0,0	test	ward_and_allport	0,0,0,3,2,0,1,0,0	71.0	15.0	1.255	1,2,3,0,0,0,0,0,0	to_board	s587
366.172	1.742	0	PA_without_intermediate	1,0,0,3,0,0,0,0,0	test	ward_and_allport	0,0,0,3,2,0,1,0,0	89.0	15.0	1.742	1,2,3,0,0,0,0,0,0	to_hand	s587
367.915	0.991	0	PA_without_intermediate	1,0,0,3,2,0,0,0,0	test	ward_and_allport	0,0,0,3,2,0,1,0,0	71.0	15.0	0.991	1,2,3,0,0,0,0,0,0	to_board	s587
368.913	0.94	0	PA_without_intermediate	0,0,0,3,2,0,0,0,0	test	ward_and_allport	0,0,0,3,2,0,1,0,0	89.0	15.0	0.94	1,2,3,0,0,0,0,0,0	to_hand	s587
369.854	1.018	0	PA_without_intermediate	0,0,0,3,2,0,1,0,0	test	ward_and_allport	0,0,0,3,2,0,1,0,0	82.0	15.0	1.018	1,2,3,0,0,0,0,0,0	to_board	s587
370.88	1.0	0	PA_without_intermediate	n/a	test	ward_and_allport	n/a	-1.0	15.0	n/a	n/a	feedback	s587
371.88	2.36	0	PA_without_intermediate	n/a	test	ward_and_allport	n/a	-1.0	15.0	n/a	n/a	ITI	s587
374.246	3.754	1	PA_without_intermediate	0,0,0,1,2,0,0,0,0	test	ward_and_allport	3,2,0,0,0,0,1,0,0	71.0	16.0	3.754	0,0,0,1,2,3,0,0,0	to_hand	s587
378.001	0.618	0	PA_without_intermediate	3,0,0,1,2,0,0,0,0	test	ward_and_allport	3,2,0,0,0,0,1,0,0	89.0	16.0	0.618	0,0,0,1,2,3,0,0,0	to_board	s587
378.624	2.331	0	PA_without_intermediate	3,0,0,1,0,0,0,0,0	test	ward_and_allport	3,2,0,0,0,0,1,0,0	71.0	16.0	2.331	0,0,0,1,2,3,0,0,0	to_hand	s587
380.956	0.488	0	PA_without_intermediate	3,2,0,1,0,0,0,0,0	test	ward_and_allport	3,2,0,0,0,0,1,0,0	89.0	16.0	0.488	0,0,0,1,2,3,0,0,0	to_board	s587
381.45	1.249	0	PA_without_intermediate	3,2,0,0,0,0,0,0,0	test	ward_and_allport	3,2,0,0,0,0,1,0,0	71.0	16.0	1.249	0,0,0,1,2,3,0,0,0	to_hand	s587
382.7	0.737	0	PA_without_intermediate	3,2,0,0,0,0,1,0,0	test	ward_and_allport	3,2,0,0,0,0,1,0,0	82.0	16.0	0.737	0,0,0,1,2,3,0,0,0	to_board	s587
383.447	1.0	0	PA_without_intermediate	n/a	test	ward_and_allport	n/a	-1.0	16.0	n/a	n/a	feedback	s587
384.447	1.0	0	PA_without_intermediate	n/a	test	ward_and_allport	n/a	-1.0	16.0	n/a	n/a	ITI	s587
385.453	2.898	1	PA_without_intermediate	0,0,0,1,2,0,0,0,0	test	ward_and_allport	1,0,0,0,0,0,3,2,0	71.0	17.0	2.898	0,0,0,1,2,3,0,0,0	to_hand	s587
388.352	1.535	0	PA_without_intermediate	0,0,0,1,2,0,3,0,0	test	ward_and_allport	1,0,0,0,0,0,3,2,0	82.0	17.0	1.535	0,0,0,1,2,3,0,0,0	to_board	s587
389.892	0.777	0	PA_without_intermediate	0,0,0,1,0,0,3,0,0	test	ward_and_allport	1,0,0,0,0,0,3,2,0	71.0	17.0	0.777	0,0,0,1,2,3,0,0,0	to_hand	s587
390.671	1.194	0	PA_without_intermediate	0,0,0,1,0,0,3,2,0	test	ward_and_allport	1,0,0,0,0,0,3,2,0	82.0	17.0	1.194	0,0,0,1,2,3,0,0,0	to_board	s587
391.872	1.007	0	PA_without_intermediate	0,0,0,0,0,0,3,2,0	test	ward_and_allport	1,0,0,0,0,0,3,2,0	71.0	17.0	1.007	0,0,0,1,2,3,0,0,0	to_hand	s587
392.88	0.49	0	PA_without_intermediate	1,0,0,0,0,0,3,2,0	test	ward_and_allport	1,0,0,0,0,0,3,2,0	89.0	17.0	0.49	0,0,0,1,2,3,0,0,0	to_board	s587
393.376	1.0	0	PA_without_intermediate	n/a	test	ward_and_allport	n/a	-1.0	17.0	n/a	n/a	feedback	s587
394.376	1.408	0	PA_without_intermediate	n/a	test	ward_and_allport	n/a	-1.0	17.0	n/a	n/a	ITI	s587
395.79	6.96	1	PA_with_intermediate	1,2,0,0,0,0,0,0,0	test	ward_and_allport	1,3,0,2,0,0,0,0,0	89.0	18.0	6.96	1,2,3,0,0,0,0,0,0	to_hand	s587
402.751	2.532	0	PA_with_intermediate	1,2,0,0,0,0,3,0,0	test	ward_and_allport	1,3,0,2,0,0,0,0,0	82.0	18.0	2.532	1,2,3,0,0,0,0,0,0	to_board	s587
405.289	1.374	0	PA_with_intermediate	1,0,0,0,0,0,3,0,0	test	ward_and_allport	1,3,0,2,0,0,0,0,0	89.0	18.0	1.374	1,2,3,0,0,0,0,0,0	to_hand	s587
406.664	0.88	0	PA_with_intermediate	1,0,0,2,0,0,3,0,0	test	ward_and_allport	1,3,0,2,0,0,0,0,0	71.0	18.0	0.88	1,2,3,0,0,0,0,0,0	to_board	s587
407.55	1.289	0	PA_with_intermediate	1,0,0,2,0,0,0,0,0	test	ward_and_allport	1,3,0,2,0,0,0,0,0	82.0	18.0	1.289	1,2,3,0,0,0,0,0,0	to_hand	s587
408.84	0.771	0	PA_with_intermediate	1,3,0,2,0,0,0,0,0	test	ward_and_allport	1,3,0,2,0,0,0,0,0	89.0	18.0	0.771	1,2,3,0,0,0,0,0,0	to_board	s587
409.621	1.0	0	PA_with_intermediate	n/a	test	ward_and_allport	n/a	-1.0	18.0	n/a	n/a	feedback	s587
410.621	1.136	0	PA_with_intermediate	n/a	test	ward_and_allport	n/a	-1.0	18.0	n/a	n/a	ITI	s587
411.764	6.174	1	PA_without_intermediate	0,0,0,0,0,0,1,2,0	test	ward_and_allport	3,1,0,2,0,0,0,0,0	82.0	19.0	6.174	0,0,0,0,0,0,1,2,3	to_hand	s587
417.94	1.393	0	PA_without_intermediate	3,0,0,0,0,0,1,2,0	test	ward_and_allport	3,1,0,2,0,0,0,0,0	89.0	19.0	1.393	0,0,0,0,0,0,1,2,3	to_board	s587
419.338	3.92	0	PA_without_intermediate	3,0,0,0,0,0,1,0,0	test	ward_and_allport	3,1,0,2,0,0,0,0,0	82.0	19.0	3.92	0,0,0,0,0,0,1,2,3	to_hand	s587
423.259	0.812	0	PA_without_intermediate	3,0,0,2,0,0,1,0,0	test	ward_and_allport	3,1,0,2,0,0,0,0,0	71.0	19.0	0.812	0,0,0,0,0,0,1,2,3	to_board	s587
424.076	0.796	0	PA_without_intermediate	3,0,0,2,0,0,0,0,0	test	ward_and_allport	3,1,0,2,0,0,0,0,0	82.0	19.0	0.796	0,0,0,0,0,0,1,2,3	to_hand	s587
424.873	0.599	0	PA_without_intermediate	3,1,0,2,0,0,0,0,0	test	ward_and_allport	3,1,0,2,0,0,0,0,0	89.0	19.0	0.599	0,0,0,0,0,0,1,2,3	to_board	s587
425.484	1.0	0	PA_without_intermediate	n/a	test	ward_and_allport	n/a	-1.0	19.0	n/a	n/a	feedback	s587
426.484	4.128	0	PA_without_intermediate	n/a	test	ward_and_allport	n/a	-1.0	19.0	n/a	n/a	ITI	s587
430.618	5.01	1	PA_without_intermediate	0,0,0,0,0,0,1,2,0	test	ward_and_allport	3,2,0,1,0,0,0,0,0	82.0	20.0	5.01	0,0,0,0,0,0,1,2,3	to_hand	s587
435.629	1.266	0	PA_without_intermediate	3,0,0,0,0,0,1,2,0	test	ward_and_allport	3,2,0,1,0,0,0,0,0	89.0	20.0	1.266	0,0,0,0,0,0,1,2,3	to_board	s587
436.901	0.983	0	PA_without_intermediate	3,0,0,0,0,0,1,0,0	test	ward_and_allport	3,2,0,1,0,0,0,0,0	82.0	20.0	0.983	0,0,0,0,0,0,1,2,3	to_hand	s587
437.885	0.802	0	PA_without_intermediate	3,2,0,0,0,0,1,0,0	test	ward_and_allport	3,2,0,1,0,0,0,0,0	89.0	20.0	0.802	0,0,0,0,0,0,1,2,3	to_board	s587
438.693	0.783	0	PA_without_intermediate	3,2,0,0,0,0,0,0,0	test	ward_and_allport	3,2,0,1,0,0,0,0,0	82.0	20.0	0.783	0,0,0,0,0,0,1,2,3	to_hand	s587
439.477	0.766	0	PA_without_intermediate	3,2,0,1,0,0,0,0,0	test	ward_and_allport	3,2,0,1,0,0,0,0,0	71.0	20.0	0.766	0,0,0,0,0,0,1,2,3	to_board	s587
440.253	1.0	0	PA_without_intermediate	n/a	test	ward_and_allport	n/a	-1.0	20.0	n/a	n/a	feedback	s587
441.253	1.136	0	PA_without_intermediate	n/a	test	ward_and_allport	n/a	-1.0	20.0	n/a	n/a	ITI	s587
442.396	5.888	1	PA_without_intermediate	1,2,0,0,0,0,0,0,0	test	ward_and_allport	0,0,0,2,0,0,3,1,0	89.0	21.0	5.888	1,2,3,0,0,0,0,0,0	to_hand	s587
448.285	1.677	0	PA_without_intermediate	1,2,0,0,0,0,3,0,0	test	ward_and_allport	0,0,0,2,0,0,3,1,0	82.0	21.0	1.677	1,2,3,0,0,0,0,0,0	to_board	s587
449.967	1.486	0	PA_without_intermediate	1,0,0,0,0,0,3,0,0	test	ward_and_allport	0,0,0,2,0,0,3,1,0	89.0	21.0	1.486	1,2,3,0,0,0,0,0,0	to_hand	s587
451.454	0.776	0	PA_without_intermediate	1,0,0,2,0,0,3,0,0	test	ward_and_allport	0,0,0,2,0,0,3,1,0	71.0	21.0	0.776	1,2,3,0,0,0,0,0,0	to_board	s587
452.236	0.688	0	PA_without_intermediate	0,0,0,2,0,0,3,0,0	test	ward_and_allport	0,0,0,2,0,0,3,1,0	89.0	21.0	0.688	1,2,3,0,0,0,0,0,0	to_hand	s587
452.925	1.053	0	PA_without_intermediate	0,0,0,2,0,0,3,1,0	test	ward_and_allport	0,0,0,2,0,0,3,1,0	82.0	21.0	1.053	1,2,3,0,0,0,0,0,0	to_board	s587
453.989	1.0	0	PA_without_intermediate	n/a	test	ward_and_allport	n/a	-1.0	21.0	n/a	n/a	feedback	s587
454.989	4.264	0	PA_without_intermediate	n/a	test	ward_and_allport	n/a	-1.0	21.0	n/a	n/a	ITI	s587
459.259	6.689	1	PA_with_intermediate	1,2,0,0,0,0,0,0,0	test	ward_and_allport	1,0,0,2,3,0,0,0,0	89.0	22.0	6.689	1,2,3,0,0,0,0,0,0	to_hand	s587
465.949	1.319	0	PA_with_intermediate	1,2,0,0,0,0,3,0,0	test	ward_and_allport	1,0,0,2,3,0,0,0,0	82.0	22.0	1.319	1,2,3,0,0,0,0,0,0	to_board	s587
467.276	1.133	0	PA_with_intermediate	1,0,0,0,0,0,3,0,0	test	ward_and_allport	1,0,0,2,3,0,0,0,0	89.0	22.0	1.133	1,2,3,0,0,0,0,0,0	to_hand	s587
468.411	0.596	0	PA_with_intermediate	1,0,0,2,0,0,3,0,0	test	ward_and_allport	1,0,0,2,3,0,0,0,0	71.0	22.0	0.596	1,2,3,0,0,0,0,0,0	to_board	s587
469.013	0.969	0	PA_with_intermediate	1,0,0,2,0,0,0,0,0	test	ward_and_allport	1,0,0,2,3,0,0,0,0	82.0	22.0	0.969	1,2,3,0,0,0,0,0,0	to_hand	s587
469.984	0.696	0	PA_with_intermediate	1,0,0,2,3,0,0,0,0	test	ward_and_allport	1,0,0,2,3,0,0,0,0	71.0	22.0	0.696	1,2,3,0,0,0,0,0,0	to_board	s587
470.69	1.0	0	PA_with_intermediate	n/a	test	ward_and_allport	n/a	-1.0	22.0	n/a	n/a	feedback	s587
471.69	3.04	0	PA_with_intermediate	n/a	test	ward_and_allport	n/a	-1.0	22.0	n/a	n/a	ITI	s587
474.735	5.611	1	PA_with_intermediate	0,0,0,1,2,0,0,0,0	test	ward_and_allport	2,3,0,1,0,0,0,0,0	71.0	23.0	5.611	0,0,0,1,2,3,0,0,0	to_hand	s587
480.347	1.586	0	PA_with_intermediate	0,0,0,1,2,0,3,0,0	test	ward_and_allport	2,3,0,1,0,0,0,0,0	82.0	23.0	1.586	0,0,0,1,2,3,0,0,0	to_board	s587
481.941	1.139	0	PA_with_intermediate	0,0,0,1,0,0,3,0,0	test	ward_and_allport	2,3,0,1,0,0,0,0,0	71.0	23.0	1.139	0,0,0,1,2,3,0,0,0	to_hand	s587
483.081	0.978	0	PA_with_intermediate	2,0,0,1,0,0,3,0,0	test	ward_and_allport	2,3,0,1,0,0,0,0,0	89.0	23.0	0.978	0,0,0,1,2,3,0,0,0	to_board	s587
484.065	0.824	0	PA_with_intermediate	2,0,0,1,0,0,0,0,0	test	ward_and_allport	2,3,0,1,0,0,0,0,0	82.0	23.0	0.824	0,0,0,1,2,3,0,0,0	to_hand	s587
484.891	1.337	0	PA_with_intermediate	2,3,0,1,0,0,0,0,0	test	ward_and_allport	2,3,0,1,0,0,0,0,0	89.0	23.0	1.337	0,0,0,1,2,3,0,0,0	to_board	s587
486.238	1.0	0	PA_with_intermediate	n/a	test	ward_and_allport	n/a	-1.0	23.0	n/a	n/a	feedback	s587
487.238	1.136	0	PA_with_intermediate	n/a	test	ward_and_allport	n/a	-1.0	23.0	n/a	n/a	ITI	s587
488.382	8.341	1	PA_with_intermediate	1,2,0,0,0,0,0,0,0	test	ward_and_allport	1,3,0,0,0,0,2,0,0	89.0	24.0	8.341	1,2,3,0,0,0,0,0,0	to_hand	s587
496.724	1.37	0	PA_with_intermediate	1,2,0,3,0,0,0,0,0	test	ward_and_allport	1,3,0,0,0,0,2,0,0	71.0	24.0	1.37	1,2,3,0,0,0,0,0,0	to_board	s587
498.102	0.777	0	PA_with_intermediate	1,0,0,3,0,0,0,0,0	test	ward_and_allport	1,3,0,0,0,0,2,0,0	89.0	24.0	0.777	1,2,3,0,0,0,0,0,0	to_hand	s587
498.881	0.84	0	PA_with_intermediate	1,0,0,3,0,0,2,0,0	test	ward_and_allport	1,3,0,0,0,0,2,0,0	82.0	24.0	0.84	1,2,3,0,0,0,0,0,0	to_board	s587
499.729	0.92	0	PA_with_intermediate	1,0,0,0,0,0,2,0,0	test	ward_and_allport	1,3,0,0,0,0,2,0,0	71.0	24.0	0.92	1,2,3,0,0,0,0,0,0	to_hand	s587
500.651	0.573	0	PA_with_intermediate	1,3,0,0,0,0,2,0,0	test	ward_and_allport	1,3,0,0,0,0,2,0,0	89.0	24.0	0.573	1,2,3,0,0,0,0,0,0	to_board	s587
501.235	1.0	0	PA_with_intermediate	n/a	test	ward_and_allport	n/a	-1.0	24.0	n/a	n/a	feedback	s587
502.235	1.408	0	PA_with_intermediate	n/a	test	ward_and_allport	n/a	-1.0	24.0	n/a	n/a	ITI	s587
503.65	5.483	1	PA_without_intermediate	0,0,0,1,2,0,0,0,0	test	ward_and_allport	1,0,0,0,0,0,3,2,0	71.0	25.0	5.483	0,0,0,1,2,3,0,0,0	to_hand	s587
509.134	1.093	0	PA_without_intermediate	0,0,0,1,2,0,3,0,0	test	ward_and_allport	1,0,0,0,0,0,3,2,0	82.0	25.0	1.093	0,0,0,1,2,3,0,0,0	to_board	s587
510.236	0.694	0	PA_without_intermediate	0,0,0,1,0,0,3,0,0	test	ward_and_allport	1,0,0,0,0,0,3,2,0	71.0	25.0	0.694	0,0,0,1,2,3,0,0,0	to_hand	s587
510.931	0.885	0	PA_without_intermediate	0,0,0,1,0,0,3,2,0	test	ward_and_allport	1,0,0,0,0,0,3,2,0	82.0	25.0	0.885	0,0,0,1,2,3,0,0,0	to_board	s587
511.822	0.618	0	PA_without_intermediate	0,0,0,0,0,0,3,2,0	test	ward_and_allport	1,0,0,0,0,0,3,2,0	71.0	25.0	0.618	0,0,0,1,2,3,0,0,0	to_hand	s587
512.442	0.451	0	PA_without_intermediate	1,0,0,0,0,0,3,2,0	test	ward_and_allport	1,0,0,0,0,0,3,2,0	89.0	25.0	0.451	0,0,0,1,2,3,0,0,0	to_board	s587
512.905	1.0	0	PA_without_intermediate	n/a	test	ward_and_allport	n/a	-1.0	25.0	n/a	n/a	feedback	s587
513.905	1.68	0	PA_without_intermediate	n/a	test	ward_and_allport	n/a	-1.0	25.0	n/a	n/a	ITI	s587
515.593	7.194	1	PA_with_intermediate	0,0,0,1,2,0,0,0,0	test	ward_and_allport	0,0,0,1,3,0,2,0,0	71.0	26.0	7.194	0,0,0,1,2,3,0,0,0	to_hand	s587
522.788	3.942	0	PA_with_intermediate	3,0,0,1,2,0,0,0,0	test	ward_and_allport	0,0,0,1,3,0,2,0,0	89.0	26.0	3.942	0,0,0,1,2,3,0,0,0	to_board	s587
526.738	0.46	0	PA_with_intermediate	3,0,0,1,0,0,0,0,0	test	ward_and_allport	0,0,0,1,3,0,2,0,0	71.0	26.0	0.46	0,0,0,1,2,3,0,0,0	to_hand	s587
527.2	1.047	0	PA_with_intermediate	3,0,0,1,0,0,2,0,0	test	ward_and_allport	0,0,0,1,3,0,2,0,0	82.0	26.0	1.047	0,0,0,1,2,3,0,0,0	to_board	s587
528.255	1.495	0	PA_with_intermediate	0,0,0,1,0,0,2,0,0	test	ward_and_allport	0,0,0,1,3,0,2,0,0	89.0	26.0	1.495	0,0,0,1,2,3,0,0,0	to_hand	s587
529.752	1.075	0	PA_with_intermediate	0,0,0,1,3,0,2,0,0	test	ward_and_allport	0,0,0,1,3,0,2,0,0	71.0	26.0	1.075	0,0,0,1,2,3,0,0,0	to_board	s587
530.839	1.0	0	PA_with_intermediate	n/a	test	ward_and_allport	n/a	-1.0	26.0	n/a	n/a	feedback	s587
531.839	3.72	0	PA_with_intermediate	n/a	test	ward_and_allport	n/a	-1.0	26.0	n/a	n/a	ITI	s587
535.567	6.491	1	PA_without_intermediate	1,2,0,0,0,0,0,0,0	test	ward_and_allport	0,0,0,3,2,0,1,0,0	89.0	27.0	6.491	1,2,3,0,0,0,0,0,0	to_hand	s587
542.059	0.616	0	PA_without_intermediate	1,2,0,3,0,0,0,0,0	test	ward_and_allport	0,0,0,3,2,0,1,0,0	71.0	27.0	0.616	1,2,3,0,0,0,0,0,0	to_board	s587
542.683	0.878	0	PA_without_intermediate	1,0,0,3,0,0,0,0,0	test	ward_and_allport	0,0,0,3,2,0,1,0,0	89.0	27.0	0.878	1,2,3,0,0,0,0,0,0	to_hand	s587
543.562	0.469	0	PA_without_intermediate	1,0,0,3,2,0,0,0,0	test	ward_and_allport	0,0,0,3,2,0,1,0,0	71.0	27.0	0.469	1,2,3,0,0,0,0,0,0	to_board	s587
544.039	0.612	0	PA_without_intermediate	0,0,0,3,2,0,0,0,0	test	ward_and_allport	0,0,0,3,2,0,1,0,0	89.0	27.0	0.612	1,2,3,0,0,0,0,0,0	to_hand	s587
544.652	0.56	0	PA_without_intermediate	0,0,0,3,2,0,1,0,0	test	ward_and_allport	0,0,0,3,2,0,1,0,0	82.0	27.0	0.56	1,2,3,0,0,0,0,0,0	to_board	s587
545.221	1.0	0	PA_without_intermediate	n/a	test	ward_and_allport	n/a	-1.0	27.0	n/a	n/a	feedback	s587
546.221	2.224	0	PA_without_intermediate	n/a	test	ward_and_allport	n/a	-1.0	27.0	n/a	n/a	ITI	s587
548.453	3.575	1	PA_without_intermediate	0,0,0,0,0,0,1,2,0	test	ward_and_allport	1,0,0,3,2,0,0,0,0	82.0	28.0	3.575	0,0,0,0,0,0,1,2,3	to_hand	s587
552.03	0.971	0	PA_without_intermediate	0,0,0,3,0,0,1,2,0	test	ward_and_allport	1,0,0,3,2,0,0,0,0	71.0	28.0	0.971	0,0,0,0,0,0,1,2,3	to_board	s587
553.01	1.354	0	PA_without_intermediate	0,0,0,3,0,0,1,0,0	test	ward_and_allport	1,0,0,3,2,0,0,0,0	82.0	28.0	1.354	0,0,0,0,0,0,1,2,3	to_hand	s587
554.366	0.681	0	PA_without_intermediate	0,0,0,3,2,0,1,0,0	test	ward_and_allport	1,0,0,3,2,0,0,0,0	71.0	28.0	0.681	0,0,0,0,0,0,1,2,3	to_board	s587
555.055	0.822	0	PA_without_intermediate	0,0,0,3,2,0,0,0,0	test	ward_and_allport	1,0,0,3,2,0,0,0,0	82.0	28.0	0.822	0,0,0,0,0,0,1,2,3	to_hand	s587
555.879	0.6	0	PA_without_intermediate	1,0,0,3,2,0,0,0,0	test	ward_and_allport	1,0,0,3,2,0,0,0,0	89.0	28.0	0.6	0,0,0,0,0,0,1,2,3	to_board	s587
556.488	1.0	0	PA_without_intermediate	n/a	test	ward_and_allport	n/a	-1.0	28.0	n/a	n/a	feedback	s587
557.488	1.272	0	PA_without_intermediate	n/a	test	ward_and_allport	n/a	-1.0	28.0	n/a	n/a	ITI	s587
558.768	16.438	1	PA_with_intermediate	0,0,0,1,2,0,0,0,0	test	ward_and_allport	2,0,0,1,3,0,0,0,0	71.0	29.0	16.438	0,0,0,1,2,3,0,0,0	to_hand	s587
575.208	7.157	0	PA_with_intermediate	0,0,0,1,2,0,3,0,0	test	ward_and_allport	2,0,0,1,3,0,0,0,0	82.0	29.0	7.157	0,0,0,1,2,3,0,0,0	to_board	s587
582.374	0.784	0	PA_with_intermediate	0,0,0,1,0,0,3,0,0	test	ward_and_allport	2,0,0,1,3,0,0,0,0	71.0	29.0	0.784	0,0,0,1,2,3,0,0,0	to_hand	s587
583.16	0.583	0	PA_with_intermediate	2,0,0,1,0,0,3,0,0	test	ward_and_allport	2,0,0,1,3,0,0,0,0	89.0	29.0	0.583	0,0,0,1,2,3,0,0,0	to_board	s587
583.752	0.694	0	PA_with_intermediate	2,0,0,1,0,0,0,0,0	test	ward_and_allport	2,0,0,1,3,0,0,0,0	82.0	29.0	0.694	0,0,0,1,2,3,0,0,0	to_hand	s587
584.448	0.674	0	PA_with_intermediate	2,0,0,1,3,0,0,0,0	test	ward_and_allport	2,0,0,1,3,0,0,0,0	71.0	29.0	0.674	0,0,0,1,2,3,0,0,0	to_board	s587
585.134	1.0	0	PA_with_intermediate	n/a	test	ward_and_allport	n/a	-1.0	29.0	n/a	n/a	feedback	s587
586.134	2.632	0	PA_with_intermediate	n/a	test	ward_and_allport	n/a	-1.0	29.0	n/a	n/a	ITI	s587
n/a	n/a	0	n/a	n/a	n/a	n/a	n/a	n/a	n/a	n/a	n/a	ITI	n/a
