onset	duration	planning	condition	current_position	exp_stage	experiment_exp_id	goal_state	key_press	problem_id	response_time	start_state	trial_id	worker_id
-144.831	0.0	0	n/a	n/a	n/a	ward_and_allport	n/a	32.0	n/a	109.499	n/a	instructions	s640
3.015	6.283	1	UA_with_intermediate	1,0,0,2,0,0,0,0,0	practice	ward_and_allport	1,2,3,0,0,0,0,0,0	71.0	0.0	6.283	1,0,0,2,3,0,0,0,0	to_hand	s640
9.3	1.149	0	UA_with_intermediate	1,0,0,2,0,0,3,0,0	practice	ward_and_allport	1,2,3,0,0,0,0,0,0	82.0	0.0	1.149	1,0,0,2,3,0,0,0,0	to_board	s640
10.451	0.922	0	UA_with_intermediate	1,0,0,0,0,0,3,0,0	practice	ward_and_allport	1,2,3,0,0,0,0,0,0	71.0	0.0	0.922	1,0,0,2,3,0,0,0,0	to_hand	s640
11.375	0.506	0	UA_with_intermediate	1,2,0,0,0,0,3,0,0	practice	ward_and_allport	1,2,3,0,0,0,0,0,0	89.0	0.0	0.506	1,0,0,2,3,0,0,0,0	to_board	s640
11.884	0.903	0	UA_with_intermediate	1,2,0,0,0,0,0,0,0	practice	ward_and_allport	1,2,3,0,0,0,0,0,0	82.0	0.0	0.903	1,0,0,2,3,0,0,0,0	to_hand	s640
12.789	0.321	0	UA_with_intermediate	1,2,3,0,0,0,0,0,0	practice	ward_and_allport	1,2,3,0,0,0,0,0,0	89.0	0.0	0.321	1,0,0,2,3,0,0,0,0	to_board	s640
13.12	1.0	0	UA_with_intermediate	n/a	practice	ward_and_allport	n/a	-1.0	0.0	n/a	n/a	feedback	s640
15.622	4.145	1	UA_with_intermediate	1,0,0,3,0,0,0,0,0	practice	ward_and_allport	1,3,2,0,0,0,0,0,0	89.0	1.0	4.145	1,2,0,3,0,0,0,0,0	to_hand	s640
19.769	1.187	0	UA_with_intermediate	1,0,0,3,0,0,2,0,0	practice	ward_and_allport	1,3,2,0,0,0,0,0,0	82.0	1.0	1.187	1,2,0,3,0,0,0,0,0	to_board	s640
20.957	0.766	0	UA_with_intermediate	1,0,0,0,0,0,2,0,0	practice	ward_and_allport	1,3,2,0,0,0,0,0,0	71.0	1.0	0.766	1,2,0,3,0,0,0,0,0	to_hand	s640
21.726	0.827	0	UA_with_intermediate	1,3,0,0,0,0,2,0,0	practice	ward_and_allport	1,3,2,0,0,0,0,0,0	89.0	1.0	0.827	1,2,0,3,0,0,0,0,0	to_board	s640
22.554	0.386	0	UA_with_intermediate	1,3,0,0,0,0,0,0,0	practice	ward_and_allport	1,3,2,0,0,0,0,0,0	82.0	1.0	0.386	1,2,0,3,0,0,0,0,0	to_hand	s640
22.941	0.301	0	UA_with_intermediate	1,3,2,0,0,0,0,0,0	practice	ward_and_allport	1,3,2,0,0,0,0,0,0	89.0	1.0	0.301	1,2,0,3,0,0,0,0,0	to_board	s640
23.249	1.0	0	UA_with_intermediate	n/a	practice	ward_and_allport	n/a	-1.0	1.0	n/a	n/a	feedback	s640
24.249	1.1	0	UA_with_intermediate	n/a	practice	ward_and_allport	n/a	-1.0	1.0	n/a	n/a	ITI	s640
25.351	2.995	1	UA_without_intermediate	0,0,0,1,0,0,3,0,0	practice	ward_and_allport	3,2,1,0,0,0,0,0,0	71.0	2.0	2.995	0,0,0,1,2,0,3,0,0	to_hand	s640
28.347	0.705	0	UA_without_intermediate	0,0,0,1,0,0,3,2,0	practice	ward_and_allport	3,2,1,0,0,0,0,0,0	82.0	2.0	0.705	0,0,0,1,2,0,3,0,0	to_board	s640
29.053	0.479	0	UA_without_intermediate	0,0,0,0,0,0,3,2,0	practice	ward_and_allport	3,2,1,0,0,0,0,0,0	71.0	2.0	0.479	0,0,0,1,2,0,3,0,0	to_hand	s640
29.534	0.321	0	UA_without_intermediate	0,0,0,0,0,0,3,2,1	practice	ward_and_allport	3,2,1,0,0,0,0,0,0	82.0	2.0	0.321	0,0,0,1,2,0,3,0,0	to_board	s640
29.857	3.067	0	UA_without_intermediate	0,0,0,0,0,0,3,2,0	practice	ward_and_allport	3,2,1,0,0,0,0,0,0	82.0	2.0	3.067	0,0,0,1,2,0,3,0,0	to_hand	s640
32.925	1.587	0	UA_without_intermediate	0,0,0,1,0,0,3,2,0	practice	ward_and_allport	3,2,1,0,0,0,0,0,0	71.0	2.0	1.587	0,0,0,1,2,0,3,0,0	to_board	s640
34.515	0.705	0	UA_without_intermediate	0,0,0,1,0,0,3,0,0	practice	ward_and_allport	3,2,1,0,0,0,0,0,0	82.0	2.0	0.705	0,0,0,1,2,0,3,0,0	to_hand	s640
35.222	0.398	0	UA_without_intermediate	0,0,0,1,2,0,3,0,0	practice	ward_and_allport	3,2,1,0,0,0,0,0,0	71.0	2.0	0.398	0,0,0,1,2,0,3,0,0	to_board	s640
35.624	0.835	0	UA_without_intermediate	0,0,0,1,2,0,0,0,0	practice	ward_and_allport	3,2,1,0,0,0,0,0,0	82.0	2.0	0.835	0,0,0,1,2,0,3,0,0	to_hand	s640
36.46	0.961	0	UA_without_intermediate	3,0,0,1,2,0,0,0,0	practice	ward_and_allport	3,2,1,0,0,0,0,0,0	89.0	2.0	0.961	0,0,0,1,2,0,3,0,0	to_board	s640
37.424	0.956	0	UA_without_intermediate	3,0,0,1,0,0,0,0,0	practice	ward_and_allport	3,2,1,0,0,0,0,0,0	71.0	2.0	0.956	0,0,0,1,2,0,3,0,0	to_hand	s640
38.381	0.627	0	UA_without_intermediate	3,2,0,1,0,0,0,0,0	practice	ward_and_allport	3,2,1,0,0,0,0,0,0	89.0	2.0	0.627	0,0,0,1,2,0,3,0,0	to_board	s640
39.011	1.477	0	UA_without_intermediate	3,2,0,0,0,0,0,0,0	practice	ward_and_allport	3,2,1,0,0,0,0,0,0	71.0	2.0	1.477	0,0,0,1,2,0,3,0,0	to_hand	s640
40.488	0.553	0	UA_without_intermediate	3,2,1,0,0,0,0,0,0	practice	ward_and_allport	3,2,1,0,0,0,0,0,0	89.0	2.0	0.553	0,0,0,1,2,0,3,0,0	to_board	s640
41.048	1.0	0	UA_without_intermediate	n/a	practice	ward_and_allport	n/a	-1.0	2.0	n/a	n/a	feedback	s640
42.048	1.2	0	UA_without_intermediate	n/a	practice	ward_and_allport	n/a	-1.0	2.0	n/a	n/a	ITI	s640
43.251	2.357	1	UA_without_intermediate	0,0,0,1,0,0,3,0,0	practice	ward_and_allport	2,3,1,0,0,0,0,0,0	71.0	3.0	2.357	0,0,0,1,2,0,3,0,0	to_hand	s640
45.609	0.726	0	UA_without_intermediate	2,0,0,1,0,0,3,0,0	practice	ward_and_allport	2,3,1,0,0,0,0,0,0	89.0	3.0	0.726	0,0,0,1,2,0,3,0,0	to_board	s640
46.338	1.012	0	UA_without_intermediate	2,0,0,1,0,0,0,0,0	practice	ward_and_allport	2,3,1,0,0,0,0,0,0	82.0	3.0	1.012	0,0,0,1,2,0,3,0,0	to_hand	s640
47.351	0.659	0	UA_without_intermediate	2,3,0,1,0,0,0,0,0	practice	ward_and_allport	2,3,1,0,0,0,0,0,0	89.0	3.0	0.659	0,0,0,1,2,0,3,0,0	to_board	s640
48.013	0.531	0	UA_without_intermediate	2,3,0,0,0,0,0,0,0	practice	ward_and_allport	2,3,1,0,0,0,0,0,0	71.0	3.0	0.531	0,0,0,1,2,0,3,0,0	to_hand	s640
48.545	0.299	0	UA_without_intermediate	2,3,1,0,0,0,0,0,0	practice	ward_and_allport	2,3,1,0,0,0,0,0,0	89.0	3.0	0.299	0,0,0,1,2,0,3,0,0	to_board	s640
48.852	1.0	0	UA_without_intermediate	n/a	practice	ward_and_allport	n/a	-1.0	3.0	n/a	n/a	feedback	s640
49.852	1.0	0	UA_without_intermediate	n/a	practice	ward_and_allport	n/a	-1.0	3.0	n/a	n/a	ITI	s640
52.862	7.004	1	PA_with_intermediate	0,0,0,0,0,0,1,2,0	test	ward_and_allport	0,0,0,2,3,0,1,0,0	82.0	0.0	7.004	0,0,0,0,0,0,1,2,3	to_hand	s640
59.867	1.296	0	PA_with_intermediate	3,0,0,0,0,0,1,2,0	test	ward_and_allport	0,0,0,2,3,0,1,0,0	89.0	0.0	1.296	0,0,0,0,0,0,1,2,3	to_board	s640
61.166	2.135	0	PA_with_intermediate	3,0,0,0,0,0,1,0,0	test	ward_and_allport	0,0,0,2,3,0,1,0,0	82.0	0.0	2.135	0,0,0,0,0,0,1,2,3	to_hand	s640
63.303	0.608	0	PA_with_intermediate	3,0,0,2,0,0,1,0,0	test	ward_and_allport	0,0,0,2,3,0,1,0,0	71.0	0.0	0.608	0,0,0,0,0,0,1,2,3	to_board	s640
63.914	0.626	0	PA_with_intermediate	0,0,0,2,0,0,1,0,0	test	ward_and_allport	0,0,0,2,3,0,1,0,0	89.0	0.0	0.626	0,0,0,0,0,0,1,2,3	to_hand	s640
64.541	0.637	0	PA_with_intermediate	0,0,0,2,3,0,1,0,0	test	ward_and_allport	0,0,0,2,3,0,1,0,0	71.0	0.0	0.637	0,0,0,0,0,0,1,2,3	to_board	s640
65.185	1.0	0	PA_with_intermediate	n/a	test	ward_and_allport	n/a	-1.0	0.0	n/a	n/a	feedback	s640
66.185	2.768	0	PA_with_intermediate	n/a	test	ward_and_allport	n/a	-1.0	0.0	n/a	n/a	ITI	s640
68.956	4.218	1	PA_with_intermediate	1,2,0,0,0,0,0,0,0	test	ward_and_allport	1,0,0,2,3,0,0,0,0	89.0	1.0	4.218	1,2,3,0,0,0,0,0,0	to_hand	s640
73.176	0.436	0	PA_with_intermediate	1,2,0,0,0,0,3,0,0	test	ward_and_allport	1,0,0,2,3,0,0,0,0	82.0	1.0	0.436	1,2,3,0,0,0,0,0,0	to_board	s640
73.615	0.969	0	PA_with_intermediate	1,0,0,0,0,0,3,0,0	test	ward_and_allport	1,0,0,2,3,0,0,0,0	89.0	1.0	0.969	1,2,3,0,0,0,0,0,0	to_hand	s640
74.586	0.599	0	PA_with_intermediate	1,0,0,2,0,0,3,0,0	test	ward_and_allport	1,0,0,2,3,0,0,0,0	71.0	1.0	0.599	1,2,3,0,0,0,0,0,0	to_board	s640
75.188	1.155	0	PA_with_intermediate	1,0,0,2,0,0,0,0,0	test	ward_and_allport	1,0,0,2,3,0,0,0,0	82.0	1.0	1.155	1,2,3,0,0,0,0,0,0	to_hand	s640
76.345	0.289	0	PA_with_intermediate	1,0,0,2,3,0,0,0,0	test	ward_and_allport	1,0,0,2,3,0,0,0,0	71.0	1.0	0.289	1,2,3,0,0,0,0,0,0	to_board	s640
76.642	1.0	0	PA_with_intermediate	n/a	test	ward_and_allport	n/a	-1.0	1.0	n/a	n/a	feedback	s640
77.642	1.68	0	PA_with_intermediate	n/a	test	ward_and_allport	n/a	-1.0	1.0	n/a	n/a	ITI	s640
79.325	5.355	1	PA_without_intermediate	1,2,0,0,0,0,0,0,0	test	ward_and_allport	0,0,0,3,2,0,1,0,0	89.0	2.0	5.355	1,2,3,0,0,0,0,0,0	to_hand	s640
84.682	0.891	0	PA_without_intermediate	1,2,0,3,0,0,0,0,0	test	ward_and_allport	0,0,0,3,2,0,1,0,0	71.0	2.0	0.891	1,2,3,0,0,0,0,0,0	to_board	s640
85.576	1.519	0	PA_without_intermediate	1,0,0,3,0,0,0,0,0	test	ward_and_allport	0,0,0,3,2,0,1,0,0	89.0	2.0	1.519	1,2,3,0,0,0,0,0,0	to_hand	s640
87.095	0.356	0	PA_without_intermediate	1,0,0,3,2,0,0,0,0	test	ward_and_allport	0,0,0,3,2,0,1,0,0	71.0	2.0	0.356	1,2,3,0,0,0,0,0,0	to_board	s640
87.455	0.631	0	PA_without_intermediate	0,0,0,3,2,0,0,0,0	test	ward_and_allport	0,0,0,3,2,0,1,0,0	89.0	2.0	0.631	1,2,3,0,0,0,0,0,0	to_hand	s640
88.087	0.25	0	PA_without_intermediate	0,0,0,3,2,0,1,0,0	test	ward_and_allport	0,0,0,3,2,0,1,0,0	82.0	2.0	0.25	1,2,3,0,0,0,0,0,0	to_board	s640
88.345	1.0	0	PA_without_intermediate	n/a	test	ward_and_allport	n/a	-1.0	2.0	n/a	n/a	feedback	s640
89.345	2.224	0	PA_without_intermediate	n/a	test	ward_and_allport	n/a	-1.0	2.0	n/a	n/a	ITI	s640
91.573	3.647	1	PA_without_intermediate	0,0,0,0,0,0,1,2,0	test	ward_and_allport	3,2,0,1,0,0,0,0,0	82.0	3.0	3.647	0,0,0,0,0,0,1,2,3	to_hand	s640
95.222	0.504	0	PA_without_intermediate	3,0,0,0,0,0,1,2,0	test	ward_and_allport	3,2,0,1,0,0,0,0,0	89.0	3.0	0.504	0,0,0,0,0,0,1,2,3	to_board	s640
95.729	0.415	0	PA_without_intermediate	3,0,0,0,0,0,1,0,0	test	ward_and_allport	3,2,0,1,0,0,0,0,0	82.0	3.0	0.415	0,0,0,0,0,0,1,2,3	to_hand	s640
96.146	0.32	0	PA_without_intermediate	3,2,0,0,0,0,1,0,0	test	ward_and_allport	3,2,0,1,0,0,0,0,0	89.0	3.0	0.32	0,0,0,0,0,0,1,2,3	to_board	s640
96.469	0.861	0	PA_without_intermediate	3,2,0,0,0,0,0,0,0	test	ward_and_allport	3,2,0,1,0,0,0,0,0	82.0	3.0	0.861	0,0,0,0,0,0,1,2,3	to_hand	s640
97.332	0.368	0	PA_without_intermediate	3,2,0,1,0,0,0,0,0	test	ward_and_allport	3,2,0,1,0,0,0,0,0	71.0	3.0	0.368	0,0,0,0,0,0,1,2,3	to_board	s640
97.705	1.0	0	PA_without_intermediate	n/a	test	ward_and_allport	n/a	-1.0	3.0	n/a	n/a	feedback	s640
98.705	2.36	0	PA_without_intermediate	n/a	test	ward_and_allport	n/a	-1.0	3.0	n/a	n/a	ITI	s640
101.069	4.064	1	PA_without_intermediate	1,2,0,0,0,0,0,0,0	test	ward_and_allport	0,0,0,2,0,0,3,1,0	89.0	4.0	4.064	1,2,3,0,0,0,0,0,0	to_hand	s640
105.134	0.757	0	PA_without_intermediate	1,2,0,0,0,0,3,0,0	test	ward_and_allport	0,0,0,2,0,0,3,1,0	82.0	4.0	0.757	1,2,3,0,0,0,0,0,0	to_board	s640
105.895	1.3	0	PA_without_intermediate	1,0,0,0,0,0,3,0,0	test	ward_and_allport	0,0,0,2,0,0,3,1,0	89.0	4.0	1.3	1,2,3,0,0,0,0,0,0	to_hand	s640
107.196	0.325	0	PA_without_intermediate	1,0,0,2,0,0,3,0,0	test	ward_and_allport	0,0,0,2,0,0,3,1,0	71.0	4.0	0.325	1,2,3,0,0,0,0,0,0	to_board	s640
107.524	0.501	0	PA_without_intermediate	0,0,0,2,0,0,3,0,0	test	ward_and_allport	0,0,0,2,0,0,3,1,0	89.0	4.0	0.501	1,2,3,0,0,0,0,0,0	to_hand	s640
108.026	0.314	0	PA_without_intermediate	0,0,0,2,0,0,3,1,0	test	ward_and_allport	0,0,0,2,0,0,3,1,0	82.0	4.0	0.314	1,2,3,0,0,0,0,0,0	to_board	s640
108.346	1.0	0	PA_without_intermediate	n/a	test	ward_and_allport	n/a	-1.0	4.0	n/a	n/a	feedback	s640
109.346	1.0	0	PA_without_intermediate	n/a	test	ward_and_allport	n/a	-1.0	4.0	n/a	n/a	ITI	s640
110.351	4.972	1	PA_without_intermediate	0,0,0,1,2,0,0,0,0	test	ward_and_allport	3,2,0,0,0,0,1,0,0	71.0	5.0	4.972	0,0,0,1,2,3,0,0,0	to_hand	s640
115.324	0.396	0	PA_without_intermediate	3,0,0,1,2,0,0,0,0	test	ward_and_allport	3,2,0,0,0,0,1,0,0	89.0	5.0	0.396	0,0,0,1,2,3,0,0,0	to_board	s640
115.724	1.316	0	PA_without_intermediate	3,0,0,1,0,0,0,0,0	test	ward_and_allport	3,2,0,0,0,0,1,0,0	71.0	5.0	1.316	0,0,0,1,2,3,0,0,0	to_hand	s640
117.042	0.495	0	PA_without_intermediate	3,2,0,1,0,0,0,0,0	test	ward_and_allport	3,2,0,0,0,0,1,0,0	89.0	5.0	0.495	0,0,0,1,2,3,0,0,0	to_board	s640
117.541	0.683	0	PA_without_intermediate	3,2,0,0,0,0,0,0,0	test	ward_and_allport	3,2,0,0,0,0,1,0,0	71.0	5.0	0.683	0,0,0,1,2,3,0,0,0	to_hand	s640
118.226	0.189	0	PA_without_intermediate	3,2,0,0,0,0,1,0,0	test	ward_and_allport	3,2,0,0,0,0,1,0,0	82.0	5.0	0.189	0,0,0,1,2,3,0,0,0	to_board	s640
118.421	1.0	0	PA_without_intermediate	n/a	test	ward_and_allport	n/a	-1.0	5.0	n/a	n/a	feedback	s640
119.421	1.408	0	PA_without_intermediate	n/a	test	ward_and_allport	n/a	-1.0	5.0	n/a	n/a	ITI	s640
120.834	5.139	1	PA_with_intermediate	0,0,0,0,0,0,1,2,0	test	ward_and_allport	0,0,0,2,0,0,1,3,0	82.0	6.0	5.139	0,0,0,0,0,0,1,2,3	to_hand	s640
125.975	0.96	0	PA_with_intermediate	3,0,0,0,0,0,1,2,0	test	ward_and_allport	0,0,0,2,0,0,1,3,0	89.0	6.0	0.96	0,0,0,0,0,0,1,2,3	to_board	s640
126.938	1.055	0	PA_with_intermediate	3,0,0,0,0,0,1,0,0	test	ward_and_allport	0,0,0,2,0,0,1,3,0	82.0	6.0	1.055	0,0,0,0,0,0,1,2,3	to_hand	s640
127.994	0.389	0	PA_with_intermediate	3,0,0,2,0,0,1,0,0	test	ward_and_allport	0,0,0,2,0,0,1,3,0	71.0	6.0	0.389	0,0,0,0,0,0,1,2,3	to_board	s640
128.388	0.375	0	PA_with_intermediate	0,0,0,2,0,0,1,0,0	test	ward_and_allport	0,0,0,2,0,0,1,3,0	89.0	6.0	0.375	0,0,0,0,0,0,1,2,3	to_hand	s640
128.763	0.242	0	PA_with_intermediate	0,0,0,2,0,0,1,3,0	test	ward_and_allport	0,0,0,2,0,0,1,3,0	82.0	6.0	0.242	0,0,0,0,0,0,1,2,3	to_board	s640
129.013	1.0	0	PA_with_intermediate	n/a	test	ward_and_allport	n/a	-1.0	6.0	n/a	n/a	feedback	s640
130.013	1.136	0	PA_with_intermediate	n/a	test	ward_and_allport	n/a	-1.0	6.0	n/a	n/a	ITI	s640
131.153	4.677	1	PA_without_intermediate	0,0,0,0,0,0,1,2,0	test	ward_and_allport	3,1,0,2,0,0,0,0,0	82.0	7.0	4.677	0,0,0,0,0,0,1,2,3	to_hand	s640
135.831	0.292	0	PA_without_intermediate	3,0,0,0,0,0,1,2,0	test	ward_and_allport	3,1,0,2,0,0,0,0,0	89.0	7.0	0.292	0,0,0,0,0,0,1,2,3	to_board	s640
136.128	2.035	0	PA_without_intermediate	3,0,0,0,0,0,1,0,0	test	ward_and_allport	3,1,0,2,0,0,0,0,0	82.0	7.0	2.035	0,0,0,0,0,0,1,2,3	to_hand	s640
138.164	0.824	0	PA_without_intermediate	3,0,0,2,0,0,1,0,0	test	ward_and_allport	3,1,0,2,0,0,0,0,0	71.0	7.0	0.824	0,0,0,0,0,0,1,2,3	to_board	s640
138.992	1.065	0	PA_without_intermediate	3,0,0,2,0,0,0,0,0	test	ward_and_allport	3,1,0,2,0,0,0,0,0	82.0	7.0	1.065	0,0,0,0,0,0,1,2,3	to_hand	s640
140.059	0.379	0	PA_without_intermediate	3,1,0,2,0,0,0,0,0	test	ward_and_allport	3,1,0,2,0,0,0,0,0	89.0	7.0	0.379	0,0,0,0,0,0,1,2,3	to_board	s640
140.446	1.0	0	PA_without_intermediate	n/a	test	ward_and_allport	n/a	-1.0	7.0	n/a	n/a	feedback	s640
141.446	4.128	0	PA_without_intermediate	n/a	test	ward_and_allport	n/a	-1.0	7.0	n/a	n/a	ITI	s640
145.579	3.872	1	PA_without_intermediate	0,0,0,1,2,0,0,0,0	test	ward_and_allport	1,0,0,0,0,0,3,2,0	71.0	8.0	3.872	0,0,0,1,2,3,0,0,0	to_hand	s640
149.452	1.111	0	PA_without_intermediate	0,0,0,1,2,0,3,0,0	test	ward_and_allport	1,0,0,0,0,0,3,2,0	82.0	8.0	1.111	0,0,0,1,2,3,0,0,0	to_board	s640
150.567	0.495	0	PA_without_intermediate	0,0,0,1,0,0,3,0,0	test	ward_and_allport	1,0,0,0,0,0,3,2,0	71.0	8.0	0.495	0,0,0,1,2,3,0,0,0	to_hand	s640
151.062	0.329	0	PA_without_intermediate	0,0,0,1,0,0,3,2,0	test	ward_and_allport	1,0,0,0,0,0,3,2,0	82.0	8.0	0.329	0,0,0,1,2,3,0,0,0	to_board	s640
151.396	0.615	0	PA_without_intermediate	0,0,0,0,0,0,3,2,0	test	ward_and_allport	1,0,0,0,0,0,3,2,0	71.0	8.0	0.615	0,0,0,1,2,3,0,0,0	to_hand	s640
152.013	0.203	0	PA_without_intermediate	1,0,0,0,0,0,3,2,0	test	ward_and_allport	1,0,0,0,0,0,3,2,0	89.0	8.0	0.203	0,0,0,1,2,3,0,0,0	to_board	s640
152.224	1.0	0	PA_without_intermediate	n/a	test	ward_and_allport	n/a	-1.0	8.0	n/a	n/a	feedback	s640
153.224	1.136	0	PA_without_intermediate	n/a	test	ward_and_allport	n/a	-1.0	8.0	n/a	n/a	ITI	s640
154.366	4.68	1	PA_without_intermediate	0,0,0,1,2,0,0,0,0	test	ward_and_allport	3,1,0,0,0,0,2,0,0	71.0	9.0	4.68	0,0,0,1,2,3,0,0,0	to_hand	s640
159.047	0.416	0	PA_without_intermediate	3,0,0,1,2,0,0,0,0	test	ward_and_allport	3,1,0,0,0,0,2,0,0	89.0	9.0	0.416	0,0,0,1,2,3,0,0,0	to_board	s640
159.468	0.551	0	PA_without_intermediate	3,0,0,1,0,0,0,0,0	test	ward_and_allport	3,1,0,0,0,0,2,0,0	71.0	9.0	0.551	0,0,0,1,2,3,0,0,0	to_hand	s640
160.021	0.322	0	PA_without_intermediate	3,0,0,1,0,0,2,0,0	test	ward_and_allport	3,1,0,0,0,0,2,0,0	82.0	9.0	0.322	0,0,0,1,2,3,0,0,0	to_board	s640
160.347	0.336	0	PA_without_intermediate	3,0,0,0,0,0,2,0,0	test	ward_and_allport	3,1,0,0,0,0,2,0,0	71.0	9.0	0.336	0,0,0,1,2,3,0,0,0	to_hand	s640
160.684	0.244	0	PA_without_intermediate	3,1,0,0,0,0,2,0,0	test	ward_and_allport	3,1,0,0,0,0,2,0,0	89.0	9.0	0.244	0,0,0,1,2,3,0,0,0	to_board	s640
160.938	1.0	0	PA_without_intermediate	n/a	test	ward_and_allport	n/a	-1.0	9.0	n/a	n/a	feedback	s640
161.938	4.264	0	PA_without_intermediate	n/a	test	ward_and_allport	n/a	-1.0	9.0	n/a	n/a	ITI	s640
166.206	3.715	1	PA_with_intermediate	1,2,0,0,0,0,0,0,0	test	ward_and_allport	1,3,0,2,0,0,0,0,0	89.0	10.0	3.715	1,2,3,0,0,0,0,0,0	to_hand	s640
169.922	0.774	0	PA_with_intermediate	1,2,0,0,0,0,3,0,0	test	ward_and_allport	1,3,0,2,0,0,0,0,0	82.0	10.0	0.774	1,2,3,0,0,0,0,0,0	to_board	s640
170.702	1.361	0	PA_with_intermediate	1,0,0,0,0,0,3,0,0	test	ward_and_allport	1,3,0,2,0,0,0,0,0	89.0	10.0	1.361	1,2,3,0,0,0,0,0,0	to_hand	s640
172.064	0.423	0	PA_with_intermediate	1,0,0,2,0,0,3,0,0	test	ward_and_allport	1,3,0,2,0,0,0,0,0	71.0	10.0	0.423	1,2,3,0,0,0,0,0,0	to_board	s640
172.491	0.606	0	PA_with_intermediate	1,0,0,2,0,0,0,0,0	test	ward_and_allport	1,3,0,2,0,0,0,0,0	82.0	10.0	0.606	1,2,3,0,0,0,0,0,0	to_hand	s640
173.097	0.26	0	PA_with_intermediate	1,3,0,2,0,0,0,0,0	test	ward_and_allport	1,3,0,2,0,0,0,0,0	89.0	10.0	0.26	1,2,3,0,0,0,0,0,0	to_board	s640
173.368	1.0	0	PA_with_intermediate	n/a	test	ward_and_allport	n/a	-1.0	10.0	n/a	n/a	feedback	s640
174.368	3.04	0	PA_with_intermediate	n/a	test	ward_and_allport	n/a	-1.0	10.0	n/a	n/a	ITI	s640
177.415	1.854	1	PA_with_intermediate	0,0,0,0,0,0,1,2,0	test	ward_and_allport	2,3,0,0,0,0,1,0,0	82.0	11.0	1.854	0,0,0,0,0,0,1,2,3	to_hand	s640
179.27	0.319	0	PA_with_intermediate	3,0,0,0,0,0,1,2,0	test	ward_and_allport	2,3,0,0,0,0,1,0,0	89.0	11.0	0.319	0,0,0,0,0,0,1,2,3	to_board	s640
179.594	2.676	0	PA_with_intermediate	0,0,0,0,0,0,1,2,0	test	ward_and_allport	2,3,0,0,0,0,1,0,0	89.0	11.0	2.676	0,0,0,0,0,0,1,2,3	to_hand	s640
182.271	0.922	0	PA_with_intermediate	0,0,0,3,0,0,1,2,0	test	ward_and_allport	2,3,0,0,0,0,1,0,0	71.0	11.0	0.922	0,0,0,0,0,0,1,2,3	to_board	s640
183.198	1.272	0	PA_with_intermediate	0,0,0,3,0,0,1,0,0	test	ward_and_allport	2,3,0,0,0,0,1,0,0	82.0	11.0	1.272	0,0,0,0,0,0,1,2,3	to_hand	s640
184.472	0.742	0	PA_with_intermediate	2,0,0,3,0,0,1,0,0	test	ward_and_allport	2,3,0,0,0,0,1,0,0	89.0	11.0	0.742	0,0,0,0,0,0,1,2,3	to_board	s640
185.22	0.678	0	PA_with_intermediate	2,0,0,0,0,0,1,0,0	test	ward_and_allport	2,3,0,0,0,0,1,0,0	71.0	11.0	0.678	0,0,0,0,0,0,1,2,3	to_hand	s640
185.899	0.383	0	PA_with_intermediate	2,3,0,0,0,0,1,0,0	test	ward_and_allport	2,3,0,0,0,0,1,0,0	89.0	11.0	0.383	0,0,0,0,0,0,1,2,3	to_board	s640
186.289	1.0	0	PA_with_intermediate	n/a	test	ward_and_allport	n/a	-1.0	11.0	n/a	n/a	feedback	s640
187.289	1.136	0	PA_with_intermediate	n/a	test	ward_and_allport	n/a	-1.0	11.0	n/a	n/a	ITI	s640
188.43	4.093	1	PA_with_intermediate	0,0,0,1,2,0,0,0,0	test	ward_and_allport	2,0,0,1,3,0,0,0,0	71.0	12.0	4.093	0,0,0,1,2,3,0,0,0	to_hand	s640
192.524	0.478	0	PA_with_intermediate	0,0,0,1,2,0,3,0,0	test	ward_and_allport	2,0,0,1,3,0,0,0,0	82.0	12.0	0.478	0,0,0,1,2,3,0,0,0	to_board	s640
193.008	1.111	0	PA_with_intermediate	0,0,0,1,0,0,3,0,0	test	ward_and_allport	2,0,0,1,3,0,0,0,0	71.0	12.0	1.111	0,0,0,1,2,3,0,0,0	to_hand	s640
194.12	0.331	0	PA_with_intermediate	2,0,0,1,0,0,3,0,0	test	ward_and_allport	2,0,0,1,3,0,0,0,0	89.0	12.0	0.331	0,0,0,1,2,3,0,0,0	to_board	s640
194.456	1.324	0	PA_with_intermediate	2,0,0,1,0,0,0,0,0	test	ward_and_allport	2,0,0,1,3,0,0,0,0	82.0	12.0	1.324	0,0,0,1,2,3,0,0,0	to_hand	s640
195.782	0.506	0	PA_with_intermediate	2,0,0,1,3,0,0,0,0	test	ward_and_allport	2,0,0,1,3,0,0,0,0	71.0	12.0	0.506	0,0,0,1,2,3,0,0,0	to_board	s640
196.297	1.0	0	PA_with_intermediate	n/a	test	ward_and_allport	n/a	-1.0	12.0	n/a	n/a	feedback	s640
197.297	1.408	0	PA_with_intermediate	n/a	test	ward_and_allport	n/a	-1.0	12.0	n/a	n/a	ITI	s640
198.71	4.356	1	PA_without_intermediate	0,0,0,1,2,0,0,0,0	test	ward_and_allport	3,2,0,0,0,0,1,0,0	71.0	13.0	4.356	0,0,0,1,2,3,0,0,0	to_hand	s640
203.067	0.398	0	PA_without_intermediate	3,0,0,1,2,0,0,0,0	test	ward_and_allport	3,2,0,0,0,0,1,0,0	89.0	13.0	0.398	0,0,0,1,2,3,0,0,0	to_board	s640
203.47	1.181	0	PA_without_intermediate	3,0,0,1,0,0,0,0,0	test	ward_and_allport	3,2,0,0,0,0,1,0,0	71.0	13.0	1.181	0,0,0,1,2,3,0,0,0	to_hand	s640
204.652	0.314	0	PA_without_intermediate	3,2,0,1,0,0,0,0,0	test	ward_and_allport	3,2,0,0,0,0,1,0,0	89.0	13.0	0.314	0,0,0,1,2,3,0,0,0	to_board	s640
204.971	1.475	0	PA_without_intermediate	3,2,0,0,0,0,0,0,0	test	ward_and_allport	3,2,0,0,0,0,1,0,0	71.0	13.0	1.475	0,0,0,1,2,3,0,0,0	to_hand	s640
206.447	0.229	0	PA_without_intermediate	3,2,0,0,0,0,1,0,0	test	ward_and_allport	3,2,0,0,0,0,1,0,0	82.0	13.0	0.229	0,0,0,1,2,3,0,0,0	to_board	s640
206.682	1.0	0	PA_without_intermediate	n/a	test	ward_and_allport	n/a	-1.0	13.0	n/a	n/a	feedback	s640
207.682	1.68	0	PA_without_intermediate	n/a	test	ward_and_allport	n/a	-1.0	13.0	n/a	n/a	ITI	s640
209.37	2.987	1	PA_with_intermediate	0,0,0,0,0,0,1,2,0	test	ward_and_allport	0,0,0,2,0,0,1,3,0	82.0	14.0	2.987	0,0,0,0,0,0,1,2,3	to_hand	s640
212.358	0.26	0	PA_with_intermediate	3,0,0,0,0,0,1,2,0	test	ward_and_allport	0,0,0,2,0,0,1,3,0	89.0	14.0	0.26	0,0,0,0,0,0,1,2,3	to_board	s640
212.623	1.417	0	PA_with_intermediate	3,0,0,0,0,0,1,0,0	test	ward_and_allport	0,0,0,2,0,0,1,3,0	82.0	14.0	1.417	0,0,0,0,0,0,1,2,3	to_hand	s640
214.041	0.343	0	PA_with_intermediate	3,0,0,2,0,0,1,0,0	test	ward_and_allport	0,0,0,2,0,0,1,3,0	71.0	14.0	0.343	0,0,0,0,0,0,1,2,3	to_board	s640
214.389	1.208	0	PA_with_intermediate	0,0,0,2,0,0,1,0,0	test	ward_and_allport	0,0,0,2,0,0,1,3,0	89.0	14.0	1.208	0,0,0,0,0,0,1,2,3	to_hand	s640
215.599	0.254	0	PA_with_intermediate	0,0,0,2,0,0,1,3,0	test	ward_and_allport	0,0,0,2,0,0,1,3,0	82.0	14.0	0.254	0,0,0,0,0,0,1,2,3	to_board	s640
215.86	1.0	0	PA_with_intermediate	n/a	test	ward_and_allport	n/a	-1.0	14.0	n/a	n/a	feedback	s640
216.86	3.72	0	PA_with_intermediate	n/a	test	ward_and_allport	n/a	-1.0	14.0	n/a	n/a	ITI	s640
225.591	5.485	1	PA_without_intermediate	0,0,0,1,2,0,0,0,0	test	ward_and_allport	3,1,0,0,0,0,2,0,0	71.0	15.0	5.485	0,0,0,1,2,3,0,0,0	to_hand	s640
231.077	0.373	0	PA_without_intermediate	3,0,0,1,2,0,0,0,0	test	ward_and_allport	3,1,0,0,0,0,2,0,0	89.0	15.0	0.373	0,0,0,1,2,3,0,0,0	to_board	s640
231.454	0.805	0	PA_without_intermediate	3,0,0,1,0,0,0,0,0	test	ward_and_allport	3,1,0,0,0,0,2,0,0	71.0	15.0	0.805	0,0,0,1,2,3,0,0,0	to_hand	s640
232.261	0.358	0	PA_without_intermediate	3,0,0,1,0,0,2,0,0	test	ward_and_allport	3,1,0,0,0,0,2,0,0	82.0	15.0	0.358	0,0,0,1,2,3,0,0,0	to_board	s640
232.625	0.357	0	PA_without_intermediate	3,0,0,0,0,0,2,0,0	test	ward_and_allport	3,1,0,0,0,0,2,0,0	71.0	15.0	0.357	0,0,0,1,2,3,0,0,0	to_hand	s640
232.983	0.225	0	PA_without_intermediate	3,1,0,0,0,0,2,0,0	test	ward_and_allport	3,1,0,0,0,0,2,0,0	89.0	15.0	0.225	0,0,0,1,2,3,0,0,0	to_board	s640
233.214	1.0	0	PA_without_intermediate	n/a	test	ward_and_allport	n/a	-1.0	15.0	n/a	n/a	feedback	s640
234.214	2.224	0	PA_without_intermediate	n/a	test	ward_and_allport	n/a	-1.0	15.0	n/a	n/a	ITI	s640
236.443	4.32	1	PA_without_intermediate	1,2,0,0,0,0,0,0,0	test	ward_and_allport	0,0,0,3,2,0,1,0,0	89.0	16.0	4.32	1,2,3,0,0,0,0,0,0	to_hand	s640
240.764	0.267	0	PA_without_intermediate	1,2,0,3,0,0,0,0,0	test	ward_and_allport	0,0,0,3,2,0,1,0,0	71.0	16.0	0.267	1,2,3,0,0,0,0,0,0	to_board	s640
241.035	0.656	0	PA_without_intermediate	1,0,0,3,0,0,0,0,0	test	ward_and_allport	0,0,0,3,2,0,1,0,0	89.0	16.0	0.656	1,2,3,0,0,0,0,0,0	to_hand	s640
241.693	0.305	0	PA_without_intermediate	1,0,0,3,2,0,0,0,0	test	ward_and_allport	0,0,0,3,2,0,1,0,0	71.0	16.0	0.305	1,2,3,0,0,0,0,0,0	to_board	s640
242.004	0.293	0	PA_without_intermediate	0,0,0,3,2,0,0,0,0	test	ward_and_allport	0,0,0,3,2,0,1,0,0	89.0	16.0	0.293	1,2,3,0,0,0,0,0,0	to_hand	s640
242.297	0.305	0	PA_without_intermediate	0,0,0,3,2,0,1,0,0	test	ward_and_allport	0,0,0,3,2,0,1,0,0	82.0	16.0	0.305	1,2,3,0,0,0,0,0,0	to_board	s640
242.611	1.0	0	PA_without_intermediate	n/a	test	ward_and_allport	n/a	-1.0	16.0	n/a	n/a	feedback	s640
243.611	1.272	0	PA_without_intermediate	n/a	test	ward_and_allport	n/a	-1.0	16.0	n/a	n/a	ITI	s640
244.89	2.839	1	PA_with_intermediate	0,0,0,1,2,0,0,0,0	test	ward_and_allport	2,3,0,1,0,0,0,0,0	71.0	17.0	2.839	0,0,0,1,2,3,0,0,0	to_hand	s640
247.73	0.346	0	PA_with_intermediate	0,0,0,1,2,0,3,0,0	test	ward_and_allport	2,3,0,1,0,0,0,0,0	82.0	17.0	0.346	0,0,0,1,2,3,0,0,0	to_board	s640
248.082	0.289	0	PA_with_intermediate	0,0,0,1,0,0,3,0,0	test	ward_and_allport	2,3,0,1,0,0,0,0,0	71.0	17.0	0.289	0,0,0,1,2,3,0,0,0	to_hand	s640
248.372	0.309	0	PA_with_intermediate	2,0,0,1,0,0,3,0,0	test	ward_and_allport	2,3,0,1,0,0,0,0,0	89.0	17.0	0.309	0,0,0,1,2,3,0,0,0	to_board	s640
248.686	0.373	0	PA_with_intermediate	2,0,0,1,0,0,0,0,0	test	ward_and_allport	2,3,0,1,0,0,0,0,0	82.0	17.0	0.373	0,0,0,1,2,3,0,0,0	to_hand	s640
249.061	0.289	0	PA_with_intermediate	2,3,0,1,0,0,0,0,0	test	ward_and_allport	2,3,0,1,0,0,0,0,0	89.0	17.0	0.289	0,0,0,1,2,3,0,0,0	to_board	s640
249.357	1.0	0	PA_with_intermediate	n/a	test	ward_and_allport	n/a	-1.0	17.0	n/a	n/a	feedback	s640
250.357	2.632	0	PA_with_intermediate	n/a	test	ward_and_allport	n/a	-1.0	17.0	n/a	n/a	ITI	s640
252.995	3.435	1	PA_without_intermediate	0,0,0,0,0,0,1,2,0	test	ward_and_allport	3,1,0,2,0,0,0,0,0	82.0	18.0	3.435	0,0,0,0,0,0,1,2,3	to_hand	s640
256.432	0.686	0	PA_without_intermediate	3,0,0,0,0,0,1,2,0	test	ward_and_allport	3,1,0,2,0,0,0,0,0	89.0	18.0	0.686	0,0,0,0,0,0,1,2,3	to_board	s640
257.122	1.394	0	PA_without_intermediate	3,0,0,0,0,0,1,0,0	test	ward_and_allport	3,1,0,2,0,0,0,0,0	82.0	18.0	1.394	0,0,0,0,0,0,1,2,3	to_hand	s640
258.518	0.301	0	PA_without_intermediate	3,0,0,2,0,0,1,0,0	test	ward_and_allport	3,1,0,2,0,0,0,0,0	71.0	18.0	0.301	0,0,0,0,0,0,1,2,3	to_board	s640
258.826	0.506	0	PA_without_intermediate	3,0,0,2,0,0,0,0,0	test	ward_and_allport	3,1,0,2,0,0,0,0,0	82.0	18.0	0.506	0,0,0,0,0,0,1,2,3	to_hand	s640
259.333	0.18	0	PA_without_intermediate	3,1,0,2,0,0,0,0,0	test	ward_and_allport	3,1,0,2,0,0,0,0,0	89.0	18.0	0.18	0,0,0,0,0,0,1,2,3	to_board	s640
259.522	1.0	0	PA_without_intermediate	n/a	test	ward_and_allport	n/a	-1.0	18.0	n/a	n/a	feedback	s640
260.522	1.408	0	PA_without_intermediate	n/a	test	ward_and_allport	n/a	-1.0	18.0	n/a	n/a	ITI	s640
261.937	3.916	1	PA_without_intermediate	1,2,0,0,0,0,0,0,0	test	ward_and_allport	0,0,0,1,0,0,3,2,0	89.0	19.0	3.916	1,2,3,0,0,0,0,0,0	to_hand	s640
265.855	0.395	0	PA_without_intermediate	1,2,0,0,0,0,3,0,0	test	ward_and_allport	0,0,0,1,0,0,3,2,0	82.0	19.0	0.395	1,2,3,0,0,0,0,0,0	to_board	s640
266.256	0.38	0	PA_without_intermediate	1,0,0,0,0,0,3,0,0	test	ward_and_allport	0,0,0,1,0,0,3,2,0	89.0	19.0	0.38	1,2,3,0,0,0,0,0,0	to_hand	s640
266.637	0.341	0	PA_without_intermediate	1,0,0,0,0,0,3,2,0	test	ward_and_allport	0,0,0,1,0,0,3,2,0	82.0	19.0	0.341	1,2,3,0,0,0,0,0,0	to_board	s640
266.983	0.915	0	PA_without_intermediate	0,0,0,0,0,0,3,2,0	test	ward_and_allport	0,0,0,1,0,0,3,2,0	89.0	19.0	0.915	1,2,3,0,0,0,0,0,0	to_hand	s640
267.9	0.294	0	PA_without_intermediate	0,0,0,1,0,0,3,2,0	test	ward_and_allport	0,0,0,1,0,0,3,2,0	71.0	19.0	0.294	1,2,3,0,0,0,0,0,0	to_board	s640
268.202	1.0	0	PA_without_intermediate	n/a	test	ward_and_allport	n/a	-1.0	19.0	n/a	n/a	feedback	s640
269.202	1.0	0	PA_without_intermediate	n/a	test	ward_and_allport	n/a	-1.0	19.0	n/a	n/a	ITI	s640
270.207	3.799	1	PA_with_intermediate	0,0,0,0,0,0,1,2,0	test	ward_and_allport	2,3,0,0,0,0,1,0,0	82.0	20.0	3.799	0,0,0,0,0,0,1,2,3	to_hand	s640
274.008	0.232	0	PA_with_intermediate	0,0,0,3,0,0,1,2,0	test	ward_and_allport	2,3,0,0,0,0,1,0,0	71.0	20.0	0.232	0,0,0,0,0,0,1,2,3	to_board	s640
274.247	0.637	0	PA_with_intermediate	0,0,0,3,0,0,1,0,0	test	ward_and_allport	2,3,0,0,0,0,1,0,0	82.0	20.0	0.637	0,0,0,0,0,0,1,2,3	to_hand	s640
274.886	0.492	0	PA_with_intermediate	2,0,0,3,0,0,1,0,0	test	ward_and_allport	2,3,0,0,0,0,1,0,0	89.0	20.0	0.492	0,0,0,0,0,0,1,2,3	to_board	s640
275.385	0.817	0	PA_with_intermediate	2,0,0,0,0,0,1,0,0	test	ward_and_allport	2,3,0,0,0,0,1,0,0	71.0	20.0	0.817	0,0,0,0,0,0,1,2,3	to_hand	s640
276.204	0.302	0	PA_with_intermediate	2,3,0,0,0,0,1,0,0	test	ward_and_allport	2,3,0,0,0,0,1,0,0	89.0	20.0	0.302	0,0,0,0,0,0,1,2,3	to_board	s640
276.518	1.0	0	PA_with_intermediate	n/a	test	ward_and_allport	n/a	-1.0	20.0	n/a	n/a	feedback	s640
277.518	1.0	0	PA_with_intermediate	n/a	test	ward_and_allport	n/a	-1.0	20.0	n/a	n/a	ITI	s640
278.525	6.45	1	PA_with_intermediate	1,2,0,0,0,0,0,0,0	test	ward_and_allport	1,0,0,0,0,0,2,3,0	89.0	21.0	6.45	1,2,3,0,0,0,0,0,0	to_hand	s640
284.976	0.253	0	PA_with_intermediate	1,2,0,3,0,0,0,0,0	test	ward_and_allport	1,0,0,0,0,0,2,3,0	71.0	21.0	0.253	1,2,3,0,0,0,0,0,0	to_board	s640
285.236	0.366	0	PA_with_intermediate	1,0,0,3,0,0,0,0,0	test	ward_and_allport	1,0,0,0,0,0,2,3,0	89.0	21.0	0.366	1,2,3,0,0,0,0,0,0	to_hand	s640
285.604	0.331	0	PA_with_intermediate	1,0,0,3,0,0,2,0,0	test	ward_and_allport	1,0,0,0,0,0,2,3,0	82.0	21.0	0.331	1,2,3,0,0,0,0,0,0	to_board	s640
285.942	0.502	0	PA_with_intermediate	1,0,0,0,0,0,2,0,0	test	ward_and_allport	1,0,0,0,0,0,2,3,0	71.0	21.0	0.502	1,2,3,0,0,0,0,0,0	to_hand	s640
286.445	0.227	0	PA_with_intermediate	1,0,0,0,0,0,2,3,0	test	ward_and_allport	1,0,0,0,0,0,2,3,0	82.0	21.0	0.227	1,2,3,0,0,0,0,0,0	to_board	s640
286.682	1.0	0	PA_with_intermediate	n/a	test	ward_and_allport	n/a	-1.0	21.0	n/a	n/a	feedback	s640
287.682	1.0	0	PA_with_intermediate	n/a	test	ward_and_allport	n/a	-1.0	21.0	n/a	n/a	ITI	s640
288.69	4.324	1	PA_with_intermediate	0,0,0,1,2,0,0,0,0	test	ward_and_allport	2,0,0,1,3,0,0,0,0	71.0	22.0	4.324	0,0,0,1,2,3,0,0,0	to_hand	s640
293.015	0.454	0	PA_with_intermediate	0,0,0,1,2,0,3,0,0	test	ward_and_allport	2,0,0,1,3,0,0,0,0	82.0	22.0	0.454	0,0,0,1,2,3,0,0,0	to_board	s640
293.476	0.357	0	PA_with_intermediate	0,0,0,1,0,0,3,0,0	test	ward_and_allport	2,0,0,1,3,0,0,0,0	71.0	22.0	0.357	0,0,0,1,2,3,0,0,0	to_hand	s640
293.835	0.508	0	PA_with_intermediate	2,0,0,1,0,0,3,0,0	test	ward_and_allport	2,0,0,1,3,0,0,0,0	89.0	22.0	0.508	0,0,0,1,2,3,0,0,0	to_board	s640
294.35	0.302	0	PA_with_intermediate	2,0,0,1,0,0,0,0,0	test	ward_and_allport	2,0,0,1,3,0,0,0,0	82.0	22.0	0.302	0,0,0,1,2,3,0,0,0	to_hand	s640
294.654	0.258	0	PA_with_intermediate	2,3,0,1,0,0,0,0,0	test	ward_and_allport	2,0,0,1,3,0,0,0,0	89.0	22.0	0.258	0,0,0,1,2,3,0,0,0	to_board	s640
294.919	2.741	0	PA_with_intermediate	2,0,0,1,0,0,0,0,0	test	ward_and_allport	2,0,0,1,3,0,0,0,0	89.0	22.0	2.741	0,0,0,1,2,3,0,0,0	to_hand	s640
297.662	1.069	0	PA_with_intermediate	2,0,0,1,3,0,0,0,0	test	ward_and_allport	2,0,0,1,3,0,0,0,0	71.0	22.0	1.069	0,0,0,1,2,3,0,0,0	to_board	s640
298.742	1.0	0	PA_with_intermediate	n/a	test	ward_and_allport	n/a	-1.0	22.0	n/a	n/a	feedback	s640
299.742	1.408	0	PA_with_intermediate	n/a	test	ward_and_allport	n/a	-1.0	22.0	n/a	n/a	ITI	s640
301.157	5.507	1	PA_without_intermediate	1,2,0,0,0,0,0,0,0	test	ward_and_allport	0,0,0,1,0,0,3,2,0	89.0	23.0	5.507	1,2,3,0,0,0,0,0,0	to_hand	s640
306.666	0.318	0	PA_without_intermediate	1,2,0,0,0,0,3,0,0	test	ward_and_allport	0,0,0,1,0,0,3,2,0	82.0	23.0	0.318	1,2,3,0,0,0,0,0,0	to_board	s640
306.99	0.946	0	PA_without_intermediate	1,0,0,0,0,0,3,0,0	test	ward_and_allport	0,0,0,1,0,0,3,2,0	89.0	23.0	0.946	1,2,3,0,0,0,0,0,0	to_hand	s640
307.937	0.236	0	PA_without_intermediate	1,0,0,0,0,0,3,2,0	test	ward_and_allport	0,0,0,1,0,0,3,2,0	82.0	23.0	0.236	1,2,3,0,0,0,0,0,0	to_board	s640
308.18	1.16	0	PA_without_intermediate	0,0,0,0,0,0,3,2,0	test	ward_and_allport	0,0,0,1,0,0,3,2,0	89.0	23.0	1.16	1,2,3,0,0,0,0,0,0	to_hand	s640
309.34	0.187	0	PA_without_intermediate	0,0,0,1,0,0,3,2,0	test	ward_and_allport	0,0,0,1,0,0,3,2,0	71.0	23.0	0.187	1,2,3,0,0,0,0,0,0	to_board	s640
309.536	1.0	0	PA_without_intermediate	n/a	test	ward_and_allport	n/a	-1.0	23.0	n/a	n/a	feedback	s640
310.536	1.816	0	PA_without_intermediate	n/a	test	ward_and_allport	n/a	-1.0	23.0	n/a	n/a	ITI	s640
312.36	4.886	1	PA_with_intermediate	0,0,0,1,2,0,0,0,0	test	ward_and_allport	0,0,0,1,3,0,2,0,0	71.0	24.0	4.886	0,0,0,1,2,3,0,0,0	to_hand	s640
317.247	0.313	0	PA_with_intermediate	3,0,0,1,2,0,0,0,0	test	ward_and_allport	0,0,0,1,3,0,2,0,0	89.0	24.0	0.313	0,0,0,1,2,3,0,0,0	to_board	s640
317.568	0.338	0	PA_with_intermediate	3,0,0,1,0,0,0,0,0	test	ward_and_allport	0,0,0,1,3,0,2,0,0	71.0	24.0	0.338	0,0,0,1,2,3,0,0,0	to_hand	s640
317.907	0.287	0	PA_with_intermediate	3,0,0,1,0,0,2,0,0	test	ward_and_allport	0,0,0,1,3,0,2,0,0	82.0	24.0	0.287	0,0,0,1,2,3,0,0,0	to_board	s640
318.201	0.522	0	PA_with_intermediate	0,0,0,1,0,0,2,0,0	test	ward_and_allport	0,0,0,1,3,0,2,0,0	89.0	24.0	0.522	0,0,0,1,2,3,0,0,0	to_hand	s640
318.725	0.37	0	PA_with_intermediate	0,0,0,1,3,0,2,0,0	test	ward_and_allport	0,0,0,1,3,0,2,0,0	71.0	24.0	0.37	0,0,0,1,2,3,0,0,0	to_board	s640
319.105	1.0	0	PA_with_intermediate	n/a	test	ward_and_allport	n/a	-1.0	24.0	n/a	n/a	feedback	s640
320.105	3.176	0	PA_with_intermediate	n/a	test	ward_and_allport	n/a	-1.0	24.0	n/a	n/a	ITI	s640
323.289	3.519	1	PA_with_intermediate	1,2,0,0,0,0,0,0,0	test	ward_and_allport	1,0,0,0,0,0,2,3,0	89.0	25.0	3.519	1,2,3,0,0,0,0,0,0	to_hand	s640
326.809	0.117	0	PA_with_intermediate	1,2,3,0,0,0,0,0,0	test	ward_and_allport	1,0,0,0,0,0,2,3,0	89.0	25.0	0.117	1,2,3,0,0,0,0,0,0	to_board	s640
326.932	0.88	0	PA_with_intermediate	1,2,0,0,0,0,0,0,0	test	ward_and_allport	1,0,0,0,0,0,2,3,0	89.0	25.0	0.88	1,2,3,0,0,0,0,0,0	to_hand	s640
327.813	0.317	0	PA_with_intermediate	1,2,0,3,0,0,0,0,0	test	ward_and_allport	1,0,0,0,0,0,2,3,0	71.0	25.0	0.317	1,2,3,0,0,0,0,0,0	to_board	s640
328.137	0.379	0	PA_with_intermediate	1,0,0,3,0,0,0,0,0	test	ward_and_allport	1,0,0,0,0,0,2,3,0	89.0	25.0	0.379	1,2,3,0,0,0,0,0,0	to_hand	s640
328.517	0.32	0	PA_with_intermediate	1,0,0,3,0,0,2,0,0	test	ward_and_allport	1,0,0,0,0,0,2,3,0	82.0	25.0	0.32	1,2,3,0,0,0,0,0,0	to_board	s640
328.844	0.616	0	PA_with_intermediate	1,0,0,0,0,0,2,0,0	test	ward_and_allport	1,0,0,0,0,0,2,3,0	71.0	25.0	0.616	1,2,3,0,0,0,0,0,0	to_hand	s640
329.462	0.309	0	PA_with_intermediate	1,0,0,0,0,0,2,3,0	test	ward_and_allport	1,0,0,0,0,0,2,3,0	82.0	25.0	0.309	1,2,3,0,0,0,0,0,0	to_board	s640
329.782	1.0	0	PA_with_intermediate	n/a	test	ward_and_allport	n/a	-1.0	25.0	n/a	n/a	feedback	s640
330.782	2.36	0	PA_with_intermediate	n/a	test	ward_and_allport	n/a	-1.0	25.0	n/a	n/a	ITI	s640
333.149	3.148	1	PA_with_intermediate	0,0,0,0,0,0,1,2,0	test	ward_and_allport	2,0,0,0,0,0,1,3,0	82.0	26.0	3.148	0,0,0,0,0,0,1,2,3	to_hand	s640
336.298	0.334	0	PA_with_intermediate	0,0,0,3,0,0,1,2,0	test	ward_and_allport	2,0,0,0,0,0,1,3,0	71.0	26.0	0.334	0,0,0,0,0,0,1,2,3	to_board	s640
336.638	1.529	0	PA_with_intermediate	0,0,0,3,0,0,1,0,0	test	ward_and_allport	2,0,0,0,0,0,1,3,0	82.0	26.0	1.529	0,0,0,0,0,0,1,2,3	to_hand	s640
338.168	1.085	0	PA_with_intermediate	2,0,0,3,0,0,1,0,0	test	ward_and_allport	2,0,0,0,0,0,1,3,0	89.0	26.0	1.085	0,0,0,0,0,0,1,2,3	to_board	s640
339.261	0.606	0	PA_with_intermediate	2,0,0,0,0,0,1,0,0	test	ward_and_allport	2,0,0,0,0,0,1,3,0	71.0	26.0	0.606	0,0,0,0,0,0,1,2,3	to_hand	s640
339.868	0.252	0	PA_with_intermediate	2,0,0,0,0,0,1,3,0	test	ward_and_allport	2,0,0,0,0,0,1,3,0	82.0	26.0	0.252	0,0,0,0,0,0,1,2,3	to_board	s640
340.127	1.0	0	PA_with_intermediate	n/a	test	ward_and_allport	n/a	-1.0	26.0	n/a	n/a	feedback	s640
341.127	1.0	0	PA_with_intermediate	n/a	test	ward_and_allport	n/a	-1.0	26.0	n/a	n/a	ITI	s640
342.135	4.186	1	PA_without_intermediate	0,0,0,1,2,0,0,0,0	test	ward_and_allport	2,0,0,0,0,0,3,1,0	71.0	27.0	4.186	0,0,0,1,2,3,0,0,0	to_hand	s640
346.322	0.328	0	PA_without_intermediate	0,0,0,1,2,0,3,0,0	test	ward_and_allport	2,0,0,0,0,0,3,1,0	82.0	27.0	0.328	0,0,0,1,2,3,0,0,0	to_board	s640
346.656	0.376	0	PA_without_intermediate	0,0,0,1,0,0,3,0,0	test	ward_and_allport	2,0,0,0,0,0,3,1,0	71.0	27.0	0.376	0,0,0,1,2,3,0,0,0	to_hand	s640
347.034	0.779	0	PA_without_intermediate	2,0,0,1,0,0,3,0,0	test	ward_and_allport	2,0,0,0,0,0,3,1,0	89.0	27.0	0.779	0,0,0,1,2,3,0,0,0	to_board	s640
347.819	0.573	0	PA_without_intermediate	2,0,0,0,0,0,3,0,0	test	ward_and_allport	2,0,0,0,0,0,3,1,0	71.0	27.0	0.573	0,0,0,1,2,3,0,0,0	to_hand	s640
348.393	0.206	0	PA_without_intermediate	2,0,0,0,0,0,3,1,0	test	ward_and_allport	2,0,0,0,0,0,3,1,0	82.0	27.0	0.206	0,0,0,1,2,3,0,0,0	to_board	s640
348.606	1.0	0	PA_without_intermediate	n/a	test	ward_and_allport	n/a	-1.0	27.0	n/a	n/a	feedback	s640
349.606	1.408	0	PA_without_intermediate	n/a	test	ward_and_allport	n/a	-1.0	27.0	n/a	n/a	ITI	s640
351.021	3.339	1	PA_with_intermediate	1,2,0,0,0,0,0,0,0	test	ward_and_allport	1,0,0,2,3,0,0,0,0	89.0	28.0	3.339	1,2,3,0,0,0,0,0,0	to_hand	s640
354.361	0.248	0	PA_with_intermediate	1,2,0,0,0,0,3,0,0	test	ward_and_allport	1,0,0,2,3,0,0,0,0	82.0	28.0	0.248	1,2,3,0,0,0,0,0,0	to_board	s640
354.615	0.486	0	PA_with_intermediate	1,0,0,0,0,0,3,0,0	test	ward_and_allport	1,0,0,2,3,0,0,0,0	89.0	28.0	0.486	1,2,3,0,0,0,0,0,0	to_hand	s640
355.102	0.29	0	PA_with_intermediate	1,0,0,2,0,0,3,0,0	test	ward_and_allport	1,0,0,2,3,0,0,0,0	71.0	28.0	0.29	1,2,3,0,0,0,0,0,0	to_board	s640
355.4	0.494	0	PA_with_intermediate	1,0,0,2,0,0,0,0,0	test	ward_and_allport	1,0,0,2,3,0,0,0,0	82.0	28.0	0.494	1,2,3,0,0,0,0,0,0	to_hand	s640
355.894	0.264	0	PA_with_intermediate	1,0,0,2,3,0,0,0,0	test	ward_and_allport	1,0,0,2,3,0,0,0,0	71.0	28.0	0.264	1,2,3,0,0,0,0,0,0	to_board	s640
356.167	1.0	0	PA_with_intermediate	n/a	test	ward_and_allport	n/a	-1.0	28.0	n/a	n/a	feedback	s640
357.167	1.816	0	PA_with_intermediate	n/a	test	ward_and_allport	n/a	-1.0	28.0	n/a	n/a	ITI	s640
358.992	4.369	1	PA_without_intermediate	1,2,0,0,0,0,0,0,0	test	ward_and_allport	0,0,0,3,1,0,2,0,0	89.0	29.0	4.369	1,2,3,0,0,0,0,0,0	to_hand	s640
363.363	0.253	0	PA_without_intermediate	1,2,0,3,0,0,0,0,0	test	ward_and_allport	0,0,0,3,1,0,2,0,0	71.0	29.0	0.253	1,2,3,0,0,0,0,0,0	to_board	s640
363.624	0.289	0	PA_without_intermediate	1,0,0,3,0,0,0,0,0	test	ward_and_allport	0,0,0,3,1,0,2,0,0	89.0	29.0	0.289	1,2,3,0,0,0,0,0,0	to_hand	s640
363.915	0.32	0	PA_without_intermediate	1,0,0,3,0,0,2,0,0	test	ward_and_allport	0,0,0,3,1,0,2,0,0	82.0	29.0	0.32	1,2,3,0,0,0,0,0,0	to_board	s640
364.244	0.36	0	PA_without_intermediate	0,0,0,3,0,0,2,0,0	test	ward_and_allport	0,0,0,3,1,0,2,0,0	89.0	29.0	0.36	1,2,3,0,0,0,0,0,0	to_hand	s640
364.606	0.769	0	PA_without_intermediate	0,0,0,3,1,0,2,0,0	test	ward_and_allport	0,0,0,3,1,0,2,0,0	71.0	29.0	0.769	1,2,3,0,0,0,0,0,0	to_board	s640
365.385	1.0	0	PA_without_intermediate	n/a	test	ward_and_allport	n/a	-1.0	29.0	n/a	n/a	feedback	s640
366.385	2.088	0	PA_without_intermediate	n/a	test	ward_and_allport	n/a	-1.0	29.0	n/a	n/a	ITI	s640
373.485	4.602	1	PA_without_intermediate	0,0,0,0,0,0,1,2,0	test	ward_and_allport	3,2,0,1,0,0,0,0,0	82.0	30.0	4.602	0,0,0,0,0,0,1,2,3	to_hand	s640
378.088	0.411	0	PA_without_intermediate	3,0,0,0,0,0,1,2,0	test	ward_and_allport	3,2,0,1,0,0,0,0,0	89.0	30.0	0.411	0,0,0,0,0,0,1,2,3	to_board	s640
378.507	1.604	0	PA_without_intermediate	3,0,0,0,0,0,1,0,0	test	ward_and_allport	3,2,0,1,0,0,0,0,0	82.0	30.0	1.604	0,0,0,0,0,0,1,2,3	to_hand	s640
380.112	0.369	0	PA_without_intermediate	3,2,0,0,0,0,1,0,0	test	ward_and_allport	3,2,0,1,0,0,0,0,0	89.0	30.0	0.369	0,0,0,0,0,0,1,2,3	to_board	s640
380.49	1.068	0	PA_without_intermediate	3,2,0,0,0,0,0,0,0	test	ward_and_allport	3,2,0,1,0,0,0,0,0	82.0	30.0	1.068	0,0,0,0,0,0,1,2,3	to_hand	s640
381.559	0.22	0	PA_without_intermediate	3,2,0,1,0,0,0,0,0	test	ward_and_allport	3,2,0,1,0,0,0,0,0	71.0	30.0	0.22	0,0,0,0,0,0,1,2,3	to_board	s640
381.788	1.0	0	PA_without_intermediate	n/a	test	ward_and_allport	n/a	-1.0	30.0	n/a	n/a	feedback	s640
382.788	1.136	0	PA_without_intermediate	n/a	test	ward_and_allport	n/a	-1.0	30.0	n/a	n/a	ITI	s640
383.934	4.197	1	PA_without_intermediate	0,0,0,1,2,0,0,0,0	test	ward_and_allport	2,0,0,0,0,0,3,1,0	71.0	31.0	4.197	0,0,0,1,2,3,0,0,0	to_hand	s640
388.133	0.373	0	PA_without_intermediate	0,0,0,1,2,0,3,0,0	test	ward_and_allport	2,0,0,0,0,0,3,1,0	82.0	31.0	0.373	0,0,0,1,2,3,0,0,0	to_board	s640
388.514	0.562	0	PA_without_intermediate	0,0,0,1,0,0,3,0,0	test	ward_and_allport	2,0,0,0,0,0,3,1,0	71.0	31.0	0.562	0,0,0,1,2,3,0,0,0	to_hand	s640
389.078	0.374	0	PA_without_intermediate	2,0,0,1,0,0,3,0,0	test	ward_and_allport	2,0,0,0,0,0,3,1,0	89.0	31.0	0.374	0,0,0,1,2,3,0,0,0	to_board	s640
389.462	0.351	0	PA_without_intermediate	2,0,0,0,0,0,3,0,0	test	ward_and_allport	2,0,0,0,0,0,3,1,0	71.0	31.0	0.351	0,0,0,1,2,3,0,0,0	to_hand	s640
389.815	0.208	0	PA_without_intermediate	2,0,0,0,0,0,3,1,0	test	ward_and_allport	2,0,0,0,0,0,3,1,0	82.0	31.0	0.208	0,0,0,1,2,3,0,0,0	to_board	s640
390.037	1.0	0	PA_without_intermediate	n/a	test	ward_and_allport	n/a	-1.0	31.0	n/a	n/a	feedback	s640
391.037	6.168	0	PA_without_intermediate	n/a	test	ward_and_allport	n/a	-1.0	31.0	n/a	n/a	ITI	s640
397.213	5.586	1	PA_without_intermediate	1,2,0,0,0,0,0,0,0	test	ward_and_allport	0,0,0,2,0,0,3,1,0	89.0	32.0	5.586	1,2,3,0,0,0,0,0,0	to_hand	s640
402.801	0.3	0	PA_without_intermediate	1,2,0,0,0,0,3,0,0	test	ward_and_allport	0,0,0,2,0,0,3,1,0	82.0	32.0	0.3	1,2,3,0,0,0,0,0,0	to_board	s640
403.11	0.973	0	PA_without_intermediate	1,0,0,0,0,0,3,0,0	test	ward_and_allport	0,0,0,2,0,0,3,1,0	89.0	32.0	0.973	1,2,3,0,0,0,0,0,0	to_hand	s640
404.084	0.284	0	PA_without_intermediate	1,0,0,2,0,0,3,0,0	test	ward_and_allport	0,0,0,2,0,0,3,1,0	71.0	32.0	0.284	1,2,3,0,0,0,0,0,0	to_board	s640
404.378	0.254	0	PA_without_intermediate	0,0,0,2,0,0,3,0,0	test	ward_and_allport	0,0,0,2,0,0,3,1,0	89.0	32.0	0.254	1,2,3,0,0,0,0,0,0	to_hand	s640
404.634	0.233	0	PA_without_intermediate	0,0,0,2,0,0,3,1,0	test	ward_and_allport	0,0,0,2,0,0,3,1,0	82.0	32.0	0.233	1,2,3,0,0,0,0,0,0	to_board	s640
404.882	1.0	0	PA_without_intermediate	n/a	test	ward_and_allport	n/a	-1.0	32.0	n/a	n/a	feedback	s640
405.882	1.816	0	PA_without_intermediate	n/a	test	ward_and_allport	n/a	-1.0	32.0	n/a	n/a	ITI	s640
407.709	5.197	1	PA_with_intermediate	0,0,0,1,2,0,0,0,0	test	ward_and_allport	0,0,0,1,0,0,2,3,0	71.0	33.0	5.197	0,0,0,1,2,3,0,0,0	to_hand	s640
412.908	0.242	0	PA_with_intermediate	3,0,0,1,2,0,0,0,0	test	ward_and_allport	0,0,0,1,0,0,2,3,0	89.0	33.0	0.242	0,0,0,1,2,3,0,0,0	to_board	s640
413.16	0.335	0	PA_with_intermediate	3,0,0,1,0,0,0,0,0	test	ward_and_allport	0,0,0,1,0,0,2,3,0	71.0	33.0	0.335	0,0,0,1,2,3,0,0,0	to_hand	s640
413.497	0.27	0	PA_with_intermediate	3,0,0,1,0,0,2,0,0	test	ward_and_allport	0,0,0,1,0,0,2,3,0	82.0	33.0	0.27	0,0,0,1,2,3,0,0,0	to_board	s640
413.777	0.283	0	PA_with_intermediate	0,0,0,1,0,0,2,0,0	test	ward_and_allport	0,0,0,1,0,0,2,3,0	89.0	33.0	0.283	0,0,0,1,2,3,0,0,0	to_hand	s640
414.061	0.219	0	PA_with_intermediate	0,0,0,1,0,0,2,3,0	test	ward_and_allport	0,0,0,1,0,0,2,3,0	82.0	33.0	0.219	0,0,0,1,2,3,0,0,0	to_board	s640
414.294	1.0	0	PA_with_intermediate	n/a	test	ward_and_allport	n/a	-1.0	33.0	n/a	n/a	feedback	s640
415.294	1.952	0	PA_with_intermediate	n/a	test	ward_and_allport	n/a	-1.0	33.0	n/a	n/a	ITI	s640
417.257	6.332	1	PA_with_intermediate	0,0,0,0,0,0,1,2,0	test	ward_and_allport	2,0,0,0,0,0,1,3,0	82.0	34.0	6.332	0,0,0,0,0,0,1,2,3	to_hand	s640
423.591	0.488	0	PA_with_intermediate	0,0,0,3,0,0,1,2,0	test	ward_and_allport	2,0,0,0,0,0,1,3,0	71.0	34.0	0.488	0,0,0,0,0,0,1,2,3	to_board	s640
424.086	0.585	0	PA_with_intermediate	0,0,0,3,0,0,1,0,0	test	ward_and_allport	2,0,0,0,0,0,1,3,0	82.0	34.0	0.585	0,0,0,0,0,0,1,2,3	to_hand	s640
424.673	0.526	0	PA_with_intermediate	2,0,0,3,0,0,1,0,0	test	ward_and_allport	2,0,0,0,0,0,1,3,0	89.0	34.0	0.526	0,0,0,0,0,0,1,2,3	to_board	s640
425.209	0.288	0	PA_with_intermediate	2,0,0,0,0,0,1,0,0	test	ward_and_allport	2,0,0,0,0,0,1,3,0	71.0	34.0	0.288	0,0,0,0,0,0,1,2,3	to_hand	s640
425.498	0.171	0	PA_with_intermediate	2,0,0,0,0,0,1,3,0	test	ward_and_allport	2,0,0,0,0,0,1,3,0	82.0	34.0	0.171	0,0,0,0,0,0,1,2,3	to_board	s640
425.68	1.0	0	PA_with_intermediate	n/a	test	ward_and_allport	n/a	-1.0	34.0	n/a	n/a	feedback	s640
426.68	1.136	0	PA_with_intermediate	n/a	test	ward_and_allport	n/a	-1.0	34.0	n/a	n/a	ITI	s640
427.827	3.051	1	PA_without_intermediate	0,0,0,1,2,0,0,0,0	test	ward_and_allport	1,0,0,0,0,0,3,2,0	71.0	35.0	3.051	0,0,0,1,2,3,0,0,0	to_hand	s640
430.88	0.248	0	PA_without_intermediate	0,0,0,1,2,0,3,0,0	test	ward_and_allport	1,0,0,0,0,0,3,2,0	82.0	35.0	0.248	0,0,0,1,2,3,0,0,0	to_board	s640
431.138	0.359	0	PA_without_intermediate	0,0,0,1,0,0,3,0,0	test	ward_and_allport	1,0,0,0,0,0,3,2,0	71.0	35.0	0.359	0,0,0,1,2,3,0,0,0	to_hand	s640
431.498	0.217	0	PA_without_intermediate	0,0,0,1,0,0,3,2,0	test	ward_and_allport	1,0,0,0,0,0,3,2,0	82.0	35.0	0.217	0,0,0,1,2,3,0,0,0	to_board	s640
431.726	0.998	0	PA_without_intermediate	0,0,0,0,0,0,3,2,0	test	ward_and_allport	1,0,0,0,0,0,3,2,0	71.0	35.0	0.998	0,0,0,1,2,3,0,0,0	to_hand	s640
432.726	0.264	0	PA_without_intermediate	1,0,0,0,0,0,3,2,0	test	ward_and_allport	1,0,0,0,0,0,3,2,0	89.0	35.0	0.264	0,0,0,1,2,3,0,0,0	to_board	s640
433.001	1.0	0	PA_without_intermediate	n/a	test	ward_and_allport	n/a	-1.0	35.0	n/a	n/a	feedback	s640
434.001	1.68	0	PA_without_intermediate	n/a	test	ward_and_allport	n/a	-1.0	35.0	n/a	n/a	ITI	s640
435.689	4.693	1	PA_without_intermediate	0,0,0,0,0,0,1,2,0	test	ward_and_allport	2,0,0,3,1,0,0,0,0	82.0	36.0	4.693	0,0,0,0,0,0,1,2,3	to_hand	s640
440.383	0.285	0	PA_without_intermediate	0,0,0,3,0,0,1,2,0	test	ward_and_allport	2,0,0,3,1,0,0,0,0	71.0	36.0	0.285	0,0,0,0,0,0,1,2,3	to_board	s640
440.675	0.328	0	PA_without_intermediate	0,0,0,3,0,0,1,0,0	test	ward_and_allport	2,0,0,3,1,0,0,0,0	82.0	36.0	0.328	0,0,0,0,0,0,1,2,3	to_hand	s640
441.004	0.33	0	PA_without_intermediate	2,0,0,3,0,0,1,0,0	test	ward_and_allport	2,0,0,3,1,0,0,0,0	89.0	36.0	0.33	0,0,0,0,0,0,1,2,3	to_board	s640
441.343	0.398	0	PA_without_intermediate	2,0,0,3,0,0,0,0,0	test	ward_and_allport	2,0,0,3,1,0,0,0,0	82.0	36.0	0.398	0,0,0,0,0,0,1,2,3	to_hand	s640
441.742	0.568	0	PA_without_intermediate	2,0,0,3,1,0,0,0,0	test	ward_and_allport	2,0,0,3,1,0,0,0,0	71.0	36.0	0.568	0,0,0,0,0,0,1,2,3	to_board	s640
442.321	1.0	0	PA_without_intermediate	n/a	test	ward_and_allport	n/a	-1.0	36.0	n/a	n/a	feedback	s640
443.321	2.088	0	PA_without_intermediate	n/a	test	ward_and_allport	n/a	-1.0	36.0	n/a	n/a	ITI	s640
445.419	5.809	1	PA_with_intermediate	1,2,0,0,0,0,0,0,0	test	ward_and_allport	1,3,0,2,0,0,0,0,0	89.0	37.0	5.809	1,2,3,0,0,0,0,0,0	to_hand	s640
451.229	0.472	0	PA_with_intermediate	1,2,0,0,0,0,3,0,0	test	ward_and_allport	1,3,0,2,0,0,0,0,0	82.0	37.0	0.472	1,2,3,0,0,0,0,0,0	to_board	s640
451.712	1.01	0	PA_with_intermediate	1,0,0,0,0,0,3,0,0	test	ward_and_allport	1,3,0,2,0,0,0,0,0	89.0	37.0	1.01	1,2,3,0,0,0,0,0,0	to_hand	s640
452.724	0.315	0	PA_with_intermediate	1,0,0,2,0,0,3,0,0	test	ward_and_allport	1,3,0,2,0,0,0,0,0	71.0	37.0	0.315	1,2,3,0,0,0,0,0,0	to_board	s640
453.048	0.438	0	PA_with_intermediate	1,0,0,2,0,0,0,0,0	test	ward_and_allport	1,3,0,2,0,0,0,0,0	82.0	37.0	0.438	1,2,3,0,0,0,0,0,0	to_hand	s640
453.488	1.059	0	PA_with_intermediate	1,3,0,2,0,0,0,0,0	test	ward_and_allport	1,3,0,2,0,0,0,0,0	89.0	37.0	1.059	1,2,3,0,0,0,0,0,0	to_board	s640
454.559	1.0	0	PA_with_intermediate	n/a	test	ward_and_allport	n/a	-1.0	37.0	n/a	n/a	feedback	s640
455.559	1.0	0	PA_with_intermediate	n/a	test	ward_and_allport	n/a	-1.0	37.0	n/a	n/a	ITI	s640
456.569	3.107	1	PA_without_intermediate	1,2,0,0,0,0,0,0,0	test	ward_and_allport	0,0,0,3,1,0,2,0,0	89.0	38.0	3.107	1,2,3,0,0,0,0,0,0	to_hand	s640
459.678	0.364	0	PA_without_intermediate	1,2,0,3,0,0,0,0,0	test	ward_and_allport	0,0,0,3,1,0,2,0,0	71.0	38.0	0.364	1,2,3,0,0,0,0,0,0	to_board	s640
460.049	0.36	0	PA_without_intermediate	1,0,0,3,0,0,0,0,0	test	ward_and_allport	0,0,0,3,1,0,2,0,0	89.0	38.0	0.36	1,2,3,0,0,0,0,0,0	to_hand	s640
460.41	0.447	0	PA_without_intermediate	1,0,0,3,0,0,2,0,0	test	ward_and_allport	0,0,0,3,1,0,2,0,0	82.0	38.0	0.447	1,2,3,0,0,0,0,0,0	to_board	s640
460.868	0.424	0	PA_without_intermediate	0,0,0,3,0,0,2,0,0	test	ward_and_allport	0,0,0,3,1,0,2,0,0	89.0	38.0	0.424	1,2,3,0,0,0,0,0,0	to_hand	s640
461.292	0.299	0	PA_without_intermediate	0,0,0,3,1,0,2,0,0	test	ward_and_allport	0,0,0,3,1,0,2,0,0	71.0	38.0	0.299	1,2,3,0,0,0,0,0,0	to_board	s640
461.599	1.0	0	PA_without_intermediate	n/a	test	ward_and_allport	n/a	-1.0	38.0	n/a	n/a	feedback	s640
462.599	1.0	0	PA_without_intermediate	n/a	test	ward_and_allport	n/a	-1.0	38.0	n/a	n/a	ITI	s640
463.608	3.494	1	PA_without_intermediate	0,0,0,0,0,0,1,2,0	test	ward_and_allport	1,0,0,3,2,0,0,0,0	82.0	39.0	3.494	0,0,0,0,0,0,1,2,3	to_hand	s640
467.103	0.372	0	PA_without_intermediate	0,0,0,3,0,0,1,2,0	test	ward_and_allport	1,0,0,3,2,0,0,0,0	71.0	39.0	0.372	0,0,0,0,0,0,1,2,3	to_board	s640
467.481	0.869	0	PA_without_intermediate	0,0,0,3,0,0,1,0,0	test	ward_and_allport	1,0,0,3,2,0,0,0,0	82.0	39.0	0.869	0,0,0,0,0,0,1,2,3	to_hand	s640
468.351	0.431	0	PA_without_intermediate	0,0,0,3,2,0,1,0,0	test	ward_and_allport	1,0,0,3,2,0,0,0,0	71.0	39.0	0.431	0,0,0,0,0,0,1,2,3	to_board	s640
468.791	0.307	0	PA_without_intermediate	0,0,0,3,2,0,0,0,0	test	ward_and_allport	1,0,0,3,2,0,0,0,0	82.0	39.0	0.307	0,0,0,0,0,0,1,2,3	to_hand	s640
469.1	0.43	0	PA_without_intermediate	1,0,0,3,2,0,0,0,0	test	ward_and_allport	1,0,0,3,2,0,0,0,0	89.0	39.0	0.43	0,0,0,0,0,0,1,2,3	to_board	s640
469.546	1.0	0	PA_without_intermediate	n/a	test	ward_and_allport	n/a	-1.0	39.0	n/a	n/a	feedback	s640
470.546	1.0	0	PA_without_intermediate	n/a	test	ward_and_allport	n/a	-1.0	39.0	n/a	n/a	ITI	s640
471.555	4.519	1	PA_with_intermediate	0,0,0,1,2,0,0,0,0	test	ward_and_allport	0,0,0,1,0,0,2,3,0	71.0	40.0	4.519	0,0,0,1,2,3,0,0,0	to_hand	s640
476.075	0.63	0	PA_with_intermediate	3,0,0,1,2,0,0,0,0	test	ward_and_allport	0,0,0,1,0,0,2,3,0	89.0	40.0	0.63	0,0,0,1,2,3,0,0,0	to_board	s640
476.713	0.728	0	PA_with_intermediate	3,0,0,1,0,0,0,0,0	test	ward_and_allport	0,0,0,1,0,0,2,3,0	71.0	40.0	0.728	0,0,0,1,2,3,0,0,0	to_hand	s640
477.442	0.519	0	PA_with_intermediate	3,0,0,1,0,0,2,0,0	test	ward_and_allport	0,0,0,1,0,0,2,3,0	82.0	40.0	0.519	0,0,0,1,2,3,0,0,0	to_board	s640
477.973	0.549	0	PA_with_intermediate	0,0,0,1,0,0,2,0,0	test	ward_and_allport	0,0,0,1,0,0,2,3,0	89.0	40.0	0.549	0,0,0,1,2,3,0,0,0	to_hand	s640
478.523	0.331	0	PA_with_intermediate	0,0,0,1,0,0,2,3,0	test	ward_and_allport	0,0,0,1,0,0,2,3,0	82.0	40.0	0.331	0,0,0,1,2,3,0,0,0	to_board	s640
478.869	1.0	0	PA_with_intermediate	n/a	test	ward_and_allport	n/a	-1.0	40.0	n/a	n/a	feedback	s640
479.869	1.544	0	PA_with_intermediate	n/a	test	ward_and_allport	n/a	-1.0	40.0	n/a	n/a	ITI	s640
481.426	7.184	1	PA_without_intermediate	0,0,0,0,0,0,1,2,0	test	ward_and_allport	2,0,0,3,1,0,0,0,0	82.0	41.0	7.184	0,0,0,0,0,0,1,2,3	to_hand	s640
488.611	0.605	0	PA_without_intermediate	0,0,0,3,0,0,1,2,0	test	ward_and_allport	2,0,0,3,1,0,0,0,0	71.0	41.0	0.605	0,0,0,0,0,0,1,2,3	to_board	s640
489.227	0.566	0	PA_without_intermediate	0,0,0,3,0,0,1,0,0	test	ward_and_allport	2,0,0,3,1,0,0,0,0	82.0	41.0	0.566	0,0,0,0,0,0,1,2,3	to_hand	s640
489.794	0.444	0	PA_without_intermediate	2,0,0,3,0,0,1,0,0	test	ward_and_allport	2,0,0,3,1,0,0,0,0	89.0	41.0	0.444	0,0,0,0,0,0,1,2,3	to_board	s640
490.249	0.448	0	PA_without_intermediate	2,0,0,3,0,0,0,0,0	test	ward_and_allport	2,0,0,3,1,0,0,0,0	82.0	41.0	0.448	0,0,0,0,0,0,1,2,3	to_hand	s640
490.699	0.256	0	PA_without_intermediate	2,0,0,3,1,0,0,0,0	test	ward_and_allport	2,0,0,3,1,0,0,0,0	71.0	41.0	0.256	0,0,0,0,0,0,1,2,3	to_board	s640
490.97	1.0	0	PA_without_intermediate	n/a	test	ward_and_allport	n/a	-1.0	41.0	n/a	n/a	feedback	s640
491.97	1.272	0	PA_without_intermediate	n/a	test	ward_and_allport	n/a	-1.0	41.0	n/a	n/a	ITI	s640
493.253	3.133	1	PA_with_intermediate	1,2,0,0,0,0,0,0,0	test	ward_and_allport	1,3,0,0,0,0,2,0,0	89.0	42.0	3.133	1,2,3,0,0,0,0,0,0	to_hand	s640
496.388	0.304	0	PA_with_intermediate	1,2,0,3,0,0,0,0,0	test	ward_and_allport	1,3,0,0,0,0,2,0,0	71.0	42.0	0.304	1,2,3,0,0,0,0,0,0	to_board	s640
496.702	0.281	0	PA_with_intermediate	1,0,0,3,0,0,0,0,0	test	ward_and_allport	1,3,0,0,0,0,2,0,0	89.0	42.0	0.281	1,2,3,0,0,0,0,0,0	to_hand	s640
496.985	0.444	0	PA_with_intermediate	1,0,0,3,0,0,2,0,0	test	ward_and_allport	1,3,0,0,0,0,2,0,0	82.0	42.0	0.444	1,2,3,0,0,0,0,0,0	to_board	s640
497.439	0.391	0	PA_with_intermediate	1,0,0,0,0,0,2,0,0	test	ward_and_allport	1,3,0,0,0,0,2,0,0	71.0	42.0	0.391	1,2,3,0,0,0,0,0,0	to_hand	s640
497.832	0.246	0	PA_with_intermediate	1,3,0,0,0,0,2,0,0	test	ward_and_allport	1,3,0,0,0,0,2,0,0	89.0	42.0	0.246	1,2,3,0,0,0,0,0,0	to_board	s640
498.088	1.0	0	PA_with_intermediate	n/a	test	ward_and_allport	n/a	-1.0	42.0	n/a	n/a	feedback	s640
499.088	3.04	0	PA_with_intermediate	n/a	test	ward_and_allport	n/a	-1.0	42.0	n/a	n/a	ITI	s640
502.139	3.188	1	PA_with_intermediate	0,0,0,1,2,0,0,0,0	test	ward_and_allport	2,3,0,1,0,0,0,0,0	71.0	43.0	3.188	0,0,0,1,2,3,0,0,0	to_hand	s640
505.328	0.419	0	PA_with_intermediate	0,0,0,1,2,0,3,0,0	test	ward_and_allport	2,3,0,1,0,0,0,0,0	82.0	43.0	0.419	0,0,0,1,2,3,0,0,0	to_board	s640
505.757	0.418	0	PA_with_intermediate	0,0,0,1,0,0,3,0,0	test	ward_and_allport	2,3,0,1,0,0,0,0,0	71.0	43.0	0.418	0,0,0,1,2,3,0,0,0	to_hand	s640
506.176	0.331	0	PA_with_intermediate	2,0,0,1,0,0,3,0,0	test	ward_and_allport	2,3,0,1,0,0,0,0,0	89.0	43.0	0.331	0,0,0,1,2,3,0,0,0	to_board	s640
506.517	0.409	0	PA_with_intermediate	2,0,0,1,0,0,0,0,0	test	ward_and_allport	2,3,0,1,0,0,0,0,0	82.0	43.0	0.409	0,0,0,1,2,3,0,0,0	to_hand	s640
506.927	0.257	0	PA_with_intermediate	2,3,0,1,0,0,0,0,0	test	ward_and_allport	2,3,0,1,0,0,0,0,0	89.0	43.0	0.257	0,0,0,1,2,3,0,0,0	to_board	s640
507.198	1.0	0	PA_with_intermediate	n/a	test	ward_and_allport	n/a	-1.0	43.0	n/a	n/a	feedback	s640
508.198	1.272	0	PA_with_intermediate	n/a	test	ward_and_allport	n/a	-1.0	43.0	n/a	n/a	ITI	s640
509.48	5.888	1	PA_with_intermediate	1,2,0,0,0,0,0,0,0	test	ward_and_allport	1,3,0,0,0,0,2,0,0	89.0	44.0	5.888	1,2,3,0,0,0,0,0,0	to_hand	s640
515.37	0.37	0	PA_with_intermediate	1,2,0,3,0,0,0,0,0	test	ward_and_allport	1,3,0,0,0,0,2,0,0	71.0	44.0	0.37	1,2,3,0,0,0,0,0,0	to_board	s640
515.749	0.341	0	PA_with_intermediate	1,0,0,3,0,0,0,0,0	test	ward_and_allport	1,3,0,0,0,0,2,0,0	89.0	44.0	0.341	1,2,3,0,0,0,0,0,0	to_hand	s640
516.091	0.359	0	PA_with_intermediate	1,0,0,3,0,0,2,0,0	test	ward_and_allport	1,3,0,0,0,0,2,0,0	82.0	44.0	0.359	1,2,3,0,0,0,0,0,0	to_board	s640
516.461	1.195	0	PA_with_intermediate	1,0,0,0,0,0,2,0,0	test	ward_and_allport	1,3,0,0,0,0,2,0,0	71.0	44.0	1.195	1,2,3,0,0,0,0,0,0	to_hand	s640
517.657	0.22	0	PA_with_intermediate	1,3,0,0,0,0,2,0,0	test	ward_and_allport	1,3,0,0,0,0,2,0,0	89.0	44.0	0.22	1,2,3,0,0,0,0,0,0	to_board	s640
517.892	1.0	0	PA_with_intermediate	n/a	test	ward_and_allport	n/a	-1.0	44.0	n/a	n/a	feedback	s640
518.892	1.136	0	PA_with_intermediate	n/a	test	ward_and_allport	n/a	-1.0	44.0	n/a	n/a	ITI	s640
525.044	3.573	1	PA_with_intermediate	0,0,0,0,0,0,1,2,0	test	ward_and_allport	0,0,0,2,3,0,1,0,0	82.0	45.0	3.573	0,0,0,0,0,0,1,2,3	to_hand	s640
528.618	0.274	0	PA_with_intermediate	3,0,0,0,0,0,1,2,0	test	ward_and_allport	0,0,0,2,3,0,1,0,0	89.0	45.0	0.274	0,0,0,0,0,0,1,2,3	to_board	s640
528.905	0.832	0	PA_with_intermediate	3,0,0,0,0,0,1,0,0	test	ward_and_allport	0,0,0,2,3,0,1,0,0	82.0	45.0	0.832	0,0,0,0,0,0,1,2,3	to_hand	s640
529.739	0.29	0	PA_with_intermediate	3,0,0,2,0,0,1,0,0	test	ward_and_allport	0,0,0,2,3,0,1,0,0	71.0	45.0	0.29	0,0,0,0,0,0,1,2,3	to_board	s640
530.042	0.322	0	PA_with_intermediate	0,0,0,2,0,0,1,0,0	test	ward_and_allport	0,0,0,2,3,0,1,0,0	89.0	45.0	0.322	0,0,0,0,0,0,1,2,3	to_hand	s640
530.365	0.197	0	PA_with_intermediate	0,0,0,2,3,0,1,0,0	test	ward_and_allport	0,0,0,2,3,0,1,0,0	71.0	45.0	0.197	0,0,0,0,0,0,1,2,3	to_board	s640
530.577	1.0	0	PA_with_intermediate	n/a	test	ward_and_allport	n/a	-1.0	45.0	n/a	n/a	feedback	s640
531.577	1.0	0	PA_with_intermediate	n/a	test	ward_and_allport	n/a	-1.0	45.0	n/a	n/a	ITI	s640
532.588	3.899	1	PA_with_intermediate	0,0,0,1,2,0,0,0,0	test	ward_and_allport	0,0,0,1,3,0,2,0,0	71.0	46.0	3.899	0,0,0,1,2,3,0,0,0	to_hand	s640
536.489	0.323	0	PA_with_intermediate	3,0,0,1,2,0,0,0,0	test	ward_and_allport	0,0,0,1,3,0,2,0,0	89.0	46.0	0.323	0,0,0,1,2,3,0,0,0	to_board	s640
536.82	0.283	0	PA_with_intermediate	3,0,0,1,0,0,0,0,0	test	ward_and_allport	0,0,0,1,3,0,2,0,0	71.0	46.0	0.283	0,0,0,1,2,3,0,0,0	to_hand	s640
537.105	0.29	0	PA_with_intermediate	3,0,0,1,0,0,2,0,0	test	ward_and_allport	0,0,0,1,3,0,2,0,0	82.0	46.0	0.29	0,0,0,1,2,3,0,0,0	to_board	s640
537.405	0.253	0	PA_with_intermediate	0,0,0,1,0,0,2,0,0	test	ward_and_allport	0,0,0,1,3,0,2,0,0	89.0	46.0	0.253	0,0,0,1,2,3,0,0,0	to_hand	s640
537.66	0.618	0	PA_with_intermediate	0,0,0,1,3,0,2,0,0	test	ward_and_allport	0,0,0,1,3,0,2,0,0	71.0	46.0	0.618	0,0,0,1,2,3,0,0,0	to_board	s640
538.291	1.0	0	PA_with_intermediate	n/a	test	ward_and_allport	n/a	-1.0	46.0	n/a	n/a	feedback	s640
539.291	1.0	0	PA_with_intermediate	n/a	test	ward_and_allport	n/a	-1.0	46.0	n/a	n/a	ITI	s640
540.299	5.166	1	PA_without_intermediate	0,0,0,0,0,0,1,2,0	test	ward_and_allport	1,0,0,3,2,0,0,0,0	82.0	47.0	5.166	0,0,0,0,0,0,1,2,3	to_hand	s640
545.466	0.412	0	PA_without_intermediate	0,0,0,3,0,0,1,2,0	test	ward_and_allport	1,0,0,3,2,0,0,0,0	71.0	47.0	0.412	0,0,0,0,0,0,1,2,3	to_board	s640
545.887	0.668	0	PA_without_intermediate	0,0,0,3,0,0,1,0,0	test	ward_and_allport	1,0,0,3,2,0,0,0,0	82.0	47.0	0.668	0,0,0,0,0,0,1,2,3	to_hand	s640
546.557	0.453	0	PA_without_intermediate	0,0,0,3,2,0,1,0,0	test	ward_and_allport	1,0,0,3,2,0,0,0,0	71.0	47.0	0.453	0,0,0,0,0,0,1,2,3	to_board	s640
547.02	0.324	0	PA_without_intermediate	0,0,0,3,2,0,0,0,0	test	ward_and_allport	1,0,0,3,2,0,0,0,0	82.0	47.0	0.324	0,0,0,0,0,0,1,2,3	to_hand	s640
547.345	0.257	0	PA_without_intermediate	1,0,0,3,2,0,0,0,0	test	ward_and_allport	1,0,0,3,2,0,0,0,0	89.0	47.0	0.257	0,0,0,0,0,0,1,2,3	to_board	s640
547.617	1.0	0	PA_without_intermediate	n/a	test	ward_and_allport	n/a	-1.0	47.0	n/a	n/a	feedback	s640
548.617	1.408	0	PA_without_intermediate	n/a	test	ward_and_allport	n/a	-1.0	47.0	n/a	n/a	ITI	s640
n/a	n/a	0	n/a	n/a	n/a	n/a	n/a	n/a	n/a	n/a	n/a	ITI	n/a
