onset	duration	correct	correct_response	cue	experiment_exp_id	flanker_location	flanker_middle_direction	flanker_type	key_press	response_time	trial_id	worker_id
3.012	0.1	n/a	n/a	double	attention_network_task	n/a	n/a	n/a	-1	n/a	doublecue	s604
3.522864	1.7	1.0	89.0	n/a	attention_network_task	up	left	congruent	89	0.625	stim	s604
5.627	0.1	n/a	n/a	double	attention_network_task	n/a	n/a	n/a	-1	n/a	doublecue	s604
6.131	1.7	1.0	71.0	n/a	attention_network_task	up	right	incongruent	71	0.608	stim	s604
8.237	0.1	n/a	n/a	spatial	attention_network_task	n/a	n/a	n/a	-1	n/a	spatialcue	s604
8.745	1.7	1.0	89.0	n/a	attention_network_task	down	left	congruent	89	0.664	stim	s604
10.846	0.1	n/a	n/a	double	attention_network_task	n/a	n/a	n/a	-1	n/a	doublecue	s604
11.352592000000001	1.7	1.0	89.0	n/a	attention_network_task	down	left	congruent	89	0.686	stim	s604
13.457	0.1	n/a	n/a	double	attention_network_task	n/a	n/a	n/a	-1	n/a	doublecue	s604
13.960456	1.7	1.0	71.0	n/a	attention_network_task	up	right	congruent	71	0.484	stim	s604
16.066	0.1	n/a	n/a	spatial	attention_network_task	n/a	n/a	n/a	-1	n/a	spatialcue	s604
16.573592	1.7	1.0	71.0	n/a	attention_network_task	up	right	incongruent	71	0.639	stim	s604
18.676	0.1	n/a	n/a	spatial	attention_network_task	n/a	n/a	n/a	-1	n/a	spatialcue	s604
19.185	1.7	1.0	71.0	n/a	attention_network_task	up	right	congruent	71	0.576	stim	s604
21.289	0.1	n/a	n/a	double	attention_network_task	n/a	n/a	n/a	-1	n/a	doublecue	s604
21.795592	1.7	1.0	71.0	n/a	attention_network_task	up	right	congruent	71	0.58	stim	s604
23.9	0.1	n/a	n/a	spatial	attention_network_task	n/a	n/a	n/a	-1	n/a	spatialcue	s604
24.404	1.7	1.0	89.0	n/a	attention_network_task	down	left	congruent	89	0.831	stim	s604
26.505	0.1	n/a	n/a	spatial	attention_network_task	n/a	n/a	n/a	-1	n/a	spatialcue	s604
27.012592	1.7	1.0	71.0	n/a	attention_network_task	up	right	congruent	71	0.611	stim	s604
29.116	0.1	n/a	n/a	spatial	attention_network_task	n/a	n/a	n/a	-1	n/a	spatialcue	s604
29.62	1.7	1.0	89.0	n/a	attention_network_task	down	left	incongruent	89	0.708	stim	s604
31.721	0.1	n/a	n/a	spatial	attention_network_task	n/a	n/a	n/a	-1	n/a	spatialcue	s604
32.227	1.7	1.0	89.0	n/a	attention_network_task	down	left	incongruent	89	0.656	stim	s604
34.332	0.1	n/a	n/a	spatial	attention_network_task	n/a	n/a	n/a	-1	n/a	spatialcue	s604
34.836591999999996	1.7	1.0	89.0	n/a	attention_network_task	up	left	incongruent	89	0.593	stim	s604
36.941	0.1	n/a	n/a	spatial	attention_network_task	n/a	n/a	n/a	-1	n/a	spatialcue	s604
37.443864000000005	1.7	1.0	71.0	n/a	attention_network_task	up	right	incongruent	71	0.668	stim	s604
39.548	0.1	n/a	n/a	double	attention_network_task	n/a	n/a	n/a	-1	n/a	doublecue	s604
40.051728000000004	1.7	1.0	89.0	n/a	attention_network_task	down	left	incongruent	89	0.697	stim	s604
42.155	0.1	n/a	n/a	double	attention_network_task	n/a	n/a	n/a	-1	n/a	doublecue	s604
42.660455999999996	1.7	1.0	89.0	n/a	attention_network_task	up	left	incongruent	89	0.592	stim	s604
44.765	0.1	n/a	n/a	spatial	attention_network_task	n/a	n/a	n/a	-1	n/a	spatialcue	s604
45.272728	1.7	1.0	71.0	n/a	attention_network_task	down	right	incongruent	71	0.791	stim	s604
47.374	0.1	n/a	n/a	spatial	attention_network_task	n/a	n/a	n/a	-1	n/a	spatialcue	s604
47.881	1.7	1.0	89.0	n/a	attention_network_task	up	left	incongruent	89	0.63	stim	s604
49.985	0.1	n/a	n/a	spatial	attention_network_task	n/a	n/a	n/a	-1	n/a	spatialcue	s604
50.490592	1.7	1.0	71.0	n/a	attention_network_task	down	right	incongruent	71	0.59	stim	s604
52.597	0.1	n/a	n/a	spatial	attention_network_task	n/a	n/a	n/a	-1	n/a	spatialcue	s604
53.106	1.7	1.0	89.0	n/a	attention_network_task	up	left	congruent	89	0.497	stim	s604
55.211	0.1	n/a	n/a	double	attention_network_task	n/a	n/a	n/a	-1	n/a	doublecue	s604
55.715	1.7	1.0	71.0	n/a	attention_network_task	down	right	congruent	71	0.567	stim	s604
57.817	0.1	n/a	n/a	double	attention_network_task	n/a	n/a	n/a	-1	n/a	doublecue	s604
58.322455999999995	1.7	1.0	71.0	n/a	attention_network_task	up	right	incongruent	71	0.602	stim	s604
60.425	0.1	n/a	n/a	spatial	attention_network_task	n/a	n/a	n/a	-1	n/a	spatialcue	s604
60.931591999999995	1.7	1.0	89.0	n/a	attention_network_task	up	left	congruent	89	0.631	stim	s604
63.035	0.1	n/a	n/a	spatial	attention_network_task	n/a	n/a	n/a	-1	n/a	spatialcue	s604
63.54	1.7	1.0	71.0	n/a	attention_network_task	up	right	congruent	71	0.575	stim	s604
65.647	0.1	n/a	n/a	spatial	attention_network_task	n/a	n/a	n/a	-1	n/a	spatialcue	s604
66.15286400000001	1.7	1.0	71.0	n/a	attention_network_task	down	right	congruent	71	0.547	stim	s604
68.257	0.1	n/a	n/a	spatial	attention_network_task	n/a	n/a	n/a	-1	n/a	spatialcue	s604
68.760184	1.7	1.0	71.0	n/a	attention_network_task	up	right	incongruent	71	0.525	stim	s604
70.865	0.1	n/a	n/a	double	attention_network_task	n/a	n/a	n/a	-1	n/a	doublecue	s604
71.371864	1.7	1.0	71.0	n/a	attention_network_task	down	right	congruent	71	0.558	stim	s604
73.476	0.1	n/a	n/a	spatial	attention_network_task	n/a	n/a	n/a	-1	n/a	spatialcue	s604
73.985	1.7	1.0	71.0	n/a	attention_network_task	up	right	congruent	71	0.574	stim	s604
76.089	0.1	n/a	n/a	double	attention_network_task	n/a	n/a	n/a	-1	n/a	doublecue	s604
76.595864	1.7	1.0	89.0	n/a	attention_network_task	up	left	incongruent	89	0.689	stim	s604
78.697	0.1	n/a	n/a	spatial	attention_network_task	n/a	n/a	n/a	-1	n/a	spatialcue	s604
79.207864	1.7	1.0	71.0	n/a	attention_network_task	down	right	incongruent	71	0.701	stim	s604
81.313	0.1	n/a	n/a	double	attention_network_task	n/a	n/a	n/a	-1	n/a	doublecue	s604
81.816864	1.7	1.0	71.0	n/a	attention_network_task	down	right	incongruent	71	0.794	stim	s604
83.919	0.1	n/a	n/a	spatial	attention_network_task	n/a	n/a	n/a	-1	n/a	spatialcue	s604
84.429456	1.7	1.0	71.0	n/a	attention_network_task	up	right	congruent	71	0.525	stim	s604
86.534	0.1	n/a	n/a	spatial	attention_network_task	n/a	n/a	n/a	-1	n/a	spatialcue	s604
87.038	1.7	1.0	89.0	n/a	attention_network_task	up	left	congruent	89	0.528	stim	s604
89.142	0.1	n/a	n/a	double	attention_network_task	n/a	n/a	n/a	-1	n/a	doublecue	s604
89.645728	1.7	1.0	89.0	n/a	attention_network_task	up	left	incongruent	89	0.529	stim	s604
91.751	0.1	n/a	n/a	spatial	attention_network_task	n/a	n/a	n/a	-1	n/a	spatialcue	s604
92.254	1.7	1.0	89.0	n/a	attention_network_task	down	left	congruent	89	0.547	stim	s604
94.358	0.1	n/a	n/a	spatial	attention_network_task	n/a	n/a	n/a	-1	n/a	spatialcue	s604
94.861864	1.7	1.0	89.0	n/a	attention_network_task	down	left	congruent	89	0.666	stim	s604
96.968	0.1	n/a	n/a	double	attention_network_task	n/a	n/a	n/a	-1	n/a	doublecue	s604
97.477592	1.7	1.0	89.0	n/a	attention_network_task	down	left	incongruent	89	0.7	stim	s604
99.582	0.1	n/a	n/a	double	attention_network_task	n/a	n/a	n/a	-1	n/a	doublecue	s604
100.08845600000001	1.7	1.0	89.0	n/a	attention_network_task	up	left	congruent	89	0.693	stim	s604
102.196	0.1	n/a	n/a	double	attention_network_task	n/a	n/a	n/a	-1	n/a	doublecue	s604
102.702	1.7	1.0	89.0	n/a	attention_network_task	up	left	incongruent	89	0.619	stim	s604
104.806	0.1	n/a	n/a	spatial	attention_network_task	n/a	n/a	n/a	-1	n/a	spatialcue	s604
105.309864	1.7	1.0	89.0	n/a	attention_network_task	down	left	incongruent	89	0.635	stim	s604
107.414	0.1	n/a	n/a	double	attention_network_task	n/a	n/a	n/a	-1	n/a	doublecue	s604
107.917864	1.7	1.0	71.0	n/a	attention_network_task	up	right	incongruent	71	0.57	stim	s604
110.022	0.1	n/a	n/a	spatial	attention_network_task	n/a	n/a	n/a	-1	n/a	spatialcue	s604
110.525864	1.7	1.0	89.0	n/a	attention_network_task	down	left	incongruent	89	0.631	stim	s604
112.628	0.1	n/a	n/a	double	attention_network_task	n/a	n/a	n/a	-1	n/a	doublecue	s604
113.133864	1.7	1.0	89.0	n/a	attention_network_task	down	left	congruent	89	0.739	stim	s604
115.238	0.1	n/a	n/a	spatial	attention_network_task	n/a	n/a	n/a	-1	n/a	spatialcue	s604
115.74172800000001	1.7	1.0	71.0	n/a	attention_network_task	up	right	incongruent	71	0.664	stim	s604
117.844	0.1	n/a	n/a	spatial	attention_network_task	n/a	n/a	n/a	-1	n/a	spatialcue	s604
118.348864	1.7	1.0	71.0	n/a	attention_network_task	down	right	incongruent	71	0.631	stim	s604
120.453	0.1	n/a	n/a	spatial	attention_network_task	n/a	n/a	n/a	-1	n/a	spatialcue	s604
120.957592	1.7	1.0	71.0	n/a	attention_network_task	down	right	incongruent	71	0.745	stim	s604
123.062	0.1	n/a	n/a	double	attention_network_task	n/a	n/a	n/a	-1	n/a	doublecue	s604
123.568	1.7	1.0	71.0	n/a	attention_network_task	down	right	incongruent	71	0.62	stim	s604
125.673	0.1	n/a	n/a	double	attention_network_task	n/a	n/a	n/a	-1	n/a	doublecue	s604
126.179864	1.7	1.0	71.0	n/a	attention_network_task	up	right	congruent	71	0.578	stim	s604
128.284	0.1	n/a	n/a	spatial	attention_network_task	n/a	n/a	n/a	-1	n/a	spatialcue	s604
128.791	1.7	1.0	71.0	n/a	attention_network_task	down	right	congruent	71	0.619	stim	s604
130.896	0.1	n/a	n/a	double	attention_network_task	n/a	n/a	n/a	-1	n/a	doublecue	s604
131.400864	1.7	1.0	71.0	n/a	attention_network_task	down	right	incongruent	71	0.61	stim	s604
133.507	0.1	n/a	n/a	spatial	attention_network_task	n/a	n/a	n/a	-1	n/a	spatialcue	s604
134.013048	1.7	1.0	71.0	n/a	attention_network_task	down	right	congruent	71	0.521	stim	s604
136.119	0.1	n/a	n/a	double	attention_network_task	n/a	n/a	n/a	-1	n/a	doublecue	s604
136.621728	1.7	1.0	89.0	n/a	attention_network_task	down	left	congruent	89	0.705	stim	s604
138.724	0.1	n/a	n/a	double	attention_network_task	n/a	n/a	n/a	-1	n/a	doublecue	s604
139.230864	1.7	1.0	89.0	n/a	attention_network_task	up	left	congruent	89	0.557	stim	s604
141.335	0.1	n/a	n/a	double	attention_network_task	n/a	n/a	n/a	-1	n/a	doublecue	s604
141.838	1.7	1.0	89.0	n/a	attention_network_task	down	left	incongruent	89	0.693	stim	s604
143.942	0.1	n/a	n/a	spatial	attention_network_task	n/a	n/a	n/a	-1	n/a	spatialcue	s604
144.44886400000001	1.7	1.0	71.0	n/a	attention_network_task	up	right	incongruent	71	0.664	stim	s604
146.553	0.1	n/a	n/a	double	attention_network_task	n/a	n/a	n/a	-1	n/a	doublecue	s604
147.06	1.7	1.0	89.0	n/a	attention_network_task	up	left	congruent	89	0.655	stim	s604
149.164	0.1	n/a	n/a	spatial	attention_network_task	n/a	n/a	n/a	-1	n/a	spatialcue	s604
149.667864	1.7	1.0	89.0	n/a	attention_network_task	up	left	incongruent	89	0.533	stim	s604
151.772	0.1	n/a	n/a	double	attention_network_task	n/a	n/a	n/a	-1	n/a	doublecue	s604
152.27572800000002	1.7	1.0	71.0	n/a	attention_network_task	down	right	incongruent	71	0.679	stim	s604
154.377	0.1	n/a	n/a	spatial	attention_network_task	n/a	n/a	n/a	-1	n/a	spatialcue	s604
154.887728	1.7	1.0	71.0	n/a	attention_network_task	up	right	incongruent	71	0.79	stim	s604
156.992	0.1	n/a	n/a	double	attention_network_task	n/a	n/a	n/a	-1	n/a	doublecue	s604
157.496864	1.7	1.0	71.0	n/a	attention_network_task	up	right	congruent	71	0.508	stim	s604
159.601	0.1	n/a	n/a	double	attention_network_task	n/a	n/a	n/a	-1	n/a	doublecue	s604
160.105	1.7	1.0	89.0	n/a	attention_network_task	up	left	incongruent	89	0.473	stim	s604
162.212	0.1	n/a	n/a	double	attention_network_task	n/a	n/a	n/a	-1	n/a	doublecue	s604
162.717864	1.7	1.0	89.0	n/a	attention_network_task	down	left	incongruent	89	0.491	stim	s604
164.822	0.1	n/a	n/a	spatial	attention_network_task	n/a	n/a	n/a	-1	n/a	spatialcue	s604
165.326	1.7	1.0	71.0	n/a	attention_network_task	down	right	congruent	71	0.548	stim	s604
167.433	0.1	n/a	n/a	double	attention_network_task	n/a	n/a	n/a	-1	n/a	doublecue	s604
167.939728	1.7	1.0	71.0	n/a	attention_network_task	up	right	congruent	71	0.511	stim	s604
180.553	0.1	n/a	n/a	spatial	attention_network_task	n/a	n/a	n/a	-1	n/a	spatialcue	s604
181.059	1.7	1.0	89.0	n/a	attention_network_task	up	left	incongruent	89	0.561	stim	s604
183.164	0.1	n/a	n/a	spatial	attention_network_task	n/a	n/a	n/a	-1	n/a	spatialcue	s604
183.671	1.7	1.0	89.0	n/a	attention_network_task	down	left	incongruent	89	0.569	stim	s604
185.774	0.1	n/a	n/a	spatial	attention_network_task	n/a	n/a	n/a	-1	n/a	spatialcue	s604
186.277864	1.7	1.0	89.0	n/a	attention_network_task	up	left	congruent	89	0.508	stim	s604
188.382	0.1	n/a	n/a	spatial	attention_network_task	n/a	n/a	n/a	-1	n/a	spatialcue	s604
188.88872800000001	1.7	1.0	89.0	n/a	attention_network_task	up	left	congruent	89	0.496	stim	s604
190.992	0.1	n/a	n/a	double	attention_network_task	n/a	n/a	n/a	-1	n/a	doublecue	s604
191.496592	1.7	1.0	89.0	n/a	attention_network_task	down	left	incongruent	89	0.534	stim	s604
193.6	0.1	n/a	n/a	double	attention_network_task	n/a	n/a	n/a	-1	n/a	doublecue	s604
194.105	1.7	1.0	71.0	n/a	attention_network_task	up	right	congruent	71	0.498	stim	s604
196.209	0.1	n/a	n/a	double	attention_network_task	n/a	n/a	n/a	-1	n/a	doublecue	s604
196.712864	1.7	1.0	71.0	n/a	attention_network_task	down	right	congruent	71	0.45	stim	s604
198.817	0.1	n/a	n/a	spatial	attention_network_task	n/a	n/a	n/a	-1	n/a	spatialcue	s604
199.320864	1.7	1.0	71.0	n/a	attention_network_task	down	right	congruent	71	0.493	stim	s604
201.427	0.1	n/a	n/a	double	attention_network_task	n/a	n/a	n/a	-1	n/a	doublecue	s604
201.934	1.7	1.0	89.0	n/a	attention_network_task	down	left	congruent	89	0.623	stim	s604
204.038	0.1	n/a	n/a	double	attention_network_task	n/a	n/a	n/a	-1	n/a	doublecue	s604
204.545592	1.7	1.0	71.0	n/a	attention_network_task	up	right	incongruent	71	0.507	stim	s604
206.65	0.1	n/a	n/a	spatial	attention_network_task	n/a	n/a	n/a	-1	n/a	spatialcue	s604
207.154456	1.7	1.0	71.0	n/a	attention_network_task	down	right	congruent	71	0.489	stim	s604
209.259	0.1	n/a	n/a	spatial	attention_network_task	n/a	n/a	n/a	-1	n/a	spatialcue	s604
209.763864	1.7	1.0	71.0	n/a	attention_network_task	up	right	congruent	71	0.46	stim	s604
211.867	0.1	n/a	n/a	spatial	attention_network_task	n/a	n/a	n/a	-1	n/a	spatialcue	s604
212.375864	1.7	1.0	89.0	n/a	attention_network_task	down	left	congruent	89	0.425	stim	s604
214.48	0.1	n/a	n/a	spatial	attention_network_task	n/a	n/a	n/a	-1	n/a	spatialcue	s604
214.985	1.7	1.0	71.0	n/a	attention_network_task	down	right	incongruent	71	0.556	stim	s604
217.091	0.1	n/a	n/a	double	attention_network_task	n/a	n/a	n/a	-1	n/a	doublecue	s604
217.598	1.7	1.0	89.0	n/a	attention_network_task	down	left	congruent	89	0.613	stim	s604
219.699	0.1	n/a	n/a	double	attention_network_task	n/a	n/a	n/a	-1	n/a	doublecue	s604
220.205864	1.7	1.0	89.0	n/a	attention_network_task	down	left	congruent	89	0.533	stim	s604
222.311	0.1	n/a	n/a	double	attention_network_task	n/a	n/a	n/a	-1	n/a	doublecue	s604
222.814	1.7	1.0	71.0	n/a	attention_network_task	down	right	congruent	71	0.54	stim	s604
224.918	0.1	n/a	n/a	double	attention_network_task	n/a	n/a	n/a	-1	n/a	doublecue	s604
225.425864	1.7	1.0	71.0	n/a	attention_network_task	down	right	congruent	71	0.533	stim	s604
227.53	0.1	n/a	n/a	double	attention_network_task	n/a	n/a	n/a	-1	n/a	doublecue	s604
228.036	1.7	1.0	89.0	n/a	attention_network_task	up	left	congruent	89	0.613	stim	s604
230.137	0.1	n/a	n/a	spatial	attention_network_task	n/a	n/a	n/a	-1	n/a	spatialcue	s604
230.643592	1.7	1.0	71.0	n/a	attention_network_task	down	right	congruent	71	0.442	stim	s604
232.748	0.1	n/a	n/a	spatial	attention_network_task	n/a	n/a	n/a	-1	n/a	spatialcue	s604
233.254	1.7	1.0	89.0	n/a	attention_network_task	up	left	incongruent	89	0.634	stim	s604
235.358	0.1	n/a	n/a	double	attention_network_task	n/a	n/a	n/a	-1	n/a	doublecue	s604
235.864184	1.7	1.0	71.0	n/a	attention_network_task	down	right	incongruent	71	0.587	stim	s604
237.969	0.1	n/a	n/a	spatial	attention_network_task	n/a	n/a	n/a	-1	n/a	spatialcue	s604
238.47732000000002	1.7	1.0	71.0	n/a	attention_network_task	up	right	congruent	71	0.541	stim	s604
240.582	0.1	n/a	n/a	spatial	attention_network_task	n/a	n/a	n/a	-1	n/a	spatialcue	s604
241.086	1.7	1.0	89.0	n/a	attention_network_task	up	left	congruent	89	0.632	stim	s604
243.188	0.1	n/a	n/a	spatial	attention_network_task	n/a	n/a	n/a	-1	n/a	spatialcue	s604
243.696864	1.7	1.0	71.0	n/a	attention_network_task	up	right	congruent	71	0.625	stim	s604
245.801	0.1	n/a	n/a	double	attention_network_task	n/a	n/a	n/a	-1	n/a	doublecue	s604
246.307864	1.7	1.0	89.0	n/a	attention_network_task	up	left	incongruent	89	0.649	stim	s604
248.409	0.1	n/a	n/a	double	attention_network_task	n/a	n/a	n/a	-1	n/a	doublecue	s604
248.916864	1.7	1.0	71.0	n/a	attention_network_task	up	right	incongruent	71	0.609	stim	s604
251.021	0.1	n/a	n/a	double	attention_network_task	n/a	n/a	n/a	-1	n/a	doublecue	s604
251.524	1.7	1.0	71.0	n/a	attention_network_task	up	right	incongruent	71	0.641	stim	s604
253.628	0.1	n/a	n/a	spatial	attention_network_task	n/a	n/a	n/a	-1	n/a	spatialcue	s604
254.133864	1.7	1.0	89.0	n/a	attention_network_task	down	left	incongruent	89	0.725	stim	s604
256.238	0.1	n/a	n/a	spatial	attention_network_task	n/a	n/a	n/a	-1	n/a	spatialcue	s604
256.744048	1.7	1.0	89.0	n/a	attention_network_task	up	left	incongruent	89	1.286	stim	s604
258.849	0.1	n/a	n/a	double	attention_network_task	n/a	n/a	n/a	-1	n/a	doublecue	s604
259.352864	1.7	1.0	89.0	n/a	attention_network_task	up	left	incongruent	89	0.585	stim	s604
261.457	0.1	n/a	n/a	double	attention_network_task	n/a	n/a	n/a	-1	n/a	doublecue	s604
261.960592	1.7	1.0	89.0	n/a	attention_network_task	down	left	incongruent	89	0.534	stim	s604
264.065	0.1	n/a	n/a	spatial	attention_network_task	n/a	n/a	n/a	-1	n/a	spatialcue	s604
264.56804800000003	1.7	1.0	89.0	n/a	attention_network_task	up	left	incongruent	89	0.459	stim	s604
266.673	0.1	n/a	n/a	double	attention_network_task	n/a	n/a	n/a	-1	n/a	doublecue	s604
267.176864	1.7	1.0	89.0	n/a	attention_network_task	down	left	incongruent	89	0.502	stim	s604
269.281	0.1	n/a	n/a	double	attention_network_task	n/a	n/a	n/a	-1	n/a	doublecue	s604
269.78472800000003	1.7	1.0	89.0	n/a	attention_network_task	down	left	incongruent	89	0.524	stim	s604
271.888	0.1	n/a	n/a	double	attention_network_task	n/a	n/a	n/a	-1	n/a	doublecue	s604
272.39772800000003	1.7	1.0	71.0	n/a	attention_network_task	up	right	incongruent	71	0.563	stim	s604
274.502	0.1	n/a	n/a	double	attention_network_task	n/a	n/a	n/a	-1	n/a	doublecue	s604
275.012	1.7	1.0	71.0	n/a	attention_network_task	down	right	congruent	71	0.402	stim	s604
277.116	0.1	n/a	n/a	spatial	attention_network_task	n/a	n/a	n/a	-1	n/a	spatialcue	s604
277.622	1.7	1.0	71.0	n/a	attention_network_task	down	right	incongruent	71	0.455	stim	s604
279.726	0.1	n/a	n/a	spatial	attention_network_task	n/a	n/a	n/a	-1	n/a	spatialcue	s604
280.234728	1.7	1.0	89.0	n/a	attention_network_task	up	left	congruent	89	0.573	stim	s604
282.338	0.1	n/a	n/a	spatial	attention_network_task	n/a	n/a	n/a	-1	n/a	spatialcue	s604
282.841	1.7	1.0	71.0	n/a	attention_network_task	down	right	congruent	71	0.503	stim	s604
284.946	0.1	n/a	n/a	spatial	attention_network_task	n/a	n/a	n/a	-1	n/a	spatialcue	s604
285.454	1.7	1.0	89.0	n/a	attention_network_task	up	left	incongruent	89	0.493	stim	s604
287.556	0.1	n/a	n/a	double	attention_network_task	n/a	n/a	n/a	-1	n/a	doublecue	s604
288.061728	1.7	1.0	71.0	n/a	attention_network_task	down	right	congruent	71	0.611	stim	s604
290.166	0.1	n/a	n/a	spatial	attention_network_task	n/a	n/a	n/a	-1	n/a	spatialcue	s604
290.67	1.7	1.0	71.0	n/a	attention_network_task	up	right	incongruent	71	0.457	stim	s604
292.774	0.1	n/a	n/a	spatial	attention_network_task	n/a	n/a	n/a	-1	n/a	spatialcue	s604
293.277864	1.7	1.0	89.0	n/a	attention_network_task	up	left	congruent	89	0.679	stim	s604
295.38	0.1	n/a	n/a	spatial	attention_network_task	n/a	n/a	n/a	-1	n/a	spatialcue	s604
295.88572800000003	1.7	1.0	89.0	n/a	attention_network_task	down	left	congruent	89	0.561	stim	s604
297.99	0.1	n/a	n/a	spatial	attention_network_task	n/a	n/a	n/a	-1	n/a	spatialcue	s604
298.494	1.7	1.0	89.0	n/a	attention_network_task	down	left	congruent	89	0.928	stim	s604
300.598	0.1	n/a	n/a	double	attention_network_task	n/a	n/a	n/a	-1	n/a	doublecue	s604
301.107	1.7	1.0	71.0	n/a	attention_network_task	down	right	incongruent	71	0.53	stim	s604
303.212	0.1	n/a	n/a	double	attention_network_task	n/a	n/a	n/a	-1	n/a	doublecue	s604
303.716	1.7	1.0	71.0	n/a	attention_network_task	down	right	congruent	71	0.407	stim	s604
305.817	0.1	n/a	n/a	spatial	attention_network_task	n/a	n/a	n/a	-1	n/a	spatialcue	s604
306.324	1.7	1.0	89.0	n/a	attention_network_task	down	left	incongruent	89	0.578	stim	s604
308.429	0.1	n/a	n/a	double	attention_network_task	n/a	n/a	n/a	-1	n/a	doublecue	s604
308.937	1.7	1.0	89.0	n/a	attention_network_task	up	left	congruent	89	0.59	stim	s604
311.042	0.1	n/a	n/a	spatial	attention_network_task	n/a	n/a	n/a	-1	n/a	spatialcue	s604
311.545	1.7	1.0	71.0	n/a	attention_network_task	down	right	incongruent	71	0.63	stim	s604
313.646	0.1	n/a	n/a	double	attention_network_task	n/a	n/a	n/a	-1	n/a	doublecue	s604
314.152728	1.7	1.0	89.0	n/a	attention_network_task	up	left	congruent	89	0.604	stim	s604
316.257	0.1	n/a	n/a	double	attention_network_task	n/a	n/a	n/a	-1	n/a	doublecue	s604
316.760864	1.7	1.0	71.0	n/a	attention_network_task	down	right	incongruent	71	0.395	stim	s604
318.865	0.1	n/a	n/a	double	attention_network_task	n/a	n/a	n/a	-1	n/a	doublecue	s604
319.369912	1.7	1.0	71.0	n/a	attention_network_task	up	right	incongruent	71	0.777	stim	s604
321.476	0.1	n/a	n/a	spatial	attention_network_task	n/a	n/a	n/a	-1	n/a	spatialcue	s604
321.981728	1.7	1.0	89.0	n/a	attention_network_task	down	left	congruent	89	0.549	stim	s604
324.086	0.1	n/a	n/a	spatial	attention_network_task	n/a	n/a	n/a	-1	n/a	spatialcue	s604
324.591864	1.7	1.0	71.0	n/a	attention_network_task	down	right	congruent	71	0.489	stim	s604
326.696	0.1	n/a	n/a	double	attention_network_task	n/a	n/a	n/a	-1	n/a	doublecue	s604
327.20786400000003	1.7	1.0	71.0	n/a	attention_network_task	up	right	congruent	71	0.45	stim	s604
329.313	0.1	n/a	n/a	double	attention_network_task	n/a	n/a	n/a	-1	n/a	doublecue	s604
329.817	1.7	1.0	89.0	n/a	attention_network_task	down	left	congruent	89	0.599	stim	s604
331.918	0.1	n/a	n/a	spatial	attention_network_task	n/a	n/a	n/a	-1	n/a	spatialcue	s604
332.425	1.7	1.0	89.0	n/a	attention_network_task	down	left	incongruent	89	0.669	stim	s604
334.529	0.1	n/a	n/a	spatial	attention_network_task	n/a	n/a	n/a	-1	n/a	spatialcue	s604
335.033	1.7	1.0	89.0	n/a	attention_network_task	down	left	congruent	89	0.445	stim	s604
337.137	0.1	n/a	n/a	double	attention_network_task	n/a	n/a	n/a	-1	n/a	doublecue	s604
337.641	1.7	1.0	71.0	n/a	attention_network_task	down	right	incongruent	71	0.59	stim	s604
339.742	0.1	n/a	n/a	spatial	attention_network_task	n/a	n/a	n/a	-1	n/a	spatialcue	s604
340.248864	1.7	1.0	71.0	n/a	attention_network_task	up	right	incongruent	71	0.584	stim	s604
342.353	0.1	n/a	n/a	double	attention_network_task	n/a	n/a	n/a	-1	n/a	doublecue	s604
342.856728	1.7	1.0	89.0	n/a	attention_network_task	up	left	incongruent	89	0.528	stim	s604
344.961	0.1	n/a	n/a	spatial	attention_network_task	n/a	n/a	n/a	-1	n/a	spatialcue	s604
345.464864	1.7	1.0	89.0	n/a	attention_network_task	down	left	congruent	89	0.563	stim	s604
