onset	duration	planning	condition	current_position	exp_stage	experiment_exp_id	goal_state	key_press	problem_id	response_time	start_state	trial_id	worker_id
-71.305	0.0	0	n/a	n/a	n/a	ward_and_allport	n/a	32.0	n/a	10.579	n/a	instructions	s604
3.015	6.031	1	UA_with_intermediate	1,0,0,2,0,0,0,0,0	practice	ward_and_allport	1,2,3,0,0,0,0,0,0	71.0	0.0	6.031	1,0,0,2,3,0,0,0,0	to_hand	s604
9.047	0.673	0	UA_with_intermediate	1,0,0,2,0,0,3,0,0	practice	ward_and_allport	1,2,3,0,0,0,0,0,0	82.0	0.0	0.673	1,0,0,2,3,0,0,0,0	to_board	s604
9.722	0.693	0	UA_with_intermediate	1,0,0,0,0,0,3,0,0	practice	ward_and_allport	1,2,3,0,0,0,0,0,0	71.0	0.0	0.693	1,0,0,2,3,0,0,0,0	to_hand	s604
10.416	0.591	0	UA_with_intermediate	1,2,0,0,0,0,3,0,0	practice	ward_and_allport	1,2,3,0,0,0,0,0,0	89.0	0.0	0.591	1,0,0,2,3,0,0,0,0	to_board	s604
11.008	0.599	0	UA_with_intermediate	1,2,0,0,0,0,0,0,0	practice	ward_and_allport	1,2,3,0,0,0,0,0,0	82.0	0.0	0.599	1,0,0,2,3,0,0,0,0	to_hand	s604
11.607	0.421	0	UA_with_intermediate	1,2,3,0,0,0,0,0,0	practice	ward_and_allport	1,2,3,0,0,0,0,0,0	89.0	0.0	0.421	1,0,0,2,3,0,0,0,0	to_board	s604
12.031	1.0	0	UA_with_intermediate	n/a	practice	ward_and_allport	n/a	-1.0	0.0	n/a	n/a	feedback	s604
14.533	3.345	1	UA_with_intermediate	1,0,0,3,0,0,0,0,0	practice	ward_and_allport	1,3,2,0,0,0,0,0,0	89.0	1.0	3.345	1,2,0,3,0,0,0,0,0	to_hand	s604
17.879	1.107	0	UA_with_intermediate	1,0,0,3,0,0,2,0,0	practice	ward_and_allport	1,3,2,0,0,0,0,0,0	82.0	1.0	1.107	1,2,0,3,0,0,0,0,0	to_board	s604
18.987	0.529	0	UA_with_intermediate	1,0,0,0,0,0,2,0,0	practice	ward_and_allport	1,3,2,0,0,0,0,0,0	71.0	1.0	0.529	1,2,0,3,0,0,0,0,0	to_hand	s604
19.517	0.402	0	UA_with_intermediate	1,3,0,0,0,0,2,0,0	practice	ward_and_allport	1,3,2,0,0,0,0,0,0	89.0	1.0	0.402	1,2,0,3,0,0,0,0,0	to_board	s604
19.92	0.435	0	UA_with_intermediate	1,3,0,0,0,0,0,0,0	practice	ward_and_allport	1,3,2,0,0,0,0,0,0	82.0	1.0	0.435	1,2,0,3,0,0,0,0,0	to_hand	s604
20.356	0.465	0	UA_with_intermediate	1,3,2,0,0,0,0,0,0	practice	ward_and_allport	1,3,2,0,0,0,0,0,0	89.0	1.0	0.465	1,2,0,3,0,0,0,0,0	to_board	s604
20.828	1.0	0	UA_with_intermediate	n/a	practice	ward_and_allport	n/a	-1.0	1.0	n/a	n/a	feedback	s604
21.828	1.1	0	UA_with_intermediate	n/a	practice	ward_and_allport	n/a	-1.0	1.0	n/a	n/a	ITI	s604
22.929	5.916	1	UA_without_intermediate	0,0,0,1,2,0,0,0,0	practice	ward_and_allport	3,2,1,0,0,0,0,0,0	82.0	2.0	5.916	0,0,0,1,2,0,3,0,0	to_hand	s604
28.846	0.438	0	UA_without_intermediate	3,0,0,1,2,0,0,0,0	practice	ward_and_allport	3,2,1,0,0,0,0,0,0	89.0	2.0	0.438	0,0,0,1,2,0,3,0,0	to_board	s604
29.286	0.825	0	UA_without_intermediate	3,0,0,1,0,0,0,0,0	practice	ward_and_allport	3,2,1,0,0,0,0,0,0	71.0	2.0	0.825	0,0,0,1,2,0,3,0,0	to_hand	s604
30.112	1.615	0	UA_without_intermediate	3,2,0,1,0,0,0,0,0	practice	ward_and_allport	3,2,1,0,0,0,0,0,0	89.0	2.0	1.615	0,0,0,1,2,0,3,0,0	to_board	s604
31.729	0.433	0	UA_without_intermediate	3,2,0,0,0,0,0,0,0	practice	ward_and_allport	3,2,1,0,0,0,0,0,0	71.0	2.0	0.433	0,0,0,1,2,0,3,0,0	to_hand	s604
32.163	0.425	0	UA_without_intermediate	3,2,1,0,0,0,0,0,0	practice	ward_and_allport	3,2,1,0,0,0,0,0,0	89.0	2.0	0.425	0,0,0,1,2,0,3,0,0	to_board	s604
32.594	1.0	0	UA_without_intermediate	n/a	practice	ward_and_allport	n/a	-1.0	2.0	n/a	n/a	feedback	s604
33.594	1.2	0	UA_without_intermediate	n/a	practice	ward_and_allport	n/a	-1.0	2.0	n/a	n/a	ITI	s604
34.795	4.08	1	UA_without_intermediate	0,0,0,1,0,0,3,0,0	practice	ward_and_allport	2,3,1,0,0,0,0,0,0	71.0	3.0	4.08	0,0,0,1,2,0,3,0,0	to_hand	s604
38.877	0.463	0	UA_without_intermediate	2,0,0,1,0,0,3,0,0	practice	ward_and_allport	2,3,1,0,0,0,0,0,0	89.0	3.0	0.463	0,0,0,1,2,0,3,0,0	to_board	s604
39.341	0.722	0	UA_without_intermediate	2,0,0,1,0,0,0,0,0	practice	ward_and_allport	2,3,1,0,0,0,0,0,0	82.0	3.0	0.722	0,0,0,1,2,0,3,0,0	to_hand	s604
40.063	0.706	0	UA_without_intermediate	2,3,0,1,0,0,0,0,0	practice	ward_and_allport	2,3,1,0,0,0,0,0,0	89.0	3.0	0.706	0,0,0,1,2,0,3,0,0	to_board	s604
40.77	0.406	0	UA_without_intermediate	2,3,0,0,0,0,0,0,0	practice	ward_and_allport	2,3,1,0,0,0,0,0,0	71.0	3.0	0.406	0,0,0,1,2,0,3,0,0	to_hand	s604
41.177	0.361	0	UA_without_intermediate	2,3,1,0,0,0,0,0,0	practice	ward_and_allport	2,3,1,0,0,0,0,0,0	89.0	3.0	0.361	0,0,0,1,2,0,3,0,0	to_board	s604
41.542	1.0	0	UA_without_intermediate	n/a	practice	ward_and_allport	n/a	-1.0	3.0	n/a	n/a	feedback	s604
42.542	1.0	0	UA_without_intermediate	n/a	practice	ward_and_allport	n/a	-1.0	3.0	n/a	n/a	ITI	s604
45.548	3.883	1	PA_with_intermediate	0,0,0,1,2,0,0,0,0	test	ward_and_allport	0,0,0,1,3,0,2,0,0	71.0	0.0	3.883	0,0,0,1,2,3,0,0,0	to_hand	s604
49.432	0.688	0	PA_with_intermediate	3,0,0,1,2,0,0,0,0	test	ward_and_allport	0,0,0,1,3,0,2,0,0	89.0	0.0	0.688	0,0,0,1,2,3,0,0,0	to_board	s604
50.121	0.393	0	PA_with_intermediate	3,0,0,1,0,0,0,0,0	test	ward_and_allport	0,0,0,1,3,0,2,0,0	71.0	0.0	0.393	0,0,0,1,2,3,0,0,0	to_hand	s604
50.516	0.318	0	PA_with_intermediate	3,0,0,1,0,0,2,0,0	test	ward_and_allport	0,0,0,1,3,0,2,0,0	82.0	0.0	0.318	0,0,0,1,2,3,0,0,0	to_board	s604
50.836	0.385	0	PA_with_intermediate	0,0,0,1,0,0,2,0,0	test	ward_and_allport	0,0,0,1,3,0,2,0,0	89.0	0.0	0.385	0,0,0,1,2,3,0,0,0	to_hand	s604
51.222	0.309	0	PA_with_intermediate	0,0,0,1,3,0,2,0,0	test	ward_and_allport	0,0,0,1,3,0,2,0,0	71.0	0.0	0.309	0,0,0,1,2,3,0,0,0	to_board	s604
51.536	1.0	0	PA_with_intermediate	n/a	test	ward_and_allport	n/a	-1.0	0.0	n/a	n/a	feedback	s604
52.536	3.176	0	PA_with_intermediate	n/a	test	ward_and_allport	n/a	-1.0	0.0	n/a	n/a	ITI	s604
55.713	3.353	1	PA_with_intermediate	0,0,0,0,0,0,1,2,0	test	ward_and_allport	2,0,0,0,0,0,1,3,0	82.0	1.0	3.353	0,0,0,0,0,0,1,2,3	to_hand	s604
59.067	0.437	0	PA_with_intermediate	0,0,0,3,0,0,1,2,0	test	ward_and_allport	2,0,0,0,0,0,1,3,0	71.0	1.0	0.437	0,0,0,0,0,0,1,2,3	to_board	s604
59.505	1.813	0	PA_with_intermediate	0,0,0,3,0,0,1,0,0	test	ward_and_allport	2,0,0,0,0,0,1,3,0	82.0	1.0	1.813	0,0,0,0,0,0,1,2,3	to_hand	s604
61.319	0.763	0	PA_with_intermediate	2,0,0,3,0,0,1,0,0	test	ward_and_allport	2,0,0,0,0,0,1,3,0	89.0	1.0	0.763	0,0,0,0,0,0,1,2,3	to_board	s604
62.085	0.831	0	PA_with_intermediate	2,0,0,0,0,0,1,0,0	test	ward_and_allport	2,0,0,0,0,0,1,3,0	71.0	1.0	0.831	0,0,0,0,0,0,1,2,3	to_hand	s604
62.916	0.402	0	PA_with_intermediate	2,0,0,0,0,0,1,3,0	test	ward_and_allport	2,0,0,0,0,0,1,3,0	82.0	1.0	0.402	0,0,0,0,0,0,1,2,3	to_board	s604
63.321	1.0	0	PA_with_intermediate	n/a	test	ward_and_allport	n/a	-1.0	1.0	n/a	n/a	feedback	s604
64.321	2.36	0	PA_with_intermediate	n/a	test	ward_and_allport	n/a	-1.0	1.0	n/a	n/a	ITI	s604
66.683	4.236	1	PA_with_intermediate	0,0,0,0,0,0,1,2,0	test	ward_and_allport	0,0,0,2,3,0,1,0,0	82.0	2.0	4.236	0,0,0,0,0,0,1,2,3	to_hand	s604
70.92	0.648	0	PA_with_intermediate	3,0,0,0,0,0,1,2,0	test	ward_and_allport	0,0,0,2,3,0,1,0,0	89.0	2.0	0.648	0,0,0,0,0,0,1,2,3	to_board	s604
71.571	1.111	0	PA_with_intermediate	3,0,0,0,0,0,1,0,0	test	ward_and_allport	0,0,0,2,3,0,1,0,0	82.0	2.0	1.111	0,0,0,0,0,0,1,2,3	to_hand	s604
72.682	0.396	0	PA_with_intermediate	3,0,0,2,0,0,1,0,0	test	ward_and_allport	0,0,0,2,3,0,1,0,0	71.0	2.0	0.396	0,0,0,0,0,0,1,2,3	to_board	s604
73.08	0.379	0	PA_with_intermediate	0,0,0,2,0,0,1,0,0	test	ward_and_allport	0,0,0,2,3,0,1,0,0	89.0	2.0	0.379	0,0,0,0,0,0,1,2,3	to_hand	s604
73.46	0.439	0	PA_with_intermediate	0,0,0,2,3,0,1,0,0	test	ward_and_allport	0,0,0,2,3,0,1,0,0	71.0	2.0	0.439	0,0,0,0,0,0,1,2,3	to_board	s604
73.906	1.0	0	PA_with_intermediate	n/a	test	ward_and_allport	n/a	-1.0	2.0	n/a	n/a	feedback	s604
74.906	1.0	0	PA_with_intermediate	n/a	test	ward_and_allport	n/a	-1.0	2.0	n/a	n/a	ITI	s604
75.909	3.262	1	PA_without_intermediate	0,0,0,1,2,0,0,0,0	test	ward_and_allport	3,2,0,0,0,0,1,0,0	71.0	3.0	3.262	0,0,0,1,2,3,0,0,0	to_hand	s604
79.171	0.458	0	PA_without_intermediate	3,0,0,1,2,0,0,0,0	test	ward_and_allport	3,2,0,0,0,0,1,0,0	89.0	3.0	0.458	0,0,0,1,2,3,0,0,0	to_board	s604
79.631	1.419	0	PA_without_intermediate	3,0,0,1,0,0,0,0,0	test	ward_and_allport	3,2,0,0,0,0,1,0,0	71.0	3.0	1.419	0,0,0,1,2,3,0,0,0	to_hand	s604
81.051	0.473	0	PA_without_intermediate	3,2,0,1,0,0,0,0,0	test	ward_and_allport	3,2,0,0,0,0,1,0,0	89.0	3.0	0.473	0,0,0,1,2,3,0,0,0	to_board	s604
81.527	0.558	0	PA_without_intermediate	3,2,0,0,0,0,0,0,0	test	ward_and_allport	3,2,0,0,0,0,1,0,0	71.0	3.0	0.558	0,0,0,1,2,3,0,0,0	to_hand	s604
82.086	0.646	0	PA_without_intermediate	3,2,0,0,0,0,1,0,0	test	ward_and_allport	3,2,0,0,0,0,1,0,0	82.0	3.0	0.646	0,0,0,1,2,3,0,0,0	to_board	s604
82.735	1.0	0	PA_without_intermediate	n/a	test	ward_and_allport	n/a	-1.0	3.0	n/a	n/a	feedback	s604
83.735	1.408	0	PA_without_intermediate	n/a	test	ward_and_allport	n/a	-1.0	3.0	n/a	n/a	ITI	s604
85.146	2.634	1	PA_with_intermediate	0,0,0,0,0,0,1,2,0	test	ward_and_allport	2,0,0,0,0,0,1,3,0	82.0	4.0	2.634	0,0,0,0,0,0,1,2,3	to_hand	s604
87.78	0.876	0	PA_with_intermediate	0,0,0,3,0,0,1,2,0	test	ward_and_allport	2,0,0,0,0,0,1,3,0	71.0	4.0	0.876	0,0,0,0,0,0,1,2,3	to_board	s604
88.658	0.873	0	PA_with_intermediate	0,0,0,3,0,0,1,0,0	test	ward_and_allport	2,0,0,0,0,0,1,3,0	82.0	4.0	0.873	0,0,0,0,0,0,1,2,3	to_hand	s604
89.532	0.413	0	PA_with_intermediate	2,0,0,3,0,0,1,0,0	test	ward_and_allport	2,0,0,0,0,0,1,3,0	89.0	4.0	0.413	0,0,0,0,0,0,1,2,3	to_board	s604
89.947	0.391	0	PA_with_intermediate	2,0,0,0,0,0,1,0,0	test	ward_and_allport	2,0,0,0,0,0,1,3,0	71.0	4.0	0.391	0,0,0,0,0,0,1,2,3	to_hand	s604
90.339	0.437	0	PA_with_intermediate	2,0,0,0,0,0,1,3,0	test	ward_and_allport	2,0,0,0,0,0,1,3,0	82.0	4.0	0.437	0,0,0,0,0,0,1,2,3	to_board	s604
90.783	1.0	0	PA_with_intermediate	n/a	test	ward_and_allport	n/a	-1.0	4.0	n/a	n/a	feedback	s604
91.783	1.816	0	PA_with_intermediate	n/a	test	ward_and_allport	n/a	-1.0	4.0	n/a	n/a	ITI	s604
93.602	2.855	1	PA_without_intermediate	1,2,0,0,0,0,0,0,0	test	ward_and_allport	0,0,0,2,0,0,3,1,0	89.0	5.0	2.855	1,2,3,0,0,0,0,0,0	to_hand	s604
96.458	0.651	0	PA_without_intermediate	1,2,0,0,0,0,3,0,0	test	ward_and_allport	0,0,0,2,0,0,3,1,0	82.0	5.0	0.651	1,2,3,0,0,0,0,0,0	to_board	s604
97.112	1.584	0	PA_without_intermediate	1,0,0,0,0,0,3,0,0	test	ward_and_allport	0,0,0,2,0,0,3,1,0	89.0	5.0	1.584	1,2,3,0,0,0,0,0,0	to_hand	s604
98.697	0.54	0	PA_without_intermediate	1,0,0,2,0,0,3,0,0	test	ward_and_allport	0,0,0,2,0,0,3,1,0	71.0	5.0	0.54	1,2,3,0,0,0,0,0,0	to_board	s604
99.24	0.562	0	PA_without_intermediate	0,0,0,2,0,0,3,0,0	test	ward_and_allport	0,0,0,2,0,0,3,1,0	89.0	5.0	0.562	1,2,3,0,0,0,0,0,0	to_hand	s604
99.803	0.525	0	PA_without_intermediate	0,0,0,2,0,0,3,1,0	test	ward_and_allport	0,0,0,2,0,0,3,1,0	82.0	5.0	0.525	1,2,3,0,0,0,0,0,0	to_board	s604
100.335	1.0	0	PA_without_intermediate	n/a	test	ward_and_allport	n/a	-1.0	5.0	n/a	n/a	feedback	s604
101.335	2.088	0	PA_without_intermediate	n/a	test	ward_and_allport	n/a	-1.0	5.0	n/a	n/a	ITI	s604
103.425	2.818	1	PA_without_intermediate	0,0,0,0,0,0,1,2,0	test	ward_and_allport	3,2,0,1,0,0,0,0,0	82.0	6.0	2.818	0,0,0,0,0,0,1,2,3	to_hand	s604
106.244	0.779	0	PA_without_intermediate	3,0,0,0,0,0,1,2,0	test	ward_and_allport	3,2,0,1,0,0,0,0,0	89.0	6.0	0.779	0,0,0,0,0,0,1,2,3	to_board	s604
107.026	1.636	0	PA_without_intermediate	3,0,0,0,0,0,1,0,0	test	ward_and_allport	3,2,0,1,0,0,0,0,0	82.0	6.0	1.636	0,0,0,0,0,0,1,2,3	to_hand	s604
108.663	0.744	0	PA_without_intermediate	3,2,0,0,0,0,1,0,0	test	ward_and_allport	3,2,0,1,0,0,0,0,0	89.0	6.0	0.744	0,0,0,0,0,0,1,2,3	to_board	s604
109.409	0.506	0	PA_without_intermediate	3,2,0,0,0,0,0,0,0	test	ward_and_allport	3,2,0,1,0,0,0,0,0	82.0	6.0	0.506	0,0,0,0,0,0,1,2,3	to_hand	s604
109.916	0.898	0	PA_without_intermediate	3,2,0,1,0,0,0,0,0	test	ward_and_allport	3,2,0,1,0,0,0,0,0	71.0	6.0	0.898	0,0,0,0,0,0,1,2,3	to_board	s604
110.822	1.0	0	PA_without_intermediate	n/a	test	ward_and_allport	n/a	-1.0	6.0	n/a	n/a	feedback	s604
111.822	1.136	0	PA_without_intermediate	n/a	test	ward_and_allport	n/a	-1.0	6.0	n/a	n/a	ITI	s604
112.96	2.789	1	PA_without_intermediate	1,2,0,0,0,0,0,0,0	test	ward_and_allport	0,0,0,2,0,0,3,1,0	89.0	7.0	2.789	1,2,3,0,0,0,0,0,0	to_hand	s604
115.75	0.517	0	PA_without_intermediate	1,2,0,0,0,0,3,0,0	test	ward_and_allport	0,0,0,2,0,0,3,1,0	82.0	7.0	0.517	1,2,3,0,0,0,0,0,0	to_board	s604
116.27	0.954	0	PA_without_intermediate	1,0,0,0,0,0,3,0,0	test	ward_and_allport	0,0,0,2,0,0,3,1,0	89.0	7.0	0.954	1,2,3,0,0,0,0,0,0	to_hand	s604
117.225	0.428	0	PA_without_intermediate	1,0,0,2,0,0,3,0,0	test	ward_and_allport	0,0,0,2,0,0,3,1,0	71.0	7.0	0.428	1,2,3,0,0,0,0,0,0	to_board	s604
117.656	0.344	0	PA_without_intermediate	0,0,0,2,0,0,3,0,0	test	ward_and_allport	0,0,0,2,0,0,3,1,0	89.0	7.0	0.344	1,2,3,0,0,0,0,0,0	to_hand	s604
118.001	0.544	0	PA_without_intermediate	0,0,0,2,0,0,3,1,0	test	ward_and_allport	0,0,0,2,0,0,3,1,0	82.0	7.0	0.544	1,2,3,0,0,0,0,0,0	to_board	s604
118.553	1.0	0	PA_without_intermediate	n/a	test	ward_and_allport	n/a	-1.0	7.0	n/a	n/a	feedback	s604
119.553	6.168	0	PA_without_intermediate	n/a	test	ward_and_allport	n/a	-1.0	7.0	n/a	n/a	ITI	s604
125.724	2.624	1	PA_without_intermediate	0,0,0,1,2,0,0,0,0	test	ward_and_allport	3,1,0,0,0,0,2,0,0	71.0	8.0	2.624	0,0,0,1,2,3,0,0,0	to_hand	s604
128.348	0.529	0	PA_without_intermediate	3,0,0,1,2,0,0,0,0	test	ward_and_allport	3,1,0,0,0,0,2,0,0	89.0	8.0	0.529	0,0,0,1,2,3,0,0,0	to_board	s604
128.881	0.974	0	PA_without_intermediate	3,0,0,1,0,0,0,0,0	test	ward_and_allport	3,1,0,0,0,0,2,0,0	71.0	8.0	0.974	0,0,0,1,2,3,0,0,0	to_hand	s604
129.855	0.327	0	PA_without_intermediate	3,0,0,1,0,0,2,0,0	test	ward_and_allport	3,1,0,0,0,0,2,0,0	82.0	8.0	0.327	0,0,0,1,2,3,0,0,0	to_board	s604
130.184	0.529	0	PA_without_intermediate	3,0,0,0,0,0,2,0,0	test	ward_and_allport	3,1,0,0,0,0,2,0,0	71.0	8.0	0.529	0,0,0,1,2,3,0,0,0	to_hand	s604
130.714	0.413	0	PA_without_intermediate	3,1,0,0,0,0,2,0,0	test	ward_and_allport	3,1,0,0,0,0,2,0,0	89.0	8.0	0.413	0,0,0,1,2,3,0,0,0	to_board	s604
131.136	1.0	0	PA_without_intermediate	n/a	test	ward_and_allport	n/a	-1.0	8.0	n/a	n/a	feedback	s604
132.136	1.816	0	PA_without_intermediate	n/a	test	ward_and_allport	n/a	-1.0	8.0	n/a	n/a	ITI	s604
133.954	4.374	1	PA_with_intermediate	1,2,0,0,0,0,0,0,0	test	ward_and_allport	1,3,0,0,0,0,2,0,0	89.0	9.0	4.374	1,2,3,0,0,0,0,0,0	to_hand	s604
138.329	0.62	0	PA_with_intermediate	1,2,0,3,0,0,0,0,0	test	ward_and_allport	1,3,0,0,0,0,2,0,0	71.0	9.0	0.62	1,2,3,0,0,0,0,0,0	to_board	s604
138.952	0.545	0	PA_with_intermediate	1,0,0,3,0,0,0,0,0	test	ward_and_allport	1,3,0,0,0,0,2,0,0	89.0	9.0	0.545	1,2,3,0,0,0,0,0,0	to_hand	s604
139.499	0.43	0	PA_with_intermediate	1,0,0,3,0,0,2,0,0	test	ward_and_allport	1,3,0,0,0,0,2,0,0	82.0	9.0	0.43	1,2,3,0,0,0,0,0,0	to_board	s604
139.932	0.465	0	PA_with_intermediate	1,0,0,0,0,0,2,0,0	test	ward_and_allport	1,3,0,0,0,0,2,0,0	71.0	9.0	0.465	1,2,3,0,0,0,0,0,0	to_hand	s604
140.399	0.48	0	PA_with_intermediate	1,3,0,0,0,0,2,0,0	test	ward_and_allport	1,3,0,0,0,0,2,0,0	89.0	9.0	0.48	1,2,3,0,0,0,0,0,0	to_board	s604
140.883	1.0	0	PA_with_intermediate	n/a	test	ward_and_allport	n/a	-1.0	9.0	n/a	n/a	feedback	s604
141.883	1.952	0	PA_with_intermediate	n/a	test	ward_and_allport	n/a	-1.0	9.0	n/a	n/a	ITI	s604
143.837	4.402	1	PA_with_intermediate	0,0,0,0,0,0,1,2,0	test	ward_and_allport	0,0,0,2,3,0,1,0,0	82.0	10.0	4.402	0,0,0,0,0,0,1,2,3	to_hand	s604
148.24	1.264	0	PA_with_intermediate	3,0,0,0,0,0,1,2,0	test	ward_and_allport	0,0,0,2,3,0,1,0,0	89.0	10.0	1.264	0,0,0,0,0,0,1,2,3	to_board	s604
149.508	0.558	0	PA_with_intermediate	3,0,0,0,0,0,1,0,0	test	ward_and_allport	0,0,0,2,3,0,1,0,0	82.0	10.0	0.558	0,0,0,0,0,0,1,2,3	to_hand	s604
150.067	0.469	0	PA_with_intermediate	3,0,0,2,0,0,1,0,0	test	ward_and_allport	0,0,0,2,3,0,1,0,0	71.0	10.0	0.469	0,0,0,0,0,0,1,2,3	to_board	s604
150.539	0.604	0	PA_with_intermediate	0,0,0,2,0,0,1,0,0	test	ward_and_allport	0,0,0,2,3,0,1,0,0	89.0	10.0	0.604	0,0,0,0,0,0,1,2,3	to_hand	s604
151.144	0.461	0	PA_with_intermediate	0,0,0,2,3,0,1,0,0	test	ward_and_allport	0,0,0,2,3,0,1,0,0	71.0	10.0	0.461	0,0,0,0,0,0,1,2,3	to_board	s604
151.614	1.0	0	PA_with_intermediate	n/a	test	ward_and_allport	n/a	-1.0	10.0	n/a	n/a	feedback	s604
152.614	1.136	0	PA_with_intermediate	n/a	test	ward_and_allport	n/a	-1.0	10.0	n/a	n/a	ITI	s604
153.752	2.552	1	PA_without_intermediate	0,0,0,0,0,0,1,2,0	test	ward_and_allport	3,1,0,2,0,0,0,0,0	82.0	11.0	2.552	0,0,0,0,0,0,1,2,3	to_hand	s604
156.306	0.436	0	PA_without_intermediate	3,0,0,0,0,0,1,2,0	test	ward_and_allport	3,1,0,2,0,0,0,0,0	89.0	11.0	0.436	0,0,0,0,0,0,1,2,3	to_board	s604
156.745	1.539	0	PA_without_intermediate	3,0,0,0,0,0,1,0,0	test	ward_and_allport	3,1,0,2,0,0,0,0,0	82.0	11.0	1.539	0,0,0,0,0,0,1,2,3	to_hand	s604
158.285	0.551	0	PA_without_intermediate	3,0,0,2,0,0,1,0,0	test	ward_and_allport	3,1,0,2,0,0,0,0,0	71.0	11.0	0.551	0,0,0,0,0,0,1,2,3	to_board	s604
158.839	0.977	0	PA_without_intermediate	3,0,0,2,0,0,0,0,0	test	ward_and_allport	3,1,0,2,0,0,0,0,0	82.0	11.0	0.977	0,0,0,0,0,0,1,2,3	to_hand	s604
159.818	0.389	0	PA_without_intermediate	3,1,0,2,0,0,0,0,0	test	ward_and_allport	3,1,0,2,0,0,0,0,0	89.0	11.0	0.389	0,0,0,0,0,0,1,2,3	to_board	s604
160.214	1.0	0	PA_without_intermediate	n/a	test	ward_and_allport	n/a	-1.0	11.0	n/a	n/a	feedback	s604
161.214	1.68	0	PA_without_intermediate	n/a	test	ward_and_allport	n/a	-1.0	11.0	n/a	n/a	ITI	s604
162.897	2.828	1	PA_without_intermediate	0,0,0,1,2,0,0,0,0	test	ward_and_allport	2,0,0,0,0,0,3,1,0	71.0	12.0	2.828	0,0,0,1,2,3,0,0,0	to_hand	s604
165.726	0.373	0	PA_without_intermediate	0,0,0,1,2,0,3,0,0	test	ward_and_allport	2,0,0,0,0,0,3,1,0	82.0	12.0	0.373	0,0,0,1,2,3,0,0,0	to_board	s604
166.103	0.424	0	PA_without_intermediate	0,0,0,1,0,0,3,0,0	test	ward_and_allport	2,0,0,0,0,0,3,1,0	71.0	12.0	0.424	0,0,0,1,2,3,0,0,0	to_hand	s604
166.528	0.417	0	PA_without_intermediate	2,0,0,1,0,0,3,0,0	test	ward_and_allport	2,0,0,0,0,0,3,1,0	89.0	12.0	0.417	0,0,0,1,2,3,0,0,0	to_board	s604
166.949	0.427	0	PA_without_intermediate	2,0,0,0,0,0,3,0,0	test	ward_and_allport	2,0,0,0,0,0,3,1,0	71.0	12.0	0.427	0,0,0,1,2,3,0,0,0	to_hand	s604
167.377	0.366	0	PA_without_intermediate	2,0,0,0,0,0,3,1,0	test	ward_and_allport	2,0,0,0,0,0,3,1,0	82.0	12.0	0.366	0,0,0,1,2,3,0,0,0	to_board	s604
167.752	1.0	0	PA_without_intermediate	n/a	test	ward_and_allport	n/a	-1.0	12.0	n/a	n/a	feedback	s604
168.752	2.088	0	PA_without_intermediate	n/a	test	ward_and_allport	n/a	-1.0	12.0	n/a	n/a	ITI	s604
170.844	3.714	1	PA_with_intermediate	0,0,0,0,0,0,1,2,0	test	ward_and_allport	2,3,0,0,0,0,1,0,0	82.0	13.0	3.714	0,0,0,0,0,0,1,2,3	to_hand	s604
174.559	0.32	0	PA_with_intermediate	0,0,0,3,0,0,1,2,0	test	ward_and_allport	2,3,0,0,0,0,1,0,0	71.0	13.0	0.32	0,0,0,0,0,0,1,2,3	to_board	s604
174.884	0.647	0	PA_with_intermediate	0,0,0,3,0,0,1,0,0	test	ward_and_allport	2,3,0,0,0,0,1,0,0	82.0	13.0	0.647	0,0,0,0,0,0,1,2,3	to_hand	s604
175.532	0.263	0	PA_with_intermediate	2,0,0,3,0,0,1,0,0	test	ward_and_allport	2,3,0,0,0,0,1,0,0	89.0	13.0	0.263	0,0,0,0,0,0,1,2,3	to_board	s604
175.798	0.554	0	PA_with_intermediate	2,0,0,0,0,0,1,0,0	test	ward_and_allport	2,3,0,0,0,0,1,0,0	71.0	13.0	0.554	0,0,0,0,0,0,1,2,3	to_hand	s604
176.354	0.2	0	PA_with_intermediate	2,3,0,0,0,0,1,0,0	test	ward_and_allport	2,3,0,0,0,0,1,0,0	89.0	13.0	0.2	0,0,0,0,0,0,1,2,3	to_board	s604
176.558	1.0	0	PA_with_intermediate	n/a	test	ward_and_allport	n/a	-1.0	13.0	n/a	n/a	feedback	s604
177.558	1.0	0	PA_with_intermediate	n/a	test	ward_and_allport	n/a	-1.0	13.0	n/a	n/a	ITI	s604
178.56	2.533	1	PA_without_intermediate	0,0,0,1,2,0,0,0,0	test	ward_and_allport	3,2,0,0,0,0,1,0,0	71.0	14.0	2.533	0,0,0,1,2,3,0,0,0	to_hand	s604
181.095	0.391	0	PA_without_intermediate	3,0,0,1,2,0,0,0,0	test	ward_and_allport	3,2,0,0,0,0,1,0,0	89.0	14.0	0.391	0,0,0,1,2,3,0,0,0	to_board	s604
181.49	0.678	0	PA_without_intermediate	3,0,0,1,0,0,0,0,0	test	ward_and_allport	3,2,0,0,0,0,1,0,0	71.0	14.0	0.678	0,0,0,1,2,3,0,0,0	to_hand	s604
182.17	0.295	0	PA_without_intermediate	3,2,0,1,0,0,0,0,0	test	ward_and_allport	3,2,0,0,0,0,1,0,0	89.0	14.0	0.295	0,0,0,1,2,3,0,0,0	to_board	s604
182.468	0.438	0	PA_without_intermediate	3,2,0,0,0,0,0,0,0	test	ward_and_allport	3,2,0,0,0,0,1,0,0	71.0	14.0	0.438	0,0,0,1,2,3,0,0,0	to_hand	s604
182.907	0.372	0	PA_without_intermediate	3,2,0,0,0,0,1,0,0	test	ward_and_allport	3,2,0,0,0,0,1,0,0	82.0	14.0	0.372	0,0,0,1,2,3,0,0,0	to_board	s604
183.288	1.0	0	PA_without_intermediate	n/a	test	ward_and_allport	n/a	-1.0	14.0	n/a	n/a	feedback	s604
184.288	1.0	0	PA_without_intermediate	n/a	test	ward_and_allport	n/a	-1.0	14.0	n/a	n/a	ITI	s604
190.296	2.766	1	PA_without_intermediate	0,0,0,0,0,0,1,2,0	test	ward_and_allport	1,0,0,3,2,0,0,0,0	82.0	15.0	2.766	0,0,0,0,0,0,1,2,3	to_hand	s604
193.062	0.391	0	PA_without_intermediate	0,0,0,3,0,0,1,2,0	test	ward_and_allport	1,0,0,3,2,0,0,0,0	71.0	15.0	0.391	0,0,0,0,0,0,1,2,3	to_board	s604
193.456	0.418	0	PA_without_intermediate	0,0,0,3,0,0,1,0,0	test	ward_and_allport	1,0,0,3,2,0,0,0,0	82.0	15.0	0.418	0,0,0,0,0,0,1,2,3	to_hand	s604
193.875	0.905	0	PA_without_intermediate	0,0,0,3,2,0,1,0,0	test	ward_and_allport	1,0,0,3,2,0,0,0,0	71.0	15.0	0.905	0,0,0,0,0,0,1,2,3	to_board	s604
194.784	0.504	0	PA_without_intermediate	0,0,0,3,2,0,0,0,0	test	ward_and_allport	1,0,0,3,2,0,0,0,0	82.0	15.0	0.504	0,0,0,0,0,0,1,2,3	to_hand	s604
195.289	0.282	0	PA_without_intermediate	1,0,0,3,2,0,0,0,0	test	ward_and_allport	1,0,0,3,2,0,0,0,0	89.0	15.0	0.282	0,0,0,0,0,0,1,2,3	to_board	s604
195.577	1.0	0	PA_without_intermediate	n/a	test	ward_and_allport	n/a	-1.0	15.0	n/a	n/a	feedback	s604
196.577	1.0	0	PA_without_intermediate	n/a	test	ward_and_allport	n/a	-1.0	15.0	n/a	n/a	ITI	s604
197.581	2.785	1	PA_with_intermediate	1,2,0,0,0,0,0,0,0	test	ward_and_allport	1,0,0,2,3,0,0,0,0	89.0	16.0	2.785	1,2,3,0,0,0,0,0,0	to_hand	s604
200.367	0.293	0	PA_with_intermediate	1,2,0,0,0,0,3,0,0	test	ward_and_allport	1,0,0,2,3,0,0,0,0	82.0	16.0	0.293	1,2,3,0,0,0,0,0,0	to_board	s604
200.663	0.644	0	PA_with_intermediate	1,0,0,0,0,0,3,0,0	test	ward_and_allport	1,0,0,2,3,0,0,0,0	89.0	16.0	0.644	1,2,3,0,0,0,0,0,0	to_hand	s604
201.309	0.44	0	PA_with_intermediate	1,0,0,2,0,0,3,0,0	test	ward_and_allport	1,0,0,2,3,0,0,0,0	71.0	16.0	0.44	1,2,3,0,0,0,0,0,0	to_board	s604
201.752	0.473	0	PA_with_intermediate	1,0,0,2,0,0,0,0,0	test	ward_and_allport	1,0,0,2,3,0,0,0,0	82.0	16.0	0.473	1,2,3,0,0,0,0,0,0	to_hand	s604
202.226	0.274	0	PA_with_intermediate	1,0,0,2,3,0,0,0,0	test	ward_and_allport	1,0,0,2,3,0,0,0,0	71.0	16.0	0.274	1,2,3,0,0,0,0,0,0	to_board	s604
202.508	1.0	0	PA_with_intermediate	n/a	test	ward_and_allport	n/a	-1.0	16.0	n/a	n/a	feedback	s604
203.508	1.544	0	PA_with_intermediate	n/a	test	ward_and_allport	n/a	-1.0	16.0	n/a	n/a	ITI	s604
205.055	2.219	1	PA_without_intermediate	1,2,0,0,0,0,0,0,0	test	ward_and_allport	0,0,0,3,2,0,1,0,0	89.0	17.0	2.219	1,2,3,0,0,0,0,0,0	to_hand	s604
207.275	0.25	0	PA_without_intermediate	1,2,0,3,0,0,0,0,0	test	ward_and_allport	0,0,0,3,2,0,1,0,0	71.0	17.0	0.25	1,2,3,0,0,0,0,0,0	to_board	s604
207.529	0.461	0	PA_without_intermediate	1,0,0,3,0,0,0,0,0	test	ward_and_allport	0,0,0,3,2,0,1,0,0	89.0	17.0	0.461	1,2,3,0,0,0,0,0,0	to_hand	s604
207.99	0.324	0	PA_without_intermediate	1,0,0,3,2,0,0,0,0	test	ward_and_allport	0,0,0,3,2,0,1,0,0	71.0	17.0	0.324	1,2,3,0,0,0,0,0,0	to_board	s604
208.319	0.293	0	PA_without_intermediate	0,0,0,3,2,0,0,0,0	test	ward_and_allport	0,0,0,3,2,0,1,0,0	89.0	17.0	0.293	1,2,3,0,0,0,0,0,0	to_hand	s604
208.613	0.232	0	PA_without_intermediate	0,0,0,3,2,0,1,0,0	test	ward_and_allport	0,0,0,3,2,0,1,0,0	82.0	17.0	0.232	1,2,3,0,0,0,0,0,0	to_board	s604
208.854	1.0	0	PA_without_intermediate	n/a	test	ward_and_allport	n/a	-1.0	17.0	n/a	n/a	feedback	s604
209.854	1.272	0	PA_without_intermediate	n/a	test	ward_and_allport	n/a	-1.0	17.0	n/a	n/a	ITI	s604
211.129	3.486	1	PA_with_intermediate	0,0,0,0,0,0,1,2,0	test	ward_and_allport	2,3,0,0,0,0,1,0,0	82.0	18.0	3.486	0,0,0,0,0,0,1,2,3	to_hand	s604
214.617	0.539	0	PA_with_intermediate	0,0,0,3,0,0,1,2,0	test	ward_and_allport	2,3,0,0,0,0,1,0,0	71.0	18.0	0.539	0,0,0,0,0,0,1,2,3	to_board	s604
215.16	0.834	0	PA_with_intermediate	0,0,0,3,0,0,1,0,0	test	ward_and_allport	2,3,0,0,0,0,1,0,0	82.0	18.0	0.834	0,0,0,0,0,0,1,2,3	to_hand	s604
215.995	0.244	0	PA_with_intermediate	2,0,0,3,0,0,1,0,0	test	ward_and_allport	2,3,0,0,0,0,1,0,0	89.0	18.0	0.244	0,0,0,0,0,0,1,2,3	to_board	s604
216.243	0.432	0	PA_with_intermediate	2,0,0,0,0,0,1,0,0	test	ward_and_allport	2,3,0,0,0,0,1,0,0	71.0	18.0	0.432	0,0,0,0,0,0,1,2,3	to_hand	s604
216.676	0.21	0	PA_with_intermediate	2,3,0,0,0,0,1,0,0	test	ward_and_allport	2,3,0,0,0,0,1,0,0	89.0	18.0	0.21	0,0,0,0,0,0,1,2,3	to_board	s604
216.895	1.0	0	PA_with_intermediate	n/a	test	ward_and_allport	n/a	-1.0	18.0	n/a	n/a	feedback	s604
217.895	3.04	0	PA_with_intermediate	n/a	test	ward_and_allport	n/a	-1.0	18.0	n/a	n/a	ITI	s604
220.939	1.838	1	PA_with_intermediate	1,2,0,0,0,0,0,0,0	test	ward_and_allport	1,3,0,2,0,0,0,0,0	89.0	19.0	1.838	1,2,3,0,0,0,0,0,0	to_hand	s604
222.777	0.379	0	PA_with_intermediate	1,2,0,0,0,0,3,0,0	test	ward_and_allport	1,3,0,2,0,0,0,0,0	82.0	19.0	0.379	1,2,3,0,0,0,0,0,0	to_board	s604
223.16	0.476	0	PA_with_intermediate	1,0,0,0,0,0,3,0,0	test	ward_and_allport	1,3,0,2,0,0,0,0,0	89.0	19.0	0.476	1,2,3,0,0,0,0,0,0	to_hand	s604
223.638	0.324	0	PA_with_intermediate	1,0,0,2,0,0,3,0,0	test	ward_and_allport	1,3,0,2,0,0,0,0,0	71.0	19.0	0.324	1,2,3,0,0,0,0,0,0	to_board	s604
223.966	0.322	0	PA_with_intermediate	1,0,0,2,0,0,0,0,0	test	ward_and_allport	1,3,0,2,0,0,0,0,0	82.0	19.0	0.322	1,2,3,0,0,0,0,0,0	to_hand	s604
224.289	0.324	0	PA_with_intermediate	1,3,0,2,0,0,0,0,0	test	ward_and_allport	1,3,0,2,0,0,0,0,0	89.0	19.0	0.324	1,2,3,0,0,0,0,0,0	to_board	s604
224.622	1.0	0	PA_with_intermediate	n/a	test	ward_and_allport	n/a	-1.0	19.0	n/a	n/a	feedback	s604
225.622	1.272	0	PA_with_intermediate	n/a	test	ward_and_allport	n/a	-1.0	19.0	n/a	n/a	ITI	s604
226.898	2.65	1	PA_with_intermediate	1,2,0,0,0,0,0,0,0	test	ward_and_allport	1,3,0,0,0,0,2,0,0	89.0	20.0	2.65	1,2,3,0,0,0,0,0,0	to_hand	s604
229.55	0.615	0	PA_with_intermediate	1,2,0,3,0,0,0,0,0	test	ward_and_allport	1,3,0,0,0,0,2,0,0	71.0	20.0	0.615	1,2,3,0,0,0,0,0,0	to_board	s604
230.17	0.356	0	PA_with_intermediate	1,0,0,3,0,0,0,0,0	test	ward_and_allport	1,3,0,0,0,0,2,0,0	89.0	20.0	0.356	1,2,3,0,0,0,0,0,0	to_hand	s604
230.526	0.316	0	PA_with_intermediate	1,0,0,3,0,0,2,0,0	test	ward_and_allport	1,3,0,0,0,0,2,0,0	82.0	20.0	0.316	1,2,3,0,0,0,0,0,0	to_board	s604
230.846	0.505	0	PA_with_intermediate	1,0,0,0,0,0,2,0,0	test	ward_and_allport	1,3,0,0,0,0,2,0,0	71.0	20.0	0.505	1,2,3,0,0,0,0,0,0	to_hand	s604
231.352	0.306	0	PA_with_intermediate	1,3,0,0,0,0,2,0,0	test	ward_and_allport	1,3,0,0,0,0,2,0,0	89.0	20.0	0.306	1,2,3,0,0,0,0,0,0	to_board	s604
231.668	1.0	0	PA_with_intermediate	n/a	test	ward_and_allport	n/a	-1.0	20.0	n/a	n/a	feedback	s604
232.668	1.136	0	PA_with_intermediate	n/a	test	ward_and_allport	n/a	-1.0	20.0	n/a	n/a	ITI	s604
233.807	1.874	1	PA_with_intermediate	0,0,0,0,0,0,1,2,0	test	ward_and_allport	0,0,0,2,0,0,1,3,0	82.0	21.0	1.874	0,0,0,0,0,0,1,2,3	to_hand	s604
235.682	0.379	0	PA_with_intermediate	3,0,0,0,0,0,1,2,0	test	ward_and_allport	0,0,0,2,0,0,1,3,0	89.0	21.0	0.379	0,0,0,0,0,0,1,2,3	to_board	s604
236.065	0.324	0	PA_with_intermediate	3,0,0,0,0,0,1,0,0	test	ward_and_allport	0,0,0,2,0,0,1,3,0	82.0	21.0	0.324	0,0,0,0,0,0,1,2,3	to_hand	s604
236.39	0.334	0	PA_with_intermediate	3,0,0,2,0,0,1,0,0	test	ward_and_allport	0,0,0,2,0,0,1,3,0	71.0	21.0	0.334	0,0,0,0,0,0,1,2,3	to_board	s604
236.73	0.297	0	PA_with_intermediate	0,0,0,2,0,0,1,0,0	test	ward_and_allport	0,0,0,2,0,0,1,3,0	89.0	21.0	0.297	0,0,0,0,0,0,1,2,3	to_hand	s604
237.028	0.264	0	PA_with_intermediate	0,0,0,2,0,0,1,3,0	test	ward_and_allport	0,0,0,2,0,0,1,3,0	82.0	21.0	0.264	0,0,0,0,0,0,1,2,3	to_board	s604
237.301	1.0	0	PA_with_intermediate	n/a	test	ward_and_allport	n/a	-1.0	21.0	n/a	n/a	feedback	s604
238.301	1.0	0	PA_with_intermediate	n/a	test	ward_and_allport	n/a	-1.0	21.0	n/a	n/a	ITI	s604
239.305	3.209	1	PA_with_intermediate	0,0,0,1,2,0,0,0,0	test	ward_and_allport	2,3,0,1,0,0,0,0,0	71.0	22.0	3.209	0,0,0,1,2,3,0,0,0	to_hand	s604
242.515	0.409	0	PA_with_intermediate	0,0,0,1,2,0,3,0,0	test	ward_and_allport	2,3,0,1,0,0,0,0,0	82.0	22.0	0.409	0,0,0,1,2,3,0,0,0	to_board	s604
242.93	0.516	0	PA_with_intermediate	0,0,0,1,0,0,3,0,0	test	ward_and_allport	2,3,0,1,0,0,0,0,0	71.0	22.0	0.516	0,0,0,1,2,3,0,0,0	to_hand	s604
243.447	0.367	0	PA_with_intermediate	2,0,0,1,0,0,3,0,0	test	ward_and_allport	2,3,0,1,0,0,0,0,0	89.0	22.0	0.367	0,0,0,1,2,3,0,0,0	to_board	s604
243.82	0.307	0	PA_with_intermediate	2,0,0,1,0,0,0,0,0	test	ward_and_allport	2,3,0,1,0,0,0,0,0	82.0	22.0	0.307	0,0,0,1,2,3,0,0,0	to_hand	s604
244.128	0.317	0	PA_with_intermediate	2,3,0,1,0,0,0,0,0	test	ward_and_allport	2,3,0,1,0,0,0,0,0	89.0	22.0	0.317	0,0,0,1,2,3,0,0,0	to_board	s604
244.452	1.0	0	PA_with_intermediate	n/a	test	ward_and_allport	n/a	-1.0	22.0	n/a	n/a	feedback	s604
245.452	1.0	0	PA_with_intermediate	n/a	test	ward_and_allport	n/a	-1.0	22.0	n/a	n/a	ITI	s604
246.456	1.821	1	PA_without_intermediate	0,0,0,0,0,0,1,2,0	test	ward_and_allport	3,1,0,2,0,0,0,0,0	82.0	23.0	1.821	0,0,0,0,0,0,1,2,3	to_hand	s604
248.279	0.375	0	PA_without_intermediate	3,0,0,0,0,0,1,2,0	test	ward_and_allport	3,1,0,2,0,0,0,0,0	89.0	23.0	0.375	0,0,0,0,0,0,1,2,3	to_board	s604
248.658	2.235	0	PA_without_intermediate	3,0,0,0,0,0,1,0,0	test	ward_and_allport	3,1,0,2,0,0,0,0,0	82.0	23.0	2.235	0,0,0,0,0,0,1,2,3	to_hand	s604
250.894	0.28	0	PA_without_intermediate	3,0,0,2,0,0,1,0,0	test	ward_and_allport	3,1,0,2,0,0,0,0,0	71.0	23.0	0.28	0,0,0,0,0,0,1,2,3	to_board	s604
251.179	0.35	0	PA_without_intermediate	3,0,0,2,0,0,0,0,0	test	ward_and_allport	3,1,0,2,0,0,0,0,0	82.0	23.0	0.35	0,0,0,0,0,0,1,2,3	to_hand	s604
251.531	0.367	0	PA_without_intermediate	3,1,0,2,0,0,0,0,0	test	ward_and_allport	3,1,0,2,0,0,0,0,0	89.0	23.0	0.367	0,0,0,0,0,0,1,2,3	to_board	s604
251.904	1.0	0	PA_without_intermediate	n/a	test	ward_and_allport	n/a	-1.0	23.0	n/a	n/a	feedback	s604
252.904	1.408	0	PA_without_intermediate	n/a	test	ward_and_allport	n/a	-1.0	23.0	n/a	n/a	ITI	s604
254.317	2.968	1	PA_with_intermediate	0,0,0,1,2,0,0,0,0	test	ward_and_allport	0,0,0,1,0,0,2,3,0	71.0	24.0	2.968	0,0,0,1,2,3,0,0,0	to_hand	s604
257.286	0.366	0	PA_with_intermediate	3,0,0,1,2,0,0,0,0	test	ward_and_allport	0,0,0,1,0,0,2,3,0	89.0	24.0	0.366	0,0,0,1,2,3,0,0,0	to_board	s604
257.657	0.316	0	PA_with_intermediate	3,0,0,1,0,0,0,0,0	test	ward_and_allport	0,0,0,1,0,0,2,3,0	71.0	24.0	0.316	0,0,0,1,2,3,0,0,0	to_hand	s604
257.974	0.267	0	PA_with_intermediate	3,0,0,1,0,0,2,0,0	test	ward_and_allport	0,0,0,1,0,0,2,3,0	82.0	24.0	0.267	0,0,0,1,2,3,0,0,0	to_board	s604
258.246	0.258	0	PA_with_intermediate	0,0,0,1,0,0,2,0,0	test	ward_and_allport	0,0,0,1,0,0,2,3,0	89.0	24.0	0.258	0,0,0,1,2,3,0,0,0	to_hand	s604
258.505	0.202	0	PA_with_intermediate	0,0,0,1,0,0,2,3,0	test	ward_and_allport	0,0,0,1,0,0,2,3,0	82.0	24.0	0.202	0,0,0,1,2,3,0,0,0	to_board	s604
258.715	1.0	0	PA_with_intermediate	n/a	test	ward_and_allport	n/a	-1.0	24.0	n/a	n/a	feedback	s604
259.715	2.768	0	PA_with_intermediate	n/a	test	ward_and_allport	n/a	-1.0	24.0	n/a	n/a	ITI	s604
262.49	3.117	1	PA_with_intermediate	1,2,0,0,0,0,0,0,0	test	ward_and_allport	1,0,0,0,0,0,2,3,0	89.0	25.0	3.117	1,2,3,0,0,0,0,0,0	to_hand	s604
265.608	0.23	0	PA_with_intermediate	1,2,0,3,0,0,0,0,0	test	ward_and_allport	1,0,0,0,0,0,2,3,0	71.0	25.0	0.23	1,2,3,0,0,0,0,0,0	to_board	s604
265.843	0.584	0	PA_with_intermediate	1,0,0,3,0,0,0,0,0	test	ward_and_allport	1,0,0,0,0,0,2,3,0	89.0	25.0	0.584	1,2,3,0,0,0,0,0,0	to_hand	s604
266.429	0.264	0	PA_with_intermediate	1,0,0,3,0,0,2,0,0	test	ward_and_allport	1,0,0,0,0,0,2,3,0	82.0	25.0	0.264	1,2,3,0,0,0,0,0,0	to_board	s604
266.7	0.41	0	PA_with_intermediate	1,0,0,0,0,0,2,0,0	test	ward_and_allport	1,0,0,0,0,0,2,3,0	71.0	25.0	0.41	1,2,3,0,0,0,0,0,0	to_hand	s604
267.111	0.196	0	PA_with_intermediate	1,0,0,0,0,0,2,3,0	test	ward_and_allport	1,0,0,0,0,0,2,3,0	82.0	25.0	0.196	1,2,3,0,0,0,0,0,0	to_board	s604
267.318	1.0	0	PA_with_intermediate	n/a	test	ward_and_allport	n/a	-1.0	25.0	n/a	n/a	feedback	s604
268.318	1.68	0	PA_with_intermediate	n/a	test	ward_and_allport	n/a	-1.0	25.0	n/a	n/a	ITI	s604
270.004	3.989	1	PA_without_intermediate	1,2,0,0,0,0,0,0,0	test	ward_and_allport	0,0,0,1,0,0,3,2,0	89.0	26.0	3.989	1,2,3,0,0,0,0,0,0	to_hand	s604
273.994	0.235	0	PA_without_intermediate	1,2,0,0,0,0,3,0,0	test	ward_and_allport	0,0,0,1,0,0,3,2,0	82.0	26.0	0.235	1,2,3,0,0,0,0,0,0	to_board	s604
274.236	0.634	0	PA_without_intermediate	1,0,0,0,0,0,3,0,0	test	ward_and_allport	0,0,0,1,0,0,3,2,0	89.0	26.0	0.634	1,2,3,0,0,0,0,0,0	to_hand	s604
274.871	0.213	0	PA_without_intermediate	1,0,0,0,0,0,3,2,0	test	ward_and_allport	0,0,0,1,0,0,3,2,0	82.0	26.0	0.213	1,2,3,0,0,0,0,0,0	to_board	s604
275.091	0.396	0	PA_without_intermediate	0,0,0,0,0,0,3,2,0	test	ward_and_allport	0,0,0,1,0,0,3,2,0	89.0	26.0	0.396	1,2,3,0,0,0,0,0,0	to_hand	s604
275.488	0.227	0	PA_without_intermediate	0,0,0,1,0,0,3,2,0	test	ward_and_allport	0,0,0,1,0,0,3,2,0	71.0	26.0	0.227	1,2,3,0,0,0,0,0,0	to_board	s604
275.726	1.0	0	PA_without_intermediate	n/a	test	ward_and_allport	n/a	-1.0	26.0	n/a	n/a	feedback	s604
276.726	2.224	0	PA_without_intermediate	n/a	test	ward_and_allport	n/a	-1.0	26.0	n/a	n/a	ITI	s604
278.955	2.451	1	PA_without_intermediate	0,0,0,0,0,0,1,2,0	test	ward_and_allport	2,0,0,3,1,0,0,0,0	82.0	27.0	2.451	0,0,0,0,0,0,1,2,3	to_hand	s604
281.407	0.512	0	PA_without_intermediate	0,0,0,3,0,0,1,2,0	test	ward_and_allport	2,0,0,3,1,0,0,0,0	71.0	27.0	0.512	0,0,0,0,0,0,1,2,3	to_board	s604
281.925	1.013	0	PA_without_intermediate	0,0,0,3,0,0,1,0,0	test	ward_and_allport	2,0,0,3,1,0,0,0,0	82.0	27.0	1.013	0,0,0,0,0,0,1,2,3	to_hand	s604
282.939	0.316	0	PA_without_intermediate	2,0,0,3,0,0,1,0,0	test	ward_and_allport	2,0,0,3,1,0,0,0,0	89.0	27.0	0.316	0,0,0,0,0,0,1,2,3	to_board	s604
283.26	0.321	0	PA_without_intermediate	2,0,0,3,0,0,0,0,0	test	ward_and_allport	2,0,0,3,1,0,0,0,0	82.0	27.0	0.321	0,0,0,0,0,0,1,2,3	to_hand	s604
283.582	0.322	0	PA_without_intermediate	2,0,0,3,1,0,0,0,0	test	ward_and_allport	2,0,0,3,1,0,0,0,0	71.0	27.0	0.322	0,0,0,0,0,0,1,2,3	to_board	s604
283.919	1.0	0	PA_without_intermediate	n/a	test	ward_and_allport	n/a	-1.0	27.0	n/a	n/a	feedback	s604
284.919	2.36	0	PA_without_intermediate	n/a	test	ward_and_allport	n/a	-1.0	27.0	n/a	n/a	ITI	s604
287.284	2.081	1	PA_without_intermediate	0,0,0,1,2,0,0,0,0	test	ward_and_allport	1,0,0,0,0,0,3,2,0	71.0	28.0	2.081	0,0,0,1,2,3,0,0,0	to_hand	s604
289.366	0.372	0	PA_without_intermediate	0,0,0,1,2,0,3,0,0	test	ward_and_allport	1,0,0,0,0,0,3,2,0	82.0	28.0	0.372	0,0,0,1,2,3,0,0,0	to_board	s604
289.743	0.341	0	PA_without_intermediate	0,0,0,1,0,0,3,0,0	test	ward_and_allport	1,0,0,0,0,0,3,2,0	71.0	28.0	0.341	0,0,0,1,2,3,0,0,0	to_hand	s604
290.085	0.346	0	PA_without_intermediate	0,0,0,1,0,0,3,2,0	test	ward_and_allport	1,0,0,0,0,0,3,2,0	82.0	28.0	0.346	0,0,0,1,2,3,0,0,0	to_board	s604
290.437	0.379	0	PA_without_intermediate	0,0,0,0,0,0,3,2,0	test	ward_and_allport	1,0,0,0,0,0,3,2,0	71.0	28.0	0.379	0,0,0,1,2,3,0,0,0	to_hand	s604
290.818	0.296	0	PA_without_intermediate	1,0,0,0,0,0,3,2,0	test	ward_and_allport	1,0,0,0,0,0,3,2,0	89.0	28.0	0.296	0,0,0,1,2,3,0,0,0	to_board	s604
291.128	1.0	0	PA_without_intermediate	n/a	test	ward_and_allport	n/a	-1.0	28.0	n/a	n/a	feedback	s604
292.128	1.0	0	PA_without_intermediate	n/a	test	ward_and_allport	n/a	-1.0	28.0	n/a	n/a	ITI	s604
293.135	1.721	1	PA_without_intermediate	1,2,0,0,0,0,0,0,0	test	ward_and_allport	0,0,0,3,2,0,1,0,0	89.0	29.0	1.721	1,2,3,0,0,0,0,0,0	to_hand	s604
294.857	0.38	0	PA_without_intermediate	1,2,0,3,0,0,0,0,0	test	ward_and_allport	0,0,0,3,2,0,1,0,0	71.0	29.0	0.38	1,2,3,0,0,0,0,0,0	to_board	s604
295.243	0.506	0	PA_without_intermediate	1,0,0,3,0,0,0,0,0	test	ward_and_allport	0,0,0,3,2,0,1,0,0	89.0	29.0	0.506	1,2,3,0,0,0,0,0,0	to_hand	s604
295.751	0.51	0	PA_without_intermediate	1,0,0,3,2,0,0,0,0	test	ward_and_allport	0,0,0,3,2,0,1,0,0	71.0	29.0	0.51	1,2,3,0,0,0,0,0,0	to_board	s604
296.267	0.46	0	PA_without_intermediate	0,0,0,3,2,0,0,0,0	test	ward_and_allport	0,0,0,3,2,0,1,0,0	89.0	29.0	0.46	1,2,3,0,0,0,0,0,0	to_hand	s604
296.729	0.32	0	PA_without_intermediate	0,0,0,3,2,0,1,0,0	test	ward_and_allport	0,0,0,3,2,0,1,0,0	82.0	29.0	0.32	1,2,3,0,0,0,0,0,0	to_board	s604
297.06	1.0	0	PA_without_intermediate	n/a	test	ward_and_allport	n/a	-1.0	29.0	n/a	n/a	feedback	s604
298.06	1.408	0	PA_without_intermediate	n/a	test	ward_and_allport	n/a	-1.0	29.0	n/a	n/a	ITI	s604
304.479	2.875	1	PA_with_intermediate	0,0,0,1,2,0,0,0,0	test	ward_and_allport	0,0,0,1,3,0,2,0,0	71.0	30.0	2.875	0,0,0,1,2,3,0,0,0	to_hand	s604
307.355	0.294	0	PA_with_intermediate	3,0,0,1,2,0,0,0,0	test	ward_and_allport	0,0,0,1,3,0,2,0,0	89.0	30.0	0.294	0,0,0,1,2,3,0,0,0	to_board	s604
307.655	0.309	0	PA_with_intermediate	3,0,0,1,0,0,0,0,0	test	ward_and_allport	0,0,0,1,3,0,2,0,0	71.0	30.0	0.309	0,0,0,1,2,3,0,0,0	to_hand	s604
307.965	0.255	0	PA_with_intermediate	3,0,0,1,0,0,2,0,0	test	ward_and_allport	0,0,0,1,3,0,2,0,0	82.0	30.0	0.255	0,0,0,1,2,3,0,0,0	to_board	s604
308.226	0.286	0	PA_with_intermediate	0,0,0,1,0,0,2,0,0	test	ward_and_allport	0,0,0,1,3,0,2,0,0	89.0	30.0	0.286	0,0,0,1,2,3,0,0,0	to_hand	s604
308.513	0.261	0	PA_with_intermediate	0,0,0,1,3,0,2,0,0	test	ward_and_allport	0,0,0,1,3,0,2,0,0	71.0	30.0	0.261	0,0,0,1,2,3,0,0,0	to_board	s604
308.785	1.0	0	PA_with_intermediate	n/a	test	ward_and_allport	n/a	-1.0	30.0	n/a	n/a	feedback	s604
309.785	1.136	0	PA_with_intermediate	n/a	test	ward_and_allport	n/a	-1.0	30.0	n/a	n/a	ITI	s604
310.927	4.018	1	PA_without_intermediate	1,2,0,0,0,0,0,0,0	test	ward_and_allport	0,0,0,3,1,0,2,0,0	89.0	31.0	4.018	1,2,3,0,0,0,0,0,0	to_hand	s604
314.947	0.408	0	PA_without_intermediate	1,2,0,3,0,0,0,0,0	test	ward_and_allport	0,0,0,3,1,0,2,0,0	71.0	31.0	0.408	1,2,3,0,0,0,0,0,0	to_board	s604
315.362	0.529	0	PA_without_intermediate	1,0,0,3,0,0,0,0,0	test	ward_and_allport	0,0,0,3,1,0,2,0,0	89.0	31.0	0.529	1,2,3,0,0,0,0,0,0	to_hand	s604
315.891	0.408	0	PA_without_intermediate	1,0,0,3,0,0,2,0,0	test	ward_and_allport	0,0,0,3,1,0,2,0,0	82.0	31.0	0.408	1,2,3,0,0,0,0,0,0	to_board	s604
316.305	0.247	0	PA_without_intermediate	0,0,0,3,0,0,2,0,0	test	ward_and_allport	0,0,0,3,1,0,2,0,0	89.0	31.0	0.247	1,2,3,0,0,0,0,0,0	to_hand	s604
316.553	0.207	0	PA_without_intermediate	0,0,0,3,1,0,2,0,0	test	ward_and_allport	0,0,0,3,1,0,2,0,0	71.0	31.0	0.207	1,2,3,0,0,0,0,0,0	to_board	s604
316.769	1.0	0	PA_without_intermediate	n/a	test	ward_and_allport	n/a	-1.0	31.0	n/a	n/a	feedback	s604
317.769	4.128	0	PA_without_intermediate	n/a	test	ward_and_allport	n/a	-1.0	31.0	n/a	n/a	ITI	s604
321.903	1.924	1	PA_without_intermediate	0,0,0,1,2,0,0,0,0	test	ward_and_allport	2,0,0,0,0,0,3,1,0	71.0	32.0	1.924	0,0,0,1,2,3,0,0,0	to_hand	s604
323.828	0.381	0	PA_without_intermediate	0,0,0,1,2,0,3,0,0	test	ward_and_allport	2,0,0,0,0,0,3,1,0	82.0	32.0	0.381	0,0,0,1,2,3,0,0,0	to_board	s604
324.217	0.691	0	PA_without_intermediate	0,0,0,1,0,0,3,0,0	test	ward_and_allport	2,0,0,0,0,0,3,1,0	71.0	32.0	0.691	0,0,0,1,2,3,0,0,0	to_hand	s604
324.909	0.246	0	PA_without_intermediate	2,0,0,1,0,0,3,0,0	test	ward_and_allport	2,0,0,0,0,0,3,1,0	89.0	32.0	0.246	0,0,0,1,2,3,0,0,0	to_board	s604
325.162	0.251	0	PA_without_intermediate	2,0,0,0,0,0,3,0,0	test	ward_and_allport	2,0,0,0,0,0,3,1,0	71.0	32.0	0.251	0,0,0,1,2,3,0,0,0	to_hand	s604
325.414	0.253	0	PA_without_intermediate	2,0,0,0,0,0,3,1,0	test	ward_and_allport	2,0,0,0,0,0,3,1,0	82.0	32.0	0.253	0,0,0,1,2,3,0,0,0	to_board	s604
325.681	1.0	0	PA_without_intermediate	n/a	test	ward_and_allport	n/a	-1.0	32.0	n/a	n/a	feedback	s604
326.681	1.136	0	PA_without_intermediate	n/a	test	ward_and_allport	n/a	-1.0	32.0	n/a	n/a	ITI	s604
327.824	2.855	1	PA_without_intermediate	0,0,0,0,0,0,1,2,0	test	ward_and_allport	1,0,0,3,2,0,0,0,0	82.0	33.0	2.855	0,0,0,0,0,0,1,2,3	to_hand	s604
330.68	0.272	0	PA_without_intermediate	0,0,0,3,0,0,1,2,0	test	ward_and_allport	1,0,0,3,2,0,0,0,0	71.0	33.0	0.272	0,0,0,0,0,0,1,2,3	to_board	s604
330.957	0.434	0	PA_without_intermediate	0,0,0,3,0,0,1,0,0	test	ward_and_allport	1,0,0,3,2,0,0,0,0	82.0	33.0	0.434	0,0,0,0,0,0,1,2,3	to_hand	s604
331.392	0.252	0	PA_without_intermediate	0,0,0,3,2,0,1,0,0	test	ward_and_allport	1,0,0,3,2,0,0,0,0	71.0	33.0	0.252	0,0,0,0,0,0,1,2,3	to_board	s604
331.651	0.487	0	PA_without_intermediate	0,0,0,3,2,0,0,0,0	test	ward_and_allport	1,0,0,3,2,0,0,0,0	82.0	33.0	0.487	0,0,0,0,0,0,1,2,3	to_hand	s604
332.139	0.357	0	PA_without_intermediate	1,0,0,3,2,0,0,0,0	test	ward_and_allport	1,0,0,3,2,0,0,0,0	89.0	33.0	0.357	0,0,0,0,0,0,1,2,3	to_board	s604
332.507	1.0	0	PA_without_intermediate	n/a	test	ward_and_allport	n/a	-1.0	33.0	n/a	n/a	feedback	s604
333.507	4.264	0	PA_without_intermediate	n/a	test	ward_and_allport	n/a	-1.0	33.0	n/a	n/a	ITI	s604
337.776	2.504	1	PA_with_intermediate	0,0,0,0,0,0,1,2,0	test	ward_and_allport	0,0,0,2,0,0,1,3,0	82.0	34.0	2.504	0,0,0,0,0,0,1,2,3	to_hand	s604
340.281	0.302	0	PA_with_intermediate	3,0,0,0,0,0,1,2,0	test	ward_and_allport	0,0,0,2,0,0,1,3,0	89.0	34.0	0.302	0,0,0,0,0,0,1,2,3	to_board	s604
340.589	0.525	0	PA_with_intermediate	3,0,0,0,0,0,1,0,0	test	ward_and_allport	0,0,0,2,0,0,1,3,0	82.0	34.0	0.525	0,0,0,0,0,0,1,2,3	to_hand	s604
341.115	0.306	0	PA_with_intermediate	3,0,0,2,0,0,1,0,0	test	ward_and_allport	0,0,0,2,0,0,1,3,0	71.0	34.0	0.306	0,0,0,0,0,0,1,2,3	to_board	s604
341.428	0.704	0	PA_with_intermediate	0,0,0,2,0,0,1,0,0	test	ward_and_allport	0,0,0,2,0,0,1,3,0	89.0	34.0	0.704	0,0,0,0,0,0,1,2,3	to_hand	s604
342.133	0.393	0	PA_with_intermediate	0,0,0,2,0,0,1,3,0	test	ward_and_allport	0,0,0,2,0,0,1,3,0	82.0	34.0	0.393	0,0,0,0,0,0,1,2,3	to_board	s604
342.539	1.0	0	PA_with_intermediate	n/a	test	ward_and_allport	n/a	-1.0	34.0	n/a	n/a	feedback	s604
343.539	3.04	0	PA_with_intermediate	n/a	test	ward_and_allport	n/a	-1.0	34.0	n/a	n/a	ITI	s604
346.586	2.41	1	PA_with_intermediate	0,0,0,1,2,0,0,0,0	test	ward_and_allport	2,0,0,1,3,0,0,0,0	71.0	35.0	2.41	0,0,0,1,2,3,0,0,0	to_hand	s604
348.996	0.291	0	PA_with_intermediate	0,0,0,1,2,0,3,0,0	test	ward_and_allport	2,0,0,1,3,0,0,0,0	82.0	35.0	0.291	0,0,0,1,2,3,0,0,0	to_board	s604
349.295	0.296	0	PA_with_intermediate	0,0,0,1,0,0,3,0,0	test	ward_and_allport	2,0,0,1,3,0,0,0,0	71.0	35.0	0.296	0,0,0,1,2,3,0,0,0	to_hand	s604
349.592	0.343	0	PA_with_intermediate	2,0,0,1,0,0,3,0,0	test	ward_and_allport	2,0,0,1,3,0,0,0,0	89.0	35.0	0.343	0,0,0,1,2,3,0,0,0	to_board	s604
349.943	0.34	0	PA_with_intermediate	2,0,0,1,0,0,0,0,0	test	ward_and_allport	2,0,0,1,3,0,0,0,0	82.0	35.0	0.34	0,0,0,1,2,3,0,0,0	to_hand	s604
350.284	0.316	0	PA_with_intermediate	2,0,0,1,3,0,0,0,0	test	ward_and_allport	2,0,0,1,3,0,0,0,0	71.0	35.0	0.316	0,0,0,1,2,3,0,0,0	to_board	s604
350.611	1.0	0	PA_with_intermediate	n/a	test	ward_and_allport	n/a	-1.0	35.0	n/a	n/a	feedback	s604
351.611	1.136	0	PA_with_intermediate	n/a	test	ward_and_allport	n/a	-1.0	35.0	n/a	n/a	ITI	s604
352.752	3.367	1	PA_with_intermediate	0,0,0,1,2,0,0,0,0	test	ward_and_allport	2,3,0,1,0,0,0,0,0	71.0	36.0	3.367	0,0,0,1,2,3,0,0,0	to_hand	s604
356.12	0.596	0	PA_with_intermediate	0,0,0,1,2,0,3,0,0	test	ward_and_allport	2,3,0,1,0,0,0,0,0	82.0	36.0	0.596	0,0,0,1,2,3,0,0,0	to_board	s604
356.721	0.481	0	PA_with_intermediate	0,0,0,1,0,0,3,0,0	test	ward_and_allport	2,3,0,1,0,0,0,0,0	71.0	36.0	0.481	0,0,0,1,2,3,0,0,0	to_hand	s604
357.204	0.316	0	PA_with_intermediate	2,0,0,1,0,0,3,0,0	test	ward_and_allport	2,3,0,1,0,0,0,0,0	89.0	36.0	0.316	0,0,0,1,2,3,0,0,0	to_board	s604
357.528	0.503	0	PA_with_intermediate	2,0,0,1,0,0,0,0,0	test	ward_and_allport	2,3,0,1,0,0,0,0,0	82.0	36.0	0.503	0,0,0,1,2,3,0,0,0	to_hand	s604
358.032	0.266	0	PA_with_intermediate	2,3,0,1,0,0,0,0,0	test	ward_and_allport	2,3,0,1,0,0,0,0,0	89.0	36.0	0.266	0,0,0,1,2,3,0,0,0	to_board	s604
358.312	1.0	0	PA_with_intermediate	n/a	test	ward_and_allport	n/a	-1.0	36.0	n/a	n/a	feedback	s604
359.312	1.408	0	PA_with_intermediate	n/a	test	ward_and_allport	n/a	-1.0	36.0	n/a	n/a	ITI	s604
360.727	2.915	1	PA_without_intermediate	1,2,0,0,0,0,0,0,0	test	ward_and_allport	0,0,0,3,1,0,2,0,0	89.0	37.0	2.915	1,2,3,0,0,0,0,0,0	to_hand	s604
363.643	0.29	0	PA_without_intermediate	1,2,0,3,0,0,0,0,0	test	ward_and_allport	0,0,0,3,1,0,2,0,0	71.0	37.0	0.29	1,2,3,0,0,0,0,0,0	to_board	s604
363.939	0.48	0	PA_without_intermediate	1,0,0,3,0,0,0,0,0	test	ward_and_allport	0,0,0,3,1,0,2,0,0	89.0	37.0	0.48	1,2,3,0,0,0,0,0,0	to_hand	s604
364.421	0.372	0	PA_without_intermediate	1,0,0,3,0,0,2,0,0	test	ward_and_allport	0,0,0,3,1,0,2,0,0	82.0	37.0	0.372	1,2,3,0,0,0,0,0,0	to_board	s604
364.803	0.459	0	PA_without_intermediate	0,0,0,3,0,0,2,0,0	test	ward_and_allport	0,0,0,3,1,0,2,0,0	89.0	37.0	0.459	1,2,3,0,0,0,0,0,0	to_hand	s604
365.264	0.263	0	PA_without_intermediate	0,0,0,3,1,0,2,0,0	test	ward_and_allport	0,0,0,3,1,0,2,0,0	71.0	37.0	0.263	1,2,3,0,0,0,0,0,0	to_board	s604
365.539	1.0	0	PA_without_intermediate	n/a	test	ward_and_allport	n/a	-1.0	37.0	n/a	n/a	feedback	s604
366.539	1.68	0	PA_without_intermediate	n/a	test	ward_and_allport	n/a	-1.0	37.0	n/a	n/a	ITI	s604
368.224	2.123	1	PA_with_intermediate	1,2,0,0,0,0,0,0,0	test	ward_and_allport	1,3,0,2,0,0,0,0,0	89.0	38.0	2.123	1,2,3,0,0,0,0,0,0	to_hand	s604
370.348	0.283	0	PA_with_intermediate	1,2,0,0,0,0,3,0,0	test	ward_and_allport	1,3,0,2,0,0,0,0,0	82.0	38.0	0.283	1,2,3,0,0,0,0,0,0	to_board	s604
370.637	0.414	0	PA_with_intermediate	1,0,0,0,0,0,3,0,0	test	ward_and_allport	1,3,0,2,0,0,0,0,0	89.0	38.0	0.414	1,2,3,0,0,0,0,0,0	to_hand	s604
371.052	0.279	0	PA_with_intermediate	1,0,0,2,0,0,3,0,0	test	ward_and_allport	1,3,0,2,0,0,0,0,0	71.0	38.0	0.279	1,2,3,0,0,0,0,0,0	to_board	s604
371.338	0.293	0	PA_with_intermediate	1,0,0,2,0,0,0,0,0	test	ward_and_allport	1,3,0,2,0,0,0,0,0	82.0	38.0	0.293	1,2,3,0,0,0,0,0,0	to_hand	s604
371.632	0.287	0	PA_with_intermediate	1,3,0,2,0,0,0,0,0	test	ward_and_allport	1,3,0,2,0,0,0,0,0	89.0	38.0	0.287	1,2,3,0,0,0,0,0,0	to_board	s604
371.928	1.0	0	PA_with_intermediate	n/a	test	ward_and_allport	n/a	-1.0	38.0	n/a	n/a	feedback	s604
372.928	3.72	0	PA_with_intermediate	n/a	test	ward_and_allport	n/a	-1.0	38.0	n/a	n/a	ITI	s604
376.655	1.825	1	PA_without_intermediate	0,0,0,1,2,0,0,0,0	test	ward_and_allport	3,1,0,0,0,0,2,0,0	71.0	39.0	1.825	0,0,0,1,2,3,0,0,0	to_hand	s604
378.482	0.303	0	PA_without_intermediate	3,0,0,1,2,0,0,0,0	test	ward_and_allport	3,1,0,0,0,0,2,0,0	89.0	39.0	0.303	0,0,0,1,2,3,0,0,0	to_board	s604
378.793	0.286	0	PA_without_intermediate	3,0,0,1,0,0,0,0,0	test	ward_and_allport	3,1,0,0,0,0,2,0,0	71.0	39.0	0.286	0,0,0,1,2,3,0,0,0	to_hand	s604
379.081	0.258	0	PA_without_intermediate	3,0,0,1,0,0,2,0,0	test	ward_and_allport	3,1,0,0,0,0,2,0,0	82.0	39.0	0.258	0,0,0,1,2,3,0,0,0	to_board	s604
379.346	0.43	0	PA_without_intermediate	3,0,0,0,0,0,2,0,0	test	ward_and_allport	3,1,0,0,0,0,2,0,0	71.0	39.0	0.43	0,0,0,1,2,3,0,0,0	to_hand	s604
379.777	0.379	0	PA_without_intermediate	3,1,0,0,0,0,2,0,0	test	ward_and_allport	3,1,0,0,0,0,2,0,0	89.0	39.0	0.379	0,0,0,1,2,3,0,0,0	to_board	s604
380.166	1.0	0	PA_without_intermediate	n/a	test	ward_and_allport	n/a	-1.0	39.0	n/a	n/a	feedback	s604
381.166	2.224	0	PA_without_intermediate	n/a	test	ward_and_allport	n/a	-1.0	39.0	n/a	n/a	ITI	s604
383.395	2.346	1	PA_without_intermediate	1,2,0,0,0,0,0,0,0	test	ward_and_allport	0,0,0,1,0,0,3,2,0	89.0	40.0	2.346	1,2,3,0,0,0,0,0,0	to_hand	s604
385.742	0.264	0	PA_without_intermediate	1,2,0,0,0,0,3,0,0	test	ward_and_allport	0,0,0,1,0,0,3,2,0	82.0	40.0	0.264	1,2,3,0,0,0,0,0,0	to_board	s604
386.013	0.309	0	PA_without_intermediate	1,0,0,0,0,0,3,0,0	test	ward_and_allport	0,0,0,1,0,0,3,2,0	89.0	40.0	0.309	1,2,3,0,0,0,0,0,0	to_hand	s604
386.324	0.252	0	PA_without_intermediate	1,0,0,0,0,0,3,2,0	test	ward_and_allport	0,0,0,1,0,0,3,2,0	82.0	40.0	0.252	1,2,3,0,0,0,0,0,0	to_board	s604
386.584	0.363	0	PA_without_intermediate	0,0,0,0,0,0,3,2,0	test	ward_and_allport	0,0,0,1,0,0,3,2,0	89.0	40.0	0.363	1,2,3,0,0,0,0,0,0	to_hand	s604
386.948	0.246	0	PA_without_intermediate	0,0,0,1,0,0,3,2,0	test	ward_and_allport	0,0,0,1,0,0,3,2,0	71.0	40.0	0.246	1,2,3,0,0,0,0,0,0	to_board	s604
387.207	1.0	0	PA_without_intermediate	n/a	test	ward_and_allport	n/a	-1.0	40.0	n/a	n/a	feedback	s604
388.207	1.272	0	PA_without_intermediate	n/a	test	ward_and_allport	n/a	-1.0	40.0	n/a	n/a	ITI	s604
389.487	3.207	1	PA_with_intermediate	0,0,0,1,2,0,0,0,0	test	ward_and_allport	2,0,0,1,3,0,0,0,0	71.0	41.0	3.207	0,0,0,1,2,3,0,0,0	to_hand	s604
392.694	0.452	0	PA_with_intermediate	0,0,0,1,2,0,3,0,0	test	ward_and_allport	2,0,0,1,3,0,0,0,0	82.0	41.0	0.452	0,0,0,1,2,3,0,0,0	to_board	s604
393.152	0.341	0	PA_with_intermediate	0,0,0,1,0,0,3,0,0	test	ward_and_allport	2,0,0,1,3,0,0,0,0	71.0	41.0	0.341	0,0,0,1,2,3,0,0,0	to_hand	s604
393.494	0.349	0	PA_with_intermediate	2,0,0,1,0,0,3,0,0	test	ward_and_allport	2,0,0,1,3,0,0,0,0	89.0	41.0	0.349	0,0,0,1,2,3,0,0,0	to_board	s604
393.85	0.371	0	PA_with_intermediate	2,0,0,1,0,0,0,0,0	test	ward_and_allport	2,0,0,1,3,0,0,0,0	82.0	41.0	0.371	0,0,0,1,2,3,0,0,0	to_hand	s604
394.222	0.344	0	PA_with_intermediate	2,0,0,1,3,0,0,0,0	test	ward_and_allport	2,0,0,1,3,0,0,0,0	71.0	41.0	0.344	0,0,0,1,2,3,0,0,0	to_board	s604
394.581	1.0	0	PA_with_intermediate	n/a	test	ward_and_allport	n/a	-1.0	41.0	n/a	n/a	feedback	s604
395.581	2.632	0	PA_with_intermediate	n/a	test	ward_and_allport	n/a	-1.0	41.0	n/a	n/a	ITI	s604
398.22	4.402	1	PA_without_intermediate	0,0,0,0,0,0,1,2,0	test	ward_and_allport	3,2,0,1,0,0,0,0,0	82.0	42.0	4.402	0,0,0,0,0,0,1,2,3	to_hand	s604
402.623	0.382	0	PA_without_intermediate	3,0,0,0,0,0,1,2,0	test	ward_and_allport	3,2,0,1,0,0,0,0,0	89.0	42.0	0.382	0,0,0,0,0,0,1,2,3	to_board	s604
403.015	0.404	0	PA_without_intermediate	3,0,0,0,0,0,1,0,0	test	ward_and_allport	3,2,0,1,0,0,0,0,0	82.0	42.0	0.404	0,0,0,0,0,0,1,2,3	to_hand	s604
403.421	0.618	0	PA_without_intermediate	3,2,0,0,0,0,1,0,0	test	ward_and_allport	3,2,0,1,0,0,0,0,0	89.0	42.0	0.618	0,0,0,0,0,0,1,2,3	to_board	s604
404.048	0.479	0	PA_without_intermediate	3,2,0,0,0,0,0,0,0	test	ward_and_allport	3,2,0,1,0,0,0,0,0	82.0	42.0	0.479	0,0,0,0,0,0,1,2,3	to_hand	s604
404.528	0.205	0	PA_without_intermediate	3,2,0,1,0,0,0,0,0	test	ward_and_allport	3,2,0,1,0,0,0,0,0	71.0	42.0	0.205	0,0,0,0,0,0,1,2,3	to_board	s604
404.746	1.0	0	PA_without_intermediate	n/a	test	ward_and_allport	n/a	-1.0	42.0	n/a	n/a	feedback	s604
405.746	1.408	0	PA_without_intermediate	n/a	test	ward_and_allport	n/a	-1.0	42.0	n/a	n/a	ITI	s604
407.161	2.064	1	PA_without_intermediate	0,0,0,1,2,0,0,0,0	test	ward_and_allport	1,0,0,0,0,0,3,2,0	71.0	43.0	2.064	0,0,0,1,2,3,0,0,0	to_hand	s604
409.226	0.382	0	PA_without_intermediate	0,0,0,1,2,0,3,0,0	test	ward_and_allport	1,0,0,0,0,0,3,2,0	82.0	43.0	0.382	0,0,0,1,2,3,0,0,0	to_board	s604
409.613	0.382	0	PA_without_intermediate	0,0,0,1,0,0,3,0,0	test	ward_and_allport	1,0,0,0,0,0,3,2,0	71.0	43.0	0.382	0,0,0,1,2,3,0,0,0	to_hand	s604
409.996	1.022	0	PA_without_intermediate	0,0,0,1,0,0,3,2,0	test	ward_and_allport	1,0,0,0,0,0,3,2,0	82.0	43.0	1.022	0,0,0,1,2,3,0,0,0	to_board	s604
411.026	0.515	0	PA_without_intermediate	0,0,0,0,0,0,3,2,0	test	ward_and_allport	1,0,0,0,0,0,3,2,0	71.0	43.0	0.515	0,0,0,1,2,3,0,0,0	to_hand	s604
411.541	0.396	0	PA_without_intermediate	1,0,0,0,0,0,3,2,0	test	ward_and_allport	1,0,0,0,0,0,3,2,0	89.0	43.0	0.396	0,0,0,1,2,3,0,0,0	to_board	s604
411.945	1.0	0	PA_without_intermediate	n/a	test	ward_and_allport	n/a	-1.0	43.0	n/a	n/a	feedback	s604
412.945	1.0	0	PA_without_intermediate	n/a	test	ward_and_allport	n/a	-1.0	43.0	n/a	n/a	ITI	s604
413.952	2.97	1	PA_with_intermediate	0,0,0,1,2,0,0,0,0	test	ward_and_allport	0,0,0,1,0,0,2,3,0	71.0	44.0	2.97	0,0,0,1,2,3,0,0,0	to_hand	s604
416.923	0.279	0	PA_with_intermediate	3,0,0,1,2,0,0,0,0	test	ward_and_allport	0,0,0,1,0,0,2,3,0	89.0	44.0	0.279	0,0,0,1,2,3,0,0,0	to_board	s604
417.207	0.264	0	PA_with_intermediate	3,0,0,1,0,0,0,0,0	test	ward_and_allport	0,0,0,1,0,0,2,3,0	71.0	44.0	0.264	0,0,0,1,2,3,0,0,0	to_hand	s604
417.472	0.393	0	PA_with_intermediate	3,0,0,1,0,0,2,0,0	test	ward_and_allport	0,0,0,1,0,0,2,3,0	82.0	44.0	0.393	0,0,0,1,2,3,0,0,0	to_board	s604
417.871	0.291	0	PA_with_intermediate	0,0,0,1,0,0,2,0,0	test	ward_and_allport	0,0,0,1,0,0,2,3,0	89.0	44.0	0.291	0,0,0,1,2,3,0,0,0	to_hand	s604
418.163	0.213	0	PA_with_intermediate	0,0,0,1,0,0,2,3,0	test	ward_and_allport	0,0,0,1,0,0,2,3,0	82.0	44.0	0.213	0,0,0,1,2,3,0,0,0	to_board	s604
418.383	1.0	0	PA_with_intermediate	n/a	test	ward_and_allport	n/a	-1.0	44.0	n/a	n/a	feedback	s604
419.383	1.0	0	PA_with_intermediate	n/a	test	ward_and_allport	n/a	-1.0	44.0	n/a	n/a	ITI	s604
425.394	2.259	1	PA_with_intermediate	1,2,0,0,0,0,0,0,0	test	ward_and_allport	1,0,0,2,3,0,0,0,0	89.0	45.0	2.259	1,2,3,0,0,0,0,0,0	to_hand	s604
427.654	0.252	0	PA_with_intermediate	1,2,0,0,0,0,3,0,0	test	ward_and_allport	1,0,0,2,3,0,0,0,0	82.0	45.0	0.252	1,2,3,0,0,0,0,0,0	to_board	s604
427.914	0.344	0	PA_with_intermediate	1,0,0,0,0,0,3,0,0	test	ward_and_allport	1,0,0,2,3,0,0,0,0	89.0	45.0	0.344	1,2,3,0,0,0,0,0,0	to_hand	s604
428.259	0.249	0	PA_with_intermediate	1,0,0,2,0,0,3,0,0	test	ward_and_allport	1,0,0,2,3,0,0,0,0	71.0	45.0	0.249	1,2,3,0,0,0,0,0,0	to_board	s604
428.516	0.258	0	PA_with_intermediate	1,0,0,2,0,0,0,0,0	test	ward_and_allport	1,0,0,2,3,0,0,0,0	82.0	45.0	0.258	1,2,3,0,0,0,0,0,0	to_hand	s604
428.775	0.194	0	PA_with_intermediate	1,0,0,2,3,0,0,0,0	test	ward_and_allport	1,0,0,2,3,0,0,0,0	71.0	45.0	0.194	1,2,3,0,0,0,0,0,0	to_board	s604
428.982	1.0	0	PA_with_intermediate	n/a	test	ward_and_allport	n/a	-1.0	45.0	n/a	n/a	feedback	s604
429.982	1.0	0	PA_with_intermediate	n/a	test	ward_and_allport	n/a	-1.0	45.0	n/a	n/a	ITI	s604
430.99	3.803	1	PA_with_intermediate	1,2,0,0,0,0,0,0,0	test	ward_and_allport	1,0,0,0,0,0,2,3,0	89.0	46.0	3.803	1,2,3,0,0,0,0,0,0	to_hand	s604
434.794	0.184	0	PA_with_intermediate	1,2,0,3,0,0,0,0,0	test	ward_and_allport	1,0,0,0,0,0,2,3,0	71.0	46.0	0.184	1,2,3,0,0,0,0,0,0	to_board	s604
434.984	0.337	0	PA_with_intermediate	1,0,0,3,0,0,0,0,0	test	ward_and_allport	1,0,0,0,0,0,2,3,0	89.0	46.0	0.337	1,2,3,0,0,0,0,0,0	to_hand	s604
435.322	0.266	0	PA_with_intermediate	1,0,0,3,0,0,2,0,0	test	ward_and_allport	1,0,0,0,0,0,2,3,0	82.0	46.0	0.266	1,2,3,0,0,0,0,0,0	to_board	s604
435.595	0.353	0	PA_with_intermediate	1,0,0,0,0,0,2,0,0	test	ward_and_allport	1,0,0,0,0,0,2,3,0	71.0	46.0	0.353	1,2,3,0,0,0,0,0,0	to_hand	s604
435.949	0.209	0	PA_with_intermediate	1,0,0,0,0,0,2,3,0	test	ward_and_allport	1,0,0,0,0,0,2,3,0	82.0	46.0	0.209	1,2,3,0,0,0,0,0,0	to_board	s604
436.169	1.0	0	PA_with_intermediate	n/a	test	ward_and_allport	n/a	-1.0	46.0	n/a	n/a	feedback	s604
437.169	1.408	0	PA_with_intermediate	n/a	test	ward_and_allport	n/a	-1.0	46.0	n/a	n/a	ITI	s604
438.584	2.349	1	PA_without_intermediate	0,0,0,0,0,0,1,2,0	test	ward_and_allport	2,0,0,3,1,0,0,0,0	82.0	47.0	2.349	0,0,0,0,0,0,1,2,3	to_hand	s604
440.934	0.501	0	PA_without_intermediate	0,0,0,3,0,0,1,2,0	test	ward_and_allport	2,0,0,3,1,0,0,0,0	71.0	47.0	0.501	0,0,0,0,0,0,1,2,3	to_board	s604
441.441	0.659	0	PA_without_intermediate	0,0,0,3,0,0,1,0,0	test	ward_and_allport	2,0,0,3,1,0,0,0,0	82.0	47.0	0.659	0,0,0,0,0,0,1,2,3	to_hand	s604
442.102	0.498	0	PA_without_intermediate	2,0,0,3,0,0,1,0,0	test	ward_and_allport	2,0,0,3,1,0,0,0,0	89.0	47.0	0.498	0,0,0,0,0,0,1,2,3	to_board	s604
442.607	0.348	0	PA_without_intermediate	2,0,0,3,0,0,0,0,0	test	ward_and_allport	2,0,0,3,1,0,0,0,0	82.0	47.0	0.348	0,0,0,0,0,0,1,2,3	to_hand	s604
442.955	0.239	0	PA_without_intermediate	2,0,0,3,1,0,0,0,0	test	ward_and_allport	2,0,0,3,1,0,0,0,0	71.0	47.0	0.239	0,0,0,0,0,0,1,2,3	to_board	s604
443.202	1.0	0	PA_without_intermediate	n/a	test	ward_and_allport	n/a	-1.0	47.0	n/a	n/a	feedback	s604
444.202	1.816	0	PA_without_intermediate	n/a	test	ward_and_allport	n/a	-1.0	47.0	n/a	n/a	ITI	s604
n/a	n/a	0	n/a	n/a	n/a	n/a	n/a	n/a	n/a	n/a	n/a	ITI	n/a
