onset	duration	planning	condition	current_position	exp_stage	experiment_exp_id	goal_state	key_press	problem_id	response_time	start_state	trial_id	worker_id
-61.723	0.0	0	n/a	n/a	n/a	ward_and_allport	n/a	32.0	n/a	23.864	n/a	instructions	s644
3.018	13.221	1	UA_with_intermediate	1,0,0,2,0,0,0,0,0	practice	ward_and_allport	1,2,3,0,0,0,0,0,0	71.0	0.0	13.221	1,0,0,2,3,0,0,0,0	to_hand	s644
16.241	0.855	0	UA_with_intermediate	1,0,0,2,0,0,3,0,0	practice	ward_and_allport	1,2,3,0,0,0,0,0,0	82.0	0.0	0.855	1,0,0,2,3,0,0,0,0	to_board	s644
17.098	1.406	0	UA_with_intermediate	1,0,0,0,0,0,3,0,0	practice	ward_and_allport	1,2,3,0,0,0,0,0,0	71.0	0.0	1.406	1,0,0,2,3,0,0,0,0	to_hand	s644
18.506	0.959	0	UA_with_intermediate	1,2,0,0,0,0,3,0,0	practice	ward_and_allport	1,2,3,0,0,0,0,0,0	89.0	0.0	0.959	1,0,0,2,3,0,0,0,0	to_board	s644
19.467	1.401	0	UA_with_intermediate	1,2,0,0,0,0,0,0,0	practice	ward_and_allport	1,2,3,0,0,0,0,0,0	82.0	0.0	1.401	1,0,0,2,3,0,0,0,0	to_hand	s644
20.87	0.611	0	UA_with_intermediate	1,2,3,0,0,0,0,0,0	practice	ward_and_allport	1,2,3,0,0,0,0,0,0	89.0	0.0	0.611	1,0,0,2,3,0,0,0,0	to_board	s644
21.49	1.0	0	UA_with_intermediate	n/a	practice	ward_and_allport	n/a	-1.0	0.0	n/a	n/a	feedback	s644
23.991	4.514	1	UA_with_intermediate	1,0,0,3,0,0,0,0,0	practice	ward_and_allport	1,3,2,0,0,0,0,0,0	89.0	1.0	4.514	1,2,0,3,0,0,0,0,0	to_hand	s644
28.506	0.682	0	UA_with_intermediate	1,0,0,3,0,0,2,0,0	practice	ward_and_allport	1,3,2,0,0,0,0,0,0	82.0	1.0	0.682	1,2,0,3,0,0,0,0,0	to_board	s644
29.19	0.843	0	UA_with_intermediate	1,0,0,0,0,0,2,0,0	practice	ward_and_allport	1,3,2,0,0,0,0,0,0	71.0	1.0	0.843	1,2,0,3,0,0,0,0,0	to_hand	s644
30.035	1.676	0	UA_with_intermediate	1,3,0,0,0,0,2,0,0	practice	ward_and_allport	1,3,2,0,0,0,0,0,0	89.0	1.0	1.676	1,2,0,3,0,0,0,0,0	to_board	s644
31.713	1.011	0	UA_with_intermediate	1,3,0,0,0,0,0,0,0	practice	ward_and_allport	1,3,2,0,0,0,0,0,0	82.0	1.0	1.011	1,2,0,3,0,0,0,0,0	to_hand	s644
32.725	0.52	0	UA_with_intermediate	1,3,2,0,0,0,0,0,0	practice	ward_and_allport	1,3,2,0,0,0,0,0,0	89.0	1.0	0.52	1,2,0,3,0,0,0,0,0	to_board	s644
33.251	1.0	0	UA_with_intermediate	n/a	practice	ward_and_allport	n/a	-1.0	1.0	n/a	n/a	feedback	s644
34.251	1.1	0	UA_with_intermediate	n/a	practice	ward_and_allport	n/a	-1.0	1.0	n/a	n/a	ITI	s644
35.354	10.778	1	UA_without_intermediate	0,0,0,1,2,0,0,0,0	practice	ward_and_allport	3,2,1,0,0,0,0,0,0	82.0	2.0	10.778	0,0,0,1,2,0,3,0,0	to_hand	s644
46.133	0.591	0	UA_without_intermediate	3,0,0,1,2,0,0,0,0	practice	ward_and_allport	3,2,1,0,0,0,0,0,0	89.0	2.0	0.591	0,0,0,1,2,0,3,0,0	to_board	s644
46.726	1.785	0	UA_without_intermediate	3,0,0,1,0,0,0,0,0	practice	ward_and_allport	3,2,1,0,0,0,0,0,0	71.0	2.0	1.785	0,0,0,1,2,0,3,0,0	to_hand	s644
48.512	0.533	0	UA_without_intermediate	3,0,0,1,0,0,2,0,0	practice	ward_and_allport	3,2,1,0,0,0,0,0,0	82.0	2.0	0.533	0,0,0,1,2,0,3,0,0	to_board	s644
49.047	0.865	0	UA_without_intermediate	3,0,0,0,0,0,2,0,0	practice	ward_and_allport	3,2,1,0,0,0,0,0,0	71.0	2.0	0.865	0,0,0,1,2,0,3,0,0	to_hand	s644
49.913	2.188	0	UA_without_intermediate	3,0,0,1,0,0,2,0,0	practice	ward_and_allport	3,2,1,0,0,0,0,0,0	71.0	2.0	2.188	0,0,0,1,2,0,3,0,0	to_board	s644
52.104	0.924	0	UA_without_intermediate	3,0,0,1,0,0,0,0,0	practice	ward_and_allport	3,2,1,0,0,0,0,0,0	82.0	2.0	0.924	0,0,0,1,2,0,3,0,0	to_hand	s644
53.029	0.717	0	UA_without_intermediate	3,2,0,1,0,0,0,0,0	practice	ward_and_allport	3,2,1,0,0,0,0,0,0	89.0	2.0	0.717	0,0,0,1,2,0,3,0,0	to_board	s644
53.748	0.817	0	UA_without_intermediate	3,2,0,0,0,0,0,0,0	practice	ward_and_allport	3,2,1,0,0,0,0,0,0	71.0	2.0	0.817	0,0,0,1,2,0,3,0,0	to_hand	s644
54.566	0.392	0	UA_without_intermediate	3,2,1,0,0,0,0,0,0	practice	ward_and_allport	3,2,1,0,0,0,0,0,0	89.0	2.0	0.392	0,0,0,1,2,0,3,0,0	to_board	s644
54.965	1.0	0	UA_without_intermediate	n/a	practice	ward_and_allport	n/a	-1.0	2.0	n/a	n/a	feedback	s644
55.965	1.2	0	UA_without_intermediate	n/a	practice	ward_and_allport	n/a	-1.0	2.0	n/a	n/a	ITI	s644
57.167	5.982	1	UA_without_intermediate	0,0,0,1,0,0,3,0,0	practice	ward_and_allport	2,3,1,0,0,0,0,0,0	71.0	3.0	5.982	0,0,0,1,2,0,3,0,0	to_hand	s644
63.15	0.745	0	UA_without_intermediate	2,0,0,1,0,0,3,0,0	practice	ward_and_allport	2,3,1,0,0,0,0,0,0	89.0	3.0	0.745	0,0,0,1,2,0,3,0,0	to_board	s644
63.897	0.774	0	UA_without_intermediate	2,0,0,1,0,0,0,0,0	practice	ward_and_allport	2,3,1,0,0,0,0,0,0	82.0	3.0	0.774	0,0,0,1,2,0,3,0,0	to_hand	s644
64.672	0.716	0	UA_without_intermediate	2,3,0,1,0,0,0,0,0	practice	ward_and_allport	2,3,1,0,0,0,0,0,0	89.0	3.0	0.716	0,0,0,1,2,0,3,0,0	to_board	s644
65.39	0.619	0	UA_without_intermediate	2,3,0,0,0,0,0,0,0	practice	ward_and_allport	2,3,1,0,0,0,0,0,0	71.0	3.0	0.619	0,0,0,1,2,0,3,0,0	to_hand	s644
66.01	0.464	0	UA_without_intermediate	2,3,1,0,0,0,0,0,0	practice	ward_and_allport	2,3,1,0,0,0,0,0,0	89.0	3.0	0.464	0,0,0,1,2,0,3,0,0	to_board	s644
66.479	1.0	0	UA_without_intermediate	n/a	practice	ward_and_allport	n/a	-1.0	3.0	n/a	n/a	feedback	s644
67.479	1.0	0	UA_without_intermediate	n/a	practice	ward_and_allport	n/a	-1.0	3.0	n/a	n/a	ITI	s644
70.491	9.854	1	PA_with_intermediate	0,0,0,0,0,0,1,2,0	test	ward_and_allport	2,0,0,0,0,0,1,3,0	82.0	0.0	9.854	0,0,0,0,0,0,1,2,3	to_hand	s644
80.346	0.767	0	PA_with_intermediate	0,0,0,3,0,0,1,2,0	test	ward_and_allport	2,0,0,0,0,0,1,3,0	71.0	0.0	0.767	0,0,0,0,0,0,1,2,3	to_board	s644
81.115	0.896	0	PA_with_intermediate	0,0,0,3,0,0,1,0,0	test	ward_and_allport	2,0,0,0,0,0,1,3,0	82.0	0.0	0.896	0,0,0,0,0,0,1,2,3	to_hand	s644
82.013	1.173	0	PA_with_intermediate	2,0,0,3,0,0,1,0,0	test	ward_and_allport	2,0,0,0,0,0,1,3,0	89.0	0.0	1.173	0,0,0,0,0,0,1,2,3	to_board	s644
83.188	1.002	0	PA_with_intermediate	2,0,0,0,0,0,1,0,0	test	ward_and_allport	2,0,0,0,0,0,1,3,0	71.0	0.0	1.002	0,0,0,0,0,0,1,2,3	to_hand	s644
84.192	0.764	0	PA_with_intermediate	2,0,0,0,0,0,1,3,0	test	ward_and_allport	2,0,0,0,0,0,1,3,0	82.0	0.0	0.764	0,0,0,0,0,0,1,2,3	to_board	s644
84.963	1.0	0	PA_with_intermediate	n/a	test	ward_and_allport	n/a	-1.0	0.0	n/a	n/a	feedback	s644
85.963	2.768	0	PA_with_intermediate	n/a	test	ward_and_allport	n/a	-1.0	0.0	n/a	n/a	ITI	s644
88.734	6.004	1	PA_with_intermediate	1,2,0,0,0,0,0,0,0	test	ward_and_allport	1,3,0,0,0,0,2,0,0	89.0	1.0	6.004	1,2,3,0,0,0,0,0,0	to_hand	s644
94.74	0.453	0	PA_with_intermediate	1,2,0,3,0,0,0,0,0	test	ward_and_allport	1,3,0,0,0,0,2,0,0	71.0	1.0	0.453	1,2,3,0,0,0,0,0,0	to_board	s644
95.196	0.821	0	PA_with_intermediate	1,0,0,3,0,0,0,0,0	test	ward_and_allport	1,3,0,0,0,0,2,0,0	89.0	1.0	0.821	1,2,3,0,0,0,0,0,0	to_hand	s644
96.019	0.58	0	PA_with_intermediate	1,0,0,3,0,0,2,0,0	test	ward_and_allport	1,3,0,0,0,0,2,0,0	82.0	1.0	0.58	1,2,3,0,0,0,0,0,0	to_board	s644
96.601	1.57	0	PA_with_intermediate	1,0,0,0,0,0,2,0,0	test	ward_and_allport	1,3,0,0,0,0,2,0,0	71.0	1.0	1.57	1,2,3,0,0,0,0,0,0	to_hand	s644
98.172	0.603	0	PA_with_intermediate	1,3,0,0,0,0,2,0,0	test	ward_and_allport	1,3,0,0,0,0,2,0,0	89.0	1.0	0.603	1,2,3,0,0,0,0,0,0	to_board	s644
98.782	1.0	0	PA_with_intermediate	n/a	test	ward_and_allport	n/a	-1.0	1.0	n/a	n/a	feedback	s644
99.782	1.68	0	PA_with_intermediate	n/a	test	ward_and_allport	n/a	-1.0	1.0	n/a	n/a	ITI	s644
101.466	5.191	1	PA_without_intermediate	0,0,0,1,2,0,0,0,0	test	ward_and_allport	3,1,0,0,0,0,2,0,0	71.0	2.0	5.191	0,0,0,1,2,3,0,0,0	to_hand	s644
106.658	0.544	0	PA_without_intermediate	3,0,0,1,2,0,0,0,0	test	ward_and_allport	3,1,0,0,0,0,2,0,0	89.0	2.0	0.544	0,0,0,1,2,3,0,0,0	to_board	s644
107.204	1.071	0	PA_without_intermediate	3,0,0,1,0,0,0,0,0	test	ward_and_allport	3,1,0,0,0,0,2,0,0	71.0	2.0	1.071	0,0,0,1,2,3,0,0,0	to_hand	s644
108.276	0.539	0	PA_without_intermediate	3,0,0,1,0,0,2,0,0	test	ward_and_allport	3,1,0,0,0,0,2,0,0	82.0	2.0	0.539	0,0,0,1,2,3,0,0,0	to_board	s644
108.818	0.686	0	PA_without_intermediate	3,0,0,0,0,0,2,0,0	test	ward_and_allport	3,1,0,0,0,0,2,0,0	71.0	2.0	0.686	0,0,0,1,2,3,0,0,0	to_hand	s644
109.505	0.368	0	PA_without_intermediate	3,1,0,0,0,0,2,0,0	test	ward_and_allport	3,1,0,0,0,0,2,0,0	89.0	2.0	0.368	0,0,0,1,2,3,0,0,0	to_board	s644
109.879	1.0	0	PA_without_intermediate	n/a	test	ward_and_allport	n/a	-1.0	2.0	n/a	n/a	feedback	s644
110.879	2.224	0	PA_without_intermediate	n/a	test	ward_and_allport	n/a	-1.0	2.0	n/a	n/a	ITI	s644
113.107	6.692	1	PA_without_intermediate	0,0,0,0,0,0,1,2,0	test	ward_and_allport	2,0,0,3,1,0,0,0,0	82.0	3.0	6.692	0,0,0,0,0,0,1,2,3	to_hand	s644
119.8	0.514	0	PA_without_intermediate	0,0,0,3,0,0,1,2,0	test	ward_and_allport	2,0,0,3,1,0,0,0,0	71.0	3.0	0.514	0,0,0,0,0,0,1,2,3	to_board	s644
120.317	1.402	0	PA_without_intermediate	0,0,0,3,0,0,1,0,0	test	ward_and_allport	2,0,0,3,1,0,0,0,0	82.0	3.0	1.402	0,0,0,0,0,0,1,2,3	to_hand	s644
121.72	0.455	0	PA_without_intermediate	2,0,0,3,0,0,1,0,0	test	ward_and_allport	2,0,0,3,1,0,0,0,0	89.0	3.0	0.455	0,0,0,0,0,0,1,2,3	to_board	s644
122.178	1.645	0	PA_without_intermediate	2,0,0,3,0,0,0,0,0	test	ward_and_allport	2,0,0,3,1,0,0,0,0	82.0	3.0	1.645	0,0,0,0,0,0,1,2,3	to_hand	s644
123.824	0.48	0	PA_without_intermediate	2,0,0,3,1,0,0,0,0	test	ward_and_allport	2,0,0,3,1,0,0,0,0	71.0	3.0	0.48	0,0,0,0,0,0,1,2,3	to_board	s644
124.311	1.0	0	PA_without_intermediate	n/a	test	ward_and_allport	n/a	-1.0	3.0	n/a	n/a	feedback	s644
125.311	2.36	0	PA_without_intermediate	n/a	test	ward_and_allport	n/a	-1.0	3.0	n/a	n/a	ITI	s644
127.676	4.414	1	PA_without_intermediate	0,0,0,0,0,0,1,2,0	test	ward_and_allport	2,0,0,3,1,0,0,0,0	82.0	4.0	4.414	0,0,0,0,0,0,1,2,3	to_hand	s644
132.091	0.494	0	PA_without_intermediate	0,0,0,3,0,0,1,2,0	test	ward_and_allport	2,0,0,3,1,0,0,0,0	71.0	4.0	0.494	0,0,0,0,0,0,1,2,3	to_board	s644
132.588	1.239	0	PA_without_intermediate	0,0,0,3,0,0,1,0,0	test	ward_and_allport	2,0,0,3,1,0,0,0,0	82.0	4.0	1.239	0,0,0,0,0,0,1,2,3	to_hand	s644
133.828	0.469	0	PA_without_intermediate	2,0,0,3,0,0,1,0,0	test	ward_and_allport	2,0,0,3,1,0,0,0,0	89.0	4.0	0.469	0,0,0,0,0,0,1,2,3	to_board	s644
134.301	1.322	0	PA_without_intermediate	2,0,0,3,0,0,0,0,0	test	ward_and_allport	2,0,0,3,1,0,0,0,0	82.0	4.0	1.322	0,0,0,0,0,0,1,2,3	to_hand	s644
135.624	0.428	0	PA_without_intermediate	2,0,0,3,1,0,0,0,0	test	ward_and_allport	2,0,0,3,1,0,0,0,0	71.0	4.0	0.428	0,0,0,0,0,0,1,2,3	to_board	s644
136.055	1.0	0	PA_without_intermediate	n/a	test	ward_and_allport	n/a	-1.0	4.0	n/a	n/a	feedback	s644
137.055	1.0	0	PA_without_intermediate	n/a	test	ward_and_allport	n/a	-1.0	4.0	n/a	n/a	ITI	s644
138.06	5.092	1	PA_without_intermediate	0,0,0,0,0,0,1,2,0	test	ward_and_allport	3,1,0,2,0,0,0,0,0	82.0	5.0	5.092	0,0,0,0,0,0,1,2,3	to_hand	s644
143.153	0.64	0	PA_without_intermediate	3,0,0,0,0,0,1,2,0	test	ward_and_allport	3,1,0,2,0,0,0,0,0	89.0	5.0	0.64	0,0,0,0,0,0,1,2,3	to_board	s644
143.796	1.48	0	PA_without_intermediate	3,0,0,0,0,0,1,0,0	test	ward_and_allport	3,1,0,2,0,0,0,0,0	82.0	5.0	1.48	0,0,0,0,0,0,1,2,3	to_hand	s644
145.277	0.43	0	PA_without_intermediate	3,0,0,2,0,0,1,0,0	test	ward_and_allport	3,1,0,2,0,0,0,0,0	71.0	5.0	0.43	0,0,0,0,0,0,1,2,3	to_board	s644
145.711	1.038	0	PA_without_intermediate	3,0,0,2,0,0,0,0,0	test	ward_and_allport	3,1,0,2,0,0,0,0,0	82.0	5.0	1.038	0,0,0,0,0,0,1,2,3	to_hand	s644
146.751	0.424	0	PA_without_intermediate	3,1,0,2,0,0,0,0,0	test	ward_and_allport	3,1,0,2,0,0,0,0,0	89.0	5.0	0.424	0,0,0,0,0,0,1,2,3	to_board	s644
147.18	1.0	0	PA_without_intermediate	n/a	test	ward_and_allport	n/a	-1.0	5.0	n/a	n/a	feedback	s644
148.18	1.408	0	PA_without_intermediate	n/a	test	ward_and_allport	n/a	-1.0	5.0	n/a	n/a	ITI	s644
149.593	9.999	1	PA_with_intermediate	0,0,0,1,2,0,0,0,0	test	ward_and_allport	0,0,0,1,0,0,2,3,0	71.0	6.0	9.999	0,0,0,1,2,3,0,0,0	to_hand	s644
159.593	0.481	0	PA_with_intermediate	3,0,0,1,2,0,0,0,0	test	ward_and_allport	0,0,0,1,0,0,2,3,0	89.0	6.0	0.481	0,0,0,1,2,3,0,0,0	to_board	s644
160.077	0.999	0	PA_with_intermediate	3,0,0,1,0,0,0,0,0	test	ward_and_allport	0,0,0,1,0,0,2,3,0	71.0	6.0	0.999	0,0,0,1,2,3,0,0,0	to_hand	s644
161.077	0.431	0	PA_with_intermediate	3,0,0,1,0,0,2,0,0	test	ward_and_allport	0,0,0,1,0,0,2,3,0	82.0	6.0	0.431	0,0,0,1,2,3,0,0,0	to_board	s644
161.512	0.681	0	PA_with_intermediate	0,0,0,1,0,0,2,0,0	test	ward_and_allport	0,0,0,1,0,0,2,3,0	89.0	6.0	0.681	0,0,0,1,2,3,0,0,0	to_hand	s644
162.194	0.556	0	PA_with_intermediate	0,0,0,1,0,0,2,3,0	test	ward_and_allport	0,0,0,1,0,0,2,3,0	82.0	6.0	0.556	0,0,0,1,2,3,0,0,0	to_board	s644
162.757	1.0	0	PA_with_intermediate	n/a	test	ward_and_allport	n/a	-1.0	6.0	n/a	n/a	feedback	s644
163.757	1.136	0	PA_with_intermediate	n/a	test	ward_and_allport	n/a	-1.0	6.0	n/a	n/a	ITI	s644
164.896	4.069	1	PA_without_intermediate	0,0,0,1,2,0,0,0,0	test	ward_and_allport	2,0,0,0,0,0,3,1,0	71.0	7.0	4.069	0,0,0,1,2,3,0,0,0	to_hand	s644
168.967	0.632	0	PA_without_intermediate	0,0,0,1,2,0,3,0,0	test	ward_and_allport	2,0,0,0,0,0,3,1,0	82.0	7.0	0.632	0,0,0,1,2,3,0,0,0	to_board	s644
169.602	0.801	0	PA_without_intermediate	0,0,0,1,0,0,3,0,0	test	ward_and_allport	2,0,0,0,0,0,3,1,0	71.0	7.0	0.801	0,0,0,1,2,3,0,0,0	to_hand	s644
170.404	1.513	0	PA_without_intermediate	2,0,0,1,0,0,3,0,0	test	ward_and_allport	2,0,0,0,0,0,3,1,0	89.0	7.0	1.513	0,0,0,1,2,3,0,0,0	to_board	s644
171.92	0.735	0	PA_without_intermediate	2,0,0,0,0,0,3,0,0	test	ward_and_allport	2,0,0,0,0,0,3,1,0	71.0	7.0	0.735	0,0,0,1,2,3,0,0,0	to_hand	s644
172.655	0.482	0	PA_without_intermediate	2,0,0,0,0,0,3,1,0	test	ward_and_allport	2,0,0,0,0,0,3,1,0	82.0	7.0	0.482	0,0,0,1,2,3,0,0,0	to_board	s644
173.145	1.0	0	PA_without_intermediate	n/a	test	ward_and_allport	n/a	-1.0	7.0	n/a	n/a	feedback	s644
174.145	4.128	0	PA_without_intermediate	n/a	test	ward_and_allport	n/a	-1.0	7.0	n/a	n/a	ITI	s644
178.278	6.136	1	PA_without_intermediate	1,2,0,0,0,0,0,0,0	test	ward_and_allport	0,0,0,2,0,0,3,1,0	89.0	8.0	6.136	1,2,3,0,0,0,0,0,0	to_hand	s644
184.416	0.526	0	PA_without_intermediate	1,2,0,0,0,0,3,0,0	test	ward_and_allport	0,0,0,2,0,0,3,1,0	82.0	8.0	0.526	1,2,3,0,0,0,0,0,0	to_board	s644
184.945	1.269	0	PA_without_intermediate	1,0,0,0,0,0,3,0,0	test	ward_and_allport	0,0,0,2,0,0,3,1,0	89.0	8.0	1.269	1,2,3,0,0,0,0,0,0	to_hand	s644
186.216	0.552	0	PA_without_intermediate	1,0,0,2,0,0,3,0,0	test	ward_and_allport	0,0,0,2,0,0,3,1,0	71.0	8.0	0.552	1,2,3,0,0,0,0,0,0	to_board	s644
186.773	0.672	0	PA_without_intermediate	0,0,0,2,0,0,3,0,0	test	ward_and_allport	0,0,0,2,0,0,3,1,0	89.0	8.0	0.672	1,2,3,0,0,0,0,0,0	to_hand	s644
187.447	0.466	0	PA_without_intermediate	0,0,0,2,0,0,3,1,0	test	ward_and_allport	0,0,0,2,0,0,3,1,0	82.0	8.0	0.466	1,2,3,0,0,0,0,0,0	to_board	s644
187.92	1.0	0	PA_without_intermediate	n/a	test	ward_and_allport	n/a	-1.0	8.0	n/a	n/a	feedback	s644
188.92	1.136	0	PA_without_intermediate	n/a	test	ward_and_allport	n/a	-1.0	8.0	n/a	n/a	ITI	s644
190.061	3.854	1	PA_without_intermediate	0,0,0,0,0,0,1,2,0	test	ward_and_allport	1,0,0,3,2,0,0,0,0	82.0	9.0	3.854	0,0,0,0,0,0,1,2,3	to_hand	s644
193.916	0.445	0	PA_without_intermediate	0,0,0,3,0,0,1,2,0	test	ward_and_allport	1,0,0,3,2,0,0,0,0	71.0	9.0	0.445	0,0,0,0,0,0,1,2,3	to_board	s644
194.365	0.9	0	PA_without_intermediate	0,0,0,3,0,0,1,0,0	test	ward_and_allport	1,0,0,3,2,0,0,0,0	82.0	9.0	0.9	0,0,0,0,0,0,1,2,3	to_hand	s644
195.265	0.41	0	PA_without_intermediate	0,0,0,3,2,0,1,0,0	test	ward_and_allport	1,0,0,3,2,0,0,0,0	71.0	9.0	0.41	0,0,0,0,0,0,1,2,3	to_board	s644
195.679	2.452	0	PA_without_intermediate	0,0,0,3,2,0,0,0,0	test	ward_and_allport	1,0,0,3,2,0,0,0,0	82.0	9.0	2.452	0,0,0,0,0,0,1,2,3	to_hand	s644
198.132	0.291	0	PA_without_intermediate	1,0,0,3,2,0,0,0,0	test	ward_and_allport	1,0,0,3,2,0,0,0,0	89.0	9.0	0.291	0,0,0,0,0,0,1,2,3	to_board	s644
198.431	1.0	0	PA_without_intermediate	n/a	test	ward_and_allport	n/a	-1.0	9.0	n/a	n/a	feedback	s644
199.431	4.264	0	PA_without_intermediate	n/a	test	ward_and_allport	n/a	-1.0	9.0	n/a	n/a	ITI	s644
203.699	4.205	1	PA_with_intermediate	1,2,0,0,0,0,0,0,0	test	ward_and_allport	1,0,0,2,3,0,0,0,0	89.0	10.0	4.205	1,2,3,0,0,0,0,0,0	to_hand	s644
207.905	0.378	0	PA_with_intermediate	1,2,0,0,0,0,3,0,0	test	ward_and_allport	1,0,0,2,3,0,0,0,0	82.0	10.0	0.378	1,2,3,0,0,0,0,0,0	to_board	s644
208.287	1.05	0	PA_with_intermediate	1,0,0,0,0,0,3,0,0	test	ward_and_allport	1,0,0,2,3,0,0,0,0	89.0	10.0	1.05	1,2,3,0,0,0,0,0,0	to_hand	s644
209.339	0.93	0	PA_with_intermediate	1,0,0,2,0,0,3,0,0	test	ward_and_allport	1,0,0,2,3,0,0,0,0	71.0	10.0	0.93	1,2,3,0,0,0,0,0,0	to_board	s644
210.274	1.097	0	PA_with_intermediate	1,0,0,2,0,0,0,0,0	test	ward_and_allport	1,0,0,2,3,0,0,0,0	82.0	10.0	1.097	1,2,3,0,0,0,0,0,0	to_hand	s644
211.372	0.433	0	PA_with_intermediate	1,0,0,2,3,0,0,0,0	test	ward_and_allport	1,0,0,2,3,0,0,0,0	71.0	10.0	0.433	1,2,3,0,0,0,0,0,0	to_board	s644
211.814	1.0	0	PA_with_intermediate	n/a	test	ward_and_allport	n/a	-1.0	10.0	n/a	n/a	feedback	s644
212.814	3.04	0	PA_with_intermediate	n/a	test	ward_and_allport	n/a	-1.0	10.0	n/a	n/a	ITI	s644
215.859	4.355	1	PA_with_intermediate	0,0,0,0,0,0,1,2,0	test	ward_and_allport	0,0,0,2,0,0,1,3,0	82.0	11.0	4.355	0,0,0,0,0,0,1,2,3	to_hand	s644
220.216	0.72	0	PA_with_intermediate	3,0,0,0,0,0,1,2,0	test	ward_and_allport	0,0,0,2,0,0,1,3,0	89.0	11.0	0.72	0,0,0,0,0,0,1,2,3	to_board	s644
220.94	1.15	0	PA_with_intermediate	3,0,0,0,0,0,1,0,0	test	ward_and_allport	0,0,0,2,0,0,1,3,0	82.0	11.0	1.15	0,0,0,0,0,0,1,2,3	to_hand	s644
222.091	0.411	0	PA_with_intermediate	3,0,0,2,0,0,1,0,0	test	ward_and_allport	0,0,0,2,0,0,1,3,0	71.0	11.0	0.411	0,0,0,0,0,0,1,2,3	to_board	s644
222.507	0.978	0	PA_with_intermediate	0,0,0,2,0,0,1,0,0	test	ward_and_allport	0,0,0,2,0,0,1,3,0	89.0	11.0	0.978	0,0,0,0,0,0,1,2,3	to_hand	s644
223.486	0.36	0	PA_with_intermediate	0,0,0,2,0,0,1,3,0	test	ward_and_allport	0,0,0,2,0,0,1,3,0	82.0	11.0	0.36	0,0,0,0,0,0,1,2,3	to_board	s644
223.855	1.0	0	PA_with_intermediate	n/a	test	ward_and_allport	n/a	-1.0	11.0	n/a	n/a	feedback	s644
224.855	1.136	0	PA_with_intermediate	n/a	test	ward_and_allport	n/a	-1.0	11.0	n/a	n/a	ITI	s644
225.996	3.435	1	PA_with_intermediate	0,0,0,1,2,0,0,0,0	test	ward_and_allport	2,0,0,1,3,0,0,0,0	71.0	12.0	3.435	0,0,0,1,2,3,0,0,0	to_hand	s644
229.432	0.594	0	PA_with_intermediate	0,0,0,1,2,0,3,0,0	test	ward_and_allport	2,0,0,1,3,0,0,0,0	82.0	12.0	0.594	0,0,0,1,2,3,0,0,0	to_board	s644
230.03	0.676	0	PA_with_intermediate	0,0,0,1,0,0,3,0,0	test	ward_and_allport	2,0,0,1,3,0,0,0,0	71.0	12.0	0.676	0,0,0,1,2,3,0,0,0	to_hand	s644
230.707	0.39	0	PA_with_intermediate	2,0,0,1,0,0,3,0,0	test	ward_and_allport	2,0,0,1,3,0,0,0,0	89.0	12.0	0.39	0,0,0,1,2,3,0,0,0	to_board	s644
231.1	0.806	0	PA_with_intermediate	2,0,0,1,0,0,0,0,0	test	ward_and_allport	2,0,0,1,3,0,0,0,0	82.0	12.0	0.806	0,0,0,1,2,3,0,0,0	to_hand	s644
231.907	0.442	0	PA_with_intermediate	2,0,0,1,3,0,0,0,0	test	ward_and_allport	2,0,0,1,3,0,0,0,0	71.0	12.0	0.442	0,0,0,1,2,3,0,0,0	to_board	s644
232.357	1.0	0	PA_with_intermediate	n/a	test	ward_and_allport	n/a	-1.0	12.0	n/a	n/a	feedback	s644
233.357	1.408	0	PA_with_intermediate	n/a	test	ward_and_allport	n/a	-1.0	12.0	n/a	n/a	ITI	s644
234.771	6.012	1	PA_without_intermediate	0,0,0,0,0,0,1,2,0	test	ward_and_allport	1,0,0,3,2,0,0,0,0	82.0	13.0	6.012	0,0,0,0,0,0,1,2,3	to_hand	s644
240.785	0.308	0	PA_without_intermediate	0,0,0,3,0,0,1,2,0	test	ward_and_allport	1,0,0,3,2,0,0,0,0	71.0	13.0	0.308	0,0,0,0,0,0,1,2,3	to_board	s644
241.097	1.151	0	PA_without_intermediate	0,0,0,3,0,0,1,0,0	test	ward_and_allport	1,0,0,3,2,0,0,0,0	82.0	13.0	1.151	0,0,0,0,0,0,1,2,3	to_hand	s644
242.251	0.314	0	PA_without_intermediate	0,0,0,3,2,0,1,0,0	test	ward_and_allport	1,0,0,3,2,0,0,0,0	71.0	13.0	0.314	0,0,0,0,0,0,1,2,3	to_board	s644
242.569	0.9	0	PA_without_intermediate	0,0,0,3,2,0,0,0,0	test	ward_and_allport	1,0,0,3,2,0,0,0,0	82.0	13.0	0.9	0,0,0,0,0,0,1,2,3	to_hand	s644
243.471	0.223	0	PA_without_intermediate	1,0,0,3,2,0,0,0,0	test	ward_and_allport	1,0,0,3,2,0,0,0,0	89.0	13.0	0.223	0,0,0,0,0,0,1,2,3	to_board	s644
243.701	1.0	0	PA_without_intermediate	n/a	test	ward_and_allport	n/a	-1.0	13.0	n/a	n/a	feedback	s644
244.701	1.68	0	PA_without_intermediate	n/a	test	ward_and_allport	n/a	-1.0	13.0	n/a	n/a	ITI	s644
246.387	4.326	1	PA_with_intermediate	1,2,0,0,0,0,0,0,0	test	ward_and_allport	1,0,0,0,0,0,2,3,0	89.0	14.0	4.326	1,2,3,0,0,0,0,0,0	to_hand	s644
250.713	0.457	0	PA_with_intermediate	1,2,0,3,0,0,0,0,0	test	ward_and_allport	1,0,0,0,0,0,2,3,0	71.0	14.0	0.457	1,2,3,0,0,0,0,0,0	to_board	s644
251.175	0.721	0	PA_with_intermediate	1,0,0,3,0,0,0,0,0	test	ward_and_allport	1,0,0,0,0,0,2,3,0	89.0	14.0	0.721	1,2,3,0,0,0,0,0,0	to_hand	s644
251.897	0.537	0	PA_with_intermediate	1,0,0,3,0,0,2,0,0	test	ward_and_allport	1,0,0,0,0,0,2,3,0	82.0	14.0	0.537	1,2,3,0,0,0,0,0,0	to_board	s644
252.438	0.754	0	PA_with_intermediate	1,0,0,0,0,0,2,0,0	test	ward_and_allport	1,0,0,0,0,0,2,3,0	71.0	14.0	0.754	1,2,3,0,0,0,0,0,0	to_hand	s644
253.192	0.455	0	PA_with_intermediate	1,0,0,0,0,0,2,3,0	test	ward_and_allport	1,0,0,0,0,0,2,3,0	82.0	14.0	0.455	1,2,3,0,0,0,0,0,0	to_board	s644
253.659	1.0	0	PA_with_intermediate	n/a	test	ward_and_allport	n/a	-1.0	14.0	n/a	n/a	feedback	s644
254.659	3.72	0	PA_with_intermediate	n/a	test	ward_and_allport	n/a	-1.0	14.0	n/a	n/a	ITI	s644
263.39	3.489	1	PA_without_intermediate	0,0,0,0,0,0,1,2,0	test	ward_and_allport	3,2,0,1,0,0,0,0,0	82.0	15.0	3.489	0,0,0,0,0,0,1,2,3	to_hand	s644
266.88	0.288	0	PA_without_intermediate	3,0,0,0,0,0,1,2,0	test	ward_and_allport	3,2,0,1,0,0,0,0,0	89.0	15.0	0.288	0,0,0,0,0,0,1,2,3	to_board	s644
267.172	0.901	0	PA_without_intermediate	3,0,0,0,0,0,1,0,0	test	ward_and_allport	3,2,0,1,0,0,0,0,0	82.0	15.0	0.901	0,0,0,0,0,0,1,2,3	to_hand	s644
268.074	0.692	0	PA_without_intermediate	3,0,0,2,0,0,1,0,0	test	ward_and_allport	3,2,0,1,0,0,0,0,0	71.0	15.0	0.692	0,0,0,0,0,0,1,2,3	to_board	s644
268.77	0.976	0	PA_without_intermediate	3,0,0,0,0,0,1,0,0	test	ward_and_allport	3,2,0,1,0,0,0,0,0	71.0	15.0	0.976	0,0,0,0,0,0,1,2,3	to_hand	s644
269.747	0.641	0	PA_without_intermediate	3,2,0,0,0,0,1,0,0	test	ward_and_allport	3,2,0,1,0,0,0,0,0	89.0	15.0	0.641	0,0,0,0,0,0,1,2,3	to_board	s644
270.393	1.052	0	PA_without_intermediate	3,2,0,0,0,0,0,0,0	test	ward_and_allport	3,2,0,1,0,0,0,0,0	82.0	15.0	1.052	0,0,0,0,0,0,1,2,3	to_hand	s644
271.446	0.802	0	PA_without_intermediate	3,2,0,1,0,0,0,0,0	test	ward_and_allport	3,2,0,1,0,0,0,0,0	71.0	15.0	0.802	0,0,0,0,0,0,1,2,3	to_board	s644
272.257	1.0	0	PA_without_intermediate	n/a	test	ward_and_allport	n/a	-1.0	15.0	n/a	n/a	feedback	s644
273.257	2.224	0	PA_without_intermediate	n/a	test	ward_and_allport	n/a	-1.0	15.0	n/a	n/a	ITI	s644
275.487	3.958	1	PA_without_intermediate	0,0,0,1,2,0,0,0,0	test	ward_and_allport	2,0,0,0,0,0,3,1,0	71.0	16.0	3.958	0,0,0,1,2,3,0,0,0	to_hand	s644
279.447	0.605	0	PA_without_intermediate	0,0,0,1,2,0,3,0,0	test	ward_and_allport	2,0,0,0,0,0,3,1,0	82.0	16.0	0.605	0,0,0,1,2,3,0,0,0	to_board	s644
280.057	0.474	0	PA_without_intermediate	0,0,0,1,0,0,3,0,0	test	ward_and_allport	2,0,0,0,0,0,3,1,0	71.0	16.0	0.474	0,0,0,1,2,3,0,0,0	to_hand	s644
280.533	0.425	0	PA_without_intermediate	2,0,0,1,0,0,3,0,0	test	ward_and_allport	2,0,0,0,0,0,3,1,0	89.0	16.0	0.425	0,0,0,1,2,3,0,0,0	to_board	s644
280.963	0.471	0	PA_without_intermediate	2,0,0,0,0,0,3,0,0	test	ward_and_allport	2,0,0,0,0,0,3,1,0	71.0	16.0	0.471	0,0,0,1,2,3,0,0,0	to_hand	s644
281.435	0.442	0	PA_without_intermediate	2,0,0,0,0,0,3,1,0	test	ward_and_allport	2,0,0,0,0,0,3,1,0	82.0	16.0	0.442	0,0,0,1,2,3,0,0,0	to_board	s644
281.887	1.0	0	PA_without_intermediate	n/a	test	ward_and_allport	n/a	-1.0	16.0	n/a	n/a	feedback	s644
282.887	1.272	0	PA_without_intermediate	n/a	test	ward_and_allport	n/a	-1.0	16.0	n/a	n/a	ITI	s644
284.165	5.311	1	PA_with_intermediate	0,0,0,0,0,0,1,2,0	test	ward_and_allport	0,0,0,2,0,0,1,3,0	82.0	17.0	5.311	0,0,0,0,0,0,1,2,3	to_hand	s644
289.477	0.447	0	PA_with_intermediate	3,0,0,0,0,0,1,2,0	test	ward_and_allport	0,0,0,2,0,0,1,3,0	89.0	17.0	0.447	0,0,0,0,0,0,1,2,3	to_board	s644
289.929	1.534	0	PA_with_intermediate	3,0,0,0,0,0,1,0,0	test	ward_and_allport	0,0,0,2,0,0,1,3,0	82.0	17.0	1.534	0,0,0,0,0,0,1,2,3	to_hand	s644
291.464	0.268	0	PA_with_intermediate	3,0,0,2,0,0,1,0,0	test	ward_and_allport	0,0,0,2,0,0,1,3,0	71.0	17.0	0.268	0,0,0,0,0,0,1,2,3	to_board	s644
291.737	0.778	0	PA_with_intermediate	0,0,0,2,0,0,1,0,0	test	ward_and_allport	0,0,0,2,0,0,1,3,0	89.0	17.0	0.778	0,0,0,0,0,0,1,2,3	to_hand	s644
292.517	0.329	0	PA_with_intermediate	0,0,0,2,0,0,1,3,0	test	ward_and_allport	0,0,0,2,0,0,1,3,0	82.0	17.0	0.329	0,0,0,0,0,0,1,2,3	to_board	s644
292.853	1.0	0	PA_with_intermediate	n/a	test	ward_and_allport	n/a	-1.0	17.0	n/a	n/a	feedback	s644
293.853	2.632	0	PA_with_intermediate	n/a	test	ward_and_allport	n/a	-1.0	17.0	n/a	n/a	ITI	s644
296.489	2.583	1	PA_without_intermediate	1,2,0,0,0,0,0,0,0	test	ward_and_allport	0,0,0,1,0,0,3,2,0	89.0	18.0	2.583	1,2,3,0,0,0,0,0,0	to_hand	s644
299.074	0.45	0	PA_without_intermediate	1,2,0,0,0,0,3,0,0	test	ward_and_allport	0,0,0,1,0,0,3,2,0	82.0	18.0	0.45	1,2,3,0,0,0,0,0,0	to_board	s644
299.53	1.501	0	PA_without_intermediate	1,0,0,0,0,0,3,0,0	test	ward_and_allport	0,0,0,1,0,0,3,2,0	89.0	18.0	1.501	1,2,3,0,0,0,0,0,0	to_hand	s644
301.031	1.09	0	PA_without_intermediate	1,0,0,0,0,0,3,2,0	test	ward_and_allport	0,0,0,1,0,0,3,2,0	82.0	18.0	1.09	1,2,3,0,0,0,0,0,0	to_board	s644
302.126	0.919	0	PA_without_intermediate	0,0,0,0,0,0,3,2,0	test	ward_and_allport	0,0,0,1,0,0,3,2,0	89.0	18.0	0.919	1,2,3,0,0,0,0,0,0	to_hand	s644
303.046	0.392	0	PA_without_intermediate	0,0,0,1,0,0,3,2,0	test	ward_and_allport	0,0,0,1,0,0,3,2,0	71.0	18.0	0.392	1,2,3,0,0,0,0,0,0	to_board	s644
303.448	1.0	0	PA_without_intermediate	n/a	test	ward_and_allport	n/a	-1.0	18.0	n/a	n/a	feedback	s644
304.448	1.408	0	PA_without_intermediate	n/a	test	ward_and_allport	n/a	-1.0	18.0	n/a	n/a	ITI	s644
305.863	4.36	1	PA_without_intermediate	1,2,0,0,0,0,0,0,0	test	ward_and_allport	0,0,0,2,0,0,3,1,0	89.0	19.0	4.36	1,2,3,0,0,0,0,0,0	to_hand	s644
310.224	0.568	0	PA_without_intermediate	1,2,0,0,0,0,3,0,0	test	ward_and_allport	0,0,0,2,0,0,3,1,0	82.0	19.0	0.568	1,2,3,0,0,0,0,0,0	to_board	s644
310.797	0.842	0	PA_without_intermediate	1,0,0,0,0,0,3,0,0	test	ward_and_allport	0,0,0,2,0,0,3,1,0	89.0	19.0	0.842	1,2,3,0,0,0,0,0,0	to_hand	s644
311.641	0.863	0	PA_without_intermediate	1,0,0,2,0,0,3,0,0	test	ward_and_allport	0,0,0,2,0,0,3,1,0	71.0	19.0	0.863	1,2,3,0,0,0,0,0,0	to_board	s644
312.508	0.502	0	PA_without_intermediate	0,0,0,2,0,0,3,0,0	test	ward_and_allport	0,0,0,2,0,0,3,1,0	89.0	19.0	0.502	1,2,3,0,0,0,0,0,0	to_hand	s644
313.012	0.462	0	PA_without_intermediate	0,0,0,2,0,0,3,1,0	test	ward_and_allport	0,0,0,2,0,0,3,1,0	82.0	19.0	0.462	1,2,3,0,0,0,0,0,0	to_board	s644
313.482	1.0	0	PA_without_intermediate	n/a	test	ward_and_allport	n/a	-1.0	19.0	n/a	n/a	feedback	s644
314.482	1.0	0	PA_without_intermediate	n/a	test	ward_and_allport	n/a	-1.0	19.0	n/a	n/a	ITI	s644
315.489	4.775	1	PA_with_intermediate	1,2,0,0,0,0,0,0,0	test	ward_and_allport	1,3,0,2,0,0,0,0,0	89.0	20.0	4.775	1,2,3,0,0,0,0,0,0	to_hand	s644
320.265	0.616	0	PA_with_intermediate	1,2,0,0,0,0,3,0,0	test	ward_and_allport	1,3,0,2,0,0,0,0,0	82.0	20.0	0.616	1,2,3,0,0,0,0,0,0	to_board	s644
320.887	1.44	0	PA_with_intermediate	1,0,0,0,0,0,3,0,0	test	ward_and_allport	1,3,0,2,0,0,0,0,0	89.0	20.0	1.44	1,2,3,0,0,0,0,0,0	to_hand	s644
322.328	0.369	0	PA_with_intermediate	1,0,0,2,0,0,3,0,0	test	ward_and_allport	1,3,0,2,0,0,0,0,0	71.0	20.0	0.369	1,2,3,0,0,0,0,0,0	to_board	s644
322.704	1.385	0	PA_with_intermediate	1,0,0,2,0,0,0,0,0	test	ward_and_allport	1,3,0,2,0,0,0,0,0	82.0	20.0	1.385	1,2,3,0,0,0,0,0,0	to_hand	s644
324.09	0.29	0	PA_with_intermediate	1,3,0,2,0,0,0,0,0	test	ward_and_allport	1,3,0,2,0,0,0,0,0	89.0	20.0	0.29	1,2,3,0,0,0,0,0,0	to_board	s644
324.391	1.0	0	PA_with_intermediate	n/a	test	ward_and_allport	n/a	-1.0	20.0	n/a	n/a	feedback	s644
325.391	1.0	0	PA_with_intermediate	n/a	test	ward_and_allport	n/a	-1.0	20.0	n/a	n/a	ITI	s644
326.398	3.406	1	PA_with_intermediate	0,0,0,0,0,0,1,2,0	test	ward_and_allport	2,0,0,0,0,0,1,3,0	82.0	21.0	3.406	0,0,0,0,0,0,1,2,3	to_hand	s644
329.806	0.695	0	PA_with_intermediate	0,0,0,3,0,0,1,2,0	test	ward_and_allport	2,0,0,0,0,0,1,3,0	71.0	21.0	0.695	0,0,0,0,0,0,1,2,3	to_board	s644
330.508	1.309	0	PA_with_intermediate	0,0,0,3,0,0,1,0,0	test	ward_and_allport	2,0,0,0,0,0,1,3,0	82.0	21.0	1.309	0,0,0,0,0,0,1,2,3	to_hand	s644
331.819	0.293	0	PA_with_intermediate	2,0,0,3,0,0,1,0,0	test	ward_and_allport	2,0,0,0,0,0,1,3,0	89.0	21.0	0.293	0,0,0,0,0,0,1,2,3	to_board	s644
332.117	0.891	0	PA_with_intermediate	2,0,0,0,0,0,1,0,0	test	ward_and_allport	2,0,0,0,0,0,1,3,0	71.0	21.0	0.891	0,0,0,0,0,0,1,2,3	to_hand	s644
333.01	0.621	0	PA_with_intermediate	2,0,0,0,0,0,1,3,0	test	ward_and_allport	2,0,0,0,0,0,1,3,0	82.0	21.0	0.621	0,0,0,0,0,0,1,2,3	to_board	s644
333.64	1.0	0	PA_with_intermediate	n/a	test	ward_and_allport	n/a	-1.0	21.0	n/a	n/a	feedback	s644
334.64	1.0	0	PA_with_intermediate	n/a	test	ward_and_allport	n/a	-1.0	21.0	n/a	n/a	ITI	s644
335.647	3.888	1	PA_with_intermediate	0,0,0,1,2,0,0,0,0	test	ward_and_allport	0,0,0,1,3,0,2,0,0	71.0	22.0	3.888	0,0,0,1,2,3,0,0,0	to_hand	s644
339.537	0.29	0	PA_with_intermediate	3,0,0,1,2,0,0,0,0	test	ward_and_allport	0,0,0,1,3,0,2,0,0	89.0	22.0	0.29	0,0,0,1,2,3,0,0,0	to_board	s644
339.833	0.977	0	PA_with_intermediate	3,0,0,1,0,0,0,0,0	test	ward_and_allport	0,0,0,1,3,0,2,0,0	71.0	22.0	0.977	0,0,0,1,2,3,0,0,0	to_hand	s644
340.81	0.744	0	PA_with_intermediate	3,0,0,1,0,0,2,0,0	test	ward_and_allport	0,0,0,1,3,0,2,0,0	82.0	22.0	0.744	0,0,0,1,2,3,0,0,0	to_board	s644
341.561	0.5	0	PA_with_intermediate	0,0,0,1,0,0,2,0,0	test	ward_and_allport	0,0,0,1,3,0,2,0,0	89.0	22.0	0.5	0,0,0,1,2,3,0,0,0	to_hand	s644
342.062	0.3	0	PA_with_intermediate	0,0,0,1,3,0,2,0,0	test	ward_and_allport	0,0,0,1,3,0,2,0,0	71.0	22.0	0.3	0,0,0,1,2,3,0,0,0	to_board	s644
342.369	1.0	0	PA_with_intermediate	n/a	test	ward_and_allport	n/a	-1.0	22.0	n/a	n/a	feedback	s644
343.369	1.408	0	PA_with_intermediate	n/a	test	ward_and_allport	n/a	-1.0	22.0	n/a	n/a	ITI	s644
344.784	3.397	1	PA_without_intermediate	0,0,0,0,0,0,1,2,0	test	ward_and_allport	3,2,0,1,0,0,0,0,0	82.0	23.0	3.397	0,0,0,0,0,0,1,2,3	to_hand	s644
348.183	0.42	0	PA_without_intermediate	3,0,0,0,0,0,1,2,0	test	ward_and_allport	3,2,0,1,0,0,0,0,0	89.0	23.0	0.42	0,0,0,0,0,0,1,2,3	to_board	s644
348.609	0.894	0	PA_without_intermediate	3,0,0,0,0,0,1,0,0	test	ward_and_allport	3,2,0,1,0,0,0,0,0	82.0	23.0	0.894	0,0,0,0,0,0,1,2,3	to_hand	s644
349.504	0.477	0	PA_without_intermediate	3,2,0,0,0,0,1,0,0	test	ward_and_allport	3,2,0,1,0,0,0,0,0	89.0	23.0	0.477	0,0,0,0,0,0,1,2,3	to_board	s644
349.988	1.442	0	PA_without_intermediate	3,2,0,0,0,0,0,0,0	test	ward_and_allport	3,2,0,1,0,0,0,0,0	82.0	23.0	1.442	0,0,0,0,0,0,1,2,3	to_hand	s644
351.432	0.436	0	PA_without_intermediate	3,2,0,1,0,0,0,0,0	test	ward_and_allport	3,2,0,1,0,0,0,0,0	71.0	23.0	0.436	0,0,0,0,0,0,1,2,3	to_board	s644
351.879	1.0	0	PA_without_intermediate	n/a	test	ward_and_allport	n/a	-1.0	23.0	n/a	n/a	feedback	s644
352.879	1.816	0	PA_without_intermediate	n/a	test	ward_and_allport	n/a	-1.0	23.0	n/a	n/a	ITI	s644
354.702	4.06	1	PA_with_intermediate	0,0,0,1,2,0,0,0,0	test	ward_and_allport	2,0,0,1,3,0,0,0,0	71.0	24.0	4.06	0,0,0,1,2,3,0,0,0	to_hand	s644
358.764	0.588	0	PA_with_intermediate	0,0,0,1,2,0,3,0,0	test	ward_and_allport	2,0,0,1,3,0,0,0,0	82.0	24.0	0.588	0,0,0,1,2,3,0,0,0	to_board	s644
359.358	0.793	0	PA_with_intermediate	0,0,0,1,0,0,3,0,0	test	ward_and_allport	2,0,0,1,3,0,0,0,0	71.0	24.0	0.793	0,0,0,1,2,3,0,0,0	to_hand	s644
360.152	0.415	0	PA_with_intermediate	2,0,0,1,0,0,3,0,0	test	ward_and_allport	2,0,0,1,3,0,0,0,0	89.0	24.0	0.415	0,0,0,1,2,3,0,0,0	to_board	s644
360.573	0.732	0	PA_with_intermediate	2,0,0,1,0,0,0,0,0	test	ward_and_allport	2,0,0,1,3,0,0,0,0	82.0	24.0	0.732	0,0,0,1,2,3,0,0,0	to_hand	s644
361.306	0.48	0	PA_with_intermediate	2,0,0,1,3,0,0,0,0	test	ward_and_allport	2,0,0,1,3,0,0,0,0	71.0	24.0	0.48	0,0,0,1,2,3,0,0,0	to_board	s644
361.796	1.0	0	PA_with_intermediate	n/a	test	ward_and_allport	n/a	-1.0	24.0	n/a	n/a	feedback	s644
362.796	3.176	0	PA_with_intermediate	n/a	test	ward_and_allport	n/a	-1.0	24.0	n/a	n/a	ITI	s644
365.98	4.46	1	PA_with_intermediate	0,0,0,0,0,0,1,2,0	test	ward_and_allport	0,0,0,2,3,0,1,0,0	82.0	25.0	4.46	0,0,0,0,0,0,1,2,3	to_hand	s644
370.442	0.36	0	PA_with_intermediate	3,0,0,0,0,0,1,2,0	test	ward_and_allport	0,0,0,2,3,0,1,0,0	89.0	25.0	0.36	0,0,0,0,0,0,1,2,3	to_board	s644
370.809	1.085	0	PA_with_intermediate	3,0,0,0,0,0,1,0,0	test	ward_and_allport	0,0,0,2,3,0,1,0,0	82.0	25.0	1.085	0,0,0,0,0,0,1,2,3	to_hand	s644
371.896	0.487	0	PA_with_intermediate	3,0,0,2,0,0,1,0,0	test	ward_and_allport	0,0,0,2,3,0,1,0,0	71.0	25.0	0.487	0,0,0,0,0,0,1,2,3	to_board	s644
372.389	0.844	0	PA_with_intermediate	0,0,0,2,0,0,1,0,0	test	ward_and_allport	0,0,0,2,3,0,1,0,0	89.0	25.0	0.844	0,0,0,0,0,0,1,2,3	to_hand	s644
373.234	0.313	0	PA_with_intermediate	0,0,0,2,3,0,1,0,0	test	ward_and_allport	0,0,0,2,3,0,1,0,0	71.0	25.0	0.313	0,0,0,0,0,0,1,2,3	to_board	s644
373.559	1.0	0	PA_with_intermediate	n/a	test	ward_and_allport	n/a	-1.0	25.0	n/a	n/a	feedback	s644
374.559	2.36	0	PA_with_intermediate	n/a	test	ward_and_allport	n/a	-1.0	25.0	n/a	n/a	ITI	s644
376.927	2.656	1	PA_with_intermediate	1,2,0,0,0,0,0,0,0	test	ward_and_allport	1,0,0,2,3,0,0,0,0	89.0	26.0	2.656	1,2,3,0,0,0,0,0,0	to_hand	s644
379.584	0.407	0	PA_with_intermediate	1,2,0,0,0,0,3,0,0	test	ward_and_allport	1,0,0,2,3,0,0,0,0	82.0	26.0	0.407	1,2,3,0,0,0,0,0,0	to_board	s644
379.998	1.594	0	PA_with_intermediate	1,0,0,0,0,0,3,0,0	test	ward_and_allport	1,0,0,2,3,0,0,0,0	89.0	26.0	1.594	1,2,3,0,0,0,0,0,0	to_hand	s644
381.593	0.496	0	PA_with_intermediate	1,0,0,2,0,0,3,0,0	test	ward_and_allport	1,0,0,2,3,0,0,0,0	71.0	26.0	0.496	1,2,3,0,0,0,0,0,0	to_board	s644
382.096	0.756	0	PA_with_intermediate	1,0,0,2,0,0,0,0,0	test	ward_and_allport	1,0,0,2,3,0,0,0,0	82.0	26.0	0.756	1,2,3,0,0,0,0,0,0	to_hand	s644
382.853	0.406	0	PA_with_intermediate	1,0,0,2,3,0,0,0,0	test	ward_and_allport	1,0,0,2,3,0,0,0,0	71.0	26.0	0.406	1,2,3,0,0,0,0,0,0	to_board	s644
383.271	1.0	0	PA_with_intermediate	n/a	test	ward_and_allport	n/a	-1.0	26.0	n/a	n/a	feedback	s644
384.271	1.0	0	PA_with_intermediate	n/a	test	ward_and_allport	n/a	-1.0	26.0	n/a	n/a	ITI	s644
385.279	2.172	1	PA_without_intermediate	1,2,0,0,0,0,0,0,0	test	ward_and_allport	0,0,0,3,2,0,1,0,0	89.0	27.0	2.172	1,2,3,0,0,0,0,0,0	to_hand	s644
387.453	1.07	0	PA_without_intermediate	1,2,0,3,0,0,0,0,0	test	ward_and_allport	0,0,0,3,2,0,1,0,0	71.0	27.0	1.07	1,2,3,0,0,0,0,0,0	to_board	s644
388.53	0.866	0	PA_without_intermediate	1,0,0,3,0,0,0,0,0	test	ward_and_allport	0,0,0,3,2,0,1,0,0	89.0	27.0	0.866	1,2,3,0,0,0,0,0,0	to_hand	s644
389.398	0.401	0	PA_without_intermediate	1,0,0,3,2,0,0,0,0	test	ward_and_allport	0,0,0,3,2,0,1,0,0	71.0	27.0	0.401	1,2,3,0,0,0,0,0,0	to_board	s644
389.806	0.479	0	PA_without_intermediate	0,0,0,3,2,0,0,0,0	test	ward_and_allport	0,0,0,3,2,0,1,0,0	89.0	27.0	0.479	1,2,3,0,0,0,0,0,0	to_hand	s644
390.287	0.419	0	PA_without_intermediate	0,0,0,3,2,0,1,0,0	test	ward_and_allport	0,0,0,3,2,0,1,0,0	82.0	27.0	0.419	1,2,3,0,0,0,0,0,0	to_board	s644
390.717	1.0	0	PA_without_intermediate	n/a	test	ward_and_allport	n/a	-1.0	27.0	n/a	n/a	feedback	s644
391.717	1.408	0	PA_without_intermediate	n/a	test	ward_and_allport	n/a	-1.0	27.0	n/a	n/a	ITI	s644
393.133	3.029	1	PA_with_intermediate	0,0,0,1,2,0,0,0,0	test	ward_and_allport	0,0,0,1,3,0,2,0,0	71.0	28.0	3.029	0,0,0,1,2,3,0,0,0	to_hand	s644
396.164	0.439	0	PA_with_intermediate	3,0,0,1,2,0,0,0,0	test	ward_and_allport	0,0,0,1,3,0,2,0,0	89.0	28.0	0.439	0,0,0,1,2,3,0,0,0	to_board	s644
396.61	0.913	0	PA_with_intermediate	3,0,0,1,0,0,0,0,0	test	ward_and_allport	0,0,0,1,3,0,2,0,0	71.0	28.0	0.913	0,0,0,1,2,3,0,0,0	to_hand	s644
397.524	0.891	0	PA_with_intermediate	3,0,0,1,0,0,2,0,0	test	ward_and_allport	0,0,0,1,3,0,2,0,0	82.0	28.0	0.891	0,0,0,1,2,3,0,0,0	to_board	s644
398.422	0.614	0	PA_with_intermediate	0,0,0,1,0,0,2,0,0	test	ward_and_allport	0,0,0,1,3,0,2,0,0	89.0	28.0	0.614	0,0,0,1,2,3,0,0,0	to_hand	s644
399.037	0.335	0	PA_with_intermediate	0,0,0,1,3,0,2,0,0	test	ward_and_allport	0,0,0,1,3,0,2,0,0	71.0	28.0	0.335	0,0,0,1,2,3,0,0,0	to_board	s644
399.38	1.0	0	PA_with_intermediate	n/a	test	ward_and_allport	n/a	-1.0	28.0	n/a	n/a	feedback	s644
400.38	1.816	0	PA_with_intermediate	n/a	test	ward_and_allport	n/a	-1.0	28.0	n/a	n/a	ITI	s644
402.204	2.132	1	PA_without_intermediate	1,2,0,0,0,0,0,0,0	test	ward_and_allport	0,0,0,1,0,0,3,2,0	89.0	29.0	2.132	1,2,3,0,0,0,0,0,0	to_hand	s644
404.337	0.811	0	PA_without_intermediate	1,2,0,0,0,0,3,0,0	test	ward_and_allport	0,0,0,1,0,0,3,2,0	82.0	29.0	0.811	1,2,3,0,0,0,0,0,0	to_board	s644
405.156	1.139	0	PA_without_intermediate	1,0,0,0,0,0,3,0,0	test	ward_and_allport	0,0,0,1,0,0,3,2,0	89.0	29.0	1.139	1,2,3,0,0,0,0,0,0	to_hand	s644
406.297	0.388	0	PA_without_intermediate	1,0,0,0,0,0,3,2,0	test	ward_and_allport	0,0,0,1,0,0,3,2,0	82.0	29.0	0.388	1,2,3,0,0,0,0,0,0	to_board	s644
406.693	0.637	0	PA_without_intermediate	0,0,0,0,0,0,3,2,0	test	ward_and_allport	0,0,0,1,0,0,3,2,0	89.0	29.0	0.637	1,2,3,0,0,0,0,0,0	to_hand	s644
407.331	0.353	0	PA_without_intermediate	0,0,0,1,0,0,3,2,0	test	ward_and_allport	0,0,0,1,0,0,3,2,0	71.0	29.0	0.353	1,2,3,0,0,0,0,0,0	to_board	s644
407.696	1.0	0	PA_without_intermediate	n/a	test	ward_and_allport	n/a	-1.0	29.0	n/a	n/a	feedback	s644
408.696	2.088	0	PA_without_intermediate	n/a	test	ward_and_allport	n/a	-1.0	29.0	n/a	n/a	ITI	s644
415.798	2.104	1	PA_without_intermediate	0,0,0,1,2,0,0,0,0	test	ward_and_allport	3,2,0,0,0,0,1,0,0	71.0	30.0	2.104	0,0,0,1,2,3,0,0,0	to_hand	s644
417.903	0.332	0	PA_without_intermediate	3,0,0,1,2,0,0,0,0	test	ward_and_allport	3,2,0,0,0,0,1,0,0	89.0	30.0	0.332	0,0,0,1,2,3,0,0,0	to_board	s644
418.242	0.159	0	PA_without_intermediate	0,0,0,1,2,0,0,0,0	test	ward_and_allport	3,2,0,0,0,0,1,0,0	89.0	30.0	0.159	0,0,0,1,2,3,0,0,0	to_hand	s644
418.402	0.844	0	PA_without_intermediate	0,0,0,1,2,3,0,0,0	test	ward_and_allport	3,2,0,0,0,0,1,0,0	71.0	30.0	0.844	0,0,0,1,2,3,0,0,0	to_board	s644
419.253	1.222	0	PA_without_intermediate	0,0,0,1,2,0,0,0,0	test	ward_and_allport	3,2,0,0,0,0,1,0,0	71.0	30.0	1.222	0,0,0,1,2,3,0,0,0	to_hand	s644
420.476	0.339	0	PA_without_intermediate	3,0,0,1,2,0,0,0,0	test	ward_and_allport	3,2,0,0,0,0,1,0,0	89.0	30.0	0.339	0,0,0,1,2,3,0,0,0	to_board	s644
420.823	0.94	0	PA_without_intermediate	3,0,0,1,0,0,0,0,0	test	ward_and_allport	3,2,0,0,0,0,1,0,0	71.0	30.0	0.94	0,0,0,1,2,3,0,0,0	to_hand	s644
421.765	0.374	0	PA_without_intermediate	3,2,0,1,0,0,0,0,0	test	ward_and_allport	3,2,0,0,0,0,1,0,0	89.0	30.0	0.374	0,0,0,1,2,3,0,0,0	to_board	s644
422.147	0.695	0	PA_without_intermediate	3,2,0,0,0,0,0,0,0	test	ward_and_allport	3,2,0,0,0,0,1,0,0	71.0	30.0	0.695	0,0,0,1,2,3,0,0,0	to_hand	s644
422.844	0.345	0	PA_without_intermediate	3,2,0,0,0,0,1,0,0	test	ward_and_allport	3,2,0,0,0,0,1,0,0	82.0	30.0	0.345	0,0,0,1,2,3,0,0,0	to_board	s644
423.201	1.0	0	PA_without_intermediate	n/a	test	ward_and_allport	n/a	-1.0	30.0	n/a	n/a	feedback	s644
424.201	1.136	0	PA_without_intermediate	n/a	test	ward_and_allport	n/a	-1.0	30.0	n/a	n/a	ITI	s644
425.345	2.806	1	PA_without_intermediate	0,0,0,1,2,0,0,0,0	test	ward_and_allport	3,1,0,0,0,0,2,0,0	71.0	31.0	2.806	0,0,0,1,2,3,0,0,0	to_hand	s644
428.153	0.418	0	PA_without_intermediate	3,0,0,1,2,0,0,0,0	test	ward_and_allport	3,1,0,0,0,0,2,0,0	89.0	31.0	0.418	0,0,0,1,2,3,0,0,0	to_board	s644
428.578	0.797	0	PA_without_intermediate	3,0,0,1,0,0,0,0,0	test	ward_and_allport	3,1,0,0,0,0,2,0,0	71.0	31.0	0.797	0,0,0,1,2,3,0,0,0	to_hand	s644
429.377	0.398	0	PA_without_intermediate	3,0,0,1,0,0,2,0,0	test	ward_and_allport	3,1,0,0,0,0,2,0,0	82.0	31.0	0.398	0,0,0,1,2,3,0,0,0	to_board	s644
429.782	0.853	0	PA_without_intermediate	3,0,0,0,0,0,2,0,0	test	ward_and_allport	3,1,0,0,0,0,2,0,0	71.0	31.0	0.853	0,0,0,1,2,3,0,0,0	to_hand	s644
430.636	0.412	0	PA_without_intermediate	3,1,0,0,0,0,2,0,0	test	ward_and_allport	3,1,0,0,0,0,2,0,0	89.0	31.0	0.412	0,0,0,1,2,3,0,0,0	to_board	s644
431.062	1.0	0	PA_without_intermediate	n/a	test	ward_and_allport	n/a	-1.0	31.0	n/a	n/a	feedback	s644
432.062	6.168	0	PA_without_intermediate	n/a	test	ward_and_allport	n/a	-1.0	31.0	n/a	n/a	ITI	s644
438.24	2.798	1	PA_without_intermediate	0,0,0,0,0,0,1,2,0	test	ward_and_allport	3,1,0,2,0,0,0,0,0	82.0	32.0	2.798	0,0,0,0,0,0,1,2,3	to_hand	s644
441.039	0.313	0	PA_without_intermediate	3,0,0,0,0,0,1,2,0	test	ward_and_allport	3,1,0,2,0,0,0,0,0	89.0	32.0	0.313	0,0,0,0,0,0,1,2,3	to_board	s644
441.362	0.804	0	PA_without_intermediate	3,0,0,0,0,0,1,0,0	test	ward_and_allport	3,1,0,2,0,0,0,0,0	82.0	32.0	0.804	0,0,0,0,0,0,1,2,3	to_hand	s644
442.168	0.352	0	PA_without_intermediate	3,0,0,2,0,0,1,0,0	test	ward_and_allport	3,1,0,2,0,0,0,0,0	71.0	32.0	0.352	0,0,0,0,0,0,1,2,3	to_board	s644
442.529	0.599	0	PA_without_intermediate	3,0,0,2,0,0,0,0,0	test	ward_and_allport	3,1,0,2,0,0,0,0,0	82.0	32.0	0.599	0,0,0,0,0,0,1,2,3	to_hand	s644
443.13	0.272	0	PA_without_intermediate	3,1,0,2,0,0,0,0,0	test	ward_and_allport	3,1,0,2,0,0,0,0,0	89.0	32.0	0.272	0,0,0,0,0,0,1,2,3	to_board	s644
443.414	1.0	0	PA_without_intermediate	n/a	test	ward_and_allport	n/a	-1.0	32.0	n/a	n/a	feedback	s644
444.414	1.816	0	PA_without_intermediate	n/a	test	ward_and_allport	n/a	-1.0	32.0	n/a	n/a	ITI	s644
446.239	1.261	1	PA_with_intermediate	0,0,0,0,0,0,1,2,0	test	ward_and_allport	2,3,0,0,0,0,1,0,0	82.0	33.0	1.261	0,0,0,0,0,0,1,2,3	to_hand	s644
447.502	1.031	0	PA_with_intermediate	0,0,0,3,0,0,1,2,0	test	ward_and_allport	2,3,0,0,0,0,1,0,0	71.0	33.0	1.031	0,0,0,0,0,0,1,2,3	to_board	s644
448.541	1.92	0	PA_with_intermediate	0,0,0,3,0,0,1,0,0	test	ward_and_allport	2,3,0,0,0,0,1,0,0	82.0	33.0	1.92	0,0,0,0,0,0,1,2,3	to_hand	s644
450.463	1.467	0	PA_with_intermediate	2,0,0,3,0,0,1,0,0	test	ward_and_allport	2,3,0,0,0,0,1,0,0	89.0	33.0	1.467	0,0,0,0,0,0,1,2,3	to_board	s644
451.939	0.774	0	PA_with_intermediate	2,0,0,0,0,0,1,0,0	test	ward_and_allport	2,3,0,0,0,0,1,0,0	71.0	33.0	0.774	0,0,0,0,0,0,1,2,3	to_hand	s644
452.715	0.419	0	PA_with_intermediate	2,3,0,0,0,0,1,0,0	test	ward_and_allport	2,3,0,0,0,0,1,0,0	89.0	33.0	0.419	0,0,0,0,0,0,1,2,3	to_board	s644
453.148	1.0	0	PA_with_intermediate	n/a	test	ward_and_allport	n/a	-1.0	33.0	n/a	n/a	feedback	s644
454.148	1.952	0	PA_with_intermediate	n/a	test	ward_and_allport	n/a	-1.0	33.0	n/a	n/a	ITI	s644
456.11	4.378	1	PA_with_intermediate	0,0,0,0,0,0,1,2,0	test	ward_and_allport	2,3,0,0,0,0,1,0,0	82.0	34.0	4.378	0,0,0,0,0,0,1,2,3	to_hand	s644
460.49	0.381	0	PA_with_intermediate	0,0,0,3,0,0,1,2,0	test	ward_and_allport	2,3,0,0,0,0,1,0,0	71.0	34.0	0.381	0,0,0,0,0,0,1,2,3	to_board	s644
460.88	0.864	0	PA_with_intermediate	0,0,0,3,0,0,1,0,0	test	ward_and_allport	2,3,0,0,0,0,1,0,0	82.0	34.0	0.864	0,0,0,0,0,0,1,2,3	to_hand	s644
461.745	0.492	0	PA_with_intermediate	2,0,0,3,0,0,1,0,0	test	ward_and_allport	2,3,0,0,0,0,1,0,0	89.0	34.0	0.492	0,0,0,0,0,0,1,2,3	to_board	s644
462.246	0.944	0	PA_with_intermediate	2,0,0,0,0,0,1,0,0	test	ward_and_allport	2,3,0,0,0,0,1,0,0	71.0	34.0	0.944	0,0,0,0,0,0,1,2,3	to_hand	s644
463.191	0.281	0	PA_with_intermediate	2,3,0,0,0,0,1,0,0	test	ward_and_allport	2,3,0,0,0,0,1,0,0	89.0	34.0	0.281	0,0,0,0,0,0,1,2,3	to_board	s644
463.486	1.0	0	PA_with_intermediate	n/a	test	ward_and_allport	n/a	-1.0	34.0	n/a	n/a	feedback	s644
464.486	1.136	0	PA_with_intermediate	n/a	test	ward_and_allport	n/a	-1.0	34.0	n/a	n/a	ITI	s644
465.63	4.925	1	PA_without_intermediate	0,0,0,1,2,0,0,0,0	test	ward_and_allport	1,0,0,0,0,0,3,2,0	71.0	35.0	4.925	0,0,0,1,2,3,0,0,0	to_hand	s644
470.556	0.344	0	PA_without_intermediate	0,0,0,1,2,0,3,0,0	test	ward_and_allport	1,0,0,0,0,0,3,2,0	82.0	35.0	0.344	0,0,0,1,2,3,0,0,0	to_board	s644
470.911	0.736	0	PA_without_intermediate	0,0,0,1,0,0,3,0,0	test	ward_and_allport	1,0,0,0,0,0,3,2,0	71.0	35.0	0.736	0,0,0,1,2,3,0,0,0	to_hand	s644
471.648	0.292	0	PA_without_intermediate	0,0,0,1,0,0,3,2,0	test	ward_and_allport	1,0,0,0,0,0,3,2,0	82.0	35.0	0.292	0,0,0,1,2,3,0,0,0	to_board	s644
471.951	0.886	0	PA_without_intermediate	0,0,0,0,0,0,3,2,0	test	ward_and_allport	1,0,0,0,0,0,3,2,0	71.0	35.0	0.886	0,0,0,1,2,3,0,0,0	to_hand	s644
472.839	0.266	0	PA_without_intermediate	1,0,0,0,0,0,3,2,0	test	ward_and_allport	1,0,0,0,0,0,3,2,0	89.0	35.0	0.266	0,0,0,1,2,3,0,0,0	to_board	s644
473.12	1.0	0	PA_without_intermediate	n/a	test	ward_and_allport	n/a	-1.0	35.0	n/a	n/a	feedback	s644
474.12	1.68	0	PA_without_intermediate	n/a	test	ward_and_allport	n/a	-1.0	35.0	n/a	n/a	ITI	s644
475.811	4.439	1	PA_without_intermediate	1,2,0,0,0,0,0,0,0	test	ward_and_allport	0,0,0,3,1,0,2,0,0	89.0	36.0	4.439	1,2,3,0,0,0,0,0,0	to_hand	s644
480.251	0.426	0	PA_without_intermediate	1,2,0,3,0,0,0,0,0	test	ward_and_allport	0,0,0,3,1,0,2,0,0	71.0	36.0	0.426	1,2,3,0,0,0,0,0,0	to_board	s644
480.688	1.151	0	PA_without_intermediate	1,0,0,3,0,0,0,0,0	test	ward_and_allport	0,0,0,3,1,0,2,0,0	89.0	36.0	1.151	1,2,3,0,0,0,0,0,0	to_hand	s644
481.84	0.47	0	PA_without_intermediate	1,0,0,3,0,0,2,0,0	test	ward_and_allport	0,0,0,3,1,0,2,0,0	82.0	36.0	0.47	1,2,3,0,0,0,0,0,0	to_board	s644
482.319	1.241	0	PA_without_intermediate	0,0,0,3,0,0,2,0,0	test	ward_and_allport	0,0,0,3,1,0,2,0,0	89.0	36.0	1.241	1,2,3,0,0,0,0,0,0	to_hand	s644
483.561	0.484	0	PA_without_intermediate	0,0,0,3,1,0,2,0,0	test	ward_and_allport	0,0,0,3,1,0,2,0,0	71.0	36.0	0.484	1,2,3,0,0,0,0,0,0	to_board	s644
484.059	1.0	0	PA_without_intermediate	n/a	test	ward_and_allport	n/a	-1.0	36.0	n/a	n/a	feedback	s644
485.059	2.088	0	PA_without_intermediate	n/a	test	ward_and_allport	n/a	-1.0	36.0	n/a	n/a	ITI	s644
487.157	3.256	1	PA_with_intermediate	1,2,0,0,0,0,0,0,0	test	ward_and_allport	1,3,0,0,0,0,2,0,0	89.0	37.0	3.256	1,2,3,0,0,0,0,0,0	to_hand	s644
490.415	0.759	0	PA_with_intermediate	1,2,0,3,0,0,0,0,0	test	ward_and_allport	1,3,0,0,0,0,2,0,0	71.0	37.0	0.759	1,2,3,0,0,0,0,0,0	to_board	s644
491.18	1.343	0	PA_with_intermediate	1,0,0,3,0,0,0,0,0	test	ward_and_allport	1,3,0,0,0,0,2,0,0	89.0	37.0	1.343	1,2,3,0,0,0,0,0,0	to_hand	s644
492.524	0.495	0	PA_with_intermediate	1,0,0,3,0,0,2,0,0	test	ward_and_allport	1,3,0,0,0,0,2,0,0	82.0	37.0	0.495	1,2,3,0,0,0,0,0,0	to_board	s644
493.029	0.831	0	PA_with_intermediate	1,0,0,0,0,0,2,0,0	test	ward_and_allport	1,3,0,0,0,0,2,0,0	71.0	37.0	0.831	1,2,3,0,0,0,0,0,0	to_hand	s644
493.861	0.306	0	PA_with_intermediate	1,3,0,0,0,0,2,0,0	test	ward_and_allport	1,3,0,0,0,0,2,0,0	89.0	37.0	0.306	1,2,3,0,0,0,0,0,0	to_board	s644
494.181	1.0	0	PA_with_intermediate	n/a	test	ward_and_allport	n/a	-1.0	37.0	n/a	n/a	feedback	s644
495.181	1.0	0	PA_with_intermediate	n/a	test	ward_and_allport	n/a	-1.0	37.0	n/a	n/a	ITI	s644
496.19	3.817	1	PA_without_intermediate	1,2,0,0,0,0,0,0,0	test	ward_and_allport	0,0,0,3,1,0,2,0,0	89.0	38.0	3.817	1,2,3,0,0,0,0,0,0	to_hand	s644
500.009	0.427	0	PA_without_intermediate	1,2,0,3,0,0,0,0,0	test	ward_and_allport	0,0,0,3,1,0,2,0,0	71.0	38.0	0.427	1,2,3,0,0,0,0,0,0	to_board	s644
500.444	0.382	0	PA_without_intermediate	1,0,0,3,0,0,0,0,0	test	ward_and_allport	0,0,0,3,1,0,2,0,0	89.0	38.0	0.382	1,2,3,0,0,0,0,0,0	to_hand	s644
500.827	0.984	0	PA_without_intermediate	1,0,0,3,0,0,2,0,0	test	ward_and_allport	0,0,0,3,1,0,2,0,0	82.0	38.0	0.984	1,2,3,0,0,0,0,0,0	to_board	s644
501.821	0.322	0	PA_without_intermediate	0,0,0,3,0,0,2,0,0	test	ward_and_allport	0,0,0,3,1,0,2,0,0	89.0	38.0	0.322	1,2,3,0,0,0,0,0,0	to_hand	s644
502.144	0.393	0	PA_without_intermediate	0,0,0,3,1,0,2,0,0	test	ward_and_allport	0,0,0,3,1,0,2,0,0	71.0	38.0	0.393	1,2,3,0,0,0,0,0,0	to_board	s644
502.551	1.0	0	PA_without_intermediate	n/a	test	ward_and_allport	n/a	-1.0	38.0	n/a	n/a	feedback	s644
503.551	1.0	0	PA_without_intermediate	n/a	test	ward_and_allport	n/a	-1.0	38.0	n/a	n/a	ITI	s644
504.559	3.262	1	PA_without_intermediate	1,2,0,0,0,0,0,0,0	test	ward_and_allport	0,0,0,3,2,0,1,0,0	89.0	39.0	3.262	1,2,3,0,0,0,0,0,0	to_hand	s644
507.823	0.287	0	PA_without_intermediate	1,2,0,3,0,0,0,0,0	test	ward_and_allport	0,0,0,3,2,0,1,0,0	71.0	39.0	0.287	1,2,3,0,0,0,0,0,0	to_board	s644
508.118	0.36	0	PA_without_intermediate	1,0,0,3,0,0,0,0,0	test	ward_and_allport	0,0,0,3,2,0,1,0,0	89.0	39.0	0.36	1,2,3,0,0,0,0,0,0	to_hand	s644
508.479	0.703	0	PA_without_intermediate	1,0,0,3,2,0,0,0,0	test	ward_and_allport	0,0,0,3,2,0,1,0,0	71.0	39.0	0.703	1,2,3,0,0,0,0,0,0	to_board	s644
509.192	0.742	0	PA_without_intermediate	0,0,0,3,2,0,0,0,0	test	ward_and_allport	0,0,0,3,2,0,1,0,0	89.0	39.0	0.742	1,2,3,0,0,0,0,0,0	to_hand	s644
509.936	0.497	0	PA_without_intermediate	0,0,0,3,2,0,1,0,0	test	ward_and_allport	0,0,0,3,2,0,1,0,0	82.0	39.0	0.497	1,2,3,0,0,0,0,0,0	to_board	s644
510.444	1.0	0	PA_without_intermediate	n/a	test	ward_and_allport	n/a	-1.0	39.0	n/a	n/a	feedback	s644
511.444	1.0	0	PA_without_intermediate	n/a	test	ward_and_allport	n/a	-1.0	39.0	n/a	n/a	ITI	s644
512.452	2.688	1	PA_with_intermediate	0,0,0,1,2,0,0,0,0	test	ward_and_allport	0,0,0,1,0,0,2,3,0	71.0	40.0	2.688	0,0,0,1,2,3,0,0,0	to_hand	s644
515.141	0.294	0	PA_with_intermediate	3,0,0,1,2,0,0,0,0	test	ward_and_allport	0,0,0,1,0,0,2,3,0	89.0	40.0	0.294	0,0,0,1,2,3,0,0,0	to_board	s644
515.443	0.607	0	PA_with_intermediate	3,0,0,1,0,0,0,0,0	test	ward_and_allport	0,0,0,1,0,0,2,3,0	71.0	40.0	0.607	0,0,0,1,2,3,0,0,0	to_hand	s644
516.051	0.579	0	PA_with_intermediate	3,0,0,1,0,0,2,0,0	test	ward_and_allport	0,0,0,1,0,0,2,3,0	82.0	40.0	0.579	0,0,0,1,2,3,0,0,0	to_board	s644
516.639	0.79	0	PA_with_intermediate	0,0,0,1,0,0,2,0,0	test	ward_and_allport	0,0,0,1,0,0,2,3,0	89.0	40.0	0.79	0,0,0,1,2,3,0,0,0	to_hand	s644
517.43	0.375	0	PA_with_intermediate	0,0,0,1,0,0,2,3,0	test	ward_and_allport	0,0,0,1,0,0,2,3,0	82.0	40.0	0.375	0,0,0,1,2,3,0,0,0	to_board	s644
517.818	1.0	0	PA_with_intermediate	n/a	test	ward_and_allport	n/a	-1.0	40.0	n/a	n/a	feedback	s644
518.818	1.544	0	PA_with_intermediate	n/a	test	ward_and_allport	n/a	-1.0	40.0	n/a	n/a	ITI	s644
520.374	3.225	1	PA_without_intermediate	0,0,0,1,2,0,0,0,0	test	ward_and_allport	1,0,0,0,0,0,3,2,0	71.0	41.0	3.225	0,0,0,1,2,3,0,0,0	to_hand	s644
523.601	0.377	0	PA_without_intermediate	0,0,0,1,2,0,3,0,0	test	ward_and_allport	1,0,0,0,0,0,3,2,0	82.0	41.0	0.377	0,0,0,1,2,3,0,0,0	to_board	s644
523.987	0.856	0	PA_without_intermediate	0,0,0,1,0,0,3,0,0	test	ward_and_allport	1,0,0,0,0,0,3,2,0	71.0	41.0	0.856	0,0,0,1,2,3,0,0,0	to_hand	s644
524.845	0.883	0	PA_without_intermediate	0,0,0,1,0,0,3,2,0	test	ward_and_allport	1,0,0,0,0,0,3,2,0	82.0	41.0	0.883	0,0,0,1,2,3,0,0,0	to_board	s644
525.737	0.437	0	PA_without_intermediate	0,0,0,0,0,0,3,2,0	test	ward_and_allport	1,0,0,0,0,0,3,2,0	71.0	41.0	0.437	0,0,0,1,2,3,0,0,0	to_hand	s644
526.176	0.3	0	PA_without_intermediate	1,0,0,0,0,0,3,2,0	test	ward_and_allport	1,0,0,0,0,0,3,2,0	89.0	41.0	0.3	0,0,0,1,2,3,0,0,0	to_board	s644
526.488	1.0	0	PA_without_intermediate	n/a	test	ward_and_allport	n/a	-1.0	41.0	n/a	n/a	feedback	s644
527.488	1.272	0	PA_without_intermediate	n/a	test	ward_and_allport	n/a	-1.0	41.0	n/a	n/a	ITI	s644
528.769	3.309	1	PA_with_intermediate	1,2,0,0,0,0,0,0,0	test	ward_and_allport	1,3,0,2,0,0,0,0,0	89.0	42.0	3.309	1,2,3,0,0,0,0,0,0	to_hand	s644
532.08	0.343	0	PA_with_intermediate	1,2,0,0,0,0,3,0,0	test	ward_and_allport	1,3,0,2,0,0,0,0,0	82.0	42.0	0.343	1,2,3,0,0,0,0,0,0	to_board	s644
532.43	1.423	0	PA_with_intermediate	1,0,0,0,0,0,3,0,0	test	ward_and_allport	1,3,0,2,0,0,0,0,0	89.0	42.0	1.423	1,2,3,0,0,0,0,0,0	to_hand	s644
533.854	0.307	0	PA_with_intermediate	1,0,0,2,0,0,3,0,0	test	ward_and_allport	1,3,0,2,0,0,0,0,0	71.0	42.0	0.307	1,2,3,0,0,0,0,0,0	to_board	s644
534.171	1.55	0	PA_with_intermediate	1,0,0,2,0,0,0,0,0	test	ward_and_allport	1,3,0,2,0,0,0,0,0	82.0	42.0	1.55	1,2,3,0,0,0,0,0,0	to_hand	s644
535.722	0.328	0	PA_with_intermediate	1,3,0,2,0,0,0,0,0	test	ward_and_allport	1,3,0,2,0,0,0,0,0	89.0	42.0	0.328	1,2,3,0,0,0,0,0,0	to_board	s644
536.063	1.0	0	PA_with_intermediate	n/a	test	ward_and_allport	n/a	-1.0	42.0	n/a	n/a	feedback	s644
537.063	3.04	0	PA_with_intermediate	n/a	test	ward_and_allport	n/a	-1.0	42.0	n/a	n/a	ITI	s644
540.115	2.027	1	PA_with_intermediate	0,0,0,1,2,0,0,0,0	test	ward_and_allport	2,3,0,1,0,0,0,0,0	71.0	43.0	2.027	0,0,0,1,2,3,0,0,0	to_hand	s644
542.143	0.608	0	PA_with_intermediate	0,0,0,1,2,0,3,0,0	test	ward_and_allport	2,3,0,1,0,0,0,0,0	82.0	43.0	0.608	0,0,0,1,2,3,0,0,0	to_board	s644
542.762	0.958	0	PA_with_intermediate	0,0,0,1,0,0,3,0,0	test	ward_and_allport	2,3,0,1,0,0,0,0,0	71.0	43.0	0.958	0,0,0,1,2,3,0,0,0	to_hand	s644
543.721	0.412	0	PA_with_intermediate	2,0,0,1,0,0,3,0,0	test	ward_and_allport	2,3,0,1,0,0,0,0,0	89.0	43.0	0.412	0,0,0,1,2,3,0,0,0	to_board	s644
544.143	0.927	0	PA_with_intermediate	2,0,0,1,0,0,0,0,0	test	ward_and_allport	2,3,0,1,0,0,0,0,0	82.0	43.0	0.927	0,0,0,1,2,3,0,0,0	to_hand	s644
545.072	0.24	0	PA_with_intermediate	2,3,0,1,0,0,0,0,0	test	ward_and_allport	2,3,0,1,0,0,0,0,0	89.0	43.0	0.24	0,0,0,1,2,3,0,0,0	to_board	s644
545.324	1.0	0	PA_with_intermediate	n/a	test	ward_and_allport	n/a	-1.0	43.0	n/a	n/a	feedback	s644
546.324	1.272	0	PA_with_intermediate	n/a	test	ward_and_allport	n/a	-1.0	43.0	n/a	n/a	ITI	s644
547.603	2.752	1	PA_with_intermediate	0,0,0,0,0,0,1,2,0	test	ward_and_allport	0,0,0,2,3,0,1,0,0	82.0	44.0	2.752	0,0,0,0,0,0,1,2,3	to_hand	s644
550.357	0.327	0	PA_with_intermediate	3,0,0,0,0,0,1,2,0	test	ward_and_allport	0,0,0,2,3,0,1,0,0	89.0	44.0	0.327	0,0,0,0,0,0,1,2,3	to_board	s644
550.691	1.568	0	PA_with_intermediate	3,0,0,0,0,0,1,0,0	test	ward_and_allport	0,0,0,2,3,0,1,0,0	82.0	44.0	1.568	0,0,0,0,0,0,1,2,3	to_hand	s644
552.261	0.362	0	PA_with_intermediate	3,0,0,2,0,0,1,0,0	test	ward_and_allport	0,0,0,2,3,0,1,0,0	71.0	44.0	0.362	0,0,0,0,0,0,1,2,3	to_board	s644
552.632	1.949	0	PA_with_intermediate	0,0,0,2,0,0,1,0,0	test	ward_and_allport	0,0,0,2,3,0,1,0,0	89.0	44.0	1.949	0,0,0,0,0,0,1,2,3	to_hand	s644
554.582	0.291	0	PA_with_intermediate	0,0,0,2,3,0,1,0,0	test	ward_and_allport	0,0,0,2,3,0,1,0,0	71.0	44.0	0.291	0,0,0,0,0,0,1,2,3	to_board	s644
554.886	1.0	0	PA_with_intermediate	n/a	test	ward_and_allport	n/a	-1.0	44.0	n/a	n/a	feedback	s644
555.886	1.136	0	PA_with_intermediate	n/a	test	ward_and_allport	n/a	-1.0	44.0	n/a	n/a	ITI	s644
562.04	4.055	1	PA_with_intermediate	0,0,0,1,2,0,0,0,0	test	ward_and_allport	2,3,0,1,0,0,0,0,0	71.0	45.0	4.055	0,0,0,1,2,3,0,0,0	to_hand	s644
566.096	0.371	0	PA_with_intermediate	0,0,0,1,2,0,3,0,0	test	ward_and_allport	2,3,0,1,0,0,0,0,0	82.0	45.0	0.371	0,0,0,1,2,3,0,0,0	to_board	s644
566.477	0.461	0	PA_with_intermediate	0,0,0,1,0,0,3,0,0	test	ward_and_allport	2,3,0,1,0,0,0,0,0	71.0	45.0	0.461	0,0,0,1,2,3,0,0,0	to_hand	s644
566.94	0.409	0	PA_with_intermediate	2,0,0,1,0,0,3,0,0	test	ward_and_allport	2,3,0,1,0,0,0,0,0	89.0	45.0	0.409	0,0,0,1,2,3,0,0,0	to_board	s644
567.358	0.566	0	PA_with_intermediate	2,0,0,1,0,0,0,0,0	test	ward_and_allport	2,3,0,1,0,0,0,0,0	82.0	45.0	0.566	0,0,0,1,2,3,0,0,0	to_hand	s644
567.925	0.296	0	PA_with_intermediate	2,3,0,1,0,0,0,0,0	test	ward_and_allport	2,3,0,1,0,0,0,0,0	89.0	45.0	0.296	0,0,0,1,2,3,0,0,0	to_board	s644
568.233	1.0	0	PA_with_intermediate	n/a	test	ward_and_allport	n/a	-1.0	45.0	n/a	n/a	feedback	s644
569.233	1.0	0	PA_with_intermediate	n/a	test	ward_and_allport	n/a	-1.0	45.0	n/a	n/a	ITI	s644
n/a	n/a	0	n/a	n/a	n/a	n/a	n/a	n/a	n/a	n/a	n/a	ITI	n/a
