onset	duration	condition	correct	correct_response	experiment_exp_id	key_press	response_time	stim_color	stim_word	trial_type	worker_id
3.506	1.5	incongruent	1.0	89.0	stroop	89	0.745	red	blue	incongruent	s513
5.51	1.5	congruent	1.0	82.0	stroop	82	0.969	green	green	congruent	s513
8.056	1.5	congruent	1.0	71.0	stroop	71	0.497	blue	blue	congruent	s513
10.194	1.5	congruent	1.0	89.0	stroop	89	0.504	red	red	congruent	s513
12.196	1.5	congruent	1.0	71.0	stroop	71	0.388	blue	blue	congruent	s513
14.198	1.5	congruent	1.0	89.0	stroop	89	0.639	red	red	congruent	s513
16.472	1.5	incongruent	1.0	82.0	stroop	82	0.571	green	blue	incongruent	s513
18.475	1.5	congruent	1.0	71.0	stroop	71	0.614	blue	blue	congruent	s513
20.477	1.5	incongruent	1.0	89.0	stroop	89	0.329	red	green	incongruent	s513
22.615	1.5	incongruent	1.0	71.0	stroop	71	0.379	blue	red	incongruent	s513
24.617	1.5	incongruent	1.0	89.0	stroop	89	0.559	red	blue	incongruent	s513
26.891	1.5	congruent	0.0	89.0	stroop	71	0.482	red	red	congruent	s513
29.029	1.5	incongruent	1.0	82.0	stroop	82	0.712	green	blue	incongruent	s513
31.439	1.5	congruent	1.0	89.0	stroop	89	0.861	red	red	congruent	s513
33.441	1.5	congruent	1.0	89.0	stroop	89	0.699	red	red	congruent	s513
35.443	1.5	incongruent	1.0	71.0	stroop	71	0.685	blue	red	incongruent	s513
38.261	1.5	incongruent	1.0	89.0	stroop	89	1.434	red	blue	incongruent	s513
40.263	1.5	incongruent	1.0	71.0	stroop	71	0.78	blue	green	incongruent	s513
42.266	1.5	congruent	1.0	82.0	stroop	82	0.635	green	green	congruent	s513
44.404	1.5	congruent	1.0	89.0	stroop	89	0.699	red	red	congruent	s513
46.406	1.5	incongruent	1.0	71.0	stroop	71	0.388	blue	red	incongruent	s513
48.408	1.5	congruent	1.0	71.0	stroop	71	0.667	blue	blue	congruent	s513
50.411	1.5	incongruent	1.0	89.0	stroop	89	0.676	red	green	incongruent	s513
52.413	1.5	congruent	1.0	82.0	stroop	82	0.73	green	green	congruent	s513
54.415	1.5	incongruent	1.0	71.0	stroop	71	0.466	blue	red	incongruent	s513
56.417	1.5	congruent	1.0	89.0	stroop	89	0.465	red	red	congruent	s513
58.42	1.5	incongruent	1.0	71.0	stroop	71	0.789	blue	green	incongruent	s513
60.694	1.5	incongruent	1.0	89.0	stroop	89	0.709	red	blue	incongruent	s513
62.697	1.5	congruent	1.0	82.0	stroop	82	0.722	green	green	congruent	s513
64.835	1.5	congruent	1.0	82.0	stroop	82	0.67	green	green	congruent	s513
66.837	1.5	congruent	1.0	71.0	stroop	71	0.645	blue	blue	congruent	s513
68.975	1.5	congruent	1.0	89.0	stroop	89	0.678	red	red	congruent	s513
70.977	1.5	congruent	1.0	89.0	stroop	89	0.601	red	red	congruent	s513
72.98	1.5	incongruent	1.0	89.0	stroop	89	0.681	red	blue	incongruent	s513
74.983	1.5	incongruent	1.0	82.0	stroop	82	0.743	green	red	incongruent	s513
77.258	1.5	incongruent	1.0	82.0	stroop	82	0.739	green	blue	incongruent	s513
79.26	1.5	incongruent	1.0	82.0	stroop	82	0.591	green	red	incongruent	s513
81.398	1.5	congruent	1.0	89.0	stroop	89	0.617	red	red	congruent	s513
83.808	1.5	incongruent	1.0	82.0	stroop	82	0.694	green	red	incongruent	s513
86.082	1.5	congruent	1.0	71.0	stroop	71	0.777	blue	blue	congruent	s513
88.765	1.5	congruent	1.0	82.0	stroop	82	0.699	green	green	congruent	s513
90.767	1.5	congruent	1.0	89.0	stroop	89	0.651	red	red	congruent	s513
93.177	1.5	congruent	1.0	82.0	stroop	82	0.634	green	green	congruent	s513
95.315	1.5	incongruent	1.0	71.0	stroop	71	0.685	blue	green	incongruent	s513
97.997	1.5	incongruent	1.0	89.0	stroop	89	0.918	red	green	incongruent	s513
100.0	1.5	incongruent	1.0	71.0	stroop	71	1.359	blue	green	incongruent	s513
102.138	1.5	congruent	1.0	82.0	stroop	82	0.424	green	green	congruent	s513
105.092	1.5	incongruent	1.0	71.0	stroop	71	0.795	blue	red	incongruent	s513
107.093	1.5	incongruent	1.0	82.0	stroop	82	0.963	green	blue	incongruent	s513
109.367	1.5	incongruent	1.0	89.0	stroop	89	0.743	red	blue	incongruent	s513
111.369	1.5	congruent	1.0	71.0	stroop	71	0.644	blue	blue	congruent	s513
113.372	1.5	congruent	1.0	89.0	stroop	89	0.573	red	red	congruent	s513
115.374	1.5	incongruent	1.0	89.0	stroop	89	0.807	red	blue	incongruent	s513
117.375	1.5	congruent	1.0	71.0	stroop	71	0.352	blue	blue	congruent	s513
119.515	1.5	congruent	1.0	71.0	stroop	71	0.49	blue	blue	congruent	s513
121.517	1.5	incongruent	1.0	89.0	stroop	89	0.8	red	green	incongruent	s513
123.519	1.5	congruent	1.0	71.0	stroop	71	0.368	blue	blue	congruent	s513
125.657	1.5	incongruent	0.0	82.0	stroop	89	0.367	green	red	incongruent	s513
127.659	1.5	incongruent	1.0	89.0	stroop	89	0.584	red	green	incongruent	s513
129.661	1.5	incongruent	1.0	71.0	stroop	71	1.716	blue	green	incongruent	s513
131.8	1.5	congruent	1.0	71.0	stroop	71	0.567	blue	blue	congruent	s513
133.938	1.5	congruent	1.0	71.0	stroop	71	0.482	blue	blue	congruent	s513
136.212	1.5	incongruent	1.0	82.0	stroop	82	0.745	green	red	incongruent	s513
138.894	1.5	congruent	1.0	89.0	stroop	89	0.678	red	red	congruent	s513
140.896	1.5	congruent	1.0	82.0	stroop	82	0.831	green	green	congruent	s513
142.899	1.5	incongruent	1.0	82.0	stroop	82	1.786	green	red	incongruent	s513
145.172	1.5	incongruent	1.0	71.0	stroop	71	0.094	blue	green	incongruent	s513
147.174	1.5	congruent	1.0	82.0	stroop	82	0.769	green	green	congruent	s513
149.176	1.5	incongruent	1.0	71.0	stroop	71	0.601	blue	red	incongruent	s513
151.178	1.5	incongruent	1.0	82.0	stroop	82	1.044	green	red	incongruent	s513
153.18	1.5	incongruent	1.0	71.0	stroop	71	0.755	blue	green	incongruent	s513
155.182	1.5	incongruent	1.0	71.0	stroop	71	0.808	blue	red	incongruent	s513
157.184	1.5	congruent	1.0	82.0	stroop	82	0.746	green	green	congruent	s513
159.458	1.5	incongruent	1.0	82.0	stroop	82	1.044	green	blue	incongruent	s513
161.459	1.5	congruent	1.0	82.0	stroop	82	0.581	green	green	congruent	s513
163.871	1.5	congruent	1.0	71.0	stroop	71	0.679	blue	blue	congruent	s513
165.873	1.5	congruent	1.0	89.0	stroop	89	0.776	red	red	congruent	s513
168.011	1.5	congruent	1.0	89.0	stroop	89	0.55	red	red	congruent	s513
170.013	1.5	congruent	1.0	71.0	stroop	71	0.723	blue	blue	congruent	s513
172.015	1.5	incongruent	1.0	82.0	stroop	82	0.681	green	blue	incongruent	s513
174.017	1.5	congruent	1.0	71.0	stroop	71	0.861	blue	blue	congruent	s513
176.291	1.5	incongruent	1.0	82.0	stroop	82	1.027	green	blue	incongruent	s513
178.293	1.5	incongruent	1.0	71.0	stroop	71	1.04	blue	green	incongruent	s513
180.567	1.5	incongruent	1.0	89.0	stroop	89	1.033	red	green	incongruent	s513
182.842	1.5	incongruent	1.0	89.0	stroop	89	0.59	red	green	incongruent	s513
184.844	1.5	congruent	1.0	82.0	stroop	82	1.321	green	green	congruent	s513
187.526	1.5	incongruent	1.0	71.0	stroop	71	1.229	blue	red	incongruent	s513
189.527	1.5	congruent	1.0	82.0	stroop	82	0.718	green	green	congruent	s513
191.802	1.5	congruent	1.0	89.0	stroop	89	0.74	red	red	congruent	s513
193.805	1.5	congruent	1.0	82.0	stroop	82	0.781	green	green	congruent	s513
195.808	1.5	incongruent	1.0	89.0	stroop	89	0.62	red	green	incongruent	s513
198.082	1.5	congruent	1.0	71.0	stroop	71	0.681	blue	blue	congruent	s513
200.22	1.5	congruent	1.0	82.0	stroop	82	0.694	green	green	congruent	s513
202.766	1.5	incongruent	1.0	89.0	stroop	89	0.63	red	blue	incongruent	s513
205.176	1.5	incongruent	1.0	82.0	stroop	82	1.571	green	blue	incongruent	s513
207.178	1.5	incongruent	1.0	82.0	stroop	82	1.579	green	red	incongruent	s513
