onset	duration	planning	condition	current_position	exp_stage	experiment_exp_id	goal_state	key_press	problem_id	response_time	start_state	trial_id	worker_id
-54.102	0.0	0	n/a	n/a	n/a	ward_and_allport	n/a	32.0	n/a	21.025	n/a	instructions	s649
3.008	4.437	1	UA_with_intermediate	1,0,0,2,0,0,0,0,0	practice	ward_and_allport	1,2,3,0,0,0,0,0,0	71.0	0.0	4.437	1,0,0,2,3,0,0,0,0	to_hand	s649
7.447	4.084	0	UA_with_intermediate	1,0,0,2,0,0,3,0,0	practice	ward_and_allport	1,2,3,0,0,0,0,0,0	82.0	0.0	4.084	1,0,0,2,3,0,0,0,0	to_board	s649
11.533	0.906	0	UA_with_intermediate	1,0,0,0,0,0,3,0,0	practice	ward_and_allport	1,2,3,0,0,0,0,0,0	71.0	0.0	0.906	1,0,0,2,3,0,0,0,0	to_hand	s649
12.44	0.653	0	UA_with_intermediate	1,2,0,0,0,0,3,0,0	practice	ward_and_allport	1,2,3,0,0,0,0,0,0	89.0	0.0	0.653	1,0,0,2,3,0,0,0,0	to_board	s649
13.095	0.936	0	UA_with_intermediate	1,2,0,0,0,0,0,0,0	practice	ward_and_allport	1,2,3,0,0,0,0,0,0	82.0	0.0	0.936	1,0,0,2,3,0,0,0,0	to_hand	s649
14.032	0.773	0	UA_with_intermediate	1,2,3,0,0,0,0,0,0	practice	ward_and_allport	1,2,3,0,0,0,0,0,0	89.0	0.0	0.773	1,0,0,2,3,0,0,0,0	to_board	s649
14.812	1.0	0	UA_with_intermediate	n/a	practice	ward_and_allport	n/a	-1.0	0.0	n/a	n/a	feedback	s649
17.314	3.913	1	UA_with_intermediate	1,0,0,3,0,0,0,0,0	practice	ward_and_allport	1,3,2,0,0,0,0,0,0	89.0	1.0	3.913	1,2,0,3,0,0,0,0,0	to_hand	s649
21.228	0.517	0	UA_with_intermediate	1,0,0,3,0,0,2,0,0	practice	ward_and_allport	1,3,2,0,0,0,0,0,0	82.0	1.0	0.517	1,2,0,3,0,0,0,0,0	to_board	s649
21.748	0.471	0	UA_with_intermediate	1,0,0,0,0,0,2,0,0	practice	ward_and_allport	1,3,2,0,0,0,0,0,0	71.0	1.0	0.471	1,2,0,3,0,0,0,0,0	to_hand	s649
22.221	1.062	0	UA_with_intermediate	1,3,0,0,0,0,2,0,0	practice	ward_and_allport	1,3,2,0,0,0,0,0,0	89.0	1.0	1.062	1,2,0,3,0,0,0,0,0	to_board	s649
23.285	0.63	0	UA_with_intermediate	1,3,0,0,0,0,0,0,0	practice	ward_and_allport	1,3,2,0,0,0,0,0,0	82.0	1.0	0.63	1,2,0,3,0,0,0,0,0	to_hand	s649
23.916	0.364	0	UA_with_intermediate	1,3,2,0,0,0,0,0,0	practice	ward_and_allport	1,3,2,0,0,0,0,0,0	89.0	1.0	0.364	1,2,0,3,0,0,0,0,0	to_board	s649
24.283	1.0	0	UA_with_intermediate	n/a	practice	ward_and_allport	n/a	-1.0	1.0	n/a	n/a	feedback	s649
25.283	1.1	0	UA_with_intermediate	n/a	practice	ward_and_allport	n/a	-1.0	1.0	n/a	n/a	ITI	s649
26.385	2.672	1	UA_without_intermediate	0,0,0,1,2,0,0,0,0	practice	ward_and_allport	3,2,1,0,0,0,0,0,0	82.0	2.0	2.672	0,0,0,1,2,0,3,0,0	to_hand	s649
29.058	0.454	0	UA_without_intermediate	3,0,0,1,2,0,0,0,0	practice	ward_and_allport	3,2,1,0,0,0,0,0,0	89.0	2.0	0.454	0,0,0,1,2,0,3,0,0	to_board	s649
29.514	1.518	0	UA_without_intermediate	3,0,0,1,0,0,0,0,0	practice	ward_and_allport	3,2,1,0,0,0,0,0,0	71.0	2.0	1.518	0,0,0,1,2,0,3,0,0	to_hand	s649
31.034	0.5	0	UA_without_intermediate	3,2,0,1,0,0,0,0,0	practice	ward_and_allport	3,2,1,0,0,0,0,0,0	89.0	2.0	0.5	0,0,0,1,2,0,3,0,0	to_board	s649
31.536	0.659	0	UA_without_intermediate	3,2,0,0,0,0,0,0,0	practice	ward_and_allport	3,2,1,0,0,0,0,0,0	71.0	2.0	0.659	0,0,0,1,2,0,3,0,0	to_hand	s649
32.196	0.313	0	UA_without_intermediate	3,2,1,0,0,0,0,0,0	practice	ward_and_allport	3,2,1,0,0,0,0,0,0	89.0	2.0	0.313	0,0,0,1,2,0,3,0,0	to_board	s649
32.513	1.0	0	UA_without_intermediate	n/a	practice	ward_and_allport	n/a	-1.0	2.0	n/a	n/a	feedback	s649
33.513	1.2	0	UA_without_intermediate	n/a	practice	ward_and_allport	n/a	-1.0	2.0	n/a	n/a	ITI	s649
34.715	2.85	1	UA_without_intermediate	0,0,0,1,0,0,3,0,0	practice	ward_and_allport	2,3,1,0,0,0,0,0,0	71.0	3.0	2.85	0,0,0,1,2,0,3,0,0	to_hand	s649
37.566	0.34	0	UA_without_intermediate	2,0,0,1,0,0,3,0,0	practice	ward_and_allport	2,3,1,0,0,0,0,0,0	89.0	3.0	0.34	0,0,0,1,2,0,3,0,0	to_board	s649
37.908	2.131	0	UA_without_intermediate	2,0,0,1,0,0,0,0,0	practice	ward_and_allport	2,3,1,0,0,0,0,0,0	82.0	3.0	2.131	0,0,0,1,2,0,3,0,0	to_hand	s649
40.04	0.721	0	UA_without_intermediate	2,3,0,1,0,0,0,0,0	practice	ward_and_allport	2,3,1,0,0,0,0,0,0	89.0	3.0	0.721	0,0,0,1,2,0,3,0,0	to_board	s649
40.763	0.466	0	UA_without_intermediate	2,3,0,0,0,0,0,0,0	practice	ward_and_allport	2,3,1,0,0,0,0,0,0	71.0	3.0	0.466	0,0,0,1,2,0,3,0,0	to_hand	s649
41.23	0.296	0	UA_without_intermediate	2,3,1,0,0,0,0,0,0	practice	ward_and_allport	2,3,1,0,0,0,0,0,0	89.0	3.0	0.296	0,0,0,1,2,0,3,0,0	to_board	s649
41.529	1.0	0	UA_without_intermediate	n/a	practice	ward_and_allport	n/a	-1.0	3.0	n/a	n/a	feedback	s649
42.529	1.0	0	UA_without_intermediate	n/a	practice	ward_and_allport	n/a	-1.0	3.0	n/a	n/a	ITI	s649
45.536	2.829	1	PA_without_intermediate	0,0,0,1,2,0,0,0,0	test	ward_and_allport	3,1,0,0,0,0,2,0,0	71.0	0.0	2.829	0,0,0,1,2,3,0,0,0	to_hand	s649
48.365	1.076	0	PA_without_intermediate	0,0,0,1,2,3,0,0,0	test	ward_and_allport	3,1,0,0,0,0,2,0,0	71.0	0.0	1.076	0,0,0,1,2,3,0,0,0	to_board	s649
49.444	4.721	0	PA_without_intermediate	0,0,0,1,2,0,0,0,0	test	ward_and_allport	3,1,0,0,0,0,2,0,0	71.0	0.0	4.721	0,0,0,1,2,3,0,0,0	to_hand	s649
54.166	0.34	0	PA_without_intermediate	3,0,0,1,2,0,0,0,0	test	ward_and_allport	3,1,0,0,0,0,2,0,0	89.0	0.0	0.34	0,0,0,1,2,3,0,0,0	to_board	s649
54.508	1.473	0	PA_without_intermediate	3,0,0,1,0,0,0,0,0	test	ward_and_allport	3,1,0,0,0,0,2,0,0	71.0	0.0	1.473	0,0,0,1,2,3,0,0,0	to_hand	s649
55.982	0.285	0	PA_without_intermediate	3,0,0,1,0,0,2,0,0	test	ward_and_allport	3,1,0,0,0,0,2,0,0	82.0	0.0	0.285	0,0,0,1,2,3,0,0,0	to_board	s649
56.269	0.333	0	PA_without_intermediate	3,0,0,0,0,0,2,0,0	test	ward_and_allport	3,1,0,0,0,0,2,0,0	71.0	0.0	0.333	0,0,0,1,2,3,0,0,0	to_hand	s649
56.603	0.398	0	PA_without_intermediate	3,1,0,0,0,0,2,0,0	test	ward_and_allport	3,1,0,0,0,0,2,0,0	89.0	0.0	0.398	0,0,0,1,2,3,0,0,0	to_board	s649
57.006	1.0	0	PA_without_intermediate	n/a	test	ward_and_allport	n/a	-1.0	0.0	n/a	n/a	feedback	s649
58.006	2.088	0	PA_without_intermediate	n/a	test	ward_and_allport	n/a	-1.0	0.0	n/a	n/a	ITI	s649
60.097	4.473	1	PA_with_intermediate	0,0,0,1,2,0,0,0,0	test	ward_and_allport	0,0,0,1,0,0,2,3,0	71.0	1.0	4.473	0,0,0,1,2,3,0,0,0	to_hand	s649
64.571	0.325	0	PA_with_intermediate	3,0,0,1,2,0,0,0,0	test	ward_and_allport	0,0,0,1,0,0,2,3,0	89.0	1.0	0.325	0,0,0,1,2,3,0,0,0	to_board	s649
64.899	0.891	0	PA_with_intermediate	3,0,0,1,0,0,0,0,0	test	ward_and_allport	0,0,0,1,0,0,2,3,0	71.0	1.0	0.891	0,0,0,1,2,3,0,0,0	to_hand	s649
65.791	0.379	0	PA_with_intermediate	3,0,0,1,0,0,2,0,0	test	ward_and_allport	0,0,0,1,0,0,2,3,0	82.0	1.0	0.379	0,0,0,1,2,3,0,0,0	to_board	s649
66.174	0.828	0	PA_with_intermediate	0,0,0,1,0,0,2,0,0	test	ward_and_allport	0,0,0,1,0,0,2,3,0	89.0	1.0	0.828	0,0,0,1,2,3,0,0,0	to_hand	s649
67.003	0.55	0	PA_with_intermediate	0,0,0,1,0,0,2,3,0	test	ward_and_allport	0,0,0,1,0,0,2,3,0	82.0	1.0	0.55	0,0,0,1,2,3,0,0,0	to_board	s649
67.557	1.0	0	PA_with_intermediate	n/a	test	ward_and_allport	n/a	-1.0	1.0	n/a	n/a	feedback	s649
68.557	1.0	0	PA_with_intermediate	n/a	test	ward_and_allport	n/a	-1.0	1.0	n/a	n/a	ITI	s649
69.559	4.316	1	PA_without_intermediate	0,0,0,0,0,0,1,2,0	test	ward_and_allport	3,1,0,2,0,0,0,0,0	82.0	2.0	4.316	0,0,0,0,0,0,1,2,3	to_hand	s649
73.876	0.969	0	PA_without_intermediate	3,0,0,0,0,0,1,2,0	test	ward_and_allport	3,1,0,2,0,0,0,0,0	89.0	2.0	0.969	0,0,0,0,0,0,1,2,3	to_board	s649
74.848	3.129	0	PA_without_intermediate	3,0,0,0,0,0,1,0,0	test	ward_and_allport	3,1,0,2,0,0,0,0,0	82.0	2.0	3.129	0,0,0,0,0,0,1,2,3	to_hand	s649
77.978	0.785	0	PA_without_intermediate	3,0,0,2,0,0,1,0,0	test	ward_and_allport	3,1,0,2,0,0,0,0,0	71.0	2.0	0.785	0,0,0,0,0,0,1,2,3	to_board	s649
78.766	0.605	0	PA_without_intermediate	3,0,0,2,0,0,0,0,0	test	ward_and_allport	3,1,0,2,0,0,0,0,0	82.0	2.0	0.605	0,0,0,0,0,0,1,2,3	to_hand	s649
79.372	0.435	0	PA_without_intermediate	3,1,0,2,0,0,0,0,0	test	ward_and_allport	3,1,0,2,0,0,0,0,0	89.0	2.0	0.435	0,0,0,0,0,0,1,2,3	to_board	s649
79.811	1.0	0	PA_without_intermediate	n/a	test	ward_and_allport	n/a	-1.0	2.0	n/a	n/a	feedback	s649
80.811	1.0	0	PA_without_intermediate	n/a	test	ward_and_allport	n/a	-1.0	2.0	n/a	n/a	ITI	s649
81.815	4.418	1	PA_without_intermediate	1,2,0,0,0,0,0,0,0	test	ward_and_allport	0,0,0,1,0,0,3,2,0	89.0	3.0	4.418	1,2,3,0,0,0,0,0,0	to_hand	s649
86.234	1.051	0	PA_without_intermediate	1,2,0,3,0,0,0,0,0	test	ward_and_allport	0,0,0,1,0,0,3,2,0	71.0	3.0	1.051	1,2,3,0,0,0,0,0,0	to_board	s649
87.287	1.714	0	PA_without_intermediate	1,2,0,0,0,0,0,0,0	test	ward_and_allport	0,0,0,1,0,0,3,2,0	71.0	3.0	1.714	1,2,3,0,0,0,0,0,0	to_hand	s649
89.003	0.377	0	PA_without_intermediate	1,2,0,0,0,0,3,0,0	test	ward_and_allport	0,0,0,1,0,0,3,2,0	82.0	3.0	0.377	1,2,3,0,0,0,0,0,0	to_board	s649
89.384	2.002	0	PA_without_intermediate	1,0,0,0,0,0,3,0,0	test	ward_and_allport	0,0,0,1,0,0,3,2,0	89.0	3.0	2.002	1,2,3,0,0,0,0,0,0	to_hand	s649
91.387	0.354	0	PA_without_intermediate	1,0,0,0,0,0,3,2,0	test	ward_and_allport	0,0,0,1,0,0,3,2,0	82.0	3.0	0.354	1,2,3,0,0,0,0,0,0	to_board	s649
91.744	0.717	0	PA_without_intermediate	0,0,0,0,0,0,3,2,0	test	ward_and_allport	0,0,0,1,0,0,3,2,0	89.0	3.0	0.717	1,2,3,0,0,0,0,0,0	to_hand	s649
92.461	0.351	0	PA_without_intermediate	0,0,0,1,0,0,3,2,0	test	ward_and_allport	0,0,0,1,0,0,3,2,0	71.0	3.0	0.351	1,2,3,0,0,0,0,0,0	to_board	s649
92.816	1.0	0	PA_without_intermediate	n/a	test	ward_and_allport	n/a	-1.0	3.0	n/a	n/a	feedback	s649
93.816	1.0	0	PA_without_intermediate	n/a	test	ward_and_allport	n/a	-1.0	3.0	n/a	n/a	ITI	s649
94.821	2.973	1	PA_with_intermediate	0,0,0,1,2,0,0,0,0	test	ward_and_allport	2,3,0,1,0,0,0,0,0	71.0	4.0	2.973	0,0,0,1,2,3,0,0,0	to_hand	s649
97.795	1.284	0	PA_with_intermediate	0,0,0,1,2,0,3,0,0	test	ward_and_allport	2,3,0,1,0,0,0,0,0	82.0	4.0	1.284	0,0,0,1,2,3,0,0,0	to_board	s649
99.082	0.691	0	PA_with_intermediate	0,0,0,1,0,0,3,0,0	test	ward_and_allport	2,3,0,1,0,0,0,0,0	71.0	4.0	0.691	0,0,0,1,2,3,0,0,0	to_hand	s649
99.774	0.305	0	PA_with_intermediate	2,0,0,1,0,0,3,0,0	test	ward_and_allport	2,3,0,1,0,0,0,0,0	89.0	4.0	0.305	0,0,0,1,2,3,0,0,0	to_board	s649
100.083	1.183	0	PA_with_intermediate	2,0,0,1,0,0,0,0,0	test	ward_and_allport	2,3,0,1,0,0,0,0,0	82.0	4.0	1.183	0,0,0,1,2,3,0,0,0	to_hand	s649
101.267	0.376	0	PA_with_intermediate	2,3,0,1,0,0,0,0,0	test	ward_and_allport	2,3,0,1,0,0,0,0,0	89.0	4.0	0.376	0,0,0,1,2,3,0,0,0	to_board	s649
101.647	1.0	0	PA_with_intermediate	n/a	test	ward_and_allport	n/a	-1.0	4.0	n/a	n/a	feedback	s649
102.647	1.544	0	PA_with_intermediate	n/a	test	ward_and_allport	n/a	-1.0	4.0	n/a	n/a	ITI	s649
104.196	3.34	1	PA_without_intermediate	0,0,0,1,2,0,0,0,0	test	ward_and_allport	3,2,0,0,0,0,1,0,0	71.0	5.0	3.34	0,0,0,1,2,3,0,0,0	to_hand	s649
107.537	0.289	0	PA_without_intermediate	3,0,0,1,2,0,0,0,0	test	ward_and_allport	3,2,0,0,0,0,1,0,0	89.0	5.0	0.289	0,0,0,1,2,3,0,0,0	to_board	s649
107.83	1.702	0	PA_without_intermediate	3,0,0,1,0,0,0,0,0	test	ward_and_allport	3,2,0,0,0,0,1,0,0	71.0	5.0	1.702	0,0,0,1,2,3,0,0,0	to_hand	s649
109.533	1.449	0	PA_without_intermediate	3,2,0,1,0,0,0,0,0	test	ward_and_allport	3,2,0,0,0,0,1,0,0	89.0	5.0	1.449	0,0,0,1,2,3,0,0,0	to_board	s649
110.987	0.789	0	PA_without_intermediate	3,2,0,0,0,0,0,0,0	test	ward_and_allport	3,2,0,0,0,0,1,0,0	71.0	5.0	0.789	0,0,0,1,2,3,0,0,0	to_hand	s649
111.777	0.298	0	PA_without_intermediate	3,2,0,0,0,0,1,0,0	test	ward_and_allport	3,2,0,0,0,0,1,0,0	82.0	5.0	0.298	0,0,0,1,2,3,0,0,0	to_board	s649
112.08	1.0	0	PA_without_intermediate	n/a	test	ward_and_allport	n/a	-1.0	5.0	n/a	n/a	feedback	s649
113.08	1.272	0	PA_without_intermediate	n/a	test	ward_and_allport	n/a	-1.0	5.0	n/a	n/a	ITI	s649
114.356	3.34	1	PA_with_intermediate	0,0,0,0,0,0,1,2,0	test	ward_and_allport	2,0,0,0,0,0,1,3,0	82.0	6.0	3.34	0,0,0,0,0,0,1,2,3	to_hand	s649
117.698	0.623	0	PA_with_intermediate	0,0,0,3,0,0,1,2,0	test	ward_and_allport	2,0,0,0,0,0,1,3,0	71.0	6.0	0.623	0,0,0,0,0,0,1,2,3	to_board	s649
118.323	1.044	0	PA_with_intermediate	0,0,0,3,0,0,1,0,0	test	ward_and_allport	2,0,0,0,0,0,1,3,0	82.0	6.0	1.044	0,0,0,0,0,0,1,2,3	to_hand	s649
119.369	0.327	0	PA_with_intermediate	2,0,0,3,0,0,1,0,0	test	ward_and_allport	2,0,0,0,0,0,1,3,0	89.0	6.0	0.327	0,0,0,0,0,0,1,2,3	to_board	s649
119.698	1.004	0	PA_with_intermediate	2,0,0,0,0,0,1,0,0	test	ward_and_allport	2,0,0,0,0,0,1,3,0	71.0	6.0	1.004	0,0,0,0,0,0,1,2,3	to_hand	s649
120.704	0.314	0	PA_with_intermediate	2,0,0,0,0,0,1,3,0	test	ward_and_allport	2,0,0,0,0,0,1,3,0	82.0	6.0	0.314	0,0,0,0,0,0,1,2,3	to_board	s649
121.023	1.0	0	PA_with_intermediate	n/a	test	ward_and_allport	n/a	-1.0	6.0	n/a	n/a	feedback	s649
122.023	3.04	0	PA_with_intermediate	n/a	test	ward_and_allport	n/a	-1.0	6.0	n/a	n/a	ITI	s649
125.068	3.947	1	PA_with_intermediate	0,0,0,0,0,0,1,2,0	test	ward_and_allport	2,3,0,0,0,0,1,0,0	82.0	7.0	3.947	0,0,0,0,0,0,1,2,3	to_hand	s649
129.016	0.629	0	PA_with_intermediate	0,0,0,3,0,0,1,2,0	test	ward_and_allport	2,3,0,0,0,0,1,0,0	71.0	7.0	0.629	0,0,0,0,0,0,1,2,3	to_board	s649
129.648	2.995	0	PA_with_intermediate	0,0,0,3,0,0,1,0,0	test	ward_and_allport	2,3,0,0,0,0,1,0,0	82.0	7.0	2.995	0,0,0,0,0,0,1,2,3	to_hand	s649
132.645	0.722	0	PA_with_intermediate	2,0,0,3,0,0,1,0,0	test	ward_and_allport	2,3,0,0,0,0,1,0,0	89.0	7.0	0.722	0,0,0,0,0,0,1,2,3	to_board	s649
133.371	0.594	0	PA_with_intermediate	2,0,0,0,0,0,1,0,0	test	ward_and_allport	2,3,0,0,0,0,1,0,0	71.0	7.0	0.594	0,0,0,0,0,0,1,2,3	to_hand	s649
133.966	0.269	0	PA_with_intermediate	2,3,0,0,0,0,1,0,0	test	ward_and_allport	2,3,0,0,0,0,1,0,0	89.0	7.0	0.269	0,0,0,0,0,0,1,2,3	to_board	s649
134.24	1.0	0	PA_with_intermediate	n/a	test	ward_and_allport	n/a	-1.0	7.0	n/a	n/a	feedback	s649
135.24	1.272	0	PA_with_intermediate	n/a	test	ward_and_allport	n/a	-1.0	7.0	n/a	n/a	ITI	s649
136.515	4.714	1	PA_with_intermediate	0,0,0,0,0,0,1,2,0	test	ward_and_allport	0,0,0,2,0,0,1,3,0	82.0	8.0	4.714	0,0,0,0,0,0,1,2,3	to_hand	s649
141.231	1.426	0	PA_with_intermediate	0,0,0,3,0,0,1,2,0	test	ward_and_allport	0,0,0,2,0,0,1,3,0	71.0	8.0	1.426	0,0,0,0,0,0,1,2,3	to_board	s649
142.66	2.905	0	PA_with_intermediate	0,0,0,0,0,0,1,2,0	test	ward_and_allport	0,0,0,2,0,0,1,3,0	71.0	8.0	2.905	0,0,0,0,0,0,1,2,3	to_hand	s649
145.566	0.904	0	PA_with_intermediate	3,0,0,0,0,0,1,2,0	test	ward_and_allport	0,0,0,2,0,0,1,3,0	89.0	8.0	0.904	0,0,0,0,0,0,1,2,3	to_board	s649
146.474	0.731	0	PA_with_intermediate	3,0,0,0,0,0,1,0,0	test	ward_and_allport	0,0,0,2,0,0,1,3,0	82.0	8.0	0.731	0,0,0,0,0,0,1,2,3	to_hand	s649
147.207	0.357	0	PA_with_intermediate	3,0,0,2,0,0,1,0,0	test	ward_and_allport	0,0,0,2,0,0,1,3,0	71.0	8.0	0.357	0,0,0,0,0,0,1,2,3	to_board	s649
147.568	1.316	0	PA_with_intermediate	0,0,0,2,0,0,1,0,0	test	ward_and_allport	0,0,0,2,0,0,1,3,0	89.0	8.0	1.316	0,0,0,0,0,0,1,2,3	to_hand	s649
148.885	0.779	0	PA_with_intermediate	0,0,0,2,0,0,1,3,0	test	ward_and_allport	0,0,0,2,0,0,1,3,0	82.0	8.0	0.779	0,0,0,0,0,0,1,2,3	to_board	s649
149.669	1.0	0	PA_with_intermediate	n/a	test	ward_and_allport	n/a	-1.0	8.0	n/a	n/a	feedback	s649
150.669	1.136	0	PA_with_intermediate	n/a	test	ward_and_allport	n/a	-1.0	8.0	n/a	n/a	ITI	s649
151.809	3.133	1	PA_with_intermediate	1,2,0,0,0,0,0,0,0	test	ward_and_allport	1,0,0,2,3,0,0,0,0	89.0	9.0	3.133	1,2,3,0,0,0,0,0,0	to_hand	s649
154.944	0.349	0	PA_with_intermediate	1,2,0,0,0,0,3,0,0	test	ward_and_allport	1,0,0,2,3,0,0,0,0	82.0	9.0	0.349	1,2,3,0,0,0,0,0,0	to_board	s649
155.296	1.092	0	PA_with_intermediate	1,0,0,0,0,0,3,0,0	test	ward_and_allport	1,0,0,2,3,0,0,0,0	89.0	9.0	1.092	1,2,3,0,0,0,0,0,0	to_hand	s649
156.389	0.447	0	PA_with_intermediate	1,0,0,2,0,0,3,0,0	test	ward_and_allport	1,0,0,2,3,0,0,0,0	71.0	9.0	0.447	1,2,3,0,0,0,0,0,0	to_board	s649
156.841	0.451	0	PA_with_intermediate	1,0,0,2,0,0,0,0,0	test	ward_and_allport	1,0,0,2,3,0,0,0,0	82.0	9.0	0.451	1,2,3,0,0,0,0,0,0	to_hand	s649
157.293	0.423	0	PA_with_intermediate	1,0,0,2,3,0,0,0,0	test	ward_and_allport	1,0,0,2,3,0,0,0,0	71.0	9.0	0.423	1,2,3,0,0,0,0,0,0	to_board	s649
157.722	1.0	0	PA_with_intermediate	n/a	test	ward_and_allport	n/a	-1.0	9.0	n/a	n/a	feedback	s649
158.722	1.0	0	PA_with_intermediate	n/a	test	ward_and_allport	n/a	-1.0	9.0	n/a	n/a	ITI	s649
159.727	2.972	1	PA_with_intermediate	0,0,0,1,2,0,0,0,0	test	ward_and_allport	0,0,0,1,0,0,2,3,0	71.0	10.0	2.972	0,0,0,1,2,3,0,0,0	to_hand	s649
162.7	0.31	0	PA_with_intermediate	3,0,0,1,2,0,0,0,0	test	ward_and_allport	0,0,0,1,0,0,2,3,0	89.0	10.0	0.31	0,0,0,1,2,3,0,0,0	to_board	s649
163.014	0.742	0	PA_with_intermediate	3,0,0,1,0,0,0,0,0	test	ward_and_allport	0,0,0,1,0,0,2,3,0	71.0	10.0	0.742	0,0,0,1,2,3,0,0,0	to_hand	s649
163.757	0.326	0	PA_with_intermediate	3,0,0,1,0,0,2,0,0	test	ward_and_allport	0,0,0,1,0,0,2,3,0	82.0	10.0	0.326	0,0,0,1,2,3,0,0,0	to_board	s649
164.087	1.053	0	PA_with_intermediate	0,0,0,1,0,0,2,0,0	test	ward_and_allport	0,0,0,1,0,0,2,3,0	89.0	10.0	1.053	0,0,0,1,2,3,0,0,0	to_hand	s649
165.14	0.33	0	PA_with_intermediate	0,0,0,1,0,0,2,3,0	test	ward_and_allport	0,0,0,1,0,0,2,3,0	82.0	10.0	0.33	0,0,0,1,2,3,0,0,0	to_board	s649
165.476	1.0	0	PA_with_intermediate	n/a	test	ward_and_allport	n/a	-1.0	10.0	n/a	n/a	feedback	s649
166.476	1.0	0	PA_with_intermediate	n/a	test	ward_and_allport	n/a	-1.0	10.0	n/a	n/a	ITI	s649
167.48	2.759	1	PA_without_intermediate	0,0,0,0,0,0,1,2,0	test	ward_and_allport	2,0,0,3,1,0,0,0,0	82.0	11.0	2.759	0,0,0,0,0,0,1,2,3	to_hand	s649
170.241	0.379	0	PA_without_intermediate	0,0,0,3,0,0,1,2,0	test	ward_and_allport	2,0,0,3,1,0,0,0,0	71.0	11.0	0.379	0,0,0,0,0,0,1,2,3	to_board	s649
170.625	1.466	0	PA_without_intermediate	0,0,0,3,0,0,1,0,0	test	ward_and_allport	2,0,0,3,1,0,0,0,0	82.0	11.0	1.466	0,0,0,0,0,0,1,2,3	to_hand	s649
172.093	0.424	0	PA_without_intermediate	2,0,0,3,0,0,1,0,0	test	ward_and_allport	2,0,0,3,1,0,0,0,0	89.0	11.0	0.424	0,0,0,0,0,0,1,2,3	to_board	s649
172.522	1.864	0	PA_without_intermediate	2,0,0,3,0,0,0,0,0	test	ward_and_allport	2,0,0,3,1,0,0,0,0	82.0	11.0	1.864	0,0,0,0,0,0,1,2,3	to_hand	s649
174.388	0.341	0	PA_without_intermediate	2,0,0,3,1,0,0,0,0	test	ward_and_allport	2,0,0,3,1,0,0,0,0	71.0	11.0	0.341	0,0,0,0,0,0,1,2,3	to_board	s649
174.735	1.0	0	PA_without_intermediate	n/a	test	ward_and_allport	n/a	-1.0	11.0	n/a	n/a	feedback	s649
175.735	1.408	0	PA_without_intermediate	n/a	test	ward_and_allport	n/a	-1.0	11.0	n/a	n/a	ITI	s649
177.149	3.201	1	PA_with_intermediate	0,0,0,1,2,0,0,0,0	test	ward_and_allport	2,3,0,1,0,0,0,0,0	71.0	12.0	3.201	0,0,0,1,2,3,0,0,0	to_hand	s649
180.352	2.198	0	PA_with_intermediate	0,0,0,1,2,0,3,0,0	test	ward_and_allport	2,3,0,1,0,0,0,0,0	82.0	12.0	2.198	0,0,0,1,2,3,0,0,0	to_board	s649
182.555	1.058	0	PA_with_intermediate	0,0,0,1,0,0,3,0,0	test	ward_and_allport	2,3,0,1,0,0,0,0,0	71.0	12.0	1.058	0,0,0,1,2,3,0,0,0	to_hand	s649
183.614	0.334	0	PA_with_intermediate	2,0,0,1,0,0,3,0,0	test	ward_and_allport	2,3,0,1,0,0,0,0,0	89.0	12.0	0.334	0,0,0,1,2,3,0,0,0	to_board	s649
183.952	0.407	0	PA_with_intermediate	2,0,0,1,0,0,0,0,0	test	ward_and_allport	2,3,0,1,0,0,0,0,0	82.0	12.0	0.407	0,0,0,1,2,3,0,0,0	to_hand	s649
184.361	0.353	0	PA_with_intermediate	2,3,0,1,0,0,0,0,0	test	ward_and_allport	2,3,0,1,0,0,0,0,0	89.0	12.0	0.353	0,0,0,1,2,3,0,0,0	to_board	s649
184.719	1.0	0	PA_with_intermediate	n/a	test	ward_and_allport	n/a	-1.0	12.0	n/a	n/a	feedback	s649
185.719	2.768	0	PA_with_intermediate	n/a	test	ward_and_allport	n/a	-1.0	12.0	n/a	n/a	ITI	s649
188.491	2.637	1	PA_with_intermediate	1,2,0,0,0,0,0,0,0	test	ward_and_allport	1,3,0,2,0,0,0,0,0	89.0	13.0	2.637	1,2,3,0,0,0,0,0,0	to_hand	s649
191.13	0.489	0	PA_with_intermediate	1,2,0,0,0,0,3,0,0	test	ward_and_allport	1,3,0,2,0,0,0,0,0	82.0	13.0	0.489	1,2,3,0,0,0,0,0,0	to_board	s649
191.622	1.073	0	PA_with_intermediate	1,0,0,0,0,0,3,0,0	test	ward_and_allport	1,3,0,2,0,0,0,0,0	89.0	13.0	1.073	1,2,3,0,0,0,0,0,0	to_hand	s649
192.696	0.407	0	PA_with_intermediate	1,0,0,2,0,0,3,0,0	test	ward_and_allport	1,3,0,2,0,0,0,0,0	71.0	13.0	0.407	1,2,3,0,0,0,0,0,0	to_board	s649
193.107	2.463	0	PA_with_intermediate	1,0,0,2,0,0,0,0,0	test	ward_and_allport	1,3,0,2,0,0,0,0,0	82.0	13.0	2.463	1,2,3,0,0,0,0,0,0	to_hand	s649
195.571	0.304	0	PA_with_intermediate	1,3,0,2,0,0,0,0,0	test	ward_and_allport	1,3,0,2,0,0,0,0,0	89.0	13.0	0.304	1,2,3,0,0,0,0,0,0	to_board	s649
195.879	1.0	0	PA_with_intermediate	n/a	test	ward_and_allport	n/a	-1.0	13.0	n/a	n/a	feedback	s649
196.879	1.68	0	PA_with_intermediate	n/a	test	ward_and_allport	n/a	-1.0	13.0	n/a	n/a	ITI	s649
198.565	3.324	1	PA_without_intermediate	0,0,0,0,0,0,1,2,0	test	ward_and_allport	2,0,0,3,1,0,0,0,0	82.0	14.0	3.324	0,0,0,0,0,0,1,2,3	to_hand	s649
201.89	0.486	0	PA_without_intermediate	3,0,0,0,0,0,1,2,0	test	ward_and_allport	2,0,0,3,1,0,0,0,0	89.0	14.0	0.486	0,0,0,0,0,0,1,2,3	to_board	s649
202.38	1.516	0	PA_without_intermediate	0,0,0,0,0,0,1,2,0	test	ward_and_allport	2,0,0,3,1,0,0,0,0	89.0	14.0	1.516	0,0,0,0,0,0,1,2,3	to_hand	s649
203.896	0.376	0	PA_without_intermediate	0,0,0,3,0,0,1,2,0	test	ward_and_allport	2,0,0,3,1,0,0,0,0	71.0	14.0	0.376	0,0,0,0,0,0,1,2,3	to_board	s649
204.28	1.371	0	PA_without_intermediate	0,0,0,3,0,0,1,0,0	test	ward_and_allport	2,0,0,3,1,0,0,0,0	82.0	14.0	1.371	0,0,0,0,0,0,1,2,3	to_hand	s649
205.652	0.615	0	PA_without_intermediate	2,0,0,3,0,0,1,0,0	test	ward_and_allport	2,0,0,3,1,0,0,0,0	89.0	14.0	0.615	0,0,0,0,0,0,1,2,3	to_board	s649
206.271	1.504	0	PA_without_intermediate	2,0,0,3,0,0,0,0,0	test	ward_and_allport	2,0,0,3,1,0,0,0,0	82.0	14.0	1.504	0,0,0,0,0,0,1,2,3	to_hand	s649
207.776	0.367	0	PA_without_intermediate	2,0,0,3,1,0,0,0,0	test	ward_and_allport	2,0,0,3,1,0,0,0,0	71.0	14.0	0.367	0,0,0,0,0,0,1,2,3	to_board	s649
208.148	1.0	0	PA_without_intermediate	n/a	test	ward_and_allport	n/a	-1.0	14.0	n/a	n/a	feedback	s649
209.148	2.224	0	PA_without_intermediate	n/a	test	ward_and_allport	n/a	-1.0	14.0	n/a	n/a	ITI	s649
216.38	3.155	1	PA_without_intermediate	0,0,0,1,2,0,0,0,0	test	ward_and_allport	2,0,0,0,0,0,3,1,0	71.0	15.0	3.155	0,0,0,1,2,3,0,0,0	to_hand	s649
219.536	0.422	0	PA_without_intermediate	0,0,0,1,2,0,3,0,0	test	ward_and_allport	2,0,0,0,0,0,3,1,0	82.0	15.0	0.422	0,0,0,1,2,3,0,0,0	to_board	s649
219.962	1.195	0	PA_without_intermediate	0,0,0,1,0,0,3,0,0	test	ward_and_allport	2,0,0,0,0,0,3,1,0	71.0	15.0	1.195	0,0,0,1,2,3,0,0,0	to_hand	s649
221.158	0.24	0	PA_without_intermediate	2,0,0,1,0,0,3,0,0	test	ward_and_allport	2,0,0,0,0,0,3,1,0	89.0	15.0	0.24	0,0,0,1,2,3,0,0,0	to_board	s649
221.404	1.254	0	PA_without_intermediate	2,0,0,0,0,0,3,0,0	test	ward_and_allport	2,0,0,0,0,0,3,1,0	71.0	15.0	1.254	0,0,0,1,2,3,0,0,0	to_hand	s649
222.658	0.291	0	PA_without_intermediate	2,0,0,0,0,0,3,1,0	test	ward_and_allport	2,0,0,0,0,0,3,1,0	82.0	15.0	0.291	0,0,0,1,2,3,0,0,0	to_board	s649
222.955	1.0	0	PA_without_intermediate	n/a	test	ward_and_allport	n/a	-1.0	15.0	n/a	n/a	feedback	s649
223.955	2.36	0	PA_without_intermediate	n/a	test	ward_and_allport	n/a	-1.0	15.0	n/a	n/a	ITI	s649
226.32	2.459	1	PA_without_intermediate	0,0,0,1,2,0,0,0,0	test	ward_and_allport	1,0,0,0,0,0,3,2,0	71.0	16.0	2.459	0,0,0,1,2,3,0,0,0	to_hand	s649
228.779	0.412	0	PA_without_intermediate	0,0,0,1,2,0,3,0,0	test	ward_and_allport	1,0,0,0,0,0,3,2,0	82.0	16.0	0.412	0,0,0,1,2,3,0,0,0	to_board	s649
229.196	0.744	0	PA_without_intermediate	0,0,0,1,0,0,3,0,0	test	ward_and_allport	1,0,0,0,0,0,3,2,0	71.0	16.0	0.744	0,0,0,1,2,3,0,0,0	to_hand	s649
229.941	0.341	0	PA_without_intermediate	0,0,0,1,0,0,3,2,0	test	ward_and_allport	1,0,0,0,0,0,3,2,0	82.0	16.0	0.341	0,0,0,1,2,3,0,0,0	to_board	s649
230.287	1.302	0	PA_without_intermediate	0,0,0,0,0,0,3,2,0	test	ward_and_allport	1,0,0,0,0,0,3,2,0	71.0	16.0	1.302	0,0,0,1,2,3,0,0,0	to_hand	s649
231.59	0.276	0	PA_without_intermediate	1,0,0,0,0,0,3,2,0	test	ward_and_allport	1,0,0,0,0,0,3,2,0	89.0	16.0	0.276	0,0,0,1,2,3,0,0,0	to_board	s649
231.871	1.0	0	PA_without_intermediate	n/a	test	ward_and_allport	n/a	-1.0	16.0	n/a	n/a	feedback	s649
232.871	1.0	0	PA_without_intermediate	n/a	test	ward_and_allport	n/a	-1.0	16.0	n/a	n/a	ITI	s649
233.877	2.329	1	PA_without_intermediate	0,0,0,0,0,0,1,2,0	test	ward_and_allport	1,0,0,3,2,0,0,0,0	82.0	17.0	2.329	0,0,0,0,0,0,1,2,3	to_hand	s649
236.206	0.765	0	PA_without_intermediate	0,0,0,3,0,0,1,2,0	test	ward_and_allport	1,0,0,3,2,0,0,0,0	71.0	17.0	0.765	0,0,0,0,0,0,1,2,3	to_board	s649
236.976	0.546	0	PA_without_intermediate	0,0,0,3,0,0,1,0,0	test	ward_and_allport	1,0,0,3,2,0,0,0,0	82.0	17.0	0.546	0,0,0,0,0,0,1,2,3	to_hand	s649
237.523	0.42	0	PA_without_intermediate	0,0,0,3,2,0,1,0,0	test	ward_and_allport	1,0,0,3,2,0,0,0,0	71.0	17.0	0.42	0,0,0,0,0,0,1,2,3	to_board	s649
237.948	0.595	0	PA_without_intermediate	0,0,0,3,2,0,0,0,0	test	ward_and_allport	1,0,0,3,2,0,0,0,0	82.0	17.0	0.595	0,0,0,0,0,0,1,2,3	to_hand	s649
238.545	0.511	0	PA_without_intermediate	1,0,0,3,2,0,0,0,0	test	ward_and_allport	1,0,0,3,2,0,0,0,0	89.0	17.0	0.511	0,0,0,0,0,0,1,2,3	to_board	s649
239.062	1.0	0	PA_without_intermediate	n/a	test	ward_and_allport	n/a	-1.0	17.0	n/a	n/a	feedback	s649
240.062	1.408	0	PA_without_intermediate	n/a	test	ward_and_allport	n/a	-1.0	17.0	n/a	n/a	ITI	s649
241.477	1.933	1	PA_with_intermediate	1,2,0,0,0,0,0,0,0	test	ward_and_allport	1,3,0,0,0,0,2,0,0	89.0	18.0	1.933	1,2,3,0,0,0,0,0,0	to_hand	s649
243.412	2.024	0	PA_with_intermediate	1,2,0,3,0,0,0,0,0	test	ward_and_allport	1,3,0,0,0,0,2,0,0	71.0	18.0	2.024	1,2,3,0,0,0,0,0,0	to_board	s649
245.441	0.521	0	PA_with_intermediate	1,0,0,3,0,0,0,0,0	test	ward_and_allport	1,3,0,0,0,0,2,0,0	89.0	18.0	0.521	1,2,3,0,0,0,0,0,0	to_hand	s649
245.964	0.341	0	PA_with_intermediate	1,0,0,3,0,0,2,0,0	test	ward_and_allport	1,3,0,0,0,0,2,0,0	82.0	18.0	0.341	1,2,3,0,0,0,0,0,0	to_board	s649
246.311	0.506	0	PA_with_intermediate	1,0,0,0,0,0,2,0,0	test	ward_and_allport	1,3,0,0,0,0,2,0,0	71.0	18.0	0.506	1,2,3,0,0,0,0,0,0	to_hand	s649
246.819	0.388	0	PA_with_intermediate	1,3,0,0,0,0,2,0,0	test	ward_and_allport	1,3,0,0,0,0,2,0,0	89.0	18.0	0.388	1,2,3,0,0,0,0,0,0	to_board	s649
247.214	1.0	0	PA_with_intermediate	n/a	test	ward_and_allport	n/a	-1.0	18.0	n/a	n/a	feedback	s649
248.214	1.136	0	PA_with_intermediate	n/a	test	ward_and_allport	n/a	-1.0	18.0	n/a	n/a	ITI	s649
249.355	2.71	1	PA_without_intermediate	0,0,0,0,0,0,1,2,0	test	ward_and_allport	3,2,0,1,0,0,0,0,0	82.0	19.0	2.71	0,0,0,0,0,0,1,2,3	to_hand	s649
252.066	0.311	0	PA_without_intermediate	3,0,0,0,0,0,1,2,0	test	ward_and_allport	3,2,0,1,0,0,0,0,0	89.0	19.0	0.311	0,0,0,0,0,0,1,2,3	to_board	s649
252.383	0.776	0	PA_without_intermediate	3,0,0,0,0,0,1,0,0	test	ward_and_allport	3,2,0,1,0,0,0,0,0	82.0	19.0	0.776	0,0,0,0,0,0,1,2,3	to_hand	s649
253.161	0.351	0	PA_without_intermediate	3,0,0,2,0,0,1,0,0	test	ward_and_allport	3,2,0,1,0,0,0,0,0	71.0	19.0	0.351	0,0,0,0,0,0,1,2,3	to_board	s649
253.518	1.461	0	PA_without_intermediate	3,0,0,0,0,0,1,0,0	test	ward_and_allport	3,2,0,1,0,0,0,0,0	71.0	19.0	1.461	0,0,0,0,0,0,1,2,3	to_hand	s649
254.98	0.311	0	PA_without_intermediate	3,2,0,0,0,0,1,0,0	test	ward_and_allport	3,2,0,1,0,0,0,0,0	89.0	19.0	0.311	0,0,0,0,0,0,1,2,3	to_board	s649
255.297	1.755	0	PA_without_intermediate	3,2,0,0,0,0,0,0,0	test	ward_and_allport	3,2,0,1,0,0,0,0,0	82.0	19.0	1.755	0,0,0,0,0,0,1,2,3	to_hand	s649
257.052	0.283	0	PA_without_intermediate	3,2,0,1,0,0,0,0,0	test	ward_and_allport	3,2,0,1,0,0,0,0,0	71.0	19.0	0.283	0,0,0,0,0,0,1,2,3	to_board	s649
257.343	1.0	0	PA_without_intermediate	n/a	test	ward_and_allport	n/a	-1.0	19.0	n/a	n/a	feedback	s649
258.343	4.128	0	PA_without_intermediate	n/a	test	ward_and_allport	n/a	-1.0	19.0	n/a	n/a	ITI	s649
262.478	3.232	1	PA_without_intermediate	1,2,0,0,0,0,0,0,0	test	ward_and_allport	0,0,0,1,0,0,3,2,0	89.0	20.0	3.232	1,2,3,0,0,0,0,0,0	to_hand	s649
265.712	0.35	0	PA_without_intermediate	1,2,0,0,0,0,3,0,0	test	ward_and_allport	0,0,0,1,0,0,3,2,0	82.0	20.0	0.35	1,2,3,0,0,0,0,0,0	to_board	s649
266.068	0.753	0	PA_without_intermediate	1,0,0,0,0,0,3,0,0	test	ward_and_allport	0,0,0,1,0,0,3,2,0	89.0	20.0	0.753	1,2,3,0,0,0,0,0,0	to_hand	s649
266.822	0.751	0	PA_without_intermediate	1,0,0,0,0,0,3,2,0	test	ward_and_allport	0,0,0,1,0,0,3,2,0	82.0	20.0	0.751	1,2,3,0,0,0,0,0,0	to_board	s649
267.58	0.858	0	PA_without_intermediate	0,0,0,0,0,0,3,2,0	test	ward_and_allport	0,0,0,1,0,0,3,2,0	89.0	20.0	0.858	1,2,3,0,0,0,0,0,0	to_hand	s649
268.44	0.274	0	PA_without_intermediate	0,0,0,1,0,0,3,2,0	test	ward_and_allport	0,0,0,1,0,0,3,2,0	71.0	20.0	0.274	1,2,3,0,0,0,0,0,0	to_board	s649
268.722	1.0	0	PA_without_intermediate	n/a	test	ward_and_allport	n/a	-1.0	20.0	n/a	n/a	feedback	s649
269.722	1.136	0	PA_without_intermediate	n/a	test	ward_and_allport	n/a	-1.0	20.0	n/a	n/a	ITI	s649
270.865	3.991	1	PA_without_intermediate	1,2,0,0,0,0,0,0,0	test	ward_and_allport	0,0,0,2,0,0,3,1,0	89.0	21.0	3.991	1,2,3,0,0,0,0,0,0	to_hand	s649
274.858	0.318	0	PA_without_intermediate	1,2,0,0,0,0,3,0,0	test	ward_and_allport	0,0,0,2,0,0,3,1,0	82.0	21.0	0.318	1,2,3,0,0,0,0,0,0	to_board	s649
275.182	1.341	0	PA_without_intermediate	1,0,0,0,0,0,3,0,0	test	ward_and_allport	0,0,0,2,0,0,3,1,0	89.0	21.0	1.341	1,2,3,0,0,0,0,0,0	to_hand	s649
276.525	0.381	0	PA_without_intermediate	1,0,0,2,0,0,3,0,0	test	ward_and_allport	0,0,0,2,0,0,3,1,0	71.0	21.0	0.381	1,2,3,0,0,0,0,0,0	to_board	s649
276.912	1.303	0	PA_without_intermediate	0,0,0,2,0,0,3,0,0	test	ward_and_allport	0,0,0,2,0,0,3,1,0	89.0	21.0	1.303	1,2,3,0,0,0,0,0,0	to_hand	s649
278.216	0.313	0	PA_without_intermediate	0,0,0,2,0,0,3,1,0	test	ward_and_allport	0,0,0,2,0,0,3,1,0	82.0	21.0	0.313	1,2,3,0,0,0,0,0,0	to_board	s649
278.537	1.0	0	PA_without_intermediate	n/a	test	ward_and_allport	n/a	-1.0	21.0	n/a	n/a	feedback	s649
279.537	4.264	0	PA_without_intermediate	n/a	test	ward_and_allport	n/a	-1.0	21.0	n/a	n/a	ITI	s649
283.808	4.412	1	PA_with_intermediate	0,0,0,1,2,0,0,0,0	test	ward_and_allport	2,0,0,1,3,0,0,0,0	71.0	22.0	4.412	0,0,0,1,2,3,0,0,0	to_hand	s649
288.221	1.737	0	PA_with_intermediate	0,0,0,1,2,0,3,0,0	test	ward_and_allport	2,0,0,1,3,0,0,0,0	82.0	22.0	1.737	0,0,0,1,2,3,0,0,0	to_board	s649
289.965	0.639	0	PA_with_intermediate	0,0,0,1,0,0,3,0,0	test	ward_and_allport	2,0,0,1,3,0,0,0,0	71.0	22.0	0.639	0,0,0,1,2,3,0,0,0	to_hand	s649
290.606	0.225	0	PA_with_intermediate	2,0,0,1,0,0,3,0,0	test	ward_and_allport	2,0,0,1,3,0,0,0,0	89.0	22.0	0.225	0,0,0,1,2,3,0,0,0	to_board	s649
290.837	0.62	0	PA_with_intermediate	2,0,0,1,0,0,0,0,0	test	ward_and_allport	2,0,0,1,3,0,0,0,0	82.0	22.0	0.62	0,0,0,1,2,3,0,0,0	to_hand	s649
291.457	0.251	0	PA_with_intermediate	2,0,0,1,3,0,0,0,0	test	ward_and_allport	2,0,0,1,3,0,0,0,0	71.0	22.0	0.251	0,0,0,1,2,3,0,0,0	to_board	s649
291.716	1.0	0	PA_with_intermediate	n/a	test	ward_and_allport	n/a	-1.0	22.0	n/a	n/a	feedback	s649
292.716	3.04	0	PA_with_intermediate	n/a	test	ward_and_allport	n/a	-1.0	22.0	n/a	n/a	ITI	s649
295.763	2.824	1	PA_with_intermediate	1,2,0,0,0,0,0,0,0	test	ward_and_allport	1,0,0,2,3,0,0,0,0	89.0	23.0	2.824	1,2,3,0,0,0,0,0,0	to_hand	s649
298.588	0.273	0	PA_with_intermediate	1,2,0,0,0,0,3,0,0	test	ward_and_allport	1,0,0,2,3,0,0,0,0	82.0	23.0	0.273	1,2,3,0,0,0,0,0,0	to_board	s649
298.867	0.769	0	PA_with_intermediate	1,0,0,0,0,0,3,0,0	test	ward_and_allport	1,0,0,2,3,0,0,0,0	89.0	23.0	0.769	1,2,3,0,0,0,0,0,0	to_hand	s649
299.638	0.371	0	PA_with_intermediate	1,0,0,2,0,0,3,0,0	test	ward_and_allport	1,0,0,2,3,0,0,0,0	71.0	23.0	0.371	1,2,3,0,0,0,0,0,0	to_board	s649
300.015	0.664	0	PA_with_intermediate	1,0,0,2,0,0,0,0,0	test	ward_and_allport	1,0,0,2,3,0,0,0,0	82.0	23.0	0.664	1,2,3,0,0,0,0,0,0	to_hand	s649
300.681	0.54	0	PA_with_intermediate	1,0,0,2,3,0,0,0,0	test	ward_and_allport	1,0,0,2,3,0,0,0,0	71.0	23.0	0.54	1,2,3,0,0,0,0,0,0	to_board	s649
301.228	1.0	0	PA_with_intermediate	n/a	test	ward_and_allport	n/a	-1.0	23.0	n/a	n/a	feedback	s649
302.228	1.136	0	PA_with_intermediate	n/a	test	ward_and_allport	n/a	-1.0	23.0	n/a	n/a	ITI	s649
303.372	3.67	1	PA_with_intermediate	0,0,0,0,0,0,1,2,0	test	ward_and_allport	2,0,0,0,0,0,1,3,0	82.0	24.0	3.67	0,0,0,0,0,0,1,2,3	to_hand	s649
307.043	1.178	0	PA_with_intermediate	0,0,0,3,0,0,1,2,0	test	ward_and_allport	2,0,0,0,0,0,1,3,0	71.0	24.0	1.178	0,0,0,0,0,0,1,2,3	to_board	s649
308.228	0.72	0	PA_with_intermediate	0,0,0,3,0,0,1,0,0	test	ward_and_allport	2,0,0,0,0,0,1,3,0	82.0	24.0	0.72	0,0,0,0,0,0,1,2,3	to_hand	s649
308.95	0.279	0	PA_with_intermediate	2,0,0,3,0,0,1,0,0	test	ward_and_allport	2,0,0,0,0,0,1,3,0	89.0	24.0	0.279	0,0,0,0,0,0,1,2,3	to_board	s649
309.236	0.376	0	PA_with_intermediate	2,0,0,0,0,0,1,0,0	test	ward_and_allport	2,0,0,0,0,0,1,3,0	71.0	24.0	0.376	0,0,0,0,0,0,1,2,3	to_hand	s649
309.614	0.331	0	PA_with_intermediate	2,0,0,0,0,0,1,3,0	test	ward_and_allport	2,0,0,0,0,0,1,3,0	82.0	24.0	0.331	0,0,0,0,0,0,1,2,3	to_board	s649
309.953	1.0	0	PA_with_intermediate	n/a	test	ward_and_allport	n/a	-1.0	24.0	n/a	n/a	feedback	s649
310.953	1.408	0	PA_with_intermediate	n/a	test	ward_and_allport	n/a	-1.0	24.0	n/a	n/a	ITI	s649
312.369	2.015	1	PA_without_intermediate	0,0,0,0,0,0,1,2,0	test	ward_and_allport	3,1,0,2,0,0,0,0,0	82.0	25.0	2.015	0,0,0,0,0,0,1,2,3	to_hand	s649
314.386	1.283	0	PA_without_intermediate	0,0,0,3,0,0,1,2,0	test	ward_and_allport	3,1,0,2,0,0,0,0,0	71.0	25.0	1.283	0,0,0,0,0,0,1,2,3	to_board	s649
315.675	2.662	0	PA_without_intermediate	0,0,0,0,0,0,1,2,0	test	ward_and_allport	3,1,0,2,0,0,0,0,0	71.0	25.0	2.662	0,0,0,0,0,0,1,2,3	to_hand	s649
318.339	0.241	0	PA_without_intermediate	3,0,0,0,0,0,1,2,0	test	ward_and_allport	3,1,0,2,0,0,0,0,0	89.0	25.0	0.241	0,0,0,0,0,0,1,2,3	to_board	s649
318.587	1.088	0	PA_without_intermediate	3,0,0,0,0,0,1,0,0	test	ward_and_allport	3,1,0,2,0,0,0,0,0	82.0	25.0	1.088	0,0,0,0,0,0,1,2,3	to_hand	s649
319.677	0.487	0	PA_without_intermediate	3,0,0,2,0,0,1,0,0	test	ward_and_allport	3,1,0,2,0,0,0,0,0	71.0	25.0	0.487	0,0,0,0,0,0,1,2,3	to_board	s649
320.171	0.681	0	PA_without_intermediate	3,0,0,2,0,0,0,0,0	test	ward_and_allport	3,1,0,2,0,0,0,0,0	82.0	25.0	0.681	0,0,0,0,0,0,1,2,3	to_hand	s649
320.854	0.357	0	PA_without_intermediate	3,1,0,2,0,0,0,0,0	test	ward_and_allport	3,1,0,2,0,0,0,0,0	89.0	25.0	0.357	0,0,0,0,0,0,1,2,3	to_board	s649
321.219	1.0	0	PA_without_intermediate	n/a	test	ward_and_allport	n/a	-1.0	25.0	n/a	n/a	feedback	s649
322.219	1.68	0	PA_without_intermediate	n/a	test	ward_and_allport	n/a	-1.0	25.0	n/a	n/a	ITI	s649
323.906	2.37	1	PA_with_intermediate	0,0,0,1,2,0,0,0,0	test	ward_and_allport	0,0,0,1,3,0,2,0,0	71.0	26.0	2.37	0,0,0,1,2,3,0,0,0	to_hand	s649
326.277	1.112	0	PA_with_intermediate	0,0,0,1,2,0,3,0,0	test	ward_and_allport	0,0,0,1,3,0,2,0,0	82.0	26.0	1.112	0,0,0,1,2,3,0,0,0	to_board	s649
327.397	0.411	0	PA_with_intermediate	0,0,0,1,0,0,3,0,0	test	ward_and_allport	0,0,0,1,3,0,2,0,0	71.0	26.0	0.411	0,0,0,1,2,3,0,0,0	to_hand	s649
327.808	0.277	0	PA_with_intermediate	2,0,0,1,0,0,3,0,0	test	ward_and_allport	0,0,0,1,3,0,2,0,0	89.0	26.0	0.277	0,0,0,1,2,3,0,0,0	to_board	s649
328.093	1.045	0	PA_with_intermediate	2,0,0,1,0,0,0,0,0	test	ward_and_allport	0,0,0,1,3,0,2,0,0	82.0	26.0	1.045	0,0,0,1,2,3,0,0,0	to_hand	s649
329.138	0.763	0	PA_with_intermediate	2,0,0,1,3,0,0,0,0	test	ward_and_allport	0,0,0,1,3,0,2,0,0	71.0	26.0	0.763	0,0,0,1,2,3,0,0,0	to_board	s649
329.908	1.57	0	PA_with_intermediate	0,0,0,1,3,0,0,0,0	test	ward_and_allport	0,0,0,1,3,0,2,0,0	89.0	26.0	1.57	0,0,0,1,2,3,0,0,0	to_hand	s649
331.48	0.214	0	PA_with_intermediate	0,0,0,1,3,0,2,0,0	test	ward_and_allport	0,0,0,1,3,0,2,0,0	82.0	26.0	0.214	0,0,0,1,2,3,0,0,0	to_board	s649
331.703	1.0	0	PA_with_intermediate	n/a	test	ward_and_allport	n/a	-1.0	26.0	n/a	n/a	feedback	s649
332.703	3.72	0	PA_with_intermediate	n/a	test	ward_and_allport	n/a	-1.0	26.0	n/a	n/a	ITI	s649
336.432	1.652	1	PA_without_intermediate	0,0,0,1,2,0,0,0,0	test	ward_and_allport	3,1,0,0,0,0,2,0,0	71.0	27.0	1.652	0,0,0,1,2,3,0,0,0	to_hand	s649
338.086	0.875	0	PA_without_intermediate	3,0,0,1,2,0,0,0,0	test	ward_and_allport	3,1,0,0,0,0,2,0,0	89.0	27.0	0.875	0,0,0,1,2,3,0,0,0	to_board	s649
338.968	1.075	0	PA_without_intermediate	3,0,0,1,0,0,0,0,0	test	ward_and_allport	3,1,0,0,0,0,2,0,0	71.0	27.0	1.075	0,0,0,1,2,3,0,0,0	to_hand	s649
340.044	0.333	0	PA_without_intermediate	3,0,0,1,0,0,2,0,0	test	ward_and_allport	3,1,0,0,0,0,2,0,0	82.0	27.0	0.333	0,0,0,1,2,3,0,0,0	to_board	s649
340.385	0.331	0	PA_without_intermediate	3,0,0,0,0,0,2,0,0	test	ward_and_allport	3,1,0,0,0,0,2,0,0	71.0	27.0	0.331	0,0,0,1,2,3,0,0,0	to_hand	s649
340.718	0.224	0	PA_without_intermediate	3,1,0,0,0,0,2,0,0	test	ward_and_allport	3,1,0,0,0,0,2,0,0	89.0	27.0	0.224	0,0,0,1,2,3,0,0,0	to_board	s649
340.951	1.0	0	PA_without_intermediate	n/a	test	ward_and_allport	n/a	-1.0	27.0	n/a	n/a	feedback	s649
341.951	2.224	0	PA_without_intermediate	n/a	test	ward_and_allport	n/a	-1.0	27.0	n/a	n/a	ITI	s649
344.184	2.411	1	PA_without_intermediate	1,2,0,0,0,0,0,0,0	test	ward_and_allport	0,0,0,3,2,0,1,0,0	89.0	28.0	2.411	1,2,3,0,0,0,0,0,0	to_hand	s649
346.596	0.264	0	PA_without_intermediate	1,2,0,3,0,0,0,0,0	test	ward_and_allport	0,0,0,3,2,0,1,0,0	71.0	28.0	0.264	1,2,3,0,0,0,0,0,0	to_board	s649
346.868	0.592	0	PA_without_intermediate	1,0,0,3,0,0,0,0,0	test	ward_and_allport	0,0,0,3,2,0,1,0,0	89.0	28.0	0.592	1,2,3,0,0,0,0,0,0	to_hand	s649
347.462	0.255	0	PA_without_intermediate	1,0,0,3,2,0,0,0,0	test	ward_and_allport	0,0,0,3,2,0,1,0,0	71.0	28.0	0.255	1,2,3,0,0,0,0,0,0	to_board	s649
347.725	0.915	0	PA_without_intermediate	0,0,0,3,2,0,0,0,0	test	ward_and_allport	0,0,0,3,2,0,1,0,0	89.0	28.0	0.915	1,2,3,0,0,0,0,0,0	to_hand	s649
348.641	0.371	0	PA_without_intermediate	0,0,0,3,2,0,1,0,0	test	ward_and_allport	0,0,0,3,2,0,1,0,0	82.0	28.0	0.371	1,2,3,0,0,0,0,0,0	to_board	s649
349.021	1.0	0	PA_without_intermediate	n/a	test	ward_and_allport	n/a	-1.0	28.0	n/a	n/a	feedback	s649
350.021	1.272	0	PA_without_intermediate	n/a	test	ward_and_allport	n/a	-1.0	28.0	n/a	n/a	ITI	s649
351.302	2.666	1	PA_with_intermediate	0,0,0,1,2,0,0,0,0	test	ward_and_allport	0,0,0,1,3,0,2,0,0	71.0	29.0	2.666	0,0,0,1,2,3,0,0,0	to_hand	s649
353.97	0.262	0	PA_with_intermediate	3,0,0,1,2,0,0,0,0	test	ward_and_allport	0,0,0,1,3,0,2,0,0	89.0	29.0	0.262	0,0,0,1,2,3,0,0,0	to_board	s649
354.24	0.344	0	PA_with_intermediate	3,0,0,1,0,0,0,0,0	test	ward_and_allport	0,0,0,1,3,0,2,0,0	71.0	29.0	0.344	0,0,0,1,2,3,0,0,0	to_hand	s649
354.586	0.301	0	PA_with_intermediate	3,0,0,1,0,0,2,0,0	test	ward_and_allport	0,0,0,1,3,0,2,0,0	82.0	29.0	0.301	0,0,0,1,2,3,0,0,0	to_board	s649
354.894	0.388	0	PA_with_intermediate	0,0,0,1,0,0,2,0,0	test	ward_and_allport	0,0,0,1,3,0,2,0,0	89.0	29.0	0.388	0,0,0,1,2,3,0,0,0	to_hand	s649
355.284	0.39	0	PA_with_intermediate	0,0,0,1,3,0,2,0,0	test	ward_and_allport	0,0,0,1,3,0,2,0,0	71.0	29.0	0.39	0,0,0,1,2,3,0,0,0	to_board	s649
355.684	1.0	0	PA_with_intermediate	n/a	test	ward_and_allport	n/a	-1.0	29.0	n/a	n/a	feedback	s649
356.684	2.632	0	PA_with_intermediate	n/a	test	ward_and_allport	n/a	-1.0	29.0	n/a	n/a	ITI	s649
364.326	2.334	1	PA_without_intermediate	1,2,0,0,0,0,0,0,0	test	ward_and_allport	0,0,0,3,1,0,2,0,0	89.0	30.0	2.334	1,2,3,0,0,0,0,0,0	to_hand	s649
366.662	0.595	0	PA_without_intermediate	1,2,0,3,0,0,0,0,0	test	ward_and_allport	0,0,0,3,1,0,2,0,0	71.0	30.0	0.595	1,2,3,0,0,0,0,0,0	to_board	s649
367.265	0.607	0	PA_without_intermediate	1,0,0,3,0,0,0,0,0	test	ward_and_allport	0,0,0,3,1,0,2,0,0	89.0	30.0	0.607	1,2,3,0,0,0,0,0,0	to_hand	s649
367.873	0.298	0	PA_without_intermediate	1,0,0,3,0,0,2,0,0	test	ward_and_allport	0,0,0,3,1,0,2,0,0	82.0	30.0	0.298	1,2,3,0,0,0,0,0,0	to_board	s649
368.179	0.819	0	PA_without_intermediate	0,0,0,3,0,0,2,0,0	test	ward_and_allport	0,0,0,3,1,0,2,0,0	89.0	30.0	0.819	1,2,3,0,0,0,0,0,0	to_hand	s649
368.999	0.364	0	PA_without_intermediate	0,0,0,3,1,0,2,0,0	test	ward_and_allport	0,0,0,3,1,0,2,0,0	71.0	30.0	0.364	1,2,3,0,0,0,0,0,0	to_board	s649
369.372	1.0	0	PA_without_intermediate	n/a	test	ward_and_allport	n/a	-1.0	30.0	n/a	n/a	feedback	s649
370.372	1.408	0	PA_without_intermediate	n/a	test	ward_and_allport	n/a	-1.0	30.0	n/a	n/a	ITI	s649
371.79	1.492	1	PA_without_intermediate	0,0,0,0,0,0,1,2,0	test	ward_and_allport	3,2,0,1,0,0,0,0,0	82.0	31.0	1.492	0,0,0,0,0,0,1,2,3	to_hand	s649
373.283	0.308	0	PA_without_intermediate	3,0,0,0,0,0,1,2,0	test	ward_and_allport	3,2,0,1,0,0,0,0,0	89.0	31.0	0.308	0,0,0,0,0,0,1,2,3	to_board	s649
373.6	0.687	0	PA_without_intermediate	3,0,0,0,0,0,1,0,0	test	ward_and_allport	3,2,0,1,0,0,0,0,0	82.0	31.0	0.687	0,0,0,0,0,0,1,2,3	to_hand	s649
374.289	0.262	0	PA_without_intermediate	3,2,0,0,0,0,1,0,0	test	ward_and_allport	3,2,0,1,0,0,0,0,0	89.0	31.0	0.262	0,0,0,0,0,0,1,2,3	to_board	s649
374.56	1.251	0	PA_without_intermediate	3,2,0,0,0,0,0,0,0	test	ward_and_allport	3,2,0,1,0,0,0,0,0	82.0	31.0	1.251	0,0,0,0,0,0,1,2,3	to_hand	s649
375.813	0.228	0	PA_without_intermediate	3,2,1,0,0,0,0,0,0	test	ward_and_allport	3,2,0,1,0,0,0,0,0	89.0	31.0	0.228	0,0,0,0,0,0,1,2,3	to_board	s649
376.05	0.853	0	PA_without_intermediate	3,2,0,0,0,0,0,0,0	test	ward_and_allport	3,2,0,1,0,0,0,0,0	89.0	31.0	0.853	0,0,0,0,0,0,1,2,3	to_hand	s649
376.905	0.308	0	PA_without_intermediate	3,2,0,1,0,0,0,0,0	test	ward_and_allport	3,2,0,1,0,0,0,0,0	71.0	31.0	0.308	0,0,0,0,0,0,1,2,3	to_board	s649
377.221	1.0	0	PA_without_intermediate	n/a	test	ward_and_allport	n/a	-1.0	31.0	n/a	n/a	feedback	s649
378.221	1.0	0	PA_without_intermediate	n/a	test	ward_and_allport	n/a	-1.0	31.0	n/a	n/a	ITI	s649
379.228	2.326	1	PA_with_intermediate	0,0,0,0,0,0,1,2,0	test	ward_and_allport	0,0,0,2,0,0,1,3,0	82.0	32.0	2.326	0,0,0,0,0,0,1,2,3	to_hand	s649
381.554	0.393	0	PA_with_intermediate	0,0,0,3,0,0,1,2,0	test	ward_and_allport	0,0,0,2,0,0,1,3,0	71.0	32.0	0.393	0,0,0,0,0,0,1,2,3	to_board	s649
381.953	0.67	0	PA_with_intermediate	0,0,0,3,0,0,1,0,0	test	ward_and_allport	0,0,0,2,0,0,1,3,0	82.0	32.0	0.67	0,0,0,0,0,0,1,2,3	to_hand	s649
382.625	1.865	0	PA_with_intermediate	2,0,0,3,0,0,1,0,0	test	ward_and_allport	0,0,0,2,0,0,1,3,0	89.0	32.0	1.865	0,0,0,0,0,0,1,2,3	to_board	s649
384.498	0.647	0	PA_with_intermediate	2,0,0,0,0,0,1,0,0	test	ward_and_allport	0,0,0,2,0,0,1,3,0	71.0	32.0	0.647	0,0,0,0,0,0,1,2,3	to_hand	s649
385.147	0.542	0	PA_with_intermediate	2,0,0,0,0,0,1,3,0	test	ward_and_allport	0,0,0,2,0,0,1,3,0	82.0	32.0	0.542	0,0,0,0,0,0,1,2,3	to_board	s649
385.698	0.793	0	PA_with_intermediate	0,0,0,0,0,0,1,3,0	test	ward_and_allport	0,0,0,2,0,0,1,3,0	89.0	32.0	0.793	0,0,0,0,0,0,1,2,3	to_hand	s649
386.493	0.381	0	PA_with_intermediate	0,0,0,2,0,0,1,3,0	test	ward_and_allport	0,0,0,2,0,0,1,3,0	71.0	32.0	0.381	0,0,0,0,0,0,1,2,3	to_board	s649
386.885	1.0	0	PA_with_intermediate	n/a	test	ward_and_allport	n/a	-1.0	32.0	n/a	n/a	feedback	s649
387.885	1.0	0	PA_with_intermediate	n/a	test	ward_and_allport	n/a	-1.0	32.0	n/a	n/a	ITI	s649
388.894	4.185	1	PA_with_intermediate	0,0,0,1,2,0,0,0,0	test	ward_and_allport	2,0,0,1,3,0,0,0,0	71.0	33.0	4.185	0,0,0,1,2,3,0,0,0	to_hand	s649
393.081	0.265	0	PA_with_intermediate	0,0,0,1,2,0,3,0,0	test	ward_and_allport	2,0,0,1,3,0,0,0,0	82.0	33.0	0.265	0,0,0,1,2,3,0,0,0	to_board	s649
393.352	0.345	0	PA_with_intermediate	0,0,0,1,0,0,3,0,0	test	ward_and_allport	2,0,0,1,3,0,0,0,0	71.0	33.0	0.345	0,0,0,1,2,3,0,0,0	to_hand	s649
393.698	0.308	0	PA_with_intermediate	2,0,0,1,0,0,3,0,0	test	ward_and_allport	2,0,0,1,3,0,0,0,0	89.0	33.0	0.308	0,0,0,1,2,3,0,0,0	to_board	s649
394.014	1.542	0	PA_with_intermediate	2,0,0,1,0,0,0,0,0	test	ward_and_allport	2,0,0,1,3,0,0,0,0	82.0	33.0	1.542	0,0,0,1,2,3,0,0,0	to_hand	s649
395.557	0.354	0	PA_with_intermediate	2,0,0,1,3,0,0,0,0	test	ward_and_allport	2,0,0,1,3,0,0,0,0	71.0	33.0	0.354	0,0,0,1,2,3,0,0,0	to_board	s649
395.923	1.0	0	PA_with_intermediate	n/a	test	ward_and_allport	n/a	-1.0	33.0	n/a	n/a	feedback	s649
396.923	1.0	0	PA_with_intermediate	n/a	test	ward_and_allport	n/a	-1.0	33.0	n/a	n/a	ITI	s649
397.932	1.594	1	PA_with_intermediate	1,2,0,0,0,0,0,0,0	test	ward_and_allport	1,0,0,0,0,0,2,3,0	89.0	34.0	1.594	1,2,3,0,0,0,0,0,0	to_hand	s649
399.528	1.741	0	PA_with_intermediate	1,2,0,3,0,0,0,0,0	test	ward_and_allport	1,0,0,0,0,0,2,3,0	71.0	34.0	1.741	1,2,3,0,0,0,0,0,0	to_board	s649
401.278	0.344	0	PA_with_intermediate	1,0,0,3,0,0,0,0,0	test	ward_and_allport	1,0,0,0,0,0,2,3,0	89.0	34.0	0.344	1,2,3,0,0,0,0,0,0	to_hand	s649
401.623	0.407	0	PA_with_intermediate	1,0,0,3,0,0,2,0,0	test	ward_and_allport	1,0,0,0,0,0,2,3,0	82.0	34.0	0.407	1,2,3,0,0,0,0,0,0	to_board	s649
402.04	0.642	0	PA_with_intermediate	1,0,0,0,0,0,2,0,0	test	ward_and_allport	1,0,0,0,0,0,2,3,0	71.0	34.0	0.642	1,2,3,0,0,0,0,0,0	to_hand	s649
402.682	0.232	0	PA_with_intermediate	1,0,0,0,0,0,2,3,0	test	ward_and_allport	1,0,0,0,0,0,2,3,0	82.0	34.0	0.232	1,2,3,0,0,0,0,0,0	to_board	s649
402.924	1.0	0	PA_with_intermediate	n/a	test	ward_and_allport	n/a	-1.0	34.0	n/a	n/a	feedback	s649
403.924	1.408	0	PA_with_intermediate	n/a	test	ward_and_allport	n/a	-1.0	34.0	n/a	n/a	ITI	s649
405.34	1.358	1	PA_without_intermediate	0,0,0,1,2,0,0,0,0	test	ward_and_allport	2,0,0,0,0,0,3,1,0	71.0	35.0	1.358	0,0,0,1,2,3,0,0,0	to_hand	s649
406.7	0.416	0	PA_without_intermediate	0,0,0,1,2,0,3,0,0	test	ward_and_allport	2,0,0,0,0,0,3,1,0	82.0	35.0	0.416	0,0,0,1,2,3,0,0,0	to_board	s649
407.123	1.156	0	PA_without_intermediate	0,0,0,1,0,0,3,0,0	test	ward_and_allport	2,0,0,0,0,0,3,1,0	71.0	35.0	1.156	0,0,0,1,2,3,0,0,0	to_hand	s649
408.28	0.267	0	PA_without_intermediate	2,0,0,1,0,0,3,0,0	test	ward_and_allport	2,0,0,0,0,0,3,1,0	89.0	35.0	0.267	0,0,0,1,2,3,0,0,0	to_board	s649
408.554	0.433	0	PA_without_intermediate	2,0,0,0,0,0,3,0,0	test	ward_and_allport	2,0,0,0,0,0,3,1,0	71.0	35.0	0.433	0,0,0,1,2,3,0,0,0	to_hand	s649
408.988	0.305	0	PA_without_intermediate	2,0,0,0,0,0,3,1,0	test	ward_and_allport	2,0,0,0,0,0,3,1,0	82.0	35.0	0.305	0,0,0,1,2,3,0,0,0	to_board	s649
409.301	1.0	0	PA_without_intermediate	n/a	test	ward_and_allport	n/a	-1.0	35.0	n/a	n/a	feedback	s649
410.301	1.816	0	PA_without_intermediate	n/a	test	ward_and_allport	n/a	-1.0	35.0	n/a	n/a	ITI	s649
412.124	2.451	1	PA_with_intermediate	1,2,0,0,0,0,0,0,0	test	ward_and_allport	1,0,0,0,0,0,2,3,0	89.0	36.0	2.451	1,2,3,0,0,0,0,0,0	to_hand	s649
414.577	0.397	0	PA_with_intermediate	1,2,0,3,0,0,0,0,0	test	ward_and_allport	1,0,0,0,0,0,2,3,0	71.0	36.0	0.397	1,2,3,0,0,0,0,0,0	to_board	s649
414.981	0.614	0	PA_with_intermediate	1,0,0,3,0,0,0,0,0	test	ward_and_allport	1,0,0,0,0,0,2,3,0	89.0	36.0	0.614	1,2,3,0,0,0,0,0,0	to_hand	s649
415.596	0.412	0	PA_with_intermediate	1,0,0,3,0,0,2,0,0	test	ward_and_allport	1,0,0,0,0,0,2,3,0	82.0	36.0	0.412	1,2,3,0,0,0,0,0,0	to_board	s649
416.016	0.846	0	PA_with_intermediate	1,0,0,0,0,0,2,0,0	test	ward_and_allport	1,0,0,0,0,0,2,3,0	71.0	36.0	0.846	1,2,3,0,0,0,0,0,0	to_hand	s649
416.863	0.362	0	PA_with_intermediate	1,0,0,0,0,0,2,3,0	test	ward_and_allport	1,0,0,0,0,0,2,3,0	82.0	36.0	0.362	1,2,3,0,0,0,0,0,0	to_board	s649
417.235	1.0	0	PA_with_intermediate	n/a	test	ward_and_allport	n/a	-1.0	36.0	n/a	n/a	feedback	s649
418.235	3.176	0	PA_with_intermediate	n/a	test	ward_and_allport	n/a	-1.0	36.0	n/a	n/a	ITI	s649
421.418	2.884	1	PA_with_intermediate	0,0,0,0,0,0,1,2,0	test	ward_and_allport	2,3,0,0,0,0,1,0,0	82.0	37.0	2.884	0,0,0,0,0,0,1,2,3	to_hand	s649
424.304	0.347	0	PA_with_intermediate	0,0,0,3,0,0,1,2,0	test	ward_and_allport	2,3,0,0,0,0,1,0,0	71.0	37.0	0.347	0,0,0,0,0,0,1,2,3	to_board	s649
424.661	1.108	0	PA_with_intermediate	0,0,0,3,0,0,1,0,0	test	ward_and_allport	2,3,0,0,0,0,1,0,0	82.0	37.0	1.108	0,0,0,0,0,0,1,2,3	to_hand	s649
425.77	0.357	0	PA_with_intermediate	2,0,0,3,0,0,1,0,0	test	ward_and_allport	2,3,0,0,0,0,1,0,0	89.0	37.0	0.357	0,0,0,0,0,0,1,2,3	to_board	s649
426.136	0.952	0	PA_with_intermediate	2,0,0,0,0,0,1,0,0	test	ward_and_allport	2,3,0,0,0,0,1,0,0	71.0	37.0	0.952	0,0,0,0,0,0,1,2,3	to_hand	s649
427.089	0.592	0	PA_with_intermediate	2,3,0,0,0,0,1,0,0	test	ward_and_allport	2,3,0,0,0,0,1,0,0	89.0	37.0	0.592	0,0,0,0,0,0,1,2,3	to_board	s649
427.69	1.0	0	PA_with_intermediate	n/a	test	ward_and_allport	n/a	-1.0	37.0	n/a	n/a	feedback	s649
428.69	2.36	0	PA_with_intermediate	n/a	test	ward_and_allport	n/a	-1.0	37.0	n/a	n/a	ITI	s649
431.059	3.539	1	PA_with_intermediate	1,2,0,0,0,0,0,0,0	test	ward_and_allport	1,3,0,0,0,0,2,0,0	89.0	38.0	3.539	1,2,3,0,0,0,0,0,0	to_hand	s649
434.599	0.452	0	PA_with_intermediate	1,2,0,3,0,0,0,0,0	test	ward_and_allport	1,3,0,0,0,0,2,0,0	71.0	38.0	0.452	1,2,3,0,0,0,0,0,0	to_board	s649
435.057	1.29	0	PA_with_intermediate	1,0,0,3,0,0,0,0,0	test	ward_and_allport	1,3,0,0,0,0,2,0,0	89.0	38.0	1.29	1,2,3,0,0,0,0,0,0	to_hand	s649
436.349	0.339	0	PA_with_intermediate	1,0,0,3,0,0,2,0,0	test	ward_and_allport	1,3,0,0,0,0,2,0,0	82.0	38.0	0.339	1,2,3,0,0,0,0,0,0	to_board	s649
436.697	0.529	0	PA_with_intermediate	1,0,0,0,0,0,2,0,0	test	ward_and_allport	1,3,0,0,0,0,2,0,0	71.0	38.0	0.529	1,2,3,0,0,0,0,0,0	to_hand	s649
437.227	0.369	0	PA_with_intermediate	1,3,0,0,0,0,2,0,0	test	ward_and_allport	1,3,0,0,0,0,2,0,0	89.0	38.0	0.369	1,2,3,0,0,0,0,0,0	to_board	s649
437.605	1.0	0	PA_with_intermediate	n/a	test	ward_and_allport	n/a	-1.0	38.0	n/a	n/a	feedback	s649
438.605	1.0	0	PA_with_intermediate	n/a	test	ward_and_allport	n/a	-1.0	38.0	n/a	n/a	ITI	s649
439.615	1.579	1	PA_without_intermediate	1,2,0,0,0,0,0,0,0	test	ward_and_allport	0,0,0,2,0,0,3,1,0	89.0	39.0	1.579	1,2,3,0,0,0,0,0,0	to_hand	s649
441.195	0.874	0	PA_without_intermediate	1,2,0,0,0,0,3,0,0	test	ward_and_allport	0,0,0,2,0,0,3,1,0	82.0	39.0	0.874	1,2,3,0,0,0,0,0,0	to_board	s649
442.076	0.951	0	PA_without_intermediate	1,0,0,0,0,0,3,0,0	test	ward_and_allport	0,0,0,2,0,0,3,1,0	89.0	39.0	0.951	1,2,3,0,0,0,0,0,0	to_hand	s649
443.028	0.458	0	PA_without_intermediate	1,0,0,2,0,0,3,0,0	test	ward_and_allport	0,0,0,2,0,0,3,1,0	71.0	39.0	0.458	1,2,3,0,0,0,0,0,0	to_board	s649
443.493	0.338	0	PA_without_intermediate	0,0,0,2,0,0,3,0,0	test	ward_and_allport	0,0,0,2,0,0,3,1,0	89.0	39.0	0.338	1,2,3,0,0,0,0,0,0	to_hand	s649
443.832	0.464	0	PA_without_intermediate	0,0,0,2,0,0,3,1,0	test	ward_and_allport	0,0,0,2,0,0,3,1,0	82.0	39.0	0.464	1,2,3,0,0,0,0,0,0	to_board	s649
444.304	1.0	0	PA_without_intermediate	n/a	test	ward_and_allport	n/a	-1.0	39.0	n/a	n/a	feedback	s649
445.304	1.408	0	PA_without_intermediate	n/a	test	ward_and_allport	n/a	-1.0	39.0	n/a	n/a	ITI	s649
446.721	3.51	1	PA_with_intermediate	0,0,0,0,0,0,1,2,0	test	ward_and_allport	0,0,0,2,3,0,1,0,0	82.0	40.0	3.51	0,0,0,0,0,0,1,2,3	to_hand	s649
450.232	0.281	0	PA_with_intermediate	3,0,0,0,0,0,1,2,0	test	ward_and_allport	0,0,0,2,3,0,1,0,0	89.0	40.0	0.281	0,0,0,0,0,0,1,2,3	to_board	s649
450.521	2.258	0	PA_with_intermediate	3,0,0,0,0,0,1,0,0	test	ward_and_allport	0,0,0,2,3,0,1,0,0	82.0	40.0	2.258	0,0,0,0,0,0,1,2,3	to_hand	s649
452.78	0.378	0	PA_with_intermediate	3,0,0,2,0,0,1,0,0	test	ward_and_allport	0,0,0,2,3,0,1,0,0	71.0	40.0	0.378	0,0,0,0,0,0,1,2,3	to_board	s649
453.168	1.146	0	PA_with_intermediate	0,0,0,2,0,0,1,0,0	test	ward_and_allport	0,0,0,2,3,0,1,0,0	89.0	40.0	1.146	0,0,0,0,0,0,1,2,3	to_hand	s649
454.316	0.384	0	PA_with_intermediate	0,0,0,2,3,0,1,0,0	test	ward_and_allport	0,0,0,2,3,0,1,0,0	71.0	40.0	0.384	0,0,0,0,0,0,1,2,3	to_board	s649
454.712	1.0	0	PA_with_intermediate	n/a	test	ward_and_allport	n/a	-1.0	40.0	n/a	n/a	feedback	s649
455.712	1.816	0	PA_with_intermediate	n/a	test	ward_and_allport	n/a	-1.0	40.0	n/a	n/a	ITI	s649
457.539	2.034	1	PA_without_intermediate	1,2,0,0,0,0,0,0,0	test	ward_and_allport	0,0,0,3,2,0,1,0,0	89.0	41.0	2.034	1,2,3,0,0,0,0,0,0	to_hand	s649
459.574	0.388	0	PA_without_intermediate	1,2,0,3,0,0,0,0,0	test	ward_and_allport	0,0,0,3,2,0,1,0,0	71.0	41.0	0.388	1,2,3,0,0,0,0,0,0	to_board	s649
459.971	0.717	0	PA_without_intermediate	1,0,0,3,0,0,0,0,0	test	ward_and_allport	0,0,0,3,2,0,1,0,0	89.0	41.0	0.717	1,2,3,0,0,0,0,0,0	to_hand	s649
460.689	0.581	0	PA_without_intermediate	1,0,0,3,2,0,0,0,0	test	ward_and_allport	0,0,0,3,2,0,1,0,0	71.0	41.0	0.581	1,2,3,0,0,0,0,0,0	to_board	s649
461.28	0.37	0	PA_without_intermediate	0,0,0,3,2,0,0,0,0	test	ward_and_allport	0,0,0,3,2,0,1,0,0	89.0	41.0	0.37	1,2,3,0,0,0,0,0,0	to_hand	s649
461.651	0.287	0	PA_without_intermediate	0,0,0,3,2,0,1,0,0	test	ward_and_allport	0,0,0,3,2,0,1,0,0	82.0	41.0	0.287	1,2,3,0,0,0,0,0,0	to_board	s649
461.949	1.0	0	PA_without_intermediate	n/a	test	ward_and_allport	n/a	-1.0	41.0	n/a	n/a	feedback	s649
462.949	2.088	0	PA_without_intermediate	n/a	test	ward_and_allport	n/a	-1.0	41.0	n/a	n/a	ITI	s649
465.045	1.781	1	PA_without_intermediate	0,0,0,1,2,0,0,0,0	test	ward_and_allport	3,2,0,0,0,0,1,0,0	71.0	42.0	1.781	0,0,0,1,2,3,0,0,0	to_hand	s649
466.827	0.282	0	PA_without_intermediate	3,0,0,1,2,0,0,0,0	test	ward_and_allport	3,2,0,0,0,0,1,0,0	89.0	42.0	0.282	0,0,0,1,2,3,0,0,0	to_board	s649
467.121	1.03	0	PA_without_intermediate	3,0,0,1,0,0,0,0,0	test	ward_and_allport	3,2,0,0,0,0,1,0,0	71.0	42.0	1.03	0,0,0,1,2,3,0,0,0	to_hand	s649
468.151	0.254	0	PA_without_intermediate	3,2,0,1,0,0,0,0,0	test	ward_and_allport	3,2,0,0,0,0,1,0,0	89.0	42.0	0.254	0,0,0,1,2,3,0,0,0	to_board	s649
468.416	0.716	0	PA_without_intermediate	3,2,0,0,0,0,0,0,0	test	ward_and_allport	3,2,0,0,0,0,1,0,0	71.0	42.0	0.716	0,0,0,1,2,3,0,0,0	to_hand	s649
469.133	0.299	0	PA_without_intermediate	3,2,0,0,0,0,1,0,0	test	ward_and_allport	3,2,0,0,0,0,1,0,0	82.0	42.0	0.299	0,0,0,1,2,3,0,0,0	to_board	s649
469.443	1.0	0	PA_without_intermediate	n/a	test	ward_and_allport	n/a	-1.0	42.0	n/a	n/a	feedback	s649
470.443	1.136	0	PA_without_intermediate	n/a	test	ward_and_allport	n/a	-1.0	42.0	n/a	n/a	ITI	s649
471.588	2.637	1	PA_without_intermediate	1,2,0,0,0,0,0,0,0	test	ward_and_allport	0,0,0,3,1,0,2,0,0	89.0	43.0	2.637	1,2,3,0,0,0,0,0,0	to_hand	s649
474.226	0.649	0	PA_without_intermediate	1,2,0,3,0,0,0,0,0	test	ward_and_allport	0,0,0,3,1,0,2,0,0	71.0	43.0	0.649	1,2,3,0,0,0,0,0,0	to_board	s649
474.883	0.883	0	PA_without_intermediate	1,0,0,3,0,0,0,0,0	test	ward_and_allport	0,0,0,3,1,0,2,0,0	89.0	43.0	0.883	1,2,3,0,0,0,0,0,0	to_hand	s649
475.767	0.302	0	PA_without_intermediate	1,0,0,3,0,0,2,0,0	test	ward_and_allport	0,0,0,3,1,0,2,0,0	82.0	43.0	0.302	1,2,3,0,0,0,0,0,0	to_board	s649
476.079	0.326	0	PA_without_intermediate	0,0,0,3,0,0,2,0,0	test	ward_and_allport	0,0,0,3,1,0,2,0,0	89.0	43.0	0.326	1,2,3,0,0,0,0,0,0	to_hand	s649
476.406	0.352	0	PA_without_intermediate	0,0,0,3,1,0,2,0,0	test	ward_and_allport	0,0,0,3,1,0,2,0,0	71.0	43.0	0.352	1,2,3,0,0,0,0,0,0	to_board	s649
476.77	1.0	0	PA_without_intermediate	n/a	test	ward_and_allport	n/a	-1.0	43.0	n/a	n/a	feedback	s649
477.77	6.168	0	PA_without_intermediate	n/a	test	ward_and_allport	n/a	-1.0	43.0	n/a	n/a	ITI	s649
483.949	1.845	1	PA_without_intermediate	0,0,0,0,0,0,1,2,0	test	ward_and_allport	1,0,0,3,2,0,0,0,0	82.0	44.0	1.845	0,0,0,0,0,0,1,2,3	to_hand	s649
485.796	0.343	0	PA_without_intermediate	0,0,0,3,0,0,1,2,0	test	ward_and_allport	1,0,0,3,2,0,0,0,0	71.0	44.0	0.343	0,0,0,0,0,0,1,2,3	to_board	s649
486.151	0.762	0	PA_without_intermediate	0,0,0,3,0,0,1,0,0	test	ward_and_allport	1,0,0,3,2,0,0,0,0	82.0	44.0	0.762	0,0,0,0,0,0,1,2,3	to_hand	s649
486.915	0.91	0	PA_without_intermediate	0,0,0,3,2,0,1,0,0	test	ward_and_allport	1,0,0,3,2,0,0,0,0	71.0	44.0	0.91	0,0,0,0,0,0,1,2,3	to_board	s649
487.837	0.515	0	PA_without_intermediate	0,0,0,3,2,0,0,0,0	test	ward_and_allport	1,0,0,3,2,0,0,0,0	82.0	44.0	0.515	0,0,0,0,0,0,1,2,3	to_hand	s649
488.354	0.267	0	PA_without_intermediate	1,0,0,3,2,0,0,0,0	test	ward_and_allport	1,0,0,3,2,0,0,0,0	89.0	44.0	0.267	0,0,0,0,0,0,1,2,3	to_board	s649
488.635	1.0	0	PA_without_intermediate	n/a	test	ward_and_allport	n/a	-1.0	44.0	n/a	n/a	feedback	s649
489.635	1.816	0	PA_without_intermediate	n/a	test	ward_and_allport	n/a	-1.0	44.0	n/a	n/a	ITI	s649
496.466	2.01	1	PA_with_intermediate	1,2,0,0,0,0,0,0,0	test	ward_and_allport	1,3,0,2,0,0,0,0,0	89.0	45.0	2.01	1,2,3,0,0,0,0,0,0	to_hand	s649
498.477	0.242	0	PA_with_intermediate	1,2,0,3,0,0,0,0,0	test	ward_and_allport	1,3,0,2,0,0,0,0,0	71.0	45.0	0.242	1,2,3,0,0,0,0,0,0	to_board	s649
498.732	1.3	0	PA_with_intermediate	1,2,0,0,0,0,0,0,0	test	ward_and_allport	1,3,0,2,0,0,0,0,0	71.0	45.0	1.3	1,2,3,0,0,0,0,0,0	to_hand	s649
500.032	0.244	0	PA_with_intermediate	1,2,0,0,0,0,3,0,0	test	ward_and_allport	1,3,0,2,0,0,0,0,0	82.0	45.0	0.244	1,2,3,0,0,0,0,0,0	to_board	s649
500.289	0.539	0	PA_with_intermediate	1,0,0,0,0,0,3,0,0	test	ward_and_allport	1,3,0,2,0,0,0,0,0	89.0	45.0	0.539	1,2,3,0,0,0,0,0,0	to_hand	s649
500.829	0.306	0	PA_with_intermediate	1,0,0,2,0,0,3,0,0	test	ward_and_allport	1,3,0,2,0,0,0,0,0	71.0	45.0	0.306	1,2,3,0,0,0,0,0,0	to_board	s649
501.144	1.324	0	PA_with_intermediate	1,0,0,2,0,0,0,0,0	test	ward_and_allport	1,3,0,2,0,0,0,0,0	82.0	45.0	1.324	1,2,3,0,0,0,0,0,0	to_hand	s649
502.47	0.296	0	PA_with_intermediate	1,3,0,2,0,0,0,0,0	test	ward_and_allport	1,3,0,2,0,0,0,0,0	89.0	45.0	0.296	1,2,3,0,0,0,0,0,0	to_board	s649
502.777	1.0	0	PA_with_intermediate	n/a	test	ward_and_allport	n/a	-1.0	45.0	n/a	n/a	feedback	s649
503.777	1.952	0	PA_with_intermediate	n/a	test	ward_and_allport	n/a	-1.0	45.0	n/a	n/a	ITI	s649
505.739	3.222	1	PA_with_intermediate	0,0,0,0,0,0,1,2,0	test	ward_and_allport	0,0,0,2,3,0,1,0,0	82.0	46.0	3.222	0,0,0,0,0,0,1,2,3	to_hand	s649
508.962	0.33	0	PA_with_intermediate	3,0,0,0,0,0,1,2,0	test	ward_and_allport	0,0,0,2,3,0,1,0,0	89.0	46.0	0.33	0,0,0,0,0,0,1,2,3	to_board	s649
509.3	0.611	0	PA_with_intermediate	3,0,0,0,0,0,1,0,0	test	ward_and_allport	0,0,0,2,3,0,1,0,0	82.0	46.0	0.611	0,0,0,0,0,0,1,2,3	to_hand	s649
509.911	0.324	0	PA_with_intermediate	3,0,0,2,0,0,1,0,0	test	ward_and_allport	0,0,0,2,3,0,1,0,0	71.0	46.0	0.324	0,0,0,0,0,0,1,2,3	to_board	s649
510.246	0.327	0	PA_with_intermediate	0,0,0,2,0,0,1,0,0	test	ward_and_allport	0,0,0,2,3,0,1,0,0	89.0	46.0	0.327	0,0,0,0,0,0,1,2,3	to_hand	s649
510.575	0.272	0	PA_with_intermediate	0,0,0,2,3,0,1,0,0	test	ward_and_allport	0,0,0,2,3,0,1,0,0	71.0	46.0	0.272	0,0,0,0,0,0,1,2,3	to_board	s649
510.857	1.0	0	PA_with_intermediate	n/a	test	ward_and_allport	n/a	-1.0	46.0	n/a	n/a	feedback	s649
511.857	1.136	0	PA_with_intermediate	n/a	test	ward_and_allport	n/a	-1.0	46.0	n/a	n/a	ITI	s649
513.004	3.506	1	PA_without_intermediate	0,0,0,1,2,0,0,0,0	test	ward_and_allport	1,0,0,0,0,0,3,2,0	71.0	47.0	3.506	0,0,0,1,2,3,0,0,0	to_hand	s649
516.511	0.317	0	PA_without_intermediate	0,0,0,1,2,0,3,0,0	test	ward_and_allport	1,0,0,0,0,0,3,2,0	82.0	47.0	0.317	0,0,0,1,2,3,0,0,0	to_board	s649
516.838	0.724	0	PA_without_intermediate	0,0,0,1,0,0,3,0,0	test	ward_and_allport	1,0,0,0,0,0,3,2,0	71.0	47.0	0.724	0,0,0,1,2,3,0,0,0	to_hand	s649
517.564	0.308	0	PA_without_intermediate	0,0,0,1,0,0,3,2,0	test	ward_and_allport	1,0,0,0,0,0,3,2,0	82.0	47.0	0.308	0,0,0,1,2,3,0,0,0	to_board	s649
517.882	0.842	0	PA_without_intermediate	0,0,0,0,0,0,3,2,0	test	ward_and_allport	1,0,0,0,0,0,3,2,0	71.0	47.0	0.842	0,0,0,1,2,3,0,0,0	to_hand	s649
518.726	0.204	0	PA_without_intermediate	1,0,0,0,0,0,3,2,0	test	ward_and_allport	1,0,0,0,0,0,3,2,0	89.0	47.0	0.204	0,0,0,1,2,3,0,0,0	to_board	s649
518.94	1.0	0	PA_without_intermediate	n/a	test	ward_and_allport	n/a	-1.0	47.0	n/a	n/a	feedback	s649
519.94	1.68	0	PA_without_intermediate	n/a	test	ward_and_allport	n/a	-1.0	47.0	n/a	n/a	ITI	s649
n/a	n/a	0	n/a	n/a	n/a	n/a	n/a	n/a	n/a	n/a	n/a	ITI	n/a
