onset	duration	EV	action	clicked_on_loss_card	experiment_exp_id	gain_amount	gain_probability	key_press	loss_amount	loss_probability	num_cards	num_click_in_round	num_loss_cards	risk	response_time	total_cards	trial_id	worker_id
3.009	1.954	-0.8287208721511048	draw_card	0.0	columbia_card_task_fmri	12.0	0.8333333333333334	89.0	-70.0	0.1666666666666666	6.0	1.0	1.0	-2.858010705161288	1.954	n/a	stim	s649
4.966	2.391	-3.5620542054844373	draw_card	0.0	columbia_card_task_fmri	12.0	0.8	89.0	-70.0	0.2	6.0	2.0	1.0	-0.6183906906441621	2.391	n/a	stim	s649
7.359	3.524	-7.662054205484439	draw_card	0.0	columbia_card_task_fmri	12.0	0.75	89.0	-70.0	0.25	6.0	3.0	1.0	2.0878351997330995	3.524	n/a	stim	s649
10.884	1.521	-14.49538753881777	draw_card	1.0	columbia_card_task_fmri	12.0	0.6666666666666667	89.0	-70.0	0.3333333333333333	6.0	4.0	1.0	5.235159406079937	1.521	4.0	stim	s649
12.408	2.25	n/a	-1.0	n/a	columbia_card_task_fmri	n/a	n/a	-1.0	n/a	n/a	n/a	n/a	n/a	n/a	n/a	n/a	feedback	s649
14.658	0.204	n/a	-1.0	n/a	columbia_card_task_fmri	n/a	n/a	-1.0	n/a	n/a	n/a	n/a	n/a	n/a	n/a	n/a	ITI	s649
14.864	1.854	0.0046124611822291	draw_card	0.0	columbia_card_task_fmri	14.0	0.8333333333333334	89.0	-75.0	0.1666666666666666	6.0	1.0	1.0	-0.2501678321914085	1.854	n/a	stim	s649
16.719	1.824	-2.9620542054844377	draw_card	1.0	columbia_card_task_fmri	14.0	0.8	89.0	-75.0	0.2	6.0	2.0	1.0	2.1807678371069272	1.824	2.0	stim	s649
18.55	2.25	n/a	-1.0	n/a	columbia_card_task_fmri	n/a	n/a	-1.0	n/a	n/a	n/a	n/a	n/a	n/a	n/a	n/a	feedback	s649
20.8	0.204	n/a	-1.0	n/a	columbia_card_task_fmri	n/a	n/a	-1.0	n/a	n/a	n/a	n/a	n/a	n/a	n/a	n/a	ITI	s649
21.006	0.734	1.6712791278488952	draw_card	0.0	columbia_card_task_fmri	15.0	0.8333333333333334	89.0	-70.0	0.1666666666666666	6.0	1.0	1.0	-1.7403819638742704	0.734	n/a	stim	s649
21.741	0.673	-1.1620542054844387	end_round	0.0	columbia_card_task_fmri	15.0	0.8	71.0	-70.0	0.2	6.0	2.0	1.0	0.5812317152283768	0.673	1.0	stim	s649
22.418	2.25	n/a	-1.0	n/a	columbia_card_task_fmri	n/a	n/a	-1.0	n/a	n/a	n/a	n/a	n/a	n/a	n/a	n/a	feedback	s649
24.668	0.272	n/a	-1.0	n/a	columbia_card_task_fmri	n/a	n/a	-1.0	n/a	n/a	n/a	n/a	n/a	n/a	n/a	n/a	ITI	s649
24.94	2.052	2.504612461182229	draw_card	0.0	columbia_card_task_fmri	17.0	0.8333333333333334	89.0	-75.0	0.1666666666666666	6.0	1.0	1.0	0.8675211634668045	2.052	n/a	stim	s649
26.993	0.709	-0.5620542054844373	draw_card	0.0	columbia_card_task_fmri	17.0	0.8	89.0	-75.0	0.2	6.0	2.0	1.0	3.380446389135031	0.709	n/a	stim	s649
27.703	0.742	-5.162054205484439	end_round	0.0	columbia_card_task_fmri	17.0	0.75	71.0	-75.0	0.25	6.0	3.0	1.0	6.416887889959412	0.742	2.0	stim	s649
28.449	2.25	n/a	-1.0	n/a	columbia_card_task_fmri	n/a	n/a	-1.0	n/a	n/a	n/a	n/a	n/a	n/a	n/a	n/a	feedback	s649
30.699	0.204	n/a	-1.0	n/a	columbia_card_task_fmri	n/a	n/a	-1.0	n/a	n/a	n/a	n/a	n/a	n/a	n/a	n/a	ITI	s649
30.904	1.906	3.837945794515561	draw_card	0.0	columbia_card_task_fmri	24.0	0.75	89.0	-60.0	0.25	8.0	1.0	2.0	2.953625282346344	1.906	n/a	stim	s649
32.811	1.903	0.8379457945155613	draw_card	0.0	columbia_card_task_fmri	24.0	0.7142857142857143	89.0	-60.0	0.2857142857142857	8.0	2.0	2.0	4.527489975680275	1.903	n/a	stim	s649
34.716	1.458	-3.1620542054844387	draw_card	0.0	columbia_card_task_fmri	24.0	0.6666666666666667	89.0	-60.0	0.3333333333333333	8.0	3.0	2.0	6.177752277595388	1.458	n/a	stim	s649
36.176	1.546	-8.76205420548444	end_round	0.0	columbia_card_task_fmri	24.0	0.6	71.0	-60.0	0.4	8.0	4.0	2.0	7.7308656297132785	1.546	3.0	stim	s649
37.725	2.25	n/a	-1.0	n/a	columbia_card_task_fmri	n/a	n/a	-1.0	n/a	n/a	n/a	n/a	n/a	n/a	n/a	n/a	feedback	s649
39.975	0.408	n/a	-1.0	n/a	columbia_card_task_fmri	n/a	n/a	-1.0	n/a	n/a	n/a	n/a	n/a	n/a	n/a	n/a	ITI	s649
40.385	3.402	3.837945794515561	draw_card	0.0	columbia_card_task_fmri	29.0	0.75	89.0	-75.0	0.25	8.0	1.0	2.0	11.612023752239844	3.402	n/a	stim	s649
43.788	1.791	0.1236600802298495	draw_card	0.0	columbia_card_task_fmri	29.0	0.7142857142857143	89.0	-75.0	0.2857142857142857	8.0	2.0	2.0	13.560790368840271	1.791	n/a	stim	s649
45.582	1.44	-4.828720872151103	draw_card	0.0	columbia_card_task_fmri	29.0	0.6666666666666667	89.0	-75.0	0.3333333333333333	8.0	3.0	2.0	15.604138158519769	1.44	n/a	stim	s649
47.023	1.092	-11.76205420548444	end_round	0.0	columbia_card_task_fmri	29.0	0.6	71.0	-75.0	0.4	8.0	4.0	2.0	17.527184377927696	1.092	3.0	stim	s649
48.119	2.25	n/a	-1.0	n/a	columbia_card_task_fmri	n/a	n/a	-1.0	n/a	n/a	n/a	n/a	n/a	n/a	n/a	n/a	feedback	s649
50.369	0.136	n/a	-1.0	n/a	columbia_card_task_fmri	n/a	n/a	-1.0	n/a	n/a	n/a	n/a	n/a	n/a	n/a	n/a	ITI	s649
50.506	1.756	-0.3842764277066584	draw_card	0.0	columbia_card_task_fmri	17.0	0.7777777777777778	89.0	-65.0	0.2222222222222222	9.0	1.0	2.0	0.6718604592841473	1.756	n/a	stim	s649
52.264	1.748	-2.6620542054844387	draw_card	0.0	columbia_card_task_fmri	17.0	0.75	89.0	-65.0	0.25	9.0	2.0	2.0	2.0878351997330995	1.748	n/a	stim	s649
54.014	1.962	-5.590625634055866	draw_card	0.0	columbia_card_task_fmri	17.0	0.7142857142857143	89.0	-65.0	0.2857142857142857	9.0	3.0	2.0	3.624207638994804	1.962	n/a	stim	s649
55.977	1.306	-9.49538753881777	draw_card	0.0	columbia_card_task_fmri	17.0	0.6666666666666667	89.0	-65.0	0.3333333333333333	9.0	4.0	2.0	5.235159406079937	1.306	n/a	stim	s649
57.286	0.795	-14.96205420548444	end_round	0.0	columbia_card_task_fmri	17.0	0.6	71.0	-65.0	0.4	9.0	5.0	2.0	6.751277747643592	0.795	4.0	stim	s649
58.085	2.25	n/a	-1.0	n/a	columbia_card_task_fmri	n/a	n/a	-1.0	n/a	n/a	n/a	n/a	n/a	n/a	n/a	n/a	feedback	s649
60.335	0.272	n/a	-1.0	n/a	columbia_card_task_fmri	n/a	n/a	-1.0	n/a	n/a	n/a	n/a	n/a	n/a	n/a	n/a	ITI	s649
60.609	2.062	3.937945794515561	draw_card	0.0	columbia_card_task_fmri	14.0	0.9	89.0	-95.0	0.1	10.0	1.0	1.0	-0.7183579741251691	2.062	n/a	stim	s649
62.673	2.603	2.726834683404449	draw_card	0.0	columbia_card_task_fmri	14.0	0.8888888888888888	89.0	-95.0	0.1111111111111111	10.0	2.0	1.0	0.8365499424073874	2.603	n/a	stim	s649
65.279	2.981	1.2129457945155613	draw_card	0.0	columbia_card_task_fmri	14.0	0.875	89.0	-95.0	0.125	10.0	3.0	1.0	2.6290068429935047	2.981	n/a	stim	s649
68.262	1.602	-0.7334827769130099	draw_card	0.0	columbia_card_task_fmri	14.0	0.8571428571428572	89.0	-95.0	0.1428571428571428	10.0	4.0	1.0	4.72216540539722	1.602	n/a	stim	s649
69.866	0.733	-3.328720872151103	end_round	0.0	columbia_card_task_fmri	14.0	0.8333333333333334	71.0	-95.0	0.1666666666666666	10.0	5.0	1.0	7.20145071723428	0.733	4.0	stim	s649
70.602	2.25	n/a	-1.0	n/a	columbia_card_task_fmri	n/a	n/a	-1.0	n/a	n/a	n/a	n/a	n/a	n/a	n/a	n/a	feedback	s649
72.852	0.34	n/a	-1.0	n/a	columbia_card_task_fmri	n/a	n/a	-1.0	n/a	n/a	n/a	n/a	n/a	n/a	n/a	n/a	ITI	s649
73.195	1.622	-0.1620542054844387	draw_card	0.0	columbia_card_task_fmri	15.0	0.8	89.0	-65.0	0.2	10.0	1.0	2.0	-1.41812323599909	1.622	n/a	stim	s649
74.819	3.069	-1.9398319832622155	draw_card	0.0	columbia_card_task_fmri	15.0	0.7777777777777778	89.0	-65.0	0.2222222222222222	10.0	2.0	2.0	-0.1593616214733515	3.069	n/a	stim	s649
77.891	2.014	-4.162054205484439	draw_card	0.0	columbia_card_task_fmri	15.0	0.75	89.0	-65.0	0.25	10.0	3.0	2.0	1.222056878141501	2.014	n/a	stim	s649
79.908	1.416	-7.019197062627293	draw_card	0.0	columbia_card_task_fmri	15.0	0.7142857142857143	89.0	-65.0	0.2857142857142857	10.0	4.0	2.0	2.7209365761843074	1.416	n/a	stim	s649
81.327	1.173	-10.828720872151102	end_round	0.0	columbia_card_task_fmri	15.0	0.6666666666666667	71.0	-65.0	0.3333333333333333	10.0	5.0	2.0	4.292577339163465	1.173	4.0	stim	s649
82.504	2.25	n/a	-1.0	n/a	columbia_card_task_fmri	n/a	n/a	-1.0	n/a	n/a	n/a	n/a	n/a	n/a	n/a	n/a	feedback	s649
84.754	0.136	n/a	-1.0	n/a	columbia_card_task_fmri	n/a	n/a	-1.0	n/a	n/a	n/a	n/a	n/a	n/a	n/a	n/a	ITI	s649
84.893	2.479	1.4379457945155627	draw_card	0.0	columbia_card_task_fmri	17.0	0.8	89.0	-65.0	0.2	10.0	1.0	2.0	-0.6183906906441621	2.479	n/a	stim	s649
87.374	1.655	-0.3842764277066584	draw_card	1.0	columbia_card_task_fmri	17.0	0.7777777777777778	89.0	-65.0	0.2222222222222222	10.0	2.0	2.0	0.6718604592841473	1.655	2.0	stim	s649
89.032	2.25	n/a	-1.0	n/a	columbia_card_task_fmri	n/a	n/a	-1.0	n/a	n/a	n/a	n/a	n/a	n/a	n/a	n/a	feedback	s649
91.282	0.34	n/a	-1.0	n/a	columbia_card_task_fmri	n/a	n/a	-1.0	n/a	n/a	n/a	n/a	n/a	n/a	n/a	n/a	ITI	s649
91.625	0.753	0.0046124611822291	draw_card	0.0	columbia_card_task_fmri	13.0	0.8333333333333334	89.0	-70.0	0.1666666666666666	12.0	1.0	2.0	-2.4854710446150925	0.753	n/a	stim	s649
92.379	0.156	-1.2529632963935322	draw_card	0.0	columbia_card_task_fmri	13.0	0.8181818181818181	89.0	-70.0	0.1818181818181818	12.0	2.0	2.0	-1.4054751125746847	0.156	n/a	stim	s649
92.537	1.627	-2.7620542054844384	end_round	0.0	columbia_card_task_fmri	13.0	0.8	71.0	-70.0	0.2	12.0	3.0	2.0	-0.2185195867951677	1.627	2.0	stim	s649
94.168	2.25	n/a	-1.0	n/a	columbia_card_task_fmri	n/a	n/a	-1.0	n/a	n/a	n/a	n/a	n/a	n/a	n/a	n/a	feedback	s649
96.418	0.068	n/a	-1.0	n/a	columbia_card_task_fmri	n/a	n/a	-1.0	n/a	n/a	n/a	n/a	n/a	n/a	n/a	n/a	ITI	s649
96.488	1.603	0.0046124611822291	draw_card	0.0	columbia_card_task_fmri	15.0	0.8333333333333334	89.0	-80.0	0.1666666666666666	12.0	1.0	2.0	1.985231938708104	1.603	n/a	stim	s649
98.093	1.084	-1.434781478211714	draw_card	0.0	columbia_card_task_fmri	15.0	0.8181818181818181	89.0	-80.0	0.1818181818181818	12.0	2.0	2.0	3.221475526996386	1.084	n/a	stim	s649
99.18	0.296	-3.1620542054844387	draw_card	0.0	columbia_card_task_fmri	15.0	0.8	89.0	-80.0	0.2	12.0	3.0	2.0	4.580145235493035	0.296	n/a	stim	s649
99.478	1.706	-5.273165316595551	draw_card	1.0	columbia_card_task_fmri	15.0	0.7777777777777778	89.0	-80.0	0.2222222222222222	12.0	4.0	2.0	6.075067995398442	1.706	4.0	stim	s649
101.187	2.25	n/a	-1.0	n/a	columbia_card_task_fmri	n/a	n/a	-1.0	n/a	n/a	n/a	n/a	n/a	n/a	n/a	n/a	feedback	s649
103.437	0.0	n/a	-1.0	n/a	columbia_card_task_fmri	n/a	n/a	-1.0	n/a	n/a	n/a	n/a	n/a	n/a	n/a	n/a	ITI	s649
103.441	1.488	-0.9620542054844377	draw_card	1.0	columbia_card_task_fmri	14.0	0.8	89.0	-65.0	0.2	15.0	1.0	3.0	-1.817984433056452	1.488	1.0	stim	s649
104.932	2.25	n/a	-1.0	n/a	columbia_card_task_fmri	n/a	n/a	-1.0	n/a	n/a	n/a	n/a	n/a	n/a	n/a	n/a	feedback	s649
107.182	0.204	n/a	-1.0	n/a	columbia_card_task_fmri	n/a	n/a	-1.0	n/a	n/a	n/a	n/a	n/a	n/a	n/a	n/a	ITI	s649
107.389	3.577	-1.0370542054844387	end_round	0.0	columbia_card_task_fmri	1.0	0.9375	71.0	-45.0	0.0625	16.0	1.0	1.0	-22.26278029866597	3.577	0.0	stim	s649
110.97	2.25	n/a	-1.0	n/a	columbia_card_task_fmri	n/a	n/a	-1.0	n/a	n/a	n/a	n/a	n/a	n/a	n/a	n/a	feedback	s649
113.22	1.02	n/a	-1.0	n/a	columbia_card_task_fmri	n/a	n/a	-1.0	n/a	n/a	n/a	n/a	n/a	n/a	n/a	n/a	ITI	s649
114.243	2.436	-0.0995542054844387	draw_card	0.0	columbia_card_task_fmri	15.0	0.8125	89.0	-70.0	0.1875	16.0	1.0	3.0	-0.2419602500865423	2.436	n/a	stim	s649
116.682	2.273	-1.1620542054844387	draw_card	1.0	columbia_card_task_fmri	15.0	0.8	89.0	-70.0	0.2	16.0	2.0	3.0	0.5812317152283768	2.273	2.0	stim	s649
118.959	2.25	n/a	-1.0	n/a	columbia_card_task_fmri	n/a	n/a	-1.0	n/a	n/a	n/a	n/a	n/a	n/a	n/a	n/a	feedback	s649
121.209	0.0	n/a	-1.0	n/a	columbia_card_task_fmri	n/a	n/a	-1.0	n/a	n/a	n/a	n/a	n/a	n/a	n/a	n/a	ITI	s649
121.213	1.704	6.837945794515561	draw_card	0.0	columbia_card_task_fmri	30.0	0.7	89.0	-50.0	0.3	10.0	1.0	3.0	3.2410882089964588	1.704	n/a	stim	s649
122.92	0.636	4.1712791278489005	draw_card	1.0	columbia_card_task_fmri	30.0	0.6666666666666667	89.0	-50.0	0.3333333333333333	10.0	2.0	3.0	4.292577339163465	0.636	2.0	stim	s649
123.56	2.25	n/a	-1.0	n/a	columbia_card_task_fmri	n/a	n/a	-1.0	n/a	n/a	n/a	n/a	n/a	n/a	n/a	n/a	feedback	s649
125.81	0.0	n/a	-1.0	n/a	columbia_card_task_fmri	n/a	n/a	-1.0	n/a	n/a	n/a	n/a	n/a	n/a	n/a	n/a	ITI	s649
125.811	1.573	6.237945794515562	draw_card	0.0	columbia_card_task_fmri	17.0	0.8666666666666667	89.0	-70.0	0.1333333333333333	15.0	1.0	2.0	-3.842910704847864	1.573	n/a	stim	s649
127.387	1.287	5.409374365944134	draw_card	0.0	columbia_card_task_fmri	17.0	0.8571428571428572	89.0	-70.0	0.1428571428571428	15.0	2.0	2.0	-2.9739044403573125	1.287	n/a	stim	s649
128.677	1.15	4.453330409900176	end_round	0.0	columbia_card_task_fmri	17.0	0.8461538461538461	71.0	-70.0	0.1538461538461538	15.0	3.0	2.0	-2.0282045716785504	1.15	2.0	stim	s649
129.831	2.25	n/a	-1.0	n/a	columbia_card_task_fmri	n/a	n/a	-1.0	n/a	n/a	n/a	n/a	n/a	n/a	n/a	n/a	feedback	s649
132.081	0.068	n/a	-1.0	n/a	columbia_card_task_fmri	n/a	n/a	-1.0	n/a	n/a	n/a	n/a	n/a	n/a	n/a	n/a	ITI	s649
132.152	2.518	1.4629457945155613	draw_card	0.0	columbia_card_task_fmri	7.0	0.9375	89.0	-95.0	0.0625	16.0	1.0	1.0	-8.724608530370393	2.518	n/a	stim	s649
134.673	1.168	1.0379457945155617	draw_card	0.0	columbia_card_task_fmri	7.0	0.9333333333333332	89.0	-95.0	0.0666666666666666	16.0	2.0	1.0	-7.972027602269861	1.168	n/a	stim	s649
135.843	0.224	0.5522315088012757	draw_card	0.0	columbia_card_task_fmri	7.0	0.9285714285714286	89.0	-95.0	0.0714285714285714	16.0	3.0	1.0	-7.146714797464252	0.224	n/a	stim	s649
136.07	0.786	-0.0082080516382854	draw_card	0.0	columbia_card_task_fmri	7.0	0.9230769230769232	89.0	-95.0	0.0769230769230769	16.0	4.0	1.0	-6.236304571194051	0.786	n/a	stim	s649
136.859	0.831	-0.6620542054844387	end_round	0.0	columbia_card_task_fmri	7.0	0.9166666666666666	71.0	-95.0	0.0833333333333333	16.0	5.0	1.0	-5.225331169054623	0.831	4.0	stim	s649
137.694	2.25	n/a	-1.0	n/a	columbia_card_task_fmri	n/a	n/a	-1.0	n/a	n/a	n/a	n/a	n/a	n/a	n/a	n/a	feedback	s649
139.944	0.476	n/a	-1.0	n/a	columbia_card_task_fmri	n/a	n/a	-1.0	n/a	n/a	n/a	n/a	n/a	n/a	n/a	n/a	ITI	s649
140.424	2.204	3.0254457945155613	end_round	0.0	columbia_card_task_fmri	9.0	0.9375	71.0	-100.0	0.0625	16.0	1.0	1.0	-7.031090739275918	2.204	0.0	stim	s649
142.632	2.25	n/a	-1.0	n/a	columbia_card_task_fmri	n/a	n/a	-1.0	n/a	n/a	n/a	n/a	n/a	n/a	n/a	n/a	feedback	s649
144.882	0.136	n/a	-1.0	n/a	columbia_card_task_fmri	n/a	n/a	-1.0	n/a	n/a	n/a	n/a	n/a	n/a	n/a	n/a	ITI	s649
145.02	1.938	3.962945794515561	draw_card	0.0	columbia_card_task_fmri	15.0	0.875	89.0	-80.0	0.125	16.0	1.0	2.0	-1.9996233950404445	1.938	n/a	stim	s649
146.961	1.153	3.171279127848895	draw_card	0.0	columbia_card_task_fmri	15.0	0.8666666666666667	89.0	-80.0	0.1333333333333333	16.0	2.0	2.0	-1.1244327415331483	1.153	n/a	stim	s649
148.117	1.1	2.266517223086992	draw_card	0.0	columbia_card_task_fmri	15.0	0.8571428571428572	89.0	-80.0	0.1428571428571428	16.0	3.0	2.0	-0.1754582017806569	1.1	n/a	stim	s649
149.22	0.683	1.2225611791309443	draw_card	1.0	columbia_card_task_fmri	15.0	0.8461538461538461	89.0	-80.0	0.1538461538461538	16.0	4.0	2.0	0.8572637402224146	0.683	4.0	stim	s649
149.907	2.25	n/a	-1.0	n/a	columbia_card_task_fmri	n/a	n/a	-1.0	n/a	n/a	n/a	n/a	n/a	n/a	n/a	n/a	feedback	s649
152.157	0.068	n/a	-1.0	n/a	columbia_card_task_fmri	n/a	n/a	-1.0	n/a	n/a	n/a	n/a	n/a	n/a	n/a	n/a	ITI	s649
152.229	1.938	6.087945794515561	draw_card	1.0	columbia_card_task_fmri	16.0	0.875	89.0	-70.0	0.125	16.0	1.0	2.0	-4.974924910463169	1.938	1.0	stim	s649
154.17	2.25	n/a	-1.0	n/a	columbia_card_task_fmri	n/a	n/a	-1.0	n/a	n/a	n/a	n/a	n/a	n/a	n/a	n/a	feedback	s649
156.42	0.0	n/a	-1.0	n/a	columbia_card_task_fmri	n/a	n/a	-1.0	n/a	n/a	n/a	n/a	n/a	n/a	n/a	n/a	ITI	s649
156.424	1.093	7.400445794515561	draw_card	1.0	columbia_card_task_fmri	30.0	0.6875	89.0	-45.0	0.3125	16.0	1.0	5.0	1.3444354627553707	1.093	1.0	stim	s649
157.521	2.25	n/a	-1.0	n/a	columbia_card_task_fmri	n/a	n/a	-1.0	n/a	n/a	n/a	n/a	n/a	n/a	n/a	n/a	feedback	s649
159.771	0.0	n/a	-1.0	n/a	columbia_card_task_fmri	n/a	n/a	-1.0	n/a	n/a	n/a	n/a	n/a	n/a	n/a	n/a	ITI	s649
159.774	1.511	-0.8287208721511048	draw_card	0.0	columbia_card_task_fmri	13.0	0.8333333333333334	89.0	-75.0	0.1666666666666666	6.0	1.0	1.0	-0.6227256060872719	1.511	n/a	stim	s649
161.289	0.172	-3.7620542054844384	draw_card	0.0	columbia_card_task_fmri	13.0	0.8	89.0	-75.0	0.2	6.0	2.0	1.0	1.7808798548234748	0.172	n/a	stim	s649
161.462	1.434	-8.162054205484438	end_round	0.0	columbia_card_task_fmri	13.0	0.75	71.0	-75.0	0.25	6.0	3.0	1.0	4.685237524722268	1.434	2.0	stim	s649
162.901	2.25	n/a	-1.0	n/a	columbia_card_task_fmri	n/a	n/a	-1.0	n/a	n/a	n/a	n/a	n/a	n/a	n/a	n/a	feedback	s649
165.151	0.204	n/a	-1.0	n/a	columbia_card_task_fmri	n/a	n/a	-1.0	n/a	n/a	n/a	n/a	n/a	n/a	n/a	n/a	ITI	s649
165.358	1.337	0.8379457945155631	draw_card	0.0	columbia_card_task_fmri	14.0	0.8333333333333334	89.0	-70.0	0.1666666666666666	6.0	1.0	1.0	-2.11292809215189	1.337	n/a	stim	s649
166.698	0.16	-1.9620542054844377	draw_card	1.0	columbia_card_task_fmri	14.0	0.8	89.0	-70.0	0.2	6.0	2.0	1.0	0.1813545845617028	0.16	2.0	stim	s649
166.862	2.25	n/a	-1.0	n/a	columbia_card_task_fmri	n/a	n/a	-1.0	n/a	n/a	n/a	n/a	n/a	n/a	n/a	n/a	feedback	s649
169.112	0.204	n/a	-1.0	n/a	columbia_card_task_fmri	n/a	n/a	-1.0	n/a	n/a	n/a	n/a	n/a	n/a	n/a	n/a	ITI	s649
169.319	2.67	0.8379457945155631	draw_card	0.0	columbia_card_task_fmri	16.0	0.8333333333333334	89.0	-80.0	0.1666666666666666	6.0	1.0	1.0	2.3578066843192147	2.67	n/a	stim	s649
171.992	0.763	-2.362054205484438	end_round	0.0	columbia_card_task_fmri	16.0	0.8	71.0	-80.0	0.2	6.0	2.0	1.0	4.98004903211519	0.763	1.0	stim	s649
172.759	2.25	n/a	-1.0	n/a	columbia_card_task_fmri	n/a	n/a	-1.0	n/a	n/a	n/a	n/a	n/a	n/a	n/a	n/a	feedback	s649
175.009	0.272	n/a	-1.0	n/a	columbia_card_task_fmri	n/a	n/a	-1.0	n/a	n/a	n/a	n/a	n/a	n/a	n/a	n/a	ITI	s649
175.284	1.761	3.337945794515563	draw_card	0.0	columbia_card_task_fmri	17.0	0.8333333333333334	89.0	-70.0	0.1666666666666666	6.0	1.0	1.0	-0.9952806176188886	1.761	n/a	stim	s649
177.048	0.569	0.4379457945155627	end_round	0.0	columbia_card_task_fmri	17.0	0.8	71.0	-70.0	0.2	6.0	2.0	1.0	1.380994446553366	0.569	1.0	stim	s649
177.621	2.25	n/a	-1.0	n/a	columbia_card_task_fmri	n/a	n/a	-1.0	n/a	n/a	n/a	n/a	n/a	n/a	n/a	n/a	feedback	s649
179.871	0.136	n/a	-1.0	n/a	columbia_card_task_fmri	n/a	n/a	-1.0	n/a	n/a	n/a	n/a	n/a	n/a	n/a	n/a	ITI	s649
180.012	2.668	3.3379457945155613	draw_card	0.0	columbia_card_task_fmri	25.0	0.75	89.0	-65.0	0.25	8.0	1.0	2.0	5.551058259524233	2.668	n/a	stim	s649
182.683	0.138	0.1236600802298495	draw_card	0.0	columbia_card_task_fmri	25.0	0.7142857142857143	89.0	-65.0	0.2857142857142857	8.0	2.0	2.0	7.237397116495352	0.138	n/a	stim	s649
182.824	1.03	-4.162054205484435	end_round	0.0	columbia_card_task_fmri	25.0	0.6666666666666667	71.0	-65.0	0.3333333333333333	8.0	3.0	2.0	9.005588519684693	1.03	2.0	stim	s649
183.857	2.25	n/a	-1.0	n/a	columbia_card_task_fmri	n/a	n/a	-1.0	n/a	n/a	n/a	n/a	n/a	n/a	n/a	n/a	feedback	s649
186.107	0.204	n/a	-1.0	n/a	columbia_card_task_fmri	n/a	n/a	-1.0	n/a	n/a	n/a	n/a	n/a	n/a	n/a	n/a	ITI	s649
186.315	1.752	3.3379457945155613	draw_card	0.0	columbia_card_task_fmri	30.0	0.75	89.0	-80.0	0.25	8.0	1.0	2.0	14.209674835576196	1.752	n/a	stim	s649
188.069	0.918	-0.5906256340558622	end_round	0.0	columbia_card_task_fmri	30.0	0.7142857142857143	71.0	-80.0	0.2857142857142857	8.0	2.0	2.0	16.270906578063055	0.918	1.0	stim	s649
188.992	2.25	n/a	-1.0	n/a	columbia_card_task_fmri	n/a	n/a	-1.0	n/a	n/a	n/a	n/a	n/a	n/a	n/a	n/a	feedback	s649
191.242	0.272	n/a	-1.0	n/a	columbia_card_task_fmri	n/a	n/a	-1.0	n/a	n/a	n/a	n/a	n/a	n/a	n/a	n/a	ITI	s649
191.518	2.293	3.0379457945155623	end_round	0.0	columbia_card_task_fmri	13.0	0.9	71.0	-95.0	0.1	10.0	1.0	1.0	-1.0182586134484453	2.293	0.0	stim	s649
193.815	2.25	n/a	-1.0	n/a	columbia_card_task_fmri	n/a	n/a	-1.0	n/a	n/a	n/a	n/a	n/a	n/a	n/a	n/a	feedback	s649
196.065	0.272	n/a	-1.0	n/a	columbia_card_task_fmri	n/a	n/a	-1.0	n/a	n/a	n/a	n/a	n/a	n/a	n/a	n/a	ITI	s649
196.34	1.426	4.437945794515561	draw_card	1.0	columbia_card_task_fmri	14.0	0.9	89.0	-90.0	0.1	10.0	1.0	1.0	-2.217842072963993	1.426	1.0	stim	s649
197.77	2.25	n/a	-1.0	n/a	columbia_card_task_fmri	n/a	n/a	-1.0	n/a	n/a	n/a	n/a	n/a	n/a	n/a	n/a	feedback	s649
200.02	0.34	n/a	-1.0	n/a	columbia_card_task_fmri	n/a	n/a	-1.0	n/a	n/a	n/a	n/a	n/a	n/a	n/a	n/a	ITI	s649
200.363	1.583	-0.362054205484438	draw_card	0.0	columbia_card_task_fmri	16.0	0.8	89.0	-70.0	0.2	10.0	1.0	2.0	0.9811117020354416	1.583	n/a	stim	s649
201.949	0.696	-2.273165316595549	end_round	0.0	columbia_card_task_fmri	16.0	0.7777777777777778	71.0	-70.0	0.2222222222222222	10.0	2.0	2.0	2.3343405131057158	0.696	1.0	stim	s649
202.65	2.25	n/a	-1.0	n/a	columbia_card_task_fmri	n/a	n/a	-1.0	n/a	n/a	n/a	n/a	n/a	n/a	n/a	n/a	feedback	s649
204.9	0.204	n/a	-1.0	n/a	columbia_card_task_fmri	n/a	n/a	-1.0	n/a	n/a	n/a	n/a	n/a	n/a	n/a	n/a	ITI	s649
205.108	1.941	-1.0787208721511048	end_round	0.0	columbia_card_task_fmri	7.0	0.9166666666666666	71.0	-100.0	0.0833333333333333	12.0	1.0	1.0	-3.843985738240999	1.941	0.0	stim	s649
207.053	2.25	n/a	-1.0	n/a	columbia_card_task_fmri	n/a	n/a	-1.0	n/a	n/a	n/a	n/a	n/a	n/a	n/a	n/a	feedback	s649
209.303	0.068	n/a	-1.0	n/a	columbia_card_task_fmri	n/a	n/a	-1.0	n/a	n/a	n/a	n/a	n/a	n/a	n/a	n/a	ITI	s649
209.375	1.711	-0.828720872151103	draw_card	0.0	columbia_card_task_fmri	14.0	0.8333333333333334	89.0	-80.0	0.1666666666666666	12.0	1.0	2.0	1.6126593889867564	1.711	n/a	stim	s649
211.089	1.107	-2.252963296393532	draw_card	0.0	columbia_card_task_fmri	14.0	0.8181818181818181	89.0	-80.0	0.1818181818181818	12.0	2.0	2.0	2.8358828098130857	1.107	n/a	stim	s649
212.199	0.811	-3.9620542054844377	end_round	0.0	columbia_card_task_fmri	14.0	0.8	71.0	-80.0	0.2	12.0	3.0	2.0	4.180243484997128	0.811	2.0	stim	s649
213.015	2.25	n/a	-1.0	n/a	columbia_card_task_fmri	n/a	n/a	-1.0	n/a	n/a	n/a	n/a	n/a	n/a	n/a	n/a	feedback	s649
215.265	0.0	n/a	-1.0	n/a	columbia_card_task_fmri	n/a	n/a	-1.0	n/a	n/a	n/a	n/a	n/a	n/a	n/a	n/a	ITI	s649
215.269	1.683	0.8379457945155613	draw_card	1.0	columbia_card_task_fmri	15.0	0.8333333333333334	89.0	-75.0	0.1666666666666666	12.0	1.0	2.0	0.1223926120483156	1.683	1.0	stim	s649
216.957	2.25	n/a	-1.0	n/a	columbia_card_task_fmri	n/a	n/a	-1.0	n/a	n/a	n/a	n/a	n/a	n/a	n/a	n/a	feedback	s649
219.207	0.408	n/a	-1.0	n/a	columbia_card_task_fmri	n/a	n/a	-1.0	n/a	n/a	n/a	n/a	n/a	n/a	n/a	n/a	ITI	s649
219.618	1.927	-0.1620542054844387	end_round	0.0	columbia_card_task_fmri	15.0	0.8	71.0	-65.0	0.2	15.0	1.0	3.0	-1.41812323599909	1.927	0.0	stim	s649
221.55	2.25	n/a	-1.0	n/a	columbia_card_task_fmri	n/a	n/a	-1.0	n/a	n/a	n/a	n/a	n/a	n/a	n/a	n/a	feedback	s649
223.8	0.204	n/a	-1.0	n/a	columbia_card_task_fmri	n/a	n/a	-1.0	n/a	n/a	n/a	n/a	n/a	n/a	n/a	n/a	ITI	s649
224.007	1.103	-0.9120542054844388	draw_card	0.0	columbia_card_task_fmri	14.0	0.8125	89.0	-70.0	0.1875	16.0	1.0	3.0	-0.6321467089291772	1.103	n/a	stim	s649
225.114	0.685	-1.9620542054844377	end_round	0.0	columbia_card_task_fmri	14.0	0.8	71.0	-70.0	0.2	16.0	2.0	3.0	0.1813545845617028	0.685	1.0	stim	s649
225.804	2.25	n/a	-1.0	n/a	columbia_card_task_fmri	n/a	n/a	-1.0	n/a	n/a	n/a	n/a	n/a	n/a	n/a	n/a	feedback	s649
228.054	0.136	n/a	-1.0	n/a	columbia_card_task_fmri	n/a	n/a	-1.0	n/a	n/a	n/a	n/a	n/a	n/a	n/a	n/a	ITI	s649
228.194	1.666	-0.9745542054844388	end_round	0.0	columbia_card_task_fmri	11.0	0.6875	71.0	-30.0	0.3125	16.0	1.0	5.0	-14.406619029288471	1.666	0.0	stim	s649
229.864	2.25	n/a	-1.0	n/a	columbia_card_task_fmri	n/a	n/a	-1.0	n/a	n/a	n/a	n/a	n/a	n/a	n/a	n/a	feedback	s649
232.114	0.34	n/a	-1.0	n/a	columbia_card_task_fmri	n/a	n/a	-1.0	n/a	n/a	n/a	n/a	n/a	n/a	n/a	n/a	ITI	s649
232.458	1.541	3.837945794515561	draw_card	0.0	columbia_card_task_fmri	15.0	0.8666666666666667	89.0	-75.0	0.1333333333333333	15.0	1.0	2.0	-2.82350227177696	1.541	n/a	stim	s649
234.003	1.238	2.9808029373727054	draw_card	0.0	columbia_card_task_fmri	15.0	0.8571428571428572	89.0	-75.0	0.1428571428571428	15.0	2.0	2.0	-1.924507311274848	1.238	n/a	stim	s649
235.244	1.086	1.9917919483617144	draw_card	0.0	columbia_card_task_fmri	15.0	0.8461538461538461	89.0	-75.0	0.1538461538461538	15.0	3.0	2.0	-0.9461735572037284	1.086	n/a	stim	s649
236.334	0.832	0.8379457945155613	end_round	0.0	columbia_card_task_fmri	15.0	0.8333333333333334	71.0	-75.0	0.1666666666666666	15.0	4.0	2.0	0.1223926120483156	0.832	3.0	stim	s649
237.169	2.25	n/a	-1.0	n/a	columbia_card_task_fmri	n/a	n/a	-1.0	n/a	n/a	n/a	n/a	n/a	n/a	n/a	n/a	feedback	s649
239.419	0.068	n/a	-1.0	n/a	columbia_card_task_fmri	n/a	n/a	-1.0	n/a	n/a	n/a	n/a	n/a	n/a	n/a	n/a	ITI	s649
239.492	1.503	5.571279127848896	draw_card	0.0	columbia_card_task_fmri	17.0	0.8666666666666667	89.0	-75.0	0.1333333333333333	15.0	1.0	2.0	-2.1438823290337368	1.503	n/a	stim	s649
240.998	1.647	4.695088651658421	draw_card	0.0	columbia_card_task_fmri	17.0	0.8571428571428572	89.0	-75.0	0.1428571428571428	15.0	2.0	2.0	-1.2248953125755475	1.647	n/a	stim	s649
242.648	0.832	3.684099640669408	end_round	0.0	columbia_card_task_fmri	17.0	0.8461538461538461	71.0	-75.0	0.1538461538461538	15.0	3.0	2.0	-0.2248060533620943	0.832	2.0	stim	s649
243.485	2.25	n/a	-1.0	n/a	columbia_card_task_fmri	n/a	n/a	-1.0	n/a	n/a	n/a	n/a	n/a	n/a	n/a	n/a	feedback	s649
245.735	0.34	n/a	-1.0	n/a	columbia_card_task_fmri	n/a	n/a	-1.0	n/a	n/a	n/a	n/a	n/a	n/a	n/a	n/a	ITI	s649
246.077	1.203	1.1504457945155613	end_round	0.0	columbia_card_task_fmri	2.0	0.9375	71.0	-25.0	0.0625	16.0	1.0	1.0	-26.839934972805324	1.203	0.0	stim	s649
247.285	2.25	n/a	-1.0	n/a	columbia_card_task_fmri	n/a	n/a	-1.0	n/a	n/a	n/a	n/a	n/a	n/a	n/a	n/a	feedback	s649
249.535	0.136	n/a	-1.0	n/a	columbia_card_task_fmri	n/a	n/a	-1.0	n/a	n/a	n/a	n/a	n/a	n/a	n/a	n/a	ITI	s649
249.675	1.157	3.3379457945155613	end_round	0.0	columbia_card_task_fmri	9.0	0.9375	71.0	-95.0	0.0625	16.0	1.0	1.0	-8.240758827311613	1.157	0.0	stim	s649
250.836	2.25	n/a	-1.0	n/a	columbia_card_task_fmri	n/a	n/a	-1.0	n/a	n/a	n/a	n/a	n/a	n/a	n/a	n/a	feedback	s649
253.086	0.068	n/a	-1.0	n/a	columbia_card_task_fmri	n/a	n/a	-1.0	n/a	n/a	n/a	n/a	n/a	n/a	n/a	n/a	ITI	s649
253.157	1.313	4.900445794515561	end_round	0.0	columbia_card_task_fmri	11.0	0.9375	71.0	-100.0	0.0625	16.0	1.0	1.0	-6.547207391991048	1.313	0.0	stim	s649
254.476	2.25	n/a	-1.0	n/a	columbia_card_task_fmri	n/a	n/a	-1.0	n/a	n/a	n/a	n/a	n/a	n/a	n/a	n/a	feedback	s649
256.726	0.068	n/a	-1.0	n/a	columbia_card_task_fmri	n/a	n/a	-1.0	n/a	n/a	n/a	n/a	n/a	n/a	n/a	n/a	ITI	s649
256.798	1.701	5.462945794515561	draw_card	0.0	columbia_card_task_fmri	16.0	0.875	89.0	-75.0	0.125	16.0	1.0	2.0	-3.322008147361835	1.701	n/a	stim	s649
258.503	1.886	4.704612461182228	draw_card	0.0	columbia_card_task_fmri	16.0	0.8666666666666667	89.0	-75.0	0.1333333333333333	16.0	2.0	2.0	-2.4836936695735226	1.886	n/a	stim	s649
260.393	1.367	3.837945794515563	draw_card	0.0	columbia_card_task_fmri	16.0	0.8571428571428572	89.0	-75.0	0.1428571428571428	16.0	3.0	2.0	-1.5747026420779555	1.367	n/a	stim	s649
261.763	0.67	2.8379457945155613	end_round	0.0	columbia_card_task_fmri	16.0	0.8461538461538461	71.0	-75.0	0.1538461538461538	16.0	4.0	2.0	-0.5854910954260077	0.67	3.0	stim	s649
262.436	2.25	n/a	-1.0	n/a	columbia_card_task_fmri	n/a	n/a	-1.0	n/a	n/a	n/a	n/a	n/a	n/a	n/a	n/a	feedback	s649
264.686	0.068	n/a	-1.0	n/a	columbia_card_task_fmri	n/a	n/a	-1.0	n/a	n/a	n/a	n/a	n/a	n/a	n/a	n/a	ITI	s649
264.757	1.803	5.712945794515561	draw_card	1.0	columbia_card_task_fmri	17.0	0.875	89.0	-80.0	0.125	16.0	1.0	2.0	-1.3384158442955254	1.803	1.0	stim	s649
266.565	2.25	n/a	-1.0	n/a	columbia_card_task_fmri	n/a	n/a	-1.0	n/a	n/a	n/a	n/a	n/a	n/a	n/a	n/a	feedback	s649
268.815	0.136	n/a	-1.0	n/a	columbia_card_task_fmri	n/a	n/a	-1.0	n/a	n/a	n/a	n/a	n/a	n/a	n/a	n/a	ITI	s649
279.959	2.131	0.0046124611822291	draw_card	0.0	columbia_card_task_fmri	13.0	0.8333333333333334	89.0	-70.0	0.1666666666666666	6.0	1.0	1.0	-2.4854710446150925	2.131	n/a	stim	s649
282.094	1.415	-2.7620542054844384	draw_card	0.0	columbia_card_task_fmri	13.0	0.8	89.0	-70.0	0.2	6.0	2.0	1.0	-0.2185195867951677	1.415	n/a	stim	s649
283.513	0.773	-6.912054205484439	end_round	0.0	columbia_card_task_fmri	13.0	0.75	71.0	-70.0	0.25	6.0	3.0	1.0	2.5207288240200256	0.773	2.0	stim	s649
284.291	2.25	n/a	-1.0	n/a	columbia_card_task_fmri	n/a	n/a	-1.0	n/a	n/a	n/a	n/a	n/a	n/a	n/a	n/a	feedback	s649
286.541	0.0	n/a	-1.0	n/a	columbia_card_task_fmri	n/a	n/a	-1.0	n/a	n/a	n/a	n/a	n/a	n/a	n/a	n/a	ITI	s649
286.546	1.731	0.0046124611822291	draw_card	0.0	columbia_card_task_fmri	15.0	0.8333333333333334	89.0	-80.0	0.1666666666666666	6.0	1.0	1.0	1.985231938708104	1.731	n/a	stim	s649
288.279	0.857	-3.1620542054844387	draw_card	0.0	columbia_card_task_fmri	15.0	0.8	89.0	-80.0	0.2	6.0	2.0	1.0	4.580145235493035	0.857	n/a	stim	s649
289.14	1.345	-7.912054205484439	draw_card	0.0	columbia_card_task_fmri	15.0	0.75	89.0	-80.0	0.25	6.0	3.0	1.0	7.715647786453609	1.345	n/a	stim	s649
290.489	0.829	-15.828720872151102	end_round	0.0	columbia_card_task_fmri	15.0	0.6666666666666667	71.0	-80.0	0.3333333333333333	6.0	4.0	1.0	11.36217572052287	0.829	3.0	stim	s649
291.323	2.25	n/a	-1.0	n/a	columbia_card_task_fmri	n/a	n/a	-1.0	n/a	n/a	n/a	n/a	n/a	n/a	n/a	n/a	feedback	s649
293.573	0.136	n/a	-1.0	n/a	columbia_card_task_fmri	n/a	n/a	-1.0	n/a	n/a	n/a	n/a	n/a	n/a	n/a	n/a	ITI	s649
293.712	1.175	1.6712791278488952	draw_card	0.0	columbia_card_task_fmri	16.0	0.8333333333333334	89.0	-75.0	0.1666666666666666	6.0	1.0	1.0	0.4949556386532023	1.175	n/a	stim	s649
294.89	1.232	-1.362054205484438	draw_card	1.0	columbia_card_task_fmri	16.0	0.8	89.0	-75.0	0.2	6.0	2.0	1.0	2.980551184467941	1.232	2.0	stim	s649
296.127	2.25	n/a	-1.0	n/a	columbia_card_task_fmri	n/a	n/a	-1.0	n/a	n/a	n/a	n/a	n/a	n/a	n/a	n/a	feedback	s649
298.377	0.34	n/a	-1.0	n/a	columbia_card_task_fmri	n/a	n/a	-1.0	n/a	n/a	n/a	n/a	n/a	n/a	n/a	n/a	ITI	s649
298.721	0.628	2.8379457945155613	draw_card	0.0	columbia_card_task_fmri	21.0	0.75	89.0	-55.0	0.25	8.0	1.0	2.0	-0.5094607702450062	0.628	n/a	stim	s649
299.353	2.462	0.1236600802298477	draw_card	0.0	columbia_card_task_fmri	21.0	0.7142857142857143	89.0	-55.0	0.2857142857142857	8.0	2.0	2.0	0.914431830355511	2.462	n/a	stim	s649
301.818	1.3	-3.495387538817769	draw_card	0.0	columbia_card_task_fmri	21.0	0.6666666666666667	89.0	-55.0	0.3333333333333333	8.0	3.0	2.0	2.4074490293424446	1.3	n/a	stim	s649
303.121	0.614	-8.56205420548444	end_round	0.0	columbia_card_task_fmri	21.0	0.6	71.0	-55.0	0.4	8.0	4.0	2.0	3.8125797668523447	0.614	3.0	stim	s649
303.74	2.25	n/a	-1.0	n/a	columbia_card_task_fmri	n/a	n/a	-1.0	n/a	n/a	n/a	n/a	n/a	n/a	n/a	n/a	feedback	s649
305.99	0.408	n/a	-1.0	n/a	columbia_card_task_fmri	n/a	n/a	-1.0	n/a	n/a	n/a	n/a	n/a	n/a	n/a	n/a	ITI	s649
306.403	1.4	4.087945794515561	draw_card	0.0	columbia_card_task_fmri	26.0	0.75	89.0	-65.0	0.25	8.0	1.0	2.0	5.983971999428789	1.4	n/a	stim	s649
307.806	0.597	0.8379457945155648	draw_card	0.0	columbia_card_task_fmri	26.0	0.7142857142857143	89.0	-65.0	0.2857142857142857	8.0	2.0	2.0	7.689056208808175	0.597	n/a	stim	s649
308.406	1.498	-3.4953875388177678	draw_card	0.0	columbia_card_task_fmri	26.0	0.6666666666666667	89.0	-65.0	0.3333333333333333	8.0	3.0	2.0	9.476902133216306	1.498	n/a	stim	s649
309.908	1.175	-9.56205420548444	draw_card	0.0	columbia_card_task_fmri	26.0	0.6	89.0	-65.0	0.4	8.0	4.0	2.0	11.159495201864338	1.175	n/a	stim	s649
311.085	1.054	-18.66205420548444	end_round	0.0	columbia_card_task_fmri	26.0	0.5	71.0	-65.0	0.5	8.0	5.0	2.0	12.078622815633564	1.054	4.0	stim	s649
312.144	2.25	n/a	-1.0	n/a	columbia_card_task_fmri	n/a	n/a	-1.0	n/a	n/a	n/a	n/a	n/a	n/a	n/a	n/a	feedback	s649
314.394	0.136	n/a	-1.0	n/a	columbia_card_task_fmri	n/a	n/a	-1.0	n/a	n/a	n/a	n/a	n/a	n/a	n/a	n/a	ITI	s649
314.535	1.569	-0.8287208721511048	draw_card	0.0	columbia_card_task_fmri	15.0	0.7777777777777778	89.0	-60.0	0.2222222222222222	9.0	1.0	2.0	-2.237356808613132	1.569	n/a	stim	s649
316.108	0.547	-2.9120542054844387	end_round	0.0	columbia_card_task_fmri	15.0	0.75	71.0	-60.0	0.25	9.0	2.0	2.0	-0.942331300677651	0.547	1.0	stim	s649
316.66	2.25	n/a	-1.0	n/a	columbia_card_task_fmri	n/a	n/a	-1.0	n/a	n/a	n/a	n/a	n/a	n/a	n/a	n/a	feedback	s649
318.91	0.136	n/a	-1.0	n/a	columbia_card_task_fmri	n/a	n/a	-1.0	n/a	n/a	n/a	n/a	n/a	n/a	n/a	n/a	ITI	s649
319.051	1.396	3.5379457945155623	draw_card	0.0	columbia_card_task_fmri	13.0	0.9	89.0	-90.0	0.1	10.0	1.0	1.0	-2.517732885474228	1.396	n/a	stim	s649
320.451	0.548	2.3935013500711166	draw_card	0.0	columbia_card_task_fmri	13.0	0.8888888888888888	89.0	-90.0	0.1111111111111111	10.0	2.0	1.0	-1.0484714071707444	0.548	n/a	stim	s649
321.004	0.655	0.9629457945155612	draw_card	0.0	columbia_card_task_fmri	13.0	0.875	89.0	-90.0	0.125	10.0	3.0	1.0	0.6452604391987435	0.655	n/a	stim	s649
321.662	1.377	-0.8763399197701505	end_round	0.0	columbia_card_task_fmri	13.0	0.8571428571428572	71.0	-90.0	0.1428571428571428	10.0	4.0	1.0	2.623138744667408	1.377	3.0	stim	s649
323.042	2.25	n/a	-1.0	n/a	columbia_card_task_fmri	n/a	n/a	-1.0	n/a	n/a	n/a	n/a	n/a	n/a	n/a	n/a	feedback	s649
325.292	0.0	n/a	-1.0	n/a	columbia_card_task_fmri	n/a	n/a	-1.0	n/a	n/a	n/a	n/a	n/a	n/a	n/a	n/a	ITI	s649
325.296	1.824	4.837945794515561	draw_card	0.0	columbia_card_task_fmri	15.0	0.9	89.0	-95.0	0.1	10.0	1.0	1.0	-0.4184555291252891	1.824	n/a	stim	s649
327.124	0.585	3.615723572293338	draw_card	0.0	columbia_card_task_fmri	15.0	0.8888888888888888	89.0	-95.0	0.1111111111111111	10.0	2.0	1.0	1.1507264934706	0.585	n/a	stim	s649
327.712	0.472	2.0879457945155613	draw_card	0.0	columbia_card_task_fmri	15.0	0.875	89.0	-95.0	0.125	10.0	3.0	1.0	2.959637255651998	0.472	n/a	stim	s649
328.188	0.479	0.1236600802298477	draw_card	0.0	columbia_card_task_fmri	15.0	0.8571428571428572	89.0	-95.0	0.1428571428571428	10.0	4.0	1.0	5.072008864707357	0.479	n/a	stim	s649
328.67	1.066	-2.495387538817771	end_round	0.0	columbia_card_task_fmri	15.0	0.8333333333333334	71.0	-95.0	0.1666666666666666	10.0	5.0	1.0	7.574050169739117	1.066	4.0	stim	s649
329.741	2.25	n/a	-1.0	n/a	columbia_card_task_fmri	n/a	n/a	-1.0	n/a	n/a	n/a	n/a	n/a	n/a	n/a	n/a	feedback	s649
331.991	0.068	n/a	-1.0	n/a	columbia_card_task_fmri	n/a	n/a	-1.0	n/a	n/a	n/a	n/a	n/a	n/a	n/a	n/a	ITI	s649
332.062	1.143	0.637945794515562	end_round	0.0	columbia_card_task_fmri	16.0	0.8	71.0	-65.0	0.2	10.0	1.0	2.0	-1.0182586134484453	1.143	0.0	stim	s649
333.21	2.25	n/a	-1.0	n/a	columbia_card_task_fmri	n/a	n/a	-1.0	n/a	n/a	n/a	n/a	n/a	n/a	n/a	n/a	feedback	s649
335.46	0.0	n/a	-1.0	n/a	columbia_card_task_fmri	n/a	n/a	-1.0	n/a	n/a	n/a	n/a	n/a	n/a	n/a	n/a	ITI	s649
335.465	1.675	-0.6620542054844387	draw_card	0.0	columbia_card_task_fmri	7.0	0.9166666666666666	89.0	-95.0	0.0833333333333333	12.0	1.0	1.0	-5.225331169054623	1.675	n/a	stim	s649
337.144	0.521	-1.434781478211712	draw_card	1.0	columbia_card_task_fmri	7.0	0.9090909090909092	89.0	-95.0	0.0909090909090909	12.0	2.0	1.0	-4.094183876329925	0.521	2.0	stim	s649
337.67	2.25	n/a	-1.0	n/a	columbia_card_task_fmri	n/a	n/a	-1.0	n/a	n/a	n/a	n/a	n/a	n/a	n/a	n/a	feedback	s649
339.92	0.0	n/a	-1.0	n/a	columbia_card_task_fmri	n/a	n/a	-1.0	n/a	n/a	n/a	n/a	n/a	n/a	n/a	n/a	ITI	s649
339.925	2.283	0.0046124611822291	draw_card	1.0	columbia_card_task_fmri	14.0	0.8333333333333334	89.0	-75.0	0.1666666666666666	12.0	1.0	2.0	-0.2501678321914085	2.283	1.0	stim	s649
342.213	2.25	n/a	-1.0	n/a	columbia_card_task_fmri	n/a	n/a	-1.0	n/a	n/a	n/a	n/a	n/a	n/a	n/a	n/a	feedback	s649
344.463	0.136	n/a	-1.0	n/a	columbia_card_task_fmri	n/a	n/a	-1.0	n/a	n/a	n/a	n/a	n/a	n/a	n/a	n/a	ITI	s649
344.604	1.286	1.6712791278488952	end_round	0.0	columbia_card_task_fmri	15.0	0.8333333333333334	71.0	-70.0	0.1666666666666666	12.0	1.0	2.0	-1.7403819638742704	1.286	0.0	stim	s649
345.895	2.25	n/a	-1.0	n/a	columbia_card_task_fmri	n/a	n/a	-1.0	n/a	n/a	n/a	n/a	n/a	n/a	n/a	n/a	feedback	s649
348.145	0.136	n/a	-1.0	n/a	columbia_card_task_fmri	n/a	n/a	-1.0	n/a	n/a	n/a	n/a	n/a	n/a	n/a	n/a	ITI	s649
348.286	1.609	-0.362054205484438	draw_card	0.0	columbia_card_task_fmri	16.0	0.8	89.0	-70.0	0.2	15.0	1.0	3.0	0.9811117020354416	1.609	n/a	stim	s649
349.901	1.695	-1.5906256340558675	draw_card	1.0	columbia_card_task_fmri	16.0	0.7857142857142857	89.0	-70.0	0.2142857142857142	15.0	2.0	3.0	1.868882671202087	1.695	2.0	stim	s649
351.601	2.25	n/a	-1.0	n/a	columbia_card_task_fmri	n/a	n/a	-1.0	n/a	n/a	n/a	n/a	n/a	n/a	n/a	n/a	feedback	s649
353.851	0.476	n/a	-1.0	n/a	columbia_card_task_fmri	n/a	n/a	-1.0	n/a	n/a	n/a	n/a	n/a	n/a	n/a	n/a	ITI	s649
354.33	1.705	0.0254457945155612	draw_card	0.0	columbia_card_task_fmri	14.0	0.8125	89.0	-65.0	0.1875	16.0	1.0	3.0	-2.5830312122375148	1.705	n/a	stim	s649
356.039	0.595	-0.9620542054844377	end_round	0.0	columbia_card_task_fmri	14.0	0.8	71.0	-65.0	0.2	16.0	2.0	3.0	-1.817984433056452	0.595	1.0	stim	s649
356.64	2.25	n/a	-1.0	n/a	columbia_card_task_fmri	n/a	n/a	-1.0	n/a	n/a	n/a	n/a	n/a	n/a	n/a	n/a	feedback	s649
358.89	0.204	n/a	-1.0	n/a	columbia_card_task_fmri	n/a	n/a	-1.0	n/a	n/a	n/a	n/a	n/a	n/a	n/a	n/a	ITI	s649
359.1	1.192	-0.2245542054844387	draw_card	0.0	columbia_card_task_fmri	16.0	0.8125	89.0	-75.0	0.1875	16.0	1.0	3.0	2.099216592582671	1.192	n/a	stim	s649
360.296	1.653	-1.362054205484438	draw_card	0.0	columbia_card_task_fmri	16.0	0.8	89.0	-75.0	0.2	16.0	2.0	3.0	2.980551184467941	1.653	n/a	stim	s649
361.954	0.622	-2.662054205484437	end_round	0.0	columbia_card_task_fmri	16.0	0.7857142857142857	71.0	-75.0	0.2142857142857142	16.0	3.0	3.0	3.9199657643238903	0.622	2.0	stim	s649
362.582	2.25	n/a	-1.0	n/a	columbia_card_task_fmri	n/a	n/a	-1.0	n/a	n/a	n/a	n/a	n/a	n/a	n/a	n/a	feedback	s649
364.832	0.068	n/a	-1.0	n/a	columbia_card_task_fmri	n/a	n/a	-1.0	n/a	n/a	n/a	n/a	n/a	n/a	n/a	n/a	ITI	s649
364.904	0.772	4.037945794515562	draw_card	1.0	columbia_card_task_fmri	16.0	0.8666666666666667	89.0	-80.0	0.1333333333333333	15.0	1.0	2.0	-0.7846112937972833	0.772	1.0	stim	s649
365.681	2.25	n/a	-1.0	n/a	columbia_card_task_fmri	n/a	n/a	-1.0	n/a	n/a	n/a	n/a	n/a	n/a	n/a	n/a	feedback	s649
367.931	0.068	n/a	-1.0	n/a	columbia_card_task_fmri	n/a	n/a	-1.0	n/a	n/a	n/a	n/a	n/a	n/a	n/a	n/a	ITI	s649
368.004	1.699	4.9046124611822295	draw_card	0.0	columbia_card_task_fmri	17.0	0.8666666666666667	89.0	-80.0	0.1333333333333333	15.0	1.0	2.0	-0.4447875134605965	1.699	n/a	stim	s649
369.705	0.53	3.980802937372707	draw_card	0.0	columbia_card_task_fmri	17.0	0.8571428571428572	89.0	-80.0	0.1428571428571428	15.0	2.0	2.0	0.5241783616478273	0.53	n/a	stim	s649
370.239	0.608	2.914868871438638	end_round	0.0	columbia_card_task_fmri	17.0	0.8461538461538461	71.0	-80.0	0.1538461538461538	15.0	3.0	2.0	1.578655069836671	0.608	2.0	stim	s649
370.852	2.25	n/a	-1.0	n/a	columbia_card_task_fmri	n/a	n/a	-1.0	n/a	n/a	n/a	n/a	n/a	n/a	n/a	n/a	feedback	s649
373.102	0.34	n/a	-1.0	n/a	columbia_card_task_fmri	n/a	n/a	-1.0	n/a	n/a	n/a	n/a	n/a	n/a	n/a	n/a	ITI	s649
373.447	0.803	0.8379457945155613	end_round	0.0	columbia_card_task_fmri	1.0	0.9375	71.0	-15.0	0.0625	16.0	1.0	1.0	-29.466498253455303	0.803	0.0	stim	s649
374.255	2.25	n/a	-1.0	n/a	columbia_card_task_fmri	n/a	n/a	-1.0	n/a	n/a	n/a	n/a	n/a	n/a	n/a	n/a	feedback	s649
376.505	0.476	n/a	-1.0	n/a	columbia_card_task_fmri	n/a	n/a	-1.0	n/a	n/a	n/a	n/a	n/a	n/a	n/a	n/a	ITI	s649
376.986	1.73	3.962945794515561	end_round	0.0	columbia_card_task_fmri	10.0	0.9375	71.0	-100.0	0.0625	16.0	1.0	1.0	-6.7891501537843695	1.73	0.0	stim	s649
378.722	2.25	n/a	-1.0	n/a	columbia_card_task_fmri	n/a	n/a	-1.0	n/a	n/a	n/a	n/a	n/a	n/a	n/a	n/a	feedback	s649
380.972	0.272	n/a	-1.0	n/a	columbia_card_task_fmri	n/a	n/a	-1.0	n/a	n/a	n/a	n/a	n/a	n/a	n/a	n/a	ITI	s649
381.249	1.828	4.587945794515561	draw_card	0.0	columbia_card_task_fmri	15.0	0.875	89.0	-75.0	0.125	16.0	1.0	2.0	-3.65259752130606	1.828	n/a	stim	s649
383.082	0.999	3.837945794515561	end_round	0.0	columbia_card_task_fmri	15.0	0.8666666666666667	71.0	-75.0	0.1333333333333333	16.0	2.0	2.0	-2.82350227177696	0.999	1.0	stim	s649
384.087	2.25	n/a	-1.0	n/a	columbia_card_task_fmri	n/a	n/a	-1.0	n/a	n/a	n/a	n/a	n/a	n/a	n/a	n/a	feedback	s649
386.337	0.884	n/a	-1.0	n/a	columbia_card_task_fmri	n/a	n/a	-1.0	n/a	n/a	n/a	n/a	n/a	n/a	n/a	n/a	ITI	s649
387.226	1.784	4.837945794515561	draw_card	0.0	columbia_card_task_fmri	16.0	0.875	89.0	-80.0	0.125	16.0	1.0	2.0	-1.6690208184012365	1.784	n/a	stim	s649
389.015	1.446	4.037945794515562	draw_card	1.0	columbia_card_task_fmri	16.0	0.8666666666666667	89.0	-80.0	0.1333333333333333	16.0	2.0	2.0	-0.7846112937972833	1.446	2.0	stim	s649
390.466	2.25	n/a	-1.0	n/a	columbia_card_task_fmri	n/a	n/a	-1.0	n/a	n/a	n/a	n/a	n/a	n/a	n/a	n/a	feedback	s649
392.716	0.136	n/a	-1.0	n/a	columbia_card_task_fmri	n/a	n/a	-1.0	n/a	n/a	n/a	n/a	n/a	n/a	n/a	n/a	ITI	s649
392.857	1.244	2.0254457945155613	end_round	0.0	columbia_card_task_fmri	4.0	0.6875	71.0	-5.0	0.3125	16.0	1.0	5.0	-29.17415455528749	1.244	0.0	stim	s649
394.106	2.25	n/a	-1.0	n/a	columbia_card_task_fmri	n/a	n/a	-1.0	n/a	n/a	n/a	n/a	n/a	n/a	n/a	n/a	feedback	s649
396.356	0.136	n/a	-1.0	n/a	columbia_card_task_fmri	n/a	n/a	-1.0	n/a	n/a	n/a	n/a	n/a	n/a	n/a	n/a	ITI	s649
396.497	1.892	-0.828720872151103	draw_card	1.0	columbia_card_task_fmri	14.0	0.8333333333333334	89.0	-80.0	0.1666666666666666	6.0	1.0	1.0	1.6126593889867564	1.892	1.0	stim	s649
398.393	2.25	n/a	-1.0	n/a	columbia_card_task_fmri	n/a	n/a	-1.0	n/a	n/a	n/a	n/a	n/a	n/a	n/a	n/a	feedback	s649
400.643	0.068	n/a	-1.0	n/a	columbia_card_task_fmri	n/a	n/a	-1.0	n/a	n/a	n/a	n/a	n/a	n/a	n/a	n/a	ITI	s649
400.715	2.369	0.8379457945155613	draw_card	0.0	columbia_card_task_fmri	15.0	0.8333333333333334	89.0	-75.0	0.1666666666666666	6.0	1.0	1.0	0.1223926120483156	2.369	n/a	stim	s649
403.087	0.458	-2.1620542054844387	end_round	0.0	columbia_card_task_fmri	15.0	0.8	71.0	-75.0	0.2	6.0	2.0	1.0	2.5806583076505376	0.458	1.0	stim	s649
403.551	2.25	n/a	-1.0	n/a	columbia_card_task_fmri	n/a	n/a	-1.0	n/a	n/a	n/a	n/a	n/a	n/a	n/a	n/a	feedback	s649
405.801	0.068	n/a	-1.0	n/a	columbia_card_task_fmri	n/a	n/a	-1.0	n/a	n/a	n/a	n/a	n/a	n/a	n/a	n/a	ITI	s649
405.874	0.718	2.504612461182229	draw_card	0.0	columbia_card_task_fmri	16.0	0.8333333333333334	89.0	-70.0	0.1666666666666666	6.0	1.0	1.0	-1.3678327704894144	0.718	n/a	stim	s649
406.597	0.483	-0.362054205484438	end_round	0.0	columbia_card_task_fmri	16.0	0.8	71.0	-70.0	0.2	6.0	2.0	1.0	0.9811117020354416	0.483	1.0	stim	s649
407.085	2.25	n/a	-1.0	n/a	columbia_card_task_fmri	n/a	n/a	-1.0	n/a	n/a	n/a	n/a	n/a	n/a	n/a	n/a	feedback	s649
409.335	0.612	n/a	-1.0	n/a	columbia_card_task_fmri	n/a	n/a	-1.0	n/a	n/a	n/a	n/a	n/a	n/a	n/a	n/a	ITI	s649
409.954	1.72	3.0879457945155613	draw_card	0.0	columbia_card_task_fmri	23.0	0.75	89.0	-60.0	0.25	8.0	1.0	2.0	2.5207288240200256	1.72	n/a	stim	s649
411.677	0.511	0.1236600802298495	draw_card	1.0	columbia_card_task_fmri	23.0	0.7142857142857143	89.0	-60.0	0.2857142857142857	8.0	2.0	2.0	4.075847449013686	0.511	2.0	stim	s649
412.194	2.25	n/a	-1.0	n/a	columbia_card_task_fmri	n/a	n/a	-1.0	n/a	n/a	n/a	n/a	n/a	n/a	n/a	n/a	feedback	s649
414.444	0.476	n/a	-1.0	n/a	columbia_card_task_fmri	n/a	n/a	-1.0	n/a	n/a	n/a	n/a	n/a	n/a	n/a	n/a	ITI	s649
414.925	1.152	3.5879457945155613	draw_card	1.0	columbia_card_task_fmri	27.0	0.75	89.0	-70.0	0.25	8.0	1.0	2.0	8.581497274978297	1.152	1.0	stim	s649
416.083	2.25	n/a	-1.0	n/a	columbia_card_task_fmri	n/a	n/a	-1.0	n/a	n/a	n/a	n/a	n/a	n/a	n/a	n/a	feedback	s649
418.333	0.0	n/a	-1.0	n/a	columbia_card_task_fmri	n/a	n/a	-1.0	n/a	n/a	n/a	n/a	n/a	n/a	n/a	n/a	ITI	s649
418.338	0.633	-1.162054205484437	draw_card	0.0	columbia_card_task_fmri	16.0	0.7777777777777778	89.0	-65.0	0.2222222222222222	9.0	1.0	2.0	0.2562478311333223	0.633	n/a	stim	s649
418.975	1.132	-3.4120542054844387	draw_card	0.0	columbia_card_task_fmri	16.0	0.75	89.0	-65.0	0.25	9.0	2.0	2.0	1.654944514391211	1.132	n/a	stim	s649
420.111	0.558	-6.304911348341579	end_round	0.0	columbia_card_task_fmri	16.0	0.7142857142857143	71.0	-65.0	0.2857142857142857	9.0	3.0	2.0	3.172570646188433	0.558	2.0	stim	s649
420.675	2.25	n/a	-1.0	n/a	columbia_card_task_fmri	n/a	n/a	-1.0	n/a	n/a	n/a	n/a	n/a	n/a	n/a	n/a	feedback	s649
422.925	0.068	n/a	-1.0	n/a	columbia_card_task_fmri	n/a	n/a	-1.0	n/a	n/a	n/a	n/a	n/a	n/a	n/a	n/a	ITI	s649
422.998	0.778	4.037945794515562	draw_card	0.0	columbia_card_task_fmri	13.0	0.9	89.0	-85.0	0.1	10.0	1.0	1.0	-4.017153542912677	0.778	n/a	stim	s649
423.781	0.647	2.949056905626672	end_round	0.0	columbia_card_task_fmri	13.0	0.8888888888888888	71.0	-85.0	0.1111111111111111	10.0	2.0	1.0	-2.619266744328033	0.647	1.0	stim	s649
424.433	2.25	n/a	-1.0	n/a	columbia_card_task_fmri	n/a	n/a	-1.0	n/a	n/a	n/a	n/a	n/a	n/a	n/a	n/a	feedback	s649
426.683	0.204	n/a	-1.0	n/a	columbia_card_task_fmri	n/a	n/a	-1.0	n/a	n/a	n/a	n/a	n/a	n/a	n/a	n/a	ITI	s649
426.891	0.499	-0.9620542054844377	draw_card	0.0	columbia_card_task_fmri	14.0	0.8	89.0	-65.0	0.2	10.0	1.0	2.0	-1.817984433056452	0.499	n/a	stim	s649
427.394	1.428	-2.7176097610399923	end_round	0.0	columbia_card_task_fmri	14.0	0.7777777777777778	71.0	-65.0	0.2222222222222222	10.0	2.0	2.0	-0.5749677780225824	1.428	1.0	stim	s649
428.829	2.25	n/a	-1.0	n/a	columbia_card_task_fmri	n/a	n/a	-1.0	n/a	n/a	n/a	n/a	n/a	n/a	n/a	n/a	feedback	s649
431.079	0.272	n/a	-1.0	n/a	columbia_card_task_fmri	n/a	n/a	-1.0	n/a	n/a	n/a	n/a	n/a	n/a	n/a	n/a	ITI	s649
431.356	0.706	0.4379457945155627	draw_card	0.0	columbia_card_task_fmri	17.0	0.8	89.0	-70.0	0.2	10.0	1.0	2.0	1.380994446553366	0.706	n/a	stim	s649
432.066	0.683	-1.4953875388177709	draw_card	0.0	columbia_card_task_fmri	17.0	0.7777777777777778	89.0	-70.0	0.2222222222222222	10.0	2.0	2.0	2.7499674028175605	0.683	n/a	stim	s649
432.753	0.434	-3.912054205484439	end_round	0.0	columbia_card_task_fmri	17.0	0.75	71.0	-70.0	0.25	10.0	3.0	2.0	4.252330684807511	0.434	2.0	stim	s649
433.194	2.25	n/a	-1.0	n/a	columbia_card_task_fmri	n/a	n/a	-1.0	n/a	n/a	n/a	n/a	n/a	n/a	n/a	n/a	feedback	s649
435.444	0.068	n/a	-1.0	n/a	columbia_card_task_fmri	n/a	n/a	-1.0	n/a	n/a	n/a	n/a	n/a	n/a	n/a	n/a	ITI	s649
435.516	1.404	-0.8287208721511048	draw_card	0.0	columbia_card_task_fmri	13.0	0.8333333333333334	89.0	-75.0	0.1666666666666666	12.0	1.0	2.0	-0.6227256060872719	1.404	n/a	stim	s649
436.926	0.515	-2.1620542054844405	end_round	0.0	columbia_card_task_fmri	13.0	0.8181818181818181	71.0	-75.0	0.1818181818181818	12.0	2.0	2.0	0.5223751151831166	0.515	1.0	stim	s649
437.447	2.25	n/a	-1.0	n/a	columbia_card_task_fmri	n/a	n/a	-1.0	n/a	n/a	n/a	n/a	n/a	n/a	n/a	n/a	feedback	s649
439.697	0.272	n/a	-1.0	n/a	columbia_card_task_fmri	n/a	n/a	-1.0	n/a	n/a	n/a	n/a	n/a	n/a	n/a	n/a	ITI	s649
439.974	2.436	0.8379457945155631	draw_card	0.0	columbia_card_task_fmri	14.0	0.8333333333333334	89.0	-70.0	0.1666666666666666	12.0	1.0	2.0	-2.11292809215189	2.436	n/a	stim	s649
442.413	1.008	-0.4347814782117138	draw_card	0.0	columbia_card_task_fmri	14.0	0.8181818181818181	89.0	-70.0	0.1818181818181818	12.0	2.0	2.0	-1.019910995623519	1.008	n/a	stim	s649
443.425	0.492	-1.9620542054844377	end_round	0.0	columbia_card_task_fmri	14.0	0.8	71.0	-70.0	0.2	12.0	3.0	2.0	0.1813545845617028	0.492	2.0	stim	s649
443.923	2.25	n/a	-1.0	n/a	columbia_card_task_fmri	n/a	n/a	-1.0	n/a	n/a	n/a	n/a	n/a	n/a	n/a	n/a	feedback	s649
446.173	0.748	n/a	-1.0	n/a	columbia_card_task_fmri	n/a	n/a	-1.0	n/a	n/a	n/a	n/a	n/a	n/a	n/a	n/a	ITI	s649
446.926	1.459	0.8379457945155631	draw_card	0.0	columbia_card_task_fmri	16.0	0.8333333333333334	89.0	-80.0	0.1666666666666666	12.0	1.0	2.0	2.3578066843192147	1.459	n/a	stim	s649
448.389	1.247	-0.6165996600298955	draw_card	0.0	columbia_card_task_fmri	16.0	0.8181818181818181	89.0	-80.0	0.1818181818181818	12.0	2.0	2.0	3.607070366079739	1.247	n/a	stim	s649
449.641	0.14	-2.362054205484438	draw_card	0.0	columbia_card_task_fmri	16.0	0.8	89.0	-80.0	0.2	12.0	3.0	2.0	4.98004903211519	0.14	n/a	stim	s649
449.785	0.782	-4.495387538817773	end_round	0.0	columbia_card_task_fmri	16.0	0.7777777777777778	71.0	-80.0	0.2222222222222222	12.0	4.0	2.0	6.490715141396166	0.782	3.0	stim	s649
450.573	2.25	n/a	-1.0	n/a	columbia_card_task_fmri	n/a	n/a	-1.0	n/a	n/a	n/a	n/a	n/a	n/a	n/a	n/a	feedback	s649
452.823	0.068	n/a	-1.0	n/a	columbia_card_task_fmri	n/a	n/a	-1.0	n/a	n/a	n/a	n/a	n/a	n/a	n/a	n/a	ITI	s649
452.896	1.948	0.637945794515562	draw_card	0.0	columbia_card_task_fmri	16.0	0.8	89.0	-65.0	0.2	15.0	1.0	3.0	-1.0182586134484453	1.948	n/a	stim	s649
454.849	0.718	-0.5191970626272946	end_round	0.0	columbia_card_task_fmri	16.0	0.7857142857142857	71.0	-65.0	0.2142857142857142	15.0	2.0	3.0	-0.1821329925702173	0.718	1.0	stim	s649
455.573	2.25	n/a	-1.0	n/a	columbia_card_task_fmri	n/a	n/a	-1.0	n/a	n/a	n/a	n/a	n/a	n/a	n/a	n/a	feedback	s649
457.823	0.0	n/a	-1.0	n/a	columbia_card_task_fmri	n/a	n/a	-1.0	n/a	n/a	n/a	n/a	n/a	n/a	n/a	n/a	ITI	s649
457.828	1.743	-1.0370542054844387	end_round	0.0	columbia_card_task_fmri	15.0	0.8125	71.0	-75.0	0.1875	16.0	1.0	3.0	1.7090139974663143	1.743	0.0	stim	s649
459.576	2.25	n/a	-1.0	n/a	columbia_card_task_fmri	n/a	n/a	-1.0	n/a	n/a	n/a	n/a	n/a	n/a	n/a	n/a	feedback	s649
461.826	0.204	n/a	-1.0	n/a	columbia_card_task_fmri	n/a	n/a	-1.0	n/a	n/a	n/a	n/a	n/a	n/a	n/a	n/a	ITI	s649
462.036	1.271	-0.4745542054844387	end_round	0.0	columbia_card_task_fmri	14.0	0.6875	71.0	-35.0	0.3125	16.0	1.0	5.0	-10.701532205247863	1.271	0.0	stim	s649
463.313	2.25	n/a	-1.0	n/a	columbia_card_task_fmri	n/a	n/a	-1.0	n/a	n/a	n/a	n/a	n/a	n/a	n/a	n/a	feedback	s649
465.563	0.068	n/a	-1.0	n/a	columbia_card_task_fmri	n/a	n/a	-1.0	n/a	n/a	n/a	n/a	n/a	n/a	n/a	n/a	ITI	s649
465.637	2.221	4.704612461182228	draw_card	0.0	columbia_card_task_fmri	16.0	0.8666666666666667	89.0	-75.0	0.1333333333333333	15.0	1.0	2.0	-2.4836936695735226	2.221	n/a	stim	s649
467.861	0.473	3.837945794515563	draw_card	0.0	columbia_card_task_fmri	16.0	0.8571428571428572	89.0	-75.0	0.1428571428571428	15.0	2.0	2.0	-1.5747026420779555	0.473	n/a	stim	s649
468.34	0.439	2.8379457945155613	draw_card	0.0	columbia_card_task_fmri	16.0	0.8461538461538461	89.0	-75.0	0.1538461538461538	15.0	3.0	2.0	-0.5854910954260077	0.439	n/a	stim	s649
468.783	0.748	1.6712791278488952	draw_card	0.0	columbia_card_task_fmri	16.0	0.8333333333333334	89.0	-75.0	0.1666666666666666	15.0	4.0	2.0	0.4949556386532023	0.748	n/a	stim	s649
469.536	0.596	0.2924912490610145	end_round	0.0	columbia_card_task_fmri	16.0	0.8181818181818181	71.0	-75.0	0.1818181818181818	15.0	5.0	2.0	1.679118088805062	0.596	4.0	stim	s649
470.138	2.25	n/a	-1.0	n/a	columbia_card_task_fmri	n/a	n/a	-1.0	n/a	n/a	n/a	n/a	n/a	n/a	n/a	n/a	feedback	s649
472.388	0.068	n/a	-1.0	n/a	columbia_card_task_fmri	n/a	n/a	-1.0	n/a	n/a	n/a	n/a	n/a	n/a	n/a	n/a	ITI	s649
472.462	2.515	5.371279127848895	draw_card	0.0	columbia_card_task_fmri	16.0	0.8666666666666667	89.0	-70.0	0.1333333333333333	15.0	1.0	2.0	-4.182707388263935	2.515	n/a	stim	s649
474.981	0.58	4.552231508801277	draw_card	1.0	columbia_card_task_fmri	16.0	0.8571428571428572	89.0	-70.0	0.1428571428571428	15.0	2.0	2.0	-3.323697530358917	0.58	2.0	stim	s649
475.566	2.25	n/a	-1.0	n/a	columbia_card_task_fmri	n/a	n/a	-1.0	n/a	n/a	n/a	n/a	n/a	n/a	n/a	n/a	feedback	s649
477.816	0.34	n/a	-1.0	n/a	columbia_card_task_fmri	n/a	n/a	-1.0	n/a	n/a	n/a	n/a	n/a	n/a	n/a	n/a	ITI	s649
478.162	5.272	2.7129457945155613	draw_card	0.0	columbia_card_task_fmri	8.0	0.9375	89.0	-90.0	0.0625	16.0	1.0	1.0	-9.692274511826376	5.272	n/a	stim	s649
483.438	0.529	2.304612461182228	draw_card	0.0	columbia_card_task_fmri	8.0	0.9333333333333332	89.0	-90.0	0.0666666666666666	16.0	2.0	1.0	-8.969240181815373	0.529	n/a	stim	s649
483.972	0.502	1.8379457945155624	draw_card	0.0	columbia_card_task_fmri	8.0	0.9285714285714286	89.0	-90.0	0.0714285714285714	16.0	3.0	1.0	-8.176327241382854	0.502	n/a	stim	s649
484.479	0.603	1.299484256054023	draw_card	0.0	columbia_card_task_fmri	8.0	0.9230769230769232	89.0	-90.0	0.0769230769230769	16.0	4.0	1.0	-7.301655166595125	0.603	n/a	stim	s649
485.087	0.58	0.6712791278488943	draw_card	0.0	columbia_card_task_fmri	8.0	0.9166666666666666	89.0	-90.0	0.0833333333333333	16.0	5.0	1.0	-6.330364815853443	0.58	n/a	stim	s649
485.672	0.764	-0.0711451145753478	draw_card	0.0	columbia_card_task_fmri	8.0	0.9090909090909092	89.0	-90.0	0.0909090909090909	16.0	6.0	1.0	-5.243614652758261	0.764	n/a	stim	s649
486.441	0.66	-0.9620542054844384	end_round	0.0	columbia_card_task_fmri	8.0	0.9	71.0	-90.0	0.1	16.0	7.0	1.0	-4.017153542912677	0.66	6.0	stim	s649
487.108	2.25	n/a	-1.0	n/a	columbia_card_task_fmri	n/a	n/a	-1.0	n/a	n/a	n/a	n/a	n/a	n/a	n/a	n/a	feedback	s649
489.358	0.0	n/a	-1.0	n/a	columbia_card_task_fmri	n/a	n/a	-1.0	n/a	n/a	n/a	n/a	n/a	n/a	n/a	n/a	ITI	s649
489.363	1.902	4.275445794515561	draw_card	0.0	columbia_card_task_fmri	10.0	0.9375	89.0	-95.0	0.0625	16.0	1.0	1.0	-7.9988300759276	1.902	n/a	stim	s649
491.269	0.455	3.837945794515562	draw_card	0.0	columbia_card_task_fmri	10.0	0.9333333333333332	89.0	-95.0	0.0666666666666666	16.0	2.0	1.0	-7.224090053734283	0.455	n/a	stim	s649
491.729	0.38	3.337945794515562	draw_card	0.0	columbia_card_task_fmri	10.0	0.9285714285714286	89.0	-95.0	0.0714285714285714	16.0	3.0	1.0	-6.374478231625169	0.38	n/a	stim	s649
492.114	0.436	2.7610227175924846	draw_card	0.0	columbia_card_task_fmri	10.0	0.9230769230769232	89.0	-95.0	0.0769230769230769	16.0	4.0	1.0	-5.437265301710824	0.436	n/a	stim	s649
492.555	0.079	2.0879457945155613	draw_card	0.0	columbia_card_task_fmri	10.0	0.9166666666666666	89.0	-95.0	0.0833333333333333	16.0	5.0	1.0	-4.396530552857865	0.079	n/a	stim	s649
492.639	0.852	1.2924912490610143	end_round	0.0	columbia_card_task_fmri	10.0	0.9090909090909092	71.0	-95.0	0.0909090909090909	16.0	6.0	1.0	-3.2320863899492167	0.852	5.0	stim	s649
493.497	2.25	n/a	-1.0	n/a	columbia_card_task_fmri	n/a	n/a	-1.0	n/a	n/a	n/a	n/a	n/a	n/a	n/a	n/a	feedback	s649
495.747	0.0	n/a	-1.0	n/a	columbia_card_task_fmri	n/a	n/a	-1.0	n/a	n/a	n/a	n/a	n/a	n/a	n/a	n/a	ITI	s649
495.753	1.715	5.212945794515561	draw_card	0.0	columbia_card_task_fmri	15.0	0.875	89.0	-70.0	0.125	16.0	1.0	2.0	-5.305498700260184	1.715	n/a	stim	s649
497.472	0.165	4.504612461182227	draw_card	0.0	columbia_card_task_fmri	15.0	0.8666666666666667	89.0	-70.0	0.1333333333333333	16.0	2.0	2.0	-4.522500827800496	0.165	n/a	stim	s649
497.643	0.649	3.695088651658419	draw_card	0.0	columbia_card_task_fmri	15.0	0.8571428571428572	89.0	-70.0	0.1428571428571428	16.0	3.0	2.0	-3.673487468894304	0.649	n/a	stim	s649
498.296	0.571	2.761022717592483	end_round	0.0	columbia_card_task_fmri	15.0	0.8461538461538461	71.0	-70.0	0.1538461538461538	16.0	4.0	2.0	-2.749543976647296	0.571	3.0	stim	s649
498.874	2.25	n/a	-1.0	n/a	columbia_card_task_fmri	n/a	n/a	-1.0	n/a	n/a	n/a	n/a	n/a	n/a	n/a	n/a	feedback	s649
501.124	0.272	n/a	-1.0	n/a	columbia_card_task_fmri	n/a	n/a	-1.0	n/a	n/a	n/a	n/a	n/a	n/a	n/a	n/a	ITI	s649
501.4	1.275	4.212945794515561	draw_card	0.0	columbia_card_task_fmri	16.0	0.875	89.0	-85.0	0.125	16.0	1.0	2.0	-0.0159733965144113	1.275	n/a	stim	s649
502.68	0.62	3.3712791278488945	draw_card	1.0	columbia_card_task_fmri	16.0	0.8666666666666667	89.0	-85.0	0.1333333333333333	16.0	2.0	2.0	0.9145295490480834	0.62	2.0	stim	s649
503.306	2.25	n/a	-1.0	n/a	columbia_card_task_fmri	n/a	n/a	-1.0	n/a	n/a	n/a	n/a	n/a	n/a	n/a	n/a	feedback	s649
505.556	0.204	n/a	-1.0	n/a	columbia_card_task_fmri	n/a	n/a	-1.0	n/a	n/a	n/a	n/a	n/a	n/a	n/a	n/a	ITI	s649
