onset	duration	planning	condition	current_position	exp_stage	experiment_exp_id	goal_state	key_press	problem_id	response_time	start_state	trial_id	worker_id
-80.612	0.0	0	n/a	n/a	n/a	ward_and_allport	n/a	32.0	n/a	33.577	n/a	instructions	s608
3.01	4.658	1	UA_with_intermediate	0,0,0,2,3,0,0,0,0	practice	ward_and_allport	1,2,3,0,0,0,0,0,0	89.0	0.0	4.658	1,0,0,2,3,0,0,0,0	to_hand	s608
7.67	1.846	0	UA_with_intermediate	0,0,0,2,3,0,1,0,0	practice	ward_and_allport	1,2,3,0,0,0,0,0,0	82.0	0.0	1.846	1,0,0,2,3,0,0,0,0	to_board	s608
9.519	1.752	0	UA_with_intermediate	0,0,0,2,0,0,1,0,0	practice	ward_and_allport	1,2,3,0,0,0,0,0,0	71.0	0.0	1.752	1,0,0,2,3,0,0,0,0	to_hand	s608
11.272	2.52	0	UA_with_intermediate	0,0,0,2,3,0,1,0,0	practice	ward_and_allport	1,2,3,0,0,0,0,0,0	71.0	0.0	2.52	1,0,0,2,3,0,0,0,0	to_board	s608
13.794	1.935	0	UA_with_intermediate	0,0,0,2,3,0,0,0,0	practice	ward_and_allport	1,2,3,0,0,0,0,0,0	82.0	0.0	1.935	1,0,0,2,3,0,0,0,0	to_hand	s608
15.731	0.925	0	UA_with_intermediate	1,0,0,2,3,0,0,0,0	practice	ward_and_allport	1,2,3,0,0,0,0,0,0	89.0	0.0	0.925	1,0,0,2,3,0,0,0,0	to_board	s608
16.658	1.922	0	UA_with_intermediate	1,0,0,2,0,0,0,0,0	practice	ward_and_allport	1,2,3,0,0,0,0,0,0	71.0	0.0	1.922	1,0,0,2,3,0,0,0,0	to_hand	s608
18.582	0.571	0	UA_with_intermediate	1,0,0,2,0,0,3,0,0	practice	ward_and_allport	1,2,3,0,0,0,0,0,0	82.0	0.0	0.571	1,0,0,2,3,0,0,0,0	to_board	s608
19.156	0.708	0	UA_with_intermediate	1,0,0,0,0,0,3,0,0	practice	ward_and_allport	1,2,3,0,0,0,0,0,0	71.0	0.0	0.708	1,0,0,2,3,0,0,0,0	to_hand	s608
19.866	0.57	0	UA_with_intermediate	1,2,0,0,0,0,3,0,0	practice	ward_and_allport	1,2,3,0,0,0,0,0,0	89.0	0.0	0.57	1,0,0,2,3,0,0,0,0	to_board	s608
20.439	1.142	0	UA_with_intermediate	1,2,0,0,0,0,0,0,0	practice	ward_and_allport	1,2,3,0,0,0,0,0,0	82.0	0.0	1.142	1,0,0,2,3,0,0,0,0	to_hand	s608
21.583	1.133	0	UA_with_intermediate	1,2,3,0,0,0,0,0,0	practice	ward_and_allport	1,2,3,0,0,0,0,0,0	89.0	0.0	1.133	1,0,0,2,3,0,0,0,0	to_board	s608
22.72	1.0	0	UA_with_intermediate	n/a	practice	ward_and_allport	n/a	-1.0	0.0	n/a	n/a	feedback	s608
25.222	4.452	1	UA_with_intermediate	1,0,0,3,0,0,0,0,0	practice	ward_and_allport	1,3,2,0,0,0,0,0,0	89.0	1.0	4.452	1,2,0,3,0,0,0,0,0	to_hand	s608
29.676	2.738	0	UA_with_intermediate	1,0,0,3,0,0,2,0,0	practice	ward_and_allport	1,3,2,0,0,0,0,0,0	82.0	1.0	2.738	1,2,0,3,0,0,0,0,0	to_board	s608
32.416	1.643	0	UA_with_intermediate	1,0,0,0,0,0,2,0,0	practice	ward_and_allport	1,3,2,0,0,0,0,0,0	71.0	1.0	1.643	1,2,0,3,0,0,0,0,0	to_hand	s608
34.06	0.406	0	UA_with_intermediate	1,3,0,0,0,0,2,0,0	practice	ward_and_allport	1,3,2,0,0,0,0,0,0	89.0	1.0	0.406	1,2,0,3,0,0,0,0,0	to_board	s608
34.467	0.597	0	UA_with_intermediate	1,3,0,0,0,0,0,0,0	practice	ward_and_allport	1,3,2,0,0,0,0,0,0	82.0	1.0	0.597	1,2,0,3,0,0,0,0,0	to_hand	s608
35.066	0.349	0	UA_with_intermediate	1,3,2,0,0,0,0,0,0	practice	ward_and_allport	1,3,2,0,0,0,0,0,0	89.0	1.0	0.349	1,2,0,3,0,0,0,0,0	to_board	s608
35.419	1.0	0	UA_with_intermediate	n/a	practice	ward_and_allport	n/a	-1.0	1.0	n/a	n/a	feedback	s608
36.419	1.1	0	UA_with_intermediate	n/a	practice	ward_and_allport	n/a	-1.0	1.0	n/a	n/a	ITI	s608
37.522	3.471	1	UA_without_intermediate	0,0,0,1,2,0,0,0,0	practice	ward_and_allport	3,2,1,0,0,0,0,0,0	82.0	2.0	3.471	0,0,0,1,2,0,3,0,0	to_hand	s608
40.994	0.522	0	UA_without_intermediate	3,0,0,1,2,0,0,0,0	practice	ward_and_allport	3,2,1,0,0,0,0,0,0	89.0	2.0	0.522	0,0,0,1,2,0,3,0,0	to_board	s608
41.518	2.133	0	UA_without_intermediate	3,0,0,1,0,0,0,0,0	practice	ward_and_allport	3,2,1,0,0,0,0,0,0	71.0	2.0	2.133	0,0,0,1,2,0,3,0,0	to_hand	s608
43.653	0.797	0	UA_without_intermediate	3,0,0,1,0,0,2,0,0	practice	ward_and_allport	3,2,1,0,0,0,0,0,0	82.0	2.0	0.797	0,0,0,1,2,0,3,0,0	to_board	s608
44.453	1.045	0	UA_without_intermediate	3,0,0,0,0,0,2,0,0	practice	ward_and_allport	3,2,1,0,0,0,0,0,0	71.0	2.0	1.045	0,0,0,1,2,0,3,0,0	to_hand	s608
45.5	2.428	0	UA_without_intermediate	3,0,0,1,0,0,2,0,0	practice	ward_and_allport	3,2,1,0,0,0,0,0,0	71.0	2.0	2.428	0,0,0,1,2,0,3,0,0	to_board	s608
47.93	0.769	0	UA_without_intermediate	3,0,0,1,0,0,0,0,0	practice	ward_and_allport	3,2,1,0,0,0,0,0,0	82.0	2.0	0.769	0,0,0,1,2,0,3,0,0	to_hand	s608
48.701	0.833	0	UA_without_intermediate	3,2,0,1,0,0,0,0,0	practice	ward_and_allport	3,2,1,0,0,0,0,0,0	89.0	2.0	0.833	0,0,0,1,2,0,3,0,0	to_board	s608
49.537	0.429	0	UA_without_intermediate	3,2,0,0,0,0,0,0,0	practice	ward_and_allport	3,2,1,0,0,0,0,0,0	71.0	2.0	0.429	0,0,0,1,2,0,3,0,0	to_hand	s608
49.967	0.411	0	UA_without_intermediate	3,2,1,0,0,0,0,0,0	practice	ward_and_allport	3,2,1,0,0,0,0,0,0	89.0	2.0	0.411	0,0,0,1,2,0,3,0,0	to_board	s608
50.381	1.0	0	UA_without_intermediate	n/a	practice	ward_and_allport	n/a	-1.0	2.0	n/a	n/a	feedback	s608
51.381	1.2	0	UA_without_intermediate	n/a	practice	ward_and_allport	n/a	-1.0	2.0	n/a	n/a	ITI	s608
52.584	4.503	1	UA_without_intermediate	0,0,0,1,0,0,3,0,0	practice	ward_and_allport	2,3,1,0,0,0,0,0,0	71.0	3.0	4.503	0,0,0,1,2,0,3,0,0	to_hand	s608
57.089	0.432	0	UA_without_intermediate	2,0,0,1,0,0,3,0,0	practice	ward_and_allport	2,3,1,0,0,0,0,0,0	89.0	3.0	0.432	0,0,0,1,2,0,3,0,0	to_board	s608
57.523	0.965	0	UA_without_intermediate	2,0,0,1,0,0,0,0,0	practice	ward_and_allport	2,3,1,0,0,0,0,0,0	82.0	3.0	0.965	0,0,0,1,2,0,3,0,0	to_hand	s608
58.489	0.525	0	UA_without_intermediate	2,3,0,1,0,0,0,0,0	practice	ward_and_allport	2,3,1,0,0,0,0,0,0	89.0	3.0	0.525	0,0,0,1,2,0,3,0,0	to_board	s608
59.017	0.511	0	UA_without_intermediate	2,3,0,0,0,0,0,0,0	practice	ward_and_allport	2,3,1,0,0,0,0,0,0	71.0	3.0	0.511	0,0,0,1,2,0,3,0,0	to_hand	s608
59.529	0.412	0	UA_without_intermediate	2,3,1,0,0,0,0,0,0	practice	ward_and_allport	2,3,1,0,0,0,0,0,0	89.0	3.0	0.412	0,0,0,1,2,0,3,0,0	to_board	s608
59.947	1.0	0	UA_without_intermediate	n/a	practice	ward_and_allport	n/a	-1.0	3.0	n/a	n/a	feedback	s608
60.947	1.0	0	UA_without_intermediate	n/a	practice	ward_and_allport	n/a	-1.0	3.0	n/a	n/a	ITI	s608
63.954	8.527	1	PA_with_intermediate	0,0,0,0,0,0,1,2,0	test	ward_and_allport	2,0,0,0,0,0,1,3,0	82.0	0.0	8.527	0,0,0,0,0,0,1,2,3	to_hand	s608
72.483	1.443	0	PA_with_intermediate	0,0,0,3,0,0,1,2,0	test	ward_and_allport	2,0,0,0,0,0,1,3,0	71.0	0.0	1.443	0,0,0,0,0,0,1,2,3	to_board	s608
73.929	4.381	0	PA_with_intermediate	0,0,0,3,0,0,1,0,0	test	ward_and_allport	2,0,0,0,0,0,1,3,0	82.0	0.0	4.381	0,0,0,0,0,0,1,2,3	to_hand	s608
78.311	0.636	0	PA_with_intermediate	2,0,0,3,0,0,1,0,0	test	ward_and_allport	2,0,0,0,0,0,1,3,0	89.0	0.0	0.636	0,0,0,0,0,0,1,2,3	to_board	s608
78.95	0.686	0	PA_with_intermediate	2,0,0,0,0,0,1,0,0	test	ward_and_allport	2,0,0,0,0,0,1,3,0	71.0	0.0	0.686	0,0,0,0,0,0,1,2,3	to_hand	s608
79.639	0.424	0	PA_with_intermediate	2,0,0,0,0,0,1,3,0	test	ward_and_allport	2,0,0,0,0,0,1,3,0	82.0	0.0	0.424	0,0,0,0,0,0,1,2,3	to_board	s608
80.067	1.0	0	PA_with_intermediate	n/a	test	ward_and_allport	n/a	-1.0	0.0	n/a	n/a	feedback	s608
81.067	3.176	0	PA_with_intermediate	n/a	test	ward_and_allport	n/a	-1.0	0.0	n/a	n/a	ITI	s608
84.247	5.279	1	PA_with_intermediate	1,2,0,0,0,0,0,0,0	test	ward_and_allport	1,0,0,2,3,0,0,0,0	89.0	1.0	5.279	1,2,3,0,0,0,0,0,0	to_hand	s608
89.528	1.077	0	PA_with_intermediate	1,2,0,0,0,0,3,0,0	test	ward_and_allport	1,0,0,2,3,0,0,0,0	82.0	1.0	1.077	1,2,3,0,0,0,0,0,0	to_board	s608
90.607	0.623	0	PA_with_intermediate	1,0,0,0,0,0,3,0,0	test	ward_and_allport	1,0,0,2,3,0,0,0,0	89.0	1.0	0.623	1,2,3,0,0,0,0,0,0	to_hand	s608
91.231	0.389	0	PA_with_intermediate	1,0,0,2,0,0,3,0,0	test	ward_and_allport	1,0,0,2,3,0,0,0,0	71.0	1.0	0.389	1,2,3,0,0,0,0,0,0	to_board	s608
91.622	0.383	0	PA_with_intermediate	1,0,0,2,0,0,0,0,0	test	ward_and_allport	1,0,0,2,3,0,0,0,0	82.0	1.0	0.383	1,2,3,0,0,0,0,0,0	to_hand	s608
92.006	0.57	0	PA_with_intermediate	1,0,0,2,3,0,0,0,0	test	ward_and_allport	1,0,0,2,3,0,0,0,0	71.0	1.0	0.57	1,2,3,0,0,0,0,0,0	to_board	s608
92.58	1.0	0	PA_with_intermediate	n/a	test	ward_and_allport	n/a	-1.0	1.0	n/a	n/a	feedback	s608
93.58	2.36	0	PA_with_intermediate	n/a	test	ward_and_allport	n/a	-1.0	1.0	n/a	n/a	ITI	s608
95.943	5.246	1	PA_with_intermediate	1,2,0,0,0,0,0,0,0	test	ward_and_allport	1,3,0,2,0,0,0,0,0	89.0	2.0	5.246	1,2,3,0,0,0,0,0,0	to_hand	s608
101.19	0.972	0	PA_with_intermediate	1,2,0,0,0,0,3,0,0	test	ward_and_allport	1,3,0,2,0,0,0,0,0	82.0	2.0	0.972	1,2,3,0,0,0,0,0,0	to_board	s608
102.165	1.204	0	PA_with_intermediate	1,0,0,0,0,0,3,0,0	test	ward_and_allport	1,3,0,2,0,0,0,0,0	89.0	2.0	1.204	1,2,3,0,0,0,0,0,0	to_hand	s608
103.371	0.725	0	PA_with_intermediate	1,0,0,2,0,0,3,0,0	test	ward_and_allport	1,3,0,2,0,0,0,0,0	71.0	2.0	0.725	1,2,3,0,0,0,0,0,0	to_board	s608
104.099	0.496	0	PA_with_intermediate	1,0,0,2,0,0,0,0,0	test	ward_and_allport	1,3,0,2,0,0,0,0,0	82.0	2.0	0.496	1,2,3,0,0,0,0,0,0	to_hand	s608
104.596	0.383	0	PA_with_intermediate	1,3,0,2,0,0,0,0,0	test	ward_and_allport	1,3,0,2,0,0,0,0,0	89.0	2.0	0.383	1,2,3,0,0,0,0,0,0	to_board	s608
104.985	1.0	0	PA_with_intermediate	n/a	test	ward_and_allport	n/a	-1.0	2.0	n/a	n/a	feedback	s608
105.985	1.0	0	PA_with_intermediate	n/a	test	ward_and_allport	n/a	-1.0	2.0	n/a	n/a	ITI	s608
106.989	3.893	1	PA_without_intermediate	1,2,0,0,0,0,0,0,0	test	ward_and_allport	0,0,0,3,1,0,2,0,0	89.0	3.0	3.893	1,2,3,0,0,0,0,0,0	to_hand	s608
110.883	0.655	0	PA_without_intermediate	1,2,0,3,0,0,0,0,0	test	ward_and_allport	0,0,0,3,1,0,2,0,0	71.0	3.0	0.655	1,2,3,0,0,0,0,0,0	to_board	s608
111.541	1.306	0	PA_without_intermediate	1,0,0,3,0,0,0,0,0	test	ward_and_allport	0,0,0,3,1,0,2,0,0	89.0	3.0	1.306	1,2,3,0,0,0,0,0,0	to_hand	s608
112.848	0.415	0	PA_without_intermediate	1,0,0,3,0,0,2,0,0	test	ward_and_allport	0,0,0,3,1,0,2,0,0	82.0	3.0	0.415	1,2,3,0,0,0,0,0,0	to_board	s608
113.267	1.36	0	PA_without_intermediate	0,0,0,3,0,0,2,0,0	test	ward_and_allport	0,0,0,3,1,0,2,0,0	89.0	3.0	1.36	1,2,3,0,0,0,0,0,0	to_hand	s608
114.629	0.474	0	PA_without_intermediate	0,0,0,3,1,0,2,0,0	test	ward_and_allport	0,0,0,3,1,0,2,0,0	71.0	3.0	0.474	1,2,3,0,0,0,0,0,0	to_board	s608
115.107	1.0	0	PA_without_intermediate	n/a	test	ward_and_allport	n/a	-1.0	3.0	n/a	n/a	feedback	s608
116.107	1.408	0	PA_without_intermediate	n/a	test	ward_and_allport	n/a	-1.0	3.0	n/a	n/a	ITI	s608
117.52	4.436	1	PA_with_intermediate	1,2,0,0,0,0,0,0,0	test	ward_and_allport	1,0,0,0,0,0,2,3,0	89.0	4.0	4.436	1,2,3,0,0,0,0,0,0	to_hand	s608
121.958	0.651	0	PA_with_intermediate	1,2,0,3,0,0,0,0,0	test	ward_and_allport	1,0,0,0,0,0,2,3,0	71.0	4.0	0.651	1,2,3,0,0,0,0,0,0	to_board	s608
122.611	0.498	0	PA_with_intermediate	1,0,0,3,0,0,0,0,0	test	ward_and_allport	1,0,0,0,0,0,2,3,0	89.0	4.0	0.498	1,2,3,0,0,0,0,0,0	to_hand	s608
123.11	0.416	0	PA_with_intermediate	1,0,0,3,0,0,2,0,0	test	ward_and_allport	1,0,0,0,0,0,2,3,0	82.0	4.0	0.416	1,2,3,0,0,0,0,0,0	to_board	s608
123.53	0.39	0	PA_with_intermediate	1,0,0,0,0,0,2,0,0	test	ward_and_allport	1,0,0,0,0,0,2,3,0	71.0	4.0	0.39	1,2,3,0,0,0,0,0,0	to_hand	s608
123.922	0.43	0	PA_with_intermediate	1,0,0,0,0,0,2,3,0	test	ward_and_allport	1,0,0,0,0,0,2,3,0	82.0	4.0	0.43	1,2,3,0,0,0,0,0,0	to_board	s608
124.357	1.0	0	PA_with_intermediate	n/a	test	ward_and_allport	n/a	-1.0	4.0	n/a	n/a	feedback	s608
125.357	1.816	0	PA_with_intermediate	n/a	test	ward_and_allport	n/a	-1.0	4.0	n/a	n/a	ITI	s608
127.177	3.044	1	PA_without_intermediate	0,0,0,1,2,0,0,0,0	test	ward_and_allport	3,1,0,0,0,0,2,0,0	71.0	5.0	3.044	0,0,0,1,2,3,0,0,0	to_hand	s608
130.222	0.317	0	PA_without_intermediate	3,0,0,1,2,0,0,0,0	test	ward_and_allport	3,1,0,0,0,0,2,0,0	89.0	5.0	0.317	0,0,0,1,2,3,0,0,0	to_board	s608
130.541	1.401	0	PA_without_intermediate	3,0,0,1,0,0,0,0,0	test	ward_and_allport	3,1,0,0,0,0,2,0,0	71.0	5.0	1.401	0,0,0,1,2,3,0,0,0	to_hand	s608
131.944	0.362	0	PA_without_intermediate	3,0,0,1,0,0,2,0,0	test	ward_and_allport	3,1,0,0,0,0,2,0,0	82.0	5.0	0.362	0,0,0,1,2,3,0,0,0	to_board	s608
132.31	0.978	0	PA_without_intermediate	3,0,0,0,0,0,2,0,0	test	ward_and_allport	3,1,0,0,0,0,2,0,0	71.0	5.0	0.978	0,0,0,1,2,3,0,0,0	to_hand	s608
133.288	0.611	0	PA_without_intermediate	3,1,0,0,0,0,2,0,0	test	ward_and_allport	3,1,0,0,0,0,2,0,0	89.0	5.0	0.611	0,0,0,1,2,3,0,0,0	to_board	s608
133.903	1.0	0	PA_without_intermediate	n/a	test	ward_and_allport	n/a	-1.0	5.0	n/a	n/a	feedback	s608
134.903	2.088	0	PA_without_intermediate	n/a	test	ward_and_allport	n/a	-1.0	5.0	n/a	n/a	ITI	s608
136.996	3.118	1	PA_without_intermediate	1,2,0,0,0,0,0,0,0	test	ward_and_allport	0,0,0,2,0,0,3,1,0	89.0	6.0	3.118	1,2,3,0,0,0,0,0,0	to_hand	s608
140.115	1.451	0	PA_without_intermediate	1,2,0,0,0,0,3,0,0	test	ward_and_allport	0,0,0,2,0,0,3,1,0	82.0	6.0	1.451	1,2,3,0,0,0,0,0,0	to_board	s608
141.57	0.868	0	PA_without_intermediate	1,0,0,0,0,0,3,0,0	test	ward_and_allport	0,0,0,2,0,0,3,1,0	89.0	6.0	0.868	1,2,3,0,0,0,0,0,0	to_hand	s608
142.439	0.354	0	PA_without_intermediate	1,0,0,2,0,0,3,0,0	test	ward_and_allport	0,0,0,2,0,0,3,1,0	71.0	6.0	0.354	1,2,3,0,0,0,0,0,0	to_board	s608
142.797	0.528	0	PA_without_intermediate	0,0,0,2,0,0,3,0,0	test	ward_and_allport	0,0,0,2,0,0,3,1,0	89.0	6.0	0.528	1,2,3,0,0,0,0,0,0	to_hand	s608
143.326	0.586	0	PA_without_intermediate	0,0,0,2,0,0,3,1,0	test	ward_and_allport	0,0,0,2,0,0,3,1,0	82.0	6.0	0.586	1,2,3,0,0,0,0,0,0	to_board	s608
143.917	1.0	0	PA_without_intermediate	n/a	test	ward_and_allport	n/a	-1.0	6.0	n/a	n/a	feedback	s608
144.917	1.136	0	PA_without_intermediate	n/a	test	ward_and_allport	n/a	-1.0	6.0	n/a	n/a	ITI	s608
146.057	2.415	1	PA_without_intermediate	0,0,0,1,2,0,0,0,0	test	ward_and_allport	2,0,0,0,0,0,3,1,0	71.0	7.0	2.415	0,0,0,1,2,3,0,0,0	to_hand	s608
148.474	0.587	0	PA_without_intermediate	0,0,0,1,2,0,3,0,0	test	ward_and_allport	2,0,0,0,0,0,3,1,0	82.0	7.0	0.587	0,0,0,1,2,3,0,0,0	to_board	s608
149.065	1.042	0	PA_without_intermediate	0,0,0,1,0,0,3,0,0	test	ward_and_allport	2,0,0,0,0,0,3,1,0	71.0	7.0	1.042	0,0,0,1,2,3,0,0,0	to_hand	s608
150.109	0.441	0	PA_without_intermediate	2,0,0,1,0,0,3,0,0	test	ward_and_allport	2,0,0,0,0,0,3,1,0	89.0	7.0	0.441	0,0,0,1,2,3,0,0,0	to_board	s608
150.554	0.97	0	PA_without_intermediate	2,0,0,0,0,0,3,0,0	test	ward_and_allport	2,0,0,0,0,0,3,1,0	71.0	7.0	0.97	0,0,0,1,2,3,0,0,0	to_hand	s608
151.525	0.41	0	PA_without_intermediate	2,0,0,0,0,0,3,1,0	test	ward_and_allport	2,0,0,0,0,0,3,1,0	82.0	7.0	0.41	0,0,0,1,2,3,0,0,0	to_board	s608
151.941	1.0	0	PA_without_intermediate	n/a	test	ward_and_allport	n/a	-1.0	7.0	n/a	n/a	feedback	s608
152.941	6.168	0	PA_without_intermediate	n/a	test	ward_and_allport	n/a	-1.0	7.0	n/a	n/a	ITI	s608
159.113	2.942	1	PA_without_intermediate	1,2,0,0,0,0,0,0,0	test	ward_and_allport	0,0,0,1,0,0,3,2,0	89.0	8.0	2.942	1,2,3,0,0,0,0,0,0	to_hand	s608
162.056	0.426	0	PA_without_intermediate	1,2,0,0,0,0,3,0,0	test	ward_and_allport	0,0,0,1,0,0,3,2,0	82.0	8.0	0.426	1,2,3,0,0,0,0,0,0	to_board	s608
162.486	1.439	0	PA_without_intermediate	1,0,0,0,0,0,3,0,0	test	ward_and_allport	0,0,0,1,0,0,3,2,0	89.0	8.0	1.439	1,2,3,0,0,0,0,0,0	to_hand	s608
163.927	0.41	0	PA_without_intermediate	1,0,0,0,0,0,3,2,0	test	ward_and_allport	0,0,0,1,0,0,3,2,0	82.0	8.0	0.41	1,2,3,0,0,0,0,0,0	to_board	s608
164.342	0.351	0	PA_without_intermediate	0,0,0,0,0,0,3,2,0	test	ward_and_allport	0,0,0,1,0,0,3,2,0	89.0	8.0	0.351	1,2,3,0,0,0,0,0,0	to_hand	s608
164.694	0.292	0	PA_without_intermediate	0,0,0,1,0,0,3,2,0	test	ward_and_allport	0,0,0,1,0,0,3,2,0	71.0	8.0	0.292	1,2,3,0,0,0,0,0,0	to_board	s608
164.992	1.0	0	PA_without_intermediate	n/a	test	ward_and_allport	n/a	-1.0	8.0	n/a	n/a	feedback	s608
165.992	1.816	0	PA_without_intermediate	n/a	test	ward_and_allport	n/a	-1.0	8.0	n/a	n/a	ITI	s608
167.814	3.319	1	PA_with_intermediate	0,0,0,1,2,0,0,0,0	test	ward_and_allport	0,0,0,1,0,0,2,3,0	71.0	9.0	3.319	0,0,0,1,2,3,0,0,0	to_hand	s608
171.134	0.349	0	PA_with_intermediate	3,0,0,1,2,0,0,0,0	test	ward_and_allport	0,0,0,1,0,0,2,3,0	89.0	9.0	0.349	0,0,0,1,2,3,0,0,0	to_board	s608
171.488	0.49	0	PA_with_intermediate	3,0,0,1,0,0,0,0,0	test	ward_and_allport	0,0,0,1,0,0,2,3,0	71.0	9.0	0.49	0,0,0,1,2,3,0,0,0	to_hand	s608
171.98	0.374	0	PA_with_intermediate	3,0,0,1,0,0,2,0,0	test	ward_and_allport	0,0,0,1,0,0,2,3,0	82.0	9.0	0.374	0,0,0,1,2,3,0,0,0	to_board	s608
172.358	0.574	0	PA_with_intermediate	0,0,0,1,0,0,2,0,0	test	ward_and_allport	0,0,0,1,0,0,2,3,0	89.0	9.0	0.574	0,0,0,1,2,3,0,0,0	to_hand	s608
172.934	0.873	0	PA_with_intermediate	0,0,0,1,0,0,2,3,0	test	ward_and_allport	0,0,0,1,0,0,2,3,0	82.0	9.0	0.873	0,0,0,1,2,3,0,0,0	to_board	s608
173.816	1.0	0	PA_with_intermediate	n/a	test	ward_and_allport	n/a	-1.0	9.0	n/a	n/a	feedback	s608
174.816	1.952	0	PA_with_intermediate	n/a	test	ward_and_allport	n/a	-1.0	9.0	n/a	n/a	ITI	s608
176.773	2.996	1	PA_with_intermediate	0,0,0,1,2,0,0,0,0	test	ward_and_allport	2,3,0,1,0,0,0,0,0	71.0	10.0	2.996	0,0,0,1,2,3,0,0,0	to_hand	s608
179.771	0.311	0	PA_with_intermediate	0,0,0,1,2,0,3,0,0	test	ward_and_allport	2,3,0,1,0,0,0,0,0	82.0	10.0	0.311	0,0,0,1,2,3,0,0,0	to_board	s608
180.088	0.334	0	PA_with_intermediate	0,0,0,1,0,0,3,0,0	test	ward_and_allport	2,3,0,1,0,0,0,0,0	71.0	10.0	0.334	0,0,0,1,2,3,0,0,0	to_hand	s608
180.424	0.303	0	PA_with_intermediate	2,0,0,1,0,0,3,0,0	test	ward_and_allport	2,3,0,1,0,0,0,0,0	89.0	10.0	0.303	0,0,0,1,2,3,0,0,0	to_board	s608
180.732	0.432	0	PA_with_intermediate	2,0,0,0,0,0,3,0,0	test	ward_and_allport	2,3,0,1,0,0,0,0,0	71.0	10.0	0.432	0,0,0,1,2,3,0,0,0	to_hand	s608
181.166	1.259	0	PA_with_intermediate	2,0,0,1,0,0,3,0,0	test	ward_and_allport	2,3,0,1,0,0,0,0,0	71.0	10.0	1.259	0,0,0,1,2,3,0,0,0	to_board	s608
182.43	0.518	0	PA_with_intermediate	2,0,0,1,0,0,0,0,0	test	ward_and_allport	2,3,0,1,0,0,0,0,0	82.0	10.0	0.518	0,0,0,1,2,3,0,0,0	to_hand	s608
182.949	0.351	0	PA_with_intermediate	2,3,0,1,0,0,0,0,0	test	ward_and_allport	2,3,0,1,0,0,0,0,0	89.0	10.0	0.351	0,0,0,1,2,3,0,0,0	to_board	s608
183.31	1.0	0	PA_with_intermediate	n/a	test	ward_and_allport	n/a	-1.0	10.0	n/a	n/a	feedback	s608
184.31	1.136	0	PA_with_intermediate	n/a	test	ward_and_allport	n/a	-1.0	10.0	n/a	n/a	ITI	s608
185.451	2.68	1	PA_without_intermediate	0,0,0,1,2,0,0,0,0	test	ward_and_allport	3,2,0,0,0,0,1,0,0	71.0	11.0	2.68	0,0,0,1,2,3,0,0,0	to_hand	s608
188.132	0.323	0	PA_without_intermediate	3,0,0,1,2,0,0,0,0	test	ward_and_allport	3,2,0,0,0,0,1,0,0	89.0	11.0	0.323	0,0,0,1,2,3,0,0,0	to_board	s608
188.46	1.064	0	PA_without_intermediate	3,0,0,1,0,0,0,0,0	test	ward_and_allport	3,2,0,0,0,0,1,0,0	71.0	11.0	1.064	0,0,0,1,2,3,0,0,0	to_hand	s608
189.525	0.315	0	PA_without_intermediate	3,2,0,1,0,0,0,0,0	test	ward_and_allport	3,2,0,0,0,0,1,0,0	89.0	11.0	0.315	0,0,0,1,2,3,0,0,0	to_board	s608
189.846	0.389	0	PA_without_intermediate	3,2,0,0,0,0,0,0,0	test	ward_and_allport	3,2,0,0,0,0,1,0,0	71.0	11.0	0.389	0,0,0,1,2,3,0,0,0	to_hand	s608
190.237	0.363	0	PA_without_intermediate	3,2,0,0,0,0,1,0,0	test	ward_and_allport	3,2,0,0,0,0,1,0,0	82.0	11.0	0.363	0,0,0,1,2,3,0,0,0	to_board	s608
190.606	1.0	0	PA_without_intermediate	n/a	test	ward_and_allport	n/a	-1.0	11.0	n/a	n/a	feedback	s608
191.606	1.68	0	PA_without_intermediate	n/a	test	ward_and_allport	n/a	-1.0	11.0	n/a	n/a	ITI	s608
193.292	2.214	1	PA_without_intermediate	0,0,0,1,2,0,0,0,0	test	ward_and_allport	3,1,0,0,0,0,2,0,0	71.0	12.0	2.214	0,0,0,1,2,3,0,0,0	to_hand	s608
195.507	0.305	0	PA_without_intermediate	3,0,0,1,2,0,0,0,0	test	ward_and_allport	3,1,0,0,0,0,2,0,0	89.0	12.0	0.305	0,0,0,1,2,3,0,0,0	to_board	s608
195.817	0.353	0	PA_without_intermediate	3,0,0,1,0,0,0,0,0	test	ward_and_allport	3,1,0,0,0,0,2,0,0	71.0	12.0	0.353	0,0,0,1,2,3,0,0,0	to_hand	s608
196.171	0.431	0	PA_without_intermediate	3,0,0,1,0,0,2,0,0	test	ward_and_allport	3,1,0,0,0,0,2,0,0	82.0	12.0	0.431	0,0,0,1,2,3,0,0,0	to_board	s608
196.608	0.373	0	PA_without_intermediate	3,0,0,0,0,0,2,0,0	test	ward_and_allport	3,1,0,0,0,0,2,0,0	71.0	12.0	0.373	0,0,0,1,2,3,0,0,0	to_hand	s608
196.982	0.551	0	PA_without_intermediate	3,1,0,0,0,0,2,0,0	test	ward_and_allport	3,1,0,0,0,0,2,0,0	89.0	12.0	0.551	0,0,0,1,2,3,0,0,0	to_board	s608
197.538	1.0	0	PA_without_intermediate	n/a	test	ward_and_allport	n/a	-1.0	12.0	n/a	n/a	feedback	s608
198.538	2.088	0	PA_without_intermediate	n/a	test	ward_and_allport	n/a	-1.0	12.0	n/a	n/a	ITI	s608
200.631	4.01	1	PA_with_intermediate	1,2,0,0,0,0,0,0,0	test	ward_and_allport	1,3,0,0,0,0,2,0,0	89.0	13.0	4.01	1,2,3,0,0,0,0,0,0	to_hand	s608
204.643	1.153	0	PA_with_intermediate	1,2,0,3,0,0,0,0,0	test	ward_and_allport	1,3,0,0,0,0,2,0,0	71.0	13.0	1.153	1,2,3,0,0,0,0,0,0	to_board	s608
205.802	0.34	0	PA_with_intermediate	1,0,0,3,0,0,0,0,0	test	ward_and_allport	1,3,0,0,0,0,2,0,0	89.0	13.0	0.34	1,2,3,0,0,0,0,0,0	to_hand	s608
206.144	0.327	0	PA_with_intermediate	1,0,0,3,0,0,2,0,0	test	ward_and_allport	1,3,0,0,0,0,2,0,0	82.0	13.0	0.327	1,2,3,0,0,0,0,0,0	to_board	s608
206.476	0.355	0	PA_with_intermediate	1,0,0,0,0,0,2,0,0	test	ward_and_allport	1,3,0,0,0,0,2,0,0	71.0	13.0	0.355	1,2,3,0,0,0,0,0,0	to_hand	s608
206.833	0.441	0	PA_with_intermediate	1,3,0,0,0,0,2,0,0	test	ward_and_allport	1,3,0,0,0,0,2,0,0	89.0	13.0	0.441	1,2,3,0,0,0,0,0,0	to_board	s608
207.282	1.0	0	PA_with_intermediate	n/a	test	ward_and_allport	n/a	-1.0	13.0	n/a	n/a	feedback	s608
208.282	1.0	0	PA_with_intermediate	n/a	test	ward_and_allport	n/a	-1.0	13.0	n/a	n/a	ITI	s608
209.287	4.675	1	PA_without_intermediate	0,0,0,0,0,0,1,2,0	test	ward_and_allport	2,0,0,3,1,0,0,0,0	82.0	14.0	4.675	0,0,0,0,0,0,1,2,3	to_hand	s608
213.963	0.781	0	PA_without_intermediate	0,0,0,3,0,0,1,2,0	test	ward_and_allport	2,0,0,3,1,0,0,0,0	71.0	14.0	0.781	0,0,0,0,0,0,1,2,3	to_board	s608
214.749	1.046	0	PA_without_intermediate	0,0,0,3,0,0,1,0,0	test	ward_and_allport	2,0,0,3,1,0,0,0,0	82.0	14.0	1.046	0,0,0,0,0,0,1,2,3	to_hand	s608
215.796	0.35	0	PA_without_intermediate	2,0,0,3,0,0,1,0,0	test	ward_and_allport	2,0,0,3,1,0,0,0,0	89.0	14.0	0.35	0,0,0,0,0,0,1,2,3	to_board	s608
216.15	0.962	0	PA_without_intermediate	2,0,0,0,0,0,1,0,0	test	ward_and_allport	2,0,0,3,1,0,0,0,0	71.0	14.0	0.962	0,0,0,0,0,0,1,2,3	to_hand	s608
217.113	0.62	0	PA_without_intermediate	2,0,0,3,0,0,1,0,0	test	ward_and_allport	2,0,0,3,1,0,0,0,0	71.0	14.0	0.62	0,0,0,0,0,0,1,2,3	to_board	s608
217.738	0.309	0	PA_without_intermediate	2,0,0,3,0,0,0,0,0	test	ward_and_allport	2,0,0,3,1,0,0,0,0	82.0	14.0	0.309	0,0,0,0,0,0,1,2,3	to_hand	s608
218.048	0.554	0	PA_without_intermediate	2,0,0,3,1,0,0,0,0	test	ward_and_allport	2,0,0,3,1,0,0,0,0	71.0	14.0	0.554	0,0,0,0,0,0,1,2,3	to_board	s608
218.61	1.0	0	PA_without_intermediate	n/a	test	ward_and_allport	n/a	-1.0	14.0	n/a	n/a	feedback	s608
219.61	1.0	0	PA_without_intermediate	n/a	test	ward_and_allport	n/a	-1.0	14.0	n/a	n/a	ITI	s608
225.618	2.959	1	PA_without_intermediate	0,0,0,1,2,0,0,0,0	test	ward_and_allport	1,0,0,0,0,0,3,2,0	71.0	15.0	2.959	0,0,0,1,2,3,0,0,0	to_hand	s608
228.578	0.627	0	PA_without_intermediate	0,0,0,1,2,0,3,0,0	test	ward_and_allport	1,0,0,0,0,0,3,2,0	82.0	15.0	0.627	0,0,0,1,2,3,0,0,0	to_board	s608
229.21	0.583	0	PA_without_intermediate	0,0,0,1,0,0,3,0,0	test	ward_and_allport	1,0,0,0,0,0,3,2,0	71.0	15.0	0.583	0,0,0,1,2,3,0,0,0	to_hand	s608
229.796	0.329	0	PA_without_intermediate	0,0,0,1,0,0,3,2,0	test	ward_and_allport	1,0,0,0,0,0,3,2,0	82.0	15.0	0.329	0,0,0,1,2,3,0,0,0	to_board	s608
230.132	0.269	0	PA_without_intermediate	0,0,0,0,0,0,3,2,0	test	ward_and_allport	1,0,0,0,0,0,3,2,0	71.0	15.0	0.269	0,0,0,1,2,3,0,0,0	to_hand	s608
230.402	0.274	0	PA_without_intermediate	1,0,0,0,0,0,3,2,0	test	ward_and_allport	1,0,0,0,0,0,3,2,0	89.0	15.0	0.274	0,0,0,1,2,3,0,0,0	to_board	s608
230.685	1.0	0	PA_without_intermediate	n/a	test	ward_and_allport	n/a	-1.0	15.0	n/a	n/a	feedback	s608
231.685	1.0	0	PA_without_intermediate	n/a	test	ward_and_allport	n/a	-1.0	15.0	n/a	n/a	ITI	s608
232.691	5.675	1	PA_with_intermediate	0,0,0,0,0,0,1,2,0	test	ward_and_allport	0,0,0,2,3,0,1,0,0	82.0	16.0	5.675	0,0,0,0,0,0,1,2,3	to_hand	s608
238.368	1.079	0	PA_with_intermediate	3,0,0,0,0,0,1,2,0	test	ward_and_allport	0,0,0,2,3,0,1,0,0	89.0	16.0	1.079	0,0,0,0,0,0,1,2,3	to_board	s608
239.451	1.157	0	PA_with_intermediate	3,0,0,0,0,0,1,0,0	test	ward_and_allport	0,0,0,2,3,0,1,0,0	82.0	16.0	1.157	0,0,0,0,0,0,1,2,3	to_hand	s608
240.61	0.731	0	PA_with_intermediate	3,0,0,2,0,0,1,0,0	test	ward_and_allport	0,0,0,2,3,0,1,0,0	71.0	16.0	0.731	0,0,0,0,0,0,1,2,3	to_board	s608
241.348	0.37	0	PA_with_intermediate	0,0,0,2,0,0,1,0,0	test	ward_and_allport	0,0,0,2,3,0,1,0,0	89.0	16.0	0.37	0,0,0,0,0,0,1,2,3	to_hand	s608
241.72	0.403	0	PA_with_intermediate	0,0,0,2,3,0,1,0,0	test	ward_and_allport	0,0,0,2,3,0,1,0,0	71.0	16.0	0.403	0,0,0,0,0,0,1,2,3	to_board	s608
242.131	1.0	0	PA_with_intermediate	n/a	test	ward_and_allport	n/a	-1.0	16.0	n/a	n/a	feedback	s608
243.131	1.544	0	PA_with_intermediate	n/a	test	ward_and_allport	n/a	-1.0	16.0	n/a	n/a	ITI	s608
244.681	3.759	1	PA_without_intermediate	0,0,0,1,2,0,0,0,0	test	ward_and_allport	3,2,0,0,0,0,1,0,0	71.0	17.0	3.759	0,0,0,1,2,3,0,0,0	to_hand	s608
248.441	0.415	0	PA_without_intermediate	3,0,0,1,2,0,0,0,0	test	ward_and_allport	3,2,0,0,0,0,1,0,0	89.0	17.0	0.415	0,0,0,1,2,3,0,0,0	to_board	s608
248.861	0.709	0	PA_without_intermediate	3,0,0,1,0,0,0,0,0	test	ward_and_allport	3,2,0,0,0,0,1,0,0	71.0	17.0	0.709	0,0,0,1,2,3,0,0,0	to_hand	s608
249.571	0.437	0	PA_without_intermediate	3,2,0,1,0,0,0,0,0	test	ward_and_allport	3,2,0,0,0,0,1,0,0	89.0	17.0	0.437	0,0,0,1,2,3,0,0,0	to_board	s608
250.014	0.326	0	PA_without_intermediate	3,2,0,0,0,0,0,0,0	test	ward_and_allport	3,2,0,0,0,0,1,0,0	71.0	17.0	0.326	0,0,0,1,2,3,0,0,0	to_hand	s608
250.342	0.27	0	PA_without_intermediate	3,2,0,0,0,0,1,0,0	test	ward_and_allport	3,2,0,0,0,0,1,0,0	82.0	17.0	0.27	0,0,0,1,2,3,0,0,0	to_board	s608
250.622	1.0	0	PA_without_intermediate	n/a	test	ward_and_allport	n/a	-1.0	17.0	n/a	n/a	feedback	s608
251.622	1.272	0	PA_without_intermediate	n/a	test	ward_and_allport	n/a	-1.0	17.0	n/a	n/a	ITI	s608
252.9	3.461	1	PA_with_intermediate	0,0,0,0,0,0,1,2,0	test	ward_and_allport	2,3,0,0,0,0,1,0,0	82.0	18.0	3.461	0,0,0,0,0,0,1,2,3	to_hand	s608
256.361	0.702	0	PA_with_intermediate	0,0,0,3,0,0,1,2,0	test	ward_and_allport	2,3,0,0,0,0,1,0,0	71.0	18.0	0.702	0,0,0,0,0,0,1,2,3	to_board	s608
257.069	0.897	0	PA_with_intermediate	0,0,0,3,0,0,1,0,0	test	ward_and_allport	2,3,0,0,0,0,1,0,0	82.0	18.0	0.897	0,0,0,0,0,0,1,2,3	to_hand	s608
257.966	0.34	0	PA_with_intermediate	2,0,0,3,0,0,1,0,0	test	ward_and_allport	2,3,0,0,0,0,1,0,0	89.0	18.0	0.34	0,0,0,0,0,0,1,2,3	to_board	s608
258.312	0.525	0	PA_with_intermediate	2,0,0,0,0,0,1,0,0	test	ward_and_allport	2,3,0,0,0,0,1,0,0	71.0	18.0	0.525	0,0,0,0,0,0,1,2,3	to_hand	s608
258.839	0.488	0	PA_with_intermediate	2,3,0,0,0,0,1,0,0	test	ward_and_allport	2,3,0,0,0,0,1,0,0	89.0	18.0	0.488	0,0,0,0,0,0,1,2,3	to_board	s608
259.334	1.0	0	PA_with_intermediate	n/a	test	ward_and_allport	n/a	-1.0	18.0	n/a	n/a	feedback	s608
260.334	3.04	0	PA_with_intermediate	n/a	test	ward_and_allport	n/a	-1.0	18.0	n/a	n/a	ITI	s608
263.38	4.279	1	PA_with_intermediate	0,0,0,0,0,0,1,2,0	test	ward_and_allport	0,0,0,2,0,0,1,3,0	82.0	19.0	4.279	0,0,0,0,0,0,1,2,3	to_hand	s608
267.66	0.323	0	PA_with_intermediate	3,0,0,0,0,0,1,2,0	test	ward_and_allport	0,0,0,2,0,0,1,3,0	89.0	19.0	0.323	0,0,0,0,0,0,1,2,3	to_board	s608
267.99	1.187	0	PA_with_intermediate	3,0,0,0,0,0,1,0,0	test	ward_and_allport	0,0,0,2,0,0,1,3,0	82.0	19.0	1.187	0,0,0,0,0,0,1,2,3	to_hand	s608
269.179	0.724	0	PA_with_intermediate	3,0,0,2,0,0,1,0,0	test	ward_and_allport	0,0,0,2,0,0,1,3,0	71.0	19.0	0.724	0,0,0,0,0,0,1,2,3	to_board	s608
269.91	0.371	0	PA_with_intermediate	0,0,0,2,0,0,1,0,0	test	ward_and_allport	0,0,0,2,0,0,1,3,0	89.0	19.0	0.371	0,0,0,0,0,0,1,2,3	to_hand	s608
270.283	0.38	0	PA_with_intermediate	0,0,0,2,0,0,1,3,0	test	ward_and_allport	0,0,0,2,0,0,1,3,0	82.0	19.0	0.38	0,0,0,0,0,0,1,2,3	to_board	s608
270.67	1.0	0	PA_with_intermediate	n/a	test	ward_and_allport	n/a	-1.0	19.0	n/a	n/a	feedback	s608
271.67	1.272	0	PA_with_intermediate	n/a	test	ward_and_allport	n/a	-1.0	19.0	n/a	n/a	ITI	s608
272.948	2.773	1	PA_with_intermediate	1,2,0,0,0,0,0,0,0	test	ward_and_allport	1,0,0,0,0,0,2,3,0	89.0	20.0	2.773	1,2,3,0,0,0,0,0,0	to_hand	s608
275.723	0.947	0	PA_with_intermediate	1,2,0,3,0,0,0,0,0	test	ward_and_allport	1,0,0,0,0,0,2,3,0	71.0	20.0	0.947	1,2,3,0,0,0,0,0,0	to_board	s608
276.676	0.341	0	PA_with_intermediate	1,0,0,3,0,0,0,0,0	test	ward_and_allport	1,0,0,0,0,0,2,3,0	89.0	20.0	0.341	1,2,3,0,0,0,0,0,0	to_hand	s608
277.019	0.358	0	PA_with_intermediate	1,0,0,3,0,0,2,0,0	test	ward_and_allport	1,0,0,0,0,0,2,3,0	82.0	20.0	0.358	1,2,3,0,0,0,0,0,0	to_board	s608
277.385	0.483	0	PA_with_intermediate	1,0,0,0,0,0,2,0,0	test	ward_and_allport	1,0,0,0,0,0,2,3,0	71.0	20.0	0.483	1,2,3,0,0,0,0,0,0	to_hand	s608
277.869	0.301	0	PA_with_intermediate	1,0,0,0,0,0,2,3,0	test	ward_and_allport	1,0,0,0,0,0,2,3,0	82.0	20.0	0.301	1,2,3,0,0,0,0,0,0	to_board	s608
278.178	1.0	0	PA_with_intermediate	n/a	test	ward_and_allport	n/a	-1.0	20.0	n/a	n/a	feedback	s608
279.178	1.136	0	PA_with_intermediate	n/a	test	ward_and_allport	n/a	-1.0	20.0	n/a	n/a	ITI	s608
280.321	4.313	1	PA_with_intermediate	0,0,0,1,2,0,0,0,0	test	ward_and_allport	0,0,0,1,3,0,2,0,0	71.0	21.0	4.313	0,0,0,1,2,3,0,0,0	to_hand	s608
284.635	0.373	0	PA_with_intermediate	3,0,0,1,2,0,0,0,0	test	ward_and_allport	0,0,0,1,3,0,2,0,0	89.0	21.0	0.373	0,0,0,1,2,3,0,0,0	to_board	s608
285.014	0.343	0	PA_with_intermediate	3,0,0,1,0,0,0,0,0	test	ward_and_allport	0,0,0,1,3,0,2,0,0	71.0	21.0	0.343	0,0,0,1,2,3,0,0,0	to_hand	s608
285.359	0.304	0	PA_with_intermediate	3,0,0,1,0,0,2,0,0	test	ward_and_allport	0,0,0,1,3,0,2,0,0	82.0	21.0	0.304	0,0,0,1,2,3,0,0,0	to_board	s608
285.671	0.627	0	PA_with_intermediate	0,0,0,1,0,0,2,0,0	test	ward_and_allport	0,0,0,1,3,0,2,0,0	89.0	21.0	0.627	0,0,0,1,2,3,0,0,0	to_hand	s608
286.299	0.351	0	PA_with_intermediate	0,0,0,1,3,0,2,0,0	test	ward_and_allport	0,0,0,1,3,0,2,0,0	71.0	21.0	0.351	0,0,0,1,2,3,0,0,0	to_board	s608
286.66	1.0	0	PA_with_intermediate	n/a	test	ward_and_allport	n/a	-1.0	21.0	n/a	n/a	feedback	s608
287.66	1.0	0	PA_with_intermediate	n/a	test	ward_and_allport	n/a	-1.0	21.0	n/a	n/a	ITI	s608
288.668	3.092	1	PA_with_intermediate	0,0,0,1,2,0,0,0,0	test	ward_and_allport	0,0,0,1,0,0,2,3,0	71.0	22.0	3.092	0,0,0,1,2,3,0,0,0	to_hand	s608
291.761	0.39	0	PA_with_intermediate	3,0,0,1,2,0,0,0,0	test	ward_and_allport	0,0,0,1,0,0,2,3,0	89.0	22.0	0.39	0,0,0,1,2,3,0,0,0	to_board	s608
292.159	0.377	0	PA_with_intermediate	3,0,0,1,0,0,0,0,0	test	ward_and_allport	0,0,0,1,0,0,2,3,0	71.0	22.0	0.377	0,0,0,1,2,3,0,0,0	to_hand	s608
292.537	0.331	0	PA_with_intermediate	3,0,0,1,0,0,2,0,0	test	ward_and_allport	0,0,0,1,0,0,2,3,0	82.0	22.0	0.331	0,0,0,1,2,3,0,0,0	to_board	s608
292.876	0.325	0	PA_with_intermediate	0,0,0,1,0,0,2,0,0	test	ward_and_allport	0,0,0,1,0,0,2,3,0	89.0	22.0	0.325	0,0,0,1,2,3,0,0,0	to_hand	s608
293.202	0.606	0	PA_with_intermediate	0,0,0,1,0,0,2,3,0	test	ward_and_allport	0,0,0,1,0,0,2,3,0	82.0	22.0	0.606	0,0,0,1,2,3,0,0,0	to_board	s608
293.818	1.0	0	PA_with_intermediate	n/a	test	ward_and_allport	n/a	-1.0	22.0	n/a	n/a	feedback	s608
294.818	1.0	0	PA_with_intermediate	n/a	test	ward_and_allport	n/a	-1.0	22.0	n/a	n/a	ITI	s608
295.826	5.185	1	PA_without_intermediate	1,2,0,0,0,0,0,0,0	test	ward_and_allport	0,0,0,3,1,0,2,0,0	89.0	23.0	5.185	1,2,3,0,0,0,0,0,0	to_hand	s608
301.012	0.43	0	PA_without_intermediate	1,2,0,3,0,0,0,0,0	test	ward_and_allport	0,0,0,3,1,0,2,0,0	71.0	23.0	0.43	1,2,3,0,0,0,0,0,0	to_board	s608
301.45	0.686	0	PA_without_intermediate	1,0,0,3,0,0,0,0,0	test	ward_and_allport	0,0,0,3,1,0,2,0,0	89.0	23.0	0.686	1,2,3,0,0,0,0,0,0	to_hand	s608
302.138	0.347	0	PA_without_intermediate	1,0,0,3,0,0,2,0,0	test	ward_and_allport	0,0,0,3,1,0,2,0,0	82.0	23.0	0.347	1,2,3,0,0,0,0,0,0	to_board	s608
302.494	0.344	0	PA_without_intermediate	0,0,0,3,0,0,2,0,0	test	ward_and_allport	0,0,0,3,1,0,2,0,0	89.0	23.0	0.344	1,2,3,0,0,0,0,0,0	to_hand	s608
302.84	0.314	0	PA_without_intermediate	0,0,0,3,1,0,2,0,0	test	ward_and_allport	0,0,0,3,1,0,2,0,0	71.0	23.0	0.314	1,2,3,0,0,0,0,0,0	to_board	s608
303.165	1.0	0	PA_without_intermediate	n/a	test	ward_and_allport	n/a	-1.0	23.0	n/a	n/a	feedback	s608
304.165	1.408	0	PA_without_intermediate	n/a	test	ward_and_allport	n/a	-1.0	23.0	n/a	n/a	ITI	s608
305.58	3.224	1	PA_with_intermediate	0,0,0,1,2,0,0,0,0	test	ward_and_allport	0,0,0,1,3,0,2,0,0	71.0	24.0	3.224	0,0,0,1,2,3,0,0,0	to_hand	s608
308.805	0.529	0	PA_with_intermediate	3,0,0,1,2,0,0,0,0	test	ward_and_allport	0,0,0,1,3,0,2,0,0	89.0	24.0	0.529	0,0,0,1,2,3,0,0,0	to_board	s608
309.342	0.371	0	PA_with_intermediate	3,0,0,1,0,0,0,0,0	test	ward_and_allport	0,0,0,1,3,0,2,0,0	71.0	24.0	0.371	0,0,0,1,2,3,0,0,0	to_hand	s608
309.715	0.332	0	PA_with_intermediate	3,0,0,1,0,0,2,0,0	test	ward_and_allport	0,0,0,1,3,0,2,0,0	82.0	24.0	0.332	0,0,0,1,2,3,0,0,0	to_board	s608
310.056	0.398	0	PA_with_intermediate	0,0,0,1,0,0,2,0,0	test	ward_and_allport	0,0,0,1,3,0,2,0,0	89.0	24.0	0.398	0,0,0,1,2,3,0,0,0	to_hand	s608
310.454	0.326	0	PA_with_intermediate	0,0,0,1,3,0,2,0,0	test	ward_and_allport	0,0,0,1,3,0,2,0,0	71.0	24.0	0.326	0,0,0,1,2,3,0,0,0	to_board	s608
310.791	1.0	0	PA_with_intermediate	n/a	test	ward_and_allport	n/a	-1.0	24.0	n/a	n/a	feedback	s608
311.791	2.768	0	PA_with_intermediate	n/a	test	ward_and_allport	n/a	-1.0	24.0	n/a	n/a	ITI	s608
314.568	4.533	1	PA_with_intermediate	0,0,0,0,0,0,1,2,0	test	ward_and_allport	2,3,0,0,0,0,1,0,0	82.0	25.0	4.533	0,0,0,0,0,0,1,2,3	to_hand	s608
319.101	0.43	0	PA_with_intermediate	0,0,0,3,0,0,1,2,0	test	ward_and_allport	2,3,0,0,0,0,1,0,0	71.0	25.0	0.43	0,0,0,0,0,0,1,2,3	to_board	s608
319.539	0.529	0	PA_with_intermediate	0,0,0,3,0,0,1,0,0	test	ward_and_allport	2,3,0,0,0,0,1,0,0	82.0	25.0	0.529	0,0,0,0,0,0,1,2,3	to_hand	s608
320.069	0.365	0	PA_with_intermediate	2,0,0,3,0,0,1,0,0	test	ward_and_allport	2,3,0,0,0,0,1,0,0	89.0	25.0	0.365	0,0,0,0,0,0,1,2,3	to_board	s608
320.443	0.409	0	PA_with_intermediate	2,0,0,0,0,0,1,0,0	test	ward_and_allport	2,3,0,0,0,0,1,0,0	71.0	25.0	0.409	0,0,0,0,0,0,1,2,3	to_hand	s608
320.853	0.486	0	PA_with_intermediate	2,3,0,0,0,0,1,0,0	test	ward_and_allport	2,3,0,0,0,0,1,0,0	89.0	25.0	0.486	0,0,0,0,0,0,1,2,3	to_board	s608
321.349	1.0	0	PA_with_intermediate	n/a	test	ward_and_allport	n/a	-1.0	25.0	n/a	n/a	feedback	s608
322.349	1.68	0	PA_with_intermediate	n/a	test	ward_and_allport	n/a	-1.0	25.0	n/a	n/a	ITI	s608
324.037	5.663	1	PA_without_intermediate	0,0,0,0,0,0,1,2,0	test	ward_and_allport	1,0,0,3,2,0,0,0,0	82.0	26.0	5.663	0,0,0,0,0,0,1,2,3	to_hand	s608
329.701	0.347	0	PA_without_intermediate	0,0,0,3,0,0,1,2,0	test	ward_and_allport	1,0,0,3,2,0,0,0,0	71.0	26.0	0.347	0,0,0,0,0,0,1,2,3	to_board	s608
330.057	0.818	0	PA_without_intermediate	0,0,0,3,0,0,1,0,0	test	ward_and_allport	1,0,0,3,2,0,0,0,0	82.0	26.0	0.818	0,0,0,0,0,0,1,2,3	to_hand	s608
330.877	0.51	0	PA_without_intermediate	0,0,0,3,2,0,1,0,0	test	ward_and_allport	1,0,0,3,2,0,0,0,0	71.0	26.0	0.51	0,0,0,0,0,0,1,2,3	to_board	s608
331.396	0.35	0	PA_without_intermediate	0,0,0,3,2,0,0,0,0	test	ward_and_allport	1,0,0,3,2,0,0,0,0	82.0	26.0	0.35	0,0,0,0,0,0,1,2,3	to_hand	s608
331.747	0.272	0	PA_without_intermediate	1,0,0,3,2,0,0,0,0	test	ward_and_allport	1,0,0,3,2,0,0,0,0	89.0	26.0	0.272	0,0,0,0,0,0,1,2,3	to_board	s608
332.03	1.0	0	PA_without_intermediate	n/a	test	ward_and_allport	n/a	-1.0	26.0	n/a	n/a	feedback	s608
333.03	2.224	0	PA_without_intermediate	n/a	test	ward_and_allport	n/a	-1.0	26.0	n/a	n/a	ITI	s608
335.263	1.759	1	PA_without_intermediate	0,0,0,1,2,0,0,0,0	test	ward_and_allport	1,0,0,0,0,0,3,2,0	71.0	27.0	1.759	0,0,0,1,2,3,0,0,0	to_hand	s608
337.023	0.396	0	PA_without_intermediate	0,0,0,1,2,0,3,0,0	test	ward_and_allport	1,0,0,0,0,0,3,2,0	82.0	27.0	0.396	0,0,0,1,2,3,0,0,0	to_board	s608
337.427	0.51	0	PA_without_intermediate	0,0,0,1,0,0,3,0,0	test	ward_and_allport	1,0,0,0,0,0,3,2,0	71.0	27.0	0.51	0,0,0,1,2,3,0,0,0	to_hand	s608
337.938	0.598	0	PA_without_intermediate	0,0,0,1,0,0,3,2,0	test	ward_and_allport	1,0,0,0,0,0,3,2,0	82.0	27.0	0.598	0,0,0,1,2,3,0,0,0	to_board	s608
338.546	0.903	0	PA_without_intermediate	0,0,0,0,0,0,3,2,0	test	ward_and_allport	1,0,0,0,0,0,3,2,0	71.0	27.0	0.903	0,0,0,1,2,3,0,0,0	to_hand	s608
339.45	0.337	0	PA_without_intermediate	1,0,0,0,0,0,3,2,0	test	ward_and_allport	1,0,0,0,0,0,3,2,0	89.0	27.0	0.337	0,0,0,1,2,3,0,0,0	to_board	s608
339.797	1.0	0	PA_without_intermediate	n/a	test	ward_and_allport	n/a	-1.0	27.0	n/a	n/a	feedback	s608
340.797	2.36	0	PA_without_intermediate	n/a	test	ward_and_allport	n/a	-1.0	27.0	n/a	n/a	ITI	s608
343.167	2.253	1	PA_without_intermediate	1,2,0,0,0,0,0,0,0	test	ward_and_allport	0,0,0,1,0,0,3,2,0	89.0	28.0	2.253	1,2,3,0,0,0,0,0,0	to_hand	s608
345.42	0.356	0	PA_without_intermediate	1,2,0,0,0,0,3,0,0	test	ward_and_allport	0,0,0,1,0,0,3,2,0	82.0	28.0	0.356	1,2,3,0,0,0,0,0,0	to_board	s608
345.785	0.652	0	PA_without_intermediate	1,0,0,0,0,0,3,0,0	test	ward_and_allport	0,0,0,1,0,0,3,2,0	89.0	28.0	0.652	1,2,3,0,0,0,0,0,0	to_hand	s608
346.438	1.034	0	PA_without_intermediate	1,0,0,0,0,0,3,2,0	test	ward_and_allport	0,0,0,1,0,0,3,2,0	82.0	28.0	1.034	1,2,3,0,0,0,0,0,0	to_board	s608
347.482	0.32	0	PA_without_intermediate	0,0,0,0,0,0,3,2,0	test	ward_and_allport	0,0,0,1,0,0,3,2,0	89.0	28.0	0.32	1,2,3,0,0,0,0,0,0	to_hand	s608
347.802	0.269	0	PA_without_intermediate	0,0,0,1,0,0,3,2,0	test	ward_and_allport	0,0,0,1,0,0,3,2,0	71.0	28.0	0.269	1,2,3,0,0,0,0,0,0	to_board	s608
348.081	1.0	0	PA_without_intermediate	n/a	test	ward_and_allport	n/a	-1.0	28.0	n/a	n/a	feedback	s608
349.081	1.0	0	PA_without_intermediate	n/a	test	ward_and_allport	n/a	-1.0	28.0	n/a	n/a	ITI	s608
350.09	5.359	1	PA_without_intermediate	0,0,0,0,0,0,1,2,0	test	ward_and_allport	3,2,0,1,0,0,0,0,0	82.0	29.0	5.359	0,0,0,0,0,0,1,2,3	to_hand	s608
355.449	0.402	0	PA_without_intermediate	3,0,0,0,0,0,1,2,0	test	ward_and_allport	3,2,0,1,0,0,0,0,0	89.0	29.0	0.402	0,0,0,0,0,0,1,2,3	to_board	s608
355.861	1.066	0	PA_without_intermediate	3,0,0,0,0,0,1,0,0	test	ward_and_allport	3,2,0,1,0,0,0,0,0	82.0	29.0	1.066	0,0,0,0,0,0,1,2,3	to_hand	s608
356.928	0.25	0	PA_without_intermediate	3,2,0,0,0,0,1,0,0	test	ward_and_allport	3,2,0,1,0,0,0,0,0	89.0	29.0	0.25	0,0,0,0,0,0,1,2,3	to_board	s608
357.187	0.284	0	PA_without_intermediate	3,2,0,0,0,0,0,0,0	test	ward_and_allport	3,2,0,1,0,0,0,0,0	82.0	29.0	0.284	0,0,0,0,0,0,1,2,3	to_hand	s608
357.472	0.802	0	PA_without_intermediate	3,2,0,1,0,0,0,0,0	test	ward_and_allport	3,2,0,1,0,0,0,0,0	71.0	29.0	0.802	0,0,0,0,0,0,1,2,3	to_board	s608
358.287	1.0	0	PA_without_intermediate	n/a	test	ward_and_allport	n/a	-1.0	29.0	n/a	n/a	feedback	s608
359.287	1.408	0	PA_without_intermediate	n/a	test	ward_and_allport	n/a	-1.0	29.0	n/a	n/a	ITI	s608
365.709	2.918	1	PA_with_intermediate	1,2,0,0,0,0,0,0,0	test	ward_and_allport	1,3,0,2,0,0,0,0,0	89.0	30.0	2.918	1,2,3,0,0,0,0,0,0	to_hand	s608
368.628	0.425	0	PA_with_intermediate	1,2,0,0,0,0,3,0,0	test	ward_and_allport	1,3,0,2,0,0,0,0,0	82.0	30.0	0.425	1,2,3,0,0,0,0,0,0	to_board	s608
369.064	0.331	0	PA_with_intermediate	1,0,0,0,0,0,3,0,0	test	ward_and_allport	1,3,0,2,0,0,0,0,0	89.0	30.0	0.331	1,2,3,0,0,0,0,0,0	to_hand	s608
369.396	0.409	0	PA_with_intermediate	1,0,0,2,0,0,3,0,0	test	ward_and_allport	1,3,0,2,0,0,0,0,0	71.0	30.0	0.409	1,2,3,0,0,0,0,0,0	to_board	s608
369.815	0.307	0	PA_with_intermediate	1,0,0,2,0,0,0,0,0	test	ward_and_allport	1,3,0,2,0,0,0,0,0	82.0	30.0	0.307	1,2,3,0,0,0,0,0,0	to_hand	s608
370.124	0.27	0	PA_with_intermediate	1,3,0,2,0,0,0,0,0	test	ward_and_allport	1,3,0,2,0,0,0,0,0	89.0	30.0	0.27	1,2,3,0,0,0,0,0,0	to_board	s608
370.41	1.0	0	PA_with_intermediate	n/a	test	ward_and_allport	n/a	-1.0	30.0	n/a	n/a	feedback	s608
371.41	1.136	0	PA_with_intermediate	n/a	test	ward_and_allport	n/a	-1.0	30.0	n/a	n/a	ITI	s608
372.556	2.356	1	PA_without_intermediate	0,0,0,0,0,0,1,2,0	test	ward_and_allport	1,0,0,3,2,0,0,0,0	82.0	31.0	2.356	0,0,0,0,0,0,1,2,3	to_hand	s608
374.913	0.298	0	PA_without_intermediate	0,0,0,3,0,0,1,2,0	test	ward_and_allport	1,0,0,3,2,0,0,0,0	71.0	31.0	0.298	0,0,0,0,0,0,1,2,3	to_board	s608
375.218	1.54	0	PA_without_intermediate	0,0,0,3,0,0,1,0,0	test	ward_and_allport	1,0,0,3,2,0,0,0,0	82.0	31.0	1.54	0,0,0,0,0,0,1,2,3	to_hand	s608
376.759	0.254	0	PA_without_intermediate	0,0,0,3,2,0,1,0,0	test	ward_and_allport	1,0,0,3,2,0,0,0,0	71.0	31.0	0.254	0,0,0,0,0,0,1,2,3	to_board	s608
377.021	0.304	0	PA_without_intermediate	0,0,0,3,2,0,0,0,0	test	ward_and_allport	1,0,0,3,2,0,0,0,0	82.0	31.0	0.304	0,0,0,0,0,0,1,2,3	to_hand	s608
377.326	0.244	0	PA_without_intermediate	1,0,0,3,2,0,0,0,0	test	ward_and_allport	1,0,0,3,2,0,0,0,0	89.0	31.0	0.244	0,0,0,0,0,0,1,2,3	to_board	s608
377.579	1.0	0	PA_without_intermediate	n/a	test	ward_and_allport	n/a	-1.0	31.0	n/a	n/a	feedback	s608
378.579	4.128	0	PA_without_intermediate	n/a	test	ward_and_allport	n/a	-1.0	31.0	n/a	n/a	ITI	s608
382.714	2.177	1	PA_without_intermediate	0,0,0,1,2,0,0,0,0	test	ward_and_allport	2,0,0,0,0,0,3,1,0	71.0	32.0	2.177	0,0,0,1,2,3,0,0,0	to_hand	s608
384.892	0.302	0	PA_without_intermediate	0,0,0,1,2,0,3,0,0	test	ward_and_allport	2,0,0,0,0,0,3,1,0	82.0	32.0	0.302	0,0,0,1,2,3,0,0,0	to_board	s608
385.203	0.631	0	PA_without_intermediate	0,0,0,1,0,0,3,0,0	test	ward_and_allport	2,0,0,0,0,0,3,1,0	71.0	32.0	0.631	0,0,0,1,2,3,0,0,0	to_hand	s608
385.835	0.261	0	PA_without_intermediate	2,0,0,1,0,0,3,0,0	test	ward_and_allport	2,0,0,0,0,0,3,1,0	89.0	32.0	0.261	0,0,0,1,2,3,0,0,0	to_board	s608
386.108	0.334	0	PA_without_intermediate	2,0,0,0,0,0,3,0,0	test	ward_and_allport	2,0,0,0,0,0,3,1,0	71.0	32.0	0.334	0,0,0,1,2,3,0,0,0	to_hand	s608
386.443	0.228	0	PA_without_intermediate	2,0,0,0,0,0,3,1,0	test	ward_and_allport	2,0,0,0,0,0,3,1,0	82.0	32.0	0.228	0,0,0,1,2,3,0,0,0	to_board	s608
386.682	1.0	0	PA_without_intermediate	n/a	test	ward_and_allport	n/a	-1.0	32.0	n/a	n/a	feedback	s608
387.682	1.136	0	PA_without_intermediate	n/a	test	ward_and_allport	n/a	-1.0	32.0	n/a	n/a	ITI	s608
388.828	3.257	1	PA_without_intermediate	1,2,0,0,0,0,0,0,0	test	ward_and_allport	0,0,0,3,2,0,1,0,0	89.0	33.0	3.257	1,2,3,0,0,0,0,0,0	to_hand	s608
392.086	0.405	0	PA_without_intermediate	1,2,0,3,0,0,0,0,0	test	ward_and_allport	0,0,0,3,2,0,1,0,0	71.0	33.0	0.405	1,2,3,0,0,0,0,0,0	to_board	s608
392.498	0.609	0	PA_without_intermediate	1,0,0,3,0,0,0,0,0	test	ward_and_allport	0,0,0,3,2,0,1,0,0	89.0	33.0	0.609	1,2,3,0,0,0,0,0,0	to_hand	s608
393.109	0.255	0	PA_without_intermediate	1,0,0,3,2,0,0,0,0	test	ward_and_allport	0,0,0,3,2,0,1,0,0	71.0	33.0	0.255	1,2,3,0,0,0,0,0,0	to_board	s608
393.373	0.266	0	PA_without_intermediate	0,0,0,3,2,0,0,0,0	test	ward_and_allport	0,0,0,3,2,0,1,0,0	89.0	33.0	0.266	1,2,3,0,0,0,0,0,0	to_hand	s608
393.641	0.287	0	PA_without_intermediate	0,0,0,3,2,0,1,0,0	test	ward_and_allport	0,0,0,3,2,0,1,0,0	82.0	33.0	0.287	1,2,3,0,0,0,0,0,0	to_board	s608
393.944	1.0	0	PA_without_intermediate	n/a	test	ward_and_allport	n/a	-1.0	33.0	n/a	n/a	feedback	s608
394.944	4.264	0	PA_without_intermediate	n/a	test	ward_and_allport	n/a	-1.0	33.0	n/a	n/a	ITI	s608
399.219	4.057	1	PA_with_intermediate	0,0,0,0,0,0,1,2,0	test	ward_and_allport	2,0,0,0,0,0,1,3,0	82.0	34.0	4.057	0,0,0,0,0,0,1,2,3	to_hand	s608
403.277	0.314	0	PA_with_intermediate	0,0,0,3,0,0,1,2,0	test	ward_and_allport	2,0,0,0,0,0,1,3,0	71.0	34.0	0.314	0,0,0,0,0,0,1,2,3	to_board	s608
403.602	0.31	0	PA_with_intermediate	0,0,0,3,0,0,1,0,0	test	ward_and_allport	2,0,0,0,0,0,1,3,0	82.0	34.0	0.31	0,0,0,0,0,0,1,2,3	to_hand	s608
403.913	0.287	0	PA_with_intermediate	2,0,0,3,0,0,1,0,0	test	ward_and_allport	2,0,0,0,0,0,1,3,0	89.0	34.0	0.287	0,0,0,0,0,0,1,2,3	to_board	s608
404.21	0.552	0	PA_with_intermediate	2,0,0,0,0,0,1,0,0	test	ward_and_allport	2,0,0,0,0,0,1,3,0	71.0	34.0	0.552	0,0,0,0,0,0,1,2,3	to_hand	s608
404.763	0.31	0	PA_with_intermediate	2,0,0,0,0,0,1,3,0	test	ward_and_allport	2,0,0,0,0,0,1,3,0	82.0	34.0	0.31	0,0,0,0,0,0,1,2,3	to_board	s608
405.088	1.0	0	PA_with_intermediate	n/a	test	ward_and_allport	n/a	-1.0	34.0	n/a	n/a	feedback	s608
406.088	3.04	0	PA_with_intermediate	n/a	test	ward_and_allport	n/a	-1.0	34.0	n/a	n/a	ITI	s608
409.136	3.44	1	PA_with_intermediate	0,0,0,0,0,0,1,2,0	test	ward_and_allport	0,0,0,2,0,0,1,3,0	82.0	35.0	3.44	0,0,0,0,0,0,1,2,3	to_hand	s608
412.577	0.31	0	PA_with_intermediate	3,0,0,0,0,0,1,2,0	test	ward_and_allport	0,0,0,2,0,0,1,3,0	89.0	35.0	0.31	0,0,0,0,0,0,1,2,3	to_board	s608
412.895	0.412	0	PA_with_intermediate	3,0,0,0,0,0,1,0,0	test	ward_and_allport	0,0,0,2,0,0,1,3,0	82.0	35.0	0.412	0,0,0,0,0,0,1,2,3	to_hand	s608
413.309	0.323	0	PA_with_intermediate	3,0,0,2,0,0,1,0,0	test	ward_and_allport	0,0,0,2,0,0,1,3,0	71.0	35.0	0.323	0,0,0,0,0,0,1,2,3	to_board	s608
413.643	0.776	0	PA_with_intermediate	0,0,0,2,0,0,1,0,0	test	ward_and_allport	0,0,0,2,0,0,1,3,0	89.0	35.0	0.776	0,0,0,0,0,0,1,2,3	to_hand	s608
414.42	0.312	0	PA_with_intermediate	0,0,0,2,0,0,1,3,0	test	ward_and_allport	0,0,0,2,0,0,1,3,0	82.0	35.0	0.312	0,0,0,0,0,0,1,2,3	to_board	s608
414.747	1.0	0	PA_with_intermediate	n/a	test	ward_and_allport	n/a	-1.0	35.0	n/a	n/a	feedback	s608
415.747	1.136	0	PA_with_intermediate	n/a	test	ward_and_allport	n/a	-1.0	35.0	n/a	n/a	ITI	s608
416.895	2.529	1	PA_with_intermediate	1,2,0,0,0,0,0,0,0	test	ward_and_allport	1,0,0,2,3,0,0,0,0	89.0	36.0	2.529	1,2,3,0,0,0,0,0,0	to_hand	s608
419.425	0.683	0	PA_with_intermediate	1,2,0,0,0,0,3,0,0	test	ward_and_allport	1,0,0,2,3,0,0,0,0	82.0	36.0	0.683	1,2,3,0,0,0,0,0,0	to_board	s608
420.116	0.268	0	PA_with_intermediate	1,0,0,0,0,0,3,0,0	test	ward_and_allport	1,0,0,2,3,0,0,0,0	89.0	36.0	0.268	1,2,3,0,0,0,0,0,0	to_hand	s608
420.386	0.276	0	PA_with_intermediate	1,0,0,2,0,0,3,0,0	test	ward_and_allport	1,0,0,2,3,0,0,0,0	71.0	36.0	0.276	1,2,3,0,0,0,0,0,0	to_board	s608
420.673	0.333	0	PA_with_intermediate	1,0,0,2,0,0,0,0,0	test	ward_and_allport	1,0,0,2,3,0,0,0,0	82.0	36.0	0.333	1,2,3,0,0,0,0,0,0	to_hand	s608
421.007	0.289	0	PA_with_intermediate	1,0,0,2,3,0,0,0,0	test	ward_and_allport	1,0,0,2,3,0,0,0,0	71.0	36.0	0.289	1,2,3,0,0,0,0,0,0	to_board	s608
421.307	1.0	0	PA_with_intermediate	n/a	test	ward_and_allport	n/a	-1.0	36.0	n/a	n/a	feedback	s608
422.307	1.408	0	PA_with_intermediate	n/a	test	ward_and_allport	n/a	-1.0	36.0	n/a	n/a	ITI	s608
423.723	3.132	1	PA_without_intermediate	1,2,0,0,0,0,0,0,0	test	ward_and_allport	0,0,0,3,2,0,1,0,0	89.0	37.0	3.132	1,2,3,0,0,0,0,0,0	to_hand	s608
426.857	0.308	0	PA_without_intermediate	1,2,0,3,0,0,0,0,0	test	ward_and_allport	0,0,0,3,2,0,1,0,0	71.0	37.0	0.308	1,2,3,0,0,0,0,0,0	to_board	s608
427.174	0.571	0	PA_without_intermediate	1,0,0,3,0,0,0,0,0	test	ward_and_allport	0,0,0,3,2,0,1,0,0	89.0	37.0	0.571	1,2,3,0,0,0,0,0,0	to_hand	s608
427.746	0.429	0	PA_without_intermediate	1,0,0,3,2,0,0,0,0	test	ward_and_allport	0,0,0,3,2,0,1,0,0	71.0	37.0	0.429	1,2,3,0,0,0,0,0,0	to_board	s608
428.187	0.315	0	PA_without_intermediate	0,0,0,3,2,0,0,0,0	test	ward_and_allport	0,0,0,3,2,0,1,0,0	89.0	37.0	0.315	1,2,3,0,0,0,0,0,0	to_hand	s608
428.504	0.425	0	PA_without_intermediate	0,0,0,3,2,0,1,0,0	test	ward_and_allport	0,0,0,3,2,0,1,0,0	82.0	37.0	0.425	1,2,3,0,0,0,0,0,0	to_board	s608
428.945	1.0	0	PA_without_intermediate	n/a	test	ward_and_allport	n/a	-1.0	37.0	n/a	n/a	feedback	s608
429.945	1.68	0	PA_without_intermediate	n/a	test	ward_and_allport	n/a	-1.0	37.0	n/a	n/a	ITI	s608
431.636	3.758	1	PA_with_intermediate	0,0,0,0,0,0,1,2,0	test	ward_and_allport	0,0,0,2,3,0,1,0,0	82.0	38.0	3.758	0,0,0,0,0,0,1,2,3	to_hand	s608
435.395	0.403	0	PA_with_intermediate	3,0,0,0,0,0,1,2,0	test	ward_and_allport	0,0,0,2,3,0,1,0,0	89.0	38.0	0.403	0,0,0,0,0,0,1,2,3	to_board	s608
435.808	0.459	0	PA_with_intermediate	3,0,0,0,0,0,1,0,0	test	ward_and_allport	0,0,0,2,3,0,1,0,0	82.0	38.0	0.459	0,0,0,0,0,0,1,2,3	to_hand	s608
436.268	0.414	0	PA_with_intermediate	3,0,0,2,0,0,1,0,0	test	ward_and_allport	0,0,0,2,3,0,1,0,0	71.0	38.0	0.414	0,0,0,0,0,0,1,2,3	to_board	s608
436.694	0.373	0	PA_with_intermediate	0,0,0,2,0,0,1,0,0	test	ward_and_allport	0,0,0,2,3,0,1,0,0	89.0	38.0	0.373	0,0,0,0,0,0,1,2,3	to_hand	s608
437.068	0.296	0	PA_with_intermediate	0,0,0,2,3,0,1,0,0	test	ward_and_allport	0,0,0,2,3,0,1,0,0	71.0	38.0	0.296	0,0,0,0,0,0,1,2,3	to_board	s608
437.377	1.0	0	PA_with_intermediate	n/a	test	ward_and_allport	n/a	-1.0	38.0	n/a	n/a	feedback	s608
438.377	3.72	0	PA_with_intermediate	n/a	test	ward_and_allport	n/a	-1.0	38.0	n/a	n/a	ITI	s608
442.108	4.213	1	PA_without_intermediate	0,0,0,0,0,0,1,2,0	test	ward_and_allport	3,2,0,1,0,0,0,0,0	82.0	39.0	4.213	0,0,0,0,0,0,1,2,3	to_hand	s608
446.322	0.308	0	PA_without_intermediate	3,0,0,0,0,0,1,2,0	test	ward_and_allport	3,2,0,1,0,0,0,0,0	89.0	39.0	0.308	0,0,0,0,0,0,1,2,3	to_board	s608
446.642	0.469	0	PA_without_intermediate	3,0,0,0,0,0,1,0,0	test	ward_and_allport	3,2,0,1,0,0,0,0,0	82.0	39.0	0.469	0,0,0,0,0,0,1,2,3	to_hand	s608
447.112	0.757	0	PA_without_intermediate	3,2,0,0,0,0,1,0,0	test	ward_and_allport	3,2,0,1,0,0,0,0,0	89.0	39.0	0.757	0,0,0,0,0,0,1,2,3	to_board	s608
447.881	0.341	0	PA_without_intermediate	3,2,0,0,0,0,0,0,0	test	ward_and_allport	3,2,0,1,0,0,0,0,0	82.0	39.0	0.341	0,0,0,0,0,0,1,2,3	to_hand	s608
448.223	0.314	0	PA_without_intermediate	3,2,0,1,0,0,0,0,0	test	ward_and_allport	3,2,0,1,0,0,0,0,0	71.0	39.0	0.314	0,0,0,0,0,0,1,2,3	to_board	s608
448.55	1.0	0	PA_without_intermediate	n/a	test	ward_and_allport	n/a	-1.0	39.0	n/a	n/a	feedback	s608
449.55	2.224	0	PA_without_intermediate	n/a	test	ward_and_allport	n/a	-1.0	39.0	n/a	n/a	ITI	s608
451.782	3.189	1	PA_without_intermediate	0,0,0,0,0,0,1,2,0	test	ward_and_allport	3,1,0,2,0,0,0,0,0	82.0	40.0	3.189	0,0,0,0,0,0,1,2,3	to_hand	s608
454.972	0.261	0	PA_without_intermediate	3,0,0,0,0,0,1,2,0	test	ward_and_allport	3,1,0,2,0,0,0,0,0	89.0	40.0	0.261	0,0,0,0,0,0,1,2,3	to_board	s608
455.241	0.764	0	PA_without_intermediate	3,0,0,0,0,0,1,0,0	test	ward_and_allport	3,1,0,2,0,0,0,0,0	82.0	40.0	0.764	0,0,0,0,0,0,1,2,3	to_hand	s608
456.006	0.362	0	PA_without_intermediate	3,0,0,2,0,0,1,0,0	test	ward_and_allport	3,1,0,2,0,0,0,0,0	71.0	40.0	0.362	0,0,0,0,0,0,1,2,3	to_board	s608
456.38	0.742	0	PA_without_intermediate	3,0,0,2,0,0,0,0,0	test	ward_and_allport	3,1,0,2,0,0,0,0,0	82.0	40.0	0.742	0,0,0,0,0,0,1,2,3	to_hand	s608
457.123	0.259	0	PA_without_intermediate	3,1,0,2,0,0,0,0,0	test	ward_and_allport	3,1,0,2,0,0,0,0,0	89.0	40.0	0.259	0,0,0,0,0,0,1,2,3	to_board	s608
457.396	1.0	0	PA_without_intermediate	n/a	test	ward_and_allport	n/a	-1.0	40.0	n/a	n/a	feedback	s608
458.396	1.272	0	PA_without_intermediate	n/a	test	ward_and_allport	n/a	-1.0	40.0	n/a	n/a	ITI	s608
459.678	4.399	1	PA_with_intermediate	0,0,0,1,2,0,0,0,0	test	ward_and_allport	2,3,0,1,0,0,0,0,0	71.0	41.0	4.399	0,0,0,1,2,3,0,0,0	to_hand	s608
464.078	0.446	0	PA_with_intermediate	0,0,0,1,2,0,3,0,0	test	ward_and_allport	2,3,0,1,0,0,0,0,0	82.0	41.0	0.446	0,0,0,1,2,3,0,0,0	to_board	s608
464.535	0.3	0	PA_with_intermediate	0,0,0,1,0,0,3,0,0	test	ward_and_allport	2,3,0,1,0,0,0,0,0	71.0	41.0	0.3	0,0,0,1,2,3,0,0,0	to_hand	s608
464.836	0.29	0	PA_with_intermediate	2,0,0,1,0,0,3,0,0	test	ward_and_allport	2,3,0,1,0,0,0,0,0	89.0	41.0	0.29	0,0,0,1,2,3,0,0,0	to_board	s608
465.138	0.321	0	PA_with_intermediate	2,0,0,1,0,0,0,0,0	test	ward_and_allport	2,3,0,1,0,0,0,0,0	82.0	41.0	0.321	0,0,0,1,2,3,0,0,0	to_hand	s608
465.461	0.282	0	PA_with_intermediate	2,3,0,1,0,0,0,0,0	test	ward_and_allport	2,3,0,1,0,0,0,0,0	89.0	41.0	0.282	0,0,0,1,2,3,0,0,0	to_board	s608
465.76	1.0	0	PA_with_intermediate	n/a	test	ward_and_allport	n/a	-1.0	41.0	n/a	n/a	feedback	s608
466.76	2.632	0	PA_with_intermediate	n/a	test	ward_and_allport	n/a	-1.0	41.0	n/a	n/a	ITI	s608
469.403	3.224	1	PA_without_intermediate	1,2,0,0,0,0,0,0,0	test	ward_and_allport	0,0,0,2,0,0,3,1,0	89.0	42.0	3.224	1,2,3,0,0,0,0,0,0	to_hand	s608
472.629	0.348	0	PA_without_intermediate	1,2,0,0,0,0,3,0,0	test	ward_and_allport	0,0,0,2,0,0,3,1,0	82.0	42.0	0.348	1,2,3,0,0,0,0,0,0	to_board	s608
472.99	0.314	0	PA_without_intermediate	1,0,0,0,0,0,3,0,0	test	ward_and_allport	0,0,0,2,0,0,3,1,0	89.0	42.0	0.314	1,2,3,0,0,0,0,0,0	to_hand	s608
473.306	0.296	0	PA_without_intermediate	1,0,0,2,0,0,3,0,0	test	ward_and_allport	0,0,0,2,0,0,3,1,0	71.0	42.0	0.296	1,2,3,0,0,0,0,0,0	to_board	s608
473.613	0.288	0	PA_without_intermediate	0,0,0,2,0,0,3,0,0	test	ward_and_allport	0,0,0,2,0,0,3,1,0	89.0	42.0	0.288	1,2,3,0,0,0,0,0,0	to_hand	s608
473.903	0.338	0	PA_without_intermediate	0,0,0,2,0,0,3,1,0	test	ward_and_allport	0,0,0,2,0,0,3,1,0	82.0	42.0	0.338	1,2,3,0,0,0,0,0,0	to_board	s608
474.258	1.0	0	PA_without_intermediate	n/a	test	ward_and_allport	n/a	-1.0	42.0	n/a	n/a	feedback	s608
475.258	1.408	0	PA_without_intermediate	n/a	test	ward_and_allport	n/a	-1.0	42.0	n/a	n/a	ITI	s608
476.679	3.254	1	PA_without_intermediate	0,0,0,0,0,0,1,2,0	test	ward_and_allport	3,1,0,2,0,0,0,0,0	82.0	43.0	3.254	0,0,0,0,0,0,1,2,3	to_hand	s608
479.934	0.268	0	PA_without_intermediate	3,0,0,0,0,0,1,2,0	test	ward_and_allport	3,1,0,2,0,0,0,0,0	89.0	43.0	0.268	0,0,0,0,0,0,1,2,3	to_board	s608
480.213	0.303	0	PA_without_intermediate	3,0,0,0,0,0,1,0,0	test	ward_and_allport	3,1,0,2,0,0,0,0,0	82.0	43.0	0.303	0,0,0,0,0,0,1,2,3	to_hand	s608
480.518	0.366	0	PA_without_intermediate	3,0,0,2,0,0,1,0,0	test	ward_and_allport	3,1,0,2,0,0,0,0,0	71.0	43.0	0.366	0,0,0,0,0,0,1,2,3	to_board	s608
480.897	0.325	0	PA_without_intermediate	3,0,0,2,0,0,0,0,0	test	ward_and_allport	3,1,0,2,0,0,0,0,0	82.0	43.0	0.325	0,0,0,0,0,0,1,2,3	to_hand	s608
481.223	0.261	0	PA_without_intermediate	3,1,0,2,0,0,0,0,0	test	ward_and_allport	3,1,0,2,0,0,0,0,0	89.0	43.0	0.261	0,0,0,0,0,0,1,2,3	to_board	s608
481.495	1.0	0	PA_without_intermediate	n/a	test	ward_and_allport	n/a	-1.0	43.0	n/a	n/a	feedback	s608
482.495	1.0	0	PA_without_intermediate	n/a	test	ward_and_allport	n/a	-1.0	43.0	n/a	n/a	ITI	s608
483.506	3.763	1	PA_with_intermediate	0,0,0,1,2,0,0,0,0	test	ward_and_allport	2,0,0,1,3,0,0,0,0	71.0	44.0	3.763	0,0,0,1,2,3,0,0,0	to_hand	s608
487.271	0.317	0	PA_with_intermediate	0,0,0,1,2,0,3,0,0	test	ward_and_allport	2,0,0,1,3,0,0,0,0	82.0	44.0	0.317	0,0,0,1,2,3,0,0,0	to_board	s608
487.597	0.298	0	PA_with_intermediate	0,0,0,1,0,0,3,0,0	test	ward_and_allport	2,0,0,1,3,0,0,0,0	71.0	44.0	0.298	0,0,0,1,2,3,0,0,0	to_hand	s608
487.897	0.253	0	PA_with_intermediate	2,0,0,1,0,0,3,0,0	test	ward_and_allport	2,0,0,1,3,0,0,0,0	89.0	44.0	0.253	0,0,0,1,2,3,0,0,0	to_board	s608
488.16	0.289	0	PA_with_intermediate	2,0,0,1,0,0,0,0,0	test	ward_and_allport	2,0,0,1,3,0,0,0,0	82.0	44.0	0.289	0,0,0,1,2,3,0,0,0	to_hand	s608
488.451	0.27	0	PA_with_intermediate	2,3,0,1,0,0,0,0,0	test	ward_and_allport	2,0,0,1,3,0,0,0,0	89.0	44.0	0.27	0,0,0,1,2,3,0,0,0	to_board	s608
488.73	2.067	0	PA_with_intermediate	2,3,0,0,0,0,0,0,0	test	ward_and_allport	2,0,0,1,3,0,0,0,0	71.0	44.0	2.067	0,0,0,1,2,3,0,0,0	to_hand	s608
490.798	0.273	0	PA_with_intermediate	2,3,0,0,0,0,1,0,0	test	ward_and_allport	2,0,0,1,3,0,0,0,0	82.0	44.0	0.273	0,0,0,1,2,3,0,0,0	to_board	s608
491.08	1.585	0	PA_with_intermediate	2,3,0,0,0,0,0,0,0	test	ward_and_allport	2,0,0,1,3,0,0,0,0	82.0	44.0	1.585	0,0,0,1,2,3,0,0,0	to_hand	s608
492.666	0.241	0	PA_with_intermediate	2,3,0,1,0,0,0,0,0	test	ward_and_allport	2,0,0,1,3,0,0,0,0	71.0	44.0	0.241	0,0,0,1,2,3,0,0,0	to_board	s608
492.916	0.601	0	PA_with_intermediate	2,0,0,1,0,0,0,0,0	test	ward_and_allport	2,0,0,1,3,0,0,0,0	89.0	44.0	0.601	0,0,0,1,2,3,0,0,0	to_hand	s608
493.519	0.611	0	PA_with_intermediate	2,0,0,1,3,0,0,0,0	test	ward_and_allport	2,0,0,1,3,0,0,0,0	71.0	44.0	0.611	0,0,0,1,2,3,0,0,0	to_board	s608
494.14	1.0	0	PA_with_intermediate	n/a	test	ward_and_allport	n/a	-1.0	44.0	n/a	n/a	feedback	s608
495.14	1.0	0	PA_with_intermediate	n/a	test	ward_and_allport	n/a	-1.0	44.0	n/a	n/a	ITI	s608
501.15	3.388	1	PA_with_intermediate	0,0,0,1,2,0,0,0,0	test	ward_and_allport	2,0,0,1,3,0,0,0,0	71.0	45.0	3.388	0,0,0,1,2,3,0,0,0	to_hand	s608
504.539	0.339	0	PA_with_intermediate	0,0,0,1,2,0,3,0,0	test	ward_and_allport	2,0,0,1,3,0,0,0,0	82.0	45.0	0.339	0,0,0,1,2,3,0,0,0	to_board	s608
504.889	0.295	0	PA_with_intermediate	0,0,0,1,0,0,3,0,0	test	ward_and_allport	2,0,0,1,3,0,0,0,0	71.0	45.0	0.295	0,0,0,1,2,3,0,0,0	to_hand	s608
505.185	0.301	0	PA_with_intermediate	2,0,0,1,0,0,3,0,0	test	ward_and_allport	2,0,0,1,3,0,0,0,0	89.0	45.0	0.301	0,0,0,1,2,3,0,0,0	to_board	s608
505.5	0.269	0	PA_with_intermediate	2,0,0,1,0,0,0,0,0	test	ward_and_allport	2,0,0,1,3,0,0,0,0	82.0	45.0	0.269	0,0,0,1,2,3,0,0,0	to_hand	s608
505.77	0.25	0	PA_with_intermediate	2,0,0,1,3,0,0,0,0	test	ward_and_allport	2,0,0,1,3,0,0,0,0	71.0	45.0	0.25	0,0,0,1,2,3,0,0,0	to_board	s608
506.038	1.0	0	PA_with_intermediate	n/a	test	ward_and_allport	n/a	-1.0	45.0	n/a	n/a	feedback	s608
507.038	1.0	0	PA_with_intermediate	n/a	test	ward_and_allport	n/a	-1.0	45.0	n/a	n/a	ITI	s608
508.053	2.948	1	PA_with_intermediate	1,2,0,0,0,0,0,0,0	test	ward_and_allport	1,3,0,0,0,0,2,0,0	89.0	46.0	2.948	1,2,3,0,0,0,0,0,0	to_hand	s608
511.002	0.353	0	PA_with_intermediate	1,2,0,3,0,0,0,0,0	test	ward_and_allport	1,3,0,0,0,0,2,0,0	71.0	46.0	0.353	1,2,3,0,0,0,0,0,0	to_board	s608
511.37	0.332	0	PA_with_intermediate	1,0,0,3,0,0,0,0,0	test	ward_and_allport	1,3,0,0,0,0,2,0,0	89.0	46.0	0.332	1,2,3,0,0,0,0,0,0	to_hand	s608
511.703	0.591	0	PA_with_intermediate	1,0,0,3,0,0,2,0,0	test	ward_and_allport	1,3,0,0,0,0,2,0,0	82.0	46.0	0.591	1,2,3,0,0,0,0,0,0	to_board	s608
512.306	0.979	0	PA_with_intermediate	1,0,0,0,0,0,2,0,0	test	ward_and_allport	1,3,0,0,0,0,2,0,0	71.0	46.0	0.979	1,2,3,0,0,0,0,0,0	to_hand	s608
513.287	0.271	0	PA_with_intermediate	1,3,0,0,0,0,2,0,0	test	ward_and_allport	1,3,0,0,0,0,2,0,0	89.0	46.0	0.271	1,2,3,0,0,0,0,0,0	to_board	s608
513.571	1.0	0	PA_with_intermediate	n/a	test	ward_and_allport	n/a	-1.0	46.0	n/a	n/a	feedback	s608
514.571	1.408	0	PA_with_intermediate	n/a	test	ward_and_allport	n/a	-1.0	46.0	n/a	n/a	ITI	s608
515.989	2.876	1	PA_without_intermediate	0,0,0,0,0,0,1,2,0	test	ward_and_allport	2,0,0,3,1,0,0,0,0	82.0	47.0	2.876	0,0,0,0,0,0,1,2,3	to_hand	s608
518.867	0.39	0	PA_without_intermediate	0,0,0,3,0,0,1,2,0	test	ward_and_allport	2,0,0,3,1,0,0,0,0	71.0	47.0	0.39	0,0,0,0,0,0,1,2,3	to_board	s608
519.267	1.26	0	PA_without_intermediate	0,0,0,3,0,0,1,0,0	test	ward_and_allport	2,0,0,3,1,0,0,0,0	82.0	47.0	1.26	0,0,0,0,0,0,1,2,3	to_hand	s608
520.528	0.27	0	PA_without_intermediate	2,0,0,3,0,0,1,0,0	test	ward_and_allport	2,0,0,3,1,0,0,0,0	89.0	47.0	0.27	0,0,0,0,0,0,1,2,3	to_board	s608
520.814	0.361	0	PA_without_intermediate	2,0,0,3,0,0,0,0,0	test	ward_and_allport	2,0,0,3,1,0,0,0,0	82.0	47.0	0.361	0,0,0,0,0,0,1,2,3	to_hand	s608
521.178	0.275	0	PA_without_intermediate	2,0,0,3,1,0,0,0,0	test	ward_and_allport	2,0,0,3,1,0,0,0,0	71.0	47.0	0.275	0,0,0,0,0,0,1,2,3	to_board	s608
521.47	1.0	0	PA_without_intermediate	n/a	test	ward_and_allport	n/a	-1.0	47.0	n/a	n/a	feedback	s608
522.47	1.816	0	PA_without_intermediate	n/a	test	ward_and_allport	n/a	-1.0	47.0	n/a	n/a	ITI	s608
n/a	n/a	0	n/a	n/a	n/a	n/a	n/a	n/a	n/a	n/a	n/a	ITI	n/a
