onset	duration	SS_delay	correct_response	experiment_exp_id	key_press	response_time	stopped	trial_type	worker_id
3.013	0.85	0.3	71.0	stop_signal	71.0	0.635	False	stop_failure	s603
5.267	0.85	0.25	89.0	stop_signal	89.0	1.089	False	go	s603
7.928	0.85	0.25	89.0	stop_signal	89.0	0.473	False	go	s603
10.592	0.85	0.25	89.0	stop_signal	89.0	0.671	False	go	s603
12.846	0.85	0.25	71.0	stop_signal	71.0	0.524	False	go	s603
15.102	0.85	0.25	89.0	stop_signal	89.0	0.584	False	go	s603
17.493	0.85	0.25	71.0	stop_signal	71.0	0.576	False	stop_failure	s603
20.291	0.85	0.2	89.0	stop_signal	-1.0	n/a	True	stop_success	s603
22.683	0.85	0.25	89.0	stop_signal	89.0	0.368	False	stop_failure	s603
24.939	0.85	0.2	89.0	stop_signal	89.0	0.476	False	stop_failure	s603
27.195	0.85	0.15	71.0	stop_signal	-1.0	n/a	True	stop_success	s603
29.448	0.85	0.2	71.0	stop_signal	89.0	0.254	False	go	s603
32.112	0.85	0.2	71.0	stop_signal	71.0	0.499	False	go	s603
34.774	0.85	0.2	71.0	stop_signal	71.0	0.466	False	go	s603
37.03	0.85	0.2	89.0	stop_signal	89.0	0.622	False	go	s603
39.558	0.85	0.2	71.0	stop_signal	71.0	0.574	False	go	s603
41.814	0.85	0.2	71.0	stop_signal	-1.0	n/a	True	stop_success	s603
44.342	0.85	0.25	71.0	stop_signal	71.0	0.641	False	go	s603
46.87	0.85	0.25	71.0	stop_signal	-1.0	n/a	True	stop_success	s603
49.395	0.85	0.3	89.0	stop_signal	-1.0	n/a	True	stop_success	s603
51.786	0.85	0.35	89.0	stop_signal	-1.0	n/a	True	stop_success	s603
54.31	0.85	0.4	71.0	stop_signal	71.0	0.749	False	go	s603
56.835	0.85	0.4	89.0	stop_signal	89.0	0.728	False	go	s603
59.227	0.85	0.4	71.0	stop_signal	71.0	0.5	False	go	s603
61.483	0.85	0.4	71.0	stop_signal	89.0	0.345	False	go	s603
64.01	0.85	0.4	71.0	stop_signal	71.0	0.851	False	go	s603
66.806	0.85	0.4	89.0	stop_signal	89.0	0.718	False	stop_failure	s603
69.331	0.85	0.35	89.0	stop_signal	-1.0	n/a	True	stop_success	s603
71.723	0.85	0.4	89.0	stop_signal	89.0	0.693	False	go	s603
73.979	0.85	0.4	71.0	stop_signal	-1.0	n/a	True	stop_success	s603
76.235	0.85	0.45	71.0	stop_signal	71.0	0.544	False	stop_failure	s603
78.487	0.85	0.4	89.0	stop_signal	-1.0	n/a	True	stop_success	s603
80.742	0.85	0.45	89.0	stop_signal	89.0	0.867	False	go	s603
83.27	0.85	0.45	71.0	stop_signal	71.0	0.819	False	go	s603
85.526	0.85	0.45	71.0	stop_signal	-1.0	n/a	True	stop_success	s603
87.782	0.85	0.5	71.0	stop_signal	71.0	1.133	False	go	s603
90.038	0.85	0.5	89.0	stop_signal	89.0	0.646	False	go	s603
92.291	0.85	0.5	89.0	stop_signal	89.0	0.906	False	go	s603
94.683	0.85	0.5	89.0	stop_signal	89.0	0.521	False	go	s603
96.939	0.85	0.5	71.0	stop_signal	-1.0	n/a	True	stop_success	s603
99.195	0.85	0.55	89.0	stop_signal	-1.0	n/a	True	go	s603
111.962	0.85	0.55	71.0	stop_signal	71.0	0.732	False	stop_failure	s603
114.214	0.85	0.5	71.0	stop_signal	-1.0	n/a	True	stop_success	s603
116.739	0.85	0.55	71.0	stop_signal	71.0	0.613	False	go	s603
119.128	0.85	0.55	71.0	stop_signal	71.0	0.592	False	go	s603
121.653	0.85	0.55	89.0	stop_signal	89.0	0.666	False	stop_failure	s603
123.907	0.85	0.5	89.0	stop_signal	89.0	0.817	False	go	s603
126.296	0.85	0.5	89.0	stop_signal	89.0	0.622	False	go	s603
128.688	0.85	0.5	89.0	stop_signal	89.0	0.513	False	go	s603
130.942	0.85	0.5	89.0	stop_signal	89.0	0.493	False	go	s603
133.331	0.85	0.5	89.0	stop_signal	89.0	0.572	False	go	s603
135.719	0.85	0.5	71.0	stop_signal	89.0	0.603	False	stop_failure	s603
138.108	0.85	0.45	71.0	stop_signal	89.0	0.439	False	go	s603
140.768	0.85	0.45	71.0	stop_signal	71.0	0.552	False	go	s603
143.294	0.85	0.45	89.0	stop_signal	89.0	0.552	False	stop_failure	s603
145.55	0.85	0.4	89.0	stop_signal	89.0	0.478	False	stop_failure	s603
148.486	0.85	0.35	71.0	stop_signal	71.0	0.605	False	go	s603
150.742	0.85	0.35	71.0	stop_signal	71.0	0.708	False	go	s603
153.268	0.85	0.35	89.0	stop_signal	-1.0	n/a	True	stop_success	s603
155.52	0.85	0.4	71.0	stop_signal	89.0	0.634	False	go	s603
157.776	0.85	0.4	71.0	stop_signal	71.0	0.65	False	go	s603
160.032	0.85	0.4	71.0	stop_signal	71.0	0.525	False	go	s603
162.283	0.85	0.4	89.0	stop_signal	89.0	0.845	False	go	s603
164.811	0.85	0.4	71.0	stop_signal	-1.0	n/a	True	stop_success	s603
167.883	0.85	0.45	71.0	stop_signal	-1.0	n/a	True	stop_success	s603
170.135	0.85	0.5	89.0	stop_signal	89.0	0.617	False	go	s603
172.523	0.85	0.5	71.0	stop_signal	71.0	0.708	False	stop_failure	s603
174.912	0.85	0.45	71.0	stop_signal	71.0	0.732	False	go	s603
177.438	0.85	0.45	71.0	stop_signal	71.0	0.731	False	go	s603
179.827	0.85	0.45	71.0	stop_signal	71.0	0.856	False	go	s603
182.218	0.85	0.45	71.0	stop_signal	71.0	0.609	False	stop_failure	s603
185.016	0.85	0.4	89.0	stop_signal	89.0	0.542	False	go	s603
187.405	0.85	0.4	71.0	stop_signal	71.0	0.634	False	stop_failure	s603
189.659	0.85	0.35	71.0	stop_signal	-1.0	n/a	True	stop_success	s603
192.185	0.85	0.4	71.0	stop_signal	89.0	0.401	False	stop_failure	s603
194.574	0.85	0.35	71.0	stop_signal	71.0	0.702	False	go	s603
196.966	0.85	0.35	89.0	stop_signal	-1.0	n/a	True	stop_success	s603
199.219	0.85	0.4	71.0	stop_signal	71.0	0.833	False	go	s603
201.611	0.85	0.4	89.0	stop_signal	89.0	0.556	False	go	s603
203.862	0.85	0.4	71.0	stop_signal	-1.0	n/a	True	stop_success	s603
206.118	0.85	0.45	89.0	stop_signal	-1.0	n/a	True	go	s603
208.371	0.85	0.45	89.0	stop_signal	89.0	0.851	False	go	s603
210.76	0.85	0.45	71.0	stop_signal	71.0	0.609	False	stop_failure	s603
223.524	0.85	0.4	89.0	stop_signal	89.0	0.539	False	stop_failure	s603
225.776	0.85	0.35	89.0	stop_signal	89.0	0.476	False	stop_failure	s603
228.163	0.85	0.3	71.0	stop_signal	71.0	0.348	False	stop_failure	s603
230.555	0.85	0.25	71.0	stop_signal	71.0	0.745	False	go	s603
232.811	0.85	0.25	89.0	stop_signal	-1.0	n/a	True	stop_success	s603
235.339	0.85	0.3	89.0	stop_signal	89.0	0.364	False	go	s603
237.592	0.85	0.3	89.0	stop_signal	89.0	0.479	False	go	s603
239.979	0.85	0.3	89.0	stop_signal	89.0	0.896	False	go	s603
242.235	0.85	0.3	89.0	stop_signal	-1.0	n/a	True	stop_success	s603
244.488	0.85	0.35	89.0	stop_signal	71.0	0.463	False	go	s603
246.88	0.85	0.35	71.0	stop_signal	71.0	0.678	False	go	s603
249.406	0.85	0.35	71.0	stop_signal	71.0	0.662	False	go	s603
251.794	0.85	0.35	89.0	stop_signal	71.0	0.49	False	go	s603
254.321	0.85	0.35	89.0	stop_signal	71.0	0.461	False	stop_failure	s603
257.254	0.85	0.3	89.0	stop_signal	89.0	0.673	False	go	s603
259.779	0.85	0.3	89.0	stop_signal	89.0	0.565	False	go	s603
262.304	0.85	0.3	71.0	stop_signal	71.0	0.585	False	go	s603
264.56	0.85	0.3	89.0	stop_signal	89.0	0.685	False	stop_failure	s603
267.086	0.85	0.25	89.0	stop_signal	89.0	0.586	False	go	s603
269.478	0.85	0.25	71.0	stop_signal	89.0	0.588	False	go	s603
271.731	0.85	0.25	89.0	stop_signal	89.0	0.683	False	go	s603
274.12	0.85	0.25	71.0	stop_signal	71.0	0.497	False	go	s603
276.376	0.85	0.25	89.0	stop_signal	-1.0	n/a	True	stop_success	s603
278.768	0.85	0.3	89.0	stop_signal	89.0	0.705	False	go	s603
281.296	0.85	0.3	71.0	stop_signal	89.0	0.918	False	stop_failure	s603
283.552	0.85	0.25	89.0	stop_signal	89.0	0.886	False	stop_failure	s603
285.939	0.85	0.2	71.0	stop_signal	89.0	0.562	False	go	s603
288.603	0.85	0.2	71.0	stop_signal	-1.0	n/a	True	stop_success	s603
290.856	0.85	0.25	89.0	stop_signal	89.0	0.783	False	go	s603
294.062	0.85	0.25	89.0	stop_signal	89.0	0.595	False	go	s603
296.451	0.85	0.25	71.0	stop_signal	71.0	0.675	False	go	s603
298.843	0.85	0.25	71.0	stop_signal	-1.0	n/a	True	stop_success	s603
301.371	0.85	0.3	71.0	stop_signal	71.0	0.558	False	go	s603
303.625	0.85	0.3	89.0	stop_signal	-1.0	n/a	True	stop_success	s603
305.878	0.85	0.35	89.0	stop_signal	89.0	0.694	False	stop_failure	s603
308.131	0.85	0.3	71.0	stop_signal	71.0	0.721	False	go	s603
311.067	0.85	0.3	71.0	stop_signal	71.0	0.857	False	go	s603
313.595	0.85	0.3	89.0	stop_signal	71.0	1.56	False	go	s603
316.123	0.85	0.3	89.0	stop_signal	89.0	0.758	False	go	s603
318.379	0.85	0.3	89.0	stop_signal	-1.0	n/a	True	stop_success	s603
320.903	0.85	0.35	89.0	stop_signal	-1.0	n/a	True	stop_success	s603
323.155	0.85	0.4	89.0	stop_signal	89.0	0.943	False	go	s603
