onset	duration	CTI	correct	correct_response	cue	cue_switch	experiment_exp_id	key_press	response_time	stim_color	stim_number	switch_type	task_type	task_switch	worker_id	first_trial_of_block
3.62	1.0	0.1	True	89.0	Orange-Blue	stay	twobytwo	89.0	0.972	blue	4.0	cue_stay	color	stay	s603	1
7.753	1.0	0.9	True	71.0	Magnitude	n/a	twobytwo	71.0	0.594	orange	7.0	task_switch	magnitude	switch	s603	0
10.273	1.0	0.1	True	89.0	Color	n/a	twobytwo	89.0	1.14	blue	6.0	task_switch	color	switch	s603	0
13.193	1.0	0.1	True	89.0	Magnitude	n/a	twobytwo	89.0	0.739	orange	1.0	task_switch	magnitude	switch	s603	0
16.505	1.0	0.9	True	71.0	Color	n/a	twobytwo	71.0	0.404	orange	4.0	task_switch	color	switch	s603	0
18.75	1.0	0.1	True	71.0	Color	stay	twobytwo	71.0	0.61	orange	7.0	cue_stay	color	stay	s603	0
20.998	1.0	0.1	True	71.0	Orange-Blue	switch	twobytwo	71.0	0.699	orange	8.0	cue_switch	color	stay	s603	0
23.905	1.0	0.9	True	71.0	Color	switch	twobytwo	71.0	0.819	orange	2.0	cue_switch	color	stay	s603	0
26.009	1.0	0.1	True	89.0	Magnitude	n/a	twobytwo	89.0	0.793	orange	1.0	task_switch	magnitude	switch	s603	0
29.188	1.0	0.9	True	71.0	Orange-Blue	n/a	twobytwo	71.0	0.523	orange	9.0	task_switch	color	switch	s603	0
31.708	1.0	0.1	True	89.0	High-Low	n/a	twobytwo	89.0	0.966	orange	2.0	task_switch	magnitude	switch	s603	0
34.611	1.0	0.9	True	71.0	Magnitude	switch	twobytwo	71.0	0.59	orange	8.0	cue_switch	magnitude	stay	s603	0
37.654	1.0	0.9	True	71.0	Color	n/a	twobytwo	71.0	1.104	orange	3.0	task_switch	color	switch	s603	0
39.76	1.0	0.1	True	89.0	High-Low	n/a	twobytwo	89.0	0.994	orange	1.0	task_switch	magnitude	switch	s603	0
42.278	1.0	0.1	True	89.0	Magnitude	switch	twobytwo	89.0	0.648	blue	1.0	cue_switch	magnitude	stay	s603	0
45.457	1.0	0.9	True	89.0	Color	n/a	twobytwo	89.0	0.459	blue	1.0	task_switch	color	switch	s603	0
47.565	1.0	0.1	True	71.0	Orange-Blue	switch	twobytwo	71.0	0.65	orange	7.0	cue_switch	color	stay	s603	0
49.947	1.0	0.1	True	89.0	High-Low	n/a	twobytwo	89.0	0.841	orange	4.0	task_switch	magnitude	switch	s603	0
52.854	1.0	0.9	True	71.0	Color	n/a	twobytwo	71.0	0.826	orange	3.0	task_switch	color	switch	s603	0
54.966	1.0	0.1	True	71.0	Color	stay	twobytwo	71.0	0.937	orange	6.0	cue_stay	color	stay	s603	0
57.348	1.0	0.1	True	89.0	High-Low	n/a	twobytwo	89.0	0.74	orange	1.0	task_switch	magnitude	switch	s603	0
59.59	1.0	0.1	True	71.0	Orange-Blue	n/a	twobytwo	71.0	1.103	orange	1.0	task_switch	color	switch	s603	0
62.497	1.0	0.9	True	71.0	Orange-Blue	stay	twobytwo	71.0	0.554	orange	3.0	cue_stay	color	stay	s603	0
64.604	1.0	0.1	True	89.0	High-Low	n/a	twobytwo	89.0	1.328	orange	3.0	task_switch	magnitude	switch	s603	0
67.51	1.0	0.9	True	89.0	Magnitude	switch	twobytwo	89.0	0.563	orange	2.0	cue_switch	magnitude	stay	s603	0
69.617	1.0	0.1	True	71.0	Magnitude	stay	twobytwo	71.0	0.953	orange	7.0	cue_stay	magnitude	stay	s603	0
71.726	1.0	0.1	True	89.0	Orange-Blue	n/a	twobytwo	89.0	0.797	blue	3.0	task_switch	color	switch	s603	0
73.965	1.0	0.1	True	89.0	Orange-Blue	stay	twobytwo	89.0	0.64	blue	2.0	cue_stay	color	stay	s603	0
76.87	1.0	0.9	True	89.0	Magnitude	n/a	twobytwo	89.0	0.52	orange	3.0	task_switch	magnitude	switch	s603	0
78.974	1.0	0.1	False	89.0	High-Low	switch	twobytwo	71.0	1.104	blue	4.0	cue_switch	magnitude	stay	s603	0
81.217	1.0	0.1	True	89.0	Magnitude	switch	twobytwo	89.0	1.032	orange	1.0	cue_switch	magnitude	stay	s603	0
84.121	1.0	0.9	True	89.0	Orange-Blue	n/a	twobytwo	89.0	0.774	blue	1.0	task_switch	color	switch	s603	0
86.361	1.0	0.1	True	89.0	Magnitude	n/a	twobytwo	89.0	1.113	orange	4.0	task_switch	magnitude	switch	s603	0
89.948	1.0	0.9	True	71.0	Magnitude	stay	twobytwo	71.0	0.56	orange	8.0	cue_stay	magnitude	stay	s603	0
92.329	1.0	0.1	True	89.0	Magnitude	stay	twobytwo	89.0	0.853	orange	2.0	cue_stay	magnitude	stay	s603	0
95.372	1.0	0.9	False	89.0	Orange-Blue	n/a	twobytwo	71.0	1.01	blue	8.0	task_switch	color	switch	s603	0
98.278	1.0	0.9	True	89.0	Magnitude	n/a	twobytwo	89.0	0.421	blue	4.0	task_switch	magnitude	switch	s603	0
100.521	1.0	0.1	True	71.0	Color	n/a	twobytwo	71.0	1.152	orange	8.0	task_switch	color	switch	s603	0
103.308	1.0	0.1	True	89.0	Magnitude	n/a	twobytwo	89.0	0.624	blue	1.0	task_switch	magnitude	switch	s603	0
106.486	1.0	0.9	False	89.0	High-Low	switch	twobytwo	71.0	0.583	blue	2.0	cue_switch	magnitude	stay	s603	0
109.393	1.0	0.9	False	89.0	Color	n/a	twobytwo	-1.0	n/a	blue	7.0	task_switch	color	switch	s603	0
112.297	1.0	0.9	True	89.0	Color	stay	twobytwo	89.0	0.485	blue	3.0	cue_stay	color	stay	s603	0
114.54	1.0	0.1	True	89.0	Color	stay	twobytwo	89.0	0.909	blue	9.0	cue_stay	color	stay	s603	0
117.446	1.0	0.9	True	89.0	Color	stay	twobytwo	89.0	0.516	blue	7.0	cue_stay	color	stay	s603	0
119.553	1.0	0.1	True	71.0	Orange-Blue	switch	twobytwo	71.0	0.849	orange	7.0	cue_switch	color	stay	s603	0
122.465	1.0	0.9	True	89.0	Magnitude	n/a	twobytwo	89.0	1.069	orange	4.0	task_switch	magnitude	switch	s603	0
124.841	1.0	0.1	True	89.0	Color	n/a	twobytwo	89.0	1.079	blue	1.0	task_switch	color	switch	s603	0
127.356	1.0	0.1	True	89.0	Color	stay	twobytwo	89.0	0.781	blue	7.0	cue_stay	color	stay	s603	0
130.268	1.0	0.9	True	89.0	Color	stay	twobytwo	89.0	0.424	blue	8.0	cue_stay	color	stay	s603	0
132.374	1.0	0.1	True	89.0	Magnitude	n/a	twobytwo	89.0	0.801	orange	3.0	task_switch	magnitude	switch	s603	0
134.481	1.0	0.1	False	71.0	Color	n/a	twobytwo	89.0	0.812	orange	7.0	task_switch	color	switch	s603	0
137.663	1.0	0.9	True	71.0	Color	stay	twobytwo	71.0	1.278	orange	4.0	cue_stay	color	stay	s603	0
139.905	1.0	0.1	True	89.0	Magnitude	n/a	twobytwo	89.0	0.973	orange	3.0	task_switch	magnitude	switch	s603	0
142.812	1.0	0.9	True	71.0	High-Low	switch	twobytwo	71.0	0.773	blue	9.0	cue_switch	magnitude	stay	s603	0
145.462	1.0	0.1	False	71.0	Color	n/a	twobytwo	89.0	0.758	orange	3.0	task_switch	color	switch	s603	0
148.64	1.0	0.9	True	71.0	Color	stay	twobytwo	71.0	0.604	orange	8.0	cue_stay	color	stay	s603	0
151.82	1.0	0.9	True	71.0	Orange-Blue	switch	twobytwo	71.0	1.14	orange	8.0	cue_switch	color	stay	s603	0
153.926	1.0	0.1	True	71.0	Orange-Blue	stay	twobytwo	71.0	0.871	orange	7.0	cue_stay	color	stay	s603	0
156.032	1.0	0.1	True	71.0	Magnitude	n/a	twobytwo	71.0	1.462	blue	8.0	task_switch	magnitude	switch	s603	0
159.078	1.0	0.9	False	71.0	Orange-Blue	n/a	twobytwo	89.0	0.947	orange	7.0	task_switch	color	switch	s603	0
161.982	1.0	0.9	True	89.0	Color	switch	twobytwo	89.0	0.745	blue	7.0	cue_switch	color	stay	s603	0
165.021	1.0	0.9	True	71.0	High-Low	n/a	twobytwo	71.0	1.079	orange	7.0	task_switch	magnitude	switch	s603	0
167.401	1.0	0.1	False	71.0	Orange-Blue	n/a	twobytwo	89.0	1.181	orange	4.0	task_switch	color	switch	s603	0
170.442	1.0	0.9	True	89.0	Orange-Blue	stay	twobytwo	89.0	0.702	blue	1.0	cue_stay	color	stay	s603	0
172.822	1.0	0.1	True	89.0	Magnitude	n/a	twobytwo	89.0	0.706	orange	3.0	task_switch	magnitude	switch	s603	0
175.729	1.0	0.9	True	71.0	Magnitude	stay	twobytwo	71.0	1.233	orange	7.0	cue_stay	magnitude	stay	s603	0
179.449	1.0	0.9	True	89.0	High-Low	switch	twobytwo	89.0	0.571	blue	1.0	cue_switch	magnitude	stay	s603	0
181.964	1.0	0.1	True	89.0	High-Low	stay	twobytwo	89.0	0.696	blue	1.0	cue_stay	magnitude	stay	s603	0
184.075	1.0	0.1	True	89.0	High-Low	stay	twobytwo	89.0	0.758	orange	3.0	cue_stay	magnitude	stay	s603	0
187.524	1.0	0.9	True	89.0	Orange-Blue	n/a	twobytwo	89.0	0.868	blue	8.0	task_switch	color	switch	s603	0
190.566	1.0	0.9	True	89.0	High-Low	n/a	twobytwo	89.0	1.26	blue	3.0	task_switch	magnitude	switch	s603	0
193.473	1.0	0.9	True	89.0	High-Low	stay	twobytwo	89.0	0.576	orange	4.0	cue_stay	magnitude	stay	s603	0
195.582	1.0	0.1	True	71.0	Magnitude	switch	twobytwo	71.0	0.805	blue	7.0	cue_switch	magnitude	stay	s603	0
197.822	1.0	0.1	True	71.0	Magnitude	stay	twobytwo	71.0	0.79	orange	8.0	cue_stay	magnitude	stay	s603	0
200.864	1.0	0.9	True	71.0	Color	n/a	twobytwo	71.0	0.493	orange	8.0	task_switch	color	switch	s603	0
204.042	1.0	0.9	True	71.0	Orange-Blue	switch	twobytwo	71.0	0.776	orange	2.0	cue_switch	color	stay	s603	0
208.175	1.0	0.9	True	89.0	Color	switch	twobytwo	89.0	0.571	blue	1.0	cue_switch	color	stay	s603	0
210.284	1.0	0.1	True	89.0	Magnitude	n/a	twobytwo	89.0	0.906	blue	4.0	task_switch	magnitude	switch	s603	0
212.39	1.0	0.1	True	89.0	Color	n/a	twobytwo	89.0	1.2	blue	8.0	task_switch	color	switch	s603	0
215.566	1.0	0.9	True	89.0	Magnitude	n/a	twobytwo	89.0	0.848	orange	3.0	task_switch	magnitude	switch	s603	0
231.324	1.0	0.1	True	89.0	Magnitude	stay	twobytwo	89.0	0.72	blue	4.0	cue_stay	magnitude	stay	s603	1
234.23	1.0	0.9	True	71.0	Orange-Blue	n/a	twobytwo	71.0	0.569	orange	7.0	task_switch	color	switch	s603	0
236.337	1.0	0.1	True	71.0	High-Low	n/a	twobytwo	71.0	1.13	blue	6.0	task_switch	magnitude	switch	s603	0
238.441	1.0	0.1	False	71.0	Orange-Blue	n/a	twobytwo	89.0	0.748	orange	1.0	task_switch	color	switch	s603	0
242.033	1.0	0.9	True	89.0	Magnitude	n/a	twobytwo	89.0	0.96	orange	4.0	task_switch	magnitude	switch	s603	0
244.136	1.0	0.1	True	71.0	Magnitude	stay	twobytwo	71.0	0.685	orange	7.0	cue_stay	magnitude	stay	s603	0
246.518	1.0	0.1	True	71.0	High-Low	switch	twobytwo	71.0	0.754	orange	8.0	cue_switch	magnitude	stay	s603	0
249.425	1.0	0.9	True	89.0	Magnitude	switch	twobytwo	89.0	0.556	orange	2.0	cue_switch	magnitude	stay	s603	0
251.806	1.0	0.1	False	71.0	Color	n/a	twobytwo	89.0	0.719	orange	1.0	task_switch	color	switch	s603	0
255.662	1.0	0.9	True	71.0	High-Low	n/a	twobytwo	71.0	0.751	orange	9.0	task_switch	magnitude	switch	s603	0
257.767	1.0	0.1	False	71.0	Orange-Blue	n/a	twobytwo	89.0	1.469	orange	2.0	task_switch	color	switch	s603	0
260.678	1.0	0.9	True	71.0	Color	switch	twobytwo	71.0	1.06	orange	8.0	cue_switch	color	stay	s603	0
263.585	1.0	0.9	True	89.0	Magnitude	n/a	twobytwo	89.0	0.65	orange	3.0	task_switch	magnitude	switch	s603	0
265.694	1.0	0.1	True	71.0	Orange-Blue	n/a	twobytwo	71.0	1.254	orange	1.0	task_switch	color	switch	s603	0
267.937	1.0	0.1	True	89.0	Color	switch	twobytwo	89.0	0.721	blue	1.0	cue_switch	color	stay	s603	0
270.848	1.0	0.9	True	89.0	High-Low	n/a	twobytwo	89.0	0.554	blue	1.0	task_switch	magnitude	switch	s603	0
272.955	1.0	0.1	True	71.0	Magnitude	switch	twobytwo	71.0	0.961	orange	7.0	cue_switch	magnitude	stay	s603	0
275.062	1.0	0.1	False	71.0	Orange-Blue	n/a	twobytwo	89.0	0.884	orange	4.0	task_switch	color	switch	s603	0
278.244	1.0	0.9	True	89.0	High-Low	n/a	twobytwo	89.0	0.524	orange	3.0	task_switch	magnitude	switch	s603	0
280.486	1.0	0.1	True	71.0	High-Low	stay	twobytwo	71.0	1.226	orange	6.0	cue_stay	magnitude	stay	s603	0
282.596	1.0	0.1	True	71.0	Orange-Blue	n/a	twobytwo	71.0	1.119	orange	1.0	task_switch	color	switch	s603	0
284.841	1.0	0.1	True	89.0	High-Low	n/a	twobytwo	89.0	1.152	orange	1.0	task_switch	magnitude	switch	s603	0
288.564	1.0	0.9	True	89.0	High-Low	stay	twobytwo	89.0	0.69	orange	3.0	cue_stay	magnitude	stay	s603	0
291.077	1.0	0.1	True	71.0	Orange-Blue	n/a	twobytwo	71.0	0.88	orange	3.0	task_switch	color	switch	s603	0
293.988	1.0	0.9	True	71.0	Color	switch	twobytwo	71.0	1.08	orange	2.0	cue_switch	color	stay	s603	0
296.227	1.0	0.1	True	71.0	Color	stay	twobytwo	71.0	0.816	orange	7.0	cue_stay	color	stay	s603	0
298.468	1.0	0.1	True	89.0	Magnitude	n/a	twobytwo	89.0	1.231	blue	3.0	task_switch	magnitude	switch	s603	0
300.716	1.0	0.1	True	89.0	Magnitude	stay	twobytwo	89.0	0.825	blue	2.0	cue_stay	magnitude	stay	s603	0
304.169	1.0	0.9	True	71.0	Color	n/a	twobytwo	71.0	0.531	orange	3.0	task_switch	color	switch	s603	0
306.41	1.0	0.1	True	89.0	Orange-Blue	switch	twobytwo	89.0	1.639	blue	4.0	cue_switch	color	stay	s603	0
308.518	1.0	0.1	True	71.0	Color	switch	twobytwo	71.0	0.838	orange	1.0	cue_switch	color	stay	s603	0
311.425	1.0	0.9	True	89.0	Magnitude	n/a	twobytwo	89.0	0.444	blue	1.0	task_switch	magnitude	switch	s603	0
313.532	1.0	0.1	False	71.0	Orange-Blue	n/a	twobytwo	89.0	1.236	orange	4.0	task_switch	color	switch	s603	0
316.435	1.0	0.9	True	71.0	Orange-Blue	stay	twobytwo	71.0	0.586	orange	8.0	cue_stay	color	stay	s603	0
318.677	1.0	0.1	True	71.0	Orange-Blue	stay	twobytwo	71.0	1.046	orange	2.0	cue_stay	color	stay	s603	0
321.585	1.0	0.9	True	71.0	High-Low	n/a	twobytwo	71.0	0.708	blue	8.0	task_switch	magnitude	switch	s603	0
324.492	1.0	0.9	False	89.0	Orange-Blue	n/a	twobytwo	71.0	0.965	blue	4.0	task_switch	color	switch	s603	0
326.601	1.0	0.1	True	71.0	Magnitude	n/a	twobytwo	71.0	1.098	orange	8.0	task_switch	magnitude	switch	s603	0
328.846	1.0	0.1	True	89.0	Orange-Blue	n/a	twobytwo	89.0	0.884	blue	1.0	task_switch	color	switch	s603	0
331.892	1.0	0.9	True	89.0	Color	switch	twobytwo	89.0	0.961	blue	2.0	cue_switch	color	stay	s603	0
334.931	1.0	0.9	True	71.0	High-Low	n/a	twobytwo	71.0	0.91	blue	7.0	task_switch	magnitude	switch	s603	0
337.971	1.0	0.9	True	89.0	High-Low	stay	twobytwo	89.0	0.86	blue	3.0	cue_stay	magnitude	stay	s603	0
340.758	1.0	0.1	True	71.0	High-Low	stay	twobytwo	71.0	1.281	blue	9.0	cue_stay	magnitude	stay	s603	0
344.214	1.0	0.9	True	71.0	High-Low	stay	twobytwo	71.0	0.606	blue	7.0	cue_stay	magnitude	stay	s603	0
346.593	1.0	0.1	True	71.0	Magnitude	switch	twobytwo	71.0	0.736	orange	7.0	cue_switch	magnitude	stay	s603	0
349.769	1.0	0.9	True	71.0	Orange-Blue	n/a	twobytwo	71.0	0.683	orange	4.0	task_switch	color	switch	s603	0
352.281	1.0	0.1	True	89.0	Magnitude	n/a	twobytwo	89.0	1.299	blue	1.0	task_switch	magnitude	switch	s603	0
354.529	1.0	0.1	True	71.0	Magnitude	stay	twobytwo	71.0	0.761	blue	7.0	cue_stay	magnitude	stay	s603	0
357.706	1.0	0.9	True	71.0	Magnitude	stay	twobytwo	71.0	0.551	blue	8.0	cue_stay	magnitude	stay	s603	0
359.811	1.0	0.1	False	71.0	Color	n/a	twobytwo	89.0	0.818	orange	3.0	task_switch	color	switch	s603	0
362.052	1.0	0.1	True	71.0	Magnitude	n/a	twobytwo	71.0	1.082	orange	7.0	task_switch	magnitude	switch	s603	0
365.233	1.0	0.9	True	89.0	Magnitude	stay	twobytwo	89.0	0.922	orange	4.0	cue_stay	magnitude	stay	s603	0
367.342	1.0	0.1	True	71.0	Color	n/a	twobytwo	71.0	0.998	orange	3.0	task_switch	color	switch	s603	0
370.929	1.0	0.9	True	89.0	Orange-Blue	switch	twobytwo	89.0	0.891	blue	9.0	cue_switch	color	stay	s603	0
373.036	1.0	0.1	False	89.0	Magnitude	n/a	twobytwo	71.0	1.284	orange	3.0	task_switch	magnitude	switch	s603	0
375.942	1.0	0.9	True	71.0	Magnitude	stay	twobytwo	71.0	0.787	orange	8.0	cue_stay	magnitude	stay	s603	0
378.846	1.0	0.9	True	71.0	High-Low	switch	twobytwo	71.0	1.232	orange	8.0	cue_switch	magnitude	stay	s603	0
381.228	1.0	0.1	True	71.0	High-Low	stay	twobytwo	71.0	1.168	orange	7.0	cue_stay	magnitude	stay	s603	0
383.334	1.0	0.1	False	89.0	Orange-Blue	n/a	twobytwo	71.0	1.041	blue	8.0	task_switch	color	switch	s603	0
386.241	1.0	0.9	True	71.0	Magnitude	n/a	twobytwo	71.0	0.756	orange	7.0	task_switch	magnitude	switch	s603	0
389.145	1.0	0.9	True	71.0	High-Low	switch	twobytwo	71.0	0.846	blue	7.0	cue_switch	magnitude	stay	s603	0
392.732	1.0	0.9	True	71.0	Orange-Blue	n/a	twobytwo	71.0	0.755	orange	7.0	task_switch	color	switch	s603	0
394.841	1.0	0.1	True	89.0	High-Low	n/a	twobytwo	89.0	1.208	orange	4.0	task_switch	magnitude	switch	s603	0
397.886	1.0	0.9	True	89.0	High-Low	stay	twobytwo	89.0	0.535	blue	1.0	cue_stay	magnitude	stay	s603	0
400.403	1.0	0.1	True	71.0	Color	n/a	twobytwo	71.0	1.104	orange	3.0	task_switch	color	switch	s603	0
403.446	1.0	0.9	False	71.0	Color	stay	twobytwo	89.0	0.747	orange	7.0	cue_stay	color	stay	s603	0
406.358	1.0	0.9	True	89.0	Orange-Blue	switch	twobytwo	89.0	1.327	blue	1.0	cue_switch	color	stay	s603	0
408.465	1.0	0.1	True	89.0	Orange-Blue	stay	twobytwo	89.0	0.682	blue	1.0	cue_stay	color	stay	s603	0
411.113	1.0	0.1	True	71.0	Orange-Blue	stay	twobytwo	71.0	1.323	orange	3.0	cue_stay	color	stay	s603	0
414.159	1.0	0.9	True	71.0	Magnitude	n/a	twobytwo	71.0	0.62	blue	8.0	task_switch	magnitude	switch	s603	0
417.609	1.0	0.9	True	89.0	Color	n/a	twobytwo	89.0	0.866	blue	3.0	task_switch	color	switch	s603	0
421.201	1.0	0.9	True	71.0	Color	stay	twobytwo	71.0	0.952	orange	4.0	cue_stay	color	stay	s603	0
423.304	1.0	0.1	True	89.0	Orange-Blue	switch	twobytwo	89.0	1.269	blue	7.0	cue_switch	color	stay	s603	0
425.681	1.0	0.1	True	71.0	Orange-Blue	stay	twobytwo	71.0	0.825	orange	8.0	cue_stay	color	stay	s603	0
429.676	1.0	0.9	True	71.0	Magnitude	n/a	twobytwo	71.0	0.631	orange	8.0	task_switch	magnitude	switch	s603	0
432.58	1.0	0.9	True	89.0	High-Low	switch	twobytwo	89.0	0.607	orange	2.0	cue_switch	magnitude	stay	s603	0
435.62	1.0	0.9	True	89.0	Magnitude	switch	twobytwo	89.0	0.553	blue	1.0	cue_switch	magnitude	stay	s603	0
437.859	1.0	0.1	True	89.0	Orange-Blue	n/a	twobytwo	89.0	1.154	blue	4.0	task_switch	color	switch	s603	0
439.964	1.0	0.1	False	71.0	Magnitude	n/a	twobytwo	89.0	1.836	blue	8.0	task_switch	magnitude	switch	s603	0
443.142	1.0	0.9	False	71.0	Orange-Blue	n/a	twobytwo	89.0	1.199	orange	3.0	task_switch	color	switch	s603	0
458.766	1.0	0.1	True	89.0	High-Low	stay	twobytwo	89.0	0.985	blue	4.0	cue_stay	magnitude	stay	s603	1
461.805	1.0	0.9	True	71.0	Orange-Blue	n/a	twobytwo	71.0	0.614	orange	7.0	task_switch	color	switch	s603	0
464.049	1.0	0.1	True	71.0	High-Low	n/a	twobytwo	71.0	1.133	blue	6.0	task_switch	magnitude	switch	s603	0
466.705	1.0	0.1	False	71.0	Orange-Blue	n/a	twobytwo	89.0	0.674	orange	1.0	task_switch	color	switch	s603	0
469.609	1.0	0.9	True	89.0	Magnitude	n/a	twobytwo	89.0	1.51	orange	4.0	task_switch	magnitude	switch	s603	0
471.854	1.0	0.1	True	71.0	Magnitude	stay	twobytwo	71.0	1.551	orange	7.0	cue_stay	magnitude	stay	s603	0
474.099	1.0	0.1	True	71.0	High-Low	switch	twobytwo	71.0	1.452	orange	8.0	cue_switch	magnitude	stay	s603	0
477.147	1.0	0.9	True	89.0	Magnitude	switch	twobytwo	89.0	0.548	orange	2.0	cue_switch	magnitude	stay	s603	0
479.256	1.0	0.1	True	71.0	Orange-Blue	n/a	twobytwo	71.0	1.161	orange	1.0	task_switch	color	switch	s603	0
482.3	1.0	0.9	True	71.0	Magnitude	n/a	twobytwo	71.0	0.705	orange	9.0	task_switch	magnitude	switch	s603	0
484.408	1.0	0.1	True	71.0	Color	n/a	twobytwo	71.0	1.026	orange	2.0	task_switch	color	switch	s603	0
487.448	1.0	0.9	True	71.0	Orange-Blue	switch	twobytwo	71.0	0.556	orange	8.0	cue_switch	color	stay	s603	0
491.175	1.0	0.9	True	89.0	Magnitude	n/a	twobytwo	89.0	0.643	orange	3.0	task_switch	magnitude	switch	s603	0
493.417	1.0	0.1	True	71.0	Color	n/a	twobytwo	71.0	0.964	orange	1.0	task_switch	color	switch	s603	0
495.526	1.0	0.1	True	89.0	Orange-Blue	switch	twobytwo	89.0	1.635	blue	1.0	cue_switch	color	stay	s603	0
498.433	1.0	0.9	True	89.0	Magnitude	n/a	twobytwo	89.0	1.277	blue	1.0	task_switch	magnitude	switch	s603	0
500.811	1.0	0.1	True	71.0	High-Low	switch	twobytwo	71.0	0.853	orange	7.0	cue_switch	magnitude	stay	s603	0
502.918	1.0	0.1	False	71.0	Color	n/a	twobytwo	89.0	0.714	orange	4.0	task_switch	color	switch	s603	0
505.83	1.0	0.9	True	89.0	High-Low	n/a	twobytwo	89.0	1.234	orange	3.0	task_switch	magnitude	switch	s603	0
507.94	1.0	0.1	True	71.0	High-Low	stay	twobytwo	71.0	1.047	orange	6.0	cue_stay	magnitude	stay	s603	0
510.457	1.0	0.1	False	71.0	Orange-Blue	n/a	twobytwo	89.0	1.209	orange	1.0	task_switch	color	switch	s603	0
512.836	1.0	0.1	False	89.0	High-Low	n/a	twobytwo	-1.0	n/a	orange	1.0	task_switch	magnitude	switch	s603	0
515.878	1.0	0.9	True	89.0	High-Low	stay	twobytwo	89.0	1.252	orange	3.0	cue_stay	magnitude	stay	s603	0
517.985	1.0	0.1	True	71.0	Orange-Blue	n/a	twobytwo	71.0	1.115	orange	3.0	task_switch	color	switch	s603	0
520.889	1.0	0.9	True	71.0	Color	switch	twobytwo	71.0	0.815	orange	2.0	cue_switch	color	stay	s603	0
523.132	1.0	0.1	True	71.0	Color	stay	twobytwo	71.0	0.718	orange	7.0	cue_stay	color	stay	s603	0
525.238	1.0	0.1	True	89.0	Magnitude	n/a	twobytwo	89.0	0.852	blue	3.0	task_switch	magnitude	switch	s603	0
527.48	1.0	0.1	True	89.0	Magnitude	stay	twobytwo	89.0	0.678	blue	2.0	cue_stay	magnitude	stay	s603	0
530.793	1.0	0.9	True	71.0	Orange-Blue	n/a	twobytwo	71.0	0.681	orange	3.0	task_switch	color	switch	s603	0
533.036	1.0	0.1	True	89.0	Color	switch	twobytwo	89.0	1.539	blue	4.0	cue_switch	color	stay	s603	0
535.145	1.0	0.1	True	71.0	Orange-Blue	switch	twobytwo	71.0	1.707	orange	1.0	cue_switch	color	stay	s603	0
538.188	1.0	0.9	True	89.0	Magnitude	n/a	twobytwo	89.0	0.808	blue	1.0	task_switch	magnitude	switch	s603	0
540.566	1.0	0.1	True	71.0	Orange-Blue	n/a	twobytwo	71.0	0.845	orange	4.0	task_switch	color	switch	s603	0
543.47	1.0	0.9	True	71.0	Orange-Blue	stay	twobytwo	71.0	0.501	orange	8.0	cue_stay	color	stay	s603	0
545.985	1.0	0.1	True	71.0	Orange-Blue	stay	twobytwo	71.0	1.122	orange	2.0	cue_stay	color	stay	s603	0
548.894	1.0	0.9	False	71.0	Magnitude	n/a	twobytwo	89.0	0.913	blue	8.0	task_switch	magnitude	switch	s603	0
551.94	1.0	0.9	True	89.0	Orange-Blue	n/a	twobytwo	89.0	1.971	blue	4.0	task_switch	color	switch	s603	0
554.457	1.0	0.1	True	71.0	High-Low	n/a	twobytwo	71.0	1.091	orange	8.0	task_switch	magnitude	switch	s603	0
556.702	1.0	0.1	True	89.0	Orange-Blue	n/a	twobytwo	89.0	1.234	blue	1.0	task_switch	color	switch	s603	0
560.014	1.0	0.9	True	89.0	Color	switch	twobytwo	89.0	0.789	blue	2.0	cue_switch	color	stay	s603	0
563.057	1.0	0.9	True	71.0	High-Low	n/a	twobytwo	71.0	0.779	blue	7.0	task_switch	magnitude	switch	s603	0
565.969	1.0	0.9	True	89.0	High-Low	stay	twobytwo	89.0	0.83	blue	3.0	cue_stay	magnitude	stay	s603	0
568.348	1.0	0.1	True	71.0	High-Low	stay	twobytwo	71.0	1.194	blue	9.0	cue_stay	magnitude	stay	s603	0
571.259	1.0	0.9	True	71.0	High-Low	stay	twobytwo	71.0	0.809	blue	7.0	cue_stay	magnitude	stay	s603	0
573.638	1.0	0.1	False	71.0	Magnitude	switch	twobytwo	89.0	1.123	orange	7.0	cue_switch	magnitude	stay	s603	0
576.818	1.0	0.9	True	71.0	Color	n/a	twobytwo	71.0	1.457	orange	4.0	task_switch	color	switch	s603	0
579.876	1.0	0.1	True	89.0	Magnitude	n/a	twobytwo	89.0	0.87	blue	1.0	task_switch	magnitude	switch	s603	0
582.664	1.0	0.1	True	71.0	Magnitude	stay	twobytwo	71.0	0.936	blue	7.0	cue_stay	magnitude	stay	s603	0
585.707	1.0	0.9	True	71.0	Magnitude	stay	twobytwo	71.0	0.5	blue	8.0	cue_stay	magnitude	stay	s603	0
588.086	1.0	0.1	False	71.0	Orange-Blue	n/a	twobytwo	89.0	0.721	orange	3.0	task_switch	color	switch	s603	0
590.462	1.0	0.1	False	71.0	High-Low	n/a	twobytwo	-1.0	n/a	orange	7.0	task_switch	magnitude	switch	s603	0
593.502	1.0	0.9	False	89.0	High-Low	stay	twobytwo	-1.0	n/a	orange	4.0	cue_stay	magnitude	stay	s603	0
596.019	1.0	0.1	True	71.0	Color	n/a	twobytwo	71.0	0.446	orange	3.0	task_switch	color	switch	s603	0
599.06	1.0	0.9	False	89.0	Orange-Blue	switch	twobytwo	71.0	0.899	blue	9.0	cue_switch	color	stay	s603	0
601.307	1.0	0.1	True	89.0	Magnitude	n/a	twobytwo	89.0	0.894	orange	3.0	task_switch	magnitude	switch	s603	0
604.216	1.0	0.9	True	71.0	Magnitude	stay	twobytwo	71.0	0.556	orange	8.0	cue_stay	magnitude	stay	s603	0
607.126	1.0	0.9	True	71.0	High-Low	switch	twobytwo	71.0	0.938	orange	8.0	cue_switch	magnitude	stay	s603	0
609.233	1.0	0.1	True	71.0	High-Low	stay	twobytwo	71.0	1.015	orange	7.0	cue_stay	magnitude	stay	s603	0
611.34	1.0	0.1	True	89.0	Orange-Blue	n/a	twobytwo	89.0	0.744	blue	8.0	task_switch	color	switch	s603	0
614.252	1.0	0.9	True	71.0	Magnitude	n/a	twobytwo	71.0	0.747	orange	7.0	task_switch	magnitude	switch	s603	0
617.433	1.0	0.9	True	71.0	High-Low	switch	twobytwo	71.0	0.604	blue	7.0	cue_switch	magnitude	stay	s603	0
620.748	1.0	0.9	True	71.0	Color	n/a	twobytwo	71.0	0.696	orange	7.0	task_switch	color	switch	s603	0
622.857	1.0	0.1	True	89.0	Magnitude	n/a	twobytwo	89.0	0.825	orange	4.0	task_switch	magnitude	switch	s603	0
625.905	1.0	0.9	True	89.0	Magnitude	stay	twobytwo	89.0	0.832	blue	1.0	cue_stay	magnitude	stay	s603	0
628.014	1.0	0.1	True	71.0	Orange-Blue	n/a	twobytwo	71.0	1.362	orange	3.0	task_switch	color	switch	s603	0
631.062	1.0	0.9	True	71.0	Orange-Blue	stay	twobytwo	71.0	0.635	orange	7.0	cue_stay	color	stay	s603	0
634.516	1.0	0.9	True	89.0	Color	switch	twobytwo	89.0	0.654	blue	1.0	cue_switch	color	stay	s603	0
637.308	1.0	0.1	True	89.0	Color	stay	twobytwo	89.0	0.756	blue	1.0	cue_stay	color	stay	s603	0
640.505	1.0	0.1	True	71.0	Color	stay	twobytwo	71.0	0.755	orange	3.0	cue_stay	color	stay	s603	0
643.551	1.0	0.9	True	71.0	Magnitude	n/a	twobytwo	71.0	0.797	blue	8.0	task_switch	magnitude	switch	s603	0
647.003	1.0	0.9	True	89.0	Color	n/a	twobytwo	89.0	0.676	blue	3.0	task_switch	color	switch	s603	0
649.909	1.0	0.9	True	71.0	Color	stay	twobytwo	71.0	0.614	orange	4.0	cue_stay	color	stay	s603	0
652.153	1.0	0.1	True	89.0	Orange-Blue	switch	twobytwo	89.0	1.272	blue	7.0	cue_switch	color	stay	s603	0
654.26	1.0	0.1	True	71.0	Orange-Blue	stay	twobytwo	71.0	1.624	orange	8.0	cue_stay	color	stay	s603	0
657.574	1.0	0.9	True	71.0	Magnitude	n/a	twobytwo	71.0	0.89	orange	8.0	task_switch	magnitude	switch	s603	0
660.481	1.0	0.9	True	89.0	High-Low	switch	twobytwo	89.0	1.302	orange	2.0	cue_switch	magnitude	stay	s603	0
663.39	1.0	0.9	True	89.0	Magnitude	switch	twobytwo	89.0	0.744	blue	1.0	cue_switch	magnitude	stay	s603	0
665.497	1.0	0.1	False	89.0	Orange-Blue	n/a	twobytwo	71.0	1.048	blue	4.0	task_switch	color	switch	s603	0
668.284	1.0	0.1	True	71.0	Magnitude	n/a	twobytwo	71.0	1.208	blue	8.0	task_switch	magnitude	switch	s603	0
671.465	1.0	0.9	False	71.0	Orange-Blue	n/a	twobytwo	89.0	1.046	orange	3.0	task_switch	color	switch	s603	0
