onset	duration	planning	condition	current_position	exp_stage	experiment_exp_id	goal_state	key_press	problem_id	response_time	start_state	trial_id	worker_id
-54.801	0.0	0	n/a	n/a	n/a	ward_and_allport	n/a	32.0	n/a	20.093	n/a	instructions	s603
3.01	5.124	1	UA_with_intermediate	1,0,0,2,0,0,0,0,0	practice	ward_and_allport	1,2,3,0,0,0,0,0,0	71.0	0.0	5.124	1,0,0,2,3,0,0,0,0	to_hand	s603
8.136	0.922	0	UA_with_intermediate	1,0,0,2,0,0,3,0,0	practice	ward_and_allport	1,2,3,0,0,0,0,0,0	82.0	0.0	0.922	1,0,0,2,3,0,0,0,0	to_board	s603
9.06	2.153	0	UA_with_intermediate	1,0,0,0,0,0,3,0,0	practice	ward_and_allport	1,2,3,0,0,0,0,0,0	71.0	0.0	2.153	1,0,0,2,3,0,0,0,0	to_hand	s603
11.213	1.039	0	UA_with_intermediate	1,2,0,0,0,0,3,0,0	practice	ward_and_allport	1,2,3,0,0,0,0,0,0	89.0	0.0	1.039	1,0,0,2,3,0,0,0,0	to_board	s603
12.254	1.002	0	UA_with_intermediate	1,2,0,0,0,0,0,0,0	practice	ward_and_allport	1,2,3,0,0,0,0,0,0	82.0	0.0	1.002	1,0,0,2,3,0,0,0,0	to_hand	s603
13.258	4.055	0	UA_with_intermediate	1,2,0,3,0,0,0,0,0	practice	ward_and_allport	1,2,3,0,0,0,0,0,0	71.0	0.0	4.055	1,0,0,2,3,0,0,0,0	to_board	s603
17.314	1.856	0	UA_with_intermediate	1,2,0,0,0,0,0,0,0	practice	ward_and_allport	1,2,3,0,0,0,0,0,0	71.0	0.0	1.856	1,0,0,2,3,0,0,0,0	to_hand	s603
19.172	0.739	0	UA_with_intermediate	1,2,3,0,0,0,0,0,0	practice	ward_and_allport	1,2,3,0,0,0,0,0,0	89.0	0.0	0.739	1,0,0,2,3,0,0,0,0	to_board	s603
19.917	1.0	0	UA_with_intermediate	n/a	practice	ward_and_allport	n/a	-1.0	0.0	n/a	n/a	feedback	s603
22.419	6.631	1	UA_with_intermediate	1,0,0,3,0,0,0,0,0	practice	ward_and_allport	1,3,2,0,0,0,0,0,0	89.0	1.0	6.631	1,2,0,3,0,0,0,0,0	to_hand	s603
29.051	0.856	0	UA_with_intermediate	1,0,0,3,0,0,2,0,0	practice	ward_and_allport	1,3,2,0,0,0,0,0,0	82.0	1.0	0.856	1,2,0,3,0,0,0,0,0	to_board	s603
29.909	1.245	0	UA_with_intermediate	1,0,0,0,0,0,2,0,0	practice	ward_and_allport	1,3,2,0,0,0,0,0,0	71.0	1.0	1.245	1,2,0,3,0,0,0,0,0	to_hand	s603
31.155	0.562	0	UA_with_intermediate	1,3,0,0,0,0,2,0,0	practice	ward_and_allport	1,3,2,0,0,0,0,0,0	89.0	1.0	0.562	1,2,0,3,0,0,0,0,0	to_board	s603
31.719	2.079	0	UA_with_intermediate	1,3,0,0,0,0,0,0,0	practice	ward_and_allport	1,3,2,0,0,0,0,0,0	82.0	1.0	2.079	1,2,0,3,0,0,0,0,0	to_hand	s603
33.8	0.725	0	UA_with_intermediate	1,3,2,0,0,0,0,0,0	practice	ward_and_allport	1,3,2,0,0,0,0,0,0	89.0	1.0	0.725	1,2,0,3,0,0,0,0,0	to_board	s603
34.53	1.0	0	UA_with_intermediate	n/a	practice	ward_and_allport	n/a	-1.0	1.0	n/a	n/a	feedback	s603
35.53	1.1	0	UA_with_intermediate	n/a	practice	ward_and_allport	n/a	-1.0	1.0	n/a	n/a	ITI	s603
36.632	10.477	1	UA_without_intermediate	0,0,0,1,2,0,0,0,0	practice	ward_and_allport	3,2,1,0,0,0,0,0,0	82.0	2.0	10.477	0,0,0,1,2,0,3,0,0	to_hand	s603
47.11	0.765	0	UA_without_intermediate	3,0,0,1,2,0,0,0,0	practice	ward_and_allport	3,2,1,0,0,0,0,0,0	89.0	2.0	0.765	0,0,0,1,2,0,3,0,0	to_board	s603
47.877	1.965	0	UA_without_intermediate	3,0,0,1,0,0,0,0,0	practice	ward_and_allport	3,2,1,0,0,0,0,0,0	71.0	2.0	1.965	0,0,0,1,2,0,3,0,0	to_hand	s603
49.844	0.768	0	UA_without_intermediate	3,2,0,1,0,0,0,0,0	practice	ward_and_allport	3,2,1,0,0,0,0,0,0	89.0	2.0	0.768	0,0,0,1,2,0,3,0,0	to_board	s603
50.615	1.236	0	UA_without_intermediate	3,2,0,0,0,0,0,0,0	practice	ward_and_allport	3,2,1,0,0,0,0,0,0	71.0	2.0	1.236	0,0,0,1,2,0,3,0,0	to_hand	s603
51.853	0.354	0	UA_without_intermediate	3,2,1,0,0,0,0,0,0	practice	ward_and_allport	3,2,1,0,0,0,0,0,0	89.0	2.0	0.354	0,0,0,1,2,0,3,0,0	to_board	s603
52.21	1.0	0	UA_without_intermediate	n/a	practice	ward_and_allport	n/a	-1.0	2.0	n/a	n/a	feedback	s603
53.21	1.2	0	UA_without_intermediate	n/a	practice	ward_and_allport	n/a	-1.0	2.0	n/a	n/a	ITI	s603
54.412	5.456	1	UA_without_intermediate	0,0,0,1,0,0,3,0,0	practice	ward_and_allport	2,3,1,0,0,0,0,0,0	71.0	3.0	5.456	0,0,0,1,2,0,3,0,0	to_hand	s603
59.869	0.518	0	UA_without_intermediate	2,0,0,1,0,0,3,0,0	practice	ward_and_allport	2,3,1,0,0,0,0,0,0	89.0	3.0	0.518	0,0,0,1,2,0,3,0,0	to_board	s603
60.39	1.54	0	UA_without_intermediate	2,0,0,1,0,0,0,0,0	practice	ward_and_allport	2,3,1,0,0,0,0,0,0	82.0	3.0	1.54	0,0,0,1,2,0,3,0,0	to_hand	s603
61.931	0.39	0	UA_without_intermediate	2,3,0,1,0,0,0,0,0	practice	ward_and_allport	2,3,1,0,0,0,0,0,0	89.0	3.0	0.39	0,0,0,1,2,0,3,0,0	to_board	s603
62.323	1.076	0	UA_without_intermediate	2,3,0,0,0,0,0,0,0	practice	ward_and_allport	2,3,1,0,0,0,0,0,0	71.0	3.0	1.076	0,0,0,1,2,0,3,0,0	to_hand	s603
63.401	0.606	0	UA_without_intermediate	2,3,1,0,0,0,0,0,0	practice	ward_and_allport	2,3,1,0,0,0,0,0,0	89.0	3.0	0.606	0,0,0,1,2,0,3,0,0	to_board	s603
64.011	1.0	0	UA_without_intermediate	n/a	practice	ward_and_allport	n/a	-1.0	3.0	n/a	n/a	feedback	s603
65.011	1.0	0	UA_without_intermediate	n/a	practice	ward_and_allport	n/a	-1.0	3.0	n/a	n/a	ITI	s603
68.017	8.898	1	PA_without_intermediate	1,2,0,0,0,0,0,0,0	test	ward_and_allport	0,0,0,1,0,0,3,2,0	89.0	0.0	8.898	1,2,3,0,0,0,0,0,0	to_hand	s603
76.917	0.715	0	PA_without_intermediate	1,2,0,0,0,0,3,0,0	test	ward_and_allport	0,0,0,1,0,0,3,2,0	82.0	0.0	0.715	1,2,3,0,0,0,0,0,0	to_board	s603
77.634	2.465	0	PA_without_intermediate	1,0,0,0,0,0,3,0,0	test	ward_and_allport	0,0,0,1,0,0,3,2,0	89.0	0.0	2.465	1,2,3,0,0,0,0,0,0	to_hand	s603
80.1	0.724	0	PA_without_intermediate	1,0,0,0,0,0,3,2,0	test	ward_and_allport	0,0,0,1,0,0,3,2,0	82.0	0.0	0.724	1,2,3,0,0,0,0,0,0	to_board	s603
80.825	1.352	0	PA_without_intermediate	0,0,0,0,0,0,3,2,0	test	ward_and_allport	0,0,0,1,0,0,3,2,0	89.0	0.0	1.352	1,2,3,0,0,0,0,0,0	to_hand	s603
82.179	0.345	0	PA_without_intermediate	0,0,0,1,0,0,3,2,0	test	ward_and_allport	0,0,0,1,0,0,3,2,0	71.0	0.0	0.345	1,2,3,0,0,0,0,0,0	to_board	s603
82.529	1.0	0	PA_without_intermediate	n/a	test	ward_and_allport	n/a	-1.0	0.0	n/a	n/a	feedback	s603
83.529	2.088	0	PA_without_intermediate	n/a	test	ward_and_allport	n/a	-1.0	0.0	n/a	n/a	ITI	s603
85.619	4.714	1	PA_with_intermediate	0,0,0,1,2,0,0,0,0	test	ward_and_allport	2,0,0,1,3,0,0,0,0	71.0	1.0	4.714	0,0,0,1,2,3,0,0,0	to_hand	s603
90.334	0.285	0	PA_with_intermediate	0,0,0,1,2,0,3,0,0	test	ward_and_allport	2,0,0,1,3,0,0,0,0	82.0	1.0	0.285	0,0,0,1,2,3,0,0,0	to_board	s603
90.621	1.872	0	PA_with_intermediate	0,0,0,1,0,0,3,0,0	test	ward_and_allport	2,0,0,1,3,0,0,0,0	71.0	1.0	1.872	0,0,0,1,2,3,0,0,0	to_hand	s603
92.495	0.455	0	PA_with_intermediate	2,0,0,1,0,0,3,0,0	test	ward_and_allport	2,0,0,1,3,0,0,0,0	89.0	1.0	0.455	0,0,0,1,2,3,0,0,0	to_board	s603
92.952	1.374	0	PA_with_intermediate	2,0,0,1,0,0,0,0,0	test	ward_and_allport	2,0,0,1,3,0,0,0,0	82.0	1.0	1.374	0,0,0,1,2,3,0,0,0	to_hand	s603
94.328	0.487	0	PA_with_intermediate	2,0,0,1,3,0,0,0,0	test	ward_and_allport	2,0,0,1,3,0,0,0,0	71.0	1.0	0.487	0,0,0,1,2,3,0,0,0	to_board	s603
94.819	1.0	0	PA_with_intermediate	n/a	test	ward_and_allport	n/a	-1.0	1.0	n/a	n/a	feedback	s603
95.819	1.0	0	PA_with_intermediate	n/a	test	ward_and_allport	n/a	-1.0	1.0	n/a	n/a	ITI	s603
96.822	5.586	1	PA_without_intermediate	1,2,0,0,0,0,0,0,0	test	ward_and_allport	0,0,0,2,0,0,3,1,0	89.0	2.0	5.586	1,2,3,0,0,0,0,0,0	to_hand	s603
102.41	1.189	0	PA_without_intermediate	1,2,0,0,0,0,3,0,0	test	ward_and_allport	0,0,0,2,0,0,3,1,0	82.0	2.0	1.189	1,2,3,0,0,0,0,0,0	to_board	s603
103.602	3.571	0	PA_without_intermediate	1,0,0,0,0,0,3,0,0	test	ward_and_allport	0,0,0,2,0,0,3,1,0	89.0	2.0	3.571	1,2,3,0,0,0,0,0,0	to_hand	s603
107.174	0.856	0	PA_without_intermediate	1,0,0,0,0,0,3,2,0	test	ward_and_allport	0,0,0,2,0,0,3,1,0	82.0	2.0	0.856	1,2,3,0,0,0,0,0,0	to_board	s603
108.032	1.677	0	PA_without_intermediate	1,0,0,0,0,0,3,0,0	test	ward_and_allport	0,0,0,2,0,0,3,1,0	82.0	2.0	1.677	1,2,3,0,0,0,0,0,0	to_hand	s603
109.71	0.832	0	PA_without_intermediate	1,0,0,2,0,0,3,0,0	test	ward_and_allport	0,0,0,2,0,0,3,1,0	71.0	2.0	0.832	1,2,3,0,0,0,0,0,0	to_board	s603
110.544	1.797	0	PA_without_intermediate	0,0,0,2,0,0,3,0,0	test	ward_and_allport	0,0,0,2,0,0,3,1,0	89.0	2.0	1.797	1,2,3,0,0,0,0,0,0	to_hand	s603
112.343	0.568	0	PA_without_intermediate	0,0,0,2,0,0,3,1,0	test	ward_and_allport	0,0,0,2,0,0,3,1,0	82.0	2.0	0.568	1,2,3,0,0,0,0,0,0	to_board	s603
112.916	1.0	0	PA_without_intermediate	n/a	test	ward_and_allport	n/a	-1.0	2.0	n/a	n/a	feedback	s603
113.916	1.0	0	PA_without_intermediate	n/a	test	ward_and_allport	n/a	-1.0	2.0	n/a	n/a	ITI	s603
114.919	2.999	1	PA_without_intermediate	0,0,0,1,2,0,0,0,0	test	ward_and_allport	2,0,0,0,0,0,3,1,0	71.0	3.0	2.999	0,0,0,1,2,3,0,0,0	to_hand	s603
117.919	0.451	0	PA_without_intermediate	0,0,0,1,2,0,3,0,0	test	ward_and_allport	2,0,0,0,0,0,3,1,0	82.0	3.0	0.451	0,0,0,1,2,3,0,0,0	to_board	s603
118.374	0.967	0	PA_without_intermediate	0,0,0,1,0,0,3,0,0	test	ward_and_allport	2,0,0,0,0,0,3,1,0	71.0	3.0	0.967	0,0,0,1,2,3,0,0,0	to_hand	s603
119.343	0.424	0	PA_without_intermediate	2,0,0,1,0,0,3,0,0	test	ward_and_allport	2,0,0,0,0,0,3,1,0	89.0	3.0	0.424	0,0,0,1,2,3,0,0,0	to_board	s603
119.77	0.685	0	PA_without_intermediate	2,0,0,0,0,0,3,0,0	test	ward_and_allport	2,0,0,0,0,0,3,1,0	71.0	3.0	0.685	0,0,0,1,2,3,0,0,0	to_hand	s603
120.456	0.852	0	PA_without_intermediate	2,0,0,0,0,0,3,1,0	test	ward_and_allport	2,0,0,0,0,0,3,1,0	82.0	3.0	0.852	0,0,0,1,2,3,0,0,0	to_board	s603
121.313	1.0	0	PA_without_intermediate	n/a	test	ward_and_allport	n/a	-1.0	3.0	n/a	n/a	feedback	s603
122.313	1.0	0	PA_without_intermediate	n/a	test	ward_and_allport	n/a	-1.0	3.0	n/a	n/a	ITI	s603
123.316	5.961	1	PA_with_intermediate	0,0,0,0,0,0,1,2,0	test	ward_and_allport	2,3,0,0,0,0,1,0,0	82.0	4.0	5.961	0,0,0,0,0,0,1,2,3	to_hand	s603
129.278	0.462	0	PA_with_intermediate	0,0,0,3,0,0,1,2,0	test	ward_and_allport	2,3,0,0,0,0,1,0,0	71.0	4.0	0.462	0,0,0,0,0,0,1,2,3	to_board	s603
129.743	2.203	0	PA_with_intermediate	0,0,0,3,0,0,1,0,0	test	ward_and_allport	2,3,0,0,0,0,1,0,0	82.0	4.0	2.203	0,0,0,0,0,0,1,2,3	to_hand	s603
131.947	0.574	0	PA_with_intermediate	2,0,0,3,0,0,1,0,0	test	ward_and_allport	2,3,0,0,0,0,1,0,0	89.0	4.0	0.574	0,0,0,0,0,0,1,2,3	to_board	s603
132.524	2.37	0	PA_with_intermediate	2,0,0,0,0,0,1,0,0	test	ward_and_allport	2,3,0,0,0,0,1,0,0	71.0	4.0	2.37	0,0,0,0,0,0,1,2,3	to_hand	s603
134.894	0.744	0	PA_with_intermediate	2,3,0,0,0,0,1,0,0	test	ward_and_allport	2,3,0,0,0,0,1,0,0	89.0	4.0	0.744	0,0,0,0,0,0,1,2,3	to_board	s603
135.643	1.0	0	PA_with_intermediate	n/a	test	ward_and_allport	n/a	-1.0	4.0	n/a	n/a	feedback	s603
136.643	1.544	0	PA_with_intermediate	n/a	test	ward_and_allport	n/a	-1.0	4.0	n/a	n/a	ITI	s603
138.191	5.547	1	PA_without_intermediate	0,0,0,0,0,0,1,2,0	test	ward_and_allport	3,2,0,1,0,0,0,0,0	82.0	5.0	5.547	0,0,0,0,0,0,1,2,3	to_hand	s603
143.739	0.733	0	PA_without_intermediate	3,0,0,0,0,0,1,2,0	test	ward_and_allport	3,2,0,1,0,0,0,0,0	89.0	5.0	0.733	0,0,0,0,0,0,1,2,3	to_board	s603
144.475	1.942	0	PA_without_intermediate	3,0,0,0,0,0,1,0,0	test	ward_and_allport	3,2,0,1,0,0,0,0,0	82.0	5.0	1.942	0,0,0,0,0,0,1,2,3	to_hand	s603
146.418	0.456	0	PA_without_intermediate	3,2,0,0,0,0,1,0,0	test	ward_and_allport	3,2,0,1,0,0,0,0,0	89.0	5.0	0.456	0,0,0,0,0,0,1,2,3	to_board	s603
146.878	1.803	0	PA_without_intermediate	3,2,0,0,0,0,0,0,0	test	ward_and_allport	3,2,0,1,0,0,0,0,0	82.0	5.0	1.803	0,0,0,0,0,0,1,2,3	to_hand	s603
148.682	0.57	0	PA_without_intermediate	3,2,0,1,0,0,0,0,0	test	ward_and_allport	3,2,0,1,0,0,0,0,0	71.0	5.0	0.57	0,0,0,0,0,0,1,2,3	to_board	s603
149.259	1.0	0	PA_without_intermediate	n/a	test	ward_and_allport	n/a	-1.0	5.0	n/a	n/a	feedback	s603
150.259	1.272	0	PA_without_intermediate	n/a	test	ward_and_allport	n/a	-1.0	5.0	n/a	n/a	ITI	s603
151.535	5.401	1	PA_with_intermediate	0,0,0,1,2,0,0,0,0	test	ward_and_allport	0,0,0,1,3,0,2,0,0	71.0	6.0	5.401	0,0,0,1,2,3,0,0,0	to_hand	s603
156.937	0.318	0	PA_with_intermediate	3,0,0,1,2,0,0,0,0	test	ward_and_allport	0,0,0,1,3,0,2,0,0	89.0	6.0	0.318	0,0,0,1,2,3,0,0,0	to_board	s603
157.258	0.642	0	PA_with_intermediate	3,0,0,1,0,0,0,0,0	test	ward_and_allport	0,0,0,1,3,0,2,0,0	71.0	6.0	0.642	0,0,0,1,2,3,0,0,0	to_hand	s603
157.901	0.288	0	PA_with_intermediate	3,0,0,1,0,0,2,0,0	test	ward_and_allport	0,0,0,1,3,0,2,0,0	82.0	6.0	0.288	0,0,0,1,2,3,0,0,0	to_board	s603
158.193	1.19	0	PA_with_intermediate	0,0,0,1,0,0,2,0,0	test	ward_and_allport	0,0,0,1,3,0,2,0,0	89.0	6.0	1.19	0,0,0,1,2,3,0,0,0	to_hand	s603
159.384	0.29	0	PA_with_intermediate	0,0,0,1,3,0,2,0,0	test	ward_and_allport	0,0,0,1,3,0,2,0,0	71.0	6.0	0.29	0,0,0,1,2,3,0,0,0	to_board	s603
159.677	1.0	0	PA_with_intermediate	n/a	test	ward_and_allport	n/a	-1.0	6.0	n/a	n/a	feedback	s603
160.677	3.04	0	PA_with_intermediate	n/a	test	ward_and_allport	n/a	-1.0	6.0	n/a	n/a	ITI	s603
163.723	5.52	1	PA_with_intermediate	0,0,0,0,0,0,1,2,0	test	ward_and_allport	0,0,0,2,3,0,1,0,0	82.0	7.0	5.52	0,0,0,0,0,0,1,2,3	to_hand	s603
169.244	0.351	0	PA_with_intermediate	3,0,0,0,0,0,1,2,0	test	ward_and_allport	0,0,0,2,3,0,1,0,0	89.0	7.0	0.351	0,0,0,0,0,0,1,2,3	to_board	s603
169.598	1.399	0	PA_with_intermediate	3,0,0,0,0,0,1,0,0	test	ward_and_allport	0,0,0,2,3,0,1,0,0	82.0	7.0	1.399	0,0,0,0,0,0,1,2,3	to_hand	s603
170.998	0.427	0	PA_with_intermediate	3,0,0,2,0,0,1,0,0	test	ward_and_allport	0,0,0,2,3,0,1,0,0	71.0	7.0	0.427	0,0,0,0,0,0,1,2,3	to_board	s603
171.428	0.947	0	PA_with_intermediate	0,0,0,2,0,0,1,0,0	test	ward_and_allport	0,0,0,2,3,0,1,0,0	89.0	7.0	0.947	0,0,0,0,0,0,1,2,3	to_hand	s603
172.376	0.432	0	PA_with_intermediate	0,0,0,2,3,0,1,0,0	test	ward_and_allport	0,0,0,2,3,0,1,0,0	71.0	7.0	0.432	0,0,0,0,0,0,1,2,3	to_board	s603
172.817	1.0	0	PA_with_intermediate	n/a	test	ward_and_allport	n/a	-1.0	7.0	n/a	n/a	feedback	s603
173.817	1.272	0	PA_with_intermediate	n/a	test	ward_and_allport	n/a	-1.0	7.0	n/a	n/a	ITI	s603
175.092	4.694	1	PA_with_intermediate	1,2,0,0,0,0,0,0,0	test	ward_and_allport	1,3,0,2,0,0,0,0,0	89.0	8.0	4.694	1,2,3,0,0,0,0,0,0	to_hand	s603
179.787	0.459	0	PA_with_intermediate	1,2,0,0,0,0,3,0,0	test	ward_and_allport	1,3,0,2,0,0,0,0,0	82.0	8.0	0.459	1,2,3,0,0,0,0,0,0	to_board	s603
180.25	1.226	0	PA_with_intermediate	1,0,0,0,0,0,3,0,0	test	ward_and_allport	1,3,0,2,0,0,0,0,0	89.0	8.0	1.226	1,2,3,0,0,0,0,0,0	to_hand	s603
181.477	0.655	0	PA_with_intermediate	1,0,0,2,0,0,3,0,0	test	ward_and_allport	1,3,0,2,0,0,0,0,0	71.0	8.0	0.655	1,2,3,0,0,0,0,0,0	to_board	s603
182.135	0.993	0	PA_with_intermediate	1,0,0,2,0,0,0,0,0	test	ward_and_allport	1,3,0,2,0,0,0,0,0	82.0	8.0	0.993	1,2,3,0,0,0,0,0,0	to_hand	s603
183.129	0.775	0	PA_with_intermediate	1,0,0,2,3,0,0,0,0	test	ward_and_allport	1,3,0,2,0,0,0,0,0	71.0	8.0	0.775	1,2,3,0,0,0,0,0,0	to_board	s603
183.907	1.447	0	PA_with_intermediate	1,0,0,2,0,0,0,0,0	test	ward_and_allport	1,3,0,2,0,0,0,0,0	71.0	8.0	1.447	1,2,3,0,0,0,0,0,0	to_hand	s603
185.356	0.502	0	PA_with_intermediate	1,3,0,2,0,0,0,0,0	test	ward_and_allport	1,3,0,2,0,0,0,0,0	89.0	8.0	0.502	1,2,3,0,0,0,0,0,0	to_board	s603
185.865	1.0	0	PA_with_intermediate	n/a	test	ward_and_allport	n/a	-1.0	8.0	n/a	n/a	feedback	s603
186.865	1.136	0	PA_with_intermediate	n/a	test	ward_and_allport	n/a	-1.0	8.0	n/a	n/a	ITI	s603
188.004	4.219	1	PA_with_intermediate	0,0,0,1,2,0,0,0,0	test	ward_and_allport	0,0,0,1,0,0,2,3,0	71.0	9.0	4.219	0,0,0,1,2,3,0,0,0	to_hand	s603
192.224	0.544	0	PA_with_intermediate	3,0,0,1,2,0,0,0,0	test	ward_and_allport	0,0,0,1,0,0,2,3,0	89.0	9.0	0.544	0,0,0,1,2,3,0,0,0	to_board	s603
192.774	0.68	0	PA_with_intermediate	3,0,0,1,0,0,0,0,0	test	ward_and_allport	0,0,0,1,0,0,2,3,0	71.0	9.0	0.68	0,0,0,1,2,3,0,0,0	to_hand	s603
193.454	0.378	0	PA_with_intermediate	3,0,0,1,0,0,2,0,0	test	ward_and_allport	0,0,0,1,0,0,2,3,0	82.0	9.0	0.378	0,0,0,1,2,3,0,0,0	to_board	s603
193.837	1.353	0	PA_with_intermediate	0,0,0,1,0,0,2,0,0	test	ward_and_allport	0,0,0,1,0,0,2,3,0	89.0	9.0	1.353	0,0,0,1,2,3,0,0,0	to_hand	s603
195.191	0.451	0	PA_with_intermediate	0,0,0,1,0,0,2,3,0	test	ward_and_allport	0,0,0,1,0,0,2,3,0	82.0	9.0	0.451	0,0,0,1,2,3,0,0,0	to_board	s603
195.649	1.0	0	PA_with_intermediate	n/a	test	ward_and_allport	n/a	-1.0	9.0	n/a	n/a	feedback	s603
196.649	1.0	0	PA_with_intermediate	n/a	test	ward_and_allport	n/a	-1.0	9.0	n/a	n/a	ITI	s603
197.653	4.998	1	PA_with_intermediate	0,0,0,0,0,0,1,2,0	test	ward_and_allport	0,0,0,2,3,0,1,0,0	82.0	10.0	4.998	0,0,0,0,0,0,1,2,3	to_hand	s603
202.653	0.356	0	PA_with_intermediate	3,0,0,0,0,0,1,2,0	test	ward_and_allport	0,0,0,2,3,0,1,0,0	89.0	10.0	0.356	0,0,0,0,0,0,1,2,3	to_board	s603
203.013	1.779	0	PA_with_intermediate	3,0,0,0,0,0,1,0,0	test	ward_and_allport	0,0,0,2,3,0,1,0,0	82.0	10.0	1.779	0,0,0,0,0,0,1,2,3	to_hand	s603
204.794	0.44	0	PA_with_intermediate	3,0,0,2,0,0,1,0,0	test	ward_and_allport	0,0,0,2,3,0,1,0,0	71.0	10.0	0.44	0,0,0,0,0,0,1,2,3	to_board	s603
205.238	1.428	0	PA_with_intermediate	0,0,0,2,0,0,1,0,0	test	ward_and_allport	0,0,0,2,3,0,1,0,0	89.0	10.0	1.428	0,0,0,0,0,0,1,2,3	to_hand	s603
206.667	1.022	0	PA_with_intermediate	0,0,0,2,3,0,1,0,0	test	ward_and_allport	0,0,0,2,3,0,1,0,0	71.0	10.0	1.022	0,0,0,0,0,0,1,2,3	to_board	s603
207.697	1.0	0	PA_with_intermediate	n/a	test	ward_and_allport	n/a	-1.0	10.0	n/a	n/a	feedback	s603
208.697	1.0	0	PA_with_intermediate	n/a	test	ward_and_allport	n/a	-1.0	10.0	n/a	n/a	ITI	s603
209.701	4.023	1	PA_without_intermediate	1,2,0,0,0,0,0,0,0	test	ward_and_allport	0,0,0,3,1,0,2,0,0	89.0	11.0	4.023	1,2,3,0,0,0,0,0,0	to_hand	s603
213.725	1.195	0	PA_without_intermediate	1,2,0,3,0,0,0,0,0	test	ward_and_allport	0,0,0,3,1,0,2,0,0	71.0	11.0	1.195	1,2,3,0,0,0,0,0,0	to_board	s603
214.924	1.118	0	PA_without_intermediate	1,0,0,3,0,0,0,0,0	test	ward_and_allport	0,0,0,3,1,0,2,0,0	89.0	11.0	1.118	1,2,3,0,0,0,0,0,0	to_hand	s603
216.043	0.625	0	PA_without_intermediate	1,0,0,3,0,0,2,0,0	test	ward_and_allport	0,0,0,3,1,0,2,0,0	82.0	11.0	0.625	1,2,3,0,0,0,0,0,0	to_board	s603
216.672	0.706	0	PA_without_intermediate	0,0,0,3,0,0,2,0,0	test	ward_and_allport	0,0,0,3,1,0,2,0,0	89.0	11.0	0.706	1,2,3,0,0,0,0,0,0	to_hand	s603
217.379	0.486	0	PA_without_intermediate	0,0,0,3,1,0,2,0,0	test	ward_and_allport	0,0,0,3,1,0,2,0,0	71.0	11.0	0.486	1,2,3,0,0,0,0,0,0	to_board	s603
217.87	1.0	0	PA_without_intermediate	n/a	test	ward_and_allport	n/a	-1.0	11.0	n/a	n/a	feedback	s603
218.87	1.408	0	PA_without_intermediate	n/a	test	ward_and_allport	n/a	-1.0	11.0	n/a	n/a	ITI	s603
220.282	4.406	1	PA_with_intermediate	1,2,0,0,0,0,0,0,0	test	ward_and_allport	1,3,0,0,0,0,2,0,0	89.0	12.0	4.406	1,2,3,0,0,0,0,0,0	to_hand	s603
224.689	4.144	0	PA_with_intermediate	1,2,0,3,0,0,0,0,0	test	ward_and_allport	1,3,0,0,0,0,2,0,0	71.0	12.0	4.144	1,2,3,0,0,0,0,0,0	to_board	s603
228.838	0.86	0	PA_with_intermediate	1,0,0,3,0,0,0,0,0	test	ward_and_allport	1,3,0,0,0,0,2,0,0	89.0	12.0	0.86	1,2,3,0,0,0,0,0,0	to_hand	s603
229.7	0.411	0	PA_with_intermediate	1,0,0,3,0,0,2,0,0	test	ward_and_allport	1,3,0,0,0,0,2,0,0	82.0	12.0	0.411	1,2,3,0,0,0,0,0,0	to_board	s603
230.116	1.417	0	PA_with_intermediate	1,0,0,0,0,0,2,0,0	test	ward_and_allport	1,3,0,0,0,0,2,0,0	71.0	12.0	1.417	1,2,3,0,0,0,0,0,0	to_hand	s603
231.534	0.433	0	PA_with_intermediate	1,3,0,0,0,0,2,0,0	test	ward_and_allport	1,3,0,0,0,0,2,0,0	89.0	12.0	0.433	1,2,3,0,0,0,0,0,0	to_board	s603
231.973	1.0	0	PA_with_intermediate	n/a	test	ward_and_allport	n/a	-1.0	12.0	n/a	n/a	feedback	s603
232.973	2.768	0	PA_with_intermediate	n/a	test	ward_and_allport	n/a	-1.0	12.0	n/a	n/a	ITI	s603
235.745	4.6	1	PA_with_intermediate	1,2,0,0,0,0,0,0,0	test	ward_and_allport	1,0,0,0,0,0,2,3,0	89.0	13.0	4.6	1,2,3,0,0,0,0,0,0	to_hand	s603
240.346	0.433	0	PA_with_intermediate	1,2,0,3,0,0,0,0,0	test	ward_and_allport	1,0,0,0,0,0,2,3,0	71.0	13.0	0.433	1,2,3,0,0,0,0,0,0	to_board	s603
240.783	0.944	0	PA_with_intermediate	1,0,0,3,0,0,0,0,0	test	ward_and_allport	1,0,0,0,0,0,2,3,0	89.0	13.0	0.944	1,2,3,0,0,0,0,0,0	to_hand	s603
241.728	0.536	0	PA_with_intermediate	1,0,0,3,0,0,2,0,0	test	ward_and_allport	1,0,0,0,0,0,2,3,0	82.0	13.0	0.536	1,2,3,0,0,0,0,0,0	to_board	s603
242.269	0.453	0	PA_with_intermediate	1,0,0,0,0,0,2,0,0	test	ward_and_allport	1,0,0,0,0,0,2,3,0	71.0	13.0	0.453	1,2,3,0,0,0,0,0,0	to_hand	s603
242.723	0.56	0	PA_with_intermediate	1,0,0,0,0,0,2,3,0	test	ward_and_allport	1,0,0,0,0,0,2,3,0	82.0	13.0	0.56	1,2,3,0,0,0,0,0,0	to_board	s603
243.289	1.0	0	PA_with_intermediate	n/a	test	ward_and_allport	n/a	-1.0	13.0	n/a	n/a	feedback	s603
244.289	1.68	0	PA_with_intermediate	n/a	test	ward_and_allport	n/a	-1.0	13.0	n/a	n/a	ITI	s603
245.972	3.13	1	PA_without_intermediate	1,2,0,0,0,0,0,0,0	test	ward_and_allport	0,0,0,3,2,0,1,0,0	89.0	14.0	3.13	1,2,3,0,0,0,0,0,0	to_hand	s603
249.103	0.628	0	PA_without_intermediate	1,2,0,3,0,0,0,0,0	test	ward_and_allport	0,0,0,3,2,0,1,0,0	71.0	14.0	0.628	1,2,3,0,0,0,0,0,0	to_board	s603
249.735	0.95	0	PA_without_intermediate	1,0,0,3,0,0,0,0,0	test	ward_and_allport	0,0,0,3,2,0,1,0,0	89.0	14.0	0.95	1,2,3,0,0,0,0,0,0	to_hand	s603
250.686	0.509	0	PA_without_intermediate	1,0,0,3,2,0,0,0,0	test	ward_and_allport	0,0,0,3,2,0,1,0,0	71.0	14.0	0.509	1,2,3,0,0,0,0,0,0	to_board	s603
251.199	0.652	0	PA_without_intermediate	0,0,0,3,2,0,0,0,0	test	ward_and_allport	0,0,0,3,2,0,1,0,0	89.0	14.0	0.652	1,2,3,0,0,0,0,0,0	to_hand	s603
251.852	0.733	0	PA_without_intermediate	0,0,0,3,2,0,1,0,0	test	ward_and_allport	0,0,0,3,2,0,1,0,0	82.0	14.0	0.733	1,2,3,0,0,0,0,0,0	to_board	s603
252.59	1.0	0	PA_without_intermediate	n/a	test	ward_and_allport	n/a	-1.0	14.0	n/a	n/a	feedback	s603
253.59	2.224	0	PA_without_intermediate	n/a	test	ward_and_allport	n/a	-1.0	14.0	n/a	n/a	ITI	s603
260.82	5.96	1	PA_without_intermediate	1,2,0,0,0,0,0,0,0	test	ward_and_allport	0,0,0,2,0,0,3,1,0	89.0	15.0	5.96	1,2,3,0,0,0,0,0,0	to_hand	s603
266.781	0.545	0	PA_without_intermediate	1,2,0,0,0,0,3,0,0	test	ward_and_allport	0,0,0,2,0,0,3,1,0	82.0	15.0	0.545	1,2,3,0,0,0,0,0,0	to_board	s603
267.331	1.145	0	PA_without_intermediate	1,0,0,0,0,0,3,0,0	test	ward_and_allport	0,0,0,2,0,0,3,1,0	89.0	15.0	1.145	1,2,3,0,0,0,0,0,0	to_hand	s603
268.477	0.449	0	PA_without_intermediate	1,0,0,2,0,0,3,0,0	test	ward_and_allport	0,0,0,2,0,0,3,1,0	71.0	15.0	0.449	1,2,3,0,0,0,0,0,0	to_board	s603
268.93	0.682	0	PA_without_intermediate	0,0,0,2,0,0,3,0,0	test	ward_and_allport	0,0,0,2,0,0,3,1,0	89.0	15.0	0.682	1,2,3,0,0,0,0,0,0	to_hand	s603
269.614	0.498	0	PA_without_intermediate	0,0,0,2,0,0,3,1,0	test	ward_and_allport	0,0,0,2,0,0,3,1,0	82.0	15.0	0.498	1,2,3,0,0,0,0,0,0	to_board	s603
270.116	1.0	0	PA_without_intermediate	n/a	test	ward_and_allport	n/a	-1.0	15.0	n/a	n/a	feedback	s603
271.116	2.36	0	PA_without_intermediate	n/a	test	ward_and_allport	n/a	-1.0	15.0	n/a	n/a	ITI	s603
273.48	4.27	1	PA_without_intermediate	0,0,0,1,2,0,0,0,0	test	ward_and_allport	3,1,0,0,0,0,2,0,0	71.0	16.0	4.27	0,0,0,1,2,3,0,0,0	to_hand	s603
277.752	0.265	0	PA_without_intermediate	3,0,0,1,2,0,0,0,0	test	ward_and_allport	3,1,0,0,0,0,2,0,0	89.0	16.0	0.265	0,0,0,1,2,3,0,0,0	to_board	s603
278.023	0.933	0	PA_without_intermediate	3,0,0,1,0,0,0,0,0	test	ward_and_allport	3,1,0,0,0,0,2,0,0	71.0	16.0	0.933	0,0,0,1,2,3,0,0,0	to_hand	s603
278.957	0.403	0	PA_without_intermediate	3,0,0,1,0,0,2,0,0	test	ward_and_allport	3,1,0,0,0,0,2,0,0	82.0	16.0	0.403	0,0,0,1,2,3,0,0,0	to_board	s603
279.365	0.499	0	PA_without_intermediate	3,0,0,0,0,0,2,0,0	test	ward_and_allport	3,1,0,0,0,0,2,0,0	71.0	16.0	0.499	0,0,0,1,2,3,0,0,0	to_hand	s603
279.865	0.249	0	PA_without_intermediate	3,1,0,0,0,0,2,0,0	test	ward_and_allport	3,1,0,0,0,0,2,0,0	89.0	16.0	0.249	0,0,0,1,2,3,0,0,0	to_board	s603
280.118	1.0	0	PA_without_intermediate	n/a	test	ward_and_allport	n/a	-1.0	16.0	n/a	n/a	feedback	s603
281.118	1.0	0	PA_without_intermediate	n/a	test	ward_and_allport	n/a	-1.0	16.0	n/a	n/a	ITI	s603
282.122	4.73	1	PA_without_intermediate	1,2,0,0,0,0,0,0,0	test	ward_and_allport	0,0,0,3,2,0,1,0,0	89.0	17.0	4.73	1,2,3,0,0,0,0,0,0	to_hand	s603
286.853	0.581	0	PA_without_intermediate	1,2,0,3,0,0,0,0,0	test	ward_and_allport	0,0,0,3,2,0,1,0,0	71.0	17.0	0.581	1,2,3,0,0,0,0,0,0	to_board	s603
287.439	0.775	0	PA_without_intermediate	1,0,0,3,0,0,0,0,0	test	ward_and_allport	0,0,0,3,2,0,1,0,0	89.0	17.0	0.775	1,2,3,0,0,0,0,0,0	to_hand	s603
288.216	0.737	0	PA_without_intermediate	1,0,0,3,2,0,0,0,0	test	ward_and_allport	0,0,0,3,2,0,1,0,0	71.0	17.0	0.737	1,2,3,0,0,0,0,0,0	to_board	s603
288.958	0.316	0	PA_without_intermediate	0,0,0,3,2,0,0,0,0	test	ward_and_allport	0,0,0,3,2,0,1,0,0	89.0	17.0	0.316	1,2,3,0,0,0,0,0,0	to_hand	s603
289.275	0.472	0	PA_without_intermediate	0,0,0,3,2,0,1,0,0	test	ward_and_allport	0,0,0,3,2,0,1,0,0	82.0	17.0	0.472	1,2,3,0,0,0,0,0,0	to_board	s603
289.753	1.0	0	PA_without_intermediate	n/a	test	ward_and_allport	n/a	-1.0	17.0	n/a	n/a	feedback	s603
290.753	1.408	0	PA_without_intermediate	n/a	test	ward_and_allport	n/a	-1.0	17.0	n/a	n/a	ITI	s603
292.165	2.667	1	PA_with_intermediate	1,2,0,0,0,0,0,0,0	test	ward_and_allport	1,3,0,0,0,0,2,0,0	89.0	18.0	2.667	1,2,3,0,0,0,0,0,0	to_hand	s603
294.834	1.119	0	PA_with_intermediate	1,2,0,3,0,0,0,0,0	test	ward_and_allport	1,3,0,0,0,0,2,0,0	71.0	18.0	1.119	1,2,3,0,0,0,0,0,0	to_board	s603
295.958	0.404	0	PA_with_intermediate	1,0,0,3,0,0,0,0,0	test	ward_and_allport	1,3,0,0,0,0,2,0,0	89.0	18.0	0.404	1,2,3,0,0,0,0,0,0	to_hand	s603
296.363	0.628	0	PA_with_intermediate	1,0,0,3,0,0,2,0,0	test	ward_and_allport	1,3,0,0,0,0,2,0,0	82.0	18.0	0.628	1,2,3,0,0,0,0,0,0	to_board	s603
296.995	1.408	0	PA_with_intermediate	1,0,0,0,0,0,2,0,0	test	ward_and_allport	1,3,0,0,0,0,2,0,0	71.0	18.0	1.408	1,2,3,0,0,0,0,0,0	to_hand	s603
298.404	0.322	0	PA_with_intermediate	1,3,0,0,0,0,2,0,0	test	ward_and_allport	1,3,0,0,0,0,2,0,0	89.0	18.0	0.322	1,2,3,0,0,0,0,0,0	to_board	s603
298.733	1.0	0	PA_with_intermediate	n/a	test	ward_and_allport	n/a	-1.0	18.0	n/a	n/a	feedback	s603
299.733	1.136	0	PA_with_intermediate	n/a	test	ward_and_allport	n/a	-1.0	18.0	n/a	n/a	ITI	s603
300.874	1.81	1	PA_without_intermediate	0,0,0,1,2,0,0,0,0	test	ward_and_allport	3,1,0,0,0,0,2,0,0	71.0	19.0	1.81	0,0,0,1,2,3,0,0,0	to_hand	s603
302.686	0.308	0	PA_without_intermediate	3,0,0,1,2,0,0,0,0	test	ward_and_allport	3,1,0,0,0,0,2,0,0	89.0	19.0	0.308	0,0,0,1,2,3,0,0,0	to_board	s603
302.999	0.389	0	PA_without_intermediate	3,0,0,1,0,0,0,0,0	test	ward_and_allport	3,1,0,0,0,0,2,0,0	71.0	19.0	0.389	0,0,0,1,2,3,0,0,0	to_hand	s603
303.388	0.316	0	PA_without_intermediate	3,0,0,1,0,0,2,0,0	test	ward_and_allport	3,1,0,0,0,0,2,0,0	82.0	19.0	0.316	0,0,0,1,2,3,0,0,0	to_board	s603
303.71	0.273	0	PA_without_intermediate	3,0,0,0,0,0,2,0,0	test	ward_and_allport	3,1,0,0,0,0,2,0,0	71.0	19.0	0.273	0,0,0,1,2,3,0,0,0	to_hand	s603
303.984	0.34	0	PA_without_intermediate	3,1,0,0,0,0,2,0,0	test	ward_and_allport	3,1,0,0,0,0,2,0,0	89.0	19.0	0.34	0,0,0,1,2,3,0,0,0	to_board	s603
304.334	1.0	0	PA_without_intermediate	n/a	test	ward_and_allport	n/a	-1.0	19.0	n/a	n/a	feedback	s603
305.334	4.128	0	PA_without_intermediate	n/a	test	ward_and_allport	n/a	-1.0	19.0	n/a	n/a	ITI	s603
309.467	2.891	1	PA_without_intermediate	0,0,0,0,0,0,1,2,0	test	ward_and_allport	3,1,0,2,0,0,0,0,0	82.0	20.0	2.891	0,0,0,0,0,0,1,2,3	to_hand	s603
312.36	0.245	0	PA_without_intermediate	3,0,0,0,0,0,1,2,0	test	ward_and_allport	3,1,0,2,0,0,0,0,0	89.0	20.0	0.245	0,0,0,0,0,0,1,2,3	to_board	s603
312.61	1.893	0	PA_without_intermediate	3,0,0,0,0,0,1,0,0	test	ward_and_allport	3,1,0,2,0,0,0,0,0	82.0	20.0	1.893	0,0,0,0,0,0,1,2,3	to_hand	s603
314.504	0.429	0	PA_without_intermediate	3,0,0,2,0,0,1,0,0	test	ward_and_allport	3,1,0,2,0,0,0,0,0	71.0	20.0	0.429	0,0,0,0,0,0,1,2,3	to_board	s603
314.938	2.453	0	PA_without_intermediate	3,0,0,2,0,0,0,0,0	test	ward_and_allport	3,1,0,2,0,0,0,0,0	82.0	20.0	2.453	0,0,0,0,0,0,1,2,3	to_hand	s603
317.393	0.453	0	PA_without_intermediate	3,1,0,2,0,0,0,0,0	test	ward_and_allport	3,1,0,2,0,0,0,0,0	89.0	20.0	0.453	0,0,0,0,0,0,1,2,3	to_board	s603
317.854	1.0	0	PA_without_intermediate	n/a	test	ward_and_allport	n/a	-1.0	20.0	n/a	n/a	feedback	s603
318.854	1.136	0	PA_without_intermediate	n/a	test	ward_and_allport	n/a	-1.0	20.0	n/a	n/a	ITI	s603
319.995	1.3	1	PA_without_intermediate	0,0,0,1,2,0,0,0,0	test	ward_and_allport	1,0,0,0,0,0,3,2,0	71.0	21.0	1.3	0,0,0,1,2,3,0,0,0	to_hand	s603
321.296	0.543	0	PA_without_intermediate	0,0,0,1,2,0,3,0,0	test	ward_and_allport	1,0,0,0,0,0,3,2,0	82.0	21.0	0.543	0,0,0,1,2,3,0,0,0	to_board	s603
321.844	0.627	0	PA_without_intermediate	0,0,0,1,0,0,3,0,0	test	ward_and_allport	1,0,0,0,0,0,3,2,0	71.0	21.0	0.627	0,0,0,1,2,3,0,0,0	to_hand	s603
322.472	0.416	0	PA_without_intermediate	0,0,0,1,0,0,3,2,0	test	ward_and_allport	1,0,0,0,0,0,3,2,0	82.0	21.0	0.416	0,0,0,1,2,3,0,0,0	to_board	s603
322.894	1.337	0	PA_without_intermediate	0,0,0,0,0,0,3,2,0	test	ward_and_allport	1,0,0,0,0,0,3,2,0	71.0	21.0	1.337	0,0,0,1,2,3,0,0,0	to_hand	s603
324.232	0.216	0	PA_without_intermediate	1,0,0,0,0,0,3,2,0	test	ward_and_allport	1,0,0,0,0,0,3,2,0	89.0	21.0	0.216	0,0,0,1,2,3,0,0,0	to_board	s603
324.454	1.0	0	PA_without_intermediate	n/a	test	ward_and_allport	n/a	-1.0	21.0	n/a	n/a	feedback	s603
325.454	4.264	0	PA_without_intermediate	n/a	test	ward_and_allport	n/a	-1.0	21.0	n/a	n/a	ITI	s603
329.724	1.887	1	PA_with_intermediate	0,0,0,1,2,0,0,0,0	test	ward_and_allport	2,0,0,1,3,0,0,0,0	71.0	22.0	1.887	0,0,0,1,2,3,0,0,0	to_hand	s603
331.613	0.621	0	PA_with_intermediate	0,0,0,1,2,0,3,0,0	test	ward_and_allport	2,0,0,1,3,0,0,0,0	82.0	22.0	0.621	0,0,0,1,2,3,0,0,0	to_board	s603
332.24	0.363	0	PA_with_intermediate	0,0,0,1,0,0,3,0,0	test	ward_and_allport	2,0,0,1,3,0,0,0,0	71.0	22.0	0.363	0,0,0,1,2,3,0,0,0	to_hand	s603
332.604	0.277	0	PA_with_intermediate	2,0,0,1,0,0,3,0,0	test	ward_and_allport	2,0,0,1,3,0,0,0,0	89.0	22.0	0.277	0,0,0,1,2,3,0,0,0	to_board	s603
332.887	0.817	0	PA_with_intermediate	2,0,0,1,0,0,0,0,0	test	ward_and_allport	2,0,0,1,3,0,0,0,0	82.0	22.0	0.817	0,0,0,1,2,3,0,0,0	to_hand	s603
333.705	0.078	0	PA_with_intermediate	2,0,0,1,3,0,0,0,0	test	ward_and_allport	2,0,0,1,3,0,0,0,0	71.0	22.0	0.078	0,0,0,1,2,3,0,0,0	to_board	s603
333.789	1.0	0	PA_with_intermediate	n/a	test	ward_and_allport	n/a	-1.0	22.0	n/a	n/a	feedback	s603
334.789	3.04	0	PA_with_intermediate	n/a	test	ward_and_allport	n/a	-1.0	22.0	n/a	n/a	ITI	s603
337.835	3.011	1	PA_with_intermediate	0,0,0,1,2,0,0,0,0	test	ward_and_allport	0,0,0,1,0,0,2,3,0	71.0	23.0	3.011	0,0,0,1,2,3,0,0,0	to_hand	s603
340.847	0.446	0	PA_with_intermediate	3,0,0,1,2,0,0,0,0	test	ward_and_allport	0,0,0,1,0,0,2,3,0	89.0	23.0	0.446	0,0,0,1,2,3,0,0,0	to_board	s603
341.299	0.32	0	PA_with_intermediate	3,0,0,1,0,0,0,0,0	test	ward_and_allport	0,0,0,1,0,0,2,3,0	71.0	23.0	0.32	0,0,0,1,2,3,0,0,0	to_hand	s603
341.62	0.256	0	PA_with_intermediate	3,0,0,1,0,0,2,0,0	test	ward_and_allport	0,0,0,1,0,0,2,3,0	82.0	23.0	0.256	0,0,0,1,2,3,0,0,0	to_board	s603
341.882	0.991	0	PA_with_intermediate	0,0,0,1,0,0,2,0,0	test	ward_and_allport	0,0,0,1,0,0,2,3,0	89.0	23.0	0.991	0,0,0,1,2,3,0,0,0	to_hand	s603
342.874	0.417	0	PA_with_intermediate	0,0,0,1,0,0,2,3,0	test	ward_and_allport	0,0,0,1,0,0,2,3,0	82.0	23.0	0.417	0,0,0,1,2,3,0,0,0	to_board	s603
343.298	1.0	0	PA_with_intermediate	n/a	test	ward_and_allport	n/a	-1.0	23.0	n/a	n/a	feedback	s603
344.298	1.136	0	PA_with_intermediate	n/a	test	ward_and_allport	n/a	-1.0	23.0	n/a	n/a	ITI	s603
345.443	3.018	1	PA_with_intermediate	0,0,0,0,0,0,1,2,0	test	ward_and_allport	2,0,0,0,0,0,1,3,0	82.0	24.0	3.018	0,0,0,0,0,0,1,2,3	to_hand	s603
348.461	1.19	0	PA_with_intermediate	0,0,0,3,0,0,1,2,0	test	ward_and_allport	2,0,0,0,0,0,1,3,0	71.0	24.0	1.19	0,0,0,0,0,0,1,2,3	to_board	s603
349.66	1.808	0	PA_with_intermediate	0,0,0,3,0,0,1,0,0	test	ward_and_allport	2,0,0,0,0,0,1,3,0	82.0	24.0	1.808	0,0,0,0,0,0,1,2,3	to_hand	s603
351.469	0.486	0	PA_with_intermediate	2,0,0,3,0,0,1,0,0	test	ward_and_allport	2,0,0,0,0,0,1,3,0	89.0	24.0	0.486	0,0,0,0,0,0,1,2,3	to_board	s603
351.961	2.971	0	PA_with_intermediate	2,0,0,0,0,0,1,0,0	test	ward_and_allport	2,0,0,0,0,0,1,3,0	71.0	24.0	2.971	0,0,0,0,0,0,1,2,3	to_hand	s603
354.933	0.257	0	PA_with_intermediate	2,0,0,0,0,0,1,3,0	test	ward_and_allport	2,0,0,0,0,0,1,3,0	82.0	24.0	0.257	0,0,0,0,0,0,1,2,3	to_board	s603
355.197	1.0	0	PA_with_intermediate	n/a	test	ward_and_allport	n/a	-1.0	24.0	n/a	n/a	feedback	s603
356.197	1.408	0	PA_with_intermediate	n/a	test	ward_and_allport	n/a	-1.0	24.0	n/a	n/a	ITI	s603
357.612	2.52	1	PA_without_intermediate	1,2,0,0,0,0,0,0,0	test	ward_and_allport	0,0,0,1,0,0,3,2,0	89.0	25.0	2.52	1,2,3,0,0,0,0,0,0	to_hand	s603
360.133	0.245	0	PA_without_intermediate	1,2,0,0,0,0,3,0,0	test	ward_and_allport	0,0,0,1,0,0,3,2,0	82.0	25.0	0.245	1,2,3,0,0,0,0,0,0	to_board	s603
360.384	0.892	0	PA_without_intermediate	1,0,0,0,0,0,3,0,0	test	ward_and_allport	0,0,0,1,0,0,3,2,0	89.0	25.0	0.892	1,2,3,0,0,0,0,0,0	to_hand	s603
361.277	0.898	0	PA_without_intermediate	1,0,0,0,0,0,3,2,0	test	ward_and_allport	0,0,0,1,0,0,3,2,0	82.0	25.0	0.898	1,2,3,0,0,0,0,0,0	to_board	s603
362.18	0.702	0	PA_without_intermediate	0,0,0,0,0,0,3,2,0	test	ward_and_allport	0,0,0,1,0,0,3,2,0	89.0	25.0	0.702	1,2,3,0,0,0,0,0,0	to_hand	s603
362.884	0.495	0	PA_without_intermediate	0,0,0,1,0,0,3,2,0	test	ward_and_allport	0,0,0,1,0,0,3,2,0	71.0	25.0	0.495	1,2,3,0,0,0,0,0,0	to_board	s603
363.386	1.0	0	PA_without_intermediate	n/a	test	ward_and_allport	n/a	-1.0	25.0	n/a	n/a	feedback	s603
364.386	1.68	0	PA_without_intermediate	n/a	test	ward_and_allport	n/a	-1.0	25.0	n/a	n/a	ITI	s603
366.073	2.756	1	PA_with_intermediate	1,2,0,0,0,0,0,0,0	test	ward_and_allport	1,0,0,0,0,0,2,3,0	89.0	26.0	2.756	1,2,3,0,0,0,0,0,0	to_hand	s603
368.83	0.331	0	PA_with_intermediate	1,2,0,3,0,0,0,0,0	test	ward_and_allport	1,0,0,0,0,0,2,3,0	71.0	26.0	0.331	1,2,3,0,0,0,0,0,0	to_board	s603
369.168	0.647	0	PA_with_intermediate	1,0,0,3,0,0,0,0,0	test	ward_and_allport	1,0,0,0,0,0,2,3,0	89.0	26.0	0.647	1,2,3,0,0,0,0,0,0	to_hand	s603
369.816	0.36	0	PA_with_intermediate	1,0,0,3,0,0,2,0,0	test	ward_and_allport	1,0,0,0,0,0,2,3,0	82.0	26.0	0.36	1,2,3,0,0,0,0,0,0	to_board	s603
370.183	2.841	0	PA_with_intermediate	1,0,0,0,0,0,2,0,0	test	ward_and_allport	1,0,0,0,0,0,2,3,0	71.0	26.0	2.841	1,2,3,0,0,0,0,0,0	to_hand	s603
373.026	0.478	0	PA_with_intermediate	1,0,0,0,0,0,2,3,0	test	ward_and_allport	1,0,0,0,0,0,2,3,0	82.0	26.0	0.478	1,2,3,0,0,0,0,0,0	to_board	s603
373.51	1.0	0	PA_with_intermediate	n/a	test	ward_and_allport	n/a	-1.0	26.0	n/a	n/a	feedback	s603
374.51	3.72	0	PA_with_intermediate	n/a	test	ward_and_allport	n/a	-1.0	26.0	n/a	n/a	ITI	s603
378.237	3.148	1	PA_without_intermediate	0,0,0,0,0,0,1,2,0	test	ward_and_allport	2,0,0,3,1,0,0,0,0	82.0	27.0	3.148	0,0,0,0,0,0,1,2,3	to_hand	s603
381.386	0.267	0	PA_without_intermediate	0,0,0,3,0,0,1,2,0	test	ward_and_allport	2,0,0,3,1,0,0,0,0	71.0	27.0	0.267	0,0,0,0,0,0,1,2,3	to_board	s603
381.66	1.51	0	PA_without_intermediate	0,0,0,3,0,0,1,0,0	test	ward_and_allport	2,0,0,3,1,0,0,0,0	82.0	27.0	1.51	0,0,0,0,0,0,1,2,3	to_hand	s603
383.171	0.202	0	PA_without_intermediate	2,0,0,3,0,0,1,0,0	test	ward_and_allport	2,0,0,3,1,0,0,0,0	89.0	27.0	0.202	0,0,0,0,0,0,1,2,3	to_board	s603
383.38	0.994	0	PA_without_intermediate	2,0,0,3,0,0,0,0,0	test	ward_and_allport	2,0,0,3,1,0,0,0,0	82.0	27.0	0.994	0,0,0,0,0,0,1,2,3	to_hand	s603
384.375	0.761	0	PA_without_intermediate	2,0,0,3,1,0,0,0,0	test	ward_and_allport	2,0,0,3,1,0,0,0,0	71.0	27.0	0.761	0,0,0,0,0,0,1,2,3	to_board	s603
385.145	1.0	0	PA_without_intermediate	n/a	test	ward_and_allport	n/a	-1.0	27.0	n/a	n/a	feedback	s603
386.145	2.224	0	PA_without_intermediate	n/a	test	ward_and_allport	n/a	-1.0	27.0	n/a	n/a	ITI	s603
388.376	1.889	1	PA_without_intermediate	1,2,0,0,0,0,0,0,0	test	ward_and_allport	0,0,0,3,1,0,2,0,0	89.0	28.0	1.889	1,2,3,0,0,0,0,0,0	to_hand	s603
390.266	0.458	0	PA_without_intermediate	1,2,0,3,0,0,0,0,0	test	ward_and_allport	0,0,0,3,1,0,2,0,0	71.0	28.0	0.458	1,2,3,0,0,0,0,0,0	to_board	s603
390.732	0.809	0	PA_without_intermediate	1,0,0,3,0,0,0,0,0	test	ward_and_allport	0,0,0,3,1,0,2,0,0	89.0	28.0	0.809	1,2,3,0,0,0,0,0,0	to_hand	s603
391.543	0.248	0	PA_without_intermediate	1,0,0,3,0,0,2,0,0	test	ward_and_allport	0,0,0,3,1,0,2,0,0	82.0	28.0	0.248	1,2,3,0,0,0,0,0,0	to_board	s603
391.798	0.495	0	PA_without_intermediate	0,0,0,3,0,0,2,0,0	test	ward_and_allport	0,0,0,3,1,0,2,0,0	89.0	28.0	0.495	1,2,3,0,0,0,0,0,0	to_hand	s603
392.295	0.235	0	PA_without_intermediate	0,0,0,3,1,0,2,0,0	test	ward_and_allport	0,0,0,3,1,0,2,0,0	71.0	28.0	0.235	1,2,3,0,0,0,0,0,0	to_board	s603
392.539	1.0	0	PA_without_intermediate	n/a	test	ward_and_allport	n/a	-1.0	28.0	n/a	n/a	feedback	s603
393.539	1.272	0	PA_without_intermediate	n/a	test	ward_and_allport	n/a	-1.0	28.0	n/a	n/a	ITI	s603
394.826	2.742	1	PA_with_intermediate	1,2,0,0,0,0,0,0,0	test	ward_and_allport	1,0,0,2,3,0,0,0,0	89.0	29.0	2.742	1,2,3,0,0,0,0,0,0	to_hand	s603
397.57	0.766	0	PA_with_intermediate	1,2,0,0,0,0,3,0,0	test	ward_and_allport	1,0,0,2,3,0,0,0,0	82.0	29.0	0.766	1,2,3,0,0,0,0,0,0	to_board	s603
398.343	0.765	0	PA_with_intermediate	1,0,0,0,0,0,3,0,0	test	ward_and_allport	1,0,0,2,3,0,0,0,0	89.0	29.0	0.765	1,2,3,0,0,0,0,0,0	to_hand	s603
399.109	0.355	0	PA_with_intermediate	1,0,0,2,0,0,3,0,0	test	ward_and_allport	1,0,0,2,3,0,0,0,0	71.0	29.0	0.355	1,2,3,0,0,0,0,0,0	to_board	s603
399.471	1.265	0	PA_with_intermediate	1,0,0,2,0,0,0,0,0	test	ward_and_allport	1,0,0,2,3,0,0,0,0	82.0	29.0	1.265	1,2,3,0,0,0,0,0,0	to_hand	s603
400.738	0.257	0	PA_with_intermediate	1,0,0,2,3,0,0,0,0	test	ward_and_allport	1,0,0,2,3,0,0,0,0	71.0	29.0	0.257	1,2,3,0,0,0,0,0,0	to_board	s603
401.003	1.0	0	PA_with_intermediate	n/a	test	ward_and_allport	n/a	-1.0	29.0	n/a	n/a	feedback	s603
402.003	2.632	0	PA_with_intermediate	n/a	test	ward_and_allport	n/a	-1.0	29.0	n/a	n/a	ITI	s603
409.645	2.328	1	PA_without_intermediate	0,0,0,1,2,0,0,0,0	test	ward_and_allport	1,0,0,0,0,0,3,2,0	71.0	30.0	2.328	0,0,0,1,2,3,0,0,0	to_hand	s603
411.975	0.794	0	PA_without_intermediate	0,0,0,1,2,0,3,0,0	test	ward_and_allport	1,0,0,0,0,0,3,2,0	82.0	30.0	0.794	0,0,0,1,2,3,0,0,0	to_board	s603
412.776	0.52	0	PA_without_intermediate	0,0,0,1,0,0,3,0,0	test	ward_and_allport	1,0,0,0,0,0,3,2,0	71.0	30.0	0.52	0,0,0,1,2,3,0,0,0	to_hand	s603
413.298	0.27	0	PA_without_intermediate	0,0,0,1,0,0,3,2,0	test	ward_and_allport	1,0,0,0,0,0,3,2,0	82.0	30.0	0.27	0,0,0,1,2,3,0,0,0	to_board	s603
413.575	1.171	0	PA_without_intermediate	0,0,0,0,0,0,3,2,0	test	ward_and_allport	1,0,0,0,0,0,3,2,0	71.0	30.0	1.171	0,0,0,1,2,3,0,0,0	to_hand	s603
414.746	0.236	0	PA_without_intermediate	1,0,0,0,0,0,3,2,0	test	ward_and_allport	1,0,0,0,0,0,3,2,0	89.0	30.0	0.236	0,0,0,1,2,3,0,0,0	to_board	s603
414.99	1.0	0	PA_without_intermediate	n/a	test	ward_and_allport	n/a	-1.0	30.0	n/a	n/a	feedback	s603
415.99	1.408	0	PA_without_intermediate	n/a	test	ward_and_allport	n/a	-1.0	30.0	n/a	n/a	ITI	s603
417.405	3.015	1	PA_without_intermediate	0,0,0,0,0,0,1,2,0	test	ward_and_allport	3,2,0,1,0,0,0,0,0	82.0	31.0	3.015	0,0,0,0,0,0,1,2,3	to_hand	s603
420.421	0.194	0	PA_without_intermediate	3,0,0,0,0,0,1,2,0	test	ward_and_allport	3,2,0,1,0,0,0,0,0	89.0	31.0	0.194	0,0,0,0,0,0,1,2,3	to_board	s603
420.623	1.174	0	PA_without_intermediate	3,0,0,0,0,0,1,0,0	test	ward_and_allport	3,2,0,1,0,0,0,0,0	82.0	31.0	1.174	0,0,0,0,0,0,1,2,3	to_hand	s603
421.799	0.207	0	PA_without_intermediate	3,0,0,2,0,0,1,0,0	test	ward_and_allport	3,2,0,1,0,0,0,0,0	71.0	31.0	0.207	0,0,0,0,0,0,1,2,3	to_board	s603
422.016	0.075	0	PA_without_intermediate	0,0,0,2,0,0,1,0,0	test	ward_and_allport	3,2,0,1,0,0,0,0,0	89.0	31.0	0.075	0,0,0,0,0,0,1,2,3	to_hand	s603
422.092	1.21	0	PA_without_intermediate	3,0,0,2,0,0,1,0,0	test	ward_and_allport	3,2,0,1,0,0,0,0,0	89.0	31.0	1.21	0,0,0,0,0,0,1,2,3	to_board	s603
423.313	0.737	0	PA_without_intermediate	3,0,0,0,0,0,1,0,0	test	ward_and_allport	3,2,0,1,0,0,0,0,0	71.0	31.0	0.737	0,0,0,0,0,0,1,2,3	to_hand	s603
424.051	0.417	0	PA_without_intermediate	3,2,0,0,0,0,1,0,0	test	ward_and_allport	3,2,0,1,0,0,0,0,0	89.0	31.0	0.417	0,0,0,0,0,0,1,2,3	to_board	s603
424.475	1.238	0	PA_without_intermediate	3,2,0,0,0,0,0,0,0	test	ward_and_allport	3,2,0,1,0,0,0,0,0	82.0	31.0	1.238	0,0,0,0,0,0,1,2,3	to_hand	s603
425.715	0.789	0	PA_without_intermediate	3,2,0,1,0,0,0,0,0	test	ward_and_allport	3,2,0,1,0,0,0,0,0	71.0	31.0	0.789	0,0,0,0,0,0,1,2,3	to_board	s603
426.513	1.0	0	PA_without_intermediate	n/a	test	ward_and_allport	n/a	-1.0	31.0	n/a	n/a	feedback	s603
427.513	1.0	0	PA_without_intermediate	n/a	test	ward_and_allport	n/a	-1.0	31.0	n/a	n/a	ITI	s603
428.522	1.605	1	PA_with_intermediate	0,0,0,1,2,0,0,0,0	test	ward_and_allport	0,0,0,1,3,0,2,0,0	71.0	32.0	1.605	0,0,0,1,2,3,0,0,0	to_hand	s603
430.128	1.511	0	PA_with_intermediate	3,0,0,1,2,0,0,0,0	test	ward_and_allport	0,0,0,1,3,0,2,0,0	89.0	32.0	1.511	0,0,0,1,2,3,0,0,0	to_board	s603
431.647	0.366	0	PA_with_intermediate	3,0,0,1,0,0,0,0,0	test	ward_and_allport	0,0,0,1,3,0,2,0,0	71.0	32.0	0.366	0,0,0,1,2,3,0,0,0	to_hand	s603
432.014	0.24	0	PA_with_intermediate	3,0,0,1,0,0,2,0,0	test	ward_and_allport	0,0,0,1,3,0,2,0,0	82.0	32.0	0.24	0,0,0,1,2,3,0,0,0	to_board	s603
432.263	1.021	0	PA_with_intermediate	0,0,0,1,0,0,2,0,0	test	ward_and_allport	0,0,0,1,3,0,2,0,0	89.0	32.0	1.021	0,0,0,1,2,3,0,0,0	to_hand	s603
433.284	0.243	0	PA_with_intermediate	0,0,0,1,3,0,2,0,0	test	ward_and_allport	0,0,0,1,3,0,2,0,0	71.0	32.0	0.243	0,0,0,1,2,3,0,0,0	to_board	s603
433.537	1.0	0	PA_with_intermediate	n/a	test	ward_and_allport	n/a	-1.0	32.0	n/a	n/a	feedback	s603
434.537	1.0	0	PA_with_intermediate	n/a	test	ward_and_allport	n/a	-1.0	32.0	n/a	n/a	ITI	s603
435.543	3.399	1	PA_with_intermediate	0,0,0,0,0,0,1,2,0	test	ward_and_allport	2,3,0,0,0,0,1,0,0	82.0	33.0	3.399	0,0,0,0,0,0,1,2,3	to_hand	s603
438.944	0.756	0	PA_with_intermediate	0,0,0,3,0,0,1,2,0	test	ward_and_allport	2,3,0,0,0,0,1,0,0	71.0	33.0	0.756	0,0,0,0,0,0,1,2,3	to_board	s603
439.706	1.021	0	PA_with_intermediate	0,0,0,3,0,0,1,0,0	test	ward_and_allport	2,3,0,0,0,0,1,0,0	82.0	33.0	1.021	0,0,0,0,0,0,1,2,3	to_hand	s603
440.728	0.47	0	PA_with_intermediate	2,0,0,3,0,0,1,0,0	test	ward_and_allport	2,3,0,0,0,0,1,0,0	89.0	33.0	0.47	0,0,0,0,0,0,1,2,3	to_board	s603
441.206	0.781	0	PA_with_intermediate	2,0,0,0,0,0,1,0,0	test	ward_and_allport	2,3,0,0,0,0,1,0,0	71.0	33.0	0.781	0,0,0,0,0,0,1,2,3	to_hand	s603
441.988	0.43	0	PA_with_intermediate	2,3,0,0,0,0,1,0,0	test	ward_and_allport	2,3,0,0,0,0,1,0,0	89.0	33.0	0.43	0,0,0,0,0,0,1,2,3	to_board	s603
442.427	1.0	0	PA_with_intermediate	n/a	test	ward_and_allport	n/a	-1.0	33.0	n/a	n/a	feedback	s603
443.427	1.0	0	PA_with_intermediate	n/a	test	ward_and_allport	n/a	-1.0	33.0	n/a	n/a	ITI	s603
444.438	3.548	1	PA_with_intermediate	1,2,0,0,0,0,0,0,0	test	ward_and_allport	1,3,0,2,0,0,0,0,0	89.0	34.0	3.548	1,2,3,0,0,0,0,0,0	to_hand	s603
447.987	1.495	0	PA_with_intermediate	1,2,0,0,0,0,3,0,0	test	ward_and_allport	1,3,0,2,0,0,0,0,0	82.0	34.0	1.495	1,2,3,0,0,0,0,0,0	to_board	s603
449.49	0.612	0	PA_with_intermediate	1,0,0,0,0,0,3,0,0	test	ward_and_allport	1,3,0,2,0,0,0,0,0	89.0	34.0	0.612	1,2,3,0,0,0,0,0,0	to_hand	s603
450.104	0.385	0	PA_with_intermediate	1,0,0,2,0,0,3,0,0	test	ward_and_allport	1,3,0,2,0,0,0,0,0	71.0	34.0	0.385	1,2,3,0,0,0,0,0,0	to_board	s603
450.498	0.533	0	PA_with_intermediate	1,0,0,2,0,0,0,0,0	test	ward_and_allport	1,3,0,2,0,0,0,0,0	82.0	34.0	0.533	1,2,3,0,0,0,0,0,0	to_hand	s603
451.033	0.268	0	PA_with_intermediate	1,3,0,2,0,0,0,0,0	test	ward_and_allport	1,3,0,2,0,0,0,0,0	89.0	34.0	0.268	1,2,3,0,0,0,0,0,0	to_board	s603
451.315	1.0	0	PA_with_intermediate	n/a	test	ward_and_allport	n/a	-1.0	34.0	n/a	n/a	feedback	s603
452.315	1.408	0	PA_with_intermediate	n/a	test	ward_and_allport	n/a	-1.0	34.0	n/a	n/a	ITI	s603
453.731	2.739	1	PA_without_intermediate	0,0,0,0,0,0,1,2,0	test	ward_and_allport	1,0,0,3,2,0,0,0,0	82.0	35.0	2.739	0,0,0,0,0,0,1,2,3	to_hand	s603
456.471	0.943	0	PA_without_intermediate	0,0,0,3,0,0,1,2,0	test	ward_and_allport	1,0,0,3,2,0,0,0,0	71.0	35.0	0.943	0,0,0,0,0,0,1,2,3	to_board	s603
457.423	0.418	0	PA_without_intermediate	0,0,0,3,0,0,1,0,0	test	ward_and_allport	1,0,0,3,2,0,0,0,0	82.0	35.0	0.418	0,0,0,0,0,0,1,2,3	to_hand	s603
457.843	0.507	0	PA_without_intermediate	0,0,0,3,2,0,1,0,0	test	ward_and_allport	1,0,0,3,2,0,0,0,0	71.0	35.0	0.507	0,0,0,0,0,0,1,2,3	to_board	s603
458.358	0.572	0	PA_without_intermediate	0,0,0,3,2,0,0,0,0	test	ward_and_allport	1,0,0,3,2,0,0,0,0	82.0	35.0	0.572	0,0,0,0,0,0,1,2,3	to_hand	s603
458.931	0.255	0	PA_without_intermediate	1,0,0,3,2,0,0,0,0	test	ward_and_allport	1,0,0,3,2,0,0,0,0	89.0	35.0	0.255	0,0,0,0,0,0,1,2,3	to_board	s603
459.195	1.0	0	PA_without_intermediate	n/a	test	ward_and_allport	n/a	-1.0	35.0	n/a	n/a	feedback	s603
460.195	1.816	0	PA_without_intermediate	n/a	test	ward_and_allport	n/a	-1.0	35.0	n/a	n/a	ITI	s603
462.02	3.172	1	PA_with_intermediate	1,2,0,0,0,0,0,0,0	test	ward_and_allport	1,0,0,2,3,0,0,0,0	89.0	36.0	3.172	1,2,3,0,0,0,0,0,0	to_hand	s603
465.193	0.282	0	PA_with_intermediate	1,2,0,0,0,0,3,0,0	test	ward_and_allport	1,0,0,2,3,0,0,0,0	82.0	36.0	0.282	1,2,3,0,0,0,0,0,0	to_board	s603
465.481	0.64	0	PA_with_intermediate	1,0,0,0,0,0,3,0,0	test	ward_and_allport	1,0,0,2,3,0,0,0,0	89.0	36.0	0.64	1,2,3,0,0,0,0,0,0	to_hand	s603
466.122	0.443	0	PA_with_intermediate	1,0,0,2,0,0,3,0,0	test	ward_and_allport	1,0,0,2,3,0,0,0,0	71.0	36.0	0.443	1,2,3,0,0,0,0,0,0	to_board	s603
466.572	0.303	0	PA_with_intermediate	0,0,0,2,0,0,3,0,0	test	ward_and_allport	1,0,0,2,3,0,0,0,0	89.0	36.0	0.303	1,2,3,0,0,0,0,0,0	to_hand	s603
466.877	1.583	0	PA_with_intermediate	1,0,0,2,0,0,3,0,0	test	ward_and_allport	1,0,0,2,3,0,0,0,0	89.0	36.0	1.583	1,2,3,0,0,0,0,0,0	to_board	s603
468.469	0.848	0	PA_with_intermediate	1,0,0,2,0,0,0,0,0	test	ward_and_allport	1,0,0,2,3,0,0,0,0	82.0	36.0	0.848	1,2,3,0,0,0,0,0,0	to_hand	s603
469.32	1.008	0	PA_with_intermediate	1,0,0,2,3,0,0,0,0	test	ward_and_allport	1,0,0,2,3,0,0,0,0	71.0	36.0	1.008	1,2,3,0,0,0,0,0,0	to_board	s603
470.34	1.0	0	PA_with_intermediate	n/a	test	ward_and_allport	n/a	-1.0	36.0	n/a	n/a	feedback	s603
471.34	3.176	0	PA_with_intermediate	n/a	test	ward_and_allport	n/a	-1.0	36.0	n/a	n/a	ITI	s603
474.525	2.109	1	PA_with_intermediate	0,0,0,1,2,0,0,0,0	test	ward_and_allport	2,3,0,1,0,0,0,0,0	71.0	37.0	2.109	0,0,0,1,2,3,0,0,0	to_hand	s603
476.636	0.53	0	PA_with_intermediate	0,0,0,1,2,0,3,0,0	test	ward_and_allport	2,3,0,1,0,0,0,0,0	82.0	37.0	0.53	0,0,0,1,2,3,0,0,0	to_board	s603
477.173	0.495	0	PA_with_intermediate	0,0,0,1,0,0,3,0,0	test	ward_and_allport	2,3,0,1,0,0,0,0,0	71.0	37.0	0.495	0,0,0,1,2,3,0,0,0	to_hand	s603
477.669	0.48	0	PA_with_intermediate	2,0,0,1,0,0,3,0,0	test	ward_and_allport	2,3,0,1,0,0,0,0,0	89.0	37.0	0.48	0,0,0,1,2,3,0,0,0	to_board	s603
478.157	0.762	0	PA_with_intermediate	2,0,0,1,0,0,0,0,0	test	ward_and_allport	2,3,0,1,0,0,0,0,0	82.0	37.0	0.762	0,0,0,1,2,3,0,0,0	to_hand	s603
478.921	0.722	0	PA_with_intermediate	2,3,0,1,0,0,0,0,0	test	ward_and_allport	2,3,0,1,0,0,0,0,0	89.0	37.0	0.722	0,0,0,1,2,3,0,0,0	to_board	s603
479.654	1.0	0	PA_with_intermediate	n/a	test	ward_and_allport	n/a	-1.0	37.0	n/a	n/a	feedback	s603
480.654	2.36	0	PA_with_intermediate	n/a	test	ward_and_allport	n/a	-1.0	37.0	n/a	n/a	ITI	s603
483.021	4.219	1	PA_with_intermediate	0,0,0,0,0,0,1,2,0	test	ward_and_allport	0,0,0,2,0,0,1,3,0	82.0	38.0	4.219	0,0,0,0,0,0,1,2,3	to_hand	s603
487.241	0.29	0	PA_with_intermediate	3,0,0,0,0,0,1,2,0	test	ward_and_allport	0,0,0,2,0,0,1,3,0	89.0	38.0	0.29	0,0,0,0,0,0,1,2,3	to_board	s603
487.537	1.567	0	PA_with_intermediate	3,0,0,0,0,0,1,0,0	test	ward_and_allport	0,0,0,2,0,0,1,3,0	82.0	38.0	1.567	0,0,0,0,0,0,1,2,3	to_hand	s603
489.105	0.449	0	PA_with_intermediate	3,0,0,2,0,0,1,0,0	test	ward_and_allport	0,0,0,2,0,0,1,3,0	71.0	38.0	0.449	0,0,0,0,0,0,1,2,3	to_board	s603
489.562	1.106	0	PA_with_intermediate	0,0,0,2,0,0,1,0,0	test	ward_and_allport	0,0,0,2,0,0,1,3,0	89.0	38.0	1.106	0,0,0,0,0,0,1,2,3	to_hand	s603
490.668	0.417	0	PA_with_intermediate	0,0,0,2,3,0,1,0,0	test	ward_and_allport	0,0,0,2,0,0,1,3,0	71.0	38.0	0.417	0,0,0,0,0,0,1,2,3	to_board	s603
491.094	1.188	0	PA_with_intermediate	0,0,0,2,0,0,1,0,0	test	ward_and_allport	0,0,0,2,0,0,1,3,0	71.0	38.0	1.188	0,0,0,0,0,0,1,2,3	to_hand	s603
492.283	0.484	0	PA_with_intermediate	0,0,0,2,0,0,1,3,0	test	ward_and_allport	0,0,0,2,0,0,1,3,0	82.0	38.0	0.484	0,0,0,0,0,0,1,2,3	to_board	s603
492.779	1.0	0	PA_with_intermediate	n/a	test	ward_and_allport	n/a	-1.0	38.0	n/a	n/a	feedback	s603
493.779	1.0	0	PA_with_intermediate	n/a	test	ward_and_allport	n/a	-1.0	38.0	n/a	n/a	ITI	s603
494.789	4.078	1	PA_without_intermediate	0,0,0,0,0,0,1,2,0	test	ward_and_allport	1,0,0,3,2,0,0,0,0	82.0	39.0	4.078	0,0,0,0,0,0,1,2,3	to_hand	s603
498.869	0.375	0	PA_without_intermediate	0,0,0,3,0,0,1,2,0	test	ward_and_allport	1,0,0,3,2,0,0,0,0	71.0	39.0	0.375	0,0,0,0,0,0,1,2,3	to_board	s603
499.252	1.555	0	PA_without_intermediate	0,0,0,3,0,0,1,0,0	test	ward_and_allport	1,0,0,3,2,0,0,0,0	82.0	39.0	1.555	0,0,0,0,0,0,1,2,3	to_hand	s603
500.808	0.492	0	PA_without_intermediate	0,0,0,3,2,0,1,0,0	test	ward_and_allport	1,0,0,3,2,0,0,0,0	71.0	39.0	0.492	0,0,0,0,0,0,1,2,3	to_board	s603
501.307	0.512	0	PA_without_intermediate	0,0,0,3,2,0,0,0,0	test	ward_and_allport	1,0,0,3,2,0,0,0,0	82.0	39.0	0.512	0,0,0,0,0,0,1,2,3	to_hand	s603
501.821	0.357	0	PA_without_intermediate	1,0,0,3,2,0,0,0,0	test	ward_and_allport	1,0,0,3,2,0,0,0,0	89.0	39.0	0.357	0,0,0,0,0,0,1,2,3	to_board	s603
502.19	1.0	0	PA_without_intermediate	n/a	test	ward_and_allport	n/a	-1.0	39.0	n/a	n/a	feedback	s603
503.19	1.408	0	PA_without_intermediate	n/a	test	ward_and_allport	n/a	-1.0	39.0	n/a	n/a	ITI	s603
504.607	5.094	1	PA_with_intermediate	0,0,0,1,2,0,0,0,0	test	ward_and_allport	2,3,0,1,0,0,0,0,0	71.0	40.0	5.094	0,0,0,1,2,3,0,0,0	to_hand	s603
509.703	0.397	0	PA_with_intermediate	0,0,0,1,2,0,3,0,0	test	ward_and_allport	2,3,0,1,0,0,0,0,0	82.0	40.0	0.397	0,0,0,1,2,3,0,0,0	to_board	s603
510.109	1.287	0	PA_with_intermediate	0,0,0,1,0,0,3,0,0	test	ward_and_allport	2,3,0,1,0,0,0,0,0	71.0	40.0	1.287	0,0,0,1,2,3,0,0,0	to_hand	s603
511.397	0.263	0	PA_with_intermediate	2,0,0,1,0,0,3,0,0	test	ward_and_allport	2,3,0,1,0,0,0,0,0	89.0	40.0	0.263	0,0,0,1,2,3,0,0,0	to_board	s603
511.669	0.717	0	PA_with_intermediate	2,0,0,1,0,0,0,0,0	test	ward_and_allport	2,3,0,1,0,0,0,0,0	82.0	40.0	0.717	0,0,0,1,2,3,0,0,0	to_hand	s603
512.387	0.274	0	PA_with_intermediate	2,3,0,1,0,0,0,0,0	test	ward_and_allport	2,3,0,1,0,0,0,0,0	89.0	40.0	0.274	0,0,0,1,2,3,0,0,0	to_board	s603
512.672	1.0	0	PA_with_intermediate	n/a	test	ward_and_allport	n/a	-1.0	40.0	n/a	n/a	feedback	s603
513.672	1.816	0	PA_with_intermediate	n/a	test	ward_and_allport	n/a	-1.0	40.0	n/a	n/a	ITI	s603
515.497	2.073	1	PA_without_intermediate	0,0,0,1,2,0,0,0,0	test	ward_and_allport	2,0,0,0,0,0,3,1,0	71.0	41.0	2.073	0,0,0,1,2,3,0,0,0	to_hand	s603
517.572	0.944	0	PA_without_intermediate	0,0,0,1,2,0,3,0,0	test	ward_and_allport	2,0,0,0,0,0,3,1,0	82.0	41.0	0.944	0,0,0,1,2,3,0,0,0	to_board	s603
518.523	0.859	0	PA_without_intermediate	0,0,0,1,0,0,3,0,0	test	ward_and_allport	2,0,0,0,0,0,3,1,0	71.0	41.0	0.859	0,0,0,1,2,3,0,0,0	to_hand	s603
519.383	0.26	0	PA_without_intermediate	2,0,0,1,0,0,3,0,0	test	ward_and_allport	2,0,0,0,0,0,3,1,0	89.0	41.0	0.26	0,0,0,1,2,3,0,0,0	to_board	s603
519.651	0.601	0	PA_without_intermediate	2,0,0,0,0,0,3,0,0	test	ward_and_allport	2,0,0,0,0,0,3,1,0	71.0	41.0	0.601	0,0,0,1,2,3,0,0,0	to_hand	s603
520.253	0.245	0	PA_without_intermediate	2,0,0,0,0,0,3,1,0	test	ward_and_allport	2,0,0,0,0,0,3,1,0	82.0	41.0	0.245	0,0,0,1,2,3,0,0,0	to_board	s603
520.507	1.0	0	PA_without_intermediate	n/a	test	ward_and_allport	n/a	-1.0	41.0	n/a	n/a	feedback	s603
521.507	2.088	0	PA_without_intermediate	n/a	test	ward_and_allport	n/a	-1.0	41.0	n/a	n/a	ITI	s603
523.604	2.375	1	PA_without_intermediate	0,0,0,0,0,0,1,2,0	test	ward_and_allport	2,0,0,3,1,0,0,0,0	82.0	42.0	2.375	0,0,0,0,0,0,1,2,3	to_hand	s603
525.98	0.416	0	PA_without_intermediate	0,0,0,3,0,0,1,2,0	test	ward_and_allport	2,0,0,3,1,0,0,0,0	71.0	42.0	0.416	0,0,0,0,0,0,1,2,3	to_board	s603
526.403	1.253	0	PA_without_intermediate	0,0,0,3,0,0,1,0,0	test	ward_and_allport	2,0,0,3,1,0,0,0,0	82.0	42.0	1.253	0,0,0,0,0,0,1,2,3	to_hand	s603
527.657	0.508	0	PA_without_intermediate	2,0,0,3,0,0,1,0,0	test	ward_and_allport	2,0,0,3,1,0,0,0,0	89.0	42.0	0.508	0,0,0,0,0,0,1,2,3	to_board	s603
528.172	0.738	0	PA_without_intermediate	2,0,0,0,0,0,1,0,0	test	ward_and_allport	2,0,0,3,1,0,0,0,0	71.0	42.0	0.738	0,0,0,0,0,0,1,2,3	to_hand	s603
528.912	0.944	0	PA_without_intermediate	2,0,0,3,0,0,1,0,0	test	ward_and_allport	2,0,0,3,1,0,0,0,0	71.0	42.0	0.944	0,0,0,0,0,0,1,2,3	to_board	s603
529.866	0.421	0	PA_without_intermediate	2,0,0,3,0,0,0,0,0	test	ward_and_allport	2,0,0,3,1,0,0,0,0	82.0	42.0	0.421	0,0,0,0,0,0,1,2,3	to_hand	s603
530.288	0.233	0	PA_without_intermediate	2,0,0,3,1,0,0,0,0	test	ward_and_allport	2,0,0,3,1,0,0,0,0	71.0	42.0	0.233	0,0,0,0,0,0,1,2,3	to_board	s603
530.537	1.0	0	PA_without_intermediate	n/a	test	ward_and_allport	n/a	-1.0	42.0	n/a	n/a	feedback	s603
531.537	1.136	0	PA_without_intermediate	n/a	test	ward_and_allport	n/a	-1.0	42.0	n/a	n/a	ITI	s603
532.68	1.303	1	PA_without_intermediate	0,0,0,1,2,0,0,0,0	test	ward_and_allport	3,2,0,0,0,0,1,0,0	71.0	43.0	1.303	0,0,0,1,2,3,0,0,0	to_hand	s603
533.984	0.845	0	PA_without_intermediate	3,0,0,1,2,0,0,0,0	test	ward_and_allport	3,2,0,0,0,0,1,0,0	89.0	43.0	0.845	0,0,0,1,2,3,0,0,0	to_board	s603
534.837	1.057	0	PA_without_intermediate	3,0,0,1,0,0,0,0,0	test	ward_and_allport	3,2,0,0,0,0,1,0,0	71.0	43.0	1.057	0,0,0,1,2,3,0,0,0	to_hand	s603
535.896	0.415	0	PA_without_intermediate	3,2,0,1,0,0,0,0,0	test	ward_and_allport	3,2,0,0,0,0,1,0,0	89.0	43.0	0.415	0,0,0,1,2,3,0,0,0	to_board	s603
536.318	1.02	0	PA_without_intermediate	3,2,0,0,0,0,0,0,0	test	ward_and_allport	3,2,0,0,0,0,1,0,0	71.0	43.0	1.02	0,0,0,1,2,3,0,0,0	to_hand	s603
537.339	0.557	0	PA_without_intermediate	3,2,0,0,0,0,1,0,0	test	ward_and_allport	3,2,0,0,0,0,1,0,0	82.0	43.0	0.557	0,0,0,1,2,3,0,0,0	to_board	s603
537.905	1.0	0	PA_without_intermediate	n/a	test	ward_and_allport	n/a	-1.0	43.0	n/a	n/a	feedback	s603
538.905	6.168	0	PA_without_intermediate	n/a	test	ward_and_allport	n/a	-1.0	43.0	n/a	n/a	ITI	s603
545.084	1.861	1	PA_without_intermediate	0,0,0,1,2,0,0,0,0	test	ward_and_allport	3,2,0,0,0,0,1,0,0	71.0	44.0	1.861	0,0,0,1,2,3,0,0,0	to_hand	s603
546.947	0.387	0	PA_without_intermediate	3,0,0,1,2,0,0,0,0	test	ward_and_allport	3,2,0,0,0,0,1,0,0	89.0	44.0	0.387	0,0,0,1,2,3,0,0,0	to_board	s603
547.345	0.628	0	PA_without_intermediate	3,0,0,1,0,0,0,0,0	test	ward_and_allport	3,2,0,0,0,0,1,0,0	71.0	44.0	0.628	0,0,0,1,2,3,0,0,0	to_hand	s603
547.975	0.386	0	PA_without_intermediate	3,2,0,1,0,0,0,0,0	test	ward_and_allport	3,2,0,0,0,0,1,0,0	89.0	44.0	0.386	0,0,0,1,2,3,0,0,0	to_board	s603
548.373	0.358	0	PA_without_intermediate	3,2,0,0,0,0,0,0,0	test	ward_and_allport	3,2,0,0,0,0,1,0,0	71.0	44.0	0.358	0,0,0,1,2,3,0,0,0	to_hand	s603
548.733	0.348	0	PA_without_intermediate	3,2,0,0,0,0,1,0,0	test	ward_and_allport	3,2,0,0,0,0,1,0,0	82.0	44.0	0.348	0,0,0,1,2,3,0,0,0	to_board	s603
549.094	1.0	0	PA_without_intermediate	n/a	test	ward_and_allport	n/a	-1.0	44.0	n/a	n/a	feedback	s603
550.094	1.816	0	PA_without_intermediate	n/a	test	ward_and_allport	n/a	-1.0	44.0	n/a	n/a	ITI	s603
556.92	3.798	1	PA_with_intermediate	0,0,0,0,0,0,1,2,0	test	ward_and_allport	0,0,0,2,0,0,1,3,0	82.0	45.0	3.798	0,0,0,0,0,0,1,2,3	to_hand	s603
560.72	0.732	0	PA_with_intermediate	3,0,0,0,0,0,1,2,0	test	ward_and_allport	0,0,0,2,0,0,1,3,0	89.0	45.0	0.732	0,0,0,0,0,0,1,2,3	to_board	s603
561.462	2.01	0	PA_with_intermediate	3,0,0,0,0,0,1,0,0	test	ward_and_allport	0,0,0,2,0,0,1,3,0	82.0	45.0	2.01	0,0,0,0,0,0,1,2,3	to_hand	s603
563.473	0.411	0	PA_with_intermediate	3,0,0,2,0,0,1,0,0	test	ward_and_allport	0,0,0,2,0,0,1,3,0	71.0	45.0	0.411	0,0,0,0,0,0,1,2,3	to_board	s603
563.894	1.172	0	PA_with_intermediate	0,0,0,2,0,0,1,0,0	test	ward_and_allport	0,0,0,2,0,0,1,3,0	89.0	45.0	1.172	0,0,0,0,0,0,1,2,3	to_hand	s603
565.068	0.367	0	PA_with_intermediate	0,0,0,2,0,0,1,3,0	test	ward_and_allport	0,0,0,2,0,0,1,3,0	82.0	45.0	0.367	0,0,0,0,0,0,1,2,3	to_board	s603
565.449	1.0	0	PA_with_intermediate	n/a	test	ward_and_allport	n/a	-1.0	45.0	n/a	n/a	feedback	s603
566.449	1.952	0	PA_with_intermediate	n/a	test	ward_and_allport	n/a	-1.0	45.0	n/a	n/a	ITI	s603
n/a	n/a	0	n/a	n/a	n/a	n/a	n/a	n/a	n/a	n/a	n/a	ITI	n/a
