onset	duration	SS_delay	correct_response	experiment_exp_id	key_press	response_time	stopped	trial_type	worker_id
3.01	0.85	0.3	71.0	stop_signal	71.0	0.445	False	go	s526
5.399	0.85	0.3	89.0	stop_signal	89.0	0.615	False	go	s526
7.923	0.85	0.3	71.0	stop_signal	-1.0	n/a	True	stop_success	s526
10.856	0.85	0.35	71.0	stop_signal	71.0	0.626	False	go	s526
13.381	0.85	0.35	89.0	stop_signal	89.0	0.635	False	go	s526
15.905	0.85	0.35	71.0	stop_signal	71.0	0.702	False	go	s526
18.157	0.85	0.35	89.0	stop_signal	-1.0	n/a	True	stop_success	s526
20.682	0.85	0.4	89.0	stop_signal	89.0	0.662	False	go	s526
23.071	0.85	0.4	71.0	stop_signal	71.0	0.511	False	go	s526
25.324	0.85	0.4	89.0	stop_signal	89.0	0.651	False	go	s526
27.712	0.85	0.4	71.0	stop_signal	71.0	0.649	False	go	s526
29.966	0.85	0.4	71.0	stop_signal	71.0	0.571	False	stop_failure	s526
32.355	0.85	0.35	89.0	stop_signal	89.0	0.775	False	go	s526
34.881	0.85	0.35	71.0	stop_signal	-1.0	n/a	True	stop_success	s526
37.134	0.85	0.4	89.0	stop_signal	89.0	0.589	False	stop_failure	s526
39.522	0.85	0.35	89.0	stop_signal	89.0	0.786	False	go	s526
42.183	0.85	0.35	89.0	stop_signal	-1.0	n/a	True	stop_success	s526
44.436	0.85	0.4	71.0	stop_signal	71.0	0.637	False	go	s526
47.641	0.85	0.4	89.0	stop_signal	89.0	0.674	False	go	s526
50.03	0.85	0.4	71.0	stop_signal	71.0	0.699	False	go	s526
52.418	0.85	0.4	89.0	stop_signal	89.0	0.616	False	stop_failure	s526
54.943	0.85	0.35	89.0	stop_signal	89.0	0.857	False	go	s526
57.196	0.85	0.35	89.0	stop_signal	-1.0	n/a	True	stop_success	s526
59.449	0.85	0.4	89.0	stop_signal	-1.0	n/a	True	stop_success	s526
61.701	0.85	0.45	89.0	stop_signal	89.0	0.771	False	go	s526
64.634	0.85	0.45	89.0	stop_signal	89.0	0.796	False	go	s526
67.159	0.85	0.45	71.0	stop_signal	71.0	0.611	False	go	s526
69.683	0.85	0.45	89.0	stop_signal	89.0	0.794	False	go	s526
71.936	0.85	0.45	89.0	stop_signal	-1.0	n/a	True	stop_success	s526
74.461	0.85	0.5	89.0	stop_signal	-1.0	n/a	True	stop_success	s526
76.714	0.85	0.55	71.0	stop_signal	71.0	0.71	False	go	s526
79.102	0.85	0.55	71.0	stop_signal	71.0	0.629	False	stop_failure	s526
81.355	0.85	0.5	71.0	stop_signal	71.0	0.723	False	go	s526
84.016	0.85	0.5	71.0	stop_signal	71.0	0.683	False	go	s526
86.677	0.85	0.5	71.0	stop_signal	71.0	1.018	False	go	s526
88.93	0.85	0.5	89.0	stop_signal	89.0	0.777	False	go	s526
91.183	0.85	0.5	89.0	stop_signal	89.0	0.719	False	go	s526
93.572	0.85	0.5	89.0	stop_signal	-1.0	n/a	True	stop_success	s526
96.369	0.85	0.55	71.0	stop_signal	71.0	0.731	False	stop_failure	s526
98.76	0.85	0.5	71.0	stop_signal	71.0	0.754	False	stop_failure	s526
101.014	0.85	0.45	71.0	stop_signal	-1.0	n/a	True	stop_success	s526
113.775	0.85	0.5	71.0	stop_signal	-1.0	n/a	True	stop_success	s526
116.028	0.85	0.55	89.0	stop_signal	89.0	0.937	False	go	s526
118.689	0.85	0.55	89.0	stop_signal	89.0	0.776	False	go	s526
121.349	0.85	0.55	89.0	stop_signal	89.0	0.608	False	go	s526
123.602	0.85	0.55	71.0	stop_signal	71.0	0.747	False	go	s526
126.127	0.85	0.55	89.0	stop_signal	89.0	0.689	False	go	s526
128.379	0.85	0.55	89.0	stop_signal	89.0	0.767	False	stop_failure	s526
130.903	0.85	0.5	71.0	stop_signal	71.0	0.693	False	go	s526
133.428	0.85	0.5	89.0	stop_signal	89.0	0.677	False	stop_failure	s526
135.953	0.85	0.45	89.0	stop_signal	-1.0	n/a	True	stop_success	s526
138.342	0.85	0.5	89.0	stop_signal	-1.0	n/a	True	stop_success	s526
140.867	0.85	0.55	89.0	stop_signal	89.0	0.726	False	go	s526
143.392	0.85	0.55	71.0	stop_signal	71.0	0.637	False	go	s526
145.78	0.85	0.55	71.0	stop_signal	71.0	0.662	False	go	s526
148.033	0.85	0.55	71.0	stop_signal	71.0	0.655	False	go	s526
150.558	0.85	0.55	71.0	stop_signal	71.0	0.642	False	go	s526
153.355	0.85	0.55	71.0	stop_signal	71.0	0.701	False	stop_failure	s526
155.88	0.85	0.5	71.0	stop_signal	71.0	0.679	False	stop_failure	s526
158.268	0.85	0.45	89.0	stop_signal	89.0	0.906	False	go	s526
160.522	0.85	0.45	71.0	stop_signal	-1.0	n/a	True	stop_success	s526
162.775	0.85	0.5	71.0	stop_signal	-1.0	n/a	True	stop_success	s526
165.028	0.85	0.55	71.0	stop_signal	-1.0	n/a	True	stop_success	s526
167.281	0.85	0.6	89.0	stop_signal	89.0	0.781	False	go	s526
169.806	0.85	0.6	71.0	stop_signal	71.0	0.774	False	go	s526
172.059	0.85	0.6	71.0	stop_signal	71.0	0.719	False	stop_failure	s526
174.311	0.85	0.55	71.0	stop_signal	71.0	0.922	False	go	s526
176.564	0.85	0.55	71.0	stop_signal	71.0	0.607	False	go	s526
178.816	0.85	0.55	71.0	stop_signal	71.0	0.692	False	go	s526
181.205	0.85	0.55	71.0	stop_signal	71.0	0.761	False	go	s526
183.458	0.85	0.55	71.0	stop_signal	71.0	0.58	False	stop_failure	s526
185.711	0.85	0.5	71.0	stop_signal	71.0	0.832	False	go	s526
187.963	0.85	0.5	89.0	stop_signal	-1.0	n/a	True	stop_success	s526
190.216	0.85	0.55	89.0	stop_signal	-1.0	n/a	True	stop_success	s526
192.741	0.85	0.6	89.0	stop_signal	89.0	1.035	False	go	s526
195.13	0.85	0.6	89.0	stop_signal	89.0	0.743	False	go	s526
197.655	0.85	0.6	71.0	stop_signal	71.0	0.797	False	stop_failure	s526
199.907	0.85	0.55	89.0	stop_signal	89.0	0.816	False	go	s526
202.295	0.85	0.55	89.0	stop_signal	89.0	0.742	False	go	s526
204.684	0.85	0.55	89.0	stop_signal	89.0	0.788	False	go	s526
206.937	0.85	0.55	71.0	stop_signal	71.0	0.791	False	go	s526
209.325	0.85	0.55	71.0	stop_signal	71.0	0.891	False	go	s526
211.713	0.85	0.55	89.0	stop_signal	-1.0	n/a	True	stop_success	s526
224.608	0.85	0.6	71.0	stop_signal	71.0	0.613	False	go	s526
227.268	0.85	0.6	89.0	stop_signal	89.0	0.59	False	go	s526
229.793	0.85	0.6	89.0	stop_signal	89.0	0.709	False	stop_failure	s526
232.045	0.85	0.55	71.0	stop_signal	71.0	0.632	False	stop_failure	s526
234.977	0.85	0.5	71.0	stop_signal	71.0	0.81	False	go	s526
237.23	0.85	0.5	71.0	stop_signal	71.0	0.687	False	go	s526
239.754	0.85	0.5	71.0	stop_signal	71.0	0.621	False	stop_failure	s526
242.007	0.85	0.45	89.0	stop_signal	89.0	0.765	False	go	s526
244.26	0.85	0.45	89.0	stop_signal	89.0	0.657	False	go	s526
246.513	0.85	0.45	89.0	stop_signal	89.0	0.653	False	go	s526
248.766	0.85	0.45	71.0	stop_signal	71.0	0.75	False	go	s526
251.291	0.85	0.45	89.0	stop_signal	-1.0	n/a	True	stop_success	s526
254.36	0.85	0.5	89.0	stop_signal	89.0	0.543	False	stop_failure	s526
256.612	0.85	0.45	71.0	stop_signal	71.0	0.78	False	go	s526
259.0	0.85	0.45	71.0	stop_signal	-1.0	n/a	True	stop_success	s526
261.389	0.85	0.5	71.0	stop_signal	71.0	0.661	False	go	s526
263.915	0.85	0.5	71.0	stop_signal	71.0	0.72	False	go	s526
266.303	0.85	0.5	89.0	stop_signal	89.0	0.856	False	go	s526
268.692	0.85	0.5	89.0	stop_signal	89.0	0.634	False	stop_failure	s526
271.489	0.85	0.45	89.0	stop_signal	89.0	0.697	False	go	s526
273.878	0.85	0.45	71.0	stop_signal	-1.0	n/a	True	stop_success	s526
276.131	0.85	0.5	71.0	stop_signal	71.0	0.597	False	stop_failure	s526
278.655	0.85	0.45	71.0	stop_signal	-1.0	n/a	True	stop_success	s526
281.044	0.85	0.5	89.0	stop_signal	89.0	0.725	False	go	s526
283.434	0.85	0.5	89.0	stop_signal	-1.0	n/a	True	stop_success	s526
285.687	0.85	0.55	71.0	stop_signal	71.0	0.731	False	go	s526
288.076	0.85	0.55	89.0	stop_signal	89.0	0.796	False	go	s526
290.329	0.85	0.55	71.0	stop_signal	-1.0	n/a	True	stop_success	s526
292.582	0.85	0.6	89.0	stop_signal	89.0	0.797	False	go	s526
294.835	0.85	0.6	71.0	stop_signal	71.0	0.846	False	go	s526
297.224	0.85	0.6	89.0	stop_signal	89.0	0.774	False	stop_failure	s526
299.476	0.85	0.55	89.0	stop_signal	-1.0	n/a	True	stop_success	s526
301.729	0.85	0.6	71.0	stop_signal	71.0	0.761	False	stop_failure	s526
304.117	0.85	0.55	71.0	stop_signal	-1.0	n/a	True	stop_success	s526
306.506	0.85	0.6	71.0	stop_signal	71.0	0.877	False	go	s526
308.759	0.85	0.6	71.0	stop_signal	-1.0	n/a	True	stop_success	s526
311.283	0.85	0.65	71.0	stop_signal	71.0	0.972	False	go	s526
313.536	0.85	0.65	89.0	stop_signal	89.0	0.886	False	go	s526
315.925	0.85	0.65	89.0	stop_signal	89.0	0.972	False	go	s526
318.177	0.85	0.65	89.0	stop_signal	89.0	0.775	False	stop_failure	s526
320.43	0.85	0.6	71.0	stop_signal	71.0	0.907	False	go	s526
322.819	0.85	0.6	89.0	stop_signal	89.0	0.857	False	go	s526
