onset	duration	planning	condition	current_position	exp_stage	experiment_exp_id	goal_state	key_press	problem_id	response_time	start_state	trial_id	worker_id
-48.79	0.0	0	n/a	n/a	n/a	ward_and_allport	n/a	32.0	n/a	8.264	n/a	instructions	s526
3.008	8.108	1	UA_with_intermediate	0,0,0,2,3,0,0,0,0	practice	ward_and_allport	1,2,3,0,0,0,0,0,0	89.0	0.0	8.108	1,0,0,2,3,0,0,0,0	to_hand	s526
11.118	0.81	0	UA_with_intermediate	0,0,0,2,3,0,1,0,0	practice	ward_and_allport	1,2,3,0,0,0,0,0,0	82.0	0.0	0.81	1,0,0,2,3,0,0,0,0	to_board	s526
11.93	8.478	0	UA_with_intermediate	0,0,0,2,0,0,1,0,0	practice	ward_and_allport	1,2,3,0,0,0,0,0,0	71.0	0.0	8.478	1,0,0,2,3,0,0,0,0	to_hand	s526
20.41	1.439	0	UA_with_intermediate	0,0,0,2,0,0,1,3,0	practice	ward_and_allport	1,2,3,0,0,0,0,0,0	82.0	0.0	1.439	1,0,0,2,3,0,0,0,0	to_board	s526
21.85	1.027	0	UA_with_intermediate	0,0,0,0,0,0,1,3,0	practice	ward_and_allport	1,2,3,0,0,0,0,0,0	71.0	0.0	1.027	1,0,0,2,3,0,0,0,0	to_hand	s526
22.877	0.96	0	UA_with_intermediate	2,0,0,0,0,0,1,3,0	practice	ward_and_allport	1,2,3,0,0,0,0,0,0	89.0	0.0	0.96	1,0,0,2,3,0,0,0,0	to_board	s526
23.838	3.856	0	UA_with_intermediate	0,0,0,0,0,0,1,3,0	practice	ward_and_allport	1,2,3,0,0,0,0,0,0	89.0	0.0	3.856	1,0,0,2,3,0,0,0,0	to_hand	s526
27.696	6.314	0	UA_with_intermediate	0,0,0,2,0,0,1,3,0	practice	ward_and_allport	1,2,3,0,0,0,0,0,0	71.0	0.0	6.314	1,0,0,2,3,0,0,0,0	to_board	s526
34.012	1.373	0	UA_with_intermediate	0,0,0,2,0,0,1,0,0	practice	ward_and_allport	1,2,3,0,0,0,0,0,0	82.0	0.0	1.373	1,0,0,2,3,0,0,0,0	to_hand	s526
35.386	0.628	0	UA_with_intermediate	0,0,0,2,3,0,1,0,0	practice	ward_and_allport	1,2,3,0,0,0,0,0,0	71.0	0.0	0.628	1,0,0,2,3,0,0,0,0	to_board	s526
36.014	0.84	0	UA_with_intermediate	0,0,0,2,3,0,0,0,0	practice	ward_and_allport	1,2,3,0,0,0,0,0,0	82.0	0.0	0.84	1,0,0,2,3,0,0,0,0	to_hand	s526
36.855	1.686	0	UA_with_intermediate	1,0,0,2,3,0,0,0,0	practice	ward_and_allport	1,2,3,0,0,0,0,0,0	89.0	0.0	1.686	1,0,0,2,3,0,0,0,0	to_board	s526
38.543	0.874	0	UA_with_intermediate	1,0,0,2,0,0,0,0,0	practice	ward_and_allport	1,2,3,0,0,0,0,0,0	71.0	0.0	0.874	1,0,0,2,3,0,0,0,0	to_hand	s526
39.419	0.389	0	UA_with_intermediate	1,0,0,2,0,0,3,0,0	practice	ward_and_allport	1,2,3,0,0,0,0,0,0	82.0	0.0	0.389	1,0,0,2,3,0,0,0,0	to_board	s526
39.809	0.391	0	UA_with_intermediate	1,0,0,0,0,0,3,0,0	practice	ward_and_allport	1,2,3,0,0,0,0,0,0	71.0	0.0	0.391	1,0,0,2,3,0,0,0,0	to_hand	s526
40.2	0.719	0	UA_with_intermediate	1,2,0,0,0,0,3,0,0	practice	ward_and_allport	1,2,3,0,0,0,0,0,0	89.0	0.0	0.719	1,0,0,2,3,0,0,0,0	to_board	s526
40.921	0.643	0	UA_with_intermediate	1,2,0,0,0,0,0,0,0	practice	ward_and_allport	1,2,3,0,0,0,0,0,0	82.0	0.0	0.643	1,0,0,2,3,0,0,0,0	to_hand	s526
41.566	1.223	0	UA_with_intermediate	1,2,3,0,0,0,0,0,0	practice	ward_and_allport	1,2,3,0,0,0,0,0,0	89.0	0.0	1.223	1,0,0,2,3,0,0,0,0	to_board	s526
42.792	1.0	0	UA_with_intermediate	n/a	practice	ward_and_allport	n/a	-1.0	0.0	n/a	n/a	feedback	s526
45.294	7.244	1	UA_with_intermediate	1,0,0,3,0,0,0,0,0	practice	ward_and_allport	1,3,2,0,0,0,0,0,0	89.0	1.0	7.244	1,2,0,3,0,0,0,0,0	to_hand	s526
52.539	0.423	0	UA_with_intermediate	1,0,0,3,0,0,2,0,0	practice	ward_and_allport	1,3,2,0,0,0,0,0,0	82.0	1.0	0.423	1,2,0,3,0,0,0,0,0	to_board	s526
52.964	0.927	0	UA_with_intermediate	1,0,0,0,0,0,2,0,0	practice	ward_and_allport	1,3,2,0,0,0,0,0,0	71.0	1.0	0.927	1,2,0,3,0,0,0,0,0	to_hand	s526
53.893	0.344	0	UA_with_intermediate	1,3,0,0,0,0,2,0,0	practice	ward_and_allport	1,3,2,0,0,0,0,0,0	89.0	1.0	0.344	1,2,0,3,0,0,0,0,0	to_board	s526
54.238	1.222	0	UA_with_intermediate	1,3,0,0,0,0,0,0,0	practice	ward_and_allport	1,3,2,0,0,0,0,0,0	82.0	1.0	1.222	1,2,0,3,0,0,0,0,0	to_hand	s526
55.461	0.437	0	UA_with_intermediate	1,3,2,0,0,0,0,0,0	practice	ward_and_allport	1,3,2,0,0,0,0,0,0	89.0	1.0	0.437	1,2,0,3,0,0,0,0,0	to_board	s526
55.902	1.0	0	UA_with_intermediate	n/a	practice	ward_and_allport	n/a	-1.0	1.0	n/a	n/a	feedback	s526
56.902	1.1	0	UA_with_intermediate	n/a	practice	ward_and_allport	n/a	-1.0	1.0	n/a	n/a	ITI	s526
58.004	5.046	1	UA_without_intermediate	0,0,0,1,2,0,0,0,0	practice	ward_and_allport	3,2,1,0,0,0,0,0,0	82.0	2.0	5.046	0,0,0,1,2,0,3,0,0	to_hand	s526
63.05	0.426	0	UA_without_intermediate	3,0,0,1,2,0,0,0,0	practice	ward_and_allport	3,2,1,0,0,0,0,0,0	89.0	2.0	0.426	0,0,0,1,2,0,3,0,0	to_board	s526
63.479	1.646	0	UA_without_intermediate	3,0,0,1,0,0,0,0,0	practice	ward_and_allport	3,2,1,0,0,0,0,0,0	71.0	2.0	1.646	0,0,0,1,2,0,3,0,0	to_hand	s526
65.125	0.447	0	UA_without_intermediate	3,2,0,1,0,0,0,0,0	practice	ward_and_allport	3,2,1,0,0,0,0,0,0	89.0	2.0	0.447	0,0,0,1,2,0,3,0,0	to_board	s526
65.574	1.943	0	UA_without_intermediate	3,2,0,0,0,0,0,0,0	practice	ward_and_allport	3,2,1,0,0,0,0,0,0	71.0	2.0	1.943	0,0,0,1,2,0,3,0,0	to_hand	s526
67.519	0.481	0	UA_without_intermediate	3,2,1,0,0,0,0,0,0	practice	ward_and_allport	3,2,1,0,0,0,0,0,0	89.0	2.0	0.481	0,0,0,1,2,0,3,0,0	to_board	s526
68.003	1.0	0	UA_without_intermediate	n/a	practice	ward_and_allport	n/a	-1.0	2.0	n/a	n/a	feedback	s526
69.003	1.2	0	UA_without_intermediate	n/a	practice	ward_and_allport	n/a	-1.0	2.0	n/a	n/a	ITI	s526
70.205	4.909	1	UA_without_intermediate	0,0,0,1,0,0,3,0,0	practice	ward_and_allport	2,3,1,0,0,0,0,0,0	71.0	3.0	4.909	0,0,0,1,2,0,3,0,0	to_hand	s526
75.115	0.436	0	UA_without_intermediate	2,0,0,1,0,0,3,0,0	practice	ward_and_allport	2,3,1,0,0,0,0,0,0	89.0	3.0	0.436	0,0,0,1,2,0,3,0,0	to_board	s526
75.553	1.039	0	UA_without_intermediate	2,0,0,1,0,0,0,0,0	practice	ward_and_allport	2,3,1,0,0,0,0,0,0	82.0	3.0	1.039	0,0,0,1,2,0,3,0,0	to_hand	s526
76.594	1.475	0	UA_without_intermediate	2,3,0,1,0,0,0,0,0	practice	ward_and_allport	2,3,1,0,0,0,0,0,0	89.0	3.0	1.475	0,0,0,1,2,0,3,0,0	to_board	s526
78.07	0.848	0	UA_without_intermediate	2,3,0,0,0,0,0,0,0	practice	ward_and_allport	2,3,1,0,0,0,0,0,0	71.0	3.0	0.848	0,0,0,1,2,0,3,0,0	to_hand	s526
78.92	0.406	0	UA_without_intermediate	2,3,1,0,0,0,0,0,0	practice	ward_and_allport	2,3,1,0,0,0,0,0,0	89.0	3.0	0.406	0,0,0,1,2,0,3,0,0	to_board	s526
79.33	1.0	0	UA_without_intermediate	n/a	practice	ward_and_allport	n/a	-1.0	3.0	n/a	n/a	feedback	s526
80.33	1.0	0	UA_without_intermediate	n/a	practice	ward_and_allport	n/a	-1.0	3.0	n/a	n/a	ITI	s526
83.337	9.246	1	PA_with_intermediate	0,0,0,1,2,0,0,0,0	test	ward_and_allport	2,0,0,1,3,0,0,0,0	71.0	0.0	9.246	0,0,0,1,2,3,0,0,0	to_hand	s526
92.583	0.458	0	PA_with_intermediate	0,0,0,1,2,0,3,0,0	test	ward_and_allport	2,0,0,1,3,0,0,0,0	82.0	0.0	0.458	0,0,0,1,2,3,0,0,0	to_board	s526
93.043	1.08	0	PA_with_intermediate	0,0,0,1,0,0,3,0,0	test	ward_and_allport	2,0,0,1,3,0,0,0,0	71.0	0.0	1.08	0,0,0,1,2,3,0,0,0	to_hand	s526
94.124	0.446	0	PA_with_intermediate	2,0,0,1,0,0,3,0,0	test	ward_and_allport	2,0,0,1,3,0,0,0,0	89.0	0.0	0.446	0,0,0,1,2,3,0,0,0	to_board	s526
94.572	1.226	0	PA_with_intermediate	2,0,0,1,0,0,0,0,0	test	ward_and_allport	2,0,0,1,3,0,0,0,0	82.0	0.0	1.226	0,0,0,1,2,3,0,0,0	to_hand	s526
95.799	0.388	0	PA_with_intermediate	2,0,0,1,3,0,0,0,0	test	ward_and_allport	2,0,0,1,3,0,0,0,0	71.0	0.0	0.388	0,0,0,1,2,3,0,0,0	to_board	s526
96.191	1.0	0	PA_with_intermediate	n/a	test	ward_and_allport	n/a	-1.0	0.0	n/a	n/a	feedback	s526
97.191	3.176	0	PA_with_intermediate	n/a	test	ward_and_allport	n/a	-1.0	0.0	n/a	n/a	ITI	s526
100.37	7.22	1	PA_with_intermediate	1,2,0,0,0,0,0,0,0	test	ward_and_allport	1,3,0,2,0,0,0,0,0	89.0	1.0	7.22	1,2,3,0,0,0,0,0,0	to_hand	s526
107.591	0.422	0	PA_with_intermediate	1,2,0,3,0,0,0,0,0	test	ward_and_allport	1,3,0,2,0,0,0,0,0	71.0	1.0	0.422	1,2,3,0,0,0,0,0,0	to_board	s526
108.015	1.059	0	PA_with_intermediate	1,0,0,3,0,0,0,0,0	test	ward_and_allport	1,3,0,2,0,0,0,0,0	89.0	1.0	1.059	1,2,3,0,0,0,0,0,0	to_hand	s526
109.075	0.474	0	PA_with_intermediate	1,0,0,3,0,0,2,0,0	test	ward_and_allport	1,3,0,2,0,0,0,0,0	82.0	1.0	0.474	1,2,3,0,0,0,0,0,0	to_board	s526
109.551	1.905	0	PA_with_intermediate	1,0,0,0,0,0,2,0,0	test	ward_and_allport	1,3,0,2,0,0,0,0,0	71.0	1.0	1.905	1,2,3,0,0,0,0,0,0	to_hand	s526
111.458	0.709	0	PA_with_intermediate	1,3,0,0,0,0,2,0,0	test	ward_and_allport	1,3,0,2,0,0,0,0,0	89.0	1.0	0.709	1,2,3,0,0,0,0,0,0	to_board	s526
112.169	1.395	0	PA_with_intermediate	1,3,0,0,0,0,0,0,0	test	ward_and_allport	1,3,0,2,0,0,0,0,0	82.0	1.0	1.395	1,2,3,0,0,0,0,0,0	to_hand	s526
113.566	0.41	0	PA_with_intermediate	1,3,0,2,0,0,0,0,0	test	ward_and_allport	1,3,0,2,0,0,0,0,0	71.0	1.0	0.41	1,2,3,0,0,0,0,0,0	to_board	s526
113.981	1.0	0	PA_with_intermediate	n/a	test	ward_and_allport	n/a	-1.0	1.0	n/a	n/a	feedback	s526
114.981	2.36	0	PA_with_intermediate	n/a	test	ward_and_allport	n/a	-1.0	1.0	n/a	n/a	ITI	s526
117.343	6.015	1	PA_with_intermediate	1,2,0,0,0,0,0,0,0	test	ward_and_allport	1,3,0,0,0,0,2,0,0	89.0	2.0	6.015	1,2,3,0,0,0,0,0,0	to_hand	s526
123.36	0.417	0	PA_with_intermediate	1,2,0,3,0,0,0,0,0	test	ward_and_allport	1,3,0,0,0,0,2,0,0	71.0	2.0	0.417	1,2,3,0,0,0,0,0,0	to_board	s526
123.78	1.494	0	PA_with_intermediate	1,0,0,3,0,0,0,0,0	test	ward_and_allport	1,3,0,0,0,0,2,0,0	89.0	2.0	1.494	1,2,3,0,0,0,0,0,0	to_hand	s526
125.276	0.402	0	PA_with_intermediate	1,0,0,3,0,0,2,0,0	test	ward_and_allport	1,3,0,0,0,0,2,0,0	82.0	2.0	0.402	1,2,3,0,0,0,0,0,0	to_board	s526
125.681	0.974	0	PA_with_intermediate	1,0,0,0,0,0,2,0,0	test	ward_and_allport	1,3,0,0,0,0,2,0,0	71.0	2.0	0.974	1,2,3,0,0,0,0,0,0	to_hand	s526
126.656	0.519	0	PA_with_intermediate	1,3,0,0,0,0,2,0,0	test	ward_and_allport	1,3,0,0,0,0,2,0,0	89.0	2.0	0.519	1,2,3,0,0,0,0,0,0	to_board	s526
127.179	1.0	0	PA_with_intermediate	n/a	test	ward_and_allport	n/a	-1.0	2.0	n/a	n/a	feedback	s526
128.179	1.0	0	PA_with_intermediate	n/a	test	ward_and_allport	n/a	-1.0	2.0	n/a	n/a	ITI	s526
129.181	7.18	1	PA_without_intermediate	0,0,0,0,0,0,1,2,0	test	ward_and_allport	3,2,0,1,0,0,0,0,0	82.0	3.0	7.18	0,0,0,0,0,0,1,2,3	to_hand	s526
136.362	0.656	0	PA_without_intermediate	3,0,0,0,0,0,1,2,0	test	ward_and_allport	3,2,0,1,0,0,0,0,0	89.0	3.0	0.656	0,0,0,0,0,0,1,2,3	to_board	s526
137.021	1.821	0	PA_without_intermediate	3,0,0,0,0,0,1,0,0	test	ward_and_allport	3,2,0,1,0,0,0,0,0	82.0	3.0	1.821	0,0,0,0,0,0,1,2,3	to_hand	s526
138.843	1.096	0	PA_without_intermediate	3,2,0,0,0,0,1,0,0	test	ward_and_allport	3,2,0,1,0,0,0,0,0	89.0	3.0	1.096	0,0,0,0,0,0,1,2,3	to_board	s526
139.943	1.394	0	PA_without_intermediate	3,2,0,0,0,0,0,0,0	test	ward_and_allport	3,2,0,1,0,0,0,0,0	82.0	3.0	1.394	0,0,0,0,0,0,1,2,3	to_hand	s526
141.337	0.367	0	PA_without_intermediate	3,2,0,1,0,0,0,0,0	test	ward_and_allport	3,2,0,1,0,0,0,0,0	71.0	3.0	0.367	0,0,0,0,0,0,1,2,3	to_board	s526
141.709	1.0	0	PA_without_intermediate	n/a	test	ward_and_allport	n/a	-1.0	3.0	n/a	n/a	feedback	s526
142.709	1.408	0	PA_without_intermediate	n/a	test	ward_and_allport	n/a	-1.0	3.0	n/a	n/a	ITI	s526
144.121	5.746	1	PA_with_intermediate	0,0,0,1,2,0,0,0,0	test	ward_and_allport	0,0,0,1,0,0,2,3,0	71.0	4.0	5.746	0,0,0,1,2,3,0,0,0	to_hand	s526
149.868	0.369	0	PA_with_intermediate	3,0,0,1,2,0,0,0,0	test	ward_and_allport	0,0,0,1,0,0,2,3,0	89.0	4.0	0.369	0,0,0,1,2,3,0,0,0	to_board	s526
150.239	0.862	0	PA_with_intermediate	3,0,0,1,0,0,0,0,0	test	ward_and_allport	0,0,0,1,0,0,2,3,0	71.0	4.0	0.862	0,0,0,1,2,3,0,0,0	to_hand	s526
151.102	0.391	0	PA_with_intermediate	3,0,0,1,0,0,2,0,0	test	ward_and_allport	0,0,0,1,0,0,2,3,0	82.0	4.0	0.391	0,0,0,1,2,3,0,0,0	to_board	s526
151.497	1.907	0	PA_with_intermediate	0,0,0,1,0,0,2,0,0	test	ward_and_allport	0,0,0,1,0,0,2,3,0	89.0	4.0	1.907	0,0,0,1,2,3,0,0,0	to_hand	s526
153.405	0.343	0	PA_with_intermediate	0,0,0,1,0,0,2,3,0	test	ward_and_allport	0,0,0,1,0,0,2,3,0	82.0	4.0	0.343	0,0,0,1,2,3,0,0,0	to_board	s526
153.751	1.0	0	PA_with_intermediate	n/a	test	ward_and_allport	n/a	-1.0	4.0	n/a	n/a	feedback	s526
154.751	1.816	0	PA_with_intermediate	n/a	test	ward_and_allport	n/a	-1.0	4.0	n/a	n/a	ITI	s526
156.57	5.775	1	PA_without_intermediate	0,0,0,0,0,0,1,2,0	test	ward_and_allport	3,1,0,2,0,0,0,0,0	82.0	5.0	5.775	0,0,0,0,0,0,1,2,3	to_hand	s526
162.346	0.423	0	PA_without_intermediate	3,0,0,0,0,0,1,2,0	test	ward_and_allport	3,1,0,2,0,0,0,0,0	89.0	5.0	0.423	0,0,0,0,0,0,1,2,3	to_board	s526
162.773	2.504	0	PA_without_intermediate	3,0,0,0,0,0,1,0,0	test	ward_and_allport	3,1,0,2,0,0,0,0,0	82.0	5.0	2.504	0,0,0,0,0,0,1,2,3	to_hand	s526
165.278	0.437	0	PA_without_intermediate	3,0,0,2,0,0,1,0,0	test	ward_and_allport	3,1,0,2,0,0,0,0,0	71.0	5.0	0.437	0,0,0,0,0,0,1,2,3	to_board	s526
165.719	1.664	0	PA_without_intermediate	3,0,0,2,0,0,0,0,0	test	ward_and_allport	3,1,0,2,0,0,0,0,0	82.0	5.0	1.664	0,0,0,0,0,0,1,2,3	to_hand	s526
167.383	0.471	0	PA_without_intermediate	3,1,0,2,0,0,0,0,0	test	ward_and_allport	3,1,0,2,0,0,0,0,0	89.0	5.0	0.471	0,0,0,0,0,0,1,2,3	to_board	s526
167.858	1.0	0	PA_without_intermediate	n/a	test	ward_and_allport	n/a	-1.0	5.0	n/a	n/a	feedback	s526
168.858	2.088	0	PA_without_intermediate	n/a	test	ward_and_allport	n/a	-1.0	5.0	n/a	n/a	ITI	s526
170.95	4.977	1	PA_without_intermediate	0,0,0,1,2,0,0,0,0	test	ward_and_allport	3,2,0,0,0,0,1,0,0	71.0	6.0	4.977	0,0,0,1,2,3,0,0,0	to_hand	s526
175.928	0.475	0	PA_without_intermediate	3,0,0,1,2,0,0,0,0	test	ward_and_allport	3,2,0,0,0,0,1,0,0	89.0	6.0	0.475	0,0,0,1,2,3,0,0,0	to_board	s526
176.406	1.561	0	PA_without_intermediate	3,0,0,1,0,0,0,0,0	test	ward_and_allport	3,2,0,0,0,0,1,0,0	71.0	6.0	1.561	0,0,0,1,2,3,0,0,0	to_hand	s526
177.969	0.405	0	PA_without_intermediate	3,2,0,1,0,0,0,0,0	test	ward_and_allport	3,2,0,0,0,0,1,0,0	89.0	6.0	0.405	0,0,0,1,2,3,0,0,0	to_board	s526
178.376	0.863	0	PA_without_intermediate	3,2,0,0,0,0,0,0,0	test	ward_and_allport	3,2,0,0,0,0,1,0,0	71.0	6.0	0.863	0,0,0,1,2,3,0,0,0	to_hand	s526
179.24	0.539	0	PA_without_intermediate	3,2,0,0,0,0,1,0,0	test	ward_and_allport	3,2,0,0,0,0,1,0,0	82.0	6.0	0.539	0,0,0,1,2,3,0,0,0	to_board	s526
179.785	1.0	0	PA_without_intermediate	n/a	test	ward_and_allport	n/a	-1.0	6.0	n/a	n/a	feedback	s526
180.785	1.136	0	PA_without_intermediate	n/a	test	ward_and_allport	n/a	-1.0	6.0	n/a	n/a	ITI	s526
181.925	7.464	1	PA_without_intermediate	0,0,0,1,2,0,0,0,0	test	ward_and_allport	3,1,0,0,0,0,2,0,0	71.0	7.0	7.464	0,0,0,1,2,3,0,0,0	to_hand	s526
189.389	0.365	0	PA_without_intermediate	3,0,0,1,2,0,0,0,0	test	ward_and_allport	3,1,0,0,0,0,2,0,0	89.0	7.0	0.365	0,0,0,1,2,3,0,0,0	to_board	s526
189.759	0.731	0	PA_without_intermediate	3,0,0,1,0,0,0,0,0	test	ward_and_allport	3,1,0,0,0,0,2,0,0	71.0	7.0	0.731	0,0,0,1,2,3,0,0,0	to_hand	s526
190.49	0.427	0	PA_without_intermediate	3,0,0,1,0,0,2,0,0	test	ward_and_allport	3,1,0,0,0,0,2,0,0	82.0	7.0	0.427	0,0,0,1,2,3,0,0,0	to_board	s526
190.92	1.496	0	PA_without_intermediate	3,0,0,0,0,0,2,0,0	test	ward_and_allport	3,1,0,0,0,0,2,0,0	71.0	7.0	1.496	0,0,0,1,2,3,0,0,0	to_hand	s526
192.417	0.409	0	PA_without_intermediate	3,1,0,0,0,0,2,0,0	test	ward_and_allport	3,1,0,0,0,0,2,0,0	89.0	7.0	0.409	0,0,0,1,2,3,0,0,0	to_board	s526
192.831	1.0	0	PA_without_intermediate	n/a	test	ward_and_allport	n/a	-1.0	7.0	n/a	n/a	feedback	s526
193.831	6.168	0	PA_without_intermediate	n/a	test	ward_and_allport	n/a	-1.0	7.0	n/a	n/a	ITI	s526
200.002	5.829	1	PA_without_intermediate	1,2,0,0,0,0,0,0,0	test	ward_and_allport	0,0,0,1,0,0,3,2,0	89.0	8.0	5.829	1,2,3,0,0,0,0,0,0	to_hand	s526
205.832	0.512	0	PA_without_intermediate	1,2,0,0,0,0,3,0,0	test	ward_and_allport	0,0,0,1,0,0,3,2,0	82.0	8.0	0.512	1,2,3,0,0,0,0,0,0	to_board	s526
206.348	1.346	0	PA_without_intermediate	1,0,0,0,0,0,3,0,0	test	ward_and_allport	0,0,0,1,0,0,3,2,0	89.0	8.0	1.346	1,2,3,0,0,0,0,0,0	to_hand	s526
207.696	0.501	0	PA_without_intermediate	1,0,0,0,0,0,3,2,0	test	ward_and_allport	0,0,0,1,0,0,3,2,0	82.0	8.0	0.501	1,2,3,0,0,0,0,0,0	to_board	s526
208.201	1.066	0	PA_without_intermediate	0,0,0,0,0,0,3,2,0	test	ward_and_allport	0,0,0,1,0,0,3,2,0	89.0	8.0	1.066	1,2,3,0,0,0,0,0,0	to_hand	s526
209.269	0.404	0	PA_without_intermediate	0,0,0,1,0,0,3,2,0	test	ward_and_allport	0,0,0,1,0,0,3,2,0	71.0	8.0	0.404	1,2,3,0,0,0,0,0,0	to_board	s526
209.679	1.0	0	PA_without_intermediate	n/a	test	ward_and_allport	n/a	-1.0	8.0	n/a	n/a	feedback	s526
210.679	1.816	0	PA_without_intermediate	n/a	test	ward_and_allport	n/a	-1.0	8.0	n/a	n/a	ITI	s526
212.498	5.006	1	PA_with_intermediate	0,0,0,1,2,0,0,0,0	test	ward_and_allport	0,0,0,1,3,0,2,0,0	71.0	9.0	5.006	0,0,0,1,2,3,0,0,0	to_hand	s526
217.505	0.365	0	PA_with_intermediate	3,0,0,1,2,0,0,0,0	test	ward_and_allport	0,0,0,1,3,0,2,0,0	89.0	9.0	0.365	0,0,0,1,2,3,0,0,0	to_board	s526
217.876	0.914	0	PA_with_intermediate	3,0,0,1,0,0,0,0,0	test	ward_and_allport	0,0,0,1,3,0,2,0,0	71.0	9.0	0.914	0,0,0,1,2,3,0,0,0	to_hand	s526
218.791	0.431	0	PA_with_intermediate	3,0,0,1,0,0,2,0,0	test	ward_and_allport	0,0,0,1,3,0,2,0,0	82.0	9.0	0.431	0,0,0,1,2,3,0,0,0	to_board	s526
219.227	0.726	0	PA_with_intermediate	0,0,0,1,0,0,2,0,0	test	ward_and_allport	0,0,0,1,3,0,2,0,0	89.0	9.0	0.726	0,0,0,1,2,3,0,0,0	to_hand	s526
219.954	0.383	0	PA_with_intermediate	0,0,0,1,3,0,2,0,0	test	ward_and_allport	0,0,0,1,3,0,2,0,0	71.0	9.0	0.383	0,0,0,1,2,3,0,0,0	to_board	s526
220.343	1.0	0	PA_with_intermediate	n/a	test	ward_and_allport	n/a	-1.0	9.0	n/a	n/a	feedback	s526
221.343	1.952	0	PA_with_intermediate	n/a	test	ward_and_allport	n/a	-1.0	9.0	n/a	n/a	ITI	s526
223.3	3.548	1	PA_with_intermediate	1,2,0,0,0,0,0,0,0	test	ward_and_allport	1,0,0,2,3,0,0,0,0	89.0	10.0	3.548	1,2,3,0,0,0,0,0,0	to_hand	s526
226.849	0.469	0	PA_with_intermediate	1,2,0,0,0,0,3,0,0	test	ward_and_allport	1,0,0,2,3,0,0,0,0	82.0	10.0	0.469	1,2,3,0,0,0,0,0,0	to_board	s526
227.321	1.842	0	PA_with_intermediate	1,0,0,0,0,0,3,0,0	test	ward_and_allport	1,0,0,2,3,0,0,0,0	89.0	10.0	1.842	1,2,3,0,0,0,0,0,0	to_hand	s526
229.164	0.405	0	PA_with_intermediate	1,0,0,2,0,0,3,0,0	test	ward_and_allport	1,0,0,2,3,0,0,0,0	71.0	10.0	0.405	1,2,3,0,0,0,0,0,0	to_board	s526
229.574	0.71	0	PA_with_intermediate	1,0,0,2,0,0,0,0,0	test	ward_and_allport	1,0,0,2,3,0,0,0,0	82.0	10.0	0.71	1,2,3,0,0,0,0,0,0	to_hand	s526
230.284	0.324	0	PA_with_intermediate	1,0,0,2,3,0,0,0,0	test	ward_and_allport	1,0,0,2,3,0,0,0,0	71.0	10.0	0.324	1,2,3,0,0,0,0,0,0	to_board	s526
230.614	1.0	0	PA_with_intermediate	n/a	test	ward_and_allport	n/a	-1.0	10.0	n/a	n/a	feedback	s526
231.614	1.136	0	PA_with_intermediate	n/a	test	ward_and_allport	n/a	-1.0	10.0	n/a	n/a	ITI	s526
232.754	4.225	1	PA_without_intermediate	0,0,0,1,2,0,0,0,0	test	ward_and_allport	3,2,0,0,0,0,1,0,0	71.0	11.0	4.225	0,0,0,1,2,3,0,0,0	to_hand	s526
236.981	0.845	0	PA_without_intermediate	3,0,0,1,2,0,0,0,0	test	ward_and_allport	3,2,0,0,0,0,1,0,0	89.0	11.0	0.845	0,0,0,1,2,3,0,0,0	to_board	s526
237.83	1.298	0	PA_without_intermediate	3,0,0,1,0,0,0,0,0	test	ward_and_allport	3,2,0,0,0,0,1,0,0	71.0	11.0	1.298	0,0,0,1,2,3,0,0,0	to_hand	s526
239.129	0.473	0	PA_without_intermediate	3,2,0,1,0,0,0,0,0	test	ward_and_allport	3,2,0,0,0,0,1,0,0	89.0	11.0	0.473	0,0,0,1,2,3,0,0,0	to_board	s526
239.606	0.654	0	PA_without_intermediate	3,2,0,0,0,0,0,0,0	test	ward_and_allport	3,2,0,0,0,0,1,0,0	71.0	11.0	0.654	0,0,0,1,2,3,0,0,0	to_hand	s526
240.262	0.368	0	PA_without_intermediate	3,2,0,0,0,0,1,0,0	test	ward_and_allport	3,2,0,0,0,0,1,0,0	82.0	11.0	0.368	0,0,0,1,2,3,0,0,0	to_board	s526
240.635	1.0	0	PA_without_intermediate	n/a	test	ward_and_allport	n/a	-1.0	11.0	n/a	n/a	feedback	s526
241.635	1.68	0	PA_without_intermediate	n/a	test	ward_and_allport	n/a	-1.0	11.0	n/a	n/a	ITI	s526
243.32	4.211	1	PA_without_intermediate	1,2,0,0,0,0,0,0,0	test	ward_and_allport	0,0,0,1,0,0,3,2,0	89.0	12.0	4.211	1,2,3,0,0,0,0,0,0	to_hand	s526
247.532	0.41	0	PA_without_intermediate	1,2,0,0,0,0,3,0,0	test	ward_and_allport	0,0,0,1,0,0,3,2,0	82.0	12.0	0.41	1,2,3,0,0,0,0,0,0	to_board	s526
247.946	0.916	0	PA_without_intermediate	1,0,0,0,0,0,3,0,0	test	ward_and_allport	0,0,0,1,0,0,3,2,0	89.0	12.0	0.916	1,2,3,0,0,0,0,0,0	to_hand	s526
248.862	0.413	0	PA_without_intermediate	1,0,0,0,0,0,3,2,0	test	ward_and_allport	0,0,0,1,0,0,3,2,0	82.0	12.0	0.413	1,2,3,0,0,0,0,0,0	to_board	s526
249.279	0.768	0	PA_without_intermediate	0,0,0,0,0,0,3,2,0	test	ward_and_allport	0,0,0,1,0,0,3,2,0	89.0	12.0	0.768	1,2,3,0,0,0,0,0,0	to_hand	s526
250.048	0.377	0	PA_without_intermediate	0,0,0,1,0,0,3,2,0	test	ward_and_allport	0,0,0,1,0,0,3,2,0	71.0	12.0	0.377	1,2,3,0,0,0,0,0,0	to_board	s526
250.431	1.0	0	PA_without_intermediate	n/a	test	ward_and_allport	n/a	-1.0	12.0	n/a	n/a	feedback	s526
251.431	2.088	0	PA_without_intermediate	n/a	test	ward_and_allport	n/a	-1.0	12.0	n/a	n/a	ITI	s526
253.524	3.464	1	PA_with_intermediate	0,0,0,0,0,0,1,2,0	test	ward_and_allport	2,3,0,0,0,0,1,0,0	82.0	13.0	3.464	0,0,0,0,0,0,1,2,3	to_hand	s526
256.988	0.44	0	PA_with_intermediate	0,0,0,3,0,0,1,2,0	test	ward_and_allport	2,3,0,0,0,0,1,0,0	71.0	13.0	0.44	0,0,0,0,0,0,1,2,3	to_board	s526
257.432	0.725	0	PA_with_intermediate	0,0,0,3,0,0,1,0,0	test	ward_and_allport	2,3,0,0,0,0,1,0,0	82.0	13.0	0.725	0,0,0,0,0,0,1,2,3	to_hand	s526
258.159	0.985	0	PA_with_intermediate	2,0,0,3,0,0,1,0,0	test	ward_and_allport	2,3,0,0,0,0,1,0,0	89.0	13.0	0.985	0,0,0,0,0,0,1,2,3	to_board	s526
259.149	1.771	0	PA_with_intermediate	2,0,0,0,0,0,1,0,0	test	ward_and_allport	2,3,0,0,0,0,1,0,0	71.0	13.0	1.771	0,0,0,0,0,0,1,2,3	to_hand	s526
260.921	0.326	0	PA_with_intermediate	2,3,0,0,0,0,1,0,0	test	ward_and_allport	2,3,0,0,0,0,1,0,0	89.0	13.0	0.326	0,0,0,0,0,0,1,2,3	to_board	s526
261.252	1.0	0	PA_with_intermediate	n/a	test	ward_and_allport	n/a	-1.0	13.0	n/a	n/a	feedback	s526
262.252	1.0	0	PA_with_intermediate	n/a	test	ward_and_allport	n/a	-1.0	13.0	n/a	n/a	ITI	s526
263.258	4.433	1	PA_without_intermediate	0,0,0,0,0,0,1,2,0	test	ward_and_allport	3,2,0,1,0,0,0,0,0	82.0	14.0	4.433	0,0,0,0,0,0,1,2,3	to_hand	s526
267.692	0.378	0	PA_without_intermediate	3,0,0,0,0,0,1,2,0	test	ward_and_allport	3,2,0,1,0,0,0,0,0	89.0	14.0	0.378	0,0,0,0,0,0,1,2,3	to_board	s526
268.074	0.629	0	PA_without_intermediate	3,0,0,0,0,0,1,0,0	test	ward_and_allport	3,2,0,1,0,0,0,0,0	82.0	14.0	0.629	0,0,0,0,0,0,1,2,3	to_hand	s526
268.705	0.465	0	PA_without_intermediate	3,2,0,0,0,0,1,0,0	test	ward_and_allport	3,2,0,1,0,0,0,0,0	89.0	14.0	0.465	0,0,0,0,0,0,1,2,3	to_board	s526
269.174	1.34	0	PA_without_intermediate	3,2,0,0,0,0,0,0,0	test	ward_and_allport	3,2,0,1,0,0,0,0,0	82.0	14.0	1.34	0,0,0,0,0,0,1,2,3	to_hand	s526
270.515	0.409	0	PA_without_intermediate	3,2,0,1,0,0,0,0,0	test	ward_and_allport	3,2,0,1,0,0,0,0,0	71.0	14.0	0.409	0,0,0,0,0,0,1,2,3	to_board	s526
270.93	1.0	0	PA_without_intermediate	n/a	test	ward_and_allport	n/a	-1.0	14.0	n/a	n/a	feedback	s526
271.93	1.0	0	PA_without_intermediate	n/a	test	ward_and_allport	n/a	-1.0	14.0	n/a	n/a	ITI	s526
277.937	6.675	1	PA_without_intermediate	0,0,0,1,2,0,0,0,0	test	ward_and_allport	3,1,0,0,0,0,2,0,0	71.0	15.0	6.675	0,0,0,1,2,3,0,0,0	to_hand	s526
284.613	0.348	0	PA_without_intermediate	3,0,0,1,2,0,0,0,0	test	ward_and_allport	3,1,0,0,0,0,2,0,0	89.0	15.0	0.348	0,0,0,1,2,3,0,0,0	to_board	s526
284.967	0.662	0	PA_without_intermediate	3,0,0,1,0,0,0,0,0	test	ward_and_allport	3,1,0,0,0,0,2,0,0	71.0	15.0	0.662	0,0,0,1,2,3,0,0,0	to_hand	s526
285.63	0.406	0	PA_without_intermediate	3,0,0,1,0,0,2,0,0	test	ward_and_allport	3,1,0,0,0,0,2,0,0	82.0	15.0	0.406	0,0,0,1,2,3,0,0,0	to_board	s526
286.041	0.648	0	PA_without_intermediate	3,0,0,0,0,0,2,0,0	test	ward_and_allport	3,1,0,0,0,0,2,0,0	71.0	15.0	0.648	0,0,0,1,2,3,0,0,0	to_hand	s526
286.689	0.37	0	PA_without_intermediate	3,1,0,0,0,0,2,0,0	test	ward_and_allport	3,1,0,0,0,0,2,0,0	89.0	15.0	0.37	0,0,0,1,2,3,0,0,0	to_board	s526
287.064	1.0	0	PA_without_intermediate	n/a	test	ward_and_allport	n/a	-1.0	15.0	n/a	n/a	feedback	s526
288.064	1.0	0	PA_without_intermediate	n/a	test	ward_and_allport	n/a	-1.0	15.0	n/a	n/a	ITI	s526
289.068	5.906	1	PA_with_intermediate	0,0,0,0,0,0,1,2,0	test	ward_and_allport	0,0,0,2,3,0,1,0,0	82.0	16.0	5.906	0,0,0,0,0,0,1,2,3	to_hand	s526
294.975	0.406	0	PA_with_intermediate	3,0,0,0,0,0,1,2,0	test	ward_and_allport	0,0,0,2,3,0,1,0,0	89.0	16.0	0.406	0,0,0,0,0,0,1,2,3	to_board	s526
295.385	1.355	0	PA_with_intermediate	3,0,0,0,0,0,1,0,0	test	ward_and_allport	0,0,0,2,3,0,1,0,0	82.0	16.0	1.355	0,0,0,0,0,0,1,2,3	to_hand	s526
296.741	0.453	0	PA_with_intermediate	3,0,0,2,0,0,1,0,0	test	ward_and_allport	0,0,0,2,3,0,1,0,0	71.0	16.0	0.453	0,0,0,0,0,0,1,2,3	to_board	s526
297.199	0.837	0	PA_with_intermediate	0,0,0,2,0,0,1,0,0	test	ward_and_allport	0,0,0,2,3,0,1,0,0	89.0	16.0	0.837	0,0,0,0,0,0,1,2,3	to_hand	s526
298.038	0.338	0	PA_with_intermediate	0,0,0,2,3,0,1,0,0	test	ward_and_allport	0,0,0,2,3,0,1,0,0	71.0	16.0	0.338	0,0,0,0,0,0,1,2,3	to_board	s526
298.382	1.0	0	PA_with_intermediate	n/a	test	ward_and_allport	n/a	-1.0	16.0	n/a	n/a	feedback	s526
299.382	1.544	0	PA_with_intermediate	n/a	test	ward_and_allport	n/a	-1.0	16.0	n/a	n/a	ITI	s526
300.93	5.201	1	PA_without_intermediate	0,0,0,1,2,0,0,0,0	test	ward_and_allport	1,0,0,0,0,0,3,2,0	71.0	17.0	5.201	0,0,0,1,2,3,0,0,0	to_hand	s526
306.133	0.372	0	PA_without_intermediate	0,0,0,1,2,0,3,0,0	test	ward_and_allport	1,0,0,0,0,0,3,2,0	82.0	17.0	0.372	0,0,0,1,2,3,0,0,0	to_board	s526
306.51	0.57	0	PA_without_intermediate	0,0,0,1,0,0,3,0,0	test	ward_and_allport	1,0,0,0,0,0,3,2,0	71.0	17.0	0.57	0,0,0,1,2,3,0,0,0	to_hand	s526
307.08	0.54	0	PA_without_intermediate	0,0,0,1,0,0,3,2,0	test	ward_and_allport	1,0,0,0,0,0,3,2,0	82.0	17.0	0.54	0,0,0,1,2,3,0,0,0	to_board	s526
307.626	0.654	0	PA_without_intermediate	0,0,0,0,0,0,3,2,0	test	ward_and_allport	1,0,0,0,0,0,3,2,0	71.0	17.0	0.654	0,0,0,1,2,3,0,0,0	to_hand	s526
308.281	0.353	0	PA_without_intermediate	1,0,0,0,0,0,3,2,0	test	ward_and_allport	1,0,0,0,0,0,3,2,0	89.0	17.0	0.353	0,0,0,1,2,3,0,0,0	to_board	s526
308.64	1.0	0	PA_without_intermediate	n/a	test	ward_and_allport	n/a	-1.0	17.0	n/a	n/a	feedback	s526
309.64	1.272	0	PA_without_intermediate	n/a	test	ward_and_allport	n/a	-1.0	17.0	n/a	n/a	ITI	s526
310.917	3.094	1	PA_with_intermediate	0,0,0,0,0,0,1,2,0	test	ward_and_allport	0,0,0,2,0,0,1,3,0	82.0	18.0	3.094	0,0,0,0,0,0,1,2,3	to_hand	s526
314.012	0.404	0	PA_with_intermediate	0,0,0,3,0,0,1,2,0	test	ward_and_allport	0,0,0,2,0,0,1,3,0	71.0	18.0	0.404	0,0,0,0,0,0,1,2,3	to_board	s526
314.42	6.557	0	PA_with_intermediate	0,0,0,0,0,0,1,2,0	test	ward_and_allport	0,0,0,2,0,0,1,3,0	71.0	18.0	6.557	0,0,0,0,0,0,1,2,3	to_hand	s526
320.979	0.351	0	PA_with_intermediate	3,0,0,0,0,0,1,2,0	test	ward_and_allport	0,0,0,2,0,0,1,3,0	89.0	18.0	0.351	0,0,0,0,0,0,1,2,3	to_board	s526
321.334	1.365	0	PA_with_intermediate	3,0,0,0,0,0,1,0,0	test	ward_and_allport	0,0,0,2,0,0,1,3,0	82.0	18.0	1.365	0,0,0,0,0,0,1,2,3	to_hand	s526
322.7	0.363	0	PA_with_intermediate	3,0,0,2,0,0,1,0,0	test	ward_and_allport	0,0,0,2,0,0,1,3,0	71.0	18.0	0.363	0,0,0,0,0,0,1,2,3	to_board	s526
323.068	1.716	0	PA_with_intermediate	0,0,0,2,0,0,1,0,0	test	ward_and_allport	0,0,0,2,0,0,1,3,0	89.0	18.0	1.716	0,0,0,0,0,0,1,2,3	to_hand	s526
324.786	0.295	0	PA_with_intermediate	0,0,0,2,0,0,1,3,0	test	ward_and_allport	0,0,0,2,0,0,1,3,0	82.0	18.0	0.295	0,0,0,0,0,0,1,2,3	to_board	s526
325.086	1.0	0	PA_with_intermediate	n/a	test	ward_and_allport	n/a	-1.0	18.0	n/a	n/a	feedback	s526
326.086	3.04	0	PA_with_intermediate	n/a	test	ward_and_allport	n/a	-1.0	18.0	n/a	n/a	ITI	s526
329.131	6.273	1	PA_with_intermediate	0,0,0,0,0,0,1,2,0	test	ward_and_allport	0,0,0,2,0,0,1,3,0	82.0	19.0	6.273	0,0,0,0,0,0,1,2,3	to_hand	s526
335.405	0.409	0	PA_with_intermediate	3,0,0,0,0,0,1,2,0	test	ward_and_allport	0,0,0,2,0,0,1,3,0	89.0	19.0	0.409	0,0,0,0,0,0,1,2,3	to_board	s526
335.819	1.117	0	PA_with_intermediate	3,0,0,0,0,0,1,0,0	test	ward_and_allport	0,0,0,2,0,0,1,3,0	82.0	19.0	1.117	0,0,0,0,0,0,1,2,3	to_hand	s526
336.937	0.39	0	PA_with_intermediate	3,0,0,2,0,0,1,0,0	test	ward_and_allport	0,0,0,2,0,0,1,3,0	71.0	19.0	0.39	0,0,0,0,0,0,1,2,3	to_board	s526
337.332	0.898	0	PA_with_intermediate	0,0,0,2,0,0,1,0,0	test	ward_and_allport	0,0,0,2,0,0,1,3,0	89.0	19.0	0.898	0,0,0,0,0,0,1,2,3	to_hand	s526
338.232	0.376	0	PA_with_intermediate	0,0,0,2,0,0,1,3,0	test	ward_and_allport	0,0,0,2,0,0,1,3,0	82.0	19.0	0.376	0,0,0,0,0,0,1,2,3	to_board	s526
338.615	1.0	0	PA_with_intermediate	n/a	test	ward_and_allport	n/a	-1.0	19.0	n/a	n/a	feedback	s526
339.615	1.272	0	PA_with_intermediate	n/a	test	ward_and_allport	n/a	-1.0	19.0	n/a	n/a	ITI	s526
340.894	6.274	1	PA_with_intermediate	0,0,0,0,0,0,1,2,0	test	ward_and_allport	2,3,0,0,0,0,1,0,0	82.0	20.0	6.274	0,0,0,0,0,0,1,2,3	to_hand	s526
347.169	0.342	0	PA_with_intermediate	0,0,0,3,0,0,1,2,0	test	ward_and_allport	2,3,0,0,0,0,1,0,0	71.0	20.0	0.342	0,0,0,0,0,0,1,2,3	to_board	s526
347.517	0.744	0	PA_with_intermediate	0,0,0,3,0,0,1,0,0	test	ward_and_allport	2,3,0,0,0,0,1,0,0	82.0	20.0	0.744	0,0,0,0,0,0,1,2,3	to_hand	s526
348.262	0.383	0	PA_with_intermediate	2,0,0,3,0,0,1,0,0	test	ward_and_allport	2,3,0,0,0,0,1,0,0	89.0	20.0	0.383	0,0,0,0,0,0,1,2,3	to_board	s526
348.652	0.925	0	PA_with_intermediate	2,0,0,0,0,0,1,0,0	test	ward_and_allport	2,3,0,0,0,0,1,0,0	71.0	20.0	0.925	0,0,0,0,0,0,1,2,3	to_hand	s526
349.578	0.429	0	PA_with_intermediate	2,3,0,0,0,0,1,0,0	test	ward_and_allport	2,3,0,0,0,0,1,0,0	89.0	20.0	0.429	0,0,0,0,0,0,1,2,3	to_board	s526
350.013	1.0	0	PA_with_intermediate	n/a	test	ward_and_allport	n/a	-1.0	20.0	n/a	n/a	feedback	s526
351.013	1.136	0	PA_with_intermediate	n/a	test	ward_and_allport	n/a	-1.0	20.0	n/a	n/a	ITI	s526
352.156	5.712	1	PA_with_intermediate	0,0,0,1,2,0,0,0,0	test	ward_and_allport	2,3,0,1,0,0,0,0,0	71.0	21.0	5.712	0,0,0,1,2,3,0,0,0	to_hand	s526
357.868	0.364	0	PA_with_intermediate	0,0,0,1,2,0,3,0,0	test	ward_and_allport	2,3,0,1,0,0,0,0,0	82.0	21.0	0.364	0,0,0,1,2,3,0,0,0	to_board	s526
358.239	1.485	0	PA_with_intermediate	0,0,0,1,0,0,3,0,0	test	ward_and_allport	2,3,0,1,0,0,0,0,0	71.0	21.0	1.485	0,0,0,1,2,3,0,0,0	to_hand	s526
359.725	0.412	0	PA_with_intermediate	2,0,0,1,0,0,3,0,0	test	ward_and_allport	2,3,0,1,0,0,0,0,0	89.0	21.0	0.412	0,0,0,1,2,3,0,0,0	to_board	s526
360.143	0.86	0	PA_with_intermediate	2,0,0,1,0,0,0,0,0	test	ward_and_allport	2,3,0,1,0,0,0,0,0	82.0	21.0	0.86	0,0,0,1,2,3,0,0,0	to_hand	s526
361.004	0.491	0	PA_with_intermediate	2,3,0,1,0,0,0,0,0	test	ward_and_allport	2,3,0,1,0,0,0,0,0	89.0	21.0	0.491	0,0,0,1,2,3,0,0,0	to_board	s526
361.503	1.0	0	PA_with_intermediate	n/a	test	ward_and_allport	n/a	-1.0	21.0	n/a	n/a	feedback	s526
362.503	1.0	0	PA_with_intermediate	n/a	test	ward_and_allport	n/a	-1.0	21.0	n/a	n/a	ITI	s526
363.51	8.932	1	PA_with_intermediate	0,0,0,1,2,0,0,0,0	test	ward_and_allport	2,0,0,1,3,0,0,0,0	71.0	22.0	8.932	0,0,0,1,2,3,0,0,0	to_hand	s526
372.443	0.341	0	PA_with_intermediate	0,0,0,1,2,0,3,0,0	test	ward_and_allport	2,0,0,1,3,0,0,0,0	82.0	22.0	0.341	0,0,0,1,2,3,0,0,0	to_board	s526
372.79	0.496	0	PA_with_intermediate	0,0,0,1,0,0,3,0,0	test	ward_and_allport	2,0,0,1,3,0,0,0,0	71.0	22.0	0.496	0,0,0,1,2,3,0,0,0	to_hand	s526
373.286	0.507	0	PA_with_intermediate	2,0,0,1,0,0,3,0,0	test	ward_and_allport	2,0,0,1,3,0,0,0,0	89.0	22.0	0.507	0,0,0,1,2,3,0,0,0	to_board	s526
373.8	0.909	0	PA_with_intermediate	2,0,0,1,0,0,0,0,0	test	ward_and_allport	2,0,0,1,3,0,0,0,0	82.0	22.0	0.909	0,0,0,1,2,3,0,0,0	to_hand	s526
374.709	0.39	0	PA_with_intermediate	2,0,0,1,3,0,0,0,0	test	ward_and_allport	2,0,0,1,3,0,0,0,0	71.0	22.0	0.39	0,0,0,1,2,3,0,0,0	to_board	s526
375.107	1.0	0	PA_with_intermediate	n/a	test	ward_and_allport	n/a	-1.0	22.0	n/a	n/a	feedback	s526
376.107	1.0	0	PA_with_intermediate	n/a	test	ward_and_allport	n/a	-1.0	22.0	n/a	n/a	ITI	s526
377.115	3.708	1	PA_without_intermediate	1,2,0,0,0,0,0,0,0	test	ward_and_allport	0,0,0,3,2,0,1,0,0	89.0	23.0	3.708	1,2,3,0,0,0,0,0,0	to_hand	s526
380.824	0.458	0	PA_without_intermediate	1,2,0,3,0,0,0,0,0	test	ward_and_allport	0,0,0,3,2,0,1,0,0	71.0	23.0	0.458	1,2,3,0,0,0,0,0,0	to_board	s526
381.289	0.814	0	PA_without_intermediate	1,0,0,3,0,0,0,0,0	test	ward_and_allport	0,0,0,3,2,0,1,0,0	89.0	23.0	0.814	1,2,3,0,0,0,0,0,0	to_hand	s526
382.104	0.381	0	PA_without_intermediate	1,0,0,3,2,0,0,0,0	test	ward_and_allport	0,0,0,3,2,0,1,0,0	71.0	23.0	0.381	1,2,3,0,0,0,0,0,0	to_board	s526
382.491	0.563	0	PA_without_intermediate	0,0,0,3,2,0,0,0,0	test	ward_and_allport	0,0,0,3,2,0,1,0,0	89.0	23.0	0.563	1,2,3,0,0,0,0,0,0	to_hand	s526
383.056	0.366	0	PA_without_intermediate	0,0,0,3,2,0,1,0,0	test	ward_and_allport	0,0,0,3,2,0,1,0,0	82.0	23.0	0.366	1,2,3,0,0,0,0,0,0	to_board	s526
383.429	1.0	0	PA_without_intermediate	n/a	test	ward_and_allport	n/a	-1.0	23.0	n/a	n/a	feedback	s526
384.429	1.408	0	PA_without_intermediate	n/a	test	ward_and_allport	n/a	-1.0	23.0	n/a	n/a	ITI	s526
385.844	4.181	1	PA_with_intermediate	1,2,0,0,0,0,0,0,0	test	ward_and_allport	1,0,0,2,3,0,0,0,0	89.0	24.0	4.181	1,2,3,0,0,0,0,0,0	to_hand	s526
390.026	0.293	0	PA_with_intermediate	1,2,0,0,0,0,3,0,0	test	ward_and_allport	1,0,0,2,3,0,0,0,0	82.0	24.0	0.293	1,2,3,0,0,0,0,0,0	to_board	s526
390.327	0.836	0	PA_with_intermediate	1,0,0,0,0,0,3,0,0	test	ward_and_allport	1,0,0,2,3,0,0,0,0	89.0	24.0	0.836	1,2,3,0,0,0,0,0,0	to_hand	s526
391.163	0.501	0	PA_with_intermediate	1,0,0,2,0,0,3,0,0	test	ward_and_allport	1,0,0,2,3,0,0,0,0	71.0	24.0	0.501	1,2,3,0,0,0,0,0,0	to_board	s526
391.672	0.811	0	PA_with_intermediate	1,0,0,2,0,0,0,0,0	test	ward_and_allport	1,0,0,2,3,0,0,0,0	82.0	24.0	0.811	1,2,3,0,0,0,0,0,0	to_hand	s526
392.484	0.333	0	PA_with_intermediate	1,0,0,2,3,0,0,0,0	test	ward_and_allport	1,0,0,2,3,0,0,0,0	71.0	24.0	0.333	1,2,3,0,0,0,0,0,0	to_board	s526
392.825	1.0	0	PA_with_intermediate	n/a	test	ward_and_allport	n/a	-1.0	24.0	n/a	n/a	feedback	s526
393.825	2.768	0	PA_with_intermediate	n/a	test	ward_and_allport	n/a	-1.0	24.0	n/a	n/a	ITI	s526
396.6	4.84	1	PA_with_intermediate	0,0,0,1,2,0,0,0,0	test	ward_and_allport	2,3,0,1,0,0,0,0,0	71.0	25.0	4.84	0,0,0,1,2,3,0,0,0	to_hand	s526
401.441	0.334	0	PA_with_intermediate	0,0,0,1,2,0,3,0,0	test	ward_and_allport	2,3,0,1,0,0,0,0,0	82.0	25.0	0.334	0,0,0,1,2,3,0,0,0	to_board	s526
401.781	0.407	0	PA_with_intermediate	0,0,0,1,0,0,3,0,0	test	ward_and_allport	2,3,0,1,0,0,0,0,0	71.0	25.0	0.407	0,0,0,1,2,3,0,0,0	to_hand	s526
402.19	0.455	0	PA_with_intermediate	2,0,0,1,0,0,3,0,0	test	ward_and_allport	2,3,0,1,0,0,0,0,0	89.0	25.0	0.455	0,0,0,1,2,3,0,0,0	to_board	s526
402.652	0.804	0	PA_with_intermediate	2,0,0,1,0,0,0,0,0	test	ward_and_allport	2,3,0,1,0,0,0,0,0	82.0	25.0	0.804	0,0,0,1,2,3,0,0,0	to_hand	s526
403.456	0.578	0	PA_with_intermediate	2,3,0,1,0,0,0,0,0	test	ward_and_allport	2,3,0,1,0,0,0,0,0	89.0	25.0	0.578	0,0,0,1,2,3,0,0,0	to_board	s526
404.042	1.0	0	PA_with_intermediate	n/a	test	ward_and_allport	n/a	-1.0	25.0	n/a	n/a	feedback	s526
405.042	1.68	0	PA_with_intermediate	n/a	test	ward_and_allport	n/a	-1.0	25.0	n/a	n/a	ITI	s526
406.73	9.662	1	PA_without_intermediate	0,0,0,1,2,0,0,0,0	test	ward_and_allport	1,0,0,0,0,0,3,2,0	71.0	26.0	9.662	0,0,0,1,2,3,0,0,0	to_hand	s526
416.393	0.592	0	PA_without_intermediate	0,0,0,1,2,0,3,0,0	test	ward_and_allport	1,0,0,0,0,0,3,2,0	82.0	26.0	0.592	0,0,0,1,2,3,0,0,0	to_board	s526
416.992	0.475	0	PA_without_intermediate	0,0,0,1,0,0,3,0,0	test	ward_and_allport	1,0,0,0,0,0,3,2,0	71.0	26.0	0.475	0,0,0,1,2,3,0,0,0	to_hand	s526
417.468	0.449	0	PA_without_intermediate	0,0,0,1,0,0,3,2,0	test	ward_and_allport	1,0,0,0,0,0,3,2,0	82.0	26.0	0.449	0,0,0,1,2,3,0,0,0	to_board	s526
417.925	0.701	0	PA_without_intermediate	0,0,0,0,0,0,3,2,0	test	ward_and_allport	1,0,0,0,0,0,3,2,0	71.0	26.0	0.701	0,0,0,1,2,3,0,0,0	to_hand	s526
418.627	0.413	0	PA_without_intermediate	1,0,0,0,0,0,3,2,0	test	ward_and_allport	1,0,0,0,0,0,3,2,0	89.0	26.0	0.413	0,0,0,1,2,3,0,0,0	to_board	s526
419.049	1.0	0	PA_without_intermediate	n/a	test	ward_and_allport	n/a	-1.0	26.0	n/a	n/a	feedback	s526
420.049	2.224	0	PA_without_intermediate	n/a	test	ward_and_allport	n/a	-1.0	26.0	n/a	n/a	ITI	s526
422.281	4.689	1	PA_without_intermediate	1,2,0,0,0,0,0,0,0	test	ward_and_allport	0,0,0,2,0,0,3,1,0	89.0	27.0	4.689	1,2,3,0,0,0,0,0,0	to_hand	s526
426.971	0.543	0	PA_without_intermediate	1,2,0,0,0,0,3,0,0	test	ward_and_allport	0,0,0,2,0,0,3,1,0	82.0	27.0	0.543	1,2,3,0,0,0,0,0,0	to_board	s526
427.521	1.329	0	PA_without_intermediate	1,0,0,0,0,0,3,0,0	test	ward_and_allport	0,0,0,2,0,0,3,1,0	89.0	27.0	1.329	1,2,3,0,0,0,0,0,0	to_hand	s526
428.852	0.451	0	PA_without_intermediate	1,0,0,2,0,0,3,0,0	test	ward_and_allport	0,0,0,2,0,0,3,1,0	71.0	27.0	0.451	1,2,3,0,0,0,0,0,0	to_board	s526
429.311	0.61	0	PA_without_intermediate	0,0,0,2,0,0,3,0,0	test	ward_and_allport	0,0,0,2,0,0,3,1,0	89.0	27.0	0.61	1,2,3,0,0,0,0,0,0	to_hand	s526
429.922	0.506	0	PA_without_intermediate	0,0,0,2,0,0,3,1,0	test	ward_and_allport	0,0,0,2,0,0,3,1,0	82.0	27.0	0.506	1,2,3,0,0,0,0,0,0	to_board	s526
430.438	1.0	0	PA_without_intermediate	n/a	test	ward_and_allport	n/a	-1.0	27.0	n/a	n/a	feedback	s526
431.438	2.36	0	PA_without_intermediate	n/a	test	ward_and_allport	n/a	-1.0	27.0	n/a	n/a	ITI	s526
433.807	3.456	1	PA_without_intermediate	1,2,0,0,0,0,0,0,0	test	ward_and_allport	0,0,0,3,1,0,2,0,0	89.0	28.0	3.456	1,2,3,0,0,0,0,0,0	to_hand	s526
437.265	0.747	0	PA_without_intermediate	1,2,0,3,0,0,0,0,0	test	ward_and_allport	0,0,0,3,1,0,2,0,0	71.0	28.0	0.747	1,2,3,0,0,0,0,0,0	to_board	s526
438.022	0.679	0	PA_without_intermediate	1,0,0,3,0,0,0,0,0	test	ward_and_allport	0,0,0,3,1,0,2,0,0	89.0	28.0	0.679	1,2,3,0,0,0,0,0,0	to_hand	s526
438.702	0.491	0	PA_without_intermediate	1,0,0,3,0,0,2,0,0	test	ward_and_allport	0,0,0,3,1,0,2,0,0	82.0	28.0	0.491	1,2,3,0,0,0,0,0,0	to_board	s526
439.202	0.541	0	PA_without_intermediate	0,0,0,3,0,0,2,0,0	test	ward_and_allport	0,0,0,3,1,0,2,0,0	89.0	28.0	0.541	1,2,3,0,0,0,0,0,0	to_hand	s526
439.744	0.44	0	PA_without_intermediate	0,0,0,3,1,0,2,0,0	test	ward_and_allport	0,0,0,3,1,0,2,0,0	71.0	28.0	0.44	1,2,3,0,0,0,0,0,0	to_board	s526
440.194	1.0	0	PA_without_intermediate	n/a	test	ward_and_allport	n/a	-1.0	28.0	n/a	n/a	feedback	s526
441.194	1.0	0	PA_without_intermediate	n/a	test	ward_and_allport	n/a	-1.0	28.0	n/a	n/a	ITI	s526
442.202	4.748	1	PA_without_intermediate	1,2,0,0,0,0,0,0,0	test	ward_and_allport	0,0,0,3,1,0,2,0,0	89.0	29.0	4.748	1,2,3,0,0,0,0,0,0	to_hand	s526
446.95	0.874	0	PA_without_intermediate	1,2,0,3,0,0,0,0,0	test	ward_and_allport	0,0,0,3,1,0,2,0,0	71.0	29.0	0.874	1,2,3,0,0,0,0,0,0	to_board	s526
447.832	0.77	0	PA_without_intermediate	1,0,0,3,0,0,0,0,0	test	ward_and_allport	0,0,0,3,1,0,2,0,0	89.0	29.0	0.77	1,2,3,0,0,0,0,0,0	to_hand	s526
448.603	0.949	0	PA_without_intermediate	1,0,0,3,0,0,2,0,0	test	ward_and_allport	0,0,0,3,1,0,2,0,0	82.0	29.0	0.949	1,2,3,0,0,0,0,0,0	to_board	s526
449.563	0.728	0	PA_without_intermediate	0,0,0,3,0,0,2,0,0	test	ward_and_allport	0,0,0,3,1,0,2,0,0	89.0	29.0	0.728	1,2,3,0,0,0,0,0,0	to_hand	s526
450.291	0.409	0	PA_without_intermediate	0,0,0,3,1,0,2,0,0	test	ward_and_allport	0,0,0,3,1,0,2,0,0	71.0	29.0	0.409	1,2,3,0,0,0,0,0,0	to_board	s526
450.712	1.0	0	PA_without_intermediate	n/a	test	ward_and_allport	n/a	-1.0	29.0	n/a	n/a	feedback	s526
451.712	1.408	0	PA_without_intermediate	n/a	test	ward_and_allport	n/a	-1.0	29.0	n/a	n/a	ITI	s526
458.132	17.118	1	PA_with_intermediate	0,0,0,0,0,0,1,2,0	test	ward_and_allport	2,0,0,0,0,0,1,3,0	82.0	30.0	17.118	0,0,0,0,0,0,1,2,3	to_hand	s526
475.25	0.479	0	PA_with_intermediate	0,0,0,3,0,0,1,2,0	test	ward_and_allport	2,0,0,0,0,0,1,3,0	71.0	30.0	0.479	0,0,0,0,0,0,1,2,3	to_board	s526
475.739	0.773	0	PA_with_intermediate	0,0,0,3,0,0,1,0,0	test	ward_and_allport	2,0,0,0,0,0,1,3,0	82.0	30.0	0.773	0,0,0,0,0,0,1,2,3	to_hand	s526
476.514	0.482	0	PA_with_intermediate	0,0,0,3,2,0,1,0,0	test	ward_and_allport	2,0,0,0,0,0,1,3,0	71.0	30.0	0.482	0,0,0,0,0,0,1,2,3	to_board	s526
477.006	1.1	0	PA_with_intermediate	0,0,0,3,2,0,0,0,0	test	ward_and_allport	2,0,0,0,0,0,1,3,0	82.0	30.0	1.1	0,0,0,0,0,0,1,2,3	to_hand	s526
478.108	0.655	0	PA_with_intermediate	1,0,0,3,2,0,0,0,0	test	ward_and_allport	2,0,0,0,0,0,1,3,0	89.0	30.0	0.655	0,0,0,0,0,0,1,2,3	to_board	s526
478.773	1.268	0	PA_with_intermediate	1,0,0,3,0,0,0,0,0	test	ward_and_allport	2,0,0,0,0,0,1,3,0	71.0	30.0	1.268	0,0,0,0,0,0,1,2,3	to_hand	s526
480.043	0.517	0	PA_with_intermediate	1,0,0,3,0,0,2,0,0	test	ward_and_allport	2,0,0,0,0,0,1,3,0	82.0	30.0	0.517	0,0,0,0,0,0,1,2,3	to_board	s526
480.574	4.71	0	PA_with_intermediate	1,0,0,3,0,0,0,0,0	test	ward_and_allport	2,0,0,0,0,0,1,3,0	82.0	30.0	4.71	0,0,0,0,0,0,1,2,3	to_hand	s526
485.285	2.607	0	PA_with_intermediate	1,0,0,3,2,0,0,0,0	test	ward_and_allport	2,0,0,0,0,0,1,3,0	71.0	30.0	2.607	0,0,0,0,0,0,1,2,3	to_board	s526
487.9	0.359	0	PA_with_intermediate	0,0,0,3,2,0,0,0,0	test	ward_and_allport	2,0,0,0,0,0,1,3,0	89.0	30.0	0.359	0,0,0,0,0,0,1,2,3	to_hand	s526
488.26	0.344	0	PA_with_intermediate	0,0,0,3,2,0,1,0,0	test	ward_and_allport	2,0,0,0,0,0,1,3,0	82.0	30.0	0.344	0,0,0,0,0,0,1,2,3	to_board	s526
488.613	1.094	0	PA_with_intermediate	0,0,0,3,0,0,1,0,0	test	ward_and_allport	2,0,0,0,0,0,1,3,0	71.0	30.0	1.094	0,0,0,0,0,0,1,2,3	to_hand	s526
489.709	0.344	0	PA_with_intermediate	2,0,0,3,0,0,1,0,0	test	ward_and_allport	2,0,0,0,0,0,1,3,0	89.0	30.0	0.344	0,0,0,0,0,0,1,2,3	to_board	s526
490.063	0.844	0	PA_with_intermediate	2,0,0,0,0,0,1,0,0	test	ward_and_allport	2,0,0,0,0,0,1,3,0	71.0	30.0	0.844	0,0,0,0,0,0,1,2,3	to_hand	s526
490.908	0.519	0	PA_with_intermediate	2,0,0,0,0,0,1,3,0	test	ward_and_allport	2,0,0,0,0,0,1,3,0	82.0	30.0	0.519	0,0,0,0,0,0,1,2,3	to_board	s526
491.437	1.0	0	PA_with_intermediate	n/a	test	ward_and_allport	n/a	-1.0	30.0	n/a	n/a	feedback	s526
492.437	1.136	0	PA_with_intermediate	n/a	test	ward_and_allport	n/a	-1.0	30.0	n/a	n/a	ITI	s526
493.583	6.056	1	PA_without_intermediate	1,2,0,0,0,0,0,0,0	test	ward_and_allport	0,0,0,2,0,0,3,1,0	89.0	31.0	6.056	1,2,3,0,0,0,0,0,0	to_hand	s526
499.639	0.447	0	PA_without_intermediate	1,2,0,0,0,0,3,0,0	test	ward_and_allport	0,0,0,2,0,0,3,1,0	82.0	31.0	0.447	1,2,3,0,0,0,0,0,0	to_board	s526
500.093	2.84	0	PA_without_intermediate	1,0,0,0,0,0,3,0,0	test	ward_and_allport	0,0,0,2,0,0,3,1,0	89.0	31.0	2.84	1,2,3,0,0,0,0,0,0	to_hand	s526
502.934	0.367	0	PA_without_intermediate	1,0,0,2,0,0,3,0,0	test	ward_and_allport	0,0,0,2,0,0,3,1,0	71.0	31.0	0.367	1,2,3,0,0,0,0,0,0	to_board	s526
503.308	0.434	0	PA_without_intermediate	0,0,0,2,0,0,3,0,0	test	ward_and_allport	0,0,0,2,0,0,3,1,0	89.0	31.0	0.434	1,2,3,0,0,0,0,0,0	to_hand	s526
503.744	0.481	0	PA_without_intermediate	0,0,0,2,0,0,3,1,0	test	ward_and_allport	0,0,0,2,0,0,3,1,0	82.0	31.0	0.481	1,2,3,0,0,0,0,0,0	to_board	s526
504.236	1.0	0	PA_without_intermediate	n/a	test	ward_and_allport	n/a	-1.0	31.0	n/a	n/a	feedback	s526
505.236	4.128	0	PA_without_intermediate	n/a	test	ward_and_allport	n/a	-1.0	31.0	n/a	n/a	ITI	s526
509.373	4.405	1	PA_without_intermediate	1,2,0,0,0,0,0,0,0	test	ward_and_allport	0,0,0,3,2,0,1,0,0	89.0	32.0	4.405	1,2,3,0,0,0,0,0,0	to_hand	s526
513.779	0.339	0	PA_without_intermediate	1,2,0,3,0,0,0,0,0	test	ward_and_allport	0,0,0,3,2,0,1,0,0	71.0	32.0	0.339	1,2,3,0,0,0,0,0,0	to_board	s526
514.127	0.653	0	PA_without_intermediate	1,0,0,3,0,0,0,0,0	test	ward_and_allport	0,0,0,3,2,0,1,0,0	89.0	32.0	0.653	1,2,3,0,0,0,0,0,0	to_hand	s526
514.781	0.325	0	PA_without_intermediate	1,0,0,3,2,0,0,0,0	test	ward_and_allport	0,0,0,3,2,0,1,0,0	71.0	32.0	0.325	1,2,3,0,0,0,0,0,0	to_board	s526
515.115	0.551	0	PA_without_intermediate	0,0,0,3,2,0,0,0,0	test	ward_and_allport	0,0,0,3,2,0,1,0,0	89.0	32.0	0.551	1,2,3,0,0,0,0,0,0	to_hand	s526
515.667	0.364	0	PA_without_intermediate	0,0,0,3,2,0,1,0,0	test	ward_and_allport	0,0,0,3,2,0,1,0,0	82.0	32.0	0.364	1,2,3,0,0,0,0,0,0	to_board	s526
516.042	1.0	0	PA_without_intermediate	n/a	test	ward_and_allport	n/a	-1.0	32.0	n/a	n/a	feedback	s526
517.042	1.136	0	PA_without_intermediate	n/a	test	ward_and_allport	n/a	-1.0	32.0	n/a	n/a	ITI	s526
518.187	4.394	1	PA_without_intermediate	0,0,0,1,2,0,0,0,0	test	ward_and_allport	2,0,0,0,0,0,3,1,0	71.0	33.0	4.394	0,0,0,1,2,3,0,0,0	to_hand	s526
522.582	0.275	0	PA_without_intermediate	0,0,0,1,2,0,3,0,0	test	ward_and_allport	2,0,0,0,0,0,3,1,0	82.0	33.0	0.275	0,0,0,1,2,3,0,0,0	to_board	s526
522.866	0.674	0	PA_without_intermediate	0,0,0,1,0,0,3,0,0	test	ward_and_allport	2,0,0,0,0,0,3,1,0	71.0	33.0	0.674	0,0,0,1,2,3,0,0,0	to_hand	s526
523.543	0.341	0	PA_without_intermediate	2,0,0,1,0,0,3,0,0	test	ward_and_allport	2,0,0,0,0,0,3,1,0	89.0	33.0	0.341	0,0,0,1,2,3,0,0,0	to_board	s526
523.894	0.822	0	PA_without_intermediate	2,0,0,0,0,0,3,0,0	test	ward_and_allport	2,0,0,0,0,0,3,1,0	71.0	33.0	0.822	0,0,0,1,2,3,0,0,0	to_hand	s526
524.716	0.291	0	PA_without_intermediate	2,0,0,0,0,0,3,1,0	test	ward_and_allport	2,0,0,0,0,0,3,1,0	82.0	33.0	0.291	0,0,0,1,2,3,0,0,0	to_board	s526
525.016	1.0	0	PA_without_intermediate	n/a	test	ward_and_allport	n/a	-1.0	33.0	n/a	n/a	feedback	s526
526.016	4.264	0	PA_without_intermediate	n/a	test	ward_and_allport	n/a	-1.0	33.0	n/a	n/a	ITI	s526
530.288	5.633	1	PA_with_intermediate	0,0,0,1,2,0,0,0,0	test	ward_and_allport	0,0,0,1,3,0,2,0,0	71.0	34.0	5.633	0,0,0,1,2,3,0,0,0	to_hand	s526
535.921	0.303	0	PA_with_intermediate	3,0,0,1,2,0,0,0,0	test	ward_and_allport	0,0,0,1,3,0,2,0,0	89.0	34.0	0.303	0,0,0,1,2,3,0,0,0	to_board	s526
536.235	0.623	0	PA_with_intermediate	3,0,0,1,0,0,0,0,0	test	ward_and_allport	0,0,0,1,3,0,2,0,0	71.0	34.0	0.623	0,0,0,1,2,3,0,0,0	to_hand	s526
536.86	0.334	0	PA_with_intermediate	3,0,0,1,0,0,2,0,0	test	ward_and_allport	0,0,0,1,3,0,2,0,0	82.0	34.0	0.334	0,0,0,1,2,3,0,0,0	to_board	s526
537.203	0.796	0	PA_with_intermediate	0,0,0,1,0,0,2,0,0	test	ward_and_allport	0,0,0,1,3,0,2,0,0	89.0	34.0	0.796	0,0,0,1,2,3,0,0,0	to_hand	s526
538.0	0.339	0	PA_with_intermediate	0,0,0,1,3,0,2,0,0	test	ward_and_allport	0,0,0,1,3,0,2,0,0	71.0	34.0	0.339	0,0,0,1,2,3,0,0,0	to_board	s526
538.35	1.0	0	PA_with_intermediate	n/a	test	ward_and_allport	n/a	-1.0	34.0	n/a	n/a	feedback	s526
539.35	3.04	0	PA_with_intermediate	n/a	test	ward_and_allport	n/a	-1.0	34.0	n/a	n/a	ITI	s526
542.4	4.158	1	PA_with_intermediate	1,2,0,0,0,0,0,0,0	test	ward_and_allport	1,0,0,0,0,0,2,3,0	89.0	35.0	4.158	1,2,3,0,0,0,0,0,0	to_hand	s526
546.559	0.273	0	PA_with_intermediate	1,2,0,3,0,0,0,0,0	test	ward_and_allport	1,0,0,0,0,0,2,3,0	71.0	35.0	0.273	1,2,3,0,0,0,0,0,0	to_board	s526
546.844	0.668	0	PA_with_intermediate	1,0,0,3,0,0,0,0,0	test	ward_and_allport	1,0,0,0,0,0,2,3,0	89.0	35.0	0.668	1,2,3,0,0,0,0,0,0	to_hand	s526
547.513	0.335	0	PA_with_intermediate	1,0,0,3,0,0,2,0,0	test	ward_and_allport	1,0,0,0,0,0,2,3,0	82.0	35.0	0.335	1,2,3,0,0,0,0,0,0	to_board	s526
547.859	0.839	0	PA_with_intermediate	1,0,0,0,0,0,2,0,0	test	ward_and_allport	1,0,0,0,0,0,2,3,0	71.0	35.0	0.839	1,2,3,0,0,0,0,0,0	to_hand	s526
548.7	0.292	0	PA_with_intermediate	1,0,0,0,0,0,2,3,0	test	ward_and_allport	1,0,0,0,0,0,2,3,0	82.0	35.0	0.292	1,2,3,0,0,0,0,0,0	to_board	s526
549.009	1.0	0	PA_with_intermediate	n/a	test	ward_and_allport	n/a	-1.0	35.0	n/a	n/a	feedback	s526
550.009	1.136	0	PA_with_intermediate	n/a	test	ward_and_allport	n/a	-1.0	35.0	n/a	n/a	ITI	s526
551.158	4.711	1	PA_with_intermediate	0,0,0,0,0,0,1,2,0	test	ward_and_allport	0,0,0,2,3,0,1,0,0	82.0	36.0	4.711	0,0,0,0,0,0,1,2,3	to_hand	s526
555.869	0.314	0	PA_with_intermediate	3,0,0,0,0,0,1,2,0	test	ward_and_allport	0,0,0,2,3,0,1,0,0	89.0	36.0	0.314	0,0,0,0,0,0,1,2,3	to_board	s526
556.195	1.247	0	PA_with_intermediate	3,0,0,0,0,0,1,0,0	test	ward_and_allport	0,0,0,2,3,0,1,0,0	82.0	36.0	1.247	0,0,0,0,0,0,1,2,3	to_hand	s526
557.444	0.408	0	PA_with_intermediate	3,0,0,2,0,0,1,0,0	test	ward_and_allport	0,0,0,2,3,0,1,0,0	71.0	36.0	0.408	0,0,0,0,0,0,1,2,3	to_board	s526
557.863	1.271	0	PA_with_intermediate	0,0,0,2,0,0,1,0,0	test	ward_and_allport	0,0,0,2,3,0,1,0,0	89.0	36.0	1.271	0,0,0,0,0,0,1,2,3	to_hand	s526
559.134	0.295	0	PA_with_intermediate	0,0,0,2,3,0,1,0,0	test	ward_and_allport	0,0,0,2,3,0,1,0,0	71.0	36.0	0.295	0,0,0,0,0,0,1,2,3	to_board	s526
559.441	1.0	0	PA_with_intermediate	n/a	test	ward_and_allport	n/a	-1.0	36.0	n/a	n/a	feedback	s526
560.441	1.408	0	PA_with_intermediate	n/a	test	ward_and_allport	n/a	-1.0	36.0	n/a	n/a	ITI	s526
n/a	n/a	0	n/a	n/a	n/a	n/a	n/a	n/a	n/a	n/a	n/a	ITI	n/a
