onset	duration	EV	action	clicked_on_loss_card	experiment_exp_id	gain_amount	gain_probability	key_press	loss_amount	loss_probability	num_cards	num_click_in_round	num_loss_cards	risk	response_time	total_cards	trial_id	worker_id
3.009	2.577	-1.4108722668574365	draw_card	0.0	columbia_card_task_fmri	12.0	0.8333333333333334	89.0	-70.0	0.1666666666666666	6.0	1.0	1.0	-1.8727337958532717	2.577	n/a	stim	s358
5.588	1.071	-4.144205600190769	draw_card	0.0	columbia_card_task_fmri	12.0	0.8	89.0	-70.0	0.2	6.0	2.0	1.0	0.3675973917270596	1.071	n/a	stim	s358
6.659	0.849	-8.24420560019077	draw_card	0.0	columbia_card_task_fmri	12.0	0.75	89.0	-70.0	0.25	6.0	3.0	1.0	3.074562907201866	0.849	n/a	stim	s358
7.51	2.211	-15.077538933524105	end_round	0.0	columbia_card_task_fmri	12.0	0.6666666666666667	71.0	-70.0	0.3333333333333333	6.0	4.0	1.0	6.222617021373409	2.211	3.0	stim	s358
9.724	2.25	n/a	-1.0	n/a	columbia_card_task_fmri	n/a	n/a	-1.0	n/a	n/a	n/a	n/a	n/a	n/a	n/a	n/a	feedback	s358
11.974	0.204	n/a	-1.0	n/a	columbia_card_task_fmri	n/a	n/a	-1.0	n/a	n/a	n/a	n/a	n/a	n/a	n/a	n/a	ITI	s358
12.179	2.631	-0.5775389335241023	draw_card	0.0	columbia_card_task_fmri	14.0	0.8333333333333334	89.0	-75.0	0.1666666666666666	6.0	1.0	1.0	0.735927981903103	2.631	n/a	stim	s358
14.811	1.118	-3.544205600190769	draw_card	1.0	columbia_card_task_fmri	14.0	0.8	89.0	-75.0	0.2	6.0	2.0	1.0	3.1675189462395963	1.118	2.0	stim	s358
15.931	2.25	n/a	-1.0	n/a	columbia_card_task_fmri	n/a	n/a	-1.0	n/a	n/a	n/a	n/a	n/a	n/a	n/a	n/a	feedback	s358
18.181	0.204	n/a	-1.0	n/a	columbia_card_task_fmri	n/a	n/a	-1.0	n/a	n/a	n/a	n/a	n/a	n/a	n/a	n/a	ITI	s358
18.388	2.271	1.0891277331425635	draw_card	0.0	columbia_card_task_fmri	15.0	0.8333333333333334	89.0	-70.0	0.1666666666666666	6.0	1.0	1.0	-0.7547375890881902	2.271	n/a	stim	s358
20.66	0.778	-1.7442056001907702	draw_card	1.0	columbia_card_task_fmri	15.0	0.8	89.0	-70.0	0.2	6.0	2.0	1.0	1.5675621902055423	0.778	2.0	stim	s358
21.441	2.25	n/a	-1.0	n/a	columbia_card_task_fmri	n/a	n/a	-1.0	n/a	n/a	n/a	n/a	n/a	n/a	n/a	n/a	feedback	s358
23.691	0.272	n/a	-1.0	n/a	columbia_card_task_fmri	n/a	n/a	-1.0	n/a	n/a	n/a	n/a	n/a	n/a	n/a	n/a	ITI	s358
23.965	3.984	1.9224610664758977	draw_card	1.0	columbia_card_task_fmri	17.0	0.8333333333333334	89.0	-75.0	0.1666666666666666	6.0	1.0	1.0	1.85392980865722	3.984	1.0	stim	s358
27.951	2.25	n/a	-1.0	n/a	columbia_card_task_fmri	n/a	n/a	-1.0	n/a	n/a	n/a	n/a	n/a	n/a	n/a	n/a	feedback	s358
30.201	0.136	n/a	-1.0	n/a	columbia_card_task_fmri	n/a	n/a	-1.0	n/a	n/a	n/a	n/a	n/a	n/a	n/a	n/a	ITI	s358
30.339	2.112	3.25579439980923	draw_card	0.0	columbia_card_task_fmri	24.0	0.75	89.0	-60.0	0.25	8.0	1.0	2.0	3.9405663742616	2.112	n/a	stim	s358
32.452	1.094	0.2557943998092298	end_round	0.0	columbia_card_task_fmri	24.0	0.7142857142857143	71.0	-60.0	0.2857142857142857	8.0	2.0	2.0	5.514794024927468	1.094	1.0	stim	s358
33.549	2.25	n/a	-1.0	n/a	columbia_card_task_fmri	n/a	n/a	-1.0	n/a	n/a	n/a	n/a	n/a	n/a	n/a	n/a	feedback	s358
35.799	0.204	n/a	-1.0	n/a	columbia_card_task_fmri	n/a	n/a	-1.0	n/a	n/a	n/a	n/a	n/a	n/a	n/a	n/a	ITI	s358
36.005	2.635	3.25579439980923	draw_card	0.0	columbia_card_task_fmri	29.0	0.75	89.0	-75.0	0.25	8.0	1.0	2.0	12.600647448156543	2.635	n/a	stim	s358
38.641	1.798	-0.4584913144764819	end_round	0.0	columbia_card_task_fmri	29.0	0.7142857142857143	71.0	-75.0	0.2857142857142857	8.0	2.0	2.0	14.549707265120972	1.798	1.0	stim	s358
40.442	2.25	n/a	-1.0	n/a	columbia_card_task_fmri	n/a	n/a	-1.0	n/a	n/a	n/a	n/a	n/a	n/a	n/a	n/a	feedback	s358
42.692	0.272	n/a	-1.0	n/a	columbia_card_task_fmri	n/a	n/a	-1.0	n/a	n/a	n/a	n/a	n/a	n/a	n/a	n/a	ITI	s358
42.965	1.761	-0.96642782241299	draw_card	0.0	columbia_card_task_fmri	17.0	0.7777777777777778	89.0	-65.0	0.2222222222222222	9.0	1.0	2.0	1.658215822127282	1.761	n/a	stim	s358
44.73	0.633	-3.24420560019077	draw_card	0.0	columbia_card_task_fmri	17.0	0.75	89.0	-65.0	0.25	9.0	2.0	2.0	3.074562907201866	0.633	n/a	stim	s358
45.365	0.812	-6.172777028762197	end_round	0.0	columbia_card_task_fmri	17.0	0.7142857142857143	71.0	-65.0	0.2857142857142857	9.0	3.0	2.0	4.611307148755316	0.812	2.0	stim	s358
46.18	2.25	n/a	-1.0	n/a	columbia_card_task_fmri	n/a	n/a	-1.0	n/a	n/a	n/a	n/a	n/a	n/a	n/a	n/a	feedback	s358
48.43	0.272	n/a	-1.0	n/a	columbia_card_task_fmri	n/a	n/a	-1.0	n/a	n/a	n/a	n/a	n/a	n/a	n/a	n/a	ITI	s358
48.703	3.476	3.3557943998092297	draw_card	0.0	columbia_card_task_fmri	14.0	0.9	89.0	-95.0	0.1	10.0	1.0	1.0	0.2676004418026494	3.476	n/a	stim	s358
52.182	2.584	2.144683288698117	end_round	0.0	columbia_card_task_fmri	14.0	0.8888888888888888	71.0	-95.0	0.1111111111111111	10.0	2.0	1.0	1.8229501940639423	2.584	1.0	stim	s358
54.769	2.25	n/a	-1.0	n/a	columbia_card_task_fmri	n/a	n/a	-1.0	n/a	n/a	n/a	n/a	n/a	n/a	n/a	n/a	feedback	s358
57.019	0.34	n/a	-1.0	n/a	columbia_card_task_fmri	n/a	n/a	-1.0	n/a	n/a	n/a	n/a	n/a	n/a	n/a	n/a	ITI	s358
57.361	2.131	-0.7442056001907702	draw_card	0.0	columbia_card_task_fmri	15.0	0.8	89.0	-65.0	0.2	10.0	1.0	2.0	-0.4323776739301905	2.131	n/a	stim	s358
59.494	1.114	-2.5219833779685468	draw_card	0.0	columbia_card_task_fmri	15.0	0.7777777777777778	89.0	-65.0	0.2222222222222222	10.0	2.0	2.0	0.826760393267783	1.114	n/a	stim	s358
60.609	1.776	-4.74420560019077	end_round	0.0	columbia_card_task_fmri	15.0	0.75	71.0	-65.0	0.25	10.0	3.0	2.0	2.208560536934584	1.776	2.0	stim	s358
62.388	2.25	n/a	-1.0	n/a	columbia_card_task_fmri	n/a	n/a	-1.0	n/a	n/a	n/a	n/a	n/a	n/a	n/a	n/a	feedback	s358
64.638	0.204	n/a	-1.0	n/a	columbia_card_task_fmri	n/a	n/a	-1.0	n/a	n/a	n/a	n/a	n/a	n/a	n/a	n/a	ITI	s358
64.844	2.863	0.8557943998092312	draw_card	0.0	columbia_card_task_fmri	17.0	0.8	89.0	-65.0	0.2	10.0	1.0	2.0	0.3675973917270596	2.863	n/a	stim	s358
67.709	2.879	-0.96642782241299	draw_card	0.0	columbia_card_task_fmri	17.0	0.7777777777777778	89.0	-65.0	0.2222222222222222	10.0	2.0	2.0	1.658215822127282	2.879	n/a	stim	s358
70.59	0.489	-3.24420560019077	end_round	0.0	columbia_card_task_fmri	17.0	0.75	71.0	-65.0	0.25	10.0	3.0	2.0	3.074562907201866	0.489	2.0	stim	s358
71.081	2.25	n/a	-1.0	n/a	columbia_card_task_fmri	n/a	n/a	-1.0	n/a	n/a	n/a	n/a	n/a	n/a	n/a	n/a	feedback	s358
73.331	0.068	n/a	-1.0	n/a	columbia_card_task_fmri	n/a	n/a	-1.0	n/a	n/a	n/a	n/a	n/a	n/a	n/a	n/a	ITI	s358
73.401	1.902	-0.5775389335241023	draw_card	1.0	columbia_card_task_fmri	13.0	0.8333333333333334	89.0	-70.0	0.1666666666666666	12.0	1.0	2.0	-1.500068697052491	1.902	1.0	stim	s358
75.307	2.25	n/a	-1.0	n/a	columbia_card_task_fmri	n/a	n/a	-1.0	n/a	n/a	n/a	n/a	n/a	n/a	n/a	n/a	feedback	s358
77.557	0.0	n/a	-1.0	n/a	columbia_card_task_fmri	n/a	n/a	-1.0	n/a	n/a	n/a	n/a	n/a	n/a	n/a	n/a	ITI	s358
77.558	1.456	-0.5775389335241023	draw_card	1.0	columbia_card_task_fmri	15.0	0.8333333333333334	89.0	-80.0	0.1666666666666666	12.0	1.0	2.0	2.9719336666131184	1.456	1.0	stim	s358
79.017	2.25	n/a	-1.0	n/a	columbia_card_task_fmri	n/a	n/a	-1.0	n/a	n/a	n/a	n/a	n/a	n/a	n/a	n/a	feedback	s358
81.267	0.408	n/a	-1.0	n/a	columbia_card_task_fmri	n/a	n/a	-1.0	n/a	n/a	n/a	n/a	n/a	n/a	n/a	n/a	ITI	s358
81.676	1.703	-1.5442056001907691	draw_card	0.0	columbia_card_task_fmri	14.0	0.8	89.0	-65.0	0.2	15.0	1.0	3.0	-0.8323647333448214	1.703	n/a	stim	s358
83.381	0.428	-2.672777028762197	draw_card	0.0	columbia_card_task_fmri	14.0	0.7857142857142857	89.0	-65.0	0.2142857142857142	15.0	2.0	3.0	-0.016644422870975	0.428	n/a	stim	s358
83.811	0.483	-3.9749748309600017	draw_card	1.0	columbia_card_task_fmri	14.0	0.7692307692307692	89.0	-65.0	0.2307692307692307	15.0	3.0	3.0	0.8522613628788704	0.483	3.0	stim	s358
84.297	2.25	n/a	-1.0	n/a	columbia_card_task_fmri	n/a	n/a	-1.0	n/a	n/a	n/a	n/a	n/a	n/a	n/a	n/a	feedback	s358
86.547	0.204	n/a	-1.0	n/a	columbia_card_task_fmri	n/a	n/a	-1.0	n/a	n/a	n/a	n/a	n/a	n/a	n/a	n/a	ITI	s358
86.754	0.617	-1.6192056001907702	draw_card	0.0	columbia_card_task_fmri	1.0	0.9375	89.0	-45.0	0.0625	16.0	1.0	1.0	-21.295635167001237	0.617	n/a	stim	s358
87.373	0.986	-1.8108722668574369	draw_card	0.0	columbia_card_task_fmri	1.0	0.9333333333333332	89.0	-45.0	0.0666666666666666	16.0	2.0	1.0	-20.95613322222281	0.986	n/a	stim	s358
88.361	0.614	-2.029919885905056	draw_card	1.0	columbia_card_task_fmri	1.0	0.9285714285714286	89.0	-45.0	0.0714285714285714	16.0	3.0	1.0	-20.58382746629505	0.614	3.0	stim	s358
88.978	2.25	n/a	-1.0	n/a	columbia_card_task_fmri	n/a	n/a	-1.0	n/a	n/a	n/a	n/a	n/a	n/a	n/a	n/a	feedback	s358
91.228	0.136	n/a	-1.0	n/a	columbia_card_task_fmri	n/a	n/a	-1.0	n/a	n/a	n/a	n/a	n/a	n/a	n/a	n/a	ITI	s358
91.367	1.421	-0.6817056001907702	draw_card	0.0	columbia_card_task_fmri	15.0	0.8125	89.0	-70.0	0.1875	16.0	1.0	3.0	0.7441379380681354	1.421	n/a	stim	s358
92.79	2.892	-1.7442056001907702	draw_card	0.0	columbia_card_task_fmri	15.0	0.8	89.0	-70.0	0.2	16.0	2.0	3.0	1.5675621902055423	2.892	n/a	stim	s358
95.683	1.128	-2.9584913144764853	end_round	0.0	columbia_card_task_fmri	15.0	0.7857142857142857	71.0	-70.0	0.2142857142857142	16.0	3.0	3.0	2.4452397594403834	1.128	2.0	stim	s358
96.814	2.25	n/a	-1.0	n/a	columbia_card_task_fmri	n/a	n/a	-1.0	n/a	n/a	n/a	n/a	n/a	n/a	n/a	n/a	feedback	s358
99.064	0.34	n/a	-1.0	n/a	columbia_card_task_fmri	n/a	n/a	-1.0	n/a	n/a	n/a	n/a	n/a	n/a	n/a	n/a	ITI	s358
99.405	2.716	6.25579439980923	draw_card	0.0	columbia_card_task_fmri	30.0	0.7	89.0	-50.0	0.3	10.0	1.0	3.0	4.228097920682053	2.716	n/a	stim	s358
102.123	1.458	3.5891277331425693	draw_card	1.0	columbia_card_task_fmri	30.0	0.6666666666666667	89.0	-50.0	0.3333333333333333	10.0	2.0	3.0	5.279829137559773	1.458	2.0	stim	s358
103.585	2.25	n/a	-1.0	n/a	columbia_card_task_fmri	n/a	n/a	-1.0	n/a	n/a	n/a	n/a	n/a	n/a	n/a	n/a	feedback	s358
105.835	0.068	n/a	-1.0	n/a	columbia_card_task_fmri	n/a	n/a	-1.0	n/a	n/a	n/a	n/a	n/a	n/a	n/a	n/a	ITI	s358
105.905	1.728	5.65579439980923	draw_card	0.0	columbia_card_task_fmri	17.0	0.8666666666666667	89.0	-70.0	0.1333333333333333	15.0	1.0	2.0	-2.8579806457641794	1.728	n/a	stim	s358
107.634	1.422	4.827222971237803	draw_card	0.0	columbia_card_task_fmri	17.0	0.8571428571428572	89.0	-70.0	0.1428571428571428	15.0	2.0	2.0	-1.988667179918952	1.422	n/a	stim	s358
109.057	0.913	3.871179015193845	draw_card	1.0	columbia_card_task_fmri	17.0	0.8461538461538461	89.0	-70.0	0.1538461538461538	15.0	3.0	2.0	-1.0426523281540767	0.913	3.0	stim	s358
109.974	2.25	n/a	-1.0	n/a	columbia_card_task_fmri	n/a	n/a	-1.0	n/a	n/a	n/a	n/a	n/a	n/a	n/a	n/a	feedback	s358
112.224	0.34	n/a	-1.0	n/a	columbia_card_task_fmri	n/a	n/a	-1.0	n/a	n/a	n/a	n/a	n/a	n/a	n/a	n/a	ITI	s358
112.565	2.771	0.8807943998092298	end_round	0.0	columbia_card_task_fmri	7.0	0.9375	71.0	-95.0	0.0625	16.0	1.0	1.0	-7.741806185295324	2.771	0.0	stim	s358
115.34	2.25	n/a	-1.0	n/a	columbia_card_task_fmri	n/a	n/a	-1.0	n/a	n/a	n/a	n/a	n/a	n/a	n/a	n/a	feedback	s358
117.59	0.136	n/a	-1.0	n/a	columbia_card_task_fmri	n/a	n/a	-1.0	n/a	n/a	n/a	n/a	n/a	n/a	n/a	n/a	ITI	s358
117.728	3.691	2.44329439980923	draw_card	0.0	columbia_card_task_fmri	9.0	0.9375	89.0	-100.0	0.0625	16.0	1.0	1.0	-6.047461058685887	3.691	n/a	stim	s358
121.421	0.403	1.9891277331425632	end_round	0.0	columbia_card_task_fmri	9.0	0.9333333333333332	71.0	-100.0	0.0666666666666666	16.0	2.0	1.0	-5.242819787997895	0.403	1.0	stim	s358
121.828	2.25	n/a	-1.0	n/a	columbia_card_task_fmri	n/a	n/a	-1.0	n/a	n/a	n/a	n/a	n/a	n/a	n/a	n/a	feedback	s358
124.078	0.068	n/a	-1.0	n/a	columbia_card_task_fmri	n/a	n/a	-1.0	n/a	n/a	n/a	n/a	n/a	n/a	n/a	n/a	ITI	s358
124.148	3.037	3.38079439980923	draw_card	0.0	columbia_card_task_fmri	15.0	0.875	89.0	-80.0	0.125	16.0	1.0	2.0	-1.0140619272576783	3.037	n/a	stim	s358
127.186	0.552	2.589127733142564	draw_card	0.0	columbia_card_task_fmri	15.0	0.8666666666666667	89.0	-80.0	0.1333333333333333	16.0	2.0	2.0	-0.1385967215373966	0.552	n/a	stim	s358
127.74	3.538	1.6843658283806604	draw_card	0.0	columbia_card_task_fmri	15.0	0.8571428571428572	89.0	-80.0	0.1428571428571428	16.0	3.0	2.0	0.8106591789944702	3.538	n/a	stim	s358
131.28	0.446	0.640409784424613	end_round	0.0	columbia_card_task_fmri	15.0	0.8461538461538461	71.0	-80.0	0.1538461538461538	16.0	4.0	2.0	1.8436696072209813	0.446	3.0	stim	s358
131.729	2.25	n/a	-1.0	n/a	columbia_card_task_fmri	n/a	n/a	-1.0	n/a	n/a	n/a	n/a	n/a	n/a	n/a	n/a	feedback	s358
133.979	0.068	n/a	-1.0	n/a	columbia_card_task_fmri	n/a	n/a	-1.0	n/a	n/a	n/a	n/a	n/a	n/a	n/a	n/a	ITI	s358
134.049	1.939	5.50579439980923	draw_card	0.0	columbia_card_task_fmri	16.0	0.875	89.0	-70.0	0.125	16.0	1.0	2.0	-3.9904231865687407	1.939	n/a	stim	s358
135.991	0.785	4.789127733142563	draw_card	0.0	columbia_card_task_fmri	16.0	0.8666666666666667	89.0	-70.0	0.1333333333333333	16.0	2.0	2.0	-3.197902417832097	0.785	n/a	stim	s358
136.778	0.949	3.970080114094945	draw_card	0.0	columbia_card_task_fmri	16.0	0.8571428571428572	89.0	-70.0	0.1428571428571428	16.0	3.0	2.0	-2.3385817911097746	0.949	n/a	stim	s358
137.729	1.528	3.0250251690399983	draw_card	0.0	columbia_card_task_fmri	16.0	0.8461538461538461	89.0	-70.0	0.1538461538461538	16.0	4.0	2.0	-1.4034414220701912	1.528	n/a	stim	s358
139.26	0.558	1.9224610664758977	end_round	0.0	columbia_card_task_fmri	16.0	0.8333333333333334	71.0	-70.0	0.1666666666666666	16.0	5.0	2.0	-0.382071601094502	0.558	4.0	stim	s358
139.821	2.25	n/a	-1.0	n/a	columbia_card_task_fmri	n/a	n/a	-1.0	n/a	n/a	n/a	n/a	n/a	n/a	n/a	n/a	feedback	s358
142.071	0.068	n/a	-1.0	n/a	columbia_card_task_fmri	n/a	n/a	-1.0	n/a	n/a	n/a	n/a	n/a	n/a	n/a	n/a	ITI	s358
142.142	2.781	6.81829439980923	draw_card	0.0	columbia_card_task_fmri	30.0	0.6875	89.0	-45.0	0.3125	16.0	1.0	5.0	2.330971468347279	2.781	n/a	stim	s358
144.925	0.777	5.255794399809234	draw_card	0.0	columbia_card_task_fmri	30.0	0.6666666666666667	89.0	-45.0	0.3333333333333333	16.0	2.0	5.0	2.9228643646540604	0.777	n/a	stim	s358
145.705	2.065	3.4700801140949418	end_round	0.0	columbia_card_task_fmri	30.0	0.6428571428571428	71.0	-45.0	0.3571428571428571	16.0	3.0	5.0	3.5043171150354127	2.065	2.0	stim	s358
147.773	2.25	n/a	-1.0	n/a	columbia_card_task_fmri	n/a	n/a	-1.0	n/a	n/a	n/a	n/a	n/a	n/a	n/a	n/a	feedback	s358
150.023	0.136	n/a	-1.0	n/a	columbia_card_task_fmri	n/a	n/a	-1.0	n/a	n/a	n/a	n/a	n/a	n/a	n/a	n/a	ITI	s358
150.16	3.386	-1.4108722668574365	draw_card	0.0	columbia_card_task_fmri	13.0	0.8333333333333334	89.0	-75.0	0.1666666666666666	6.0	1.0	1.0	0.3632611935995342	3.386	n/a	stim	s358
153.548	1.444	-4.34420560019077	draw_card	0.0	columbia_card_task_fmri	13.0	0.8	89.0	-75.0	0.2	6.0	2.0	1.0	2.767529388689262	1.444	n/a	stim	s358
154.994	1.357	-8.74420560019077	end_round	0.0	columbia_card_task_fmri	13.0	0.75	71.0	-75.0	0.25	6.0	3.0	1.0	5.67257629964746	1.357	2.0	stim	s358
156.355	2.25	n/a	-1.0	n/a	columbia_card_task_fmri	n/a	n/a	-1.0	n/a	n/a	n/a	n/a	n/a	n/a	n/a	n/a	feedback	s358
158.605	0.0	n/a	-1.0	n/a	columbia_card_task_fmri	n/a	n/a	-1.0	n/a	n/a	n/a	n/a	n/a	n/a	n/a	n/a	ITI	s358
158.608	2.655	0.2557943998092316	draw_card	0.0	columbia_card_task_fmri	14.0	0.8333333333333334	89.0	-70.0	0.1666666666666666	6.0	1.0	1.0	-1.127403291185157	2.655	n/a	stim	s358
161.265	0.697	-2.544205600190769	draw_card	0.0	columbia_card_task_fmri	14.0	0.8	89.0	-70.0	0.2	6.0	2.0	1.0	1.1675736446810916	0.697	n/a	stim	s358
161.964	1.302	-6.74420560019077	draw_card	0.0	columbia_card_task_fmri	14.0	0.75	89.0	-70.0	0.25	6.0	3.0	1.0	3.9405663742616	1.302	n/a	stim	s358
163.268	0.489	-13.744205600190767	end_round	0.0	columbia_card_task_fmri	14.0	0.6666666666666667	71.0	-70.0	0.3333333333333333	6.0	4.0	1.0	7.165405912667524	0.489	3.0	stim	s358
163.761	2.25	n/a	-1.0	n/a	columbia_card_task_fmri	n/a	n/a	-1.0	n/a	n/a	n/a	n/a	n/a	n/a	n/a	n/a	feedback	s358
166.011	0.136	n/a	-1.0	n/a	columbia_card_task_fmri	n/a	n/a	-1.0	n/a	n/a	n/a	n/a	n/a	n/a	n/a	n/a	ITI	s358
166.15	2.415	0.2557943998092316	draw_card	0.0	columbia_card_task_fmri	16.0	0.8333333333333334	89.0	-80.0	0.1666666666666666	6.0	1.0	1.0	3.3446020377319954	2.415	n/a	stim	s358
168.567	1.656	-2.9442056001907693	draw_card	0.0	columbia_card_task_fmri	16.0	0.8	89.0	-80.0	0.2	6.0	2.0	1.0	5.967451940306702	1.656	n/a	stim	s358
170.225	0.447	-7.74420560019077	end_round	0.0	columbia_card_task_fmri	16.0	0.75	71.0	-80.0	0.25	6.0	3.0	1.0	9.136606370652082	0.447	2.0	stim	s358
170.676	2.25	n/a	-1.0	n/a	columbia_card_task_fmri	n/a	n/a	-1.0	n/a	n/a	n/a	n/a	n/a	n/a	n/a	n/a	feedback	s358
172.926	0.34	n/a	-1.0	n/a	columbia_card_task_fmri	n/a	n/a	-1.0	n/a	n/a	n/a	n/a	n/a	n/a	n/a	n/a	ITI	s358
173.268	2.024	2.755794399809232	draw_card	1.0	columbia_card_task_fmri	17.0	0.8333333333333334	89.0	-70.0	0.1666666666666666	6.0	1.0	1.0	-0.0094053370619846	2.024	1.0	stim	s358
175.296	2.25	n/a	-1.0	n/a	columbia_card_task_fmri	n/a	n/a	-1.0	n/a	n/a	n/a	n/a	n/a	n/a	n/a	n/a	feedback	s358
177.546	0.408	n/a	-1.0	n/a	columbia_card_task_fmri	n/a	n/a	-1.0	n/a	n/a	n/a	n/a	n/a	n/a	n/a	n/a	ITI	s358
177.957	2.612	2.75579439980923	draw_card	0.0	columbia_card_task_fmri	25.0	0.75	89.0	-65.0	0.25	8.0	1.0	2.0	6.538582625034415	2.612	n/a	stim	s358
180.57	1.606	-0.4584913144764819	end_round	0.0	columbia_card_task_fmri	25.0	0.7142857142857143	71.0	-65.0	0.2857142857142857	8.0	2.0	2.0	8.22526026039693	1.606	1.0	stim	s358
182.178	2.25	n/a	-1.0	n/a	columbia_card_task_fmri	n/a	n/a	-1.0	n/a	n/a	n/a	n/a	n/a	n/a	n/a	n/a	feedback	s358
184.428	0.136	n/a	-1.0	n/a	columbia_card_task_fmri	n/a	n/a	-1.0	n/a	n/a	n/a	n/a	n/a	n/a	n/a	n/a	ITI	s358
184.567	2.224	2.75579439980923	draw_card	0.0	columbia_card_task_fmri	30.0	0.75	89.0	-80.0	0.25	8.0	1.0	2.0	15.198684034743684	2.224	n/a	stim	s358
186.792	0.91	-1.1727770287621937	draw_card	0.0	columbia_card_task_fmri	30.0	0.7142857142857143	89.0	-80.0	0.2857142857142857	8.0	2.0	2.0	17.26019299285408	0.91	n/a	stim	s358
187.705	1.283	-6.410872266857431	end_round	0.0	columbia_card_task_fmri	30.0	0.6666666666666667	71.0	-80.0	0.3333333333333333	8.0	3.0	2.0	19.42172817714468	1.283	2.0	stim	s358
188.991	2.25	n/a	-1.0	n/a	columbia_card_task_fmri	n/a	n/a	-1.0	n/a	n/a	n/a	n/a	n/a	n/a	n/a	n/a	feedback	s358
191.241	0.136	n/a	-1.0	n/a	columbia_card_task_fmri	n/a	n/a	-1.0	n/a	n/a	n/a	n/a	n/a	n/a	n/a	n/a	ITI	s358
191.38	3.305	2.455794399809231	draw_card	0.0	columbia_card_task_fmri	13.0	0.9	89.0	-95.0	0.1	10.0	1.0	1.0	-0.0323902950100674	3.305	n/a	stim	s358
194.687	2.612	1.2557943998092298	end_round	0.0	columbia_card_task_fmri	13.0	0.8888888888888888	71.0	-95.0	0.1111111111111111	10.0	2.0	1.0	1.5086893561573689	2.612	1.0	stim	s358
197.303	2.25	n/a	-1.0	n/a	columbia_card_task_fmri	n/a	n/a	-1.0	n/a	n/a	n/a	n/a	n/a	n/a	n/a	n/a	feedback	s358
199.553	0.0	n/a	-1.0	n/a	columbia_card_task_fmri	n/a	n/a	-1.0	n/a	n/a	n/a	n/a	n/a	n/a	n/a	n/a	ITI	s358
199.556	2.87	3.8557943998092297	draw_card	0.0	columbia_card_task_fmri	14.0	0.9	89.0	-90.0	0.1	10.0	1.0	1.0	-1.2323514609660826	2.87	n/a	stim	s358
202.429	0.663	2.700238844253673	end_round	0.0	columbia_card_task_fmri	14.0	0.8888888888888888	71.0	-90.0	0.1111111111111111	10.0	2.0	1.0	0.2516477049591188	0.663	1.0	stim	s358
203.095	2.25	n/a	-1.0	n/a	columbia_card_task_fmri	n/a	n/a	-1.0	n/a	n/a	n/a	n/a	n/a	n/a	n/a	n/a	feedback	s358
205.345	0.068	n/a	-1.0	n/a	columbia_card_task_fmri	n/a	n/a	-1.0	n/a	n/a	n/a	n/a	n/a	n/a	n/a	n/a	ITI	s358
205.416	2.146	-0.9442056001907696	draw_card	0.0	columbia_card_task_fmri	16.0	0.8	89.0	-70.0	0.2	10.0	1.0	2.0	1.9675510021019704	2.146	n/a	stim	s358
207.565	0.822	-2.8553167113018807	draw_card	1.0	columbia_card_task_fmri	16.0	0.7777777777777778	89.0	-70.0	0.2222222222222222	10.0	2.0	2.0	3.3211300272134423	0.822	2.0	stim	s358
208.39	2.25	n/a	-1.0	n/a	columbia_card_task_fmri	n/a	n/a	-1.0	n/a	n/a	n/a	n/a	n/a	n/a	n/a	n/a	feedback	s358
210.64	0.0	n/a	-1.0	n/a	columbia_card_task_fmri	n/a	n/a	-1.0	n/a	n/a	n/a	n/a	n/a	n/a	n/a	n/a	ITI	s358
210.643	1.766	-1.6608722668574365	end_round	0.0	columbia_card_task_fmri	7.0	0.9166666666666666	71.0	-100.0	0.0833333333333333	12.0	1.0	1.0	-2.8590560703736934	1.766	0.0	stim	s358
212.415	2.25	n/a	-1.0	n/a	columbia_card_task_fmri	n/a	n/a	-1.0	n/a	n/a	n/a	n/a	n/a	n/a	n/a	n/a	feedback	s358
214.665	0.0	n/a	-1.0	n/a	columbia_card_task_fmri	n/a	n/a	-1.0	n/a	n/a	n/a	n/a	n/a	n/a	n/a	n/a	ITI	s358
214.668	1.902	-1.4108722668574345	draw_card	0.0	columbia_card_task_fmri	14.0	0.8333333333333334	89.0	-80.0	0.1666666666666666	12.0	1.0	2.0	2.5992655002761538	1.902	n/a	stim	s358
216.572	0.88	-2.8351146910998635	draw_card	1.0	columbia_card_task_fmri	14.0	0.8181818181818181	89.0	-80.0	0.1818181818181818	12.0	2.0	2.0	3.8227954814734986	0.88	2.0	stim	s358
217.456	2.25	n/a	-1.0	n/a	columbia_card_task_fmri	n/a	n/a	-1.0	n/a	n/a	n/a	n/a	n/a	n/a	n/a	n/a	feedback	s358
219.706	0.136	n/a	-1.0	n/a	columbia_card_task_fmri	n/a	n/a	-1.0	n/a	n/a	n/a	n/a	n/a	n/a	n/a	n/a	ITI	s358
219.844	2.8	0.2557943998092298	draw_card	0.0	columbia_card_task_fmri	15.0	0.8333333333333334	89.0	-75.0	0.1666666666666666	12.0	1.0	2.0	1.108595019261159	2.8	n/a	stim	s358
222.647	1.208	-1.1078419638271353	draw_card	1.0	columbia_card_task_fmri	15.0	0.8181818181818181	89.0	-75.0	0.1818181818181818	12.0	2.0	2.0	2.2800571531928924	1.208	2.0	stim	s358
223.86	2.25	n/a	-1.0	n/a	columbia_card_task_fmri	n/a	n/a	-1.0	n/a	n/a	n/a	n/a	n/a	n/a	n/a	n/a	feedback	s358
226.11	0.136	n/a	-1.0	n/a	columbia_card_task_fmri	n/a	n/a	-1.0	n/a	n/a	n/a	n/a	n/a	n/a	n/a	n/a	ITI	s358
226.249	1.829	-0.7442056001907702	draw_card	0.0	columbia_card_task_fmri	15.0	0.8	89.0	-65.0	0.2	15.0	1.0	3.0	-0.4323776739301905	1.829	n/a	stim	s358
228.079	0.372	-1.8870627430479123	draw_card	0.0	columbia_card_task_fmri	15.0	0.7857142857142857	89.0	-65.0	0.2142857142857142	15.0	2.0	3.0	0.3936688654888414	0.372	n/a	stim	s358
228.455	0.479	-3.205744061729233	end_round	0.0	columbia_card_task_fmri	15.0	0.7692307692307692	71.0	-65.0	0.2307692307692307	15.0	3.0	3.0	1.2735741214472185	0.479	2.0	stim	s358
228.938	2.25	n/a	-1.0	n/a	columbia_card_task_fmri	n/a	n/a	-1.0	n/a	n/a	n/a	n/a	n/a	n/a	n/a	n/a	feedback	s358
231.188	0.476	n/a	-1.0	n/a	columbia_card_task_fmri	n/a	n/a	-1.0	n/a	n/a	n/a	n/a	n/a	n/a	n/a	n/a	ITI	s358
231.667	2.548	-1.4942056001907702	draw_card	0.0	columbia_card_task_fmri	14.0	0.8125	89.0	-70.0	0.1875	16.0	1.0	3.0	0.3538373019206347	2.548	n/a	stim	s358
234.218	0.721	-2.544205600190769	draw_card	0.0	columbia_card_task_fmri	14.0	0.8	89.0	-70.0	0.2	16.0	2.0	3.0	1.1675736446810916	0.721	n/a	stim	s358
234.941	1.375	-3.74420560019077	draw_card	0.0	columbia_card_task_fmri	14.0	0.7857142857142857	89.0	-70.0	0.2142857142857142	16.0	3.0	3.0	2.0349250223623017	1.375	n/a	stim	s358
236.319	0.467	-5.128820984806155	end_round	0.0	columbia_card_task_fmri	14.0	0.7692307692307692	71.0	-70.0	0.2307692307692307	16.0	4.0	3.0	2.9588280807603766	0.467	3.0	stim	s358
236.789	2.25	n/a	-1.0	n/a	columbia_card_task_fmri	n/a	n/a	-1.0	n/a	n/a	n/a	n/a	n/a	n/a	n/a	n/a	feedback	s358
239.039	0.204	n/a	-1.0	n/a	columbia_card_task_fmri	n/a	n/a	-1.0	n/a	n/a	n/a	n/a	n/a	n/a	n/a	n/a	ITI	s358
239.246	3.228	-1.5567056001907702	draw_card	0.0	columbia_card_task_fmri	11.0	0.6875	89.0	-30.0	0.3125	16.0	1.0	5.0	-13.427669968943423	3.228	n/a	stim	s358
242.476	3.012	-2.410872266857436	draw_card	1.0	columbia_card_task_fmri	11.0	0.6666666666666667	89.0	-30.0	0.3333333333333333	16.0	2.0	5.0	-13.104122056676491	3.012	2.0	stim	s358
245.492	2.25	n/a	-1.0	n/a	columbia_card_task_fmri	n/a	n/a	-1.0	n/a	n/a	n/a	n/a	n/a	n/a	n/a	n/a	feedback	s358
247.742	0.068	n/a	-1.0	n/a	columbia_card_task_fmri	n/a	n/a	-1.0	n/a	n/a	n/a	n/a	n/a	n/a	n/a	n/a	ITI	s358
247.813	3.442	3.25579439980923	draw_card	0.0	columbia_card_task_fmri	15.0	0.8666666666666667	89.0	-75.0	0.1333333333333333	15.0	1.0	2.0	-1.8382136146965389	3.442	n/a	stim	s358
251.258	0.37	2.398651542666374	draw_card	0.0	columbia_card_task_fmri	15.0	0.8571428571428572	89.0	-75.0	0.1428571428571428	15.0	2.0	2.0	-0.9389216804416662	0.37	n/a	stim	s358
251.63	0.581	1.409640553655383	draw_card	0.0	columbia_card_task_fmri	15.0	0.8461538461538461	89.0	-75.0	0.1538461538461538	15.0	3.0	2.0	0.039716569300765	0.581	n/a	stim	s358
252.214	0.882	0.2557943998092298	end_round	0.0	columbia_card_task_fmri	15.0	0.8333333333333334	71.0	-75.0	0.1666666666666666	15.0	4.0	2.0	1.108595019261159	0.882	3.0	stim	s358
253.101	2.25	n/a	-1.0	n/a	columbia_card_task_fmri	n/a	n/a	-1.0	n/a	n/a	n/a	n/a	n/a	n/a	n/a	n/a	feedback	s358
255.351	0.068	n/a	-1.0	n/a	columbia_card_task_fmri	n/a	n/a	-1.0	n/a	n/a	n/a	n/a	n/a	n/a	n/a	n/a	ITI	s358
255.422	1.58	4.989127733142564	draw_card	0.0	columbia_card_task_fmri	17.0	0.8666666666666667	89.0	-75.0	0.1333333333333333	15.0	1.0	2.0	-1.1583675914575338	1.58	n/a	stim	s358
257.005	0.588	4.1129372569520894	draw_card	0.0	columbia_card_task_fmri	17.0	0.8571428571428572	89.0	-75.0	0.1428571428571428	15.0	2.0	2.0	-0.2390900497351609	0.588	n/a	stim	s358
257.596	0.538	3.1019482459630767	draw_card	0.0	columbia_card_task_fmri	17.0	0.8461538461538461	89.0	-75.0	0.1538461538461538	15.0	3.0	2.0	0.7612970928880287	0.538	n/a	stim	s358
258.136	0.955	1.9224610664758977	draw_card	0.0	columbia_card_task_fmri	17.0	0.8333333333333334	89.0	-75.0	0.1666666666666666	15.0	4.0	2.0	1.85392980865722	0.955	n/a	stim	s358
259.095	4.455	0.5285216725365014	draw_card	0.0	columbia_card_task_fmri	17.0	0.8181818181818181	89.0	-75.0	0.1818181818181818	15.0	5.0	2.0	3.051425881443677	4.455	n/a	stim	s358
263.553	0.792	-1.1442056001907688	end_round	0.0	columbia_card_task_fmri	17.0	0.8	71.0	-75.0	0.2	15.0	6.0	2.0	4.367488980898578	0.792	5.0	stim	s358
264.35	2.25	n/a	-1.0	n/a	columbia_card_task_fmri	n/a	n/a	-1.0	n/a	n/a	n/a	n/a	n/a	n/a	n/a	n/a	feedback	s358
266.6	0.34	n/a	-1.0	n/a	columbia_card_task_fmri	n/a	n/a	-1.0	n/a	n/a	n/a	n/a	n/a	n/a	n/a	n/a	ITI	s358
266.943	2.28	0.5682943998092298	draw_card	0.0	columbia_card_task_fmri	2.0	0.9375	89.0	-25.0	0.0625	16.0	1.0	1.0	-25.8927368570976	2.28	n/a	stim	s358
269.227	0.365	0.4557943998092298	draw_card	0.0	columbia_card_task_fmri	2.0	0.9333333333333332	89.0	-25.0	0.0666666666666666	16.0	2.0	1.0	-25.693560937117205	0.365	n/a	stim	s358
269.594	0.359	0.3272229712378015	draw_card	0.0	columbia_card_task_fmri	2.0	0.9285714285714286	89.0	-25.0	0.0714285714285714	16.0	3.0	1.0	-25.475133592049808	0.359	n/a	stim	s358
269.956	0.359	0.1788713228861529	draw_card	0.0	columbia_card_task_fmri	2.0	0.9230769230769232	89.0	-25.0	0.0769230769230769	16.0	4.0	1.0	-25.23418169586007	0.359	n/a	stim	s358
270.317	0.393	0.00579439980923	draw_card	1.0	columbia_card_task_fmri	2.0	0.9166666666666666	89.0	-25.0	0.0833333333333333	16.0	5.0	1.0	-24.96661149529505	0.393	5.0	stim	s358
270.715	2.25	n/a	-1.0	n/a	columbia_card_task_fmri	n/a	n/a	-1.0	n/a	n/a	n/a	n/a	n/a	n/a	n/a	n/a	feedback	s358
272.965	0.476	n/a	-1.0	n/a	columbia_card_task_fmri	n/a	n/a	-1.0	n/a	n/a	n/a	n/a	n/a	n/a	n/a	n/a	ITI	s358
273.444	2.845	2.75579439980923	draw_card	0.0	columbia_card_task_fmri	9.0	0.9375	89.0	-95.0	0.0625	16.0	1.0	1.0	-7.25770874638529	2.845	n/a	stim	s358
276.292	0.42	2.3224610664758973	end_round	0.0	columbia_card_task_fmri	9.0	0.9333333333333332	71.0	-95.0	0.0666666666666666	16.0	2.0	1.0	-6.489981072799541	0.42	1.0	stim	s358
276.716	2.25	n/a	-1.0	n/a	columbia_card_task_fmri	n/a	n/a	-1.0	n/a	n/a	n/a	n/a	n/a	n/a	n/a	n/a	feedback	s358
278.966	0.272	n/a	-1.0	n/a	columbia_card_task_fmri	n/a	n/a	-1.0	n/a	n/a	n/a	n/a	n/a	n/a	n/a	n/a	ITI	s358
279.243	1.973	4.31829439980923	draw_card	0.0	columbia_card_task_fmri	11.0	0.9375	89.0	-100.0	0.0625	16.0	1.0	1.0	-5.563360480086264	1.973	n/a	stim	s358
281.219	1.224	3.855794399809231	end_round	0.0	columbia_card_task_fmri	11.0	0.9333333333333332	71.0	-100.0	0.0666666666666666	16.0	2.0	1.0	-4.743953815042264	1.224	1.0	stim	s358
282.448	2.25	n/a	-1.0	n/a	columbia_card_task_fmri	n/a	n/a	-1.0	n/a	n/a	n/a	n/a	n/a	n/a	n/a	n/a	feedback	s358
284.698	0.884	n/a	-1.0	n/a	columbia_card_task_fmri	n/a	n/a	-1.0	n/a	n/a	n/a	n/a	n/a	n/a	n/a	n/a	ITI	s358
285.584	1.619	4.88079439980923	draw_card	0.0	columbia_card_task_fmri	16.0	0.875	89.0	-75.0	0.125	16.0	1.0	2.0	-2.3368918144167274	1.619	n/a	stim	s358
287.206	0.508	4.122461066475897	draw_card	0.0	columbia_card_task_fmri	16.0	0.8666666666666667	89.0	-75.0	0.1333333333333333	16.0	2.0	2.0	-1.4982907307915916	0.508	n/a	stim	s358
287.717	1.668	3.255794399809232	draw_card	0.0	columbia_card_task_fmri	16.0	0.8571428571428572	89.0	-75.0	0.1428571428571428	16.0	3.0	2.0	-0.5890059891566821	1.668	n/a	stim	s358
289.388	1.621	2.25579439980923	draw_card	0.0	columbia_card_task_fmri	16.0	0.8461538461538461	89.0	-75.0	0.1538461538461538	16.0	4.0	2.0	0.4005067107647093	1.621	n/a	stim	s358
291.012	0.461	1.0891277331425635	end_round	0.0	columbia_card_task_fmri	16.0	0.8333333333333334	71.0	-75.0	0.1666666666666666	16.0	5.0	2.0	1.4812622974635945	0.461	4.0	stim	s358
291.478	2.25	n/a	-1.0	n/a	columbia_card_task_fmri	n/a	n/a	-1.0	n/a	n/a	n/a	n/a	n/a	n/a	n/a	n/a	feedback	s358
293.728	0.136	n/a	-1.0	n/a	columbia_card_task_fmri	n/a	n/a	-1.0	n/a	n/a	n/a	n/a	n/a	n/a	n/a	n/a	ITI	s358
293.868	1.824	5.13079439980923	draw_card	0.0	columbia_card_task_fmri	17.0	0.875	89.0	-80.0	0.125	16.0	1.0	2.0	-0.352645568230912	1.824	n/a	stim	s358
295.696	0.597	4.322461066475898	draw_card	0.0	columbia_card_task_fmri	17.0	0.8666666666666667	89.0	-80.0	0.1333333333333333	16.0	2.0	2.0	0.541251660171234	0.597	n/a	stim	s358
296.295	0.576	3.398651542666376	draw_card	0.0	columbia_card_task_fmri	17.0	0.8571428571428572	89.0	-80.0	0.1428571428571428	16.0	3.0	2.0	1.5104931008350064	0.576	n/a	stim	s358
296.875	2.154	2.3327174767323067	draw_card	0.0	columbia_card_task_fmri	17.0	0.8461538461538461	89.0	-80.0	0.1538461538461538	16.0	4.0	2.0	2.5652523529024336	2.154	n/a	stim	s358
299.032	1.176	1.0891277331425655	end_round	0.0	columbia_card_task_fmri	17.0	0.8333333333333334	71.0	-80.0	0.1666666666666666	16.0	5.0	2.0	3.717270607299661	1.176	4.0	stim	s358
300.213	2.25	n/a	-1.0	n/a	columbia_card_task_fmri	n/a	n/a	-1.0	n/a	n/a	n/a	n/a	n/a	n/a	n/a	n/a	feedback	s358
302.463	0.136	n/a	-1.0	n/a	columbia_card_task_fmri	n/a	n/a	-1.0	n/a	n/a	n/a	n/a	n/a	n/a	n/a	n/a	ITI	s358
313.607	2.299	-0.5775389335241023	draw_card	0.0	columbia_card_task_fmri	13.0	0.8333333333333334	89.0	-70.0	0.1666666666666666	6.0	1.0	1.0	-1.500068697052491	2.299	n/a	stim	s358
315.909	0.528	-3.3442056001907696	draw_card	0.0	columbia_card_task_fmri	13.0	0.8	89.0	-70.0	0.2	6.0	2.0	1.0	0.7675853751559458	0.528	n/a	stim	s358
316.441	0.896	-7.49420560019077	end_round	0.0	columbia_card_task_fmri	13.0	0.75	71.0	-70.0	0.25	6.0	3.0	1.0	3.507564508587805	0.896	2.0	stim	s358
317.342	2.25	n/a	-1.0	n/a	columbia_card_task_fmri	n/a	n/a	-1.0	n/a	n/a	n/a	n/a	n/a	n/a	n/a	n/a	feedback	s358
319.592	0.068	n/a	-1.0	n/a	columbia_card_task_fmri	n/a	n/a	-1.0	n/a	n/a	n/a	n/a	n/a	n/a	n/a	n/a	ITI	s358
319.662	2.637	-0.5775389335241023	draw_card	0.0	columbia_card_task_fmri	15.0	0.8333333333333334	89.0	-80.0	0.1666666666666666	6.0	1.0	1.0	2.9719336666131184	2.637	n/a	stim	s358
322.302	1.198	-3.74420560019077	draw_card	1.0	columbia_card_task_fmri	15.0	0.8	89.0	-80.0	0.2	6.0	2.0	1.0	5.56746090803896	1.198	2.0	stim	s358
323.505	2.25	n/a	-1.0	n/a	columbia_card_task_fmri	n/a	n/a	-1.0	n/a	n/a	n/a	n/a	n/a	n/a	n/a	n/a	feedback	s358
325.755	0.068	n/a	-1.0	n/a	columbia_card_task_fmri	n/a	n/a	-1.0	n/a	n/a	n/a	n/a	n/a	n/a	n/a	n/a	ITI	s358
325.826	1.982	1.0891277331425635	draw_card	0.0	columbia_card_task_fmri	16.0	0.8333333333333334	89.0	-75.0	0.1666666666666666	6.0	1.0	1.0	1.4812622974635945	1.982	n/a	stim	s358
327.811	0.392	-1.9442056001907693	draw_card	0.0	columbia_card_task_fmri	16.0	0.8	89.0	-75.0	0.2	6.0	2.0	1.0	3.967498749827435	0.392	n/a	stim	s358
328.206	0.397	-6.49420560019077	end_round	0.0	columbia_card_task_fmri	16.0	0.75	71.0	-75.0	0.25	6.0	3.0	1.0	6.971586102196881	0.397	2.0	stim	s358
328.607	2.25	n/a	-1.0	n/a	columbia_card_task_fmri	n/a	n/a	-1.0	n/a	n/a	n/a	n/a	n/a	n/a	n/a	n/a	feedback	s358
330.857	0.612	n/a	-1.0	n/a	columbia_card_task_fmri	n/a	n/a	-1.0	n/a	n/a	n/a	n/a	n/a	n/a	n/a	n/a	ITI	s358
331.473	1.471	2.25579439980923	draw_card	1.0	columbia_card_task_fmri	21.0	0.75	89.0	-55.0	0.25	8.0	1.0	2.0	0.4765594331131453	1.471	1.0	stim	s358
332.949	2.25	n/a	-1.0	n/a	columbia_card_task_fmri	n/a	n/a	-1.0	n/a	n/a	n/a	n/a	n/a	n/a	n/a	n/a	feedback	s358
335.199	0.476	n/a	-1.0	n/a	columbia_card_task_fmri	n/a	n/a	-1.0	n/a	n/a	n/a	n/a	n/a	n/a	n/a	n/a	ITI	s358
335.679	1.945	3.50579439980923	draw_card	0.0	columbia_card_task_fmri	26.0	0.75	89.0	-65.0	0.25	8.0	1.0	2.0	6.971586102196881	1.945	n/a	stim	s358
337.627	1.268	0.2557943998092334	draw_card	0.0	columbia_card_task_fmri	26.0	0.7142857142857143	89.0	-65.0	0.2857142857142857	8.0	2.0	2.0	8.677005369789597	1.268	n/a	stim	s358
338.899	1.805	-4.077538933524099	end_round	0.0	columbia_card_task_fmri	26.0	0.6666666666666667	71.0	-65.0	0.3333333333333333	8.0	3.0	2.0	10.46517400709861	1.805	2.0	stim	s358
340.71	2.25	n/a	-1.0	n/a	columbia_card_task_fmri	n/a	n/a	-1.0	n/a	n/a	n/a	n/a	n/a	n/a	n/a	n/a	feedback	s358
342.96	0.0	n/a	-1.0	n/a	columbia_card_task_fmri	n/a	n/a	-1.0	n/a	n/a	n/a	n/a	n/a	n/a	n/a	n/a	ITI	s358
342.963	4.043	-1.4108722668574365	draw_card	1.0	columbia_card_task_fmri	15.0	0.7777777777777778	89.0	-60.0	0.2222222222222222	9.0	1.0	2.0	-1.251872581384056	4.043	1.0	stim	s358
347.011	2.25	n/a	-1.0	n/a	columbia_card_task_fmri	n/a	n/a	-1.0	n/a	n/a	n/a	n/a	n/a	n/a	n/a	n/a	feedback	s358
349.261	0.068	n/a	-1.0	n/a	columbia_card_task_fmri	n/a	n/a	-1.0	n/a	n/a	n/a	n/a	n/a	n/a	n/a	n/a	ITI	s358
349.333	2.606	2.955794399809231	draw_card	0.0	columbia_card_task_fmri	13.0	0.9	89.0	-90.0	0.1	10.0	1.0	1.0	-1.5323412811919113	2.606	n/a	stim	s358
351.942	0.428	1.8113499553647847	draw_card	0.0	columbia_card_task_fmri	13.0	0.8888888888888888	89.0	-90.0	0.1111111111111111	10.0	2.0	1.0	-0.0626122579714234	0.428	n/a	stim	s358
352.374	0.397	0.3807943998092298	end_round	0.0	columbia_card_task_fmri	13.0	0.875	71.0	-90.0	0.125	10.0	3.0	1.0	1.6316085110522565	0.397	2.0	stim	s358
352.775	2.25	n/a	-1.0	n/a	columbia_card_task_fmri	n/a	n/a	-1.0	n/a	n/a	n/a	n/a	n/a	n/a	n/a	n/a	feedback	s358
355.025	0.204	n/a	-1.0	n/a	columbia_card_task_fmri	n/a	n/a	-1.0	n/a	n/a	n/a	n/a	n/a	n/a	n/a	n/a	ITI	s358
355.233	2.56	4.25579439980923	draw_card	0.0	columbia_card_task_fmri	15.0	0.9	89.0	-95.0	0.1	10.0	1.0	1.0	0.5675913470292926	2.56	n/a	stim	s358
357.796	1.417	3.033572177587007	draw_card	1.0	columbia_card_task_fmri	15.0	0.8888888888888888	89.0	-95.0	0.1111111111111111	10.0	2.0	1.0	2.137211192738775	1.417	2.0	stim	s358
359.218	2.25	n/a	-1.0	n/a	columbia_card_task_fmri	n/a	n/a	-1.0	n/a	n/a	n/a	n/a	n/a	n/a	n/a	n/a	feedback	s358
361.468	0.272	n/a	-1.0	n/a	columbia_card_task_fmri	n/a	n/a	-1.0	n/a	n/a	n/a	n/a	n/a	n/a	n/a	n/a	ITI	s358
361.744	1.937	0.0557943998092305	draw_card	1.0	columbia_card_task_fmri	16.0	0.8	89.0	-65.0	0.2	10.0	1.0	2.0	-0.0323902950100674	1.937	1.0	stim	s358
363.685	2.25	n/a	-1.0	n/a	columbia_card_task_fmri	n/a	n/a	-1.0	n/a	n/a	n/a	n/a	n/a	n/a	n/a	n/a	feedback	s358
365.935	0.068	n/a	-1.0	n/a	columbia_card_task_fmri	n/a	n/a	-1.0	n/a	n/a	n/a	n/a	n/a	n/a	n/a	n/a	ITI	s358
366.006	2.009	-1.2442056001907702	end_round	0.0	columbia_card_task_fmri	7.0	0.9166666666666666	71.0	-95.0	0.0833333333333333	12.0	1.0	1.0	-4.24092884161924	2.009	0.0	stim	s358
368.02	2.25	n/a	-1.0	n/a	columbia_card_task_fmri	n/a	n/a	-1.0	n/a	n/a	n/a	n/a	n/a	n/a	n/a	n/a	feedback	s358
370.27	0.272	n/a	-1.0	n/a	columbia_card_task_fmri	n/a	n/a	-1.0	n/a	n/a	n/a	n/a	n/a	n/a	n/a	n/a	ITI	s358
370.546	1.788	-0.5775389335241023	draw_card	0.0	columbia_card_task_fmri	14.0	0.8333333333333334	89.0	-75.0	0.1666666666666666	12.0	1.0	2.0	0.735927981903103	1.788	n/a	stim	s358
372.337	0.436	-1.9260237820089536	draw_card	0.0	columbia_card_task_fmri	14.0	0.8181818181818181	89.0	-75.0	0.1818181818181818	12.0	2.0	2.0	1.8943731343497845	0.436	n/a	stim	s358
372.776	0.389	-3.544205600190769	end_round	0.0	columbia_card_task_fmri	14.0	0.8	71.0	-75.0	0.2	12.0	3.0	2.0	3.1675189462395963	0.389	2.0	stim	s358
373.169	2.25	n/a	-1.0	n/a	columbia_card_task_fmri	n/a	n/a	-1.0	n/a	n/a	n/a	n/a	n/a	n/a	n/a	n/a	feedback	s358
375.419	0.748	n/a	-1.0	n/a	columbia_card_task_fmri	n/a	n/a	-1.0	n/a	n/a	n/a	n/a	n/a	n/a	n/a	n/a	ITI	s358
376.17	1.582	1.0891277331425635	draw_card	0.0	columbia_card_task_fmri	15.0	0.8333333333333334	89.0	-70.0	0.1666666666666666	12.0	1.0	2.0	-0.7547375890881902	1.582	n/a	stim	s358
377.756	0.413	-0.1987510547362269	draw_card	0.0	columbia_card_task_fmri	15.0	0.8181818181818181	89.0	-70.0	0.1818181818181818	12.0	2.0	2.0	0.3516395504148661	0.413	n/a	stim	s358
378.173	1.048	-1.7442056001907702	draw_card	0.0	columbia_card_task_fmri	15.0	0.8	89.0	-70.0	0.2	12.0	3.0	2.0	1.5675621902055423	1.048	n/a	stim	s358
379.225	0.341	-3.6330944890796593	end_round	0.0	columbia_card_task_fmri	15.0	0.7777777777777778	71.0	-70.0	0.2222222222222222	12.0	4.0	2.0	2.905401082132684	0.341	3.0	stim	s358
379.572	2.25	n/a	-1.0	n/a	columbia_card_task_fmri	n/a	n/a	-1.0	n/a	n/a	n/a	n/a	n/a	n/a	n/a	n/a	feedback	s358
381.822	0.068	n/a	-1.0	n/a	columbia_card_task_fmri	n/a	n/a	-1.0	n/a	n/a	n/a	n/a	n/a	n/a	n/a	n/a	ITI	s358
381.892	1.405	-0.9442056001907696	draw_card	0.0	columbia_card_task_fmri	16.0	0.8	89.0	-70.0	0.2	15.0	1.0	3.0	1.9675510021019704	1.405	n/a	stim	s358
383.3	0.399	-2.172777028762199	draw_card	0.0	columbia_card_task_fmri	16.0	0.7857142857142857	89.0	-70.0	0.2142857142857142	15.0	2.0	3.0	2.855554756188262	0.399	n/a	stim	s358
383.702	0.474	-3.5903594463446167	draw_card	0.0	columbia_card_task_fmri	16.0	0.7692307692307692	89.0	-70.0	0.2307692307692307	15.0	3.0	3.0	3.8014566725974746	0.474	n/a	stim	s358
384.179	0.754	-5.24420560019077	end_round	0.0	columbia_card_task_fmri	16.0	0.75	71.0	-70.0	0.25	15.0	4.0	3.0	4.806570861597137	0.754	3.0	stim	s358
384.939	2.25	n/a	-1.0	n/a	columbia_card_task_fmri	n/a	n/a	-1.0	n/a	n/a	n/a	n/a	n/a	n/a	n/a	n/a	feedback	s358
387.189	0.0	n/a	-1.0	n/a	columbia_card_task_fmri	n/a	n/a	-1.0	n/a	n/a	n/a	n/a	n/a	n/a	n/a	n/a	ITI	s358
387.193	1.48	-0.5567056001907702	draw_card	1.0	columbia_card_task_fmri	14.0	0.8125	89.0	-65.0	0.1875	16.0	1.0	3.0	-1.5976614212828792	1.48	1.0	stim	s358
388.678	2.25	n/a	-1.0	n/a	columbia_card_task_fmri	n/a	n/a	-1.0	n/a	n/a	n/a	n/a	n/a	n/a	n/a	n/a	feedback	s358
390.928	0.204	n/a	-1.0	n/a	columbia_card_task_fmri	n/a	n/a	-1.0	n/a	n/a	n/a	n/a	n/a	n/a	n/a	n/a	ITI	s358
391.135	1.103	-0.8067056001907702	draw_card	0.0	columbia_card_task_fmri	16.0	0.8125	89.0	-75.0	0.1875	16.0	1.0	3.0	3.0859471726173027	1.103	n/a	stim	s358
392.243	0.422	-1.9442056001907693	draw_card	0.0	columbia_card_task_fmri	16.0	0.8	89.0	-75.0	0.2	16.0	2.0	3.0	3.967498749827435	0.422	n/a	stim	s358
392.668	0.504	-3.244205600190768	draw_card	0.0	columbia_card_task_fmri	16.0	0.7857142857142857	89.0	-75.0	0.2142857142857142	16.0	3.0	3.0	4.907133335370254	0.504	n/a	stim	s358
393.177	0.672	-4.7442056001907735	end_round	0.0	columbia_card_task_fmri	16.0	0.7692307692307692	71.0	-75.0	0.2307692307692307	16.0	4.0	3.0	5.90803228601348	0.672	3.0	stim	s358
393.854	2.25	n/a	-1.0	n/a	columbia_card_task_fmri	n/a	n/a	-1.0	n/a	n/a	n/a	n/a	n/a	n/a	n/a	n/a	feedback	s358
396.104	0.068	n/a	-1.0	n/a	columbia_card_task_fmri	n/a	n/a	-1.0	n/a	n/a	n/a	n/a	n/a	n/a	n/a	n/a	ITI	s358
396.176	1.737	3.455794399809231	draw_card	0.0	columbia_card_task_fmri	16.0	0.8666666666666667	89.0	-80.0	0.1333333333333333	15.0	1.0	2.0	0.2013273605366734	1.737	n/a	stim	s358
397.917	0.515	2.5415086855235183	draw_card	0.0	columbia_card_task_fmri	16.0	0.8571428571428572	89.0	-80.0	0.1428571428571428	15.0	2.0	2.0	1.1605760342402576	0.515	n/a	stim	s358
398.435	0.857	1.4865636305784595	draw_card	0.0	columbia_card_task_fmri	16.0	0.8461538461538461	89.0	-80.0	0.1538461538461538	15.0	3.0	2.0	2.2044608775715915	0.857	n/a	stim	s358
399.296	1.202	0.2557943998092316	draw_card	0.0	columbia_card_task_fmri	16.0	0.8333333333333334	89.0	-80.0	0.1666666666666666	15.0	4.0	2.0	3.3446020377319954	1.202	n/a	stim	s358
400.502	0.579	-1.198751054736227	end_round	0.0	columbia_card_task_fmri	16.0	0.8181818181818181	71.0	-80.0	0.1818181818181818	15.0	5.0	2.0	4.594165898798849	0.579	4.0	stim	s358
401.086	2.25	n/a	-1.0	n/a	columbia_card_task_fmri	n/a	n/a	-1.0	n/a	n/a	n/a	n/a	n/a	n/a	n/a	n/a	feedback	s358
403.336	0.068	n/a	-1.0	n/a	columbia_card_task_fmri	n/a	n/a	-1.0	n/a	n/a	n/a	n/a	n/a	n/a	n/a	n/a	ITI	s358
403.408	1.163	4.322461066475898	draw_card	0.0	columbia_card_task_fmri	17.0	0.8666666666666667	89.0	-80.0	0.1333333333333333	15.0	1.0	2.0	0.541251660171234	1.163	n/a	stim	s358
404.574	0.761	3.398651542666376	draw_card	0.0	columbia_card_task_fmri	17.0	0.8571428571428572	89.0	-80.0	0.1428571428571428	15.0	2.0	2.0	1.5104931008350064	0.761	n/a	stim	s358
405.338	0.382	2.3327174767323067	draw_card	0.0	columbia_card_task_fmri	17.0	0.8461538461538461	89.0	-80.0	0.1538461538461538	15.0	3.0	2.0	2.5652523529024336	0.382	n/a	stim	s358
405.724	1.055	1.0891277331425655	draw_card	1.0	columbia_card_task_fmri	17.0	0.8333333333333334	89.0	-80.0	0.1666666666666666	15.0	4.0	2.0	3.717270607299661	1.055	4.0	stim	s358
406.784	2.25	n/a	-1.0	n/a	columbia_card_task_fmri	n/a	n/a	-1.0	n/a	n/a	n/a	n/a	n/a	n/a	n/a	n/a	feedback	s358
409.034	0.34	n/a	-1.0	n/a	columbia_card_task_fmri	n/a	n/a	-1.0	n/a	n/a	n/a	n/a	n/a	n/a	n/a	n/a	ITI	s358
409.377	2.591	0.2557943998092298	draw_card	0.0	columbia_card_task_fmri	1.0	0.9375	89.0	-15.0	0.0625	16.0	1.0	1.0	-28.55197878213412	2.591	n/a	stim	s358
411.971	0.324	0.1891277331425632	draw_card	1.0	columbia_card_task_fmri	1.0	0.9333333333333332	89.0	-15.0	0.0666666666666666	16.0	2.0	1.0	-28.43411011850657	0.324	2.0	stim	s358
412.301	2.25	n/a	-1.0	n/a	columbia_card_task_fmri	n/a	n/a	-1.0	n/a	n/a	n/a	n/a	n/a	n/a	n/a	n/a	feedback	s358
414.551	0.0	n/a	-1.0	n/a	columbia_card_task_fmri	n/a	n/a	-1.0	n/a	n/a	n/a	n/a	n/a	n/a	n/a	n/a	ITI	s358
414.555	2.288	3.38079439980923	draw_card	0.0	columbia_card_task_fmri	10.0	0.9375	89.0	-100.0	0.0625	16.0	1.0	1.0	-5.80541087092303	2.288	n/a	stim	s358
416.848	2.1	2.922461066475897	draw_card	0.0	columbia_card_task_fmri	10.0	0.9333333333333332	89.0	-100.0	0.0666666666666666	16.0	2.0	1.0	-4.993386900052808	2.1	n/a	stim	s358
418.952	0.377	2.398651542666374	end_round	0.0	columbia_card_task_fmri	10.0	0.9285714285714286	71.0	-100.0	0.0714285714285714	16.0	3.0	1.0	-4.102913763075311	0.377	2.0	stim	s358
419.334	2.25	n/a	-1.0	n/a	columbia_card_task_fmri	n/a	n/a	-1.0	n/a	n/a	n/a	n/a	n/a	n/a	n/a	n/a	feedback	s358
421.584	0.0	n/a	-1.0	n/a	columbia_card_task_fmri	n/a	n/a	-1.0	n/a	n/a	n/a	n/a	n/a	n/a	n/a	n/a	ITI	s358
421.589	1.561	4.00579439980923	draw_card	0.0	columbia_card_task_fmri	15.0	0.875	89.0	-75.0	0.125	16.0	1.0	2.0	-2.6675986505691007	1.561	n/a	stim	s358
423.155	0.605	3.25579439980923	draw_card	1.0	columbia_card_task_fmri	15.0	0.8666666666666667	89.0	-75.0	0.1333333333333333	16.0	2.0	2.0	-1.8382136146965389	0.605	2.0	stim	s358
423.765	2.25	n/a	-1.0	n/a	columbia_card_task_fmri	n/a	n/a	-1.0	n/a	n/a	n/a	n/a	n/a	n/a	n/a	n/a	feedback	s358
426.015	0.272	n/a	-1.0	n/a	columbia_card_task_fmri	n/a	n/a	-1.0	n/a	n/a	n/a	n/a	n/a	n/a	n/a	n/a	ITI	s358
426.291	1.438	4.25579439980923	draw_card	0.0	columbia_card_task_fmri	16.0	0.875	89.0	-80.0	0.125	16.0	1.0	2.0	-0.6833538595552042	1.438	n/a	stim	s358
427.734	0.503	3.455794399809231	draw_card	0.0	columbia_card_task_fmri	16.0	0.8666666666666667	89.0	-80.0	0.1333333333333333	16.0	2.0	2.0	0.2013273605366734	0.503	n/a	stim	s358
428.241	0.966	2.5415086855235183	draw_card	0.0	columbia_card_task_fmri	16.0	0.8571428571428572	89.0	-80.0	0.1428571428571428	16.0	3.0	2.0	1.1605760342402576	0.966	n/a	stim	s358
429.212	0.345	1.4865636305784595	end_round	0.0	columbia_card_task_fmri	16.0	0.8461538461538461	71.0	-80.0	0.1538461538461538	16.0	4.0	2.0	2.2044608775715915	0.345	3.0	stim	s358
429.563	2.25	n/a	-1.0	n/a	columbia_card_task_fmri	n/a	n/a	-1.0	n/a	n/a	n/a	n/a	n/a	n/a	n/a	n/a	feedback	s358
431.813	0.204	n/a	-1.0	n/a	columbia_card_task_fmri	n/a	n/a	-1.0	n/a	n/a	n/a	n/a	n/a	n/a	n/a	n/a	ITI	s358
432.022	2.707	1.4432943998092298	draw_card	1.0	columbia_card_task_fmri	4.0	0.6875	89.0	-5.0	0.3125	16.0	1.0	5.0	-28.253953336567427	2.707	1.0	stim	s358
434.736	2.25	n/a	-1.0	n/a	columbia_card_task_fmri	n/a	n/a	-1.0	n/a	n/a	n/a	n/a	n/a	n/a	n/a	n/a	feedback	s358
436.986	0.0	n/a	-1.0	n/a	columbia_card_task_fmri	n/a	n/a	-1.0	n/a	n/a	n/a	n/a	n/a	n/a	n/a	n/a	ITI	s358
436.991	1.464	-1.4108722668574345	draw_card	0.0	columbia_card_task_fmri	14.0	0.8333333333333334	89.0	-80.0	0.1666666666666666	6.0	1.0	1.0	2.5992655002761538	1.464	n/a	stim	s358
438.459	1.445	-4.544205600190769	draw_card	0.0	columbia_card_task_fmri	14.0	0.8	89.0	-80.0	0.2	6.0	2.0	1.0	5.167470066567475	1.445	n/a	stim	s358
439.907	0.339	-9.24420560019077	end_round	0.0	columbia_card_task_fmri	14.0	0.75	71.0	-80.0	0.25	6.0	3.0	1.0	8.270597711273574	0.339	2.0	stim	s358
440.251	2.25	n/a	-1.0	n/a	columbia_card_task_fmri	n/a	n/a	-1.0	n/a	n/a	n/a	n/a	n/a	n/a	n/a	n/a	feedback	s358
442.501	0.204	n/a	-1.0	n/a	columbia_card_task_fmri	n/a	n/a	-1.0	n/a	n/a	n/a	n/a	n/a	n/a	n/a	n/a	ITI	s358
442.71	1.653	0.2557943998092298	draw_card	0.0	columbia_card_task_fmri	15.0	0.8333333333333334	89.0	-75.0	0.1666666666666666	6.0	1.0	1.0	1.108595019261159	1.653	n/a	stim	s358
444.367	0.718	-2.74420560019077	draw_card	0.0	columbia_card_task_fmri	15.0	0.8	89.0	-75.0	0.2	6.0	2.0	1.0	3.5675087358354745	0.718	n/a	stim	s358
445.089	0.386	-7.24420560019077	end_round	0.0	columbia_card_task_fmri	15.0	0.75	71.0	-75.0	0.25	6.0	3.0	1.0	6.538582625034415	0.386	2.0	stim	s358
445.48	2.25	n/a	-1.0	n/a	columbia_card_task_fmri	n/a	n/a	-1.0	n/a	n/a	n/a	n/a	n/a	n/a	n/a	n/a	feedback	s358
447.73	0.204	n/a	-1.0	n/a	columbia_card_task_fmri	n/a	n/a	-1.0	n/a	n/a	n/a	n/a	n/a	n/a	n/a	n/a	ITI	s358
447.939	2.553	1.9224610664758977	draw_card	0.0	columbia_card_task_fmri	16.0	0.8333333333333334	89.0	-70.0	0.1666666666666666	6.0	1.0	1.0	-0.382071601094502	2.553	n/a	stim	s358
450.496	0.376	-0.9442056001907696	draw_card	0.0	columbia_card_task_fmri	16.0	0.8	89.0	-70.0	0.2	6.0	2.0	1.0	1.9675510021019704	0.376	n/a	stim	s358
450.876	0.356	-5.24420560019077	end_round	0.0	columbia_card_task_fmri	16.0	0.75	71.0	-70.0	0.25	6.0	3.0	1.0	4.806570861597137	0.356	2.0	stim	s358
451.237	2.25	n/a	-1.0	n/a	columbia_card_task_fmri	n/a	n/a	-1.0	n/a	n/a	n/a	n/a	n/a	n/a	n/a	n/a	feedback	s358
453.487	0.272	n/a	-1.0	n/a	columbia_card_task_fmri	n/a	n/a	-1.0	n/a	n/a	n/a	n/a	n/a	n/a	n/a	n/a	ITI	s358
453.763	2.427	2.50579439980923	draw_card	1.0	columbia_card_task_fmri	23.0	0.75	89.0	-60.0	0.25	8.0	1.0	2.0	3.507564508587805	2.427	1.0	stim	s358
456.195	2.25	n/a	-1.0	n/a	columbia_card_task_fmri	n/a	n/a	-1.0	n/a	n/a	n/a	n/a	n/a	n/a	n/a	n/a	feedback	s358
458.445	0.204	n/a	-1.0	n/a	columbia_card_task_fmri	n/a	n/a	-1.0	n/a	n/a	n/a	n/a	n/a	n/a	n/a	n/a	ITI	s358
458.653	1.999	3.00579439980923	draw_card	0.0	columbia_card_task_fmri	27.0	0.75	89.0	-70.0	0.25	8.0	1.0	2.0	9.56961095926814	1.999	n/a	stim	s358
460.656	2.269	-0.4584913144764854	end_round	0.0	columbia_card_task_fmri	27.0	0.7142857142857143	71.0	-70.0	0.2857142857142857	8.0	2.0	2.0	11.387479854563871	2.269	1.0	stim	s358
462.931	2.25	n/a	-1.0	n/a	columbia_card_task_fmri	n/a	n/a	-1.0	n/a	n/a	n/a	n/a	n/a	n/a	n/a	n/a	feedback	s358
465.181	0.408	n/a	-1.0	n/a	columbia_card_task_fmri	n/a	n/a	-1.0	n/a	n/a	n/a	n/a	n/a	n/a	n/a	n/a	ITI	s358
465.594	1.721	-1.7442056001907684	draw_card	0.0	columbia_card_task_fmri	16.0	0.7777777777777778	89.0	-65.0	0.2222222222222222	9.0	1.0	2.0	1.2424879596149123	1.721	n/a	stim	s358
467.319	1.634	-3.99420560019077	draw_card	0.0	columbia_card_task_fmri	16.0	0.75	89.0	-65.0	0.25	9.0	2.0	2.0	2.641561579891693	1.634	n/a	stim	s358
468.957	0.414	-6.887062743047911	end_round	0.0	columbia_card_task_fmri	16.0	0.7142857142857143	71.0	-65.0	0.2857142857142857	9.0	3.0	2.0	4.159564100039141	0.414	2.0	stim	s358
469.376	2.25	n/a	-1.0	n/a	columbia_card_task_fmri	n/a	n/a	-1.0	n/a	n/a	n/a	n/a	n/a	n/a	n/a	n/a	feedback	s358
471.626	0.136	n/a	-1.0	n/a	columbia_card_task_fmri	n/a	n/a	-1.0	n/a	n/a	n/a	n/a	n/a	n/a	n/a	n/a	ITI	s358
471.766	2.358	3.455794399809231	draw_card	0.0	columbia_card_task_fmri	13.0	0.9	89.0	-85.0	0.1	10.0	1.0	1.0	-3.0322872662343165	2.358	n/a	stim	s358
474.128	1.331	2.3669055109203407	end_round	0.0	columbia_card_task_fmri	13.0	0.8888888888888888	71.0	-85.0	0.1111111111111111	10.0	2.0	1.0	-1.6339090979980284	1.331	1.0	stim	s358
475.464	2.25	n/a	-1.0	n/a	columbia_card_task_fmri	n/a	n/a	-1.0	n/a	n/a	n/a	n/a	n/a	n/a	n/a	n/a	feedback	s358
477.714	0.272	n/a	-1.0	n/a	columbia_card_task_fmri	n/a	n/a	-1.0	n/a	n/a	n/a	n/a	n/a	n/a	n/a	n/a	ITI	s358
477.991	1.77	-1.5442056001907691	draw_card	0.0	columbia_card_task_fmri	14.0	0.8	89.0	-65.0	0.2	10.0	1.0	2.0	-0.8323647333448214	1.77	n/a	stim	s358
479.764	0.469	-3.299761155746324	draw_card	0.0	columbia_card_task_fmri	14.0	0.7777777777777778	89.0	-65.0	0.2222222222222222	10.0	2.0	2.0	0.4110331343320297	0.469	n/a	stim	s358
480.237	0.393	-5.49420560019077	end_round	0.0	columbia_card_task_fmri	14.0	0.75	71.0	-65.0	0.25	10.0	3.0	2.0	1.7755597891281738	0.393	2.0	stim	s358
480.636	2.25	n/a	-1.0	n/a	columbia_card_task_fmri	n/a	n/a	-1.0	n/a	n/a	n/a	n/a	n/a	n/a	n/a	n/a	feedback	s358
482.886	0.34	n/a	-1.0	n/a	columbia_card_task_fmri	n/a	n/a	-1.0	n/a	n/a	n/a	n/a	n/a	n/a	n/a	n/a	ITI	s358
483.229	1.756	-0.1442056001907687	draw_card	1.0	columbia_card_task_fmri	17.0	0.8	89.0	-70.0	0.2	10.0	1.0	2.0	2.36754007118563	1.756	1.0	stim	s358
484.991	2.25	n/a	-1.0	n/a	columbia_card_task_fmri	n/a	n/a	-1.0	n/a	n/a	n/a	n/a	n/a	n/a	n/a	n/a	feedback	s358
487.241	0.136	n/a	-1.0	n/a	columbia_card_task_fmri	n/a	n/a	-1.0	n/a	n/a	n/a	n/a	n/a	n/a	n/a	n/a	ITI	s358
487.381	1.042	-1.4108722668574365	draw_card	0.0	columbia_card_task_fmri	13.0	0.8333333333333334	89.0	-75.0	0.1666666666666666	12.0	1.0	2.0	0.3632611935995342	1.042	n/a	stim	s358
488.427	1.593	-2.744205600190772	end_round	0.0	columbia_card_task_fmri	13.0	0.8181818181818181	71.0	-75.0	0.1818181818181818	12.0	2.0	2.0	1.5086893561573689	1.593	1.0	stim	s358
490.025	2.25	n/a	-1.0	n/a	columbia_card_task_fmri	n/a	n/a	-1.0	n/a	n/a	n/a	n/a	n/a	n/a	n/a	n/a	feedback	s358
492.275	0.34	n/a	-1.0	n/a	columbia_card_task_fmri	n/a	n/a	-1.0	n/a	n/a	n/a	n/a	n/a	n/a	n/a	n/a	ITI	s358
492.619	1.403	0.2557943998092316	draw_card	0.0	columbia_card_task_fmri	14.0	0.8333333333333334	89.0	-70.0	0.1666666666666666	12.0	1.0	2.0	-1.127403291185157	1.403	n/a	stim	s358
494.026	0.919	-1.0169328729180451	draw_card	0.0	columbia_card_task_fmri	14.0	0.8181818181818181	89.0	-70.0	0.1818181818181818	12.0	2.0	2.0	-0.0340431782221983	0.919	n/a	stim	s358
494.949	0.347	-2.544205600190769	end_round	0.0	columbia_card_task_fmri	14.0	0.8	71.0	-70.0	0.2	12.0	3.0	2.0	1.1675736446810916	0.347	2.0	stim	s358
495.302	2.25	n/a	-1.0	n/a	columbia_card_task_fmri	n/a	n/a	-1.0	n/a	n/a	n/a	n/a	n/a	n/a	n/a	n/a	feedback	s358
497.552	0.068	n/a	-1.0	n/a	columbia_card_task_fmri	n/a	n/a	-1.0	n/a	n/a	n/a	n/a	n/a	n/a	n/a	n/a	ITI	s358
497.624	2.946	0.2557943998092316	draw_card	0.0	columbia_card_task_fmri	16.0	0.8333333333333334	89.0	-80.0	0.1666666666666666	12.0	1.0	2.0	3.3446020377319954	2.946	n/a	stim	s358
500.573	1.172	-1.198751054736227	draw_card	1.0	columbia_card_task_fmri	16.0	0.8181818181818181	89.0	-80.0	0.1818181818181818	12.0	2.0	2.0	4.594165898798849	1.172	2.0	stim	s358
501.752	2.25	n/a	-1.0	n/a	columbia_card_task_fmri	n/a	n/a	-1.0	n/a	n/a	n/a	n/a	n/a	n/a	n/a	n/a	feedback	s358
504.002	0.0	n/a	-1.0	n/a	columbia_card_task_fmri	n/a	n/a	-1.0	n/a	n/a	n/a	n/a	n/a	n/a	n/a	n/a	ITI	s358
504.006	1.522	0.0557943998092305	draw_card	0.0	columbia_card_task_fmri	16.0	0.8	89.0	-65.0	0.2	15.0	1.0	3.0	-0.0323902950100674	1.522	n/a	stim	s358
505.531	0.371	-1.101348457333626	draw_card	0.0	columbia_card_task_fmri	16.0	0.7857142857142857	89.0	-65.0	0.2142857142857142	15.0	2.0	3.0	0.8039824653152507	0.371	n/a	stim	s358
505.907	0.373	-2.4365132924984634	draw_card	0.0	columbia_card_task_fmri	16.0	0.7692307692307692	89.0	-65.0	0.2307692307692307	15.0	3.0	3.0	1.6948871833524208	0.373	n/a	stim	s358
506.283	0.621	-3.99420560019077	draw_card	1.0	columbia_card_task_fmri	16.0	0.75	89.0	-65.0	0.25	15.0	4.0	3.0	2.641561579891693	0.621	4.0	stim	s358
506.911	2.25	n/a	-1.0	n/a	columbia_card_task_fmri	n/a	n/a	-1.0	n/a	n/a	n/a	n/a	n/a	n/a	n/a	n/a	feedback	s358
509.161	0.204	n/a	-1.0	n/a	columbia_card_task_fmri	n/a	n/a	-1.0	n/a	n/a	n/a	n/a	n/a	n/a	n/a	n/a	ITI	s358
509.369	1.157	-1.6192056001907702	draw_card	0.0	columbia_card_task_fmri	15.0	0.8125	89.0	-75.0	0.1875	16.0	1.0	3.0	2.695645031560744	1.157	n/a	stim	s358
510.531	0.755	-2.74420560019077	draw_card	0.0	columbia_card_task_fmri	15.0	0.8	89.0	-75.0	0.2	16.0	2.0	3.0	3.5675087358354745	0.755	n/a	stim	s358
511.29	1.614	-4.029919885905055	draw_card	0.0	columbia_card_task_fmri	15.0	0.7857142857142857	89.0	-75.0	0.2142857142857142	16.0	3.0	3.0	4.4968171667730985	1.614	n/a	stim	s358
512.909	2.078	-5.513436369421544	end_round	0.0	columbia_card_task_fmri	15.0	0.7692307692307692	71.0	-75.0	0.2307692307692307	16.0	4.0	3.0	5.486716722387655	2.078	3.0	stim	s358
514.993	2.25	n/a	-1.0	n/a	columbia_card_task_fmri	n/a	n/a	-1.0	n/a	n/a	n/a	n/a	n/a	n/a	n/a	n/a	feedback	s358
517.243	1.02	n/a	-1.0	n/a	columbia_card_task_fmri	n/a	n/a	-1.0	n/a	n/a	n/a	n/a	n/a	n/a	n/a	n/a	ITI	s358
518.267	2.554	-1.0567056001907702	draw_card	1.0	columbia_card_task_fmri	14.0	0.6875	89.0	-35.0	0.3125	16.0	1.0	5.0	-9.719851754214965	2.554	1.0	stim	s358
520.827	2.25	n/a	-1.0	n/a	columbia_card_task_fmri	n/a	n/a	-1.0	n/a	n/a	n/a	n/a	n/a	n/a	n/a	n/a	feedback	s358
523.077	0.0	n/a	-1.0	n/a	columbia_card_task_fmri	n/a	n/a	-1.0	n/a	n/a	n/a	n/a	n/a	n/a	n/a	n/a	ITI	s358
523.081	1.801	4.122461066475897	draw_card	0.0	columbia_card_task_fmri	16.0	0.8666666666666667	89.0	-75.0	0.1333333333333333	15.0	1.0	2.0	-1.4982907307915916	1.801	n/a	stim	s358
524.886	0.325	3.255794399809232	draw_card	0.0	columbia_card_task_fmri	16.0	0.8571428571428572	89.0	-75.0	0.1428571428571428	15.0	2.0	2.0	-0.5890059891566821	0.325	n/a	stim	s358
525.215	0.335	2.25579439980923	end_round	0.0	columbia_card_task_fmri	16.0	0.8461538461538461	71.0	-75.0	0.1538461538461538	15.0	3.0	2.0	0.4005067107647093	0.335	2.0	stim	s358
525.556	2.25	n/a	-1.0	n/a	columbia_card_task_fmri	n/a	n/a	-1.0	n/a	n/a	n/a	n/a	n/a	n/a	n/a	n/a	feedback	s358
527.806	0.0	n/a	-1.0	n/a	columbia_card_task_fmri	n/a	n/a	-1.0	n/a	n/a	n/a	n/a	n/a	n/a	n/a	n/a	ITI	s358
527.81	3.469	4.789127733142563	draw_card	0.0	columbia_card_task_fmri	16.0	0.8666666666666667	89.0	-70.0	0.1333333333333333	15.0	1.0	2.0	-3.197902417832097	3.469	n/a	stim	s358
531.282	0.835	3.970080114094945	draw_card	0.0	columbia_card_task_fmri	16.0	0.8571428571428572	89.0	-70.0	0.1428571428571428	15.0	2.0	2.0	-2.3385817911097746	0.835	n/a	stim	s358
532.121	1.308	3.0250251690399983	draw_card	0.0	columbia_card_task_fmri	16.0	0.8461538461538461	89.0	-70.0	0.1538461538461538	15.0	3.0	2.0	-1.4034414220701912	1.308	n/a	stim	s358
533.433	0.284	1.9224610664758977	end_round	0.0	columbia_card_task_fmri	16.0	0.8333333333333334	71.0	-70.0	0.1666666666666666	15.0	4.0	2.0	-0.382071601094502	0.284	3.0	stim	s358
533.723	2.25	n/a	-1.0	n/a	columbia_card_task_fmri	n/a	n/a	-1.0	n/a	n/a	n/a	n/a	n/a	n/a	n/a	n/a	feedback	s358
535.973	0.068	n/a	-1.0	n/a	columbia_card_task_fmri	n/a	n/a	-1.0	n/a	n/a	n/a	n/a	n/a	n/a	n/a	n/a	ITI	s358
536.046	2.392	2.13079439980923	end_round	0.0	columbia_card_task_fmri	8.0	0.9375	71.0	-90.0	0.0625	16.0	1.0	1.0	-8.709997943456283	2.392	0.0	stim	s358
538.444	2.25	n/a	-1.0	n/a	columbia_card_task_fmri	n/a	n/a	-1.0	n/a	n/a	n/a	n/a	n/a	n/a	n/a	n/a	feedback	s358
540.694	0.476	n/a	-1.0	n/a	columbia_card_task_fmri	n/a	n/a	-1.0	n/a	n/a	n/a	n/a	n/a	n/a	n/a	n/a	ITI	s358
541.175	2.29	3.69329439980923	draw_card	0.0	columbia_card_task_fmri	10.0	0.9375	89.0	-95.0	0.0625	16.0	1.0	1.0	-7.015659662967344	2.29	n/a	stim	s358
543.468	0.344	3.255794399809231	draw_card	0.0	columbia_card_task_fmri	10.0	0.9333333333333332	89.0	-95.0	0.0666666666666666	16.0	2.0	1.0	-6.240549256525096	0.344	n/a	stim	s358
543.817	0.385	2.755794399809231	draw_card	0.0	columbia_card_task_fmri	10.0	0.9285714285714286	89.0	-95.0	0.0714285714285714	16.0	3.0	1.0	-5.39055565908285	0.385	n/a	stim	s358
544.206	0.407	2.1788713228861534	draw_card	0.0	columbia_card_task_fmri	10.0	0.9230769230769232	89.0	-95.0	0.0769230769230769	16.0	4.0	1.0	-4.452948489914814	0.407	n/a	stim	s358
544.617	0.673	1.5057943998092298	draw_card	0.0	columbia_card_task_fmri	10.0	0.9166666666666666	89.0	-95.0	0.0833333333333333	16.0	5.0	1.0	-3.41180579854694	0.673	n/a	stim	s358
545.295	0.855	0.710339854354683	end_round	0.0	columbia_card_task_fmri	10.0	0.9090909090909092	71.0	-95.0	0.0909090909090909	16.0	6.0	1.0	-2.2469385519294747	0.855	5.0	stim	s358
546.156	2.25	n/a	-1.0	n/a	columbia_card_task_fmri	n/a	n/a	-1.0	n/a	n/a	n/a	n/a	n/a	n/a	n/a	n/a	feedback	s358
548.406	0.136	n/a	-1.0	n/a	columbia_card_task_fmri	n/a	n/a	-1.0	n/a	n/a	n/a	n/a	n/a	n/a	n/a	n/a	ITI	s358
548.547	1.415	4.63079439980923	draw_card	0.0	columbia_card_task_fmri	15.0	0.875	89.0	-70.0	0.125	16.0	1.0	2.0	-4.321128568856452	1.415	n/a	stim	s358
549.966	0.333	3.922461066475896	draw_card	0.0	columbia_card_task_fmri	15.0	0.8666666666666667	89.0	-70.0	0.1333333333333333	16.0	2.0	2.0	-3.537823887278272	0.333	n/a	stim	s358
550.303	0.394	3.112937256952088	draw_card	0.0	columbia_card_task_fmri	15.0	0.8571428571428572	89.0	-70.0	0.1428571428571428	16.0	3.0	2.0	-2.688496108318564	0.394	n/a	stim	s358
550.701	0.633	2.178871322886152	draw_card	1.0	columbia_card_task_fmri	15.0	0.8461538461538461	89.0	-70.0	0.1538461538461538	16.0	4.0	2.0	-1.7642302308627045	0.633	4.0	stim	s358
551.341	2.25	n/a	-1.0	n/a	columbia_card_task_fmri	n/a	n/a	-1.0	n/a	n/a	n/a	n/a	n/a	n/a	n/a	n/a	feedback	s358
553.591	0.068	n/a	-1.0	n/a	columbia_card_task_fmri	n/a	n/a	-1.0	n/a	n/a	n/a	n/a	n/a	n/a	n/a	n/a	ITI	s358
553.663	2.318	3.63079439980923	draw_card	0.0	columbia_card_task_fmri	16.0	0.875	89.0	-85.0	0.125	16.0	1.0	2.0	0.970189700447854	2.318	n/a	stim	s358
555.985	0.4	2.7891277331425632	draw_card	0.0	columbia_card_task_fmri	16.0	0.8666666666666667	89.0	-85.0	0.1333333333333333	16.0	2.0	2.0	1.9009509050780693	0.4	n/a	stim	s358
556.391	0.616	1.8272229712378028	draw_card	0.0	columbia_card_task_fmri	16.0	0.8571428571428572	89.0	-85.0	0.1428571428571428	16.0	3.0	2.0	2.9101633551566906	0.616	n/a	stim	s358
557.01	0.383	0.7173328613476897	end_round	0.0	columbia_card_task_fmri	16.0	0.8461538461538461	71.0	-85.0	0.1538461538461538	16.0	4.0	2.0	4.008420182263869	0.383	3.0	stim	s358
557.399	2.25	n/a	-1.0	n/a	columbia_card_task_fmri	n/a	n/a	-1.0	n/a	n/a	n/a	n/a	n/a	n/a	n/a	n/a	feedback	s358
559.649	0.0	n/a	-1.0	n/a	columbia_card_task_fmri	n/a	n/a	-1.0	n/a	n/a	n/a	n/a	n/a	n/a	n/a	n/a	ITI	s358
