onset	duration	planning	condition	current_position	exp_stage	experiment_exp_id	goal_state	key_press	problem_id	response_time	start_state	trial_id	worker_id
-65.555	0.0	0	n/a	n/a	n/a	ward_and_allport	n/a	32.0	n/a	30.916	n/a	instructions	s358
3.008	4.737	1	UA_with_intermediate	1,0,0,2,0,0,0,0,0	practice	ward_and_allport	1,2,3,0,0,0,0,0,0	71.0	0.0	4.737	1,0,0,2,3,0,0,0,0	to_hand	s358
7.746	1.603	0	UA_with_intermediate	1,0,0,2,0,0,3,0,0	practice	ward_and_allport	1,2,3,0,0,0,0,0,0	82.0	0.0	1.603	1,0,0,2,3,0,0,0,0	to_board	s358
9.351	0.548	0	UA_with_intermediate	1,0,0,0,0,0,3,0,0	practice	ward_and_allport	1,2,3,0,0,0,0,0,0	71.0	0.0	0.548	1,0,0,2,3,0,0,0,0	to_hand	s358
9.9	0.773	0	UA_with_intermediate	1,2,0,0,0,0,3,0,0	practice	ward_and_allport	1,2,3,0,0,0,0,0,0	89.0	0.0	0.773	1,0,0,2,3,0,0,0,0	to_board	s358
10.673	1.055	0	UA_with_intermediate	1,2,0,0,0,0,0,0,0	practice	ward_and_allport	1,2,3,0,0,0,0,0,0	82.0	0.0	1.055	1,0,0,2,3,0,0,0,0	to_hand	s358
11.729	0.49	0	UA_with_intermediate	1,2,3,0,0,0,0,0,0	practice	ward_and_allport	1,2,3,0,0,0,0,0,0	89.0	0.0	0.49	1,0,0,2,3,0,0,0,0	to_board	s358
12.222	1.0	0	UA_with_intermediate	n/a	practice	ward_and_allport	n/a	-1.0	0.0	n/a	n/a	feedback	s358
14.724	8.03	1	UA_with_intermediate	1,0,0,3,0,0,0,0,0	practice	ward_and_allport	1,3,2,0,0,0,0,0,0	89.0	1.0	8.03	1,2,0,3,0,0,0,0,0	to_hand	s358
22.755	0.547	0	UA_with_intermediate	1,0,0,3,0,0,2,0,0	practice	ward_and_allport	1,3,2,0,0,0,0,0,0	82.0	1.0	0.547	1,2,0,3,0,0,0,0,0	to_board	s358
23.305	1.01	0	UA_with_intermediate	1,0,0,0,0,0,2,0,0	practice	ward_and_allport	1,3,2,0,0,0,0,0,0	71.0	1.0	1.01	1,2,0,3,0,0,0,0,0	to_hand	s358
24.315	0.349	0	UA_with_intermediate	1,3,0,0,0,0,2,0,0	practice	ward_and_allport	1,3,2,0,0,0,0,0,0	89.0	1.0	0.349	1,2,0,3,0,0,0,0,0	to_board	s358
24.666	0.536	0	UA_with_intermediate	1,3,0,0,0,0,0,0,0	practice	ward_and_allport	1,3,2,0,0,0,0,0,0	82.0	1.0	0.536	1,2,0,3,0,0,0,0,0	to_hand	s358
25.203	0.313	0	UA_with_intermediate	1,3,2,0,0,0,0,0,0	practice	ward_and_allport	1,3,2,0,0,0,0,0,0	89.0	1.0	0.313	1,2,0,3,0,0,0,0,0	to_board	s358
25.519	1.0	0	UA_with_intermediate	n/a	practice	ward_and_allport	n/a	-1.0	1.0	n/a	n/a	feedback	s358
26.519	1.1	0	UA_with_intermediate	n/a	practice	ward_and_allport	n/a	-1.0	1.0	n/a	n/a	ITI	s358
27.62	4.796	1	UA_without_intermediate	0,0,0,1,2,0,0,0,0	practice	ward_and_allport	3,2,1,0,0,0,0,0,0	82.0	2.0	4.796	0,0,0,1,2,0,3,0,0	to_hand	s358
32.416	0.763	0	UA_without_intermediate	3,0,0,1,2,0,0,0,0	practice	ward_and_allport	3,2,1,0,0,0,0,0,0	89.0	2.0	0.763	0,0,0,1,2,0,3,0,0	to_board	s358
33.18	0.916	0	UA_without_intermediate	3,0,0,1,0,0,0,0,0	practice	ward_and_allport	3,2,1,0,0,0,0,0,0	71.0	2.0	0.916	0,0,0,1,2,0,3,0,0	to_hand	s358
34.097	0.49	0	UA_without_intermediate	3,2,0,1,0,0,0,0,0	practice	ward_and_allport	3,2,1,0,0,0,0,0,0	89.0	2.0	0.49	0,0,0,1,2,0,3,0,0	to_board	s358
34.59	0.783	0	UA_without_intermediate	3,2,0,0,0,0,0,0,0	practice	ward_and_allport	3,2,1,0,0,0,0,0,0	71.0	2.0	0.783	0,0,0,1,2,0,3,0,0	to_hand	s358
35.374	0.25	0	UA_without_intermediate	3,2,1,0,0,0,0,0,0	practice	ward_and_allport	3,2,1,0,0,0,0,0,0	89.0	2.0	0.25	0,0,0,1,2,0,3,0,0	to_board	s358
35.628	1.0	0	UA_without_intermediate	n/a	practice	ward_and_allport	n/a	-1.0	2.0	n/a	n/a	feedback	s358
36.628	1.2	0	UA_without_intermediate	n/a	practice	ward_and_allport	n/a	-1.0	2.0	n/a	n/a	ITI	s358
37.83	3.907	1	UA_without_intermediate	0,0,0,1,0,0,3,0,0	practice	ward_and_allport	2,3,1,0,0,0,0,0,0	71.0	3.0	3.907	0,0,0,1,2,0,3,0,0	to_hand	s358
41.739	0.319	0	UA_without_intermediate	2,0,0,1,0,0,3,0,0	practice	ward_and_allport	2,3,1,0,0,0,0,0,0	89.0	3.0	0.319	0,0,0,1,2,0,3,0,0	to_board	s358
42.059	0.442	0	UA_without_intermediate	2,0,0,1,0,0,0,0,0	practice	ward_and_allport	2,3,1,0,0,0,0,0,0	82.0	3.0	0.442	0,0,0,1,2,0,3,0,0	to_hand	s358
42.502	0.269	0	UA_without_intermediate	2,3,0,1,0,0,0,0,0	practice	ward_and_allport	2,3,1,0,0,0,0,0,0	89.0	3.0	0.269	0,0,0,1,2,0,3,0,0	to_board	s358
42.774	0.566	0	UA_without_intermediate	2,3,0,0,0,0,0,0,0	practice	ward_and_allport	2,3,1,0,0,0,0,0,0	71.0	3.0	0.566	0,0,0,1,2,0,3,0,0	to_hand	s358
43.34	0.216	0	UA_without_intermediate	2,3,1,0,0,0,0,0,0	practice	ward_and_allport	2,3,1,0,0,0,0,0,0	89.0	3.0	0.216	0,0,0,1,2,0,3,0,0	to_board	s358
43.559	1.0	0	UA_without_intermediate	n/a	practice	ward_and_allport	n/a	-1.0	3.0	n/a	n/a	feedback	s358
44.559	1.0	0	UA_without_intermediate	n/a	practice	ward_and_allport	n/a	-1.0	3.0	n/a	n/a	ITI	s358
47.563	7.286	1	PA_with_intermediate	1,2,0,0,0,0,0,0,0	test	ward_and_allport	1,3,0,0,0,0,2,0,0	89.0	0.0	7.286	1,2,3,0,0,0,0,0,0	to_hand	s358
54.851	0.735	0	PA_with_intermediate	1,2,0,3,0,0,0,0,0	test	ward_and_allport	1,3,0,0,0,0,2,0,0	71.0	0.0	0.735	1,2,3,0,0,0,0,0,0	to_board	s358
55.588	1.014	0	PA_with_intermediate	1,0,0,3,0,0,0,0,0	test	ward_and_allport	1,3,0,0,0,0,2,0,0	89.0	0.0	1.014	1,2,3,0,0,0,0,0,0	to_hand	s358
56.603	0.414	0	PA_with_intermediate	1,0,0,3,0,0,2,0,0	test	ward_and_allport	1,3,0,0,0,0,2,0,0	82.0	0.0	0.414	1,2,3,0,0,0,0,0,0	to_board	s358
57.019	0.766	0	PA_with_intermediate	1,0,0,0,0,0,2,0,0	test	ward_and_allport	1,3,0,0,0,0,2,0,0	71.0	0.0	0.766	1,2,3,0,0,0,0,0,0	to_hand	s358
57.785	0.269	0	PA_with_intermediate	1,3,0,0,0,0,2,0,0	test	ward_and_allport	1,3,0,0,0,0,2,0,0	89.0	0.0	0.269	1,2,3,0,0,0,0,0,0	to_board	s358
58.057	1.0	0	PA_with_intermediate	n/a	test	ward_and_allport	n/a	-1.0	0.0	n/a	n/a	feedback	s358
59.057	2.768	0	PA_with_intermediate	n/a	test	ward_and_allport	n/a	-1.0	0.0	n/a	n/a	ITI	s358
61.827	4.072	1	PA_with_intermediate	0,0,0,0,0,0,1,2,0	test	ward_and_allport	0,0,0,2,0,0,1,3,0	82.0	1.0	4.072	0,0,0,0,0,0,1,2,3	to_hand	s358
65.9	1.723	0	PA_with_intermediate	3,0,0,0,0,0,1,2,0	test	ward_and_allport	0,0,0,2,0,0,1,3,0	89.0	1.0	1.723	0,0,0,0,0,0,1,2,3	to_board	s358
67.624	1.013	0	PA_with_intermediate	3,0,0,0,0,0,1,0,0	test	ward_and_allport	0,0,0,2,0,0,1,3,0	82.0	1.0	1.013	0,0,0,0,0,0,1,2,3	to_hand	s358
68.638	1.404	0	PA_with_intermediate	3,0,0,2,0,0,1,0,0	test	ward_and_allport	0,0,0,2,0,0,1,3,0	71.0	1.0	1.404	0,0,0,0,0,0,1,2,3	to_board	s358
70.045	0.761	0	PA_with_intermediate	0,0,0,2,0,0,1,0,0	test	ward_and_allport	0,0,0,2,0,0,1,3,0	89.0	1.0	0.761	0,0,0,0,0,0,1,2,3	to_hand	s358
70.806	0.559	0	PA_with_intermediate	0,0,0,2,0,0,1,3,0	test	ward_and_allport	0,0,0,2,0,0,1,3,0	82.0	1.0	0.559	0,0,0,0,0,0,1,2,3	to_board	s358
71.369	1.0	0	PA_with_intermediate	n/a	test	ward_and_allport	n/a	-1.0	1.0	n/a	n/a	feedback	s358
72.369	1.68	0	PA_with_intermediate	n/a	test	ward_and_allport	n/a	-1.0	1.0	n/a	n/a	ITI	s358
74.051	3.782	1	PA_without_intermediate	0,0,0,1,2,0,0,0,0	test	ward_and_allport	2,0,0,0,0,0,3,1,0	71.0	2.0	3.782	0,0,0,1,2,3,0,0,0	to_hand	s358
77.835	0.855	0	PA_without_intermediate	0,0,0,1,2,0,3,0,0	test	ward_and_allport	2,0,0,0,0,0,3,1,0	82.0	2.0	0.855	0,0,0,1,2,3,0,0,0	to_board	s358
78.693	1.064	0	PA_without_intermediate	0,0,0,1,0,0,3,0,0	test	ward_and_allport	2,0,0,0,0,0,3,1,0	71.0	2.0	1.064	0,0,0,1,2,3,0,0,0	to_hand	s358
79.757	0.311	0	PA_without_intermediate	2,0,0,1,0,0,3,0,0	test	ward_and_allport	2,0,0,0,0,0,3,1,0	89.0	2.0	0.311	0,0,0,1,2,3,0,0,0	to_board	s358
80.071	0.643	0	PA_without_intermediate	2,0,0,0,0,0,3,0,0	test	ward_and_allport	2,0,0,0,0,0,3,1,0	71.0	2.0	0.643	0,0,0,1,2,3,0,0,0	to_hand	s358
80.715	0.446	0	PA_without_intermediate	2,0,0,0,0,0,3,1,0	test	ward_and_allport	2,0,0,0,0,0,3,1,0	82.0	2.0	0.446	0,0,0,1,2,3,0,0,0	to_board	s358
81.164	1.0	0	PA_without_intermediate	n/a	test	ward_and_allport	n/a	-1.0	2.0	n/a	n/a	feedback	s358
82.164	2.224	0	PA_without_intermediate	n/a	test	ward_and_allport	n/a	-1.0	2.0	n/a	n/a	ITI	s358
84.39	3.865	1	PA_without_intermediate	0,0,0,0,0,0,1,2,0	test	ward_and_allport	1,0,0,3,2,0,0,0,0	82.0	3.0	3.865	0,0,0,0,0,0,1,2,3	to_hand	s358
88.255	0.396	0	PA_without_intermediate	0,0,0,3,0,0,1,2,0	test	ward_and_allport	1,0,0,3,2,0,0,0,0	71.0	3.0	0.396	0,0,0,0,0,0,1,2,3	to_board	s358
88.654	1.431	0	PA_without_intermediate	0,0,0,3,0,0,1,0,0	test	ward_and_allport	1,0,0,3,2,0,0,0,0	82.0	3.0	1.431	0,0,0,0,0,0,1,2,3	to_hand	s358
90.085	0.267	0	PA_without_intermediate	0,0,0,3,2,0,1,0,0	test	ward_and_allport	1,0,0,3,2,0,0,0,0	71.0	3.0	0.267	0,0,0,0,0,0,1,2,3	to_board	s358
90.354	0.353	0	PA_without_intermediate	0,0,0,3,2,0,0,0,0	test	ward_and_allport	1,0,0,3,2,0,0,0,0	82.0	3.0	0.353	0,0,0,0,0,0,1,2,3	to_hand	s358
90.708	0.175	0	PA_without_intermediate	1,0,0,3,2,0,0,0,0	test	ward_and_allport	1,0,0,3,2,0,0,0,0	89.0	3.0	0.175	0,0,0,0,0,0,1,2,3	to_board	s358
90.886	1.0	0	PA_without_intermediate	n/a	test	ward_and_allport	n/a	-1.0	3.0	n/a	n/a	feedback	s358
91.886	2.36	0	PA_without_intermediate	n/a	test	ward_and_allport	n/a	-1.0	3.0	n/a	n/a	ITI	s358
94.25	2.296	1	PA_without_intermediate	0,0,0,0,0,0,1,2,0	test	ward_and_allport	2,0,0,3,1,0,0,0,0	82.0	4.0	2.296	0,0,0,0,0,0,1,2,3	to_hand	s358
96.546	0.381	0	PA_without_intermediate	0,0,0,3,0,0,1,2,0	test	ward_and_allport	2,0,0,3,1,0,0,0,0	71.0	4.0	0.381	0,0,0,0,0,0,1,2,3	to_board	s358
96.93	0.464	0	PA_without_intermediate	0,0,0,3,0,0,1,0,0	test	ward_and_allport	2,0,0,3,1,0,0,0,0	82.0	4.0	0.464	0,0,0,0,0,0,1,2,3	to_hand	s358
97.394	0.423	0	PA_without_intermediate	2,0,0,3,0,0,1,0,0	test	ward_and_allport	2,0,0,3,1,0,0,0,0	89.0	4.0	0.423	0,0,0,0,0,0,1,2,3	to_board	s358
97.821	0.455	0	PA_without_intermediate	2,0,0,3,0,0,0,0,0	test	ward_and_allport	2,0,0,3,1,0,0,0,0	82.0	4.0	0.455	0,0,0,0,0,0,1,2,3	to_hand	s358
98.277	0.342	0	PA_without_intermediate	2,0,0,3,1,0,0,0,0	test	ward_and_allport	2,0,0,3,1,0,0,0,0	71.0	4.0	0.342	0,0,0,0,0,0,1,2,3	to_board	s358
98.622	1.0	0	PA_without_intermediate	n/a	test	ward_and_allport	n/a	-1.0	4.0	n/a	n/a	feedback	s358
99.622	1.0	0	PA_without_intermediate	n/a	test	ward_and_allport	n/a	-1.0	4.0	n/a	n/a	ITI	s358
100.626	2.371	1	PA_without_intermediate	0,0,0,0,0,0,1,2,0	test	ward_and_allport	3,1,0,2,0,0,0,0,0	82.0	5.0	2.371	0,0,0,0,0,0,1,2,3	to_hand	s358
102.998	1.296	0	PA_without_intermediate	3,0,0,0,0,0,1,2,0	test	ward_and_allport	3,1,0,2,0,0,0,0,0	89.0	5.0	1.296	0,0,0,0,0,0,1,2,3	to_board	s358
104.296	0.518	0	PA_without_intermediate	3,0,0,0,0,0,1,0,0	test	ward_and_allport	3,1,0,2,0,0,0,0,0	82.0	5.0	0.518	0,0,0,0,0,0,1,2,3	to_hand	s358
104.814	0.308	0	PA_without_intermediate	3,0,0,2,0,0,1,0,0	test	ward_and_allport	3,1,0,2,0,0,0,0,0	71.0	5.0	0.308	0,0,0,0,0,0,1,2,3	to_board	s358
105.126	0.309	0	PA_without_intermediate	3,0,0,2,0,0,0,0,0	test	ward_and_allport	3,1,0,2,0,0,0,0,0	82.0	5.0	0.309	0,0,0,0,0,0,1,2,3	to_hand	s358
105.436	0.261	0	PA_without_intermediate	3,1,0,2,0,0,0,0,0	test	ward_and_allport	3,1,0,2,0,0,0,0,0	89.0	5.0	0.261	0,0,0,0,0,0,1,2,3	to_board	s358
105.701	1.0	0	PA_without_intermediate	n/a	test	ward_and_allport	n/a	-1.0	5.0	n/a	n/a	feedback	s358
106.701	1.408	0	PA_without_intermediate	n/a	test	ward_and_allport	n/a	-1.0	5.0	n/a	n/a	ITI	s358
108.113	4.59	1	PA_with_intermediate	1,2,0,0,0,0,0,0,0	test	ward_and_allport	1,0,0,2,3,0,0,0,0	89.0	6.0	4.59	1,2,3,0,0,0,0,0,0	to_hand	s358
112.703	0.38	0	PA_with_intermediate	1,2,0,0,0,0,3,0,0	test	ward_and_allport	1,0,0,2,3,0,0,0,0	82.0	6.0	0.38	1,2,3,0,0,0,0,0,0	to_board	s358
113.086	1.494	0	PA_with_intermediate	1,0,0,0,0,0,3,0,0	test	ward_and_allport	1,0,0,2,3,0,0,0,0	89.0	6.0	1.494	1,2,3,0,0,0,0,0,0	to_hand	s358
114.58	0.43	0	PA_with_intermediate	1,0,0,2,0,0,3,0,0	test	ward_and_allport	1,0,0,2,3,0,0,0,0	71.0	6.0	0.43	1,2,3,0,0,0,0,0,0	to_board	s358
115.013	0.477	0	PA_with_intermediate	1,0,0,2,0,0,0,0,0	test	ward_and_allport	1,0,0,2,3,0,0,0,0	82.0	6.0	0.477	1,2,3,0,0,0,0,0,0	to_hand	s358
115.492	0.521	0	PA_with_intermediate	1,0,0,2,3,0,0,0,0	test	ward_and_allport	1,0,0,2,3,0,0,0,0	71.0	6.0	0.521	1,2,3,0,0,0,0,0,0	to_board	s358
116.017	1.0	0	PA_with_intermediate	n/a	test	ward_and_allport	n/a	-1.0	6.0	n/a	n/a	feedback	s358
117.017	1.136	0	PA_with_intermediate	n/a	test	ward_and_allport	n/a	-1.0	6.0	n/a	n/a	ITI	s358
118.155	2.585	1	PA_without_intermediate	1,2,0,0,0,0,0,0,0	test	ward_and_allport	0,0,0,3,2,0,1,0,0	89.0	7.0	2.585	1,2,3,0,0,0,0,0,0	to_hand	s358
120.742	0.441	0	PA_without_intermediate	1,2,0,3,0,0,0,0,0	test	ward_and_allport	0,0,0,3,2,0,1,0,0	71.0	7.0	0.441	1,2,3,0,0,0,0,0,0	to_board	s358
121.186	0.462	0	PA_without_intermediate	1,0,0,3,0,0,0,0,0	test	ward_and_allport	0,0,0,3,2,0,1,0,0	89.0	7.0	0.462	1,2,3,0,0,0,0,0,0	to_hand	s358
121.648	0.384	0	PA_without_intermediate	1,0,0,3,2,0,0,0,0	test	ward_and_allport	0,0,0,3,2,0,1,0,0	71.0	7.0	0.384	1,2,3,0,0,0,0,0,0	to_board	s358
122.037	0.388	0	PA_without_intermediate	0,0,0,3,2,0,0,0,0	test	ward_and_allport	0,0,0,3,2,0,1,0,0	89.0	7.0	0.388	1,2,3,0,0,0,0,0,0	to_hand	s358
122.425	0.327	0	PA_without_intermediate	0,0,0,3,2,0,1,0,0	test	ward_and_allport	0,0,0,3,2,0,1,0,0	82.0	7.0	0.327	1,2,3,0,0,0,0,0,0	to_board	s358
122.757	1.0	0	PA_without_intermediate	n/a	test	ward_and_allport	n/a	-1.0	7.0	n/a	n/a	feedback	s358
123.757	4.128	0	PA_without_intermediate	n/a	test	ward_and_allport	n/a	-1.0	7.0	n/a	n/a	ITI	s358
127.889	2.427	1	PA_without_intermediate	0,0,0,0,0,0,1,2,0	test	ward_and_allport	3,2,0,1,0,0,0,0,0	82.0	8.0	2.427	0,0,0,0,0,0,1,2,3	to_hand	s358
130.316	0.349	0	PA_without_intermediate	3,0,0,0,0,0,1,2,0	test	ward_and_allport	3,2,0,1,0,0,0,0,0	89.0	8.0	0.349	0,0,0,0,0,0,1,2,3	to_board	s358
130.668	0.636	0	PA_without_intermediate	3,0,0,0,0,0,1,0,0	test	ward_and_allport	3,2,0,1,0,0,0,0,0	82.0	8.0	0.636	0,0,0,0,0,0,1,2,3	to_hand	s358
131.305	0.31	0	PA_without_intermediate	3,2,0,0,0,0,1,0,0	test	ward_and_allport	3,2,0,1,0,0,0,0,0	89.0	8.0	0.31	0,0,0,0,0,0,1,2,3	to_board	s358
131.619	0.472	0	PA_without_intermediate	3,2,0,0,0,0,0,0,0	test	ward_and_allport	3,2,0,1,0,0,0,0,0	82.0	8.0	0.472	0,0,0,0,0,0,1,2,3	to_hand	s358
132.092	0.228	0	PA_without_intermediate	3,2,0,1,0,0,0,0,0	test	ward_and_allport	3,2,0,1,0,0,0,0,0	71.0	8.0	0.228	0,0,0,0,0,0,1,2,3	to_board	s358
132.325	1.0	0	PA_without_intermediate	n/a	test	ward_and_allport	n/a	-1.0	8.0	n/a	n/a	feedback	s358
133.325	1.136	0	PA_without_intermediate	n/a	test	ward_and_allport	n/a	-1.0	8.0	n/a	n/a	ITI	s358
134.464	2.332	1	PA_without_intermediate	1,2,0,0,0,0,0,0,0	test	ward_and_allport	0,0,0,2,0,0,3,1,0	89.0	9.0	2.332	1,2,3,0,0,0,0,0,0	to_hand	s358
136.796	0.359	0	PA_without_intermediate	1,2,0,0,0,0,3,0,0	test	ward_and_allport	0,0,0,2,0,0,3,1,0	82.0	9.0	0.359	1,2,3,0,0,0,0,0,0	to_board	s358
137.158	0.996	0	PA_without_intermediate	1,0,0,0,0,0,3,0,0	test	ward_and_allport	0,0,0,2,0,0,3,1,0	89.0	9.0	0.996	1,2,3,0,0,0,0,0,0	to_hand	s358
138.155	0.346	0	PA_without_intermediate	1,0,0,2,0,0,3,0,0	test	ward_and_allport	0,0,0,2,0,0,3,1,0	71.0	9.0	0.346	1,2,3,0,0,0,0,0,0	to_board	s358
138.504	0.274	0	PA_without_intermediate	0,0,0,2,0,0,3,0,0	test	ward_and_allport	0,0,0,2,0,0,3,1,0	89.0	9.0	0.274	1,2,3,0,0,0,0,0,0	to_hand	s358
138.779	0.32	0	PA_without_intermediate	0,0,0,2,0,0,3,1,0	test	ward_and_allport	0,0,0,2,0,0,3,1,0	82.0	9.0	0.32	1,2,3,0,0,0,0,0,0	to_board	s358
139.103	1.0	0	PA_without_intermediate	n/a	test	ward_and_allport	n/a	-1.0	9.0	n/a	n/a	feedback	s358
140.103	4.264	0	PA_without_intermediate	n/a	test	ward_and_allport	n/a	-1.0	9.0	n/a	n/a	ITI	s358
144.371	2.962	1	PA_with_intermediate	0,0,0,0,0,0,1,2,0	test	ward_and_allport	0,0,0,2,3,0,1,0,0	82.0	10.0	2.962	0,0,0,0,0,0,1,2,3	to_hand	s358
147.334	1.265	0	PA_with_intermediate	3,0,0,0,0,0,1,2,0	test	ward_and_allport	0,0,0,2,3,0,1,0,0	89.0	10.0	1.265	0,0,0,0,0,0,1,2,3	to_board	s358
148.603	0.411	0	PA_with_intermediate	3,0,0,0,0,0,1,0,0	test	ward_and_allport	0,0,0,2,3,0,1,0,0	82.0	10.0	0.411	0,0,0,0,0,0,1,2,3	to_hand	s358
149.014	0.36	0	PA_with_intermediate	3,0,0,2,0,0,1,0,0	test	ward_and_allport	0,0,0,2,3,0,1,0,0	71.0	10.0	0.36	0,0,0,0,0,0,1,2,3	to_board	s358
149.379	0.387	0	PA_with_intermediate	0,0,0,2,0,0,1,0,0	test	ward_and_allport	0,0,0,2,3,0,1,0,0	89.0	10.0	0.387	0,0,0,0,0,0,1,2,3	to_hand	s358
149.767	0.543	0	PA_with_intermediate	0,0,0,2,3,0,1,0,0	test	ward_and_allport	0,0,0,2,3,0,1,0,0	71.0	10.0	0.543	0,0,0,0,0,0,1,2,3	to_board	s358
150.315	1.0	0	PA_with_intermediate	n/a	test	ward_and_allport	n/a	-1.0	10.0	n/a	n/a	feedback	s358
151.315	3.04	0	PA_with_intermediate	n/a	test	ward_and_allport	n/a	-1.0	10.0	n/a	n/a	ITI	s358
154.359	3.323	1	PA_with_intermediate	0,0,0,0,0,0,1,2,0	test	ward_and_allport	2,0,0,0,0,0,1,3,0	82.0	11.0	3.323	0,0,0,0,0,0,1,2,3	to_hand	s358
157.684	0.65	0	PA_with_intermediate	0,0,0,3,0,0,1,2,0	test	ward_and_allport	2,0,0,0,0,0,1,3,0	71.0	11.0	0.65	0,0,0,0,0,0,1,2,3	to_board	s358
158.337	0.385	0	PA_with_intermediate	0,0,0,3,0,0,1,0,0	test	ward_and_allport	2,0,0,0,0,0,1,3,0	82.0	11.0	0.385	0,0,0,0,0,0,1,2,3	to_hand	s358
158.722	0.302	0	PA_with_intermediate	2,0,0,3,0,0,1,0,0	test	ward_and_allport	2,0,0,0,0,0,1,3,0	89.0	11.0	0.302	0,0,0,0,0,0,1,2,3	to_board	s358
159.028	0.435	0	PA_with_intermediate	2,0,0,0,0,0,1,0,0	test	ward_and_allport	2,0,0,0,0,0,1,3,0	71.0	11.0	0.435	0,0,0,0,0,0,1,2,3	to_hand	s358
159.463	0.326	0	PA_with_intermediate	2,0,0,0,0,0,1,3,0	test	ward_and_allport	2,0,0,0,0,0,1,3,0	82.0	11.0	0.326	0,0,0,0,0,0,1,2,3	to_board	s358
159.794	1.0	0	PA_with_intermediate	n/a	test	ward_and_allport	n/a	-1.0	11.0	n/a	n/a	feedback	s358
160.794	1.136	0	PA_with_intermediate	n/a	test	ward_and_allport	n/a	-1.0	11.0	n/a	n/a	ITI	s358
161.934	6.429	1	PA_with_intermediate	0,0,0,1,2,0,0,0,0	test	ward_and_allport	2,3,0,1,0,0,0,0,0	71.0	12.0	6.429	0,0,0,1,2,3,0,0,0	to_hand	s358
168.365	0.343	0	PA_with_intermediate	0,0,0,1,2,0,3,0,0	test	ward_and_allport	2,3,0,1,0,0,0,0,0	82.0	12.0	0.343	0,0,0,1,2,3,0,0,0	to_board	s358
168.713	0.466	0	PA_with_intermediate	0,0,0,1,0,0,3,0,0	test	ward_and_allport	2,3,0,1,0,0,0,0,0	71.0	12.0	0.466	0,0,0,1,2,3,0,0,0	to_hand	s358
169.18	0.313	0	PA_with_intermediate	2,0,0,1,0,0,3,0,0	test	ward_and_allport	2,3,0,1,0,0,0,0,0	89.0	12.0	0.313	0,0,0,1,2,3,0,0,0	to_board	s358
169.498	2.223	0	PA_with_intermediate	2,0,0,1,0,0,0,0,0	test	ward_and_allport	2,3,0,1,0,0,0,0,0	82.0	12.0	2.223	0,0,0,1,2,3,0,0,0	to_hand	s358
171.721	0.292	0	PA_with_intermediate	2,3,0,1,0,0,0,0,0	test	ward_and_allport	2,3,0,1,0,0,0,0,0	89.0	12.0	0.292	0,0,0,1,2,3,0,0,0	to_board	s358
172.019	1.0	0	PA_with_intermediate	n/a	test	ward_and_allport	n/a	-1.0	12.0	n/a	n/a	feedback	s358
173.019	1.408	0	PA_with_intermediate	n/a	test	ward_and_allport	n/a	-1.0	12.0	n/a	n/a	ITI	s358
174.431	1.968	1	PA_without_intermediate	0,0,0,1,2,0,0,0,0	test	ward_and_allport	3,1,0,0,0,0,2,0,0	71.0	13.0	1.968	0,0,0,1,2,3,0,0,0	to_hand	s358
176.401	0.339	0	PA_without_intermediate	3,0,0,1,2,0,0,0,0	test	ward_and_allport	3,1,0,0,0,0,2,0,0	89.0	13.0	0.339	0,0,0,1,2,3,0,0,0	to_board	s358
176.745	0.325	0	PA_without_intermediate	3,0,0,1,0,0,0,0,0	test	ward_and_allport	3,1,0,0,0,0,2,0,0	71.0	13.0	0.325	0,0,0,1,2,3,0,0,0	to_hand	s358
177.072	0.477	0	PA_without_intermediate	3,0,0,1,0,0,2,0,0	test	ward_and_allport	3,1,0,0,0,0,2,0,0	82.0	13.0	0.477	0,0,0,1,2,3,0,0,0	to_board	s358
177.554	0.31	0	PA_without_intermediate	3,0,0,0,0,0,2,0,0	test	ward_and_allport	3,1,0,0,0,0,2,0,0	71.0	13.0	0.31	0,0,0,1,2,3,0,0,0	to_hand	s358
177.866	0.234	0	PA_without_intermediate	3,1,0,0,0,0,2,0,0	test	ward_and_allport	3,1,0,0,0,0,2,0,0	89.0	13.0	0.234	0,0,0,1,2,3,0,0,0	to_board	s358
178.104	1.0	0	PA_without_intermediate	n/a	test	ward_and_allport	n/a	-1.0	13.0	n/a	n/a	feedback	s358
179.104	1.68	0	PA_without_intermediate	n/a	test	ward_and_allport	n/a	-1.0	13.0	n/a	n/a	ITI	s358
180.789	2.432	1	PA_with_intermediate	0,0,0,1,2,0,0,0,0	test	ward_and_allport	0,0,0,1,3,0,2,0,0	71.0	14.0	2.432	0,0,0,1,2,3,0,0,0	to_hand	s358
183.222	1.089	0	PA_with_intermediate	3,0,0,1,2,0,0,0,0	test	ward_and_allport	0,0,0,1,3,0,2,0,0	89.0	14.0	1.089	0,0,0,1,2,3,0,0,0	to_board	s358
184.314	0.319	0	PA_with_intermediate	3,0,0,1,0,0,0,0,0	test	ward_and_allport	0,0,0,1,3,0,2,0,0	71.0	14.0	0.319	0,0,0,1,2,3,0,0,0	to_hand	s358
184.634	0.223	0	PA_with_intermediate	3,0,0,1,0,0,2,0,0	test	ward_and_allport	0,0,0,1,3,0,2,0,0	82.0	14.0	0.223	0,0,0,1,2,3,0,0,0	to_board	s358
184.861	0.407	0	PA_with_intermediate	0,0,0,1,0,0,2,0,0	test	ward_and_allport	0,0,0,1,3,0,2,0,0	89.0	14.0	0.407	0,0,0,1,2,3,0,0,0	to_hand	s358
185.269	0.133	0	PA_with_intermediate	0,0,0,1,3,0,2,0,0	test	ward_and_allport	0,0,0,1,3,0,2,0,0	71.0	14.0	0.133	0,0,0,1,2,3,0,0,0	to_board	s358
185.409	1.0	0	PA_with_intermediate	n/a	test	ward_and_allport	n/a	-1.0	14.0	n/a	n/a	feedback	s358
186.409	3.72	0	PA_with_intermediate	n/a	test	ward_and_allport	n/a	-1.0	14.0	n/a	n/a	ITI	s358
195.135	2.803	1	PA_without_intermediate	1,2,0,0,0,0,0,0,0	test	ward_and_allport	0,0,0,3,1,0,2,0,0	89.0	15.0	2.803	1,2,3,0,0,0,0,0,0	to_hand	s358
197.939	0.385	0	PA_without_intermediate	1,2,0,3,0,0,0,0,0	test	ward_and_allport	0,0,0,3,1,0,2,0,0	71.0	15.0	0.385	1,2,3,0,0,0,0,0,0	to_board	s358
198.328	0.397	0	PA_without_intermediate	1,0,0,3,0,0,0,0,0	test	ward_and_allport	0,0,0,3,1,0,2,0,0	89.0	15.0	0.397	1,2,3,0,0,0,0,0,0	to_hand	s358
198.727	0.45	0	PA_without_intermediate	1,0,0,3,0,0,2,0,0	test	ward_and_allport	0,0,0,3,1,0,2,0,0	82.0	15.0	0.45	1,2,3,0,0,0,0,0,0	to_board	s358
199.181	0.428	0	PA_without_intermediate	0,0,0,3,0,0,2,0,0	test	ward_and_allport	0,0,0,3,1,0,2,0,0	89.0	15.0	0.428	1,2,3,0,0,0,0,0,0	to_hand	s358
199.61	0.319	0	PA_without_intermediate	0,0,0,3,1,0,2,0,0	test	ward_and_allport	0,0,0,3,1,0,2,0,0	71.0	15.0	0.319	1,2,3,0,0,0,0,0,0	to_board	s358
199.935	1.0	0	PA_without_intermediate	n/a	test	ward_and_allport	n/a	-1.0	15.0	n/a	n/a	feedback	s358
200.935	2.224	0	PA_without_intermediate	n/a	test	ward_and_allport	n/a	-1.0	15.0	n/a	n/a	ITI	s358
203.162	1.291	1	PA_without_intermediate	0,0,0,1,2,0,0,0,0	test	ward_and_allport	3,2,0,0,0,0,1,0,0	71.0	16.0	1.291	0,0,0,1,2,3,0,0,0	to_hand	s358
204.455	0.351	0	PA_without_intermediate	3,0,0,1,2,0,0,0,0	test	ward_and_allport	3,2,0,0,0,0,1,0,0	89.0	16.0	0.351	0,0,0,1,2,3,0,0,0	to_board	s358
204.811	0.371	0	PA_without_intermediate	3,0,0,1,0,0,0,0,0	test	ward_and_allport	3,2,0,0,0,0,1,0,0	71.0	16.0	0.371	0,0,0,1,2,3,0,0,0	to_hand	s358
205.182	0.426	0	PA_without_intermediate	3,2,0,1,0,0,0,0,0	test	ward_and_allport	3,2,0,0,0,0,1,0,0	89.0	16.0	0.426	0,0,0,1,2,3,0,0,0	to_board	s358
205.612	0.675	0	PA_without_intermediate	3,2,0,0,0,0,0,0,0	test	ward_and_allport	3,2,0,0,0,0,1,0,0	71.0	16.0	0.675	0,0,0,1,2,3,0,0,0	to_hand	s358
206.288	0.307	0	PA_without_intermediate	3,2,0,0,0,0,1,0,0	test	ward_and_allport	3,2,0,0,0,0,1,0,0	82.0	16.0	0.307	0,0,0,1,2,3,0,0,0	to_board	s358
206.601	1.0	0	PA_without_intermediate	n/a	test	ward_and_allport	n/a	-1.0	16.0	n/a	n/a	feedback	s358
207.601	1.272	0	PA_without_intermediate	n/a	test	ward_and_allport	n/a	-1.0	16.0	n/a	n/a	ITI	s358
208.877	4.144	1	PA_with_intermediate	1,2,0,0,0,0,0,0,0	test	ward_and_allport	1,3,0,0,0,0,2,0,0	89.0	17.0	4.144	1,2,3,0,0,0,0,0,0	to_hand	s358
213.023	0.355	0	PA_with_intermediate	1,2,0,3,0,0,0,0,0	test	ward_and_allport	1,3,0,0,0,0,2,0,0	71.0	17.0	0.355	1,2,3,0,0,0,0,0,0	to_board	s358
213.383	1.008	0	PA_with_intermediate	1,0,0,3,0,0,0,0,0	test	ward_and_allport	1,3,0,0,0,0,2,0,0	89.0	17.0	1.008	1,2,3,0,0,0,0,0,0	to_hand	s358
214.392	0.35	0	PA_with_intermediate	1,0,0,3,0,0,2,0,0	test	ward_and_allport	1,3,0,0,0,0,2,0,0	82.0	17.0	0.35	1,2,3,0,0,0,0,0,0	to_board	s358
214.747	0.445	0	PA_with_intermediate	1,0,0,0,0,0,2,0,0	test	ward_and_allport	1,3,0,0,0,0,2,0,0	71.0	17.0	0.445	1,2,3,0,0,0,0,0,0	to_hand	s358
215.192	0.208	0	PA_with_intermediate	1,3,0,0,0,0,2,0,0	test	ward_and_allport	1,3,0,0,0,0,2,0,0	89.0	17.0	0.208	1,2,3,0,0,0,0,0,0	to_board	s358
215.407	1.0	0	PA_with_intermediate	n/a	test	ward_and_allport	n/a	-1.0	17.0	n/a	n/a	feedback	s358
216.407	2.632	0	PA_with_intermediate	n/a	test	ward_and_allport	n/a	-1.0	17.0	n/a	n/a	ITI	s358
219.043	1.982	1	PA_without_intermediate	0,0,0,1,2,0,0,0,0	test	ward_and_allport	1,0,0,0,0,0,3,2,0	71.0	18.0	1.982	0,0,0,1,2,3,0,0,0	to_hand	s358
221.026	0.601	0	PA_without_intermediate	0,0,0,1,2,0,3,0,0	test	ward_and_allport	1,0,0,0,0,0,3,2,0	82.0	18.0	0.601	0,0,0,1,2,3,0,0,0	to_board	s358
221.632	0.592	0	PA_without_intermediate	0,0,0,1,0,0,3,0,0	test	ward_and_allport	1,0,0,0,0,0,3,2,0	71.0	18.0	0.592	0,0,0,1,2,3,0,0,0	to_hand	s358
222.225	0.483	0	PA_without_intermediate	0,0,0,1,0,0,3,2,0	test	ward_and_allport	1,0,0,0,0,0,3,2,0	82.0	18.0	0.483	0,0,0,1,2,3,0,0,0	to_board	s358
222.712	0.381	0	PA_without_intermediate	0,0,0,0,0,0,3,2,0	test	ward_and_allport	1,0,0,0,0,0,3,2,0	71.0	18.0	0.381	0,0,0,1,2,3,0,0,0	to_hand	s358
223.093	0.257	0	PA_without_intermediate	1,0,0,0,0,0,3,2,0	test	ward_and_allport	1,0,0,0,0,0,3,2,0	89.0	18.0	0.257	0,0,0,1,2,3,0,0,0	to_board	s358
223.356	1.0	0	PA_without_intermediate	n/a	test	ward_and_allport	n/a	-1.0	18.0	n/a	n/a	feedback	s358
224.356	1.408	0	PA_without_intermediate	n/a	test	ward_and_allport	n/a	-1.0	18.0	n/a	n/a	ITI	s358
225.769	1.249	1	PA_without_intermediate	0,0,0,1,2,0,0,0,0	test	ward_and_allport	1,0,0,0,0,0,3,2,0	71.0	19.0	1.249	0,0,0,1,2,3,0,0,0	to_hand	s358
227.019	0.937	0	PA_without_intermediate	0,0,0,1,2,0,3,0,0	test	ward_and_allport	1,0,0,0,0,0,3,2,0	82.0	19.0	0.937	0,0,0,1,2,3,0,0,0	to_board	s358
227.96	0.712	0	PA_without_intermediate	0,0,0,1,0,0,3,0,0	test	ward_and_allport	1,0,0,0,0,0,3,2,0	71.0	19.0	0.712	0,0,0,1,2,3,0,0,0	to_hand	s358
228.673	0.266	0	PA_without_intermediate	0,0,0,1,0,0,3,2,0	test	ward_and_allport	1,0,0,0,0,0,3,2,0	82.0	19.0	0.266	0,0,0,1,2,3,0,0,0	to_board	s358
228.943	0.623	0	PA_without_intermediate	0,0,0,0,0,0,3,2,0	test	ward_and_allport	1,0,0,0,0,0,3,2,0	71.0	19.0	0.623	0,0,0,1,2,3,0,0,0	to_hand	s358
229.567	0.147	0	PA_without_intermediate	1,0,0,0,0,0,3,2,0	test	ward_and_allport	1,0,0,0,0,0,3,2,0	89.0	19.0	0.147	0,0,0,1,2,3,0,0,0	to_board	s358
229.72	1.0	0	PA_without_intermediate	n/a	test	ward_and_allport	n/a	-1.0	19.0	n/a	n/a	feedback	s358
230.72	1.0	0	PA_without_intermediate	n/a	test	ward_and_allport	n/a	-1.0	19.0	n/a	n/a	ITI	s358
231.724	4.307	1	PA_with_intermediate	0,0,0,0,0,0,1,2,0	test	ward_and_allport	2,3,0,0,0,0,1,0,0	82.0	20.0	4.307	0,0,0,0,0,0,1,2,3	to_hand	s358
236.032	0.323	0	PA_with_intermediate	0,0,0,3,0,0,1,2,0	test	ward_and_allport	2,3,0,0,0,0,1,0,0	71.0	20.0	0.323	0,0,0,0,0,0,1,2,3	to_board	s358
236.359	0.52	0	PA_with_intermediate	0,0,0,3,0,0,1,0,0	test	ward_and_allport	2,3,0,0,0,0,1,0,0	82.0	20.0	0.52	0,0,0,0,0,0,1,2,3	to_hand	s358
236.88	0.255	0	PA_with_intermediate	2,0,0,3,0,0,1,0,0	test	ward_and_allport	2,3,0,0,0,0,1,0,0	89.0	20.0	0.255	0,0,0,0,0,0,1,2,3	to_board	s358
237.139	0.396	0	PA_with_intermediate	2,0,0,0,0,0,1,0,0	test	ward_and_allport	2,3,0,0,0,0,1,0,0	71.0	20.0	0.396	0,0,0,0,0,0,1,2,3	to_hand	s358
237.537	0.273	0	PA_with_intermediate	2,3,0,0,0,0,1,0,0	test	ward_and_allport	2,3,0,0,0,0,1,0,0	89.0	20.0	0.273	0,0,0,0,0,0,1,2,3	to_board	s358
237.816	1.0	0	PA_with_intermediate	n/a	test	ward_and_allport	n/a	-1.0	20.0	n/a	n/a	feedback	s358
238.816	1.0	0	PA_with_intermediate	n/a	test	ward_and_allport	n/a	-1.0	20.0	n/a	n/a	ITI	s358
239.821	2.297	1	PA_with_intermediate	0,0,0,0,0,0,1,2,0	test	ward_and_allport	2,3,0,0,0,0,1,0,0	82.0	21.0	2.297	0,0,0,0,0,0,1,2,3	to_hand	s358
242.119	0.684	0	PA_with_intermediate	0,0,0,3,0,0,1,2,0	test	ward_and_allport	2,3,0,0,0,0,1,0,0	71.0	21.0	0.684	0,0,0,0,0,0,1,2,3	to_board	s358
242.808	0.318	0	PA_with_intermediate	0,0,0,3,0,0,1,0,0	test	ward_and_allport	2,3,0,0,0,0,1,0,0	82.0	21.0	0.318	0,0,0,0,0,0,1,2,3	to_hand	s358
243.127	0.365	0	PA_with_intermediate	2,0,0,3,0,0,1,0,0	test	ward_and_allport	2,3,0,0,0,0,1,0,0	89.0	21.0	0.365	0,0,0,0,0,0,1,2,3	to_board	s358
243.497	0.29	0	PA_with_intermediate	2,0,0,0,0,0,1,0,0	test	ward_and_allport	2,3,0,0,0,0,1,0,0	71.0	21.0	0.29	0,0,0,0,0,0,1,2,3	to_hand	s358
243.787	0.253	0	PA_with_intermediate	2,3,0,0,0,0,1,0,0	test	ward_and_allport	2,3,0,0,0,0,1,0,0	89.0	21.0	0.253	0,0,0,0,0,0,1,2,3	to_board	s358
244.046	1.0	0	PA_with_intermediate	n/a	test	ward_and_allport	n/a	-1.0	21.0	n/a	n/a	feedback	s358
245.046	1.0	0	PA_with_intermediate	n/a	test	ward_and_allport	n/a	-1.0	21.0	n/a	n/a	ITI	s358
246.052	3.217	1	PA_with_intermediate	0,0,0,0,0,0,1,2,0	test	ward_and_allport	0,0,0,2,3,0,1,0,0	82.0	22.0	3.217	0,0,0,0,0,0,1,2,3	to_hand	s358
249.27	0.361	0	PA_with_intermediate	3,0,0,0,0,0,1,2,0	test	ward_and_allport	0,0,0,2,3,0,1,0,0	89.0	22.0	0.361	0,0,0,0,0,0,1,2,3	to_board	s358
249.637	0.599	0	PA_with_intermediate	3,0,0,0,0,0,1,0,0	test	ward_and_allport	0,0,0,2,3,0,1,0,0	82.0	22.0	0.599	0,0,0,0,0,0,1,2,3	to_hand	s358
250.236	0.333	0	PA_with_intermediate	3,0,0,2,0,0,1,0,0	test	ward_and_allport	0,0,0,2,3,0,1,0,0	71.0	22.0	0.333	0,0,0,0,0,0,1,2,3	to_board	s358
250.576	0.278	0	PA_with_intermediate	0,0,0,2,0,0,1,0,0	test	ward_and_allport	0,0,0,2,3,0,1,0,0	89.0	22.0	0.278	0,0,0,0,0,0,1,2,3	to_hand	s358
250.854	0.328	0	PA_with_intermediate	0,0,0,2,0,0,1,3,0	test	ward_and_allport	0,0,0,2,3,0,1,0,0	82.0	22.0	0.328	0,0,0,0,0,0,1,2,3	to_board	s358
251.189	1.396	0	PA_with_intermediate	0,0,0,2,0,0,1,0,0	test	ward_and_allport	0,0,0,2,3,0,1,0,0	82.0	22.0	1.396	0,0,0,0,0,0,1,2,3	to_hand	s358
252.585	0.233	0	PA_with_intermediate	0,0,0,2,3,0,1,0,0	test	ward_and_allport	0,0,0,2,3,0,1,0,0	71.0	22.0	0.233	0,0,0,0,0,0,1,2,3	to_board	s358
252.826	1.0	0	PA_with_intermediate	n/a	test	ward_and_allport	n/a	-1.0	22.0	n/a	n/a	feedback	s358
253.826	1.408	0	PA_with_intermediate	n/a	test	ward_and_allport	n/a	-1.0	22.0	n/a	n/a	ITI	s358
255.239	4.286	1	PA_without_intermediate	1,2,0,0,0,0,0,0,0	test	ward_and_allport	0,0,0,2,0,0,3,1,0	89.0	23.0	4.286	1,2,3,0,0,0,0,0,0	to_hand	s358
259.527	0.958	0	PA_without_intermediate	1,2,0,0,0,0,3,0,0	test	ward_and_allport	0,0,0,2,0,0,3,1,0	82.0	23.0	0.958	1,2,3,0,0,0,0,0,0	to_board	s358
260.49	1.088	0	PA_without_intermediate	1,0,0,0,0,0,3,0,0	test	ward_and_allport	0,0,0,2,0,0,3,1,0	89.0	23.0	1.088	1,2,3,0,0,0,0,0,0	to_hand	s358
261.579	0.433	0	PA_without_intermediate	1,0,0,2,0,0,3,0,0	test	ward_and_allport	0,0,0,2,0,0,3,1,0	71.0	23.0	0.433	1,2,3,0,0,0,0,0,0	to_board	s358
262.018	0.336	0	PA_without_intermediate	0,0,0,2,0,0,3,0,0	test	ward_and_allport	0,0,0,2,0,0,3,1,0	89.0	23.0	0.336	1,2,3,0,0,0,0,0,0	to_hand	s358
262.356	0.342	0	PA_without_intermediate	0,0,0,2,0,0,3,1,0	test	ward_and_allport	0,0,0,2,0,0,3,1,0	82.0	23.0	0.342	1,2,3,0,0,0,0,0,0	to_board	s358
262.706	1.0	0	PA_without_intermediate	n/a	test	ward_and_allport	n/a	-1.0	23.0	n/a	n/a	feedback	s358
263.706	1.816	0	PA_without_intermediate	n/a	test	ward_and_allport	n/a	-1.0	23.0	n/a	n/a	ITI	s358
265.529	2.89	1	PA_with_intermediate	0,0,0,0,0,0,1,2,0	test	ward_and_allport	2,0,0,0,0,0,1,3,0	82.0	24.0	2.89	0,0,0,0,0,0,1,2,3	to_hand	s358
268.419	0.863	0	PA_with_intermediate	0,0,0,3,0,0,1,2,0	test	ward_and_allport	2,0,0,0,0,0,1,3,0	71.0	24.0	0.863	0,0,0,0,0,0,1,2,3	to_board	s358
269.289	0.312	0	PA_with_intermediate	0,0,0,3,0,0,1,0,0	test	ward_and_allport	2,0,0,0,0,0,1,3,0	82.0	24.0	0.312	0,0,0,0,0,0,1,2,3	to_hand	s358
269.601	0.174	0	PA_with_intermediate	2,0,0,3,0,0,1,0,0	test	ward_and_allport	2,0,0,0,0,0,1,3,0	89.0	24.0	0.174	0,0,0,0,0,0,1,2,3	to_board	s358
269.781	0.331	0	PA_with_intermediate	2,0,0,0,0,0,1,0,0	test	ward_and_allport	2,0,0,0,0,0,1,3,0	71.0	24.0	0.331	0,0,0,0,0,0,1,2,3	to_hand	s358
270.114	0.366	0	PA_with_intermediate	2,0,0,0,0,0,1,3,0	test	ward_and_allport	2,0,0,0,0,0,1,3,0	82.0	24.0	0.366	0,0,0,0,0,0,1,2,3	to_board	s358
270.487	1.0	0	PA_with_intermediate	n/a	test	ward_and_allport	n/a	-1.0	24.0	n/a	n/a	feedback	s358
271.487	3.176	0	PA_with_intermediate	n/a	test	ward_and_allport	n/a	-1.0	24.0	n/a	n/a	ITI	s358
274.67	3.193	1	PA_with_intermediate	0,0,0,0,0,0,1,2,0	test	ward_and_allport	0,0,0,2,0,0,1,3,0	82.0	25.0	3.193	0,0,0,0,0,0,1,2,3	to_hand	s358
277.864	0.322	0	PA_with_intermediate	3,0,0,0,0,0,1,2,0	test	ward_and_allport	0,0,0,2,0,0,1,3,0	89.0	25.0	0.322	0,0,0,0,0,0,1,2,3	to_board	s358
278.194	0.463	0	PA_with_intermediate	3,0,0,0,0,0,1,0,0	test	ward_and_allport	0,0,0,2,0,0,1,3,0	82.0	25.0	0.463	0,0,0,0,0,0,1,2,3	to_hand	s358
278.657	0.397	0	PA_with_intermediate	3,0,0,2,0,0,1,0,0	test	ward_and_allport	0,0,0,2,0,0,1,3,0	71.0	25.0	0.397	0,0,0,0,0,0,1,2,3	to_board	s358
279.06	0.333	0	PA_with_intermediate	0,0,0,2,0,0,1,0,0	test	ward_and_allport	0,0,0,2,0,0,1,3,0	89.0	25.0	0.333	0,0,0,0,0,0,1,2,3	to_hand	s358
279.394	0.362	0	PA_with_intermediate	0,0,0,2,0,0,1,3,0	test	ward_and_allport	0,0,0,2,0,0,1,3,0	82.0	25.0	0.362	0,0,0,0,0,0,1,2,3	to_board	s358
279.764	1.0	0	PA_with_intermediate	n/a	test	ward_and_allport	n/a	-1.0	25.0	n/a	n/a	feedback	s358
280.764	2.36	0	PA_with_intermediate	n/a	test	ward_and_allport	n/a	-1.0	25.0	n/a	n/a	ITI	s358
283.13	2.641	1	PA_with_intermediate	1,2,0,0,0,0,0,0,0	test	ward_and_allport	1,3,0,2,0,0,0,0,0	89.0	26.0	2.641	1,2,3,0,0,0,0,0,0	to_hand	s358
285.772	0.349	0	PA_with_intermediate	1,2,0,0,0,0,3,0,0	test	ward_and_allport	1,3,0,2,0,0,0,0,0	82.0	26.0	0.349	1,2,3,0,0,0,0,0,0	to_board	s358
286.128	1.024	0	PA_with_intermediate	1,0,0,0,0,0,3,0,0	test	ward_and_allport	1,3,0,2,0,0,0,0,0	89.0	26.0	1.024	1,2,3,0,0,0,0,0,0	to_hand	s358
287.152	0.221	0	PA_with_intermediate	1,0,0,2,0,0,3,0,0	test	ward_and_allport	1,3,0,2,0,0,0,0,0	71.0	26.0	0.221	1,2,3,0,0,0,0,0,0	to_board	s358
287.38	0.349	0	PA_with_intermediate	1,0,0,2,0,0,0,0,0	test	ward_and_allport	1,3,0,2,0,0,0,0,0	82.0	26.0	0.349	1,2,3,0,0,0,0,0,0	to_hand	s358
287.73	0.215	0	PA_with_intermediate	1,3,0,2,0,0,0,0,0	test	ward_and_allport	1,3,0,2,0,0,0,0,0	89.0	26.0	0.215	1,2,3,0,0,0,0,0,0	to_board	s358
287.952	1.0	0	PA_with_intermediate	n/a	test	ward_and_allport	n/a	-1.0	26.0	n/a	n/a	feedback	s358
288.952	1.0	0	PA_with_intermediate	n/a	test	ward_and_allport	n/a	-1.0	26.0	n/a	n/a	ITI	s358
289.958	2.35	1	PA_without_intermediate	0,0,0,1,2,0,0,0,0	test	ward_and_allport	2,0,0,0,0,0,3,1,0	71.0	27.0	2.35	0,0,0,1,2,3,0,0,0	to_hand	s358
292.31	0.418	0	PA_without_intermediate	0,0,0,1,2,0,3,0,0	test	ward_and_allport	2,0,0,0,0,0,3,1,0	82.0	27.0	0.418	0,0,0,1,2,3,0,0,0	to_board	s358
292.735	0.672	0	PA_without_intermediate	0,0,0,1,0,0,3,0,0	test	ward_and_allport	2,0,0,0,0,0,3,1,0	71.0	27.0	0.672	0,0,0,1,2,3,0,0,0	to_hand	s358
293.408	0.307	0	PA_without_intermediate	2,0,0,1,0,0,3,0,0	test	ward_and_allport	2,0,0,0,0,0,3,1,0	89.0	27.0	0.307	0,0,0,1,2,3,0,0,0	to_board	s358
293.723	0.407	0	PA_without_intermediate	2,0,0,0,0,0,3,0,0	test	ward_and_allport	2,0,0,0,0,0,3,1,0	71.0	27.0	0.407	0,0,0,1,2,3,0,0,0	to_hand	s358
294.131	0.255	0	PA_without_intermediate	2,0,0,0,0,0,3,1,0	test	ward_and_allport	2,0,0,0,0,0,3,1,0	82.0	27.0	0.255	0,0,0,1,2,3,0,0,0	to_board	s358
294.394	1.0	0	PA_without_intermediate	n/a	test	ward_and_allport	n/a	-1.0	27.0	n/a	n/a	feedback	s358
295.394	1.408	0	PA_without_intermediate	n/a	test	ward_and_allport	n/a	-1.0	27.0	n/a	n/a	ITI	s358
296.809	3.394	1	PA_with_intermediate	1,2,0,0,0,0,0,0,0	test	ward_and_allport	1,0,0,0,0,0,2,3,0	89.0	28.0	3.394	1,2,3,0,0,0,0,0,0	to_hand	s358
300.205	0.394	0	PA_with_intermediate	1,2,0,3,0,0,0,0,0	test	ward_and_allport	1,0,0,0,0,0,2,3,0	71.0	28.0	0.394	1,2,3,0,0,0,0,0,0	to_board	s358
300.605	0.305	0	PA_with_intermediate	1,0,0,3,0,0,0,0,0	test	ward_and_allport	1,0,0,0,0,0,2,3,0	89.0	28.0	0.305	1,2,3,0,0,0,0,0,0	to_hand	s358
300.91	0.641	0	PA_with_intermediate	1,0,0,3,0,0,2,0,0	test	ward_and_allport	1,0,0,0,0,0,2,3,0	82.0	28.0	0.641	1,2,3,0,0,0,0,0,0	to_board	s358
301.558	0.517	0	PA_with_intermediate	1,0,0,0,0,0,2,0,0	test	ward_and_allport	1,0,0,0,0,0,2,3,0	71.0	28.0	0.517	1,2,3,0,0,0,0,0,0	to_hand	s358
302.076	0.224	0	PA_with_intermediate	1,0,0,0,0,0,2,3,0	test	ward_and_allport	1,0,0,0,0,0,2,3,0	82.0	28.0	0.224	1,2,3,0,0,0,0,0,0	to_board	s358
302.309	1.0	0	PA_with_intermediate	n/a	test	ward_and_allport	n/a	-1.0	28.0	n/a	n/a	feedback	s358
303.309	1.816	0	PA_with_intermediate	n/a	test	ward_and_allport	n/a	-1.0	28.0	n/a	n/a	ITI	s358
305.131	1.618	1	PA_without_intermediate	0,0,0,0,0,0,1,2,0	test	ward_and_allport	2,0,0,3,1,0,0,0,0	82.0	29.0	1.618	0,0,0,0,0,0,1,2,3	to_hand	s358
306.751	1.122	0	PA_without_intermediate	0,0,0,3,0,0,1,2,0	test	ward_and_allport	2,0,0,3,1,0,0,0,0	71.0	29.0	1.122	0,0,0,0,0,0,1,2,3	to_board	s358
307.88	0.355	0	PA_without_intermediate	0,0,0,3,0,0,1,0,0	test	ward_and_allport	2,0,0,3,1,0,0,0,0	82.0	29.0	0.355	0,0,0,0,0,0,1,2,3	to_hand	s358
308.236	0.295	0	PA_without_intermediate	2,0,0,3,0,0,1,0,0	test	ward_and_allport	2,0,0,3,1,0,0,0,0	89.0	29.0	0.295	0,0,0,0,0,0,1,2,3	to_board	s358
308.538	0.374	0	PA_without_intermediate	2,0,0,3,0,0,0,0,0	test	ward_and_allport	2,0,0,3,1,0,0,0,0	82.0	29.0	0.374	0,0,0,0,0,0,1,2,3	to_hand	s358
308.914	0.309	0	PA_without_intermediate	2,0,0,3,1,0,0,0,0	test	ward_and_allport	2,0,0,3,1,0,0,0,0	71.0	29.0	0.309	0,0,0,0,0,0,1,2,3	to_board	s358
309.231	1.0	0	PA_without_intermediate	n/a	test	ward_and_allport	n/a	-1.0	29.0	n/a	n/a	feedback	s358
310.231	2.088	0	PA_without_intermediate	n/a	test	ward_and_allport	n/a	-1.0	29.0	n/a	n/a	ITI	s358
317.328	2.343	1	PA_without_intermediate	1,2,0,0,0,0,0,0,0	test	ward_and_allport	0,0,0,3,2,0,1,0,0	89.0	30.0	2.343	1,2,3,0,0,0,0,0,0	to_hand	s358
319.672	0.294	0	PA_without_intermediate	1,2,0,3,0,0,0,0,0	test	ward_and_allport	0,0,0,3,2,0,1,0,0	71.0	30.0	0.294	1,2,3,0,0,0,0,0,0	to_board	s358
319.974	0.354	0	PA_without_intermediate	1,0,0,3,0,0,0,0,0	test	ward_and_allport	0,0,0,3,2,0,1,0,0	89.0	30.0	0.354	1,2,3,0,0,0,0,0,0	to_hand	s358
320.329	0.306	0	PA_without_intermediate	1,0,0,3,2,0,0,0,0	test	ward_and_allport	0,0,0,3,2,0,1,0,0	71.0	30.0	0.306	1,2,3,0,0,0,0,0,0	to_board	s358
320.643	0.299	0	PA_without_intermediate	0,0,0,3,2,0,0,0,0	test	ward_and_allport	0,0,0,3,2,0,1,0,0	89.0	30.0	0.299	1,2,3,0,0,0,0,0,0	to_hand	s358
320.943	0.291	0	PA_without_intermediate	0,0,0,3,2,0,1,0,0	test	ward_and_allport	0,0,0,3,2,0,1,0,0	82.0	30.0	0.291	1,2,3,0,0,0,0,0,0	to_board	s358
321.241	1.0	0	PA_without_intermediate	n/a	test	ward_and_allport	n/a	-1.0	30.0	n/a	n/a	feedback	s358
322.241	1.136	0	PA_without_intermediate	n/a	test	ward_and_allport	n/a	-1.0	30.0	n/a	n/a	ITI	s358
323.384	2.22	1	PA_without_intermediate	0,0,0,0,0,0,1,2,0	test	ward_and_allport	3,2,0,1,0,0,0,0,0	82.0	31.0	2.22	0,0,0,0,0,0,1,2,3	to_hand	s358
325.604	0.384	0	PA_without_intermediate	3,0,0,0,0,0,1,2,0	test	ward_and_allport	3,2,0,1,0,0,0,0,0	89.0	31.0	0.384	0,0,0,0,0,0,1,2,3	to_board	s358
325.995	0.845	0	PA_without_intermediate	3,0,0,0,0,0,1,0,0	test	ward_and_allport	3,2,0,1,0,0,0,0,0	82.0	31.0	0.845	0,0,0,0,0,0,1,2,3	to_hand	s358
326.841	0.542	0	PA_without_intermediate	3,2,0,0,0,0,1,0,0	test	ward_and_allport	3,2,0,1,0,0,0,0,0	89.0	31.0	0.542	0,0,0,0,0,0,1,2,3	to_board	s358
327.39	0.902	0	PA_without_intermediate	3,2,0,0,0,0,0,0,0	test	ward_and_allport	3,2,0,1,0,0,0,0,0	82.0	31.0	0.902	0,0,0,0,0,0,1,2,3	to_hand	s358
328.293	0.197	0	PA_without_intermediate	3,2,0,1,0,0,0,0,0	test	ward_and_allport	3,2,0,1,0,0,0,0,0	71.0	31.0	0.197	0,0,0,0,0,0,1,2,3	to_board	s358
328.501	1.0	0	PA_without_intermediate	n/a	test	ward_and_allport	n/a	-1.0	31.0	n/a	n/a	feedback	s358
329.501	6.168	0	PA_without_intermediate	n/a	test	ward_and_allport	n/a	-1.0	31.0	n/a	n/a	ITI	s358
335.68	2.406	1	PA_without_intermediate	0,0,0,1,2,0,0,0,0	test	ward_and_allport	3,1,0,0,0,0,2,0,0	71.0	32.0	2.406	0,0,0,1,2,3,0,0,0	to_hand	s358
338.088	0.19	0	PA_without_intermediate	3,0,0,1,2,0,0,0,0	test	ward_and_allport	3,1,0,0,0,0,2,0,0	89.0	32.0	0.19	0,0,0,1,2,3,0,0,0	to_board	s358
338.286	0.385	0	PA_without_intermediate	3,0,0,1,0,0,0,0,0	test	ward_and_allport	3,1,0,0,0,0,2,0,0	71.0	32.0	0.385	0,0,0,1,2,3,0,0,0	to_hand	s358
338.671	0.195	0	PA_without_intermediate	3,0,0,1,0,0,2,0,0	test	ward_and_allport	3,1,0,0,0,0,2,0,0	82.0	32.0	0.195	0,0,0,1,2,3,0,0,0	to_board	s358
338.875	0.339	0	PA_without_intermediate	3,0,0,0,0,0,2,0,0	test	ward_and_allport	3,1,0,0,0,0,2,0,0	71.0	32.0	0.339	0,0,0,1,2,3,0,0,0	to_hand	s358
339.214	0.143	0	PA_without_intermediate	3,1,0,0,0,0,2,0,0	test	ward_and_allport	3,1,0,0,0,0,2,0,0	89.0	32.0	0.143	0,0,0,1,2,3,0,0,0	to_board	s358
339.367	1.0	0	PA_without_intermediate	n/a	test	ward_and_allport	n/a	-1.0	32.0	n/a	n/a	feedback	s358
340.367	1.816	0	PA_without_intermediate	n/a	test	ward_and_allport	n/a	-1.0	32.0	n/a	n/a	ITI	s358
342.191	2.798	1	PA_with_intermediate	0,0,0,1,2,0,0,0,0	test	ward_and_allport	0,0,0,1,3,0,2,0,0	71.0	33.0	2.798	0,0,0,1,2,3,0,0,0	to_hand	s358
344.991	0.256	0	PA_with_intermediate	3,0,0,1,2,0,0,0,0	test	ward_and_allport	0,0,0,1,3,0,2,0,0	89.0	33.0	0.256	0,0,0,1,2,3,0,0,0	to_board	s358
345.255	0.31	0	PA_with_intermediate	3,0,0,1,0,0,0,0,0	test	ward_and_allport	0,0,0,1,3,0,2,0,0	71.0	33.0	0.31	0,0,0,1,2,3,0,0,0	to_hand	s358
345.567	0.219	0	PA_with_intermediate	3,0,0,1,0,0,2,0,0	test	ward_and_allport	0,0,0,1,3,0,2,0,0	82.0	33.0	0.219	0,0,0,1,2,3,0,0,0	to_board	s358
345.795	0.345	0	PA_with_intermediate	0,0,0,1,0,0,2,0,0	test	ward_and_allport	0,0,0,1,3,0,2,0,0	89.0	33.0	0.345	0,0,0,1,2,3,0,0,0	to_hand	s358
346.141	0.207	0	PA_with_intermediate	0,0,0,1,3,0,2,0,0	test	ward_and_allport	0,0,0,1,3,0,2,0,0	71.0	33.0	0.207	0,0,0,1,2,3,0,0,0	to_board	s358
346.357	1.0	0	PA_with_intermediate	n/a	test	ward_and_allport	n/a	-1.0	33.0	n/a	n/a	feedback	s358
347.357	1.952	0	PA_with_intermediate	n/a	test	ward_and_allport	n/a	-1.0	33.0	n/a	n/a	ITI	s358
349.315	2.889	1	PA_with_intermediate	1,2,0,0,0,0,0,0,0	test	ward_and_allport	1,3,0,2,0,0,0,0,0	89.0	34.0	2.889	1,2,3,0,0,0,0,0,0	to_hand	s358
352.205	0.268	0	PA_with_intermediate	1,2,0,0,0,0,3,0,0	test	ward_and_allport	1,3,0,2,0,0,0,0,0	82.0	34.0	0.268	1,2,3,0,0,0,0,0,0	to_board	s358
352.48	1.561	0	PA_with_intermediate	1,0,0,0,0,0,3,0,0	test	ward_and_allport	1,3,0,2,0,0,0,0,0	89.0	34.0	1.561	1,2,3,0,0,0,0,0,0	to_hand	s358
354.041	0.18	0	PA_with_intermediate	1,0,0,2,0,0,3,0,0	test	ward_and_allport	1,3,0,2,0,0,0,0,0	71.0	34.0	0.18	1,2,3,0,0,0,0,0,0	to_board	s358
354.229	0.388	0	PA_with_intermediate	1,0,0,2,0,0,0,0,0	test	ward_and_allport	1,3,0,2,0,0,0,0,0	82.0	34.0	0.388	1,2,3,0,0,0,0,0,0	to_hand	s358
354.617	0.112	0	PA_with_intermediate	1,3,0,2,0,0,0,0,0	test	ward_and_allport	1,3,0,2,0,0,0,0,0	89.0	34.0	0.112	1,2,3,0,0,0,0,0,0	to_board	s358
354.74	1.0	0	PA_with_intermediate	n/a	test	ward_and_allport	n/a	-1.0	34.0	n/a	n/a	feedback	s358
355.74	1.136	0	PA_with_intermediate	n/a	test	ward_and_allport	n/a	-1.0	34.0	n/a	n/a	ITI	s358
356.885	3.01	1	PA_without_intermediate	0,0,0,1,2,0,0,0,0	test	ward_and_allport	3,2,0,0,0,0,1,0,0	71.0	35.0	3.01	0,0,0,1,2,3,0,0,0	to_hand	s358
359.895	0.428	0	PA_without_intermediate	3,0,0,1,2,0,0,0,0	test	ward_and_allport	3,2,0,0,0,0,1,0,0	89.0	35.0	0.428	0,0,0,1,2,3,0,0,0	to_board	s358
360.331	0.352	0	PA_without_intermediate	3,0,0,1,0,0,0,0,0	test	ward_and_allport	3,2,0,0,0,0,1,0,0	71.0	35.0	0.352	0,0,0,1,2,3,0,0,0	to_hand	s358
360.683	1.101	0	PA_without_intermediate	3,2,0,1,0,0,0,0,0	test	ward_and_allport	3,2,0,0,0,0,1,0,0	89.0	35.0	1.101	0,0,0,1,2,3,0,0,0	to_board	s358
361.794	0.925	0	PA_without_intermediate	3,2,0,0,0,0,0,0,0	test	ward_and_allport	3,2,0,0,0,0,1,0,0	71.0	35.0	0.925	0,0,0,1,2,3,0,0,0	to_hand	s358
362.72	0.144	0	PA_without_intermediate	3,2,0,0,0,0,1,0,0	test	ward_and_allport	3,2,0,0,0,0,1,0,0	82.0	35.0	0.144	0,0,0,1,2,3,0,0,0	to_board	s358
362.875	1.0	0	PA_without_intermediate	n/a	test	ward_and_allport	n/a	-1.0	35.0	n/a	n/a	feedback	s358
363.875	1.68	0	PA_without_intermediate	n/a	test	ward_and_allport	n/a	-1.0	35.0	n/a	n/a	ITI	s358
365.563	2.26	1	PA_without_intermediate	1,2,0,0,0,0,0,0,0	test	ward_and_allport	0,0,0,3,1,0,2,0,0	89.0	36.0	2.26	1,2,3,0,0,0,0,0,0	to_hand	s358
367.824	1.105	0	PA_without_intermediate	1,2,0,3,0,0,0,0,0	test	ward_and_allport	0,0,0,3,1,0,2,0,0	71.0	36.0	1.105	1,2,3,0,0,0,0,0,0	to_board	s358
368.935	0.488	0	PA_without_intermediate	1,0,0,3,0,0,0,0,0	test	ward_and_allport	0,0,0,3,1,0,2,0,0	89.0	36.0	0.488	1,2,3,0,0,0,0,0,0	to_hand	s358
369.423	0.356	0	PA_without_intermediate	1,0,0,3,0,0,2,0,0	test	ward_and_allport	0,0,0,3,1,0,2,0,0	82.0	36.0	0.356	1,2,3,0,0,0,0,0,0	to_board	s358
369.787	0.461	0	PA_without_intermediate	0,0,0,3,0,0,2,0,0	test	ward_and_allport	0,0,0,3,1,0,2,0,0	89.0	36.0	0.461	1,2,3,0,0,0,0,0,0	to_hand	s358
370.249	0.293	0	PA_without_intermediate	0,0,0,3,1,0,2,0,0	test	ward_and_allport	0,0,0,3,1,0,2,0,0	71.0	36.0	0.293	1,2,3,0,0,0,0,0,0	to_board	s358
370.553	1.0	0	PA_without_intermediate	n/a	test	ward_and_allport	n/a	-1.0	36.0	n/a	n/a	feedback	s358
371.553	2.088	0	PA_without_intermediate	n/a	test	ward_and_allport	n/a	-1.0	36.0	n/a	n/a	ITI	s358
373.649	2.79	1	PA_with_intermediate	1,2,0,0,0,0,0,0,0	test	ward_and_allport	1,0,0,0,0,0,2,3,0	89.0	37.0	2.79	1,2,3,0,0,0,0,0,0	to_hand	s358
376.44	0.169	0	PA_with_intermediate	1,2,0,3,0,0,0,0,0	test	ward_and_allport	1,0,0,0,0,0,2,3,0	71.0	37.0	0.169	1,2,3,0,0,0,0,0,0	to_board	s358
376.616	0.401	0	PA_with_intermediate	1,0,0,3,0,0,0,0,0	test	ward_and_allport	1,0,0,0,0,0,2,3,0	89.0	37.0	0.401	1,2,3,0,0,0,0,0,0	to_hand	s358
377.018	0.229	0	PA_with_intermediate	1,0,0,3,0,0,2,0,0	test	ward_and_allport	1,0,0,0,0,0,2,3,0	82.0	37.0	0.229	1,2,3,0,0,0,0,0,0	to_board	s358
377.255	0.953	0	PA_with_intermediate	1,0,0,0,0,0,2,0,0	test	ward_and_allport	1,0,0,0,0,0,2,3,0	71.0	37.0	0.953	1,2,3,0,0,0,0,0,0	to_hand	s358
378.21	0.118	0	PA_with_intermediate	1,0,0,0,0,0,2,3,0	test	ward_and_allport	1,0,0,0,0,0,2,3,0	82.0	37.0	0.118	1,2,3,0,0,0,0,0,0	to_board	s358
378.339	1.0	0	PA_with_intermediate	n/a	test	ward_and_allport	n/a	-1.0	37.0	n/a	n/a	feedback	s358
379.339	1.0	0	PA_with_intermediate	n/a	test	ward_and_allport	n/a	-1.0	37.0	n/a	n/a	ITI	s358
380.346	1.119	1	PA_without_intermediate	1,2,0,0,0,0,0,0,0	test	ward_and_allport	0,0,0,1,0,0,3,2,0	89.0	38.0	1.119	1,2,3,0,0,0,0,0,0	to_hand	s358
381.466	0.526	0	PA_without_intermediate	1,2,0,0,0,0,3,0,0	test	ward_and_allport	0,0,0,1,0,0,3,2,0	82.0	38.0	0.526	1,2,3,0,0,0,0,0,0	to_board	s358
382.0	0.349	0	PA_without_intermediate	1,0,0,0,0,0,3,0,0	test	ward_and_allport	0,0,0,1,0,0,3,2,0	89.0	38.0	0.349	1,2,3,0,0,0,0,0,0	to_hand	s358
382.35	0.814	0	PA_without_intermediate	1,0,0,0,0,0,3,2,0	test	ward_and_allport	0,0,0,1,0,0,3,2,0	82.0	38.0	0.814	1,2,3,0,0,0,0,0,0	to_board	s358
383.172	0.246	0	PA_without_intermediate	0,0,0,0,0,0,3,2,0	test	ward_and_allport	0,0,0,1,0,0,3,2,0	89.0	38.0	0.246	1,2,3,0,0,0,0,0,0	to_hand	s358
383.418	0.151	0	PA_without_intermediate	0,0,0,1,0,0,3,2,0	test	ward_and_allport	0,0,0,1,0,0,3,2,0	71.0	38.0	0.151	1,2,3,0,0,0,0,0,0	to_board	s358
383.58	1.0	0	PA_without_intermediate	n/a	test	ward_and_allport	n/a	-1.0	38.0	n/a	n/a	feedback	s358
384.58	1.0	0	PA_without_intermediate	n/a	test	ward_and_allport	n/a	-1.0	38.0	n/a	n/a	ITI	s358
385.588	1.322	1	PA_without_intermediate	1,2,0,0,0,0,0,0,0	test	ward_and_allport	0,0,0,1,0,0,3,2,0	89.0	39.0	1.322	1,2,3,0,0,0,0,0,0	to_hand	s358
386.911	0.172	0	PA_without_intermediate	1,2,0,0,0,0,3,0,0	test	ward_and_allport	0,0,0,1,0,0,3,2,0	82.0	39.0	0.172	1,2,3,0,0,0,0,0,0	to_board	s358
387.09	2.02	0	PA_without_intermediate	1,0,0,0,0,0,3,0,0	test	ward_and_allport	0,0,0,1,0,0,3,2,0	89.0	39.0	2.02	1,2,3,0,0,0,0,0,0	to_hand	s358
389.11	0.163	0	PA_without_intermediate	1,0,0,0,0,0,3,2,0	test	ward_and_allport	0,0,0,1,0,0,3,2,0	82.0	39.0	0.163	1,2,3,0,0,0,0,0,0	to_board	s358
389.281	0.383	0	PA_without_intermediate	0,0,0,0,0,0,3,2,0	test	ward_and_allport	0,0,0,1,0,0,3,2,0	89.0	39.0	0.383	1,2,3,0,0,0,0,0,0	to_hand	s358
389.665	0.117	0	PA_without_intermediate	0,0,0,1,0,0,3,2,0	test	ward_and_allport	0,0,0,1,0,0,3,2,0	71.0	39.0	0.117	1,2,3,0,0,0,0,0,0	to_board	s358
389.791	1.0	0	PA_without_intermediate	n/a	test	ward_and_allport	n/a	-1.0	39.0	n/a	n/a	feedback	s358
390.791	1.0	0	PA_without_intermediate	n/a	test	ward_and_allport	n/a	-1.0	39.0	n/a	n/a	ITI	s358
391.798	2.445	1	PA_with_intermediate	0,0,0,1,2,0,0,0,0	test	ward_and_allport	0,0,0,1,0,0,2,3,0	71.0	40.0	2.445	0,0,0,1,2,3,0,0,0	to_hand	s358
394.243	0.197	0	PA_with_intermediate	3,0,0,1,2,0,0,0,0	test	ward_and_allport	0,0,0,1,0,0,2,3,0	89.0	40.0	0.197	0,0,0,1,2,3,0,0,0	to_board	s358
394.447	1.423	0	PA_with_intermediate	3,0,0,1,0,0,0,0,0	test	ward_and_allport	0,0,0,1,0,0,2,3,0	71.0	40.0	1.423	0,0,0,1,2,3,0,0,0	to_hand	s358
395.87	0.599	0	PA_with_intermediate	3,0,0,1,0,0,2,0,0	test	ward_and_allport	0,0,0,1,0,0,2,3,0	82.0	40.0	0.599	0,0,0,1,2,3,0,0,0	to_board	s358
396.478	0.236	0	PA_with_intermediate	0,0,0,1,0,0,2,0,0	test	ward_and_allport	0,0,0,1,0,0,2,3,0	89.0	40.0	0.236	0,0,0,1,2,3,0,0,0	to_hand	s358
396.715	0.133	0	PA_with_intermediate	0,0,0,1,0,0,2,3,0	test	ward_and_allport	0,0,0,1,0,0,2,3,0	82.0	40.0	0.133	0,0,0,1,2,3,0,0,0	to_board	s358
396.86	1.0	0	PA_with_intermediate	n/a	test	ward_and_allport	n/a	-1.0	40.0	n/a	n/a	feedback	s358
397.86	1.544	0	PA_with_intermediate	n/a	test	ward_and_allport	n/a	-1.0	40.0	n/a	n/a	ITI	s358
399.413	1.742	1	PA_without_intermediate	0,0,0,0,0,0,1,2,0	test	ward_and_allport	3,1,0,2,0,0,0,0,0	82.0	41.0	1.742	0,0,0,0,0,0,1,2,3	to_hand	s358
401.156	1.122	0	PA_without_intermediate	3,0,0,0,0,0,1,2,0	test	ward_and_allport	3,1,0,2,0,0,0,0,0	89.0	41.0	1.122	0,0,0,0,0,0,1,2,3	to_board	s358
402.284	0.641	0	PA_without_intermediate	3,0,0,0,0,0,1,0,0	test	ward_and_allport	3,1,0,2,0,0,0,0,0	82.0	41.0	0.641	0,0,0,0,0,0,1,2,3	to_hand	s358
402.926	0.354	0	PA_without_intermediate	3,0,0,2,0,0,1,0,0	test	ward_and_allport	3,1,0,2,0,0,0,0,0	71.0	41.0	0.354	0,0,0,0,0,0,1,2,3	to_board	s358
403.287	0.388	0	PA_without_intermediate	3,0,0,2,0,0,0,0,0	test	ward_and_allport	3,1,0,2,0,0,0,0,0	82.0	41.0	0.388	0,0,0,0,0,0,1,2,3	to_hand	s358
403.676	0.345	0	PA_without_intermediate	3,1,0,2,0,0,0,0,0	test	ward_and_allport	3,1,0,2,0,0,0,0,0	89.0	41.0	0.345	0,0,0,0,0,0,1,2,3	to_board	s358
404.03	1.0	0	PA_without_intermediate	n/a	test	ward_and_allport	n/a	-1.0	41.0	n/a	n/a	feedback	s358
405.03	1.272	0	PA_without_intermediate	n/a	test	ward_and_allport	n/a	-1.0	41.0	n/a	n/a	ITI	s358
406.31	2.186	1	PA_with_intermediate	0,0,0,1,2,0,0,0,0	test	ward_and_allport	2,0,0,1,3,0,0,0,0	71.0	42.0	2.186	0,0,0,1,2,3,0,0,0	to_hand	s358
408.496	0.679	0	PA_with_intermediate	0,0,0,1,2,0,3,0,0	test	ward_and_allport	2,0,0,1,3,0,0,0,0	82.0	42.0	0.679	0,0,0,1,2,3,0,0,0	to_board	s358
409.182	0.979	0	PA_with_intermediate	0,0,0,1,0,0,3,0,0	test	ward_and_allport	2,0,0,1,3,0,0,0,0	71.0	42.0	0.979	0,0,0,1,2,3,0,0,0	to_hand	s358
410.161	0.143	0	PA_with_intermediate	2,0,0,1,0,0,3,0,0	test	ward_and_allport	2,0,0,1,3,0,0,0,0	89.0	42.0	0.143	0,0,0,1,2,3,0,0,0	to_board	s358
410.312	0.397	0	PA_with_intermediate	2,0,0,1,0,0,0,0,0	test	ward_and_allport	2,0,0,1,3,0,0,0,0	82.0	42.0	0.397	0,0,0,1,2,3,0,0,0	to_hand	s358
410.71	0.065	0	PA_with_intermediate	2,3,0,1,0,0,0,0,0	test	ward_and_allport	2,0,0,1,3,0,0,0,0	89.0	42.0	0.065	0,0,0,1,2,3,0,0,0	to_board	s358
410.782	0.955	0	PA_with_intermediate	2,3,0,0,0,0,0,0,0	test	ward_and_allport	2,0,0,1,3,0,0,0,0	71.0	42.0	0.955	0,0,0,1,2,3,0,0,0	to_hand	s358
411.738	0.185	0	PA_with_intermediate	2,3,0,0,0,0,1,0,0	test	ward_and_allport	2,0,0,1,3,0,0,0,0	82.0	42.0	0.185	0,0,0,1,2,3,0,0,0	to_board	s358
411.93	1.045	0	PA_with_intermediate	2,3,0,0,0,0,0,0,0	test	ward_and_allport	2,0,0,1,3,0,0,0,0	82.0	42.0	1.045	0,0,0,1,2,3,0,0,0	to_hand	s358
412.977	0.374	0	PA_with_intermediate	2,3,0,1,0,0,0,0,0	test	ward_and_allport	2,0,0,1,3,0,0,0,0	71.0	42.0	0.374	0,0,0,1,2,3,0,0,0	to_board	s358
413.357	0.61	0	PA_with_intermediate	2,0,0,1,0,0,0,0,0	test	ward_and_allport	2,0,0,1,3,0,0,0,0	89.0	42.0	0.61	0,0,0,1,2,3,0,0,0	to_hand	s358
413.968	0.88	0	PA_with_intermediate	2,0,0,1,3,0,0,0,0	test	ward_and_allport	2,0,0,1,3,0,0,0,0	71.0	42.0	0.88	0,0,0,1,2,3,0,0,0	to_board	s358
414.856	1.0	0	PA_with_intermediate	n/a	test	ward_and_allport	n/a	-1.0	42.0	n/a	n/a	feedback	s358
415.856	3.04	0	PA_with_intermediate	n/a	test	ward_and_allport	n/a	-1.0	42.0	n/a	n/a	ITI	s358
418.902	2.712	1	PA_with_intermediate	1,2,0,0,0,0,0,0,0	test	ward_and_allport	1,0,0,2,3,0,0,0,0	89.0	43.0	2.712	1,2,3,0,0,0,0,0,0	to_hand	s358
421.614	0.617	0	PA_with_intermediate	1,2,0,0,0,0,3,0,0	test	ward_and_allport	1,0,0,2,3,0,0,0,0	82.0	43.0	0.617	1,2,3,0,0,0,0,0,0	to_board	s358
422.238	0.385	0	PA_with_intermediate	1,0,0,0,0,0,3,0,0	test	ward_and_allport	1,0,0,2,3,0,0,0,0	89.0	43.0	0.385	1,2,3,0,0,0,0,0,0	to_hand	s358
422.623	0.274	0	PA_with_intermediate	1,0,0,2,0,0,3,0,0	test	ward_and_allport	1,0,0,2,3,0,0,0,0	71.0	43.0	0.274	1,2,3,0,0,0,0,0,0	to_board	s358
422.907	0.278	0	PA_with_intermediate	1,0,0,2,0,0,0,0,0	test	ward_and_allport	1,0,0,2,3,0,0,0,0	82.0	43.0	0.278	1,2,3,0,0,0,0,0,0	to_hand	s358
423.185	0.299	0	PA_with_intermediate	1,0,0,2,3,0,0,0,0	test	ward_and_allport	1,0,0,2,3,0,0,0,0	71.0	43.0	0.299	1,2,3,0,0,0,0,0,0	to_board	s358
423.495	1.0	0	PA_with_intermediate	n/a	test	ward_and_allport	n/a	-1.0	43.0	n/a	n/a	feedback	s358
424.495	1.272	0	PA_with_intermediate	n/a	test	ward_and_allport	n/a	-1.0	43.0	n/a	n/a	ITI	s358
425.777	1.58	1	PA_with_intermediate	0,0,0,1,2,0,0,0,0	test	ward_and_allport	0,0,0,1,0,0,2,3,0	71.0	44.0	1.58	0,0,0,1,2,3,0,0,0	to_hand	s358
427.358	0.297	0	PA_with_intermediate	3,0,0,1,2,0,0,0,0	test	ward_and_allport	0,0,0,1,0,0,2,3,0	89.0	44.0	0.297	0,0,0,1,2,3,0,0,0	to_board	s358
427.662	0.297	0	PA_with_intermediate	3,0,0,1,0,0,0,0,0	test	ward_and_allport	0,0,0,1,0,0,2,3,0	71.0	44.0	0.297	0,0,0,1,2,3,0,0,0	to_hand	s358
427.96	0.367	0	PA_with_intermediate	3,0,0,1,0,0,2,0,0	test	ward_and_allport	0,0,0,1,0,0,2,3,0	82.0	44.0	0.367	0,0,0,1,2,3,0,0,0	to_board	s358
428.335	0.349	0	PA_with_intermediate	0,0,0,1,0,0,2,0,0	test	ward_and_allport	0,0,0,1,0,0,2,3,0	89.0	44.0	0.349	0,0,0,1,2,3,0,0,0	to_hand	s358
428.685	0.351	0	PA_with_intermediate	0,0,0,1,0,0,2,3,0	test	ward_and_allport	0,0,0,1,0,0,2,3,0	82.0	44.0	0.351	0,0,0,1,2,3,0,0,0	to_board	s358
429.045	1.0	0	PA_with_intermediate	n/a	test	ward_and_allport	n/a	-1.0	44.0	n/a	n/a	feedback	s358
430.045	1.136	0	PA_with_intermediate	n/a	test	ward_and_allport	n/a	-1.0	44.0	n/a	n/a	ITI	s358
436.195	4.852	1	PA_with_intermediate	0,0,0,1,2,0,0,0,0	test	ward_and_allport	2,0,0,1,3,0,0,0,0	71.0	45.0	4.852	0,0,0,1,2,3,0,0,0	to_hand	s358
441.048	0.63	0	PA_with_intermediate	0,0,0,1,2,0,3,0,0	test	ward_and_allport	2,0,0,1,3,0,0,0,0	82.0	45.0	0.63	0,0,0,1,2,3,0,0,0	to_board	s358
441.689	0.325	0	PA_with_intermediate	0,0,0,1,0,0,3,0,0	test	ward_and_allport	2,0,0,1,3,0,0,0,0	71.0	45.0	0.325	0,0,0,1,2,3,0,0,0	to_hand	s358
442.014	0.284	0	PA_with_intermediate	2,0,0,1,0,0,3,0,0	test	ward_and_allport	2,0,0,1,3,0,0,0,0	89.0	45.0	0.284	0,0,0,1,2,3,0,0,0	to_board	s358
442.311	0.299	0	PA_with_intermediate	2,0,0,1,0,0,0,0,0	test	ward_and_allport	2,0,0,1,3,0,0,0,0	82.0	45.0	0.299	0,0,0,1,2,3,0,0,0	to_hand	s358
442.61	0.25	0	PA_with_intermediate	2,0,0,1,3,0,0,0,0	test	ward_and_allport	2,0,0,1,3,0,0,0,0	71.0	45.0	0.25	0,0,0,1,2,3,0,0,0	to_board	s358
442.872	1.0	0	PA_with_intermediate	n/a	test	ward_and_allport	n/a	-1.0	45.0	n/a	n/a	feedback	s358
443.872	1.0	0	PA_with_intermediate	n/a	test	ward_and_allport	n/a	-1.0	45.0	n/a	n/a	ITI	s358
444.879	1.605	1	PA_with_intermediate	0,0,0,1,2,0,0,0,0	test	ward_and_allport	2,3,0,1,0,0,0,0,0	71.0	46.0	1.605	0,0,0,1,2,3,0,0,0	to_hand	s358
446.484	0.359	0	PA_with_intermediate	0,0,0,1,2,0,3,0,0	test	ward_and_allport	2,3,0,1,0,0,0,0,0	82.0	46.0	0.359	0,0,0,1,2,3,0,0,0	to_board	s358
446.851	0.283	0	PA_with_intermediate	0,0,0,1,0,0,3,0,0	test	ward_and_allport	2,3,0,1,0,0,0,0,0	71.0	46.0	0.283	0,0,0,1,2,3,0,0,0	to_hand	s358
447.135	0.305	0	PA_with_intermediate	2,0,0,1,0,0,3,0,0	test	ward_and_allport	2,3,0,1,0,0,0,0,0	89.0	46.0	0.305	0,0,0,1,2,3,0,0,0	to_board	s358
447.447	0.779	0	PA_with_intermediate	2,0,0,1,0,0,0,0,0	test	ward_and_allport	2,3,0,1,0,0,0,0,0	82.0	46.0	0.779	0,0,0,1,2,3,0,0,0	to_hand	s358
448.227	0.238	0	PA_with_intermediate	2,3,0,1,0,0,0,0,0	test	ward_and_allport	2,3,0,1,0,0,0,0,0	89.0	46.0	0.238	0,0,0,1,2,3,0,0,0	to_board	s358
448.473	1.0	0	PA_with_intermediate	n/a	test	ward_and_allport	n/a	-1.0	46.0	n/a	n/a	feedback	s358
449.473	1.0	0	PA_with_intermediate	n/a	test	ward_and_allport	n/a	-1.0	46.0	n/a	n/a	ITI	s358
450.483	2.563	1	PA_without_intermediate	0,0,0,0,0,0,1,2,0	test	ward_and_allport	1,0,0,3,2,0,0,0,0	82.0	47.0	2.563	0,0,0,0,0,0,1,2,3	to_hand	s358
453.046	0.525	0	PA_without_intermediate	0,0,0,3,0,0,1,2,0	test	ward_and_allport	1,0,0,3,2,0,0,0,0	71.0	47.0	0.525	0,0,0,0,0,0,1,2,3	to_board	s358
453.578	0.734	0	PA_without_intermediate	0,0,0,3,0,0,1,0,0	test	ward_and_allport	1,0,0,3,2,0,0,0,0	82.0	47.0	0.734	0,0,0,0,0,0,1,2,3	to_hand	s358
454.313	0.292	0	PA_without_intermediate	0,0,0,3,2,0,1,0,0	test	ward_and_allport	1,0,0,3,2,0,0,0,0	71.0	47.0	0.292	0,0,0,0,0,0,1,2,3	to_board	s358
454.616	0.251	0	PA_without_intermediate	0,0,0,3,2,0,0,0,0	test	ward_and_allport	1,0,0,3,2,0,0,0,0	82.0	47.0	0.251	0,0,0,0,0,0,1,2,3	to_hand	s358
454.868	0.189	0	PA_without_intermediate	1,0,0,3,2,0,0,0,0	test	ward_and_allport	1,0,0,3,2,0,0,0,0	89.0	47.0	0.189	0,0,0,0,0,0,1,2,3	to_board	s358
455.067	1.0	0	PA_without_intermediate	n/a	test	ward_and_allport	n/a	-1.0	47.0	n/a	n/a	feedback	s358
456.067	1.408	0	PA_without_intermediate	n/a	test	ward_and_allport	n/a	-1.0	47.0	n/a	n/a	ITI	s358
n/a	n/a	0	n/a	n/a	n/a	n/a	n/a	n/a	n/a	n/a	n/a	ITI	n/a
