onset	duration	planning	condition	current_position	exp_stage	experiment_exp_id	goal_state	key_press	problem_id	response_time	start_state	trial_id	worker_id
-55.458	0.0	0	n/a	n/a	n/a	ward_and_allport	n/a	32.0	n/a	19.626	n/a	instructions	s591
3.013	5.225	1	UA_with_intermediate	1,0,0,2,0,0,0,0,0	practice	ward_and_allport	1,2,3,0,0,0,0,0,0	71.0	0.0	5.225	1,0,0,2,3,0,0,0,0	to_hand	s591
8.24	2.386	0	UA_with_intermediate	1,0,0,2,0,0,3,0,0	practice	ward_and_allport	1,2,3,0,0,0,0,0,0	82.0	0.0	2.386	1,0,0,2,3,0,0,0,0	to_board	s591
10.629	0.669	0	UA_with_intermediate	1,0,0,0,0,0,3,0,0	practice	ward_and_allport	1,2,3,0,0,0,0,0,0	71.0	0.0	0.669	1,0,0,2,3,0,0,0,0	to_hand	s591
11.3	0.438	0	UA_with_intermediate	1,2,0,0,0,0,3,0,0	practice	ward_and_allport	1,2,3,0,0,0,0,0,0	89.0	0.0	0.438	1,0,0,2,3,0,0,0,0	to_board	s591
11.74	1.3	0	UA_with_intermediate	1,2,0,0,0,0,0,0,0	practice	ward_and_allport	1,2,3,0,0,0,0,0,0	82.0	0.0	1.3	1,0,0,2,3,0,0,0,0	to_hand	s591
13.042	0.832	0	UA_with_intermediate	1,2,3,0,0,0,0,0,0	practice	ward_and_allport	1,2,3,0,0,0,0,0,0	89.0	0.0	0.832	1,0,0,2,3,0,0,0,0	to_board	s591
13.88	1.0	0	UA_with_intermediate	n/a	practice	ward_and_allport	n/a	-1.0	0.0	n/a	n/a	feedback	s591
16.382	2.792	1	UA_with_intermediate	1,0,0,3,0,0,0,0,0	practice	ward_and_allport	1,3,2,0,0,0,0,0,0	89.0	1.0	2.792	1,2,0,3,0,0,0,0,0	to_hand	s591
19.175	1.443	0	UA_with_intermediate	1,0,0,3,0,0,2,0,0	practice	ward_and_allport	1,3,2,0,0,0,0,0,0	82.0	1.0	1.443	1,2,0,3,0,0,0,0,0	to_board	s591
20.621	0.463	0	UA_with_intermediate	1,0,0,0,0,0,2,0,0	practice	ward_and_allport	1,3,2,0,0,0,0,0,0	71.0	1.0	0.463	1,2,0,3,0,0,0,0,0	to_hand	s591
21.084	0.395	0	UA_with_intermediate	1,3,0,0,0,0,2,0,0	practice	ward_and_allport	1,3,2,0,0,0,0,0,0	89.0	1.0	0.395	1,2,0,3,0,0,0,0,0	to_board	s591
21.48	0.621	0	UA_with_intermediate	1,3,0,0,0,0,0,0,0	practice	ward_and_allport	1,3,2,0,0,0,0,0,0	82.0	1.0	0.621	1,2,0,3,0,0,0,0,0	to_hand	s591
22.102	0.597	0	UA_with_intermediate	1,3,2,0,0,0,0,0,0	practice	ward_and_allport	1,3,2,0,0,0,0,0,0	89.0	1.0	0.597	1,2,0,3,0,0,0,0,0	to_board	s591
22.703	1.0	0	UA_with_intermediate	n/a	practice	ward_and_allport	n/a	-1.0	1.0	n/a	n/a	feedback	s591
23.703	1.1	0	UA_with_intermediate	n/a	practice	ward_and_allport	n/a	-1.0	1.0	n/a	n/a	ITI	s591
24.805	2.969	1	UA_without_intermediate	0,0,0,1,2,0,0,0,0	practice	ward_and_allport	3,2,1,0,0,0,0,0,0	82.0	2.0	2.969	0,0,0,1,2,0,3,0,0	to_hand	s591
27.775	0.487	0	UA_without_intermediate	3,0,0,1,2,0,0,0,0	practice	ward_and_allport	3,2,1,0,0,0,0,0,0	89.0	2.0	0.487	0,0,0,1,2,0,3,0,0	to_board	s591
28.264	1.653	0	UA_without_intermediate	3,0,0,1,0,0,0,0,0	practice	ward_and_allport	3,2,1,0,0,0,0,0,0	71.0	2.0	1.653	0,0,0,1,2,0,3,0,0	to_hand	s591
29.918	0.322	0	UA_without_intermediate	3,2,0,1,0,0,0,0,0	practice	ward_and_allport	3,2,1,0,0,0,0,0,0	89.0	2.0	0.322	0,0,0,1,2,0,3,0,0	to_board	s591
30.243	0.491	0	UA_without_intermediate	3,2,0,0,0,0,0,0,0	practice	ward_and_allport	3,2,1,0,0,0,0,0,0	71.0	2.0	0.491	0,0,0,1,2,0,3,0,0	to_hand	s591
30.735	0.316	0	UA_without_intermediate	3,2,1,0,0,0,0,0,0	practice	ward_and_allport	3,2,1,0,0,0,0,0,0	89.0	2.0	0.316	0,0,0,1,2,0,3,0,0	to_board	s591
31.054	1.0	0	UA_without_intermediate	n/a	practice	ward_and_allport	n/a	-1.0	2.0	n/a	n/a	feedback	s591
32.054	1.2	0	UA_without_intermediate	n/a	practice	ward_and_allport	n/a	-1.0	2.0	n/a	n/a	ITI	s591
33.256	2.166	1	UA_without_intermediate	0,0,0,1,0,0,3,0,0	practice	ward_and_allport	2,3,1,0,0,0,0,0,0	71.0	3.0	2.166	0,0,0,1,2,0,3,0,0	to_hand	s591
35.424	0.376	0	UA_without_intermediate	2,0,0,1,0,0,3,0,0	practice	ward_and_allport	2,3,1,0,0,0,0,0,0	89.0	3.0	0.376	0,0,0,1,2,0,3,0,0	to_board	s591
35.802	0.951	0	UA_without_intermediate	2,0,0,0,0,0,3,0,0	practice	ward_and_allport	2,3,1,0,0,0,0,0,0	71.0	3.0	0.951	0,0,0,1,2,0,3,0,0	to_hand	s591
36.754	0.298	0	UA_without_intermediate	2,1,0,0,0,0,3,0,0	practice	ward_and_allport	2,3,1,0,0,0,0,0,0	89.0	3.0	0.298	0,0,0,1,2,0,3,0,0	to_board	s591
37.054	0.695	0	UA_without_intermediate	2,1,0,0,0,0,0,0,0	practice	ward_and_allport	2,3,1,0,0,0,0,0,0	82.0	3.0	0.695	0,0,0,1,2,0,3,0,0	to_hand	s591
37.75	0.427	0	UA_without_intermediate	2,1,3,0,0,0,0,0,0	practice	ward_and_allport	2,3,1,0,0,0,0,0,0	89.0	3.0	0.427	0,0,0,1,2,0,3,0,0	to_board	s591
38.18	2.485	0	UA_without_intermediate	2,1,0,0,0,0,0,0,0	practice	ward_and_allport	2,3,1,0,0,0,0,0,0	89.0	3.0	2.485	0,0,0,1,2,0,3,0,0	to_hand	s591
40.666	1.27	0	UA_without_intermediate	2,1,0,3,0,0,0,0,0	practice	ward_and_allport	2,3,1,0,0,0,0,0,0	71.0	3.0	1.27	0,0,0,1,2,0,3,0,0	to_board	s591
41.939	0.897	0	UA_without_intermediate	2,0,0,3,0,0,0,0,0	practice	ward_and_allport	2,3,1,0,0,0,0,0,0	89.0	3.0	0.897	0,0,0,1,2,0,3,0,0	to_hand	s591
42.837	0.894	0	UA_without_intermediate	2,0,0,3,0,0,1,0,0	practice	ward_and_allport	2,3,1,0,0,0,0,0,0	82.0	3.0	0.894	0,0,0,1,2,0,3,0,0	to_board	s591
43.734	0.459	0	UA_without_intermediate	2,0,0,0,0,0,1,0,0	practice	ward_and_allport	2,3,1,0,0,0,0,0,0	71.0	3.0	0.459	0,0,0,1,2,0,3,0,0	to_hand	s591
44.195	0.351	0	UA_without_intermediate	2,3,0,0,0,0,1,0,0	practice	ward_and_allport	2,3,1,0,0,0,0,0,0	89.0	3.0	0.351	0,0,0,1,2,0,3,0,0	to_board	s591
44.549	0.853	0	UA_without_intermediate	2,3,0,0,0,0,0,0,0	practice	ward_and_allport	2,3,1,0,0,0,0,0,0	82.0	3.0	0.853	0,0,0,1,2,0,3,0,0	to_hand	s591
45.403	0.446	0	UA_without_intermediate	2,3,1,0,0,0,0,0,0	practice	ward_and_allport	2,3,1,0,0,0,0,0,0	89.0	3.0	0.446	0,0,0,1,2,0,3,0,0	to_board	s591
45.854	1.0	0	UA_without_intermediate	n/a	practice	ward_and_allport	n/a	-1.0	3.0	n/a	n/a	feedback	s591
46.854	1.0	0	UA_without_intermediate	n/a	practice	ward_and_allport	n/a	-1.0	3.0	n/a	n/a	ITI	s591
49.863	3.726	1	PA_without_intermediate	1,2,0,0,0,0,0,0,0	test	ward_and_allport	0,0,0,1,0,0,3,2,0	89.0	0.0	3.726	1,2,3,0,0,0,0,0,0	to_hand	s591
53.591	1.37	0	PA_without_intermediate	1,2,0,0,0,0,3,0,0	test	ward_and_allport	0,0,0,1,0,0,3,2,0	82.0	0.0	1.37	1,2,3,0,0,0,0,0,0	to_board	s591
54.963	0.838	0	PA_without_intermediate	1,0,0,0,0,0,3,0,0	test	ward_and_allport	0,0,0,1,0,0,3,2,0	89.0	0.0	0.838	1,2,3,0,0,0,0,0,0	to_hand	s591
55.802	0.564	0	PA_without_intermediate	1,0,0,0,0,0,3,2,0	test	ward_and_allport	0,0,0,1,0,0,3,2,0	82.0	0.0	0.564	1,2,3,0,0,0,0,0,0	to_board	s591
56.368	0.996	0	PA_without_intermediate	0,0,0,0,0,0,3,2,0	test	ward_and_allport	0,0,0,1,0,0,3,2,0	89.0	0.0	0.996	1,2,3,0,0,0,0,0,0	to_hand	s591
57.365	0.663	0	PA_without_intermediate	0,0,0,1,0,0,3,2,0	test	ward_and_allport	0,0,0,1,0,0,3,2,0	71.0	0.0	0.663	1,2,3,0,0,0,0,0,0	to_board	s591
58.033	1.0	0	PA_without_intermediate	n/a	test	ward_and_allport	n/a	-1.0	0.0	n/a	n/a	feedback	s591
59.033	2.088	0	PA_without_intermediate	n/a	test	ward_and_allport	n/a	-1.0	0.0	n/a	n/a	ITI	s591
61.124	4.57	1	PA_with_intermediate	0,0,0,0,0,0,1,2,0	test	ward_and_allport	0,0,0,2,0,0,1,3,0	82.0	1.0	4.57	0,0,0,0,0,0,1,2,3	to_hand	s591
65.695	1.448	0	PA_with_intermediate	3,0,0,0,0,0,1,2,0	test	ward_and_allport	0,0,0,2,0,0,1,3,0	89.0	1.0	1.448	0,0,0,0,0,0,1,2,3	to_board	s591
67.147	0.74	0	PA_with_intermediate	3,0,0,0,0,0,1,0,0	test	ward_and_allport	0,0,0,2,0,0,1,3,0	82.0	1.0	0.74	0,0,0,0,0,0,1,2,3	to_hand	s591
67.889	0.407	0	PA_with_intermediate	3,0,0,2,0,0,1,0,0	test	ward_and_allport	0,0,0,2,0,0,1,3,0	71.0	1.0	0.407	0,0,0,0,0,0,1,2,3	to_board	s591
68.299	0.508	0	PA_with_intermediate	0,0,0,2,0,0,1,0,0	test	ward_and_allport	0,0,0,2,0,0,1,3,0	89.0	1.0	0.508	0,0,0,0,0,0,1,2,3	to_hand	s591
68.808	0.407	0	PA_with_intermediate	0,0,0,2,0,0,1,3,0	test	ward_and_allport	0,0,0,2,0,0,1,3,0	82.0	1.0	0.407	0,0,0,0,0,0,1,2,3	to_board	s591
69.218	1.0	0	PA_with_intermediate	n/a	test	ward_and_allport	n/a	-1.0	1.0	n/a	n/a	feedback	s591
70.218	1.0	0	PA_with_intermediate	n/a	test	ward_and_allport	n/a	-1.0	1.0	n/a	n/a	ITI	s591
71.221	3.18	1	PA_without_intermediate	0,0,0,0,0,0,1,2,0	test	ward_and_allport	1,0,0,3,2,0,0,0,0	82.0	2.0	3.18	0,0,0,0,0,0,1,2,3	to_hand	s591
74.402	0.528	0	PA_without_intermediate	0,0,0,3,0,0,1,2,0	test	ward_and_allport	1,0,0,3,2,0,0,0,0	71.0	2.0	0.528	0,0,0,0,0,0,1,2,3	to_board	s591
74.934	1.026	0	PA_without_intermediate	0,0,0,3,0,0,1,0,0	test	ward_and_allport	1,0,0,3,2,0,0,0,0	82.0	2.0	1.026	0,0,0,0,0,0,1,2,3	to_hand	s591
75.961	0.508	0	PA_without_intermediate	0,0,0,3,2,0,1,0,0	test	ward_and_allport	1,0,0,3,2,0,0,0,0	71.0	2.0	0.508	0,0,0,0,0,0,1,2,3	to_board	s591
76.472	0.682	0	PA_without_intermediate	0,0,0,3,2,0,0,0,0	test	ward_and_allport	1,0,0,3,2,0,0,0,0	82.0	2.0	0.682	0,0,0,0,0,0,1,2,3	to_hand	s591
77.156	0.476	0	PA_without_intermediate	1,0,0,3,2,0,0,0,0	test	ward_and_allport	1,0,0,3,2,0,0,0,0	89.0	2.0	0.476	0,0,0,0,0,0,1,2,3	to_board	s591
77.639	1.0	0	PA_without_intermediate	n/a	test	ward_and_allport	n/a	-1.0	2.0	n/a	n/a	feedback	s591
78.639	1.0	0	PA_without_intermediate	n/a	test	ward_and_allport	n/a	-1.0	2.0	n/a	n/a	ITI	s591
79.642	2.577	1	PA_without_intermediate	0,0,0,0,0,0,1,2,0	test	ward_and_allport	3,2,0,1,0,0,0,0,0	82.0	3.0	2.577	0,0,0,0,0,0,1,2,3	to_hand	s591
82.221	0.455	0	PA_without_intermediate	3,0,0,0,0,0,1,2,0	test	ward_and_allport	3,2,0,1,0,0,0,0,0	89.0	3.0	0.455	0,0,0,0,0,0,1,2,3	to_board	s591
82.679	0.648	0	PA_without_intermediate	3,0,0,0,0,0,1,0,0	test	ward_and_allport	3,2,0,1,0,0,0,0,0	82.0	3.0	0.648	0,0,0,0,0,0,1,2,3	to_hand	s591
83.329	0.411	0	PA_without_intermediate	3,2,0,0,0,0,1,0,0	test	ward_and_allport	3,2,0,1,0,0,0,0,0	89.0	3.0	0.411	0,0,0,0,0,0,1,2,3	to_board	s591
83.743	1.662	0	PA_without_intermediate	3,2,0,0,0,0,0,0,0	test	ward_and_allport	3,2,0,1,0,0,0,0,0	82.0	3.0	1.662	0,0,0,0,0,0,1,2,3	to_hand	s591
85.407	0.499	0	PA_without_intermediate	3,2,0,1,0,0,0,0,0	test	ward_and_allport	3,2,0,1,0,0,0,0,0	71.0	3.0	0.499	0,0,0,0,0,0,1,2,3	to_board	s591
85.911	1.0	0	PA_without_intermediate	n/a	test	ward_and_allport	n/a	-1.0	3.0	n/a	n/a	feedback	s591
86.911	1.0	0	PA_without_intermediate	n/a	test	ward_and_allport	n/a	-1.0	3.0	n/a	n/a	ITI	s591
87.914	2.037	1	PA_with_intermediate	0,0,0,0,0,0,1,2,0	test	ward_and_allport	0,0,0,2,3,0,1,0,0	82.0	4.0	2.037	0,0,0,0,0,0,1,2,3	to_hand	s591
89.952	1.793	0	PA_with_intermediate	3,0,0,0,0,0,1,2,0	test	ward_and_allport	0,0,0,2,3,0,1,0,0	89.0	4.0	1.793	0,0,0,0,0,0,1,2,3	to_board	s591
91.748	0.826	0	PA_with_intermediate	3,0,0,0,0,0,1,0,0	test	ward_and_allport	0,0,0,2,3,0,1,0,0	82.0	4.0	0.826	0,0,0,0,0,0,1,2,3	to_hand	s591
92.575	0.466	0	PA_with_intermediate	3,0,0,2,0,0,1,0,0	test	ward_and_allport	0,0,0,2,3,0,1,0,0	71.0	4.0	0.466	0,0,0,0,0,0,1,2,3	to_board	s591
93.045	0.478	0	PA_with_intermediate	0,0,0,2,0,0,1,0,0	test	ward_and_allport	0,0,0,2,3,0,1,0,0	89.0	4.0	0.478	0,0,0,0,0,0,1,2,3	to_hand	s591
93.523	0.491	0	PA_with_intermediate	0,0,0,2,3,0,1,0,0	test	ward_and_allport	0,0,0,2,3,0,1,0,0	71.0	4.0	0.491	0,0,0,0,0,0,1,2,3	to_board	s591
94.018	1.0	0	PA_with_intermediate	n/a	test	ward_and_allport	n/a	-1.0	4.0	n/a	n/a	feedback	s591
95.018	1.544	0	PA_with_intermediate	n/a	test	ward_and_allport	n/a	-1.0	4.0	n/a	n/a	ITI	s591
96.566	2.798	1	PA_without_intermediate	1,2,0,0,0,0,0,0,0	test	ward_and_allport	0,0,0,3,2,0,1,0,0	89.0	5.0	2.798	1,2,3,0,0,0,0,0,0	to_hand	s591
99.365	0.407	0	PA_without_intermediate	1,2,0,3,0,0,0,0,0	test	ward_and_allport	0,0,0,3,2,0,1,0,0	71.0	5.0	0.407	1,2,3,0,0,0,0,0,0	to_board	s591
99.775	0.855	0	PA_without_intermediate	1,0,0,3,0,0,0,0,0	test	ward_and_allport	0,0,0,3,2,0,1,0,0	89.0	5.0	0.855	1,2,3,0,0,0,0,0,0	to_hand	s591
100.632	0.378	0	PA_without_intermediate	1,0,0,3,2,0,0,0,0	test	ward_and_allport	0,0,0,3,2,0,1,0,0	71.0	5.0	0.378	1,2,3,0,0,0,0,0,0	to_board	s591
101.014	0.541	0	PA_without_intermediate	0,0,0,3,2,0,0,0,0	test	ward_and_allport	0,0,0,3,2,0,1,0,0	89.0	5.0	0.541	1,2,3,0,0,0,0,0,0	to_hand	s591
101.556	0.384	0	PA_without_intermediate	0,0,0,3,2,0,1,0,0	test	ward_and_allport	0,0,0,3,2,0,1,0,0	82.0	5.0	0.384	1,2,3,0,0,0,0,0,0	to_board	s591
101.943	1.0	0	PA_without_intermediate	n/a	test	ward_and_allport	n/a	-1.0	5.0	n/a	n/a	feedback	s591
102.943	1.272	0	PA_without_intermediate	n/a	test	ward_and_allport	n/a	-1.0	5.0	n/a	n/a	ITI	s591
104.22	2.81	1	PA_with_intermediate	1,2,0,0,0,0,0,0,0	test	ward_and_allport	1,0,0,2,3,0,0,0,0	89.0	6.0	2.81	1,2,3,0,0,0,0,0,0	to_hand	s591
107.031	0.465	0	PA_with_intermediate	1,2,0,0,0,0,3,0,0	test	ward_and_allport	1,0,0,2,3,0,0,0,0	82.0	6.0	0.465	1,2,3,0,0,0,0,0,0	to_board	s591
107.5	0.585	0	PA_with_intermediate	1,0,0,0,0,0,3,0,0	test	ward_and_allport	1,0,0,2,3,0,0,0,0	89.0	6.0	0.585	1,2,3,0,0,0,0,0,0	to_hand	s591
108.086	0.733	0	PA_with_intermediate	1,0,0,2,0,0,3,0,0	test	ward_and_allport	1,0,0,2,3,0,0,0,0	71.0	6.0	0.733	1,2,3,0,0,0,0,0,0	to_board	s591
108.823	0.692	0	PA_with_intermediate	1,0,0,2,0,0,0,0,0	test	ward_and_allport	1,0,0,2,3,0,0,0,0	82.0	6.0	0.692	1,2,3,0,0,0,0,0,0	to_hand	s591
109.515	0.48	0	PA_with_intermediate	1,0,0,2,3,0,0,0,0	test	ward_and_allport	1,0,0,2,3,0,0,0,0	71.0	6.0	0.48	1,2,3,0,0,0,0,0,0	to_board	s591
110.002	1.0	0	PA_with_intermediate	n/a	test	ward_and_allport	n/a	-1.0	6.0	n/a	n/a	feedback	s591
111.002	3.04	0	PA_with_intermediate	n/a	test	ward_and_allport	n/a	-1.0	6.0	n/a	n/a	ITI	s591
114.048	2.512	1	PA_with_intermediate	1,2,0,0,0,0,0,0,0	test	ward_and_allport	1,0,0,2,3,0,0,0,0	89.0	7.0	2.512	1,2,3,0,0,0,0,0,0	to_hand	s591
116.562	0.879	0	PA_with_intermediate	1,2,0,0,0,0,3,0,0	test	ward_and_allport	1,0,0,2,3,0,0,0,0	82.0	7.0	0.879	1,2,3,0,0,0,0,0,0	to_board	s591
117.445	0.502	0	PA_with_intermediate	1,0,0,0,0,0,3,0,0	test	ward_and_allport	1,0,0,2,3,0,0,0,0	89.0	7.0	0.502	1,2,3,0,0,0,0,0,0	to_hand	s591
117.949	0.639	0	PA_with_intermediate	1,0,0,2,0,0,3,0,0	test	ward_and_allport	1,0,0,2,3,0,0,0,0	71.0	7.0	0.639	1,2,3,0,0,0,0,0,0	to_board	s591
118.592	0.519	0	PA_with_intermediate	1,0,0,2,0,0,0,0,0	test	ward_and_allport	1,0,0,2,3,0,0,0,0	82.0	7.0	0.519	1,2,3,0,0,0,0,0,0	to_hand	s591
119.113	0.652	0	PA_with_intermediate	1,0,0,2,3,0,0,0,0	test	ward_and_allport	1,0,0,2,3,0,0,0,0	71.0	7.0	0.652	1,2,3,0,0,0,0,0,0	to_board	s591
119.774	1.0	0	PA_with_intermediate	n/a	test	ward_and_allport	n/a	-1.0	7.0	n/a	n/a	feedback	s591
120.774	1.272	0	PA_with_intermediate	n/a	test	ward_and_allport	n/a	-1.0	7.0	n/a	n/a	ITI	s591
122.049	3.073	1	PA_with_intermediate	0,0,0,0,0,0,1,2,0	test	ward_and_allport	2,0,0,0,0,0,1,3,0	82.0	8.0	3.073	0,0,0,0,0,0,1,2,3	to_hand	s591
125.123	0.471	0	PA_with_intermediate	0,0,0,3,0,0,1,2,0	test	ward_and_allport	2,0,0,0,0,0,1,3,0	71.0	8.0	0.471	0,0,0,0,0,0,1,2,3	to_board	s591
125.598	0.723	0	PA_with_intermediate	0,0,0,3,0,0,1,0,0	test	ward_and_allport	2,0,0,0,0,0,1,3,0	82.0	8.0	0.723	0,0,0,0,0,0,1,2,3	to_hand	s591
126.322	0.44	0	PA_with_intermediate	2,0,0,3,0,0,1,0,0	test	ward_and_allport	2,0,0,0,0,0,1,3,0	89.0	8.0	0.44	0,0,0,0,0,0,1,2,3	to_board	s591
126.766	0.846	0	PA_with_intermediate	2,0,0,0,0,0,1,0,0	test	ward_and_allport	2,0,0,0,0,0,1,3,0	71.0	8.0	0.846	0,0,0,0,0,0,1,2,3	to_hand	s591
127.613	0.374	0	PA_with_intermediate	2,0,0,0,0,0,1,3,0	test	ward_and_allport	2,0,0,0,0,0,1,3,0	82.0	8.0	0.374	0,0,0,0,0,0,1,2,3	to_board	s591
127.995	1.0	0	PA_with_intermediate	n/a	test	ward_and_allport	n/a	-1.0	8.0	n/a	n/a	feedback	s591
128.995	1.136	0	PA_with_intermediate	n/a	test	ward_and_allport	n/a	-1.0	8.0	n/a	n/a	ITI	s591
130.136	2.483	1	PA_with_intermediate	0,0,0,1,2,0,0,0,0	test	ward_and_allport	2,3,0,1,0,0,0,0,0	71.0	9.0	2.483	0,0,0,1,2,3,0,0,0	to_hand	s591
132.62	0.438	0	PA_with_intermediate	0,0,0,1,2,0,3,0,0	test	ward_and_allport	2,3,0,1,0,0,0,0,0	82.0	9.0	0.438	0,0,0,1,2,3,0,0,0	to_board	s591
133.062	0.456	0	PA_with_intermediate	0,0,0,1,0,0,3,0,0	test	ward_and_allport	2,3,0,1,0,0,0,0,0	71.0	9.0	0.456	0,0,0,1,2,3,0,0,0	to_hand	s591
133.52	0.368	0	PA_with_intermediate	2,0,0,1,0,0,3,0,0	test	ward_and_allport	2,3,0,1,0,0,0,0,0	89.0	9.0	0.368	0,0,0,1,2,3,0,0,0	to_board	s591
133.894	1.202	0	PA_with_intermediate	2,0,0,1,0,0,0,0,0	test	ward_and_allport	2,3,0,1,0,0,0,0,0	82.0	9.0	1.202	0,0,0,1,2,3,0,0,0	to_hand	s591
135.098	0.726	0	PA_with_intermediate	2,3,0,1,0,0,0,0,0	test	ward_and_allport	2,3,0,1,0,0,0,0,0	89.0	9.0	0.726	0,0,0,1,2,3,0,0,0	to_board	s591
135.833	1.0	0	PA_with_intermediate	n/a	test	ward_and_allport	n/a	-1.0	9.0	n/a	n/a	feedback	s591
136.833	1.0	0	PA_with_intermediate	n/a	test	ward_and_allport	n/a	-1.0	9.0	n/a	n/a	ITI	s591
137.838	1.703	1	PA_with_intermediate	1,2,0,0,0,0,0,0,0	test	ward_and_allport	1,0,0,0,0,0,2,3,0	89.0	10.0	1.703	1,2,3,0,0,0,0,0,0	to_hand	s591
139.543	0.459	0	PA_with_intermediate	1,2,0,3,0,0,0,0,0	test	ward_and_allport	1,0,0,0,0,0,2,3,0	71.0	10.0	0.459	1,2,3,0,0,0,0,0,0	to_board	s591
140.006	0.428	0	PA_with_intermediate	1,0,0,3,0,0,0,0,0	test	ward_and_allport	1,0,0,0,0,0,2,3,0	89.0	10.0	0.428	1,2,3,0,0,0,0,0,0	to_hand	s591
140.435	0.428	0	PA_with_intermediate	1,0,0,3,0,0,2,0,0	test	ward_and_allport	1,0,0,0,0,0,2,3,0	82.0	10.0	0.428	1,2,3,0,0,0,0,0,0	to_board	s591
140.867	0.44	0	PA_with_intermediate	1,0,0,0,0,0,2,0,0	test	ward_and_allport	1,0,0,0,0,0,2,3,0	71.0	10.0	0.44	1,2,3,0,0,0,0,0,0	to_hand	s591
141.309	0.38	0	PA_with_intermediate	1,0,0,0,0,0,2,3,0	test	ward_and_allport	1,0,0,0,0,0,2,3,0	82.0	10.0	0.38	1,2,3,0,0,0,0,0,0	to_board	s591
141.693	1.0	0	PA_with_intermediate	n/a	test	ward_and_allport	n/a	-1.0	10.0	n/a	n/a	feedback	s591
142.693	1.0	0	PA_with_intermediate	n/a	test	ward_and_allport	n/a	-1.0	10.0	n/a	n/a	ITI	s591
143.698	1.962	1	PA_without_intermediate	0,0,0,1,2,0,0,0,0	test	ward_and_allport	3,1,0,0,0,0,2,0,0	71.0	11.0	1.962	0,0,0,1,2,3,0,0,0	to_hand	s591
145.661	0.37	0	PA_without_intermediate	3,0,0,1,2,0,0,0,0	test	ward_and_allport	3,1,0,0,0,0,2,0,0	89.0	11.0	0.37	0,0,0,1,2,3,0,0,0	to_board	s591
146.036	0.98	0	PA_without_intermediate	3,0,0,1,0,0,0,0,0	test	ward_and_allport	3,1,0,0,0,0,2,0,0	71.0	11.0	0.98	0,0,0,1,2,3,0,0,0	to_hand	s591
147.017	0.342	0	PA_without_intermediate	3,0,0,1,0,0,2,0,0	test	ward_and_allport	3,1,0,0,0,0,2,0,0	82.0	11.0	0.342	0,0,0,1,2,3,0,0,0	to_board	s591
147.363	0.407	0	PA_without_intermediate	3,0,0,0,0,0,2,0,0	test	ward_and_allport	3,1,0,0,0,0,2,0,0	71.0	11.0	0.407	0,0,0,1,2,3,0,0,0	to_hand	s591
147.771	0.316	0	PA_without_intermediate	3,1,0,0,0,0,2,0,0	test	ward_and_allport	3,1,0,0,0,0,2,0,0	89.0	11.0	0.316	0,0,0,1,2,3,0,0,0	to_board	s591
148.092	1.0	0	PA_without_intermediate	n/a	test	ward_and_allport	n/a	-1.0	11.0	n/a	n/a	feedback	s591
149.092	1.408	0	PA_without_intermediate	n/a	test	ward_and_allport	n/a	-1.0	11.0	n/a	n/a	ITI	s591
150.503	2.382	1	PA_with_intermediate	0,0,0,1,2,0,0,0,0	test	ward_and_allport	0,0,0,1,3,0,2,0,0	71.0	12.0	2.382	0,0,0,1,2,3,0,0,0	to_hand	s591
152.887	0.32	0	PA_with_intermediate	3,0,0,1,2,0,0,0,0	test	ward_and_allport	0,0,0,1,3,0,2,0,0	89.0	12.0	0.32	0,0,0,1,2,3,0,0,0	to_board	s591
153.213	0.295	0	PA_with_intermediate	3,0,0,1,0,0,0,0,0	test	ward_and_allport	0,0,0,1,3,0,2,0,0	71.0	12.0	0.295	0,0,0,1,2,3,0,0,0	to_hand	s591
153.51	0.414	0	PA_with_intermediate	3,0,0,1,0,0,2,0,0	test	ward_and_allport	0,0,0,1,3,0,2,0,0	82.0	12.0	0.414	0,0,0,1,2,3,0,0,0	to_board	s591
153.93	0.763	0	PA_with_intermediate	0,0,0,1,0,0,2,0,0	test	ward_and_allport	0,0,0,1,3,0,2,0,0	89.0	12.0	0.763	0,0,0,1,2,3,0,0,0	to_hand	s591
154.695	0.447	0	PA_with_intermediate	0,0,0,1,3,0,2,0,0	test	ward_and_allport	0,0,0,1,3,0,2,0,0	71.0	12.0	0.447	0,0,0,1,2,3,0,0,0	to_board	s591
155.148	1.0	0	PA_with_intermediate	n/a	test	ward_and_allport	n/a	-1.0	12.0	n/a	n/a	feedback	s591
156.148	2.768	0	PA_with_intermediate	n/a	test	ward_and_allport	n/a	-1.0	12.0	n/a	n/a	ITI	s591
158.92	1.659	1	PA_with_intermediate	0,0,0,1,2,0,0,0,0	test	ward_and_allport	0,0,0,1,0,0,2,3,0	71.0	13.0	1.659	0,0,0,1,2,3,0,0,0	to_hand	s591
160.58	0.285	0	PA_with_intermediate	3,0,0,1,2,0,0,0,0	test	ward_and_allport	0,0,0,1,0,0,2,3,0	89.0	13.0	0.285	0,0,0,1,2,3,0,0,0	to_board	s591
160.87	0.369	0	PA_with_intermediate	3,0,0,1,0,0,0,0,0	test	ward_and_allport	0,0,0,1,0,0,2,3,0	71.0	13.0	0.369	0,0,0,1,2,3,0,0,0	to_hand	s591
161.24	0.498	0	PA_with_intermediate	3,0,0,1,0,0,2,0,0	test	ward_and_allport	0,0,0,1,0,0,2,3,0	82.0	13.0	0.498	0,0,0,1,2,3,0,0,0	to_board	s591
161.743	0.395	0	PA_with_intermediate	0,0,0,1,0,0,2,0,0	test	ward_and_allport	0,0,0,1,0,0,2,3,0	89.0	13.0	0.395	0,0,0,1,2,3,0,0,0	to_hand	s591
162.14	0.328	0	PA_with_intermediate	0,0,0,1,0,0,2,3,0	test	ward_and_allport	0,0,0,1,0,0,2,3,0	82.0	13.0	0.328	0,0,0,1,2,3,0,0,0	to_board	s591
162.477	1.0	0	PA_with_intermediate	n/a	test	ward_and_allport	n/a	-1.0	13.0	n/a	n/a	feedback	s591
163.477	1.68	0	PA_with_intermediate	n/a	test	ward_and_allport	n/a	-1.0	13.0	n/a	n/a	ITI	s591
165.162	1.905	1	PA_without_intermediate	1,2,0,0,0,0,0,0,0	test	ward_and_allport	0,0,0,3,1,0,2,0,0	89.0	14.0	1.905	1,2,3,0,0,0,0,0,0	to_hand	s591
167.068	0.86	0	PA_without_intermediate	1,2,0,3,0,0,0,0,0	test	ward_and_allport	0,0,0,3,1,0,2,0,0	71.0	14.0	0.86	1,2,3,0,0,0,0,0,0	to_board	s591
167.932	1.036	0	PA_without_intermediate	1,0,0,3,0,0,0,0,0	test	ward_and_allport	0,0,0,3,1,0,2,0,0	89.0	14.0	1.036	1,2,3,0,0,0,0,0,0	to_hand	s591
168.97	0.452	0	PA_without_intermediate	1,0,0,3,0,0,2,0,0	test	ward_and_allport	0,0,0,3,1,0,2,0,0	82.0	14.0	0.452	1,2,3,0,0,0,0,0,0	to_board	s591
169.427	0.463	0	PA_without_intermediate	1,0,0,0,0,0,2,0,0	test	ward_and_allport	0,0,0,3,1,0,2,0,0	71.0	14.0	0.463	1,2,3,0,0,0,0,0,0	to_hand	s591
169.891	0.727	0	PA_without_intermediate	1,0,0,3,0,0,2,0,0	test	ward_and_allport	0,0,0,3,1,0,2,0,0	71.0	14.0	0.727	1,2,3,0,0,0,0,0,0	to_board	s591
170.625	0.31	0	PA_without_intermediate	0,0,0,3,0,0,2,0,0	test	ward_and_allport	0,0,0,3,1,0,2,0,0	89.0	14.0	0.31	1,2,3,0,0,0,0,0,0	to_hand	s591
170.936	0.438	0	PA_without_intermediate	0,0,0,3,1,0,2,0,0	test	ward_and_allport	0,0,0,3,1,0,2,0,0	71.0	14.0	0.438	1,2,3,0,0,0,0,0,0	to_board	s591
171.383	1.0	0	PA_without_intermediate	n/a	test	ward_and_allport	n/a	-1.0	14.0	n/a	n/a	feedback	s591
172.383	2.224	0	PA_without_intermediate	n/a	test	ward_and_allport	n/a	-1.0	14.0	n/a	n/a	ITI	s591
179.616	2.636	1	PA_without_intermediate	1,2,0,0,0,0,0,0,0	test	ward_and_allport	0,0,0,3,2,0,1,0,0	89.0	15.0	2.636	1,2,3,0,0,0,0,0,0	to_hand	s591
182.254	1.144	0	PA_without_intermediate	1,2,0,3,0,0,0,0,0	test	ward_and_allport	0,0,0,3,2,0,1,0,0	71.0	15.0	1.144	1,2,3,0,0,0,0,0,0	to_board	s591
183.403	0.385	0	PA_without_intermediate	1,0,0,3,0,0,0,0,0	test	ward_and_allport	0,0,0,3,2,0,1,0,0	89.0	15.0	0.385	1,2,3,0,0,0,0,0,0	to_hand	s591
183.79	0.466	0	PA_without_intermediate	1,0,0,3,2,0,0,0,0	test	ward_and_allport	0,0,0,3,2,0,1,0,0	71.0	15.0	0.466	1,2,3,0,0,0,0,0,0	to_board	s591
184.263	0.428	0	PA_without_intermediate	0,0,0,3,2,0,0,0,0	test	ward_and_allport	0,0,0,3,2,0,1,0,0	89.0	15.0	0.428	1,2,3,0,0,0,0,0,0	to_hand	s591
184.692	0.338	0	PA_without_intermediate	0,0,0,3,2,0,1,0,0	test	ward_and_allport	0,0,0,3,2,0,1,0,0	82.0	15.0	0.338	1,2,3,0,0,0,0,0,0	to_board	s591
185.036	1.0	0	PA_without_intermediate	n/a	test	ward_and_allport	n/a	-1.0	15.0	n/a	n/a	feedback	s591
186.036	2.36	0	PA_without_intermediate	n/a	test	ward_and_allport	n/a	-1.0	15.0	n/a	n/a	ITI	s591
188.403	1.087	1	PA_without_intermediate	1,2,0,0,0,0,0,0,0	test	ward_and_allport	0,0,0,2,0,0,3,1,0	89.0	16.0	1.087	1,2,3,0,0,0,0,0,0	to_hand	s591
189.491	0.603	0	PA_without_intermediate	1,2,0,0,0,0,3,0,0	test	ward_and_allport	0,0,0,2,0,0,3,1,0	82.0	16.0	0.603	1,2,3,0,0,0,0,0,0	to_board	s591
190.098	0.789	0	PA_without_intermediate	1,0,0,0,0,0,3,0,0	test	ward_and_allport	0,0,0,2,0,0,3,1,0	89.0	16.0	0.789	1,2,3,0,0,0,0,0,0	to_hand	s591
190.888	0.696	0	PA_without_intermediate	1,0,0,2,0,0,3,0,0	test	ward_and_allport	0,0,0,2,0,0,3,1,0	71.0	16.0	0.696	1,2,3,0,0,0,0,0,0	to_board	s591
191.589	0.414	0	PA_without_intermediate	0,0,0,2,0,0,3,0,0	test	ward_and_allport	0,0,0,2,0,0,3,1,0	89.0	16.0	0.414	1,2,3,0,0,0,0,0,0	to_hand	s591
192.005	0.343	0	PA_without_intermediate	0,0,0,2,0,0,3,1,0	test	ward_and_allport	0,0,0,2,0,0,3,1,0	82.0	16.0	0.343	1,2,3,0,0,0,0,0,0	to_board	s591
192.357	1.0	0	PA_without_intermediate	n/a	test	ward_and_allport	n/a	-1.0	16.0	n/a	n/a	feedback	s591
193.357	1.0	0	PA_without_intermediate	n/a	test	ward_and_allport	n/a	-1.0	16.0	n/a	n/a	ITI	s591
194.363	2.705	1	PA_without_intermediate	0,0,0,1,2,0,0,0,0	test	ward_and_allport	1,0,0,0,0,0,3,2,0	71.0	17.0	2.705	0,0,0,1,2,3,0,0,0	to_hand	s591
197.069	0.471	0	PA_without_intermediate	0,0,0,1,2,0,3,0,0	test	ward_and_allport	1,0,0,0,0,0,3,2,0	82.0	17.0	0.471	0,0,0,1,2,3,0,0,0	to_board	s591
197.546	0.663	0	PA_without_intermediate	0,0,0,1,0,0,3,0,0	test	ward_and_allport	1,0,0,0,0,0,3,2,0	71.0	17.0	0.663	0,0,0,1,2,3,0,0,0	to_hand	s591
198.209	0.366	0	PA_without_intermediate	0,0,0,1,0,0,3,2,0	test	ward_and_allport	1,0,0,0,0,0,3,2,0	82.0	17.0	0.366	0,0,0,1,2,3,0,0,0	to_board	s591
198.581	1.32	0	PA_without_intermediate	0,0,0,0,0,0,3,2,0	test	ward_and_allport	1,0,0,0,0,0,3,2,0	71.0	17.0	1.32	0,0,0,1,2,3,0,0,0	to_hand	s591
199.902	0.334	0	PA_without_intermediate	1,0,0,0,0,0,3,2,0	test	ward_and_allport	1,0,0,0,0,0,3,2,0	89.0	17.0	0.334	0,0,0,1,2,3,0,0,0	to_board	s591
200.243	1.0	0	PA_without_intermediate	n/a	test	ward_and_allport	n/a	-1.0	17.0	n/a	n/a	feedback	s591
201.243	1.408	0	PA_without_intermediate	n/a	test	ward_and_allport	n/a	-1.0	17.0	n/a	n/a	ITI	s591
202.656	2.445	1	PA_with_intermediate	0,0,0,0,0,0,1,2,0	test	ward_and_allport	0,0,0,2,0,0,1,3,0	82.0	18.0	2.445	0,0,0,0,0,0,1,2,3	to_hand	s591
205.103	0.372	0	PA_with_intermediate	3,0,0,0,0,0,1,2,0	test	ward_and_allport	0,0,0,2,0,0,1,3,0	89.0	18.0	0.372	0,0,0,0,0,0,1,2,3	to_board	s591
205.481	1.054	0	PA_with_intermediate	3,0,0,0,0,0,1,0,0	test	ward_and_allport	0,0,0,2,0,0,1,3,0	82.0	18.0	1.054	0,0,0,0,0,0,1,2,3	to_hand	s591
206.536	0.512	0	PA_with_intermediate	3,0,0,2,0,0,1,0,0	test	ward_and_allport	0,0,0,2,0,0,1,3,0	71.0	18.0	0.512	0,0,0,0,0,0,1,2,3	to_board	s591
207.054	0.497	0	PA_with_intermediate	0,0,0,2,0,0,1,0,0	test	ward_and_allport	0,0,0,2,0,0,1,3,0	89.0	18.0	0.497	0,0,0,0,0,0,1,2,3	to_hand	s591
207.552	0.381	0	PA_with_intermediate	0,0,0,2,0,0,1,3,0	test	ward_and_allport	0,0,0,2,0,0,1,3,0	82.0	18.0	0.381	0,0,0,0,0,0,1,2,3	to_board	s591
207.94	1.0	0	PA_with_intermediate	n/a	test	ward_and_allport	n/a	-1.0	18.0	n/a	n/a	feedback	s591
208.94	1.136	0	PA_with_intermediate	n/a	test	ward_and_allport	n/a	-1.0	18.0	n/a	n/a	ITI	s591
210.082	1.354	1	PA_without_intermediate	0,0,0,1,2,0,0,0,0	test	ward_and_allport	2,0,0,0,0,0,3,1,0	71.0	19.0	1.354	0,0,0,1,2,3,0,0,0	to_hand	s591
211.437	0.565	0	PA_without_intermediate	0,0,0,1,2,0,3,0,0	test	ward_and_allport	2,0,0,0,0,0,3,1,0	82.0	19.0	0.565	0,0,0,1,2,3,0,0,0	to_board	s591
212.01	0.886	0	PA_without_intermediate	0,0,0,1,0,0,3,0,0	test	ward_and_allport	2,0,0,0,0,0,3,1,0	71.0	19.0	0.886	0,0,0,1,2,3,0,0,0	to_hand	s591
212.897	0.376	0	PA_without_intermediate	2,0,0,1,0,0,3,0,0	test	ward_and_allport	2,0,0,0,0,0,3,1,0	89.0	19.0	0.376	0,0,0,1,2,3,0,0,0	to_board	s591
213.279	0.419	0	PA_without_intermediate	2,0,0,0,0,0,3,0,0	test	ward_and_allport	2,0,0,0,0,0,3,1,0	71.0	19.0	0.419	0,0,0,1,2,3,0,0,0	to_hand	s591
213.699	0.305	0	PA_without_intermediate	2,0,0,0,0,0,3,1,0	test	ward_and_allport	2,0,0,0,0,0,3,1,0	82.0	19.0	0.305	0,0,0,1,2,3,0,0,0	to_board	s591
214.014	1.0	0	PA_without_intermediate	n/a	test	ward_and_allport	n/a	-1.0	19.0	n/a	n/a	feedback	s591
215.014	4.128	0	PA_without_intermediate	n/a	test	ward_and_allport	n/a	-1.0	19.0	n/a	n/a	ITI	s591
219.148	2.251	1	PA_without_intermediate	0,0,0,0,0,0,1,2,0	test	ward_and_allport	2,0,0,3,1,0,0,0,0	82.0	20.0	2.251	0,0,0,0,0,0,1,2,3	to_hand	s591
221.4	0.504	0	PA_without_intermediate	0,0,0,3,0,0,1,2,0	test	ward_and_allport	2,0,0,3,1,0,0,0,0	71.0	20.0	0.504	0,0,0,0,0,0,1,2,3	to_board	s591
221.91	0.616	0	PA_without_intermediate	0,0,0,3,0,0,1,0,0	test	ward_and_allport	2,0,0,3,1,0,0,0,0	82.0	20.0	0.616	0,0,0,0,0,0,1,2,3	to_hand	s591
222.528	0.44	0	PA_without_intermediate	2,0,0,3,0,0,1,0,0	test	ward_and_allport	2,0,0,3,1,0,0,0,0	89.0	20.0	0.44	0,0,0,0,0,0,1,2,3	to_board	s591
222.974	0.745	0	PA_without_intermediate	2,0,0,3,0,0,0,0,0	test	ward_and_allport	2,0,0,3,1,0,0,0,0	82.0	20.0	0.745	0,0,0,0,0,0,1,2,3	to_hand	s591
223.72	0.508	0	PA_without_intermediate	2,0,0,3,1,0,0,0,0	test	ward_and_allport	2,0,0,3,1,0,0,0,0	71.0	20.0	0.508	0,0,0,0,0,0,1,2,3	to_board	s591
224.238	1.0	0	PA_without_intermediate	n/a	test	ward_and_allport	n/a	-1.0	20.0	n/a	n/a	feedback	s591
225.238	1.136	0	PA_without_intermediate	n/a	test	ward_and_allport	n/a	-1.0	20.0	n/a	n/a	ITI	s591
226.38	1.641	1	PA_without_intermediate	0,0,0,1,2,0,0,0,0	test	ward_and_allport	1,0,0,0,0,0,3,2,0	71.0	21.0	1.641	0,0,0,1,2,3,0,0,0	to_hand	s591
228.022	0.632	0	PA_without_intermediate	0,0,0,1,2,0,3,0,0	test	ward_and_allport	1,0,0,0,0,0,3,2,0	82.0	21.0	0.632	0,0,0,1,2,3,0,0,0	to_board	s591
228.661	0.425	0	PA_without_intermediate	0,0,0,1,0,0,3,0,0	test	ward_and_allport	1,0,0,0,0,0,3,2,0	71.0	21.0	0.425	0,0,0,1,2,3,0,0,0	to_hand	s591
229.088	0.325	0	PA_without_intermediate	0,0,0,1,0,0,3,2,0	test	ward_and_allport	1,0,0,0,0,0,3,2,0	82.0	21.0	0.325	0,0,0,1,2,3,0,0,0	to_board	s591
229.421	0.694	0	PA_without_intermediate	0,0,0,0,0,0,3,2,0	test	ward_and_allport	1,0,0,0,0,0,3,2,0	71.0	21.0	0.694	0,0,0,1,2,3,0,0,0	to_hand	s591
230.116	0.296	0	PA_without_intermediate	1,0,0,0,0,0,3,2,0	test	ward_and_allport	1,0,0,0,0,0,3,2,0	89.0	21.0	0.296	0,0,0,1,2,3,0,0,0	to_board	s591
230.422	1.0	0	PA_without_intermediate	n/a	test	ward_and_allport	n/a	-1.0	21.0	n/a	n/a	feedback	s591
231.422	4.264	0	PA_without_intermediate	n/a	test	ward_and_allport	n/a	-1.0	21.0	n/a	n/a	ITI	s591
235.694	2.232	1	PA_with_intermediate	0,0,0,1,2,0,0,0,0	test	ward_and_allport	0,0,0,1,3,0,2,0,0	71.0	22.0	2.232	0,0,0,1,2,3,0,0,0	to_hand	s591
237.927	0.301	0	PA_with_intermediate	3,0,0,1,2,0,0,0,0	test	ward_and_allport	0,0,0,1,3,0,2,0,0	89.0	22.0	0.301	0,0,0,1,2,3,0,0,0	to_board	s591
238.235	0.296	0	PA_with_intermediate	3,0,0,1,0,0,0,0,0	test	ward_and_allport	0,0,0,1,3,0,2,0,0	71.0	22.0	0.296	0,0,0,1,2,3,0,0,0	to_hand	s591
238.533	0.344	0	PA_with_intermediate	3,0,0,1,0,0,2,0,0	test	ward_and_allport	0,0,0,1,3,0,2,0,0	82.0	22.0	0.344	0,0,0,1,2,3,0,0,0	to_board	s591
238.885	0.52	0	PA_with_intermediate	0,0,0,1,0,0,2,0,0	test	ward_and_allport	0,0,0,1,3,0,2,0,0	89.0	22.0	0.52	0,0,0,1,2,3,0,0,0	to_hand	s591
239.405	0.428	0	PA_with_intermediate	0,0,0,1,3,0,2,0,0	test	ward_and_allport	0,0,0,1,3,0,2,0,0	71.0	22.0	0.428	0,0,0,1,2,3,0,0,0	to_board	s591
239.844	1.0	0	PA_with_intermediate	n/a	test	ward_and_allport	n/a	-1.0	22.0	n/a	n/a	feedback	s591
240.844	3.04	0	PA_with_intermediate	n/a	test	ward_and_allport	n/a	-1.0	22.0	n/a	n/a	ITI	s591
243.892	2.469	1	PA_with_intermediate	1,2,0,0,0,0,0,0,0	test	ward_and_allport	1,3,0,2,0,0,0,0,0	89.0	23.0	2.469	1,2,3,0,0,0,0,0,0	to_hand	s591
246.362	0.318	0	PA_with_intermediate	1,2,0,0,0,0,3,0,0	test	ward_and_allport	1,3,0,2,0,0,0,0,0	82.0	23.0	0.318	1,2,3,0,0,0,0,0,0	to_board	s591
246.688	0.552	0	PA_with_intermediate	1,0,0,0,0,0,3,0,0	test	ward_and_allport	1,3,0,2,0,0,0,0,0	89.0	23.0	0.552	1,2,3,0,0,0,0,0,0	to_hand	s591
247.241	0.526	0	PA_with_intermediate	1,0,0,2,0,0,3,0,0	test	ward_and_allport	1,3,0,2,0,0,0,0,0	71.0	23.0	0.526	1,2,3,0,0,0,0,0,0	to_board	s591
247.775	0.493	0	PA_with_intermediate	1,0,0,2,0,0,0,0,0	test	ward_and_allport	1,3,0,2,0,0,0,0,0	82.0	23.0	0.493	1,2,3,0,0,0,0,0,0	to_hand	s591
248.269	0.728	0	PA_with_intermediate	1,3,0,2,0,0,0,0,0	test	ward_and_allport	1,3,0,2,0,0,0,0,0	89.0	23.0	0.728	1,2,3,0,0,0,0,0,0	to_board	s591
249.005	1.0	0	PA_with_intermediate	n/a	test	ward_and_allport	n/a	-1.0	23.0	n/a	n/a	feedback	s591
250.005	1.136	0	PA_with_intermediate	n/a	test	ward_and_allport	n/a	-1.0	23.0	n/a	n/a	ITI	s591
251.149	2.981	1	PA_with_intermediate	0,0,0,1,2,0,0,0,0	test	ward_and_allport	2,0,0,1,3,0,0,0,0	71.0	24.0	2.981	0,0,0,1,2,3,0,0,0	to_hand	s591
254.132	0.309	0	PA_with_intermediate	0,0,0,1,2,0,3,0,0	test	ward_and_allport	2,0,0,1,3,0,0,0,0	82.0	24.0	0.309	0,0,0,1,2,3,0,0,0	to_board	s591
254.449	0.366	0	PA_with_intermediate	0,0,0,1,0,0,3,0,0	test	ward_and_allport	2,0,0,1,3,0,0,0,0	71.0	24.0	0.366	0,0,0,1,2,3,0,0,0	to_hand	s591
254.816	0.319	0	PA_with_intermediate	2,0,0,1,0,0,3,0,0	test	ward_and_allport	2,0,0,1,3,0,0,0,0	89.0	24.0	0.319	0,0,0,1,2,3,0,0,0	to_board	s591
255.143	0.724	0	PA_with_intermediate	2,0,0,1,0,0,0,0,0	test	ward_and_allport	2,0,0,1,3,0,0,0,0	82.0	24.0	0.724	0,0,0,1,2,3,0,0,0	to_hand	s591
255.868	0.344	0	PA_with_intermediate	2,0,0,1,3,0,0,0,0	test	ward_and_allport	2,0,0,1,3,0,0,0,0	71.0	24.0	0.344	0,0,0,1,2,3,0,0,0	to_board	s591
256.223	1.0	0	PA_with_intermediate	n/a	test	ward_and_allport	n/a	-1.0	24.0	n/a	n/a	feedback	s591
257.223	1.408	0	PA_with_intermediate	n/a	test	ward_and_allport	n/a	-1.0	24.0	n/a	n/a	ITI	s591
258.638	1.235	1	PA_without_intermediate	0,0,0,0,0,0,1,2,0	test	ward_and_allport	3,2,0,1,0,0,0,0,0	82.0	25.0	1.235	0,0,0,0,0,0,1,2,3	to_hand	s591
259.875	0.854	0	PA_without_intermediate	3,0,0,0,0,0,1,2,0	test	ward_and_allport	3,2,0,1,0,0,0,0,0	89.0	25.0	0.854	0,0,0,0,0,0,1,2,3	to_board	s591
260.738	0.909	0	PA_without_intermediate	3,0,0,0,0,0,1,0,0	test	ward_and_allport	3,2,0,1,0,0,0,0,0	82.0	25.0	0.909	0,0,0,0,0,0,1,2,3	to_hand	s591
261.647	0.503	0	PA_without_intermediate	3,2,0,0,0,0,1,0,0	test	ward_and_allport	3,2,0,1,0,0,0,0,0	89.0	25.0	0.503	0,0,0,0,0,0,1,2,3	to_board	s591
262.159	0.444	0	PA_without_intermediate	3,2,0,0,0,0,0,0,0	test	ward_and_allport	3,2,0,1,0,0,0,0,0	82.0	25.0	0.444	0,0,0,0,0,0,1,2,3	to_hand	s591
262.604	0.364	0	PA_without_intermediate	3,2,0,1,0,0,0,0,0	test	ward_and_allport	3,2,0,1,0,0,0,0,0	71.0	25.0	0.364	0,0,0,0,0,0,1,2,3	to_board	s591
262.981	1.0	0	PA_without_intermediate	n/a	test	ward_and_allport	n/a	-1.0	25.0	n/a	n/a	feedback	s591
263.981	1.68	0	PA_without_intermediate	n/a	test	ward_and_allport	n/a	-1.0	25.0	n/a	n/a	ITI	s591
265.668	1.707	1	PA_with_intermediate	0,0,0,1,2,0,0,0,0	test	ward_and_allport	2,0,0,1,3,0,0,0,0	71.0	26.0	1.707	0,0,0,1,2,3,0,0,0	to_hand	s591
267.377	0.317	0	PA_with_intermediate	0,0,0,1,2,0,3,0,0	test	ward_and_allport	2,0,0,1,3,0,0,0,0	82.0	26.0	0.317	0,0,0,1,2,3,0,0,0	to_board	s591
267.701	0.35	0	PA_with_intermediate	0,0,0,1,0,0,3,0,0	test	ward_and_allport	2,0,0,1,3,0,0,0,0	71.0	26.0	0.35	0,0,0,1,2,3,0,0,0	to_hand	s591
268.052	0.316	0	PA_with_intermediate	2,0,0,1,0,0,3,0,0	test	ward_and_allport	2,0,0,1,3,0,0,0,0	89.0	26.0	0.316	0,0,0,1,2,3,0,0,0	to_board	s591
268.376	0.401	0	PA_with_intermediate	2,0,0,1,0,0,0,0,0	test	ward_and_allport	2,0,0,1,3,0,0,0,0	82.0	26.0	0.401	0,0,0,1,2,3,0,0,0	to_hand	s591
268.778	0.363	0	PA_with_intermediate	2,0,0,1,3,0,0,0,0	test	ward_and_allport	2,0,0,1,3,0,0,0,0	71.0	26.0	0.363	0,0,0,1,2,3,0,0,0	to_board	s591
269.154	1.0	0	PA_with_intermediate	n/a	test	ward_and_allport	n/a	-1.0	26.0	n/a	n/a	feedback	s591
270.154	3.72	0	PA_with_intermediate	n/a	test	ward_and_allport	n/a	-1.0	26.0	n/a	n/a	ITI	s591
273.883	1.933	1	PA_without_intermediate	0,0,0,0,0,0,1,2,0	test	ward_and_allport	3,1,0,2,0,0,0,0,0	82.0	27.0	1.933	0,0,0,0,0,0,1,2,3	to_hand	s591
275.817	0.396	0	PA_without_intermediate	3,0,0,0,0,0,1,2,0	test	ward_and_allport	3,1,0,2,0,0,0,0,0	89.0	27.0	0.396	0,0,0,0,0,0,1,2,3	to_board	s591
276.222	0.914	0	PA_without_intermediate	3,0,0,0,0,0,1,0,0	test	ward_and_allport	3,1,0,2,0,0,0,0,0	82.0	27.0	0.914	0,0,0,0,0,0,1,2,3	to_hand	s591
277.137	0.478	0	PA_without_intermediate	3,0,0,2,0,0,1,0,0	test	ward_and_allport	3,1,0,2,0,0,0,0,0	71.0	27.0	0.478	0,0,0,0,0,0,1,2,3	to_board	s591
277.623	0.442	0	PA_without_intermediate	3,0,0,2,0,0,0,0,0	test	ward_and_allport	3,1,0,2,0,0,0,0,0	82.0	27.0	0.442	0,0,0,0,0,0,1,2,3	to_hand	s591
278.067	0.697	0	PA_without_intermediate	3,1,0,2,0,0,0,0,0	test	ward_and_allport	3,1,0,2,0,0,0,0,0	89.0	27.0	0.697	0,0,0,0,0,0,1,2,3	to_board	s591
278.776	1.0	0	PA_without_intermediate	n/a	test	ward_and_allport	n/a	-1.0	27.0	n/a	n/a	feedback	s591
279.776	2.224	0	PA_without_intermediate	n/a	test	ward_and_allport	n/a	-1.0	27.0	n/a	n/a	ITI	s591
282.009	0.95	1	PA_without_intermediate	0,0,0,0,0,0,1,2,0	test	ward_and_allport	1,0,0,3,2,0,0,0,0	82.0	28.0	0.95	0,0,0,0,0,0,1,2,3	to_hand	s591
282.96	0.548	0	PA_without_intermediate	0,0,0,3,0,0,1,2,0	test	ward_and_allport	1,0,0,3,2,0,0,0,0	71.0	28.0	0.548	0,0,0,0,0,0,1,2,3	to_board	s591
283.516	0.496	0	PA_without_intermediate	0,0,0,3,0,0,1,0,0	test	ward_and_allport	1,0,0,3,2,0,0,0,0	82.0	28.0	0.496	0,0,0,0,0,0,1,2,3	to_hand	s591
284.013	0.429	0	PA_without_intermediate	0,0,0,3,2,0,1,0,0	test	ward_and_allport	1,0,0,3,2,0,0,0,0	71.0	28.0	0.429	0,0,0,0,0,0,1,2,3	to_board	s591
284.45	0.35	0	PA_without_intermediate	0,0,0,3,2,0,0,0,0	test	ward_and_allport	1,0,0,3,2,0,0,0,0	82.0	28.0	0.35	0,0,0,0,0,0,1,2,3	to_hand	s591
284.801	0.815	0	PA_without_intermediate	1,0,0,3,2,0,0,0,0	test	ward_and_allport	1,0,0,3,2,0,0,0,0	89.0	28.0	0.815	0,0,0,0,0,0,1,2,3	to_board	s591
285.629	1.0	0	PA_without_intermediate	n/a	test	ward_and_allport	n/a	-1.0	28.0	n/a	n/a	feedback	s591
286.629	1.272	0	PA_without_intermediate	n/a	test	ward_and_allport	n/a	-1.0	28.0	n/a	n/a	ITI	s591
287.91	1.09	1	PA_with_intermediate	0,0,0,0,0,0,1,2,0	test	ward_and_allport	0,0,0,2,3,0,1,0,0	82.0	29.0	1.09	0,0,0,0,0,0,1,2,3	to_hand	s591
289.002	0.677	0	PA_with_intermediate	3,0,0,0,0,0,1,2,0	test	ward_and_allport	0,0,0,2,3,0,1,0,0	89.0	29.0	0.677	0,0,0,0,0,0,1,2,3	to_board	s591
289.689	0.602	0	PA_with_intermediate	3,0,0,0,0,0,1,0,0	test	ward_and_allport	0,0,0,2,3,0,1,0,0	82.0	29.0	0.602	0,0,0,0,0,0,1,2,3	to_hand	s591
290.292	0.493	0	PA_with_intermediate	3,0,0,2,0,0,1,0,0	test	ward_and_allport	0,0,0,2,3,0,1,0,0	71.0	29.0	0.493	0,0,0,0,0,0,1,2,3	to_board	s591
290.794	0.826	0	PA_with_intermediate	0,0,0,2,0,0,1,0,0	test	ward_and_allport	0,0,0,2,3,0,1,0,0	89.0	29.0	0.826	0,0,0,0,0,0,1,2,3	to_hand	s591
291.622	0.7	0	PA_with_intermediate	0,0,0,2,3,0,1,0,0	test	ward_and_allport	0,0,0,2,3,0,1,0,0	71.0	29.0	0.7	0,0,0,0,0,0,1,2,3	to_board	s591
292.334	1.0	0	PA_with_intermediate	n/a	test	ward_and_allport	n/a	-1.0	29.0	n/a	n/a	feedback	s591
293.334	2.632	0	PA_with_intermediate	n/a	test	ward_and_allport	n/a	-1.0	29.0	n/a	n/a	ITI	s591
300.976	2.558	1	PA_without_intermediate	1,2,0,0,0,0,0,0,0	test	ward_and_allport	0,0,0,2,0,0,3,1,0	89.0	30.0	2.558	1,2,3,0,0,0,0,0,0	to_hand	s591
303.535	0.666	0	PA_without_intermediate	1,2,0,0,0,0,3,0,0	test	ward_and_allport	0,0,0,2,0,0,3,1,0	82.0	30.0	0.666	1,2,3,0,0,0,0,0,0	to_board	s591
304.21	1.876	0	PA_without_intermediate	1,0,0,0,0,0,3,0,0	test	ward_and_allport	0,0,0,2,0,0,3,1,0	89.0	30.0	1.876	1,2,3,0,0,0,0,0,0	to_hand	s591
306.087	0.392	0	PA_without_intermediate	1,0,0,2,0,0,3,0,0	test	ward_and_allport	0,0,0,2,0,0,3,1,0	71.0	30.0	0.392	1,2,3,0,0,0,0,0,0	to_board	s591
306.491	0.586	0	PA_without_intermediate	0,0,0,2,0,0,3,0,0	test	ward_and_allport	0,0,0,2,0,0,3,1,0	89.0	30.0	0.586	1,2,3,0,0,0,0,0,0	to_hand	s591
307.077	0.566	0	PA_without_intermediate	0,0,0,2,0,0,3,1,0	test	ward_and_allport	0,0,0,2,0,0,3,1,0	82.0	30.0	0.566	1,2,3,0,0,0,0,0,0	to_board	s591
307.659	1.0	0	PA_without_intermediate	n/a	test	ward_and_allport	n/a	-1.0	30.0	n/a	n/a	feedback	s591
308.659	1.408	0	PA_without_intermediate	n/a	test	ward_and_allport	n/a	-1.0	30.0	n/a	n/a	ITI	s591
310.079	1.276	1	PA_without_intermediate	0,0,0,1,2,0,0,0,0	test	ward_and_allport	3,2,0,0,0,0,1,0,0	71.0	31.0	1.276	0,0,0,1,2,3,0,0,0	to_hand	s591
311.356	0.333	0	PA_without_intermediate	3,0,0,1,2,0,0,0,0	test	ward_and_allport	3,2,0,0,0,0,1,0,0	89.0	31.0	0.333	0,0,0,1,2,3,0,0,0	to_board	s591
311.7	0.397	0	PA_without_intermediate	3,0,0,1,0,0,0,0,0	test	ward_and_allport	3,2,0,0,0,0,1,0,0	71.0	31.0	0.397	0,0,0,1,2,3,0,0,0	to_hand	s591
312.098	0.329	0	PA_without_intermediate	3,2,0,1,0,0,0,0,0	test	ward_and_allport	3,2,0,0,0,0,1,0,0	89.0	31.0	0.329	0,0,0,1,2,3,0,0,0	to_board	s591
312.437	0.991	0	PA_without_intermediate	3,2,0,0,0,0,0,0,0	test	ward_and_allport	3,2,0,0,0,0,1,0,0	71.0	31.0	0.991	0,0,0,1,2,3,0,0,0	to_hand	s591
313.43	0.339	0	PA_without_intermediate	3,2,0,0,0,0,1,0,0	test	ward_and_allport	3,2,0,0,0,0,1,0,0	82.0	31.0	0.339	0,0,0,1,2,3,0,0,0	to_board	s591
313.779	1.0	0	PA_without_intermediate	n/a	test	ward_and_allport	n/a	-1.0	31.0	n/a	n/a	feedback	s591
314.779	1.0	0	PA_without_intermediate	n/a	test	ward_and_allport	n/a	-1.0	31.0	n/a	n/a	ITI	s591
315.787	1.135	1	PA_with_intermediate	0,0,0,0,0,0,1,2,0	test	ward_and_allport	2,3,0,0,0,0,1,0,0	82.0	32.0	1.135	0,0,0,0,0,0,1,2,3	to_hand	s591
316.923	1.798	0	PA_with_intermediate	0,0,0,3,0,0,1,2,0	test	ward_and_allport	2,3,0,0,0,0,1,0,0	71.0	32.0	1.798	0,0,0,0,0,0,1,2,3	to_board	s591
318.731	0.442	0	PA_with_intermediate	0,0,0,3,0,0,1,0,0	test	ward_and_allport	2,3,0,0,0,0,1,0,0	82.0	32.0	0.442	0,0,0,0,0,0,1,2,3	to_hand	s591
319.174	0.494	0	PA_with_intermediate	2,0,0,3,0,0,1,0,0	test	ward_and_allport	2,3,0,0,0,0,1,0,0	89.0	32.0	0.494	0,0,0,0,0,0,1,2,3	to_board	s591
319.679	0.398	0	PA_with_intermediate	2,0,0,0,0,0,1,0,0	test	ward_and_allport	2,3,0,0,0,0,1,0,0	71.0	32.0	0.398	0,0,0,0,0,0,1,2,3	to_hand	s591
320.078	0.29	0	PA_with_intermediate	2,3,0,0,0,0,1,0,0	test	ward_and_allport	2,3,0,0,0,0,1,0,0	89.0	32.0	0.29	0,0,0,0,0,0,1,2,3	to_board	s591
320.382	1.0	0	PA_with_intermediate	n/a	test	ward_and_allport	n/a	-1.0	32.0	n/a	n/a	feedback	s591
321.382	1.0	0	PA_with_intermediate	n/a	test	ward_and_allport	n/a	-1.0	32.0	n/a	n/a	ITI	s591
322.391	1.746	1	PA_with_intermediate	0,0,0,1,2,0,0,0,0	test	ward_and_allport	2,3,0,1,0,0,0,0,0	71.0	33.0	1.746	0,0,0,1,2,3,0,0,0	to_hand	s591
324.139	0.384	0	PA_with_intermediate	0,0,0,1,2,0,3,0,0	test	ward_and_allport	2,3,0,1,0,0,0,0,0	82.0	33.0	0.384	0,0,0,1,2,3,0,0,0	to_board	s591
324.531	0.698	0	PA_with_intermediate	0,0,0,1,0,0,3,0,0	test	ward_and_allport	2,3,0,1,0,0,0,0,0	71.0	33.0	0.698	0,0,0,1,2,3,0,0,0	to_hand	s591
325.23	0.307	0	PA_with_intermediate	2,0,0,1,0,0,3,0,0	test	ward_and_allport	2,3,0,1,0,0,0,0,0	89.0	33.0	0.307	0,0,0,1,2,3,0,0,0	to_board	s591
325.544	0.443	0	PA_with_intermediate	2,0,0,1,0,0,0,0,0	test	ward_and_allport	2,3,0,1,0,0,0,0,0	82.0	33.0	0.443	0,0,0,1,2,3,0,0,0	to_hand	s591
325.989	0.454	0	PA_with_intermediate	2,3,0,1,0,0,0,0,0	test	ward_and_allport	2,3,0,1,0,0,0,0,0	89.0	33.0	0.454	0,0,0,1,2,3,0,0,0	to_board	s591
326.452	1.0	0	PA_with_intermediate	n/a	test	ward_and_allport	n/a	-1.0	33.0	n/a	n/a	feedback	s591
327.452	1.0	0	PA_with_intermediate	n/a	test	ward_and_allport	n/a	-1.0	33.0	n/a	n/a	ITI	s591
328.46	2.81	1	PA_with_intermediate	1,2,0,0,0,0,0,0,0	test	ward_and_allport	1,3,0,0,0,0,2,0,0	89.0	34.0	2.81	1,2,3,0,0,0,0,0,0	to_hand	s591
331.271	0.392	0	PA_with_intermediate	1,2,0,3,0,0,0,0,0	test	ward_and_allport	1,3,0,0,0,0,2,0,0	71.0	34.0	0.392	1,2,3,0,0,0,0,0,0	to_board	s591
331.673	0.894	0	PA_with_intermediate	1,0,0,3,0,0,0,0,0	test	ward_and_allport	1,3,0,0,0,0,2,0,0	89.0	34.0	0.894	1,2,3,0,0,0,0,0,0	to_hand	s591
332.568	0.38	0	PA_with_intermediate	1,0,0,3,0,0,2,0,0	test	ward_and_allport	1,3,0,0,0,0,2,0,0	82.0	34.0	0.38	1,2,3,0,0,0,0,0,0	to_board	s591
332.958	0.555	0	PA_with_intermediate	1,0,0,0,0,0,2,0,0	test	ward_and_allport	1,3,0,0,0,0,2,0,0	71.0	34.0	0.555	1,2,3,0,0,0,0,0,0	to_hand	s591
333.514	0.31	0	PA_with_intermediate	1,3,0,0,0,0,2,0,0	test	ward_and_allport	1,3,0,0,0,0,2,0,0	89.0	34.0	0.31	1,2,3,0,0,0,0,0,0	to_board	s591
333.836	1.0	0	PA_with_intermediate	n/a	test	ward_and_allport	n/a	-1.0	34.0	n/a	n/a	feedback	s591
334.836	1.408	0	PA_with_intermediate	n/a	test	ward_and_allport	n/a	-1.0	34.0	n/a	n/a	ITI	s591
336.255	1.152	1	PA_without_intermediate	0,0,0,1,2,0,0,0,0	test	ward_and_allport	3,1,0,0,0,0,2,0,0	71.0	35.0	1.152	0,0,0,1,2,3,0,0,0	to_hand	s591
337.408	0.433	0	PA_without_intermediate	3,0,0,1,2,0,0,0,0	test	ward_and_allport	3,1,0,0,0,0,2,0,0	89.0	35.0	0.433	0,0,0,1,2,3,0,0,0	to_board	s591
337.852	0.673	0	PA_without_intermediate	3,0,0,1,0,0,0,0,0	test	ward_and_allport	3,1,0,0,0,0,2,0,0	71.0	35.0	0.673	0,0,0,1,2,3,0,0,0	to_hand	s591
338.526	0.324	0	PA_without_intermediate	3,0,0,1,0,0,2,0,0	test	ward_and_allport	3,1,0,0,0,0,2,0,0	82.0	35.0	0.324	0,0,0,1,2,3,0,0,0	to_board	s591
338.858	0.381	0	PA_without_intermediate	3,0,0,0,0,0,2,0,0	test	ward_and_allport	3,1,0,0,0,0,2,0,0	71.0	35.0	0.381	0,0,0,1,2,3,0,0,0	to_hand	s591
339.241	0.273	0	PA_without_intermediate	3,1,0,0,0,0,2,0,0	test	ward_and_allport	3,1,0,0,0,0,2,0,0	89.0	35.0	0.273	0,0,0,1,2,3,0,0,0	to_board	s591
339.524	1.0	0	PA_without_intermediate	n/a	test	ward_and_allport	n/a	-1.0	35.0	n/a	n/a	feedback	s591
340.524	1.816	0	PA_without_intermediate	n/a	test	ward_and_allport	n/a	-1.0	35.0	n/a	n/a	ITI	s591
342.348	1.507	1	PA_with_intermediate	0,0,0,1,2,0,0,0,0	test	ward_and_allport	0,0,0,1,0,0,2,3,0	71.0	36.0	1.507	0,0,0,1,2,3,0,0,0	to_hand	s591
343.855	0.278	0	PA_with_intermediate	3,0,0,1,2,0,0,0,0	test	ward_and_allport	0,0,0,1,0,0,2,3,0	89.0	36.0	0.278	0,0,0,1,2,3,0,0,0	to_board	s591
344.141	0.319	0	PA_with_intermediate	3,0,0,1,0,0,0,0,0	test	ward_and_allport	0,0,0,1,0,0,2,3,0	71.0	36.0	0.319	0,0,0,1,2,3,0,0,0	to_hand	s591
344.46	0.351	0	PA_with_intermediate	3,0,0,1,0,0,2,0,0	test	ward_and_allport	0,0,0,1,0,0,2,3,0	82.0	36.0	0.351	0,0,0,1,2,3,0,0,0	to_board	s591
344.822	0.397	0	PA_with_intermediate	0,0,0,1,0,0,2,0,0	test	ward_and_allport	0,0,0,1,0,0,2,3,0	89.0	36.0	0.397	0,0,0,1,2,3,0,0,0	to_hand	s591
345.221	0.497	0	PA_with_intermediate	0,0,0,1,0,0,2,3,0	test	ward_and_allport	0,0,0,1,0,0,2,3,0	82.0	36.0	0.497	0,0,0,1,2,3,0,0,0	to_board	s591
345.732	1.0	0	PA_with_intermediate	n/a	test	ward_and_allport	n/a	-1.0	36.0	n/a	n/a	feedback	s591
346.732	3.176	0	PA_with_intermediate	n/a	test	ward_and_allport	n/a	-1.0	36.0	n/a	n/a	ITI	s591
349.918	2.275	1	PA_with_intermediate	1,2,0,0,0,0,0,0,0	test	ward_and_allport	1,3,0,0,0,0,2,0,0	89.0	37.0	2.275	1,2,3,0,0,0,0,0,0	to_hand	s591
352.194	0.378	0	PA_with_intermediate	1,2,0,3,0,0,0,0,0	test	ward_and_allport	1,3,0,0,0,0,2,0,0	71.0	37.0	0.378	1,2,3,0,0,0,0,0,0	to_board	s591
352.584	0.306	0	PA_with_intermediate	1,0,0,3,0,0,0,0,0	test	ward_and_allport	1,3,0,0,0,0,2,0,0	89.0	37.0	0.306	1,2,3,0,0,0,0,0,0	to_hand	s591
352.891	0.432	0	PA_with_intermediate	1,0,0,3,0,0,2,0,0	test	ward_and_allport	1,3,0,0,0,0,2,0,0	82.0	37.0	0.432	1,2,3,0,0,0,0,0,0	to_board	s591
353.335	0.36	0	PA_with_intermediate	1,0,0,0,0,0,2,0,0	test	ward_and_allport	1,3,0,0,0,0,2,0,0	71.0	37.0	0.36	1,2,3,0,0,0,0,0,0	to_hand	s591
353.696	0.274	0	PA_with_intermediate	1,3,0,0,0,0,2,0,0	test	ward_and_allport	1,3,0,0,0,0,2,0,0	89.0	37.0	0.274	1,2,3,0,0,0,0,0,0	to_board	s591
353.986	1.0	0	PA_with_intermediate	n/a	test	ward_and_allport	n/a	-1.0	37.0	n/a	n/a	feedback	s591
354.986	2.36	0	PA_with_intermediate	n/a	test	ward_and_allport	n/a	-1.0	37.0	n/a	n/a	ITI	s591
357.353	2.168	1	PA_with_intermediate	0,0,0,0,0,0,1,2,0	test	ward_and_allport	2,3,0,0,0,0,1,0,0	82.0	38.0	2.168	0,0,0,0,0,0,1,2,3	to_hand	s591
359.523	0.33	0	PA_with_intermediate	0,0,0,3,0,0,1,2,0	test	ward_and_allport	2,3,0,0,0,0,1,0,0	71.0	38.0	0.33	0,0,0,0,0,0,1,2,3	to_board	s591
359.862	0.617	0	PA_with_intermediate	0,0,0,3,0,0,1,0,0	test	ward_and_allport	2,3,0,0,0,0,1,0,0	82.0	38.0	0.617	0,0,0,0,0,0,1,2,3	to_hand	s591
360.48	0.318	0	PA_with_intermediate	2,0,0,3,0,0,1,0,0	test	ward_and_allport	2,3,0,0,0,0,1,0,0	89.0	38.0	0.318	0,0,0,0,0,0,1,2,3	to_board	s591
360.809	0.421	0	PA_with_intermediate	2,0,0,0,0,0,1,0,0	test	ward_and_allport	2,3,0,0,0,0,1,0,0	71.0	38.0	0.421	0,0,0,0,0,0,1,2,3	to_hand	s591
361.231	0.282	0	PA_with_intermediate	2,3,0,0,0,0,1,0,0	test	ward_and_allport	2,3,0,0,0,0,1,0,0	89.0	38.0	0.282	0,0,0,0,0,0,1,2,3	to_board	s591
361.524	1.0	0	PA_with_intermediate	n/a	test	ward_and_allport	n/a	-1.0	38.0	n/a	n/a	feedback	s591
362.524	1.0	0	PA_with_intermediate	n/a	test	ward_and_allport	n/a	-1.0	38.0	n/a	n/a	ITI	s591
363.535	1.696	1	PA_without_intermediate	1,2,0,0,0,0,0,0,0	test	ward_and_allport	0,0,0,3,1,0,2,0,0	89.0	39.0	1.696	1,2,3,0,0,0,0,0,0	to_hand	s591
365.233	0.431	0	PA_without_intermediate	1,2,0,3,0,0,0,0,0	test	ward_and_allport	0,0,0,3,1,0,2,0,0	71.0	39.0	0.431	1,2,3,0,0,0,0,0,0	to_board	s591
365.671	0.401	0	PA_without_intermediate	1,0,0,3,0,0,0,0,0	test	ward_and_allport	0,0,0,3,1,0,2,0,0	89.0	39.0	0.401	1,2,3,0,0,0,0,0,0	to_hand	s591
366.074	0.364	0	PA_without_intermediate	1,0,0,3,0,0,2,0,0	test	ward_and_allport	0,0,0,3,1,0,2,0,0	82.0	39.0	0.364	1,2,3,0,0,0,0,0,0	to_board	s591
366.449	0.347	0	PA_without_intermediate	0,0,0,3,0,0,2,0,0	test	ward_and_allport	0,0,0,3,1,0,2,0,0	89.0	39.0	0.347	1,2,3,0,0,0,0,0,0	to_hand	s591
366.797	0.379	0	PA_without_intermediate	0,0,0,3,1,0,2,0,0	test	ward_and_allport	0,0,0,3,1,0,2,0,0	71.0	39.0	0.379	1,2,3,0,0,0,0,0,0	to_board	s591
367.186	1.0	0	PA_without_intermediate	n/a	test	ward_and_allport	n/a	-1.0	39.0	n/a	n/a	feedback	s591
368.186	1.408	0	PA_without_intermediate	n/a	test	ward_and_allport	n/a	-1.0	39.0	n/a	n/a	ITI	s591
369.601	2.532	1	PA_with_intermediate	0,0,0,0,0,0,1,2,0	test	ward_and_allport	2,0,0,0,0,0,1,3,0	82.0	40.0	2.532	0,0,0,0,0,0,1,2,3	to_hand	s591
372.134	0.5	0	PA_with_intermediate	0,0,0,3,0,0,1,2,0	test	ward_and_allport	2,0,0,0,0,0,1,3,0	71.0	40.0	0.5	0,0,0,0,0,0,1,2,3	to_board	s591
372.644	0.448	0	PA_with_intermediate	0,0,0,3,0,0,1,0,0	test	ward_and_allport	2,0,0,0,0,0,1,3,0	82.0	40.0	0.448	0,0,0,0,0,0,1,2,3	to_hand	s591
373.094	0.317	0	PA_with_intermediate	2,0,0,3,0,0,1,0,0	test	ward_and_allport	2,0,0,0,0,0,1,3,0	89.0	40.0	0.317	0,0,0,0,0,0,1,2,3	to_board	s591
373.42	0.46	0	PA_with_intermediate	2,0,0,0,0,0,1,0,0	test	ward_and_allport	2,0,0,0,0,0,1,3,0	71.0	40.0	0.46	0,0,0,0,0,0,1,2,3	to_hand	s591
373.881	0.408	0	PA_with_intermediate	2,0,0,0,0,0,1,3,0	test	ward_and_allport	2,0,0,0,0,0,1,3,0	82.0	40.0	0.408	0,0,0,0,0,0,1,2,3	to_board	s591
374.303	1.0	0	PA_with_intermediate	n/a	test	ward_and_allport	n/a	-1.0	40.0	n/a	n/a	feedback	s591
375.303	1.816	0	PA_with_intermediate	n/a	test	ward_and_allport	n/a	-1.0	40.0	n/a	n/a	ITI	s591
377.129	1.565	1	PA_without_intermediate	0,0,0,1,2,0,0,0,0	test	ward_and_allport	2,0,0,0,0,0,3,1,0	71.0	41.0	1.565	0,0,0,1,2,3,0,0,0	to_hand	s591
378.695	0.318	0	PA_without_intermediate	0,0,0,1,2,0,3,0,0	test	ward_and_allport	2,0,0,0,0,0,3,1,0	82.0	41.0	0.318	0,0,0,1,2,3,0,0,0	to_board	s591
379.023	0.401	0	PA_without_intermediate	0,0,0,1,0,0,3,0,0	test	ward_and_allport	2,0,0,0,0,0,3,1,0	71.0	41.0	0.401	0,0,0,1,2,3,0,0,0	to_hand	s591
379.425	0.282	0	PA_without_intermediate	2,0,0,1,0,0,3,0,0	test	ward_and_allport	2,0,0,0,0,0,3,1,0	89.0	41.0	0.282	0,0,0,1,2,3,0,0,0	to_board	s591
379.715	0.321	0	PA_without_intermediate	2,0,0,0,0,0,3,0,0	test	ward_and_allport	2,0,0,0,0,0,3,1,0	71.0	41.0	0.321	0,0,0,1,2,3,0,0,0	to_hand	s591
380.037	0.345	0	PA_without_intermediate	2,0,0,0,0,0,3,1,0	test	ward_and_allport	2,0,0,0,0,0,3,1,0	82.0	41.0	0.345	0,0,0,1,2,3,0,0,0	to_board	s591
380.395	1.0	0	PA_without_intermediate	n/a	test	ward_and_allport	n/a	-1.0	41.0	n/a	n/a	feedback	s591
381.395	2.088	0	PA_without_intermediate	n/a	test	ward_and_allport	n/a	-1.0	41.0	n/a	n/a	ITI	s591
383.494	1.156	1	PA_without_intermediate	0,0,0,0,0,0,1,2,0	test	ward_and_allport	2,0,0,3,1,0,0,0,0	82.0	42.0	1.156	0,0,0,0,0,0,1,2,3	to_hand	s591
384.651	0.421	0	PA_without_intermediate	0,0,0,3,0,0,1,2,0	test	ward_and_allport	2,0,0,3,1,0,0,0,0	71.0	42.0	0.421	0,0,0,0,0,0,1,2,3	to_board	s591
385.081	1.664	0	PA_without_intermediate	0,0,0,3,0,0,1,0,0	test	ward_and_allport	2,0,0,3,1,0,0,0,0	82.0	42.0	1.664	0,0,0,0,0,0,1,2,3	to_hand	s591
386.746	0.473	0	PA_without_intermediate	2,0,0,3,0,0,1,0,0	test	ward_and_allport	2,0,0,3,1,0,0,0,0	89.0	42.0	0.473	0,0,0,0,0,0,1,2,3	to_board	s591
387.227	1.217	0	PA_without_intermediate	2,0,0,3,0,0,0,0,0	test	ward_and_allport	2,0,0,3,1,0,0,0,0	82.0	42.0	1.217	0,0,0,0,0,0,1,2,3	to_hand	s591
388.445	0.401	0	PA_without_intermediate	2,0,0,3,1,0,0,0,0	test	ward_and_allport	2,0,0,3,1,0,0,0,0	71.0	42.0	0.401	0,0,0,0,0,0,1,2,3	to_board	s591
388.86	1.0	0	PA_without_intermediate	n/a	test	ward_and_allport	n/a	-1.0	42.0	n/a	n/a	feedback	s591
389.86	1.136	0	PA_without_intermediate	n/a	test	ward_and_allport	n/a	-1.0	42.0	n/a	n/a	ITI	s591
391.005	0.993	1	PA_without_intermediate	0,0,0,0,0,0,1,2,0	test	ward_and_allport	3,1,0,2,0,0,0,0,0	82.0	43.0	0.993	0,0,0,0,0,0,1,2,3	to_hand	s591
392.0	0.345	0	PA_without_intermediate	3,0,0,0,0,0,1,2,0	test	ward_and_allport	3,1,0,2,0,0,0,0,0	89.0	43.0	0.345	0,0,0,0,0,0,1,2,3	to_board	s591
392.355	0.756	0	PA_without_intermediate	3,0,0,0,0,0,1,0,0	test	ward_and_allport	3,1,0,2,0,0,0,0,0	82.0	43.0	0.756	0,0,0,0,0,0,1,2,3	to_hand	s591
393.113	0.395	0	PA_without_intermediate	3,0,0,2,0,0,1,0,0	test	ward_and_allport	3,1,0,2,0,0,0,0,0	71.0	43.0	0.395	0,0,0,0,0,0,1,2,3	to_board	s591
393.519	0.505	0	PA_without_intermediate	3,0,0,2,0,0,0,0,0	test	ward_and_allport	3,1,0,2,0,0,0,0,0	82.0	43.0	0.505	0,0,0,0,0,0,1,2,3	to_hand	s591
394.026	0.314	0	PA_without_intermediate	3,1,0,2,0,0,0,0,0	test	ward_and_allport	3,1,0,2,0,0,0,0,0	89.0	43.0	0.314	0,0,0,0,0,0,1,2,3	to_board	s591
394.353	1.0	0	PA_without_intermediate	n/a	test	ward_and_allport	n/a	-1.0	43.0	n/a	n/a	feedback	s591
395.353	6.168	0	PA_without_intermediate	n/a	test	ward_and_allport	n/a	-1.0	43.0	n/a	n/a	ITI	s591
401.528	1.705	1	PA_without_intermediate	1,2,0,0,0,0,0,0,0	test	ward_and_allport	0,0,0,1,0,0,3,2,0	89.0	44.0	1.705	1,2,3,0,0,0,0,0,0	to_hand	s591
403.234	0.431	0	PA_without_intermediate	1,2,0,0,0,0,3,0,0	test	ward_and_allport	0,0,0,1,0,0,3,2,0	82.0	44.0	0.431	1,2,3,0,0,0,0,0,0	to_board	s591
403.674	0.349	0	PA_without_intermediate	1,0,0,0,0,0,3,0,0	test	ward_and_allport	0,0,0,1,0,0,3,2,0	89.0	44.0	0.349	1,2,3,0,0,0,0,0,0	to_hand	s591
404.024	0.473	0	PA_without_intermediate	1,0,0,0,0,0,3,2,0	test	ward_and_allport	0,0,0,1,0,0,3,2,0	82.0	44.0	0.473	1,2,3,0,0,0,0,0,0	to_board	s591
404.51	0.313	0	PA_without_intermediate	0,0,0,0,0,0,3,2,0	test	ward_and_allport	0,0,0,1,0,0,3,2,0	89.0	44.0	0.313	1,2,3,0,0,0,0,0,0	to_hand	s591
404.823	0.348	0	PA_without_intermediate	0,0,0,1,0,0,3,2,0	test	ward_and_allport	0,0,0,1,0,0,3,2,0	71.0	44.0	0.348	1,2,3,0,0,0,0,0,0	to_board	s591
405.186	1.0	0	PA_without_intermediate	n/a	test	ward_and_allport	n/a	-1.0	44.0	n/a	n/a	feedback	s591
406.186	1.816	0	PA_without_intermediate	n/a	test	ward_and_allport	n/a	-1.0	44.0	n/a	n/a	ITI	s591
413.018	1.556	1	PA_with_intermediate	1,2,0,0,0,0,0,0,0	test	ward_and_allport	1,0,0,0,0,0,2,3,0	89.0	45.0	1.556	1,2,3,0,0,0,0,0,0	to_hand	s591
414.576	0.374	0	PA_with_intermediate	1,2,0,3,0,0,0,0,0	test	ward_and_allport	1,0,0,0,0,0,2,3,0	71.0	45.0	0.374	1,2,3,0,0,0,0,0,0	to_board	s591
414.965	0.28	0	PA_with_intermediate	1,0,0,3,0,0,0,0,0	test	ward_and_allport	1,0,0,0,0,0,2,3,0	89.0	45.0	0.28	1,2,3,0,0,0,0,0,0	to_hand	s591
415.246	0.353	0	PA_with_intermediate	1,0,0,3,0,0,2,0,0	test	ward_and_allport	1,0,0,0,0,0,2,3,0	82.0	45.0	0.353	1,2,3,0,0,0,0,0,0	to_board	s591
415.612	0.398	0	PA_with_intermediate	1,0,0,0,0,0,2,0,0	test	ward_and_allport	1,0,0,0,0,0,2,3,0	71.0	45.0	0.398	1,2,3,0,0,0,0,0,0	to_hand	s591
416.011	0.321	0	PA_with_intermediate	1,0,0,0,0,0,2,3,0	test	ward_and_allport	1,0,0,0,0,0,2,3,0	82.0	45.0	0.321	1,2,3,0,0,0,0,0,0	to_board	s591
416.35	1.0	0	PA_with_intermediate	n/a	test	ward_and_allport	n/a	-1.0	45.0	n/a	n/a	feedback	s591
417.35	1.952	0	PA_with_intermediate	n/a	test	ward_and_allport	n/a	-1.0	45.0	n/a	n/a	ITI	s591
419.314	2.395	1	PA_with_intermediate	1,2,0,0,0,0,0,0,0	test	ward_and_allport	1,3,0,2,0,0,0,0,0	89.0	46.0	2.395	1,2,3,0,0,0,0,0,0	to_hand	s591
421.711	0.403	0	PA_with_intermediate	1,2,0,0,0,0,3,0,0	test	ward_and_allport	1,3,0,2,0,0,0,0,0	82.0	46.0	0.403	1,2,3,0,0,0,0,0,0	to_board	s591
422.123	0.523	0	PA_with_intermediate	1,0,0,0,0,0,3,0,0	test	ward_and_allport	1,3,0,2,0,0,0,0,0	89.0	46.0	0.523	1,2,3,0,0,0,0,0,0	to_hand	s591
422.647	0.401	0	PA_with_intermediate	1,0,0,2,0,0,3,0,0	test	ward_and_allport	1,3,0,2,0,0,0,0,0	71.0	46.0	0.401	1,2,3,0,0,0,0,0,0	to_board	s591
423.059	0.404	0	PA_with_intermediate	1,0,0,2,0,0,0,0,0	test	ward_and_allport	1,3,0,2,0,0,0,0,0	82.0	46.0	0.404	1,2,3,0,0,0,0,0,0	to_hand	s591
423.465	0.305	0	PA_with_intermediate	1,3,0,2,0,0,0,0,0	test	ward_and_allport	1,3,0,2,0,0,0,0,0	89.0	46.0	0.305	1,2,3,0,0,0,0,0,0	to_board	s591
423.785	1.0	0	PA_with_intermediate	n/a	test	ward_and_allport	n/a	-1.0	46.0	n/a	n/a	feedback	s591
424.785	1.136	0	PA_with_intermediate	n/a	test	ward_and_allport	n/a	-1.0	46.0	n/a	n/a	ITI	s591
425.932	1.583	1	PA_without_intermediate	0,0,0,1,2,0,0,0,0	test	ward_and_allport	3,2,0,0,0,0,1,0,0	71.0	47.0	1.583	0,0,0,1,2,3,0,0,0	to_hand	s591
427.516	0.296	0	PA_without_intermediate	3,0,0,1,2,0,0,0,0	test	ward_and_allport	3,2,0,0,0,0,1,0,0	89.0	47.0	0.296	0,0,0,1,2,3,0,0,0	to_board	s591
427.822	1.065	0	PA_without_intermediate	3,0,0,1,0,0,0,0,0	test	ward_and_allport	3,2,0,0,0,0,1,0,0	71.0	47.0	1.065	0,0,0,1,2,3,0,0,0	to_hand	s591
428.889	0.327	0	PA_without_intermediate	3,2,0,1,0,0,0,0,0	test	ward_and_allport	3,2,0,0,0,0,1,0,0	89.0	47.0	0.327	0,0,0,1,2,3,0,0,0	to_board	s591
429.226	0.437	0	PA_without_intermediate	3,2,0,0,0,0,0,0,0	test	ward_and_allport	3,2,0,0,0,0,1,0,0	71.0	47.0	0.437	0,0,0,1,2,3,0,0,0	to_hand	s591
429.664	0.338	0	PA_without_intermediate	3,2,0,0,0,0,1,0,0	test	ward_and_allport	3,2,0,0,0,0,1,0,0	82.0	47.0	0.338	0,0,0,1,2,3,0,0,0	to_board	s591
430.014	1.0	0	PA_without_intermediate	n/a	test	ward_and_allport	n/a	-1.0	47.0	n/a	n/a	feedback	s591
431.014	1.68	0	PA_without_intermediate	n/a	test	ward_and_allport	n/a	-1.0	47.0	n/a	n/a	ITI	s591
n/a	n/a	0	n/a	n/a	n/a	n/a	n/a	n/a	n/a	n/a	n/a	ITI	n/a
