onset	duration	planning	condition	current_position	exp_stage	experiment_exp_id	goal_state	key_press	problem_id	response_time	start_state	trial_id	worker_id
-61.538	0.0	0	n/a	n/a	n/a	ward_and_allport	n/a	32.0	n/a	20.874	n/a	instructions	s639
3.009	4.46	1	UA_with_intermediate	1,0,0,2,0,0,0,0,0	practice	ward_and_allport	1,2,3,0,0,0,0,0,0	71.0	0.0	4.46	1,0,0,2,3,0,0,0,0	to_hand	s639
7.471	0.724	0	UA_with_intermediate	1,0,0,2,0,0,3,0,0	practice	ward_and_allport	1,2,3,0,0,0,0,0,0	82.0	0.0	0.724	1,0,0,2,3,0,0,0,0	to_board	s639
8.198	0.512	0	UA_with_intermediate	1,0,0,0,0,0,3,0,0	practice	ward_and_allport	1,2,3,0,0,0,0,0,0	71.0	0.0	0.512	1,0,0,2,3,0,0,0,0	to_hand	s639
8.712	0.417	0	UA_with_intermediate	1,2,0,0,0,0,3,0,0	practice	ward_and_allport	1,2,3,0,0,0,0,0,0	89.0	0.0	0.417	1,0,0,2,3,0,0,0,0	to_board	s639
9.131	0.681	0	UA_with_intermediate	1,2,0,0,0,0,0,0,0	practice	ward_and_allport	1,2,3,0,0,0,0,0,0	82.0	0.0	0.681	1,0,0,2,3,0,0,0,0	to_hand	s639
9.813	0.535	0	UA_with_intermediate	1,2,3,0,0,0,0,0,0	practice	ward_and_allport	1,2,3,0,0,0,0,0,0	89.0	0.0	0.535	1,0,0,2,3,0,0,0,0	to_board	s639
10.353	1.0	0	UA_with_intermediate	n/a	practice	ward_and_allport	n/a	-1.0	0.0	n/a	n/a	feedback	s639
12.855	3.216	1	UA_with_intermediate	1,0,0,3,0,0,0,0,0	practice	ward_and_allport	1,3,2,0,0,0,0,0,0	89.0	1.0	3.216	1,2,0,3,0,0,0,0,0	to_hand	s639
16.073	0.926	0	UA_with_intermediate	1,0,0,3,0,0,2,0,0	practice	ward_and_allport	1,3,2,0,0,0,0,0,0	82.0	1.0	0.926	1,2,0,3,0,0,0,0,0	to_board	s639
17.0	0.401	0	UA_with_intermediate	1,0,0,0,0,0,2,0,0	practice	ward_and_allport	1,3,2,0,0,0,0,0,0	71.0	1.0	0.401	1,2,0,3,0,0,0,0,0	to_hand	s639
17.403	0.325	0	UA_with_intermediate	1,3,0,0,0,0,2,0,0	practice	ward_and_allport	1,3,2,0,0,0,0,0,0	89.0	1.0	0.325	1,2,0,3,0,0,0,0,0	to_board	s639
17.731	0.571	0	UA_with_intermediate	1,3,0,0,0,0,0,0,0	practice	ward_and_allport	1,3,2,0,0,0,0,0,0	82.0	1.0	0.571	1,2,0,3,0,0,0,0,0	to_hand	s639
18.304	0.439	0	UA_with_intermediate	1,3,2,0,0,0,0,0,0	practice	ward_and_allport	1,3,2,0,0,0,0,0,0	89.0	1.0	0.439	1,2,0,3,0,0,0,0,0	to_board	s639
18.746	1.0	0	UA_with_intermediate	n/a	practice	ward_and_allport	n/a	-1.0	1.0	n/a	n/a	feedback	s639
19.746	1.1	0	UA_with_intermediate	n/a	practice	ward_and_allport	n/a	-1.0	1.0	n/a	n/a	ITI	s639
20.847	5.088	1	UA_without_intermediate	0,0,0,1,2,0,0,0,0	practice	ward_and_allport	3,2,1,0,0,0,0,0,0	82.0	2.0	5.088	0,0,0,1,2,0,3,0,0	to_hand	s639
25.937	1.017	0	UA_without_intermediate	3,0,0,1,2,0,0,0,0	practice	ward_and_allport	3,2,1,0,0,0,0,0,0	89.0	2.0	1.017	0,0,0,1,2,0,3,0,0	to_board	s639
26.955	0.819	0	UA_without_intermediate	3,0,0,1,0,0,0,0,0	practice	ward_and_allport	3,2,1,0,0,0,0,0,0	71.0	2.0	0.819	0,0,0,1,2,0,3,0,0	to_hand	s639
27.775	0.367	0	UA_without_intermediate	3,2,0,1,0,0,0,0,0	practice	ward_and_allport	3,2,1,0,0,0,0,0,0	89.0	2.0	0.367	0,0,0,1,2,0,3,0,0	to_board	s639
28.144	0.823	0	UA_without_intermediate	3,2,0,0,0,0,0,0,0	practice	ward_and_allport	3,2,1,0,0,0,0,0,0	71.0	2.0	0.823	0,0,0,1,2,0,3,0,0	to_hand	s639
28.969	0.357	0	UA_without_intermediate	3,2,1,0,0,0,0,0,0	practice	ward_and_allport	3,2,1,0,0,0,0,0,0	89.0	2.0	0.357	0,0,0,1,2,0,3,0,0	to_board	s639
29.329	1.0	0	UA_without_intermediate	n/a	practice	ward_and_allport	n/a	-1.0	2.0	n/a	n/a	feedback	s639
30.329	1.2	0	UA_without_intermediate	n/a	practice	ward_and_allport	n/a	-1.0	2.0	n/a	n/a	ITI	s639
31.533	2.844	1	UA_without_intermediate	0,0,0,1,0,0,3,0,0	practice	ward_and_allport	2,3,1,0,0,0,0,0,0	71.0	3.0	2.844	0,0,0,1,2,0,3,0,0	to_hand	s639
34.378	0.256	0	UA_without_intermediate	2,0,0,1,0,0,3,0,0	practice	ward_and_allport	2,3,1,0,0,0,0,0,0	89.0	3.0	0.256	0,0,0,1,2,0,3,0,0	to_board	s639
34.636	1.386	0	UA_without_intermediate	2,0,0,1,0,0,0,0,0	practice	ward_and_allport	2,3,1,0,0,0,0,0,0	82.0	3.0	1.386	0,0,0,1,2,0,3,0,0	to_hand	s639
36.023	0.394	0	UA_without_intermediate	2,3,0,1,0,0,0,0,0	practice	ward_and_allport	2,3,1,0,0,0,0,0,0	89.0	3.0	0.394	0,0,0,1,2,0,3,0,0	to_board	s639
36.419	0.391	0	UA_without_intermediate	2,3,0,0,0,0,0,0,0	practice	ward_and_allport	2,3,1,0,0,0,0,0,0	71.0	3.0	0.391	0,0,0,1,2,0,3,0,0	to_hand	s639
36.811	0.309	0	UA_without_intermediate	2,3,1,0,0,0,0,0,0	practice	ward_and_allport	2,3,1,0,0,0,0,0,0	89.0	3.0	0.309	0,0,0,1,2,0,3,0,0	to_board	s639
37.123	1.0	0	UA_without_intermediate	n/a	practice	ward_and_allport	n/a	-1.0	3.0	n/a	n/a	feedback	s639
38.123	1.0	0	UA_without_intermediate	n/a	practice	ward_and_allport	n/a	-1.0	3.0	n/a	n/a	ITI	s639
41.129	3.669	1	PA_with_intermediate	0,0,0,1,2,0,0,0,0	test	ward_and_allport	0,0,0,1,3,0,2,0,0	71.0	0.0	3.669	0,0,0,1,2,3,0,0,0	to_hand	s639
44.8	0.44	0	PA_with_intermediate	3,0,0,1,2,0,0,0,0	test	ward_and_allport	0,0,0,1,3,0,2,0,0	89.0	0.0	0.44	0,0,0,1,2,3,0,0,0	to_board	s639
45.242	0.422	0	PA_with_intermediate	3,0,0,1,0,0,0,0,0	test	ward_and_allport	0,0,0,1,3,0,2,0,0	71.0	0.0	0.422	0,0,0,1,2,3,0,0,0	to_hand	s639
45.666	0.419	0	PA_with_intermediate	3,0,0,1,0,0,2,0,0	test	ward_and_allport	0,0,0,1,3,0,2,0,0	82.0	0.0	0.419	0,0,0,1,2,3,0,0,0	to_board	s639
46.087	0.381	0	PA_with_intermediate	0,0,0,1,0,0,2,0,0	test	ward_and_allport	0,0,0,1,3,0,2,0,0	89.0	0.0	0.381	0,0,0,1,2,3,0,0,0	to_hand	s639
46.47	0.312	0	PA_with_intermediate	0,0,0,1,3,0,2,0,0	test	ward_and_allport	0,0,0,1,3,0,2,0,0	71.0	0.0	0.312	0,0,0,1,2,3,0,0,0	to_board	s639
46.785	1.0	0	PA_with_intermediate	n/a	test	ward_and_allport	n/a	-1.0	0.0	n/a	n/a	feedback	s639
47.785	1.408	0	PA_with_intermediate	n/a	test	ward_and_allport	n/a	-1.0	0.0	n/a	n/a	ITI	s639
49.196	6.929	1	PA_without_intermediate	0,0,0,1,2,0,0,0,0	test	ward_and_allport	3,1,0,0,0,0,2,0,0	71.0	1.0	6.929	0,0,0,1,2,3,0,0,0	to_hand	s639
56.126	0.329	0	PA_without_intermediate	3,0,0,1,2,0,0,0,0	test	ward_and_allport	3,1,0,0,0,0,2,0,0	89.0	1.0	0.329	0,0,0,1,2,3,0,0,0	to_board	s639
56.456	0.374	0	PA_without_intermediate	3,0,0,1,0,0,0,0,0	test	ward_and_allport	3,1,0,0,0,0,2,0,0	71.0	1.0	0.374	0,0,0,1,2,3,0,0,0	to_hand	s639
56.832	0.417	0	PA_without_intermediate	3,0,0,1,0,0,2,0,0	test	ward_and_allport	3,1,0,0,0,0,2,0,0	82.0	1.0	0.417	0,0,0,1,2,3,0,0,0	to_board	s639
57.251	0.392	0	PA_without_intermediate	3,0,0,0,0,0,2,0,0	test	ward_and_allport	3,1,0,0,0,0,2,0,0	71.0	1.0	0.392	0,0,0,1,2,3,0,0,0	to_hand	s639
57.644	0.348	0	PA_without_intermediate	3,1,0,0,0,0,2,0,0	test	ward_and_allport	3,1,0,0,0,0,2,0,0	89.0	1.0	0.348	0,0,0,1,2,3,0,0,0	to_board	s639
57.996	1.0	0	PA_without_intermediate	n/a	test	ward_and_allport	n/a	-1.0	1.0	n/a	n/a	feedback	s639
58.996	1.68	0	PA_without_intermediate	n/a	test	ward_and_allport	n/a	-1.0	1.0	n/a	n/a	ITI	s639
60.68	2.252	1	PA_with_intermediate	0,0,0,1,2,0,0,0,0	test	ward_and_allport	2,3,0,1,0,0,0,0,0	71.0	2.0	2.252	0,0,0,1,2,3,0,0,0	to_hand	s639
62.933	0.31	0	PA_with_intermediate	0,0,0,1,2,0,3,0,0	test	ward_and_allport	2,3,0,1,0,0,0,0,0	82.0	2.0	0.31	0,0,0,1,2,3,0,0,0	to_board	s639
63.245	0.377	0	PA_with_intermediate	0,0,0,1,0,0,3,0,0	test	ward_and_allport	2,3,0,1,0,0,0,0,0	71.0	2.0	0.377	0,0,0,1,2,3,0,0,0	to_hand	s639
63.623	0.304	0	PA_with_intermediate	2,0,0,1,0,0,3,0,0	test	ward_and_allport	2,3,0,1,0,0,0,0,0	89.0	2.0	0.304	0,0,0,1,2,3,0,0,0	to_board	s639
63.929	0.79	0	PA_with_intermediate	2,0,0,1,0,0,0,0,0	test	ward_and_allport	2,3,0,1,0,0,0,0,0	82.0	2.0	0.79	0,0,0,1,2,3,0,0,0	to_hand	s639
64.72	0.72	0	PA_with_intermediate	2,3,0,1,0,0,0,0,0	test	ward_and_allport	2,3,0,1,0,0,0,0,0	89.0	2.0	0.72	0,0,0,1,2,3,0,0,0	to_board	s639
65.444	1.0	0	PA_with_intermediate	n/a	test	ward_and_allport	n/a	-1.0	2.0	n/a	n/a	feedback	s639
66.444	3.72	0	PA_with_intermediate	n/a	test	ward_and_allport	n/a	-1.0	2.0	n/a	n/a	ITI	s639
70.167	4.213	1	PA_without_intermediate	0,0,0,0,0,0,1,2,0	test	ward_and_allport	2,0,0,3,1,0,0,0,0	82.0	3.0	4.213	0,0,0,0,0,0,1,2,3	to_hand	s639
74.382	0.433	0	PA_without_intermediate	0,0,0,3,0,0,1,2,0	test	ward_and_allport	2,0,0,3,1,0,0,0,0	71.0	3.0	0.433	0,0,0,0,0,0,1,2,3	to_board	s639
74.817	0.524	0	PA_without_intermediate	0,0,0,3,0,0,1,0,0	test	ward_and_allport	2,0,0,3,1,0,0,0,0	82.0	3.0	0.524	0,0,0,0,0,0,1,2,3	to_hand	s639
75.342	0.629	0	PA_without_intermediate	2,0,0,3,0,0,1,0,0	test	ward_and_allport	2,0,0,3,1,0,0,0,0	89.0	3.0	0.629	0,0,0,0,0,0,1,2,3	to_board	s639
75.974	0.824	0	PA_without_intermediate	2,0,0,3,0,0,0,0,0	test	ward_and_allport	2,0,0,3,1,0,0,0,0	82.0	3.0	0.824	0,0,0,0,0,0,1,2,3	to_hand	s639
76.8	0.392	0	PA_without_intermediate	2,0,0,3,1,0,0,0,0	test	ward_and_allport	2,0,0,3,1,0,0,0,0	71.0	3.0	0.392	0,0,0,0,0,0,1,2,3	to_board	s639
77.196	1.0	0	PA_without_intermediate	n/a	test	ward_and_allport	n/a	-1.0	3.0	n/a	n/a	feedback	s639
78.196	2.224	0	PA_without_intermediate	n/a	test	ward_and_allport	n/a	-1.0	3.0	n/a	n/a	ITI	s639
80.423	2.972	1	PA_without_intermediate	0,0,0,1,2,0,0,0,0	test	ward_and_allport	1,0,0,0,0,0,3,2,0	71.0	4.0	2.972	0,0,0,1,2,3,0,0,0	to_hand	s639
83.397	0.522	0	PA_without_intermediate	0,0,0,1,2,0,3,0,0	test	ward_and_allport	1,0,0,0,0,0,3,2,0	82.0	4.0	0.522	0,0,0,1,2,3,0,0,0	to_board	s639
83.921	0.355	0	PA_without_intermediate	0,0,0,1,0,0,3,0,0	test	ward_and_allport	1,0,0,0,0,0,3,2,0	71.0	4.0	0.355	0,0,0,1,2,3,0,0,0	to_hand	s639
84.277	0.307	0	PA_without_intermediate	0,0,0,1,0,0,3,2,0	test	ward_and_allport	1,0,0,0,0,0,3,2,0	82.0	4.0	0.307	0,0,0,1,2,3,0,0,0	to_board	s639
84.587	0.327	0	PA_without_intermediate	0,0,0,0,0,0,3,2,0	test	ward_and_allport	1,0,0,0,0,0,3,2,0	71.0	4.0	0.327	0,0,0,1,2,3,0,0,0	to_hand	s639
84.916	0.466	0	PA_without_intermediate	1,0,0,0,0,0,3,2,0	test	ward_and_allport	1,0,0,0,0,0,3,2,0	89.0	4.0	0.466	0,0,0,1,2,3,0,0,0	to_board	s639
85.386	1.0	0	PA_without_intermediate	n/a	test	ward_and_allport	n/a	-1.0	4.0	n/a	n/a	feedback	s639
86.386	1.272	0	PA_without_intermediate	n/a	test	ward_and_allport	n/a	-1.0	4.0	n/a	n/a	ITI	s639
87.662	3.575	1	PA_with_intermediate	0,0,0,1,2,0,0,0,0	test	ward_and_allport	2,0,0,1,3,0,0,0,0	71.0	5.0	3.575	0,0,0,1,2,3,0,0,0	to_hand	s639
91.238	0.448	0	PA_with_intermediate	0,0,0,1,2,0,3,0,0	test	ward_and_allport	2,0,0,1,3,0,0,0,0	82.0	5.0	0.448	0,0,0,1,2,3,0,0,0	to_board	s639
91.689	0.36	0	PA_with_intermediate	0,0,0,1,0,0,3,0,0	test	ward_and_allport	2,0,0,1,3,0,0,0,0	71.0	5.0	0.36	0,0,0,1,2,3,0,0,0	to_hand	s639
92.051	0.307	0	PA_with_intermediate	2,0,0,1,0,0,3,0,0	test	ward_and_allport	2,0,0,1,3,0,0,0,0	89.0	5.0	0.307	0,0,0,1,2,3,0,0,0	to_board	s639
92.361	0.491	0	PA_with_intermediate	2,0,0,1,0,0,0,0,0	test	ward_and_allport	2,0,0,1,3,0,0,0,0	82.0	5.0	0.491	0,0,0,1,2,3,0,0,0	to_hand	s639
92.854	0.333	0	PA_with_intermediate	2,0,0,1,3,0,0,0,0	test	ward_and_allport	2,0,0,1,3,0,0,0,0	71.0	5.0	0.333	0,0,0,1,2,3,0,0,0	to_board	s639
93.191	1.0	0	PA_with_intermediate	n/a	test	ward_and_allport	n/a	-1.0	5.0	n/a	n/a	feedback	s639
94.191	2.632	0	PA_with_intermediate	n/a	test	ward_and_allport	n/a	-1.0	5.0	n/a	n/a	ITI	s639
96.827	3.687	1	PA_without_intermediate	1,2,0,0,0,0,0,0,0	test	ward_and_allport	0,0,0,2,0,0,3,1,0	89.0	6.0	3.687	1,2,3,0,0,0,0,0,0	to_hand	s639
100.515	0.425	0	PA_without_intermediate	1,2,0,0,0,0,3,0,0	test	ward_and_allport	0,0,0,2,0,0,3,1,0	82.0	6.0	0.425	1,2,3,0,0,0,0,0,0	to_board	s639
100.944	1.456	0	PA_without_intermediate	1,0,0,0,0,0,3,0,0	test	ward_and_allport	0,0,0,2,0,0,3,1,0	89.0	6.0	1.456	1,2,3,0,0,0,0,0,0	to_hand	s639
102.401	0.541	0	PA_without_intermediate	1,0,0,2,0,0,3,0,0	test	ward_and_allport	0,0,0,2,0,0,3,1,0	71.0	6.0	0.541	1,2,3,0,0,0,0,0,0	to_board	s639
102.945	0.494	0	PA_without_intermediate	0,0,0,2,0,0,3,0,0	test	ward_and_allport	0,0,0,2,0,0,3,1,0	89.0	6.0	0.494	1,2,3,0,0,0,0,0,0	to_hand	s639
103.441	0.547	0	PA_without_intermediate	0,0,0,2,0,0,3,1,0	test	ward_and_allport	0,0,0,2,0,0,3,1,0	82.0	6.0	0.547	1,2,3,0,0,0,0,0,0	to_board	s639
103.994	1.0	0	PA_without_intermediate	n/a	test	ward_and_allport	n/a	-1.0	6.0	n/a	n/a	feedback	s639
104.994	1.408	0	PA_without_intermediate	n/a	test	ward_and_allport	n/a	-1.0	6.0	n/a	n/a	ITI	s639
106.405	4.383	1	PA_without_intermediate	0,0,0,0,0,0,1,2,0	test	ward_and_allport	1,0,0,3,2,0,0,0,0	82.0	7.0	4.383	0,0,0,0,0,0,1,2,3	to_hand	s639
110.789	0.405	0	PA_without_intermediate	0,0,0,3,0,0,1,2,0	test	ward_and_allport	1,0,0,3,2,0,0,0,0	71.0	7.0	0.405	0,0,0,0,0,0,1,2,3	to_board	s639
111.198	0.352	0	PA_without_intermediate	0,0,0,3,0,0,1,0,0	test	ward_and_allport	1,0,0,3,2,0,0,0,0	82.0	7.0	0.352	0,0,0,0,0,0,1,2,3	to_hand	s639
111.551	0.569	0	PA_without_intermediate	0,0,0,3,2,0,1,0,0	test	ward_and_allport	1,0,0,3,2,0,0,0,0	71.0	7.0	0.569	0,0,0,0,0,0,1,2,3	to_board	s639
112.123	0.537	0	PA_without_intermediate	0,0,0,3,2,0,0,0,0	test	ward_and_allport	1,0,0,3,2,0,0,0,0	82.0	7.0	0.537	0,0,0,0,0,0,1,2,3	to_hand	s639
112.662	0.51	0	PA_without_intermediate	1,0,0,3,2,0,0,0,0	test	ward_and_allport	1,0,0,3,2,0,0,0,0	89.0	7.0	0.51	0,0,0,0,0,0,1,2,3	to_board	s639
113.175	1.0	0	PA_without_intermediate	n/a	test	ward_and_allport	n/a	-1.0	7.0	n/a	n/a	feedback	s639
114.175	1.0	0	PA_without_intermediate	n/a	test	ward_and_allport	n/a	-1.0	7.0	n/a	n/a	ITI	s639
115.178	2.377	1	PA_with_intermediate	0,0,0,0,0,0,1,2,0	test	ward_and_allport	2,0,0,0,0,0,1,3,0	82.0	8.0	2.377	0,0,0,0,0,0,1,2,3	to_hand	s639
117.557	0.493	0	PA_with_intermediate	0,0,0,3,0,0,1,2,0	test	ward_and_allport	2,0,0,0,0,0,1,3,0	71.0	8.0	0.493	0,0,0,0,0,0,1,2,3	to_board	s639
118.054	0.45	0	PA_with_intermediate	0,0,0,3,0,0,1,0,0	test	ward_and_allport	2,0,0,0,0,0,1,3,0	82.0	8.0	0.45	0,0,0,0,0,0,1,2,3	to_hand	s639
118.505	0.439	0	PA_with_intermediate	2,0,0,3,0,0,1,0,0	test	ward_and_allport	2,0,0,0,0,0,1,3,0	89.0	8.0	0.439	0,0,0,0,0,0,1,2,3	to_board	s639
118.947	1.038	0	PA_with_intermediate	2,0,0,0,0,0,1,0,0	test	ward_and_allport	2,0,0,0,0,0,1,3,0	71.0	8.0	1.038	0,0,0,0,0,0,1,2,3	to_hand	s639
119.986	0.391	0	PA_with_intermediate	2,0,0,0,0,0,1,3,0	test	ward_and_allport	2,0,0,0,0,0,1,3,0	82.0	8.0	0.391	0,0,0,0,0,0,1,2,3	to_board	s639
120.383	1.0	0	PA_with_intermediate	n/a	test	ward_and_allport	n/a	-1.0	8.0	n/a	n/a	feedback	s639
121.383	1.0	0	PA_with_intermediate	n/a	test	ward_and_allport	n/a	-1.0	8.0	n/a	n/a	ITI	s639
122.388	5.478	1	PA_with_intermediate	1,2,0,0,0,0,0,0,0	test	ward_and_allport	1,0,0,0,0,0,2,3,0	89.0	9.0	5.478	1,2,3,0,0,0,0,0,0	to_hand	s639
127.866	0.406	0	PA_with_intermediate	1,2,0,3,0,0,0,0,0	test	ward_and_allport	1,0,0,0,0,0,2,3,0	71.0	9.0	0.406	1,2,3,0,0,0,0,0,0	to_board	s639
128.276	0.629	0	PA_with_intermediate	1,0,0,3,0,0,0,0,0	test	ward_and_allport	1,0,0,0,0,0,2,3,0	89.0	9.0	0.629	1,2,3,0,0,0,0,0,0	to_hand	s639
128.907	0.657	0	PA_with_intermediate	1,0,0,3,0,0,2,0,0	test	ward_and_allport	1,0,0,0,0,0,2,3,0	82.0	9.0	0.657	1,2,3,0,0,0,0,0,0	to_board	s639
129.569	0.384	0	PA_with_intermediate	1,0,0,0,0,0,2,0,0	test	ward_and_allport	1,0,0,0,0,0,2,3,0	71.0	9.0	0.384	1,2,3,0,0,0,0,0,0	to_hand	s639
129.954	0.425	0	PA_with_intermediate	1,0,0,0,0,0,2,3,0	test	ward_and_allport	1,0,0,0,0,0,2,3,0	82.0	9.0	0.425	1,2,3,0,0,0,0,0,0	to_board	s639
130.384	1.0	0	PA_with_intermediate	n/a	test	ward_and_allport	n/a	-1.0	9.0	n/a	n/a	feedback	s639
131.384	1.0	0	PA_with_intermediate	n/a	test	ward_and_allport	n/a	-1.0	9.0	n/a	n/a	ITI	s639
132.389	5.034	1	PA_with_intermediate	0,0,0,0,0,0,1,2,0	test	ward_and_allport	0,0,0,2,0,0,1,3,0	82.0	10.0	5.034	0,0,0,0,0,0,1,2,3	to_hand	s639
137.424	0.395	0	PA_with_intermediate	3,0,0,0,0,0,1,2,0	test	ward_and_allport	0,0,0,2,0,0,1,3,0	89.0	10.0	0.395	0,0,0,0,0,0,1,2,3	to_board	s639
137.824	0.711	0	PA_with_intermediate	3,0,0,0,0,0,1,0,0	test	ward_and_allport	0,0,0,2,0,0,1,3,0	82.0	10.0	0.711	0,0,0,0,0,0,1,2,3	to_hand	s639
138.537	0.552	0	PA_with_intermediate	3,0,0,2,0,0,1,0,0	test	ward_and_allport	0,0,0,2,0,0,1,3,0	71.0	10.0	0.552	0,0,0,0,0,0,1,2,3	to_board	s639
139.094	0.497	0	PA_with_intermediate	0,0,0,2,0,0,1,0,0	test	ward_and_allport	0,0,0,2,0,0,1,3,0	89.0	10.0	0.497	0,0,0,0,0,0,1,2,3	to_hand	s639
139.592	0.494	0	PA_with_intermediate	0,0,0,2,0,0,1,3,0	test	ward_and_allport	0,0,0,2,0,0,1,3,0	82.0	10.0	0.494	0,0,0,0,0,0,1,2,3	to_board	s639
140.092	1.0	0	PA_with_intermediate	n/a	test	ward_and_allport	n/a	-1.0	10.0	n/a	n/a	feedback	s639
141.092	1.408	0	PA_with_intermediate	n/a	test	ward_and_allport	n/a	-1.0	10.0	n/a	n/a	ITI	s639
142.505	5.397	1	PA_without_intermediate	1,2,0,0,0,0,0,0,0	test	ward_and_allport	0,0,0,3,1,0,2,0,0	89.0	11.0	5.397	1,2,3,0,0,0,0,0,0	to_hand	s639
147.903	0.636	0	PA_without_intermediate	1,2,0,3,0,0,0,0,0	test	ward_and_allport	0,0,0,3,1,0,2,0,0	71.0	11.0	0.636	1,2,3,0,0,0,0,0,0	to_board	s639
148.543	0.423	0	PA_without_intermediate	1,0,0,3,0,0,0,0,0	test	ward_and_allport	0,0,0,3,1,0,2,0,0	89.0	11.0	0.423	1,2,3,0,0,0,0,0,0	to_hand	s639
148.967	0.523	0	PA_without_intermediate	1,0,0,3,0,0,2,0,0	test	ward_and_allport	0,0,0,3,1,0,2,0,0	82.0	11.0	0.523	1,2,3,0,0,0,0,0,0	to_board	s639
149.493	0.575	0	PA_without_intermediate	0,0,0,3,0,0,2,0,0	test	ward_and_allport	0,0,0,3,1,0,2,0,0	89.0	11.0	0.575	1,2,3,0,0,0,0,0,0	to_hand	s639
150.07	0.479	0	PA_without_intermediate	0,0,0,3,1,0,2,0,0	test	ward_and_allport	0,0,0,3,1,0,2,0,0	71.0	11.0	0.479	1,2,3,0,0,0,0,0,0	to_board	s639
150.555	1.0	0	PA_without_intermediate	n/a	test	ward_and_allport	n/a	-1.0	11.0	n/a	n/a	feedback	s639
151.555	1.816	0	PA_without_intermediate	n/a	test	ward_and_allport	n/a	-1.0	11.0	n/a	n/a	ITI	s639
153.377	3.727	1	PA_with_intermediate	0,0,0,1,2,0,0,0,0	test	ward_and_allport	0,0,0,1,0,0,2,3,0	71.0	12.0	3.727	0,0,0,1,2,3,0,0,0	to_hand	s639
157.105	0.277	0	PA_with_intermediate	3,0,0,1,2,0,0,0,0	test	ward_and_allport	0,0,0,1,0,0,2,3,0	89.0	12.0	0.277	0,0,0,1,2,3,0,0,0	to_board	s639
157.387	0.417	0	PA_with_intermediate	3,0,0,1,0,0,0,0,0	test	ward_and_allport	0,0,0,1,0,0,2,3,0	71.0	12.0	0.417	0,0,0,1,2,3,0,0,0	to_hand	s639
157.806	0.391	0	PA_with_intermediate	3,0,0,1,0,0,2,0,0	test	ward_and_allport	0,0,0,1,0,0,2,3,0	82.0	12.0	0.391	0,0,0,1,2,3,0,0,0	to_board	s639
158.202	0.467	0	PA_with_intermediate	0,0,0,1,0,0,2,0,0	test	ward_and_allport	0,0,0,1,0,0,2,3,0	89.0	12.0	0.467	0,0,0,1,2,3,0,0,0	to_hand	s639
158.671	0.452	0	PA_with_intermediate	0,0,0,1,0,0,2,3,0	test	ward_and_allport	0,0,0,1,0,0,2,3,0	82.0	12.0	0.452	0,0,0,1,2,3,0,0,0	to_board	s639
159.128	1.0	0	PA_with_intermediate	n/a	test	ward_and_allport	n/a	-1.0	12.0	n/a	n/a	feedback	s639
160.128	3.176	0	PA_with_intermediate	n/a	test	ward_and_allport	n/a	-1.0	12.0	n/a	n/a	ITI	s639
163.309	4.212	1	PA_with_intermediate	0,0,0,1,2,0,0,0,0	test	ward_and_allport	0,0,0,1,3,0,2,0,0	71.0	13.0	4.212	0,0,0,1,2,3,0,0,0	to_hand	s639
167.523	0.313	0	PA_with_intermediate	3,0,0,1,2,0,0,0,0	test	ward_and_allport	0,0,0,1,3,0,2,0,0	89.0	13.0	0.313	0,0,0,1,2,3,0,0,0	to_board	s639
167.84	0.364	0	PA_with_intermediate	3,0,0,1,0,0,0,0,0	test	ward_and_allport	0,0,0,1,3,0,2,0,0	71.0	13.0	0.364	0,0,0,1,2,3,0,0,0	to_hand	s639
168.205	0.343	0	PA_with_intermediate	3,0,0,1,0,0,2,0,0	test	ward_and_allport	0,0,0,1,3,0,2,0,0	82.0	13.0	0.343	0,0,0,1,2,3,0,0,0	to_board	s639
168.552	0.497	0	PA_with_intermediate	0,0,0,1,0,0,2,0,0	test	ward_and_allport	0,0,0,1,3,0,2,0,0	89.0	13.0	0.497	0,0,0,1,2,3,0,0,0	to_hand	s639
169.05	0.321	0	PA_with_intermediate	0,0,0,1,3,0,2,0,0	test	ward_and_allport	0,0,0,1,3,0,2,0,0	71.0	13.0	0.321	0,0,0,1,2,3,0,0,0	to_board	s639
169.378	1.0	0	PA_with_intermediate	n/a	test	ward_and_allport	n/a	-1.0	13.0	n/a	n/a	feedback	s639
170.378	2.36	0	PA_with_intermediate	n/a	test	ward_and_allport	n/a	-1.0	13.0	n/a	n/a	ITI	s639
172.744	3.792	1	PA_with_intermediate	1,2,0,0,0,0,0,0,0	test	ward_and_allport	1,0,0,0,0,0,2,3,0	89.0	14.0	3.792	1,2,3,0,0,0,0,0,0	to_hand	s639
176.537	0.367	0	PA_with_intermediate	1,2,0,3,0,0,0,0,0	test	ward_and_allport	1,0,0,0,0,0,2,3,0	71.0	14.0	0.367	1,2,3,0,0,0,0,0,0	to_board	s639
176.909	0.351	0	PA_with_intermediate	1,0,0,3,0,0,0,0,0	test	ward_and_allport	1,0,0,0,0,0,2,3,0	89.0	14.0	0.351	1,2,3,0,0,0,0,0,0	to_hand	s639
177.261	0.584	0	PA_with_intermediate	1,0,0,3,0,0,2,0,0	test	ward_and_allport	1,0,0,0,0,0,2,3,0	82.0	14.0	0.584	1,2,3,0,0,0,0,0,0	to_board	s639
177.85	0.492	0	PA_with_intermediate	1,0,0,0,0,0,2,0,0	test	ward_and_allport	1,0,0,0,0,0,2,3,0	71.0	14.0	0.492	1,2,3,0,0,0,0,0,0	to_hand	s639
178.344	0.438	0	PA_with_intermediate	1,0,0,0,0,0,2,3,0	test	ward_and_allport	1,0,0,0,0,0,2,3,0	82.0	14.0	0.438	1,2,3,0,0,0,0,0,0	to_board	s639
178.788	1.0	0	PA_with_intermediate	n/a	test	ward_and_allport	n/a	-1.0	14.0	n/a	n/a	feedback	s639
179.788	1.0	0	PA_with_intermediate	n/a	test	ward_and_allport	n/a	-1.0	14.0	n/a	n/a	ITI	s639
185.796	3.95	1	PA_without_intermediate	0,0,0,1,2,0,0,0,0	test	ward_and_allport	1,0,0,0,0,0,3,2,0	71.0	15.0	3.95	0,0,0,1,2,3,0,0,0	to_hand	s639
189.746	0.557	0	PA_without_intermediate	0,0,0,1,2,0,3,0,0	test	ward_and_allport	1,0,0,0,0,0,3,2,0	82.0	15.0	0.557	0,0,0,1,2,3,0,0,0	to_board	s639
190.308	0.446	0	PA_without_intermediate	0,0,0,1,0,0,3,0,0	test	ward_and_allport	1,0,0,0,0,0,3,2,0	71.0	15.0	0.446	0,0,0,1,2,3,0,0,0	to_hand	s639
190.756	0.406	0	PA_without_intermediate	0,0,0,1,0,0,3,2,0	test	ward_and_allport	1,0,0,0,0,0,3,2,0	82.0	15.0	0.406	0,0,0,1,2,3,0,0,0	to_board	s639
191.167	0.442	0	PA_without_intermediate	0,0,0,0,0,0,3,2,0	test	ward_and_allport	1,0,0,0,0,0,3,2,0	71.0	15.0	0.442	0,0,0,1,2,3,0,0,0	to_hand	s639
191.61	0.352	0	PA_without_intermediate	1,0,0,0,0,0,3,2,0	test	ward_and_allport	1,0,0,0,0,0,3,2,0	89.0	15.0	0.352	0,0,0,1,2,3,0,0,0	to_board	s639
191.968	1.0	0	PA_without_intermediate	n/a	test	ward_and_allport	n/a	-1.0	15.0	n/a	n/a	feedback	s639
192.968	1.408	0	PA_without_intermediate	n/a	test	ward_and_allport	n/a	-1.0	15.0	n/a	n/a	ITI	s639
194.382	3.484	1	PA_with_intermediate	0,0,0,0,0,0,1,2,0	test	ward_and_allport	2,3,0,0,0,0,1,0,0	82.0	16.0	3.484	0,0,0,0,0,0,1,2,3	to_hand	s639
197.867	0.364	0	PA_with_intermediate	0,0,0,3,0,0,1,2,0	test	ward_and_allport	2,3,0,0,0,0,1,0,0	71.0	16.0	0.364	0,0,0,0,0,0,1,2,3	to_board	s639
198.236	0.464	0	PA_with_intermediate	0,0,0,3,0,0,1,0,0	test	ward_and_allport	2,3,0,0,0,0,1,0,0	82.0	16.0	0.464	0,0,0,0,0,0,1,2,3	to_hand	s639
198.701	0.407	0	PA_with_intermediate	2,0,0,3,0,0,1,0,0	test	ward_and_allport	2,3,0,0,0,0,1,0,0	89.0	16.0	0.407	0,0,0,0,0,0,1,2,3	to_board	s639
199.112	0.477	0	PA_with_intermediate	2,0,0,0,0,0,1,0,0	test	ward_and_allport	2,3,0,0,0,0,1,0,0	71.0	16.0	0.477	0,0,0,0,0,0,1,2,3	to_hand	s639
199.591	0.579	0	PA_with_intermediate	2,3,0,0,0,0,1,0,0	test	ward_and_allport	2,3,0,0,0,0,1,0,0	89.0	16.0	0.579	0,0,0,0,0,0,1,2,3	to_board	s639
200.176	1.0	0	PA_with_intermediate	n/a	test	ward_and_allport	n/a	-1.0	16.0	n/a	n/a	feedback	s639
201.176	1.816	0	PA_with_intermediate	n/a	test	ward_and_allport	n/a	-1.0	16.0	n/a	n/a	ITI	s639
202.997	3.407	1	PA_without_intermediate	0,0,0,0,0,0,1,2,0	test	ward_and_allport	3,1,0,2,0,0,0,0,0	82.0	17.0	3.407	0,0,0,0,0,0,1,2,3	to_hand	s639
206.406	0.36	0	PA_without_intermediate	3,0,0,0,0,0,1,2,0	test	ward_and_allport	3,1,0,2,0,0,0,0,0	89.0	17.0	0.36	0,0,0,0,0,0,1,2,3	to_board	s639
206.771	0.713	0	PA_without_intermediate	3,0,0,0,0,0,1,0,0	test	ward_and_allport	3,1,0,2,0,0,0,0,0	82.0	17.0	0.713	0,0,0,0,0,0,1,2,3	to_hand	s639
207.485	0.431	0	PA_without_intermediate	3,0,0,2,0,0,1,0,0	test	ward_and_allport	3,1,0,2,0,0,0,0,0	71.0	17.0	0.431	0,0,0,0,0,0,1,2,3	to_board	s639
207.92	0.386	0	PA_without_intermediate	3,0,0,2,0,0,0,0,0	test	ward_and_allport	3,1,0,2,0,0,0,0,0	82.0	17.0	0.386	0,0,0,0,0,0,1,2,3	to_hand	s639
208.307	0.376	0	PA_without_intermediate	3,1,0,2,0,0,0,0,0	test	ward_and_allport	3,1,0,2,0,0,0,0,0	89.0	17.0	0.376	0,0,0,0,0,0,1,2,3	to_board	s639
208.69	1.0	0	PA_without_intermediate	n/a	test	ward_and_allport	n/a	-1.0	17.0	n/a	n/a	feedback	s639
209.69	2.088	0	PA_without_intermediate	n/a	test	ward_and_allport	n/a	-1.0	17.0	n/a	n/a	ITI	s639
211.784	1.728	1	PA_without_intermediate	0,0,0,1,2,0,0,0,0	test	ward_and_allport	2,0,0,0,0,0,3,1,0	71.0	18.0	1.728	0,0,0,1,2,3,0,0,0	to_hand	s639
213.514	0.34	0	PA_without_intermediate	0,0,0,1,2,0,3,0,0	test	ward_and_allport	2,0,0,0,0,0,3,1,0	82.0	18.0	0.34	0,0,0,1,2,3,0,0,0	to_board	s639
213.859	0.44	0	PA_without_intermediate	0,0,0,1,0,0,3,0,0	test	ward_and_allport	2,0,0,0,0,0,3,1,0	71.0	18.0	0.44	0,0,0,1,2,3,0,0,0	to_hand	s639
214.299	0.317	0	PA_without_intermediate	2,0,0,1,0,0,3,0,0	test	ward_and_allport	2,0,0,0,0,0,3,1,0	89.0	18.0	0.317	0,0,0,1,2,3,0,0,0	to_board	s639
214.621	0.406	0	PA_without_intermediate	2,0,0,0,0,0,3,0,0	test	ward_and_allport	2,0,0,0,0,0,3,1,0	71.0	18.0	0.406	0,0,0,1,2,3,0,0,0	to_hand	s639
215.029	0.416	0	PA_without_intermediate	2,0,0,0,0,0,3,1,0	test	ward_and_allport	2,0,0,0,0,0,3,1,0	82.0	18.0	0.416	0,0,0,1,2,3,0,0,0	to_board	s639
215.452	1.0	0	PA_without_intermediate	n/a	test	ward_and_allport	n/a	-1.0	18.0	n/a	n/a	feedback	s639
216.452	1.136	0	PA_without_intermediate	n/a	test	ward_and_allport	n/a	-1.0	18.0	n/a	n/a	ITI	s639
217.594	3.142	1	PA_without_intermediate	1,2,0,0,0,0,0,0,0	test	ward_and_allport	0,0,0,2,0,0,3,1,0	89.0	19.0	3.142	1,2,3,0,0,0,0,0,0	to_hand	s639
220.738	0.472	0	PA_without_intermediate	1,2,0,0,0,0,3,0,0	test	ward_and_allport	0,0,0,2,0,0,3,1,0	82.0	19.0	0.472	1,2,3,0,0,0,0,0,0	to_board	s639
221.216	0.649	0	PA_without_intermediate	1,0,0,0,0,0,3,0,0	test	ward_and_allport	0,0,0,2,0,0,3,1,0	89.0	19.0	0.649	1,2,3,0,0,0,0,0,0	to_hand	s639
221.867	0.566	0	PA_without_intermediate	1,0,0,2,0,0,3,0,0	test	ward_and_allport	0,0,0,2,0,0,3,1,0	71.0	19.0	0.566	1,2,3,0,0,0,0,0,0	to_board	s639
222.439	0.398	0	PA_without_intermediate	0,0,0,2,0,0,3,0,0	test	ward_and_allport	0,0,0,2,0,0,3,1,0	89.0	19.0	0.398	1,2,3,0,0,0,0,0,0	to_hand	s639
222.838	0.37	0	PA_without_intermediate	0,0,0,2,0,0,3,1,0	test	ward_and_allport	0,0,0,2,0,0,3,1,0	82.0	19.0	0.37	1,2,3,0,0,0,0,0,0	to_board	s639
223.215	1.0	0	PA_without_intermediate	n/a	test	ward_and_allport	n/a	-1.0	19.0	n/a	n/a	feedback	s639
224.215	6.168	0	PA_without_intermediate	n/a	test	ward_and_allport	n/a	-1.0	19.0	n/a	n/a	ITI	s639
230.389	3.836	1	PA_without_intermediate	0,0,0,0,0,0,1,2,0	test	ward_and_allport	1,0,0,3,2,0,0,0,0	82.0	20.0	3.836	0,0,0,0,0,0,1,2,3	to_hand	s639
234.225	0.567	0	PA_without_intermediate	0,0,0,3,0,0,1,2,0	test	ward_and_allport	1,0,0,3,2,0,0,0,0	71.0	20.0	0.567	0,0,0,0,0,0,1,2,3	to_board	s639
234.796	0.893	0	PA_without_intermediate	0,0,0,3,0,0,1,0,0	test	ward_and_allport	1,0,0,3,2,0,0,0,0	82.0	20.0	0.893	0,0,0,0,0,0,1,2,3	to_hand	s639
235.691	0.52	0	PA_without_intermediate	0,0,0,3,2,0,1,0,0	test	ward_and_allport	1,0,0,3,2,0,0,0,0	71.0	20.0	0.52	0,0,0,0,0,0,1,2,3	to_board	s639
236.215	0.543	0	PA_without_intermediate	0,0,0,3,2,0,0,0,0	test	ward_and_allport	1,0,0,3,2,0,0,0,0	82.0	20.0	0.543	0,0,0,0,0,0,1,2,3	to_hand	s639
236.759	0.441	0	PA_without_intermediate	1,0,0,3,2,0,0,0,0	test	ward_and_allport	1,0,0,3,2,0,0,0,0	89.0	20.0	0.441	0,0,0,0,0,0,1,2,3	to_board	s639
237.207	1.0	0	PA_without_intermediate	n/a	test	ward_and_allport	n/a	-1.0	20.0	n/a	n/a	feedback	s639
238.207	1.816	0	PA_without_intermediate	n/a	test	ward_and_allport	n/a	-1.0	20.0	n/a	n/a	ITI	s639
240.029	4.095	1	PA_with_intermediate	1,2,0,0,0,0,0,0,0	test	ward_and_allport	1,0,0,2,3,0,0,0,0	89.0	21.0	4.095	1,2,3,0,0,0,0,0,0	to_hand	s639
244.125	0.5	0	PA_with_intermediate	1,2,0,0,0,0,3,0,0	test	ward_and_allport	1,0,0,2,3,0,0,0,0	82.0	21.0	0.5	1,2,3,0,0,0,0,0,0	to_board	s639
244.631	1.462	0	PA_with_intermediate	1,0,0,0,0,0,3,0,0	test	ward_and_allport	1,0,0,2,3,0,0,0,0	89.0	21.0	1.462	1,2,3,0,0,0,0,0,0	to_hand	s639
246.094	0.444	0	PA_with_intermediate	1,0,0,2,0,0,3,0,0	test	ward_and_allport	1,0,0,2,3,0,0,0,0	71.0	21.0	0.444	1,2,3,0,0,0,0,0,0	to_board	s639
246.545	0.947	0	PA_with_intermediate	1,0,0,2,0,0,0,0,0	test	ward_and_allport	1,0,0,2,3,0,0,0,0	82.0	21.0	0.947	1,2,3,0,0,0,0,0,0	to_hand	s639
247.493	0.426	0	PA_with_intermediate	1,0,0,2,3,0,0,0,0	test	ward_and_allport	1,0,0,2,3,0,0,0,0	71.0	21.0	0.426	1,2,3,0,0,0,0,0,0	to_board	s639
247.926	1.0	0	PA_with_intermediate	n/a	test	ward_and_allport	n/a	-1.0	21.0	n/a	n/a	feedback	s639
248.926	1.952	0	PA_with_intermediate	n/a	test	ward_and_allport	n/a	-1.0	21.0	n/a	n/a	ITI	s639
250.885	4.515	1	PA_with_intermediate	1,2,0,0,0,0,0,0,0	test	ward_and_allport	1,3,0,0,0,0,2,0,0	89.0	22.0	4.515	1,2,3,0,0,0,0,0,0	to_hand	s639
255.402	0.379	0	PA_with_intermediate	1,2,0,3,0,0,0,0,0	test	ward_and_allport	1,3,0,0,0,0,2,0,0	71.0	22.0	0.379	1,2,3,0,0,0,0,0,0	to_board	s639
255.787	0.428	0	PA_with_intermediate	1,0,0,3,0,0,0,0,0	test	ward_and_allport	1,3,0,0,0,0,2,0,0	89.0	22.0	0.428	1,2,3,0,0,0,0,0,0	to_hand	s639
256.216	0.433	0	PA_with_intermediate	1,0,0,3,0,0,2,0,0	test	ward_and_allport	1,3,0,0,0,0,2,0,0	82.0	22.0	0.433	1,2,3,0,0,0,0,0,0	to_board	s639
256.655	0.452	0	PA_with_intermediate	1,0,0,0,0,0,2,0,0	test	ward_and_allport	1,3,0,0,0,0,2,0,0	71.0	22.0	0.452	1,2,3,0,0,0,0,0,0	to_hand	s639
257.109	0.351	0	PA_with_intermediate	1,3,0,0,0,0,2,0,0	test	ward_and_allport	1,3,0,0,0,0,2,0,0	89.0	22.0	0.351	1,2,3,0,0,0,0,0,0	to_board	s639
257.468	1.0	0	PA_with_intermediate	n/a	test	ward_and_allport	n/a	-1.0	22.0	n/a	n/a	feedback	s639
258.468	1.136	0	PA_with_intermediate	n/a	test	ward_and_allport	n/a	-1.0	22.0	n/a	n/a	ITI	s639
259.611	3.178	1	PA_without_intermediate	0,0,0,0,0,0,1,2,0	test	ward_and_allport	3,1,0,2,0,0,0,0,0	82.0	23.0	3.178	0,0,0,0,0,0,1,2,3	to_hand	s639
262.79	1.038	0	PA_without_intermediate	3,0,0,0,0,0,1,2,0	test	ward_and_allport	3,1,0,2,0,0,0,0,0	89.0	23.0	1.038	0,0,0,0,0,0,1,2,3	to_board	s639
263.835	0.65	0	PA_without_intermediate	3,0,0,0,0,0,1,0,0	test	ward_and_allport	3,1,0,2,0,0,0,0,0	82.0	23.0	0.65	0,0,0,0,0,0,1,2,3	to_hand	s639
264.486	0.383	0	PA_without_intermediate	3,0,0,2,0,0,1,0,0	test	ward_and_allport	3,1,0,2,0,0,0,0,0	71.0	23.0	0.383	0,0,0,0,0,0,1,2,3	to_board	s639
264.876	0.518	0	PA_without_intermediate	0,0,0,2,0,0,1,0,0	test	ward_and_allport	3,1,0,2,0,0,0,0,0	89.0	23.0	0.518	0,0,0,0,0,0,1,2,3	to_hand	s639
265.395	2.289	0	PA_without_intermediate	0,0,0,2,3,0,1,0,0	test	ward_and_allport	3,1,0,2,0,0,0,0,0	71.0	23.0	2.289	0,0,0,0,0,0,1,2,3	to_board	s639
267.69	0.436	0	PA_without_intermediate	0,0,0,2,3,0,0,0,0	test	ward_and_allport	3,1,0,2,0,0,0,0,0	82.0	23.0	0.436	0,0,0,0,0,0,1,2,3	to_hand	s639
268.127	0.588	0	PA_without_intermediate	1,0,0,2,3,0,0,0,0	test	ward_and_allport	3,1,0,2,0,0,0,0,0	89.0	23.0	0.588	0,0,0,0,0,0,1,2,3	to_board	s639
268.721	0.572	0	PA_without_intermediate	1,0,0,2,0,0,0,0,0	test	ward_and_allport	3,1,0,2,0,0,0,0,0	71.0	23.0	0.572	0,0,0,0,0,0,1,2,3	to_hand	s639
269.293	0.274	0	PA_without_intermediate	1,3,0,2,0,0,0,0,0	test	ward_and_allport	3,1,0,2,0,0,0,0,0	89.0	23.0	0.274	0,0,0,0,0,0,1,2,3	to_board	s639
269.573	3.325	0	PA_without_intermediate	1,0,0,2,0,0,0,0,0	test	ward_and_allport	3,1,0,2,0,0,0,0,0	89.0	23.0	3.325	0,0,0,0,0,0,1,2,3	to_hand	s639
272.9	0.81	0	PA_without_intermediate	1,0,0,2,3,0,0,0,0	test	ward_and_allport	3,1,0,2,0,0,0,0,0	71.0	23.0	0.81	0,0,0,0,0,0,1,2,3	to_board	s639
273.716	0.711	0	PA_without_intermediate	0,0,0,2,3,0,0,0,0	test	ward_and_allport	3,1,0,2,0,0,0,0,0	89.0	23.0	0.711	0,0,0,0,0,0,1,2,3	to_hand	s639
274.429	0.467	0	PA_without_intermediate	0,0,0,2,3,0,1,0,0	test	ward_and_allport	3,1,0,2,0,0,0,0,0	82.0	23.0	0.467	0,0,0,0,0,0,1,2,3	to_board	s639
274.902	0.814	0	PA_without_intermediate	0,0,0,2,0,0,1,0,0	test	ward_and_allport	3,1,0,2,0,0,0,0,0	71.0	23.0	0.814	0,0,0,0,0,0,1,2,3	to_hand	s639
275.717	0.403	0	PA_without_intermediate	3,0,0,2,0,0,1,0,0	test	ward_and_allport	3,1,0,2,0,0,0,0,0	89.0	23.0	0.403	0,0,0,0,0,0,1,2,3	to_board	s639
276.126	0.559	0	PA_without_intermediate	3,0,0,2,0,0,0,0,0	test	ward_and_allport	3,1,0,2,0,0,0,0,0	82.0	23.0	0.559	0,0,0,0,0,0,1,2,3	to_hand	s639
276.686	0.414	0	PA_without_intermediate	3,1,0,2,0,0,0,0,0	test	ward_and_allport	3,1,0,2,0,0,0,0,0	89.0	23.0	0.414	0,0,0,0,0,0,1,2,3	to_board	s639
277.108	1.0	0	PA_without_intermediate	n/a	test	ward_and_allport	n/a	-1.0	23.0	n/a	n/a	feedback	s639
278.108	1.68	0	PA_without_intermediate	n/a	test	ward_and_allport	n/a	-1.0	23.0	n/a	n/a	ITI	s639
279.796	5.108	1	PA_without_intermediate	0,0,0,0,0,0,1,2,0	test	ward_and_allport	3,2,0,1,0,0,0,0,0	82.0	24.0	5.108	0,0,0,0,0,0,1,2,3	to_hand	s639
284.905	0.492	0	PA_without_intermediate	3,0,0,0,0,0,1,2,0	test	ward_and_allport	3,2,0,1,0,0,0,0,0	89.0	24.0	0.492	0,0,0,0,0,0,1,2,3	to_board	s639
285.404	0.579	0	PA_without_intermediate	3,0,0,0,0,0,1,0,0	test	ward_and_allport	3,2,0,1,0,0,0,0,0	82.0	24.0	0.579	0,0,0,0,0,0,1,2,3	to_hand	s639
285.985	0.46	0	PA_without_intermediate	3,2,0,0,0,0,1,0,0	test	ward_and_allport	3,2,0,1,0,0,0,0,0	89.0	24.0	0.46	0,0,0,0,0,0,1,2,3	to_board	s639
286.452	1.791	0	PA_without_intermediate	3,2,0,0,0,0,0,0,0	test	ward_and_allport	3,2,0,1,0,0,0,0,0	82.0	24.0	1.791	0,0,0,0,0,0,1,2,3	to_hand	s639
288.243	0.41	0	PA_without_intermediate	3,2,0,1,0,0,0,0,0	test	ward_and_allport	3,2,0,1,0,0,0,0,0	71.0	24.0	0.41	0,0,0,0,0,0,1,2,3	to_board	s639
288.662	1.0	0	PA_without_intermediate	n/a	test	ward_and_allport	n/a	-1.0	24.0	n/a	n/a	feedback	s639
289.662	2.088	0	PA_without_intermediate	n/a	test	ward_and_allport	n/a	-1.0	24.0	n/a	n/a	ITI	s639
291.758	9.476	1	PA_with_intermediate	0,0,0,0,0,0,1,2,0	test	ward_and_allport	0,0,0,2,0,0,1,3,0	82.0	25.0	9.476	0,0,0,0,0,0,1,2,3	to_hand	s639
301.235	0.499	0	PA_with_intermediate	0,0,0,3,0,0,1,2,0	test	ward_and_allport	0,0,0,2,0,0,1,3,0	71.0	25.0	0.499	0,0,0,0,0,0,1,2,3	to_board	s639
301.741	0.496	0	PA_with_intermediate	0,0,0,3,0,0,1,0,0	test	ward_and_allport	0,0,0,2,0,0,1,3,0	82.0	25.0	0.496	0,0,0,0,0,0,1,2,3	to_hand	s639
302.238	0.865	0	PA_with_intermediate	0,0,0,3,2,0,1,0,0	test	ward_and_allport	0,0,0,2,0,0,1,3,0	71.0	25.0	0.865	0,0,0,0,0,0,1,2,3	to_board	s639
303.11	0.494	0	PA_with_intermediate	0,0,0,3,2,0,0,0,0	test	ward_and_allport	0,0,0,2,0,0,1,3,0	82.0	25.0	0.494	0,0,0,0,0,0,1,2,3	to_hand	s639
303.606	0.998	0	PA_with_intermediate	1,0,0,3,2,0,0,0,0	test	ward_and_allport	0,0,0,2,0,0,1,3,0	89.0	25.0	0.998	0,0,0,0,0,0,1,2,3	to_board	s639
304.611	0.787	0	PA_with_intermediate	1,0,0,3,0,0,0,0,0	test	ward_and_allport	0,0,0,2,0,0,1,3,0	71.0	25.0	0.787	0,0,0,0,0,0,1,2,3	to_hand	s639
305.4	0.354	0	PA_with_intermediate	1,0,0,3,0,0,2,0,0	test	ward_and_allport	0,0,0,2,0,0,1,3,0	82.0	25.0	0.354	0,0,0,0,0,0,1,2,3	to_board	s639
305.76	0.72	0	PA_with_intermediate	1,0,0,0,0,0,2,0,0	test	ward_and_allport	0,0,0,2,0,0,1,3,0	71.0	25.0	0.72	0,0,0,0,0,0,1,2,3	to_hand	s639
306.482	0.387	0	PA_with_intermediate	1,3,0,0,0,0,2,0,0	test	ward_and_allport	0,0,0,2,0,0,1,3,0	89.0	25.0	0.387	0,0,0,0,0,0,1,2,3	to_board	s639
306.877	0.537	0	PA_with_intermediate	1,3,0,0,0,0,0,0,0	test	ward_and_allport	0,0,0,2,0,0,1,3,0	82.0	25.0	0.537	0,0,0,0,0,0,1,2,3	to_hand	s639
307.415	0.327	0	PA_with_intermediate	1,3,0,2,0,0,0,0,0	test	ward_and_allport	0,0,0,2,0,0,1,3,0	71.0	25.0	0.327	0,0,0,0,0,0,1,2,3	to_board	s639
307.749	2.479	0	PA_with_intermediate	1,0,0,2,0,0,0,0,0	test	ward_and_allport	0,0,0,2,0,0,1,3,0	89.0	25.0	2.479	0,0,0,0,0,0,1,2,3	to_hand	s639
310.229	1.091	0	PA_with_intermediate	1,0,0,2,3,0,0,0,0	test	ward_and_allport	0,0,0,2,0,0,1,3,0	71.0	25.0	1.091	0,0,0,0,0,0,1,2,3	to_board	s639
311.327	0.44	0	PA_with_intermediate	0,0,0,2,3,0,0,0,0	test	ward_and_allport	0,0,0,2,0,0,1,3,0	89.0	25.0	0.44	0,0,0,0,0,0,1,2,3	to_hand	s639
311.768	0.728	0	PA_with_intermediate	0,0,0,2,3,0,1,0,0	test	ward_and_allport	0,0,0,2,0,0,1,3,0	82.0	25.0	0.728	0,0,0,0,0,0,1,2,3	to_board	s639
312.503	0.645	0	PA_with_intermediate	0,0,0,2,0,0,1,0,0	test	ward_and_allport	0,0,0,2,0,0,1,3,0	71.0	25.0	0.645	0,0,0,0,0,0,1,2,3	to_hand	s639
313.149	0.286	0	PA_with_intermediate	0,0,0,2,0,0,1,3,0	test	ward_and_allport	0,0,0,2,0,0,1,3,0	82.0	25.0	0.286	0,0,0,0,0,0,1,2,3	to_board	s639
313.444	1.0	0	PA_with_intermediate	n/a	test	ward_and_allport	n/a	-1.0	25.0	n/a	n/a	feedback	s639
314.444	1.0	0	PA_with_intermediate	n/a	test	ward_and_allport	n/a	-1.0	25.0	n/a	n/a	ITI	s639
315.451	2.538	1	PA_without_intermediate	0,0,0,1,2,0,0,0,0	test	ward_and_allport	2,0,0,0,0,0,3,1,0	71.0	26.0	2.538	0,0,0,1,2,3,0,0,0	to_hand	s639
317.991	0.564	0	PA_without_intermediate	0,0,0,1,2,0,3,0,0	test	ward_and_allport	2,0,0,0,0,0,3,1,0	82.0	26.0	0.564	0,0,0,1,2,3,0,0,0	to_board	s639
318.562	0.554	0	PA_without_intermediate	0,0,0,1,0,0,3,0,0	test	ward_and_allport	2,0,0,0,0,0,3,1,0	71.0	26.0	0.554	0,0,0,1,2,3,0,0,0	to_hand	s639
319.117	0.356	0	PA_without_intermediate	2,0,0,1,0,0,3,0,0	test	ward_and_allport	2,0,0,0,0,0,3,1,0	89.0	26.0	0.356	0,0,0,1,2,3,0,0,0	to_board	s639
319.481	0.393	0	PA_without_intermediate	2,0,0,0,0,0,3,0,0	test	ward_and_allport	2,0,0,0,0,0,3,1,0	71.0	26.0	0.393	0,0,0,1,2,3,0,0,0	to_hand	s639
319.874	0.476	0	PA_without_intermediate	2,0,0,0,0,0,3,1,0	test	ward_and_allport	2,0,0,0,0,0,3,1,0	82.0	26.0	0.476	0,0,0,1,2,3,0,0,0	to_board	s639
320.36	1.0	0	PA_without_intermediate	n/a	test	ward_and_allport	n/a	-1.0	26.0	n/a	n/a	feedback	s639
321.36	1.0	0	PA_without_intermediate	n/a	test	ward_and_allport	n/a	-1.0	26.0	n/a	n/a	ITI	s639
322.368	5.405	1	PA_without_intermediate	0,0,0,0,0,0,1,2,0	test	ward_and_allport	2,0,0,3,1,0,0,0,0	82.0	27.0	5.405	0,0,0,0,0,0,1,2,3	to_hand	s639
327.774	0.37	0	PA_without_intermediate	0,0,0,3,0,0,1,2,0	test	ward_and_allport	2,0,0,3,1,0,0,0,0	71.0	27.0	0.37	0,0,0,0,0,0,1,2,3	to_board	s639
328.151	0.959	0	PA_without_intermediate	0,0,0,3,0,0,1,0,0	test	ward_and_allport	2,0,0,3,1,0,0,0,0	82.0	27.0	0.959	0,0,0,0,0,0,1,2,3	to_hand	s639
329.111	0.581	0	PA_without_intermediate	2,0,0,3,0,0,1,0,0	test	ward_and_allport	2,0,0,3,1,0,0,0,0	89.0	27.0	0.581	0,0,0,0,0,0,1,2,3	to_board	s639
329.7	0.432	0	PA_without_intermediate	2,0,0,3,0,0,0,0,0	test	ward_and_allport	2,0,0,3,1,0,0,0,0	82.0	27.0	0.432	0,0,0,0,0,0,1,2,3	to_hand	s639
330.133	0.285	0	PA_without_intermediate	2,0,0,3,1,0,0,0,0	test	ward_and_allport	2,0,0,3,1,0,0,0,0	71.0	27.0	0.285	0,0,0,0,0,0,1,2,3	to_board	s639
330.427	1.0	0	PA_without_intermediate	n/a	test	ward_and_allport	n/a	-1.0	27.0	n/a	n/a	feedback	s639
331.427	1.0	0	PA_without_intermediate	n/a	test	ward_and_allport	n/a	-1.0	27.0	n/a	n/a	ITI	s639
332.436	4.681	1	PA_with_intermediate	1,2,0,0,0,0,0,0,0	test	ward_and_allport	1,3,0,0,0,0,2,0,0	89.0	28.0	4.681	1,2,3,0,0,0,0,0,0	to_hand	s639
337.119	0.32	0	PA_with_intermediate	1,2,0,3,0,0,0,0,0	test	ward_and_allport	1,3,0,0,0,0,2,0,0	71.0	28.0	0.32	1,2,3,0,0,0,0,0,0	to_board	s639
337.447	0.348	0	PA_with_intermediate	1,0,0,3,0,0,0,0,0	test	ward_and_allport	1,3,0,0,0,0,2,0,0	89.0	28.0	0.348	1,2,3,0,0,0,0,0,0	to_hand	s639
337.797	0.495	0	PA_with_intermediate	1,0,0,3,0,0,2,0,0	test	ward_and_allport	1,3,0,0,0,0,2,0,0	82.0	28.0	0.495	1,2,3,0,0,0,0,0,0	to_board	s639
338.3	0.446	0	PA_with_intermediate	1,0,0,0,0,0,2,0,0	test	ward_and_allport	1,3,0,0,0,0,2,0,0	71.0	28.0	0.446	1,2,3,0,0,0,0,0,0	to_hand	s639
338.746	0.327	0	PA_with_intermediate	1,3,0,0,0,0,2,0,0	test	ward_and_allport	1,3,0,0,0,0,2,0,0	89.0	28.0	0.327	1,2,3,0,0,0,0,0,0	to_board	s639
339.082	1.0	0	PA_with_intermediate	n/a	test	ward_and_allport	n/a	-1.0	28.0	n/a	n/a	feedback	s639
340.082	1.544	0	PA_with_intermediate	n/a	test	ward_and_allport	n/a	-1.0	28.0	n/a	n/a	ITI	s639
341.635	3.588	1	PA_without_intermediate	0,0,0,0,0,0,1,2,0	test	ward_and_allport	3,2,0,1,0,0,0,0,0	82.0	29.0	3.588	0,0,0,0,0,0,1,2,3	to_hand	s639
345.223	0.296	0	PA_without_intermediate	3,0,0,0,0,0,1,2,0	test	ward_and_allport	3,2,0,1,0,0,0,0,0	89.0	29.0	0.296	0,0,0,0,0,0,1,2,3	to_board	s639
345.528	0.551	0	PA_without_intermediate	3,0,0,0,0,0,1,0,0	test	ward_and_allport	3,2,0,1,0,0,0,0,0	82.0	29.0	0.551	0,0,0,0,0,0,1,2,3	to_hand	s639
346.08	0.695	0	PA_without_intermediate	3,2,0,0,0,0,1,0,0	test	ward_and_allport	3,2,0,1,0,0,0,0,0	89.0	29.0	0.695	0,0,0,0,0,0,1,2,3	to_board	s639
346.785	0.81	0	PA_without_intermediate	3,2,0,0,0,0,0,0,0	test	ward_and_allport	3,2,0,1,0,0,0,0,0	82.0	29.0	0.81	0,0,0,0,0,0,1,2,3	to_hand	s639
347.595	0.283	0	PA_without_intermediate	3,2,0,1,0,0,0,0,0	test	ward_and_allport	3,2,0,1,0,0,0,0,0	71.0	29.0	0.283	0,0,0,0,0,0,1,2,3	to_board	s639
347.889	1.0	0	PA_without_intermediate	n/a	test	ward_and_allport	n/a	-1.0	29.0	n/a	n/a	feedback	s639
348.889	1.272	0	PA_without_intermediate	n/a	test	ward_and_allport	n/a	-1.0	29.0	n/a	n/a	ITI	s639
355.174	3.576	1	PA_with_intermediate	0,0,0,0,0,0,1,2,0	test	ward_and_allport	2,3,0,0,0,0,1,0,0	82.0	30.0	3.576	0,0,0,0,0,0,1,2,3	to_hand	s639
358.752	0.412	0	PA_with_intermediate	0,0,0,3,0,0,1,2,0	test	ward_and_allport	2,3,0,0,0,0,1,0,0	71.0	30.0	0.412	0,0,0,0,0,0,1,2,3	to_board	s639
359.173	0.708	0	PA_with_intermediate	0,0,0,3,0,0,1,0,0	test	ward_and_allport	2,3,0,0,0,0,1,0,0	82.0	30.0	0.708	0,0,0,0,0,0,1,2,3	to_hand	s639
359.883	0.459	0	PA_with_intermediate	2,0,0,3,0,0,1,0,0	test	ward_and_allport	2,3,0,0,0,0,1,0,0	89.0	30.0	0.459	0,0,0,0,0,0,1,2,3	to_board	s639
360.352	0.687	0	PA_with_intermediate	2,0,0,0,0,0,1,0,0	test	ward_and_allport	2,3,0,0,0,0,1,0,0	71.0	30.0	0.687	0,0,0,0,0,0,1,2,3	to_hand	s639
361.041	0.383	0	PA_with_intermediate	2,3,0,0,0,0,1,0,0	test	ward_and_allport	2,3,0,0,0,0,1,0,0	89.0	30.0	0.383	0,0,0,0,0,0,1,2,3	to_board	s639
361.435	1.0	0	PA_with_intermediate	n/a	test	ward_and_allport	n/a	-1.0	30.0	n/a	n/a	feedback	s639
362.435	3.04	0	PA_with_intermediate	n/a	test	ward_and_allport	n/a	-1.0	30.0	n/a	n/a	ITI	s639
365.484	4.248	1	PA_with_intermediate	1,2,0,0,0,0,0,0,0	test	ward_and_allport	1,3,0,2,0,0,0,0,0	89.0	31.0	4.248	1,2,3,0,0,0,0,0,0	to_hand	s639
369.733	0.446	0	PA_with_intermediate	1,2,0,3,0,0,0,0,0	test	ward_and_allport	1,3,0,2,0,0,0,0,0	71.0	31.0	0.446	1,2,3,0,0,0,0,0,0	to_board	s639
370.189	0.356	0	PA_with_intermediate	1,0,0,3,0,0,0,0,0	test	ward_and_allport	1,3,0,2,0,0,0,0,0	89.0	31.0	0.356	1,2,3,0,0,0,0,0,0	to_hand	s639
370.547	1.635	0	PA_with_intermediate	1,2,0,3,0,0,0,0,0	test	ward_and_allport	1,3,0,2,0,0,0,0,0	89.0	31.0	1.635	1,2,3,0,0,0,0,0,0	to_board	s639
372.191	0.442	0	PA_with_intermediate	1,2,0,0,0,0,0,0,0	test	ward_and_allport	1,3,0,2,0,0,0,0,0	71.0	31.0	0.442	1,2,3,0,0,0,0,0,0	to_hand	s639
372.635	0.75	0	PA_with_intermediate	1,2,0,0,0,0,3,0,0	test	ward_and_allport	1,3,0,2,0,0,0,0,0	82.0	31.0	0.75	1,2,3,0,0,0,0,0,0	to_board	s639
373.393	0.517	0	PA_with_intermediate	1,0,0,0,0,0,3,0,0	test	ward_and_allport	1,3,0,2,0,0,0,0,0	89.0	31.0	0.517	1,2,3,0,0,0,0,0,0	to_hand	s639
373.911	0.377	0	PA_with_intermediate	1,0,0,2,0,0,3,0,0	test	ward_and_allport	1,3,0,2,0,0,0,0,0	71.0	31.0	0.377	1,2,3,0,0,0,0,0,0	to_board	s639
374.299	0.584	0	PA_with_intermediate	1,0,0,2,0,0,0,0,0	test	ward_and_allport	1,3,0,2,0,0,0,0,0	82.0	31.0	0.584	1,2,3,0,0,0,0,0,0	to_hand	s639
374.883	0.624	0	PA_with_intermediate	1,0,0,2,3,0,0,0,0	test	ward_and_allport	1,3,0,2,0,0,0,0,0	71.0	31.0	0.624	1,2,3,0,0,0,0,0,0	to_board	s639
375.515	1.528	0	PA_with_intermediate	1,0,0,2,0,0,0,0,0	test	ward_and_allport	1,3,0,2,0,0,0,0,0	71.0	31.0	1.528	1,2,3,0,0,0,0,0,0	to_hand	s639
377.044	0.427	0	PA_with_intermediate	1,3,0,2,0,0,0,0,0	test	ward_and_allport	1,3,0,2,0,0,0,0,0	89.0	31.0	0.427	1,2,3,0,0,0,0,0,0	to_board	s639
377.479	1.0	0	PA_with_intermediate	n/a	test	ward_and_allport	n/a	-1.0	31.0	n/a	n/a	feedback	s639
378.479	1.272	0	PA_with_intermediate	n/a	test	ward_and_allport	n/a	-1.0	31.0	n/a	n/a	ITI	s639
379.758	5.163	1	PA_with_intermediate	0,0,0,0,0,0,1,2,0	test	ward_and_allport	0,0,0,2,3,0,1,0,0	82.0	32.0	5.163	0,0,0,0,0,0,1,2,3	to_hand	s639
384.922	0.402	0	PA_with_intermediate	3,0,0,0,0,0,1,2,0	test	ward_and_allport	0,0,0,2,3,0,1,0,0	89.0	32.0	0.402	0,0,0,0,0,0,1,2,3	to_board	s639
385.329	0.667	0	PA_with_intermediate	3,0,0,0,0,0,1,0,0	test	ward_and_allport	0,0,0,2,3,0,1,0,0	82.0	32.0	0.667	0,0,0,0,0,0,1,2,3	to_hand	s639
385.996	0.972	0	PA_with_intermediate	3,0,0,2,0,0,1,0,0	test	ward_and_allport	0,0,0,2,3,0,1,0,0	71.0	32.0	0.972	0,0,0,0,0,0,1,2,3	to_board	s639
386.976	0.402	0	PA_with_intermediate	0,0,0,2,0,0,1,0,0	test	ward_and_allport	0,0,0,2,3,0,1,0,0	89.0	32.0	0.402	0,0,0,0,0,0,1,2,3	to_hand	s639
387.38	0.36	0	PA_with_intermediate	0,0,0,2,3,0,1,0,0	test	ward_and_allport	0,0,0,2,3,0,1,0,0	71.0	32.0	0.36	0,0,0,0,0,0,1,2,3	to_board	s639
387.751	1.0	0	PA_with_intermediate	n/a	test	ward_and_allport	n/a	-1.0	32.0	n/a	n/a	feedback	s639
388.751	1.136	0	PA_with_intermediate	n/a	test	ward_and_allport	n/a	-1.0	32.0	n/a	n/a	ITI	s639
389.898	3.859	1	PA_with_intermediate	0,0,0,0,0,0,1,2,0	test	ward_and_allport	0,0,0,2,3,0,1,0,0	82.0	33.0	3.859	0,0,0,0,0,0,1,2,3	to_hand	s639
393.758	0.258	0	PA_with_intermediate	3,0,0,0,0,0,1,2,0	test	ward_and_allport	0,0,0,2,3,0,1,0,0	89.0	33.0	0.258	0,0,0,0,0,0,1,2,3	to_board	s639
394.027	1.143	0	PA_with_intermediate	3,0,0,0,0,0,1,0,0	test	ward_and_allport	0,0,0,2,3,0,1,0,0	82.0	33.0	1.143	0,0,0,0,0,0,1,2,3	to_hand	s639
395.172	0.321	0	PA_with_intermediate	3,0,0,2,0,0,1,0,0	test	ward_and_allport	0,0,0,2,3,0,1,0,0	71.0	33.0	0.321	0,0,0,0,0,0,1,2,3	to_board	s639
395.503	0.351	0	PA_with_intermediate	0,0,0,2,0,0,1,0,0	test	ward_and_allport	0,0,0,2,3,0,1,0,0	89.0	33.0	0.351	0,0,0,0,0,0,1,2,3	to_hand	s639
395.855	0.327	0	PA_with_intermediate	0,0,0,2,3,0,1,0,0	test	ward_and_allport	0,0,0,2,3,0,1,0,0	71.0	33.0	0.327	0,0,0,0,0,0,1,2,3	to_board	s639
396.194	1.0	0	PA_with_intermediate	n/a	test	ward_and_allport	n/a	-1.0	33.0	n/a	n/a	feedback	s639
397.194	1.0	0	PA_with_intermediate	n/a	test	ward_and_allport	n/a	-1.0	33.0	n/a	n/a	ITI	s639
398.204	3.204	1	PA_with_intermediate	0,0,0,1,2,0,0,0,0	test	ward_and_allport	0,0,0,1,0,0,2,3,0	71.0	34.0	3.204	0,0,0,1,2,3,0,0,0	to_hand	s639
401.409	0.318	0	PA_with_intermediate	3,0,0,1,2,0,0,0,0	test	ward_and_allport	0,0,0,1,0,0,2,3,0	89.0	34.0	0.318	0,0,0,1,2,3,0,0,0	to_board	s639
401.734	0.325	0	PA_with_intermediate	3,0,0,1,0,0,0,0,0	test	ward_and_allport	0,0,0,1,0,0,2,3,0	71.0	34.0	0.325	0,0,0,1,2,3,0,0,0	to_hand	s639
402.059	0.368	0	PA_with_intermediate	3,0,0,1,0,0,2,0,0	test	ward_and_allport	0,0,0,1,0,0,2,3,0	82.0	34.0	0.368	0,0,0,1,2,3,0,0,0	to_board	s639
402.437	0.408	0	PA_with_intermediate	0,0,0,1,0,0,2,0,0	test	ward_and_allport	0,0,0,1,0,0,2,3,0	89.0	34.0	0.408	0,0,0,1,2,3,0,0,0	to_hand	s639
402.846	0.467	0	PA_with_intermediate	0,0,0,1,0,0,2,3,0	test	ward_and_allport	0,0,0,1,0,0,2,3,0	82.0	34.0	0.467	0,0,0,1,2,3,0,0,0	to_board	s639
403.323	1.0	0	PA_with_intermediate	n/a	test	ward_and_allport	n/a	-1.0	34.0	n/a	n/a	feedback	s639
404.323	1.0	0	PA_with_intermediate	n/a	test	ward_and_allport	n/a	-1.0	34.0	n/a	n/a	ITI	s639
405.332	2.375	1	PA_without_intermediate	1,2,0,0,0,0,0,0,0	test	ward_and_allport	0,0,0,1,0,0,3,2,0	89.0	35.0	2.375	1,2,3,0,0,0,0,0,0	to_hand	s639
407.708	0.414	0	PA_without_intermediate	1,2,0,0,0,0,3,0,0	test	ward_and_allport	0,0,0,1,0,0,3,2,0	82.0	35.0	0.414	1,2,3,0,0,0,0,0,0	to_board	s639
408.13	0.69	0	PA_without_intermediate	1,0,0,0,0,0,3,0,0	test	ward_and_allport	0,0,0,1,0,0,3,2,0	89.0	35.0	0.69	1,2,3,0,0,0,0,0,0	to_hand	s639
408.821	0.708	0	PA_without_intermediate	1,0,0,0,0,0,3,2,0	test	ward_and_allport	0,0,0,1,0,0,3,2,0	82.0	35.0	0.708	1,2,3,0,0,0,0,0,0	to_board	s639
409.536	0.858	0	PA_without_intermediate	0,0,0,0,0,0,3,2,0	test	ward_and_allport	0,0,0,1,0,0,3,2,0	89.0	35.0	0.858	1,2,3,0,0,0,0,0,0	to_hand	s639
410.396	0.397	0	PA_without_intermediate	0,0,0,1,0,0,3,2,0	test	ward_and_allport	0,0,0,1,0,0,3,2,0	71.0	35.0	0.397	1,2,3,0,0,0,0,0,0	to_board	s639
410.803	1.0	0	PA_without_intermediate	n/a	test	ward_and_allport	n/a	-1.0	35.0	n/a	n/a	feedback	s639
411.803	1.408	0	PA_without_intermediate	n/a	test	ward_and_allport	n/a	-1.0	35.0	n/a	n/a	ITI	s639
413.22	5.396	1	PA_with_intermediate	0,0,0,0,0,0,1,2,0	test	ward_and_allport	2,0,0,0,0,0,1,3,0	82.0	36.0	5.396	0,0,0,0,0,0,1,2,3	to_hand	s639
418.618	0.487	0	PA_with_intermediate	0,0,0,3,0,0,1,2,0	test	ward_and_allport	2,0,0,0,0,0,1,3,0	71.0	36.0	0.487	0,0,0,0,0,0,1,2,3	to_board	s639
419.113	0.487	0	PA_with_intermediate	0,0,0,3,0,0,1,0,0	test	ward_and_allport	2,0,0,0,0,0,1,3,0	82.0	36.0	0.487	0,0,0,0,0,0,1,2,3	to_hand	s639
419.602	0.475	0	PA_with_intermediate	2,0,0,3,0,0,1,0,0	test	ward_and_allport	2,0,0,0,0,0,1,3,0	89.0	36.0	0.475	0,0,0,0,0,0,1,2,3	to_board	s639
420.087	0.671	0	PA_with_intermediate	2,0,0,0,0,0,1,0,0	test	ward_and_allport	2,0,0,0,0,0,1,3,0	71.0	36.0	0.671	0,0,0,0,0,0,1,2,3	to_hand	s639
420.759	0.581	0	PA_with_intermediate	2,0,0,0,0,0,1,3,0	test	ward_and_allport	2,0,0,0,0,0,1,3,0	82.0	36.0	0.581	0,0,0,0,0,0,1,2,3	to_board	s639
421.351	1.0	0	PA_with_intermediate	n/a	test	ward_and_allport	n/a	-1.0	36.0	n/a	n/a	feedback	s639
422.351	2.768	0	PA_with_intermediate	n/a	test	ward_and_allport	n/a	-1.0	36.0	n/a	n/a	ITI	s639
425.13	2.458	1	PA_with_intermediate	1,2,0,0,0,0,0,0,0	test	ward_and_allport	1,3,0,2,0,0,0,0,0	89.0	37.0	2.458	1,2,3,0,0,0,0,0,0	to_hand	s639
427.59	0.504	0	PA_with_intermediate	1,2,0,0,0,0,3,0,0	test	ward_and_allport	1,3,0,2,0,0,0,0,0	82.0	37.0	0.504	1,2,3,0,0,0,0,0,0	to_board	s639
428.104	0.433	0	PA_with_intermediate	1,0,0,0,0,0,3,0,0	test	ward_and_allport	1,3,0,2,0,0,0,0,0	89.0	37.0	0.433	1,2,3,0,0,0,0,0,0	to_hand	s639
428.537	0.385	0	PA_with_intermediate	1,0,0,2,0,0,3,0,0	test	ward_and_allport	1,3,0,2,0,0,0,0,0	71.0	37.0	0.385	1,2,3,0,0,0,0,0,0	to_board	s639
428.933	0.416	0	PA_with_intermediate	1,0,0,2,0,0,0,0,0	test	ward_and_allport	1,3,0,2,0,0,0,0,0	82.0	37.0	0.416	1,2,3,0,0,0,0,0,0	to_hand	s639
429.35	0.296	0	PA_with_intermediate	1,3,0,2,0,0,0,0,0	test	ward_and_allport	1,3,0,2,0,0,0,0,0	89.0	37.0	0.296	1,2,3,0,0,0,0,0,0	to_board	s639
429.656	1.0	0	PA_with_intermediate	n/a	test	ward_and_allport	n/a	-1.0	37.0	n/a	n/a	feedback	s639
430.656	1.68	0	PA_with_intermediate	n/a	test	ward_and_allport	n/a	-1.0	37.0	n/a	n/a	ITI	s639
432.345	6.514	1	PA_without_intermediate	1,2,0,0,0,0,0,0,0	test	ward_and_allport	0,0,0,3,2,0,1,0,0	89.0	38.0	6.514	1,2,3,0,0,0,0,0,0	to_hand	s639
438.861	1.583	0	PA_without_intermediate	1,2,0,3,0,0,0,0,0	test	ward_and_allport	0,0,0,3,2,0,1,0,0	71.0	38.0	1.583	1,2,3,0,0,0,0,0,0	to_board	s639
440.454	0.777	0	PA_without_intermediate	1,0,0,3,0,0,0,0,0	test	ward_and_allport	0,0,0,3,2,0,1,0,0	89.0	38.0	0.777	1,2,3,0,0,0,0,0,0	to_hand	s639
441.232	0.391	0	PA_without_intermediate	1,0,0,3,2,0,0,0,0	test	ward_and_allport	0,0,0,3,2,0,1,0,0	71.0	38.0	0.391	1,2,3,0,0,0,0,0,0	to_board	s639
441.633	0.558	0	PA_without_intermediate	0,0,0,3,2,0,0,0,0	test	ward_and_allport	0,0,0,3,2,0,1,0,0	89.0	38.0	0.558	1,2,3,0,0,0,0,0,0	to_hand	s639
442.193	0.454	0	PA_without_intermediate	0,0,0,3,2,0,1,0,0	test	ward_and_allport	0,0,0,3,2,0,1,0,0	82.0	38.0	0.454	1,2,3,0,0,0,0,0,0	to_board	s639
442.659	1.0	0	PA_without_intermediate	n/a	test	ward_and_allport	n/a	-1.0	38.0	n/a	n/a	feedback	s639
443.659	2.224	0	PA_without_intermediate	n/a	test	ward_and_allport	n/a	-1.0	38.0	n/a	n/a	ITI	s639
445.893	2.758	1	PA_without_intermediate	0,0,0,1,2,0,0,0,0	test	ward_and_allport	3,1,0,0,0,0,2,0,0	71.0	39.0	2.758	0,0,0,1,2,3,0,0,0	to_hand	s639
448.653	0.293	0	PA_without_intermediate	3,0,0,1,2,0,0,0,0	test	ward_and_allport	3,1,0,0,0,0,2,0,0	89.0	39.0	0.293	0,0,0,1,2,3,0,0,0	to_board	s639
448.954	0.381	0	PA_without_intermediate	3,0,0,1,0,0,0,0,0	test	ward_and_allport	3,1,0,0,0,0,2,0,0	71.0	39.0	0.381	0,0,0,1,2,3,0,0,0	to_hand	s639
449.336	0.289	0	PA_without_intermediate	3,0,0,1,0,0,2,0,0	test	ward_and_allport	3,1,0,0,0,0,2,0,0	82.0	39.0	0.289	0,0,0,1,2,3,0,0,0	to_board	s639
449.636	0.341	0	PA_without_intermediate	3,0,0,0,0,0,2,0,0	test	ward_and_allport	3,1,0,0,0,0,2,0,0	71.0	39.0	0.341	0,0,0,1,2,3,0,0,0	to_hand	s639
449.979	0.307	0	PA_without_intermediate	3,1,0,0,0,0,2,0,0	test	ward_and_allport	3,1,0,0,0,0,2,0,0	89.0	39.0	0.307	0,0,0,1,2,3,0,0,0	to_board	s639
450.297	1.0	0	PA_without_intermediate	n/a	test	ward_and_allport	n/a	-1.0	39.0	n/a	n/a	feedback	s639
451.297	2.36	0	PA_without_intermediate	n/a	test	ward_and_allport	n/a	-1.0	39.0	n/a	n/a	ITI	s639
453.666	3.409	1	PA_without_intermediate	1,2,0,0,0,0,0,0,0	test	ward_and_allport	0,0,0,3,1,0,2,0,0	89.0	40.0	3.409	1,2,3,0,0,0,0,0,0	to_hand	s639
457.076	0.266	0	PA_without_intermediate	1,2,0,3,0,0,0,0,0	test	ward_and_allport	0,0,0,3,1,0,2,0,0	71.0	40.0	0.266	1,2,3,0,0,0,0,0,0	to_board	s639
457.349	0.375	0	PA_without_intermediate	1,0,0,3,0,0,0,0,0	test	ward_and_allport	0,0,0,3,1,0,2,0,0	89.0	40.0	0.375	1,2,3,0,0,0,0,0,0	to_hand	s639
457.725	0.36	0	PA_without_intermediate	1,0,0,3,0,0,2,0,0	test	ward_and_allport	0,0,0,3,1,0,2,0,0	82.0	40.0	0.36	1,2,3,0,0,0,0,0,0	to_board	s639
458.094	0.346	0	PA_without_intermediate	0,0,0,3,0,0,2,0,0	test	ward_and_allport	0,0,0,3,1,0,2,0,0	89.0	40.0	0.346	1,2,3,0,0,0,0,0,0	to_hand	s639
458.441	0.287	0	PA_without_intermediate	0,0,0,3,1,0,2,0,0	test	ward_and_allport	0,0,0,3,1,0,2,0,0	71.0	40.0	0.287	1,2,3,0,0,0,0,0,0	to_board	s639
458.74	1.0	0	PA_without_intermediate	n/a	test	ward_and_allport	n/a	-1.0	40.0	n/a	n/a	feedback	s639
459.74	1.0	0	PA_without_intermediate	n/a	test	ward_and_allport	n/a	-1.0	40.0	n/a	n/a	ITI	s639
460.751	2.598	1	PA_without_intermediate	0,0,0,1,2,0,0,0,0	test	ward_and_allport	3,2,0,0,0,0,1,0,0	71.0	41.0	2.598	0,0,0,1,2,3,0,0,0	to_hand	s639
463.35	0.241	0	PA_without_intermediate	3,0,0,1,2,0,0,0,0	test	ward_and_allport	3,2,0,0,0,0,1,0,0	89.0	41.0	0.241	0,0,0,1,2,3,0,0,0	to_board	s639
463.599	0.276	0	PA_without_intermediate	3,0,0,1,0,0,0,0,0	test	ward_and_allport	3,2,0,0,0,0,1,0,0	71.0	41.0	0.276	0,0,0,1,2,3,0,0,0	to_hand	s639
463.876	0.227	0	PA_without_intermediate	3,2,0,1,0,0,0,0,0	test	ward_and_allport	3,2,0,0,0,0,1,0,0	89.0	41.0	0.227	0,0,0,1,2,3,0,0,0	to_board	s639
464.111	0.373	0	PA_without_intermediate	3,2,0,0,0,0,0,0,0	test	ward_and_allport	3,2,0,0,0,0,1,0,0	71.0	41.0	0.373	0,0,0,1,2,3,0,0,0	to_hand	s639
464.485	0.465	0	PA_without_intermediate	3,2,0,0,0,0,1,0,0	test	ward_and_allport	3,2,0,0,0,0,1,0,0	82.0	41.0	0.465	0,0,0,1,2,3,0,0,0	to_board	s639
464.959	1.0	0	PA_without_intermediate	n/a	test	ward_and_allport	n/a	-1.0	41.0	n/a	n/a	feedback	s639
465.959	1.408	0	PA_without_intermediate	n/a	test	ward_and_allport	n/a	-1.0	41.0	n/a	n/a	ITI	s639
467.376	2.97	1	PA_with_intermediate	0,0,0,1,2,0,0,0,0	test	ward_and_allport	2,0,0,1,3,0,0,0,0	71.0	42.0	2.97	0,0,0,1,2,3,0,0,0	to_hand	s639
470.347	0.322	0	PA_with_intermediate	0,0,0,1,2,0,3,0,0	test	ward_and_allport	2,0,0,1,3,0,0,0,0	82.0	42.0	0.322	0,0,0,1,2,3,0,0,0	to_board	s639
470.676	0.296	0	PA_with_intermediate	0,0,0,1,0,0,3,0,0	test	ward_and_allport	2,0,0,1,3,0,0,0,0	71.0	42.0	0.296	0,0,0,1,2,3,0,0,0	to_hand	s639
470.973	0.248	0	PA_with_intermediate	2,0,0,1,0,0,3,0,0	test	ward_and_allport	2,0,0,1,3,0,0,0,0	89.0	42.0	0.248	0,0,0,1,2,3,0,0,0	to_board	s639
471.232	0.679	0	PA_with_intermediate	2,0,0,1,0,0,0,0,0	test	ward_and_allport	2,0,0,1,3,0,0,0,0	82.0	42.0	0.679	0,0,0,1,2,3,0,0,0	to_hand	s639
471.913	0.763	0	PA_with_intermediate	2,0,0,1,3,0,0,0,0	test	ward_and_allport	2,0,0,1,3,0,0,0,0	71.0	42.0	0.763	0,0,0,1,2,3,0,0,0	to_board	s639
472.688	1.0	0	PA_with_intermediate	n/a	test	ward_and_allport	n/a	-1.0	42.0	n/a	n/a	feedback	s639
473.688	1.136	0	PA_with_intermediate	n/a	test	ward_and_allport	n/a	-1.0	42.0	n/a	n/a	ITI	s639
474.835	4.437	1	PA_without_intermediate	1,2,0,0,0,0,0,0,0	test	ward_and_allport	0,0,0,3,2,0,1,0,0	89.0	43.0	4.437	1,2,3,0,0,0,0,0,0	to_hand	s639
479.274	0.267	0	PA_without_intermediate	1,2,0,3,0,0,0,0,0	test	ward_and_allport	0,0,0,3,2,0,1,0,0	71.0	43.0	0.267	1,2,3,0,0,0,0,0,0	to_board	s639
479.551	0.285	0	PA_without_intermediate	1,0,0,3,0,0,0,0,0	test	ward_and_allport	0,0,0,3,2,0,1,0,0	89.0	43.0	0.285	1,2,3,0,0,0,0,0,0	to_hand	s639
479.838	0.302	0	PA_without_intermediate	1,0,0,3,2,0,0,0,0	test	ward_and_allport	0,0,0,3,2,0,1,0,0	71.0	43.0	0.302	1,2,3,0,0,0,0,0,0	to_board	s639
480.15	0.415	0	PA_without_intermediate	0,0,0,3,2,0,0,0,0	test	ward_and_allport	0,0,0,3,2,0,1,0,0	89.0	43.0	0.415	1,2,3,0,0,0,0,0,0	to_hand	s639
480.566	0.318	0	PA_without_intermediate	0,0,0,3,2,0,1,0,0	test	ward_and_allport	0,0,0,3,2,0,1,0,0	82.0	43.0	0.318	1,2,3,0,0,0,0,0,0	to_board	s639
480.895	1.0	0	PA_without_intermediate	n/a	test	ward_and_allport	n/a	-1.0	43.0	n/a	n/a	feedback	s639
481.895	4.128	0	PA_without_intermediate	n/a	test	ward_and_allport	n/a	-1.0	43.0	n/a	n/a	ITI	s639
486.032	1.694	1	PA_without_intermediate	1,2,0,0,0,0,0,0,0	test	ward_and_allport	0,0,0,1,0,0,3,2,0	89.0	44.0	1.694	1,2,3,0,0,0,0,0,0	to_hand	s639
487.728	0.532	0	PA_without_intermediate	1,2,0,0,0,0,3,0,0	test	ward_and_allport	0,0,0,1,0,0,3,2,0	82.0	44.0	0.532	1,2,3,0,0,0,0,0,0	to_board	s639
488.271	0.586	0	PA_without_intermediate	1,0,0,0,0,0,3,0,0	test	ward_and_allport	0,0,0,1,0,0,3,2,0	89.0	44.0	0.586	1,2,3,0,0,0,0,0,0	to_hand	s639
488.859	0.969	0	PA_without_intermediate	1,0,0,0,0,0,3,2,0	test	ward_and_allport	0,0,0,1,0,0,3,2,0	82.0	44.0	0.969	1,2,3,0,0,0,0,0,0	to_board	s639
489.841	0.518	0	PA_without_intermediate	0,0,0,0,0,0,3,2,0	test	ward_and_allport	0,0,0,1,0,0,3,2,0	89.0	44.0	0.518	1,2,3,0,0,0,0,0,0	to_hand	s639
490.36	0.338	0	PA_without_intermediate	0,0,0,1,0,0,3,2,0	test	ward_and_allport	0,0,0,1,0,0,3,2,0	71.0	44.0	0.338	1,2,3,0,0,0,0,0,0	to_board	s639
490.71	1.0	0	PA_without_intermediate	n/a	test	ward_and_allport	n/a	-1.0	44.0	n/a	n/a	feedback	s639
491.71	1.136	0	PA_without_intermediate	n/a	test	ward_and_allport	n/a	-1.0	44.0	n/a	n/a	ITI	s639
497.86	1.574	1	PA_without_intermediate	0,0,0,1,2,0,0,0,0	test	ward_and_allport	3,2,0,0,0,0,1,0,0	71.0	45.0	1.574	0,0,0,1,2,3,0,0,0	to_hand	s639
499.436	0.396	0	PA_without_intermediate	3,0,0,1,2,0,0,0,0	test	ward_and_allport	3,2,0,0,0,0,1,0,0	89.0	45.0	0.396	0,0,0,1,2,3,0,0,0	to_board	s639
499.844	0.538	0	PA_without_intermediate	3,0,0,1,0,0,0,0,0	test	ward_and_allport	3,2,0,0,0,0,1,0,0	71.0	45.0	0.538	0,0,0,1,2,3,0,0,0	to_hand	s639
500.384	1.059	0	PA_without_intermediate	3,2,0,1,0,0,0,0,0	test	ward_and_allport	3,2,0,0,0,0,1,0,0	89.0	45.0	1.059	0,0,0,1,2,3,0,0,0	to_board	s639
501.455	0.354	0	PA_without_intermediate	3,2,0,0,0,0,0,0,0	test	ward_and_allport	3,2,0,0,0,0,1,0,0	71.0	45.0	0.354	0,0,0,1,2,3,0,0,0	to_hand	s639
501.811	0.439	0	PA_without_intermediate	3,2,0,0,0,0,1,0,0	test	ward_and_allport	3,2,0,0,0,0,1,0,0	82.0	45.0	0.439	0,0,0,1,2,3,0,0,0	to_board	s639
502.263	1.0	0	PA_without_intermediate	n/a	test	ward_and_allport	n/a	-1.0	45.0	n/a	n/a	feedback	s639
503.263	4.264	0	PA_without_intermediate	n/a	test	ward_and_allport	n/a	-1.0	45.0	n/a	n/a	ITI	s639
507.538	2.239	1	PA_with_intermediate	1,2,0,0,0,0,0,0,0	test	ward_and_allport	1,0,0,2,3,0,0,0,0	89.0	46.0	2.239	1,2,3,0,0,0,0,0,0	to_hand	s639
509.779	0.263	0	PA_with_intermediate	1,2,0,0,0,0,3,0,0	test	ward_and_allport	1,0,0,2,3,0,0,0,0	82.0	46.0	0.263	1,2,3,0,0,0,0,0,0	to_board	s639
510.053	0.495	0	PA_with_intermediate	1,0,0,0,0,0,3,0,0	test	ward_and_allport	1,0,0,2,3,0,0,0,0	89.0	46.0	0.495	1,2,3,0,0,0,0,0,0	to_hand	s639
510.549	0.353	0	PA_with_intermediate	1,0,0,2,0,0,3,0,0	test	ward_and_allport	1,0,0,2,3,0,0,0,0	71.0	46.0	0.353	1,2,3,0,0,0,0,0,0	to_board	s639
510.913	0.406	0	PA_with_intermediate	0,0,0,2,0,0,3,0,0	test	ward_and_allport	1,0,0,2,3,0,0,0,0	89.0	46.0	0.406	1,2,3,0,0,0,0,0,0	to_hand	s639
511.32	0.826	0	PA_with_intermediate	1,0,0,2,0,0,3,0,0	test	ward_and_allport	1,0,0,2,3,0,0,0,0	89.0	46.0	0.826	1,2,3,0,0,0,0,0,0	to_board	s639
512.157	0.305	0	PA_with_intermediate	1,0,0,2,0,0,0,0,0	test	ward_and_allport	1,0,0,2,3,0,0,0,0	82.0	46.0	0.305	1,2,3,0,0,0,0,0,0	to_hand	s639
512.463	0.46	0	PA_with_intermediate	1,0,0,2,3,0,0,0,0	test	ward_and_allport	1,0,0,2,3,0,0,0,0	71.0	46.0	0.46	1,2,3,0,0,0,0,0,0	to_board	s639
512.935	1.0	0	PA_with_intermediate	n/a	test	ward_and_allport	n/a	-1.0	46.0	n/a	n/a	feedback	s639
513.935	3.04	0	PA_with_intermediate	n/a	test	ward_and_allport	n/a	-1.0	46.0	n/a	n/a	ITI	s639
516.985	2.559	1	PA_with_intermediate	0,0,0,1,2,0,0,0,0	test	ward_and_allport	2,3,0,1,0,0,0,0,0	71.0	47.0	2.559	0,0,0,1,2,3,0,0,0	to_hand	s639
519.546	0.408	0	PA_with_intermediate	0,0,0,1,2,0,3,0,0	test	ward_and_allport	2,3,0,1,0,0,0,0,0	82.0	47.0	0.408	0,0,0,1,2,3,0,0,0	to_board	s639
519.961	0.34	0	PA_with_intermediate	0,0,0,1,0,0,3,0,0	test	ward_and_allport	2,3,0,1,0,0,0,0,0	71.0	47.0	0.34	0,0,0,1,2,3,0,0,0	to_hand	s639
520.303	0.279	0	PA_with_intermediate	2,0,0,1,0,0,3,0,0	test	ward_and_allport	2,3,0,1,0,0,0,0,0	89.0	47.0	0.279	0,0,0,1,2,3,0,0,0	to_board	s639
520.593	0.504	0	PA_with_intermediate	2,0,0,1,0,0,0,0,0	test	ward_and_allport	2,3,0,1,0,0,0,0,0	82.0	47.0	0.504	0,0,0,1,2,3,0,0,0	to_hand	s639
521.098	0.399	0	PA_with_intermediate	2,3,0,1,0,0,0,0,0	test	ward_and_allport	2,3,0,1,0,0,0,0,0	89.0	47.0	0.399	0,0,0,1,2,3,0,0,0	to_board	s639
521.51	1.0	0	PA_with_intermediate	n/a	test	ward_and_allport	n/a	-1.0	47.0	n/a	n/a	feedback	s639
522.51	1.136	0	PA_with_intermediate	n/a	test	ward_and_allport	n/a	-1.0	47.0	n/a	n/a	ITI	s639
n/a	n/a	0	n/a	n/a	n/a	n/a	n/a	n/a	n/a	n/a	n/a	ITI	n/a
