onset	duration	planning	condition	current_position	exp_stage	experiment_exp_id	goal_state	key_press	problem_id	response_time	start_state	trial_id	worker_id
-64.581	0.0	0	n/a	n/a	n/a	ward_and_allport	n/a	32.0	n/a	22.888	n/a	instructions	s616
3.014	5.895	1	UA_with_intermediate	1,0,0,2,0,0,0,0,0	practice	ward_and_allport	1,2,3,0,0,0,0,0,0	71.0	0.0	5.895	1,0,0,2,3,0,0,0,0	to_hand	s616
8.91	0.563	0	UA_with_intermediate	1,0,0,2,0,0,3,0,0	practice	ward_and_allport	1,2,3,0,0,0,0,0,0	82.0	0.0	0.563	1,0,0,2,3,0,0,0,0	to_board	s616
9.475	0.838	0	UA_with_intermediate	1,0,0,0,0,0,3,0,0	practice	ward_and_allport	1,2,3,0,0,0,0,0,0	71.0	0.0	0.838	1,0,0,2,3,0,0,0,0	to_hand	s616
10.314	0.961	0	UA_with_intermediate	1,2,0,0,0,0,3,0,0	practice	ward_and_allport	1,2,3,0,0,0,0,0,0	89.0	0.0	0.961	1,0,0,2,3,0,0,0,0	to_board	s616
11.277	0.564	0	UA_with_intermediate	1,2,0,0,0,0,0,0,0	practice	ward_and_allport	1,2,3,0,0,0,0,0,0	82.0	0.0	0.564	1,0,0,2,3,0,0,0,0	to_hand	s616
11.842	0.411	0	UA_with_intermediate	1,2,3,0,0,0,0,0,0	practice	ward_and_allport	1,2,3,0,0,0,0,0,0	89.0	0.0	0.411	1,0,0,2,3,0,0,0,0	to_board	s616
12.258	1.0	0	UA_with_intermediate	n/a	practice	ward_and_allport	n/a	-1.0	0.0	n/a	n/a	feedback	s616
14.759	7.829	1	UA_with_intermediate	1,0,0,3,0,0,0,0,0	practice	ward_and_allport	1,3,2,0,0,0,0,0,0	89.0	1.0	7.829	1,2,0,3,0,0,0,0,0	to_hand	s616
22.589	0.335	0	UA_with_intermediate	1,0,0,3,0,0,2,0,0	practice	ward_and_allport	1,3,2,0,0,0,0,0,0	82.0	1.0	0.335	1,2,0,3,0,0,0,0,0	to_board	s616
22.926	0.693	0	UA_with_intermediate	1,0,0,0,0,0,2,0,0	practice	ward_and_allport	1,3,2,0,0,0,0,0,0	71.0	1.0	0.693	1,2,0,3,0,0,0,0,0	to_hand	s616
23.619	0.267	0	UA_with_intermediate	1,3,0,0,0,0,2,0,0	practice	ward_and_allport	1,3,2,0,0,0,0,0,0	89.0	1.0	0.267	1,2,0,3,0,0,0,0,0	to_board	s616
23.888	0.612	0	UA_with_intermediate	1,3,0,0,0,0,0,0,0	practice	ward_and_allport	1,3,2,0,0,0,0,0,0	82.0	1.0	0.612	1,2,0,3,0,0,0,0,0	to_hand	s616
24.5	0.284	0	UA_with_intermediate	1,3,2,0,0,0,0,0,0	practice	ward_and_allport	1,3,2,0,0,0,0,0,0	89.0	1.0	0.284	1,2,0,3,0,0,0,0,0	to_board	s616
24.79	1.0	0	UA_with_intermediate	n/a	practice	ward_and_allport	n/a	-1.0	1.0	n/a	n/a	feedback	s616
25.79	1.1	0	UA_with_intermediate	n/a	practice	ward_and_allport	n/a	-1.0	1.0	n/a	n/a	ITI	s616
26.891	9.014	1	UA_without_intermediate	0,0,0,1,2,0,0,0,0	practice	ward_and_allport	3,2,1,0,0,0,0,0,0	82.0	2.0	9.014	0,0,0,1,2,0,3,0,0	to_hand	s616
35.907	0.253	0	UA_without_intermediate	3,0,0,1,2,0,0,0,0	practice	ward_and_allport	3,2,1,0,0,0,0,0,0	89.0	2.0	0.253	0,0,0,1,2,0,3,0,0	to_board	s616
36.161	0.355	0	UA_without_intermediate	3,0,0,1,0,0,0,0,0	practice	ward_and_allport	3,2,1,0,0,0,0,0,0	71.0	2.0	0.355	0,0,0,1,2,0,3,0,0	to_hand	s616
36.517	0.305	0	UA_without_intermediate	3,2,0,1,0,0,0,0,0	practice	ward_and_allport	3,2,1,0,0,0,0,0,0	89.0	2.0	0.305	0,0,0,1,2,0,3,0,0	to_board	s616
36.823	0.386	0	UA_without_intermediate	3,2,0,0,0,0,0,0,0	practice	ward_and_allport	3,2,1,0,0,0,0,0,0	71.0	2.0	0.386	0,0,0,1,2,0,3,0,0	to_hand	s616
37.211	0.281	0	UA_without_intermediate	3,2,1,0,0,0,0,0,0	practice	ward_and_allport	3,2,1,0,0,0,0,0,0	89.0	2.0	0.281	0,0,0,1,2,0,3,0,0	to_board	s616
37.496	1.0	0	UA_without_intermediate	n/a	practice	ward_and_allport	n/a	-1.0	2.0	n/a	n/a	feedback	s616
38.496	1.2	0	UA_without_intermediate	n/a	practice	ward_and_allport	n/a	-1.0	2.0	n/a	n/a	ITI	s616
39.698	6.605	1	UA_without_intermediate	0,0,0,1,0,0,3,0,0	practice	ward_and_allport	2,3,1,0,0,0,0,0,0	71.0	3.0	6.605	0,0,0,1,2,0,3,0,0	to_hand	s616
46.304	0.344	0	UA_without_intermediate	2,0,0,1,0,0,3,0,0	practice	ward_and_allport	2,3,1,0,0,0,0,0,0	89.0	3.0	0.344	0,0,0,1,2,0,3,0,0	to_board	s616
46.651	0.434	0	UA_without_intermediate	2,0,0,1,0,0,0,0,0	practice	ward_and_allport	2,3,1,0,0,0,0,0,0	82.0	3.0	0.434	0,0,0,1,2,0,3,0,0	to_hand	s616
47.086	0.378	0	UA_without_intermediate	2,3,0,1,0,0,0,0,0	practice	ward_and_allport	2,3,1,0,0,0,0,0,0	89.0	3.0	0.378	0,0,0,1,2,0,3,0,0	to_board	s616
47.466	0.371	0	UA_without_intermediate	2,3,0,0,0,0,0,0,0	practice	ward_and_allport	2,3,1,0,0,0,0,0,0	71.0	3.0	0.371	0,0,0,1,2,0,3,0,0	to_hand	s616
47.838	0.299	0	UA_without_intermediate	2,3,1,0,0,0,0,0,0	practice	ward_and_allport	2,3,1,0,0,0,0,0,0	89.0	3.0	0.299	0,0,0,1,2,0,3,0,0	to_board	s616
48.144	1.0	0	UA_without_intermediate	n/a	practice	ward_and_allport	n/a	-1.0	3.0	n/a	n/a	feedback	s616
49.144	1.0	0	UA_without_intermediate	n/a	practice	ward_and_allport	n/a	-1.0	3.0	n/a	n/a	ITI	s616
52.15	10.303	1	PA_with_intermediate	0,0,0,1,2,0,0,0,0	test	ward_and_allport	0,0,0,1,0,0,2,3,0	71.0	0.0	10.303	0,0,0,1,2,3,0,0,0	to_hand	s616
62.453	0.357	0	PA_with_intermediate	3,0,0,1,2,0,0,0,0	test	ward_and_allport	0,0,0,1,0,0,2,3,0	89.0	0.0	0.357	0,0,0,1,2,3,0,0,0	to_board	s616
62.811	0.788	0	PA_with_intermediate	3,0,0,1,0,0,0,0,0	test	ward_and_allport	0,0,0,1,0,0,2,3,0	71.0	0.0	0.788	0,0,0,1,2,3,0,0,0	to_hand	s616
63.601	0.319	0	PA_with_intermediate	3,0,0,1,0,0,2,0,0	test	ward_and_allport	0,0,0,1,0,0,2,3,0	82.0	0.0	0.319	0,0,0,1,2,3,0,0,0	to_board	s616
63.921	0.807	0	PA_with_intermediate	0,0,0,1,0,0,2,0,0	test	ward_and_allport	0,0,0,1,0,0,2,3,0	89.0	0.0	0.807	0,0,0,1,2,3,0,0,0	to_hand	s616
64.729	0.527	0	PA_with_intermediate	0,0,0,1,0,0,2,3,0	test	ward_and_allport	0,0,0,1,0,0,2,3,0	82.0	0.0	0.527	0,0,0,1,2,3,0,0,0	to_board	s616
65.259	1.0	0	PA_with_intermediate	n/a	test	ward_and_allport	n/a	-1.0	0.0	n/a	n/a	feedback	s616
66.259	3.176	0	PA_with_intermediate	n/a	test	ward_and_allport	n/a	-1.0	0.0	n/a	n/a	ITI	s616
69.436	9.765	1	PA_with_intermediate	1,2,0,0,0,0,0,0,0	test	ward_and_allport	1,3,0,2,0,0,0,0,0	89.0	1.0	9.765	1,2,3,0,0,0,0,0,0	to_hand	s616
79.202	0.495	0	PA_with_intermediate	1,2,0,0,0,0,3,0,0	test	ward_and_allport	1,3,0,2,0,0,0,0,0	82.0	1.0	0.495	1,2,3,0,0,0,0,0,0	to_board	s616
79.699	1.741	0	PA_with_intermediate	1,0,0,0,0,0,3,0,0	test	ward_and_allport	1,3,0,2,0,0,0,0,0	89.0	1.0	1.741	1,2,3,0,0,0,0,0,0	to_hand	s616
81.44	0.44	0	PA_with_intermediate	1,0,0,2,0,0,3,0,0	test	ward_and_allport	1,3,0,2,0,0,0,0,0	71.0	1.0	0.44	1,2,3,0,0,0,0,0,0	to_board	s616
81.883	1.269	0	PA_with_intermediate	1,0,0,2,0,0,0,0,0	test	ward_and_allport	1,3,0,2,0,0,0,0,0	82.0	1.0	1.269	1,2,3,0,0,0,0,0,0	to_hand	s616
83.153	0.261	0	PA_with_intermediate	1,3,0,2,0,0,0,0,0	test	ward_and_allport	1,3,0,2,0,0,0,0,0	89.0	1.0	0.261	1,2,3,0,0,0,0,0,0	to_board	s616
83.419	1.0	0	PA_with_intermediate	n/a	test	ward_and_allport	n/a	-1.0	1.0	n/a	n/a	feedback	s616
84.419	2.36	0	PA_with_intermediate	n/a	test	ward_and_allport	n/a	-1.0	1.0	n/a	n/a	ITI	s616
86.78	18.646	1	PA_with_intermediate	1,2,0,0,0,0,0,0,0	test	ward_and_allport	1,0,0,0,0,0,2,3,0	89.0	2.0	18.646	1,2,3,0,0,0,0,0,0	to_hand	s616
105.427	0.316	0	PA_with_intermediate	1,2,0,3,0,0,0,0,0	test	ward_and_allport	1,0,0,0,0,0,2,3,0	71.0	2.0	0.316	1,2,3,0,0,0,0,0,0	to_board	s616
105.746	0.881	0	PA_with_intermediate	1,0,0,3,0,0,0,0,0	test	ward_and_allport	1,0,0,0,0,0,2,3,0	89.0	2.0	0.881	1,2,3,0,0,0,0,0,0	to_hand	s616
106.627	0.47	0	PA_with_intermediate	1,0,0,3,0,0,2,0,0	test	ward_and_allport	1,0,0,0,0,0,2,3,0	82.0	2.0	0.47	1,2,3,0,0,0,0,0,0	to_board	s616
107.099	2.104	0	PA_with_intermediate	1,0,0,0,0,0,2,0,0	test	ward_and_allport	1,0,0,0,0,0,2,3,0	71.0	2.0	2.104	1,2,3,0,0,0,0,0,0	to_hand	s616
109.204	0.307	0	PA_with_intermediate	1,0,0,0,0,0,2,3,0	test	ward_and_allport	1,0,0,0,0,0,2,3,0	82.0	2.0	0.307	1,2,3,0,0,0,0,0,0	to_board	s616
109.515	1.0	0	PA_with_intermediate	n/a	test	ward_and_allport	n/a	-1.0	2.0	n/a	n/a	feedback	s616
110.515	1.0	0	PA_with_intermediate	n/a	test	ward_and_allport	n/a	-1.0	2.0	n/a	n/a	ITI	s616
111.517	15.716	1	PA_without_intermediate	1,2,0,0,0,0,0,0,0	test	ward_and_allport	0,0,0,2,0,0,3,1,0	89.0	3.0	15.716	1,2,3,0,0,0,0,0,0	to_hand	s616
127.234	0.503	0	PA_without_intermediate	1,2,0,0,0,0,3,0,0	test	ward_and_allport	0,0,0,2,0,0,3,1,0	82.0	3.0	0.503	1,2,3,0,0,0,0,0,0	to_board	s616
127.74	0.539	0	PA_without_intermediate	1,0,0,0,0,0,3,0,0	test	ward_and_allport	0,0,0,2,0,0,3,1,0	89.0	3.0	0.539	1,2,3,0,0,0,0,0,0	to_hand	s616
128.279	0.455	0	PA_without_intermediate	1,0,0,2,0,0,3,0,0	test	ward_and_allport	0,0,0,2,0,0,3,1,0	71.0	3.0	0.455	1,2,3,0,0,0,0,0,0	to_board	s616
128.736	0.502	0	PA_without_intermediate	0,0,0,2,0,0,3,0,0	test	ward_and_allport	0,0,0,2,0,0,3,1,0	89.0	3.0	0.502	1,2,3,0,0,0,0,0,0	to_hand	s616
129.24	0.361	0	PA_without_intermediate	0,0,0,2,0,0,3,1,0	test	ward_and_allport	0,0,0,2,0,0,3,1,0	82.0	3.0	0.361	1,2,3,0,0,0,0,0,0	to_board	s616
129.606	1.0	0	PA_without_intermediate	n/a	test	ward_and_allport	n/a	-1.0	3.0	n/a	n/a	feedback	s616
130.606	1.408	0	PA_without_intermediate	n/a	test	ward_and_allport	n/a	-1.0	3.0	n/a	n/a	ITI	s616
132.017	6.577	1	PA_with_intermediate	0,0,0,1,2,0,0,0,0	test	ward_and_allport	2,0,0,1,3,0,0,0,0	71.0	4.0	6.577	0,0,0,1,2,3,0,0,0	to_hand	s616
138.594	0.264	0	PA_with_intermediate	0,0,0,1,2,0,3,0,0	test	ward_and_allport	2,0,0,1,3,0,0,0,0	82.0	4.0	0.264	0,0,0,1,2,3,0,0,0	to_board	s616
138.86	0.46	0	PA_with_intermediate	0,0,0,1,0,0,3,0,0	test	ward_and_allport	2,0,0,1,3,0,0,0,0	71.0	4.0	0.46	0,0,0,1,2,3,0,0,0	to_hand	s616
139.321	0.321	0	PA_with_intermediate	2,0,0,1,0,0,3,0,0	test	ward_and_allport	2,0,0,1,3,0,0,0,0	89.0	4.0	0.321	0,0,0,1,2,3,0,0,0	to_board	s616
139.644	0.734	0	PA_with_intermediate	2,0,0,1,0,0,0,0,0	test	ward_and_allport	2,0,0,1,3,0,0,0,0	82.0	4.0	0.734	0,0,0,1,2,3,0,0,0	to_hand	s616
140.379	0.315	0	PA_with_intermediate	2,0,0,1,3,0,0,0,0	test	ward_and_allport	2,0,0,1,3,0,0,0,0	71.0	4.0	0.315	0,0,0,1,2,3,0,0,0	to_board	s616
140.698	1.0	0	PA_with_intermediate	n/a	test	ward_and_allport	n/a	-1.0	4.0	n/a	n/a	feedback	s616
141.698	1.816	0	PA_with_intermediate	n/a	test	ward_and_allport	n/a	-1.0	4.0	n/a	n/a	ITI	s616
143.516	13.422	1	PA_without_intermediate	0,0,0,1,2,0,0,0,0	test	ward_and_allport	3,1,0,0,0,0,2,0,0	71.0	5.0	13.422	0,0,0,1,2,3,0,0,0	to_hand	s616
156.94	0.358	0	PA_without_intermediate	3,0,0,1,2,0,0,0,0	test	ward_and_allport	3,1,0,0,0,0,2,0,0	89.0	5.0	0.358	0,0,0,1,2,3,0,0,0	to_board	s616
157.301	0.365	0	PA_without_intermediate	3,0,0,1,0,0,0,0,0	test	ward_and_allport	3,1,0,0,0,0,2,0,0	71.0	5.0	0.365	0,0,0,1,2,3,0,0,0	to_hand	s616
157.667	0.362	0	PA_without_intermediate	3,0,0,1,0,0,2,0,0	test	ward_and_allport	3,1,0,0,0,0,2,0,0	82.0	5.0	0.362	0,0,0,1,2,3,0,0,0	to_board	s616
158.031	0.351	0	PA_without_intermediate	3,0,0,0,0,0,2,0,0	test	ward_and_allport	3,1,0,0,0,0,2,0,0	71.0	5.0	0.351	0,0,0,1,2,3,0,0,0	to_hand	s616
158.383	0.323	0	PA_without_intermediate	3,1,0,0,0,0,2,0,0	test	ward_and_allport	3,1,0,0,0,0,2,0,0	89.0	5.0	0.323	0,0,0,1,2,3,0,0,0	to_board	s616
158.709	1.0	0	PA_without_intermediate	n/a	test	ward_and_allport	n/a	-1.0	5.0	n/a	n/a	feedback	s616
159.709	2.088	0	PA_without_intermediate	n/a	test	ward_and_allport	n/a	-1.0	5.0	n/a	n/a	ITI	s616
161.8	16.486	1	PA_without_intermediate	0,0,0,0,0,0,1,2,0	test	ward_and_allport	3,1,0,2,0,0,0,0,0	82.0	6.0	16.486	0,0,0,0,0,0,1,2,3	to_hand	s616
178.287	0.349	0	PA_without_intermediate	3,0,0,0,0,0,1,2,0	test	ward_and_allport	3,1,0,2,0,0,0,0,0	89.0	6.0	0.349	0,0,0,0,0,0,1,2,3	to_board	s616
178.638	0.517	0	PA_without_intermediate	3,0,0,0,0,0,1,0,0	test	ward_and_allport	3,1,0,2,0,0,0,0,0	82.0	6.0	0.517	0,0,0,0,0,0,1,2,3	to_hand	s616
179.156	0.482	0	PA_without_intermediate	3,0,0,2,0,0,1,0,0	test	ward_and_allport	3,1,0,2,0,0,0,0,0	71.0	6.0	0.482	0,0,0,0,0,0,1,2,3	to_board	s616
179.64	1.081	0	PA_without_intermediate	3,0,0,2,0,0,0,0,0	test	ward_and_allport	3,1,0,2,0,0,0,0,0	82.0	6.0	1.081	0,0,0,0,0,0,1,2,3	to_hand	s616
180.722	0.407	0	PA_without_intermediate	3,1,0,2,0,0,0,0,0	test	ward_and_allport	3,1,0,2,0,0,0,0,0	89.0	6.0	0.407	0,0,0,0,0,0,1,2,3	to_board	s616
181.133	1.0	0	PA_without_intermediate	n/a	test	ward_and_allport	n/a	-1.0	6.0	n/a	n/a	feedback	s616
182.133	1.136	0	PA_without_intermediate	n/a	test	ward_and_allport	n/a	-1.0	6.0	n/a	n/a	ITI	s616
183.271	10.839	1	PA_without_intermediate	1,2,0,0,0,0,0,0,0	test	ward_and_allport	0,0,0,1,0,0,3,2,0	89.0	7.0	10.839	1,2,3,0,0,0,0,0,0	to_hand	s616
194.112	0.391	0	PA_without_intermediate	1,2,0,0,0,0,3,0,0	test	ward_and_allport	0,0,0,1,0,0,3,2,0	82.0	7.0	0.391	1,2,3,0,0,0,0,0,0	to_board	s616
194.505	1.263	0	PA_without_intermediate	1,0,0,0,0,0,3,0,0	test	ward_and_allport	0,0,0,1,0,0,3,2,0	89.0	7.0	1.263	1,2,3,0,0,0,0,0,0	to_hand	s616
195.769	0.364	0	PA_without_intermediate	1,0,0,0,0,0,3,2,0	test	ward_and_allport	0,0,0,1,0,0,3,2,0	82.0	7.0	0.364	1,2,3,0,0,0,0,0,0	to_board	s616
196.135	0.725	0	PA_without_intermediate	0,0,0,0,0,0,3,2,0	test	ward_and_allport	0,0,0,1,0,0,3,2,0	89.0	7.0	0.725	1,2,3,0,0,0,0,0,0	to_hand	s616
196.861	0.313	0	PA_without_intermediate	0,0,0,1,0,0,3,2,0	test	ward_and_allport	0,0,0,1,0,0,3,2,0	71.0	7.0	0.313	1,2,3,0,0,0,0,0,0	to_board	s616
197.179	1.0	0	PA_without_intermediate	n/a	test	ward_and_allport	n/a	-1.0	7.0	n/a	n/a	feedback	s616
198.179	6.168	0	PA_without_intermediate	n/a	test	ward_and_allport	n/a	-1.0	7.0	n/a	n/a	ITI	s616
204.35	8.358	1	PA_without_intermediate	1,2,0,0,0,0,0,0,0	test	ward_and_allport	0,0,0,3,1,0,2,0,0	89.0	8.0	8.358	1,2,3,0,0,0,0,0,0	to_hand	s616
212.708	0.334	0	PA_without_intermediate	1,2,0,3,0,0,0,0,0	test	ward_and_allport	0,0,0,3,1,0,2,0,0	71.0	8.0	0.334	1,2,3,0,0,0,0,0,0	to_board	s616
213.045	0.591	0	PA_without_intermediate	1,0,0,3,0,0,0,0,0	test	ward_and_allport	0,0,0,3,1,0,2,0,0	89.0	8.0	0.591	1,2,3,0,0,0,0,0,0	to_hand	s616
213.637	0.318	0	PA_without_intermediate	1,0,0,3,0,0,2,0,0	test	ward_and_allport	0,0,0,3,1,0,2,0,0	82.0	8.0	0.318	1,2,3,0,0,0,0,0,0	to_board	s616
213.958	0.581	0	PA_without_intermediate	0,0,0,3,0,0,2,0,0	test	ward_and_allport	0,0,0,3,1,0,2,0,0	89.0	8.0	0.581	1,2,3,0,0,0,0,0,0	to_hand	s616
214.539	0.293	0	PA_without_intermediate	0,0,0,3,1,0,2,0,0	test	ward_and_allport	0,0,0,3,1,0,2,0,0	71.0	8.0	0.293	1,2,3,0,0,0,0,0,0	to_board	s616
214.837	1.0	0	PA_without_intermediate	n/a	test	ward_and_allport	n/a	-1.0	8.0	n/a	n/a	feedback	s616
215.837	1.816	0	PA_without_intermediate	n/a	test	ward_and_allport	n/a	-1.0	8.0	n/a	n/a	ITI	s616
217.656	18.79	1	PA_with_intermediate	0,0,0,0,0,0,1,2,0	test	ward_and_allport	2,3,0,0,0,0,1,0,0	82.0	9.0	18.79	0,0,0,0,0,0,1,2,3	to_hand	s616
236.447	0.424	0	PA_with_intermediate	0,0,0,3,0,0,1,2,0	test	ward_and_allport	2,3,0,0,0,0,1,0,0	71.0	9.0	0.424	0,0,0,0,0,0,1,2,3	to_board	s616
236.873	0.383	0	PA_with_intermediate	0,0,0,3,0,0,1,0,0	test	ward_and_allport	2,3,0,0,0,0,1,0,0	82.0	9.0	0.383	0,0,0,0,0,0,1,2,3	to_hand	s616
237.257	0.43	0	PA_with_intermediate	2,0,0,3,0,0,1,0,0	test	ward_and_allport	2,3,0,0,0,0,1,0,0	89.0	9.0	0.43	0,0,0,0,0,0,1,2,3	to_board	s616
237.69	0.782	0	PA_with_intermediate	2,0,0,0,0,0,1,0,0	test	ward_and_allport	2,3,0,0,0,0,1,0,0	71.0	9.0	0.782	0,0,0,0,0,0,1,2,3	to_hand	s616
238.473	0.349	0	PA_with_intermediate	2,3,0,0,0,0,1,0,0	test	ward_and_allport	2,3,0,0,0,0,1,0,0	89.0	9.0	0.349	0,0,0,0,0,0,1,2,3	to_board	s616
238.829	1.0	0	PA_with_intermediate	n/a	test	ward_and_allport	n/a	-1.0	9.0	n/a	n/a	feedback	s616
239.829	1.952	0	PA_with_intermediate	n/a	test	ward_and_allport	n/a	-1.0	9.0	n/a	n/a	ITI	s616
241.784	19.342	1	PA_with_intermediate	0,0,0,0,0,0,1,2,0	test	ward_and_allport	2,0,0,0,0,0,1,3,0	82.0	10.0	19.342	0,0,0,0,0,0,1,2,3	to_hand	s616
261.127	0.31	0	PA_with_intermediate	0,0,0,3,0,0,1,2,0	test	ward_and_allport	2,0,0,0,0,0,1,3,0	71.0	10.0	0.31	0,0,0,0,0,0,1,2,3	to_board	s616
261.442	0.5	0	PA_with_intermediate	0,0,0,3,0,0,1,0,0	test	ward_and_allport	2,0,0,0,0,0,1,3,0	82.0	10.0	0.5	0,0,0,0,0,0,1,2,3	to_hand	s616
261.943	0.323	0	PA_with_intermediate	2,0,0,3,0,0,1,0,0	test	ward_and_allport	2,0,0,0,0,0,1,3,0	89.0	10.0	0.323	0,0,0,0,0,0,1,2,3	to_board	s616
262.269	0.57	0	PA_with_intermediate	2,0,0,0,0,0,1,0,0	test	ward_and_allport	2,0,0,0,0,0,1,3,0	71.0	10.0	0.57	0,0,0,0,0,0,1,2,3	to_hand	s616
262.84	0.361	0	PA_with_intermediate	2,0,0,0,0,0,1,3,0	test	ward_and_allport	2,0,0,0,0,0,1,3,0	82.0	10.0	0.361	0,0,0,0,0,0,1,2,3	to_board	s616
263.207	1.0	0	PA_with_intermediate	n/a	test	ward_and_allport	n/a	-1.0	10.0	n/a	n/a	feedback	s616
264.207	1.136	0	PA_with_intermediate	n/a	test	ward_and_allport	n/a	-1.0	10.0	n/a	n/a	ITI	s616
265.347	8.605	1	PA_without_intermediate	0,0,0,1,2,0,0,0,0	test	ward_and_allport	3,1,0,0,0,0,2,0,0	71.0	11.0	8.605	0,0,0,1,2,3,0,0,0	to_hand	s616
273.954	0.332	0	PA_without_intermediate	3,0,0,1,2,0,0,0,0	test	ward_and_allport	3,1,0,0,0,0,2,0,0	89.0	11.0	0.332	0,0,0,1,2,3,0,0,0	to_board	s616
274.29	0.524	0	PA_without_intermediate	3,0,0,1,0,0,0,0,0	test	ward_and_allport	3,1,0,0,0,0,2,0,0	71.0	11.0	0.524	0,0,0,1,2,3,0,0,0	to_hand	s616
274.816	0.315	0	PA_without_intermediate	3,0,0,1,0,0,2,0,0	test	ward_and_allport	3,1,0,0,0,0,2,0,0	82.0	11.0	0.315	0,0,0,1,2,3,0,0,0	to_board	s616
275.134	0.351	0	PA_without_intermediate	3,0,0,0,0,0,2,0,0	test	ward_and_allport	3,1,0,0,0,0,2,0,0	71.0	11.0	0.351	0,0,0,1,2,3,0,0,0	to_hand	s616
275.486	0.272	0	PA_without_intermediate	3,1,0,0,0,0,2,0,0	test	ward_and_allport	3,1,0,0,0,0,2,0,0	89.0	11.0	0.272	0,0,0,1,2,3,0,0,0	to_board	s616
275.763	1.0	0	PA_without_intermediate	n/a	test	ward_and_allport	n/a	-1.0	11.0	n/a	n/a	feedback	s616
276.763	1.68	0	PA_without_intermediate	n/a	test	ward_and_allport	n/a	-1.0	11.0	n/a	n/a	ITI	s616
278.446	16.36	1	PA_without_intermediate	0,0,0,0,0,0,1,2,0	test	ward_and_allport	2,0,0,3,1,0,0,0,0	82.0	12.0	16.36	0,0,0,0,0,0,1,2,3	to_hand	s616
294.807	0.346	0	PA_without_intermediate	0,0,0,3,0,0,1,2,0	test	ward_and_allport	2,0,0,3,1,0,0,0,0	71.0	12.0	0.346	0,0,0,0,0,0,1,2,3	to_board	s616
295.156	0.388	0	PA_without_intermediate	0,0,0,3,0,0,1,0,0	test	ward_and_allport	2,0,0,3,1,0,0,0,0	82.0	12.0	0.388	0,0,0,0,0,0,1,2,3	to_hand	s616
295.545	0.376	0	PA_without_intermediate	2,0,0,3,0,0,1,0,0	test	ward_and_allport	2,0,0,3,1,0,0,0,0	89.0	12.0	0.376	0,0,0,0,0,0,1,2,3	to_board	s616
295.925	0.397	0	PA_without_intermediate	2,0,0,3,0,0,0,0,0	test	ward_and_allport	2,0,0,3,1,0,0,0,0	82.0	12.0	0.397	0,0,0,0,0,0,1,2,3	to_hand	s616
296.323	0.352	0	PA_without_intermediate	2,0,0,3,1,0,0,0,0	test	ward_and_allport	2,0,0,3,1,0,0,0,0	71.0	12.0	0.352	0,0,0,0,0,0,1,2,3	to_board	s616
296.683	1.0	0	PA_without_intermediate	n/a	test	ward_and_allport	n/a	-1.0	12.0	n/a	n/a	feedback	s616
297.683	2.088	0	PA_without_intermediate	n/a	test	ward_and_allport	n/a	-1.0	12.0	n/a	n/a	ITI	s616
299.774	11.462	1	PA_with_intermediate	0,0,0,0,0,0,1,2,0	test	ward_and_allport	2,0,0,0,0,0,1,3,0	82.0	13.0	11.462	0,0,0,0,0,0,1,2,3	to_hand	s616
311.237	0.436	0	PA_with_intermediate	0,0,0,3,0,0,1,2,0	test	ward_and_allport	2,0,0,0,0,0,1,3,0	71.0	13.0	0.436	0,0,0,0,0,0,1,2,3	to_board	s616
311.677	0.543	0	PA_with_intermediate	0,0,0,3,0,0,1,0,0	test	ward_and_allport	2,0,0,0,0,0,1,3,0	82.0	13.0	0.543	0,0,0,0,0,0,1,2,3	to_hand	s616
312.221	0.312	0	PA_with_intermediate	2,0,0,3,0,0,1,0,0	test	ward_and_allport	2,0,0,0,0,0,1,3,0	89.0	13.0	0.312	0,0,0,0,0,0,1,2,3	to_board	s616
312.537	0.43	0	PA_with_intermediate	2,0,0,0,0,0,1,0,0	test	ward_and_allport	2,0,0,0,0,0,1,3,0	71.0	13.0	0.43	0,0,0,0,0,0,1,2,3	to_hand	s616
312.968	0.325	0	PA_with_intermediate	2,0,0,0,0,0,1,3,0	test	ward_and_allport	2,0,0,0,0,0,1,3,0	82.0	13.0	0.325	0,0,0,0,0,0,1,2,3	to_board	s616
313.301	1.0	0	PA_with_intermediate	n/a	test	ward_and_allport	n/a	-1.0	13.0	n/a	n/a	feedback	s616
314.301	1.0	0	PA_with_intermediate	n/a	test	ward_and_allport	n/a	-1.0	13.0	n/a	n/a	ITI	s616
315.304	8.952	1	PA_without_intermediate	0,0,0,1,2,0,0,0,0	test	ward_and_allport	2,0,0,0,0,0,3,1,0	71.0	14.0	8.952	0,0,0,1,2,3,0,0,0	to_hand	s616
324.257	0.41	0	PA_without_intermediate	0,0,0,1,2,0,3,0,0	test	ward_and_allport	2,0,0,0,0,0,3,1,0	82.0	14.0	0.41	0,0,0,1,2,3,0,0,0	to_board	s616
324.671	0.309	0	PA_without_intermediate	0,0,0,1,0,0,3,0,0	test	ward_and_allport	2,0,0,0,0,0,3,1,0	71.0	14.0	0.309	0,0,0,1,2,3,0,0,0	to_hand	s616
324.98	0.319	0	PA_without_intermediate	2,0,0,1,0,0,3,0,0	test	ward_and_allport	2,0,0,0,0,0,3,1,0	89.0	14.0	0.319	0,0,0,1,2,3,0,0,0	to_board	s616
325.302	0.322	0	PA_without_intermediate	2,0,0,0,0,0,3,0,0	test	ward_and_allport	2,0,0,0,0,0,3,1,0	71.0	14.0	0.322	0,0,0,1,2,3,0,0,0	to_hand	s616
325.625	0.285	0	PA_without_intermediate	2,0,0,0,0,0,3,1,0	test	ward_and_allport	2,0,0,0,0,0,3,1,0	82.0	14.0	0.285	0,0,0,1,2,3,0,0,0	to_board	s616
325.915	1.0	0	PA_without_intermediate	n/a	test	ward_and_allport	n/a	-1.0	14.0	n/a	n/a	feedback	s616
326.915	1.0	0	PA_without_intermediate	n/a	test	ward_and_allport	n/a	-1.0	14.0	n/a	n/a	ITI	s616
332.921	19.88	1	PA_without_intermediate	0,0,0,0,0,0,1,2,0	test	ward_and_allport	1,0,0,3,2,0,0,0,0	82.0	15.0	19.88	0,0,0,0,0,0,1,2,3	to_hand	s616
352.802	0.342	0	PA_without_intermediate	0,0,0,3,0,0,1,2,0	test	ward_and_allport	1,0,0,3,2,0,0,0,0	71.0	15.0	0.342	0,0,0,0,0,0,1,2,3	to_board	s616
353.147	0.298	0	PA_without_intermediate	0,0,0,3,0,0,1,0,0	test	ward_and_allport	1,0,0,3,2,0,0,0,0	82.0	15.0	0.298	0,0,0,0,0,0,1,2,3	to_hand	s616
353.446	0.952	0	PA_without_intermediate	0,0,0,3,2,0,1,0,0	test	ward_and_allport	1,0,0,3,2,0,0,0,0	71.0	15.0	0.952	0,0,0,0,0,0,1,2,3	to_board	s616
354.402	0.465	0	PA_without_intermediate	0,0,0,3,2,0,0,0,0	test	ward_and_allport	1,0,0,3,2,0,0,0,0	82.0	15.0	0.465	0,0,0,0,0,0,1,2,3	to_hand	s616
354.869	0.267	0	PA_without_intermediate	1,0,0,3,2,0,0,0,0	test	ward_and_allport	1,0,0,3,2,0,0,0,0	89.0	15.0	0.267	0,0,0,0,0,0,1,2,3	to_board	s616
355.141	1.0	0	PA_without_intermediate	n/a	test	ward_and_allport	n/a	-1.0	15.0	n/a	n/a	feedback	s616
356.141	1.0	0	PA_without_intermediate	n/a	test	ward_and_allport	n/a	-1.0	15.0	n/a	n/a	ITI	s616
357.145	6.969	1	PA_with_intermediate	1,2,0,0,0,0,0,0,0	test	ward_and_allport	1,3,0,0,0,0,2,0,0	89.0	16.0	6.969	1,2,3,0,0,0,0,0,0	to_hand	s616
364.115	0.3	0	PA_with_intermediate	1,2,0,3,0,0,0,0,0	test	ward_and_allport	1,3,0,0,0,0,2,0,0	71.0	16.0	0.3	1,2,3,0,0,0,0,0,0	to_board	s616
364.418	0.308	0	PA_with_intermediate	1,0,0,3,0,0,0,0,0	test	ward_and_allport	1,3,0,0,0,0,2,0,0	89.0	16.0	0.308	1,2,3,0,0,0,0,0,0	to_hand	s616
364.728	0.413	0	PA_with_intermediate	1,0,0,3,0,0,2,0,0	test	ward_and_allport	1,3,0,0,0,0,2,0,0	82.0	16.0	0.413	1,2,3,0,0,0,0,0,0	to_board	s616
365.144	2.56	0	PA_with_intermediate	1,0,0,0,0,0,2,0,0	test	ward_and_allport	1,3,0,0,0,0,2,0,0	71.0	16.0	2.56	1,2,3,0,0,0,0,0,0	to_hand	s616
367.705	0.219	0	PA_with_intermediate	1,3,0,0,0,0,2,0,0	test	ward_and_allport	1,3,0,0,0,0,2,0,0	89.0	16.0	0.219	1,2,3,0,0,0,0,0,0	to_board	s616
367.931	1.0	0	PA_with_intermediate	n/a	test	ward_and_allport	n/a	-1.0	16.0	n/a	n/a	feedback	s616
368.931	1.544	0	PA_with_intermediate	n/a	test	ward_and_allport	n/a	-1.0	16.0	n/a	n/a	ITI	s616
370.478	15.888	1	PA_without_intermediate	0,0,0,0,0,0,1,2,0	test	ward_and_allport	2,0,0,3,1,0,0,0,0	82.0	17.0	15.888	0,0,0,0,0,0,1,2,3	to_hand	s616
386.367	0.277	0	PA_without_intermediate	0,0,0,3,0,0,1,2,0	test	ward_and_allport	2,0,0,3,1,0,0,0,0	71.0	17.0	0.277	0,0,0,0,0,0,1,2,3	to_board	s616
386.648	0.398	0	PA_without_intermediate	0,0,0,3,0,0,1,0,0	test	ward_and_allport	2,0,0,3,1,0,0,0,0	82.0	17.0	0.398	0,0,0,0,0,0,1,2,3	to_hand	s616
387.048	0.33	0	PA_without_intermediate	2,0,0,3,0,0,1,0,0	test	ward_and_allport	2,0,0,3,1,0,0,0,0	89.0	17.0	0.33	0,0,0,0,0,0,1,2,3	to_board	s616
387.382	0.402	0	PA_without_intermediate	2,0,0,3,0,0,0,0,0	test	ward_and_allport	2,0,0,3,1,0,0,0,0	82.0	17.0	0.402	0,0,0,0,0,0,1,2,3	to_hand	s616
387.785	0.273	0	PA_without_intermediate	2,0,0,3,1,0,0,0,0	test	ward_and_allport	2,0,0,3,1,0,0,0,0	71.0	17.0	0.273	0,0,0,0,0,0,1,2,3	to_board	s616
388.064	1.0	0	PA_without_intermediate	n/a	test	ward_and_allport	n/a	-1.0	17.0	n/a	n/a	feedback	s616
389.064	1.272	0	PA_without_intermediate	n/a	test	ward_and_allport	n/a	-1.0	17.0	n/a	n/a	ITI	s616
390.339	9.638	1	PA_with_intermediate	0,0,0,0,0,0,1,2,0	test	ward_and_allport	0,0,0,2,0,0,1,3,0	82.0	18.0	9.638	0,0,0,0,0,0,1,2,3	to_hand	s616
399.978	0.317	0	PA_with_intermediate	3,0,0,0,0,0,1,2,0	test	ward_and_allport	0,0,0,2,0,0,1,3,0	89.0	18.0	0.317	0,0,0,0,0,0,1,2,3	to_board	s616
400.299	0.38	0	PA_with_intermediate	3,0,0,0,0,0,1,0,0	test	ward_and_allport	0,0,0,2,0,0,1,3,0	82.0	18.0	0.38	0,0,0,0,0,0,1,2,3	to_hand	s616
400.68	0.298	0	PA_with_intermediate	3,0,0,2,0,0,1,0,0	test	ward_and_allport	0,0,0,2,0,0,1,3,0	71.0	18.0	0.298	0,0,0,0,0,0,1,2,3	to_board	s616
400.982	0.332	0	PA_with_intermediate	0,0,0,2,0,0,1,0,0	test	ward_and_allport	0,0,0,2,0,0,1,3,0	89.0	18.0	0.332	0,0,0,0,0,0,1,2,3	to_hand	s616
401.315	0.32	0	PA_with_intermediate	0,0,0,2,0,0,1,3,0	test	ward_and_allport	0,0,0,2,0,0,1,3,0	82.0	18.0	0.32	0,0,0,0,0,0,1,2,3	to_board	s616
401.64	1.0	0	PA_with_intermediate	n/a	test	ward_and_allport	n/a	-1.0	18.0	n/a	n/a	feedback	s616
402.64	3.04	0	PA_with_intermediate	n/a	test	ward_and_allport	n/a	-1.0	18.0	n/a	n/a	ITI	s616
405.685	13.774	1	PA_with_intermediate	1,2,0,0,0,0,0,0,0	test	ward_and_allport	1,3,0,0,0,0,2,0,0	89.0	19.0	13.774	1,2,3,0,0,0,0,0,0	to_hand	s616
419.459	0.233	0	PA_with_intermediate	1,2,0,3,0,0,0,0,0	test	ward_and_allport	1,3,0,0,0,0,2,0,0	71.0	19.0	0.233	1,2,3,0,0,0,0,0,0	to_board	s616
419.696	0.291	0	PA_with_intermediate	1,0,0,3,0,0,0,0,0	test	ward_and_allport	1,3,0,0,0,0,2,0,0	89.0	19.0	0.291	1,2,3,0,0,0,0,0,0	to_hand	s616
419.988	0.407	0	PA_with_intermediate	1,0,0,3,0,0,2,0,0	test	ward_and_allport	1,3,0,0,0,0,2,0,0	82.0	19.0	0.407	1,2,3,0,0,0,0,0,0	to_board	s616
420.4	0.459	0	PA_with_intermediate	1,0,0,0,0,0,2,0,0	test	ward_and_allport	1,3,0,0,0,0,2,0,0	71.0	19.0	0.459	1,2,3,0,0,0,0,0,0	to_hand	s616
420.859	0.277	0	PA_with_intermediate	1,3,0,0,0,0,2,0,0	test	ward_and_allport	1,3,0,0,0,0,2,0,0	89.0	19.0	0.277	1,2,3,0,0,0,0,0,0	to_board	s616
421.142	1.0	0	PA_with_intermediate	n/a	test	ward_and_allport	n/a	-1.0	19.0	n/a	n/a	feedback	s616
422.142	1.272	0	PA_with_intermediate	n/a	test	ward_and_allport	n/a	-1.0	19.0	n/a	n/a	ITI	s616
423.417	13.757	1	PA_with_intermediate	0,0,0,0,0,0,1,2,0	test	ward_and_allport	0,0,0,2,0,0,1,3,0	82.0	20.0	13.757	0,0,0,0,0,0,1,2,3	to_hand	s616
437.176	0.233	0	PA_with_intermediate	3,0,0,0,0,0,1,2,0	test	ward_and_allport	0,0,0,2,0,0,1,3,0	89.0	20.0	0.233	0,0,0,0,0,0,1,2,3	to_board	s616
437.412	0.316	0	PA_with_intermediate	3,0,0,0,0,0,1,0,0	test	ward_and_allport	0,0,0,2,0,0,1,3,0	82.0	20.0	0.316	0,0,0,0,0,0,1,2,3	to_hand	s616
437.73	0.229	0	PA_with_intermediate	3,0,0,2,0,0,1,0,0	test	ward_and_allport	0,0,0,2,0,0,1,3,0	71.0	20.0	0.229	0,0,0,0,0,0,1,2,3	to_board	s616
437.962	0.517	0	PA_with_intermediate	0,0,0,2,0,0,1,0,0	test	ward_and_allport	0,0,0,2,0,0,1,3,0	89.0	20.0	0.517	0,0,0,0,0,0,1,2,3	to_hand	s616
438.48	0.364	0	PA_with_intermediate	0,0,0,2,0,0,1,3,0	test	ward_and_allport	0,0,0,2,0,0,1,3,0	82.0	20.0	0.364	0,0,0,0,0,0,1,2,3	to_board	s616
438.853	1.0	0	PA_with_intermediate	n/a	test	ward_and_allport	n/a	-1.0	20.0	n/a	n/a	feedback	s616
439.853	1.136	0	PA_with_intermediate	n/a	test	ward_and_allport	n/a	-1.0	20.0	n/a	n/a	ITI	s616
440.993	9.362	1	PA_with_intermediate	0,0,0,1,2,0,0,0,0	test	ward_and_allport	0,0,0,1,3,0,2,0,0	71.0	21.0	9.362	0,0,0,1,2,3,0,0,0	to_hand	s616
450.356	0.146	0	PA_with_intermediate	3,0,0,1,2,0,0,0,0	test	ward_and_allport	0,0,0,1,3,0,2,0,0	89.0	21.0	0.146	0,0,0,1,2,3,0,0,0	to_board	s616
450.506	0.52	0	PA_with_intermediate	3,0,0,1,0,0,0,0,0	test	ward_and_allport	0,0,0,1,3,0,2,0,0	71.0	21.0	0.52	0,0,0,1,2,3,0,0,0	to_hand	s616
451.027	0.206	0	PA_with_intermediate	3,0,0,1,0,0,2,0,0	test	ward_and_allport	0,0,0,1,3,0,2,0,0	82.0	21.0	0.206	0,0,0,1,2,3,0,0,0	to_board	s616
451.237	0.735	0	PA_with_intermediate	0,0,0,1,0,0,2,0,0	test	ward_and_allport	0,0,0,1,3,0,2,0,0	89.0	21.0	0.735	0,0,0,1,2,3,0,0,0	to_hand	s616
451.973	0.771	0	PA_with_intermediate	0,0,0,1,3,0,2,0,0	test	ward_and_allport	0,0,0,1,3,0,2,0,0	71.0	21.0	0.771	0,0,0,1,2,3,0,0,0	to_board	s616
452.752	1.0	0	PA_with_intermediate	n/a	test	ward_and_allport	n/a	-1.0	21.0	n/a	n/a	feedback	s616
453.752	1.0	0	PA_with_intermediate	n/a	test	ward_and_allport	n/a	-1.0	21.0	n/a	n/a	ITI	s616
454.756	16.386	1	PA_with_intermediate	0,0,0,0,0,0,1,2,0	test	ward_and_allport	0,0,0,2,3,0,1,0,0	82.0	22.0	16.386	0,0,0,0,0,0,1,2,3	to_hand	s616
471.143	0.189	0	PA_with_intermediate	3,0,0,0,0,0,1,2,0	test	ward_and_allport	0,0,0,2,3,0,1,0,0	89.0	22.0	0.189	0,0,0,0,0,0,1,2,3	to_board	s616
471.337	0.424	0	PA_with_intermediate	3,0,0,0,0,0,1,0,0	test	ward_and_allport	0,0,0,2,3,0,1,0,0	82.0	22.0	0.424	0,0,0,0,0,0,1,2,3	to_hand	s616
471.762	0.155	0	PA_with_intermediate	3,0,0,2,0,0,1,0,0	test	ward_and_allport	0,0,0,2,3,0,1,0,0	71.0	22.0	0.155	0,0,0,0,0,0,1,2,3	to_board	s616
471.922	0.503	0	PA_with_intermediate	0,0,0,2,0,0,1,0,0	test	ward_and_allport	0,0,0,2,3,0,1,0,0	89.0	22.0	0.503	0,0,0,0,0,0,1,2,3	to_hand	s616
472.426	0.168	0	PA_with_intermediate	0,0,0,2,3,0,1,0,0	test	ward_and_allport	0,0,0,2,3,0,1,0,0	71.0	22.0	0.168	0,0,0,0,0,0,1,2,3	to_board	s616
472.603	1.0	0	PA_with_intermediate	n/a	test	ward_and_allport	n/a	-1.0	22.0	n/a	n/a	feedback	s616
473.603	1.0	0	PA_with_intermediate	n/a	test	ward_and_allport	n/a	-1.0	22.0	n/a	n/a	ITI	s616
474.607	16.876	1	PA_without_intermediate	1,2,0,0,0,0,0,0,0	test	ward_and_allport	0,0,0,3,2,0,1,0,0	89.0	23.0	16.876	1,2,3,0,0,0,0,0,0	to_hand	s616
491.483	0.172	0	PA_without_intermediate	1,2,0,3,0,0,0,0,0	test	ward_and_allport	0,0,0,3,2,0,1,0,0	71.0	23.0	0.172	1,2,3,0,0,0,0,0,0	to_board	s616
491.66	0.406	0	PA_without_intermediate	1,0,0,3,0,0,0,0,0	test	ward_and_allport	0,0,0,3,2,0,1,0,0	89.0	23.0	0.406	1,2,3,0,0,0,0,0,0	to_hand	s616
492.067	0.235	0	PA_without_intermediate	1,0,0,3,2,0,0,0,0	test	ward_and_allport	0,0,0,3,2,0,1,0,0	71.0	23.0	0.235	1,2,3,0,0,0,0,0,0	to_board	s616
492.307	0.47	0	PA_without_intermediate	0,0,0,3,2,0,0,0,0	test	ward_and_allport	0,0,0,3,2,0,1,0,0	89.0	23.0	0.47	1,2,3,0,0,0,0,0,0	to_hand	s616
492.778	0.165	0	PA_without_intermediate	0,0,0,3,2,0,1,0,0	test	ward_and_allport	0,0,0,3,2,0,1,0,0	82.0	23.0	0.165	1,2,3,0,0,0,0,0,0	to_board	s616
492.95	1.0	0	PA_without_intermediate	n/a	test	ward_and_allport	n/a	-1.0	23.0	n/a	n/a	feedback	s616
493.95	1.408	0	PA_without_intermediate	n/a	test	ward_and_allport	n/a	-1.0	23.0	n/a	n/a	ITI	s616
495.364	8.107	1	PA_with_intermediate	0,0,0,1,2,0,0,0,0	test	ward_and_allport	0,0,0,1,0,0,2,3,0	71.0	24.0	8.107	0,0,0,1,2,3,0,0,0	to_hand	s616
503.471	0.14	0	PA_with_intermediate	3,0,0,1,2,0,0,0,0	test	ward_and_allport	0,0,0,1,0,0,2,3,0	89.0	24.0	0.14	0,0,0,1,2,3,0,0,0	to_board	s616
503.616	0.487	0	PA_with_intermediate	3,0,0,1,0,0,0,0,0	test	ward_and_allport	0,0,0,1,0,0,2,3,0	71.0	24.0	0.487	0,0,0,1,2,3,0,0,0	to_hand	s616
504.104	0.223	0	PA_with_intermediate	3,0,0,1,0,0,2,0,0	test	ward_and_allport	0,0,0,1,0,0,2,3,0	82.0	24.0	0.223	0,0,0,1,2,3,0,0,0	to_board	s616
504.332	0.465	0	PA_with_intermediate	0,0,0,1,0,0,2,0,0	test	ward_and_allport	0,0,0,1,0,0,2,3,0	89.0	24.0	0.465	0,0,0,1,2,3,0,0,0	to_hand	s616
504.798	0.178	0	PA_with_intermediate	0,0,0,1,0,0,2,3,0	test	ward_and_allport	0,0,0,1,0,0,2,3,0	82.0	24.0	0.178	0,0,0,1,2,3,0,0,0	to_board	s616
504.984	1.0	0	PA_with_intermediate	n/a	test	ward_and_allport	n/a	-1.0	24.0	n/a	n/a	feedback	s616
505.984	2.768	0	PA_with_intermediate	n/a	test	ward_and_allport	n/a	-1.0	24.0	n/a	n/a	ITI	s616
508.757	10.574	1	PA_with_intermediate	0,0,0,0,0,0,1,2,0	test	ward_and_allport	0,0,0,2,3,0,1,0,0	82.0	25.0	10.574	0,0,0,0,0,0,1,2,3	to_hand	s616
519.333	0.215	0	PA_with_intermediate	3,0,0,0,0,0,1,2,0	test	ward_and_allport	0,0,0,2,3,0,1,0,0	89.0	25.0	0.215	0,0,0,0,0,0,1,2,3	to_board	s616
519.553	1.02	0	PA_with_intermediate	3,0,0,0,0,0,1,0,0	test	ward_and_allport	0,0,0,2,3,0,1,0,0	82.0	25.0	1.02	0,0,0,0,0,0,1,2,3	to_hand	s616
520.574	0.071	0	PA_with_intermediate	3,0,0,2,0,0,1,0,0	test	ward_and_allport	0,0,0,2,3,0,1,0,0	71.0	25.0	0.071	0,0,0,0,0,0,1,2,3	to_board	s616
520.652	0.889	0	PA_with_intermediate	0,0,0,2,0,0,1,0,0	test	ward_and_allport	0,0,0,2,3,0,1,0,0	89.0	25.0	0.889	0,0,0,0,0,0,1,2,3	to_hand	s616
521.541	0.12	0	PA_with_intermediate	0,0,0,2,3,0,1,0,0	test	ward_and_allport	0,0,0,2,3,0,1,0,0	71.0	25.0	0.12	0,0,0,0,0,0,1,2,3	to_board	s616
521.672	1.0	0	PA_with_intermediate	n/a	test	ward_and_allport	n/a	-1.0	25.0	n/a	n/a	feedback	s616
522.672	1.68	0	PA_with_intermediate	n/a	test	ward_and_allport	n/a	-1.0	25.0	n/a	n/a	ITI	s616
524.357	21.444	1	PA_without_intermediate	0,0,0,0,0,0,1,2,0	test	ward_and_allport	3,1,0,2,0,0,0,0,0	82.0	26.0	21.444	0,0,0,0,0,0,1,2,3	to_hand	s616
545.802	0.18	0	PA_without_intermediate	3,0,0,0,0,0,1,2,0	test	ward_and_allport	3,1,0,2,0,0,0,0,0	89.0	26.0	0.18	0,0,0,0,0,0,1,2,3	to_board	s616
545.987	0.48	0	PA_without_intermediate	3,0,0,0,0,0,1,0,0	test	ward_and_allport	3,1,0,2,0,0,0,0,0	82.0	26.0	0.48	0,0,0,0,0,0,1,2,3	to_hand	s616
546.469	0.242	0	PA_without_intermediate	3,0,0,2,0,0,1,0,0	test	ward_and_allport	3,1,0,2,0,0,0,0,0	71.0	26.0	0.242	0,0,0,0,0,0,1,2,3	to_board	s616
546.716	0.665	0	PA_without_intermediate	3,0,0,2,0,0,0,0,0	test	ward_and_allport	3,1,0,2,0,0,0,0,0	82.0	26.0	0.665	0,0,0,0,0,0,1,2,3	to_hand	s616
547.382	0.165	0	PA_without_intermediate	3,1,0,2,0,0,0,0,0	test	ward_and_allport	3,1,0,2,0,0,0,0,0	89.0	26.0	0.165	0,0,0,0,0,0,1,2,3	to_board	s616
547.554	1.0	0	PA_without_intermediate	n/a	test	ward_and_allport	n/a	-1.0	26.0	n/a	n/a	feedback	s616
548.554	2.224	0	PA_without_intermediate	n/a	test	ward_and_allport	n/a	-1.0	26.0	n/a	n/a	ITI	s616
550.784	16.547	1	PA_without_intermediate	0,0,0,1,2,0,0,0,0	test	ward_and_allport	1,0,0,0,0,0,3,2,0	71.0	27.0	16.547	0,0,0,1,2,3,0,0,0	to_hand	s616
567.332	0.212	0	PA_without_intermediate	0,0,0,1,2,0,3,0,0	test	ward_and_allport	1,0,0,0,0,0,3,2,0	82.0	27.0	0.212	0,0,0,1,2,3,0,0,0	to_board	s616
567.55	0.415	0	PA_without_intermediate	0,0,0,1,0,0,3,0,0	test	ward_and_allport	1,0,0,0,0,0,3,2,0	71.0	27.0	0.415	0,0,0,1,2,3,0,0,0	to_hand	s616
567.966	0.194	0	PA_without_intermediate	0,0,0,1,0,0,3,2,0	test	ward_and_allport	1,0,0,0,0,0,3,2,0	82.0	27.0	0.194	0,0,0,1,2,3,0,0,0	to_board	s616
568.166	0.761	0	PA_without_intermediate	0,0,0,0,0,0,3,2,0	test	ward_and_allport	1,0,0,0,0,0,3,2,0	71.0	27.0	0.761	0,0,0,1,2,3,0,0,0	to_hand	s616
568.928	0.376	0	PA_without_intermediate	1,0,0,0,0,0,3,2,0	test	ward_and_allport	1,0,0,0,0,0,3,2,0	89.0	27.0	0.376	0,0,0,1,2,3,0,0,0	to_board	s616
569.311	1.0	0	PA_without_intermediate	n/a	test	ward_and_allport	n/a	-1.0	27.0	n/a	n/a	feedback	s616
570.311	2.36	0	PA_without_intermediate	n/a	test	ward_and_allport	n/a	-1.0	27.0	n/a	n/a	ITI	s616
n/a	n/a	0	n/a	n/a	n/a	n/a	n/a	n/a	n/a	n/a	n/a	ITI	n/a
