onset	duration	planning	condition	current_position	exp_stage	experiment_exp_id	goal_state	key_press	problem_id	response_time	start_state	trial_id	worker_id
-54.133	0.0	0	n/a	n/a	n/a	ward_and_allport	n/a	32.0	n/a	6.607	n/a	instructions	s130
3.007	4.689	1	UA_with_intermediate	1,0,0,2,0,0,0,0,0	practice	ward_and_allport	1,2,3,0,0,0,0,0,0	71.0	0.0	4.689	1,0,0,2,3,0,0,0,0	to_hand	s130
7.697	4.064	0	UA_with_intermediate	1,0,0,2,0,0,3,0,0	practice	ward_and_allport	1,2,3,0,0,0,0,0,0	82.0	0.0	4.064	1,0,0,2,3,0,0,0,0	to_board	s130
11.764	1.518	0	UA_with_intermediate	1,0,0,0,0,0,3,0,0	practice	ward_and_allport	1,2,3,0,0,0,0,0,0	71.0	0.0	1.518	1,0,0,2,3,0,0,0,0	to_hand	s130
13.282	1.29	0	UA_with_intermediate	1,2,0,0,0,0,3,0,0	practice	ward_and_allport	1,2,3,0,0,0,0,0,0	89.0	0.0	1.29	1,0,0,2,3,0,0,0,0	to_board	s130
14.573	1.43	0	UA_with_intermediate	1,2,0,0,0,0,0,0,0	practice	ward_and_allport	1,2,3,0,0,0,0,0,0	82.0	0.0	1.43	1,0,0,2,3,0,0,0,0	to_hand	s130
16.005	1.125	0	UA_with_intermediate	1,2,3,0,0,0,0,0,0	practice	ward_and_allport	1,2,3,0,0,0,0,0,0	89.0	0.0	1.125	1,0,0,2,3,0,0,0,0	to_board	s130
17.133	1.0	0	UA_with_intermediate	n/a	practice	ward_and_allport	n/a	-1.0	0.0	n/a	n/a	feedback	s130
19.635	5.824	1	UA_with_intermediate	1,0,0,3,0,0,0,0,0	practice	ward_and_allport	1,3,2,0,0,0,0,0,0	89.0	1.0	5.824	1,2,0,3,0,0,0,0,0	to_hand	s130
25.46	1.397	0	UA_with_intermediate	1,0,0,3,0,0,2,0,0	practice	ward_and_allport	1,3,2,0,0,0,0,0,0	82.0	1.0	1.397	1,2,0,3,0,0,0,0,0	to_board	s130
26.859	3.586	0	UA_with_intermediate	1,0,0,0,0,0,2,0,0	practice	ward_and_allport	1,3,2,0,0,0,0,0,0	71.0	1.0	3.586	1,2,0,3,0,0,0,0,0	to_hand	s130
30.447	1.02	0	UA_with_intermediate	1,0,0,0,0,0,2,3,0	practice	ward_and_allport	1,3,2,0,0,0,0,0,0	82.0	1.0	1.02	1,2,0,3,0,0,0,0,0	to_board	s130
31.468	6.373	0	UA_with_intermediate	1,0,0,0,0,0,2,0,0	practice	ward_and_allport	1,3,2,0,0,0,0,0,0	82.0	1.0	6.373	1,2,0,3,0,0,0,0,0	to_hand	s130
37.842	0.507	0	UA_with_intermediate	1,3,0,0,0,0,2,0,0	practice	ward_and_allport	1,3,2,0,0,0,0,0,0	89.0	1.0	0.507	1,2,0,3,0,0,0,0,0	to_board	s130
38.35	3.304	0	UA_with_intermediate	1,3,0,0,0,0,0,0,0	practice	ward_and_allport	1,3,2,0,0,0,0,0,0	82.0	1.0	3.304	1,2,0,3,0,0,0,0,0	to_hand	s130
41.655	0.771	0	UA_with_intermediate	1,3,2,0,0,0,0,0,0	practice	ward_and_allport	1,3,2,0,0,0,0,0,0	89.0	1.0	0.771	1,2,0,3,0,0,0,0,0	to_board	s130
42.429	1.0	0	UA_with_intermediate	n/a	practice	ward_and_allport	n/a	-1.0	1.0	n/a	n/a	feedback	s130
43.429	1.1	0	UA_with_intermediate	n/a	practice	ward_and_allport	n/a	-1.0	1.0	n/a	n/a	ITI	s130
44.531	3.731	1	UA_without_intermediate	0,0,0,1,2,0,0,0,0	practice	ward_and_allport	3,2,1,0,0,0,0,0,0	82.0	2.0	3.731	0,0,0,1,2,0,3,0,0	to_hand	s130
48.263	0.507	0	UA_without_intermediate	3,0,0,1,2,0,0,0,0	practice	ward_and_allport	3,2,1,0,0,0,0,0,0	89.0	2.0	0.507	0,0,0,1,2,0,3,0,0	to_board	s130
48.774	3.194	0	UA_without_intermediate	3,0,0,1,0,0,0,0,0	practice	ward_and_allport	3,2,1,0,0,0,0,0,0	71.0	2.0	3.194	0,0,0,1,2,0,3,0,0	to_hand	s130
51.97	0.914	0	UA_without_intermediate	3,2,0,1,0,0,0,0,0	practice	ward_and_allport	3,2,1,0,0,0,0,0,0	89.0	2.0	0.914	0,0,0,1,2,0,3,0,0	to_board	s130
52.888	1.473	0	UA_without_intermediate	3,2,0,0,0,0,0,0,0	practice	ward_and_allport	3,2,1,0,0,0,0,0,0	71.0	2.0	1.473	0,0,0,1,2,0,3,0,0	to_hand	s130
54.363	0.64	0	UA_without_intermediate	3,2,1,0,0,0,0,0,0	practice	ward_and_allport	3,2,1,0,0,0,0,0,0	89.0	2.0	0.64	0,0,0,1,2,0,3,0,0	to_board	s130
55.006	1.0	0	UA_without_intermediate	n/a	practice	ward_and_allport	n/a	-1.0	2.0	n/a	n/a	feedback	s130
56.006	1.2	0	UA_without_intermediate	n/a	practice	ward_and_allport	n/a	-1.0	2.0	n/a	n/a	ITI	s130
57.208	3.53	1	UA_without_intermediate	0,0,0,1,0,0,3,0,0	practice	ward_and_allport	2,3,1,0,0,0,0,0,0	71.0	3.0	3.53	0,0,0,1,2,0,3,0,0	to_hand	s130
60.74	0.476	0	UA_without_intermediate	2,0,0,1,0,0,3,0,0	practice	ward_and_allport	2,3,1,0,0,0,0,0,0	89.0	3.0	0.476	0,0,0,1,2,0,3,0,0	to_board	s130
61.219	1.61	0	UA_without_intermediate	2,0,0,1,0,0,0,0,0	practice	ward_and_allport	2,3,1,0,0,0,0,0,0	82.0	3.0	1.61	0,0,0,1,2,0,3,0,0	to_hand	s130
62.83	0.533	0	UA_without_intermediate	2,3,0,1,0,0,0,0,0	practice	ward_and_allport	2,3,1,0,0,0,0,0,0	89.0	3.0	0.533	0,0,0,1,2,0,3,0,0	to_board	s130
63.367	1.372	0	UA_without_intermediate	2,3,0,0,0,0,0,0,0	practice	ward_and_allport	2,3,1,0,0,0,0,0,0	71.0	3.0	1.372	0,0,0,1,2,0,3,0,0	to_hand	s130
64.74	0.5	0	UA_without_intermediate	2,3,1,0,0,0,0,0,0	practice	ward_and_allport	2,3,1,0,0,0,0,0,0	89.0	3.0	0.5	0,0,0,1,2,0,3,0,0	to_board	s130
65.243	1.0	0	UA_without_intermediate	n/a	practice	ward_and_allport	n/a	-1.0	3.0	n/a	n/a	feedback	s130
66.243	1.0	0	UA_without_intermediate	n/a	practice	ward_and_allport	n/a	-1.0	3.0	n/a	n/a	ITI	s130
69.25	5.732	1	PA_with_intermediate	1,2,0,0,0,0,0,0,0	test	ward_and_allport	1,0,0,2,3,0,0,0,0	89.0	0.0	5.732	1,2,3,0,0,0,0,0,0	to_hand	s130
74.983	1.313	0	PA_with_intermediate	1,2,0,0,0,0,3,0,0	test	ward_and_allport	1,0,0,2,3,0,0,0,0	82.0	0.0	1.313	1,2,3,0,0,0,0,0,0	to_board	s130
76.299	1.09	0	PA_with_intermediate	1,0,0,0,0,0,3,0,0	test	ward_and_allport	1,0,0,2,3,0,0,0,0	89.0	0.0	1.09	1,2,3,0,0,0,0,0,0	to_hand	s130
77.389	0.775	0	PA_with_intermediate	1,0,0,2,0,0,3,0,0	test	ward_and_allport	1,0,0,2,3,0,0,0,0	71.0	0.0	0.775	1,2,3,0,0,0,0,0,0	to_board	s130
78.166	0.732	0	PA_with_intermediate	1,0,0,2,0,0,0,0,0	test	ward_and_allport	1,0,0,2,3,0,0,0,0	82.0	0.0	0.732	1,2,3,0,0,0,0,0,0	to_hand	s130
78.9	0.605	0	PA_with_intermediate	1,0,0,2,3,0,0,0,0	test	ward_and_allport	1,0,0,2,3,0,0,0,0	71.0	0.0	0.605	1,2,3,0,0,0,0,0,0	to_board	s130
79.508	1.0	0	PA_with_intermediate	n/a	test	ward_and_allport	n/a	-1.0	0.0	n/a	n/a	feedback	s130
80.508	1.408	0	PA_with_intermediate	n/a	test	ward_and_allport	n/a	-1.0	0.0	n/a	n/a	ITI	s130
81.918	5.207	1	PA_without_intermediate	0,0,0,1,2,0,0,0,0	test	ward_and_allport	2,0,0,0,0,0,3,1,0	71.0	1.0	5.207	0,0,0,1,2,3,0,0,0	to_hand	s130
87.126	0.568	0	PA_without_intermediate	0,0,0,1,2,0,3,0,0	test	ward_and_allport	2,0,0,0,0,0,3,1,0	82.0	1.0	0.568	0,0,0,1,2,3,0,0,0	to_board	s130
87.696	2.866	0	PA_without_intermediate	0,0,0,1,0,0,3,0,0	test	ward_and_allport	2,0,0,0,0,0,3,1,0	71.0	1.0	2.866	0,0,0,1,2,3,0,0,0	to_hand	s130
90.562	0.437	0	PA_without_intermediate	2,0,0,1,0,0,3,0,0	test	ward_and_allport	2,0,0,0,0,0,3,1,0	89.0	1.0	0.437	0,0,0,1,2,3,0,0,0	to_board	s130
91.001	1.719	0	PA_without_intermediate	2,0,0,0,0,0,3,0,0	test	ward_and_allport	2,0,0,0,0,0,3,1,0	71.0	1.0	1.719	0,0,0,1,2,3,0,0,0	to_hand	s130
92.722	0.472	0	PA_without_intermediate	2,0,0,0,0,0,3,1,0	test	ward_and_allport	2,0,0,0,0,0,3,1,0	82.0	1.0	0.472	0,0,0,1,2,3,0,0,0	to_board	s130
93.198	1.0	0	PA_without_intermediate	n/a	test	ward_and_allport	n/a	-1.0	1.0	n/a	n/a	feedback	s130
94.198	1.68	0	PA_without_intermediate	n/a	test	ward_and_allport	n/a	-1.0	1.0	n/a	n/a	ITI	s130
95.881	5.452	1	PA_with_intermediate	0,0,0,1,2,0,0,0,0	test	ward_and_allport	0,0,0,1,3,0,2,0,0	71.0	2.0	5.452	0,0,0,1,2,3,0,0,0	to_hand	s130
101.333	0.536	0	PA_with_intermediate	3,0,0,1,2,0,0,0,0	test	ward_and_allport	0,0,0,1,3,0,2,0,0	89.0	2.0	0.536	0,0,0,1,2,3,0,0,0	to_board	s130
101.871	1.34	0	PA_with_intermediate	3,0,0,1,0,0,0,0,0	test	ward_and_allport	0,0,0,1,3,0,2,0,0	71.0	2.0	1.34	0,0,0,1,2,3,0,0,0	to_hand	s130
103.212	0.492	0	PA_with_intermediate	3,0,0,1,0,0,2,0,0	test	ward_and_allport	0,0,0,1,3,0,2,0,0	82.0	2.0	0.492	0,0,0,1,2,3,0,0,0	to_board	s130
103.707	1.118	0	PA_with_intermediate	0,0,0,1,0,0,2,0,0	test	ward_and_allport	0,0,0,1,3,0,2,0,0	89.0	2.0	1.118	0,0,0,1,2,3,0,0,0	to_hand	s130
104.825	0.483	0	PA_with_intermediate	0,0,0,1,3,0,2,0,0	test	ward_and_allport	0,0,0,1,3,0,2,0,0	71.0	2.0	0.483	0,0,0,1,2,3,0,0,0	to_board	s130
105.312	1.0	0	PA_with_intermediate	n/a	test	ward_and_allport	n/a	-1.0	2.0	n/a	n/a	feedback	s130
106.312	3.72	0	PA_with_intermediate	n/a	test	ward_and_allport	n/a	-1.0	2.0	n/a	n/a	ITI	s130
110.035	4.804	1	PA_without_intermediate	0,0,0,0,0,0,1,2,0	test	ward_and_allport	3,2,0,1,0,0,0,0,0	82.0	3.0	4.804	0,0,0,0,0,0,1,2,3	to_hand	s130
114.839	0.481	0	PA_without_intermediate	3,0,0,0,0,0,1,2,0	test	ward_and_allport	3,2,0,1,0,0,0,0,0	89.0	3.0	0.481	0,0,0,0,0,0,1,2,3	to_board	s130
115.323	2.719	0	PA_without_intermediate	3,0,0,0,0,0,1,0,0	test	ward_and_allport	3,2,0,1,0,0,0,0,0	82.0	3.0	2.719	0,0,0,0,0,0,1,2,3	to_hand	s130
118.043	0.439	0	PA_without_intermediate	3,2,0,0,0,0,1,0,0	test	ward_and_allport	3,2,0,1,0,0,0,0,0	89.0	3.0	0.439	0,0,0,0,0,0,1,2,3	to_board	s130
118.486	1.556	0	PA_without_intermediate	3,2,0,0,0,0,0,0,0	test	ward_and_allport	3,2,0,1,0,0,0,0,0	82.0	3.0	1.556	0,0,0,0,0,0,1,2,3	to_hand	s130
120.043	0.408	0	PA_without_intermediate	3,2,0,1,0,0,0,0,0	test	ward_and_allport	3,2,0,1,0,0,0,0,0	71.0	3.0	0.408	0,0,0,0,0,0,1,2,3	to_board	s130
120.455	1.0	0	PA_without_intermediate	n/a	test	ward_and_allport	n/a	-1.0	3.0	n/a	n/a	feedback	s130
121.455	2.224	0	PA_without_intermediate	n/a	test	ward_and_allport	n/a	-1.0	3.0	n/a	n/a	ITI	s130
123.682	5.043	1	PA_without_intermediate	1,2,0,0,0,0,0,0,0	test	ward_and_allport	0,0,0,3,2,0,1,0,0	89.0	4.0	5.043	1,2,3,0,0,0,0,0,0	to_hand	s130
128.726	0.848	0	PA_without_intermediate	1,2,0,3,0,0,0,0,0	test	ward_and_allport	0,0,0,3,2,0,1,0,0	71.0	4.0	0.848	1,2,3,0,0,0,0,0,0	to_board	s130
129.576	1.788	0	PA_without_intermediate	1,0,0,3,0,0,0,0,0	test	ward_and_allport	0,0,0,3,2,0,1,0,0	89.0	4.0	1.788	1,2,3,0,0,0,0,0,0	to_hand	s130
131.366	0.385	0	PA_without_intermediate	1,0,0,3,2,0,0,0,0	test	ward_and_allport	0,0,0,3,2,0,1,0,0	71.0	4.0	0.385	1,2,3,0,0,0,0,0,0	to_board	s130
131.754	0.938	0	PA_without_intermediate	0,0,0,3,2,0,0,0,0	test	ward_and_allport	0,0,0,3,2,0,1,0,0	89.0	4.0	0.938	1,2,3,0,0,0,0,0,0	to_hand	s130
132.692	0.454	0	PA_without_intermediate	0,0,0,3,2,0,1,0,0	test	ward_and_allport	0,0,0,3,2,0,1,0,0	82.0	4.0	0.454	1,2,3,0,0,0,0,0,0	to_board	s130
133.15	1.0	0	PA_without_intermediate	n/a	test	ward_and_allport	n/a	-1.0	4.0	n/a	n/a	feedback	s130
134.15	1.272	0	PA_without_intermediate	n/a	test	ward_and_allport	n/a	-1.0	4.0	n/a	n/a	ITI	s130
135.425	7.94	1	PA_with_intermediate	1,2,0,0,0,0,0,0,0	test	ward_and_allport	1,0,0,0,0,0,2,3,0	89.0	5.0	7.94	1,2,3,0,0,0,0,0,0	to_hand	s130
143.366	1.192	0	PA_with_intermediate	1,2,0,3,0,0,0,0,0	test	ward_and_allport	1,0,0,0,0,0,2,3,0	71.0	5.0	1.192	1,2,3,0,0,0,0,0,0	to_board	s130
144.562	0.783	0	PA_with_intermediate	1,0,0,3,0,0,0,0,0	test	ward_and_allport	1,0,0,0,0,0,2,3,0	89.0	5.0	0.783	1,2,3,0,0,0,0,0,0	to_hand	s130
145.347	0.509	0	PA_with_intermediate	1,0,0,3,0,0,2,0,0	test	ward_and_allport	1,0,0,0,0,0,2,3,0	82.0	5.0	0.509	1,2,3,0,0,0,0,0,0	to_board	s130
145.86	0.99	0	PA_with_intermediate	1,0,0,0,0,0,2,0,0	test	ward_and_allport	1,0,0,0,0,0,2,3,0	71.0	5.0	0.99	1,2,3,0,0,0,0,0,0	to_hand	s130
146.851	0.478	0	PA_with_intermediate	1,0,0,0,0,0,2,3,0	test	ward_and_allport	1,0,0,0,0,0,2,3,0	82.0	5.0	0.478	1,2,3,0,0,0,0,0,0	to_board	s130
147.333	1.0	0	PA_with_intermediate	n/a	test	ward_and_allport	n/a	-1.0	5.0	n/a	n/a	feedback	s130
148.333	2.632	0	PA_with_intermediate	n/a	test	ward_and_allport	n/a	-1.0	5.0	n/a	n/a	ITI	s130
150.968	5.039	1	PA_without_intermediate	0,0,0,0,0,0,1,2,0	test	ward_and_allport	1,0,0,3,2,0,0,0,0	82.0	6.0	5.039	0,0,0,0,0,0,1,2,3	to_hand	s130
156.008	0.526	0	PA_without_intermediate	0,0,0,3,0,0,1,2,0	test	ward_and_allport	1,0,0,3,2,0,0,0,0	71.0	6.0	0.526	0,0,0,0,0,0,1,2,3	to_board	s130
156.538	1.29	0	PA_without_intermediate	0,0,0,3,0,0,1,0,0	test	ward_and_allport	1,0,0,3,2,0,0,0,0	82.0	6.0	1.29	0,0,0,0,0,0,1,2,3	to_hand	s130
157.829	0.421	0	PA_without_intermediate	0,0,0,3,2,0,1,0,0	test	ward_and_allport	1,0,0,3,2,0,0,0,0	71.0	6.0	0.421	0,0,0,0,0,0,1,2,3	to_board	s130
158.253	1.165	0	PA_without_intermediate	0,0,0,3,2,0,0,0,0	test	ward_and_allport	1,0,0,3,2,0,0,0,0	82.0	6.0	1.165	0,0,0,0,0,0,1,2,3	to_hand	s130
159.418	0.456	0	PA_without_intermediate	1,0,0,3,2,0,0,0,0	test	ward_and_allport	1,0,0,3,2,0,0,0,0	89.0	6.0	0.456	0,0,0,0,0,0,1,2,3	to_board	s130
159.879	1.0	0	PA_without_intermediate	n/a	test	ward_and_allport	n/a	-1.0	6.0	n/a	n/a	feedback	s130
160.879	1.408	0	PA_without_intermediate	n/a	test	ward_and_allport	n/a	-1.0	6.0	n/a	n/a	ITI	s130
162.29	2.515	1	PA_without_intermediate	1,2,0,0,0,0,0,0,0	test	ward_and_allport	0,0,0,3,2,0,1,0,0	89.0	7.0	2.515	1,2,3,0,0,0,0,0,0	to_hand	s130
164.805	0.736	0	PA_without_intermediate	1,2,0,3,0,0,0,0,0	test	ward_and_allport	0,0,0,3,2,0,1,0,0	71.0	7.0	0.736	1,2,3,0,0,0,0,0,0	to_board	s130
165.545	0.897	0	PA_without_intermediate	1,0,0,3,0,0,0,0,0	test	ward_and_allport	0,0,0,3,2,0,1,0,0	89.0	7.0	0.897	1,2,3,0,0,0,0,0,0	to_hand	s130
166.443	0.398	0	PA_without_intermediate	1,0,0,3,2,0,0,0,0	test	ward_and_allport	0,0,0,3,2,0,1,0,0	71.0	7.0	0.398	1,2,3,0,0,0,0,0,0	to_board	s130
166.843	0.656	0	PA_without_intermediate	0,0,0,3,2,0,0,0,0	test	ward_and_allport	0,0,0,3,2,0,1,0,0	89.0	7.0	0.656	1,2,3,0,0,0,0,0,0	to_hand	s130
167.501	0.39	0	PA_without_intermediate	0,0,0,3,2,0,1,0,0	test	ward_and_allport	0,0,0,3,2,0,1,0,0	82.0	7.0	0.39	1,2,3,0,0,0,0,0,0	to_board	s130
167.896	1.0	0	PA_without_intermediate	n/a	test	ward_and_allport	n/a	-1.0	7.0	n/a	n/a	feedback	s130
168.896	1.0	0	PA_without_intermediate	n/a	test	ward_and_allport	n/a	-1.0	7.0	n/a	n/a	ITI	s130
169.899	5.036	1	PA_with_intermediate	0,0,0,0,0,0,1,2,0	test	ward_and_allport	2,0,0,0,0,0,1,3,0	82.0	8.0	5.036	0,0,0,0,0,0,1,2,3	to_hand	s130
174.937	0.403	0	PA_with_intermediate	0,0,0,3,0,0,1,2,0	test	ward_and_allport	2,0,0,0,0,0,1,3,0	71.0	8.0	0.403	0,0,0,0,0,0,1,2,3	to_board	s130
175.343	1.877	0	PA_with_intermediate	0,0,0,3,0,0,1,0,0	test	ward_and_allport	2,0,0,0,0,0,1,3,0	82.0	8.0	1.877	0,0,0,0,0,0,1,2,3	to_hand	s130
177.221	0.362	0	PA_with_intermediate	2,0,0,3,0,0,1,0,0	test	ward_and_allport	2,0,0,0,0,0,1,3,0	89.0	8.0	0.362	0,0,0,0,0,0,1,2,3	to_board	s130
177.587	1.282	0	PA_with_intermediate	2,0,0,0,0,0,1,0,0	test	ward_and_allport	2,0,0,0,0,0,1,3,0	71.0	8.0	1.282	0,0,0,0,0,0,1,2,3	to_hand	s130
178.87	0.385	0	PA_with_intermediate	2,0,0,0,0,0,1,3,0	test	ward_and_allport	2,0,0,0,0,0,1,3,0	82.0	8.0	0.385	0,0,0,0,0,0,1,2,3	to_board	s130
179.259	1.0	0	PA_with_intermediate	n/a	test	ward_and_allport	n/a	-1.0	8.0	n/a	n/a	feedback	s130
180.259	1.0	0	PA_with_intermediate	n/a	test	ward_and_allport	n/a	-1.0	8.0	n/a	n/a	ITI	s130
181.263	4.136	1	PA_with_intermediate	0,0,0,0,0,0,1,2,0	test	ward_and_allport	2,3,0,0,0,0,1,0,0	82.0	9.0	4.136	0,0,0,0,0,0,1,2,3	to_hand	s130
185.401	0.427	0	PA_with_intermediate	0,0,0,3,0,0,1,2,0	test	ward_and_allport	2,3,0,0,0,0,1,0,0	71.0	9.0	0.427	0,0,0,0,0,0,1,2,3	to_board	s130
185.832	0.899	0	PA_with_intermediate	0,0,0,3,0,0,1,0,0	test	ward_and_allport	2,3,0,0,0,0,1,0,0	82.0	9.0	0.899	0,0,0,0,0,0,1,2,3	to_hand	s130
186.732	0.398	0	PA_with_intermediate	2,0,0,3,0,0,1,0,0	test	ward_and_allport	2,3,0,0,0,0,1,0,0	89.0	9.0	0.398	0,0,0,0,0,0,1,2,3	to_board	s130
187.134	0.721	0	PA_with_intermediate	2,0,0,0,0,0,1,0,0	test	ward_and_allport	2,3,0,0,0,0,1,0,0	71.0	9.0	0.721	0,0,0,0,0,0,1,2,3	to_hand	s130
187.856	0.4	0	PA_with_intermediate	2,3,0,0,0,0,1,0,0	test	ward_and_allport	2,3,0,0,0,0,1,0,0	89.0	9.0	0.4	0,0,0,0,0,0,1,2,3	to_board	s130
188.261	1.0	0	PA_with_intermediate	n/a	test	ward_and_allport	n/a	-1.0	9.0	n/a	n/a	feedback	s130
189.261	1.0	0	PA_with_intermediate	n/a	test	ward_and_allport	n/a	-1.0	9.0	n/a	n/a	ITI	s130
190.264	3.273	1	PA_with_intermediate	0,0,0,0,0,0,1,2,0	test	ward_and_allport	0,0,0,2,3,0,1,0,0	82.0	10.0	3.273	0,0,0,0,0,0,1,2,3	to_hand	s130
193.539	0.371	0	PA_with_intermediate	3,0,0,0,0,0,1,2,0	test	ward_and_allport	0,0,0,2,3,0,1,0,0	89.0	10.0	0.371	0,0,0,0,0,0,1,2,3	to_board	s130
193.914	1.767	0	PA_with_intermediate	3,0,0,0,0,0,1,0,0	test	ward_and_allport	0,0,0,2,3,0,1,0,0	82.0	10.0	1.767	0,0,0,0,0,0,1,2,3	to_hand	s130
195.681	0.377	0	PA_with_intermediate	3,0,0,2,0,0,1,0,0	test	ward_and_allport	0,0,0,2,3,0,1,0,0	71.0	10.0	0.377	0,0,0,0,0,0,1,2,3	to_board	s130
196.062	1.236	0	PA_with_intermediate	0,0,0,2,0,0,1,0,0	test	ward_and_allport	0,0,0,2,3,0,1,0,0	89.0	10.0	1.236	0,0,0,0,0,0,1,2,3	to_hand	s130
197.3	0.413	0	PA_with_intermediate	0,0,0,2,3,0,1,0,0	test	ward_and_allport	0,0,0,2,3,0,1,0,0	71.0	10.0	0.413	0,0,0,0,0,0,1,2,3	to_board	s130
197.718	1.0	0	PA_with_intermediate	n/a	test	ward_and_allport	n/a	-1.0	10.0	n/a	n/a	feedback	s130
198.718	1.408	0	PA_with_intermediate	n/a	test	ward_and_allport	n/a	-1.0	10.0	n/a	n/a	ITI	s130
200.132	5.098	1	PA_without_intermediate	0,0,0,1,2,0,0,0,0	test	ward_and_allport	3,1,0,0,0,0,2,0,0	71.0	11.0	5.098	0,0,0,1,2,3,0,0,0	to_hand	s130
205.231	0.395	0	PA_without_intermediate	3,0,0,1,2,0,0,0,0	test	ward_and_allport	3,1,0,0,0,0,2,0,0	89.0	11.0	0.395	0,0,0,1,2,3,0,0,0	to_board	s130
205.63	0.974	0	PA_without_intermediate	3,0,0,1,0,0,0,0,0	test	ward_and_allport	3,1,0,0,0,0,2,0,0	71.0	11.0	0.974	0,0,0,1,2,3,0,0,0	to_hand	s130
206.605	0.433	0	PA_without_intermediate	3,0,0,1,0,0,2,0,0	test	ward_and_allport	3,1,0,0,0,0,2,0,0	82.0	11.0	0.433	0,0,0,1,2,3,0,0,0	to_board	s130
207.042	1.092	0	PA_without_intermediate	3,0,0,0,0,0,2,0,0	test	ward_and_allport	3,1,0,0,0,0,2,0,0	71.0	11.0	1.092	0,0,0,1,2,3,0,0,0	to_hand	s130
208.136	0.381	0	PA_without_intermediate	3,1,0,0,0,0,2,0,0	test	ward_and_allport	3,1,0,0,0,0,2,0,0	89.0	11.0	0.381	0,0,0,1,2,3,0,0,0	to_board	s130
208.523	1.0	0	PA_without_intermediate	n/a	test	ward_and_allport	n/a	-1.0	11.0	n/a	n/a	feedback	s130
209.523	1.816	0	PA_without_intermediate	n/a	test	ward_and_allport	n/a	-1.0	11.0	n/a	n/a	ITI	s130
211.342	4.087	1	PA_with_intermediate	1,2,0,0,0,0,0,0,0	test	ward_and_allport	1,3,0,2,0,0,0,0,0	89.0	12.0	4.087	1,2,3,0,0,0,0,0,0	to_hand	s130
215.43	0.661	0	PA_with_intermediate	1,2,0,0,0,0,3,0,0	test	ward_and_allport	1,3,0,2,0,0,0,0,0	82.0	12.0	0.661	1,2,3,0,0,0,0,0,0	to_board	s130
216.095	2.286	0	PA_with_intermediate	1,0,0,0,0,0,3,0,0	test	ward_and_allport	1,3,0,2,0,0,0,0,0	89.0	12.0	2.286	1,2,3,0,0,0,0,0,0	to_hand	s130
218.382	0.388	0	PA_with_intermediate	1,0,0,2,0,0,3,0,0	test	ward_and_allport	1,3,0,2,0,0,0,0,0	71.0	12.0	0.388	1,2,3,0,0,0,0,0,0	to_board	s130
218.775	1.493	0	PA_with_intermediate	1,0,0,2,0,0,0,0,0	test	ward_and_allport	1,3,0,2,0,0,0,0,0	82.0	12.0	1.493	1,2,3,0,0,0,0,0,0	to_hand	s130
220.269	0.426	0	PA_with_intermediate	1,3,0,2,0,0,0,0,0	test	ward_and_allport	1,3,0,2,0,0,0,0,0	89.0	12.0	0.426	1,2,3,0,0,0,0,0,0	to_board	s130
220.699	1.0	0	PA_with_intermediate	n/a	test	ward_and_allport	n/a	-1.0	12.0	n/a	n/a	feedback	s130
221.699	3.176	0	PA_with_intermediate	n/a	test	ward_and_allport	n/a	-1.0	12.0	n/a	n/a	ITI	s130
224.879	5.123	1	PA_with_intermediate	0,0,0,0,0,0,1,2,0	test	ward_and_allport	0,0,0,2,0,0,1,3,0	82.0	13.0	5.123	0,0,0,0,0,0,1,2,3	to_hand	s130
230.003	0.36	0	PA_with_intermediate	3,0,0,0,0,0,1,2,0	test	ward_and_allport	0,0,0,2,0,0,1,3,0	89.0	13.0	0.36	0,0,0,0,0,0,1,2,3	to_board	s130
230.367	4.009	0	PA_with_intermediate	3,0,0,0,0,0,1,0,0	test	ward_and_allport	0,0,0,2,0,0,1,3,0	82.0	13.0	4.009	0,0,0,0,0,0,1,2,3	to_hand	s130
234.377	0.495	0	PA_with_intermediate	3,0,0,2,0,0,1,0,0	test	ward_and_allport	0,0,0,2,0,0,1,3,0	71.0	13.0	0.495	0,0,0,0,0,0,1,2,3	to_board	s130
234.875	1.479	0	PA_with_intermediate	0,0,0,2,0,0,1,0,0	test	ward_and_allport	0,0,0,2,0,0,1,3,0	89.0	13.0	1.479	0,0,0,0,0,0,1,2,3	to_hand	s130
236.356	0.396	0	PA_with_intermediate	0,0,0,2,0,0,1,3,0	test	ward_and_allport	0,0,0,2,0,0,1,3,0	82.0	13.0	0.396	0,0,0,0,0,0,1,2,3	to_board	s130
236.758	1.0	0	PA_with_intermediate	n/a	test	ward_and_allport	n/a	-1.0	13.0	n/a	n/a	feedback	s130
237.758	2.36	0	PA_with_intermediate	n/a	test	ward_and_allport	n/a	-1.0	13.0	n/a	n/a	ITI	s130
240.122	4.6	1	PA_with_intermediate	1,2,0,0,0,0,0,0,0	test	ward_and_allport	1,3,0,2,0,0,0,0,0	89.0	14.0	4.6	1,2,3,0,0,0,0,0,0	to_hand	s130
244.723	0.453	0	PA_with_intermediate	1,2,0,0,0,0,3,0,0	test	ward_and_allport	1,3,0,2,0,0,0,0,0	82.0	14.0	0.453	1,2,3,0,0,0,0,0,0	to_board	s130
245.18	1.486	0	PA_with_intermediate	1,0,0,0,0,0,3,0,0	test	ward_and_allport	1,3,0,2,0,0,0,0,0	89.0	14.0	1.486	1,2,3,0,0,0,0,0,0	to_hand	s130
246.666	0.364	0	PA_with_intermediate	1,0,0,2,0,0,3,0,0	test	ward_and_allport	1,3,0,2,0,0,0,0,0	71.0	14.0	0.364	1,2,3,0,0,0,0,0,0	to_board	s130
247.034	1.832	0	PA_with_intermediate	1,0,0,2,0,0,0,0,0	test	ward_and_allport	1,3,0,2,0,0,0,0,0	82.0	14.0	1.832	1,2,3,0,0,0,0,0,0	to_hand	s130
248.867	0.406	0	PA_with_intermediate	1,3,0,2,0,0,0,0,0	test	ward_and_allport	1,3,0,2,0,0,0,0,0	89.0	14.0	0.406	1,2,3,0,0,0,0,0,0	to_board	s130
249.278	1.0	0	PA_with_intermediate	n/a	test	ward_and_allport	n/a	-1.0	14.0	n/a	n/a	feedback	s130
250.278	1.0	0	PA_with_intermediate	n/a	test	ward_and_allport	n/a	-1.0	14.0	n/a	n/a	ITI	s130
256.287	3.988	1	PA_without_intermediate	0,0,0,1,2,0,0,0,0	test	ward_and_allport	3,2,0,0,0,0,1,0,0	71.0	15.0	3.988	0,0,0,1,2,3,0,0,0	to_hand	s130
260.276	0.617	0	PA_without_intermediate	3,0,0,1,2,0,0,0,0	test	ward_and_allport	3,2,0,0,0,0,1,0,0	89.0	15.0	0.617	0,0,0,1,2,3,0,0,0	to_board	s130
260.896	0.784	0	PA_without_intermediate	3,0,0,1,0,0,0,0,0	test	ward_and_allport	3,2,0,0,0,0,1,0,0	71.0	15.0	0.784	0,0,0,1,2,3,0,0,0	to_hand	s130
261.682	0.388	0	PA_without_intermediate	3,2,0,1,0,0,0,0,0	test	ward_and_allport	3,2,0,0,0,0,1,0,0	89.0	15.0	0.388	0,0,0,1,2,3,0,0,0	to_board	s130
262.074	0.677	0	PA_without_intermediate	3,2,0,0,0,0,0,0,0	test	ward_and_allport	3,2,0,0,0,0,1,0,0	71.0	15.0	0.677	0,0,0,1,2,3,0,0,0	to_hand	s130
262.752	0.444	0	PA_without_intermediate	3,2,0,0,0,0,1,0,0	test	ward_and_allport	3,2,0,0,0,0,1,0,0	82.0	15.0	0.444	0,0,0,1,2,3,0,0,0	to_board	s130
263.201	1.0	0	PA_without_intermediate	n/a	test	ward_and_allport	n/a	-1.0	15.0	n/a	n/a	feedback	s130
264.201	1.408	0	PA_without_intermediate	n/a	test	ward_and_allport	n/a	-1.0	15.0	n/a	n/a	ITI	s130
265.615	4.811	1	PA_with_intermediate	0,0,0,1,2,0,0,0,0	test	ward_and_allport	0,0,0,1,0,0,2,3,0	71.0	16.0	4.811	0,0,0,1,2,3,0,0,0	to_hand	s130
270.427	0.384	0	PA_with_intermediate	3,0,0,1,2,0,0,0,0	test	ward_and_allport	0,0,0,1,0,0,2,3,0	89.0	16.0	0.384	0,0,0,1,2,3,0,0,0	to_board	s130
270.816	0.714	0	PA_with_intermediate	3,0,0,1,0,0,0,0,0	test	ward_and_allport	0,0,0,1,0,0,2,3,0	71.0	16.0	0.714	0,0,0,1,2,3,0,0,0	to_hand	s130
271.531	0.491	0	PA_with_intermediate	3,0,0,1,0,0,2,0,0	test	ward_and_allport	0,0,0,1,0,0,2,3,0	82.0	16.0	0.491	0,0,0,1,2,3,0,0,0	to_board	s130
272.026	0.645	0	PA_with_intermediate	0,0,0,1,0,0,2,0,0	test	ward_and_allport	0,0,0,1,0,0,2,3,0	89.0	16.0	0.645	0,0,0,1,2,3,0,0,0	to_hand	s130
272.672	0.422	0	PA_with_intermediate	0,0,0,1,0,0,2,3,0	test	ward_and_allport	0,0,0,1,0,0,2,3,0	82.0	16.0	0.422	0,0,0,1,2,3,0,0,0	to_board	s130
273.101	1.0	0	PA_with_intermediate	n/a	test	ward_and_allport	n/a	-1.0	16.0	n/a	n/a	feedback	s130
274.101	1.816	0	PA_with_intermediate	n/a	test	ward_and_allport	n/a	-1.0	16.0	n/a	n/a	ITI	s130
275.921	4.244	1	PA_without_intermediate	1,2,0,0,0,0,0,0,0	test	ward_and_allport	0,0,0,1,0,0,3,2,0	89.0	17.0	4.244	1,2,3,0,0,0,0,0,0	to_hand	s130
280.167	0.775	0	PA_without_intermediate	1,2,0,0,0,0,3,0,0	test	ward_and_allport	0,0,0,1,0,0,3,2,0	82.0	17.0	0.775	1,2,3,0,0,0,0,0,0	to_board	s130
280.947	2.093	0	PA_without_intermediate	1,0,0,0,0,0,3,0,0	test	ward_and_allport	0,0,0,1,0,0,3,2,0	89.0	17.0	2.093	1,2,3,0,0,0,0,0,0	to_hand	s130
283.041	0.545	0	PA_without_intermediate	1,0,0,0,0,0,3,2,0	test	ward_and_allport	0,0,0,1,0,0,3,2,0	82.0	17.0	0.545	1,2,3,0,0,0,0,0,0	to_board	s130
283.59	0.742	0	PA_without_intermediate	0,0,0,0,0,0,3,2,0	test	ward_and_allport	0,0,0,1,0,0,3,2,0	89.0	17.0	0.742	1,2,3,0,0,0,0,0,0	to_hand	s130
284.333	0.482	0	PA_without_intermediate	0,0,0,1,0,0,3,2,0	test	ward_and_allport	0,0,0,1,0,0,3,2,0	71.0	17.0	0.482	1,2,3,0,0,0,0,0,0	to_board	s130
284.821	1.0	0	PA_without_intermediate	n/a	test	ward_and_allport	n/a	-1.0	17.0	n/a	n/a	feedback	s130
285.821	2.088	0	PA_without_intermediate	n/a	test	ward_and_allport	n/a	-1.0	17.0	n/a	n/a	ITI	s130
287.915	3.481	1	PA_without_intermediate	0,0,0,0,0,0,1,2,0	test	ward_and_allport	3,1,0,2,0,0,0,0,0	82.0	18.0	3.481	0,0,0,0,0,0,1,2,3	to_hand	s130
291.396	0.416	0	PA_without_intermediate	3,0,0,0,0,0,1,2,0	test	ward_and_allport	3,1,0,2,0,0,0,0,0	89.0	18.0	0.416	0,0,0,0,0,0,1,2,3	to_board	s130
291.817	1.579	0	PA_without_intermediate	3,0,0,0,0,0,1,0,0	test	ward_and_allport	3,1,0,2,0,0,0,0,0	82.0	18.0	1.579	0,0,0,0,0,0,1,2,3	to_hand	s130
293.396	0.385	0	PA_without_intermediate	3,0,0,2,0,0,1,0,0	test	ward_and_allport	3,1,0,2,0,0,0,0,0	71.0	18.0	0.385	0,0,0,0,0,0,1,2,3	to_board	s130
293.787	1.501	0	PA_without_intermediate	3,0,0,2,0,0,0,0,0	test	ward_and_allport	3,1,0,2,0,0,0,0,0	82.0	18.0	1.501	0,0,0,0,0,0,1,2,3	to_hand	s130
295.289	0.376	0	PA_without_intermediate	3,1,0,2,0,0,0,0,0	test	ward_and_allport	3,1,0,2,0,0,0,0,0	89.0	18.0	0.376	0,0,0,0,0,0,1,2,3	to_board	s130
295.67	1.0	0	PA_without_intermediate	n/a	test	ward_and_allport	n/a	-1.0	18.0	n/a	n/a	feedback	s130
296.67	1.136	0	PA_without_intermediate	n/a	test	ward_and_allport	n/a	-1.0	18.0	n/a	n/a	ITI	s130
297.811	3.543	1	PA_without_intermediate	0,0,0,1,2,0,0,0,0	test	ward_and_allport	2,0,0,0,0,0,3,1,0	71.0	19.0	3.543	0,0,0,1,2,3,0,0,0	to_hand	s130
301.355	0.485	0	PA_without_intermediate	0,0,0,1,2,0,3,0,0	test	ward_and_allport	2,0,0,0,0,0,3,1,0	82.0	19.0	0.485	0,0,0,1,2,3,0,0,0	to_board	s130
301.844	1.535	0	PA_without_intermediate	0,0,0,1,0,0,3,0,0	test	ward_and_allport	2,0,0,0,0,0,3,1,0	71.0	19.0	1.535	0,0,0,1,2,3,0,0,0	to_hand	s130
303.381	0.395	0	PA_without_intermediate	2,0,0,1,0,0,3,0,0	test	ward_and_allport	2,0,0,0,0,0,3,1,0	89.0	19.0	0.395	0,0,0,1,2,3,0,0,0	to_board	s130
303.78	1.088	0	PA_without_intermediate	2,0,0,0,0,0,3,0,0	test	ward_and_allport	2,0,0,0,0,0,3,1,0	71.0	19.0	1.088	0,0,0,1,2,3,0,0,0	to_hand	s130
304.87	0.43	0	PA_without_intermediate	2,0,0,0,0,0,3,1,0	test	ward_and_allport	2,0,0,0,0,0,3,1,0	82.0	19.0	0.43	0,0,0,1,2,3,0,0,0	to_board	s130
305.306	1.0	0	PA_without_intermediate	n/a	test	ward_and_allport	n/a	-1.0	19.0	n/a	n/a	feedback	s130
306.306	6.168	0	PA_without_intermediate	n/a	test	ward_and_allport	n/a	-1.0	19.0	n/a	n/a	ITI	s130
312.479	4.468	1	PA_without_intermediate	0,0,0,0,0,0,1,2,0	test	ward_and_allport	3,1,0,2,0,0,0,0,0	82.0	20.0	4.468	0,0,0,0,0,0,1,2,3	to_hand	s130
316.948	0.433	0	PA_without_intermediate	3,0,0,0,0,0,1,2,0	test	ward_and_allport	3,1,0,2,0,0,0,0,0	89.0	20.0	0.433	0,0,0,0,0,0,1,2,3	to_board	s130
317.386	1.154	0	PA_without_intermediate	3,0,0,0,0,0,1,0,0	test	ward_and_allport	3,1,0,2,0,0,0,0,0	82.0	20.0	1.154	0,0,0,0,0,0,1,2,3	to_hand	s130
318.542	0.407	0	PA_without_intermediate	3,0,0,2,0,0,1,0,0	test	ward_and_allport	3,1,0,2,0,0,0,0,0	71.0	20.0	0.407	0,0,0,0,0,0,1,2,3	to_board	s130
318.953	1.385	0	PA_without_intermediate	3,0,0,2,0,0,0,0,0	test	ward_and_allport	3,1,0,2,0,0,0,0,0	82.0	20.0	1.385	0,0,0,0,0,0,1,2,3	to_hand	s130
320.34	0.389	0	PA_without_intermediate	3,1,0,2,0,0,0,0,0	test	ward_and_allport	3,1,0,2,0,0,0,0,0	89.0	20.0	0.389	0,0,0,0,0,0,1,2,3	to_board	s130
320.734	1.0	0	PA_without_intermediate	n/a	test	ward_and_allport	n/a	-1.0	20.0	n/a	n/a	feedback	s130
321.734	1.816	0	PA_without_intermediate	n/a	test	ward_and_allport	n/a	-1.0	20.0	n/a	n/a	ITI	s130
323.556	3.981	1	PA_with_intermediate	0,0,0,1,2,0,0,0,0	test	ward_and_allport	2,3,0,1,0,0,0,0,0	71.0	21.0	3.981	0,0,0,1,2,3,0,0,0	to_hand	s130
327.538	0.433	0	PA_with_intermediate	0,0,0,1,2,0,3,0,0	test	ward_and_allport	2,3,0,1,0,0,0,0,0	82.0	21.0	0.433	0,0,0,1,2,3,0,0,0	to_board	s130
327.977	0.682	0	PA_with_intermediate	0,0,0,1,0,0,3,0,0	test	ward_and_allport	2,3,0,1,0,0,0,0,0	71.0	21.0	0.682	0,0,0,1,2,3,0,0,0	to_hand	s130
328.66	0.388	0	PA_with_intermediate	2,0,0,1,0,0,3,0,0	test	ward_and_allport	2,3,0,1,0,0,0,0,0	89.0	21.0	0.388	0,0,0,1,2,3,0,0,0	to_board	s130
329.053	0.647	0	PA_with_intermediate	2,0,0,1,0,0,0,0,0	test	ward_and_allport	2,3,0,1,0,0,0,0,0	82.0	21.0	0.647	0,0,0,1,2,3,0,0,0	to_hand	s130
329.701	0.494	0	PA_with_intermediate	2,3,0,1,0,0,0,0,0	test	ward_and_allport	2,3,0,1,0,0,0,0,0	89.0	21.0	0.494	0,0,0,1,2,3,0,0,0	to_board	s130
330.201	1.0	0	PA_with_intermediate	n/a	test	ward_and_allport	n/a	-1.0	21.0	n/a	n/a	feedback	s130
331.201	1.952	0	PA_with_intermediate	n/a	test	ward_and_allport	n/a	-1.0	21.0	n/a	n/a	ITI	s130
333.158	2.942	1	PA_with_intermediate	0,0,0,0,0,0,1,2,0	test	ward_and_allport	0,0,0,2,3,0,1,0,0	82.0	22.0	2.942	0,0,0,0,0,0,1,2,3	to_hand	s130
336.101	0.394	0	PA_with_intermediate	3,0,0,0,0,0,1,2,0	test	ward_and_allport	0,0,0,2,3,0,1,0,0	89.0	22.0	0.394	0,0,0,0,0,0,1,2,3	to_board	s130
336.502	1.355	0	PA_with_intermediate	3,0,0,0,0,0,1,0,0	test	ward_and_allport	0,0,0,2,3,0,1,0,0	82.0	22.0	1.355	0,0,0,0,0,0,1,2,3	to_hand	s130
337.857	0.37	0	PA_with_intermediate	3,0,0,2,0,0,1,0,0	test	ward_and_allport	0,0,0,2,3,0,1,0,0	71.0	22.0	0.37	0,0,0,0,0,0,1,2,3	to_board	s130
338.233	0.695	0	PA_with_intermediate	0,0,0,2,0,0,1,0,0	test	ward_and_allport	0,0,0,2,3,0,1,0,0	89.0	22.0	0.695	0,0,0,0,0,0,1,2,3	to_hand	s130
338.929	0.395	0	PA_with_intermediate	0,0,0,2,3,0,1,0,0	test	ward_and_allport	0,0,0,2,3,0,1,0,0	71.0	22.0	0.395	0,0,0,0,0,0,1,2,3	to_board	s130
339.332	1.0	0	PA_with_intermediate	n/a	test	ward_and_allport	n/a	-1.0	22.0	n/a	n/a	feedback	s130
340.332	1.136	0	PA_with_intermediate	n/a	test	ward_and_allport	n/a	-1.0	22.0	n/a	n/a	ITI	s130
341.472	4.007	1	PA_without_intermediate	0,0,0,1,2,0,0,0,0	test	ward_and_allport	3,1,0,0,0,0,2,0,0	71.0	23.0	4.007	0,0,0,1,2,3,0,0,0	to_hand	s130
345.48	0.465	0	PA_without_intermediate	3,0,0,1,2,0,0,0,0	test	ward_and_allport	3,1,0,0,0,0,2,0,0	89.0	23.0	0.465	0,0,0,1,2,3,0,0,0	to_board	s130
345.952	0.703	0	PA_without_intermediate	3,0,0,1,0,0,0,0,0	test	ward_and_allport	3,1,0,0,0,0,2,0,0	71.0	23.0	0.703	0,0,0,1,2,3,0,0,0	to_hand	s130
346.655	0.412	0	PA_without_intermediate	3,0,0,1,0,0,2,0,0	test	ward_and_allport	3,1,0,0,0,0,2,0,0	82.0	23.0	0.412	0,0,0,1,2,3,0,0,0	to_board	s130
347.074	0.761	0	PA_without_intermediate	3,0,0,0,0,0,2,0,0	test	ward_and_allport	3,1,0,0,0,0,2,0,0	71.0	23.0	0.761	0,0,0,1,2,3,0,0,0	to_hand	s130
347.836	0.57	0	PA_without_intermediate	3,1,0,0,0,0,2,0,0	test	ward_and_allport	3,1,0,0,0,0,2,0,0	89.0	23.0	0.57	0,0,0,1,2,3,0,0,0	to_board	s130
348.413	1.0	0	PA_without_intermediate	n/a	test	ward_and_allport	n/a	-1.0	23.0	n/a	n/a	feedback	s130
349.413	1.68	0	PA_without_intermediate	n/a	test	ward_and_allport	n/a	-1.0	23.0	n/a	n/a	ITI	s130
351.1	2.815	1	PA_without_intermediate	1,2,0,0,0,0,0,0,0	test	ward_and_allport	0,0,0,3,1,0,2,0,0	89.0	24.0	2.815	1,2,3,0,0,0,0,0,0	to_hand	s130
353.916	0.802	0	PA_without_intermediate	1,2,0,3,0,0,0,0,0	test	ward_and_allport	0,0,0,3,1,0,2,0,0	71.0	24.0	0.802	1,2,3,0,0,0,0,0,0	to_board	s130
354.724	0.817	0	PA_without_intermediate	1,0,0,3,0,0,0,0,0	test	ward_and_allport	0,0,0,3,1,0,2,0,0	89.0	24.0	0.817	1,2,3,0,0,0,0,0,0	to_hand	s130
355.542	0.384	0	PA_without_intermediate	1,0,0,3,0,0,2,0,0	test	ward_and_allport	0,0,0,3,1,0,2,0,0	82.0	24.0	0.384	1,2,3,0,0,0,0,0,0	to_board	s130
355.933	0.547	0	PA_without_intermediate	0,0,0,3,0,0,2,0,0	test	ward_and_allport	0,0,0,3,1,0,2,0,0	89.0	24.0	0.547	1,2,3,0,0,0,0,0,0	to_hand	s130
356.48	0.335	0	PA_without_intermediate	0,0,0,3,1,0,2,0,0	test	ward_and_allport	0,0,0,3,1,0,2,0,0	71.0	24.0	0.335	1,2,3,0,0,0,0,0,0	to_board	s130
356.823	1.0	0	PA_without_intermediate	n/a	test	ward_and_allport	n/a	-1.0	24.0	n/a	n/a	feedback	s130
357.823	2.088	0	PA_without_intermediate	n/a	test	ward_and_allport	n/a	-1.0	24.0	n/a	n/a	ITI	s130
359.918	3.637	1	PA_with_intermediate	0,0,0,1,2,0,0,0,0	test	ward_and_allport	0,0,0,1,3,0,2,0,0	71.0	25.0	3.637	0,0,0,1,2,3,0,0,0	to_hand	s130
363.556	0.99	0	PA_with_intermediate	3,0,0,1,2,0,0,0,0	test	ward_and_allport	0,0,0,1,3,0,2,0,0	89.0	25.0	0.99	0,0,0,1,2,3,0,0,0	to_board	s130
364.553	0.51	0	PA_with_intermediate	3,0,0,1,0,0,0,0,0	test	ward_and_allport	0,0,0,1,3,0,2,0,0	71.0	25.0	0.51	0,0,0,1,2,3,0,0,0	to_hand	s130
365.064	0.394	0	PA_with_intermediate	3,0,0,1,0,0,2,0,0	test	ward_and_allport	0,0,0,1,3,0,2,0,0	82.0	25.0	0.394	0,0,0,1,2,3,0,0,0	to_board	s130
365.464	0.594	0	PA_with_intermediate	0,0,0,1,0,0,2,0,0	test	ward_and_allport	0,0,0,1,3,0,2,0,0	89.0	25.0	0.594	0,0,0,1,2,3,0,0,0	to_hand	s130
366.059	0.335	0	PA_with_intermediate	0,0,0,1,3,0,2,0,0	test	ward_and_allport	0,0,0,1,3,0,2,0,0	71.0	25.0	0.335	0,0,0,1,2,3,0,0,0	to_board	s130
366.402	1.0	0	PA_with_intermediate	n/a	test	ward_and_allport	n/a	-1.0	25.0	n/a	n/a	feedback	s130
367.402	1.0	0	PA_with_intermediate	n/a	test	ward_and_allport	n/a	-1.0	25.0	n/a	n/a	ITI	s130
368.408	2.741	1	PA_without_intermediate	0,0,0,0,0,0,1,2,0	test	ward_and_allport	2,0,0,3,1,0,0,0,0	82.0	26.0	2.741	0,0,0,0,0,0,1,2,3	to_hand	s130
371.15	0.608	0	PA_without_intermediate	0,0,0,3,0,0,1,2,0	test	ward_and_allport	2,0,0,3,1,0,0,0,0	71.0	26.0	0.608	0,0,0,0,0,0,1,2,3	to_board	s130
371.764	1.456	0	PA_without_intermediate	0,0,0,3,0,0,1,0,0	test	ward_and_allport	2,0,0,3,1,0,0,0,0	82.0	26.0	1.456	0,0,0,0,0,0,1,2,3	to_hand	s130
373.222	0.325	0	PA_without_intermediate	2,0,0,3,0,0,1,0,0	test	ward_and_allport	2,0,0,3,1,0,0,0,0	89.0	26.0	0.325	0,0,0,0,0,0,1,2,3	to_board	s130
373.553	1.715	0	PA_without_intermediate	2,0,0,3,0,0,0,0,0	test	ward_and_allport	2,0,0,3,1,0,0,0,0	82.0	26.0	1.715	0,0,0,0,0,0,1,2,3	to_hand	s130
375.269	0.371	0	PA_without_intermediate	2,0,0,3,1,0,0,0,0	test	ward_and_allport	2,0,0,3,1,0,0,0,0	71.0	26.0	0.371	0,0,0,0,0,0,1,2,3	to_board	s130
375.648	1.0	0	PA_without_intermediate	n/a	test	ward_and_allport	n/a	-1.0	26.0	n/a	n/a	feedback	s130
376.648	1.0	0	PA_without_intermediate	n/a	test	ward_and_allport	n/a	-1.0	26.0	n/a	n/a	ITI	s130
377.654	2.337	1	PA_without_intermediate	0,0,0,0,0,0,1,2,0	test	ward_and_allport	3,2,0,1,0,0,0,0,0	82.0	27.0	2.337	0,0,0,0,0,0,1,2,3	to_hand	s130
379.992	0.363	0	PA_without_intermediate	3,0,0,0,0,0,1,2,0	test	ward_and_allport	3,2,0,1,0,0,0,0,0	89.0	27.0	0.363	0,0,0,0,0,0,1,2,3	to_board	s130
380.361	2.159	0	PA_without_intermediate	3,0,0,0,0,0,1,0,0	test	ward_and_allport	3,2,0,1,0,0,0,0,0	82.0	27.0	2.159	0,0,0,0,0,0,1,2,3	to_hand	s130
382.522	0.325	0	PA_without_intermediate	3,2,0,0,0,0,1,0,0	test	ward_and_allport	3,2,0,1,0,0,0,0,0	89.0	27.0	0.325	0,0,0,0,0,0,1,2,3	to_board	s130
382.854	0.475	0	PA_without_intermediate	3,2,0,0,0,0,0,0,0	test	ward_and_allport	3,2,0,1,0,0,0,0,0	82.0	27.0	0.475	0,0,0,0,0,0,1,2,3	to_hand	s130
383.33	0.331	0	PA_without_intermediate	3,2,0,1,0,0,0,0,0	test	ward_and_allport	3,2,0,1,0,0,0,0,0	71.0	27.0	0.331	0,0,0,0,0,0,1,2,3	to_board	s130
383.669	1.0	0	PA_without_intermediate	n/a	test	ward_and_allport	n/a	-1.0	27.0	n/a	n/a	feedback	s130
384.669	1.0	0	PA_without_intermediate	n/a	test	ward_and_allport	n/a	-1.0	27.0	n/a	n/a	ITI	s130
385.677	4.291	1	PA_with_intermediate	1,2,0,0,0,0,0,0,0	test	ward_and_allport	1,0,0,0,0,0,2,3,0	89.0	28.0	4.291	1,2,3,0,0,0,0,0,0	to_hand	s130
389.968	0.339	0	PA_with_intermediate	1,2,0,3,0,0,0,0,0	test	ward_and_allport	1,0,0,0,0,0,2,3,0	71.0	28.0	0.339	1,2,3,0,0,0,0,0,0	to_board	s130
390.315	0.689	0	PA_with_intermediate	1,0,0,3,0,0,0,0,0	test	ward_and_allport	1,0,0,0,0,0,2,3,0	89.0	28.0	0.689	1,2,3,0,0,0,0,0,0	to_hand	s130
391.006	0.403	0	PA_with_intermediate	1,0,0,3,0,0,2,0,0	test	ward_and_allport	1,0,0,0,0,0,2,3,0	82.0	28.0	0.403	1,2,3,0,0,0,0,0,0	to_board	s130
391.416	0.677	0	PA_with_intermediate	1,0,0,0,0,0,2,0,0	test	ward_and_allport	1,0,0,0,0,0,2,3,0	71.0	28.0	0.677	1,2,3,0,0,0,0,0,0	to_hand	s130
392.094	0.34	0	PA_with_intermediate	1,0,0,0,0,0,2,3,0	test	ward_and_allport	1,0,0,0,0,0,2,3,0	82.0	28.0	0.34	1,2,3,0,0,0,0,0,0	to_board	s130
392.441	1.0	0	PA_with_intermediate	n/a	test	ward_and_allport	n/a	-1.0	28.0	n/a	n/a	feedback	s130
393.441	1.544	0	PA_with_intermediate	n/a	test	ward_and_allport	n/a	-1.0	28.0	n/a	n/a	ITI	s130
394.992	2.764	1	PA_without_intermediate	1,2,0,0,0,0,0,0,0	test	ward_and_allport	0,0,0,3,1,0,2,0,0	89.0	29.0	2.764	1,2,3,0,0,0,0,0,0	to_hand	s130
397.757	0.362	0	PA_without_intermediate	1,2,0,3,0,0,0,0,0	test	ward_and_allport	0,0,0,3,1,0,2,0,0	71.0	29.0	0.362	1,2,3,0,0,0,0,0,0	to_board	s130
398.127	0.923	0	PA_without_intermediate	1,0,0,3,0,0,0,0,0	test	ward_and_allport	0,0,0,3,1,0,2,0,0	89.0	29.0	0.923	1,2,3,0,0,0,0,0,0	to_hand	s130
399.052	0.368	0	PA_without_intermediate	1,0,0,3,0,0,2,0,0	test	ward_and_allport	0,0,0,3,1,0,2,0,0	82.0	29.0	0.368	1,2,3,0,0,0,0,0,0	to_board	s130
399.428	0.789	0	PA_without_intermediate	0,0,0,3,0,0,2,0,0	test	ward_and_allport	0,0,0,3,1,0,2,0,0	89.0	29.0	0.789	1,2,3,0,0,0,0,0,0	to_hand	s130
400.217	0.315	0	PA_without_intermediate	0,0,0,3,1,0,2,0,0	test	ward_and_allport	0,0,0,3,1,0,2,0,0	71.0	29.0	0.315	1,2,3,0,0,0,0,0,0	to_board	s130
400.542	1.0	0	PA_without_intermediate	n/a	test	ward_and_allport	n/a	-1.0	29.0	n/a	n/a	feedback	s130
401.542	1.272	0	PA_without_intermediate	n/a	test	ward_and_allport	n/a	-1.0	29.0	n/a	n/a	ITI	s130
407.824	4.973	1	PA_with_intermediate	0,0,0,1,2,0,0,0,0	test	ward_and_allport	2,0,0,1,3,0,0,0,0	71.0	30.0	4.973	0,0,0,1,2,3,0,0,0	to_hand	s130
412.798	0.383	0	PA_with_intermediate	0,0,0,1,2,0,3,0,0	test	ward_and_allport	2,0,0,1,3,0,0,0,0	82.0	30.0	0.383	0,0,0,1,2,3,0,0,0	to_board	s130
413.187	0.987	0	PA_with_intermediate	0,0,0,1,0,0,3,0,0	test	ward_and_allport	2,0,0,1,3,0,0,0,0	71.0	30.0	0.987	0,0,0,1,2,3,0,0,0	to_hand	s130
414.175	0.399	0	PA_with_intermediate	2,0,0,1,0,0,3,0,0	test	ward_and_allport	2,0,0,1,3,0,0,0,0	89.0	30.0	0.399	0,0,0,1,2,3,0,0,0	to_board	s130
414.581	1.115	0	PA_with_intermediate	2,0,0,1,0,0,0,0,0	test	ward_and_allport	2,0,0,1,3,0,0,0,0	82.0	30.0	1.115	0,0,0,1,2,3,0,0,0	to_hand	s130
415.698	0.356	0	PA_with_intermediate	2,0,0,1,3,0,0,0,0	test	ward_and_allport	2,0,0,1,3,0,0,0,0	71.0	30.0	0.356	0,0,0,1,2,3,0,0,0	to_board	s130
416.062	1.0	0	PA_with_intermediate	n/a	test	ward_and_allport	n/a	-1.0	30.0	n/a	n/a	feedback	s130
417.062	3.04	0	PA_with_intermediate	n/a	test	ward_and_allport	n/a	-1.0	30.0	n/a	n/a	ITI	s130
420.111	2.92	1	PA_with_intermediate	0,0,0,0,0,0,1,2,0	test	ward_and_allport	2,3,0,0,0,0,1,0,0	82.0	31.0	2.92	0,0,0,0,0,0,1,2,3	to_hand	s130
423.033	0.364	0	PA_with_intermediate	0,0,0,3,0,0,1,2,0	test	ward_and_allport	2,3,0,0,0,0,1,0,0	71.0	31.0	0.364	0,0,0,0,0,0,1,2,3	to_board	s130
423.404	0.927	0	PA_with_intermediate	0,0,0,3,0,0,1,0,0	test	ward_and_allport	2,3,0,0,0,0,1,0,0	82.0	31.0	0.927	0,0,0,0,0,0,1,2,3	to_hand	s130
424.331	0.352	0	PA_with_intermediate	2,0,0,3,0,0,1,0,0	test	ward_and_allport	2,3,0,0,0,0,1,0,0	89.0	31.0	0.352	0,0,0,0,0,0,1,2,3	to_board	s130
424.691	0.545	0	PA_with_intermediate	2,0,0,0,0,0,1,0,0	test	ward_and_allport	2,3,0,0,0,0,1,0,0	71.0	31.0	0.545	0,0,0,0,0,0,1,2,3	to_hand	s130
425.236	0.331	0	PA_with_intermediate	2,3,0,0,0,0,1,0,0	test	ward_and_allport	2,3,0,0,0,0,1,0,0	89.0	31.0	0.331	0,0,0,0,0,0,1,2,3	to_board	s130
425.577	1.0	0	PA_with_intermediate	n/a	test	ward_and_allport	n/a	-1.0	31.0	n/a	n/a	feedback	s130
426.577	1.272	0	PA_with_intermediate	n/a	test	ward_and_allport	n/a	-1.0	31.0	n/a	n/a	ITI	s130
427.857	4.177	1	PA_with_intermediate	1,2,0,0,0,0,0,0,0	test	ward_and_allport	1,0,0,2,3,0,0,0,0	89.0	32.0	4.177	1,2,3,0,0,0,0,0,0	to_hand	s130
432.035	0.4	0	PA_with_intermediate	1,2,0,0,0,0,3,0,0	test	ward_and_allport	1,0,0,2,3,0,0,0,0	82.0	32.0	0.4	1,2,3,0,0,0,0,0,0	to_board	s130
432.444	0.47	0	PA_with_intermediate	1,0,0,0,0,0,3,0,0	test	ward_and_allport	1,0,0,2,3,0,0,0,0	89.0	32.0	0.47	1,2,3,0,0,0,0,0,0	to_hand	s130
432.915	0.337	0	PA_with_intermediate	1,0,0,2,0,0,3,0,0	test	ward_and_allport	1,0,0,2,3,0,0,0,0	71.0	32.0	0.337	1,2,3,0,0,0,0,0,0	to_board	s130
433.26	0.494	0	PA_with_intermediate	1,0,0,2,0,0,0,0,0	test	ward_and_allport	1,0,0,2,3,0,0,0,0	82.0	32.0	0.494	1,2,3,0,0,0,0,0,0	to_hand	s130
433.755	0.332	0	PA_with_intermediate	1,0,0,2,3,0,0,0,0	test	ward_and_allport	1,0,0,2,3,0,0,0,0	71.0	32.0	0.332	1,2,3,0,0,0,0,0,0	to_board	s130
434.097	1.0	0	PA_with_intermediate	n/a	test	ward_and_allport	n/a	-1.0	32.0	n/a	n/a	feedback	s130
435.097	1.136	0	PA_with_intermediate	n/a	test	ward_and_allport	n/a	-1.0	32.0	n/a	n/a	ITI	s130
436.239	3.189	1	PA_with_intermediate	1,2,0,0,0,0,0,0,0	test	ward_and_allport	1,3,0,0,0,0,2,0,0	89.0	33.0	3.189	1,2,3,0,0,0,0,0,0	to_hand	s130
439.43	0.395	0	PA_with_intermediate	1,2,0,3,0,0,0,0,0	test	ward_and_allport	1,3,0,0,0,0,2,0,0	71.0	33.0	0.395	1,2,3,0,0,0,0,0,0	to_board	s130
439.83	0.446	0	PA_with_intermediate	1,0,0,3,0,0,0,0,0	test	ward_and_allport	1,3,0,0,0,0,2,0,0	89.0	33.0	0.446	1,2,3,0,0,0,0,0,0	to_hand	s130
440.277	0.396	0	PA_with_intermediate	1,0,0,3,0,0,2,0,0	test	ward_and_allport	1,3,0,0,0,0,2,0,0	82.0	33.0	0.396	1,2,3,0,0,0,0,0,0	to_board	s130
440.682	0.735	0	PA_with_intermediate	1,0,0,0,0,0,2,0,0	test	ward_and_allport	1,3,0,0,0,0,2,0,0	71.0	33.0	0.735	1,2,3,0,0,0,0,0,0	to_hand	s130
441.417	0.324	0	PA_with_intermediate	1,3,0,0,0,0,2,0,0	test	ward_and_allport	1,3,0,0,0,0,2,0,0	89.0	33.0	0.324	1,2,3,0,0,0,0,0,0	to_board	s130
441.751	1.0	0	PA_with_intermediate	n/a	test	ward_and_allport	n/a	-1.0	33.0	n/a	n/a	feedback	s130
442.751	1.0	0	PA_with_intermediate	n/a	test	ward_and_allport	n/a	-1.0	33.0	n/a	n/a	ITI	s130
443.762	4.842	1	PA_with_intermediate	0,0,0,1,2,0,0,0,0	test	ward_and_allport	2,0,0,1,3,0,0,0,0	71.0	34.0	4.842	0,0,0,1,2,3,0,0,0	to_hand	s130
448.605	0.387	0	PA_with_intermediate	0,0,0,1,2,0,3,0,0	test	ward_and_allport	2,0,0,1,3,0,0,0,0	82.0	34.0	0.387	0,0,0,1,2,3,0,0,0	to_board	s130
448.999	0.524	0	PA_with_intermediate	0,0,0,1,0,0,3,0,0	test	ward_and_allport	2,0,0,1,3,0,0,0,0	71.0	34.0	0.524	0,0,0,1,2,3,0,0,0	to_hand	s130
449.525	0.329	0	PA_with_intermediate	2,0,0,1,0,0,3,0,0	test	ward_and_allport	2,0,0,1,3,0,0,0,0	89.0	34.0	0.329	0,0,0,1,2,3,0,0,0	to_board	s130
449.863	0.622	0	PA_with_intermediate	2,0,0,1,0,0,0,0,0	test	ward_and_allport	2,0,0,1,3,0,0,0,0	82.0	34.0	0.622	0,0,0,1,2,3,0,0,0	to_hand	s130
450.486	0.338	0	PA_with_intermediate	2,0,0,1,3,0,0,0,0	test	ward_and_allport	2,0,0,1,3,0,0,0,0	71.0	34.0	0.338	0,0,0,1,2,3,0,0,0	to_board	s130
450.835	1.0	0	PA_with_intermediate	n/a	test	ward_and_allport	n/a	-1.0	34.0	n/a	n/a	feedback	s130
451.835	1.0	0	PA_with_intermediate	n/a	test	ward_and_allport	n/a	-1.0	34.0	n/a	n/a	ITI	s130
452.843	2.332	1	PA_without_intermediate	1,2,0,0,0,0,0,0,0	test	ward_and_allport	0,0,0,2,0,0,3,1,0	89.0	35.0	2.332	1,2,3,0,0,0,0,0,0	to_hand	s130
455.176	0.374	0	PA_without_intermediate	1,2,0,0,0,0,3,0,0	test	ward_and_allport	0,0,0,2,0,0,3,1,0	82.0	35.0	0.374	1,2,3,0,0,0,0,0,0	to_board	s130
455.557	2.314	0	PA_without_intermediate	1,0,0,0,0,0,3,0,0	test	ward_and_allport	0,0,0,2,0,0,3,1,0	89.0	35.0	2.314	1,2,3,0,0,0,0,0,0	to_hand	s130
457.872	0.395	0	PA_without_intermediate	1,0,0,2,0,0,3,0,0	test	ward_and_allport	0,0,0,2,0,0,3,1,0	71.0	35.0	0.395	1,2,3,0,0,0,0,0,0	to_board	s130
458.272	0.468	0	PA_without_intermediate	0,0,0,2,0,0,3,0,0	test	ward_and_allport	0,0,0,2,0,0,3,1,0	89.0	35.0	0.468	1,2,3,0,0,0,0,0,0	to_hand	s130
458.742	0.395	0	PA_without_intermediate	0,0,0,2,0,0,3,1,0	test	ward_and_allport	0,0,0,2,0,0,3,1,0	82.0	35.0	0.395	1,2,3,0,0,0,0,0,0	to_board	s130
459.147	1.0	0	PA_without_intermediate	n/a	test	ward_and_allport	n/a	-1.0	35.0	n/a	n/a	feedback	s130
460.147	1.408	0	PA_without_intermediate	n/a	test	ward_and_allport	n/a	-1.0	35.0	n/a	n/a	ITI	s130
461.563	4.304	1	PA_with_intermediate	0,0,0,0,0,0,1,2,0	test	ward_and_allport	0,0,0,2,0,0,1,3,0	82.0	36.0	4.304	0,0,0,0,0,0,1,2,3	to_hand	s130
465.869	0.658	0	PA_with_intermediate	3,0,0,0,0,0,1,2,0	test	ward_and_allport	0,0,0,2,0,0,1,3,0	89.0	36.0	0.658	0,0,0,0,0,0,1,2,3	to_board	s130
466.535	0.836	0	PA_with_intermediate	3,0,0,0,0,0,1,0,0	test	ward_and_allport	0,0,0,2,0,0,1,3,0	82.0	36.0	0.836	0,0,0,0,0,0,1,2,3	to_hand	s130
467.373	0.4	0	PA_with_intermediate	3,0,0,2,0,0,1,0,0	test	ward_and_allport	0,0,0,2,0,0,1,3,0	71.0	36.0	0.4	0,0,0,0,0,0,1,2,3	to_board	s130
467.782	1.928	0	PA_with_intermediate	0,0,0,2,0,0,1,0,0	test	ward_and_allport	0,0,0,2,0,0,1,3,0	89.0	36.0	1.928	0,0,0,0,0,0,1,2,3	to_hand	s130
469.711	0.399	0	PA_with_intermediate	0,0,0,2,0,0,1,3,0	test	ward_and_allport	0,0,0,2,0,0,1,3,0	82.0	36.0	0.399	0,0,0,0,0,0,1,2,3	to_board	s130
470.12	1.0	0	PA_with_intermediate	n/a	test	ward_and_allport	n/a	-1.0	36.0	n/a	n/a	feedback	s130
471.12	2.768	0	PA_with_intermediate	n/a	test	ward_and_allport	n/a	-1.0	36.0	n/a	n/a	ITI	s130
473.899	5.551	1	PA_with_intermediate	0,0,0,1,2,0,0,0,0	test	ward_and_allport	2,3,0,1,0,0,0,0,0	71.0	37.0	5.551	0,0,0,1,2,3,0,0,0	to_hand	s130
479.452	0.423	0	PA_with_intermediate	0,0,0,1,2,0,3,0,0	test	ward_and_allport	2,3,0,1,0,0,0,0,0	82.0	37.0	0.423	0,0,0,1,2,3,0,0,0	to_board	s130
479.884	0.441	0	PA_with_intermediate	0,0,0,1,0,0,3,0,0	test	ward_and_allport	2,3,0,1,0,0,0,0,0	71.0	37.0	0.441	0,0,0,1,2,3,0,0,0	to_hand	s130
480.327	0.35	0	PA_with_intermediate	2,0,0,1,0,0,3,0,0	test	ward_and_allport	2,3,0,1,0,0,0,0,0	89.0	37.0	0.35	0,0,0,1,2,3,0,0,0	to_board	s130
480.686	0.706	0	PA_with_intermediate	2,0,0,1,0,0,0,0,0	test	ward_and_allport	2,3,0,1,0,0,0,0,0	82.0	37.0	0.706	0,0,0,1,2,3,0,0,0	to_hand	s130
481.393	0.336	0	PA_with_intermediate	2,3,0,1,0,0,0,0,0	test	ward_and_allport	2,3,0,1,0,0,0,0,0	89.0	37.0	0.336	0,0,0,1,2,3,0,0,0	to_board	s130
481.74	1.0	0	PA_with_intermediate	n/a	test	ward_and_allport	n/a	-1.0	37.0	n/a	n/a	feedback	s130
482.74	1.68	0	PA_with_intermediate	n/a	test	ward_and_allport	n/a	-1.0	37.0	n/a	n/a	ITI	s130
484.428	2.703	1	PA_without_intermediate	0,0,0,1,2,0,0,0,0	test	ward_and_allport	1,0,0,0,0,0,3,2,0	71.0	38.0	2.703	0,0,0,1,2,3,0,0,0	to_hand	s130
487.132	0.421	0	PA_without_intermediate	0,0,0,1,2,0,3,0,0	test	ward_and_allport	1,0,0,0,0,0,3,2,0	82.0	38.0	0.421	0,0,0,1,2,3,0,0,0	to_board	s130
487.56	1.29	0	PA_without_intermediate	0,0,0,1,0,0,3,0,0	test	ward_and_allport	1,0,0,0,0,0,3,2,0	71.0	38.0	1.29	0,0,0,1,2,3,0,0,0	to_hand	s130
488.851	0.307	0	PA_without_intermediate	0,0,0,1,0,0,3,2,0	test	ward_and_allport	1,0,0,0,0,0,3,2,0	82.0	38.0	0.307	0,0,0,1,2,3,0,0,0	to_board	s130
489.167	1.206	0	PA_without_intermediate	0,0,0,0,0,0,3,2,0	test	ward_and_allport	1,0,0,0,0,0,3,2,0	71.0	38.0	1.206	0,0,0,1,2,3,0,0,0	to_hand	s130
490.373	0.312	0	PA_without_intermediate	1,0,0,0,0,0,3,2,0	test	ward_and_allport	1,0,0,0,0,0,3,2,0	89.0	38.0	0.312	0,0,0,1,2,3,0,0,0	to_board	s130
490.696	1.0	0	PA_without_intermediate	n/a	test	ward_and_allport	n/a	-1.0	38.0	n/a	n/a	feedback	s130
491.696	2.224	0	PA_without_intermediate	n/a	test	ward_and_allport	n/a	-1.0	38.0	n/a	n/a	ITI	s130
493.928	3.291	1	PA_without_intermediate	0,0,0,1,2,0,0,0,0	test	ward_and_allport	1,0,0,0,0,0,3,2,0	71.0	39.0	3.291	0,0,0,1,2,3,0,0,0	to_hand	s130
497.22	0.381	0	PA_without_intermediate	0,0,0,1,2,0,3,0,0	test	ward_and_allport	1,0,0,0,0,0,3,2,0	82.0	39.0	0.381	0,0,0,1,2,3,0,0,0	to_board	s130
497.607	0.606	0	PA_without_intermediate	0,0,0,1,0,0,3,0,0	test	ward_and_allport	1,0,0,0,0,0,3,2,0	71.0	39.0	0.606	0,0,0,1,2,3,0,0,0	to_hand	s130
498.215	0.401	0	PA_without_intermediate	0,0,0,1,0,0,3,2,0	test	ward_and_allport	1,0,0,0,0,0,3,2,0	82.0	39.0	0.401	0,0,0,1,2,3,0,0,0	to_board	s130
498.626	0.634	0	PA_without_intermediate	0,0,0,0,0,0,3,2,0	test	ward_and_allport	1,0,0,0,0,0,3,2,0	71.0	39.0	0.634	0,0,0,1,2,3,0,0,0	to_hand	s130
499.261	0.335	0	PA_without_intermediate	1,0,0,0,0,0,3,2,0	test	ward_and_allport	1,0,0,0,0,0,3,2,0	89.0	39.0	0.335	0,0,0,1,2,3,0,0,0	to_board	s130
499.606	1.0	0	PA_without_intermediate	n/a	test	ward_and_allport	n/a	-1.0	39.0	n/a	n/a	feedback	s130
500.606	2.36	0	PA_without_intermediate	n/a	test	ward_and_allport	n/a	-1.0	39.0	n/a	n/a	ITI	s130
502.973	3.473	1	PA_without_intermediate	0,0,0,0,0,0,1,2,0	test	ward_and_allport	2,0,0,3,1,0,0,0,0	82.0	40.0	3.473	0,0,0,0,0,0,1,2,3	to_hand	s130
506.446	0.402	0	PA_without_intermediate	0,0,0,3,0,0,1,2,0	test	ward_and_allport	2,0,0,3,1,0,0,0,0	71.0	40.0	0.402	0,0,0,0,0,0,1,2,3	to_board	s130
506.855	0.973	0	PA_without_intermediate	0,0,0,3,0,0,1,0,0	test	ward_and_allport	2,0,0,3,1,0,0,0,0	82.0	40.0	0.973	0,0,0,0,0,0,1,2,3	to_hand	s130
507.828	0.343	0	PA_without_intermediate	2,0,0,3,0,0,1,0,0	test	ward_and_allport	2,0,0,3,1,0,0,0,0	89.0	40.0	0.343	0,0,0,0,0,0,1,2,3	to_board	s130
508.182	1.088	0	PA_without_intermediate	2,0,0,3,0,0,0,0,0	test	ward_and_allport	2,0,0,3,1,0,0,0,0	82.0	40.0	1.088	0,0,0,0,0,0,1,2,3	to_hand	s130
509.272	0.308	0	PA_without_intermediate	2,0,0,3,1,0,0,0,0	test	ward_and_allport	2,0,0,3,1,0,0,0,0	71.0	40.0	0.308	0,0,0,0,0,0,1,2,3	to_board	s130
509.59	1.0	0	PA_without_intermediate	n/a	test	ward_and_allport	n/a	-1.0	40.0	n/a	n/a	feedback	s130
510.59	1.0	0	PA_without_intermediate	n/a	test	ward_and_allport	n/a	-1.0	40.0	n/a	n/a	ITI	s130
511.598	2.737	1	PA_without_intermediate	0,0,0,1,2,0,0,0,0	test	ward_and_allport	3,2,0,0,0,0,1,0,0	71.0	41.0	2.737	0,0,0,1,2,3,0,0,0	to_hand	s130
514.336	0.32	0	PA_without_intermediate	3,0,0,1,2,0,0,0,0	test	ward_and_allport	3,2,0,0,0,0,1,0,0	89.0	41.0	0.32	0,0,0,1,2,3,0,0,0	to_board	s130
514.663	0.608	0	PA_without_intermediate	3,0,0,1,0,0,0,0,0	test	ward_and_allport	3,2,0,0,0,0,1,0,0	71.0	41.0	0.608	0,0,0,1,2,3,0,0,0	to_hand	s130
515.271	0.355	0	PA_without_intermediate	3,2,0,1,0,0,0,0,0	test	ward_and_allport	3,2,0,0,0,0,1,0,0	89.0	41.0	0.355	0,0,0,1,2,3,0,0,0	to_board	s130
515.636	0.525	0	PA_without_intermediate	3,2,0,0,0,0,0,0,0	test	ward_and_allport	3,2,0,0,0,0,1,0,0	71.0	41.0	0.525	0,0,0,1,2,3,0,0,0	to_hand	s130
516.162	0.338	0	PA_without_intermediate	3,2,0,0,0,0,1,0,0	test	ward_and_allport	3,2,0,0,0,0,1,0,0	82.0	41.0	0.338	0,0,0,1,2,3,0,0,0	to_board	s130
516.509	1.0	0	PA_without_intermediate	n/a	test	ward_and_allport	n/a	-1.0	41.0	n/a	n/a	feedback	s130
517.509	1.408	0	PA_without_intermediate	n/a	test	ward_and_allport	n/a	-1.0	41.0	n/a	n/a	ITI	s130
518.924	3.424	1	PA_with_intermediate	0,0,0,1,2,0,0,0,0	test	ward_and_allport	0,0,0,1,0,0,2,3,0	71.0	42.0	3.424	0,0,0,1,2,3,0,0,0	to_hand	s130
522.348	0.339	0	PA_with_intermediate	3,0,0,1,2,0,0,0,0	test	ward_and_allport	0,0,0,1,0,0,2,3,0	89.0	42.0	0.339	0,0,0,1,2,3,0,0,0	to_board	s130
522.694	0.495	0	PA_with_intermediate	3,0,0,1,0,0,0,0,0	test	ward_and_allport	0,0,0,1,0,0,2,3,0	71.0	42.0	0.495	0,0,0,1,2,3,0,0,0	to_hand	s130
523.19	0.332	0	PA_with_intermediate	3,0,0,1,0,0,2,0,0	test	ward_and_allport	0,0,0,1,0,0,2,3,0	82.0	42.0	0.332	0,0,0,1,2,3,0,0,0	to_board	s130
523.532	0.606	0	PA_with_intermediate	0,0,0,1,0,0,2,0,0	test	ward_and_allport	0,0,0,1,0,0,2,3,0	89.0	42.0	0.606	0,0,0,1,2,3,0,0,0	to_hand	s130
524.138	0.396	0	PA_with_intermediate	0,0,0,1,0,0,2,3,0	test	ward_and_allport	0,0,0,1,0,0,2,3,0	82.0	42.0	0.396	0,0,0,1,2,3,0,0,0	to_board	s130
524.546	1.0	0	PA_with_intermediate	n/a	test	ward_and_allport	n/a	-1.0	42.0	n/a	n/a	feedback	s130
525.546	1.136	0	PA_with_intermediate	n/a	test	ward_and_allport	n/a	-1.0	42.0	n/a	n/a	ITI	s130
526.69	2.105	1	PA_without_intermediate	1,2,0,0,0,0,0,0,0	test	ward_and_allport	0,0,0,1,0,0,3,2,0	89.0	43.0	2.105	1,2,3,0,0,0,0,0,0	to_hand	s130
528.797	0.424	0	PA_without_intermediate	1,2,0,0,0,0,3,0,0	test	ward_and_allport	0,0,0,1,0,0,3,2,0	82.0	43.0	0.424	1,2,3,0,0,0,0,0,0	to_board	s130
529.229	2.114	0	PA_without_intermediate	1,0,0,0,0,0,3,0,0	test	ward_and_allport	0,0,0,1,0,0,3,2,0	89.0	43.0	2.114	1,2,3,0,0,0,0,0,0	to_hand	s130
531.343	0.383	0	PA_without_intermediate	1,0,0,0,0,0,3,2,0	test	ward_and_allport	0,0,0,1,0,0,3,2,0	82.0	43.0	0.383	1,2,3,0,0,0,0,0,0	to_board	s130
531.734	1.088	0	PA_without_intermediate	0,0,0,0,0,0,3,2,0	test	ward_and_allport	0,0,0,1,0,0,3,2,0	89.0	43.0	1.088	1,2,3,0,0,0,0,0,0	to_hand	s130
532.823	0.316	0	PA_without_intermediate	0,0,0,1,0,0,3,2,0	test	ward_and_allport	0,0,0,1,0,0,3,2,0	71.0	43.0	0.316	1,2,3,0,0,0,0,0,0	to_board	s130
533.149	1.0	0	PA_without_intermediate	n/a	test	ward_and_allport	n/a	-1.0	43.0	n/a	n/a	feedback	s130
534.149	4.128	0	PA_without_intermediate	n/a	test	ward_and_allport	n/a	-1.0	43.0	n/a	n/a	ITI	s130
538.287	2.364	1	PA_without_intermediate	1,2,0,0,0,0,0,0,0	test	ward_and_allport	0,0,0,2,0,0,3,1,0	89.0	44.0	2.364	1,2,3,0,0,0,0,0,0	to_hand	s130
540.652	0.336	0	PA_without_intermediate	1,2,0,0,0,0,3,0,0	test	ward_and_allport	0,0,0,2,0,0,3,1,0	82.0	44.0	0.336	1,2,3,0,0,0,0,0,0	to_board	s130
540.999	0.771	0	PA_without_intermediate	1,0,0,0,0,0,3,0,0	test	ward_and_allport	0,0,0,2,0,0,3,1,0	89.0	44.0	0.771	1,2,3,0,0,0,0,0,0	to_hand	s130
541.77	0.312	0	PA_without_intermediate	1,0,0,2,0,0,3,0,0	test	ward_and_allport	0,0,0,2,0,0,3,1,0	71.0	44.0	0.312	1,2,3,0,0,0,0,0,0	to_board	s130
542.094	0.559	0	PA_without_intermediate	0,0,0,2,0,0,3,0,0	test	ward_and_allport	0,0,0,2,0,0,3,1,0	89.0	44.0	0.559	1,2,3,0,0,0,0,0,0	to_hand	s130
542.654	0.32	0	PA_without_intermediate	0,0,0,2,0,0,3,1,0	test	ward_and_allport	0,0,0,2,0,0,3,1,0	82.0	44.0	0.32	1,2,3,0,0,0,0,0,0	to_board	s130
542.983	1.0	0	PA_without_intermediate	n/a	test	ward_and_allport	n/a	-1.0	44.0	n/a	n/a	feedback	s130
543.983	1.136	0	PA_without_intermediate	n/a	test	ward_and_allport	n/a	-1.0	44.0	n/a	n/a	ITI	s130
550.128	2.807	1	PA_without_intermediate	0,0,0,0,0,0,1,2,0	test	ward_and_allport	1,0,0,3,2,0,0,0,0	82.0	45.0	2.807	0,0,0,0,0,0,1,2,3	to_hand	s130
552.936	0.446	0	PA_without_intermediate	0,0,0,3,0,0,1,2,0	test	ward_and_allport	1,0,0,3,2,0,0,0,0	71.0	45.0	0.446	0,0,0,0,0,0,1,2,3	to_board	s130
553.393	1.735	0	PA_without_intermediate	0,0,0,3,0,0,1,0,0	test	ward_and_allport	1,0,0,3,2,0,0,0,0	82.0	45.0	1.735	0,0,0,0,0,0,1,2,3	to_hand	s130
555.128	0.383	0	PA_without_intermediate	0,0,0,3,2,0,1,0,0	test	ward_and_allport	1,0,0,3,2,0,0,0,0	71.0	45.0	0.383	0,0,0,0,0,0,1,2,3	to_board	s130
555.522	0.402	0	PA_without_intermediate	0,0,0,3,2,0,0,0,0	test	ward_and_allport	1,0,0,3,2,0,0,0,0	82.0	45.0	0.402	0,0,0,0,0,0,1,2,3	to_hand	s130
555.925	0.308	0	PA_without_intermediate	1,0,0,3,2,0,0,0,0	test	ward_and_allport	1,0,0,3,2,0,0,0,0	89.0	45.0	0.308	0,0,0,0,0,0,1,2,3	to_board	s130
556.243	1.0	0	PA_without_intermediate	n/a	test	ward_and_allport	n/a	-1.0	45.0	n/a	n/a	feedback	s130
557.243	4.264	0	PA_without_intermediate	n/a	test	ward_and_allport	n/a	-1.0	45.0	n/a	n/a	ITI	s130
n/a	n/a	0	n/a	n/a	n/a	n/a	n/a	n/a	n/a	n/a	n/a	ITI	n/a
