onset	duration	EV	action	clicked_on_loss_card	experiment_exp_id	gain_amount	gain_probability	key_press	loss_amount	loss_probability	num_cards	num_click_in_round	num_loss_cards	risk	response_time	total_cards	trial_id	worker_id
3.008	1.865	-1.005346415900661	draw_card	1.0	columbia_card_task_fmri	12.0	0.8333333333333334	89.0	-70.0	0.1666666666666666	6.0	1.0	1.0	-0.919109371514928	1.865	1.0	stim	s130
4.876	2.25	n/a	-1.0	n/a	columbia_card_task_fmri	n/a	n/a	-1.0	n/a	n/a	n/a	n/a	n/a	n/a	n/a	n/a	feedback	s130
7.126	0.0	n/a	-1.0	n/a	columbia_card_task_fmri	n/a	n/a	-1.0	n/a	n/a	n/a	n/a	n/a	n/a	n/a	n/a	ITI	s130
7.127	2.115	-0.1720130825673272	draw_card	0.0	columbia_card_task_fmri	14.0	0.8333333333333334	89.0	-75.0	0.1666666666666666	6.0	1.0	1.0	1.6890739847159004	2.115	n/a	stim	s130
9.243	1.61	-3.138679749233994	draw_card	1.0	columbia_card_task_fmri	14.0	0.8	89.0	-75.0	0.2	6.0	2.0	1.0	4.120282122478546	1.61	2.0	stim	s130
10.855	2.25	n/a	-1.0	n/a	columbia_card_task_fmri	n/a	n/a	-1.0	n/a	n/a	n/a	n/a	n/a	n/a	n/a	n/a	feedback	s130
13.105	0.136	n/a	-1.0	n/a	columbia_card_task_fmri	n/a	n/a	-1.0	n/a	n/a	n/a	n/a	n/a	n/a	n/a	n/a	ITI	s130
13.242	2.618	1.494653584099339	draw_card	1.0	columbia_card_task_fmri	15.0	0.8333333333333334	89.0	-70.0	0.1666666666666666	6.0	1.0	1.0	0.1986721522303902	2.618	1.0	stim	s130
15.864	2.25	n/a	-1.0	n/a	columbia_card_task_fmri	n/a	n/a	-1.0	n/a	n/a	n/a	n/a	n/a	n/a	n/a	n/a	feedback	s130
18.114	0.34	n/a	-1.0	n/a	columbia_card_task_fmri	n/a	n/a	-1.0	n/a	n/a	n/a	n/a	n/a	n/a	n/a	n/a	ITI	s130
18.456	4.474	2.3279869174326726	draw_card	0.0	columbia_card_task_fmri	17.0	0.8333333333333334	89.0	-75.0	0.1666666666666666	6.0	1.0	1.0	2.806893052873047	4.474	n/a	stim	s130
22.932	2.374	-0.7386797492339937	draw_card	0.0	columbia_card_task_fmri	17.0	0.8	89.0	-75.0	0.2	6.0	2.0	1.0	5.320081874417991	2.374	n/a	stim	s130
25.307	2.739	-5.338679749233995	draw_card	0.0	columbia_card_task_fmri	17.0	0.75	89.0	-75.0	0.25	6.0	3.0	1.0	8.356797520780464	2.739	n/a	stim	s130
28.048	1.131	-13.00534641590066	end_round	0.0	columbia_card_task_fmri	17.0	0.6666666666666667	71.0	-75.0	0.3333333333333333	6.0	4.0	1.0	11.888397900674423	1.131	3.0	stim	s130
29.181	2.25	n/a	-1.0	n/a	columbia_card_task_fmri	n/a	n/a	-1.0	n/a	n/a	n/a	n/a	n/a	n/a	n/a	n/a	feedback	s130
31.431	0.408	n/a	-1.0	n/a	columbia_card_task_fmri	n/a	n/a	-1.0	n/a	n/a	n/a	n/a	n/a	n/a	n/a	n/a	ITI	s130
31.839	2.779	3.6613202507660048	draw_card	0.0	columbia_card_task_fmri	24.0	0.75	89.0	-60.0	0.25	8.0	1.0	2.0	4.893218563299445	2.779	n/a	stim	s130
34.619	3.353	0.6613202507660049	draw_card	0.0	columbia_card_task_fmri	24.0	0.7142857142857143	89.0	-60.0	0.2857142857142857	8.0	2.0	2.0	6.4672341777035705	3.353	n/a	stim	s130
37.975	1.729	-3.3386797492339952	draw_card	0.0	columbia_card_task_fmri	24.0	0.6666666666666667	89.0	-60.0	0.3333333333333333	8.0	3.0	2.0	8.117641843083323	1.729	n/a	stim	s130
39.706	3.277	-8.938679749233996	draw_card	0.0	columbia_card_task_fmri	24.0	0.6	89.0	-60.0	0.4	8.0	4.0	2.0	9.670881352721404	3.277	n/a	stim	s130
42.985	1.346	-17.338679749233997	end_round	0.0	columbia_card_task_fmri	24.0	0.5	71.0	-60.0	0.5	8.0	5.0	2.0	10.519346332901453	1.346	4.0	stim	s130
44.333	2.25	n/a	-1.0	n/a	columbia_card_task_fmri	n/a	n/a	-1.0	n/a	n/a	n/a	n/a	n/a	n/a	n/a	n/a	feedback	s130
46.583	0.136	n/a	-1.0	n/a	columbia_card_task_fmri	n/a	n/a	-1.0	n/a	n/a	n/a	n/a	n/a	n/a	n/a	n/a	ITI	s130
46.72	2.585	3.6613202507660048	draw_card	0.0	columbia_card_task_fmri	29.0	0.75	89.0	-75.0	0.25	8.0	1.0	2.0	13.552316696259483	2.585	n/a	stim	s130
49.306	2.319	-0.0529654635197068	draw_card	0.0	columbia_card_task_fmri	29.0	0.7142857142857143	89.0	-75.0	0.2857142857142857	8.0	2.0	2.0	15.501205236894515	2.319	n/a	stim	s130
51.628	2.495	-5.005346415900659	draw_card	0.0	columbia_card_task_fmri	29.0	0.6666666666666667	89.0	-75.0	0.3333333333333333	8.0	3.0	2.0	17.544670458748552	2.495	n/a	stim	s130
54.124	2.116	-11.938679749233996	draw_card	0.0	columbia_card_task_fmri	29.0	0.6	89.0	-75.0	0.4	8.0	4.0	2.0	19.467818593198263	2.116	n/a	stim	s130
56.242	2.083	-22.338679749234	end_round	0.0	columbia_card_task_fmri	29.0	0.5	71.0	-75.0	0.5	8.0	5.0	2.0	20.518345239037902	2.083	4.0	stim	s130
58.328	2.25	n/a	-1.0	n/a	columbia_card_task_fmri	n/a	n/a	-1.0	n/a	n/a	n/a	n/a	n/a	n/a	n/a	n/a	feedback	s130
60.578	0.136	n/a	-1.0	n/a	columbia_card_task_fmri	n/a	n/a	-1.0	n/a	n/a	n/a	n/a	n/a	n/a	n/a	n/a	ITI	s130
60.715	2.31	-0.5609019714562148	draw_card	0.0	columbia_card_task_fmri	17.0	0.7777777777777778	89.0	-65.0	0.2222222222222222	9.0	1.0	2.0	2.611210194196399	2.31	n/a	stim	s130
63.028	2.087	-2.8386797492339952	draw_card	0.0	columbia_card_task_fmri	17.0	0.75	89.0	-65.0	0.25	9.0	2.0	2.0	4.027339754652441	2.087	n/a	stim	s130
65.117	1.924	-5.767251177805422	draw_card	0.0	columbia_card_task_fmri	17.0	0.7142857142857143	89.0	-65.0	0.2857142857142857	9.0	3.0	2.0	5.563866791258899	1.924	n/a	stim	s130
67.044	2.646	-9.672013082567323	draw_card	0.0	columbia_card_task_fmri	17.0	0.6666666666666667	89.0	-65.0	0.3333333333333333	9.0	4.0	2.0	7.174967463076566	2.646	n/a	stim	s130
69.692	1.98	-15.138679749233996	draw_card	1.0	columbia_card_task_fmri	17.0	0.6	89.0	-65.0	0.4	9.0	5.0	2.0	8.691215035826136	1.98	5.0	stim	s130
71.674	2.25	n/a	-1.0	n/a	columbia_card_task_fmri	n/a	n/a	-1.0	n/a	n/a	n/a	n/a	n/a	n/a	n/a	n/a	feedback	s130
73.924	0.0	n/a	-1.0	n/a	columbia_card_task_fmri	n/a	n/a	-1.0	n/a	n/a	n/a	n/a	n/a	n/a	n/a	n/a	ITI	s130
73.926	2.152	3.761320250766005	draw_card	0.0	columbia_card_task_fmri	14.0	0.9	89.0	-95.0	0.1	10.0	1.0	1.0	1.2208267144727394	2.152	n/a	stim	s130
76.08	1.054	2.5502091396548923	draw_card	0.0	columbia_card_task_fmri	14.0	0.8888888888888888	89.0	-95.0	0.1111111111111111	10.0	2.0	1.0	2.7759183418264435	1.054	n/a	stim	s130
77.137	1.424	1.0363202507660048	draw_card	0.0	columbia_card_task_fmri	14.0	0.875	89.0	-95.0	0.125	10.0	3.0	1.0	4.56856735645523	1.424	n/a	stim	s130
78.562	2.068	-0.9101083206625664	draw_card	1.0	columbia_card_task_fmri	14.0	0.8571428571428572	89.0	-95.0	0.1428571428571428	10.0	4.0	1.0	6.6619274097554815	2.068	4.0	stim	s130
80.634	2.25	n/a	-1.0	n/a	columbia_card_task_fmri	n/a	n/a	-1.0	n/a	n/a	n/a	n/a	n/a	n/a	n/a	n/a	feedback	s130
82.884	0.068	n/a	-1.0	n/a	columbia_card_task_fmri	n/a	n/a	-1.0	n/a	n/a	n/a	n/a	n/a	n/a	n/a	n/a	ITI	s130
82.953	3.422	-0.3386797492339951	draw_card	1.0	columbia_card_task_fmri	15.0	0.8	89.0	-65.0	0.2	10.0	1.0	2.0	0.5209729516603225	3.422	1.0	stim	s130
86.379	2.25	n/a	-1.0	n/a	columbia_card_task_fmri	n/a	n/a	-1.0	n/a	n/a	n/a	n/a	n/a	n/a	n/a	n/a	feedback	s130
88.629	0.0	n/a	-1.0	n/a	columbia_card_task_fmri	n/a	n/a	-1.0	n/a	n/a	n/a	n/a	n/a	n/a	n/a	n/a	ITI	s130
88.63	2.858	1.2613202507660062	draw_card	1.0	columbia_card_task_fmri	17.0	0.8	89.0	-65.0	0.2	10.0	1.0	2.0	1.3208063328264323	2.858	1.0	stim	s130
91.492	2.25	n/a	-1.0	n/a	columbia_card_task_fmri	n/a	n/a	-1.0	n/a	n/a	n/a	n/a	n/a	n/a	n/a	n/a	feedback	s130
93.742	0.0	n/a	-1.0	n/a	columbia_card_task_fmri	n/a	n/a	-1.0	n/a	n/a	n/a	n/a	n/a	n/a	n/a	n/a	ITI	s130
93.744	2.743	-0.1720130825673272	draw_card	1.0	columbia_card_task_fmri	13.0	0.8333333333333334	89.0	-70.0	0.1666666666666666	12.0	1.0	2.0	-0.5465175574055969	2.743	1.0	stim	s130
96.491	2.25	n/a	-1.0	n/a	columbia_card_task_fmri	n/a	n/a	-1.0	n/a	n/a	n/a	n/a	n/a	n/a	n/a	n/a	feedback	s130
98.741	0.136	n/a	-1.0	n/a	columbia_card_task_fmri	n/a	n/a	-1.0	n/a	n/a	n/a	n/a	n/a	n/a	n/a	n/a	ITI	s130
98.879	3.172	-0.1720130825673272	end_round	0.0	columbia_card_task_fmri	15.0	0.8333333333333334	71.0	-80.0	0.1666666666666666	12.0	1.0	2.0	3.9247256912931223	3.172	0.0	stim	s130
102.054	2.25	n/a	-1.0	n/a	columbia_card_task_fmri	n/a	n/a	-1.0	n/a	n/a	n/a	n/a	n/a	n/a	n/a	n/a	feedback	s130
104.304	0.136	n/a	-1.0	n/a	columbia_card_task_fmri	n/a	n/a	-1.0	n/a	n/a	n/a	n/a	n/a	n/a	n/a	n/a	ITI	s130
104.441	3.048	-1.1386797492339942	draw_card	0.0	columbia_card_task_fmri	14.0	0.8	89.0	-65.0	0.2	15.0	1.0	3.0	0.1210594237042208	3.048	n/a	stim	s130
107.49	1.684	-2.2672511778054223	draw_card	1.0	columbia_card_task_fmri	14.0	0.7857142857142857	89.0	-65.0	0.2142857142857142	15.0	2.0	3.0	0.9366316992019	1.684	2.0	stim	s130
109.177	2.25	n/a	-1.0	n/a	columbia_card_task_fmri	n/a	n/a	-1.0	n/a	n/a	n/a	n/a	n/a	n/a	n/a	n/a	feedback	s130
111.427	0.476	n/a	-1.0	n/a	columbia_card_task_fmri	n/a	n/a	-1.0	n/a	n/a	n/a	n/a	n/a	n/a	n/a	n/a	ITI	s130
111.906	4.697	-1.2136797492339952	end_round	0.0	columbia_card_task_fmri	1.0	0.9375	71.0	-45.0	0.0625	16.0	1.0	1.0	-20.33141140986745	4.697	0.0	stim	s130
116.606	2.25	n/a	-1.0	n/a	columbia_card_task_fmri	n/a	n/a	-1.0	n/a	n/a	n/a	n/a	n/a	n/a	n/a	n/a	feedback	s130
118.856	0.204	n/a	-1.0	n/a	columbia_card_task_fmri	n/a	n/a	-1.0	n/a	n/a	n/a	n/a	n/a	n/a	n/a	n/a	ITI	s130
119.063	4.056	-0.2761797492339951	draw_card	1.0	columbia_card_task_fmri	15.0	0.8125	89.0	-70.0	0.1875	16.0	1.0	3.0	1.6972825539267085	4.056	1.0	stim	s130
123.123	2.25	n/a	-1.0	n/a	columbia_card_task_fmri	n/a	n/a	-1.0	n/a	n/a	n/a	n/a	n/a	n/a	n/a	n/a	feedback	s130
125.373	0.068	n/a	-1.0	n/a	columbia_card_task_fmri	n/a	n/a	-1.0	n/a	n/a	n/a	n/a	n/a	n/a	n/a	n/a	ITI	s130
125.443	4.149	6.661320250766005	end_round	0.0	columbia_card_task_fmri	30.0	0.7	71.0	-50.0	0.3	10.0	1.0	3.0	5.180710022496076	4.149	0.0	stim	s130
129.595	2.25	n/a	-1.0	n/a	columbia_card_task_fmri	n/a	n/a	-1.0	n/a	n/a	n/a	n/a	n/a	n/a	n/a	n/a	feedback	s130
131.845	0.068	n/a	-1.0	n/a	columbia_card_task_fmri	n/a	n/a	-1.0	n/a	n/a	n/a	n/a	n/a	n/a	n/a	n/a	ITI	s130
131.916	4.184	6.061320250766006	draw_card	0.0	columbia_card_task_fmri	17.0	0.8666666666666667	89.0	-70.0	0.1333333333333333	15.0	1.0	2.0	-1.9041535794293625	4.184	n/a	stim	s130
136.103	2.02	5.232748822194578	draw_card	0.0	columbia_card_task_fmri	17.0	0.8571428571428572	89.0	-70.0	0.1428571428571428	15.0	2.0	2.0	-1.0350195914753009	2.02	n/a	stim	s130
138.125	1.946	4.27670486615062	draw_card	0.0	columbia_card_task_fmri	17.0	0.8461538461538461	89.0	-70.0	0.1538461538461538	15.0	3.0	2.0	-0.089188761619777	1.946	n/a	stim	s130
140.073	3.478	3.1613202507660065	draw_card	0.0	columbia_card_task_fmri	17.0	0.8333333333333334	89.0	-70.0	0.1666666666666666	15.0	4.0	2.0	0.9438695046140176	3.478	n/a	stim	s130
143.553	2.951	1.8431384325841849	end_round	0.0	columbia_card_task_fmri	17.0	0.8181818181818181	71.0	-70.0	0.1818181818181818	15.0	5.0	2.0	2.076087176595774	2.951	4.0	stim	s130
146.508	2.25	n/a	-1.0	n/a	columbia_card_task_fmri	n/a	n/a	-1.0	n/a	n/a	n/a	n/a	n/a	n/a	n/a	n/a	feedback	s130
148.758	0.34	n/a	-1.0	n/a	columbia_card_task_fmri	n/a	n/a	-1.0	n/a	n/a	n/a	n/a	n/a	n/a	n/a	n/a	ITI	s130
149.1	3.94	1.2863202507660048	draw_card	0.0	columbia_card_task_fmri	7.0	0.9375	89.0	-95.0	0.0625	16.0	1.0	1.0	-6.786735965810465	3.94	n/a	stim	s130
153.043	2.561	0.861320250766005	draw_card	0.0	columbia_card_task_fmri	7.0	0.9333333333333332	89.0	-95.0	0.0666666666666666	16.0	2.0	1.0	-6.033996545277606	2.561	n/a	stim	s130
155.606	2.195	0.3756059650517193	draw_card	0.0	columbia_card_task_fmri	7.0	0.9285714285714286	89.0	-95.0	0.0714285714285714	16.0	3.0	1.0	-5.208520368780526	2.195	n/a	stim	s130
157.804	2.771	-0.1848335953878418	draw_card	0.0	columbia_card_task_fmri	7.0	0.9230769230769232	89.0	-95.0	0.0769230769230769	16.0	4.0	1.0	-4.297941432164798	2.771	n/a	stim	s130
160.576	1.988	-0.8386797492339951	draw_card	0.0	columbia_card_task_fmri	7.0	0.9166666666666666	89.0	-95.0	0.0833333333333333	16.0	5.0	1.0	-3.286793450335555	1.988	n/a	stim	s130
162.567	2.251	-1.6114070219612686	draw_card	0.0	columbia_card_task_fmri	7.0	0.9090909090909092	89.0	-95.0	0.0909090909090909	16.0	6.0	1.0	-2.155465092851056	2.251	n/a	stim	s130
164.819	2.732	-2.5386797492339954	draw_card	1.0	columbia_card_task_fmri	7.0	0.9	89.0	-95.0	0.1	16.0	7.0	1.0	-0.8787145089689936	2.732	7.0	stim	s130
167.555	2.25	n/a	-1.0	n/a	columbia_card_task_fmri	n/a	n/a	-1.0	n/a	n/a	n/a	n/a	n/a	n/a	n/a	n/a	feedback	s130
169.805	0.476	n/a	-1.0	n/a	columbia_card_task_fmri	n/a	n/a	-1.0	n/a	n/a	n/a	n/a	n/a	n/a	n/a	n/a	ITI	s130
170.283	3.856	2.8488202507660048	draw_card	0.0	columbia_card_task_fmri	9.0	0.9375	89.0	-100.0	0.0625	16.0	1.0	1.0	-5.0928742387253685	3.856	n/a	stim	s130
174.141	2.678	2.394653584099338	draw_card	0.0	columbia_card_task_fmri	9.0	0.9333333333333332	89.0	-100.0	0.0666666666666666	16.0	2.0	1.0	-4.28844144333209	2.678	n/a	stim	s130
176.822	2.539	1.87560596505172	draw_card	0.0	columbia_card_task_fmri	9.0	0.9285714285714286	89.0	-100.0	0.0714285714285714	16.0	3.0	1.0	-3.406279083701264	2.539	n/a	stim	s130
179.364	3.41	1.2767048661506206	draw_card	0.0	columbia_card_task_fmri	9.0	0.9230769230769232	89.0	-100.0	0.0769230769230769	16.0	4.0	1.0	-2.433172407555819	3.41	n/a	stim	s130
182.776	2.417	0.5779869174326727	draw_card	0.0	columbia_card_task_fmri	9.0	0.9166666666666666	89.0	-100.0	0.0833333333333333	16.0	5.0	1.0	-1.3525936016592863	2.417	n/a	stim	s130
185.195	1.967	-0.2477706583249052	end_round	0.0	columbia_card_task_fmri	9.0	0.9090909090909092	71.0	-100.0	0.0909090909090909	16.0	6.0	1.0	-0.1435853248770087	1.967	5.0	stim	s130
187.165	2.25	n/a	-1.0	n/a	columbia_card_task_fmri	n/a	n/a	-1.0	n/a	n/a	n/a	n/a	n/a	n/a	n/a	n/a	feedback	s130
189.415	0.272	n/a	-1.0	n/a	columbia_card_task_fmri	n/a	n/a	-1.0	n/a	n/a	n/a	n/a	n/a	n/a	n/a	n/a	ITI	s130
189.69	2.583	3.7863202507660048	draw_card	0.0	columbia_card_task_fmri	15.0	0.875	89.0	-80.0	0.125	16.0	1.0	2.0	-0.0606037497574476	2.583	n/a	stim	s130
192.275	1.919	2.9946535840993387	draw_card	1.0	columbia_card_task_fmri	15.0	0.8666666666666667	89.0	-80.0	0.1333333333333333	16.0	2.0	2.0	0.8147010568367641	1.919	2.0	stim	s130
194.198	2.25	n/a	-1.0	n/a	columbia_card_task_fmri	n/a	n/a	-1.0	n/a	n/a	n/a	n/a	n/a	n/a	n/a	n/a	feedback	s130
196.448	0.884	n/a	-1.0	n/a	columbia_card_task_fmri	n/a	n/a	-1.0	n/a	n/a	n/a	n/a	n/a	n/a	n/a	n/a	ITI	s130
197.335	2.819	5.911320250766005	draw_card	0.0	columbia_card_task_fmri	16.0	0.875	89.0	-70.0	0.125	16.0	1.0	2.0	-3.0363458677792607	2.819	n/a	stim	s130
200.155	1.518	5.194653584099338	draw_card	0.0	columbia_card_task_fmri	16.0	0.8666666666666667	89.0	-70.0	0.1333333333333333	16.0	2.0	2.0	-2.2440022696226087	1.518	n/a	stim	s130
201.675	2.395	4.3756059650517205	draw_card	0.0	columbia_card_task_fmri	16.0	0.8571428571428572	89.0	-70.0	0.1428571428571428	16.0	3.0	2.0	-1.384863205965214	2.395	n/a	stim	s130
204.072	2.108	3.430551019996773	draw_card	0.0	columbia_card_task_fmri	16.0	0.8461538461538461	89.0	-70.0	0.1538461538461538	16.0	4.0	2.0	-0.4499089969064975	2.108	n/a	stim	s130
206.182	2.022	2.3279869174326726	draw_card	0.0	columbia_card_task_fmri	16.0	0.8333333333333334	89.0	-70.0	0.1666666666666666	16.0	5.0	2.0	0.5712699063903734	2.022	n/a	stim	s130
208.206	2.0	1.0249566144023663	draw_card	0.0	columbia_card_task_fmri	16.0	0.8181818181818181	89.0	-70.0	0.1818181818181818	16.0	6.0	2.0	1.6904683224731123	2.0	n/a	stim	s130
210.208	2.358	-0.5386797492339944	draw_card	0.0	columbia_card_task_fmri	16.0	0.8	89.0	-70.0	0.2	16.0	7.0	2.0	2.920496337590468	2.358	n/a	stim	s130
212.57	1.624	-2.449790860345106	end_round	0.0	columbia_card_task_fmri	16.0	0.7777777777777778	71.0	-70.0	0.2222222222222222	16.0	8.0	2.0	4.273870767356595	1.624	7.0	stim	s130
214.197	2.25	n/a	-1.0	n/a	columbia_card_task_fmri	n/a	n/a	-1.0	n/a	n/a	n/a	n/a	n/a	n/a	n/a	n/a	feedback	s130
216.447	0.136	n/a	-1.0	n/a	columbia_card_task_fmri	n/a	n/a	-1.0	n/a	n/a	n/a	n/a	n/a	n/a	n/a	n/a	ITI	s130
216.585	3.604	7.223820250766005	draw_card	0.0	columbia_card_task_fmri	30.0	0.6875	89.0	-45.0	0.3125	16.0	1.0	5.0	3.283860308128876	3.604	n/a	stim	s130
220.192	2.37	5.661320250766009	draw_card	0.0	columbia_card_task_fmri	30.0	0.6666666666666667	89.0	-45.0	0.3333333333333333	16.0	2.0	5.0	3.875663677029859	2.37	n/a	stim	s130
222.564	2.865	3.875605965051717	draw_card	0.0	columbia_card_task_fmri	30.0	0.6428571428571428	89.0	-45.0	0.3571428571428571	16.0	3.0	5.0	4.457031349970787	2.865	n/a	stim	s130
225.431	2.256	1.815166404612158	end_round	0.0	columbia_card_task_fmri	30.0	0.6153846153846154	71.0	-45.0	0.3846153846153846	16.0	4.0	5.0	5.007951857630626	2.256	3.0	stim	s130
227.692	2.25	n/a	-1.0	n/a	columbia_card_task_fmri	n/a	n/a	-1.0	n/a	n/a	n/a	n/a	n/a	n/a	n/a	n/a	feedback	s130
229.942	0.136	n/a	-1.0	n/a	columbia_card_task_fmri	n/a	n/a	-1.0	n/a	n/a	n/a	n/a	n/a	n/a	n/a	n/a	ITI	s130
230.08	2.673	-1.005346415900661	draw_card	1.0	columbia_card_task_fmri	13.0	0.8333333333333334	89.0	-75.0	0.1666666666666666	6.0	1.0	1.0	1.3164708840615198	2.673	1.0	stim	s130
232.755	2.25	n/a	-1.0	n/a	columbia_card_task_fmri	n/a	n/a	-1.0	n/a	n/a	n/a	n/a	n/a	n/a	n/a	n/a	feedback	s130
235.005	0.068	n/a	-1.0	n/a	columbia_card_task_fmri	n/a	n/a	-1.0	n/a	n/a	n/a	n/a	n/a	n/a	n/a	n/a	ITI	s130
235.077	1.718	0.6613202507660066	end_round	0.0	columbia_card_task_fmri	14.0	0.8333333333333334	71.0	-70.0	0.1666666666666666	6.0	1.0	1.0	-0.1739236920353768	1.718	0.0	stim	s130
236.798	2.25	n/a	-1.0	n/a	columbia_card_task_fmri	n/a	n/a	-1.0	n/a	n/a	n/a	n/a	n/a	n/a	n/a	n/a	feedback	s130
239.048	0.068	n/a	-1.0	n/a	columbia_card_task_fmri	n/a	n/a	-1.0	n/a	n/a	n/a	n/a	n/a	n/a	n/a	n/a	ITI	s130
239.119	2.031	0.6613202507660066	end_round	0.0	columbia_card_task_fmri	16.0	0.8333333333333334	71.0	-80.0	0.1666666666666666	6.0	1.0	1.0	4.297339366569549	2.031	0.0	stim	s130
241.154	2.25	n/a	-1.0	n/a	columbia_card_task_fmri	n/a	n/a	-1.0	n/a	n/a	n/a	n/a	n/a	n/a	n/a	n/a	feedback	s130
243.404	0.612	n/a	-1.0	n/a	columbia_card_task_fmri	n/a	n/a	-1.0	n/a	n/a	n/a	n/a	n/a	n/a	n/a	n/a	ITI	s130
244.018	3.283	3.1613202507660065	draw_card	0.0	columbia_card_task_fmri	17.0	0.8333333333333334	89.0	-70.0	0.1666666666666666	6.0	1.0	1.0	0.9438695046140176	3.283	n/a	stim	s130
247.303	2.321	0.2613202507660063	end_round	0.0	columbia_card_task_fmri	17.0	0.8	71.0	-70.0	0.2	6.0	2.0	1.0	3.320423291500891	2.321	1.0	stim	s130
249.628	2.25	n/a	-1.0	n/a	columbia_card_task_fmri	n/a	n/a	-1.0	n/a	n/a	n/a	n/a	n/a	n/a	n/a	n/a	feedback	s130
251.878	0.476	n/a	-1.0	n/a	columbia_card_task_fmri	n/a	n/a	-1.0	n/a	n/a	n/a	n/a	n/a	n/a	n/a	n/a	ITI	s130
252.356	3.217	3.1613202507660048	draw_card	0.0	columbia_card_task_fmri	25.0	0.75	89.0	-65.0	0.25	8.0	1.0	2.0	7.49089407236124	3.217	n/a	stim	s130
255.575	1.31	-0.0529654635197068	end_round	0.0	columbia_card_task_fmri	25.0	0.7142857142857143	71.0	-65.0	0.2857142857142857	8.0	2.0	2.0	9.17737380024177	1.31	1.0	stim	s130
256.89	2.25	n/a	-1.0	n/a	columbia_card_task_fmri	n/a	n/a	-1.0	n/a	n/a	n/a	n/a	n/a	n/a	n/a	n/a	feedback	s130
259.14	0.0	n/a	-1.0	n/a	columbia_card_task_fmri	n/a	n/a	-1.0	n/a	n/a	n/a	n/a	n/a	n/a	n/a	n/a	ITI	s130
259.142	2.515	3.1613202507660048	draw_card	0.0	columbia_card_task_fmri	30.0	0.75	89.0	-80.0	0.25	8.0	1.0	2.0	16.150128087014135	2.515	n/a	stim	s130
261.66	3.056	-0.7672511778054186	draw_card	0.0	columbia_card_task_fmri	30.0	0.7142857142857143	89.0	-80.0	0.2857142857142857	8.0	2.0	2.0	18.21147510807646	3.056	n/a	stim	s130
264.72	1.69	-6.005346415900656	end_round	0.0	columbia_card_task_fmri	30.0	0.6666666666666667	71.0	-80.0	0.3333333333333333	8.0	3.0	2.0	20.372854324424896	1.69	2.0	stim	s130
266.414	2.25	n/a	-1.0	n/a	columbia_card_task_fmri	n/a	n/a	-1.0	n/a	n/a	n/a	n/a	n/a	n/a	n/a	n/a	feedback	s130
268.664	0.068	n/a	-1.0	n/a	columbia_card_task_fmri	n/a	n/a	-1.0	n/a	n/a	n/a	n/a	n/a	n/a	n/a	n/a	ITI	s130
268.736	3.218	2.861320250766006	draw_card	0.0	columbia_card_task_fmri	13.0	0.9	89.0	-95.0	0.1	10.0	1.0	1.0	0.9208886140533288	3.218	n/a	stim	s130
271.957	1.713	1.6613202507660048	draw_card	1.0	columbia_card_task_fmri	13.0	0.8888888888888888	89.0	-95.0	0.1111111111111111	10.0	2.0	1.0	2.461707751899933	1.713	2.0	stim	s130
273.673	2.25	n/a	-1.0	n/a	columbia_card_task_fmri	n/a	n/a	-1.0	n/a	n/a	n/a	n/a	n/a	n/a	n/a	n/a	feedback	s130
275.923	0.204	n/a	-1.0	n/a	columbia_card_task_fmri	n/a	n/a	-1.0	n/a	n/a	n/a	n/a	n/a	n/a	n/a	n/a	ITI	s130
276.131	1.693	4.261320250766005	draw_card	0.0	columbia_card_task_fmri	14.0	0.9	89.0	-90.0	0.1	10.0	1.0	1.0	-0.2788518877574262	1.693	n/a	stim	s130
277.826	3.33	3.105764695210448	draw_card	0.0	columbia_card_task_fmri	14.0	0.8888888888888888	89.0	-90.0	0.1111111111111111	10.0	2.0	1.0	1.2048767523794446	3.33	n/a	stim	s130
281.158	2.387	1.6613202507660048	draw_card	0.0	columbia_card_task_fmri	14.0	0.875	89.0	-90.0	0.125	10.0	3.0	1.0	2.9152643483034133	2.387	n/a	stim	s130
283.547	2.399	-0.195822606376851	draw_card	0.0	columbia_card_task_fmri	14.0	0.8571428571428572	89.0	-90.0	0.1428571428571428	10.0	4.0	1.0	4.912567443871016	2.399	n/a	stim	s130
285.948	1.745	-2.6720130825673274	end_round	0.0	columbia_card_task_fmri	14.0	0.8333333333333334	71.0	-90.0	0.1666666666666666	10.0	5.0	1.0	7.278293288388458	1.745	4.0	stim	s130
287.698	2.25	n/a	-1.0	n/a	columbia_card_task_fmri	n/a	n/a	-1.0	n/a	n/a	n/a	n/a	n/a	n/a	n/a	n/a	feedback	s130
289.948	0.272	n/a	-1.0	n/a	columbia_card_task_fmri	n/a	n/a	-1.0	n/a	n/a	n/a	n/a	n/a	n/a	n/a	n/a	ITI	s130
290.223	2.987	-0.5386797492339944	draw_card	0.0	columbia_card_task_fmri	16.0	0.8	89.0	-70.0	0.2	10.0	1.0	2.0	2.920496337590468	2.987	n/a	stim	s130
293.213	2.296	-2.449790860345106	end_round	0.0	columbia_card_task_fmri	16.0	0.7777777777777778	71.0	-70.0	0.2222222222222222	10.0	2.0	2.0	4.273870767356595	2.296	1.0	stim	s130
295.512	2.25	n/a	-1.0	n/a	columbia_card_task_fmri	n/a	n/a	-1.0	n/a	n/a	n/a	n/a	n/a	n/a	n/a	n/a	feedback	s130
297.762	0.068	n/a	-1.0	n/a	columbia_card_task_fmri	n/a	n/a	-1.0	n/a	n/a	n/a	n/a	n/a	n/a	n/a	n/a	ITI	s130
297.834	2.168	-1.255346415900661	end_round	0.0	columbia_card_task_fmri	7.0	0.9166666666666666	71.0	-100.0	0.0833333333333333	12.0	1.0	1.0	-1.9052287754749635	2.168	0.0	stim	s130
300.006	2.25	n/a	-1.0	n/a	columbia_card_task_fmri	n/a	n/a	-1.0	n/a	n/a	n/a	n/a	n/a	n/a	n/a	n/a	feedback	s130
302.256	0.272	n/a	-1.0	n/a	columbia_card_task_fmri	n/a	n/a	-1.0	n/a	n/a	n/a	n/a	n/a	n/a	n/a	n/a	ITI	s130
302.53	2.098	-1.0053464159006595	draw_card	0.0	columbia_card_task_fmri	14.0	0.8333333333333334	89.0	-80.0	0.1666666666666666	12.0	1.0	2.0	3.5521133841862103	2.098	n/a	stim	s130
304.631	1.998	-2.4295888401430887	draw_card	0.0	columbia_card_task_fmri	14.0	0.8181818181818181	89.0	-80.0	0.1818181818181818	12.0	2.0	2.0	4.775464273467083	1.998	n/a	stim	s130
306.632	2.695	-4.138679749233994	draw_card	0.0	columbia_card_task_fmri	14.0	0.8	89.0	-80.0	0.2	12.0	3.0	2.0	6.119955475016194	2.695	n/a	stim	s130
309.331	2.536	-6.227568638122884	draw_card	0.0	columbia_card_task_fmri	14.0	0.7777777777777778	89.0	-80.0	0.2222222222222222	12.0	4.0	2.0	7.599268048890853	2.536	n/a	stim	s130
311.87	3.222	-8.838679749233995	draw_card	0.0	columbia_card_task_fmri	14.0	0.75	89.0	-80.0	0.25	12.0	5.0	2.0	9.22270615773984	3.222	n/a	stim	s130
315.098	1.721	-12.195822606376847	end_round	0.0	columbia_card_task_fmri	14.0	0.7142857142857143	71.0	-80.0	0.2857142857142857	12.0	6.0	2.0	10.98416078353132	1.721	5.0	stim	s130
316.823	2.25	n/a	-1.0	n/a	columbia_card_task_fmri	n/a	n/a	-1.0	n/a	n/a	n/a	n/a	n/a	n/a	n/a	n/a	feedback	s130
319.073	0.748	n/a	-1.0	n/a	columbia_card_task_fmri	n/a	n/a	-1.0	n/a	n/a	n/a	n/a	n/a	n/a	n/a	n/a	ITI	s130
319.824	2.273	0.6613202507660049	draw_card	1.0	columbia_card_task_fmri	15.0	0.8333333333333334	89.0	-75.0	0.1666666666666666	12.0	1.0	2.0	2.061678749226271	2.273	1.0	stim	s130
322.102	2.25	n/a	-1.0	n/a	columbia_card_task_fmri	n/a	n/a	-1.0	n/a	n/a	n/a	n/a	n/a	n/a	n/a	n/a	feedback	s130
324.352	0.068	n/a	-1.0	n/a	columbia_card_task_fmri	n/a	n/a	-1.0	n/a	n/a	n/a	n/a	n/a	n/a	n/a	n/a	ITI	s130
324.424	3.083	-0.3386797492339951	draw_card	0.0	columbia_card_task_fmri	15.0	0.8	89.0	-65.0	0.2	15.0	1.0	3.0	0.5209729516603225	3.083	n/a	stim	s130
327.51	2.829	-1.4815368920911376	draw_card	0.0	columbia_card_task_fmri	15.0	0.7857142857142857	89.0	-65.0	0.2142857142857142	15.0	2.0	3.0	1.3468733052036337	2.829	n/a	stim	s130
330.343	2.774	-2.8002182107724587	end_round	0.0	columbia_card_task_fmri	15.0	0.7692307692307692	71.0	-65.0	0.2307692307692307	15.0	3.0	3.0	2.226630722940765	2.774	2.0	stim	s130
333.122	2.25	n/a	-1.0	n/a	columbia_card_task_fmri	n/a	n/a	-1.0	n/a	n/a	n/a	n/a	n/a	n/a	n/a	n/a	feedback	s130
335.372	0.0	n/a	-1.0	n/a	columbia_card_task_fmri	n/a	n/a	-1.0	n/a	n/a	n/a	n/a	n/a	n/a	n/a	n/a	ITI	s130
335.375	2.45	-1.0886797492339952	draw_card	0.0	columbia_card_task_fmri	14.0	0.8125	89.0	-70.0	0.1875	16.0	1.0	3.0	1.3070486216612842	2.45	n/a	stim	s130
337.829	2.217	-2.138679749233994	draw_card	0.0	columbia_card_task_fmri	14.0	0.8	89.0	-70.0	0.2	16.0	2.0	3.0	2.120647645861215	2.217	n/a	stim	s130
340.049	2.695	-3.3386797492339952	draw_card	0.0	columbia_card_task_fmri	14.0	0.7857142857142857	89.0	-70.0	0.2142857142857142	16.0	3.0	3.0	2.9878597942528167	2.695	n/a	stim	s130
342.747	2.043	-4.72329513384938	end_round	0.0	columbia_card_task_fmri	14.0	0.7692307692307692	71.0	-70.0	0.2307692307692307	16.0	4.0	3.0	3.911622049884041	2.043	3.0	stim	s130
344.794	2.25	n/a	-1.0	n/a	columbia_card_task_fmri	n/a	n/a	-1.0	n/a	n/a	n/a	n/a	n/a	n/a	n/a	n/a	feedback	s130
347.044	0.204	n/a	-1.0	n/a	columbia_card_task_fmri	n/a	n/a	-1.0	n/a	n/a	n/a	n/a	n/a	n/a	n/a	n/a	ITI	s130
347.251	3.445	-1.1511797492339952	draw_card	0.0	columbia_card_task_fmri	11.0	0.6875	89.0	-30.0	0.3125	16.0	1.0	5.0	-12.470348047086556	3.445	n/a	stim	s130
350.7	2.143	-2.0053464159006613	end_round	0.0	columbia_card_task_fmri	11.0	0.6666666666666667	71.0	-30.0	0.3333333333333333	16.0	2.0	5.0	-12.146963786686378	2.143	1.0	stim	s130
352.846	2.25	n/a	-1.0	n/a	columbia_card_task_fmri	n/a	n/a	-1.0	n/a	n/a	n/a	n/a	n/a	n/a	n/a	n/a	feedback	s130
355.096	0.068	n/a	-1.0	n/a	columbia_card_task_fmri	n/a	n/a	-1.0	n/a	n/a	n/a	n/a	n/a	n/a	n/a	n/a	ITI	s130
355.167	3.241	3.6613202507660048	draw_card	0.0	columbia_card_task_fmri	15.0	0.8666666666666667	89.0	-75.0	0.1333333333333333	15.0	1.0	2.0	-0.8845960537657547	3.241	n/a	stim	s130
358.411	2.593	2.804177393623149	draw_card	0.0	columbia_card_task_fmri	15.0	0.8571428571428572	89.0	-75.0	0.1428571428571428	15.0	2.0	2.0	0.0145223804313552	2.593	n/a	stim	s130
361.007	2.389	1.815166404612158	draw_card	0.0	columbia_card_task_fmri	15.0	0.8461538461538461	89.0	-75.0	0.1538461538461538	15.0	3.0	2.0	0.9929827377267166	2.389	n/a	stim	s130
363.4	2.4	0.6613202507660049	draw_card	0.0	columbia_card_task_fmri	15.0	0.8333333333333334	89.0	-75.0	0.1666666666666666	15.0	4.0	2.0	2.061678749226271	2.4	n/a	stim	s130
365.804	2.092	-0.7023161128703602	end_round	0.0	columbia_card_task_fmri	15.0	0.8181818181818181	71.0	-75.0	0.1818181818181818	15.0	5.0	2.0	3.232953836647294	2.092	4.0	stim	s130
367.9	2.25	n/a	-1.0	n/a	columbia_card_task_fmri	n/a	n/a	-1.0	n/a	n/a	n/a	n/a	n/a	n/a	n/a	n/a	feedback	s130
370.15	0.068	n/a	-1.0	n/a	columbia_card_task_fmri	n/a	n/a	-1.0	n/a	n/a	n/a	n/a	n/a	n/a	n/a	n/a	ITI	s130
370.222	2.259	5.39465358409934	draw_card	0.0	columbia_card_task_fmri	17.0	0.8666666666666667	89.0	-75.0	0.1333333333333333	15.0	1.0	2.0	-0.2048821130237286	2.259	n/a	stim	s130
372.484	2.447	4.518463107908865	draw_card	0.0	columbia_card_task_fmri	17.0	0.8571428571428572	89.0	-75.0	0.1428571428571428	15.0	2.0	2.0	0.7142256975248564	2.447	n/a	stim	s130
374.935	1.864	3.5074740969198515	draw_card	1.0	columbia_card_task_fmri	17.0	0.8461538461538461	89.0	-75.0	0.1538461538461538	15.0	3.0	2.0	1.7144388121685914	1.864	3.0	stim	s130
376.804	2.25	n/a	-1.0	n/a	columbia_card_task_fmri	n/a	n/a	-1.0	n/a	n/a	n/a	n/a	n/a	n/a	n/a	n/a	feedback	s130
379.054	0.34	n/a	-1.0	n/a	columbia_card_task_fmri	n/a	n/a	-1.0	n/a	n/a	n/a	n/a	n/a	n/a	n/a	n/a	ITI	s130
379.397	1.263	0.9738202507660048	draw_card	0.0	columbia_card_task_fmri	2.0	0.9375	89.0	-25.0	0.0625	16.0	1.0	1.0	-24.916827308148385	1.263	n/a	stim	s130
380.663	2.555	0.8613202507660048	draw_card	0.0	columbia_card_task_fmri	2.0	0.9333333333333332	89.0	-25.0	0.0666666666666666	16.0	2.0	1.0	-24.718486297777485	2.555	n/a	stim	s130
383.22	1.887	0.7327488221945765	draw_card	0.0	columbia_card_task_fmri	2.0	0.9285714285714286	89.0	-25.0	0.0714285714285714	16.0	3.0	1.0	-24.50091993458375	1.887	n/a	stim	s130
385.11	1.987	0.584397173842928	draw_card	0.0	columbia_card_task_fmri	2.0	0.9230769230769232	89.0	-25.0	0.0769230769230769	16.0	4.0	1.0	-24.26085753674695	1.987	n/a	stim	s130
387.1	1.932	0.4113202507660051	draw_card	0.0	columbia_card_task_fmri	2.0	0.9166666666666666	89.0	-25.0	0.0833333333333333	16.0	5.0	1.0	-23.994208174321116	1.932	n/a	stim	s130
389.035	2.212	0.20677479622055	draw_card	0.0	columbia_card_task_fmri	2.0	0.9090909090909092	89.0	-25.0	0.0909090909090909	16.0	6.0	1.0	-23.695784193874054	2.212	n/a	stim	s130
391.25	2.643	-0.038679749233995	draw_card	0.0	columbia_card_task_fmri	2.0	0.9	89.0	-25.0	0.1	16.0	7.0	1.0	-23.35890809304585	2.643	n/a	stim	s130
393.896	2.801	-0.3386797492339951	draw_card	0.0	columbia_card_task_fmri	2.0	0.8888888888888888	89.0	-25.0	0.1111111111111111	16.0	8.0	1.0	-22.974846697731262	2.801	n/a	stim	s130
396.7	3.072	-0.7136797492339951	draw_card	0.0	columbia_card_task_fmri	2.0	0.875	89.0	-25.0	0.125	16.0	9.0	1.0	-22.53199365158528	3.072	n/a	stim	s130
399.776	2.111	-1.195822606376852	end_round	0.0	columbia_card_task_fmri	2.0	0.8571428571428572	71.0	-25.0	0.1428571428571428	16.0	10.0	1.0	-22.01471150113976	2.111	9.0	stim	s130
401.892	2.25	n/a	-1.0	n/a	columbia_card_task_fmri	n/a	n/a	-1.0	n/a	n/a	n/a	n/a	n/a	n/a	n/a	n/a	feedback	s130
404.142	0.0	n/a	-1.0	n/a	columbia_card_task_fmri	n/a	n/a	-1.0	n/a	n/a	n/a	n/a	n/a	n/a	n/a	n/a	ITI	s130
404.145	2.434	3.1613202507660048	draw_card	1.0	columbia_card_task_fmri	9.0	0.9375	89.0	-95.0	0.0625	16.0	1.0	1.0	-6.30278327723957	2.434	1.0	stim	s130
406.584	2.25	n/a	-1.0	n/a	columbia_card_task_fmri	n/a	n/a	-1.0	n/a	n/a	n/a	n/a	n/a	n/a	n/a	n/a	feedback	s130
408.834	0.0	n/a	-1.0	n/a	columbia_card_task_fmri	n/a	n/a	-1.0	n/a	n/a	n/a	n/a	n/a	n/a	n/a	n/a	ITI	s130
408.838	2.117	4.723820250766005	end_round	0.0	columbia_card_task_fmri	11.0	0.9375	71.0	-100.0	0.0625	16.0	1.0	1.0	-4.608900581884793	2.117	0.0	stim	s130
410.959	2.25	n/a	-1.0	n/a	columbia_card_task_fmri	n/a	n/a	-1.0	n/a	n/a	n/a	n/a	n/a	n/a	n/a	n/a	feedback	s130
413.209	0.272	n/a	-1.0	n/a	columbia_card_task_fmri	n/a	n/a	-1.0	n/a	n/a	n/a	n/a	n/a	n/a	n/a	n/a	ITI	s130
413.484	1.414	5.286320250766005	draw_card	0.0	columbia_card_task_fmri	16.0	0.875	89.0	-75.0	0.125	16.0	1.0	2.0	-1.383173576129867	1.414	n/a	stim	s130
414.902	1.973	4.527986917432672	draw_card	0.0	columbia_card_task_fmri	16.0	0.8666666666666667	89.0	-75.0	0.1333333333333333	16.0	2.0	2.0	-0.5447399365514016	1.973	n/a	stim	s130
416.879	2.357	3.661320250766007	draw_card	0.0	columbia_card_task_fmri	16.0	0.8571428571428572	89.0	-75.0	0.1428571428571428	16.0	3.0	2.0	0.3643732101520953	2.357	n/a	stim	s130
419.239	2.044	2.6613202507660048	draw_card	0.0	columbia_card_task_fmri	16.0	0.8461538461538461	89.0	-75.0	0.1538461538461538	16.0	4.0	2.0	1.3537099710705751	2.044	n/a	stim	s130
421.287	2.401	1.494653584099339	draw_card	1.0	columbia_card_task_fmri	16.0	0.8333333333333334	89.0	-75.0	0.1666666666666666	16.0	5.0	2.0	2.434285122761441	2.401	5.0	stim	s130
423.692	2.25	n/a	-1.0	n/a	columbia_card_task_fmri	n/a	n/a	-1.0	n/a	n/a	n/a	n/a	n/a	n/a	n/a	n/a	feedback	s130
425.942	0.204	n/a	-1.0	n/a	columbia_card_task_fmri	n/a	n/a	-1.0	n/a	n/a	n/a	n/a	n/a	n/a	n/a	n/a	ITI	s130
426.149	0.88	5.536320250766005	draw_card	0.0	columbia_card_task_fmri	17.0	0.875	89.0	-80.0	0.125	16.0	1.0	2.0	0.6006906189616608	0.88	n/a	stim	s130
427.033	2.704	4.727986917432673	draw_card	0.0	columbia_card_task_fmri	17.0	0.8666666666666667	89.0	-80.0	0.1333333333333333	16.0	2.0	2.0	1.4944307530536882	2.704	n/a	stim	s130
429.739	2.537	3.804177393623151	draw_card	0.0	columbia_card_task_fmri	17.0	0.8571428571428572	89.0	-80.0	0.1428571428571428	16.0	3.0	2.0	2.4635112055179995	2.537	n/a	stim	s130
432.28	3.328	2.7382433276890814	end_round	0.0	columbia_card_task_fmri	17.0	0.8461538461538461	71.0	-80.0	0.1538461538461538	16.0	4.0	2.0	3.518105394270595	3.328	3.0	stim	s130
435.612	2.25	n/a	-1.0	n/a	columbia_card_task_fmri	n/a	n/a	-1.0	n/a	n/a	n/a	n/a	n/a	n/a	n/a	n/a	feedback	s130
437.862	0.0	n/a	-1.0	n/a	columbia_card_task_fmri	n/a	n/a	-1.0	n/a	n/a	n/a	n/a	n/a	n/a	n/a	n/a	ITI	s130
448.87	1.885	-0.1720130825673272	draw_card	1.0	columbia_card_task_fmri	13.0	0.8333333333333334	89.0	-70.0	0.1666666666666666	6.0	1.0	1.0	-0.5465175574055969	1.885	1.0	stim	s130
450.76	2.25	n/a	-1.0	n/a	columbia_card_task_fmri	n/a	n/a	-1.0	n/a	n/a	n/a	n/a	n/a	n/a	n/a	n/a	feedback	s130
453.01	0.204	n/a	-1.0	n/a	columbia_card_task_fmri	n/a	n/a	-1.0	n/a	n/a	n/a	n/a	n/a	n/a	n/a	n/a	ITI	s130
453.217	1.938	-0.1720130825673272	end_round	0.0	columbia_card_task_fmri	15.0	0.8333333333333334	71.0	-80.0	0.1666666666666666	6.0	1.0	1.0	3.9247256912931223	1.938	0.0	stim	s130
455.16	2.25	n/a	-1.0	n/a	columbia_card_task_fmri	n/a	n/a	-1.0	n/a	n/a	n/a	n/a	n/a	n/a	n/a	n/a	feedback	s130
457.41	0.204	n/a	-1.0	n/a	columbia_card_task_fmri	n/a	n/a	-1.0	n/a	n/a	n/a	n/a	n/a	n/a	n/a	n/a	ITI	s130
457.617	1.94	1.494653584099339	end_round	0.0	columbia_card_task_fmri	16.0	0.8333333333333334	71.0	-75.0	0.1666666666666666	6.0	1.0	1.0	2.434285122761441	1.94	0.0	stim	s130
459.562	2.25	n/a	-1.0	n/a	columbia_card_task_fmri	n/a	n/a	-1.0	n/a	n/a	n/a	n/a	n/a	n/a	n/a	n/a	feedback	s130
461.812	0.272	n/a	-1.0	n/a	columbia_card_task_fmri	n/a	n/a	-1.0	n/a	n/a	n/a	n/a	n/a	n/a	n/a	n/a	ITI	s130
462.087	2.719	2.6613202507660048	draw_card	0.0	columbia_card_task_fmri	21.0	0.75	89.0	-55.0	0.25	8.0	1.0	2.0	1.4297496086835615	2.719	n/a	stim	s130
464.809	0.995	-0.0529654635197086	end_round	0.0	columbia_card_task_fmri	21.0	0.7142857142857143	71.0	-55.0	0.2857142857142857	8.0	2.0	2.0	2.853808993893363	0.995	1.0	stim	s130
465.809	2.25	n/a	-1.0	n/a	columbia_card_task_fmri	n/a	n/a	-1.0	n/a	n/a	n/a	n/a	n/a	n/a	n/a	n/a	feedback	s130
468.059	0.204	n/a	-1.0	n/a	columbia_card_task_fmri	n/a	n/a	-1.0	n/a	n/a	n/a	n/a	n/a	n/a	n/a	n/a	ITI	s130
468.267	2.731	3.9113202507660048	draw_card	0.0	columbia_card_task_fmri	26.0	0.75	89.0	-65.0	0.25	8.0	1.0	2.0	7.923845126627956	2.731	n/a	stim	s130
471.001	2.311	0.6613202507660084	draw_card	0.0	columbia_card_task_fmri	26.0	0.7142857142857143	89.0	-65.0	0.2857142857142857	8.0	2.0	2.0	9.629068660527668	2.311	n/a	stim	s130
473.315	1.326	-3.672013082567324	end_round	0.0	columbia_card_task_fmri	26.0	0.6666666666666667	71.0	-65.0	0.3333333333333333	8.0	3.0	2.0	11.41704877788791	1.326	2.0	stim	s130
474.647	2.25	n/a	-1.0	n/a	columbia_card_task_fmri	n/a	n/a	-1.0	n/a	n/a	n/a	n/a	n/a	n/a	n/a	n/a	feedback	s130
476.897	0.408	n/a	-1.0	n/a	columbia_card_task_fmri	n/a	n/a	-1.0	n/a	n/a	n/a	n/a	n/a	n/a	n/a	n/a	ITI	s130
477.309	2.921	-1.005346415900661	draw_card	0.0	columbia_card_task_fmri	15.0	0.7777777777777778	89.0	-60.0	0.2222222222222222	9.0	1.0	2.0	-0.298369278029206	2.921	n/a	stim	s130
480.234	2.204	-3.0886797492339952	draw_card	0.0	columbia_card_task_fmri	15.0	0.75	89.0	-60.0	0.25	9.0	2.0	2.0	0.9968254764324164	2.204	n/a	stim	s130
482.441	2.255	-5.767251177805422	draw_card	0.0	columbia_card_task_fmri	15.0	0.7142857142857143	89.0	-60.0	0.2857142857142857	9.0	3.0	2.0	2.402139939840172	2.255	n/a	stim	s130
484.7	2.342	-9.338679749233991	end_round	0.0	columbia_card_task_fmri	15.0	0.6666666666666667	71.0	-60.0	0.3333333333333333	9.0	4.0	2.0	3.875663677029866	2.342	3.0	stim	s130
487.046	2.25	n/a	-1.0	n/a	columbia_card_task_fmri	n/a	n/a	-1.0	n/a	n/a	n/a	n/a	n/a	n/a	n/a	n/a	feedback	s130
489.296	0.136	n/a	-1.0	n/a	columbia_card_task_fmri	n/a	n/a	-1.0	n/a	n/a	n/a	n/a	n/a	n/a	n/a	n/a	ITI	s130
489.437	2.234	3.361320250766006	draw_card	0.0	columbia_card_task_fmri	13.0	0.9	89.0	-90.0	0.1	10.0	1.0	1.0	-0.5787838650215171	2.234	n/a	stim	s130
491.675	1.467	2.21687580632156	draw_card	0.0	columbia_card_task_fmri	13.0	0.8888888888888888	89.0	-90.0	0.1111111111111111	10.0	2.0	1.0	0.8906720079181873	1.467	n/a	stim	s130
493.146	2.222	0.7863202507660049	draw_card	0.0	columbia_card_task_fmri	13.0	0.875	89.0	-90.0	0.125	10.0	3.0	1.0	2.5846071425641064	2.222	n/a	stim	s130
495.372	2.412	-1.052965463519707	draw_card	0.0	columbia_card_task_fmri	13.0	0.8571428571428572	89.0	-90.0	0.1428571428571428	10.0	4.0	1.0	4.562698660363434	2.412	n/a	stim	s130
497.787	2.646	-3.5053464159006613	end_round	0.0	columbia_card_task_fmri	13.0	0.8333333333333334	71.0	-90.0	0.1666666666666666	10.0	5.0	1.0	6.905670055940757	2.646	4.0	stim	s130
500.438	2.25	n/a	-1.0	n/a	columbia_card_task_fmri	n/a	n/a	-1.0	n/a	n/a	n/a	n/a	n/a	n/a	n/a	n/a	feedback	s130
502.688	0.272	n/a	-1.0	n/a	columbia_card_task_fmri	n/a	n/a	-1.0	n/a	n/a	n/a	n/a	n/a	n/a	n/a	n/a	ITI	s130
502.963	2.506	4.661320250766005	draw_card	0.0	columbia_card_task_fmri	15.0	0.9	89.0	-95.0	0.1	10.0	1.0	1.0	1.520765939997066	2.506	n/a	stim	s130
505.473	1.94	3.439098028543781	draw_card	0.0	columbia_card_task_fmri	15.0	0.8888888888888888	89.0	-95.0	0.1111111111111111	10.0	2.0	1.0	3.0901300058300016	1.94	n/a	stim	s130
507.416	2.084	1.9113202507660048	draw_card	0.0	columbia_card_task_fmri	15.0	0.875	89.0	-95.0	0.125	10.0	3.0	1.0	4.899231137948288	2.084	n/a	stim	s130
509.503	2.461	-0.0529654635197086	draw_card	0.0	columbia_card_task_fmri	15.0	0.8571428571428572	89.0	-95.0	0.1428571428571428	10.0	4.0	1.0	7.011802408412311	2.461	n/a	stim	s130
511.967	1.489	-2.6720130825673274	end_round	0.0	columbia_card_task_fmri	15.0	0.8333333333333334	71.0	-95.0	0.1666666666666666	10.0	5.0	1.0	9.514053588639069	1.489	4.0	stim	s130
513.461	2.25	n/a	-1.0	n/a	columbia_card_task_fmri	n/a	n/a	-1.0	n/a	n/a	n/a	n/a	n/a	n/a	n/a	n/a	feedback	s130
515.711	0.34	n/a	-1.0	n/a	columbia_card_task_fmri	n/a	n/a	-1.0	n/a	n/a	n/a	n/a	n/a	n/a	n/a	n/a	ITI	s130
516.055	2.293	0.4613202507660056	draw_card	0.0	columbia_card_task_fmri	16.0	0.8	89.0	-65.0	0.2	10.0	1.0	2.0	0.920888614053336	2.293	n/a	stim	s130
518.352	2.504	-1.3386797492339937	draw_card	0.0	columbia_card_task_fmri	16.0	0.7777777777777778	89.0	-65.0	0.2222222222222222	10.0	2.0	2.0	2.19554965246785	2.504	n/a	stim	s130
520.858	2.955	-3.5886797492339952	draw_card	1.0	columbia_card_task_fmri	16.0	0.75	89.0	-65.0	0.25	10.0	3.0	2.0	3.594403064341666	2.955	3.0	stim	s130
523.819	2.25	n/a	-1.0	n/a	columbia_card_task_fmri	n/a	n/a	-1.0	n/a	n/a	n/a	n/a	n/a	n/a	n/a	n/a	feedback	s130
526.069	0.136	n/a	-1.0	n/a	columbia_card_task_fmri	n/a	n/a	-1.0	n/a	n/a	n/a	n/a	n/a	n/a	n/a	n/a	ITI	s130
526.208	2.965	-0.8386797492339951	draw_card	0.0	columbia_card_task_fmri	7.0	0.9166666666666666	89.0	-95.0	0.0833333333333333	12.0	1.0	1.0	-3.286793450335555	2.965	n/a	stim	s130
529.177	1.766	-1.6114070219612686	draw_card	0.0	columbia_card_task_fmri	7.0	0.9090909090909092	89.0	-95.0	0.0909090909090909	12.0	2.0	1.0	-2.155465092851056	1.766	n/a	stim	s130
530.946	2.005	-2.5386797492339954	draw_card	0.0	columbia_card_task_fmri	7.0	0.9	89.0	-95.0	0.1	12.0	3.0	1.0	-0.8787145089689936	2.005	n/a	stim	s130
532.956	2.102	-3.672013082567329	draw_card	0.0	columbia_card_task_fmri	7.0	0.8888888888888888	89.0	-95.0	0.1111111111111111	12.0	4.0	1.0	0.5764685363107667	2.102	n/a	stim	s130
535.062	1.776	-5.088679749233995	draw_card	0.0	columbia_card_task_fmri	7.0	0.875	89.0	-95.0	0.125	12.0	5.0	1.0	2.253951146443118	1.776	n/a	stim	s130
536.841	1.392	-6.910108320662566	end_round	0.0	columbia_card_task_fmri	7.0	0.8571428571428572	71.0	-95.0	0.1428571428571428	12.0	6.0	1.0	4.212831020144815	1.392	5.0	stim	s130
538.238	2.25	n/a	-1.0	n/a	columbia_card_task_fmri	n/a	n/a	-1.0	n/a	n/a	n/a	n/a	n/a	n/a	n/a	n/a	feedback	s130
540.488	0.34	n/a	-1.0	n/a	columbia_card_task_fmri	n/a	n/a	-1.0	n/a	n/a	n/a	n/a	n/a	n/a	n/a	n/a	ITI	s130
540.832	2.189	-0.1720130825673272	draw_card	0.0	columbia_card_task_fmri	14.0	0.8333333333333334	89.0	-75.0	0.1666666666666666	12.0	1.0	2.0	1.6890739847159004	2.189	n/a	stim	s130
543.024	1.725	-1.520497931052179	draw_card	0.0	columbia_card_task_fmri	14.0	0.8181818181818181	89.0	-75.0	0.1818181818181818	12.0	2.0	2.0	2.847329990390133	1.725	n/a	stim	s130
544.754	2.114	-3.138679749233994	draw_card	0.0	columbia_card_task_fmri	14.0	0.8	89.0	-75.0	0.2	12.0	3.0	2.0	4.120282122478546	2.114	n/a	stim	s130
546.872	3.55	-5.11645752701177	draw_card	1.0	columbia_card_task_fmri	14.0	0.7777777777777778	89.0	-75.0	0.2222222222222222	12.0	4.0	2.0	5.520883787151416	3.55	4.0	stim	s130
550.427	2.25	n/a	-1.0	n/a	columbia_card_task_fmri	n/a	n/a	-1.0	n/a	n/a	n/a	n/a	n/a	n/a	n/a	n/a	feedback	s130
552.677	0.068	n/a	-1.0	n/a	columbia_card_task_fmri	n/a	n/a	-1.0	n/a	n/a	n/a	n/a	n/a	n/a	n/a	n/a	ITI	s130
552.749	1.483	1.494653584099339	draw_card	0.0	columbia_card_task_fmri	15.0	0.8333333333333334	89.0	-70.0	0.1666666666666666	12.0	1.0	2.0	0.1986721522303902	1.483	n/a	stim	s130
554.237	2.106	0.206774796220548	draw_card	0.0	columbia_card_task_fmri	15.0	0.8181818181818181	89.0	-70.0	0.1818181818181818	12.0	2.0	2.0	1.3048512502552363	2.106	n/a	stim	s130
556.346	2.253	-1.3386797492339952	draw_card	0.0	columbia_card_task_fmri	15.0	0.8	89.0	-70.0	0.2	12.0	3.0	2.0	2.520571101929672	2.253	n/a	stim	s130
558.603	1.825	-3.2275686381228845	end_round	0.0	columbia_card_task_fmri	15.0	0.7777777777777778	71.0	-70.0	0.2222222222222222	12.0	4.0	2.0	3.8582029930097583	1.825	3.0	stim	s130
560.434	2.25	n/a	-1.0	n/a	columbia_card_task_fmri	n/a	n/a	-1.0	n/a	n/a	n/a	n/a	n/a	n/a	n/a	n/a	feedback	s130
562.684	0.0	n/a	-1.0	n/a	columbia_card_task_fmri	n/a	n/a	-1.0	n/a	n/a	n/a	n/a	n/a	n/a	n/a	n/a	ITI	s130
562.689	2.926	-0.5386797492339944	draw_card	0.0	columbia_card_task_fmri	16.0	0.8	89.0	-70.0	0.2	15.0	1.0	3.0	2.920496337590468	2.926	n/a	stim	s130
565.62	1.525	-1.767251177805424	draw_card	0.0	columbia_card_task_fmri	16.0	0.7857142857142857	89.0	-70.0	0.2142857142857142	15.0	2.0	3.0	3.808364098242233	1.525	n/a	stim	s130
567.149	2.794	-3.184833595387842	draw_card	1.0	columbia_card_task_fmri	16.0	0.7692307692307692	89.0	-70.0	0.2307692307692307	15.0	3.0	3.0	4.75412848441329	2.794	3.0	stim	s130
569.948	2.25	n/a	-1.0	n/a	columbia_card_task_fmri	n/a	n/a	-1.0	n/a	n/a	n/a	n/a	n/a	n/a	n/a	n/a	feedback	s130
572.198	0.204	n/a	-1.0	n/a	columbia_card_task_fmri	n/a	n/a	-1.0	n/a	n/a	n/a	n/a	n/a	n/a	n/a	n/a	ITI	s130
572.405	1.956	-0.1511797492339951	draw_card	0.0	columbia_card_task_fmri	14.0	0.8125	89.0	-65.0	0.1875	16.0	1.0	3.0	-0.6440912611506633	1.956	n/a	stim	s130
574.366	1.781	-1.1386797492339942	draw_card	0.0	columbia_card_task_fmri	14.0	0.8	89.0	-65.0	0.2	16.0	2.0	3.0	0.1210594237042208	1.781	n/a	stim	s130
576.15	1.414	-2.2672511778054223	end_round	0.0	columbia_card_task_fmri	14.0	0.7857142857142857	71.0	-65.0	0.2142857142857142	16.0	3.0	3.0	0.9366316992019	1.414	2.0	stim	s130
577.57	2.25	n/a	-1.0	n/a	columbia_card_task_fmri	n/a	n/a	-1.0	n/a	n/a	n/a	n/a	n/a	n/a	n/a	n/a	feedback	s130
579.82	1.02	n/a	-1.0	n/a	columbia_card_task_fmri	n/a	n/a	-1.0	n/a	n/a	n/a	n/a	n/a	n/a	n/a	n/a	ITI	s130
580.844	2.031	-0.4011797492339951	draw_card	1.0	columbia_card_task_fmri	16.0	0.8125	89.0	-75.0	0.1875	16.0	1.0	3.0	4.038722341919264	2.031	1.0	stim	s130
582.88	2.25	n/a	-1.0	n/a	columbia_card_task_fmri	n/a	n/a	-1.0	n/a	n/a	n/a	n/a	n/a	n/a	n/a	n/a	feedback	s130
585.13	0.0	n/a	-1.0	n/a	columbia_card_task_fmri	n/a	n/a	-1.0	n/a	n/a	n/a	n/a	n/a	n/a	n/a	n/a	ITI	s130
585.134	1.649	3.861320250766006	draw_card	0.0	columbia_card_task_fmri	16.0	0.8666666666666667	89.0	-80.0	0.1333333333333333	15.0	1.0	2.0	1.1545651782301896	1.649	n/a	stim	s130
586.787	2.408	2.947034536480293	draw_card	0.0	columbia_card_task_fmri	16.0	0.8571428571428572	89.0	-80.0	0.1428571428571428	15.0	2.0	2.0	2.11365118792153	2.408	n/a	stim	s130
589.199	2.525	1.8920894815352347	draw_card	0.0	columbia_card_task_fmri	16.0	0.8461538461538461	89.0	-80.0	0.1538461538461538	15.0	3.0	2.0	3.1573692496372097	2.525	n/a	stim	s130
591.728	1.177	0.6613202507660066	end_round	0.0	columbia_card_task_fmri	16.0	0.8333333333333334	71.0	-80.0	0.1666666666666666	15.0	4.0	2.0	4.297339366569549	1.177	3.0	stim	s130
592.91	2.25	n/a	-1.0	n/a	columbia_card_task_fmri	n/a	n/a	-1.0	n/a	n/a	n/a	n/a	n/a	n/a	n/a	n/a	feedback	s130
595.16	0.0	n/a	-1.0	n/a	columbia_card_task_fmri	n/a	n/a	-1.0	n/a	n/a	n/a	n/a	n/a	n/a	n/a	n/a	ITI	s130
595.164	1.971	4.727986917432673	draw_card	0.0	columbia_card_task_fmri	17.0	0.8666666666666667	89.0	-80.0	0.1333333333333333	15.0	1.0	2.0	1.4944307530536882	1.971	n/a	stim	s130
597.14	1.708	3.804177393623151	draw_card	0.0	columbia_card_task_fmri	17.0	0.8571428571428572	89.0	-80.0	0.1428571428571428	15.0	2.0	2.0	2.4635112055179995	1.708	n/a	stim	s130
598.852	1.999	2.7382433276890814	draw_card	0.0	columbia_card_task_fmri	17.0	0.8461538461538461	89.0	-80.0	0.1538461538461538	15.0	3.0	2.0	3.518105394270595	1.999	n/a	stim	s130
600.855	2.174	1.4946535840993405	draw_card	0.0	columbia_card_task_fmri	17.0	0.8333333333333334	89.0	-80.0	0.1666666666666666	15.0	4.0	2.0	4.669954367715345	2.174	n/a	stim	s130
603.034	1.835	0.0249566144023664	end_round	0.0	columbia_card_task_fmri	17.0	0.8181818181818181	71.0	-80.0	0.1818181818181818	15.0	5.0	2.0	5.932361602435993	1.835	4.0	stim	s130
604.874	2.25	n/a	-1.0	n/a	columbia_card_task_fmri	n/a	n/a	-1.0	n/a	n/a	n/a	n/a	n/a	n/a	n/a	n/a	feedback	s130
607.124	0.068	n/a	-1.0	n/a	columbia_card_task_fmri	n/a	n/a	-1.0	n/a	n/a	n/a	n/a	n/a	n/a	n/a	n/a	ITI	s130
607.196	3.232	0.6613202507660049	draw_card	0.0	columbia_card_task_fmri	1.0	0.9375	89.0	-15.0	0.0625	16.0	1.0	1.0	-27.556821206694888	3.232	n/a	stim	s130
610.433	1.929	0.5946535840993382	draw_card	0.0	columbia_card_task_fmri	1.0	0.9333333333333332	89.0	-15.0	0.0666666666666666	16.0	2.0	1.0	-27.440339666512696	1.929	n/a	stim	s130
612.366	1.831	0.5184631079088621	draw_card	0.0	columbia_card_task_fmri	1.0	0.9285714285714286	89.0	-15.0	0.0714285714285714	16.0	3.0	1.0	-27.312499512224512	1.831	n/a	stim	s130
614.2	1.913	0.430551019996774	draw_card	0.0	columbia_card_task_fmri	1.0	0.9230769230769232	89.0	-15.0	0.0769230769230769	16.0	4.0	1.0	-27.17136573460456	1.913	n/a	stim	s130
616.118	2.146	0.3279869174326715	draw_card	0.0	columbia_card_task_fmri	1.0	0.9166666666666666	89.0	-15.0	0.0833333333333333	16.0	5.0	1.0	-27.014517742546847	2.146	n/a	stim	s130
618.268	2.104	0.2067747962205501	draw_card	0.0	columbia_card_task_fmri	1.0	0.9090909090909092	89.0	-15.0	0.0909090909090909	16.0	6.0	1.0	-26.838885620670368	2.104	n/a	stim	s130
620.376	1.981	0.0613202507660048	draw_card	0.0	columbia_card_task_fmri	1.0	0.9	89.0	-15.0	0.1	16.0	7.0	1.0	-26.64051727139094	1.981	n/a	stim	s130
622.362	2.129	-0.1164575270117728	end_round	0.0	columbia_card_task_fmri	1.0	0.8888888888888888	71.0	-15.0	0.1111111111111111	16.0	8.0	1.0	-26.414243211086223	2.129	7.0	stim	s130
624.496	2.25	n/a	-1.0	n/a	columbia_card_task_fmri	n/a	n/a	-1.0	n/a	n/a	n/a	n/a	n/a	n/a	n/a	n/a	feedback	s130
626.746	0.476	n/a	-1.0	n/a	columbia_card_task_fmri	n/a	n/a	-1.0	n/a	n/a	n/a	n/a	n/a	n/a	n/a	n/a	ITI	s130
627.227	2.513	3.7863202507660048	draw_card	0.0	columbia_card_task_fmri	10.0	0.9375	89.0	-100.0	0.0625	16.0	1.0	1.0	-4.850888088452425	2.513	n/a	stim	s130
629.745	1.954	3.327986917432672	draw_card	0.0	columbia_card_task_fmri	10.0	0.9333333333333332	89.0	-100.0	0.0666666666666666	16.0	2.0	1.0	-4.039070699611887	1.954	n/a	stim	s130
631.704	2.295	2.804177393623149	draw_card	0.0	columbia_card_task_fmri	10.0	0.9285714285714286	89.0	-100.0	0.0714285714285714	16.0	3.0	1.0	-3.14881049359386	2.295	n/a	stim	s130
634.003	2.472	2.199781789227544	end_round	0.0	columbia_card_task_fmri	10.0	0.9230769230769232	71.0	-100.0	0.0769230769230769	16.0	4.0	1.0	-2.1667714688959947	2.472	3.0	stim	s130
636.482	2.25	n/a	-1.0	n/a	columbia_card_task_fmri	n/a	n/a	-1.0	n/a	n/a	n/a	n/a	n/a	n/a	n/a	n/a	feedback	s130
638.732	0.136	n/a	-1.0	n/a	columbia_card_task_fmri	n/a	n/a	-1.0	n/a	n/a	n/a	n/a	n/a	n/a	n/a	n/a	ITI	s130
638.871	2.234	4.411320250766005	draw_card	0.0	columbia_card_task_fmri	15.0	0.875	89.0	-75.0	0.125	16.0	1.0	2.0	-1.7138117866343556	2.234	n/a	stim	s130
641.109	1.732	3.6613202507660048	draw_card	0.0	columbia_card_task_fmri	15.0	0.8666666666666667	89.0	-75.0	0.1333333333333333	16.0	2.0	2.0	-0.8845960537657547	1.732	n/a	stim	s130
642.845	1.963	2.804177393623149	draw_card	0.0	columbia_card_task_fmri	15.0	0.8571428571428572	89.0	-75.0	0.1428571428571428	16.0	3.0	2.0	0.0145223804313552	1.963	n/a	stim	s130
644.812	3.097	1.815166404612158	draw_card	0.0	columbia_card_task_fmri	15.0	0.8461538461538461	89.0	-75.0	0.1538461538461538	16.0	4.0	2.0	0.9929827377267166	3.097	n/a	stim	s130
647.914	2.381	0.6613202507660049	end_round	0.0	columbia_card_task_fmri	15.0	0.8333333333333334	71.0	-75.0	0.1666666666666666	16.0	5.0	2.0	2.061678749226271	2.381	4.0	stim	s130
650.3	2.25	n/a	-1.0	n/a	columbia_card_task_fmri	n/a	n/a	-1.0	n/a	n/a	n/a	n/a	n/a	n/a	n/a	n/a	feedback	s130
652.55	0.068	n/a	-1.0	n/a	columbia_card_task_fmri	n/a	n/a	-1.0	n/a	n/a	n/a	n/a	n/a	n/a	n/a	n/a	ITI	s130
652.622	1.684	4.661320250766005	draw_card	0.0	columbia_card_task_fmri	16.0	0.875	89.0	-80.0	0.125	16.0	1.0	2.0	0.2700426876626274	1.684	n/a	stim	s130
654.311	1.841	3.861320250766006	draw_card	0.0	columbia_card_task_fmri	16.0	0.8666666666666667	89.0	-80.0	0.1333333333333333	16.0	2.0	2.0	1.1545651782301896	1.841	n/a	stim	s130
656.156	1.96	2.947034536480293	draw_card	0.0	columbia_card_task_fmri	16.0	0.8571428571428572	89.0	-80.0	0.1428571428571428	16.0	3.0	2.0	2.11365118792153	1.96	n/a	stim	s130
658.121	1.907	1.8920894815352347	draw_card	0.0	columbia_card_task_fmri	16.0	0.8461538461538461	89.0	-80.0	0.1538461538461538	16.0	4.0	2.0	3.1573692496372097	1.907	n/a	stim	s130
660.033	2.567	0.6613202507660066	draw_card	0.0	columbia_card_task_fmri	16.0	0.8333333333333334	89.0	-80.0	0.1666666666666666	16.0	5.0	2.0	4.297339366569549	2.567	n/a	stim	s130
662.604	1.465	-0.7932252037794519	end_round	0.0	columbia_card_task_fmri	16.0	0.8181818181818181	71.0	-80.0	0.1818181818181818	16.0	6.0	2.0	5.546727864654539	1.465	5.0	stim	s130
664.075	2.25	n/a	-1.0	n/a	columbia_card_task_fmri	n/a	n/a	-1.0	n/a	n/a	n/a	n/a	n/a	n/a	n/a	n/a	feedback	s130
666.325	0.0	n/a	-1.0	n/a	columbia_card_task_fmri	n/a	n/a	-1.0	n/a	n/a	n/a	n/a	n/a	n/a	n/a	n/a	ITI	s130
666.33	3.404	1.8488202507660048	draw_card	1.0	columbia_card_task_fmri	4.0	0.6875	89.0	-5.0	0.3125	16.0	1.0	5.0	-27.262154317582677	3.404	1.0	stim	s130
669.741	2.25	n/a	-1.0	n/a	columbia_card_task_fmri	n/a	n/a	-1.0	n/a	n/a	n/a	n/a	n/a	n/a	n/a	n/a	feedback	s130
671.991	0.0	n/a	-1.0	n/a	columbia_card_task_fmri	n/a	n/a	-1.0	n/a	n/a	n/a	n/a	n/a	n/a	n/a	n/a	ITI	s130
