onset	duration	planning	condition	current_position	exp_stage	experiment_exp_id	goal_state	key_press	problem_id	response_time	start_state	trial_id	worker_id
-63.303	0.0	0	n/a	n/a	n/a	ward_and_allport	n/a	32.0	n/a	26.432	n/a	instructions	s567
3.008	4.225	1	UA_with_intermediate	1,0,0,2,0,0,0,0,0	practice	ward_and_allport	1,2,3,0,0,0,0,0,0	71.0	0.0	4.225	1,0,0,2,3,0,0,0,0	to_hand	s567
7.234	1.364	0	UA_with_intermediate	1,3,0,2,0,0,0,0,0	practice	ward_and_allport	1,2,3,0,0,0,0,0,0	89.0	0.0	1.364	1,0,0,2,3,0,0,0,0	to_board	s567
8.601	0.854	0	UA_with_intermediate	1,3,0,0,0,0,0,0,0	practice	ward_and_allport	1,2,3,0,0,0,0,0,0	71.0	0.0	0.854	1,0,0,2,3,0,0,0,0	to_hand	s567
9.456	0.539	0	UA_with_intermediate	1,3,2,0,0,0,0,0,0	practice	ward_and_allport	1,2,3,0,0,0,0,0,0	89.0	0.0	0.539	1,0,0,2,3,0,0,0,0	to_board	s567
9.996	1.264	0	UA_with_intermediate	1,3,0,0,0,0,0,0,0	practice	ward_and_allport	1,2,3,0,0,0,0,0,0	89.0	0.0	1.264	1,0,0,2,3,0,0,0,0	to_hand	s567
11.261	1.114	0	UA_with_intermediate	1,3,0,2,0,0,0,0,0	practice	ward_and_allport	1,2,3,0,0,0,0,0,0	71.0	0.0	1.114	1,0,0,2,3,0,0,0,0	to_board	s567
12.377	0.527	0	UA_with_intermediate	1,0,0,2,0,0,0,0,0	practice	ward_and_allport	1,2,3,0,0,0,0,0,0	89.0	0.0	0.527	1,0,0,2,3,0,0,0,0	to_hand	s567
12.905	1.175	0	UA_with_intermediate	1,0,0,2,0,0,3,0,0	practice	ward_and_allport	1,2,3,0,0,0,0,0,0	82.0	0.0	1.175	1,0,0,2,3,0,0,0,0	to_board	s567
14.082	0.911	0	UA_with_intermediate	1,0,0,0,0,0,3,0,0	practice	ward_and_allport	1,2,3,0,0,0,0,0,0	71.0	0.0	0.911	1,0,0,2,3,0,0,0,0	to_hand	s567
14.994	0.541	0	UA_with_intermediate	1,2,0,0,0,0,3,0,0	practice	ward_and_allport	1,2,3,0,0,0,0,0,0	89.0	0.0	0.541	1,0,0,2,3,0,0,0,0	to_board	s567
15.536	1.383	0	UA_with_intermediate	1,2,0,0,0,0,0,0,0	practice	ward_and_allport	1,2,3,0,0,0,0,0,0	82.0	0.0	1.383	1,0,0,2,3,0,0,0,0	to_hand	s567
16.92	0.581	0	UA_with_intermediate	1,2,3,0,0,0,0,0,0	practice	ward_and_allport	1,2,3,0,0,0,0,0,0	89.0	0.0	0.581	1,0,0,2,3,0,0,0,0	to_board	s567
17.505	1.0	0	UA_with_intermediate	n/a	practice	ward_and_allport	n/a	-1.0	0.0	n/a	n/a	feedback	s567
20.007	3.669	1	UA_with_intermediate	1,2,0,0,0,0,0,0,0	practice	ward_and_allport	1,3,2,0,0,0,0,0,0	71.0	1.0	3.669	1,2,0,3,0,0,0,0,0	to_hand	s567
23.677	1.917	0	UA_with_intermediate	1,2,0,3,0,0,0,0,0	practice	ward_and_allport	1,3,2,0,0,0,0,0,0	71.0	1.0	1.917	1,2,0,3,0,0,0,0,0	to_board	s567
25.595	1.159	0	UA_with_intermediate	1,0,0,3,0,0,0,0,0	practice	ward_and_allport	1,3,2,0,0,0,0,0,0	89.0	1.0	1.159	1,2,0,3,0,0,0,0,0	to_hand	s567
26.756	0.84	0	UA_with_intermediate	1,0,0,3,0,0,2,0,0	practice	ward_and_allport	1,3,2,0,0,0,0,0,0	82.0	1.0	0.84	1,2,0,3,0,0,0,0,0	to_board	s567
27.598	0.796	0	UA_with_intermediate	1,0,0,0,0,0,2,0,0	practice	ward_and_allport	1,3,2,0,0,0,0,0,0	71.0	1.0	0.796	1,2,0,3,0,0,0,0,0	to_hand	s567
28.395	0.836	0	UA_with_intermediate	1,3,0,0,0,0,2,0,0	practice	ward_and_allport	1,3,2,0,0,0,0,0,0	89.0	1.0	0.836	1,2,0,3,0,0,0,0,0	to_board	s567
29.234	1.097	0	UA_with_intermediate	1,3,0,0,0,0,0,0,0	practice	ward_and_allport	1,3,2,0,0,0,0,0,0	82.0	1.0	1.097	1,2,0,3,0,0,0,0,0	to_hand	s567
30.331	0.481	0	UA_with_intermediate	1,3,2,0,0,0,0,0,0	practice	ward_and_allport	1,3,2,0,0,0,0,0,0	89.0	1.0	0.481	1,2,0,3,0,0,0,0,0	to_board	s567
30.816	1.0	0	UA_with_intermediate	n/a	practice	ward_and_allport	n/a	-1.0	1.0	n/a	n/a	feedback	s567
31.816	1.1	0	UA_with_intermediate	n/a	practice	ward_and_allport	n/a	-1.0	1.0	n/a	n/a	ITI	s567
32.917	2.181	1	UA_without_intermediate	0,0,0,1,2,0,0,0,0	practice	ward_and_allport	3,2,1,0,0,0,0,0,0	82.0	2.0	2.181	0,0,0,1,2,0,3,0,0	to_hand	s567
35.098	0.79	0	UA_without_intermediate	3,0,0,1,2,0,0,0,0	practice	ward_and_allport	3,2,1,0,0,0,0,0,0	89.0	2.0	0.79	0,0,0,1,2,0,3,0,0	to_board	s567
35.889	0.834	0	UA_without_intermediate	3,0,0,1,0,0,0,0,0	practice	ward_and_allport	3,2,1,0,0,0,0,0,0	71.0	2.0	0.834	0,0,0,1,2,0,3,0,0	to_hand	s567
36.725	0.498	0	UA_without_intermediate	3,2,0,1,0,0,0,0,0	practice	ward_and_allport	3,2,1,0,0,0,0,0,0	89.0	2.0	0.498	0,0,0,1,2,0,3,0,0	to_board	s567
37.224	0.79	0	UA_without_intermediate	3,2,0,0,0,0,0,0,0	practice	ward_and_allport	3,2,1,0,0,0,0,0,0	71.0	2.0	0.79	0,0,0,1,2,0,3,0,0	to_hand	s567
38.015	0.481	0	UA_without_intermediate	3,2,1,0,0,0,0,0,0	practice	ward_and_allport	3,2,1,0,0,0,0,0,0	89.0	2.0	0.481	0,0,0,1,2,0,3,0,0	to_board	s567
38.5	1.0	0	UA_without_intermediate	n/a	practice	ward_and_allport	n/a	-1.0	2.0	n/a	n/a	feedback	s567
39.5	1.2	0	UA_without_intermediate	n/a	practice	ward_and_allport	n/a	-1.0	2.0	n/a	n/a	ITI	s567
40.703	2.19	1	UA_without_intermediate	0,0,0,1,0,0,3,0,0	practice	ward_and_allport	2,3,1,0,0,0,0,0,0	71.0	3.0	2.19	0,0,0,1,2,0,3,0,0	to_hand	s567
42.893	0.471	0	UA_without_intermediate	2,0,0,1,0,0,3,0,0	practice	ward_and_allport	2,3,1,0,0,0,0,0,0	89.0	3.0	0.471	0,0,0,1,2,0,3,0,0	to_board	s567
43.367	1.601	0	UA_without_intermediate	2,0,0,1,0,0,0,0,0	practice	ward_and_allport	2,3,1,0,0,0,0,0,0	82.0	3.0	1.601	0,0,0,1,2,0,3,0,0	to_hand	s567
44.968	0.519	0	UA_without_intermediate	2,3,0,1,0,0,0,0,0	practice	ward_and_allport	2,3,1,0,0,0,0,0,0	89.0	3.0	0.519	0,0,0,1,2,0,3,0,0	to_board	s567
45.49	0.731	0	UA_without_intermediate	2,3,0,0,0,0,0,0,0	practice	ward_and_allport	2,3,1,0,0,0,0,0,0	71.0	3.0	0.731	0,0,0,1,2,0,3,0,0	to_hand	s567
46.221	0.379	0	UA_without_intermediate	2,3,1,0,0,0,0,0,0	practice	ward_and_allport	2,3,1,0,0,0,0,0,0	89.0	3.0	0.379	0,0,0,1,2,0,3,0,0	to_board	s567
46.604	1.0	0	UA_without_intermediate	n/a	practice	ward_and_allport	n/a	-1.0	3.0	n/a	n/a	feedback	s567
47.604	1.0	0	UA_without_intermediate	n/a	practice	ward_and_allport	n/a	-1.0	3.0	n/a	n/a	ITI	s567
50.611	4.705	1	PA_with_intermediate	0,0,0,1,2,0,0,0,0	test	ward_and_allport	2,3,0,1,0,0,0,0,0	71.0	0.0	4.705	0,0,0,1,2,3,0,0,0	to_hand	s567
55.317	0.506	0	PA_with_intermediate	0,0,0,1,2,0,3,0,0	test	ward_and_allport	2,3,0,1,0,0,0,0,0	82.0	0.0	0.506	0,0,0,1,2,3,0,0,0	to_board	s567
55.824	0.781	0	PA_with_intermediate	0,0,0,1,0,0,3,0,0	test	ward_and_allport	2,3,0,1,0,0,0,0,0	71.0	0.0	0.781	0,0,0,1,2,3,0,0,0	to_hand	s567
56.606	0.64	0	PA_with_intermediate	2,0,0,1,0,0,3,0,0	test	ward_and_allport	2,3,0,1,0,0,0,0,0	89.0	0.0	0.64	0,0,0,1,2,3,0,0,0	to_board	s567
57.248	0.955	0	PA_with_intermediate	2,0,0,1,0,0,0,0,0	test	ward_and_allport	2,3,0,1,0,0,0,0,0	82.0	0.0	0.955	0,0,0,1,2,3,0,0,0	to_hand	s567
58.204	0.451	0	PA_with_intermediate	2,3,0,1,0,0,0,0,0	test	ward_and_allport	2,3,0,1,0,0,0,0,0	89.0	0.0	0.451	0,0,0,1,2,3,0,0,0	to_board	s567
58.659	1.0	0	PA_with_intermediate	n/a	test	ward_and_allport	n/a	-1.0	0.0	n/a	n/a	feedback	s567
59.659	1.408	0	PA_with_intermediate	n/a	test	ward_and_allport	n/a	-1.0	0.0	n/a	n/a	ITI	s567
61.068	3.077	1	PA_without_intermediate	0,0,0,0,0,0,1,2,0	test	ward_and_allport	3,2,0,1,0,0,0,0,0	82.0	1.0	3.077	0,0,0,0,0,0,1,2,3	to_hand	s567
64.148	0.428	0	PA_without_intermediate	3,0,0,0,0,0,1,2,0	test	ward_and_allport	3,2,0,1,0,0,0,0,0	89.0	1.0	0.428	0,0,0,0,0,0,1,2,3	to_board	s567
64.578	2.328	0	PA_without_intermediate	3,0,0,0,0,0,1,0,0	test	ward_and_allport	3,2,0,1,0,0,0,0,0	82.0	1.0	2.328	0,0,0,0,0,0,1,2,3	to_hand	s567
66.907	0.429	0	PA_without_intermediate	3,2,0,0,0,0,1,0,0	test	ward_and_allport	3,2,0,1,0,0,0,0,0	89.0	1.0	0.429	0,0,0,0,0,0,1,2,3	to_board	s567
67.339	1.562	0	PA_without_intermediate	3,2,0,0,0,0,0,0,0	test	ward_and_allport	3,2,0,1,0,0,0,0,0	82.0	1.0	1.562	0,0,0,0,0,0,1,2,3	to_hand	s567
68.902	0.389	0	PA_without_intermediate	3,2,0,1,0,0,0,0,0	test	ward_and_allport	3,2,0,1,0,0,0,0,0	71.0	1.0	0.389	0,0,0,0,0,0,1,2,3	to_board	s567
69.294	1.0	0	PA_without_intermediate	n/a	test	ward_and_allport	n/a	-1.0	1.0	n/a	n/a	feedback	s567
70.294	1.68	0	PA_without_intermediate	n/a	test	ward_and_allport	n/a	-1.0	1.0	n/a	n/a	ITI	s567
71.977	5.631	1	PA_with_intermediate	1,2,0,0,0,0,0,0,0	test	ward_and_allport	1,3,0,2,0,0,0,0,0	89.0	2.0	5.631	1,2,3,0,0,0,0,0,0	to_hand	s567
77.61	0.44	0	PA_with_intermediate	1,2,0,0,0,0,3,0,0	test	ward_and_allport	1,3,0,2,0,0,0,0,0	82.0	2.0	0.44	1,2,3,0,0,0,0,0,0	to_board	s567
78.053	2.891	0	PA_with_intermediate	1,0,0,0,0,0,3,0,0	test	ward_and_allport	1,3,0,2,0,0,0,0,0	89.0	2.0	2.891	1,2,3,0,0,0,0,0,0	to_hand	s567
80.944	0.719	0	PA_with_intermediate	1,0,0,2,0,0,3,0,0	test	ward_and_allport	1,3,0,2,0,0,0,0,0	71.0	2.0	0.719	1,2,3,0,0,0,0,0,0	to_board	s567
81.665	1.039	0	PA_with_intermediate	1,0,0,2,0,0,0,0,0	test	ward_and_allport	1,3,0,2,0,0,0,0,0	82.0	2.0	1.039	1,2,3,0,0,0,0,0,0	to_hand	s567
82.705	0.447	0	PA_with_intermediate	1,3,0,2,0,0,0,0,0	test	ward_and_allport	1,3,0,2,0,0,0,0,0	89.0	2.0	0.447	1,2,3,0,0,0,0,0,0	to_board	s567
83.156	1.0	0	PA_with_intermediate	n/a	test	ward_and_allport	n/a	-1.0	2.0	n/a	n/a	feedback	s567
84.156	3.72	0	PA_with_intermediate	n/a	test	ward_and_allport	n/a	-1.0	2.0	n/a	n/a	ITI	s567
87.879	4.8	1	PA_without_intermediate	1,2,0,0,0,0,0,0,0	test	ward_and_allport	0,0,0,1,0,0,3,2,0	89.0	3.0	4.8	1,2,3,0,0,0,0,0,0	to_hand	s567
92.679	0.408	0	PA_without_intermediate	1,2,0,0,0,0,3,0,0	test	ward_and_allport	0,0,0,1,0,0,3,2,0	82.0	3.0	0.408	1,2,3,0,0,0,0,0,0	to_board	s567
93.089	1.834	0	PA_without_intermediate	1,0,0,0,0,0,3,0,0	test	ward_and_allport	0,0,0,1,0,0,3,2,0	89.0	3.0	1.834	1,2,3,0,0,0,0,0,0	to_hand	s567
94.924	1.795	0	PA_without_intermediate	1,0,0,0,0,0,3,2,0	test	ward_and_allport	0,0,0,1,0,0,3,2,0	82.0	3.0	1.795	1,2,3,0,0,0,0,0,0	to_board	s567
96.722	0.983	0	PA_without_intermediate	0,0,0,0,0,0,3,2,0	test	ward_and_allport	0,0,0,1,0,0,3,2,0	89.0	3.0	0.983	1,2,3,0,0,0,0,0,0	to_hand	s567
97.705	0.383	0	PA_without_intermediate	0,0,0,1,0,0,3,2,0	test	ward_and_allport	0,0,0,1,0,0,3,2,0	71.0	3.0	0.383	1,2,3,0,0,0,0,0,0	to_board	s567
98.092	1.0	0	PA_without_intermediate	n/a	test	ward_and_allport	n/a	-1.0	3.0	n/a	n/a	feedback	s567
99.092	2.224	0	PA_without_intermediate	n/a	test	ward_and_allport	n/a	-1.0	3.0	n/a	n/a	ITI	s567
101.319	2.813	1	PA_without_intermediate	0,0,0,0,0,0,1,2,0	test	ward_and_allport	2,0,0,3,1,0,0,0,0	82.0	4.0	2.813	0,0,0,0,0,0,1,2,3	to_hand	s567
104.133	1.308	0	PA_without_intermediate	0,0,0,3,0,0,1,2,0	test	ward_and_allport	2,0,0,3,1,0,0,0,0	71.0	4.0	1.308	0,0,0,0,0,0,1,2,3	to_board	s567
105.444	2.597	0	PA_without_intermediate	0,0,0,3,0,0,1,0,0	test	ward_and_allport	2,0,0,3,1,0,0,0,0	82.0	4.0	2.597	0,0,0,0,0,0,1,2,3	to_hand	s567
108.042	0.495	0	PA_without_intermediate	2,0,0,3,0,0,1,0,0	test	ward_and_allport	2,0,0,3,1,0,0,0,0	89.0	4.0	0.495	0,0,0,0,0,0,1,2,3	to_board	s567
108.541	1.253	0	PA_without_intermediate	2,0,0,3,0,0,0,0,0	test	ward_and_allport	2,0,0,3,1,0,0,0,0	82.0	4.0	1.253	0,0,0,0,0,0,1,2,3	to_hand	s567
109.795	0.438	0	PA_without_intermediate	2,0,0,3,1,0,0,0,0	test	ward_and_allport	2,0,0,3,1,0,0,0,0	71.0	4.0	0.438	0,0,0,0,0,0,1,2,3	to_board	s567
110.237	1.0	0	PA_without_intermediate	n/a	test	ward_and_allport	n/a	-1.0	4.0	n/a	n/a	feedback	s567
111.237	1.272	0	PA_without_intermediate	n/a	test	ward_and_allport	n/a	-1.0	4.0	n/a	n/a	ITI	s567
112.511	3.324	1	PA_with_intermediate	0,0,0,1,2,0,0,0,0	test	ward_and_allport	0,0,0,1,0,0,2,3,0	71.0	5.0	3.324	0,0,0,1,2,3,0,0,0	to_hand	s567
115.837	0.387	0	PA_with_intermediate	3,0,0,1,2,0,0,0,0	test	ward_and_allport	0,0,0,1,0,0,2,3,0	89.0	5.0	0.387	0,0,0,1,2,3,0,0,0	to_board	s567
116.227	1.193	0	PA_with_intermediate	3,0,0,1,0,0,0,0,0	test	ward_and_allport	0,0,0,1,0,0,2,3,0	71.0	5.0	1.193	0,0,0,1,2,3,0,0,0	to_hand	s567
117.421	0.723	0	PA_with_intermediate	3,0,0,1,0,0,2,0,0	test	ward_and_allport	0,0,0,1,0,0,2,3,0	82.0	5.0	0.723	0,0,0,1,2,3,0,0,0	to_board	s567
118.146	0.787	0	PA_with_intermediate	0,0,0,1,0,0,2,0,0	test	ward_and_allport	0,0,0,1,0,0,2,3,0	89.0	5.0	0.787	0,0,0,1,2,3,0,0,0	to_hand	s567
118.935	0.421	0	PA_with_intermediate	0,0,0,1,0,0,2,3,0	test	ward_and_allport	0,0,0,1,0,0,2,3,0	82.0	5.0	0.421	0,0,0,1,2,3,0,0,0	to_board	s567
119.36	1.0	0	PA_with_intermediate	n/a	test	ward_and_allport	n/a	-1.0	5.0	n/a	n/a	feedback	s567
120.36	2.632	0	PA_with_intermediate	n/a	test	ward_and_allport	n/a	-1.0	5.0	n/a	n/a	ITI	s567
122.995	3.973	1	PA_without_intermediate	1,2,0,0,0,0,0,0,0	test	ward_and_allport	0,0,0,3,2,0,1,0,0	89.0	6.0	3.973	1,2,3,0,0,0,0,0,0	to_hand	s567
126.969	0.385	0	PA_without_intermediate	1,2,0,3,0,0,0,0,0	test	ward_and_allport	0,0,0,3,2,0,1,0,0	71.0	6.0	0.385	1,2,3,0,0,0,0,0,0	to_board	s567
127.357	2.087	0	PA_without_intermediate	1,0,0,3,0,0,0,0,0	test	ward_and_allport	0,0,0,3,2,0,1,0,0	89.0	6.0	2.087	1,2,3,0,0,0,0,0,0	to_hand	s567
129.445	0.777	0	PA_without_intermediate	1,0,0,3,2,0,0,0,0	test	ward_and_allport	0,0,0,3,2,0,1,0,0	71.0	6.0	0.777	1,2,3,0,0,0,0,0,0	to_board	s567
130.227	0.483	0	PA_without_intermediate	0,0,0,3,2,0,0,0,0	test	ward_and_allport	0,0,0,3,2,0,1,0,0	89.0	6.0	0.483	1,2,3,0,0,0,0,0,0	to_hand	s567
130.711	0.49	0	PA_without_intermediate	0,0,0,3,2,0,1,0,0	test	ward_and_allport	0,0,0,3,2,0,1,0,0	82.0	6.0	0.49	1,2,3,0,0,0,0,0,0	to_board	s567
131.205	1.0	0	PA_without_intermediate	n/a	test	ward_and_allport	n/a	-1.0	6.0	n/a	n/a	feedback	s567
132.205	1.408	0	PA_without_intermediate	n/a	test	ward_and_allport	n/a	-1.0	6.0	n/a	n/a	ITI	s567
133.617	3.791	1	PA_without_intermediate	0,0,0,1,2,0,0,0,0	test	ward_and_allport	3,2,0,0,0,0,1,0,0	71.0	7.0	3.791	0,0,0,1,2,3,0,0,0	to_hand	s567
137.408	0.418	0	PA_without_intermediate	3,0,0,1,2,0,0,0,0	test	ward_and_allport	3,2,0,0,0,0,1,0,0	89.0	7.0	0.418	0,0,0,1,2,3,0,0,0	to_board	s567
137.829	1.152	0	PA_without_intermediate	3,0,0,1,0,0,0,0,0	test	ward_and_allport	3,2,0,0,0,0,1,0,0	71.0	7.0	1.152	0,0,0,1,2,3,0,0,0	to_hand	s567
138.983	0.382	0	PA_without_intermediate	3,2,0,1,0,0,0,0,0	test	ward_and_allport	3,2,0,0,0,0,1,0,0	89.0	7.0	0.382	0,0,0,1,2,3,0,0,0	to_board	s567
139.368	0.588	0	PA_without_intermediate	3,2,0,0,0,0,0,0,0	test	ward_and_allport	3,2,0,0,0,0,1,0,0	71.0	7.0	0.588	0,0,0,1,2,3,0,0,0	to_hand	s567
139.957	0.503	0	PA_without_intermediate	3,2,0,0,0,0,1,0,0	test	ward_and_allport	3,2,0,0,0,0,1,0,0	82.0	7.0	0.503	0,0,0,1,2,3,0,0,0	to_board	s567
140.465	1.0	0	PA_without_intermediate	n/a	test	ward_and_allport	n/a	-1.0	7.0	n/a	n/a	feedback	s567
141.465	1.0	0	PA_without_intermediate	n/a	test	ward_and_allport	n/a	-1.0	7.0	n/a	n/a	ITI	s567
142.468	4.514	1	PA_with_intermediate	0,0,0,1,2,0,0,0,0	test	ward_and_allport	2,0,0,1,3,0,0,0,0	71.0	8.0	4.514	0,0,0,1,2,3,0,0,0	to_hand	s567
146.983	0.484	0	PA_with_intermediate	0,0,0,1,2,0,3,0,0	test	ward_and_allport	2,0,0,1,3,0,0,0,0	82.0	8.0	0.484	0,0,0,1,2,3,0,0,0	to_board	s567
147.47	0.726	0	PA_with_intermediate	0,0,0,1,0,0,3,0,0	test	ward_and_allport	2,0,0,1,3,0,0,0,0	71.0	8.0	0.726	0,0,0,1,2,3,0,0,0	to_hand	s567
148.197	0.373	0	PA_with_intermediate	2,0,0,1,0,0,3,0,0	test	ward_and_allport	2,0,0,1,3,0,0,0,0	89.0	8.0	0.373	0,0,0,1,2,3,0,0,0	to_board	s567
148.575	1.027	0	PA_with_intermediate	2,0,0,1,0,0,0,0,0	test	ward_and_allport	2,0,0,1,3,0,0,0,0	82.0	8.0	1.027	0,0,0,1,2,3,0,0,0	to_hand	s567
149.604	0.383	0	PA_with_intermediate	2,0,0,1,3,0,0,0,0	test	ward_and_allport	2,0,0,1,3,0,0,0,0	71.0	8.0	0.383	0,0,0,1,2,3,0,0,0	to_board	s567
149.991	1.0	0	PA_with_intermediate	n/a	test	ward_and_allport	n/a	-1.0	8.0	n/a	n/a	feedback	s567
150.991	1.0	0	PA_with_intermediate	n/a	test	ward_and_allport	n/a	-1.0	8.0	n/a	n/a	ITI	s567
151.994	5.825	1	PA_with_intermediate	0,0,0,0,0,0,1,2,0	test	ward_and_allport	0,0,0,2,0,0,1,3,0	82.0	9.0	5.825	0,0,0,0,0,0,1,2,3	to_hand	s567
157.82	2.096	0	PA_with_intermediate	3,0,0,0,0,0,1,2,0	test	ward_and_allport	0,0,0,2,0,0,1,3,0	89.0	9.0	2.096	0,0,0,0,0,0,1,2,3	to_board	s567
159.919	1.625	0	PA_with_intermediate	3,0,0,0,0,0,1,0,0	test	ward_and_allport	0,0,0,2,0,0,1,3,0	82.0	9.0	1.625	0,0,0,0,0,0,1,2,3	to_hand	s567
161.546	0.441	0	PA_with_intermediate	3,0,0,2,0,0,1,0,0	test	ward_and_allport	0,0,0,2,0,0,1,3,0	71.0	9.0	0.441	0,0,0,0,0,0,1,2,3	to_board	s567
161.991	1.334	0	PA_with_intermediate	0,0,0,2,0,0,1,0,0	test	ward_and_allport	0,0,0,2,0,0,1,3,0	89.0	9.0	1.334	0,0,0,0,0,0,1,2,3	to_hand	s567
163.326	0.553	0	PA_with_intermediate	0,0,0,2,0,0,1,3,0	test	ward_and_allport	0,0,0,2,0,0,1,3,0	82.0	9.0	0.553	0,0,0,0,0,0,1,2,3	to_board	s567
163.885	1.0	0	PA_with_intermediate	n/a	test	ward_and_allport	n/a	-1.0	9.0	n/a	n/a	feedback	s567
164.885	1.0	0	PA_with_intermediate	n/a	test	ward_and_allport	n/a	-1.0	9.0	n/a	n/a	ITI	s567
165.889	3.94	1	PA_with_intermediate	0,0,0,0,0,0,1,2,0	test	ward_and_allport	0,0,0,2,3,0,1,0,0	82.0	10.0	3.94	0,0,0,0,0,0,1,2,3	to_hand	s567
169.831	0.439	0	PA_with_intermediate	3,0,0,0,0,0,1,2,0	test	ward_and_allport	0,0,0,2,3,0,1,0,0	89.0	10.0	0.439	0,0,0,0,0,0,1,2,3	to_board	s567
170.273	1.853	0	PA_with_intermediate	3,0,0,0,0,0,1,0,0	test	ward_and_allport	0,0,0,2,3,0,1,0,0	82.0	10.0	1.853	0,0,0,0,0,0,1,2,3	to_hand	s567
172.127	2.032	0	PA_with_intermediate	3,0,0,2,0,0,1,0,0	test	ward_and_allport	0,0,0,2,3,0,1,0,0	71.0	10.0	2.032	0,0,0,0,0,0,1,2,3	to_board	s567
174.163	0.652	0	PA_with_intermediate	0,0,0,2,0,0,1,0,0	test	ward_and_allport	0,0,0,2,3,0,1,0,0	89.0	10.0	0.652	0,0,0,0,0,0,1,2,3	to_hand	s567
174.816	0.383	0	PA_with_intermediate	0,0,0,2,3,0,1,0,0	test	ward_and_allport	0,0,0,2,3,0,1,0,0	71.0	10.0	0.383	0,0,0,0,0,0,1,2,3	to_board	s567
175.204	1.0	0	PA_with_intermediate	n/a	test	ward_and_allport	n/a	-1.0	10.0	n/a	n/a	feedback	s567
176.204	1.408	0	PA_with_intermediate	n/a	test	ward_and_allport	n/a	-1.0	10.0	n/a	n/a	ITI	s567
177.616	4.143	1	PA_without_intermediate	0,0,0,0,0,0,1,2,0	test	ward_and_allport	3,1,0,2,0,0,0,0,0	82.0	11.0	4.143	0,0,0,0,0,0,1,2,3	to_hand	s567
181.759	0.386	0	PA_without_intermediate	3,0,0,0,0,0,1,2,0	test	ward_and_allport	3,1,0,2,0,0,0,0,0	89.0	11.0	0.386	0,0,0,0,0,0,1,2,3	to_board	s567
182.149	2.181	0	PA_without_intermediate	3,0,0,0,0,0,1,0,0	test	ward_and_allport	3,1,0,2,0,0,0,0,0	82.0	11.0	2.181	0,0,0,0,0,0,1,2,3	to_hand	s567
184.33	0.536	0	PA_without_intermediate	3,0,0,2,0,0,1,0,0	test	ward_and_allport	3,1,0,2,0,0,0,0,0	71.0	11.0	0.536	0,0,0,0,0,0,1,2,3	to_board	s567
184.87	1.228	0	PA_without_intermediate	3,0,0,2,0,0,0,0,0	test	ward_and_allport	3,1,0,2,0,0,0,0,0	82.0	11.0	1.228	0,0,0,0,0,0,1,2,3	to_hand	s567
186.099	0.419	0	PA_without_intermediate	3,1,0,2,0,0,0,0,0	test	ward_and_allport	3,1,0,2,0,0,0,0,0	89.0	11.0	0.419	0,0,0,0,0,0,1,2,3	to_board	s567
186.523	1.0	0	PA_without_intermediate	n/a	test	ward_and_allport	n/a	-1.0	11.0	n/a	n/a	feedback	s567
187.523	1.816	0	PA_without_intermediate	n/a	test	ward_and_allport	n/a	-1.0	11.0	n/a	n/a	ITI	s567
189.343	4.816	1	PA_with_intermediate	1,2,0,0,0,0,0,0,0	test	ward_and_allport	1,0,0,2,3,0,0,0,0	89.0	12.0	4.816	1,2,3,0,0,0,0,0,0	to_hand	s567
194.16	0.359	0	PA_with_intermediate	1,2,0,0,0,0,3,0,0	test	ward_and_allport	1,0,0,2,3,0,0,0,0	82.0	12.0	0.359	1,2,3,0,0,0,0,0,0	to_board	s567
194.524	2.503	0	PA_with_intermediate	1,0,0,0,0,0,3,0,0	test	ward_and_allport	1,0,0,2,3,0,0,0,0	89.0	12.0	2.503	1,2,3,0,0,0,0,0,0	to_hand	s567
197.029	0.396	0	PA_with_intermediate	1,0,0,2,0,0,3,0,0	test	ward_and_allport	1,0,0,2,3,0,0,0,0	71.0	12.0	0.396	1,2,3,0,0,0,0,0,0	to_board	s567
197.43	1.178	0	PA_with_intermediate	1,0,0,2,0,0,0,0,0	test	ward_and_allport	1,0,0,2,3,0,0,0,0	82.0	12.0	1.178	1,2,3,0,0,0,0,0,0	to_hand	s567
198.609	0.736	0	PA_with_intermediate	1,0,0,2,3,0,0,0,0	test	ward_and_allport	1,0,0,2,3,0,0,0,0	71.0	12.0	0.736	1,2,3,0,0,0,0,0,0	to_board	s567
199.35	1.0	0	PA_with_intermediate	n/a	test	ward_and_allport	n/a	-1.0	12.0	n/a	n/a	feedback	s567
200.35	3.176	0	PA_with_intermediate	n/a	test	ward_and_allport	n/a	-1.0	12.0	n/a	n/a	ITI	s567
203.53	3.913	1	PA_with_intermediate	0,0,0,0,0,0,1,2,0	test	ward_and_allport	0,0,0,2,3,0,1,0,0	82.0	13.0	3.913	0,0,0,0,0,0,1,2,3	to_hand	s567
207.444	0.718	0	PA_with_intermediate	3,0,0,0,0,0,1,2,0	test	ward_and_allport	0,0,0,2,3,0,1,0,0	89.0	13.0	0.718	0,0,0,0,0,0,1,2,3	to_board	s567
208.166	1.865	0	PA_with_intermediate	3,0,0,0,0,0,1,0,0	test	ward_and_allport	0,0,0,2,3,0,1,0,0	82.0	13.0	1.865	0,0,0,0,0,0,1,2,3	to_hand	s567
210.032	0.478	0	PA_with_intermediate	3,0,0,2,0,0,1,0,0	test	ward_and_allport	0,0,0,2,3,0,1,0,0	71.0	13.0	0.478	0,0,0,0,0,0,1,2,3	to_board	s567
210.514	1.951	0	PA_with_intermediate	0,0,0,2,0,0,1,0,0	test	ward_and_allport	0,0,0,2,3,0,1,0,0	89.0	13.0	1.951	0,0,0,0,0,0,1,2,3	to_hand	s567
212.466	0.33	0	PA_with_intermediate	0,0,0,2,3,0,1,0,0	test	ward_and_allport	0,0,0,2,3,0,1,0,0	71.0	13.0	0.33	0,0,0,0,0,0,1,2,3	to_board	s567
212.802	1.0	0	PA_with_intermediate	n/a	test	ward_and_allport	n/a	-1.0	13.0	n/a	n/a	feedback	s567
213.802	2.36	0	PA_with_intermediate	n/a	test	ward_and_allport	n/a	-1.0	13.0	n/a	n/a	ITI	s567
216.166	4.821	1	PA_with_intermediate	1,2,0,0,0,0,0,0,0	test	ward_and_allport	1,3,0,0,0,0,2,0,0	89.0	14.0	4.821	1,2,3,0,0,0,0,0,0	to_hand	s567
220.989	0.509	0	PA_with_intermediate	1,2,0,0,0,0,3,0,0	test	ward_and_allport	1,3,0,0,0,0,2,0,0	82.0	14.0	0.509	1,2,3,0,0,0,0,0,0	to_board	s567
221.502	1.176	0	PA_with_intermediate	1,0,0,0,0,0,3,0,0	test	ward_and_allport	1,3,0,0,0,0,2,0,0	89.0	14.0	1.176	1,2,3,0,0,0,0,0,0	to_hand	s567
222.678	2.149	0	PA_with_intermediate	1,0,0,2,0,0,3,0,0	test	ward_and_allport	1,3,0,0,0,0,2,0,0	71.0	14.0	2.149	1,2,3,0,0,0,0,0,0	to_board	s567
224.831	1.362	0	PA_with_intermediate	1,0,0,2,0,0,0,0,0	test	ward_and_allport	1,3,0,0,0,0,2,0,0	82.0	14.0	1.362	1,2,3,0,0,0,0,0,0	to_hand	s567
226.194	0.535	0	PA_with_intermediate	1,3,0,2,0,0,0,0,0	test	ward_and_allport	1,3,0,0,0,0,2,0,0	89.0	14.0	0.535	1,2,3,0,0,0,0,0,0	to_board	s567
226.733	3.413	0	PA_with_intermediate	1,3,0,0,0,0,0,0,0	test	ward_and_allport	1,3,0,0,0,0,2,0,0	71.0	14.0	3.413	1,2,3,0,0,0,0,0,0	to_hand	s567
230.147	0.462	0	PA_with_intermediate	1,3,0,0,0,0,2,0,0	test	ward_and_allport	1,3,0,0,0,0,2,0,0	82.0	14.0	0.462	1,2,3,0,0,0,0,0,0	to_board	s567
230.614	1.0	0	PA_with_intermediate	n/a	test	ward_and_allport	n/a	-1.0	14.0	n/a	n/a	feedback	s567
231.614	1.0	0	PA_with_intermediate	n/a	test	ward_and_allport	n/a	-1.0	14.0	n/a	n/a	ITI	s567
237.622	2.998	1	PA_without_intermediate	1,2,0,0,0,0,0,0,0	test	ward_and_allport	0,0,0,2,0,0,3,1,0	89.0	15.0	2.998	1,2,3,0,0,0,0,0,0	to_hand	s567
240.62	0.341	0	PA_without_intermediate	1,2,0,0,0,0,3,0,0	test	ward_and_allport	0,0,0,2,0,0,3,1,0	82.0	15.0	0.341	1,2,3,0,0,0,0,0,0	to_board	s567
240.966	1.866	0	PA_without_intermediate	1,0,0,0,0,0,3,0,0	test	ward_and_allport	0,0,0,2,0,0,3,1,0	89.0	15.0	1.866	1,2,3,0,0,0,0,0,0	to_hand	s567
242.833	0.9	0	PA_without_intermediate	1,0,0,2,0,0,3,0,0	test	ward_and_allport	0,0,0,2,0,0,3,1,0	71.0	15.0	0.9	1,2,3,0,0,0,0,0,0	to_board	s567
243.737	0.381	0	PA_without_intermediate	0,0,0,2,0,0,3,0,0	test	ward_and_allport	0,0,0,2,0,0,3,1,0	89.0	15.0	0.381	1,2,3,0,0,0,0,0,0	to_hand	s567
244.118	0.355	0	PA_without_intermediate	0,0,0,2,0,0,3,1,0	test	ward_and_allport	0,0,0,2,0,0,3,1,0	82.0	15.0	0.355	1,2,3,0,0,0,0,0,0	to_board	s567
244.478	1.0	0	PA_without_intermediate	n/a	test	ward_and_allport	n/a	-1.0	15.0	n/a	n/a	feedback	s567
245.478	1.408	0	PA_without_intermediate	n/a	test	ward_and_allport	n/a	-1.0	15.0	n/a	n/a	ITI	s567
246.891	6.719	1	PA_with_intermediate	1,2,0,0,0,0,0,0,0	test	ward_and_allport	1,3,0,0,0,0,2,0,0	89.0	16.0	6.719	1,2,3,0,0,0,0,0,0	to_hand	s567
253.612	0.341	0	PA_with_intermediate	1,2,0,0,0,0,3,0,0	test	ward_and_allport	1,3,0,0,0,0,2,0,0	82.0	16.0	0.341	1,2,3,0,0,0,0,0,0	to_board	s567
253.958	2.244	0	PA_with_intermediate	1,2,0,0,0,0,0,0,0	test	ward_and_allport	1,3,0,0,0,0,2,0,0	82.0	16.0	2.244	1,2,3,0,0,0,0,0,0	to_hand	s567
256.203	0.459	0	PA_with_intermediate	1,2,0,3,0,0,0,0,0	test	ward_and_allport	1,3,0,0,0,0,2,0,0	71.0	16.0	0.459	1,2,3,0,0,0,0,0,0	to_board	s567
256.667	0.644	0	PA_with_intermediate	1,0,0,3,0,0,0,0,0	test	ward_and_allport	1,3,0,0,0,0,2,0,0	89.0	16.0	0.644	1,2,3,0,0,0,0,0,0	to_hand	s567
257.312	0.505	0	PA_with_intermediate	1,0,0,3,0,0,2,0,0	test	ward_and_allport	1,3,0,0,0,0,2,0,0	82.0	16.0	0.505	1,2,3,0,0,0,0,0,0	to_board	s567
257.822	1.467	0	PA_with_intermediate	1,0,0,0,0,0,2,0,0	test	ward_and_allport	1,3,0,0,0,0,2,0,0	71.0	16.0	1.467	1,2,3,0,0,0,0,0,0	to_hand	s567
259.29	0.38	0	PA_with_intermediate	1,3,0,0,0,0,2,0,0	test	ward_and_allport	1,3,0,0,0,0,2,0,0	89.0	16.0	0.38	1,2,3,0,0,0,0,0,0	to_board	s567
259.676	1.0	0	PA_with_intermediate	n/a	test	ward_and_allport	n/a	-1.0	16.0	n/a	n/a	feedback	s567
260.676	1.816	0	PA_with_intermediate	n/a	test	ward_and_allport	n/a	-1.0	16.0	n/a	n/a	ITI	s567
262.497	3.634	1	PA_without_intermediate	0,0,0,0,0,0,1,2,0	test	ward_and_allport	2,0,0,3,1,0,0,0,0	82.0	17.0	3.634	0,0,0,0,0,0,1,2,3	to_hand	s567
266.131	0.928	0	PA_without_intermediate	0,0,0,3,0,0,1,2,0	test	ward_and_allport	2,0,0,3,1,0,0,0,0	71.0	17.0	0.928	0,0,0,0,0,0,1,2,3	to_board	s567
267.063	1.873	0	PA_without_intermediate	0,0,0,3,0,0,1,0,0	test	ward_and_allport	2,0,0,3,1,0,0,0,0	82.0	17.0	1.873	0,0,0,0,0,0,1,2,3	to_hand	s567
268.936	0.482	0	PA_without_intermediate	2,0,0,3,0,0,1,0,0	test	ward_and_allport	2,0,0,3,1,0,0,0,0	89.0	17.0	0.482	0,0,0,0,0,0,1,2,3	to_board	s567
269.422	1.12	0	PA_without_intermediate	2,0,0,3,0,0,0,0,0	test	ward_and_allport	2,0,0,3,1,0,0,0,0	82.0	17.0	1.12	0,0,0,0,0,0,1,2,3	to_hand	s567
270.542	0.333	0	PA_without_intermediate	2,0,0,3,1,0,0,0,0	test	ward_and_allport	2,0,0,3,1,0,0,0,0	71.0	17.0	0.333	0,0,0,0,0,0,1,2,3	to_board	s567
270.882	1.0	0	PA_without_intermediate	n/a	test	ward_and_allport	n/a	-1.0	17.0	n/a	n/a	feedback	s567
271.882	2.088	0	PA_without_intermediate	n/a	test	ward_and_allport	n/a	-1.0	17.0	n/a	n/a	ITI	s567
273.975	3.319	1	PA_without_intermediate	0,0,0,1,2,0,0,0,0	test	ward_and_allport	3,2,0,0,0,0,1,0,0	71.0	18.0	3.319	0,0,0,1,2,3,0,0,0	to_hand	s567
277.294	0.389	0	PA_without_intermediate	3,0,0,1,2,0,0,0,0	test	ward_and_allport	3,2,0,0,0,0,1,0,0	89.0	18.0	0.389	0,0,0,1,2,3,0,0,0	to_board	s567
277.689	1.064	0	PA_without_intermediate	3,0,0,1,0,0,0,0,0	test	ward_and_allport	3,2,0,0,0,0,1,0,0	71.0	18.0	1.064	0,0,0,1,2,3,0,0,0	to_hand	s567
278.753	0.325	0	PA_without_intermediate	3,2,0,1,0,0,0,0,0	test	ward_and_allport	3,2,0,0,0,0,1,0,0	89.0	18.0	0.325	0,0,0,1,2,3,0,0,0	to_board	s567
279.084	0.529	0	PA_without_intermediate	3,2,0,0,0,0,0,0,0	test	ward_and_allport	3,2,0,0,0,0,1,0,0	71.0	18.0	0.529	0,0,0,1,2,3,0,0,0	to_hand	s567
279.614	0.318	0	PA_without_intermediate	3,2,0,0,0,0,1,0,0	test	ward_and_allport	3,2,0,0,0,0,1,0,0	82.0	18.0	0.318	0,0,0,1,2,3,0,0,0	to_board	s567
279.938	1.0	0	PA_without_intermediate	n/a	test	ward_and_allport	n/a	-1.0	18.0	n/a	n/a	feedback	s567
280.938	1.136	0	PA_without_intermediate	n/a	test	ward_and_allport	n/a	-1.0	18.0	n/a	n/a	ITI	s567
282.079	3.095	1	PA_without_intermediate	0,0,0,0,0,0,1,2,0	test	ward_and_allport	1,0,0,3,2,0,0,0,0	82.0	19.0	3.095	0,0,0,0,0,0,1,2,3	to_hand	s567
285.176	0.334	0	PA_without_intermediate	0,0,0,3,0,0,1,2,0	test	ward_and_allport	1,0,0,3,2,0,0,0,0	71.0	19.0	0.334	0,0,0,0,0,0,1,2,3	to_board	s567
285.514	2.846	0	PA_without_intermediate	0,0,0,3,0,0,1,0,0	test	ward_and_allport	1,0,0,3,2,0,0,0,0	82.0	19.0	2.846	0,0,0,0,0,0,1,2,3	to_hand	s567
288.361	1.389	0	PA_without_intermediate	0,0,0,3,2,0,1,0,0	test	ward_and_allport	1,0,0,3,2,0,0,0,0	71.0	19.0	1.389	0,0,0,0,0,0,1,2,3	to_board	s567
289.755	0.496	0	PA_without_intermediate	0,0,0,3,2,0,0,0,0	test	ward_and_allport	1,0,0,3,2,0,0,0,0	82.0	19.0	0.496	0,0,0,0,0,0,1,2,3	to_hand	s567
290.252	0.363	0	PA_without_intermediate	1,0,0,3,2,0,0,0,0	test	ward_and_allport	1,0,0,3,2,0,0,0,0	89.0	19.0	0.363	0,0,0,0,0,0,1,2,3	to_board	s567
290.622	1.0	0	PA_without_intermediate	n/a	test	ward_and_allport	n/a	-1.0	19.0	n/a	n/a	feedback	s567
291.622	6.168	0	PA_without_intermediate	n/a	test	ward_and_allport	n/a	-1.0	19.0	n/a	n/a	ITI	s567
297.795	3.26	1	PA_without_intermediate	1,2,0,0,0,0,0,0,0	test	ward_and_allport	0,0,0,3,2,0,1,0,0	89.0	20.0	3.26	1,2,3,0,0,0,0,0,0	to_hand	s567
301.056	0.336	0	PA_without_intermediate	1,2,0,3,0,0,0,0,0	test	ward_and_allport	0,0,0,3,2,0,1,0,0	71.0	20.0	0.336	1,2,3,0,0,0,0,0,0	to_board	s567
301.397	1.145	0	PA_without_intermediate	1,0,0,3,0,0,0,0,0	test	ward_and_allport	0,0,0,3,2,0,1,0,0	89.0	20.0	1.145	1,2,3,0,0,0,0,0,0	to_hand	s567
302.542	0.31	0	PA_without_intermediate	1,0,0,3,2,0,0,0,0	test	ward_and_allport	0,0,0,3,2,0,1,0,0	71.0	20.0	0.31	1,2,3,0,0,0,0,0,0	to_board	s567
302.858	0.516	0	PA_without_intermediate	0,0,0,3,2,0,0,0,0	test	ward_and_allport	0,0,0,3,2,0,1,0,0	89.0	20.0	0.516	1,2,3,0,0,0,0,0,0	to_hand	s567
303.374	0.299	0	PA_without_intermediate	0,0,0,3,2,0,1,0,0	test	ward_and_allport	0,0,0,3,2,0,1,0,0	82.0	20.0	0.299	1,2,3,0,0,0,0,0,0	to_board	s567
303.681	1.0	0	PA_without_intermediate	n/a	test	ward_and_allport	n/a	-1.0	20.0	n/a	n/a	feedback	s567
304.681	1.816	0	PA_without_intermediate	n/a	test	ward_and_allport	n/a	-1.0	20.0	n/a	n/a	ITI	s567
306.502	4.04	1	PA_with_intermediate	1,2,0,0,0,0,0,0,0	test	ward_and_allport	1,0,0,0,0,0,2,3,0	89.0	21.0	4.04	1,2,3,0,0,0,0,0,0	to_hand	s567
310.543	0.992	0	PA_with_intermediate	1,2,0,3,0,0,0,0,0	test	ward_and_allport	1,0,0,0,0,0,2,3,0	71.0	21.0	0.992	1,2,3,0,0,0,0,0,0	to_board	s567
311.542	2.782	0	PA_with_intermediate	1,0,0,3,0,0,0,0,0	test	ward_and_allport	1,0,0,0,0,0,2,3,0	89.0	21.0	2.782	1,2,3,0,0,0,0,0,0	to_hand	s567
314.324	0.366	0	PA_with_intermediate	1,0,0,3,0,0,2,0,0	test	ward_and_allport	1,0,0,0,0,0,2,3,0	82.0	21.0	0.366	1,2,3,0,0,0,0,0,0	to_board	s567
314.697	1.356	0	PA_with_intermediate	1,0,0,0,0,0,2,0,0	test	ward_and_allport	1,0,0,0,0,0,2,3,0	71.0	21.0	1.356	1,2,3,0,0,0,0,0,0	to_hand	s567
316.053	0.763	0	PA_with_intermediate	1,0,0,0,0,0,2,3,0	test	ward_and_allport	1,0,0,0,0,0,2,3,0	82.0	21.0	0.763	1,2,3,0,0,0,0,0,0	to_board	s567
316.823	1.0	0	PA_with_intermediate	n/a	test	ward_and_allport	n/a	-1.0	21.0	n/a	n/a	feedback	s567
317.823	1.952	0	PA_with_intermediate	n/a	test	ward_and_allport	n/a	-1.0	21.0	n/a	n/a	ITI	s567
319.782	5.544	1	PA_with_intermediate	0,0,0,0,0,0,1,2,0	test	ward_and_allport	2,0,0,0,0,0,1,3,0	82.0	22.0	5.544	0,0,0,0,0,0,1,2,3	to_hand	s567
325.327	1.536	0	PA_with_intermediate	0,0,0,3,0,0,1,2,0	test	ward_and_allport	2,0,0,0,0,0,1,3,0	71.0	22.0	1.536	0,0,0,0,0,0,1,2,3	to_board	s567
326.87	0.768	0	PA_with_intermediate	0,0,0,3,0,0,1,0,0	test	ward_and_allport	2,0,0,0,0,0,1,3,0	82.0	22.0	0.768	0,0,0,0,0,0,1,2,3	to_hand	s567
327.639	0.408	0	PA_with_intermediate	2,0,0,3,0,0,1,0,0	test	ward_and_allport	2,0,0,0,0,0,1,3,0	89.0	22.0	0.408	0,0,0,0,0,0,1,2,3	to_board	s567
328.053	1.027	0	PA_with_intermediate	2,0,0,0,0,0,1,0,0	test	ward_and_allport	2,0,0,0,0,0,1,3,0	71.0	22.0	1.027	0,0,0,0,0,0,1,2,3	to_hand	s567
329.08	0.31	0	PA_with_intermediate	2,0,0,0,0,0,1,3,0	test	ward_and_allport	2,0,0,0,0,0,1,3,0	82.0	22.0	0.31	0,0,0,0,0,0,1,2,3	to_board	s567
329.398	1.0	0	PA_with_intermediate	n/a	test	ward_and_allport	n/a	-1.0	22.0	n/a	n/a	feedback	s567
330.398	1.136	0	PA_with_intermediate	n/a	test	ward_and_allport	n/a	-1.0	22.0	n/a	n/a	ITI	s567
331.54	2.947	1	PA_without_intermediate	0,0,0,1,2,0,0,0,0	test	ward_and_allport	3,1,0,0,0,0,2,0,0	71.0	23.0	2.947	0,0,0,1,2,3,0,0,0	to_hand	s567
334.488	0.313	0	PA_without_intermediate	3,0,0,1,2,0,0,0,0	test	ward_and_allport	3,1,0,0,0,0,2,0,0	89.0	23.0	0.313	0,0,0,1,2,3,0,0,0	to_board	s567
334.807	1.109	0	PA_without_intermediate	3,0,0,1,0,0,0,0,0	test	ward_and_allport	3,1,0,0,0,0,2,0,0	71.0	23.0	1.109	0,0,0,1,2,3,0,0,0	to_hand	s567
335.918	0.546	0	PA_without_intermediate	3,0,0,1,0,0,2,0,0	test	ward_and_allport	3,1,0,0,0,0,2,0,0	82.0	23.0	0.546	0,0,0,1,2,3,0,0,0	to_board	s567
336.471	0.643	0	PA_without_intermediate	3,0,0,0,0,0,2,0,0	test	ward_and_allport	3,1,0,0,0,0,2,0,0	71.0	23.0	0.643	0,0,0,1,2,3,0,0,0	to_hand	s567
337.114	0.286	0	PA_without_intermediate	3,1,0,0,0,0,2,0,0	test	ward_and_allport	3,1,0,0,0,0,2,0,0	89.0	23.0	0.286	0,0,0,1,2,3,0,0,0	to_board	s567
337.408	1.0	0	PA_without_intermediate	n/a	test	ward_and_allport	n/a	-1.0	23.0	n/a	n/a	feedback	s567
338.408	1.68	0	PA_without_intermediate	n/a	test	ward_and_allport	n/a	-1.0	23.0	n/a	n/a	ITI	s567
340.095	2.298	1	PA_without_intermediate	0,0,0,1,2,0,0,0,0	test	ward_and_allport	1,0,0,0,0,0,3,2,0	71.0	24.0	2.298	0,0,0,1,2,3,0,0,0	to_hand	s567
342.393	0.33	0	PA_without_intermediate	0,0,0,1,2,0,3,0,0	test	ward_and_allport	1,0,0,0,0,0,3,2,0	82.0	24.0	0.33	0,0,0,1,2,3,0,0,0	to_board	s567
342.73	2.674	0	PA_without_intermediate	0,0,0,1,0,0,3,0,0	test	ward_and_allport	1,0,0,0,0,0,3,2,0	71.0	24.0	2.674	0,0,0,1,2,3,0,0,0	to_hand	s567
345.405	0.36	0	PA_without_intermediate	0,0,0,1,0,0,3,2,0	test	ward_and_allport	1,0,0,0,0,0,3,2,0	82.0	24.0	0.36	0,0,0,1,2,3,0,0,0	to_board	s567
345.772	0.852	0	PA_without_intermediate	0,0,0,0,0,0,3,2,0	test	ward_and_allport	1,0,0,0,0,0,3,2,0	71.0	24.0	0.852	0,0,0,1,2,3,0,0,0	to_hand	s567
346.625	0.321	0	PA_without_intermediate	1,0,0,0,0,0,3,2,0	test	ward_and_allport	1,0,0,0,0,0,3,2,0	89.0	24.0	0.321	0,0,0,1,2,3,0,0,0	to_board	s567
346.955	1.0	0	PA_without_intermediate	n/a	test	ward_and_allport	n/a	-1.0	24.0	n/a	n/a	feedback	s567
347.955	2.088	0	PA_without_intermediate	n/a	test	ward_and_allport	n/a	-1.0	24.0	n/a	n/a	ITI	s567
350.05	3.732	1	PA_with_intermediate	0,0,0,1,2,0,0,0,0	test	ward_and_allport	2,0,0,1,3,0,0,0,0	71.0	25.0	3.732	0,0,0,1,2,3,0,0,0	to_hand	s567
353.782	0.609	0	PA_with_intermediate	0,0,0,1,2,0,3,0,0	test	ward_and_allport	2,0,0,1,3,0,0,0,0	82.0	25.0	0.609	0,0,0,1,2,3,0,0,0	to_board	s567
354.397	0.517	0	PA_with_intermediate	0,0,0,1,0,0,3,0,0	test	ward_and_allport	2,0,0,1,3,0,0,0,0	71.0	25.0	0.517	0,0,0,1,2,3,0,0,0	to_hand	s567
354.915	0.474	0	PA_with_intermediate	2,0,0,1,0,0,3,0,0	test	ward_and_allport	2,0,0,1,3,0,0,0,0	89.0	25.0	0.474	0,0,0,1,2,3,0,0,0	to_board	s567
355.395	0.8	0	PA_with_intermediate	2,0,0,0,0,0,3,0,0	test	ward_and_allport	2,0,0,1,3,0,0,0,0	71.0	25.0	0.8	0,0,0,1,2,3,0,0,0	to_hand	s567
356.195	0.941	0	PA_with_intermediate	2,0,0,1,0,0,3,0,0	test	ward_and_allport	2,0,0,1,3,0,0,0,0	71.0	25.0	0.941	0,0,0,1,2,3,0,0,0	to_board	s567
357.142	0.44	0	PA_with_intermediate	2,0,0,1,0,0,0,0,0	test	ward_and_allport	2,0,0,1,3,0,0,0,0	82.0	25.0	0.44	0,0,0,1,2,3,0,0,0	to_hand	s567
357.584	0.599	0	PA_with_intermediate	2,0,0,1,3,0,0,0,0	test	ward_and_allport	2,0,0,1,3,0,0,0,0	71.0	25.0	0.599	0,0,0,1,2,3,0,0,0	to_board	s567
358.191	1.0	0	PA_with_intermediate	n/a	test	ward_and_allport	n/a	-1.0	25.0	n/a	n/a	feedback	s567
359.191	1.0	0	PA_with_intermediate	n/a	test	ward_and_allport	n/a	-1.0	25.0	n/a	n/a	ITI	s567
360.197	3.219	1	PA_without_intermediate	0,0,0,0,0,0,1,2,0	test	ward_and_allport	1,0,0,3,2,0,0,0,0	82.0	26.0	3.219	0,0,0,0,0,0,1,2,3	to_hand	s567
363.418	0.405	0	PA_without_intermediate	0,0,0,3,0,0,1,2,0	test	ward_and_allport	1,0,0,3,2,0,0,0,0	71.0	26.0	0.405	0,0,0,0,0,0,1,2,3	to_board	s567
363.83	2.134	0	PA_without_intermediate	0,0,0,3,0,0,1,0,0	test	ward_and_allport	1,0,0,3,2,0,0,0,0	82.0	26.0	2.134	0,0,0,0,0,0,1,2,3	to_hand	s567
365.965	0.391	0	PA_without_intermediate	0,0,0,3,2,0,1,0,0	test	ward_and_allport	1,0,0,3,2,0,0,0,0	71.0	26.0	0.391	0,0,0,0,0,0,1,2,3	to_board	s567
366.363	0.723	0	PA_without_intermediate	0,0,0,3,2,0,0,0,0	test	ward_and_allport	1,0,0,3,2,0,0,0,0	82.0	26.0	0.723	0,0,0,0,0,0,1,2,3	to_hand	s567
367.087	0.359	0	PA_without_intermediate	1,0,0,3,2,0,0,0,0	test	ward_and_allport	1,0,0,3,2,0,0,0,0	89.0	26.0	0.359	0,0,0,0,0,0,1,2,3	to_board	s567
367.454	1.0	0	PA_without_intermediate	n/a	test	ward_and_allport	n/a	-1.0	26.0	n/a	n/a	feedback	s567
368.454	1.0	0	PA_without_intermediate	n/a	test	ward_and_allport	n/a	-1.0	26.0	n/a	n/a	ITI	s567
369.461	2.56	1	PA_without_intermediate	1,2,0,0,0,0,0,0,0	test	ward_and_allport	0,0,0,2,0,0,3,1,0	89.0	27.0	2.56	1,2,3,0,0,0,0,0,0	to_hand	s567
372.021	0.317	0	PA_without_intermediate	1,2,0,0,0,0,3,0,0	test	ward_and_allport	0,0,0,2,0,0,3,1,0	82.0	27.0	0.317	1,2,3,0,0,0,0,0,0	to_board	s567
372.345	1.945	0	PA_without_intermediate	1,0,0,0,0,0,3,0,0	test	ward_and_allport	0,0,0,2,0,0,3,1,0	89.0	27.0	1.945	1,2,3,0,0,0,0,0,0	to_hand	s567
374.291	0.349	0	PA_without_intermediate	1,0,0,2,0,0,3,0,0	test	ward_and_allport	0,0,0,2,0,0,3,1,0	71.0	27.0	0.349	1,2,3,0,0,0,0,0,0	to_board	s567
374.647	0.578	0	PA_without_intermediate	0,0,0,2,0,0,3,0,0	test	ward_and_allport	0,0,0,2,0,0,3,1,0	89.0	27.0	0.578	1,2,3,0,0,0,0,0,0	to_hand	s567
375.225	0.271	0	PA_without_intermediate	0,0,0,2,0,0,3,1,0	test	ward_and_allport	0,0,0,2,0,0,3,1,0	82.0	27.0	0.271	1,2,3,0,0,0,0,0,0	to_board	s567
375.505	1.0	0	PA_without_intermediate	n/a	test	ward_and_allport	n/a	-1.0	27.0	n/a	n/a	feedback	s567
376.505	1.0	0	PA_without_intermediate	n/a	test	ward_and_allport	n/a	-1.0	27.0	n/a	n/a	ITI	s567
377.513	3.753	1	PA_with_intermediate	0,0,0,1,2,0,0,0,0	test	ward_and_allport	0,0,0,1,3,0,2,0,0	71.0	28.0	3.753	0,0,0,1,2,3,0,0,0	to_hand	s567
381.266	0.75	0	PA_with_intermediate	3,0,0,1,2,0,0,0,0	test	ward_and_allport	0,0,0,1,3,0,2,0,0	89.0	28.0	0.75	0,0,0,1,2,3,0,0,0	to_board	s567
382.023	0.85	0	PA_with_intermediate	3,0,0,1,0,0,0,0,0	test	ward_and_allport	0,0,0,1,3,0,2,0,0	71.0	28.0	0.85	0,0,0,1,2,3,0,0,0	to_hand	s567
382.874	0.356	0	PA_with_intermediate	3,0,0,1,0,0,2,0,0	test	ward_and_allport	0,0,0,1,3,0,2,0,0	82.0	28.0	0.356	0,0,0,1,2,3,0,0,0	to_board	s567
383.238	1.015	0	PA_with_intermediate	0,0,0,1,0,0,2,0,0	test	ward_and_allport	0,0,0,1,3,0,2,0,0	89.0	28.0	1.015	0,0,0,1,2,3,0,0,0	to_hand	s567
384.254	0.336	0	PA_with_intermediate	0,0,0,1,3,0,2,0,0	test	ward_and_allport	0,0,0,1,3,0,2,0,0	71.0	28.0	0.336	0,0,0,1,2,3,0,0,0	to_board	s567
384.598	1.0	0	PA_with_intermediate	n/a	test	ward_and_allport	n/a	-1.0	28.0	n/a	n/a	feedback	s567
385.598	1.544	0	PA_with_intermediate	n/a	test	ward_and_allport	n/a	-1.0	28.0	n/a	n/a	ITI	s567
387.15	3.335	1	PA_without_intermediate	0,0,0,1,2,0,0,0,0	test	ward_and_allport	2,0,0,0,0,0,3,1,0	71.0	29.0	3.335	0,0,0,1,2,3,0,0,0	to_hand	s567
390.485	0.295	0	PA_without_intermediate	0,0,0,1,2,0,3,0,0	test	ward_and_allport	2,0,0,0,0,0,3,1,0	82.0	29.0	0.295	0,0,0,1,2,3,0,0,0	to_board	s567
390.788	1.241	0	PA_without_intermediate	0,0,0,1,0,0,3,0,0	test	ward_and_allport	2,0,0,0,0,0,3,1,0	71.0	29.0	1.241	0,0,0,1,2,3,0,0,0	to_hand	s567
392.029	0.352	0	PA_without_intermediate	2,0,0,1,0,0,3,0,0	test	ward_and_allport	2,0,0,0,0,0,3,1,0	89.0	29.0	0.352	0,0,0,1,2,3,0,0,0	to_board	s567
392.388	0.741	0	PA_without_intermediate	2,0,0,0,0,0,3,0,0	test	ward_and_allport	2,0,0,0,0,0,3,1,0	71.0	29.0	0.741	0,0,0,1,2,3,0,0,0	to_hand	s567
393.13	0.304	0	PA_without_intermediate	2,0,0,0,0,0,3,1,0	test	ward_and_allport	2,0,0,0,0,0,3,1,0	82.0	29.0	0.304	0,0,0,1,2,3,0,0,0	to_board	s567
393.443	1.0	0	PA_without_intermediate	n/a	test	ward_and_allport	n/a	-1.0	29.0	n/a	n/a	feedback	s567
394.443	1.272	0	PA_without_intermediate	n/a	test	ward_and_allport	n/a	-1.0	29.0	n/a	n/a	ITI	s567
400.725	2.725	1	PA_with_intermediate	0,0,0,0,0,0,1,2,0	test	ward_and_allport	2,3,0,0,0,0,1,0,0	82.0	30.0	2.725	0,0,0,0,0,0,1,2,3	to_hand	s567
403.451	0.307	0	PA_with_intermediate	3,0,0,0,0,0,1,2,0	test	ward_and_allport	2,3,0,0,0,0,1,0,0	89.0	30.0	0.307	0,0,0,0,0,0,1,2,3	to_board	s567
403.767	1.539	0	PA_with_intermediate	3,0,0,0,0,0,1,0,0	test	ward_and_allport	2,3,0,0,0,0,1,0,0	82.0	30.0	1.539	0,0,0,0,0,0,1,2,3	to_hand	s567
405.306	1.85	0	PA_with_intermediate	3,0,0,2,0,0,1,0,0	test	ward_and_allport	2,3,0,0,0,0,1,0,0	71.0	30.0	1.85	0,0,0,0,0,0,1,2,3	to_board	s567
407.164	0.754	0	PA_with_intermediate	0,0,0,2,0,0,1,0,0	test	ward_and_allport	2,3,0,0,0,0,1,0,0	89.0	30.0	0.754	0,0,0,0,0,0,1,2,3	to_hand	s567
407.919	2.24	0	PA_with_intermediate	0,0,0,2,0,0,1,3,0	test	ward_and_allport	2,3,0,0,0,0,1,0,0	82.0	30.0	2.24	0,0,0,0,0,0,1,2,3	to_board	s567
410.167	0.445	0	PA_with_intermediate	0,0,0,0,0,0,1,3,0	test	ward_and_allport	2,3,0,0,0,0,1,0,0	71.0	30.0	0.445	0,0,0,0,0,0,1,2,3	to_hand	s567
410.613	0.384	0	PA_with_intermediate	2,0,0,0,0,0,1,3,0	test	ward_and_allport	2,3,0,0,0,0,1,0,0	89.0	30.0	0.384	0,0,0,0,0,0,1,2,3	to_board	s567
411.005	1.404	0	PA_with_intermediate	2,0,0,0,0,0,1,0,0	test	ward_and_allport	2,3,0,0,0,0,1,0,0	82.0	30.0	1.404	0,0,0,0,0,0,1,2,3	to_hand	s567
412.411	0.376	0	PA_with_intermediate	2,3,0,0,0,0,1,0,0	test	ward_and_allport	2,3,0,0,0,0,1,0,0	89.0	30.0	0.376	0,0,0,0,0,0,1,2,3	to_board	s567
412.796	1.0	0	PA_with_intermediate	n/a	test	ward_and_allport	n/a	-1.0	30.0	n/a	n/a	feedback	s567
413.796	3.04	0	PA_with_intermediate	n/a	test	ward_and_allport	n/a	-1.0	30.0	n/a	n/a	ITI	s567
416.842	3.163	1	PA_with_intermediate	1,2,0,0,0,0,0,0,0	test	ward_and_allport	1,3,0,2,0,0,0,0,0	89.0	31.0	3.163	1,2,3,0,0,0,0,0,0	to_hand	s567
420.007	0.306	0	PA_with_intermediate	1,2,0,0,0,0,3,0,0	test	ward_and_allport	1,3,0,2,0,0,0,0,0	82.0	31.0	0.306	1,2,3,0,0,0,0,0,0	to_board	s567
420.321	1.455	0	PA_with_intermediate	1,0,0,0,0,0,3,0,0	test	ward_and_allport	1,3,0,2,0,0,0,0,0	89.0	31.0	1.455	1,2,3,0,0,0,0,0,0	to_hand	s567
421.777	0.334	0	PA_with_intermediate	1,0,0,2,0,0,3,0,0	test	ward_and_allport	1,3,0,2,0,0,0,0,0	71.0	31.0	0.334	1,2,3,0,0,0,0,0,0	to_board	s567
422.12	1.617	0	PA_with_intermediate	1,0,0,2,0,0,0,0,0	test	ward_and_allport	1,3,0,2,0,0,0,0,0	82.0	31.0	1.617	1,2,3,0,0,0,0,0,0	to_hand	s567
423.737	0.59	0	PA_with_intermediate	1,3,0,2,0,0,0,0,0	test	ward_and_allport	1,3,0,2,0,0,0,0,0	89.0	31.0	0.59	1,2,3,0,0,0,0,0,0	to_board	s567
424.338	1.0	0	PA_with_intermediate	n/a	test	ward_and_allport	n/a	-1.0	31.0	n/a	n/a	feedback	s567
425.338	1.272	0	PA_with_intermediate	n/a	test	ward_and_allport	n/a	-1.0	31.0	n/a	n/a	ITI	s567
426.616	2.69	1	PA_with_intermediate	0,0,0,1,2,0,0,0,0	test	ward_and_allport	0,0,0,1,3,0,2,0,0	71.0	32.0	2.69	0,0,0,1,2,3,0,0,0	to_hand	s567
429.308	0.32	0	PA_with_intermediate	3,0,0,1,2,0,0,0,0	test	ward_and_allport	0,0,0,1,3,0,2,0,0	89.0	32.0	0.32	0,0,0,1,2,3,0,0,0	to_board	s567
429.634	0.477	0	PA_with_intermediate	3,0,0,1,0,0,0,0,0	test	ward_and_allport	0,0,0,1,3,0,2,0,0	71.0	32.0	0.477	0,0,0,1,2,3,0,0,0	to_hand	s567
430.111	0.353	0	PA_with_intermediate	3,0,0,1,0,0,2,0,0	test	ward_and_allport	0,0,0,1,3,0,2,0,0	82.0	32.0	0.353	0,0,0,1,2,3,0,0,0	to_board	s567
430.472	1.402	0	PA_with_intermediate	0,0,0,1,0,0,2,0,0	test	ward_and_allport	0,0,0,1,3,0,2,0,0	89.0	32.0	1.402	0,0,0,1,2,3,0,0,0	to_hand	s567
431.875	0.312	0	PA_with_intermediate	0,0,0,1,3,0,2,0,0	test	ward_and_allport	0,0,0,1,3,0,2,0,0	71.0	32.0	0.312	0,0,0,1,2,3,0,0,0	to_board	s567
432.198	1.0	0	PA_with_intermediate	n/a	test	ward_and_allport	n/a	-1.0	32.0	n/a	n/a	feedback	s567
433.198	1.136	0	PA_with_intermediate	n/a	test	ward_and_allport	n/a	-1.0	32.0	n/a	n/a	ITI	s567
434.342	4.702	1	PA_with_intermediate	0,0,0,0,0,0,1,2,0	test	ward_and_allport	2,0,0,0,0,0,1,3,0	82.0	33.0	4.702	0,0,0,0,0,0,1,2,3	to_hand	s567
439.046	0.352	0	PA_with_intermediate	0,0,0,3,0,0,1,2,0	test	ward_and_allport	2,0,0,0,0,0,1,3,0	71.0	33.0	0.352	0,0,0,0,0,0,1,2,3	to_board	s567
439.405	0.963	0	PA_with_intermediate	0,0,0,3,0,0,1,0,0	test	ward_and_allport	2,0,0,0,0,0,1,3,0	82.0	33.0	0.963	0,0,0,0,0,0,1,2,3	to_hand	s567
440.37	0.402	0	PA_with_intermediate	2,0,0,3,0,0,1,0,0	test	ward_and_allport	2,0,0,0,0,0,1,3,0	89.0	33.0	0.402	0,0,0,0,0,0,1,2,3	to_board	s567
440.781	0.889	0	PA_with_intermediate	2,0,0,0,0,0,1,0,0	test	ward_and_allport	2,0,0,0,0,0,1,3,0	71.0	33.0	0.889	0,0,0,0,0,0,1,2,3	to_hand	s567
441.672	0.338	0	PA_with_intermediate	2,0,0,0,0,0,1,3,0	test	ward_and_allport	2,0,0,0,0,0,1,3,0	82.0	33.0	0.338	0,0,0,0,0,0,1,2,3	to_board	s567
442.021	1.0	0	PA_with_intermediate	n/a	test	ward_and_allport	n/a	-1.0	33.0	n/a	n/a	feedback	s567
443.021	1.0	0	PA_with_intermediate	n/a	test	ward_and_allport	n/a	-1.0	33.0	n/a	n/a	ITI	s567
444.03	2.897	1	PA_with_intermediate	0,0,0,1,2,0,0,0,0	test	ward_and_allport	2,3,0,1,0,0,0,0,0	71.0	34.0	2.897	0,0,0,1,2,3,0,0,0	to_hand	s567
446.928	0.398	0	PA_with_intermediate	0,0,0,1,2,0,3,0,0	test	ward_and_allport	2,3,0,1,0,0,0,0,0	82.0	34.0	0.398	0,0,0,1,2,3,0,0,0	to_board	s567
447.335	0.707	0	PA_with_intermediate	0,0,0,1,0,0,3,0,0	test	ward_and_allport	2,3,0,1,0,0,0,0,0	71.0	34.0	0.707	0,0,0,1,2,3,0,0,0	to_hand	s567
448.043	0.33	0	PA_with_intermediate	2,0,0,1,0,0,3,0,0	test	ward_and_allport	2,3,0,1,0,0,0,0,0	89.0	34.0	0.33	0,0,0,1,2,3,0,0,0	to_board	s567
448.382	1.201	0	PA_with_intermediate	2,0,0,1,0,0,0,0,0	test	ward_and_allport	2,3,0,1,0,0,0,0,0	82.0	34.0	1.201	0,0,0,1,2,3,0,0,0	to_hand	s567
449.584	0.572	0	PA_with_intermediate	2,3,0,1,0,0,0,0,0	test	ward_and_allport	2,3,0,1,0,0,0,0,0	89.0	34.0	0.572	0,0,0,1,2,3,0,0,0	to_board	s567
450.164	1.0	0	PA_with_intermediate	n/a	test	ward_and_allport	n/a	-1.0	34.0	n/a	n/a	feedback	s567
451.164	1.0	0	PA_with_intermediate	n/a	test	ward_and_allport	n/a	-1.0	34.0	n/a	n/a	ITI	s567
452.171	3.129	1	PA_without_intermediate	0,0,0,0,0,0,1,2,0	test	ward_and_allport	3,1,0,2,0,0,0,0,0	82.0	35.0	3.129	0,0,0,0,0,0,1,2,3	to_hand	s567
455.3	0.309	0	PA_without_intermediate	3,0,0,0,0,0,1,2,0	test	ward_and_allport	3,1,0,2,0,0,0,0,0	89.0	35.0	0.309	0,0,0,0,0,0,1,2,3	to_board	s567
455.616	2.508	0	PA_without_intermediate	3,0,0,0,0,0,1,0,0	test	ward_and_allport	3,1,0,2,0,0,0,0,0	82.0	35.0	2.508	0,0,0,0,0,0,1,2,3	to_hand	s567
458.125	1.344	0	PA_without_intermediate	3,0,0,2,0,0,1,0,0	test	ward_and_allport	3,1,0,2,0,0,0,0,0	71.0	35.0	1.344	0,0,0,0,0,0,1,2,3	to_board	s567
459.479	1.823	0	PA_without_intermediate	3,0,0,2,0,0,0,0,0	test	ward_and_allport	3,1,0,2,0,0,0,0,0	82.0	35.0	1.823	0,0,0,0,0,0,1,2,3	to_hand	s567
461.302	0.33	0	PA_without_intermediate	3,1,0,2,0,0,0,0,0	test	ward_and_allport	3,1,0,2,0,0,0,0,0	89.0	35.0	0.33	0,0,0,0,0,0,1,2,3	to_board	s567
461.643	1.0	0	PA_without_intermediate	n/a	test	ward_and_allport	n/a	-1.0	35.0	n/a	n/a	feedback	s567
462.643	1.408	0	PA_without_intermediate	n/a	test	ward_and_allport	n/a	-1.0	35.0	n/a	n/a	ITI	s567
464.06	3.035	1	PA_with_intermediate	0,0,0,0,0,0,1,2,0	test	ward_and_allport	2,3,0,0,0,0,1,0,0	82.0	36.0	3.035	0,0,0,0,0,0,1,2,3	to_hand	s567
467.097	0.358	0	PA_with_intermediate	0,0,0,3,0,0,1,2,0	test	ward_and_allport	2,3,0,0,0,0,1,0,0	71.0	36.0	0.358	0,0,0,0,0,0,1,2,3	to_board	s567
467.465	1.514	0	PA_with_intermediate	0,0,0,3,0,0,1,0,0	test	ward_and_allport	2,3,0,0,0,0,1,0,0	82.0	36.0	1.514	0,0,0,0,0,0,1,2,3	to_hand	s567
468.979	0.59	0	PA_with_intermediate	2,0,0,3,0,0,1,0,0	test	ward_and_allport	2,3,0,0,0,0,1,0,0	89.0	36.0	0.59	0,0,0,0,0,0,1,2,3	to_board	s567
469.578	0.652	0	PA_with_intermediate	2,0,0,0,0,0,1,0,0	test	ward_and_allport	2,3,0,0,0,0,1,0,0	71.0	36.0	0.652	0,0,0,0,0,0,1,2,3	to_hand	s567
470.23	0.313	0	PA_with_intermediate	2,3,0,0,0,0,1,0,0	test	ward_and_allport	2,3,0,0,0,0,1,0,0	89.0	36.0	0.313	0,0,0,0,0,0,1,2,3	to_board	s567
470.554	1.0	0	PA_with_intermediate	n/a	test	ward_and_allport	n/a	-1.0	36.0	n/a	n/a	feedback	s567
471.554	2.768	0	PA_with_intermediate	n/a	test	ward_and_allport	n/a	-1.0	36.0	n/a	n/a	ITI	s567
474.331	4.501	1	PA_with_intermediate	0,0,0,0,0,0,1,2,0	test	ward_and_allport	0,0,0,2,0,0,1,3,0	82.0	37.0	4.501	0,0,0,0,0,0,1,2,3	to_hand	s567
478.833	0.347	0	PA_with_intermediate	3,0,0,0,0,0,1,2,0	test	ward_and_allport	0,0,0,2,0,0,1,3,0	89.0	37.0	0.347	0,0,0,0,0,0,1,2,3	to_board	s567
479.19	1.386	0	PA_with_intermediate	3,0,0,0,0,0,1,0,0	test	ward_and_allport	0,0,0,2,0,0,1,3,0	82.0	37.0	1.386	0,0,0,0,0,0,1,2,3	to_hand	s567
480.578	0.315	0	PA_with_intermediate	3,0,0,2,0,0,1,0,0	test	ward_and_allport	0,0,0,2,0,0,1,3,0	71.0	37.0	0.315	0,0,0,0,0,0,1,2,3	to_board	s567
480.9	0.751	0	PA_with_intermediate	0,0,0,2,0,0,1,0,0	test	ward_and_allport	0,0,0,2,0,0,1,3,0	89.0	37.0	0.751	0,0,0,0,0,0,1,2,3	to_hand	s567
481.652	0.336	0	PA_with_intermediate	0,0,0,2,0,0,1,3,0	test	ward_and_allport	0,0,0,2,0,0,1,3,0	82.0	37.0	0.336	0,0,0,0,0,0,1,2,3	to_board	s567
481.999	1.0	0	PA_with_intermediate	n/a	test	ward_and_allport	n/a	-1.0	37.0	n/a	n/a	feedback	s567
482.999	1.68	0	PA_with_intermediate	n/a	test	ward_and_allport	n/a	-1.0	37.0	n/a	n/a	ITI	s567
484.687	3.433	1	PA_without_intermediate	1,2,0,0,0,0,0,0,0	test	ward_and_allport	0,0,0,1,0,0,3,2,0	89.0	38.0	3.433	1,2,3,0,0,0,0,0,0	to_hand	s567
488.122	0.258	0	PA_without_intermediate	1,2,0,0,0,0,3,0,0	test	ward_and_allport	0,0,0,1,0,0,3,2,0	82.0	38.0	0.258	1,2,3,0,0,0,0,0,0	to_board	s567
488.387	0.73	0	PA_without_intermediate	1,0,0,0,0,0,3,0,0	test	ward_and_allport	0,0,0,1,0,0,3,2,0	89.0	38.0	0.73	1,2,3,0,0,0,0,0,0	to_hand	s567
489.118	0.346	0	PA_without_intermediate	1,0,0,0,0,0,3,2,0	test	ward_and_allport	0,0,0,1,0,0,3,2,0	82.0	38.0	0.346	1,2,3,0,0,0,0,0,0	to_board	s567
489.474	0.856	0	PA_without_intermediate	0,0,0,0,0,0,3,2,0	test	ward_and_allport	0,0,0,1,0,0,3,2,0	89.0	38.0	0.856	1,2,3,0,0,0,0,0,0	to_hand	s567
490.331	0.353	0	PA_without_intermediate	0,0,0,1,0,0,3,2,0	test	ward_and_allport	0,0,0,1,0,0,3,2,0	71.0	38.0	0.353	1,2,3,0,0,0,0,0,0	to_board	s567
490.694	1.0	0	PA_without_intermediate	n/a	test	ward_and_allport	n/a	-1.0	38.0	n/a	n/a	feedback	s567
491.694	2.224	0	PA_without_intermediate	n/a	test	ward_and_allport	n/a	-1.0	38.0	n/a	n/a	ITI	s567
493.929	3.097	1	PA_without_intermediate	0,0,0,1,2,0,0,0,0	test	ward_and_allport	1,0,0,0,0,0,3,2,0	71.0	39.0	3.097	0,0,0,1,2,3,0,0,0	to_hand	s567
497.028	0.286	0	PA_without_intermediate	0,0,0,1,2,0,3,0,0	test	ward_and_allport	1,0,0,0,0,0,3,2,0	82.0	39.0	0.286	0,0,0,1,2,3,0,0,0	to_board	s567
497.323	1.441	0	PA_without_intermediate	0,0,0,1,0,0,3,0,0	test	ward_and_allport	1,0,0,0,0,0,3,2,0	71.0	39.0	1.441	0,0,0,1,2,3,0,0,0	to_hand	s567
498.765	0.314	0	PA_without_intermediate	0,0,0,1,0,0,3,2,0	test	ward_and_allport	1,0,0,0,0,0,3,2,0	82.0	39.0	0.314	0,0,0,1,2,3,0,0,0	to_board	s567
499.088	0.536	0	PA_without_intermediate	0,0,0,0,0,0,3,2,0	test	ward_and_allport	1,0,0,0,0,0,3,2,0	71.0	39.0	0.536	0,0,0,1,2,3,0,0,0	to_hand	s567
499.625	0.295	0	PA_without_intermediate	1,0,0,0,0,0,3,2,0	test	ward_and_allport	1,0,0,0,0,0,3,2,0	89.0	39.0	0.295	0,0,0,1,2,3,0,0,0	to_board	s567
499.929	1.0	0	PA_without_intermediate	n/a	test	ward_and_allport	n/a	-1.0	39.0	n/a	n/a	feedback	s567
500.929	2.36	0	PA_without_intermediate	n/a	test	ward_and_allport	n/a	-1.0	39.0	n/a	n/a	ITI	s567
503.296	2.467	1	PA_without_intermediate	1,2,0,0,0,0,0,0,0	test	ward_and_allport	0,0,0,3,1,0,2,0,0	89.0	40.0	2.467	1,2,3,0,0,0,0,0,0	to_hand	s567
505.764	0.305	0	PA_without_intermediate	1,2,0,3,0,0,0,0,0	test	ward_and_allport	0,0,0,3,1,0,2,0,0	71.0	40.0	0.305	1,2,3,0,0,0,0,0,0	to_board	s567
506.075	0.718	0	PA_without_intermediate	1,0,0,3,0,0,0,0,0	test	ward_and_allport	0,0,0,3,1,0,2,0,0	89.0	40.0	0.718	1,2,3,0,0,0,0,0,0	to_hand	s567
506.793	0.311	0	PA_without_intermediate	1,0,0,3,0,0,2,0,0	test	ward_and_allport	0,0,0,3,1,0,2,0,0	82.0	40.0	0.311	1,2,3,0,0,0,0,0,0	to_board	s567
507.114	0.707	0	PA_without_intermediate	0,0,0,3,0,0,2,0,0	test	ward_and_allport	0,0,0,3,1,0,2,0,0	89.0	40.0	0.707	1,2,3,0,0,0,0,0,0	to_hand	s567
507.821	0.274	0	PA_without_intermediate	0,0,0,3,1,0,2,0,0	test	ward_and_allport	0,0,0,3,1,0,2,0,0	71.0	40.0	0.274	1,2,3,0,0,0,0,0,0	to_board	s567
508.107	1.0	0	PA_without_intermediate	n/a	test	ward_and_allport	n/a	-1.0	40.0	n/a	n/a	feedback	s567
509.107	1.0	0	PA_without_intermediate	n/a	test	ward_and_allport	n/a	-1.0	40.0	n/a	n/a	ITI	s567
510.117	2.491	1	PA_without_intermediate	0,0,0,0,0,0,1,2,0	test	ward_and_allport	3,2,0,1,0,0,0,0,0	82.0	41.0	2.491	0,0,0,0,0,0,1,2,3	to_hand	s567
512.61	0.267	0	PA_without_intermediate	3,0,0,0,0,0,1,2,0	test	ward_and_allport	3,2,0,1,0,0,0,0,0	89.0	41.0	0.267	0,0,0,0,0,0,1,2,3	to_board	s567
512.883	1.353	0	PA_without_intermediate	3,0,0,0,0,0,1,0,0	test	ward_and_allport	3,2,0,1,0,0,0,0,0	82.0	41.0	1.353	0,0,0,0,0,0,1,2,3	to_hand	s567
514.238	0.31	0	PA_without_intermediate	3,2,0,0,0,0,1,0,0	test	ward_and_allport	3,2,0,1,0,0,0,0,0	89.0	41.0	0.31	0,0,0,0,0,0,1,2,3	to_board	s567
514.555	1.246	0	PA_without_intermediate	3,2,0,0,0,0,0,0,0	test	ward_and_allport	3,2,0,1,0,0,0,0,0	82.0	41.0	1.246	0,0,0,0,0,0,1,2,3	to_hand	s567
515.802	0.277	0	PA_without_intermediate	3,2,0,1,0,0,0,0,0	test	ward_and_allport	3,2,0,1,0,0,0,0,0	71.0	41.0	0.277	0,0,0,0,0,0,1,2,3	to_board	s567
516.09	1.0	0	PA_without_intermediate	n/a	test	ward_and_allport	n/a	-1.0	41.0	n/a	n/a	feedback	s567
517.09	1.408	0	PA_without_intermediate	n/a	test	ward_and_allport	n/a	-1.0	41.0	n/a	n/a	ITI	s567
518.507	2.493	1	PA_with_intermediate	0,0,0,1,2,0,0,0,0	test	ward_and_allport	0,0,0,1,0,0,2,3,0	71.0	42.0	2.493	0,0,0,1,2,3,0,0,0	to_hand	s567
521.001	0.277	0	PA_with_intermediate	0,0,0,1,2,0,3,0,0	test	ward_and_allport	0,0,0,1,0,0,2,3,0	82.0	42.0	0.277	0,0,0,1,2,3,0,0,0	to_board	s567
521.286	1.726	0	PA_with_intermediate	0,0,0,1,2,0,0,0,0	test	ward_and_allport	0,0,0,1,0,0,2,3,0	82.0	42.0	1.726	0,0,0,1,2,3,0,0,0	to_hand	s567
523.012	0.646	0	PA_with_intermediate	3,0,0,1,2,0,0,0,0	test	ward_and_allport	0,0,0,1,0,0,2,3,0	89.0	42.0	0.646	0,0,0,1,2,3,0,0,0	to_board	s567
523.667	0.487	0	PA_with_intermediate	3,0,0,1,0,0,0,0,0	test	ward_and_allport	0,0,0,1,0,0,2,3,0	71.0	42.0	0.487	0,0,0,1,2,3,0,0,0	to_hand	s567
524.155	0.479	0	PA_with_intermediate	3,0,0,1,0,0,2,0,0	test	ward_and_allport	0,0,0,1,0,0,2,3,0	82.0	42.0	0.479	0,0,0,1,2,3,0,0,0	to_board	s567
524.644	0.988	0	PA_with_intermediate	0,0,0,1,0,0,2,0,0	test	ward_and_allport	0,0,0,1,0,0,2,3,0	89.0	42.0	0.988	0,0,0,1,2,3,0,0,0	to_hand	s567
525.633	0.628	0	PA_with_intermediate	0,0,0,1,0,0,2,3,0	test	ward_and_allport	0,0,0,1,0,0,2,3,0	82.0	42.0	0.628	0,0,0,1,2,3,0,0,0	to_board	s567
526.273	1.0	0	PA_with_intermediate	n/a	test	ward_and_allport	n/a	-1.0	42.0	n/a	n/a	feedback	s567
527.273	1.136	0	PA_with_intermediate	n/a	test	ward_and_allport	n/a	-1.0	42.0	n/a	n/a	ITI	s567
528.417	4.326	1	PA_without_intermediate	0,0,0,1,2,0,0,0,0	test	ward_and_allport	2,0,0,0,0,0,3,1,0	71.0	43.0	4.326	0,0,0,1,2,3,0,0,0	to_hand	s567
532.744	0.336	0	PA_without_intermediate	0,0,0,1,2,0,3,0,0	test	ward_and_allport	2,0,0,0,0,0,3,1,0	82.0	43.0	0.336	0,0,0,1,2,3,0,0,0	to_board	s567
533.088	0.608	0	PA_without_intermediate	0,0,0,1,0,0,3,0,0	test	ward_and_allport	2,0,0,0,0,0,3,1,0	71.0	43.0	0.608	0,0,0,1,2,3,0,0,0	to_hand	s567
533.697	0.254	0	PA_without_intermediate	2,0,0,1,0,0,3,0,0	test	ward_and_allport	2,0,0,0,0,0,3,1,0	89.0	43.0	0.254	0,0,0,1,2,3,0,0,0	to_board	s567
533.961	0.494	0	PA_without_intermediate	2,0,0,0,0,0,3,0,0	test	ward_and_allport	2,0,0,0,0,0,3,1,0	71.0	43.0	0.494	0,0,0,1,2,3,0,0,0	to_hand	s567
534.456	0.285	0	PA_without_intermediate	2,0,0,0,0,0,3,1,0	test	ward_and_allport	2,0,0,0,0,0,3,1,0	82.0	43.0	0.285	0,0,0,1,2,3,0,0,0	to_board	s567
534.753	1.0	0	PA_without_intermediate	n/a	test	ward_and_allport	n/a	-1.0	43.0	n/a	n/a	feedback	s567
535.753	4.128	0	PA_without_intermediate	n/a	test	ward_and_allport	n/a	-1.0	43.0	n/a	n/a	ITI	s567
539.893	3.332	1	PA_without_intermediate	1,2,0,0,0,0,0,0,0	test	ward_and_allport	0,0,0,3,1,0,2,0,0	89.0	44.0	3.332	1,2,3,0,0,0,0,0,0	to_hand	s567
543.226	0.271	0	PA_without_intermediate	1,2,0,3,0,0,0,0,0	test	ward_and_allport	0,0,0,3,1,0,2,0,0	71.0	44.0	0.271	1,2,3,0,0,0,0,0,0	to_board	s567
543.51	0.917	0	PA_without_intermediate	1,0,0,3,0,0,0,0,0	test	ward_and_allport	0,0,0,3,1,0,2,0,0	89.0	44.0	0.917	1,2,3,0,0,0,0,0,0	to_hand	s567
544.428	0.285	0	PA_without_intermediate	1,0,0,3,0,0,2,0,0	test	ward_and_allport	0,0,0,3,1,0,2,0,0	82.0	44.0	0.285	1,2,3,0,0,0,0,0,0	to_board	s567
544.725	0.701	0	PA_without_intermediate	0,0,0,3,0,0,2,0,0	test	ward_and_allport	0,0,0,3,1,0,2,0,0	89.0	44.0	0.701	1,2,3,0,0,0,0,0,0	to_hand	s567
545.426	0.23	0	PA_without_intermediate	0,0,0,3,1,0,2,0,0	test	ward_and_allport	0,0,0,3,1,0,2,0,0	71.0	44.0	0.23	1,2,3,0,0,0,0,0,0	to_board	s567
545.668	1.0	0	PA_without_intermediate	n/a	test	ward_and_allport	n/a	-1.0	44.0	n/a	n/a	feedback	s567
546.668	1.136	0	PA_without_intermediate	n/a	test	ward_and_allport	n/a	-1.0	44.0	n/a	n/a	ITI	s567
552.817	2.33	1	PA_without_intermediate	0,0,0,1,2,0,0,0,0	test	ward_and_allport	3,1,0,0,0,0,2,0,0	71.0	45.0	2.33	0,0,0,1,2,3,0,0,0	to_hand	s567
555.148	0.245	0	PA_without_intermediate	3,0,0,1,2,0,0,0,0	test	ward_and_allport	3,1,0,0,0,0,2,0,0	89.0	45.0	0.245	0,0,0,1,2,3,0,0,0	to_board	s567
555.405	1.01	0	PA_without_intermediate	3,0,0,1,0,0,0,0,0	test	ward_and_allport	3,1,0,0,0,0,2,0,0	71.0	45.0	1.01	0,0,0,1,2,3,0,0,0	to_hand	s567
556.417	0.254	0	PA_without_intermediate	3,0,0,1,0,0,2,0,0	test	ward_and_allport	3,1,0,0,0,0,2,0,0	82.0	45.0	0.254	0,0,0,1,2,3,0,0,0	to_board	s567
556.684	0.935	0	PA_without_intermediate	3,0,0,0,0,0,2,0,0	test	ward_and_allport	3,1,0,0,0,0,2,0,0	71.0	45.0	0.935	0,0,0,1,2,3,0,0,0	to_hand	s567
557.62	0.248	0	PA_without_intermediate	3,1,0,0,0,0,2,0,0	test	ward_and_allport	3,1,0,0,0,0,2,0,0	89.0	45.0	0.248	0,0,0,1,2,3,0,0,0	to_board	s567
557.879	1.0	0	PA_without_intermediate	n/a	test	ward_and_allport	n/a	-1.0	45.0	n/a	n/a	feedback	s567
558.879	4.264	0	PA_without_intermediate	n/a	test	ward_and_allport	n/a	-1.0	45.0	n/a	n/a	ITI	s567
n/a	n/a	0	n/a	n/a	n/a	n/a	n/a	n/a	n/a	n/a	n/a	ITI	n/a
