onset	duration	planning	condition	current_position	exp_stage	experiment_exp_id	goal_state	key_press	problem_id	response_time	start_state	trial_id	worker_id
-58.384	0.0	0	n/a	n/a	n/a	ward_and_allport	n/a	32.0	n/a	22.268	n/a	instructions	s577
3.015	4.871	1	UA_with_intermediate	1,0,0,2,0,0,0,0,0	practice	ward_and_allport	1,2,3,0,0,0,0,0,0	71.0	0.0	4.871	1,0,0,2,3,0,0,0,0	to_hand	s577
7.888	1.166	0	UA_with_intermediate	1,0,0,2,0,0,3,0,0	practice	ward_and_allport	1,2,3,0,0,0,0,0,0	82.0	0.0	1.166	1,0,0,2,3,0,0,0,0	to_board	s577
9.056	0.917	0	UA_with_intermediate	1,0,0,0,0,0,3,0,0	practice	ward_and_allport	1,2,3,0,0,0,0,0,0	71.0	0.0	0.917	1,0,0,2,3,0,0,0,0	to_hand	s577
9.975	0.497	0	UA_with_intermediate	1,2,0,0,0,0,3,0,0	practice	ward_and_allport	1,2,3,0,0,0,0,0,0	89.0	0.0	0.497	1,0,0,2,3,0,0,0,0	to_board	s577
10.473	2.127	0	UA_with_intermediate	1,2,0,0,0,0,0,0,0	practice	ward_and_allport	1,2,3,0,0,0,0,0,0	82.0	0.0	2.127	1,0,0,2,3,0,0,0,0	to_hand	s577
12.602	0.765	0	UA_with_intermediate	1,2,3,0,0,0,0,0,0	practice	ward_and_allport	1,2,3,0,0,0,0,0,0	89.0	0.0	0.765	1,0,0,2,3,0,0,0,0	to_board	s577
13.373	1.0	0	UA_with_intermediate	n/a	practice	ward_and_allport	n/a	-1.0	0.0	n/a	n/a	feedback	s577
15.875	3.913	1	UA_with_intermediate	1,0,0,3,0,0,0,0,0	practice	ward_and_allport	1,3,2,0,0,0,0,0,0	89.0	1.0	3.913	1,2,0,3,0,0,0,0,0	to_hand	s577
19.789	0.6	0	UA_with_intermediate	1,0,0,3,0,0,2,0,0	practice	ward_and_allport	1,3,2,0,0,0,0,0,0	82.0	1.0	0.6	1,2,0,3,0,0,0,0,0	to_board	s577
20.391	1.004	0	UA_with_intermediate	1,0,0,0,0,0,2,0,0	practice	ward_and_allport	1,3,2,0,0,0,0,0,0	71.0	1.0	1.004	1,2,0,3,0,0,0,0,0	to_hand	s577
21.396	0.436	0	UA_with_intermediate	1,3,0,0,0,0,2,0,0	practice	ward_and_allport	1,3,2,0,0,0,0,0,0	89.0	1.0	0.436	1,2,0,3,0,0,0,0,0	to_board	s577
21.832	1.634	0	UA_with_intermediate	1,3,0,0,0,0,0,0,0	practice	ward_and_allport	1,3,2,0,0,0,0,0,0	82.0	1.0	1.634	1,2,0,3,0,0,0,0,0	to_hand	s577
23.468	0.441	0	UA_with_intermediate	1,3,2,0,0,0,0,0,0	practice	ward_and_allport	1,3,2,0,0,0,0,0,0	89.0	1.0	0.441	1,2,0,3,0,0,0,0,0	to_board	s577
23.914	1.0	0	UA_with_intermediate	n/a	practice	ward_and_allport	n/a	-1.0	1.0	n/a	n/a	feedback	s577
24.914	1.1	0	UA_with_intermediate	n/a	practice	ward_and_allport	n/a	-1.0	1.0	n/a	n/a	ITI	s577
26.016	2.531	1	UA_without_intermediate	0,0,0,1,2,0,0,0,0	practice	ward_and_allport	3,2,1,0,0,0,0,0,0	82.0	2.0	2.531	0,0,0,1,2,0,3,0,0	to_hand	s577
28.547	0.535	0	UA_without_intermediate	3,0,0,1,2,0,0,0,0	practice	ward_and_allport	3,2,1,0,0,0,0,0,0	89.0	2.0	0.535	0,0,0,1,2,0,3,0,0	to_board	s577
29.085	1.337	0	UA_without_intermediate	3,0,0,1,0,0,0,0,0	practice	ward_and_allport	3,2,1,0,0,0,0,0,0	71.0	2.0	1.337	0,0,0,1,2,0,3,0,0	to_hand	s577
30.424	0.322	0	UA_without_intermediate	3,2,0,1,0,0,0,0,0	practice	ward_and_allport	3,2,1,0,0,0,0,0,0	89.0	2.0	0.322	0,0,0,1,2,0,3,0,0	to_board	s577
30.748	1.414	0	UA_without_intermediate	3,2,0,0,0,0,0,0,0	practice	ward_and_allport	3,2,1,0,0,0,0,0,0	71.0	2.0	1.414	0,0,0,1,2,0,3,0,0	to_hand	s577
32.163	0.36	0	UA_without_intermediate	3,2,1,0,0,0,0,0,0	practice	ward_and_allport	3,2,1,0,0,0,0,0,0	89.0	2.0	0.36	0,0,0,1,2,0,3,0,0	to_board	s577
32.531	1.0	0	UA_without_intermediate	n/a	practice	ward_and_allport	n/a	-1.0	2.0	n/a	n/a	feedback	s577
33.531	1.2	0	UA_without_intermediate	n/a	practice	ward_and_allport	n/a	-1.0	2.0	n/a	n/a	ITI	s577
34.733	2.468	1	UA_without_intermediate	0,0,0,1,0,0,3,0,0	practice	ward_and_allport	2,3,1,0,0,0,0,0,0	71.0	3.0	2.468	0,0,0,1,2,0,3,0,0	to_hand	s577
37.203	0.326	0	UA_without_intermediate	2,0,0,1,0,0,3,0,0	practice	ward_and_allport	2,3,1,0,0,0,0,0,0	89.0	3.0	0.326	0,0,0,1,2,0,3,0,0	to_board	s577
37.532	1.422	0	UA_without_intermediate	2,0,0,1,0,0,0,0,0	practice	ward_and_allport	2,3,1,0,0,0,0,0,0	82.0	3.0	1.422	0,0,0,1,2,0,3,0,0	to_hand	s577
38.955	0.356	0	UA_without_intermediate	2,0,0,1,3,0,0,0,0	practice	ward_and_allport	2,3,1,0,0,0,0,0,0	71.0	3.0	0.356	0,0,0,1,2,0,3,0,0	to_board	s577
39.313	0.69	0	UA_without_intermediate	2,0,0,1,0,0,0,0,0	practice	ward_and_allport	2,3,1,0,0,0,0,0,0	71.0	3.0	0.69	0,0,0,1,2,0,3,0,0	to_hand	s577
40.004	0.32	0	UA_without_intermediate	2,3,0,1,0,0,0,0,0	practice	ward_and_allport	2,3,1,0,0,0,0,0,0	89.0	3.0	0.32	0,0,0,1,2,0,3,0,0	to_board	s577
40.326	0.999	0	UA_without_intermediate	2,3,0,0,0,0,0,0,0	practice	ward_and_allport	2,3,1,0,0,0,0,0,0	71.0	3.0	0.999	0,0,0,1,2,0,3,0,0	to_hand	s577
41.326	0.235	0	UA_without_intermediate	2,3,1,0,0,0,0,0,0	practice	ward_and_allport	2,3,1,0,0,0,0,0,0	89.0	3.0	0.235	0,0,0,1,2,0,3,0,0	to_board	s577
41.564	1.0	0	UA_without_intermediate	n/a	practice	ward_and_allport	n/a	-1.0	3.0	n/a	n/a	feedback	s577
42.564	1.0	0	UA_without_intermediate	n/a	practice	ward_and_allport	n/a	-1.0	3.0	n/a	n/a	ITI	s577
45.569	5.705	1	PA_without_intermediate	1,2,0,0,0,0,0,0,0	test	ward_and_allport	0,0,0,1,0,0,3,2,0	89.0	0.0	5.705	1,2,3,0,0,0,0,0,0	to_hand	s577
51.275	1.385	0	PA_without_intermediate	1,2,0,0,0,0,3,0,0	test	ward_and_allport	0,0,0,1,0,0,3,2,0	82.0	0.0	1.385	1,2,3,0,0,0,0,0,0	to_board	s577
52.662	2.073	0	PA_without_intermediate	1,0,0,0,0,0,3,0,0	test	ward_and_allport	0,0,0,1,0,0,3,2,0	89.0	0.0	2.073	1,2,3,0,0,0,0,0,0	to_hand	s577
54.736	1.402	0	PA_without_intermediate	1,0,0,0,0,0,3,2,0	test	ward_and_allport	0,0,0,1,0,0,3,2,0	82.0	0.0	1.402	1,2,3,0,0,0,0,0,0	to_board	s577
56.141	1.429	0	PA_without_intermediate	0,0,0,0,0,0,3,2,0	test	ward_and_allport	0,0,0,1,0,0,3,2,0	89.0	0.0	1.429	1,2,3,0,0,0,0,0,0	to_hand	s577
57.571	0.898	0	PA_without_intermediate	0,0,0,1,0,0,3,2,0	test	ward_and_allport	0,0,0,1,0,0,3,2,0	71.0	0.0	0.898	1,2,3,0,0,0,0,0,0	to_board	s577
58.472	1.0	0	PA_without_intermediate	n/a	test	ward_and_allport	n/a	-1.0	0.0	n/a	n/a	feedback	s577
59.472	2.088	0	PA_without_intermediate	n/a	test	ward_and_allport	n/a	-1.0	0.0	n/a	n/a	ITI	s577
61.562	3.711	1	PA_with_intermediate	0,0,0,0,0,0,1,2,0	test	ward_and_allport	2,3,0,0,0,0,1,0,0	82.0	1.0	3.711	0,0,0,0,0,0,1,2,3	to_hand	s577
65.274	0.699	0	PA_with_intermediate	3,0,0,0,0,0,1,2,0	test	ward_and_allport	2,3,0,0,0,0,1,0,0	89.0	1.0	0.699	0,0,0,0,0,0,1,2,3	to_board	s577
65.975	2.958	0	PA_with_intermediate	0,0,0,0,0,0,1,2,0	test	ward_and_allport	2,3,0,0,0,0,1,0,0	89.0	1.0	2.958	0,0,0,0,0,0,1,2,3	to_hand	s577
68.933	0.423	0	PA_with_intermediate	0,0,0,3,0,0,1,2,0	test	ward_and_allport	2,3,0,0,0,0,1,0,0	71.0	1.0	0.423	0,0,0,0,0,0,1,2,3	to_board	s577
69.358	1.466	0	PA_with_intermediate	0,0,0,3,0,0,1,0,0	test	ward_and_allport	2,3,0,0,0,0,1,0,0	82.0	1.0	1.466	0,0,0,0,0,0,1,2,3	to_hand	s577
70.826	1.446	0	PA_with_intermediate	2,0,0,3,0,0,1,0,0	test	ward_and_allport	2,3,0,0,0,0,1,0,0	89.0	1.0	1.446	0,0,0,0,0,0,1,2,3	to_board	s577
72.274	0.92	0	PA_with_intermediate	2,0,0,0,0,0,1,0,0	test	ward_and_allport	2,3,0,0,0,0,1,0,0	71.0	1.0	0.92	0,0,0,0,0,0,1,2,3	to_hand	s577
73.194	0.596	0	PA_with_intermediate	2,3,0,0,0,0,1,0,0	test	ward_and_allport	2,3,0,0,0,0,1,0,0	89.0	1.0	0.596	0,0,0,0,0,0,1,2,3	to_board	s577
73.794	1.0	0	PA_with_intermediate	n/a	test	ward_and_allport	n/a	-1.0	1.0	n/a	n/a	feedback	s577
74.794	1.0	0	PA_with_intermediate	n/a	test	ward_and_allport	n/a	-1.0	1.0	n/a	n/a	ITI	s577
75.796	3.477	1	PA_without_intermediate	1,2,0,0,0,0,0,0,0	test	ward_and_allport	0,0,0,3,2,0,1,0,0	89.0	2.0	3.477	1,2,3,0,0,0,0,0,0	to_hand	s577
79.274	0.443	0	PA_without_intermediate	1,2,0,3,0,0,0,0,0	test	ward_and_allport	0,0,0,3,2,0,1,0,0	71.0	2.0	0.443	1,2,3,0,0,0,0,0,0	to_board	s577
79.719	2.658	0	PA_without_intermediate	1,0,0,3,0,0,0,0,0	test	ward_and_allport	0,0,0,3,2,0,1,0,0	89.0	2.0	2.658	1,2,3,0,0,0,0,0,0	to_hand	s577
82.378	0.514	0	PA_without_intermediate	1,0,0,3,2,0,0,0,0	test	ward_and_allport	0,0,0,3,2,0,1,0,0	71.0	2.0	0.514	1,2,3,0,0,0,0,0,0	to_board	s577
82.894	0.655	0	PA_without_intermediate	0,0,0,3,2,0,0,0,0	test	ward_and_allport	0,0,0,3,2,0,1,0,0	89.0	2.0	0.655	1,2,3,0,0,0,0,0,0	to_hand	s577
83.55	0.594	0	PA_without_intermediate	0,0,0,3,2,0,1,0,0	test	ward_and_allport	0,0,0,3,2,0,1,0,0	82.0	2.0	0.594	1,2,3,0,0,0,0,0,0	to_board	s577
84.149	1.0	0	PA_without_intermediate	n/a	test	ward_and_allport	n/a	-1.0	2.0	n/a	n/a	feedback	s577
85.149	1.0	0	PA_without_intermediate	n/a	test	ward_and_allport	n/a	-1.0	2.0	n/a	n/a	ITI	s577
86.151	3.156	1	PA_without_intermediate	0,0,0,1,2,0,0,0,0	test	ward_and_allport	3,2,0,0,0,0,1,0,0	71.0	3.0	3.156	0,0,0,1,2,3,0,0,0	to_hand	s577
89.309	0.558	0	PA_without_intermediate	3,0,0,1,2,0,0,0,0	test	ward_and_allport	3,2,0,0,0,0,1,0,0	89.0	3.0	0.558	0,0,0,1,2,3,0,0,0	to_board	s577
89.87	0.876	0	PA_without_intermediate	3,0,0,1,0,0,0,0,0	test	ward_and_allport	3,2,0,0,0,0,1,0,0	71.0	3.0	0.876	0,0,0,1,2,3,0,0,0	to_hand	s577
90.746	0.364	0	PA_without_intermediate	3,2,0,1,0,0,0,0,0	test	ward_and_allport	3,2,0,0,0,0,1,0,0	89.0	3.0	0.364	0,0,0,1,2,3,0,0,0	to_board	s577
91.112	0.944	0	PA_without_intermediate	3,2,0,0,0,0,0,0,0	test	ward_and_allport	3,2,0,0,0,0,1,0,0	71.0	3.0	0.944	0,0,0,1,2,3,0,0,0	to_hand	s577
92.057	0.539	0	PA_without_intermediate	3,2,0,0,0,0,1,0,0	test	ward_and_allport	3,2,0,0,0,0,1,0,0	82.0	3.0	0.539	0,0,0,1,2,3,0,0,0	to_board	s577
92.6	1.0	0	PA_without_intermediate	n/a	test	ward_and_allport	n/a	-1.0	3.0	n/a	n/a	feedback	s577
93.6	1.0	0	PA_without_intermediate	n/a	test	ward_and_allport	n/a	-1.0	3.0	n/a	n/a	ITI	s577
94.604	2.273	1	PA_with_intermediate	1,2,0,0,0,0,0,0,0	test	ward_and_allport	1,0,0,0,0,0,2,3,0	89.0	4.0	2.273	1,2,3,0,0,0,0,0,0	to_hand	s577
96.878	0.586	0	PA_with_intermediate	1,2,0,3,0,0,0,0,0	test	ward_and_allport	1,0,0,0,0,0,2,3,0	71.0	4.0	0.586	1,2,3,0,0,0,0,0,0	to_board	s577
97.467	0.934	0	PA_with_intermediate	1,0,0,3,0,0,0,0,0	test	ward_and_allport	1,0,0,0,0,0,2,3,0	89.0	4.0	0.934	1,2,3,0,0,0,0,0,0	to_hand	s577
98.402	0.568	0	PA_with_intermediate	1,0,0,3,0,0,2,0,0	test	ward_and_allport	1,0,0,0,0,0,2,3,0	82.0	4.0	0.568	1,2,3,0,0,0,0,0,0	to_board	s577
98.973	0.595	0	PA_with_intermediate	1,0,0,0,0,0,2,0,0	test	ward_and_allport	1,0,0,0,0,0,2,3,0	71.0	4.0	0.595	1,2,3,0,0,0,0,0,0	to_hand	s577
99.569	0.432	0	PA_with_intermediate	1,0,0,0,0,0,2,3,0	test	ward_and_allport	1,0,0,0,0,0,2,3,0	82.0	4.0	0.432	1,2,3,0,0,0,0,0,0	to_board	s577
100.009	1.0	0	PA_with_intermediate	n/a	test	ward_and_allport	n/a	-1.0	4.0	n/a	n/a	feedback	s577
101.009	1.544	0	PA_with_intermediate	n/a	test	ward_and_allport	n/a	-1.0	4.0	n/a	n/a	ITI	s577
102.557	2.19	1	PA_without_intermediate	0,0,0,1,2,0,0,0,0	test	ward_and_allport	1,0,0,0,0,0,3,2,0	71.0	5.0	2.19	0,0,0,1,2,3,0,0,0	to_hand	s577
104.747	0.425	0	PA_without_intermediate	0,0,0,1,2,0,3,0,0	test	ward_and_allport	1,0,0,0,0,0,3,2,0	82.0	5.0	0.425	0,0,0,1,2,3,0,0,0	to_board	s577
105.175	0.753	0	PA_without_intermediate	0,0,0,1,0,0,3,0,0	test	ward_and_allport	1,0,0,0,0,0,3,2,0	71.0	5.0	0.753	0,0,0,1,2,3,0,0,0	to_hand	s577
105.929	1.259	0	PA_without_intermediate	0,0,0,1,0,0,3,2,0	test	ward_and_allport	1,0,0,0,0,0,3,2,0	82.0	5.0	1.259	0,0,0,1,2,3,0,0,0	to_board	s577
107.191	0.408	0	PA_without_intermediate	0,0,0,0,0,0,3,2,0	test	ward_and_allport	1,0,0,0,0,0,3,2,0	71.0	5.0	0.408	0,0,0,1,2,3,0,0,0	to_hand	s577
107.601	0.389	0	PA_without_intermediate	1,0,0,0,0,0,3,2,0	test	ward_and_allport	1,0,0,0,0,0,3,2,0	89.0	5.0	0.389	0,0,0,1,2,3,0,0,0	to_board	s577
107.998	1.0	0	PA_without_intermediate	n/a	test	ward_and_allport	n/a	-1.0	5.0	n/a	n/a	feedback	s577
108.998	1.272	0	PA_without_intermediate	n/a	test	ward_and_allport	n/a	-1.0	5.0	n/a	n/a	ITI	s577
110.273	3.076	1	PA_with_intermediate	1,2,0,0,0,0,0,0,0	test	ward_and_allport	1,0,0,2,3,0,0,0,0	89.0	6.0	3.076	1,2,3,0,0,0,0,0,0	to_hand	s577
113.351	0.883	0	PA_with_intermediate	1,2,0,0,0,0,3,0,0	test	ward_and_allport	1,0,0,2,3,0,0,0,0	82.0	6.0	0.883	1,2,3,0,0,0,0,0,0	to_board	s577
114.236	0.958	0	PA_with_intermediate	1,0,0,0,0,0,3,0,0	test	ward_and_allport	1,0,0,2,3,0,0,0,0	89.0	6.0	0.958	1,2,3,0,0,0,0,0,0	to_hand	s577
115.195	0.74	0	PA_with_intermediate	1,0,0,2,0,0,3,0,0	test	ward_and_allport	1,0,0,2,3,0,0,0,0	71.0	6.0	0.74	1,2,3,0,0,0,0,0,0	to_board	s577
115.939	1.453	0	PA_with_intermediate	1,0,0,2,0,0,0,0,0	test	ward_and_allport	1,0,0,2,3,0,0,0,0	82.0	6.0	1.453	1,2,3,0,0,0,0,0,0	to_hand	s577
117.393	0.396	0	PA_with_intermediate	1,0,0,2,3,0,0,0,0	test	ward_and_allport	1,0,0,2,3,0,0,0,0	71.0	6.0	0.396	1,2,3,0,0,0,0,0,0	to_board	s577
117.793	1.0	0	PA_with_intermediate	n/a	test	ward_and_allport	n/a	-1.0	6.0	n/a	n/a	feedback	s577
118.793	3.04	0	PA_with_intermediate	n/a	test	ward_and_allport	n/a	-1.0	6.0	n/a	n/a	ITI	s577
121.837	2.513	1	PA_with_intermediate	1,2,0,0,0,0,0,0,0	test	ward_and_allport	1,3,0,2,0,0,0,0,0	89.0	7.0	2.513	1,2,3,0,0,0,0,0,0	to_hand	s577
124.35	0.634	0	PA_with_intermediate	1,2,0,0,0,0,3,0,0	test	ward_and_allport	1,3,0,2,0,0,0,0,0	82.0	7.0	0.634	1,2,3,0,0,0,0,0,0	to_board	s577
124.988	1.16	0	PA_with_intermediate	1,0,0,0,0,0,3,0,0	test	ward_and_allport	1,3,0,2,0,0,0,0,0	89.0	7.0	1.16	1,2,3,0,0,0,0,0,0	to_hand	s577
126.148	0.438	0	PA_with_intermediate	1,0,0,2,0,0,3,0,0	test	ward_and_allport	1,3,0,2,0,0,0,0,0	71.0	7.0	0.438	1,2,3,0,0,0,0,0,0	to_board	s577
126.59	2.309	0	PA_with_intermediate	1,0,0,2,0,0,0,0,0	test	ward_and_allport	1,3,0,2,0,0,0,0,0	82.0	7.0	2.309	1,2,3,0,0,0,0,0,0	to_hand	s577
128.9	0.68	0	PA_with_intermediate	1,3,0,2,0,0,0,0,0	test	ward_and_allport	1,3,0,2,0,0,0,0,0	89.0	7.0	0.68	1,2,3,0,0,0,0,0,0	to_board	s577
129.588	1.0	0	PA_with_intermediate	n/a	test	ward_and_allport	n/a	-1.0	7.0	n/a	n/a	feedback	s577
130.588	1.272	0	PA_with_intermediate	n/a	test	ward_and_allport	n/a	-1.0	7.0	n/a	n/a	ITI	s577
131.863	3.79	1	PA_with_intermediate	0,0,0,1,2,0,0,0,0	test	ward_and_allport	0,0,0,1,3,0,2,0,0	71.0	8.0	3.79	0,0,0,1,2,3,0,0,0	to_hand	s577
135.655	0.634	0	PA_with_intermediate	3,0,0,1,2,0,0,0,0	test	ward_and_allport	0,0,0,1,3,0,2,0,0	89.0	8.0	0.634	0,0,0,1,2,3,0,0,0	to_board	s577
136.293	0.692	0	PA_with_intermediate	3,0,0,1,0,0,0,0,0	test	ward_and_allport	0,0,0,1,3,0,2,0,0	71.0	8.0	0.692	0,0,0,1,2,3,0,0,0	to_hand	s577
136.986	0.485	0	PA_with_intermediate	3,0,0,1,0,0,2,0,0	test	ward_and_allport	0,0,0,1,3,0,2,0,0	82.0	8.0	0.485	0,0,0,1,2,3,0,0,0	to_board	s577
137.475	0.758	0	PA_with_intermediate	0,0,0,1,0,0,2,0,0	test	ward_and_allport	0,0,0,1,3,0,2,0,0	89.0	8.0	0.758	0,0,0,1,2,3,0,0,0	to_hand	s577
138.235	0.43	0	PA_with_intermediate	0,0,0,1,3,0,2,0,0	test	ward_and_allport	0,0,0,1,3,0,2,0,0	71.0	8.0	0.43	0,0,0,1,2,3,0,0,0	to_board	s577
138.668	1.0	0	PA_with_intermediate	n/a	test	ward_and_allport	n/a	-1.0	8.0	n/a	n/a	feedback	s577
139.668	1.136	0	PA_with_intermediate	n/a	test	ward_and_allport	n/a	-1.0	8.0	n/a	n/a	ITI	s577
140.807	3.337	1	PA_with_intermediate	1,2,0,0,0,0,0,0,0	test	ward_and_allport	1,0,0,0,0,0,2,3,0	89.0	9.0	3.337	1,2,3,0,0,0,0,0,0	to_hand	s577
144.145	0.512	0	PA_with_intermediate	1,2,0,3,0,0,0,0,0	test	ward_and_allport	1,0,0,0,0,0,2,3,0	71.0	9.0	0.512	1,2,3,0,0,0,0,0,0	to_board	s577
144.661	0.596	0	PA_with_intermediate	1,2,0,0,0,0,0,0,0	test	ward_and_allport	1,0,0,0,0,0,2,3,0	71.0	9.0	0.596	1,2,3,0,0,0,0,0,0	to_hand	s577
145.258	0.759	0	PA_with_intermediate	1,2,0,3,0,0,0,0,0	test	ward_and_allport	1,0,0,0,0,0,2,3,0	71.0	9.0	0.759	1,2,3,0,0,0,0,0,0	to_board	s577
146.021	0.409	0	PA_with_intermediate	1,0,0,3,0,0,0,0,0	test	ward_and_allport	1,0,0,0,0,0,2,3,0	89.0	9.0	0.409	1,2,3,0,0,0,0,0,0	to_hand	s577
146.431	0.368	0	PA_with_intermediate	1,0,0,3,2,0,0,0,0	test	ward_and_allport	1,0,0,0,0,0,2,3,0	71.0	9.0	0.368	1,2,3,0,0,0,0,0,0	to_board	s577
146.804	1.148	0	PA_with_intermediate	1,0,0,3,0,0,0,0,0	test	ward_and_allport	1,0,0,0,0,0,2,3,0	71.0	9.0	1.148	1,2,3,0,0,0,0,0,0	to_hand	s577
147.952	2.817	0	PA_with_intermediate	1,0,0,3,0,0,2,0,0	test	ward_and_allport	1,0,0,0,0,0,2,3,0	82.0	9.0	2.817	1,2,3,0,0,0,0,0,0	to_board	s577
150.772	0.813	0	PA_with_intermediate	1,0,0,0,0,0,2,0,0	test	ward_and_allport	1,0,0,0,0,0,2,3,0	71.0	9.0	0.813	1,2,3,0,0,0,0,0,0	to_hand	s577
151.587	0.314	0	PA_with_intermediate	1,0,0,0,0,0,2,3,0	test	ward_and_allport	1,0,0,0,0,0,2,3,0	82.0	9.0	0.314	1,2,3,0,0,0,0,0,0	to_board	s577
151.909	1.0	0	PA_with_intermediate	n/a	test	ward_and_allport	n/a	-1.0	9.0	n/a	n/a	feedback	s577
152.909	1.0	0	PA_with_intermediate	n/a	test	ward_and_allport	n/a	-1.0	9.0	n/a	n/a	ITI	s577
153.914	2.722	1	PA_with_intermediate	0,0,0,1,2,0,0,0,0	test	ward_and_allport	2,3,0,1,0,0,0,0,0	71.0	10.0	2.722	0,0,0,1,2,3,0,0,0	to_hand	s577
156.638	2.319	0	PA_with_intermediate	0,0,0,1,2,0,3,0,0	test	ward_and_allport	2,3,0,1,0,0,0,0,0	82.0	10.0	2.319	0,0,0,1,2,3,0,0,0	to_board	s577
158.961	2.073	0	PA_with_intermediate	0,0,0,1,0,0,3,0,0	test	ward_and_allport	2,3,0,1,0,0,0,0,0	71.0	10.0	2.073	0,0,0,1,2,3,0,0,0	to_hand	s577
161.035	1.006	0	PA_with_intermediate	2,0,0,1,0,0,3,0,0	test	ward_and_allport	2,3,0,1,0,0,0,0,0	89.0	10.0	1.006	0,0,0,1,2,3,0,0,0	to_board	s577
162.045	2.313	0	PA_with_intermediate	2,0,0,1,0,0,0,0,0	test	ward_and_allport	2,3,0,1,0,0,0,0,0	82.0	10.0	2.313	0,0,0,1,2,3,0,0,0	to_hand	s577
164.36	0.543	0	PA_with_intermediate	2,3,0,1,0,0,0,0,0	test	ward_and_allport	2,3,0,1,0,0,0,0,0	89.0	10.0	0.543	0,0,0,1,2,3,0,0,0	to_board	s577
164.912	1.0	0	PA_with_intermediate	n/a	test	ward_and_allport	n/a	-1.0	10.0	n/a	n/a	feedback	s577
165.912	1.0	0	PA_with_intermediate	n/a	test	ward_and_allport	n/a	-1.0	10.0	n/a	n/a	ITI	s577
166.916	3.279	1	PA_without_intermediate	0,0,0,0,0,0,1,2,0	test	ward_and_allport	3,2,0,1,0,0,0,0,0	82.0	11.0	3.279	0,0,0,0,0,0,1,2,3	to_hand	s577
170.196	1.091	0	PA_without_intermediate	3,0,0,0,0,0,1,2,0	test	ward_and_allport	3,2,0,1,0,0,0,0,0	89.0	11.0	1.091	0,0,0,0,0,0,1,2,3	to_board	s577
171.29	1.265	0	PA_without_intermediate	3,0,0,0,0,0,1,0,0	test	ward_and_allport	3,2,0,1,0,0,0,0,0	82.0	11.0	1.265	0,0,0,0,0,0,1,2,3	to_hand	s577
172.556	0.633	0	PA_without_intermediate	3,2,0,0,0,0,1,0,0	test	ward_and_allport	3,2,0,1,0,0,0,0,0	89.0	11.0	0.633	0,0,0,0,0,0,1,2,3	to_board	s577
173.194	1.701	0	PA_without_intermediate	3,2,0,0,0,0,0,0,0	test	ward_and_allport	3,2,0,1,0,0,0,0,0	82.0	11.0	1.701	0,0,0,0,0,0,1,2,3	to_hand	s577
174.897	0.58	0	PA_without_intermediate	3,2,0,1,0,0,0,0,0	test	ward_and_allport	3,2,0,1,0,0,0,0,0	71.0	11.0	0.58	0,0,0,0,0,0,1,2,3	to_board	s577
175.485	1.0	0	PA_without_intermediate	n/a	test	ward_and_allport	n/a	-1.0	11.0	n/a	n/a	feedback	s577
176.485	1.408	0	PA_without_intermediate	n/a	test	ward_and_allport	n/a	-1.0	11.0	n/a	n/a	ITI	s577
177.896	5.446	1	PA_with_intermediate	0,0,0,0,0,0,1,2,0	test	ward_and_allport	2,0,0,0,0,0,1,3,0	82.0	12.0	5.446	0,0,0,0,0,0,1,2,3	to_hand	s577
183.343	0.479	0	PA_with_intermediate	0,0,0,3,0,0,1,2,0	test	ward_and_allport	2,0,0,0,0,0,1,3,0	71.0	12.0	0.479	0,0,0,0,0,0,1,2,3	to_board	s577
183.826	1.18	0	PA_with_intermediate	0,0,0,3,0,0,1,0,0	test	ward_and_allport	2,0,0,0,0,0,1,3,0	82.0	12.0	1.18	0,0,0,0,0,0,1,2,3	to_hand	s577
185.007	0.854	0	PA_with_intermediate	2,0,0,3,0,0,1,0,0	test	ward_and_allport	2,0,0,0,0,0,1,3,0	89.0	12.0	0.854	0,0,0,0,0,0,1,2,3	to_board	s577
185.866	0.62	0	PA_with_intermediate	2,0,0,0,0,0,1,0,0	test	ward_and_allport	2,0,0,0,0,0,1,3,0	71.0	12.0	0.62	0,0,0,0,0,0,1,2,3	to_hand	s577
186.487	0.547	0	PA_with_intermediate	2,0,0,0,0,0,1,3,0	test	ward_and_allport	2,0,0,0,0,0,1,3,0	82.0	12.0	0.547	0,0,0,0,0,0,1,2,3	to_board	s577
187.043	1.0	0	PA_with_intermediate	n/a	test	ward_and_allport	n/a	-1.0	12.0	n/a	n/a	feedback	s577
188.043	2.768	0	PA_with_intermediate	n/a	test	ward_and_allport	n/a	-1.0	12.0	n/a	n/a	ITI	s577
190.816	3.759	1	PA_with_intermediate	1,2,0,0,0,0,0,0,0	test	ward_and_allport	1,3,0,0,0,0,2,0,0	89.0	13.0	3.759	1,2,3,0,0,0,0,0,0	to_hand	s577
194.576	2.039	0	PA_with_intermediate	1,2,0,3,0,0,0,0,0	test	ward_and_allport	1,3,0,0,0,0,2,0,0	71.0	13.0	2.039	1,2,3,0,0,0,0,0,0	to_board	s577
196.618	0.466	0	PA_with_intermediate	1,0,0,3,0,0,0,0,0	test	ward_and_allport	1,3,0,0,0,0,2,0,0	89.0	13.0	0.466	1,2,3,0,0,0,0,0,0	to_hand	s577
197.086	0.695	0	PA_with_intermediate	1,0,0,3,0,0,2,0,0	test	ward_and_allport	1,3,0,0,0,0,2,0,0	82.0	13.0	0.695	1,2,3,0,0,0,0,0,0	to_board	s577
197.786	0.407	0	PA_with_intermediate	1,0,0,0,0,0,2,0,0	test	ward_and_allport	1,3,0,0,0,0,2,0,0	71.0	13.0	0.407	1,2,3,0,0,0,0,0,0	to_hand	s577
198.193	0.405	0	PA_with_intermediate	1,3,0,0,0,0,2,0,0	test	ward_and_allport	1,3,0,0,0,0,2,0,0	89.0	13.0	0.405	1,2,3,0,0,0,0,0,0	to_board	s577
198.603	1.0	0	PA_with_intermediate	n/a	test	ward_and_allport	n/a	-1.0	13.0	n/a	n/a	feedback	s577
199.603	1.68	0	PA_with_intermediate	n/a	test	ward_and_allport	n/a	-1.0	13.0	n/a	n/a	ITI	s577
201.287	2.426	1	PA_without_intermediate	1,2,0,0,0,0,0,0,0	test	ward_and_allport	0,0,0,2,0,0,3,1,0	89.0	14.0	2.426	1,2,3,0,0,0,0,0,0	to_hand	s577
203.715	0.92	0	PA_without_intermediate	1,2,0,0,0,0,3,0,0	test	ward_and_allport	0,0,0,2,0,0,3,1,0	82.0	14.0	0.92	1,2,3,0,0,0,0,0,0	to_board	s577
204.639	1.044	0	PA_without_intermediate	1,0,0,0,0,0,3,0,0	test	ward_and_allport	0,0,0,2,0,0,3,1,0	89.0	14.0	1.044	1,2,3,0,0,0,0,0,0	to_hand	s577
205.685	0.625	0	PA_without_intermediate	1,0,0,2,0,0,3,0,0	test	ward_and_allport	0,0,0,2,0,0,3,1,0	71.0	14.0	0.625	1,2,3,0,0,0,0,0,0	to_board	s577
206.314	0.37	0	PA_without_intermediate	0,0,0,2,0,0,3,0,0	test	ward_and_allport	0,0,0,2,0,0,3,1,0	89.0	14.0	0.37	1,2,3,0,0,0,0,0,0	to_hand	s577
206.686	0.715	0	PA_without_intermediate	0,0,0,2,0,0,3,1,0	test	ward_and_allport	0,0,0,2,0,0,3,1,0	82.0	14.0	0.715	1,2,3,0,0,0,0,0,0	to_board	s577
207.407	1.0	0	PA_without_intermediate	n/a	test	ward_and_allport	n/a	-1.0	14.0	n/a	n/a	feedback	s577
208.407	2.224	0	PA_without_intermediate	n/a	test	ward_and_allport	n/a	-1.0	14.0	n/a	n/a	ITI	s577
215.637	3.816	1	PA_without_intermediate	0,0,0,0,0,0,1,2,0	test	ward_and_allport	1,0,0,3,2,0,0,0,0	82.0	15.0	3.816	0,0,0,0,0,0,1,2,3	to_hand	s577
219.454	0.847	0	PA_without_intermediate	0,0,0,3,0,0,1,2,0	test	ward_and_allport	1,0,0,3,2,0,0,0,0	71.0	15.0	0.847	0,0,0,0,0,0,1,2,3	to_board	s577
220.305	0.884	0	PA_without_intermediate	0,0,0,3,0,0,1,0,0	test	ward_and_allport	1,0,0,3,2,0,0,0,0	82.0	15.0	0.884	0,0,0,0,0,0,1,2,3	to_hand	s577
221.191	1.345	0	PA_without_intermediate	0,0,0,3,2,0,1,0,0	test	ward_and_allport	1,0,0,3,2,0,0,0,0	71.0	15.0	1.345	0,0,0,0,0,0,1,2,3	to_board	s577
222.54	0.992	0	PA_without_intermediate	0,0,0,3,2,0,0,0,0	test	ward_and_allport	1,0,0,3,2,0,0,0,0	82.0	15.0	0.992	0,0,0,0,0,0,1,2,3	to_hand	s577
223.533	0.645	0	PA_without_intermediate	1,0,0,3,2,0,0,0,0	test	ward_and_allport	1,0,0,3,2,0,0,0,0	89.0	15.0	0.645	0,0,0,0,0,0,1,2,3	to_board	s577
224.183	1.0	0	PA_without_intermediate	n/a	test	ward_and_allport	n/a	-1.0	15.0	n/a	n/a	feedback	s577
225.183	2.36	0	PA_without_intermediate	n/a	test	ward_and_allport	n/a	-1.0	15.0	n/a	n/a	ITI	s577
227.548	2.783	1	PA_without_intermediate	0,0,0,0,0,0,1,2,0	test	ward_and_allport	3,2,0,1,0,0,0,0,0	82.0	16.0	2.783	0,0,0,0,0,0,1,2,3	to_hand	s577
230.333	0.916	0	PA_without_intermediate	3,0,0,0,0,0,1,2,0	test	ward_and_allport	3,2,0,1,0,0,0,0,0	89.0	16.0	0.916	0,0,0,0,0,0,1,2,3	to_board	s577
231.254	0.847	0	PA_without_intermediate	3,0,0,0,0,0,1,0,0	test	ward_and_allport	3,2,0,1,0,0,0,0,0	82.0	16.0	0.847	0,0,0,0,0,0,1,2,3	to_hand	s577
232.103	0.583	0	PA_without_intermediate	3,2,0,0,0,0,1,0,0	test	ward_and_allport	3,2,0,1,0,0,0,0,0	89.0	16.0	0.583	0,0,0,0,0,0,1,2,3	to_board	s577
232.691	1.131	0	PA_without_intermediate	3,2,0,0,0,0,0,0,0	test	ward_and_allport	3,2,0,1,0,0,0,0,0	82.0	16.0	1.131	0,0,0,0,0,0,1,2,3	to_hand	s577
233.822	0.424	0	PA_without_intermediate	3,2,0,1,0,0,0,0,0	test	ward_and_allport	3,2,0,1,0,0,0,0,0	71.0	16.0	0.424	0,0,0,0,0,0,1,2,3	to_board	s577
234.253	1.0	0	PA_without_intermediate	n/a	test	ward_and_allport	n/a	-1.0	16.0	n/a	n/a	feedback	s577
235.253	1.0	0	PA_without_intermediate	n/a	test	ward_and_allport	n/a	-1.0	16.0	n/a	n/a	ITI	s577
236.258	2.303	1	PA_without_intermediate	0,0,0,1,2,0,0,0,0	test	ward_and_allport	3,2,0,0,0,0,1,0,0	71.0	17.0	2.303	0,0,0,1,2,3,0,0,0	to_hand	s577
238.563	0.763	0	PA_without_intermediate	3,0,0,1,2,0,0,0,0	test	ward_and_allport	3,2,0,0,0,0,1,0,0	89.0	17.0	0.763	0,0,0,1,2,3,0,0,0	to_board	s577
239.33	1.284	0	PA_without_intermediate	3,0,0,1,0,0,0,0,0	test	ward_and_allport	3,2,0,0,0,0,1,0,0	71.0	17.0	1.284	0,0,0,1,2,3,0,0,0	to_hand	s577
240.616	0.572	0	PA_without_intermediate	3,2,0,1,0,0,0,0,0	test	ward_and_allport	3,2,0,0,0,0,1,0,0	89.0	17.0	0.572	0,0,0,1,2,3,0,0,0	to_board	s577
241.193	0.789	0	PA_without_intermediate	3,2,0,0,0,0,0,0,0	test	ward_and_allport	3,2,0,0,0,0,1,0,0	71.0	17.0	0.789	0,0,0,1,2,3,0,0,0	to_hand	s577
241.982	0.32	0	PA_without_intermediate	3,2,0,0,0,0,1,0,0	test	ward_and_allport	3,2,0,0,0,0,1,0,0	82.0	17.0	0.32	0,0,0,1,2,3,0,0,0	to_board	s577
242.309	1.0	0	PA_without_intermediate	n/a	test	ward_and_allport	n/a	-1.0	17.0	n/a	n/a	feedback	s577
243.309	1.408	0	PA_without_intermediate	n/a	test	ward_and_allport	n/a	-1.0	17.0	n/a	n/a	ITI	s577
244.721	3.994	1	PA_with_intermediate	0,0,0,0,0,0,1,2,0	test	ward_and_allport	2,0,0,0,0,0,1,3,0	82.0	18.0	3.994	0,0,0,0,0,0,1,2,3	to_hand	s577
248.716	0.386	0	PA_with_intermediate	0,0,0,3,0,0,1,2,0	test	ward_and_allport	2,0,0,0,0,0,1,3,0	71.0	18.0	0.386	0,0,0,0,0,0,1,2,3	to_board	s577
249.106	0.435	0	PA_with_intermediate	0,0,0,3,0,0,1,0,0	test	ward_and_allport	2,0,0,0,0,0,1,3,0	82.0	18.0	0.435	0,0,0,0,0,0,1,2,3	to_hand	s577
249.543	0.645	0	PA_with_intermediate	2,0,0,3,0,0,1,0,0	test	ward_and_allport	2,0,0,0,0,0,1,3,0	89.0	18.0	0.645	0,0,0,0,0,0,1,2,3	to_board	s577
250.193	0.734	0	PA_with_intermediate	2,0,0,0,0,0,1,0,0	test	ward_and_allport	2,0,0,0,0,0,1,3,0	71.0	18.0	0.734	0,0,0,0,0,0,1,2,3	to_hand	s577
250.927	0.351	0	PA_with_intermediate	2,0,0,0,0,0,1,3,0	test	ward_and_allport	2,0,0,0,0,0,1,3,0	82.0	18.0	0.351	0,0,0,0,0,0,1,2,3	to_board	s577
251.285	1.0	0	PA_with_intermediate	n/a	test	ward_and_allport	n/a	-1.0	18.0	n/a	n/a	feedback	s577
252.285	1.136	0	PA_with_intermediate	n/a	test	ward_and_allport	n/a	-1.0	18.0	n/a	n/a	ITI	s577
253.427	1.478	1	PA_without_intermediate	0,0,0,1,2,0,0,0,0	test	ward_and_allport	3,1,0,0,0,0,2,0,0	71.0	19.0	1.478	0,0,0,1,2,3,0,0,0	to_hand	s577
254.906	0.985	0	PA_without_intermediate	3,0,0,1,2,0,0,0,0	test	ward_and_allport	3,1,0,0,0,0,2,0,0	89.0	19.0	0.985	0,0,0,1,2,3,0,0,0	to_board	s577
255.896	0.526	0	PA_without_intermediate	3,0,0,1,0,0,0,0,0	test	ward_and_allport	3,1,0,0,0,0,2,0,0	71.0	19.0	0.526	0,0,0,1,2,3,0,0,0	to_hand	s577
256.423	0.419	0	PA_without_intermediate	3,0,0,1,0,0,2,0,0	test	ward_and_allport	3,1,0,0,0,0,2,0,0	82.0	19.0	0.419	0,0,0,1,2,3,0,0,0	to_board	s577
256.847	0.356	0	PA_without_intermediate	3,0,0,0,0,0,2,0,0	test	ward_and_allport	3,1,0,0,0,0,2,0,0	71.0	19.0	0.356	0,0,0,1,2,3,0,0,0	to_hand	s577
257.203	0.358	0	PA_without_intermediate	3,1,0,0,0,0,2,0,0	test	ward_and_allport	3,1,0,0,0,0,2,0,0	89.0	19.0	0.358	0,0,0,1,2,3,0,0,0	to_board	s577
257.568	1.0	0	PA_without_intermediate	n/a	test	ward_and_allport	n/a	-1.0	19.0	n/a	n/a	feedback	s577
258.568	4.128	0	PA_without_intermediate	n/a	test	ward_and_allport	n/a	-1.0	19.0	n/a	n/a	ITI	s577
262.701	3.191	1	PA_without_intermediate	1,2,0,0,0,0,0,0,0	test	ward_and_allport	0,0,0,3,1,0,2,0,0	89.0	20.0	3.191	1,2,3,0,0,0,0,0,0	to_hand	s577
265.894	0.608	0	PA_without_intermediate	1,2,0,3,0,0,0,0,0	test	ward_and_allport	0,0,0,3,1,0,2,0,0	71.0	20.0	0.608	1,2,3,0,0,0,0,0,0	to_board	s577
266.507	1.479	0	PA_without_intermediate	1,0,0,3,0,0,0,0,0	test	ward_and_allport	0,0,0,3,1,0,2,0,0	89.0	20.0	1.479	1,2,3,0,0,0,0,0,0	to_hand	s577
267.987	0.538	0	PA_without_intermediate	1,0,0,3,0,0,2,0,0	test	ward_and_allport	0,0,0,3,1,0,2,0,0	82.0	20.0	0.538	1,2,3,0,0,0,0,0,0	to_board	s577
268.53	0.515	0	PA_without_intermediate	1,0,0,0,0,0,2,0,0	test	ward_and_allport	0,0,0,3,1,0,2,0,0	71.0	20.0	0.515	1,2,3,0,0,0,0,0,0	to_hand	s577
269.046	1.121	0	PA_without_intermediate	1,0,0,3,0,0,2,0,0	test	ward_and_allport	0,0,0,3,1,0,2,0,0	71.0	20.0	1.121	1,2,3,0,0,0,0,0,0	to_board	s577
270.172	0.348	0	PA_without_intermediate	0,0,0,3,0,0,2,0,0	test	ward_and_allport	0,0,0,3,1,0,2,0,0	89.0	20.0	0.348	1,2,3,0,0,0,0,0,0	to_hand	s577
270.522	0.335	0	PA_without_intermediate	0,0,0,3,1,0,2,0,0	test	ward_and_allport	0,0,0,3,1,0,2,0,0	71.0	20.0	0.335	1,2,3,0,0,0,0,0,0	to_board	s577
270.865	1.0	0	PA_without_intermediate	n/a	test	ward_and_allport	n/a	-1.0	20.0	n/a	n/a	feedback	s577
271.865	1.136	0	PA_without_intermediate	n/a	test	ward_and_allport	n/a	-1.0	20.0	n/a	n/a	ITI	s577
273.005	3.117	1	PA_without_intermediate	0,0,0,0,0,0,1,2,0	test	ward_and_allport	2,0,0,3,1,0,0,0,0	82.0	21.0	3.117	0,0,0,0,0,0,1,2,3	to_hand	s577
276.123	0.516	0	PA_without_intermediate	0,0,0,3,0,0,1,2,0	test	ward_and_allport	2,0,0,3,1,0,0,0,0	71.0	21.0	0.516	0,0,0,0,0,0,1,2,3	to_board	s577
276.645	2.092	0	PA_without_intermediate	0,0,0,3,0,0,1,0,0	test	ward_and_allport	2,0,0,3,1,0,0,0,0	82.0	21.0	2.092	0,0,0,0,0,0,1,2,3	to_hand	s577
278.738	0.93	0	PA_without_intermediate	2,0,0,3,0,0,1,0,0	test	ward_and_allport	2,0,0,3,1,0,0,0,0	89.0	21.0	0.93	0,0,0,0,0,0,1,2,3	to_board	s577
279.674	0.878	0	PA_without_intermediate	2,0,0,3,0,0,0,0,0	test	ward_and_allport	2,0,0,3,1,0,0,0,0	82.0	21.0	0.878	0,0,0,0,0,0,1,2,3	to_hand	s577
280.553	0.823	0	PA_without_intermediate	2,0,0,3,1,0,0,0,0	test	ward_and_allport	2,0,0,3,1,0,0,0,0	71.0	21.0	0.823	0,0,0,0,0,0,1,2,3	to_board	s577
281.385	1.0	0	PA_without_intermediate	n/a	test	ward_and_allport	n/a	-1.0	21.0	n/a	n/a	feedback	s577
282.385	4.264	0	PA_without_intermediate	n/a	test	ward_and_allport	n/a	-1.0	21.0	n/a	n/a	ITI	s577
286.654	2.924	1	PA_with_intermediate	1,2,0,0,0,0,0,0,0	test	ward_and_allport	1,0,0,2,3,0,0,0,0	89.0	22.0	2.924	1,2,3,0,0,0,0,0,0	to_hand	s577
289.58	0.467	0	PA_with_intermediate	1,2,0,0,0,0,3,0,0	test	ward_and_allport	1,0,0,2,3,0,0,0,0	82.0	22.0	0.467	1,2,3,0,0,0,0,0,0	to_board	s577
290.053	1.754	0	PA_with_intermediate	1,0,0,0,0,0,3,0,0	test	ward_and_allport	1,0,0,2,3,0,0,0,0	89.0	22.0	1.754	1,2,3,0,0,0,0,0,0	to_hand	s577
291.809	0.619	0	PA_with_intermediate	1,0,0,2,0,0,3,0,0	test	ward_and_allport	1,0,0,2,3,0,0,0,0	71.0	22.0	0.619	1,2,3,0,0,0,0,0,0	to_board	s577
292.434	0.649	0	PA_with_intermediate	1,0,0,2,0,0,0,0,0	test	ward_and_allport	1,0,0,2,3,0,0,0,0	82.0	22.0	0.649	1,2,3,0,0,0,0,0,0	to_hand	s577
293.084	0.429	0	PA_with_intermediate	1,0,0,2,3,0,0,0,0	test	ward_and_allport	1,0,0,2,3,0,0,0,0	71.0	22.0	0.429	1,2,3,0,0,0,0,0,0	to_board	s577
293.521	1.0	0	PA_with_intermediate	n/a	test	ward_and_allport	n/a	-1.0	22.0	n/a	n/a	feedback	s577
294.521	3.04	0	PA_with_intermediate	n/a	test	ward_and_allport	n/a	-1.0	22.0	n/a	n/a	ITI	s577
297.568	4.098	1	PA_with_intermediate	0,0,0,0,0,0,1,2,0	test	ward_and_allport	0,0,0,2,3,0,1,0,0	82.0	23.0	4.098	0,0,0,0,0,0,1,2,3	to_hand	s577
301.667	0.724	0	PA_with_intermediate	3,0,0,0,0,0,1,2,0	test	ward_and_allport	0,0,0,2,3,0,1,0,0	89.0	23.0	0.724	0,0,0,0,0,0,1,2,3	to_board	s577
302.398	1.074	0	PA_with_intermediate	3,0,0,0,0,0,1,0,0	test	ward_and_allport	0,0,0,2,3,0,1,0,0	82.0	23.0	1.074	0,0,0,0,0,0,1,2,3	to_hand	s577
303.474	0.486	0	PA_with_intermediate	3,0,0,2,0,0,1,0,0	test	ward_and_allport	0,0,0,2,3,0,1,0,0	71.0	23.0	0.486	0,0,0,0,0,0,1,2,3	to_board	s577
303.967	0.458	0	PA_with_intermediate	0,0,0,2,0,0,1,0,0	test	ward_and_allport	0,0,0,2,3,0,1,0,0	89.0	23.0	0.458	0,0,0,0,0,0,1,2,3	to_hand	s577
304.426	0.408	0	PA_with_intermediate	0,0,0,2,3,0,1,0,0	test	ward_and_allport	0,0,0,2,3,0,1,0,0	71.0	23.0	0.408	0,0,0,0,0,0,1,2,3	to_board	s577
304.843	1.0	0	PA_with_intermediate	n/a	test	ward_and_allport	n/a	-1.0	23.0	n/a	n/a	feedback	s577
305.843	1.136	0	PA_with_intermediate	n/a	test	ward_and_allport	n/a	-1.0	23.0	n/a	n/a	ITI	s577
306.985	3.94	1	PA_with_intermediate	0,0,0,1,2,0,0,0,0	test	ward_and_allport	2,0,0,1,3,0,0,0,0	71.0	24.0	3.94	0,0,0,1,2,3,0,0,0	to_hand	s577
310.926	1.09	0	PA_with_intermediate	0,0,0,1,2,0,3,0,0	test	ward_and_allport	2,0,0,1,3,0,0,0,0	82.0	24.0	1.09	0,0,0,1,2,3,0,0,0	to_board	s577
312.022	0.726	0	PA_with_intermediate	0,0,0,1,0,0,3,0,0	test	ward_and_allport	2,0,0,1,3,0,0,0,0	71.0	24.0	0.726	0,0,0,1,2,3,0,0,0	to_hand	s577
312.749	0.384	0	PA_with_intermediate	2,0,0,1,0,0,3,0,0	test	ward_and_allport	2,0,0,1,3,0,0,0,0	89.0	24.0	0.384	0,0,0,1,2,3,0,0,0	to_board	s577
313.139	0.607	0	PA_with_intermediate	2,0,0,1,0,0,0,0,0	test	ward_and_allport	2,0,0,1,3,0,0,0,0	82.0	24.0	0.607	0,0,0,1,2,3,0,0,0	to_hand	s577
313.747	0.397	0	PA_with_intermediate	2,0,0,1,3,0,0,0,0	test	ward_and_allport	2,0,0,1,3,0,0,0,0	71.0	24.0	0.397	0,0,0,1,2,3,0,0,0	to_board	s577
314.151	1.0	0	PA_with_intermediate	n/a	test	ward_and_allport	n/a	-1.0	24.0	n/a	n/a	feedback	s577
315.151	1.408	0	PA_with_intermediate	n/a	test	ward_and_allport	n/a	-1.0	24.0	n/a	n/a	ITI	s577
316.566	1.976	1	PA_without_intermediate	0,0,0,1,2,0,0,0,0	test	ward_and_allport	1,0,0,0,0,0,3,2,0	71.0	25.0	1.976	0,0,0,1,2,3,0,0,0	to_hand	s577
318.542	0.564	0	PA_without_intermediate	0,0,0,1,2,0,3,0,0	test	ward_and_allport	1,0,0,0,0,0,3,2,0	82.0	25.0	0.564	0,0,0,1,2,3,0,0,0	to_board	s577
319.112	0.654	0	PA_without_intermediate	0,0,0,1,0,0,3,0,0	test	ward_and_allport	1,0,0,0,0,0,3,2,0	71.0	25.0	0.654	0,0,0,1,2,3,0,0,0	to_hand	s577
319.767	0.329	0	PA_without_intermediate	0,0,0,1,0,0,3,2,0	test	ward_and_allport	1,0,0,0,0,0,3,2,0	82.0	25.0	0.329	0,0,0,1,2,3,0,0,0	to_board	s577
320.102	0.645	0	PA_without_intermediate	0,0,0,0,0,0,3,2,0	test	ward_and_allport	1,0,0,0,0,0,3,2,0	71.0	25.0	0.645	0,0,0,1,2,3,0,0,0	to_hand	s577
320.748	0.303	0	PA_without_intermediate	1,0,0,0,0,0,3,2,0	test	ward_and_allport	1,0,0,0,0,0,3,2,0	89.0	25.0	0.303	0,0,0,1,2,3,0,0,0	to_board	s577
321.058	1.0	0	PA_without_intermediate	n/a	test	ward_and_allport	n/a	-1.0	25.0	n/a	n/a	feedback	s577
322.058	1.68	0	PA_without_intermediate	n/a	test	ward_and_allport	n/a	-1.0	25.0	n/a	n/a	ITI	s577
323.745	2.795	1	PA_with_intermediate	0,0,0,1,2,0,0,0,0	test	ward_and_allport	2,0,0,1,3,0,0,0,0	71.0	26.0	2.795	0,0,0,1,2,3,0,0,0	to_hand	s577
326.541	0.869	0	PA_with_intermediate	0,0,0,1,2,0,3,0,0	test	ward_and_allport	2,0,0,1,3,0,0,0,0	82.0	26.0	0.869	0,0,0,1,2,3,0,0,0	to_board	s577
327.417	0.395	0	PA_with_intermediate	0,0,0,1,0,0,3,0,0	test	ward_and_allport	2,0,0,1,3,0,0,0,0	71.0	26.0	0.395	0,0,0,1,2,3,0,0,0	to_hand	s577
327.813	0.338	0	PA_with_intermediate	2,0,0,1,0,0,3,0,0	test	ward_and_allport	2,0,0,1,3,0,0,0,0	89.0	26.0	0.338	0,0,0,1,2,3,0,0,0	to_board	s577
328.157	0.478	0	PA_with_intermediate	2,0,0,1,0,0,0,0,0	test	ward_and_allport	2,0,0,1,3,0,0,0,0	82.0	26.0	0.478	0,0,0,1,2,3,0,0,0	to_hand	s577
328.636	0.413	0	PA_with_intermediate	2,0,0,1,3,0,0,0,0	test	ward_and_allport	2,0,0,1,3,0,0,0,0	71.0	26.0	0.413	0,0,0,1,2,3,0,0,0	to_board	s577
329.058	1.0	0	PA_with_intermediate	n/a	test	ward_and_allport	n/a	-1.0	26.0	n/a	n/a	feedback	s577
330.058	3.72	0	PA_with_intermediate	n/a	test	ward_and_allport	n/a	-1.0	26.0	n/a	n/a	ITI	s577
333.786	2.751	1	PA_without_intermediate	1,2,0,0,0,0,0,0,0	test	ward_and_allport	0,0,0,1,0,0,3,2,0	89.0	27.0	2.751	1,2,3,0,0,0,0,0,0	to_hand	s577
336.538	0.492	0	PA_without_intermediate	1,2,0,0,0,0,3,0,0	test	ward_and_allport	0,0,0,1,0,0,3,2,0	82.0	27.0	0.492	1,2,3,0,0,0,0,0,0	to_board	s577
337.036	1.911	0	PA_without_intermediate	1,0,0,0,0,0,3,0,0	test	ward_and_allport	0,0,0,1,0,0,3,2,0	89.0	27.0	1.911	1,2,3,0,0,0,0,0,0	to_hand	s577
338.949	0.316	0	PA_without_intermediate	1,0,0,0,0,0,3,2,0	test	ward_and_allport	0,0,0,1,0,0,3,2,0	82.0	27.0	0.316	1,2,3,0,0,0,0,0,0	to_board	s577
339.271	1.36	0	PA_without_intermediate	0,0,0,0,0,0,3,2,0	test	ward_and_allport	0,0,0,1,0,0,3,2,0	89.0	27.0	1.36	1,2,3,0,0,0,0,0,0	to_hand	s577
340.632	0.598	0	PA_without_intermediate	0,0,0,1,0,0,3,2,0	test	ward_and_allport	0,0,0,1,0,0,3,2,0	71.0	27.0	0.598	1,2,3,0,0,0,0,0,0	to_board	s577
341.24	1.0	0	PA_without_intermediate	n/a	test	ward_and_allport	n/a	-1.0	27.0	n/a	n/a	feedback	s577
342.24	2.224	0	PA_without_intermediate	n/a	test	ward_and_allport	n/a	-1.0	27.0	n/a	n/a	ITI	s577
344.47	1.728	1	PA_without_intermediate	1,2,0,0,0,0,0,0,0	test	ward_and_allport	0,0,0,2,0,0,3,1,0	89.0	28.0	1.728	1,2,3,0,0,0,0,0,0	to_hand	s577
346.199	0.939	0	PA_without_intermediate	1,2,0,0,0,0,3,0,0	test	ward_and_allport	0,0,0,2,0,0,3,1,0	82.0	28.0	0.939	1,2,3,0,0,0,0,0,0	to_board	s577
347.145	1.114	0	PA_without_intermediate	1,0,0,0,0,0,3,0,0	test	ward_and_allport	0,0,0,2,0,0,3,1,0	89.0	28.0	1.114	1,2,3,0,0,0,0,0,0	to_hand	s577
348.261	0.58	0	PA_without_intermediate	1,0,0,2,0,0,3,0,0	test	ward_and_allport	0,0,0,2,0,0,3,1,0	71.0	28.0	0.58	1,2,3,0,0,0,0,0,0	to_board	s577
348.847	0.397	0	PA_without_intermediate	0,0,0,2,0,0,3,0,0	test	ward_and_allport	0,0,0,2,0,0,3,1,0	89.0	28.0	0.397	1,2,3,0,0,0,0,0,0	to_hand	s577
349.245	0.438	0	PA_without_intermediate	0,0,0,2,0,0,3,1,0	test	ward_and_allport	0,0,0,2,0,0,3,1,0	82.0	28.0	0.438	1,2,3,0,0,0,0,0,0	to_board	s577
349.691	1.0	0	PA_without_intermediate	n/a	test	ward_and_allport	n/a	-1.0	28.0	n/a	n/a	feedback	s577
350.691	1.272	0	PA_without_intermediate	n/a	test	ward_and_allport	n/a	-1.0	28.0	n/a	n/a	ITI	s577
351.969	2.898	1	PA_with_intermediate	0,0,0,0,0,0,1,2,0	test	ward_and_allport	0,0,0,2,0,0,1,3,0	82.0	29.0	2.898	0,0,0,0,0,0,1,2,3	to_hand	s577
354.868	1.581	0	PA_with_intermediate	3,0,0,0,0,0,1,2,0	test	ward_and_allport	0,0,0,2,0,0,1,3,0	89.0	29.0	1.581	0,0,0,0,0,0,1,2,3	to_board	s577
356.457	0.974	0	PA_with_intermediate	3,0,0,0,0,0,1,0,0	test	ward_and_allport	0,0,0,2,0,0,1,3,0	82.0	29.0	0.974	0,0,0,0,0,0,1,2,3	to_hand	s577
357.432	0.785	0	PA_with_intermediate	3,0,0,2,0,0,1,0,0	test	ward_and_allport	0,0,0,2,0,0,1,3,0	71.0	29.0	0.785	0,0,0,0,0,0,1,2,3	to_board	s577
358.224	0.378	0	PA_with_intermediate	0,0,0,2,0,0,1,0,0	test	ward_and_allport	0,0,0,2,0,0,1,3,0	89.0	29.0	0.378	0,0,0,0,0,0,1,2,3	to_hand	s577
358.603	0.474	0	PA_with_intermediate	0,0,0,2,0,0,1,3,0	test	ward_and_allport	0,0,0,2,0,0,1,3,0	82.0	29.0	0.474	0,0,0,0,0,0,1,2,3	to_board	s577
359.088	1.0	0	PA_with_intermediate	n/a	test	ward_and_allport	n/a	-1.0	29.0	n/a	n/a	feedback	s577
360.088	2.632	0	PA_with_intermediate	n/a	test	ward_and_allport	n/a	-1.0	29.0	n/a	n/a	ITI	s577
367.731	1.508	1	PA_without_intermediate	1,2,0,0,0,0,0,0,0	test	ward_and_allport	0,0,0,3,1,0,2,0,0	89.0	30.0	1.508	1,2,3,0,0,0,0,0,0	to_hand	s577
369.24	0.94	0	PA_without_intermediate	1,2,0,3,0,0,0,0,0	test	ward_and_allport	0,0,0,3,1,0,2,0,0	71.0	30.0	0.94	1,2,3,0,0,0,0,0,0	to_board	s577
370.187	0.639	0	PA_without_intermediate	1,0,0,3,0,0,0,0,0	test	ward_and_allport	0,0,0,3,1,0,2,0,0	89.0	30.0	0.639	1,2,3,0,0,0,0,0,0	to_hand	s577
370.827	0.433	0	PA_without_intermediate	1,0,0,3,0,0,2,0,0	test	ward_and_allport	0,0,0,3,1,0,2,0,0	82.0	30.0	0.433	1,2,3,0,0,0,0,0,0	to_board	s577
371.268	0.74	0	PA_without_intermediate	0,0,0,3,0,0,2,0,0	test	ward_and_allport	0,0,0,3,1,0,2,0,0	89.0	30.0	0.74	1,2,3,0,0,0,0,0,0	to_hand	s577
372.01	0.33	0	PA_without_intermediate	0,0,0,3,1,0,2,0,0	test	ward_and_allport	0,0,0,3,1,0,2,0,0	71.0	30.0	0.33	1,2,3,0,0,0,0,0,0	to_board	s577
372.35	1.0	0	PA_without_intermediate	n/a	test	ward_and_allport	n/a	-1.0	30.0	n/a	n/a	feedback	s577
373.35	1.408	0	PA_without_intermediate	n/a	test	ward_and_allport	n/a	-1.0	30.0	n/a	n/a	ITI	s577
374.767	3.217	1	PA_without_intermediate	0,0,0,0,0,0,1,2,0	test	ward_and_allport	2,0,0,3,1,0,0,0,0	82.0	31.0	3.217	0,0,0,0,0,0,1,2,3	to_hand	s577
377.985	0.402	0	PA_without_intermediate	0,0,0,3,0,0,1,2,0	test	ward_and_allport	2,0,0,3,1,0,0,0,0	71.0	31.0	0.402	0,0,0,0,0,0,1,2,3	to_board	s577
378.395	1.076	0	PA_without_intermediate	0,0,0,3,0,0,1,0,0	test	ward_and_allport	2,0,0,3,1,0,0,0,0	82.0	31.0	1.076	0,0,0,0,0,0,1,2,3	to_hand	s577
379.473	1.003	0	PA_without_intermediate	2,0,0,3,0,0,1,0,0	test	ward_and_allport	2,0,0,3,1,0,0,0,0	89.0	31.0	1.003	0,0,0,0,0,0,1,2,3	to_board	s577
380.483	0.453	0	PA_without_intermediate	2,0,0,3,0,0,0,0,0	test	ward_and_allport	2,0,0,3,1,0,0,0,0	82.0	31.0	0.453	0,0,0,0,0,0,1,2,3	to_hand	s577
380.937	0.511	0	PA_without_intermediate	2,0,0,3,1,0,0,0,0	test	ward_and_allport	2,0,0,3,1,0,0,0,0	71.0	31.0	0.511	0,0,0,0,0,0,1,2,3	to_board	s577
381.457	1.0	0	PA_without_intermediate	n/a	test	ward_and_allport	n/a	-1.0	31.0	n/a	n/a	feedback	s577
382.457	1.0	0	PA_without_intermediate	n/a	test	ward_and_allport	n/a	-1.0	31.0	n/a	n/a	ITI	s577
383.467	2.573	1	PA_with_intermediate	0,0,0,1,2,0,0,0,0	test	ward_and_allport	2,3,0,1,0,0,0,0,0	71.0	32.0	2.573	0,0,0,1,2,3,0,0,0	to_hand	s577
386.041	0.448	0	PA_with_intermediate	0,0,0,1,2,0,3,0,0	test	ward_and_allport	2,3,0,1,0,0,0,0,0	82.0	32.0	0.448	0,0,0,1,2,3,0,0,0	to_board	s577
386.496	0.864	0	PA_with_intermediate	0,0,0,1,0,0,3,0,0	test	ward_and_allport	2,3,0,1,0,0,0,0,0	71.0	32.0	0.864	0,0,0,1,2,3,0,0,0	to_hand	s577
387.361	0.646	0	PA_with_intermediate	2,0,0,1,0,0,3,0,0	test	ward_and_allport	2,3,0,1,0,0,0,0,0	89.0	32.0	0.646	0,0,0,1,2,3,0,0,0	to_board	s577
388.015	1.974	0	PA_with_intermediate	2,0,0,1,0,0,0,0,0	test	ward_and_allport	2,3,0,1,0,0,0,0,0	82.0	32.0	1.974	0,0,0,1,2,3,0,0,0	to_hand	s577
389.99	0.373	0	PA_with_intermediate	2,3,0,1,0,0,0,0,0	test	ward_and_allport	2,3,0,1,0,0,0,0,0	89.0	32.0	0.373	0,0,0,1,2,3,0,0,0	to_board	s577
390.375	1.0	0	PA_with_intermediate	n/a	test	ward_and_allport	n/a	-1.0	32.0	n/a	n/a	feedback	s577
391.375	1.0	0	PA_with_intermediate	n/a	test	ward_and_allport	n/a	-1.0	32.0	n/a	n/a	ITI	s577
392.383	3.716	1	PA_with_intermediate	0,0,0,0,0,0,1,2,0	test	ward_and_allport	0,0,0,2,3,0,1,0,0	82.0	33.0	3.716	0,0,0,0,0,0,1,2,3	to_hand	s577
396.1	0.455	0	PA_with_intermediate	3,0,0,0,0,0,1,2,0	test	ward_and_allport	0,0,0,2,3,0,1,0,0	89.0	33.0	0.455	0,0,0,0,0,0,1,2,3	to_board	s577
396.562	1.463	0	PA_with_intermediate	3,0,0,0,0,0,1,0,0	test	ward_and_allport	0,0,0,2,3,0,1,0,0	82.0	33.0	1.463	0,0,0,0,0,0,1,2,3	to_hand	s577
398.025	2.03	0	PA_with_intermediate	3,0,0,2,0,0,1,0,0	test	ward_and_allport	0,0,0,2,3,0,1,0,0	71.0	33.0	2.03	0,0,0,0,0,0,1,2,3	to_board	s577
400.063	1.14	0	PA_with_intermediate	0,0,0,2,0,0,1,0,0	test	ward_and_allport	0,0,0,2,3,0,1,0,0	89.0	33.0	1.14	0,0,0,0,0,0,1,2,3	to_hand	s577
401.205	0.352	0	PA_with_intermediate	0,0,0,2,0,0,1,3,0	test	ward_and_allport	0,0,0,2,3,0,1,0,0	82.0	33.0	0.352	0,0,0,0,0,0,1,2,3	to_board	s577
401.565	2.388	0	PA_with_intermediate	0,0,0,2,0,0,1,0,0	test	ward_and_allport	0,0,0,2,3,0,1,0,0	82.0	33.0	2.388	0,0,0,0,0,0,1,2,3	to_hand	s577
403.955	0.425	0	PA_with_intermediate	0,0,0,2,3,0,1,0,0	test	ward_and_allport	0,0,0,2,3,0,1,0,0	71.0	33.0	0.425	0,0,0,0,0,0,1,2,3	to_board	s577
404.391	1.0	0	PA_with_intermediate	n/a	test	ward_and_allport	n/a	-1.0	33.0	n/a	n/a	feedback	s577
405.391	1.0	0	PA_with_intermediate	n/a	test	ward_and_allport	n/a	-1.0	33.0	n/a	n/a	ITI	s577
406.4	2.479	1	PA_with_intermediate	1,2,0,0,0,0,0,0,0	test	ward_and_allport	1,3,0,2,0,0,0,0,0	89.0	34.0	2.479	1,2,3,0,0,0,0,0,0	to_hand	s577
408.88	0.464	0	PA_with_intermediate	1,2,0,0,0,0,3,0,0	test	ward_and_allport	1,3,0,2,0,0,0,0,0	82.0	34.0	0.464	1,2,3,0,0,0,0,0,0	to_board	s577
409.35	1.538	0	PA_with_intermediate	1,0,0,0,0,0,3,0,0	test	ward_and_allport	1,3,0,2,0,0,0,0,0	89.0	34.0	1.538	1,2,3,0,0,0,0,0,0	to_hand	s577
410.889	0.374	0	PA_with_intermediate	1,0,0,2,0,0,3,0,0	test	ward_and_allport	1,3,0,2,0,0,0,0,0	71.0	34.0	0.374	1,2,3,0,0,0,0,0,0	to_board	s577
411.27	1.829	0	PA_with_intermediate	1,0,0,2,0,0,0,0,0	test	ward_and_allport	1,3,0,2,0,0,0,0,0	82.0	34.0	1.829	1,2,3,0,0,0,0,0,0	to_hand	s577
413.1	0.914	0	PA_with_intermediate	1,3,0,2,0,0,0,0,0	test	ward_and_allport	1,3,0,2,0,0,0,0,0	89.0	34.0	0.914	1,2,3,0,0,0,0,0,0	to_board	s577
414.025	1.0	0	PA_with_intermediate	n/a	test	ward_and_allport	n/a	-1.0	34.0	n/a	n/a	feedback	s577
415.025	1.408	0	PA_with_intermediate	n/a	test	ward_and_allport	n/a	-1.0	34.0	n/a	n/a	ITI	s577
416.444	2.663	1	PA_without_intermediate	0,0,0,1,2,0,0,0,0	test	ward_and_allport	2,0,0,0,0,0,3,1,0	71.0	35.0	2.663	0,0,0,1,2,3,0,0,0	to_hand	s577
419.107	0.39	0	PA_without_intermediate	0,0,0,1,2,0,3,0,0	test	ward_and_allport	2,0,0,0,0,0,3,1,0	82.0	35.0	0.39	0,0,0,1,2,3,0,0,0	to_board	s577
419.508	1.191	0	PA_without_intermediate	0,0,0,1,0,0,3,0,0	test	ward_and_allport	2,0,0,0,0,0,3,1,0	71.0	35.0	1.191	0,0,0,1,2,3,0,0,0	to_hand	s577
420.702	0.327	0	PA_without_intermediate	2,0,0,1,0,0,3,0,0	test	ward_and_allport	2,0,0,0,0,0,3,1,0	89.0	35.0	0.327	0,0,0,1,2,3,0,0,0	to_board	s577
421.036	0.63	0	PA_without_intermediate	2,0,0,0,0,0,3,0,0	test	ward_and_allport	2,0,0,0,0,0,3,1,0	71.0	35.0	0.63	0,0,0,1,2,3,0,0,0	to_hand	s577
421.667	0.31	0	PA_without_intermediate	2,0,0,0,0,0,3,1,0	test	ward_and_allport	2,0,0,0,0,0,3,1,0	82.0	35.0	0.31	0,0,0,1,2,3,0,0,0	to_board	s577
421.986	1.0	0	PA_without_intermediate	n/a	test	ward_and_allport	n/a	-1.0	35.0	n/a	n/a	feedback	s577
422.986	1.816	0	PA_without_intermediate	n/a	test	ward_and_allport	n/a	-1.0	35.0	n/a	n/a	ITI	s577
424.809	1.551	1	PA_with_intermediate	0,0,0,1,2,0,0,0,0	test	ward_and_allport	0,0,0,1,0,0,2,3,0	71.0	36.0	1.551	0,0,0,1,2,3,0,0,0	to_hand	s577
426.361	0.978	0	PA_with_intermediate	3,0,0,1,2,0,0,0,0	test	ward_and_allport	0,0,0,1,0,0,2,3,0	89.0	36.0	0.978	0,0,0,1,2,3,0,0,0	to_board	s577
427.348	0.462	0	PA_with_intermediate	3,0,0,1,0,0,0,0,0	test	ward_and_allport	0,0,0,1,0,0,2,3,0	71.0	36.0	0.462	0,0,0,1,2,3,0,0,0	to_hand	s577
427.812	0.393	0	PA_with_intermediate	3,0,0,1,0,0,2,0,0	test	ward_and_allport	0,0,0,1,0,0,2,3,0	82.0	36.0	0.393	0,0,0,1,2,3,0,0,0	to_board	s577
428.215	0.921	0	PA_with_intermediate	0,0,0,1,0,0,2,0,0	test	ward_and_allport	0,0,0,1,0,0,2,3,0	89.0	36.0	0.921	0,0,0,1,2,3,0,0,0	to_hand	s577
429.138	0.717	0	PA_with_intermediate	0,0,0,1,0,0,2,3,0	test	ward_and_allport	0,0,0,1,0,0,2,3,0	82.0	36.0	0.717	0,0,0,1,2,3,0,0,0	to_board	s577
429.869	1.0	0	PA_with_intermediate	n/a	test	ward_and_allport	n/a	-1.0	36.0	n/a	n/a	feedback	s577
430.869	3.176	0	PA_with_intermediate	n/a	test	ward_and_allport	n/a	-1.0	36.0	n/a	n/a	ITI	s577
434.053	3.49	1	PA_with_intermediate	0,0,0,0,0,0,1,2,0	test	ward_and_allport	0,0,0,2,0,0,1,3,0	82.0	37.0	3.49	0,0,0,0,0,0,1,2,3	to_hand	s577
437.545	0.645	0	PA_with_intermediate	3,0,0,0,0,0,1,2,0	test	ward_and_allport	0,0,0,2,0,0,1,3,0	89.0	37.0	0.645	0,0,0,0,0,0,1,2,3	to_board	s577
438.199	1.151	0	PA_with_intermediate	3,0,0,0,0,0,1,0,0	test	ward_and_allport	0,0,0,2,0,0,1,3,0	82.0	37.0	1.151	0,0,0,0,0,0,1,2,3	to_hand	s577
439.351	0.611	0	PA_with_intermediate	3,0,0,2,0,0,1,0,0	test	ward_and_allport	0,0,0,2,0,0,1,3,0	71.0	37.0	0.611	0,0,0,0,0,0,1,2,3	to_board	s577
439.973	0.431	0	PA_with_intermediate	0,0,0,2,0,0,1,0,0	test	ward_and_allport	0,0,0,2,0,0,1,3,0	89.0	37.0	0.431	0,0,0,0,0,0,1,2,3	to_hand	s577
440.404	0.463	0	PA_with_intermediate	0,0,0,2,0,0,1,3,0	test	ward_and_allport	0,0,0,2,0,0,1,3,0	82.0	37.0	0.463	0,0,0,0,0,0,1,2,3	to_board	s577
440.881	1.0	0	PA_with_intermediate	n/a	test	ward_and_allport	n/a	-1.0	37.0	n/a	n/a	feedback	s577
441.881	2.36	0	PA_with_intermediate	n/a	test	ward_and_allport	n/a	-1.0	37.0	n/a	n/a	ITI	s577
444.25	2.613	1	PA_with_intermediate	0,0,0,1,2,0,0,0,0	test	ward_and_allport	0,0,0,1,3,0,2,0,0	71.0	38.0	2.613	0,0,0,1,2,3,0,0,0	to_hand	s577
446.863	1.051	0	PA_with_intermediate	3,0,0,1,2,0,0,0,0	test	ward_and_allport	0,0,0,1,3,0,2,0,0	89.0	38.0	1.051	0,0,0,1,2,3,0,0,0	to_board	s577
447.92	0.367	0	PA_with_intermediate	3,0,0,1,0,0,0,0,0	test	ward_and_allport	0,0,0,1,3,0,2,0,0	71.0	38.0	0.367	0,0,0,1,2,3,0,0,0	to_hand	s577
448.288	0.303	0	PA_with_intermediate	3,0,0,1,0,0,2,0,0	test	ward_and_allport	0,0,0,1,3,0,2,0,0	82.0	38.0	0.303	0,0,0,1,2,3,0,0,0	to_board	s577
448.6	1.309	0	PA_with_intermediate	0,0,0,1,0,0,2,0,0	test	ward_and_allport	0,0,0,1,3,0,2,0,0	89.0	38.0	1.309	0,0,0,1,2,3,0,0,0	to_hand	s577
449.91	0.833	0	PA_with_intermediate	0,0,0,1,3,0,2,0,0	test	ward_and_allport	0,0,0,1,3,0,2,0,0	71.0	38.0	0.833	0,0,0,1,2,3,0,0,0	to_board	s577
450.755	1.0	0	PA_with_intermediate	n/a	test	ward_and_allport	n/a	-1.0	38.0	n/a	n/a	feedback	s577
451.755	1.0	0	PA_with_intermediate	n/a	test	ward_and_allport	n/a	-1.0	38.0	n/a	n/a	ITI	s577
452.764	2.649	1	PA_without_intermediate	0,0,0,0,0,0,1,2,0	test	ward_and_allport	3,1,0,2,0,0,0,0,0	82.0	39.0	2.649	0,0,0,0,0,0,1,2,3	to_hand	s577
455.414	0.481	0	PA_without_intermediate	3,0,0,0,0,0,1,2,0	test	ward_and_allport	3,1,0,2,0,0,0,0,0	89.0	39.0	0.481	0,0,0,0,0,0,1,2,3	to_board	s577
455.907	1.43	0	PA_without_intermediate	3,0,0,0,0,0,1,0,0	test	ward_and_allport	3,1,0,2,0,0,0,0,0	82.0	39.0	1.43	0,0,0,0,0,0,1,2,3	to_hand	s577
457.338	0.661	0	PA_without_intermediate	3,0,0,2,0,0,1,0,0	test	ward_and_allport	3,1,0,2,0,0,0,0,0	71.0	39.0	0.661	0,0,0,0,0,0,1,2,3	to_board	s577
458.008	0.521	0	PA_without_intermediate	3,0,0,2,0,0,0,0,0	test	ward_and_allport	3,1,0,2,0,0,0,0,0	82.0	39.0	0.521	0,0,0,0,0,0,1,2,3	to_hand	s577
458.53	0.479	0	PA_without_intermediate	3,1,0,2,0,0,0,0,0	test	ward_and_allport	3,1,0,2,0,0,0,0,0	89.0	39.0	0.479	0,0,0,0,0,0,1,2,3	to_board	s577
459.02	1.0	0	PA_without_intermediate	n/a	test	ward_and_allport	n/a	-1.0	39.0	n/a	n/a	feedback	s577
460.02	1.408	0	PA_without_intermediate	n/a	test	ward_and_allport	n/a	-1.0	39.0	n/a	n/a	ITI	s577
461.436	1.567	1	PA_with_intermediate	0,0,0,1,2,0,0,0,0	test	ward_and_allport	0,0,0,1,0,0,2,3,0	71.0	40.0	1.567	0,0,0,1,2,3,0,0,0	to_hand	s577
463.004	1.367	0	PA_with_intermediate	3,0,0,1,2,0,0,0,0	test	ward_and_allport	0,0,0,1,0,0,2,3,0	89.0	40.0	1.367	0,0,0,1,2,3,0,0,0	to_board	s577
464.378	0.521	0	PA_with_intermediate	3,0,0,1,0,0,0,0,0	test	ward_and_allport	0,0,0,1,0,0,2,3,0	71.0	40.0	0.521	0,0,0,1,2,3,0,0,0	to_hand	s577
464.9	0.316	0	PA_with_intermediate	3,0,0,1,0,0,2,0,0	test	ward_and_allport	0,0,0,1,0,0,2,3,0	82.0	40.0	0.316	0,0,0,1,2,3,0,0,0	to_board	s577
465.226	0.412	0	PA_with_intermediate	0,0,0,1,0,0,2,0,0	test	ward_and_allport	0,0,0,1,0,0,2,3,0	89.0	40.0	0.412	0,0,0,1,2,3,0,0,0	to_hand	s577
465.639	0.478	0	PA_with_intermediate	0,0,0,1,0,0,2,3,0	test	ward_and_allport	0,0,0,1,0,0,2,3,0	82.0	40.0	0.478	0,0,0,1,2,3,0,0,0	to_board	s577
466.127	1.0	0	PA_with_intermediate	n/a	test	ward_and_allport	n/a	-1.0	40.0	n/a	n/a	feedback	s577
467.127	1.816	0	PA_with_intermediate	n/a	test	ward_and_allport	n/a	-1.0	40.0	n/a	n/a	ITI	s577
468.95	3.008	1	PA_without_intermediate	0,0,0,0,0,0,1,2,0	test	ward_and_allport	1,0,0,3,2,0,0,0,0	82.0	41.0	3.008	0,0,0,0,0,0,1,2,3	to_hand	s577
471.959	0.38	0	PA_without_intermediate	0,0,0,3,0,0,1,2,0	test	ward_and_allport	1,0,0,3,2,0,0,0,0	71.0	41.0	0.38	0,0,0,0,0,0,1,2,3	to_board	s577
472.347	0.965	0	PA_without_intermediate	0,0,0,3,0,0,1,0,0	test	ward_and_allport	1,0,0,3,2,0,0,0,0	82.0	41.0	0.965	0,0,0,0,0,0,1,2,3	to_hand	s577
473.312	1.027	0	PA_without_intermediate	0,0,0,3,2,0,1,0,0	test	ward_and_allport	1,0,0,3,2,0,0,0,0	71.0	41.0	1.027	0,0,0,0,0,0,1,2,3	to_board	s577
474.349	0.435	0	PA_without_intermediate	0,0,0,3,2,0,0,0,0	test	ward_and_allport	1,0,0,3,2,0,0,0,0	82.0	41.0	0.435	0,0,0,0,0,0,1,2,3	to_hand	s577
474.786	0.335	0	PA_without_intermediate	1,0,0,3,2,0,0,0,0	test	ward_and_allport	1,0,0,3,2,0,0,0,0	89.0	41.0	0.335	0,0,0,0,0,0,1,2,3	to_board	s577
475.135	1.0	0	PA_without_intermediate	n/a	test	ward_and_allport	n/a	-1.0	41.0	n/a	n/a	feedback	s577
476.135	2.088	0	PA_without_intermediate	n/a	test	ward_and_allport	n/a	-1.0	41.0	n/a	n/a	ITI	s577
478.231	1.643	1	PA_without_intermediate	0,0,0,1,2,0,0,0,0	test	ward_and_allport	2,0,0,0,0,0,3,1,0	71.0	42.0	1.643	0,0,0,1,2,3,0,0,0	to_hand	s577
479.876	0.455	0	PA_without_intermediate	0,0,0,1,2,0,3,0,0	test	ward_and_allport	2,0,0,0,0,0,3,1,0	82.0	42.0	0.455	0,0,0,1,2,3,0,0,0	to_board	s577
480.337	0.965	0	PA_without_intermediate	0,0,0,1,0,0,3,0,0	test	ward_and_allport	2,0,0,0,0,0,3,1,0	71.0	42.0	0.965	0,0,0,1,2,3,0,0,0	to_hand	s577
481.304	0.454	0	PA_without_intermediate	2,0,0,1,0,0,3,0,0	test	ward_and_allport	2,0,0,0,0,0,3,1,0	89.0	42.0	0.454	0,0,0,1,2,3,0,0,0	to_board	s577
481.766	0.453	0	PA_without_intermediate	2,0,0,0,0,0,3,0,0	test	ward_and_allport	2,0,0,0,0,0,3,1,0	71.0	42.0	0.453	0,0,0,1,2,3,0,0,0	to_hand	s577
482.22	0.404	0	PA_without_intermediate	2,0,0,0,0,0,3,1,0	test	ward_and_allport	2,0,0,0,0,0,3,1,0	82.0	42.0	0.404	0,0,0,1,2,3,0,0,0	to_board	s577
482.636	1.0	0	PA_without_intermediate	n/a	test	ward_and_allport	n/a	-1.0	42.0	n/a	n/a	feedback	s577
483.636	1.136	0	PA_without_intermediate	n/a	test	ward_and_allport	n/a	-1.0	42.0	n/a	n/a	ITI	s577
484.782	1.378	1	PA_without_intermediate	0,0,0,1,2,0,0,0,0	test	ward_and_allport	3,1,0,0,0,0,2,0,0	71.0	43.0	1.378	0,0,0,1,2,3,0,0,0	to_hand	s577
486.161	0.681	0	PA_without_intermediate	3,0,0,1,2,0,0,0,0	test	ward_and_allport	3,1,0,0,0,0,2,0,0	89.0	43.0	0.681	0,0,0,1,2,3,0,0,0	to_board	s577
486.848	0.819	0	PA_without_intermediate	3,0,0,1,0,0,0,0,0	test	ward_and_allport	3,1,0,0,0,0,2,0,0	71.0	43.0	0.819	0,0,0,1,2,3,0,0,0	to_hand	s577
487.669	0.305	0	PA_without_intermediate	3,0,0,1,0,0,2,0,0	test	ward_and_allport	3,1,0,0,0,0,2,0,0	82.0	43.0	0.305	0,0,0,1,2,3,0,0,0	to_board	s577
487.982	0.395	0	PA_without_intermediate	3,0,0,0,0,0,2,0,0	test	ward_and_allport	3,1,0,0,0,0,2,0,0	71.0	43.0	0.395	0,0,0,1,2,3,0,0,0	to_hand	s577
488.378	0.323	0	PA_without_intermediate	3,1,0,0,0,0,2,0,0	test	ward_and_allport	3,1,0,0,0,0,2,0,0	89.0	43.0	0.323	0,0,0,1,2,3,0,0,0	to_board	s577
488.709	1.0	0	PA_without_intermediate	n/a	test	ward_and_allport	n/a	-1.0	43.0	n/a	n/a	feedback	s577
489.709	6.168	0	PA_without_intermediate	n/a	test	ward_and_allport	n/a	-1.0	43.0	n/a	n/a	ITI	s577
495.884	2.321	1	PA_without_intermediate	1,2,0,0,0,0,0,0,0	test	ward_and_allport	0,0,0,3,2,0,1,0,0	89.0	44.0	2.321	1,2,3,0,0,0,0,0,0	to_hand	s577
498.206	0.312	0	PA_without_intermediate	1,2,0,3,0,0,0,0,0	test	ward_and_allport	0,0,0,3,2,0,1,0,0	71.0	44.0	0.312	1,2,3,0,0,0,0,0,0	to_board	s577
498.526	0.604	0	PA_without_intermediate	1,0,0,3,0,0,0,0,0	test	ward_and_allport	0,0,0,3,2,0,1,0,0	89.0	44.0	0.604	1,2,3,0,0,0,0,0,0	to_hand	s577
499.131	0.459	0	PA_without_intermediate	1,0,0,3,2,0,0,0,0	test	ward_and_allport	0,0,0,3,2,0,1,0,0	71.0	44.0	0.459	1,2,3,0,0,0,0,0,0	to_board	s577
499.599	0.529	0	PA_without_intermediate	0,0,0,3,2,0,0,0,0	test	ward_and_allport	0,0,0,3,2,0,1,0,0	89.0	44.0	0.529	1,2,3,0,0,0,0,0,0	to_hand	s577
500.13	0.416	0	PA_without_intermediate	0,0,0,3,2,0,1,0,0	test	ward_and_allport	0,0,0,3,2,0,1,0,0	82.0	44.0	0.416	1,2,3,0,0,0,0,0,0	to_board	s577
500.56	1.0	0	PA_without_intermediate	n/a	test	ward_and_allport	n/a	-1.0	44.0	n/a	n/a	feedback	s577
501.56	1.816	0	PA_without_intermediate	n/a	test	ward_and_allport	n/a	-1.0	44.0	n/a	n/a	ITI	s577
508.389	1.516	1	PA_with_intermediate	1,2,0,0,0,0,0,0,0	test	ward_and_allport	1,3,0,0,0,0,2,0,0	89.0	45.0	1.516	1,2,3,0,0,0,0,0,0	to_hand	s577
509.907	0.995	0	PA_with_intermediate	1,2,0,3,0,0,0,0,0	test	ward_and_allport	1,3,0,0,0,0,2,0,0	71.0	45.0	0.995	1,2,3,0,0,0,0,0,0	to_board	s577
510.913	0.441	0	PA_with_intermediate	1,0,0,3,0,0,0,0,0	test	ward_and_allport	1,3,0,0,0,0,2,0,0	89.0	45.0	0.441	1,2,3,0,0,0,0,0,0	to_hand	s577
511.355	0.434	0	PA_with_intermediate	1,0,0,3,0,0,2,0,0	test	ward_and_allport	1,3,0,0,0,0,2,0,0	82.0	45.0	0.434	1,2,3,0,0,0,0,0,0	to_board	s577
511.801	0.466	0	PA_with_intermediate	1,0,0,0,0,0,2,0,0	test	ward_and_allport	1,3,0,0,0,0,2,0,0	71.0	45.0	0.466	1,2,3,0,0,0,0,0,0	to_hand	s577
512.267	0.3	0	PA_with_intermediate	1,3,0,0,0,0,2,0,0	test	ward_and_allport	1,3,0,0,0,0,2,0,0	89.0	45.0	0.3	1,2,3,0,0,0,0,0,0	to_board	s577
512.579	1.0	0	PA_with_intermediate	n/a	test	ward_and_allport	n/a	-1.0	45.0	n/a	n/a	feedback	s577
513.579	1.952	0	PA_with_intermediate	n/a	test	ward_and_allport	n/a	-1.0	45.0	n/a	n/a	ITI	s577
515.543	2.958	1	PA_with_intermediate	0,0,0,0,0,0,1,2,0	test	ward_and_allport	2,3,0,0,0,0,1,0,0	82.0	46.0	2.958	0,0,0,0,0,0,1,2,3	to_hand	s577
518.502	1.123	0	PA_with_intermediate	0,0,0,3,0,0,1,2,0	test	ward_and_allport	2,3,0,0,0,0,1,0,0	71.0	46.0	1.123	0,0,0,0,0,0,1,2,3	to_board	s577
519.632	2.205	0	PA_with_intermediate	0,0,0,3,0,0,1,0,0	test	ward_and_allport	2,3,0,0,0,0,1,0,0	82.0	46.0	2.205	0,0,0,0,0,0,1,2,3	to_hand	s577
521.839	1.093	0	PA_with_intermediate	2,0,0,3,0,0,1,0,0	test	ward_and_allport	2,3,0,0,0,0,1,0,0	89.0	46.0	1.093	0,0,0,0,0,0,1,2,3	to_board	s577
522.942	1.422	0	PA_with_intermediate	2,0,0,0,0,0,1,0,0	test	ward_and_allport	2,3,0,0,0,0,1,0,0	71.0	46.0	1.422	0,0,0,0,0,0,1,2,3	to_hand	s577
524.365	0.311	0	PA_with_intermediate	2,3,0,0,0,0,1,0,0	test	ward_and_allport	2,3,0,0,0,0,1,0,0	89.0	46.0	0.311	0,0,0,0,0,0,1,2,3	to_board	s577
524.691	1.0	0	PA_with_intermediate	n/a	test	ward_and_allport	n/a	-1.0	46.0	n/a	n/a	feedback	s577
525.691	1.136	0	PA_with_intermediate	n/a	test	ward_and_allport	n/a	-1.0	46.0	n/a	n/a	ITI	s577
526.838	3.231	1	PA_without_intermediate	0,0,0,0,0,0,1,2,0	test	ward_and_allport	3,1,0,2,0,0,0,0,0	82.0	47.0	3.231	0,0,0,0,0,0,1,2,3	to_hand	s577
530.071	0.397	0	PA_without_intermediate	3,0,0,0,0,0,1,2,0	test	ward_and_allport	3,1,0,2,0,0,0,0,0	89.0	47.0	0.397	0,0,0,0,0,0,1,2,3	to_board	s577
530.479	1.0	0	PA_without_intermediate	3,0,0,0,0,0,1,0,0	test	ward_and_allport	3,1,0,2,0,0,0,0,0	82.0	47.0	1.0	0,0,0,0,0,0,1,2,3	to_hand	s577
531.48	0.489	0	PA_without_intermediate	3,0,0,2,0,0,1,0,0	test	ward_and_allport	3,1,0,2,0,0,0,0,0	71.0	47.0	0.489	0,0,0,0,0,0,1,2,3	to_board	s577
531.98	0.36	0	PA_without_intermediate	3,0,0,2,0,0,0,0,0	test	ward_and_allport	3,1,0,2,0,0,0,0,0	82.0	47.0	0.36	0,0,0,0,0,0,1,2,3	to_hand	s577
532.342	0.305	0	PA_without_intermediate	3,1,0,2,0,0,0,0,0	test	ward_and_allport	3,1,0,2,0,0,0,0,0	89.0	47.0	0.305	0,0,0,0,0,0,1,2,3	to_board	s577
532.659	1.0	0	PA_without_intermediate	n/a	test	ward_and_allport	n/a	-1.0	47.0	n/a	n/a	feedback	s577
533.659	1.68	0	PA_without_intermediate	n/a	test	ward_and_allport	n/a	-1.0	47.0	n/a	n/a	ITI	s577
n/a	n/a	0	n/a	n/a	n/a	n/a	n/a	n/a	n/a	n/a	n/a	ITI	n/a
