onset	duration	EV	action	clicked_on_loss_card	experiment_exp_id	gain_amount	gain_probability	key_press	loss_amount	loss_probability	num_cards	num_click_in_round	num_loss_cards	risk	response_time	total_cards	trial_id	worker_id
3.015	1.269	0.2786720407321579	draw_card	0.0	columbia_card_task_fmri	12.0	0.8333333333333334	89.0	-70.0	0.1666666666666666	6.0	1.0	1.0	-2.446393856767596	1.269	n/a	stim	s577
4.286	0.877	-2.4546612926011746	draw_card	0.0	columbia_card_task_fmri	12.0	0.8	89.0	-70.0	0.2	6.0	2.0	1.0	-0.2102068614624386	0.877	n/a	stim	s577
5.164	0.709	-6.5546612926011765	draw_card	0.0	columbia_card_task_fmri	12.0	0.75	89.0	-70.0	0.25	6.0	3.0	1.0	2.492447285705396	0.709	n/a	stim	s577
5.874	1.66	-13.387994625934509	draw_card	1.0	columbia_card_task_fmri	12.0	0.6666666666666667	89.0	-70.0	0.3333333333333333	6.0	4.0	1.0	5.63624539912955	1.66	4.0	stim	s577
7.541	2.25	n/a	-1.0	n/a	columbia_card_task_fmri	n/a	n/a	-1.0	n/a	n/a	n/a	n/a	n/a	n/a	n/a	n/a	feedback	s577
9.791	0.204	n/a	-1.0	n/a	columbia_card_task_fmri	n/a	n/a	-1.0	n/a	n/a	n/a	n/a	n/a	n/a	n/a	n/a	ITI	s577
9.997	0.726	1.1120053740654918	draw_card	0.0	columbia_card_task_fmri	14.0	0.8333333333333334	89.0	-75.0	0.1666666666666666	6.0	1.0	1.0	0.1574958318828123	0.726	n/a	stim	s577
10.724	0.419	-1.854661292601175	draw_card	0.0	columbia_card_task_fmri	14.0	0.8	89.0	-75.0	0.2	6.0	2.0	1.0	2.585266891693649	0.419	n/a	stim	s577
11.144	0.746	-6.3046612926011765	end_round	0.0	columbia_card_task_fmri	14.0	0.75	71.0	-75.0	0.25	6.0	3.0	1.0	5.519353541156654	0.746	2.0	stim	s577
11.893	2.25	n/a	-1.0	n/a	columbia_card_task_fmri	n/a	n/a	-1.0	n/a	n/a	n/a	n/a	n/a	n/a	n/a	n/a	feedback	s577
14.143	0.204	n/a	-1.0	n/a	columbia_card_task_fmri	n/a	n/a	-1.0	n/a	n/a	n/a	n/a	n/a	n/a	n/a	n/a	ITI	s577
14.348	0.525	2.778672040732158	draw_card	1.0	columbia_card_task_fmri	15.0	0.8333333333333334	89.0	-70.0	0.1666666666666666	6.0	1.0	1.0	-1.330538799643552	0.525	1.0	stim	s577
14.876	2.25	n/a	-1.0	n/a	columbia_card_task_fmri	n/a	n/a	-1.0	n/a	n/a	n/a	n/a	n/a	n/a	n/a	n/a	feedback	s577
17.126	0.272	n/a	-1.0	n/a	columbia_card_task_fmri	n/a	n/a	-1.0	n/a	n/a	n/a	n/a	n/a	n/a	n/a	n/a	ITI	s577
17.399	0.955	3.612005374065492	end_round	0.0	columbia_card_task_fmri	17.0	0.8333333333333334	71.0	-75.0	0.1666666666666666	6.0	1.0	1.0	1.273674207314258	0.955	0.0	stim	s577
18.358	2.25	n/a	-1.0	n/a	columbia_card_task_fmri	n/a	n/a	-1.0	n/a	n/a	n/a	n/a	n/a	n/a	n/a	n/a	feedback	s577
20.608	0.204	n/a	-1.0	n/a	columbia_card_task_fmri	n/a	n/a	-1.0	n/a	n/a	n/a	n/a	n/a	n/a	n/a	n/a	ITI	s577
20.814	0.915	4.945338707398824	draw_card	1.0	columbia_card_task_fmri	24.0	0.75	89.0	-60.0	0.25	8.0	1.0	2.0	3.357206661366739	0.915	1.0	stim	s577
21.733	2.25	n/a	-1.0	n/a	columbia_card_task_fmri	n/a	n/a	-1.0	n/a	n/a	n/a	n/a	n/a	n/a	n/a	n/a	feedback	s577
23.983	0.408	n/a	-1.0	n/a	columbia_card_task_fmri	n/a	n/a	-1.0	n/a	n/a	n/a	n/a	n/a	n/a	n/a	n/a	ITI	s577
24.392	1.08	4.945338707398824	draw_card	0.0	columbia_card_task_fmri	29.0	0.75	89.0	-75.0	0.25	8.0	1.0	2.0	12.007474182685506	1.08	n/a	stim	s577
25.473	0.524	1.2310529931131122	draw_card	0.0	columbia_card_task_fmri	29.0	0.7142857142857143	89.0	-75.0	0.2857142857142857	8.0	2.0	2.0	13.954823370133312	0.524	n/a	stim	s577
25.998	1.422	-3.72132795926784	draw_card	0.0	columbia_card_task_fmri	29.0	0.6666666666666667	89.0	-75.0	0.3333333333333333	8.0	3.0	2.0	15.996805819074844	1.422	n/a	stim	s577
27.422	0.66	-10.654661292601178	end_round	0.0	columbia_card_task_fmri	29.0	0.6	71.0	-75.0	0.4	8.0	4.0	2.0	17.918667009169198	0.66	3.0	stim	s577
28.085	2.25	n/a	-1.0	n/a	columbia_card_task_fmri	n/a	n/a	-1.0	n/a	n/a	n/a	n/a	n/a	n/a	n/a	n/a	feedback	s577
30.335	0.136	n/a	-1.0	n/a	columbia_card_task_fmri	n/a	n/a	-1.0	n/a	n/a	n/a	n/a	n/a	n/a	n/a	n/a	ITI	s577
30.472	0.763	0.7231164851766043	draw_card	0.0	columbia_card_task_fmri	17.0	0.7777777777777778	89.0	-65.0	0.2222222222222222	9.0	1.0	2.0	1.0782708138228827	0.763	n/a	stim	s577
31.237	0.484	-1.554661292601176	draw_card	0.0	columbia_card_task_fmri	17.0	0.75	89.0	-65.0	0.25	9.0	2.0	2.0	2.492447285705396	0.484	n/a	stim	s577
31.723	1.107	-4.483232721172604	draw_card	0.0	columbia_card_task_fmri	17.0	0.7142857142857143	89.0	-65.0	0.2857142857142857	9.0	3.0	2.0	4.027023746707968	1.107	n/a	stim	s577
32.832	1.893	-8.387994625934507	draw_card	0.0	columbia_card_task_fmri	17.0	0.6666666666666667	89.0	-65.0	0.3333333333333333	9.0	4.0	2.0	5.63624539912955	1.893	n/a	stim	s577
34.727	0.802	-13.854661292601175	end_round	0.0	columbia_card_task_fmri	17.0	0.6	71.0	-65.0	0.4	9.0	5.0	2.0	7.150862006916022	0.802	4.0	stim	s577
35.536	2.25	n/a	-1.0	n/a	columbia_card_task_fmri	n/a	n/a	-1.0	n/a	n/a	n/a	n/a	n/a	n/a	n/a	n/a	feedback	s577
37.786	0.272	n/a	-1.0	n/a	columbia_card_task_fmri	n/a	n/a	-1.0	n/a	n/a	n/a	n/a	n/a	n/a	n/a	n/a	ITI	s577
38.059	0.781	5.045338707398823	draw_card	0.0	columbia_card_task_fmri	14.0	0.9	89.0	-95.0	0.1	10.0	1.0	1.0	-0.3100309105734382	0.781	n/a	stim	s577
38.842	0.53	3.834227596287712	draw_card	0.0	columbia_card_task_fmri	14.0	0.8888888888888888	89.0	-95.0	0.1111111111111111	10.0	2.0	1.0	1.2427435207071298	0.53	n/a	stim	s577
39.373	0.654	2.320338707398824	draw_card	0.0	columbia_card_task_fmri	14.0	0.875	89.0	-95.0	0.125	10.0	3.0	1.0	3.0329688845252534	0.654	n/a	stim	s577
40.03	1.167	0.3739101359702528	draw_card	0.0	columbia_card_task_fmri	14.0	0.8571428571428572	89.0	-95.0	0.1428571428571428	10.0	4.0	1.0	5.1237865085827465	1.167	n/a	stim	s577
41.198	0.615	-2.2213279592678403	end_round	0.0	columbia_card_task_fmri	14.0	0.8333333333333334	71.0	-95.0	0.1666666666666666	10.0	5.0	1.0	7.600610623039401	0.615	4.0	stim	s577
41.82	2.25	n/a	-1.0	n/a	columbia_card_task_fmri	n/a	n/a	-1.0	n/a	n/a	n/a	n/a	n/a	n/a	n/a	n/a	feedback	s577
44.07	0.34	n/a	-1.0	n/a	columbia_card_task_fmri	n/a	n/a	-1.0	n/a	n/a	n/a	n/a	n/a	n/a	n/a	n/a	ITI	s577
44.411	0.627	0.945338707398824	draw_card	0.0	columbia_card_task_fmri	15.0	0.8	89.0	-65.0	0.2	10.0	1.0	2.0	-1.00876854670895	0.627	n/a	stim	s577
45.039	0.431	-0.8324390703789528	draw_card	0.0	columbia_card_task_fmri	15.0	0.7777777777777778	89.0	-65.0	0.2222222222222222	10.0	2.0	2.0	0.2481755325635788	0.431	n/a	stim	s577
45.472	0.539	-3.054661292601176	draw_card	0.0	columbia_card_task_fmri	15.0	0.75	89.0	-65.0	0.25	10.0	3.0	2.0	1.627751065732042	0.539	n/a	stim	s577
46.013	0.927	-5.911804149744031	draw_card	0.0	columbia_card_task_fmri	15.0	0.7142857142857143	89.0	-65.0	0.2857142857142857	10.0	4.0	2.0	3.124790124017906	0.927	n/a	stim	s577
46.942	0.773	-9.72132795926784	end_round	0.0	columbia_card_task_fmri	15.0	0.6666666666666667	71.0	-65.0	0.3333333333333333	10.0	5.0	2.0	4.694657730074098	0.773	4.0	stim	s577
47.718	2.25	n/a	-1.0	n/a	columbia_card_task_fmri	n/a	n/a	-1.0	n/a	n/a	n/a	n/a	n/a	n/a	n/a	n/a	feedback	s577
49.968	0.136	n/a	-1.0	n/a	columbia_card_task_fmri	n/a	n/a	-1.0	n/a	n/a	n/a	n/a	n/a	n/a	n/a	n/a	ITI	s577
50.106	0.519	2.5453387073988254	draw_card	0.0	columbia_card_task_fmri	17.0	0.8	89.0	-65.0	0.2	10.0	1.0	2.0	-0.2102068614624386	0.519	n/a	stim	s577
50.626	0.565	0.7231164851766043	draw_card	1.0	columbia_card_task_fmri	17.0	0.7777777777777778	89.0	-65.0	0.2222222222222222	10.0	2.0	2.0	1.0782708138228827	0.565	2.0	stim	s577
51.194	2.25	n/a	-1.0	n/a	columbia_card_task_fmri	n/a	n/a	-1.0	n/a	n/a	n/a	n/a	n/a	n/a	n/a	n/a	feedback	s577
53.444	0.34	n/a	-1.0	n/a	columbia_card_task_fmri	n/a	n/a	-1.0	n/a	n/a	n/a	n/a	n/a	n/a	n/a	n/a	ITI	s577
53.786	0.666	1.1120053740654918	draw_card	0.0	columbia_card_task_fmri	13.0	0.8333333333333334	89.0	-70.0	0.1666666666666666	12.0	1.0	2.0	-2.0744596209844595	0.666	n/a	stim	s577
54.453	0.367	-0.1455703835102695	draw_card	0.0	columbia_card_task_fmri	13.0	0.8181818181818181	89.0	-70.0	0.1818181818181818	12.0	2.0	2.0	-0.9961393950710972	0.367	n/a	stim	s577
54.822	0.702	-1.6546612926011757	draw_card	0.0	columbia_card_task_fmri	13.0	0.8	89.0	-70.0	0.2	12.0	3.0	2.0	0.1890999069764802	0.702	n/a	stim	s577
55.525	0.712	-3.4991057370456207	draw_card	1.0	columbia_card_task_fmri	13.0	0.7777777777777778	89.0	-70.0	0.2222222222222222	12.0	4.0	2.0	1.4933434085596602	0.712	4.0	stim	s577
56.241	2.25	n/a	-1.0	n/a	columbia_card_task_fmri	n/a	n/a	-1.0	n/a	n/a	n/a	n/a	n/a	n/a	n/a	n/a	feedback	s577
58.491	0.068	n/a	-1.0	n/a	columbia_card_task_fmri	n/a	n/a	-1.0	n/a	n/a	n/a	n/a	n/a	n/a	n/a	n/a	ITI	s577
58.561	0.513	1.1120053740654918	draw_card	0.0	columbia_card_task_fmri	15.0	0.8333333333333334	89.0	-80.0	0.1666666666666666	12.0	1.0	2.0	2.389969505945458	0.513	n/a	stim	s577
59.075	0.421	-0.3273885653284512	draw_card	0.0	columbia_card_task_fmri	15.0	0.8181818181818181	89.0	-80.0	0.1818181818181818	12.0	2.0	2.0	3.6247478811395695	0.421	n/a	stim	s577
59.499	0.501	-2.054661292601176	draw_card	0.0	columbia_card_task_fmri	15.0	0.8	89.0	-80.0	0.2	12.0	3.0	2.0	4.98191703050675	0.501	n/a	stim	s577
60.003	1.02	-4.165772403712289	draw_card	0.0	columbia_card_task_fmri	15.0	0.7777777777777778	89.0	-80.0	0.2222222222222222	12.0	4.0	2.0	6.47530782912758	1.02	n/a	stim	s577
61.024	0.914	-6.8046612926011765	draw_card	0.0	columbia_card_task_fmri	15.0	0.75	89.0	-80.0	0.25	12.0	5.0	2.0	8.114334331852255	0.914	n/a	stim	s577
61.94	0.835	-10.197518435458315	end_round	0.0	columbia_card_task_fmri	15.0	0.7142857142857143	71.0	-80.0	0.2857142857142857	12.0	6.0	2.0	9.89284786514429	0.835	5.0	stim	s577
62.78	2.25	n/a	-1.0	n/a	columbia_card_task_fmri	n/a	n/a	-1.0	n/a	n/a	n/a	n/a	n/a	n/a	n/a	n/a	feedback	s577
65.03	0.0	n/a	-1.0	n/a	columbia_card_task_fmri	n/a	n/a	-1.0	n/a	n/a	n/a	n/a	n/a	n/a	n/a	n/a	ITI	s577
65.032	0.891	0.145338707398825	draw_card	1.0	columbia_card_task_fmri	14.0	0.8	89.0	-65.0	0.2	15.0	1.0	3.0	-1.408022155652997	0.891	1.0	stim	s577
65.93	2.25	n/a	-1.0	n/a	columbia_card_task_fmri	n/a	n/a	-1.0	n/a	n/a	n/a	n/a	n/a	n/a	n/a	n/a	feedback	s577
68.18	0.204	n/a	-1.0	n/a	columbia_card_task_fmri	n/a	n/a	-1.0	n/a	n/a	n/a	n/a	n/a	n/a	n/a	n/a	ITI	s577
68.385	1.13	0.0703387073988239	draw_card	0.0	columbia_card_task_fmri	1.0	0.9375	89.0	-45.0	0.0625	16.0	1.0	1.0	-21.764361823839707	1.13	n/a	stim	s577
69.518	0.441	-0.1213279592678424	draw_card	0.0	columbia_card_task_fmri	1.0	0.9333333333333332	89.0	-45.0	0.0666666666666666	16.0	2.0	1.0	-21.42969310387857	0.441	n/a	stim	s577
69.961	0.427	-0.3403755783154616	draw_card	1.0	columbia_card_task_fmri	1.0	0.9285714285714286	89.0	-45.0	0.0714285714285714	16.0	3.0	1.0	-21.062375555917	0.427	3.0	stim	s577
70.392	2.25	n/a	-1.0	n/a	columbia_card_task_fmri	n/a	n/a	-1.0	n/a	n/a	n/a	n/a	n/a	n/a	n/a	n/a	feedback	s577
72.642	1.02	n/a	-1.0	n/a	columbia_card_task_fmri	n/a	n/a	-1.0	n/a	n/a	n/a	n/a	n/a	n/a	n/a	n/a	ITI	s577
73.663	0.658	1.007838707398824	draw_card	0.0	columbia_card_task_fmri	15.0	0.8125	89.0	-70.0	0.1875	16.0	1.0	3.0	0.1656919508905332	0.658	n/a	stim	s577
74.324	0.512	-0.054661292601176	draw_card	0.0	columbia_card_task_fmri	15.0	0.8	89.0	-70.0	0.2	16.0	2.0	3.0	0.9877622556475316	0.512	n/a	stim	s577
74.837	0.624	-1.268947006886891	draw_card	0.0	columbia_card_task_fmri	15.0	0.7857142857142857	89.0	-70.0	0.2142857142857142	16.0	3.0	3.0	1.864066889940048	0.624	n/a	stim	s577
75.464	0.684	-2.6700459079857928	draw_card	0.0	columbia_card_task_fmri	15.0	0.7692307692307692	89.0	-70.0	0.2307692307692307	16.0	4.0	3.0	2.797580782040882	0.684	n/a	stim	s577
76.15	0.58	-4.3046612926011765	draw_card	0.0	columbia_card_task_fmri	15.0	0.75	89.0	-70.0	0.25	16.0	5.0	3.0	3.7896086434285294	0.58	n/a	stim	s577
76.731	0.554	-6.236479474419356	draw_card	0.0	columbia_card_task_fmri	15.0	0.7272727272727273	89.0	-70.0	0.2727272727272727	16.0	6.0	3.0	4.837856967336521	0.554	n/a	stim	s577
77.287	0.771	-8.554661292601176	draw_card	0.0	columbia_card_task_fmri	15.0	0.7	89.0	-70.0	0.3	16.0	7.0	3.0	5.932595917696993	0.771	n/a	stim	s577
78.06	0.588	-11.387994625934509	draw_card	0.0	columbia_card_task_fmri	15.0	0.6666666666666667	89.0	-70.0	0.3333333333333333	16.0	8.0	3.0	7.048734474516117	0.588	n/a	stim	s577
78.65	0.529	-14.929661292601176	draw_card	1.0	columbia_card_task_fmri	15.0	0.625	89.0	-70.0	0.375	16.0	9.0	3.0	8.128559813269142	0.529	9.0	stim	s577
79.183	2.25	n/a	-1.0	n/a	columbia_card_task_fmri	n/a	n/a	-1.0	n/a	n/a	n/a	n/a	n/a	n/a	n/a	n/a	feedback	s577
81.433	0.0	n/a	-1.0	n/a	columbia_card_task_fmri	n/a	n/a	-1.0	n/a	n/a	n/a	n/a	n/a	n/a	n/a	n/a	ITI	s577
81.435	0.766	7.945338707398823	draw_card	0.0	columbia_card_task_fmri	30.0	0.7	89.0	-50.0	0.3	10.0	1.0	3.0	3.6443381126213055	0.766	n/a	stim	s577
82.203	0.441	5.278672040732163	draw_card	0.0	columbia_card_task_fmri	30.0	0.6666666666666667	89.0	-50.0	0.3333333333333333	10.0	2.0	3.0	4.694657730074098	0.441	n/a	stim	s577
82.646	0.628	1.945338707398824	draw_card	1.0	columbia_card_task_fmri	30.0	0.625	89.0	-50.0	0.375	10.0	3.0	3.0	5.710813969794536	0.628	3.0	stim	s577
83.279	2.25	n/a	-1.0	n/a	columbia_card_task_fmri	n/a	n/a	-1.0	n/a	n/a	n/a	n/a	n/a	n/a	n/a	n/a	feedback	s577
85.529	0.0	n/a	-1.0	n/a	columbia_card_task_fmri	n/a	n/a	-1.0	n/a	n/a	n/a	n/a	n/a	n/a	n/a	n/a	ITI	s577
85.531	0.57	7.345338707398824	draw_card	0.0	columbia_card_task_fmri	17.0	0.8666666666666667	89.0	-70.0	0.1333333333333333	15.0	1.0	2.0	-3.429620019564119	0.57	n/a	stim	s577
86.104	0.449	6.5167672788273965	draw_card	0.0	columbia_card_task_fmri	17.0	0.8571428571428572	89.0	-70.0	0.1428571428571428	15.0	2.0	2.0	-2.5620962366363536	0.449	n/a	stim	s577
86.556	0.464	5.560723322783439	draw_card	0.0	columbia_card_task_fmri	17.0	0.8461538461538461	89.0	-70.0	0.1538461538461538	15.0	3.0	2.0	-1.6179166735521555	0.464	n/a	stim	s577
87.021	0.903	4.445338707398825	draw_card	0.0	columbia_card_task_fmri	17.0	0.8333333333333334	89.0	-70.0	0.1666666666666666	15.0	4.0	2.0	-0.5865521752156511	0.903	n/a	stim	s577
87.927	0.447	3.127156889217004	draw_card	0.0	columbia_card_task_fmri	17.0	0.8181818181818181	89.0	-70.0	0.1818181818181818	15.0	5.0	2.0	0.5439286387272162	0.447	n/a	stim	s577
88.376	0.55	1.5453387073988254	draw_card	0.0	columbia_card_task_fmri	17.0	0.8	89.0	-70.0	0.2	15.0	6.0	2.0	1.7864859583792452	0.55	n/a	stim	s577
88.928	0.825	-0.3879946259345082	end_round	0.0	columbia_card_task_fmri	17.0	0.7777777777777778	71.0	-70.0	0.2222222222222222	15.0	7.0	2.0	3.153786803377137	0.825	6.0	stim	s577
89.76	2.25	n/a	-1.0	n/a	columbia_card_task_fmri	n/a	n/a	-1.0	n/a	n/a	n/a	n/a	n/a	n/a	n/a	n/a	feedback	s577
92.01	0.068	n/a	-1.0	n/a	columbia_card_task_fmri	n/a	n/a	-1.0	n/a	n/a	n/a	n/a	n/a	n/a	n/a	n/a	ITI	s577
92.081	0.667	2.570338707398824	draw_card	0.0	columbia_card_task_fmri	7.0	0.9375	89.0	-95.0	0.0625	16.0	1.0	1.0	-8.301057786890336	0.667	n/a	stim	s577
92.751	0.353	2.145338707398824	draw_card	0.0	columbia_card_task_fmri	7.0	0.9333333333333332	89.0	-95.0	0.0666666666666666	16.0	2.0	1.0	-7.550314265142781	0.353	n/a	stim	s577
93.107	0.395	1.6596244216845384	draw_card	0.0	columbia_card_task_fmri	7.0	0.9285714285714286	89.0	-95.0	0.0714285714285714	16.0	3.0	1.0	-6.726895884021243	0.395	n/a	stim	s577
93.505	0.864	1.0991848612449773	draw_card	0.0	columbia_card_task_fmri	7.0	0.9230769230769232	89.0	-95.0	0.0769230769230769	16.0	4.0	1.0	-5.818442453991821	0.864	n/a	stim	s577
94.371	0.393	0.445338707398824	draw_card	1.0	columbia_card_task_fmri	7.0	0.9166666666666666	89.0	-95.0	0.0833333333333333	16.0	5.0	1.0	-4.809494406694995	0.393	5.0	stim	s577
94.77	2.25	n/a	-1.0	n/a	columbia_card_task_fmri	n/a	n/a	-1.0	n/a	n/a	n/a	n/a	n/a	n/a	n/a	n/a	feedback	s577
97.02	0.476	n/a	-1.0	n/a	columbia_card_task_fmri	n/a	n/a	-1.0	n/a	n/a	n/a	n/a	n/a	n/a	n/a	n/a	ITI	s577
97.499	0.595	4.132838707398824	draw_card	0.0	columbia_card_task_fmri	9.0	0.9375	89.0	-100.0	0.0625	16.0	1.0	1.0	-6.611527800964243	0.595	n/a	stim	s577
98.096	0.431	3.678672040732157	draw_card	0.0	columbia_card_task_fmri	9.0	0.9333333333333332	89.0	-100.0	0.0666666666666666	16.0	2.0	1.0	-5.808963892765021	0.431	n/a	stim	s577
98.529	0.469	3.1596244216845397	draw_card	0.0	columbia_card_task_fmri	9.0	0.9285714285714286	89.0	-100.0	0.0714285714285714	16.0	3.0	1.0	-4.928728306184819	0.469	n/a	stim	s577
99.001	3.018	2.56072332278344	draw_card	0.0	columbia_card_task_fmri	9.0	0.9230769230769232	89.0	-100.0	0.0769230769230769	16.0	4.0	1.0	-3.957611728837097	3.018	n/a	stim	s577
102.022	0.599	1.862005374065492	draw_card	0.0	columbia_card_task_fmri	9.0	0.9166666666666666	89.0	-100.0	0.0833333333333333	16.0	5.0	1.0	-2.8790926313984	0.599	n/a	stim	s577
102.623	0.547	1.036247798307914	draw_card	0.0	columbia_card_task_fmri	9.0	0.9090909090909092	89.0	-100.0	0.0909090909090909	16.0	6.0	1.0	-1.672220963373796	0.547	n/a	stim	s577
103.172	0.534	0.0453387073988236	draw_card	0.0	columbia_card_task_fmri	9.0	0.9	89.0	-100.0	0.1	16.0	7.0	1.0	-0.3100309105734382	0.534	n/a	stim	s577
103.708	0.631	-1.1657724037122867	draw_card	0.0	columbia_card_task_fmri	9.0	0.8888888888888888	89.0	-100.0	0.1111111111111111	16.0	8.0	1.0	1.242743520707123	0.631	n/a	stim	s577
104.342	0.937	-2.679661292601176	end_round	0.0	columbia_card_task_fmri	9.0	0.875	71.0	-100.0	0.125	16.0	9.0	1.0	3.0329688845252534	0.937	8.0	stim	s577
105.282	2.25	n/a	-1.0	n/a	columbia_card_task_fmri	n/a	n/a	-1.0	n/a	n/a	n/a	n/a	n/a	n/a	n/a	n/a	feedback	s577
107.532	0.136	n/a	-1.0	n/a	columbia_card_task_fmri	n/a	n/a	-1.0	n/a	n/a	n/a	n/a	n/a	n/a	n/a	n/a	ITI	s577
107.671	0.474	5.070338707398824	draw_card	0.0	columbia_card_task_fmri	15.0	0.875	89.0	-80.0	0.125	16.0	1.0	2.0	-1.5893800230166306	0.474	n/a	stim	s577
108.147	0.397	4.2786720407321575	draw_card	0.0	columbia_card_task_fmri	15.0	0.8666666666666667	89.0	-80.0	0.1333333333333333	16.0	2.0	2.0	-0.7155147547772245	0.397	n/a	stim	s577
108.547	0.46	3.3739101359702546	draw_card	0.0	columbia_card_task_fmri	15.0	0.8571428571428572	89.0	-80.0	0.1428571428571428	16.0	3.0	2.0	0.2321013275261094	0.46	n/a	stim	s577
109.01	0.739	2.3299540920142072	draw_card	1.0	columbia_card_task_fmri	15.0	0.8461538461538461	89.0	-80.0	0.1538461538461538	16.0	4.0	2.0	1.2634302006650913	0.739	4.0	stim	s577
109.756	2.25	n/a	-1.0	n/a	columbia_card_task_fmri	n/a	n/a	-1.0	n/a	n/a	n/a	n/a	n/a	n/a	n/a	n/a	feedback	s577
112.006	0.068	n/a	-1.0	n/a	columbia_card_task_fmri	n/a	n/a	-1.0	n/a	n/a	n/a	n/a	n/a	n/a	n/a	n/a	ITI	s577
112.077	0.526	7.195338707398824	draw_card	0.0	columbia_card_task_fmri	16.0	0.875	89.0	-70.0	0.125	16.0	1.0	2.0	-4.55956763063385	0.526	n/a	stim	s577
112.605	0.414	6.478672040732157	draw_card	0.0	columbia_card_task_fmri	16.0	0.8666666666666667	89.0	-70.0	0.1333333333333333	16.0	2.0	2.0	-3.768813131132834	0.414	n/a	stim	s577
113.022	0.424	5.659624421684539	draw_card	0.0	columbia_card_task_fmri	16.0	0.8571428571428572	89.0	-70.0	0.1428571428571428	16.0	3.0	2.0	-2.9113028622723647	0.424	n/a	stim	s577
113.448	0.92	4.714569476629592	draw_card	0.0	columbia_card_task_fmri	16.0	0.8461538461538461	89.0	-70.0	0.1538461538461538	16.0	4.0	2.0	-1.978018991701262	0.92	n/a	stim	s577
114.371	1.248	3.612005374065492	draw_card	0.0	columbia_card_task_fmri	16.0	0.8333333333333334	89.0	-70.0	0.1666666666666666	16.0	5.0	2.0	-0.9585534269461604	1.248	n/a	stim	s577
115.622	0.788	2.308975071035185	end_round	0.0	columbia_card_task_fmri	16.0	0.8181818181818181	71.0	-70.0	0.1818181818181818	16.0	6.0	2.0	0.158888054369342	0.788	5.0	stim	s577
116.416	2.25	n/a	-1.0	n/a	columbia_card_task_fmri	n/a	n/a	-1.0	n/a	n/a	n/a	n/a	n/a	n/a	n/a	n/a	feedback	s577
118.666	0.0	n/a	-1.0	n/a	columbia_card_task_fmri	n/a	n/a	-1.0	n/a	n/a	n/a	n/a	n/a	n/a	n/a	n/a	ITI	s577
118.671	0.559	8.507838707398824	draw_card	1.0	columbia_card_task_fmri	30.0	0.6875	89.0	-45.0	0.3125	16.0	1.0	5.0	1.7499734305145296	0.559	1.0	stim	s577
119.236	2.25	n/a	-1.0	n/a	columbia_card_task_fmri	n/a	n/a	-1.0	n/a	n/a	n/a	n/a	n/a	n/a	n/a	n/a	feedback	s577
121.486	0.0	n/a	-1.0	n/a	columbia_card_task_fmri	n/a	n/a	-1.0	n/a	n/a	n/a	n/a	n/a	n/a	n/a	n/a	ITI	s577
121.489	0.507	0.2786720407321579	draw_card	0.0	columbia_card_task_fmri	13.0	0.8333333333333334	89.0	-75.0	0.1666666666666666	6.0	1.0	1.0	-0.2145355838515996	0.507	n/a	stim	s577
121.999	0.503	-2.654661292601176	draw_card	0.0	columbia_card_task_fmri	13.0	0.8	89.0	-75.0	0.2	6.0	2.0	1.0	2.185869514344752	0.503	n/a	stim	s577
122.504	0.572	-7.0546612926011765	draw_card	0.0	columbia_card_task_fmri	13.0	0.75	89.0	-75.0	0.25	6.0	3.0	1.0	5.086897702714268	0.572	n/a	stim	s577
123.08	1.394	-14.387994625934509	draw_card	0.0	columbia_card_task_fmri	13.0	0.6666666666666667	89.0	-75.0	0.3333333333333333	6.0	4.0	1.0	8.461340928049346	1.394	n/a	stim	s577
124.477	0.689	-29.05466129260117	end_round	0.0	columbia_card_task_fmri	13.0	0.5	71.0	-75.0	0.5	6.0	5.0	1.0	10.975138528839388	0.689	4.0	stim	s577
125.172	2.25	n/a	-1.0	n/a	columbia_card_task_fmri	n/a	n/a	-1.0	n/a	n/a	n/a	n/a	n/a	n/a	n/a	n/a	feedback	s577
127.422	0.204	n/a	-1.0	n/a	columbia_card_task_fmri	n/a	n/a	-1.0	n/a	n/a	n/a	n/a	n/a	n/a	n/a	n/a	ITI	s577
127.629	0.687	1.9453387073988255	draw_card	0.0	columbia_card_task_fmri	14.0	0.8333333333333334	89.0	-70.0	0.1666666666666666	6.0	1.0	1.0	-1.70250772834326	0.687	n/a	stim	s577
128.318	0.453	-0.854661292601175	draw_card	0.0	columbia_card_task_fmri	14.0	0.8	89.0	-70.0	0.2	6.0	2.0	1.0	0.5884231390596355	0.453	n/a	stim	s577
128.774	1.02	-5.0546612926011765	end_round	0.0	columbia_card_task_fmri	14.0	0.75	71.0	-70.0	0.25	6.0	3.0	1.0	3.357206661366739	1.02	2.0	stim	s577
129.8	2.25	n/a	-1.0	n/a	columbia_card_task_fmri	n/a	n/a	-1.0	n/a	n/a	n/a	n/a	n/a	n/a	n/a	n/a	feedback	s577
132.05	0.204	n/a	-1.0	n/a	columbia_card_task_fmri	n/a	n/a	-1.0	n/a	n/a	n/a	n/a	n/a	n/a	n/a	n/a	ITI	s577
132.257	1.239	1.9453387073988255	end_round	0.0	columbia_card_task_fmri	16.0	0.8333333333333334	71.0	-80.0	0.1666666666666666	6.0	1.0	1.0	2.7620920329364367	1.239	0.0	stim	s577
133.499	2.25	n/a	-1.0	n/a	columbia_card_task_fmri	n/a	n/a	-1.0	n/a	n/a	n/a	n/a	n/a	n/a	n/a	n/a	feedback	s577
135.749	0.272	n/a	-1.0	n/a	columbia_card_task_fmri	n/a	n/a	-1.0	n/a	n/a	n/a	n/a	n/a	n/a	n/a	n/a	ITI	s577
136.024	0.842	4.445338707398825	draw_card	0.0	columbia_card_task_fmri	17.0	0.8333333333333334	89.0	-70.0	0.1666666666666666	6.0	1.0	1.0	-0.5865521752156511	0.842	n/a	stim	s577
136.868	0.59	1.5453387073988254	draw_card	0.0	columbia_card_task_fmri	17.0	0.8	89.0	-70.0	0.2	6.0	2.0	1.0	1.7864859583792452	0.59	n/a	stim	s577
137.461	0.545	-2.804661292601176	draw_card	0.0	columbia_card_task_fmri	17.0	0.75	89.0	-70.0	0.25	6.0	3.0	1.0	4.654454640478306	0.545	n/a	stim	s577
138.009	0.609	-10.054661292601176	end_round	0.0	columbia_card_task_fmri	17.0	0.6666666666666667	71.0	-70.0	0.3333333333333333	6.0	4.0	1.0	7.990459816016504	0.609	3.0	stim	s577
138.622	2.25	n/a	-1.0	n/a	columbia_card_task_fmri	n/a	n/a	-1.0	n/a	n/a	n/a	n/a	n/a	n/a	n/a	n/a	feedback	s577
140.872	0.136	n/a	-1.0	n/a	columbia_card_task_fmri	n/a	n/a	-1.0	n/a	n/a	n/a	n/a	n/a	n/a	n/a	n/a	ITI	s577
141.011	1.015	4.445338707398824	draw_card	0.0	columbia_card_task_fmri	25.0	0.75	89.0	-65.0	0.25	8.0	1.0	2.0	5.951821731008515	1.015	n/a	stim	s577
142.03	0.515	1.2310529931131122	draw_card	0.0	columbia_card_task_fmri	25.0	0.7142857142857143	89.0	-65.0	0.2857142857142857	8.0	2.0	2.0	7.636523542077086	0.515	n/a	stim	s577
142.547	0.458	-3.0546612926011725	draw_card	0.0	columbia_card_task_fmri	25.0	0.6666666666666667	89.0	-65.0	0.3333333333333333	8.0	3.0	2.0	9.403137990072224	0.458	n/a	stim	s577
143.008	1.004	-9.054661292601176	draw_card	0.0	columbia_card_task_fmri	25.0	0.6	89.0	-65.0	0.4	8.0	4.0	2.0	11.065865451714934	1.004	n/a	stim	s577
144.017	0.582	-18.05466129260117	end_round	0.0	columbia_card_task_fmri	25.0	0.5	71.0	-65.0	0.5	8.0	5.0	2.0	11.974184254675857	0.582	4.0	stim	s577
144.606	2.25	n/a	-1.0	n/a	columbia_card_task_fmri	n/a	n/a	-1.0	n/a	n/a	n/a	n/a	n/a	n/a	n/a	n/a	feedback	s577
146.856	0.204	n/a	-1.0	n/a	columbia_card_task_fmri	n/a	n/a	-1.0	n/a	n/a	n/a	n/a	n/a	n/a	n/a	n/a	ITI	s577
147.063	0.899	4.445338707398824	draw_card	0.0	columbia_card_task_fmri	30.0	0.75	89.0	-80.0	0.25	8.0	1.0	2.0	14.603261581326478	0.899	n/a	stim	s577
147.965	0.484	0.5167672788274005	draw_card	1.0	columbia_card_task_fmri	30.0	0.7142857142857143	89.0	-80.0	0.2857142857142857	8.0	2.0	2.0	16.663152982977692	0.484	2.0	stim	s577
148.454	2.25	n/a	-1.0	n/a	columbia_card_task_fmri	n/a	n/a	-1.0	n/a	n/a	n/a	n/a	n/a	n/a	n/a	n/a	feedback	s577
150.704	0.272	n/a	-1.0	n/a	columbia_card_task_fmri	n/a	n/a	-1.0	n/a	n/a	n/a	n/a	n/a	n/a	n/a	n/a	ITI	s577
150.98	0.743	4.145338707398825	end_round	0.0	columbia_card_task_fmri	13.0	0.9	71.0	-95.0	0.1	10.0	1.0	1.0	-0.6094965586435279	0.743	0.0	stim	s577
151.729	2.25	n/a	-1.0	n/a	columbia_card_task_fmri	n/a	n/a	-1.0	n/a	n/a	n/a	n/a	n/a	n/a	n/a	n/a	feedback	s577
153.979	0.272	n/a	-1.0	n/a	columbia_card_task_fmri	n/a	n/a	-1.0	n/a	n/a	n/a	n/a	n/a	n/a	n/a	n/a	ITI	s577
154.253	0.852	5.545338707398823	draw_card	0.0	columbia_card_task_fmri	14.0	0.9	89.0	-90.0	0.1	10.0	1.0	1.0	-1.8072566812729176	0.852	n/a	stim	s577
155.109	0.917	4.389783151843266	draw_card	0.0	columbia_card_task_fmri	14.0	0.8888888888888888	89.0	-90.0	0.1111111111111111	10.0	2.0	1.0	-0.325955966567065	0.917	n/a	stim	s577
156.029	0.395	2.945338707398824	draw_card	0.0	columbia_card_task_fmri	14.0	0.875	89.0	-90.0	0.125	10.0	3.0	1.0	1.3818920969211916	0.395	n/a	stim	s577
156.427	0.423	1.088195850255968	draw_card	0.0	columbia_card_task_fmri	14.0	0.8571428571428572	89.0	-90.0	0.1428571428571428	10.0	4.0	1.0	3.3765311343621534	0.423	n/a	stim	s577
156.853	0.589	-1.3879946259345082	draw_card	0.0	columbia_card_task_fmri	14.0	0.8333333333333334	89.0	-90.0	0.1666666666666666	10.0	5.0	1.0	5.739456036710848	0.589	n/a	stim	s577
157.445	0.744	-4.854661292601175	draw_card	0.0	columbia_card_task_fmri	14.0	0.8	89.0	-90.0	0.2	10.0	6.0	1.0	8.577615678253437	0.744	n/a	stim	s577
158.191	0.663	-10.054661292601176	draw_card	0.0	columbia_card_task_fmri	14.0	0.75	89.0	-90.0	0.25	10.0	7.0	1.0	12.007474182685506	0.663	n/a	stim	s577
158.858	0.944	-18.72132795926784	draw_card	0.0	columbia_card_task_fmri	14.0	0.6666666666666667	89.0	-90.0	0.3333333333333333	10.0	8.0	1.0	15.996805819074844	0.944	n/a	stim	s577
159.804	2.52	-36.054661292601175	end_round	0.0	columbia_card_task_fmri	14.0	0.5	71.0	-90.0	0.5	10.0	9.0	1.0	18.96853081713945	2.52	8.0	stim	s577
162.333	2.25	n/a	-1.0	n/a	columbia_card_task_fmri	n/a	n/a	-1.0	n/a	n/a	n/a	n/a	n/a	n/a	n/a	n/a	feedback	s577
164.583	0.34	n/a	-1.0	n/a	columbia_card_task_fmri	n/a	n/a	-1.0	n/a	n/a	n/a	n/a	n/a	n/a	n/a	n/a	ITI	s577
164.926	1.074	0.7453387073988247	draw_card	1.0	columbia_card_task_fmri	16.0	0.8	89.0	-70.0	0.2	10.0	1.0	2.0	1.387116704427484	1.074	1.0	stim	s577
166.005	2.25	n/a	-1.0	n/a	columbia_card_task_fmri	n/a	n/a	-1.0	n/a	n/a	n/a	n/a	n/a	n/a	n/a	n/a	feedback	s577
168.255	0.204	n/a	-1.0	n/a	columbia_card_task_fmri	n/a	n/a	-1.0	n/a	n/a	n/a	n/a	n/a	n/a	n/a	n/a	ITI	s577
168.462	0.67	0.0286720407321579	draw_card	1.0	columbia_card_task_fmri	7.0	0.9166666666666666	89.0	-100.0	0.0833333333333333	12.0	1.0	1.0	-3.43069316520873	0.67	1.0	stim	s577
169.137	2.25	n/a	-1.0	n/a	columbia_card_task_fmri	n/a	n/a	-1.0	n/a	n/a	n/a	n/a	n/a	n/a	n/a	n/a	feedback	s577
171.387	0.068	n/a	-1.0	n/a	columbia_card_task_fmri	n/a	n/a	-1.0	n/a	n/a	n/a	n/a	n/a	n/a	n/a	n/a	ITI	s577
171.458	0.767	0.2786720407321597	draw_card	0.0	columbia_card_task_fmri	14.0	0.8333333333333334	89.0	-80.0	0.1666666666666666	12.0	1.0	2.0	2.0178587704771687	0.767	n/a	stim	s577
172.227	0.467	-1.1455703835102695	draw_card	0.0	columbia_card_task_fmri	14.0	0.8181818181818181	89.0	-80.0	0.1818181818181818	12.0	2.0	2.0	3.2396014728235443	0.467	n/a	stim	s577
172.696	0.552	-2.854661292601175	draw_card	0.0	columbia_card_task_fmri	14.0	0.8	89.0	-80.0	0.2	12.0	3.0	2.0	4.5824457037302295	0.552	n/a	stim	s577
173.252	0.434	-4.943550181490066	draw_card	0.0	columbia_card_task_fmri	14.0	0.7777777777777778	89.0	-80.0	0.2222222222222222	12.0	4.0	2.0	6.060076852283942	0.434	n/a	stim	s577
173.689	0.749	-7.554661292601176	draw_card	1.0	columbia_card_task_fmri	14.0	0.75	89.0	-80.0	0.25	12.0	5.0	2.0	7.681810139355946	0.749	5.0	stim	s577
174.444	2.25	n/a	-1.0	n/a	columbia_card_task_fmri	n/a	n/a	-1.0	n/a	n/a	n/a	n/a	n/a	n/a	n/a	n/a	feedback	s577
176.694	0.0	n/a	-1.0	n/a	columbia_card_task_fmri	n/a	n/a	-1.0	n/a	n/a	n/a	n/a	n/a	n/a	n/a	n/a	ITI	s577
176.698	0.98	1.945338707398824	draw_card	0.0	columbia_card_task_fmri	15.0	0.8333333333333334	89.0	-75.0	0.1666666666666666	12.0	1.0	2.0	0.5295415795268212	0.98	n/a	stim	s577
177.682	0.392	0.5817023437624589	draw_card	0.0	columbia_card_task_fmri	15.0	0.8181818181818181	89.0	-75.0	0.1818181818181818	12.0	2.0	2.0	1.6991373846166198	0.392	n/a	stim	s577
178.078	0.377	-1.054661292601176	draw_card	1.0	columbia_card_task_fmri	15.0	0.8	89.0	-75.0	0.2	12.0	3.0	2.0	2.9846776310774104	0.377	3.0	stim	s577
178.463	2.25	n/a	-1.0	n/a	columbia_card_task_fmri	n/a	n/a	-1.0	n/a	n/a	n/a	n/a	n/a	n/a	n/a	n/a	feedback	s577
180.713	0.408	n/a	-1.0	n/a	columbia_card_task_fmri	n/a	n/a	-1.0	n/a	n/a	n/a	n/a	n/a	n/a	n/a	n/a	ITI	s577
181.124	0.757	0.945338707398824	draw_card	0.0	columbia_card_task_fmri	15.0	0.8	89.0	-65.0	0.2	15.0	1.0	3.0	-1.00876854670895	0.757	n/a	stim	s577
181.885	0.414	-0.1975184354583183	draw_card	0.0	columbia_card_task_fmri	15.0	0.7857142857142857	89.0	-65.0	0.2142857142857142	15.0	2.0	3.0	-0.1841802941920463	0.414	n/a	stim	s577
182.302	0.356	-1.5161997541396397	draw_card	0.0	columbia_card_task_fmri	15.0	0.7692307692307692	89.0	-65.0	0.2307692307692307	15.0	3.0	3.0	0.6942500140493166	0.356	n/a	stim	s577
182.662	0.551	-3.054661292601176	draw_card	0.0	columbia_card_task_fmri	15.0	0.75	89.0	-65.0	0.25	15.0	4.0	3.0	1.627751065732042	0.551	n/a	stim	s577
183.216	0.467	-4.872843110782993	draw_card	0.0	columbia_card_task_fmri	15.0	0.7272727272727273	89.0	-65.0	0.2727272727272727	15.0	5.0	3.0	2.614165526332542	0.467	n/a	stim	s577
183.686	0.567	-7.0546612926011765	draw_card	0.0	columbia_card_task_fmri	15.0	0.7	89.0	-65.0	0.3	15.0	6.0	3.0	3.6443381126213055	0.567	n/a	stim	s577
184.257	0.61	-9.72132795926784	draw_card	1.0	columbia_card_task_fmri	15.0	0.6666666666666667	89.0	-65.0	0.3333333333333333	15.0	7.0	3.0	4.694657730074098	0.61	7.0	stim	s577
184.875	2.25	n/a	-1.0	n/a	columbia_card_task_fmri	n/a	n/a	-1.0	n/a	n/a	n/a	n/a	n/a	n/a	n/a	n/a	feedback	s577
187.125	0.204	n/a	-1.0	n/a	columbia_card_task_fmri	n/a	n/a	-1.0	n/a	n/a	n/a	n/a	n/a	n/a	n/a	n/a	ITI	s577
187.333	0.613	0.1953387073988239	draw_card	0.0	columbia_card_task_fmri	14.0	0.8125	89.0	-70.0	0.1875	16.0	1.0	3.0	-0.2239432216517372	0.613	n/a	stim	s577
187.95	0.412	-0.854661292601175	draw_card	0.0	columbia_card_task_fmri	14.0	0.8	89.0	-70.0	0.2	16.0	2.0	3.0	0.5884231390596355	0.412	n/a	stim	s577
188.365	0.351	-2.054661292601176	draw_card	1.0	columbia_card_task_fmri	14.0	0.7857142857142857	89.0	-70.0	0.2142857142857142	16.0	3.0	3.0	1.4543853181331556	0.351	3.0	stim	s577
188.722	2.25	n/a	-1.0	n/a	columbia_card_task_fmri	n/a	n/a	-1.0	n/a	n/a	n/a	n/a	n/a	n/a	n/a	n/a	feedback	s577
190.972	0.136	n/a	-1.0	n/a	columbia_card_task_fmri	n/a	n/a	-1.0	n/a	n/a	n/a	n/a	n/a	n/a	n/a	n/a	ITI	s577
191.111	2.09	0.1328387073988239	draw_card	0.0	columbia_card_task_fmri	11.0	0.6875	89.0	-30.0	0.3125	16.0	1.0	5.0	-13.964528259677852	2.09	n/a	stim	s577
193.205	0.481	-0.7213279592678421	draw_card	0.0	columbia_card_task_fmri	11.0	0.6666666666666667	89.0	-30.0	0.3333333333333333	16.0	2.0	5.0	-13.642605678647511	0.481	n/a	stim	s577
193.689	0.514	-1.6975184354583202	draw_card	0.0	columbia_card_task_fmri	11.0	0.6428571428571428	89.0	-30.0	0.3571428571428571	16.0	3.0	5.0	-13.326308963374242	0.514	n/a	stim	s577
194.207	0.445	-2.8238920618319443	draw_card	1.0	columbia_card_task_fmri	11.0	0.6153846153846154	89.0	-30.0	0.3846153846153846	16.0	4.0	5.0	-13.026532907302672	0.445	4.0	stim	s577
194.66	2.25	n/a	-1.0	n/a	columbia_card_task_fmri	n/a	n/a	-1.0	n/a	n/a	n/a	n/a	n/a	n/a	n/a	n/a	feedback	s577
196.91	0.34	n/a	-1.0	n/a	columbia_card_task_fmri	n/a	n/a	-1.0	n/a	n/a	n/a	n/a	n/a	n/a	n/a	n/a	ITI	s577
197.253	0.9	4.945338707398824	draw_card	0.0	columbia_card_task_fmri	15.0	0.8666666666666667	89.0	-75.0	0.1333333333333333	15.0	1.0	2.0	-2.411942121894402	0.9	n/a	stim	s577
198.156	0.445	4.088195850255968	draw_card	0.0	columbia_card_task_fmri	15.0	0.8571428571428572	89.0	-75.0	0.1428571428571428	15.0	2.0	2.0	-1.5143805769696037	0.445	n/a	stim	s577
198.604	0.446	3.0991848612449773	draw_card	0.0	columbia_card_task_fmri	15.0	0.8461538461538461	89.0	-75.0	0.1538461538461538	15.0	3.0	2.0	-0.5375167899497413	0.446	n/a	stim	s577
199.054	0.406	1.945338707398824	draw_card	0.0	columbia_card_task_fmri	15.0	0.8333333333333334	89.0	-75.0	0.1666666666666666	15.0	4.0	2.0	0.5295415795268212	0.406	n/a	stim	s577
199.463	0.484	0.5817023437624589	draw_card	1.0	columbia_card_task_fmri	15.0	0.8181818181818181	89.0	-75.0	0.1818181818181818	15.0	5.0	2.0	1.6991373846166198	0.484	5.0	stim	s577
199.956	2.25	n/a	-1.0	n/a	columbia_card_task_fmri	n/a	n/a	-1.0	n/a	n/a	n/a	n/a	n/a	n/a	n/a	n/a	feedback	s577
202.206	0.068	n/a	-1.0	n/a	columbia_card_task_fmri	n/a	n/a	-1.0	n/a	n/a	n/a	n/a	n/a	n/a	n/a	n/a	ITI	s577
202.276	0.555	6.678672040732158	draw_card	0.0	columbia_card_task_fmri	17.0	0.8666666666666667	89.0	-75.0	0.1333333333333333	15.0	1.0	2.0	-1.733413389579784	0.555	n/a	stim	s577
202.834	0.361	5.802481564541683	draw_card	0.0	columbia_card_task_fmri	17.0	0.8571428571428572	89.0	-75.0	0.1428571428571428	15.0	2.0	2.0	-0.8158288375007601	0.361	n/a	stim	s577
203.199	0.34	4.79149255355267	draw_card	0.0	columbia_card_task_fmri	17.0	0.8461538461538461	89.0	-75.0	0.1538461538461538	15.0	3.0	2.0	0.1828222075143202	0.34	n/a	stim	s577
203.542	0.506	3.612005374065492	draw_card	0.0	columbia_card_task_fmri	17.0	0.8333333333333334	89.0	-75.0	0.1666666666666666	15.0	4.0	2.0	1.273674207314258	0.506	n/a	stim	s577
204.051	0.513	2.218065980126096	draw_card	0.0	columbia_card_task_fmri	17.0	0.8181818181818181	89.0	-75.0	0.1818181818181818	15.0	5.0	2.0	2.4693443293806965	0.513	n/a	stim	s577
204.567	0.68	0.5453387073988254	end_round	0.0	columbia_card_task_fmri	17.0	0.8	71.0	-75.0	0.2	15.0	6.0	2.0	3.783537458054965	0.68	5.0	stim	s577
205.252	2.25	n/a	-1.0	n/a	columbia_card_task_fmri	n/a	n/a	-1.0	n/a	n/a	n/a	n/a	n/a	n/a	n/a	n/a	feedback	s577
207.502	0.34	n/a	-1.0	n/a	columbia_card_task_fmri	n/a	n/a	-1.0	n/a	n/a	n/a	n/a	n/a	n/a	n/a	n/a	ITI	s577
207.845	0.611	2.257838707398824	draw_card	0.0	columbia_card_task_fmri	2.0	0.9375	89.0	-25.0	0.0625	16.0	1.0	1.0	-26.24881317580809	0.611	n/a	stim	s577
208.46	0.377	2.145338707398824	draw_card	0.0	columbia_card_task_fmri	2.0	0.9333333333333332	89.0	-25.0	0.0666666666666666	16.0	2.0	1.0	-26.05754176047551	0.377	n/a	stim	s577
208.841	0.387	2.016767278827396	draw_card	0.0	columbia_card_task_fmri	2.0	0.9285714285714286	89.0	-25.0	0.0714285714285714	16.0	3.0	1.0	-25.84729151767972	0.387	n/a	stim	s577
209.231	0.388	1.868415630475747	draw_card	0.0	columbia_card_task_fmri	2.0	0.9230769230769232	89.0	-25.0	0.0769230769230769	16.0	4.0	1.0	-25.61481436295053	0.388	n/a	stim	s577
209.624	0.378	1.6953387073988242	draw_card	0.0	columbia_card_task_fmri	2.0	0.9166666666666666	89.0	-25.0	0.0833333333333333	16.0	5.0	1.0	-25.356045443927982	0.378	n/a	stim	s577
210.005	0.403	1.4907932528533692	draw_card	0.0	columbia_card_task_fmri	2.0	0.9090909090909092	89.0	-25.0	0.0909090909090909	16.0	6.0	1.0	-25.06582733927119	0.403	n/a	stim	s577
210.412	0.964	1.245338707398824	draw_card	1.0	columbia_card_task_fmri	2.0	0.9	89.0	-25.0	0.1	16.0	7.0	1.0	-24.737517685209284	0.964	7.0	stim	s577
211.381	2.25	n/a	-1.0	n/a	columbia_card_task_fmri	n/a	n/a	-1.0	n/a	n/a	n/a	n/a	n/a	n/a	n/a	n/a	feedback	s577
213.631	0.136	n/a	-1.0	n/a	columbia_card_task_fmri	n/a	n/a	-1.0	n/a	n/a	n/a	n/a	n/a	n/a	n/a	n/a	ITI	s577
213.772	0.587	4.445338707398824	draw_card	0.0	columbia_card_task_fmri	9.0	0.9375	89.0	-95.0	0.0625	16.0	1.0	1.0	-7.818401947390864	0.587	n/a	stim	s577
214.363	0.352	4.012005374065492	draw_card	0.0	columbia_card_task_fmri	9.0	0.9333333333333332	89.0	-95.0	0.0666666666666666	16.0	2.0	1.0	-7.052850650854435	0.352	n/a	stim	s577
214.719	0.377	3.516767278827396	draw_card	0.0	columbia_card_task_fmri	9.0	0.9285714285714286	89.0	-95.0	0.0714285714285714	16.0	3.0	1.0	-6.213196769397552	0.377	n/a	stim	s577
215.1	0.443	2.945338707398824	draw_card	0.0	columbia_card_task_fmri	9.0	0.9230769230769232	89.0	-95.0	0.0769230769230769	16.0	4.0	1.0	-5.286837501110959	0.443	n/a	stim	s577
215.547	0.816	2.278672040732158	draw_card	0.0	columbia_card_task_fmri	9.0	0.9166666666666666	89.0	-95.0	0.0833333333333333	16.0	5.0	1.0	-4.258009853465492	0.816	n/a	stim	s577
216.368	0.897	1.490793252853369	draw_card	0.0	columbia_card_task_fmri	9.0	0.9090909090909092	89.0	-95.0	0.0909090909090909	16.0	6.0	1.0	-3.106725563002847	0.897	n/a	stim	s577
217.269	0.817	0.5453387073988236	end_round	0.0	columbia_card_task_fmri	9.0	0.9	71.0	-95.0	0.1	16.0	7.0	1.0	-1.8072566812729176	0.817	6.0	stim	s577
218.095	2.25	n/a	-1.0	n/a	columbia_card_task_fmri	n/a	n/a	-1.0	n/a	n/a	n/a	n/a	n/a	n/a	n/a	n/a	feedback	s577
220.345	0.068	n/a	-1.0	n/a	columbia_card_task_fmri	n/a	n/a	-1.0	n/a	n/a	n/a	n/a	n/a	n/a	n/a	n/a	ITI	s577
220.416	0.584	6.007838707398824	draw_card	0.0	columbia_card_task_fmri	11.0	0.9375	89.0	-100.0	0.0625	16.0	1.0	1.0	-6.128691888891975	0.584	n/a	stim	s577
221.005	0.477	5.545338707398825	draw_card	0.0	columbia_card_task_fmri	11.0	0.9333333333333332	89.0	-100.0	0.0666666666666666	16.0	2.0	1.0	-5.311325448325171	0.477	n/a	stim	s577
221.486	0.598	5.0167672788273965	draw_card	0.0	columbia_card_task_fmri	11.0	0.9285714285714286	89.0	-100.0	0.0714285714285714	16.0	3.0	1.0	-4.414859772901558	0.598	n/a	stim	s577
222.088	0.512	4.406877168937287	draw_card	0.0	columbia_card_task_fmri	11.0	0.9230769230769232	89.0	-100.0	0.0769230769230769	16.0	4.0	1.0	-3.425842953560373	0.512	n/a	stim	s577
222.604	0.595	3.695338707398824	draw_card	0.0	columbia_card_task_fmri	11.0	0.9166666666666666	89.0	-100.0	0.0833333333333333	16.0	5.0	1.0	-2.3274500549413126	0.595	n/a	stim	s577
223.204	0.852	2.8544296164897323	draw_card	0.0	columbia_card_task_fmri	11.0	0.9090909090909092	89.0	-100.0	0.0909090909090909	16.0	6.0	1.0	-1.098346321804712	0.852	n/a	stim	s577
224.059	1.036	1.8453387073988243	end_round	0.0	columbia_card_task_fmri	11.0	0.9	71.0	-100.0	0.1	16.0	7.0	1.0	0.288929194626796	1.036	6.0	stim	s577
225.104	2.25	n/a	-1.0	n/a	columbia_card_task_fmri	n/a	n/a	-1.0	n/a	n/a	n/a	n/a	n/a	n/a	n/a	n/a	feedback	s577
227.354	0.068	n/a	-1.0	n/a	columbia_card_task_fmri	n/a	n/a	-1.0	n/a	n/a	n/a	n/a	n/a	n/a	n/a	n/a	ITI	s577
227.425	0.73	6.570338707398824	draw_card	0.0	columbia_card_task_fmri	16.0	0.875	89.0	-75.0	0.125	16.0	1.0	2.0	-2.909616344367045	0.73	n/a	stim	s577
228.159	0.461	5.812005374065491	draw_card	0.0	columbia_card_task_fmri	16.0	0.8666666666666667	89.0	-75.0	0.1333333333333333	16.0	2.0	2.0	-2.0726850995509025	0.461	n/a	stim	s577
228.624	0.364	4.945338707398825	draw_card	0.0	columbia_card_task_fmri	16.0	0.8571428571428572	89.0	-75.0	0.1428571428571428	16.0	3.0	2.0	-1.1651118437141932	0.364	n/a	stim	s577
228.993	0.403	3.945338707398824	draw_card	0.0	columbia_card_task_fmri	16.0	0.8461538461538461	89.0	-75.0	0.1538461538461538	16.0	4.0	2.0	-0.1773542149048665	0.403	n/a	stim	s577
229.399	0.438	2.778672040732158	draw_card	0.0	columbia_card_task_fmri	16.0	0.8333333333333334	89.0	-75.0	0.1666666666666666	16.0	5.0	2.0	0.9016011881755476	0.438	n/a	stim	s577
229.841	0.441	1.3998841619442772	draw_card	1.0	columbia_card_task_fmri	16.0	0.8181818181818181	89.0	-75.0	0.1818181818181818	16.0	6.0	2.0	2.084234375929654	0.441	6.0	stim	s577
230.287	2.25	n/a	-1.0	n/a	columbia_card_task_fmri	n/a	n/a	-1.0	n/a	n/a	n/a	n/a	n/a	n/a	n/a	n/a	feedback	s577
232.537	0.068	n/a	-1.0	n/a	columbia_card_task_fmri	n/a	n/a	-1.0	n/a	n/a	n/a	n/a	n/a	n/a	n/a	n/a	ITI	s577
232.609	0.451	6.820338707398824	draw_card	0.0	columbia_card_task_fmri	17.0	0.875	89.0	-80.0	0.125	16.0	1.0	2.0	-0.9291804643019574	0.451	n/a	stim	s577
233.063	0.42	6.012005374065492	draw_card	0.0	columbia_card_task_fmri	17.0	0.8666666666666667	89.0	-80.0	0.1333333333333333	16.0	2.0	2.0	-0.0368503664214188	0.42	n/a	stim	s577
233.487	0.509	5.088195850255969	draw_card	0.0	columbia_card_task_fmri	17.0	0.8571428571428572	89.0	-80.0	0.1428571428571428	16.0	3.0	2.0	0.9307848909057485	0.509	n/a	stim	s577
233.999	0.872	4.0222617843219	draw_card	0.0	columbia_card_task_fmri	17.0	0.8461538461538461	89.0	-80.0	0.1538461538461538	16.0	4.0	2.0	1.9838970892471155	0.872	n/a	stim	s577
234.874	0.876	2.77867204073216	end_round	0.0	columbia_card_task_fmri	17.0	0.8333333333333334	71.0	-80.0	0.1666666666666666	16.0	5.0	2.0	3.1342259878334886	0.876	4.0	stim	s577
235.756	2.25	n/a	-1.0	n/a	columbia_card_task_fmri	n/a	n/a	-1.0	n/a	n/a	n/a	n/a	n/a	n/a	n/a	n/a	feedback	s577
238.006	0.136	n/a	-1.0	n/a	columbia_card_task_fmri	n/a	n/a	-1.0	n/a	n/a	n/a	n/a	n/a	n/a	n/a	n/a	ITI	s577
249.157	1.73	1.1120053740654918	draw_card	0.0	columbia_card_task_fmri	13.0	0.8333333333333334	89.0	-70.0	0.1666666666666666	6.0	1.0	1.0	-2.0744596209844595	1.73	n/a	stim	s577
250.892	0.362	-1.6546612926011757	draw_card	0.0	columbia_card_task_fmri	13.0	0.8	89.0	-70.0	0.2	6.0	2.0	1.0	0.1890999069764802	0.362	n/a	stim	s577
251.258	0.361	-5.8046612926011765	draw_card	0.0	columbia_card_task_fmri	13.0	0.75	89.0	-70.0	0.25	6.0	3.0	1.0	2.9248193635756365	0.361	n/a	stim	s577
251.623	0.421	-12.72132795926784	draw_card	0.0	columbia_card_task_fmri	13.0	0.6666666666666667	89.0	-70.0	0.3333333333333333	6.0	4.0	1.0	6.107061265149575	0.421	n/a	stim	s577
252.047	0.499	-26.55466129260117	draw_card	1.0	columbia_card_task_fmri	13.0	0.5	89.0	-70.0	0.5	6.0	5.0	1.0	8.477725100532076	0.499	5.0	stim	s577
252.553	2.25	n/a	-1.0	n/a	columbia_card_task_fmri	n/a	n/a	-1.0	n/a	n/a	n/a	n/a	n/a	n/a	n/a	n/a	feedback	s577
254.803	0.0	n/a	-1.0	n/a	columbia_card_task_fmri	n/a	n/a	-1.0	n/a	n/a	n/a	n/a	n/a	n/a	n/a	n/a	ITI	s577
254.807	0.545	1.1120053740654918	draw_card	0.0	columbia_card_task_fmri	15.0	0.8333333333333334	89.0	-80.0	0.1666666666666666	6.0	1.0	1.0	2.389969505945458	0.545	n/a	stim	s577
255.355	0.35	-2.054661292601176	draw_card	1.0	columbia_card_task_fmri	15.0	0.8	89.0	-80.0	0.2	6.0	2.0	1.0	4.98191703050675	0.35	2.0	stim	s577
255.713	2.25	n/a	-1.0	n/a	columbia_card_task_fmri	n/a	n/a	-1.0	n/a	n/a	n/a	n/a	n/a	n/a	n/a	n/a	feedback	s577
257.963	0.136	n/a	-1.0	n/a	columbia_card_task_fmri	n/a	n/a	-1.0	n/a	n/a	n/a	n/a	n/a	n/a	n/a	n/a	ITI	s577
258.104	0.484	2.778672040732158	draw_card	0.0	columbia_card_task_fmri	16.0	0.8333333333333334	89.0	-75.0	0.1666666666666666	6.0	1.0	1.0	0.9016011881755476	0.484	n/a	stim	s577
258.593	0.415	-0.2546612926011753	draw_card	0.0	columbia_card_task_fmri	16.0	0.8	89.0	-75.0	0.2	6.0	2.0	1.0	3.384101293265161	0.415	n/a	stim	s577
259.012	0.662	-4.8046612926011765	draw_card	0.0	columbia_card_task_fmri	16.0	0.75	89.0	-75.0	0.25	6.0	3.0	1.0	6.384301866087249	0.662	n/a	stim	s577
259.678	0.853	-12.387994625934509	end_round	0.0	columbia_card_task_fmri	16.0	0.6666666666666667	71.0	-75.0	0.3333333333333333	6.0	4.0	1.0	9.87405317599996	0.853	3.0	stim	s577
260.54	2.25	n/a	-1.0	n/a	columbia_card_task_fmri	n/a	n/a	-1.0	n/a	n/a	n/a	n/a	n/a	n/a	n/a	n/a	feedback	s577
262.79	0.34	n/a	-1.0	n/a	columbia_card_task_fmri	n/a	n/a	-1.0	n/a	n/a	n/a	n/a	n/a	n/a	n/a	n/a	ITI	s577
263.134	0.733	3.945338707398824	draw_card	1.0	columbia_card_task_fmri	21.0	0.75	89.0	-55.0	0.25	8.0	1.0	2.0	-0.1014320289170171	0.733	1.0	stim	s577
263.874	2.25	n/a	-1.0	n/a	columbia_card_task_fmri	n/a	n/a	-1.0	n/a	n/a	n/a	n/a	n/a	n/a	n/a	n/a	feedback	s577
266.124	0.408	n/a	-1.0	n/a	columbia_card_task_fmri	n/a	n/a	-1.0	n/a	n/a	n/a	n/a	n/a	n/a	n/a	n/a	ITI	s577
266.535	0.471	5.195338707398824	draw_card	0.0	columbia_card_task_fmri	26.0	0.75	89.0	-65.0	0.25	8.0	1.0	2.0	6.384301866087249	0.471	n/a	stim	s577
267.01	0.459	1.9453387073988275	draw_card	1.0	columbia_card_task_fmri	26.0	0.7142857142857143	89.0	-65.0	0.2857142857142857	8.0	2.0	2.0	8.087766944027763	0.459	2.0	stim	s577
267.477	2.25	n/a	-1.0	n/a	columbia_card_task_fmri	n/a	n/a	-1.0	n/a	n/a	n/a	n/a	n/a	n/a	n/a	n/a	feedback	s577
269.727	0.136	n/a	-1.0	n/a	columbia_card_task_fmri	n/a	n/a	-1.0	n/a	n/a	n/a	n/a	n/a	n/a	n/a	n/a	ITI	s577
269.867	0.499	0.2786720407321579	draw_card	1.0	columbia_card_task_fmri	15.0	0.7777777777777778	89.0	-60.0	0.2222222222222222	9.0	1.0	2.0	-1.8267405984165848	0.499	1.0	stim	s577
270.375	2.25	n/a	-1.0	n/a	columbia_card_task_fmri	n/a	n/a	-1.0	n/a	n/a	n/a	n/a	n/a	n/a	n/a	n/a	feedback	s577
272.625	0.136	n/a	-1.0	n/a	columbia_card_task_fmri	n/a	n/a	-1.0	n/a	n/a	n/a	n/a	n/a	n/a	n/a	n/a	ITI	s577
272.765	0.559	4.645338707398825	draw_card	1.0	columbia_card_task_fmri	13.0	0.9	89.0	-90.0	0.1	10.0	1.0	1.0	-2.1066696079694616	0.559	1.0	stim	s577
273.333	2.25	n/a	-1.0	n/a	columbia_card_task_fmri	n/a	n/a	-1.0	n/a	n/a	n/a	n/a	n/a	n/a	n/a	n/a	feedback	s577
275.583	0.0	n/a	-1.0	n/a	columbia_card_task_fmri	n/a	n/a	-1.0	n/a	n/a	n/a	n/a	n/a	n/a	n/a	n/a	ITI	s577
275.587	0.636	5.945338707398824	draw_card	0.0	columbia_card_task_fmri	15.0	0.9	89.0	-95.0	0.1	10.0	1.0	1.0	-0.0105555724868793	0.636	n/a	stim	s577
276.226	0.676	4.7231164851766	draw_card	0.0	columbia_card_task_fmri	15.0	0.8888888888888888	89.0	-95.0	0.1111111111111111	10.0	2.0	1.0	1.556512245468646	0.676	n/a	stim	s577
276.907	0.389	3.195338707398824	draw_card	1.0	columbia_card_task_fmri	15.0	0.875	89.0	-95.0	0.125	10.0	3.0	1.0	3.36321164870008	0.389	3.0	stim	s577
277.302	2.25	n/a	-1.0	n/a	columbia_card_task_fmri	n/a	n/a	-1.0	n/a	n/a	n/a	n/a	n/a	n/a	n/a	n/a	feedback	s577
279.552	0.068	n/a	-1.0	n/a	columbia_card_task_fmri	n/a	n/a	-1.0	n/a	n/a	n/a	n/a	n/a	n/a	n/a	n/a	ITI	s577
279.623	0.427	1.745338707398825	draw_card	0.0	columbia_card_task_fmri	16.0	0.8	89.0	-65.0	0.2	10.0	1.0	2.0	-0.6094965586435279	0.427	n/a	stim	s577
280.055	0.399	-0.0546612926011742	draw_card	1.0	columbia_card_task_fmri	16.0	0.7777777777777778	89.0	-65.0	0.2222222222222222	10.0	2.0	2.0	0.6632146504529928	0.399	2.0	stim	s577
280.458	2.25	n/a	-1.0	n/a	columbia_card_task_fmri	n/a	n/a	-1.0	n/a	n/a	n/a	n/a	n/a	n/a	n/a	n/a	feedback	s577
282.708	0.0	n/a	-1.0	n/a	columbia_card_task_fmri	n/a	n/a	-1.0	n/a	n/a	n/a	n/a	n/a	n/a	n/a	n/a	ITI	s577
282.712	0.647	0.445338707398824	draw_card	0.0	columbia_card_task_fmri	7.0	0.9166666666666666	89.0	-95.0	0.0833333333333333	12.0	1.0	1.0	-4.809494406694995	0.647	n/a	stim	s577
283.363	0.544	-0.3273885653284494	draw_card	0.0	columbia_card_task_fmri	7.0	0.9090909090909092	89.0	-95.0	0.0909090909090909	12.0	2.0	1.0	-3.6804482044512703	0.544	n/a	stim	s577
283.912	0.505	-1.2546612926011762	draw_card	0.0	columbia_card_task_fmri	7.0	0.9	89.0	-95.0	0.1	12.0	3.0	1.0	-2.406071057854497	0.505	n/a	stim	s577
284.421	0.997	-2.38799462593451	end_round	0.0	columbia_card_task_fmri	7.0	0.8888888888888888	71.0	-95.0	0.1111111111111111	12.0	4.0	1.0	-0.953363240780334	0.997	3.0	stim	s577
285.424	2.25	n/a	-1.0	n/a	columbia_card_task_fmri	n/a	n/a	-1.0	n/a	n/a	n/a	n/a	n/a	n/a	n/a	n/a	feedback	s577
287.674	0.0	n/a	-1.0	n/a	columbia_card_task_fmri	n/a	n/a	-1.0	n/a	n/a	n/a	n/a	n/a	n/a	n/a	n/a	ITI	s577
287.678	0.535	1.1120053740654918	draw_card	0.0	columbia_card_task_fmri	14.0	0.8333333333333334	89.0	-75.0	0.1666666666666666	12.0	1.0	2.0	0.1574958318828123	0.535	n/a	stim	s577
288.218	0.403	-0.2364794744193594	draw_card	0.0	columbia_card_task_fmri	14.0	0.8181818181818181	89.0	-75.0	0.1818181818181818	12.0	2.0	2.0	1.314053790991743	0.403	n/a	stim	s577
288.625	0.379	-1.854661292601175	draw_card	0.0	columbia_card_task_fmri	14.0	0.8	89.0	-75.0	0.2	12.0	3.0	2.0	2.585266891693649	0.379	n/a	stim	s577
289.008	0.388	-3.832439070378951	draw_card	0.0	columbia_card_task_fmri	14.0	0.7777777777777778	89.0	-75.0	0.2222222222222222	12.0	4.0	2.0	3.9840931101358095	0.388	n/a	stim	s577
289.4	0.445	-6.3046612926011765	draw_card	1.0	columbia_card_task_fmri	14.0	0.75	89.0	-75.0	0.25	12.0	5.0	2.0	5.519353541156654	0.445	5.0	stim	s577
289.853	2.25	n/a	-1.0	n/a	columbia_card_task_fmri	n/a	n/a	-1.0	n/a	n/a	n/a	n/a	n/a	n/a	n/a	n/a	feedback	s577
292.103	0.136	n/a	-1.0	n/a	columbia_card_task_fmri	n/a	n/a	-1.0	n/a	n/a	n/a	n/a	n/a	n/a	n/a	n/a	ITI	s577
292.243	0.359	2.778672040732158	draw_card	1.0	columbia_card_task_fmri	15.0	0.8333333333333334	89.0	-70.0	0.1666666666666666	12.0	1.0	2.0	-1.330538799643552	0.359	1.0	stim	s577
292.611	2.25	n/a	-1.0	n/a	columbia_card_task_fmri	n/a	n/a	-1.0	n/a	n/a	n/a	n/a	n/a	n/a	n/a	n/a	feedback	s577
294.861	0.136	n/a	-1.0	n/a	columbia_card_task_fmri	n/a	n/a	-1.0	n/a	n/a	n/a	n/a	n/a	n/a	n/a	n/a	ITI	s577
295.001	0.439	0.7453387073988247	draw_card	0.0	columbia_card_task_fmri	16.0	0.8	89.0	-70.0	0.2	15.0	1.0	3.0	1.387116704427484	0.439	n/a	stim	s577
295.445	0.368	-0.4832327211726048	draw_card	0.0	columbia_card_task_fmri	16.0	0.7857142857142857	89.0	-70.0	0.2142857142857142	15.0	2.0	3.0	2.2737634117394734	0.368	n/a	stim	s577
295.816	0.349	-1.9008151387550227	draw_card	1.0	columbia_card_task_fmri	16.0	0.7692307692307692	89.0	-70.0	0.2307692307692307	15.0	3.0	3.0	3.218292802781036	0.349	3.0	stim	s577
296.175	2.25	n/a	-1.0	n/a	columbia_card_task_fmri	n/a	n/a	-1.0	n/a	n/a	n/a	n/a	n/a	n/a	n/a	n/a	feedback	s577
298.425	0.476	n/a	-1.0	n/a	columbia_card_task_fmri	n/a	n/a	-1.0	n/a	n/a	n/a	n/a	n/a	n/a	n/a	n/a	ITI	s577
298.904	0.41	1.132838707398824	draw_card	0.0	columbia_card_task_fmri	14.0	0.8125	89.0	-65.0	0.1875	16.0	1.0	3.0	-2.171862650768549	0.41	n/a	stim	s577
299.319	0.362	0.145338707398825	draw_card	0.0	columbia_card_task_fmri	14.0	0.8	89.0	-65.0	0.2	16.0	2.0	3.0	-1.408022155652997	0.362	n/a	stim	s577
299.685	0.373	-0.9832327211726032	draw_card	1.0	columbia_card_task_fmri	14.0	0.7857142857142857	89.0	-65.0	0.2142857142857142	16.0	3.0	3.0	-0.5937784883173336	0.373	3.0	stim	s577
300.067	2.25	n/a	-1.0	n/a	columbia_card_task_fmri	n/a	n/a	-1.0	n/a	n/a	n/a	n/a	n/a	n/a	n/a	n/a	feedback	s577
302.317	0.204	n/a	-1.0	n/a	columbia_card_task_fmri	n/a	n/a	-1.0	n/a	n/a	n/a	n/a	n/a	n/a	n/a	n/a	ITI	s577
302.525	0.628	0.882838707398824	draw_card	0.0	columbia_card_task_fmri	16.0	0.8125	89.0	-75.0	0.1875	16.0	1.0	3.0	2.503814803966229	0.628	n/a	stim	s577
303.158	0.421	-0.2546612926011753	draw_card	0.0	columbia_card_task_fmri	16.0	0.8	89.0	-75.0	0.2	16.0	2.0	3.0	3.384101293265161	0.421	n/a	stim	s577
303.584	0.358	-1.5546612926011742	draw_card	1.0	columbia_card_task_fmri	16.0	0.7857142857142857	89.0	-75.0	0.2142857142857142	16.0	3.0	3.0	4.3224530697955	0.358	3.0	stim	s577
303.948	2.25	n/a	-1.0	n/a	columbia_card_task_fmri	n/a	n/a	-1.0	n/a	n/a	n/a	n/a	n/a	n/a	n/a	n/a	feedback	s577
306.198	0.068	n/a	-1.0	n/a	columbia_card_task_fmri	n/a	n/a	-1.0	n/a	n/a	n/a	n/a	n/a	n/a	n/a	n/a	ITI	s577
306.271	0.438	5.145338707398825	draw_card	0.0	columbia_card_task_fmri	16.0	0.8666666666666667	89.0	-80.0	0.1333333333333333	15.0	1.0	2.0	-0.3761888193449252	0.438	n/a	stim	s577
306.714	0.443	4.231052993113112	draw_card	0.0	columbia_card_task_fmri	16.0	0.8571428571428572	89.0	-80.0	0.1428571428571428	15.0	2.0	2.0	0.5814370273754932	0.443	n/a	stim	s577
307.162	0.58	3.176107938168054	draw_card	0.0	columbia_card_task_fmri	16.0	0.8461538461538461	89.0	-80.0	0.1538461538461538	15.0	3.0	2.0	1.623657744658523	0.58	n/a	stim	s577
307.747	1.123	1.9453387073988255	draw_card	0.0	columbia_card_task_fmri	16.0	0.8333333333333334	89.0	-80.0	0.1666666666666666	15.0	4.0	2.0	2.7620920329364367	1.123	n/a	stim	s577
308.873	0.792	0.4907932528533671	draw_card	0.0	columbia_card_task_fmri	16.0	0.8181818181818181	89.0	-80.0	0.1818181818181818	15.0	5.0	2.0	4.009905686447148	0.792	n/a	stim	s577
309.67	0.657	-1.254661292601175	end_round	0.0	columbia_card_task_fmri	16.0	0.8	71.0	-80.0	0.2	15.0	6.0	2.0	5.381399349934966	0.657	5.0	stim	s577
310.338	2.25	n/a	-1.0	n/a	columbia_card_task_fmri	n/a	n/a	-1.0	n/a	n/a	n/a	n/a	n/a	n/a	n/a	n/a	feedback	s577
312.588	0.068	n/a	-1.0	n/a	columbia_card_task_fmri	n/a	n/a	-1.0	n/a	n/a	n/a	n/a	n/a	n/a	n/a	n/a	ITI	s577
312.663	0.763	6.012005374065492	draw_card	0.0	columbia_card_task_fmri	17.0	0.8666666666666667	89.0	-80.0	0.1333333333333333	15.0	1.0	2.0	-0.0368503664214188	0.763	n/a	stim	s577
313.431	0.44	5.088195850255969	draw_card	0.0	columbia_card_task_fmri	17.0	0.8571428571428572	89.0	-80.0	0.1428571428571428	15.0	2.0	2.0	0.9307848909057485	0.44	n/a	stim	s577
313.876	0.491	4.0222617843219	draw_card	0.0	columbia_card_task_fmri	17.0	0.8461538461538461	89.0	-80.0	0.1538461538461538	15.0	3.0	2.0	1.9838970892471155	0.491	n/a	stim	s577
314.372	0.536	2.77867204073216	draw_card	1.0	columbia_card_task_fmri	17.0	0.8333333333333334	89.0	-80.0	0.1666666666666666	15.0	4.0	2.0	3.1342259878334886	0.536	4.0	stim	s577
314.916	2.25	n/a	-1.0	n/a	columbia_card_task_fmri	n/a	n/a	-1.0	n/a	n/a	n/a	n/a	n/a	n/a	n/a	n/a	feedback	s577
317.166	0.34	n/a	-1.0	n/a	columbia_card_task_fmri	n/a	n/a	-1.0	n/a	n/a	n/a	n/a	n/a	n/a	n/a	n/a	ITI	s577
317.51	0.381	1.945338707398824	draw_card	1.0	columbia_card_task_fmri	1.0	0.9375	89.0	-15.0	0.0625	16.0	1.0	1.0	-28.73375361406356	0.381	1.0	stim	s577
317.898	2.25	n/a	-1.0	n/a	columbia_card_task_fmri	n/a	n/a	-1.0	n/a	n/a	n/a	n/a	n/a	n/a	n/a	n/a	feedback	s577
320.148	0.476	n/a	-1.0	n/a	columbia_card_task_fmri	n/a	n/a	-1.0	n/a	n/a	n/a	n/a	n/a	n/a	n/a	n/a	ITI	s577
320.628	0.477	5.070338707398824	draw_card	0.0	columbia_card_task_fmri	10.0	0.9375	89.0	-100.0	0.0625	16.0	1.0	1.0	-6.370115671649792	0.477	n/a	stim	s577
321.11	0.383	4.612005374065491	draw_card	0.0	columbia_card_task_fmri	10.0	0.9333333333333332	89.0	-100.0	0.0666666666666666	16.0	2.0	1.0	-5.560150327450462	0.383	n/a	stim	s577
321.498	0.4	4.088195850255968	draw_card	0.0	columbia_card_task_fmri	10.0	0.9285714285714286	89.0	-100.0	0.0714285714285714	16.0	3.0	1.0	-4.671799521172922	0.4	n/a	stim	s577
321.902	0.414	3.483800245860363	draw_card	0.0	columbia_card_task_fmri	10.0	0.9230769230769232	89.0	-100.0	0.0769230769230769	16.0	4.0	1.0	-3.6917326415860794	0.414	n/a	stim	s577
322.322	0.452	2.778672040732158	draw_card	1.0	columbia_card_task_fmri	10.0	0.9166666666666666	89.0	-100.0	0.0833333333333333	16.0	5.0	1.0	-2.603276455762021	0.452	5.0	stim	s577
322.78	2.25	n/a	-1.0	n/a	columbia_card_task_fmri	n/a	n/a	-1.0	n/a	n/a	n/a	n/a	n/a	n/a	n/a	n/a	feedback	s577
325.03	0.272	n/a	-1.0	n/a	columbia_card_task_fmri	n/a	n/a	-1.0	n/a	n/a	n/a	n/a	n/a	n/a	n/a	n/a	ITI	s577
325.305	0.455	5.695338707398824	draw_card	0.0	columbia_card_task_fmri	15.0	0.875	89.0	-75.0	0.125	16.0	1.0	2.0	-3.2396388817961324	0.455	n/a	stim	s577
325.765	0.409	4.945338707398824	draw_card	0.0	columbia_card_task_fmri	15.0	0.8666666666666667	89.0	-75.0	0.1333333333333333	16.0	2.0	2.0	-2.411942121894402	0.409	n/a	stim	s577
326.179	0.5	4.088195850255968	draw_card	0.0	columbia_card_task_fmri	15.0	0.8571428571428572	89.0	-75.0	0.1428571428571428	16.0	3.0	2.0	-1.5143805769696037	0.5	n/a	stim	s577
326.683	0.454	3.0991848612449773	draw_card	0.0	columbia_card_task_fmri	15.0	0.8461538461538461	89.0	-75.0	0.1538461538461538	16.0	4.0	2.0	-0.5375167899497413	0.454	n/a	stim	s577
327.141	0.731	1.945338707398824	end_round	0.0	columbia_card_task_fmri	15.0	0.8333333333333334	71.0	-75.0	0.1666666666666666	16.0	5.0	2.0	0.5295415795268212	0.731	4.0	stim	s577
327.88	2.25	n/a	-1.0	n/a	columbia_card_task_fmri	n/a	n/a	-1.0	n/a	n/a	n/a	n/a	n/a	n/a	n/a	n/a	feedback	s577
330.13	0.884	n/a	-1.0	n/a	columbia_card_task_fmri	n/a	n/a	-1.0	n/a	n/a	n/a	n/a	n/a	n/a	n/a	n/a	ITI	s577
331.018	0.61	5.945338707398824	draw_card	0.0	columbia_card_task_fmri	16.0	0.875	89.0	-80.0	0.125	16.0	1.0	2.0	-1.2592866748786982	0.61	n/a	stim	s577
331.632	0.403	5.145338707398825	draw_card	0.0	columbia_card_task_fmri	16.0	0.8666666666666667	89.0	-80.0	0.1333333333333333	16.0	2.0	2.0	-0.3761888193449252	0.403	n/a	stim	s577
332.039	0.407	4.231052993113112	draw_card	0.0	columbia_card_task_fmri	16.0	0.8571428571428572	89.0	-80.0	0.1428571428571428	16.0	3.0	2.0	0.5814370273754932	0.407	n/a	stim	s577
332.451	0.372	3.176107938168054	draw_card	0.0	columbia_card_task_fmri	16.0	0.8461538461538461	89.0	-80.0	0.1538461538461538	16.0	4.0	2.0	1.623657744658523	0.372	n/a	stim	s577
332.827	0.557	1.9453387073988255	draw_card	1.0	columbia_card_task_fmri	16.0	0.8333333333333334	89.0	-80.0	0.1666666666666666	16.0	5.0	2.0	2.7620920329364367	0.557	5.0	stim	s577
333.391	2.25	n/a	-1.0	n/a	columbia_card_task_fmri	n/a	n/a	-1.0	n/a	n/a	n/a	n/a	n/a	n/a	n/a	n/a	feedback	s577
335.641	0.136	n/a	-1.0	n/a	columbia_card_task_fmri	n/a	n/a	-1.0	n/a	n/a	n/a	n/a	n/a	n/a	n/a	n/a	ITI	s577
335.781	0.574	3.132838707398824	draw_card	0.0	columbia_card_task_fmri	4.0	0.6875	89.0	-5.0	0.3125	16.0	1.0	5.0	-28.464944585045597	0.574	n/a	stim	s577
336.359	0.39	2.9453387073988244	draw_card	0.0	columbia_card_task_fmri	4.0	0.6666666666666667	89.0	-5.0	0.3333333333333333	16.0	2.0	5.0	-28.400474373926524	0.39	n/a	stim	s577
336.754	0.497	2.731052993113109	draw_card	1.0	columbia_card_task_fmri	4.0	0.6428571428571428	89.0	-5.0	0.3571428571428571	16.0	3.0	5.0	-28.33695846399128	0.497	3.0	stim	s577
337.258	2.25	n/a	-1.0	n/a	columbia_card_task_fmri	n/a	n/a	-1.0	n/a	n/a	n/a	n/a	n/a	n/a	n/a	n/a	feedback	s577
339.508	0.136	n/a	-1.0	n/a	columbia_card_task_fmri	n/a	n/a	-1.0	n/a	n/a	n/a	n/a	n/a	n/a	n/a	n/a	ITI	s577
339.648	1.016	0.2786720407321597	draw_card	0.0	columbia_card_task_fmri	14.0	0.8333333333333334	89.0	-80.0	0.1666666666666666	6.0	1.0	1.0	2.0178587704771687	1.016	n/a	stim	s577
340.669	0.44	-2.854661292601175	draw_card	0.0	columbia_card_task_fmri	14.0	0.8	89.0	-80.0	0.2	6.0	2.0	1.0	4.5824457037302295	0.44	n/a	stim	s577
341.114	0.41	-7.554661292601176	draw_card	1.0	columbia_card_task_fmri	14.0	0.75	89.0	-80.0	0.25	6.0	3.0	1.0	7.681810139355946	0.41	3.0	stim	s577
341.532	2.25	n/a	-1.0	n/a	columbia_card_task_fmri	n/a	n/a	-1.0	n/a	n/a	n/a	n/a	n/a	n/a	n/a	n/a	feedback	s577
343.782	0.068	n/a	-1.0	n/a	columbia_card_task_fmri	n/a	n/a	-1.0	n/a	n/a	n/a	n/a	n/a	n/a	n/a	n/a	ITI	s577
343.855	0.651	1.945338707398824	draw_card	0.0	columbia_card_task_fmri	15.0	0.8333333333333334	89.0	-75.0	0.1666666666666666	6.0	1.0	1.0	0.5295415795268212	0.651	n/a	stim	s577
344.511	0.448	-1.054661292601176	draw_card	0.0	columbia_card_task_fmri	15.0	0.8	89.0	-75.0	0.2	6.0	2.0	1.0	2.9846776310774104	0.448	n/a	stim	s577
344.963	0.412	-5.5546612926011765	draw_card	1.0	columbia_card_task_fmri	15.0	0.75	89.0	-75.0	0.25	6.0	3.0	1.0	5.951821731008515	0.412	3.0	stim	s577
345.383	2.25	n/a	-1.0	n/a	columbia_card_task_fmri	n/a	n/a	-1.0	n/a	n/a	n/a	n/a	n/a	n/a	n/a	n/a	feedback	s577
347.633	0.068	n/a	-1.0	n/a	columbia_card_task_fmri	n/a	n/a	-1.0	n/a	n/a	n/a	n/a	n/a	n/a	n/a	n/a	ITI	s577
347.706	0.443	3.612005374065492	draw_card	0.0	columbia_card_task_fmri	16.0	0.8333333333333334	89.0	-70.0	0.1666666666666666	6.0	1.0	1.0	-0.9585534269461604	0.443	n/a	stim	s577
348.154	0.384	0.7453387073988247	draw_card	1.0	columbia_card_task_fmri	16.0	0.8	89.0	-70.0	0.2	6.0	2.0	1.0	1.387116704427484	0.384	2.0	stim	s577
348.547	2.25	n/a	-1.0	n/a	columbia_card_task_fmri	n/a	n/a	-1.0	n/a	n/a	n/a	n/a	n/a	n/a	n/a	n/a	feedback	s577
350.797	0.612	n/a	-1.0	n/a	columbia_card_task_fmri	n/a	n/a	-1.0	n/a	n/a	n/a	n/a	n/a	n/a	n/a	n/a	ITI	s577
351.414	0.724	4.195338707398824	end_round	0.0	columbia_card_task_fmri	23.0	0.75	71.0	-60.0	0.25	8.0	1.0	2.0	2.9248193635756365	0.724	0.0	stim	s577
352.144	2.25	n/a	-1.0	n/a	columbia_card_task_fmri	n/a	n/a	-1.0	n/a	n/a	n/a	n/a	n/a	n/a	n/a	n/a	feedback	s577
354.394	0.476	n/a	-1.0	n/a	columbia_card_task_fmri	n/a	n/a	-1.0	n/a	n/a	n/a	n/a	n/a	n/a	n/a	n/a	ITI	s577
354.876	0.681	4.695338707398824	draw_card	1.0	columbia_card_task_fmri	27.0	0.75	89.0	-70.0	0.25	8.0	1.0	2.0	8.979412884547934	0.681	1.0	stim	s577
355.565	2.25	n/a	-1.0	n/a	columbia_card_task_fmri	n/a	n/a	-1.0	n/a	n/a	n/a	n/a	n/a	n/a	n/a	n/a	feedback	s577
357.815	0.0	n/a	-1.0	n/a	columbia_card_task_fmri	n/a	n/a	-1.0	n/a	n/a	n/a	n/a	n/a	n/a	n/a	n/a	ITI	s577
357.819	0.757	-0.0546612926011742	draw_card	0.0	columbia_card_task_fmri	16.0	0.7777777777777778	89.0	-65.0	0.2222222222222222	9.0	1.0	2.0	0.6632146504529928	0.757	n/a	stim	s577
358.58	0.59	-2.304661292601176	draw_card	0.0	columbia_card_task_fmri	16.0	0.75	89.0	-65.0	0.25	9.0	2.0	2.0	2.060090989759054	0.59	n/a	stim	s577
359.175	1.113	-5.197518435458317	draw_card	0.0	columbia_card_task_fmri	16.0	0.7142857142857143	89.0	-65.0	0.2857142857142857	9.0	3.0	2.0	3.575899086067821	1.113	n/a	stim	s577
360.292	0.701	-9.054661292601171	end_round	0.0	columbia_card_task_fmri	16.0	0.6666666666666667	71.0	-65.0	0.3333333333333333	9.0	4.0	2.0	5.16544403990855	0.701	3.0	stim	s577
361.001	2.25	n/a	-1.0	n/a	columbia_card_task_fmri	n/a	n/a	-1.0	n/a	n/a	n/a	n/a	n/a	n/a	n/a	n/a	feedback	s577
363.251	0.068	n/a	-1.0	n/a	columbia_card_task_fmri	n/a	n/a	-1.0	n/a	n/a	n/a	n/a	n/a	n/a	n/a	n/a	ITI	s577
363.323	0.96	5.145338707398825	draw_card	0.0	columbia_card_task_fmri	13.0	0.9	89.0	-85.0	0.1	10.0	1.0	1.0	-3.6035550921809367	0.96	n/a	stim	s577
364.289	0.417	4.056449818509934	draw_card	0.0	columbia_card_task_fmri	13.0	0.8888888888888888	89.0	-85.0	0.1111111111111111	10.0	2.0	1.0	-2.2080395663128023	0.417	n/a	stim	s577
364.71	0.474	2.695338707398824	draw_card	0.0	columbia_card_task_fmri	13.0	0.875	89.0	-85.0	0.125	10.0	3.0	1.0	-0.5990617835990193	0.474	n/a	stim	s577
365.189	0.733	0.9453387073988258	draw_card	1.0	columbia_card_task_fmri	13.0	0.8571428571428572	89.0	-85.0	0.1428571428571428	10.0	4.0	1.0	1.280144546972366	0.733	4.0	stim	s577
365.929	2.25	n/a	-1.0	n/a	columbia_card_task_fmri	n/a	n/a	-1.0	n/a	n/a	n/a	n/a	n/a	n/a	n/a	n/a	feedback	s577
368.179	0.204	n/a	-1.0	n/a	columbia_card_task_fmri	n/a	n/a	-1.0	n/a	n/a	n/a	n/a	n/a	n/a	n/a	n/a	ITI	s577
368.389	1.015	0.145338707398825	draw_card	0.0	columbia_card_task_fmri	14.0	0.8	89.0	-65.0	0.2	10.0	1.0	2.0	-1.408022155652997	1.015	n/a	stim	s577
369.408	0.452	-1.6102168481567296	draw_card	0.0	columbia_card_task_fmri	14.0	0.7777777777777778	89.0	-65.0	0.2222222222222222	10.0	2.0	2.0	-0.1668458947699918	0.452	n/a	stim	s577
369.865	0.414	-3.804661292601176	draw_card	0.0	columbia_card_task_fmri	14.0	0.75	89.0	-65.0	0.25	10.0	3.0	2.0	1.195428133375536	0.414	n/a	stim	s577
370.284	0.624	-6.626089864029746	draw_card	0.0	columbia_card_task_fmri	14.0	0.7142857142857143	89.0	-65.0	0.2857142857142857	10.0	4.0	2.0	2.6736974549736843	0.624	n/a	stim	s577
370.912	1.305	-10.387994625934509	draw_card	1.0	columbia_card_task_fmri	14.0	0.6666666666666667	89.0	-65.0	0.3333333333333333	10.0	5.0	2.0	4.223887039595326	1.305	5.0	stim	s577
372.224	2.25	n/a	-1.0	n/a	columbia_card_task_fmri	n/a	n/a	-1.0	n/a	n/a	n/a	n/a	n/a	n/a	n/a	n/a	feedback	s577
374.474	0.272	n/a	-1.0	n/a	columbia_card_task_fmri	n/a	n/a	-1.0	n/a	n/a	n/a	n/a	n/a	n/a	n/a	n/a	ITI	s577
374.751	0.464	1.5453387073988254	draw_card	1.0	columbia_card_task_fmri	17.0	0.8	89.0	-70.0	0.2	10.0	1.0	2.0	1.7864859583792452	0.464	1.0	stim	s577
375.225	2.25	n/a	-1.0	n/a	columbia_card_task_fmri	n/a	n/a	-1.0	n/a	n/a	n/a	n/a	n/a	n/a	n/a	n/a	feedback	s577
377.475	0.068	n/a	-1.0	n/a	columbia_card_task_fmri	n/a	n/a	-1.0	n/a	n/a	n/a	n/a	n/a	n/a	n/a	n/a	ITI	s577
377.549	0.524	0.2786720407321579	draw_card	0.0	columbia_card_task_fmri	13.0	0.8333333333333334	89.0	-75.0	0.1666666666666666	12.0	1.0	2.0	-0.2145355838515996	0.524	n/a	stim	s577
378.078	0.393	-1.0546612926011778	draw_card	0.0	columbia_card_task_fmri	13.0	0.8181818181818181	89.0	-75.0	0.1818181818181818	12.0	2.0	2.0	0.9289840503236632	0.393	n/a	stim	s577
378.476	0.371	-2.654661292601176	draw_card	1.0	columbia_card_task_fmri	13.0	0.8	89.0	-75.0	0.2	12.0	3.0	2.0	2.185869514344752	0.371	3.0	stim	s577
378.856	2.25	n/a	-1.0	n/a	columbia_card_task_fmri	n/a	n/a	-1.0	n/a	n/a	n/a	n/a	n/a	n/a	n/a	n/a	feedback	s577
381.106	0.272	n/a	-1.0	n/a	columbia_card_task_fmri	n/a	n/a	-1.0	n/a	n/a	n/a	n/a	n/a	n/a	n/a	n/a	ITI	s577
381.383	0.862	1.9453387073988255	draw_card	0.0	columbia_card_task_fmri	14.0	0.8333333333333334	89.0	-70.0	0.1666666666666666	12.0	1.0	2.0	-1.70250772834326	0.862	n/a	stim	s577
382.251	0.371	0.6726114346715488	draw_card	0.0	columbia_card_task_fmri	14.0	0.8181818181818181	89.0	-70.0	0.1818181818181818	12.0	2.0	2.0	-0.6111465218674041	0.371	n/a	stim	s577
382.627	0.453	-0.854661292601175	draw_card	0.0	columbia_card_task_fmri	14.0	0.8	89.0	-70.0	0.2	12.0	3.0	2.0	0.5884231390596355	0.453	n/a	stim	s577
383.086	0.411	-2.721327959267842	draw_card	0.0	columbia_card_task_fmri	14.0	0.7777777777777778	89.0	-70.0	0.2222222222222222	12.0	4.0	2.0	1.9084318496773776	0.411	n/a	stim	s577
383.502	0.496	-5.0546612926011765	draw_card	0.0	columbia_card_task_fmri	14.0	0.75	89.0	-70.0	0.25	12.0	5.0	2.0	3.357206661366739	0.496	n/a	stim	s577
384.002	0.726	-8.054661292601176	draw_card	0.0	columbia_card_task_fmri	14.0	0.7142857142857143	89.0	-70.0	0.2857142857142857	12.0	6.0	2.0	4.929317927144822	0.726	n/a	stim	s577
384.732	0.87	-12.054661292601176	end_round	0.0	columbia_card_task_fmri	14.0	0.6666666666666667	71.0	-70.0	0.3333333333333333	12.0	7.0	2.0	6.57789112113894	0.87	6.0	stim	s577
385.612	2.25	n/a	-1.0	n/a	columbia_card_task_fmri	n/a	n/a	-1.0	n/a	n/a	n/a	n/a	n/a	n/a	n/a	n/a	feedback	s577
387.862	0.748	n/a	-1.0	n/a	columbia_card_task_fmri	n/a	n/a	-1.0	n/a	n/a	n/a	n/a	n/a	n/a	n/a	n/a	ITI	s577
388.615	0.836	1.9453387073988255	draw_card	0.0	columbia_card_task_fmri	16.0	0.8333333333333334	89.0	-80.0	0.1666666666666666	12.0	1.0	2.0	2.7620920329364367	0.836	n/a	stim	s577
389.456	0.381	0.4907932528533671	draw_card	0.0	columbia_card_task_fmri	16.0	0.8181818181818181	89.0	-80.0	0.1818181818181818	12.0	2.0	2.0	4.009905686447148	0.381	n/a	stim	s577
389.843	0.395	-1.254661292601175	draw_card	1.0	columbia_card_task_fmri	16.0	0.8	89.0	-80.0	0.2	12.0	3.0	2.0	5.381399349934966	0.395	3.0	stim	s577
390.25	2.25	n/a	-1.0	n/a	columbia_card_task_fmri	n/a	n/a	-1.0	n/a	n/a	n/a	n/a	n/a	n/a	n/a	n/a	feedback	s577
392.5	0.068	n/a	-1.0	n/a	columbia_card_task_fmri	n/a	n/a	-1.0	n/a	n/a	n/a	n/a	n/a	n/a	n/a	n/a	ITI	s577
392.574	0.534	1.745338707398825	draw_card	0.0	columbia_card_task_fmri	16.0	0.8	89.0	-65.0	0.2	15.0	1.0	3.0	-0.6094965586435279	0.534	n/a	stim	s577
393.113	0.3	0.5881958502559681	draw_card	0.0	columbia_card_task_fmri	16.0	0.7857142857142857	89.0	-65.0	0.2142857142857142	15.0	2.0	3.0	0.2254358214617013	0.3	n/a	stim	s577
393.42	0.306	-0.7469689849088694	draw_card	0.0	columbia_card_task_fmri	16.0	0.7692307692307692	89.0	-65.0	0.2307692307692307	15.0	3.0	3.0	1.114883707988383	0.306	n/a	stim	s577
393.731	0.454	-2.304661292601176	draw_card	0.0	columbia_card_task_fmri	16.0	0.75	89.0	-65.0	0.25	15.0	4.0	3.0	2.060090989759054	0.454	n/a	stim	s577
394.191	0.366	-4.145570383510266	draw_card	0.0	columbia_card_task_fmri	16.0	0.7272727272727273	89.0	-65.0	0.2727272727272727	15.0	5.0	3.0	3.0588730914425497	0.366	n/a	stim	s577
394.561	0.92	-6.354661292601177	draw_card	0.0	columbia_card_task_fmri	16.0	0.7	89.0	-65.0	0.3	15.0	6.0	3.0	4.101959808078114	0.92	n/a	stim	s577
395.486	0.761	-9.054661292601171	end_round	0.0	columbia_card_task_fmri	16.0	0.6666666666666667	71.0	-65.0	0.3333333333333333	15.0	7.0	3.0	5.16544403990855	0.761	6.0	stim	s577
396.254	2.25	n/a	-1.0	n/a	columbia_card_task_fmri	n/a	n/a	-1.0	n/a	n/a	n/a	n/a	n/a	n/a	n/a	n/a	feedback	s577
398.504	0.0	n/a	-1.0	n/a	columbia_card_task_fmri	n/a	n/a	-1.0	n/a	n/a	n/a	n/a	n/a	n/a	n/a	n/a	ITI	s577
398.509	0.624	0.0703387073988239	draw_card	0.0	columbia_card_task_fmri	15.0	0.8125	89.0	-75.0	0.1875	16.0	1.0	3.0	2.114093007571149	0.624	n/a	stim	s577
399.138	0.363	-1.054661292601176	draw_card	1.0	columbia_card_task_fmri	15.0	0.8	89.0	-75.0	0.2	16.0	2.0	3.0	2.9846776310774104	0.363	2.0	stim	s577
399.51	2.25	n/a	-1.0	n/a	columbia_card_task_fmri	n/a	n/a	-1.0	n/a	n/a	n/a	n/a	n/a	n/a	n/a	n/a	feedback	s577
401.76	0.204	n/a	-1.0	n/a	columbia_card_task_fmri	n/a	n/a	-1.0	n/a	n/a	n/a	n/a	n/a	n/a	n/a	n/a	ITI	s577
401.969	0.733	0.632838707398824	draw_card	0.0	columbia_card_task_fmri	14.0	0.6875	89.0	-35.0	0.3125	16.0	1.0	5.0	-10.272577615562923	0.733	n/a	stim	s577
402.708	0.339	-0.3879946259345082	draw_card	0.0	columbia_card_task_fmri	14.0	0.6666666666666667	89.0	-35.0	0.3333333333333333	16.0	2.0	5.0	-9.887251232399247	0.339	n/a	stim	s577
403.052	0.434	-1.554661292601176	draw_card	0.0	columbia_card_task_fmri	14.0	0.6428571428571428	89.0	-35.0	0.3571428571428571	16.0	3.0	5.0	-9.508677520238102	0.434	n/a	stim	s577
403.493	0.429	-2.900815138755021	draw_card	1.0	columbia_card_task_fmri	14.0	0.6153846153846154	89.0	-35.0	0.3846153846153846	16.0	4.0	5.0	-9.149893656716095	0.429	4.0	stim	s577
403.93	2.25	n/a	-1.0	n/a	columbia_card_task_fmri	n/a	n/a	-1.0	n/a	n/a	n/a	n/a	n/a	n/a	n/a	n/a	feedback	s577
406.18	0.068	n/a	-1.0	n/a	columbia_card_task_fmri	n/a	n/a	-1.0	n/a	n/a	n/a	n/a	n/a	n/a	n/a	n/a	ITI	s577
406.254	0.5	5.812005374065491	draw_card	0.0	columbia_card_task_fmri	16.0	0.8666666666666667	89.0	-75.0	0.1333333333333333	15.0	1.0	2.0	-2.0726850995509025	0.5	n/a	stim	s577
406.761	0.377	4.945338707398825	draw_card	0.0	columbia_card_task_fmri	16.0	0.8571428571428572	89.0	-75.0	0.1428571428571428	15.0	2.0	2.0	-1.1651118437141932	0.377	n/a	stim	s577
407.143	0.418	3.945338707398824	draw_card	0.0	columbia_card_task_fmri	16.0	0.8461538461538461	89.0	-75.0	0.1538461538461538	15.0	3.0	2.0	-0.1773542149048665	0.418	n/a	stim	s577
407.567	0.419	2.778672040732158	draw_card	0.0	columbia_card_task_fmri	16.0	0.8333333333333334	89.0	-75.0	0.1666666666666666	15.0	4.0	2.0	0.9016011881755476	0.419	n/a	stim	s577
407.991	1.002	1.3998841619442772	end_round	0.0	columbia_card_task_fmri	16.0	0.8181818181818181	71.0	-75.0	0.1818181818181818	15.0	5.0	2.0	2.084234375929654	1.002	4.0	stim	s577
409.002	2.25	n/a	-1.0	n/a	columbia_card_task_fmri	n/a	n/a	-1.0	n/a	n/a	n/a	n/a	n/a	n/a	n/a	n/a	feedback	s577
411.252	0.068	n/a	-1.0	n/a	columbia_card_task_fmri	n/a	n/a	-1.0	n/a	n/a	n/a	n/a	n/a	n/a	n/a	n/a	ITI	s577
411.327	0.58	6.478672040732157	draw_card	0.0	columbia_card_task_fmri	16.0	0.8666666666666667	89.0	-70.0	0.1333333333333333	15.0	1.0	2.0	-3.768813131132834	0.58	n/a	stim	s577
411.912	0.383	5.659624421684539	draw_card	0.0	columbia_card_task_fmri	16.0	0.8571428571428572	89.0	-70.0	0.1428571428571428	15.0	2.0	2.0	-2.9113028622723647	0.383	n/a	stim	s577
412.299	0.407	4.714569476629592	draw_card	0.0	columbia_card_task_fmri	16.0	0.8461538461538461	89.0	-70.0	0.1538461538461538	15.0	3.0	2.0	-1.978018991701262	0.407	n/a	stim	s577
412.712	0.413	3.612005374065492	draw_card	0.0	columbia_card_task_fmri	16.0	0.8333333333333334	89.0	-70.0	0.1666666666666666	15.0	4.0	2.0	-0.9585534269461604	0.413	n/a	stim	s577
413.13	0.709	2.308975071035185	end_round	0.0	columbia_card_task_fmri	16.0	0.8181818181818181	71.0	-70.0	0.1818181818181818	15.0	5.0	2.0	0.158888054369342	0.709	4.0	stim	s577
413.845	2.25	n/a	-1.0	n/a	columbia_card_task_fmri	n/a	n/a	-1.0	n/a	n/a	n/a	n/a	n/a	n/a	n/a	n/a	feedback	s577
416.095	0.34	n/a	-1.0	n/a	columbia_card_task_fmri	n/a	n/a	-1.0	n/a	n/a	n/a	n/a	n/a	n/a	n/a	n/a	ITI	s577
416.439	0.437	3.820338707398824	end_round	0.0	columbia_card_task_fmri	8.0	0.9375	71.0	-90.0	0.0625	16.0	1.0	1.0	-9.26619069521104	0.437	0.0	stim	s577
416.884	2.25	n/a	-1.0	n/a	columbia_card_task_fmri	n/a	n/a	-1.0	n/a	n/a	n/a	n/a	n/a	n/a	n/a	n/a	feedback	s577
419.134	0.0	n/a	-1.0	n/a	columbia_card_task_fmri	n/a	n/a	-1.0	n/a	n/a	n/a	n/a	n/a	n/a	n/a	n/a	ITI	s577
419.139	0.806	5.382838707398824	draw_card	0.0	columbia_card_task_fmri	10.0	0.9375	89.0	-95.0	0.0625	16.0	1.0	1.0	-7.5770531621475	0.806	n/a	stim	s577
419.951	0.386	4.945338707398825	draw_card	0.0	columbia_card_task_fmri	10.0	0.9333333333333332	89.0	-95.0	0.0666666666666666	16.0	2.0	1.0	-6.804098585148701	0.386	n/a	stim	s577
420.345	0.385	4.445338707398825	draw_card	0.0	columbia_card_task_fmri	10.0	0.9285714285714286	89.0	-95.0	0.0714285714285714	16.0	3.0	1.0	-5.9563275800791935	0.385	n/a	stim	s577
420.736	0.351	3.8684156304757473	draw_card	0.0	columbia_card_task_fmri	10.0	0.9230769230769232	89.0	-95.0	0.0769230769230769	16.0	4.0	1.0	-5.02101604066311	0.351	n/a	stim	s577
421.094	0.38	3.195338707398824	draw_card	0.0	columbia_card_task_fmri	10.0	0.9166666666666666	89.0	-95.0	0.0833333333333333	16.0	5.0	1.0	-3.982249264389541	0.38	n/a	stim	s577
421.478	0.774	2.399884161944277	draw_card	0.0	columbia_card_task_fmri	10.0	0.9090909090909092	89.0	-95.0	0.0909090909090909	16.0	6.0	1.0	-2.819846627350305	0.774	n/a	stim	s577
422.258	0.588	1.445338707398824	draw_card	0.0	columbia_card_task_fmri	10.0	0.9	89.0	-95.0	0.1	16.0	7.0	1.0	-1.5078326044097707	0.588	n/a	stim	s577
422.85	0.518	0.2786720407321579	draw_card	0.0	columbia_card_task_fmri	10.0	0.8888888888888888	89.0	-95.0	0.1111111111111111	16.0	8.0	1.0	-0.0122361993570336	0.518	n/a	stim	s577
423.374	0.433	-1.179661292601176	draw_card	0.0	columbia_card_task_fmri	10.0	0.875	89.0	-95.0	0.125	16.0	9.0	1.0	1.7120883159595408	0.433	n/a	stim	s577
423.811	0.399	-3.0546612926011742	draw_card	0.0	columbia_card_task_fmri	10.0	0.8571428571428572	89.0	-95.0	0.1428571428571428	16.0	10.0	1.0	3.7259641123680254	0.399	n/a	stim	s577
424.215	0.723	-5.554661292601175	draw_card	0.0	columbia_card_task_fmri	10.0	0.8333333333333334	89.0	-95.0	0.1666666666666666	16.0	11.0	1.0	6.111669953610232	0.723	n/a	stim	s577
424.944	0.952	-9.054661292601176	draw_card	0.0	columbia_card_task_fmri	10.0	0.8	89.0	-95.0	0.2	16.0	12.0	1.0	8.977183191295964	0.952	n/a	stim	s577
425.902	0.475	-14.304661292601176	draw_card	1.0	columbia_card_task_fmri	10.0	0.75	89.0	-95.0	0.25	16.0	13.0	1.0	12.440087275214276	0.475	13.0	stim	s577
426.383	2.25	n/a	-1.0	n/a	columbia_card_task_fmri	n/a	n/a	-1.0	n/a	n/a	n/a	n/a	n/a	n/a	n/a	n/a	feedback	s577
428.633	0.0	n/a	-1.0	n/a	columbia_card_task_fmri	n/a	n/a	-1.0	n/a	n/a	n/a	n/a	n/a	n/a	n/a	n/a	ITI	s577
428.637	0.487	6.320338707398824	draw_card	0.0	columbia_card_task_fmri	15.0	0.875	89.0	-70.0	0.125	16.0	1.0	2.0	-4.889506632498037	0.487	n/a	stim	s577
429.13	0.371	5.61200537406549	draw_card	0.0	columbia_card_task_fmri	15.0	0.8666666666666667	89.0	-70.0	0.1333333333333333	16.0	2.0	2.0	-4.107988853499773	0.371	n/a	stim	s577
429.506	0.303	4.802481564541681	draw_card	0.0	columbia_card_task_fmri	15.0	0.8571428571428572	89.0	-70.0	0.1428571428571428	16.0	3.0	2.0	-3.260492588978529	0.303	n/a	stim	s577
429.815	0.355	3.8684156304757455	draw_card	0.0	columbia_card_task_fmri	15.0	0.8461538461538461	89.0	-70.0	0.1538461538461538	16.0	4.0	2.0	-2.3381049141568155	0.355	n/a	stim	s577
430.174	0.382	2.778672040732158	draw_card	0.0	columbia_card_task_fmri	15.0	0.8333333333333334	89.0	-70.0	0.1666666666666666	16.0	5.0	2.0	-1.330538799643552	0.382	n/a	stim	s577
430.562	0.38	1.4907932528533672	draw_card	0.0	columbia_card_task_fmri	15.0	0.8181818181818181	89.0	-70.0	0.1818181818181818	16.0	6.0	2.0	-0.2261371812403467	0.38	n/a	stim	s577
430.946	1.085	-0.054661292601176	draw_card	0.0	columbia_card_task_fmri	15.0	0.8	89.0	-70.0	0.2	16.0	7.0	2.0	0.9877622556475316	1.085	n/a	stim	s577
432.036	0.69	-1.9435501814900653	draw_card	0.0	columbia_card_task_fmri	15.0	0.7777777777777778	89.0	-70.0	0.2222222222222222	16.0	8.0	2.0	2.323535579612347	0.69	n/a	stim	s577
432.731	0.746	-4.3046612926011765	end_round	0.0	columbia_card_task_fmri	15.0	0.75	71.0	-70.0	0.25	16.0	9.0	2.0	3.7896086434285294	0.746	8.0	stim	s577
433.484	2.25	n/a	-1.0	n/a	columbia_card_task_fmri	n/a	n/a	-1.0	n/a	n/a	n/a	n/a	n/a	n/a	n/a	n/a	feedback	s577
435.734	0.272	n/a	-1.0	n/a	columbia_card_task_fmri	n/a	n/a	-1.0	n/a	n/a	n/a	n/a	n/a	n/a	n/a	n/a	ITI	s577
436.011	1.068	5.320338707398824	draw_card	0.0	columbia_card_task_fmri	16.0	0.875	89.0	-85.0	0.125	16.0	1.0	2.0	0.3913653881764105	1.068	n/a	stim	s577
437.086	0.362	4.478672040732157	draw_card	0.0	columbia_card_task_fmri	16.0	0.8666666666666667	89.0	-85.0	0.1333333333333333	16.0	2.0	2.0	1.3206212087754563	0.362	n/a	stim	s577
437.455	0.362	3.516767278827397	draw_card	1.0	columbia_card_task_fmri	16.0	0.8571428571428572	89.0	-85.0	0.1428571428571428	16.0	3.0	2.0	2.32829077856357	0.362	3.0	stim	s577
437.827	2.25	n/a	-1.0	n/a	columbia_card_task_fmri	n/a	n/a	-1.0	n/a	n/a	n/a	n/a	n/a	n/a	n/a	n/a	feedback	s577
440.077	0.204	n/a	-1.0	n/a	columbia_card_task_fmri	n/a	n/a	-1.0	n/a	n/a	n/a	n/a	n/a	n/a	n/a	n/a	ITI	s577
