onset	duration	correct	correct_response	cue	experiment_exp_id	flanker_location	flanker_middle_direction	flanker_type	key_press	response_time	trial_id	worker_id
3.011	0.1	n/a	n/a	double	attention_network_task	n/a	n/a	n/a	-1	n/a	doublecue	s573
3.516864	1.7	1.0	89.0	n/a	attention_network_task	up	left	congruent	89	0.852	stim	s573
5.619	0.1	n/a	n/a	double	attention_network_task	n/a	n/a	n/a	-1	n/a	doublecue	s573
6.125	1.7	1.0	71.0	n/a	attention_network_task	down	right	incongruent	71	0.751	stim	s573
8.229	0.1	n/a	n/a	spatial	attention_network_task	n/a	n/a	n/a	-1	n/a	spatialcue	s573
8.739	1.7	1.0	89.0	n/a	attention_network_task	down	left	congruent	89	0.666	stim	s573
10.843	0.1	n/a	n/a	double	attention_network_task	n/a	n/a	n/a	-1	n/a	doublecue	s573
11.351592	1.7	1.0	71.0	n/a	attention_network_task	down	right	congruent	71	0.547	stim	s573
13.456	0.1	n/a	n/a	double	attention_network_task	n/a	n/a	n/a	-1	n/a	doublecue	s573
13.965456	1.7	1.0	89.0	n/a	attention_network_task	down	left	congruent	89	0.59	stim	s573
16.069	0.1	n/a	n/a	spatial	attention_network_task	n/a	n/a	n/a	-1	n/a	spatialcue	s573
16.577592	1.7	1.0	89.0	n/a	attention_network_task	down	left	incongruent	89	0.982	stim	s573
18.682	0.1	n/a	n/a	spatial	attention_network_task	n/a	n/a	n/a	-1	n/a	spatialcue	s573
19.189	1.7	1.0	71.0	n/a	attention_network_task	down	right	congruent	71	0.572	stim	s573
21.293	0.1	n/a	n/a	double	attention_network_task	n/a	n/a	n/a	-1	n/a	doublecue	s573
21.798592	1.7	1.0	89.0	n/a	attention_network_task	down	left	congruent	89	0.507	stim	s573
23.903	0.1	n/a	n/a	spatial	attention_network_task	n/a	n/a	n/a	-1	n/a	spatialcue	s573
24.409	1.7	1.0	89.0	n/a	attention_network_task	down	left	congruent	89	0.599	stim	s573
26.512	0.1	n/a	n/a	spatial	attention_network_task	n/a	n/a	n/a	-1	n/a	spatialcue	s573
27.016592	1.7	1.0	89.0	n/a	attention_network_task	up	left	congruent	89	0.711	stim	s573
29.121	0.1	n/a	n/a	spatial	attention_network_task	n/a	n/a	n/a	-1	n/a	spatialcue	s573
29.63	1.7	1.0	89.0	n/a	attention_network_task	down	left	incongruent	89	0.641	stim	s573
31.734	0.1	n/a	n/a	spatial	attention_network_task	n/a	n/a	n/a	-1	n/a	spatialcue	s573
32.243	1.7	1.0	89.0	n/a	attention_network_task	up	left	incongruent	89	0.714	stim	s573
34.347	0.1	n/a	n/a	spatial	attention_network_task	n/a	n/a	n/a	-1	n/a	spatialcue	s573
34.851592	1.7	1.0	71.0	n/a	attention_network_task	down	right	incongruent	71	0.608	stim	s573
36.955	0.1	n/a	n/a	spatial	attention_network_task	n/a	n/a	n/a	-1	n/a	spatialcue	s573
37.459864	1.7	1.0	89.0	n/a	attention_network_task	up	left	incongruent	89	0.708	stim	s573
39.564	0.1	n/a	n/a	double	attention_network_task	n/a	n/a	n/a	-1	n/a	doublecue	s573
40.067728	1.7	1.0	89.0	n/a	attention_network_task	down	left	incongruent	89	0.769	stim	s573
42.172	0.1	n/a	n/a	double	attention_network_task	n/a	n/a	n/a	-1	n/a	doublecue	s573
42.678456	1.7	1.0	89.0	n/a	attention_network_task	down	left	incongruent	89	0.616	stim	s573
44.78	0.1	n/a	n/a	spatial	attention_network_task	n/a	n/a	n/a	-1	n/a	spatialcue	s573
45.283728	1.7	1.0	89.0	n/a	attention_network_task	down	left	incongruent	89	0.483	stim	s573
47.388	0.1	n/a	n/a	spatial	attention_network_task	n/a	n/a	n/a	-1	n/a	spatialcue	s573
47.897	1.7	1.0	71.0	n/a	attention_network_task	up	right	incongruent	71	0.82	stim	s573
50.001	0.1	n/a	n/a	spatial	attention_network_task	n/a	n/a	n/a	-1	n/a	spatialcue	s573
50.510591999999995	1.7	1.0	71.0	n/a	attention_network_task	down	right	incongruent	71	0.634	stim	s573
52.615	0.1	n/a	n/a	spatial	attention_network_task	n/a	n/a	n/a	-1	n/a	spatialcue	s573
53.119	1.7	1.0	71.0	n/a	attention_network_task	up	right	congruent	71	0.625	stim	s573
55.223	0.1	n/a	n/a	double	attention_network_task	n/a	n/a	n/a	-1	n/a	doublecue	s573
55.727	1.7	1.0	89.0	n/a	attention_network_task	up	left	congruent	89	0.905	stim	s573
57.831	0.1	n/a	n/a	double	attention_network_task	n/a	n/a	n/a	-1	n/a	doublecue	s573
58.334455999999996	1.7	1.0	89.0	n/a	attention_network_task	down	left	incongruent	89	0.658	stim	s573
60.439	0.1	n/a	n/a	spatial	attention_network_task	n/a	n/a	n/a	-1	n/a	spatialcue	s573
60.945592	1.7	1.0	71.0	n/a	attention_network_task	up	right	congruent	71	0.654	stim	s573
63.05	0.1	n/a	n/a	spatial	attention_network_task	n/a	n/a	n/a	-1	n/a	spatialcue	s573
63.557	1.7	1.0	89.0	n/a	attention_network_task	up	left	congruent	89	0.656	stim	s573
65.661	0.1	n/a	n/a	spatial	attention_network_task	n/a	n/a	n/a	-1	n/a	spatialcue	s573
66.164864	1.7	1.0	71.0	n/a	attention_network_task	up	right	congruent	71	0.503	stim	s573
68.268	0.1	n/a	n/a	spatial	attention_network_task	n/a	n/a	n/a	-1	n/a	spatialcue	s573
68.77718399999999	1.7	1.0	71.0	n/a	attention_network_task	up	right	incongruent	71	0.614	stim	s573
70.882	0.1	n/a	n/a	double	attention_network_task	n/a	n/a	n/a	-1	n/a	doublecue	s573
71.39086400000001	1.7	1.0	71.0	n/a	attention_network_task	up	right	congruent	71	0.56	stim	s573
73.495	0.1	n/a	n/a	spatial	attention_network_task	n/a	n/a	n/a	-1	n/a	spatialcue	s573
74.002	1.7	1.0	71.0	n/a	attention_network_task	down	right	congruent	71	0.585	stim	s573
76.108	0.1	n/a	n/a	double	attention_network_task	n/a	n/a	n/a	-1	n/a	doublecue	s573
76.617864	1.7	1.0	89.0	n/a	attention_network_task	down	left	incongruent	89	0.818	stim	s573
78.722	0.1	n/a	n/a	spatial	attention_network_task	n/a	n/a	n/a	-1	n/a	spatialcue	s573
79.225864	1.7	1.0	89.0	n/a	attention_network_task	up	left	incongruent	89	0.649	stim	s573
81.33	0.1	n/a	n/a	double	attention_network_task	n/a	n/a	n/a	-1	n/a	doublecue	s573
81.833864	1.7	1.0	71.0	n/a	attention_network_task	up	right	incongruent	71	0.616	stim	s573
83.938	0.1	n/a	n/a	spatial	attention_network_task	n/a	n/a	n/a	-1	n/a	spatialcue	s573
84.44545600000001	1.7	1.0	71.0	n/a	attention_network_task	down	right	congruent	71	0.68	stim	s573
86.549	0.1	n/a	n/a	spatial	attention_network_task	n/a	n/a	n/a	-1	n/a	spatialcue	s573
87.056	1.7	1.0	89.0	n/a	attention_network_task	down	left	congruent	89	0.552	stim	s573
89.16	0.1	n/a	n/a	double	attention_network_task	n/a	n/a	n/a	-1	n/a	doublecue	s573
89.666728	1.7	1.0	89.0	n/a	attention_network_task	up	left	incongruent	89	0.73	stim	s573
91.771	0.1	n/a	n/a	spatial	attention_network_task	n/a	n/a	n/a	-1	n/a	spatialcue	s573
92.277	1.7	1.0	89.0	n/a	attention_network_task	up	left	congruent	89	0.717	stim	s573
94.382	0.1	n/a	n/a	spatial	attention_network_task	n/a	n/a	n/a	-1	n/a	spatialcue	s573
94.88486400000001	1.7	1.0	89.0	n/a	attention_network_task	down	left	congruent	89	0.586	stim	s573
96.99	0.1	n/a	n/a	double	attention_network_task	n/a	n/a	n/a	-1	n/a	doublecue	s573
97.493592	1.7	1.0	71.0	n/a	attention_network_task	up	right	incongruent	71	0.686	stim	s573
99.598	0.1	n/a	n/a	double	attention_network_task	n/a	n/a	n/a	-1	n/a	doublecue	s573
100.105456	1.7	1.0	71.0	n/a	attention_network_task	down	right	congruent	71	1.095	stim	s573
102.21	0.1	n/a	n/a	double	attention_network_task	n/a	n/a	n/a	-1	n/a	doublecue	s573
102.715	1.7	1.0	89.0	n/a	attention_network_task	down	left	incongruent	89	0.776	stim	s573
104.819	0.1	n/a	n/a	spatial	attention_network_task	n/a	n/a	n/a	-1	n/a	spatialcue	s573
105.326864	1.7	1.0	89.0	n/a	attention_network_task	up	left	incongruent	89	0.666	stim	s573
107.431	0.1	n/a	n/a	double	attention_network_task	n/a	n/a	n/a	-1	n/a	doublecue	s573
107.936864	1.7	1.0	89.0	n/a	attention_network_task	up	left	incongruent	89	0.583	stim	s573
110.04	0.1	n/a	n/a	spatial	attention_network_task	n/a	n/a	n/a	-1	n/a	spatialcue	s573
110.544864	1.7	1.0	89.0	n/a	attention_network_task	down	left	incongruent	89	0.616	stim	s573
112.649	0.1	n/a	n/a	double	attention_network_task	n/a	n/a	n/a	-1	n/a	doublecue	s573
113.15286400000001	1.7	1.0	71.0	n/a	attention_network_task	up	right	congruent	71	0.679	stim	s573
115.257	0.1	n/a	n/a	spatial	attention_network_task	n/a	n/a	n/a	-1	n/a	spatialcue	s573
115.760728	1.7	1.0	71.0	n/a	attention_network_task	up	right	incongruent	71	0.684	stim	s573
117.865	0.1	n/a	n/a	spatial	attention_network_task	n/a	n/a	n/a	-1	n/a	spatialcue	s573
118.368864	1.7	1.0	89.0	n/a	attention_network_task	up	left	incongruent	89	0.647	stim	s573
120.473	0.1	n/a	n/a	spatial	attention_network_task	n/a	n/a	n/a	-1	n/a	spatialcue	s573
120.97659200000001	1.7	1.0	89.0	n/a	attention_network_task	up	left	incongruent	89	0.683	stim	s573
123.081	0.1	n/a	n/a	double	attention_network_task	n/a	n/a	n/a	-1	n/a	doublecue	s573
123.585	1.7	1.0	71.0	n/a	attention_network_task	down	right	incongruent	71	0.734	stim	s573
125.689	0.1	n/a	n/a	double	attention_network_task	n/a	n/a	n/a	-1	n/a	doublecue	s573
126.192864	1.7	1.0	71.0	n/a	attention_network_task	down	right	congruent	71	0.993	stim	s573
128.297	0.1	n/a	n/a	spatial	attention_network_task	n/a	n/a	n/a	-1	n/a	spatialcue	s573
128.801	1.7	1.0	89.0	n/a	attention_network_task	up	left	congruent	89	0.693	stim	s573
130.907	0.1	n/a	n/a	double	attention_network_task	n/a	n/a	n/a	-1	n/a	doublecue	s573
131.414864	1.7	1.0	71.0	n/a	attention_network_task	up	right	incongruent	71	0.662	stim	s573
133.518	0.1	n/a	n/a	spatial	attention_network_task	n/a	n/a	n/a	-1	n/a	spatialcue	s573
134.022048	1.7	1.0	71.0	n/a	attention_network_task	down	right	congruent	71	0.63	stim	s573
136.127	0.1	n/a	n/a	double	attention_network_task	n/a	n/a	n/a	-1	n/a	doublecue	s573
136.635728	1.7	1.0	89.0	n/a	attention_network_task	up	left	congruent	89	0.579	stim	s573
138.74	0.1	n/a	n/a	double	attention_network_task	n/a	n/a	n/a	-1	n/a	doublecue	s573
139.244864	1.7	1.0	71.0	n/a	attention_network_task	down	right	congruent	71	0.671	stim	s573
141.348	0.1	n/a	n/a	double	attention_network_task	n/a	n/a	n/a	-1	n/a	doublecue	s573
141.853	1.7	1.0	89.0	n/a	attention_network_task	down	left	incongruent	89	0.885	stim	s573
143.956	0.1	n/a	n/a	spatial	attention_network_task	n/a	n/a	n/a	-1	n/a	spatialcue	s573
144.46086400000002	1.7	1.0	89.0	n/a	attention_network_task	down	left	incongruent	89	0.691	stim	s573
146.564	0.1	n/a	n/a	double	attention_network_task	n/a	n/a	n/a	-1	n/a	doublecue	s573
147.069	1.7	1.0	71.0	n/a	attention_network_task	up	right	congruent	71	0.528	stim	s573
149.173	0.1	n/a	n/a	spatial	attention_network_task	n/a	n/a	n/a	-1	n/a	spatialcue	s573
149.676864	1.7	1.0	89.0	n/a	attention_network_task	down	left	incongruent	89	0.703	stim	s573
151.781	0.1	n/a	n/a	double	attention_network_task	n/a	n/a	n/a	-1	n/a	doublecue	s573
152.284728	1.7	1.0	71.0	n/a	attention_network_task	up	right	incongruent	71	0.631	stim	s573
154.388	0.1	n/a	n/a	spatial	attention_network_task	n/a	n/a	n/a	-1	n/a	spatialcue	s573
154.892728	1.7	1.0	71.0	n/a	attention_network_task	down	right	incongruent	71	0.591	stim	s573
156.997	0.1	n/a	n/a	double	attention_network_task	n/a	n/a	n/a	-1	n/a	doublecue	s573
157.500864	1.7	1.0	71.0	n/a	attention_network_task	down	right	congruent	71	0.603	stim	s573
159.606	0.1	n/a	n/a	double	attention_network_task	n/a	n/a	n/a	-1	n/a	doublecue	s573
160.114	1.7	1.0	89.0	n/a	attention_network_task	down	left	incongruent	89	0.595	stim	s573
162.218	0.1	n/a	n/a	double	attention_network_task	n/a	n/a	n/a	-1	n/a	doublecue	s573
162.723864	1.7	1.0	71.0	n/a	attention_network_task	down	right	incongruent	71	0.587	stim	s573
164.829	0.1	n/a	n/a	spatial	attention_network_task	n/a	n/a	n/a	-1	n/a	spatialcue	s573
165.336	1.7	1.0	71.0	n/a	attention_network_task	up	right	congruent	71	0.622	stim	s573
167.44	0.1	n/a	n/a	double	attention_network_task	n/a	n/a	n/a	-1	n/a	doublecue	s573
167.943728	1.7	1.0	89.0	n/a	attention_network_task	up	left	congruent	89	0.559	stim	s573
180.558	0.1	n/a	n/a	spatial	attention_network_task	n/a	n/a	n/a	-1	n/a	spatialcue	s573
181.064	1.7	1.0	71.0	n/a	attention_network_task	down	right	incongruent	71	0.878	stim	s573
183.168	0.1	n/a	n/a	spatial	attention_network_task	n/a	n/a	n/a	-1	n/a	spatialcue	s573
183.673	1.7	0.0	71.0	n/a	attention_network_task	down	right	incongruent	89	0.795	stim	s573
185.777	0.1	n/a	n/a	spatial	attention_network_task	n/a	n/a	n/a	-1	n/a	spatialcue	s573
186.280864	1.7	1.0	71.0	n/a	attention_network_task	up	right	congruent	71	0.719	stim	s573
188.385	0.1	n/a	n/a	spatial	attention_network_task	n/a	n/a	n/a	-1	n/a	spatialcue	s573
188.892728	1.7	1.0	71.0	n/a	attention_network_task	down	right	congruent	71	0.481	stim	s573
190.997	0.1	n/a	n/a	double	attention_network_task	n/a	n/a	n/a	-1	n/a	doublecue	s573
191.50159200000002	1.7	1.0	89.0	n/a	attention_network_task	up	left	incongruent	89	0.7	stim	s573
193.607	0.1	n/a	n/a	double	attention_network_task	n/a	n/a	n/a	-1	n/a	doublecue	s573
194.11	1.7	1.0	89.0	n/a	attention_network_task	down	left	congruent	89	0.625	stim	s573
196.214	0.1	n/a	n/a	double	attention_network_task	n/a	n/a	n/a	-1	n/a	doublecue	s573
196.717864	1.7	1.0	71.0	n/a	attention_network_task	up	right	congruent	71	0.513	stim	s573
198.823	0.1	n/a	n/a	spatial	attention_network_task	n/a	n/a	n/a	-1	n/a	spatialcue	s573
199.325864	1.7	1.0	71.0	n/a	attention_network_task	up	right	congruent	71	0.604	stim	s573
201.43	0.1	n/a	n/a	double	attention_network_task	n/a	n/a	n/a	-1	n/a	doublecue	s573
201.934	1.7	1.0	71.0	n/a	attention_network_task	up	right	congruent	71	0.478	stim	s573
204.039	0.1	n/a	n/a	double	attention_network_task	n/a	n/a	n/a	-1	n/a	doublecue	s573
204.541592	1.7	1.0	71.0	n/a	attention_network_task	down	right	incongruent	71	0.749	stim	s573
206.644	0.1	n/a	n/a	spatial	attention_network_task	n/a	n/a	n/a	-1	n/a	spatialcue	s573
207.152456	1.7	1.0	89.0	n/a	attention_network_task	down	left	congruent	89	0.555	stim	s573
209.256	0.1	n/a	n/a	spatial	attention_network_task	n/a	n/a	n/a	-1	n/a	spatialcue	s573
209.763864	1.7	1.0	89.0	n/a	attention_network_task	up	left	congruent	89	0.611	stim	s573
211.868	0.1	n/a	n/a	spatial	attention_network_task	n/a	n/a	n/a	-1	n/a	spatialcue	s573
212.376864	1.7	1.0	71.0	n/a	attention_network_task	down	right	congruent	71	0.551	stim	s573
214.481	0.1	n/a	n/a	spatial	attention_network_task	n/a	n/a	n/a	-1	n/a	spatialcue	s573
214.985	1.7	1.0	89.0	n/a	attention_network_task	up	left	incongruent	89	0.636	stim	s573
217.09	0.1	n/a	n/a	double	attention_network_task	n/a	n/a	n/a	-1	n/a	doublecue	s573
217.594	1.7	1.0	89.0	n/a	attention_network_task	down	left	congruent	89	0.602	stim	s573
219.698	0.1	n/a	n/a	double	attention_network_task	n/a	n/a	n/a	-1	n/a	doublecue	s573
220.201864	1.7	1.0	89.0	n/a	attention_network_task	up	left	congruent	89	0.482	stim	s573
222.306	0.1	n/a	n/a	double	attention_network_task	n/a	n/a	n/a	-1	n/a	doublecue	s573
222.81	1.7	1.0	71.0	n/a	attention_network_task	down	right	congruent	71	0.591	stim	s573
224.914	0.1	n/a	n/a	double	attention_network_task	n/a	n/a	n/a	-1	n/a	doublecue	s573
225.417864	1.7	1.0	89.0	n/a	attention_network_task	up	left	congruent	89	0.65	stim	s573
227.522	0.1	n/a	n/a	double	attention_network_task	n/a	n/a	n/a	-1	n/a	doublecue	s573
228.03	1.7	1.0	71.0	n/a	attention_network_task	up	right	congruent	71	0.51	stim	s573
230.133	0.1	n/a	n/a	spatial	attention_network_task	n/a	n/a	n/a	-1	n/a	spatialcue	s573
230.639592	1.7	1.0	89.0	n/a	attention_network_task	down	left	congruent	89	0.598	stim	s573
232.745	0.1	n/a	n/a	spatial	attention_network_task	n/a	n/a	n/a	-1	n/a	spatialcue	s573
233.247	1.7	1.0	89.0	n/a	attention_network_task	up	left	incongruent	89	0.661	stim	s573
235.351	0.1	n/a	n/a	double	attention_network_task	n/a	n/a	n/a	-1	n/a	doublecue	s573
235.855184	1.7	1.0	89.0	n/a	attention_network_task	up	left	incongruent	89	0.614	stim	s573
237.962	0.1	n/a	n/a	spatial	attention_network_task	n/a	n/a	n/a	-1	n/a	spatialcue	s573
238.46832	1.7	1.0	71.0	n/a	attention_network_task	up	right	congruent	71	0.565	stim	s573
240.572	0.1	n/a	n/a	spatial	attention_network_task	n/a	n/a	n/a	-1	n/a	spatialcue	s573
241.077	1.7	1.0	71.0	n/a	attention_network_task	up	right	congruent	71	0.611	stim	s573
243.18	0.1	n/a	n/a	spatial	attention_network_task	n/a	n/a	n/a	-1	n/a	spatialcue	s573
243.689864	1.7	1.0	89.0	n/a	attention_network_task	down	left	congruent	89	0.698	stim	s573
245.792	0.1	n/a	n/a	double	attention_network_task	n/a	n/a	n/a	-1	n/a	doublecue	s573
246.301864	1.7	1.0	89.0	n/a	attention_network_task	up	left	incongruent	89	0.623	stim	s573
248.405	0.1	n/a	n/a	double	attention_network_task	n/a	n/a	n/a	-1	n/a	doublecue	s573
248.912864	1.7	1.0	89.0	n/a	attention_network_task	up	left	incongruent	89	0.616	stim	s573
251.018	0.1	n/a	n/a	double	attention_network_task	n/a	n/a	n/a	-1	n/a	doublecue	s573
251.525	1.7	1.0	89.0	n/a	attention_network_task	down	left	incongruent	89	0.643	stim	s573
253.628	0.1	n/a	n/a	spatial	attention_network_task	n/a	n/a	n/a	-1	n/a	spatialcue	s573
254.132864	1.7	1.0	71.0	n/a	attention_network_task	up	right	incongruent	71	0.69	stim	s573
256.237	0.1	n/a	n/a	spatial	attention_network_task	n/a	n/a	n/a	-1	n/a	spatialcue	s573
256.74104800000003	1.7	1.0	71.0	n/a	attention_network_task	up	right	incongruent	71	0.807	stim	s573
258.846	0.1	n/a	n/a	double	attention_network_task	n/a	n/a	n/a	-1	n/a	doublecue	s573
259.349864	1.7	1.0	89.0	n/a	attention_network_task	up	left	incongruent	89	1.129	stim	s573
261.454	0.1	n/a	n/a	double	attention_network_task	n/a	n/a	n/a	-1	n/a	doublecue	s573
261.957592	1.7	1.0	89.0	n/a	attention_network_task	up	left	incongruent	89	0.589	stim	s573
264.061	0.1	n/a	n/a	spatial	attention_network_task	n/a	n/a	n/a	-1	n/a	spatialcue	s573
264.565048	1.7	1.0	71.0	n/a	attention_network_task	down	right	incongruent	71	0.849	stim	s573
266.67	0.1	n/a	n/a	double	attention_network_task	n/a	n/a	n/a	-1	n/a	doublecue	s573
267.173864	1.7	1.0	71.0	n/a	attention_network_task	down	right	incongruent	71	1.147	stim	s573
269.275	0.1	n/a	n/a	double	attention_network_task	n/a	n/a	n/a	-1	n/a	doublecue	s573
269.781728	1.7	1.0	71.0	n/a	attention_network_task	up	right	incongruent	71	0.706	stim	s573
271.885	0.1	n/a	n/a	double	attention_network_task	n/a	n/a	n/a	-1	n/a	doublecue	s573
272.389728	1.7	1.0	71.0	n/a	attention_network_task	down	right	incongruent	71	0.616	stim	s573
274.492	0.1	n/a	n/a	double	attention_network_task	n/a	n/a	n/a	-1	n/a	doublecue	s573
274.998	1.7	1.0	89.0	n/a	attention_network_task	down	left	congruent	89	0.581	stim	s573
277.101	0.1	n/a	n/a	spatial	attention_network_task	n/a	n/a	n/a	-1	n/a	spatialcue	s573
277.606	1.7	1.0	71.0	n/a	attention_network_task	up	right	incongruent	71	0.656	stim	s573
279.71	0.1	n/a	n/a	spatial	attention_network_task	n/a	n/a	n/a	-1	n/a	spatialcue	s573
280.213728	1.7	1.0	71.0	n/a	attention_network_task	down	right	congruent	71	0.711	stim	s573
282.318	0.1	n/a	n/a	spatial	attention_network_task	n/a	n/a	n/a	-1	n/a	spatialcue	s573
282.823	1.7	1.0	71.0	n/a	attention_network_task	down	right	congruent	71	0.555	stim	s573
284.926	0.1	n/a	n/a	spatial	attention_network_task	n/a	n/a	n/a	-1	n/a	spatialcue	s573
285.431	1.7	1.0	71.0	n/a	attention_network_task	down	right	incongruent	71	0.631	stim	s573
287.535	0.1	n/a	n/a	double	attention_network_task	n/a	n/a	n/a	-1	n/a	doublecue	s573
288.038728	1.7	1.0	89.0	n/a	attention_network_task	down	left	congruent	89	0.619	stim	s573
290.142	0.1	n/a	n/a	spatial	attention_network_task	n/a	n/a	n/a	-1	n/a	spatialcue	s573
290.652	1.7	1.0	89.0	n/a	attention_network_task	down	left	incongruent	89	0.887	stim	s573
292.756	0.1	n/a	n/a	spatial	attention_network_task	n/a	n/a	n/a	-1	n/a	spatialcue	s573
293.259864	1.7	1.0	89.0	n/a	attention_network_task	up	left	congruent	89	0.598	stim	s573
295.364	0.1	n/a	n/a	spatial	attention_network_task	n/a	n/a	n/a	-1	n/a	spatialcue	s573
295.867728	1.7	1.0	89.0	n/a	attention_network_task	up	left	congruent	89	0.542	stim	s573
297.972	0.1	n/a	n/a	spatial	attention_network_task	n/a	n/a	n/a	-1	n/a	spatialcue	s573
298.476	1.7	1.0	89.0	n/a	attention_network_task	up	left	congruent	89	0.848	stim	s573
300.58	0.1	n/a	n/a	double	attention_network_task	n/a	n/a	n/a	-1	n/a	doublecue	s573
301.09	1.7	1.0	71.0	n/a	attention_network_task	down	right	incongruent	71	0.787	stim	s573
303.194	0.1	n/a	n/a	double	attention_network_task	n/a	n/a	n/a	-1	n/a	doublecue	s573
303.698	1.7	1.0	89.0	n/a	attention_network_task	down	left	congruent	89	0.518	stim	s573
305.801	0.1	n/a	n/a	spatial	attention_network_task	n/a	n/a	n/a	-1	n/a	spatialcue	s573
306.306	1.7	1.0	89.0	n/a	attention_network_task	down	left	incongruent	89	0.583	stim	s573
308.41	0.1	n/a	n/a	double	attention_network_task	n/a	n/a	n/a	-1	n/a	doublecue	s573
308.914	1.7	1.0	71.0	n/a	attention_network_task	up	right	congruent	71	0.618	stim	s573
311.018	0.1	n/a	n/a	spatial	attention_network_task	n/a	n/a	n/a	-1	n/a	spatialcue	s573
311.522	1.7	1.0	71.0	n/a	attention_network_task	up	right	incongruent	71	0.962	stim	s573
313.626	0.1	n/a	n/a	double	attention_network_task	n/a	n/a	n/a	-1	n/a	doublecue	s573
314.129728	1.7	1.0	71.0	n/a	attention_network_task	down	right	congruent	71	0.693	stim	s573
316.234	0.1	n/a	n/a	double	attention_network_task	n/a	n/a	n/a	-1	n/a	doublecue	s573
316.743864	1.7	1.0	71.0	n/a	attention_network_task	up	right	incongruent	71	0.752	stim	s573
318.845	0.1	n/a	n/a	double	attention_network_task	n/a	n/a	n/a	-1	n/a	doublecue	s573
319.355912	1.7	1.0	71.0	n/a	attention_network_task	down	right	incongruent	71	0.642	stim	s573
321.461	0.1	n/a	n/a	spatial	attention_network_task	n/a	n/a	n/a	-1	n/a	spatialcue	s573
321.968728	1.7	1.0	89.0	n/a	attention_network_task	down	left	congruent	89	0.682	stim	s573
324.074	0.1	n/a	n/a	spatial	attention_network_task	n/a	n/a	n/a	-1	n/a	spatialcue	s573
324.583864	1.7	1.0	89.0	n/a	attention_network_task	up	left	congruent	89	1.075	stim	s573
326.688	0.1	n/a	n/a	double	attention_network_task	n/a	n/a	n/a	-1	n/a	doublecue	s573
327.191864	1.7	1.0	71.0	n/a	attention_network_task	down	right	congruent	71	0.875	stim	s573
329.297	0.1	n/a	n/a	double	attention_network_task	n/a	n/a	n/a	-1	n/a	doublecue	s573
329.805	1.7	1.0	89.0	n/a	attention_network_task	down	left	congruent	89	0.795	stim	s573
331.909	0.1	n/a	n/a	spatial	attention_network_task	n/a	n/a	n/a	-1	n/a	spatialcue	s573
332.414	1.7	1.0	71.0	n/a	attention_network_task	down	right	incongruent	71	0.628	stim	s573
334.517	0.1	n/a	n/a	spatial	attention_network_task	n/a	n/a	n/a	-1	n/a	spatialcue	s573
335.022	1.7	1.0	71.0	n/a	attention_network_task	up	right	congruent	71	0.666	stim	s573
337.125	0.1	n/a	n/a	double	attention_network_task	n/a	n/a	n/a	-1	n/a	doublecue	s573
337.63	1.7	1.0	71.0	n/a	attention_network_task	up	right	incongruent	71	0.947	stim	s573
339.734	0.1	n/a	n/a	spatial	attention_network_task	n/a	n/a	n/a	-1	n/a	spatialcue	s573
340.242864	1.7	1.0	71.0	n/a	attention_network_task	up	right	incongruent	71	0.563	stim	s573
342.347	0.1	n/a	n/a	double	attention_network_task	n/a	n/a	n/a	-1	n/a	doublecue	s573
342.850728	1.7	1.0	71.0	n/a	attention_network_task	up	right	incongruent	71	1.647	stim	s573
344.955	0.1	n/a	n/a	spatial	attention_network_task	n/a	n/a	n/a	-1	n/a	spatialcue	s573
345.462864	1.7	1.0	89.0	n/a	attention_network_task	down	left	congruent	89	0.924	stim	s573
