onset	duration	planning	condition	current_position	exp_stage	experiment_exp_id	goal_state	key_press	problem_id	response_time	start_state	trial_id	worker_id
-64.069	0.0	0	n/a	n/a	n/a	ward_and_allport	n/a	32.0	n/a	23.735	n/a	instructions	s573
3.016	3.524	1	UA_with_intermediate	1,0,0,2,0,0,0,0,0	practice	ward_and_allport	1,2,3,0,0,0,0,0,0	71.0	0.0	3.524	1,0,0,2,3,0,0,0,0	to_hand	s573
6.54	0.942	0	UA_with_intermediate	1,3,0,2,0,0,0,0,0	practice	ward_and_allport	1,2,3,0,0,0,0,0,0	89.0	0.0	0.942	1,0,0,2,3,0,0,0,0	to_board	s573
7.485	6.042	0	UA_with_intermediate	1,3,0,0,0,0,0,0,0	practice	ward_and_allport	1,2,3,0,0,0,0,0,0	71.0	0.0	6.042	1,0,0,2,3,0,0,0,0	to_hand	s573
13.527	1.777	0	UA_with_intermediate	1,3,0,0,0,0,2,0,0	practice	ward_and_allport	1,2,3,0,0,0,0,0,0	82.0	0.0	1.777	1,0,0,2,3,0,0,0,0	to_board	s573
15.306	1.808	0	UA_with_intermediate	1,0,0,0,0,0,2,0,0	practice	ward_and_allport	1,2,3,0,0,0,0,0,0	89.0	0.0	1.808	1,0,0,2,3,0,0,0,0	to_hand	s573
17.115	0.835	0	UA_with_intermediate	1,0,0,3,0,0,2,0,0	practice	ward_and_allport	1,2,3,0,0,0,0,0,0	71.0	0.0	0.835	1,0,0,2,3,0,0,0,0	to_board	s573
17.952	1.059	0	UA_with_intermediate	1,0,0,3,0,0,0,0,0	practice	ward_and_allport	1,2,3,0,0,0,0,0,0	82.0	0.0	1.059	1,0,0,2,3,0,0,0,0	to_hand	s573
19.012	1.018	0	UA_with_intermediate	1,2,0,3,0,0,0,0,0	practice	ward_and_allport	1,2,3,0,0,0,0,0,0	89.0	0.0	1.018	1,0,0,2,3,0,0,0,0	to_board	s573
20.032	1.785	0	UA_with_intermediate	1,2,0,0,0,0,0,0,0	practice	ward_and_allport	1,2,3,0,0,0,0,0,0	71.0	0.0	1.785	1,0,0,2,3,0,0,0,0	to_hand	s573
21.818	1.198	0	UA_with_intermediate	1,2,3,0,0,0,0,0,0	practice	ward_and_allport	1,2,3,0,0,0,0,0,0	89.0	0.0	1.198	1,0,0,2,3,0,0,0,0	to_board	s573
23.022	1.0	0	UA_with_intermediate	n/a	practice	ward_and_allport	n/a	-1.0	0.0	n/a	n/a	feedback	s573
25.523	4.116	1	UA_with_intermediate	1,0,0,3,0,0,0,0,0	practice	ward_and_allport	1,3,2,0,0,0,0,0,0	89.0	1.0	4.116	1,2,0,3,0,0,0,0,0	to_hand	s573
29.641	1.192	0	UA_with_intermediate	1,0,0,3,0,0,2,0,0	practice	ward_and_allport	1,3,2,0,0,0,0,0,0	82.0	1.0	1.192	1,2,0,3,0,0,0,0,0	to_board	s573
30.835	1.292	0	UA_with_intermediate	1,0,0,0,0,0,2,0,0	practice	ward_and_allport	1,3,2,0,0,0,0,0,0	71.0	1.0	1.292	1,2,0,3,0,0,0,0,0	to_hand	s573
32.127	1.62	0	UA_with_intermediate	1,3,0,0,0,0,2,0,0	practice	ward_and_allport	1,3,2,0,0,0,0,0,0	89.0	1.0	1.62	1,2,0,3,0,0,0,0,0	to_board	s573
33.749	2.067	0	UA_with_intermediate	1,3,0,0,0,0,0,0,0	practice	ward_and_allport	1,3,2,0,0,0,0,0,0	82.0	1.0	2.067	1,2,0,3,0,0,0,0,0	to_hand	s573
35.817	0.774	0	UA_with_intermediate	1,3,2,0,0,0,0,0,0	practice	ward_and_allport	1,3,2,0,0,0,0,0,0	89.0	1.0	0.774	1,2,0,3,0,0,0,0,0	to_board	s573
36.595	1.0	0	UA_with_intermediate	n/a	practice	ward_and_allport	n/a	-1.0	1.0	n/a	n/a	feedback	s573
37.595	1.1	0	UA_with_intermediate	n/a	practice	ward_and_allport	n/a	-1.0	1.0	n/a	n/a	ITI	s573
38.697	3.445	1	UA_without_intermediate	0,0,0,1,2,0,0,0,0	practice	ward_and_allport	3,2,1,0,0,0,0,0,0	82.0	2.0	3.445	0,0,0,1,2,0,3,0,0	to_hand	s573
42.142	0.998	0	UA_without_intermediate	3,0,0,1,2,0,0,0,0	practice	ward_and_allport	3,2,1,0,0,0,0,0,0	89.0	2.0	0.998	0,0,0,1,2,0,3,0,0	to_board	s573
43.143	1.553	0	UA_without_intermediate	3,0,0,1,0,0,0,0,0	practice	ward_and_allport	3,2,1,0,0,0,0,0,0	71.0	2.0	1.553	0,0,0,1,2,0,3,0,0	to_hand	s573
44.697	1.008	0	UA_without_intermediate	3,2,0,1,0,0,0,0,0	practice	ward_and_allport	3,2,1,0,0,0,0,0,0	89.0	2.0	1.008	0,0,0,1,2,0,3,0,0	to_board	s573
45.706	1.397	0	UA_without_intermediate	3,2,0,0,0,0,0,0,0	practice	ward_and_allport	3,2,1,0,0,0,0,0,0	71.0	2.0	1.397	0,0,0,1,2,0,3,0,0	to_hand	s573
47.105	0.802	0	UA_without_intermediate	3,2,1,0,0,0,0,0,0	practice	ward_and_allport	3,2,1,0,0,0,0,0,0	89.0	2.0	0.802	0,0,0,1,2,0,3,0,0	to_board	s573
47.909	1.0	0	UA_without_intermediate	n/a	practice	ward_and_allport	n/a	-1.0	2.0	n/a	n/a	feedback	s573
48.909	1.2	0	UA_without_intermediate	n/a	practice	ward_and_allport	n/a	-1.0	2.0	n/a	n/a	ITI	s573
50.111	3.187	1	UA_without_intermediate	0,0,0,1,0,0,3,0,0	practice	ward_and_allport	2,3,1,0,0,0,0,0,0	71.0	3.0	3.187	0,0,0,1,2,0,3,0,0	to_hand	s573
53.299	0.994	0	UA_without_intermediate	2,0,0,1,0,0,3,0,0	practice	ward_and_allport	2,3,1,0,0,0,0,0,0	89.0	3.0	0.994	0,0,0,1,2,0,3,0,0	to_board	s573
54.295	1.606	0	UA_without_intermediate	2,0,0,1,0,0,0,0,0	practice	ward_and_allport	2,3,1,0,0,0,0,0,0	82.0	3.0	1.606	0,0,0,1,2,0,3,0,0	to_hand	s573
55.902	1.32	0	UA_without_intermediate	2,3,0,1,0,0,0,0,0	practice	ward_and_allport	2,3,1,0,0,0,0,0,0	89.0	3.0	1.32	0,0,0,1,2,0,3,0,0	to_board	s573
57.224	0.747	0	UA_without_intermediate	2,3,0,0,0,0,0,0,0	practice	ward_and_allport	2,3,1,0,0,0,0,0,0	71.0	3.0	0.747	0,0,0,1,2,0,3,0,0	to_hand	s573
57.973	0.651	0	UA_without_intermediate	2,3,1,0,0,0,0,0,0	practice	ward_and_allport	2,3,1,0,0,0,0,0,0	89.0	3.0	0.651	0,0,0,1,2,0,3,0,0	to_board	s573
58.627	1.0	0	UA_without_intermediate	n/a	practice	ward_and_allport	n/a	-1.0	3.0	n/a	n/a	feedback	s573
59.627	1.0	0	UA_without_intermediate	n/a	practice	ward_and_allport	n/a	-1.0	3.0	n/a	n/a	ITI	s573
62.632	4.375	1	PA_with_intermediate	0,0,0,0,0,0,1,2,0	test	ward_and_allport	0,0,0,2,0,0,1,3,0	82.0	0.0	4.375	0,0,0,0,0,0,1,2,3	to_hand	s573
67.009	2.691	0	PA_with_intermediate	3,0,0,0,0,0,1,2,0	test	ward_and_allport	0,0,0,2,0,0,1,3,0	89.0	0.0	2.691	0,0,0,0,0,0,1,2,3	to_board	s573
69.701	1.808	0	PA_with_intermediate	3,0,0,0,0,0,1,0,0	test	ward_and_allport	0,0,0,2,0,0,1,3,0	82.0	0.0	1.808	0,0,0,0,0,0,1,2,3	to_hand	s573
71.51	1.118	0	PA_with_intermediate	3,0,0,2,0,0,1,0,0	test	ward_and_allport	0,0,0,2,0,0,1,3,0	71.0	0.0	1.118	0,0,0,0,0,0,1,2,3	to_board	s573
72.631	0.687	0	PA_with_intermediate	0,0,0,2,0,0,1,0,0	test	ward_and_allport	0,0,0,2,0,0,1,3,0	89.0	0.0	0.687	0,0,0,0,0,0,1,2,3	to_hand	s573
73.318	2.039	0	PA_with_intermediate	0,0,0,2,0,0,1,3,0	test	ward_and_allport	0,0,0,2,0,0,1,3,0	82.0	0.0	2.039	0,0,0,0,0,0,1,2,3	to_board	s573
75.363	1.0	0	PA_with_intermediate	n/a	test	ward_and_allport	n/a	-1.0	0.0	n/a	n/a	feedback	s573
76.363	3.176	0	PA_with_intermediate	n/a	test	ward_and_allport	n/a	-1.0	0.0	n/a	n/a	ITI	s573
79.542	4.359	1	PA_with_intermediate	0,0,0,0,0,0,1,2,0	test	ward_and_allport	0,0,0,2,0,0,1,3,0	82.0	1.0	4.359	0,0,0,0,0,0,1,2,3	to_hand	s573
83.903	1.256	0	PA_with_intermediate	3,0,0,0,0,0,1,2,0	test	ward_and_allport	0,0,0,2,0,0,1,3,0	89.0	1.0	1.256	0,0,0,0,0,0,1,2,3	to_board	s573
85.163	1.735	0	PA_with_intermediate	3,0,0,0,0,0,1,0,0	test	ward_and_allport	0,0,0,2,0,0,1,3,0	82.0	1.0	1.735	0,0,0,0,0,0,1,2,3	to_hand	s573
86.898	1.106	0	PA_with_intermediate	3,0,0,2,0,0,1,0,0	test	ward_and_allport	0,0,0,2,0,0,1,3,0	71.0	1.0	1.106	0,0,0,0,0,0,1,2,3	to_board	s573
88.006	0.825	0	PA_with_intermediate	0,0,0,2,0,0,1,0,0	test	ward_and_allport	0,0,0,2,0,0,1,3,0	89.0	1.0	0.825	0,0,0,0,0,0,1,2,3	to_hand	s573
88.833	1.216	0	PA_with_intermediate	0,0,0,2,0,0,1,3,0	test	ward_and_allport	0,0,0,2,0,0,1,3,0	82.0	1.0	1.216	0,0,0,0,0,0,1,2,3	to_board	s573
90.052	1.0	0	PA_with_intermediate	n/a	test	ward_and_allport	n/a	-1.0	1.0	n/a	n/a	feedback	s573
91.052	2.36	0	PA_with_intermediate	n/a	test	ward_and_allport	n/a	-1.0	1.0	n/a	n/a	ITI	s573
93.414	3.851	1	PA_with_intermediate	0,0,0,1,2,0,0,0,0	test	ward_and_allport	0,0,0,1,3,0,2,0,0	71.0	2.0	3.851	0,0,0,1,2,3,0,0,0	to_hand	s573
97.266	1.138	0	PA_with_intermediate	3,0,0,1,2,0,0,0,0	test	ward_and_allport	0,0,0,1,3,0,2,0,0	89.0	2.0	1.138	0,0,0,1,2,3,0,0,0	to_board	s573
98.406	1.234	0	PA_with_intermediate	3,0,0,1,0,0,0,0,0	test	ward_and_allport	0,0,0,1,3,0,2,0,0	71.0	2.0	1.234	0,0,0,1,2,3,0,0,0	to_hand	s573
99.641	1.912	0	PA_with_intermediate	3,0,0,1,0,0,2,0,0	test	ward_and_allport	0,0,0,1,3,0,2,0,0	82.0	2.0	1.912	0,0,0,1,2,3,0,0,0	to_board	s573
101.555	0.84	0	PA_with_intermediate	0,0,0,1,0,0,2,0,0	test	ward_and_allport	0,0,0,1,3,0,2,0,0	89.0	2.0	0.84	0,0,0,1,2,3,0,0,0	to_hand	s573
102.397	0.754	0	PA_with_intermediate	0,0,0,1,3,0,2,0,0	test	ward_and_allport	0,0,0,1,3,0,2,0,0	71.0	2.0	0.754	0,0,0,1,2,3,0,0,0	to_board	s573
103.156	1.0	0	PA_with_intermediate	n/a	test	ward_and_allport	n/a	-1.0	2.0	n/a	n/a	feedback	s573
104.156	1.0	0	PA_with_intermediate	n/a	test	ward_and_allport	n/a	-1.0	2.0	n/a	n/a	ITI	s573
105.159	3.595	1	PA_without_intermediate	1,2,0,0,0,0,0,0,0	test	ward_and_allport	0,0,0,1,0,0,3,2,0	89.0	3.0	3.595	1,2,3,0,0,0,0,0,0	to_hand	s573
108.755	0.832	0	PA_without_intermediate	1,2,0,0,0,0,3,0,0	test	ward_and_allport	0,0,0,1,0,0,3,2,0	82.0	3.0	0.832	1,2,3,0,0,0,0,0,0	to_board	s573
109.59	1.837	0	PA_without_intermediate	1,0,0,0,0,0,3,0,0	test	ward_and_allport	0,0,0,1,0,0,3,2,0	89.0	3.0	1.837	1,2,3,0,0,0,0,0,0	to_hand	s573
111.428	1.142	0	PA_without_intermediate	1,0,0,0,0,0,3,2,0	test	ward_and_allport	0,0,0,1,0,0,3,2,0	82.0	3.0	1.142	1,2,3,0,0,0,0,0,0	to_board	s573
112.573	0.99	0	PA_without_intermediate	0,0,0,0,0,0,3,2,0	test	ward_and_allport	0,0,0,1,0,0,3,2,0	89.0	3.0	0.99	1,2,3,0,0,0,0,0,0	to_hand	s573
113.564	0.697	0	PA_without_intermediate	0,0,0,1,0,0,3,2,0	test	ward_and_allport	0,0,0,1,0,0,3,2,0	71.0	3.0	0.697	1,2,3,0,0,0,0,0,0	to_board	s573
114.264	1.0	0	PA_without_intermediate	n/a	test	ward_and_allport	n/a	-1.0	3.0	n/a	n/a	feedback	s573
115.264	1.408	0	PA_without_intermediate	n/a	test	ward_and_allport	n/a	-1.0	3.0	n/a	n/a	ITI	s573
116.674	4.952	1	PA_with_intermediate	0,0,0,0,0,0,1,2,0	test	ward_and_allport	2,3,0,0,0,0,1,0,0	82.0	4.0	4.952	0,0,0,0,0,0,1,2,3	to_hand	s573
121.627	2.146	0	PA_with_intermediate	0,0,0,3,0,0,1,2,0	test	ward_and_allport	2,3,0,0,0,0,1,0,0	71.0	4.0	2.146	0,0,0,0,0,0,1,2,3	to_board	s573
123.775	1.736	0	PA_with_intermediate	0,0,0,3,0,0,1,0,0	test	ward_and_allport	2,3,0,0,0,0,1,0,0	82.0	4.0	1.736	0,0,0,0,0,0,1,2,3	to_hand	s573
125.512	1.278	0	PA_with_intermediate	2,0,0,3,0,0,1,0,0	test	ward_and_allport	2,3,0,0,0,0,1,0,0	89.0	4.0	1.278	0,0,0,0,0,0,1,2,3	to_board	s573
126.793	0.936	0	PA_with_intermediate	2,0,0,0,0,0,1,0,0	test	ward_and_allport	2,3,0,0,0,0,1,0,0	71.0	4.0	0.936	0,0,0,0,0,0,1,2,3	to_hand	s573
127.73	0.794	0	PA_with_intermediate	2,3,0,0,0,0,1,0,0	test	ward_and_allport	2,3,0,0,0,0,1,0,0	89.0	4.0	0.794	0,0,0,0,0,0,1,2,3	to_board	s573
128.528	1.0	0	PA_with_intermediate	n/a	test	ward_and_allport	n/a	-1.0	4.0	n/a	n/a	feedback	s573
129.528	1.816	0	PA_with_intermediate	n/a	test	ward_and_allport	n/a	-1.0	4.0	n/a	n/a	ITI	s573
131.347	3.246	1	PA_without_intermediate	0,0,0,1,2,0,0,0,0	test	ward_and_allport	2,0,0,0,0,0,3,1,0	71.0	5.0	3.246	0,0,0,1,2,3,0,0,0	to_hand	s573
134.595	0.969	0	PA_without_intermediate	0,0,0,1,2,0,3,0,0	test	ward_and_allport	2,0,0,0,0,0,3,1,0	82.0	5.0	0.969	0,0,0,1,2,3,0,0,0	to_board	s573
135.567	1.19	0	PA_without_intermediate	0,0,0,1,0,0,3,0,0	test	ward_and_allport	2,0,0,0,0,0,3,1,0	71.0	5.0	1.19	0,0,0,1,2,3,0,0,0	to_hand	s573
136.757	0.833	0	PA_without_intermediate	2,0,0,1,0,0,3,0,0	test	ward_and_allport	2,0,0,0,0,0,3,1,0	89.0	5.0	0.833	0,0,0,1,2,3,0,0,0	to_board	s573
137.594	1.557	0	PA_without_intermediate	2,0,0,0,0,0,3,0,0	test	ward_and_allport	2,0,0,0,0,0,3,1,0	71.0	5.0	1.557	0,0,0,1,2,3,0,0,0	to_hand	s573
139.152	0.874	0	PA_without_intermediate	2,0,0,0,0,0,3,1,0	test	ward_and_allport	2,0,0,0,0,0,3,1,0	82.0	5.0	0.874	0,0,0,1,2,3,0,0,0	to_board	s573
140.03	1.0	0	PA_without_intermediate	n/a	test	ward_and_allport	n/a	-1.0	5.0	n/a	n/a	feedback	s573
141.03	2.088	0	PA_without_intermediate	n/a	test	ward_and_allport	n/a	-1.0	5.0	n/a	n/a	ITI	s573
143.121	3.537	1	PA_without_intermediate	1,2,0,0,0,0,0,0,0	test	ward_and_allport	0,0,0,3,1,0,2,0,0	89.0	6.0	3.537	1,2,3,0,0,0,0,0,0	to_hand	s573
146.659	0.768	0	PA_without_intermediate	1,2,0,3,0,0,0,0,0	test	ward_and_allport	0,0,0,3,1,0,2,0,0	71.0	6.0	0.768	1,2,3,0,0,0,0,0,0	to_board	s573
147.43	1.349	0	PA_without_intermediate	1,0,0,3,0,0,0,0,0	test	ward_and_allport	0,0,0,3,1,0,2,0,0	89.0	6.0	1.349	1,2,3,0,0,0,0,0,0	to_hand	s573
148.779	0.781	0	PA_without_intermediate	1,0,0,3,0,0,2,0,0	test	ward_and_allport	0,0,0,3,1,0,2,0,0	82.0	6.0	0.781	1,2,3,0,0,0,0,0,0	to_board	s573
149.563	0.907	0	PA_without_intermediate	0,0,0,3,0,0,2,0,0	test	ward_and_allport	0,0,0,3,1,0,2,0,0	89.0	6.0	0.907	1,2,3,0,0,0,0,0,0	to_hand	s573
150.471	0.634	0	PA_without_intermediate	0,0,0,3,1,0,2,0,0	test	ward_and_allport	0,0,0,3,1,0,2,0,0	71.0	6.0	0.634	1,2,3,0,0,0,0,0,0	to_board	s573
151.113	1.0	0	PA_without_intermediate	n/a	test	ward_and_allport	n/a	-1.0	6.0	n/a	n/a	feedback	s573
152.113	1.136	0	PA_without_intermediate	n/a	test	ward_and_allport	n/a	-1.0	6.0	n/a	n/a	ITI	s573
153.252	2.606	1	PA_without_intermediate	0,0,0,1,2,0,0,0,0	test	ward_and_allport	3,1,0,0,0,0,2,0,0	71.0	7.0	2.606	0,0,0,1,2,3,0,0,0	to_hand	s573
155.859	0.884	0	PA_without_intermediate	3,0,0,1,2,0,0,0,0	test	ward_and_allport	3,1,0,0,0,0,2,0,0	89.0	7.0	0.884	0,0,0,1,2,3,0,0,0	to_board	s573
156.746	1.522	0	PA_without_intermediate	3,0,0,1,0,0,0,0,0	test	ward_and_allport	3,1,0,0,0,0,2,0,0	71.0	7.0	1.522	0,0,0,1,2,3,0,0,0	to_hand	s573
158.268	0.546	0	PA_without_intermediate	3,0,0,1,0,0,2,0,0	test	ward_and_allport	3,1,0,0,0,0,2,0,0	82.0	7.0	0.546	0,0,0,1,2,3,0,0,0	to_board	s573
158.817	1.27	0	PA_without_intermediate	3,0,0,0,0,0,2,0,0	test	ward_and_allport	3,1,0,0,0,0,2,0,0	71.0	7.0	1.27	0,0,0,1,2,3,0,0,0	to_hand	s573
160.088	0.682	0	PA_without_intermediate	3,1,0,0,0,0,2,0,0	test	ward_and_allport	3,1,0,0,0,0,2,0,0	89.0	7.0	0.682	0,0,0,1,2,3,0,0,0	to_board	s573
160.774	1.0	0	PA_without_intermediate	n/a	test	ward_and_allport	n/a	-1.0	7.0	n/a	n/a	feedback	s573
161.774	6.168	0	PA_without_intermediate	n/a	test	ward_and_allport	n/a	-1.0	7.0	n/a	n/a	ITI	s573
167.946	2.524	1	PA_without_intermediate	1,2,0,0,0,0,0,0,0	test	ward_and_allport	0,0,0,1,0,0,3,2,0	89.0	8.0	2.524	1,2,3,0,0,0,0,0,0	to_hand	s573
170.471	1.091	0	PA_without_intermediate	1,2,0,0,0,0,3,0,0	test	ward_and_allport	0,0,0,1,0,0,3,2,0	82.0	8.0	1.091	1,2,3,0,0,0,0,0,0	to_board	s573
171.566	0.76	0	PA_without_intermediate	1,0,0,0,0,0,3,0,0	test	ward_and_allport	0,0,0,1,0,0,3,2,0	89.0	8.0	0.76	1,2,3,0,0,0,0,0,0	to_hand	s573
172.327	1.104	0	PA_without_intermediate	1,0,0,0,0,0,3,2,0	test	ward_and_allport	0,0,0,1,0,0,3,2,0	82.0	8.0	1.104	1,2,3,0,0,0,0,0,0	to_board	s573
173.434	0.697	0	PA_without_intermediate	0,0,0,0,0,0,3,2,0	test	ward_and_allport	0,0,0,1,0,0,3,2,0	89.0	8.0	0.697	1,2,3,0,0,0,0,0,0	to_hand	s573
174.132	0.61	0	PA_without_intermediate	0,0,0,1,0,0,3,2,0	test	ward_and_allport	0,0,0,1,0,0,3,2,0	71.0	8.0	0.61	1,2,3,0,0,0,0,0,0	to_board	s573
174.748	1.0	0	PA_without_intermediate	n/a	test	ward_and_allport	n/a	-1.0	8.0	n/a	n/a	feedback	s573
175.748	1.816	0	PA_without_intermediate	n/a	test	ward_and_allport	n/a	-1.0	8.0	n/a	n/a	ITI	s573
177.568	3.513	1	PA_with_intermediate	0,0,0,1,2,0,0,0,0	test	ward_and_allport	0,0,0,1,3,0,2,0,0	71.0	9.0	3.513	0,0,0,1,2,3,0,0,0	to_hand	s573
181.082	1.002	0	PA_with_intermediate	3,0,0,1,2,0,0,0,0	test	ward_and_allport	0,0,0,1,3,0,2,0,0	89.0	9.0	1.002	0,0,0,1,2,3,0,0,0	to_board	s573
182.087	0.805	0	PA_with_intermediate	3,0,0,1,0,0,0,0,0	test	ward_and_allport	0,0,0,1,3,0,2,0,0	71.0	9.0	0.805	0,0,0,1,2,3,0,0,0	to_hand	s573
182.893	1.097	0	PA_with_intermediate	3,0,0,1,0,0,2,0,0	test	ward_and_allport	0,0,0,1,3,0,2,0,0	82.0	9.0	1.097	0,0,0,1,2,3,0,0,0	to_board	s573
183.993	1.245	0	PA_with_intermediate	0,0,0,1,0,0,2,0,0	test	ward_and_allport	0,0,0,1,3,0,2,0,0	89.0	9.0	1.245	0,0,0,1,2,3,0,0,0	to_hand	s573
185.239	0.902	0	PA_with_intermediate	0,0,0,1,3,0,2,0,0	test	ward_and_allport	0,0,0,1,3,0,2,0,0	71.0	9.0	0.902	0,0,0,1,2,3,0,0,0	to_board	s573
186.149	1.0	0	PA_with_intermediate	n/a	test	ward_and_allport	n/a	-1.0	9.0	n/a	n/a	feedback	s573
187.149	1.952	0	PA_with_intermediate	n/a	test	ward_and_allport	n/a	-1.0	9.0	n/a	n/a	ITI	s573
189.105	4.058	1	PA_with_intermediate	0,0,0,1,2,0,0,0,0	test	ward_and_allport	2,0,0,1,3,0,0,0,0	71.0	10.0	4.058	0,0,0,1,2,3,0,0,0	to_hand	s573
193.164	0.935	0	PA_with_intermediate	0,0,0,1,2,0,3,0,0	test	ward_and_allport	2,0,0,1,3,0,0,0,0	82.0	10.0	0.935	0,0,0,1,2,3,0,0,0	to_board	s573
194.104	1.384	0	PA_with_intermediate	0,0,0,1,0,0,3,0,0	test	ward_and_allport	2,0,0,1,3,0,0,0,0	71.0	10.0	1.384	0,0,0,1,2,3,0,0,0	to_hand	s573
195.489	0.673	0	PA_with_intermediate	2,0,0,1,0,0,3,0,0	test	ward_and_allport	2,0,0,1,3,0,0,0,0	89.0	10.0	0.673	0,0,0,1,2,3,0,0,0	to_board	s573
196.167	1.569	0	PA_with_intermediate	2,0,0,1,0,0,0,0,0	test	ward_and_allport	2,0,0,1,3,0,0,0,0	82.0	10.0	1.569	0,0,0,1,2,3,0,0,0	to_hand	s573
197.738	0.65	0	PA_with_intermediate	2,0,0,1,3,0,0,0,0	test	ward_and_allport	2,0,0,1,3,0,0,0,0	71.0	10.0	0.65	0,0,0,1,2,3,0,0,0	to_board	s573
198.395	1.0	0	PA_with_intermediate	n/a	test	ward_and_allport	n/a	-1.0	10.0	n/a	n/a	feedback	s573
199.395	1.136	0	PA_with_intermediate	n/a	test	ward_and_allport	n/a	-1.0	10.0	n/a	n/a	ITI	s573
200.537	2.397	1	PA_without_intermediate	0,0,0,0,0,0,1,2,0	test	ward_and_allport	2,0,0,3,1,0,0,0,0	82.0	11.0	2.397	0,0,0,0,0,0,1,2,3	to_hand	s573
202.935	1.129	0	PA_without_intermediate	0,0,0,3,0,0,1,2,0	test	ward_and_allport	2,0,0,3,1,0,0,0,0	71.0	11.0	1.129	0,0,0,0,0,0,1,2,3	to_board	s573
204.068	0.898	0	PA_without_intermediate	0,0,0,3,0,0,1,0,0	test	ward_and_allport	2,0,0,3,1,0,0,0,0	82.0	11.0	0.898	0,0,0,0,0,0,1,2,3	to_hand	s573
204.967	1.114	0	PA_without_intermediate	2,0,0,3,0,0,1,0,0	test	ward_and_allport	2,0,0,3,1,0,0,0,0	89.0	11.0	1.114	0,0,0,0,0,0,1,2,3	to_board	s573
206.085	1.293	0	PA_without_intermediate	2,0,0,3,0,0,0,0,0	test	ward_and_allport	2,0,0,3,1,0,0,0,0	82.0	11.0	1.293	0,0,0,0,0,0,1,2,3	to_hand	s573
207.38	0.614	0	PA_without_intermediate	2,0,0,3,1,0,0,0,0	test	ward_and_allport	2,0,0,3,1,0,0,0,0	71.0	11.0	0.614	0,0,0,0,0,0,1,2,3	to_board	s573
208.0	1.0	0	PA_without_intermediate	n/a	test	ward_and_allport	n/a	-1.0	11.0	n/a	n/a	feedback	s573
209.0	1.68	0	PA_without_intermediate	n/a	test	ward_and_allport	n/a	-1.0	11.0	n/a	n/a	ITI	s573
210.683	2.395	1	PA_without_intermediate	0,0,0,0,0,0,1,2,0	test	ward_and_allport	3,2,0,1,0,0,0,0,0	82.0	12.0	2.395	0,0,0,0,0,0,1,2,3	to_hand	s573
213.08	1.452	0	PA_without_intermediate	3,0,0,0,0,0,1,2,0	test	ward_and_allport	3,2,0,1,0,0,0,0,0	89.0	12.0	1.452	0,0,0,0,0,0,1,2,3	to_board	s573
214.535	1.685	0	PA_without_intermediate	3,0,0,0,0,0,1,0,0	test	ward_and_allport	3,2,0,1,0,0,0,0,0	82.0	12.0	1.685	0,0,0,0,0,0,1,2,3	to_hand	s573
216.221	1.042	0	PA_without_intermediate	3,2,0,0,0,0,1,0,0	test	ward_and_allport	3,2,0,1,0,0,0,0,0	89.0	12.0	1.042	0,0,0,0,0,0,1,2,3	to_board	s573
217.268	0.868	0	PA_without_intermediate	3,2,0,0,0,0,0,0,0	test	ward_and_allport	3,2,0,1,0,0,0,0,0	82.0	12.0	0.868	0,0,0,0,0,0,1,2,3	to_hand	s573
218.136	0.818	0	PA_without_intermediate	3,2,0,1,0,0,0,0,0	test	ward_and_allport	3,2,0,1,0,0,0,0,0	71.0	12.0	0.818	0,0,0,0,0,0,1,2,3	to_board	s573
218.963	1.0	0	PA_without_intermediate	n/a	test	ward_and_allport	n/a	-1.0	12.0	n/a	n/a	feedback	s573
219.963	2.088	0	PA_without_intermediate	n/a	test	ward_and_allport	n/a	-1.0	12.0	n/a	n/a	ITI	s573
222.054	3.652	1	PA_with_intermediate	1,2,0,0,0,0,0,0,0	test	ward_and_allport	1,0,0,0,0,0,2,3,0	89.0	13.0	3.652	1,2,3,0,0,0,0,0,0	to_hand	s573
225.708	0.799	0	PA_with_intermediate	1,2,0,3,0,0,0,0,0	test	ward_and_allport	1,0,0,0,0,0,2,3,0	71.0	13.0	0.799	1,2,3,0,0,0,0,0,0	to_board	s573
226.511	0.824	0	PA_with_intermediate	1,0,0,3,0,0,0,0,0	test	ward_and_allport	1,0,0,0,0,0,2,3,0	89.0	13.0	0.824	1,2,3,0,0,0,0,0,0	to_hand	s573
227.336	0.848	0	PA_with_intermediate	1,0,0,3,0,0,2,0,0	test	ward_and_allport	1,0,0,0,0,0,2,3,0	82.0	13.0	0.848	1,2,3,0,0,0,0,0,0	to_board	s573
228.188	1.929	0	PA_with_intermediate	1,0,0,0,0,0,2,0,0	test	ward_and_allport	1,0,0,0,0,0,2,3,0	71.0	13.0	1.929	1,2,3,0,0,0,0,0,0	to_hand	s573
230.118	0.779	0	PA_with_intermediate	1,0,0,0,0,0,2,3,0	test	ward_and_allport	1,0,0,0,0,0,2,3,0	82.0	13.0	0.779	1,2,3,0,0,0,0,0,0	to_board	s573
230.902	1.0	0	PA_with_intermediate	n/a	test	ward_and_allport	n/a	-1.0	13.0	n/a	n/a	feedback	s573
231.902	1.0	0	PA_with_intermediate	n/a	test	ward_and_allport	n/a	-1.0	13.0	n/a	n/a	ITI	s573
232.907	2.132	1	PA_without_intermediate	1,2,0,0,0,0,0,0,0	test	ward_and_allport	0,0,0,3,2,0,1,0,0	89.0	14.0	2.132	1,2,3,0,0,0,0,0,0	to_hand	s573
235.04	0.862	0	PA_without_intermediate	1,2,0,3,0,0,0,0,0	test	ward_and_allport	0,0,0,3,2,0,1,0,0	71.0	14.0	0.862	1,2,3,0,0,0,0,0,0	to_board	s573
235.906	0.875	0	PA_without_intermediate	1,0,0,3,0,0,0,0,0	test	ward_and_allport	0,0,0,3,2,0,1,0,0	89.0	14.0	0.875	1,2,3,0,0,0,0,0,0	to_hand	s573
236.782	1.814	0	PA_without_intermediate	1,0,0,3,2,0,0,0,0	test	ward_and_allport	0,0,0,3,2,0,1,0,0	71.0	14.0	1.814	1,2,3,0,0,0,0,0,0	to_board	s573
238.601	0.635	0	PA_without_intermediate	0,0,0,3,2,0,0,0,0	test	ward_and_allport	0,0,0,3,2,0,1,0,0	89.0	14.0	0.635	1,2,3,0,0,0,0,0,0	to_hand	s573
239.237	0.754	0	PA_without_intermediate	0,0,0,3,2,0,1,0,0	test	ward_and_allport	0,0,0,3,2,0,1,0,0	82.0	14.0	0.754	1,2,3,0,0,0,0,0,0	to_board	s573
239.998	1.0	0	PA_without_intermediate	n/a	test	ward_and_allport	n/a	-1.0	14.0	n/a	n/a	feedback	s573
240.998	1.0	0	PA_without_intermediate	n/a	test	ward_and_allport	n/a	-1.0	14.0	n/a	n/a	ITI	s573
247.004	1.739	1	PA_without_intermediate	0,0,0,1,2,0,0,0,0	test	ward_and_allport	3,2,0,0,0,0,1,0,0	71.0	15.0	1.739	0,0,0,1,2,3,0,0,0	to_hand	s573
248.745	0.88	0	PA_without_intermediate	3,0,0,1,2,0,0,0,0	test	ward_and_allport	3,2,0,0,0,0,1,0,0	89.0	15.0	0.88	0,0,0,1,2,3,0,0,0	to_board	s573
249.628	0.579	0	PA_without_intermediate	3,0,0,1,0,0,0,0,0	test	ward_and_allport	3,2,0,0,0,0,1,0,0	71.0	15.0	0.579	0,0,0,1,2,3,0,0,0	to_hand	s573
250.208	1.186	0	PA_without_intermediate	3,2,0,1,0,0,0,0,0	test	ward_and_allport	3,2,0,0,0,0,1,0,0	89.0	15.0	1.186	0,0,0,1,2,3,0,0,0	to_board	s573
251.398	0.756	0	PA_without_intermediate	3,2,0,0,0,0,0,0,0	test	ward_and_allport	3,2,0,0,0,0,1,0,0	71.0	15.0	0.756	0,0,0,1,2,3,0,0,0	to_hand	s573
252.155	0.535	0	PA_without_intermediate	3,2,0,0,0,0,1,0,0	test	ward_and_allport	3,2,0,0,0,0,1,0,0	82.0	15.0	0.535	0,0,0,1,2,3,0,0,0	to_board	s573
252.697	1.0	0	PA_without_intermediate	n/a	test	ward_and_allport	n/a	-1.0	15.0	n/a	n/a	feedback	s573
253.697	1.0	0	PA_without_intermediate	n/a	test	ward_and_allport	n/a	-1.0	15.0	n/a	n/a	ITI	s573
254.702	3.094	1	PA_with_intermediate	0,0,0,0,0,0,1,2,0	test	ward_and_allport	2,0,0,0,0,0,1,3,0	82.0	16.0	3.094	0,0,0,0,0,0,1,2,3	to_hand	s573
257.797	1.141	0	PA_with_intermediate	0,0,0,3,0,0,1,2,0	test	ward_and_allport	2,0,0,0,0,0,1,3,0	71.0	16.0	1.141	0,0,0,0,0,0,1,2,3	to_board	s573
258.943	0.967	0	PA_with_intermediate	0,0,0,3,0,0,1,0,0	test	ward_and_allport	2,0,0,0,0,0,1,3,0	82.0	16.0	0.967	0,0,0,0,0,0,1,2,3	to_hand	s573
259.911	0.691	0	PA_with_intermediate	2,0,0,3,0,0,1,0,0	test	ward_and_allport	2,0,0,0,0,0,1,3,0	89.0	16.0	0.691	0,0,0,0,0,0,1,2,3	to_board	s573
260.607	1.777	0	PA_with_intermediate	2,0,0,0,0,0,1,0,0	test	ward_and_allport	2,0,0,0,0,0,1,3,0	71.0	16.0	1.777	0,0,0,0,0,0,1,2,3	to_hand	s573
262.385	0.702	0	PA_with_intermediate	2,0,0,0,0,0,1,3,0	test	ward_and_allport	2,0,0,0,0,0,1,3,0	82.0	16.0	0.702	0,0,0,0,0,0,1,2,3	to_board	s573
263.092	1.0	0	PA_with_intermediate	n/a	test	ward_and_allport	n/a	-1.0	16.0	n/a	n/a	feedback	s573
264.092	1.544	0	PA_with_intermediate	n/a	test	ward_and_allport	n/a	-1.0	16.0	n/a	n/a	ITI	s573
265.642	1.585	1	PA_without_intermediate	0,0,0,1,2,0,0,0,0	test	ward_and_allport	3,1,0,0,0,0,2,0,0	71.0	17.0	1.585	0,0,0,1,2,3,0,0,0	to_hand	s573
267.228	1.165	0	PA_without_intermediate	3,0,0,1,2,0,0,0,0	test	ward_and_allport	3,1,0,0,0,0,2,0,0	89.0	17.0	1.165	0,0,0,1,2,3,0,0,0	to_board	s573
268.397	0.69	0	PA_without_intermediate	3,0,0,1,0,0,0,0,0	test	ward_and_allport	3,1,0,0,0,0,2,0,0	71.0	17.0	0.69	0,0,0,1,2,3,0,0,0	to_hand	s573
269.089	0.653	0	PA_without_intermediate	3,0,0,1,0,0,2,0,0	test	ward_and_allport	3,1,0,0,0,0,2,0,0	82.0	17.0	0.653	0,0,0,1,2,3,0,0,0	to_board	s573
269.746	0.813	0	PA_without_intermediate	3,0,0,0,0,0,2,0,0	test	ward_and_allport	3,1,0,0,0,0,2,0,0	71.0	17.0	0.813	0,0,0,1,2,3,0,0,0	to_hand	s573
270.561	0.686	0	PA_without_intermediate	3,1,0,0,0,0,2,0,0	test	ward_and_allport	3,1,0,0,0,0,2,0,0	89.0	17.0	0.686	0,0,0,1,2,3,0,0,0	to_board	s573
271.252	1.0	0	PA_without_intermediate	n/a	test	ward_and_allport	n/a	-1.0	17.0	n/a	n/a	feedback	s573
272.252	1.272	0	PA_without_intermediate	n/a	test	ward_and_allport	n/a	-1.0	17.0	n/a	n/a	ITI	s573
273.529	1.688	1	PA_with_intermediate	0,0,0,1,2,0,0,0,0	test	ward_and_allport	2,3,0,1,0,0,0,0,0	71.0	18.0	1.688	0,0,0,1,2,3,0,0,0	to_hand	s573
275.219	1.902	0	PA_with_intermediate	0,0,0,1,2,0,3,0,0	test	ward_and_allport	2,3,0,1,0,0,0,0,0	82.0	18.0	1.902	0,0,0,1,2,3,0,0,0	to_board	s573
277.126	0.773	0	PA_with_intermediate	0,0,0,1,0,0,3,0,0	test	ward_and_allport	2,3,0,1,0,0,0,0,0	71.0	18.0	0.773	0,0,0,1,2,3,0,0,0	to_hand	s573
277.899	0.741	0	PA_with_intermediate	2,0,0,1,0,0,3,0,0	test	ward_and_allport	2,3,0,1,0,0,0,0,0	89.0	18.0	0.741	0,0,0,1,2,3,0,0,0	to_board	s573
278.645	1.015	0	PA_with_intermediate	2,0,0,1,0,0,0,0,0	test	ward_and_allport	2,3,0,1,0,0,0,0,0	82.0	18.0	1.015	0,0,0,1,2,3,0,0,0	to_hand	s573
279.661	1.335	0	PA_with_intermediate	2,3,0,1,0,0,0,0,0	test	ward_and_allport	2,3,0,1,0,0,0,0,0	89.0	18.0	1.335	0,0,0,1,2,3,0,0,0	to_board	s573
281.005	1.0	0	PA_with_intermediate	n/a	test	ward_and_allport	n/a	-1.0	18.0	n/a	n/a	feedback	s573
282.005	3.04	0	PA_with_intermediate	n/a	test	ward_and_allport	n/a	-1.0	18.0	n/a	n/a	ITI	s573
285.049	3.517	1	PA_with_intermediate	1,2,0,0,0,0,0,0,0	test	ward_and_allport	1,3,0,0,0,0,2,0,0	89.0	19.0	3.517	1,2,3,0,0,0,0,0,0	to_hand	s573
288.568	0.553	0	PA_with_intermediate	1,2,0,3,0,0,0,0,0	test	ward_and_allport	1,3,0,0,0,0,2,0,0	71.0	19.0	0.553	1,2,3,0,0,0,0,0,0	to_board	s573
289.126	1.049	0	PA_with_intermediate	1,0,0,3,0,0,0,0,0	test	ward_and_allport	1,3,0,0,0,0,2,0,0	89.0	19.0	1.049	1,2,3,0,0,0,0,0,0	to_hand	s573
290.175	0.765	0	PA_with_intermediate	1,0,0,3,0,0,2,0,0	test	ward_and_allport	1,3,0,0,0,0,2,0,0	82.0	19.0	0.765	1,2,3,0,0,0,0,0,0	to_board	s573
290.946	1.041	0	PA_with_intermediate	1,0,0,0,0,0,2,0,0	test	ward_and_allport	1,3,0,0,0,0,2,0,0	71.0	19.0	1.041	1,2,3,0,0,0,0,0,0	to_hand	s573
291.988	0.928	0	PA_with_intermediate	1,3,0,0,0,0,2,0,0	test	ward_and_allport	1,3,0,0,0,0,2,0,0	89.0	19.0	0.928	1,2,3,0,0,0,0,0,0	to_board	s573
292.922	1.0	0	PA_with_intermediate	n/a	test	ward_and_allport	n/a	-1.0	19.0	n/a	n/a	feedback	s573
293.922	1.272	0	PA_with_intermediate	n/a	test	ward_and_allport	n/a	-1.0	19.0	n/a	n/a	ITI	s573
295.2	3.46	1	PA_with_intermediate	1,2,0,0,0,0,0,0,0	test	ward_and_allport	1,3,0,2,0,0,0,0,0	89.0	20.0	3.46	1,2,3,0,0,0,0,0,0	to_hand	s573
298.66	1.217	0	PA_with_intermediate	1,2,0,0,0,0,3,0,0	test	ward_and_allport	1,3,0,2,0,0,0,0,0	82.0	20.0	1.217	1,2,3,0,0,0,0,0,0	to_board	s573
299.883	0.697	0	PA_with_intermediate	1,0,0,0,0,0,3,0,0	test	ward_and_allport	1,3,0,2,0,0,0,0,0	89.0	20.0	0.697	1,2,3,0,0,0,0,0,0	to_hand	s573
300.58	0.492	0	PA_with_intermediate	1,0,0,2,0,0,3,0,0	test	ward_and_allport	1,3,0,2,0,0,0,0,0	71.0	20.0	0.492	1,2,3,0,0,0,0,0,0	to_board	s573
301.078	0.622	0	PA_with_intermediate	1,0,0,2,0,0,0,0,0	test	ward_and_allport	1,3,0,2,0,0,0,0,0	82.0	20.0	0.622	1,2,3,0,0,0,0,0,0	to_hand	s573
301.7	1.191	0	PA_with_intermediate	1,3,0,2,0,0,0,0,0	test	ward_and_allport	1,3,0,2,0,0,0,0,0	89.0	20.0	1.191	1,2,3,0,0,0,0,0,0	to_board	s573
302.899	1.0	0	PA_with_intermediate	n/a	test	ward_and_allport	n/a	-1.0	20.0	n/a	n/a	feedback	s573
303.899	1.136	0	PA_with_intermediate	n/a	test	ward_and_allport	n/a	-1.0	20.0	n/a	n/a	ITI	s573
305.04	3.79	1	PA_with_intermediate	1,2,0,0,0,0,0,0,0	test	ward_and_allport	1,0,0,2,3,0,0,0,0	89.0	21.0	3.79	1,2,3,0,0,0,0,0,0	to_hand	s573
308.83	1.343	0	PA_with_intermediate	1,2,0,0,0,0,3,0,0	test	ward_and_allport	1,0,0,2,3,0,0,0,0	82.0	21.0	1.343	1,2,3,0,0,0,0,0,0	to_board	s573
310.179	1.064	0	PA_with_intermediate	1,0,0,0,0,0,3,0,0	test	ward_and_allport	1,0,0,2,3,0,0,0,0	89.0	21.0	1.064	1,2,3,0,0,0,0,0,0	to_hand	s573
311.244	0.756	0	PA_with_intermediate	1,0,0,2,0,0,3,0,0	test	ward_and_allport	1,0,0,2,3,0,0,0,0	71.0	21.0	0.756	1,2,3,0,0,0,0,0,0	to_board	s573
312.005	0.517	0	PA_with_intermediate	1,0,0,2,0,0,0,0,0	test	ward_and_allport	1,0,0,2,3,0,0,0,0	82.0	21.0	0.517	1,2,3,0,0,0,0,0,0	to_hand	s573
312.523	0.596	0	PA_with_intermediate	1,0,0,2,3,0,0,0,0	test	ward_and_allport	1,0,0,2,3,0,0,0,0	71.0	21.0	0.596	1,2,3,0,0,0,0,0,0	to_board	s573
313.126	1.0	0	PA_with_intermediate	n/a	test	ward_and_allport	n/a	-1.0	21.0	n/a	n/a	feedback	s573
314.126	1.0	0	PA_with_intermediate	n/a	test	ward_and_allport	n/a	-1.0	21.0	n/a	n/a	ITI	s573
315.13	2.318	1	PA_with_intermediate	1,2,0,0,0,0,0,0,0	test	ward_and_allport	1,3,0,0,0,0,2,0,0	89.0	22.0	2.318	1,2,3,0,0,0,0,0,0	to_hand	s573
317.45	0.497	0	PA_with_intermediate	1,2,0,3,0,0,0,0,0	test	ward_and_allport	1,3,0,0,0,0,2,0,0	71.0	22.0	0.497	1,2,3,0,0,0,0,0,0	to_board	s573
317.952	0.575	0	PA_with_intermediate	1,0,0,3,0,0,0,0,0	test	ward_and_allport	1,3,0,0,0,0,2,0,0	89.0	22.0	0.575	1,2,3,0,0,0,0,0,0	to_hand	s573
318.528	0.521	0	PA_with_intermediate	1,0,0,3,0,0,2,0,0	test	ward_and_allport	1,3,0,0,0,0,2,0,0	82.0	22.0	0.521	1,2,3,0,0,0,0,0,0	to_board	s573
319.055	0.628	0	PA_with_intermediate	1,0,0,0,0,0,2,0,0	test	ward_and_allport	1,3,0,0,0,0,2,0,0	71.0	22.0	0.628	1,2,3,0,0,0,0,0,0	to_hand	s573
319.685	0.605	0	PA_with_intermediate	1,3,0,0,0,0,2,0,0	test	ward_and_allport	1,3,0,0,0,0,2,0,0	89.0	22.0	0.605	1,2,3,0,0,0,0,0,0	to_board	s573
320.299	1.0	0	PA_with_intermediate	n/a	test	ward_and_allport	n/a	-1.0	22.0	n/a	n/a	feedback	s573
321.299	1.0	0	PA_with_intermediate	n/a	test	ward_and_allport	n/a	-1.0	22.0	n/a	n/a	ITI	s573
322.305	2.303	1	PA_without_intermediate	0,0,0,0,0,0,1,2,0	test	ward_and_allport	2,0,0,3,1,0,0,0,0	82.0	23.0	2.303	0,0,0,0,0,0,1,2,3	to_hand	s573
324.608	1.003	0	PA_without_intermediate	0,0,0,3,0,0,1,2,0	test	ward_and_allport	2,0,0,3,1,0,0,0,0	71.0	23.0	1.003	0,0,0,0,0,0,1,2,3	to_board	s573
325.618	2.155	0	PA_without_intermediate	0,0,0,3,0,0,1,0,0	test	ward_and_allport	2,0,0,3,1,0,0,0,0	82.0	23.0	2.155	0,0,0,0,0,0,1,2,3	to_hand	s573
327.773	0.612	0	PA_without_intermediate	2,0,0,3,0,0,1,0,0	test	ward_and_allport	2,0,0,3,1,0,0,0,0	89.0	23.0	0.612	0,0,0,0,0,0,1,2,3	to_board	s573
328.392	0.726	0	PA_without_intermediate	2,0,0,3,0,0,0,0,0	test	ward_and_allport	2,0,0,3,1,0,0,0,0	82.0	23.0	0.726	0,0,0,0,0,0,1,2,3	to_hand	s573
329.119	0.519	0	PA_without_intermediate	2,0,0,3,1,0,0,0,0	test	ward_and_allport	2,0,0,3,1,0,0,0,0	71.0	23.0	0.519	0,0,0,0,0,0,1,2,3	to_board	s573
329.646	1.0	0	PA_without_intermediate	n/a	test	ward_and_allport	n/a	-1.0	23.0	n/a	n/a	feedback	s573
330.646	1.408	0	PA_without_intermediate	n/a	test	ward_and_allport	n/a	-1.0	23.0	n/a	n/a	ITI	s573
332.061	2.501	1	PA_with_intermediate	1,2,0,0,0,0,0,0,0	test	ward_and_allport	1,3,0,2,0,0,0,0,0	89.0	24.0	2.501	1,2,3,0,0,0,0,0,0	to_hand	s573
334.563	0.849	0	PA_with_intermediate	1,2,0,0,0,0,3,0,0	test	ward_and_allport	1,3,0,2,0,0,0,0,0	82.0	24.0	0.849	1,2,3,0,0,0,0,0,0	to_board	s573
335.419	1.164	0	PA_with_intermediate	1,0,0,0,0,0,3,0,0	test	ward_and_allport	1,3,0,2,0,0,0,0,0	89.0	24.0	1.164	1,2,3,0,0,0,0,0,0	to_hand	s573
336.583	0.954	0	PA_with_intermediate	1,0,0,2,0,0,3,0,0	test	ward_and_allport	1,3,0,2,0,0,0,0,0	71.0	24.0	0.954	1,2,3,0,0,0,0,0,0	to_board	s573
337.544	0.688	0	PA_with_intermediate	1,0,0,2,0,0,0,0,0	test	ward_and_allport	1,3,0,2,0,0,0,0,0	82.0	24.0	0.688	1,2,3,0,0,0,0,0,0	to_hand	s573
338.233	0.573	0	PA_with_intermediate	1,3,0,2,0,0,0,0,0	test	ward_and_allport	1,3,0,2,0,0,0,0,0	89.0	24.0	0.573	1,2,3,0,0,0,0,0,0	to_board	s573
338.815	1.0	0	PA_with_intermediate	n/a	test	ward_and_allport	n/a	-1.0	24.0	n/a	n/a	feedback	s573
339.815	2.768	0	PA_with_intermediate	n/a	test	ward_and_allport	n/a	-1.0	24.0	n/a	n/a	ITI	s573
342.59	2.34	1	PA_with_intermediate	0,0,0,1,2,0,0,0,0	test	ward_and_allport	2,0,0,1,3,0,0,0,0	71.0	25.0	2.34	0,0,0,1,2,3,0,0,0	to_hand	s573
344.931	0.489	0	PA_with_intermediate	0,0,0,1,2,0,3,0,0	test	ward_and_allport	2,0,0,1,3,0,0,0,0	82.0	25.0	0.489	0,0,0,1,2,3,0,0,0	to_board	s573
345.427	0.66	0	PA_with_intermediate	0,0,0,1,0,0,3,0,0	test	ward_and_allport	2,0,0,1,3,0,0,0,0	71.0	25.0	0.66	0,0,0,1,2,3,0,0,0	to_hand	s573
346.087	0.538	0	PA_with_intermediate	2,0,0,1,0,0,3,0,0	test	ward_and_allport	2,0,0,1,3,0,0,0,0	89.0	25.0	0.538	0,0,0,1,2,3,0,0,0	to_board	s573
346.632	0.511	0	PA_with_intermediate	2,0,0,1,0,0,0,0,0	test	ward_and_allport	2,0,0,1,3,0,0,0,0	82.0	25.0	0.511	0,0,0,1,2,3,0,0,0	to_hand	s573
347.144	0.474	0	PA_with_intermediate	2,0,0,1,3,0,0,0,0	test	ward_and_allport	2,0,0,1,3,0,0,0,0	71.0	25.0	0.474	0,0,0,1,2,3,0,0,0	to_board	s573
347.626	1.0	0	PA_with_intermediate	n/a	test	ward_and_allport	n/a	-1.0	25.0	n/a	n/a	feedback	s573
348.626	1.68	0	PA_with_intermediate	n/a	test	ward_and_allport	n/a	-1.0	25.0	n/a	n/a	ITI	s573
350.312	2.87	1	PA_without_intermediate	0,0,0,0,0,0,1,2,0	test	ward_and_allport	3,1,0,2,0,0,0,0,0	82.0	26.0	2.87	0,0,0,0,0,0,1,2,3	to_hand	s573
353.183	0.784	0	PA_without_intermediate	3,0,0,0,0,0,1,2,0	test	ward_and_allport	3,1,0,2,0,0,0,0,0	89.0	26.0	0.784	0,0,0,0,0,0,1,2,3	to_board	s573
353.974	2.103	0	PA_without_intermediate	3,0,0,0,0,0,1,0,0	test	ward_and_allport	3,1,0,2,0,0,0,0,0	82.0	26.0	2.103	0,0,0,0,0,0,1,2,3	to_hand	s573
356.078	1.053	0	PA_without_intermediate	3,0,0,2,0,0,1,0,0	test	ward_and_allport	3,1,0,2,0,0,0,0,0	71.0	26.0	1.053	0,0,0,0,0,0,1,2,3	to_board	s573
357.137	0.556	0	PA_without_intermediate	3,0,0,2,0,0,0,0,0	test	ward_and_allport	3,1,0,2,0,0,0,0,0	82.0	26.0	0.556	0,0,0,0,0,0,1,2,3	to_hand	s573
357.695	0.553	0	PA_without_intermediate	3,1,0,2,0,0,0,0,0	test	ward_and_allport	3,1,0,2,0,0,0,0,0	89.0	26.0	0.553	0,0,0,0,0,0,1,2,3	to_board	s573
358.255	1.0	0	PA_without_intermediate	n/a	test	ward_and_allport	n/a	-1.0	26.0	n/a	n/a	feedback	s573
359.255	2.224	0	PA_without_intermediate	n/a	test	ward_and_allport	n/a	-1.0	26.0	n/a	n/a	ITI	s573
361.486	1.667	1	PA_without_intermediate	0,0,0,0,0,0,1,2,0	test	ward_and_allport	3,2,0,1,0,0,0,0,0	82.0	27.0	1.667	0,0,0,0,0,0,1,2,3	to_hand	s573
363.154	0.785	0	PA_without_intermediate	3,0,0,0,0,0,1,2,0	test	ward_and_allport	3,2,0,1,0,0,0,0,0	89.0	27.0	0.785	0,0,0,0,0,0,1,2,3	to_board	s573
363.947	0.842	0	PA_without_intermediate	3,0,0,0,0,0,1,0,0	test	ward_and_allport	3,2,0,1,0,0,0,0,0	82.0	27.0	0.842	0,0,0,0,0,0,1,2,3	to_hand	s573
364.79	1.103	0	PA_without_intermediate	3,2,0,0,0,0,1,0,0	test	ward_and_allport	3,2,0,1,0,0,0,0,0	89.0	27.0	1.103	0,0,0,0,0,0,1,2,3	to_board	s573
365.9	0.825	0	PA_without_intermediate	3,2,0,0,0,0,0,0,0	test	ward_and_allport	3,2,0,1,0,0,0,0,0	82.0	27.0	0.825	0,0,0,0,0,0,1,2,3	to_hand	s573
366.725	0.584	0	PA_without_intermediate	3,2,0,1,0,0,0,0,0	test	ward_and_allport	3,2,0,1,0,0,0,0,0	71.0	27.0	0.584	0,0,0,0,0,0,1,2,3	to_board	s573
367.317	1.0	0	PA_without_intermediate	n/a	test	ward_and_allport	n/a	-1.0	27.0	n/a	n/a	feedback	s573
368.317	2.36	0	PA_without_intermediate	n/a	test	ward_and_allport	n/a	-1.0	27.0	n/a	n/a	ITI	s573
370.684	1.682	1	PA_without_intermediate	1,2,0,0,0,0,0,0,0	test	ward_and_allport	0,0,0,3,1,0,2,0,0	89.0	28.0	1.682	1,2,3,0,0,0,0,0,0	to_hand	s573
372.368	1.037	0	PA_without_intermediate	1,2,0,3,0,0,0,0,0	test	ward_and_allport	0,0,0,3,1,0,2,0,0	71.0	28.0	1.037	1,2,3,0,0,0,0,0,0	to_board	s573
373.412	0.795	0	PA_without_intermediate	1,0,0,3,0,0,0,0,0	test	ward_and_allport	0,0,0,3,1,0,2,0,0	89.0	28.0	0.795	1,2,3,0,0,0,0,0,0	to_hand	s573
374.208	0.681	0	PA_without_intermediate	1,0,0,3,0,0,2,0,0	test	ward_and_allport	0,0,0,3,1,0,2,0,0	82.0	28.0	0.681	1,2,3,0,0,0,0,0,0	to_board	s573
374.897	0.541	0	PA_without_intermediate	0,0,0,3,0,0,2,0,0	test	ward_and_allport	0,0,0,3,1,0,2,0,0	89.0	28.0	0.541	1,2,3,0,0,0,0,0,0	to_hand	s573
375.439	0.563	0	PA_without_intermediate	0,0,0,3,1,0,2,0,0	test	ward_and_allport	0,0,0,3,1,0,2,0,0	71.0	28.0	0.563	1,2,3,0,0,0,0,0,0	to_board	s573
376.01	1.0	0	PA_without_intermediate	n/a	test	ward_and_allport	n/a	-1.0	28.0	n/a	n/a	feedback	s573
377.01	1.0	0	PA_without_intermediate	n/a	test	ward_and_allport	n/a	-1.0	28.0	n/a	n/a	ITI	s573
378.018	1.925	1	PA_without_intermediate	1,2,0,0,0,0,0,0,0	test	ward_and_allport	0,0,0,2,0,0,3,1,0	89.0	29.0	1.925	1,2,3,0,0,0,0,0,0	to_hand	s573
379.945	0.776	0	PA_without_intermediate	1,2,0,0,0,0,3,0,0	test	ward_and_allport	0,0,0,2,0,0,3,1,0	82.0	29.0	0.776	1,2,3,0,0,0,0,0,0	to_board	s573
380.727	1.315	0	PA_without_intermediate	1,0,0,0,0,0,3,0,0	test	ward_and_allport	0,0,0,2,0,0,3,1,0	89.0	29.0	1.315	1,2,3,0,0,0,0,0,0	to_hand	s573
382.044	0.482	0	PA_without_intermediate	1,0,0,2,0,0,3,0,0	test	ward_and_allport	0,0,0,2,0,0,3,1,0	71.0	29.0	0.482	1,2,3,0,0,0,0,0,0	to_board	s573
382.533	0.472	0	PA_without_intermediate	0,0,0,2,0,0,3,0,0	test	ward_and_allport	0,0,0,2,0,0,3,1,0	89.0	29.0	0.472	1,2,3,0,0,0,0,0,0	to_hand	s573
383.005	0.522	0	PA_without_intermediate	0,0,0,2,0,0,3,1,0	test	ward_and_allport	0,0,0,2,0,0,3,1,0	82.0	29.0	0.522	1,2,3,0,0,0,0,0,0	to_board	s573
383.536	1.0	0	PA_without_intermediate	n/a	test	ward_and_allport	n/a	-1.0	29.0	n/a	n/a	feedback	s573
384.536	1.408	0	PA_without_intermediate	n/a	test	ward_and_allport	n/a	-1.0	29.0	n/a	n/a	ITI	s573
390.954	1.598	1	PA_with_intermediate	1,2,0,0,0,0,0,0,0	test	ward_and_allport	1,0,0,0,0,0,2,3,0	89.0	30.0	1.598	1,2,3,0,0,0,0,0,0	to_hand	s573
392.553	1.449	0	PA_with_intermediate	1,2,0,3,0,0,0,0,0	test	ward_and_allport	1,0,0,0,0,0,2,3,0	71.0	30.0	1.449	1,2,3,0,0,0,0,0,0	to_board	s573
394.01	0.785	0	PA_with_intermediate	1,0,0,3,0,0,0,0,0	test	ward_and_allport	1,0,0,0,0,0,2,3,0	89.0	30.0	0.785	1,2,3,0,0,0,0,0,0	to_hand	s573
394.796	0.587	0	PA_with_intermediate	1,0,0,3,0,0,2,0,0	test	ward_and_allport	1,0,0,0,0,0,2,3,0	82.0	30.0	0.587	1,2,3,0,0,0,0,0,0	to_board	s573
395.391	0.676	0	PA_with_intermediate	0,0,0,3,0,0,2,0,0	test	ward_and_allport	1,0,0,0,0,0,2,3,0	89.0	30.0	0.676	1,2,3,0,0,0,0,0,0	to_hand	s573
396.067	2.844	0	PA_with_intermediate	1,0,0,3,0,0,2,0,0	test	ward_and_allport	1,0,0,0,0,0,2,3,0	89.0	30.0	2.844	1,2,3,0,0,0,0,0,0	to_board	s573
398.918	1.459	0	PA_with_intermediate	1,0,0,0,0,0,2,0,0	test	ward_and_allport	1,0,0,0,0,0,2,3,0	71.0	30.0	1.459	1,2,3,0,0,0,0,0,0	to_hand	s573
400.379	0.898	0	PA_with_intermediate	1,0,0,0,0,0,2,3,0	test	ward_and_allport	1,0,0,0,0,0,2,3,0	82.0	30.0	0.898	1,2,3,0,0,0,0,0,0	to_board	s573
401.286	1.0	0	PA_with_intermediate	n/a	test	ward_and_allport	n/a	-1.0	30.0	n/a	n/a	feedback	s573
402.286	1.136	0	PA_with_intermediate	n/a	test	ward_and_allport	n/a	-1.0	30.0	n/a	n/a	ITI	s573
403.43	1.779	1	PA_without_intermediate	0,0,0,1,2,0,0,0,0	test	ward_and_allport	1,0,0,0,0,0,3,2,0	71.0	31.0	1.779	0,0,0,1,2,3,0,0,0	to_hand	s573
405.209	1.016	0	PA_without_intermediate	0,0,0,1,2,0,3,0,0	test	ward_and_allport	1,0,0,0,0,0,3,2,0	82.0	31.0	1.016	0,0,0,1,2,3,0,0,0	to_board	s573
406.234	1.113	0	PA_without_intermediate	0,0,0,1,0,0,3,0,0	test	ward_and_allport	1,0,0,0,0,0,3,2,0	71.0	31.0	1.113	0,0,0,1,2,3,0,0,0	to_hand	s573
407.349	0.777	0	PA_without_intermediate	0,0,0,1,0,0,3,2,0	test	ward_and_allport	1,0,0,0,0,0,3,2,0	82.0	31.0	0.777	0,0,0,1,2,3,0,0,0	to_board	s573
408.135	1.224	0	PA_without_intermediate	0,0,0,0,0,0,3,2,0	test	ward_and_allport	1,0,0,0,0,0,3,2,0	71.0	31.0	1.224	0,0,0,1,2,3,0,0,0	to_hand	s573
409.36	0.531	0	PA_without_intermediate	1,0,0,0,0,0,3,2,0	test	ward_and_allport	1,0,0,0,0,0,3,2,0	89.0	31.0	0.531	0,0,0,1,2,3,0,0,0	to_board	s573
409.905	1.0	0	PA_without_intermediate	n/a	test	ward_and_allport	n/a	-1.0	31.0	n/a	n/a	feedback	s573
410.905	4.128	0	PA_without_intermediate	n/a	test	ward_and_allport	n/a	-1.0	31.0	n/a	n/a	ITI	s573
415.042	2.726	1	PA_without_intermediate	0,0,0,0,0,0,1,2,0	test	ward_and_allport	1,0,0,3,2,0,0,0,0	82.0	32.0	2.726	0,0,0,0,0,0,1,2,3	to_hand	s573
417.769	1.002	0	PA_without_intermediate	0,0,0,3,0,0,1,2,0	test	ward_and_allport	1,0,0,3,2,0,0,0,0	71.0	32.0	1.002	0,0,0,0,0,0,1,2,3	to_board	s573
418.781	1.188	0	PA_without_intermediate	0,0,0,3,0,0,1,0,0	test	ward_and_allport	1,0,0,3,2,0,0,0,0	82.0	32.0	1.188	0,0,0,0,0,0,1,2,3	to_hand	s573
419.97	0.684	0	PA_without_intermediate	0,0,0,3,2,0,1,0,0	test	ward_and_allport	1,0,0,3,2,0,0,0,0	71.0	32.0	0.684	0,0,0,0,0,0,1,2,3	to_board	s573
420.663	0.669	0	PA_without_intermediate	0,0,0,3,2,0,0,0,0	test	ward_and_allport	1,0,0,3,2,0,0,0,0	82.0	32.0	0.669	0,0,0,0,0,0,1,2,3	to_hand	s573
421.333	0.564	0	PA_without_intermediate	1,0,0,3,2,0,0,0,0	test	ward_and_allport	1,0,0,3,2,0,0,0,0	89.0	32.0	0.564	0,0,0,0,0,0,1,2,3	to_board	s573
421.905	1.0	0	PA_without_intermediate	n/a	test	ward_and_allport	n/a	-1.0	32.0	n/a	n/a	feedback	s573
422.905	1.136	0	PA_without_intermediate	n/a	test	ward_and_allport	n/a	-1.0	32.0	n/a	n/a	ITI	s573
424.05	1.808	1	PA_without_intermediate	1,2,0,0,0,0,0,0,0	test	ward_and_allport	0,0,0,2,0,0,3,1,0	89.0	33.0	1.808	1,2,3,0,0,0,0,0,0	to_hand	s573
425.859	0.77	0	PA_without_intermediate	1,2,0,0,0,0,3,0,0	test	ward_and_allport	0,0,0,2,0,0,3,1,0	82.0	33.0	0.77	1,2,3,0,0,0,0,0,0	to_board	s573
426.635	1.19	0	PA_without_intermediate	1,0,0,0,0,0,3,0,0	test	ward_and_allport	0,0,0,2,0,0,3,1,0	89.0	33.0	1.19	1,2,3,0,0,0,0,0,0	to_hand	s573
427.825	0.628	0	PA_without_intermediate	1,0,0,2,0,0,3,0,0	test	ward_and_allport	0,0,0,2,0,0,3,1,0	71.0	33.0	0.628	1,2,3,0,0,0,0,0,0	to_board	s573
428.461	0.644	0	PA_without_intermediate	0,0,0,2,0,0,3,0,0	test	ward_and_allport	0,0,0,2,0,0,3,1,0	89.0	33.0	0.644	1,2,3,0,0,0,0,0,0	to_hand	s573
429.106	0.907	0	PA_without_intermediate	0,0,0,2,0,0,3,1,0	test	ward_and_allport	0,0,0,2,0,0,3,1,0	82.0	33.0	0.907	1,2,3,0,0,0,0,0,0	to_board	s573
430.023	1.0	0	PA_without_intermediate	n/a	test	ward_and_allport	n/a	-1.0	33.0	n/a	n/a	feedback	s573
431.023	4.264	0	PA_without_intermediate	n/a	test	ward_and_allport	n/a	-1.0	33.0	n/a	n/a	ITI	s573
435.297	2.314	1	PA_with_intermediate	0,0,0,0,0,0,1,2,0	test	ward_and_allport	0,0,0,2,3,0,1,0,0	82.0	34.0	2.314	0,0,0,0,0,0,1,2,3	to_hand	s573
437.611	1.157	0	PA_with_intermediate	3,0,0,0,0,0,1,2,0	test	ward_and_allport	0,0,0,2,3,0,1,0,0	89.0	34.0	1.157	0,0,0,0,0,0,1,2,3	to_board	s573
438.777	1.079	0	PA_with_intermediate	3,0,0,0,0,0,1,0,0	test	ward_and_allport	0,0,0,2,3,0,1,0,0	82.0	34.0	1.079	0,0,0,0,0,0,1,2,3	to_hand	s573
439.857	0.618	0	PA_with_intermediate	3,0,0,2,0,0,1,0,0	test	ward_and_allport	0,0,0,2,3,0,1,0,0	71.0	34.0	0.618	0,0,0,0,0,0,1,2,3	to_board	s573
440.483	0.479	0	PA_with_intermediate	0,0,0,2,0,0,1,0,0	test	ward_and_allport	0,0,0,2,3,0,1,0,0	89.0	34.0	0.479	0,0,0,0,0,0,1,2,3	to_hand	s573
440.963	0.628	0	PA_with_intermediate	0,0,0,2,3,0,1,0,0	test	ward_and_allport	0,0,0,2,3,0,1,0,0	71.0	34.0	0.628	0,0,0,0,0,0,1,2,3	to_board	s573
441.602	1.0	0	PA_with_intermediate	n/a	test	ward_and_allport	n/a	-1.0	34.0	n/a	n/a	feedback	s573
442.602	3.04	0	PA_with_intermediate	n/a	test	ward_and_allport	n/a	-1.0	34.0	n/a	n/a	ITI	s573
445.651	1.576	1	PA_with_intermediate	0,0,0,0,0,0,1,2,0	test	ward_and_allport	0,0,0,2,3,0,1,0,0	82.0	35.0	1.576	0,0,0,0,0,0,1,2,3	to_hand	s573
447.227	1.067	0	PA_with_intermediate	3,0,0,0,0,0,1,2,0	test	ward_and_allport	0,0,0,2,3,0,1,0,0	89.0	35.0	1.067	0,0,0,0,0,0,1,2,3	to_board	s573
448.304	0.954	0	PA_with_intermediate	3,0,0,0,0,0,1,0,0	test	ward_and_allport	0,0,0,2,3,0,1,0,0	82.0	35.0	0.954	0,0,0,0,0,0,1,2,3	to_hand	s573
449.259	0.61	0	PA_with_intermediate	3,0,0,2,0,0,1,0,0	test	ward_and_allport	0,0,0,2,3,0,1,0,0	71.0	35.0	0.61	0,0,0,0,0,0,1,2,3	to_board	s573
449.878	0.475	0	PA_with_intermediate	0,0,0,2,0,0,1,0,0	test	ward_and_allport	0,0,0,2,3,0,1,0,0	89.0	35.0	0.475	0,0,0,0,0,0,1,2,3	to_hand	s573
450.354	0.48	0	PA_with_intermediate	0,0,0,2,3,0,1,0,0	test	ward_and_allport	0,0,0,2,3,0,1,0,0	71.0	35.0	0.48	0,0,0,0,0,0,1,2,3	to_board	s573
450.845	1.0	0	PA_with_intermediate	n/a	test	ward_and_allport	n/a	-1.0	35.0	n/a	n/a	feedback	s573
451.845	1.136	0	PA_with_intermediate	n/a	test	ward_and_allport	n/a	-1.0	35.0	n/a	n/a	ITI	s573
452.989	2.479	1	PA_with_intermediate	0,0,0,1,2,0,0,0,0	test	ward_and_allport	0,0,0,1,0,0,2,3,0	71.0	36.0	2.479	0,0,0,1,2,3,0,0,0	to_hand	s573
455.47	1.0	0	PA_with_intermediate	3,0,0,1,2,0,0,0,0	test	ward_and_allport	0,0,0,1,0,0,2,3,0	89.0	36.0	1.0	0,0,0,1,2,3,0,0,0	to_board	s573
456.477	0.85	0	PA_with_intermediate	3,0,0,1,0,0,0,0,0	test	ward_and_allport	0,0,0,1,0,0,2,3,0	71.0	36.0	0.85	0,0,0,1,2,3,0,0,0	to_hand	s573
457.329	0.81	0	PA_with_intermediate	3,0,0,1,0,0,2,0,0	test	ward_and_allport	0,0,0,1,0,0,2,3,0	82.0	36.0	0.81	0,0,0,1,2,3,0,0,0	to_board	s573
458.146	0.508	0	PA_with_intermediate	0,0,0,1,0,0,2,0,0	test	ward_and_allport	0,0,0,1,0,0,2,3,0	89.0	36.0	0.508	0,0,0,1,2,3,0,0,0	to_hand	s573
458.655	0.756	0	PA_with_intermediate	0,0,0,1,0,0,2,3,0	test	ward_and_allport	0,0,0,1,0,0,2,3,0	82.0	36.0	0.756	0,0,0,1,2,3,0,0,0	to_board	s573
459.421	1.0	0	PA_with_intermediate	n/a	test	ward_and_allport	n/a	-1.0	36.0	n/a	n/a	feedback	s573
460.421	1.408	0	PA_with_intermediate	n/a	test	ward_and_allport	n/a	-1.0	36.0	n/a	n/a	ITI	s573
461.839	1.566	1	PA_without_intermediate	0,0,0,1,2,0,0,0,0	test	ward_and_allport	3,2,0,0,0,0,1,0,0	71.0	37.0	1.566	0,0,0,1,2,3,0,0,0	to_hand	s573
463.406	1.028	0	PA_without_intermediate	3,0,0,1,2,0,0,0,0	test	ward_and_allport	3,2,0,0,0,0,1,0,0	89.0	37.0	1.028	0,0,0,1,2,3,0,0,0	to_board	s573
464.443	0.678	0	PA_without_intermediate	3,0,0,1,0,0,0,0,0	test	ward_and_allport	3,2,0,0,0,0,1,0,0	71.0	37.0	0.678	0,0,0,1,2,3,0,0,0	to_hand	s573
465.123	0.944	0	PA_without_intermediate	3,2,0,1,0,0,0,0,0	test	ward_and_allport	3,2,0,0,0,0,1,0,0	89.0	37.0	0.944	0,0,0,1,2,3,0,0,0	to_board	s573
466.075	0.761	0	PA_without_intermediate	3,2,0,0,0,0,0,0,0	test	ward_and_allport	3,2,0,0,0,0,1,0,0	71.0	37.0	0.761	0,0,0,1,2,3,0,0,0	to_hand	s573
466.838	0.642	0	PA_without_intermediate	3,2,0,0,0,0,1,0,0	test	ward_and_allport	3,2,0,0,0,0,1,0,0	82.0	37.0	0.642	0,0,0,1,2,3,0,0,0	to_board	s573
467.489	1.0	0	PA_without_intermediate	n/a	test	ward_and_allport	n/a	-1.0	37.0	n/a	n/a	feedback	s573
468.489	1.68	0	PA_without_intermediate	n/a	test	ward_and_allport	n/a	-1.0	37.0	n/a	n/a	ITI	s573
470.177	2.032	1	PA_with_intermediate	0,0,0,1,2,0,0,0,0	test	ward_and_allport	2,3,0,1,0,0,0,0,0	71.0	38.0	2.032	0,0,0,1,2,3,0,0,0	to_hand	s573
472.209	0.923	0	PA_with_intermediate	0,0,0,1,2,0,3,0,0	test	ward_and_allport	2,3,0,1,0,0,0,0,0	82.0	38.0	0.923	0,0,0,1,2,3,0,0,0	to_board	s573
473.138	0.769	0	PA_with_intermediate	0,0,0,1,0,0,3,0,0	test	ward_and_allport	2,3,0,1,0,0,0,0,0	71.0	38.0	0.769	0,0,0,1,2,3,0,0,0	to_hand	s573
473.908	0.693	0	PA_with_intermediate	2,0,0,1,0,0,3,0,0	test	ward_and_allport	2,3,0,1,0,0,0,0,0	89.0	38.0	0.693	0,0,0,1,2,3,0,0,0	to_board	s573
474.608	0.809	0	PA_with_intermediate	2,0,0,1,0,0,0,0,0	test	ward_and_allport	2,3,0,1,0,0,0,0,0	82.0	38.0	0.809	0,0,0,1,2,3,0,0,0	to_hand	s573
475.419	0.56	0	PA_with_intermediate	2,3,0,1,0,0,0,0,0	test	ward_and_allport	2,3,0,1,0,0,0,0,0	89.0	38.0	0.56	0,0,0,1,2,3,0,0,0	to_board	s573
475.99	1.0	0	PA_with_intermediate	n/a	test	ward_and_allport	n/a	-1.0	38.0	n/a	n/a	feedback	s573
476.99	3.72	0	PA_with_intermediate	n/a	test	ward_and_allport	n/a	-1.0	38.0	n/a	n/a	ITI	s573
480.719	2.125	1	PA_without_intermediate	0,0,0,0,0,0,1,2,0	test	ward_and_allport	3,1,0,2,0,0,0,0,0	82.0	39.0	2.125	0,0,0,0,0,0,1,2,3	to_hand	s573
482.845	0.802	0	PA_without_intermediate	3,0,0,0,0,0,1,2,0	test	ward_and_allport	3,1,0,2,0,0,0,0,0	89.0	39.0	0.802	0,0,0,0,0,0,1,2,3	to_board	s573
483.655	1.6	0	PA_without_intermediate	3,0,0,0,0,0,1,0,0	test	ward_and_allport	3,1,0,2,0,0,0,0,0	82.0	39.0	1.6	0,0,0,0,0,0,1,2,3	to_hand	s573
485.256	0.722	0	PA_without_intermediate	3,0,0,2,0,0,1,0,0	test	ward_and_allport	3,1,0,2,0,0,0,0,0	71.0	39.0	0.722	0,0,0,0,0,0,1,2,3	to_board	s573
485.988	0.586	0	PA_without_intermediate	3,0,0,2,0,0,0,0,0	test	ward_and_allport	3,1,0,2,0,0,0,0,0	82.0	39.0	0.586	0,0,0,0,0,0,1,2,3	to_hand	s573
486.575	0.587	0	PA_without_intermediate	3,1,0,2,0,0,0,0,0	test	ward_and_allport	3,1,0,2,0,0,0,0,0	89.0	39.0	0.587	0,0,0,0,0,0,1,2,3	to_board	s573
487.171	1.0	0	PA_without_intermediate	n/a	test	ward_and_allport	n/a	-1.0	39.0	n/a	n/a	feedback	s573
488.171	2.224	0	PA_without_intermediate	n/a	test	ward_and_allport	n/a	-1.0	39.0	n/a	n/a	ITI	s573
490.404	1.62	1	PA_without_intermediate	0,0,0,1,2,0,0,0,0	test	ward_and_allport	1,0,0,0,0,0,3,2,0	71.0	40.0	1.62	0,0,0,1,2,3,0,0,0	to_hand	s573
492.025	0.736	0	PA_without_intermediate	0,0,0,1,2,0,3,0,0	test	ward_and_allport	1,0,0,0,0,0,3,2,0	82.0	40.0	0.736	0,0,0,1,2,3,0,0,0	to_board	s573
492.771	0.677	0	PA_without_intermediate	0,0,0,1,0,0,3,0,0	test	ward_and_allport	1,0,0,0,0,0,3,2,0	71.0	40.0	0.677	0,0,0,1,2,3,0,0,0	to_hand	s573
493.449	0.724	0	PA_without_intermediate	0,0,0,1,0,0,3,2,0	test	ward_and_allport	1,0,0,0,0,0,3,2,0	82.0	40.0	0.724	0,0,0,1,2,3,0,0,0	to_board	s573
494.182	0.752	0	PA_without_intermediate	0,0,0,0,0,0,3,2,0	test	ward_and_allport	1,0,0,0,0,0,3,2,0	71.0	40.0	0.752	0,0,0,1,2,3,0,0,0	to_hand	s573
494.935	0.802	0	PA_without_intermediate	1,0,0,0,0,0,3,2,0	test	ward_and_allport	1,0,0,0,0,0,3,2,0	89.0	40.0	0.802	0,0,0,1,2,3,0,0,0	to_board	s573
495.75	1.0	0	PA_without_intermediate	n/a	test	ward_and_allport	n/a	-1.0	40.0	n/a	n/a	feedback	s573
496.75	1.272	0	PA_without_intermediate	n/a	test	ward_and_allport	n/a	-1.0	40.0	n/a	n/a	ITI	s573
498.029	3.095	1	PA_with_intermediate	0,0,0,0,0,0,1,2,0	test	ward_and_allport	2,0,0,0,0,0,1,3,0	82.0	41.0	3.095	0,0,0,0,0,0,1,2,3	to_hand	s573
501.124	0.592	0	PA_with_intermediate	0,0,0,3,0,0,1,2,0	test	ward_and_allport	2,0,0,0,0,0,1,3,0	71.0	41.0	0.592	0,0,0,0,0,0,1,2,3	to_board	s573
501.723	0.862	0	PA_with_intermediate	0,0,0,3,0,0,1,0,0	test	ward_and_allport	2,0,0,0,0,0,1,3,0	82.0	41.0	0.862	0,0,0,0,0,0,1,2,3	to_hand	s573
502.587	0.593	0	PA_with_intermediate	2,0,0,3,0,0,1,0,0	test	ward_and_allport	2,0,0,0,0,0,1,3,0	89.0	41.0	0.593	0,0,0,0,0,0,1,2,3	to_board	s573
503.188	0.82	0	PA_with_intermediate	2,0,0,0,0,0,1,0,0	test	ward_and_allport	2,0,0,0,0,0,1,3,0	71.0	41.0	0.82	0,0,0,0,0,0,1,2,3	to_hand	s573
504.009	0.699	0	PA_with_intermediate	2,0,0,0,0,0,1,3,0	test	ward_and_allport	2,0,0,0,0,0,1,3,0	82.0	41.0	0.699	0,0,0,0,0,0,1,2,3	to_board	s573
504.721	1.0	0	PA_with_intermediate	n/a	test	ward_and_allport	n/a	-1.0	41.0	n/a	n/a	feedback	s573
505.721	2.632	0	PA_with_intermediate	n/a	test	ward_and_allport	n/a	-1.0	41.0	n/a	n/a	ITI	s573
508.361	1.433	1	PA_without_intermediate	0,0,0,1,2,0,0,0,0	test	ward_and_allport	2,0,0,0,0,0,3,1,0	71.0	42.0	1.433	0,0,0,1,2,3,0,0,0	to_hand	s573
509.795	0.73	0	PA_without_intermediate	0,0,0,1,2,0,3,0,0	test	ward_and_allport	2,0,0,0,0,0,3,1,0	82.0	42.0	0.73	0,0,0,1,2,3,0,0,0	to_board	s573
510.535	0.627	0	PA_without_intermediate	0,0,0,1,0,0,3,0,0	test	ward_and_allport	2,0,0,0,0,0,3,1,0	71.0	42.0	0.627	0,0,0,1,2,3,0,0,0	to_hand	s573
511.163	0.605	0	PA_without_intermediate	2,0,0,1,0,0,3,0,0	test	ward_and_allport	2,0,0,0,0,0,3,1,0	89.0	42.0	0.605	0,0,0,1,2,3,0,0,0	to_board	s573
511.778	0.512	0	PA_without_intermediate	2,0,0,0,0,0,3,0,0	test	ward_and_allport	2,0,0,0,0,0,3,1,0	71.0	42.0	0.512	0,0,0,1,2,3,0,0,0	to_hand	s573
512.291	0.604	0	PA_without_intermediate	2,0,0,0,0,0,3,1,0	test	ward_and_allport	2,0,0,0,0,0,3,1,0	82.0	42.0	0.604	0,0,0,1,2,3,0,0,0	to_board	s573
512.905	1.0	0	PA_without_intermediate	n/a	test	ward_and_allport	n/a	-1.0	42.0	n/a	n/a	feedback	s573
513.905	1.408	0	PA_without_intermediate	n/a	test	ward_and_allport	n/a	-1.0	42.0	n/a	n/a	ITI	s573
515.321	2.378	1	PA_without_intermediate	1,2,0,0,0,0,0,0,0	test	ward_and_allport	0,0,0,3,2,0,1,0,0	89.0	43.0	2.378	1,2,3,0,0,0,0,0,0	to_hand	s573
517.7	0.625	0	PA_without_intermediate	1,2,0,3,0,0,0,0,0	test	ward_and_allport	0,0,0,3,2,0,1,0,0	71.0	43.0	0.625	1,2,3,0,0,0,0,0,0	to_board	s573
518.332	0.555	0	PA_without_intermediate	1,0,0,3,0,0,0,0,0	test	ward_and_allport	0,0,0,3,2,0,1,0,0	89.0	43.0	0.555	1,2,3,0,0,0,0,0,0	to_hand	s573
518.889	0.899	0	PA_without_intermediate	1,0,0,3,2,0,0,0,0	test	ward_and_allport	0,0,0,3,2,0,1,0,0	71.0	43.0	0.899	1,2,3,0,0,0,0,0,0	to_board	s573
519.797	0.562	0	PA_without_intermediate	0,0,0,3,2,0,0,0,0	test	ward_and_allport	0,0,0,3,2,0,1,0,0	89.0	43.0	0.562	1,2,3,0,0,0,0,0,0	to_hand	s573
520.361	0.643	0	PA_without_intermediate	0,0,0,3,2,0,1,0,0	test	ward_and_allport	0,0,0,3,2,0,1,0,0	82.0	43.0	0.643	1,2,3,0,0,0,0,0,0	to_board	s573
521.015	1.0	0	PA_without_intermediate	n/a	test	ward_and_allport	n/a	-1.0	43.0	n/a	n/a	feedback	s573
522.015	1.0	0	PA_without_intermediate	n/a	test	ward_and_allport	n/a	-1.0	43.0	n/a	n/a	ITI	s573
523.025	1.79	1	PA_with_intermediate	0,0,0,1,2,0,0,0,0	test	ward_and_allport	0,0,0,1,0,0,2,3,0	71.0	44.0	1.79	0,0,0,1,2,3,0,0,0	to_hand	s573
524.815	1.177	0	PA_with_intermediate	3,0,0,1,2,0,0,0,0	test	ward_and_allport	0,0,0,1,0,0,2,3,0	89.0	44.0	1.177	0,0,0,1,2,3,0,0,0	to_board	s573
526.001	0.809	0	PA_with_intermediate	3,0,0,1,0,0,0,0,0	test	ward_and_allport	0,0,0,1,0,0,2,3,0	71.0	44.0	0.809	0,0,0,1,2,3,0,0,0	to_hand	s573
526.812	0.692	0	PA_with_intermediate	3,0,0,1,0,0,2,0,0	test	ward_and_allport	0,0,0,1,0,0,2,3,0	82.0	44.0	0.692	0,0,0,1,2,3,0,0,0	to_board	s573
527.511	0.66	0	PA_with_intermediate	0,0,0,1,0,0,2,0,0	test	ward_and_allport	0,0,0,1,0,0,2,3,0	89.0	44.0	0.66	0,0,0,1,2,3,0,0,0	to_hand	s573
528.172	0.618	0	PA_with_intermediate	0,0,0,1,0,0,2,3,0	test	ward_and_allport	0,0,0,1,0,0,2,3,0	82.0	44.0	0.618	0,0,0,1,2,3,0,0,0	to_board	s573
528.802	1.0	0	PA_with_intermediate	n/a	test	ward_and_allport	n/a	-1.0	44.0	n/a	n/a	feedback	s573
529.802	1.0	0	PA_with_intermediate	n/a	test	ward_and_allport	n/a	-1.0	44.0	n/a	n/a	ITI	s573
535.811	1.919	1	PA_with_intermediate	1,2,0,0,0,0,0,0,0	test	ward_and_allport	1,0,0,2,3,0,0,0,0	89.0	45.0	1.919	1,2,3,0,0,0,0,0,0	to_hand	s573
537.731	0.79	0	PA_with_intermediate	1,2,0,0,0,0,3,0,0	test	ward_and_allport	1,0,0,2,3,0,0,0,0	82.0	45.0	0.79	1,2,3,0,0,0,0,0,0	to_board	s573
538.53	0.91	0	PA_with_intermediate	1,0,0,0,0,0,3,0,0	test	ward_and_allport	1,0,0,2,3,0,0,0,0	89.0	45.0	0.91	1,2,3,0,0,0,0,0,0	to_hand	s573
539.441	0.625	0	PA_with_intermediate	1,0,0,2,0,0,3,0,0	test	ward_and_allport	1,0,0,2,3,0,0,0,0	71.0	45.0	0.625	1,2,3,0,0,0,0,0,0	to_board	s573
540.075	0.489	0	PA_with_intermediate	1,0,0,2,0,0,0,0,0	test	ward_and_allport	1,0,0,2,3,0,0,0,0	82.0	45.0	0.489	1,2,3,0,0,0,0,0,0	to_hand	s573
540.566	0.46	0	PA_with_intermediate	1,0,0,2,3,0,0,0,0	test	ward_and_allport	1,0,0,2,3,0,0,0,0	71.0	45.0	0.46	1,2,3,0,0,0,0,0,0	to_board	s573
541.042	1.0	0	PA_with_intermediate	n/a	test	ward_and_allport	n/a	-1.0	45.0	n/a	n/a	feedback	s573
542.042	1.0	0	PA_with_intermediate	n/a	test	ward_and_allport	n/a	-1.0	45.0	n/a	n/a	ITI	s573
543.054	2.206	1	PA_with_intermediate	0,0,0,0,0,0,1,2,0	test	ward_and_allport	2,3,0,0,0,0,1,0,0	82.0	46.0	2.206	0,0,0,0,0,0,1,2,3	to_hand	s573
545.261	2.163	0	PA_with_intermediate	0,0,0,3,0,0,1,2,0	test	ward_and_allport	2,3,0,0,0,0,1,0,0	71.0	46.0	2.163	0,0,0,0,0,0,1,2,3	to_board	s573
547.435	1.13	0	PA_with_intermediate	0,0,0,3,0,0,1,0,0	test	ward_and_allport	2,3,0,0,0,0,1,0,0	82.0	46.0	1.13	0,0,0,0,0,0,1,2,3	to_hand	s573
548.566	0.798	0	PA_with_intermediate	2,0,0,3,0,0,1,0,0	test	ward_and_allport	2,3,0,0,0,0,1,0,0	89.0	46.0	0.798	0,0,0,0,0,0,1,2,3	to_board	s573
549.372	0.492	0	PA_with_intermediate	2,0,0,0,0,0,1,0,0	test	ward_and_allport	2,3,0,0,0,0,1,0,0	71.0	46.0	0.492	0,0,0,0,0,0,1,2,3	to_hand	s573
549.866	0.459	0	PA_with_intermediate	2,3,0,0,0,0,1,0,0	test	ward_and_allport	2,3,0,0,0,0,1,0,0	89.0	46.0	0.459	0,0,0,0,0,0,1,2,3	to_board	s573
550.336	1.0	0	PA_with_intermediate	n/a	test	ward_and_allport	n/a	-1.0	46.0	n/a	n/a	feedback	s573
551.336	1.408	0	PA_with_intermediate	n/a	test	ward_and_allport	n/a	-1.0	46.0	n/a	n/a	ITI	s573
552.754	1.731	1	PA_without_intermediate	0,0,0,0,0,0,1,2,0	test	ward_and_allport	1,0,0,3,2,0,0,0,0	82.0	47.0	1.731	0,0,0,0,0,0,1,2,3	to_hand	s573
554.487	0.813	0	PA_without_intermediate	0,0,0,3,0,0,1,2,0	test	ward_and_allport	1,0,0,3,2,0,0,0,0	71.0	47.0	0.813	0,0,0,0,0,0,1,2,3	to_board	s573
555.308	0.661	0	PA_without_intermediate	0,0,0,3,0,0,1,0,0	test	ward_and_allport	1,0,0,3,2,0,0,0,0	82.0	47.0	0.661	0,0,0,0,0,0,1,2,3	to_hand	s573
555.97	0.741	0	PA_without_intermediate	0,0,0,3,2,0,1,0,0	test	ward_and_allport	1,0,0,3,2,0,0,0,0	71.0	47.0	0.741	0,0,0,0,0,0,1,2,3	to_board	s573
556.72	0.53	0	PA_without_intermediate	0,0,0,3,2,0,0,0,0	test	ward_and_allport	1,0,0,3,2,0,0,0,0	82.0	47.0	0.53	0,0,0,0,0,0,1,2,3	to_hand	s573
557.251	0.565	0	PA_without_intermediate	1,0,0,3,2,0,0,0,0	test	ward_and_allport	1,0,0,3,2,0,0,0,0	89.0	47.0	0.565	0,0,0,0,0,0,1,2,3	to_board	s573
557.827	1.0	0	PA_without_intermediate	n/a	test	ward_and_allport	n/a	-1.0	47.0	n/a	n/a	feedback	s573
558.827	1.816	0	PA_without_intermediate	n/a	test	ward_and_allport	n/a	-1.0	47.0	n/a	n/a	ITI	s573
n/a	n/a	0	n/a	n/a	n/a	n/a	n/a	n/a	n/a	n/a	n/a	ITI	n/a
