onset	duration	planning	condition	current_position	exp_stage	experiment_exp_id	goal_state	key_press	problem_id	response_time	start_state	trial_id	worker_id
-58.716	0.0	0	n/a	n/a	n/a	ward_and_allport	n/a	32.0	n/a	22.889	n/a	instructions	s621
3.014	3.666	1	UA_with_intermediate	1,0,0,2,0,0,0,0,0	practice	ward_and_allport	1,2,3,0,0,0,0,0,0	71.0	0.0	3.666	1,0,0,2,3,0,0,0,0	to_hand	s621
6.681	0.854	0	UA_with_intermediate	1,3,0,2,0,0,0,0,0	practice	ward_and_allport	1,2,3,0,0,0,0,0,0	89.0	0.0	0.854	1,0,0,2,3,0,0,0,0	to_board	s621
7.536	4.767	0	UA_with_intermediate	1,0,0,2,0,0,0,0,0	practice	ward_and_allport	1,2,3,0,0,0,0,0,0	89.0	0.0	4.767	1,0,0,2,3,0,0,0,0	to_hand	s621
12.305	2.196	0	UA_with_intermediate	1,0,0,2,0,0,3,0,0	practice	ward_and_allport	1,2,3,0,0,0,0,0,0	82.0	0.0	2.196	1,0,0,2,3,0,0,0,0	to_board	s621
14.502	0.984	0	UA_with_intermediate	1,0,0,0,0,0,3,0,0	practice	ward_and_allport	1,2,3,0,0,0,0,0,0	71.0	0.0	0.984	1,0,0,2,3,0,0,0,0	to_hand	s621
15.487	0.975	0	UA_with_intermediate	1,2,0,0,0,0,3,0,0	practice	ward_and_allport	1,2,3,0,0,0,0,0,0	89.0	0.0	0.975	1,0,0,2,3,0,0,0,0	to_board	s621
16.464	0.953	0	UA_with_intermediate	1,2,0,0,0,0,0,0,0	practice	ward_and_allport	1,2,3,0,0,0,0,0,0	82.0	0.0	0.953	1,0,0,2,3,0,0,0,0	to_hand	s621
17.417	0.78	0	UA_with_intermediate	1,2,3,0,0,0,0,0,0	practice	ward_and_allport	1,2,3,0,0,0,0,0,0	89.0	0.0	0.78	1,0,0,2,3,0,0,0,0	to_board	s621
18.201	1.0	0	UA_with_intermediate	n/a	practice	ward_and_allport	n/a	-1.0	0.0	n/a	n/a	feedback	s621
20.703	3.605	1	UA_with_intermediate	1,0,0,3,0,0,0,0,0	practice	ward_and_allport	1,3,2,0,0,0,0,0,0	89.0	1.0	3.605	1,2,0,3,0,0,0,0,0	to_hand	s621
24.309	0.92	0	UA_with_intermediate	1,0,0,3,0,0,2,0,0	practice	ward_and_allport	1,3,2,0,0,0,0,0,0	82.0	1.0	0.92	1,2,0,3,0,0,0,0,0	to_board	s621
25.231	1.419	0	UA_with_intermediate	1,0,0,0,0,0,2,0,0	practice	ward_and_allport	1,3,2,0,0,0,0,0,0	71.0	1.0	1.419	1,2,0,3,0,0,0,0,0	to_hand	s621
26.651	0.372	0	UA_with_intermediate	1,3,0,0,0,0,2,0,0	practice	ward_and_allport	1,3,2,0,0,0,0,0,0	89.0	1.0	0.372	1,2,0,3,0,0,0,0,0	to_board	s621
27.024	1.285	0	UA_with_intermediate	1,3,0,0,0,0,0,0,0	practice	ward_and_allport	1,3,2,0,0,0,0,0,0	82.0	1.0	1.285	1,2,0,3,0,0,0,0,0	to_hand	s621
28.31	0.417	0	UA_with_intermediate	1,3,2,0,0,0,0,0,0	practice	ward_and_allport	1,3,2,0,0,0,0,0,0	89.0	1.0	0.417	1,2,0,3,0,0,0,0,0	to_board	s621
28.731	1.0	0	UA_with_intermediate	n/a	practice	ward_and_allport	n/a	-1.0	1.0	n/a	n/a	feedback	s621
29.731	1.1	0	UA_with_intermediate	n/a	practice	ward_and_allport	n/a	-1.0	1.0	n/a	n/a	ITI	s621
30.833	3.545	1	UA_without_intermediate	0,0,0,1,2,0,0,0,0	practice	ward_and_allport	3,2,1,0,0,0,0,0,0	82.0	2.0	3.545	0,0,0,1,2,0,3,0,0	to_hand	s621
34.379	0.521	0	UA_without_intermediate	3,0,0,1,2,0,0,0,0	practice	ward_and_allport	3,2,1,0,0,0,0,0,0	89.0	2.0	0.521	0,0,0,1,2,0,3,0,0	to_board	s621
34.902	0.763	0	UA_without_intermediate	3,0,0,1,0,0,0,0,0	practice	ward_and_allport	3,2,1,0,0,0,0,0,0	71.0	2.0	0.763	0,0,0,1,2,0,3,0,0	to_hand	s621
35.666	0.348	0	UA_without_intermediate	3,2,0,1,0,0,0,0,0	practice	ward_and_allport	3,2,1,0,0,0,0,0,0	89.0	2.0	0.348	0,0,0,1,2,0,3,0,0	to_board	s621
36.016	1.261	0	UA_without_intermediate	3,2,0,0,0,0,0,0,0	practice	ward_and_allport	3,2,1,0,0,0,0,0,0	71.0	2.0	1.261	0,0,0,1,2,0,3,0,0	to_hand	s621
37.279	0.354	0	UA_without_intermediate	3,2,1,0,0,0,0,0,0	practice	ward_and_allport	3,2,1,0,0,0,0,0,0	89.0	2.0	0.354	0,0,0,1,2,0,3,0,0	to_board	s621
37.637	1.0	0	UA_without_intermediate	n/a	practice	ward_and_allport	n/a	-1.0	2.0	n/a	n/a	feedback	s621
38.637	1.2	0	UA_without_intermediate	n/a	practice	ward_and_allport	n/a	-1.0	2.0	n/a	n/a	ITI	s621
39.839	3.381	1	UA_without_intermediate	0,0,0,1,0,0,3,0,0	practice	ward_and_allport	2,3,1,0,0,0,0,0,0	71.0	3.0	3.381	0,0,0,1,2,0,3,0,0	to_hand	s621
43.22	0.338	0	UA_without_intermediate	2,0,0,1,0,0,3,0,0	practice	ward_and_allport	2,3,1,0,0,0,0,0,0	89.0	3.0	0.338	0,0,0,1,2,0,3,0,0	to_board	s621
43.561	1.879	0	UA_without_intermediate	2,0,0,1,0,0,0,0,0	practice	ward_and_allport	2,3,1,0,0,0,0,0,0	82.0	3.0	1.879	0,0,0,1,2,0,3,0,0	to_hand	s621
45.441	0.622	0	UA_without_intermediate	2,3,0,1,0,0,0,0,0	practice	ward_and_allport	2,3,1,0,0,0,0,0,0	89.0	3.0	0.622	0,0,0,1,2,0,3,0,0	to_board	s621
46.065	0.428	0	UA_without_intermediate	2,3,0,0,0,0,0,0,0	practice	ward_and_allport	2,3,1,0,0,0,0,0,0	71.0	3.0	0.428	0,0,0,1,2,0,3,0,0	to_hand	s621
46.494	0.912	0	UA_without_intermediate	2,3,1,0,0,0,0,0,0	practice	ward_and_allport	2,3,1,0,0,0,0,0,0	89.0	3.0	0.912	0,0,0,1,2,0,3,0,0	to_board	s621
47.41	1.0	0	UA_without_intermediate	n/a	practice	ward_and_allport	n/a	-1.0	3.0	n/a	n/a	feedback	s621
48.41	1.0	0	UA_without_intermediate	n/a	practice	ward_and_allport	n/a	-1.0	3.0	n/a	n/a	ITI	s621
51.416	4.312	1	PA_with_intermediate	1,2,0,0,0,0,0,0,0	test	ward_and_allport	1,0,0,0,0,0,2,3,0	89.0	0.0	4.312	1,2,3,0,0,0,0,0,0	to_hand	s621
55.729	0.445	0	PA_with_intermediate	1,2,0,3,0,0,0,0,0	test	ward_and_allport	1,0,0,0,0,0,2,3,0	71.0	0.0	0.445	1,2,3,0,0,0,0,0,0	to_board	s621
56.176	1.785	0	PA_with_intermediate	1,0,0,3,0,0,0,0,0	test	ward_and_allport	1,0,0,0,0,0,2,3,0	89.0	0.0	1.785	1,2,3,0,0,0,0,0,0	to_hand	s621
57.962	1.489	0	PA_with_intermediate	1,0,0,3,0,0,2,0,0	test	ward_and_allport	1,0,0,0,0,0,2,3,0	82.0	0.0	1.489	1,2,3,0,0,0,0,0,0	to_board	s621
59.453	1.139	0	PA_with_intermediate	1,0,0,0,0,0,2,0,0	test	ward_and_allport	1,0,0,0,0,0,2,3,0	71.0	0.0	1.139	1,2,3,0,0,0,0,0,0	to_hand	s621
60.593	0.356	0	PA_with_intermediate	1,0,0,0,0,0,2,3,0	test	ward_and_allport	1,0,0,0,0,0,2,3,0	82.0	0.0	0.356	1,2,3,0,0,0,0,0,0	to_board	s621
60.954	1.0	0	PA_with_intermediate	n/a	test	ward_and_allport	n/a	-1.0	0.0	n/a	n/a	feedback	s621
61.954	2.768	0	PA_with_intermediate	n/a	test	ward_and_allport	n/a	-1.0	0.0	n/a	n/a	ITI	s621
64.723	4.114	1	PA_with_intermediate	0,0,0,1,2,0,0,0,0	test	ward_and_allport	2,3,0,1,0,0,0,0,0	71.0	1.0	4.114	0,0,0,1,2,3,0,0,0	to_hand	s621
68.839	0.452	0	PA_with_intermediate	0,0,0,1,2,0,3,0,0	test	ward_and_allport	2,3,0,1,0,0,0,0,0	82.0	1.0	0.452	0,0,0,1,2,3,0,0,0	to_board	s621
69.292	0.653	0	PA_with_intermediate	0,0,0,1,0,0,3,0,0	test	ward_and_allport	2,3,0,1,0,0,0,0,0	71.0	1.0	0.653	0,0,0,1,2,3,0,0,0	to_hand	s621
69.947	0.972	0	PA_with_intermediate	2,0,0,1,0,0,3,0,0	test	ward_and_allport	2,3,0,1,0,0,0,0,0	89.0	1.0	0.972	0,0,0,1,2,3,0,0,0	to_board	s621
70.921	1.17	0	PA_with_intermediate	2,0,0,1,0,0,0,0,0	test	ward_and_allport	2,3,0,1,0,0,0,0,0	82.0	1.0	1.17	0,0,0,1,2,3,0,0,0	to_hand	s621
72.092	1.063	0	PA_with_intermediate	2,3,0,1,0,0,0,0,0	test	ward_and_allport	2,3,0,1,0,0,0,0,0	89.0	1.0	1.063	0,0,0,1,2,3,0,0,0	to_board	s621
73.157	1.0	0	PA_with_intermediate	n/a	test	ward_and_allport	n/a	-1.0	1.0	n/a	n/a	feedback	s621
74.157	1.68	0	PA_with_intermediate	n/a	test	ward_and_allport	n/a	-1.0	1.0	n/a	n/a	ITI	s621
75.839	3.676	1	PA_without_intermediate	0,0,0,1,2,0,0,0,0	test	ward_and_allport	3,1,0,0,0,0,2,0,0	71.0	2.0	3.676	0,0,0,1,2,3,0,0,0	to_hand	s621
79.517	0.629	0	PA_without_intermediate	3,0,0,1,2,0,0,0,0	test	ward_and_allport	3,1,0,0,0,0,2,0,0	89.0	2.0	0.629	0,0,0,1,2,3,0,0,0	to_board	s621
80.147	1.096	0	PA_without_intermediate	3,0,0,1,0,0,0,0,0	test	ward_and_allport	3,1,0,0,0,0,2,0,0	71.0	2.0	1.096	0,0,0,1,2,3,0,0,0	to_hand	s621
81.245	0.402	0	PA_without_intermediate	3,0,0,1,0,0,2,0,0	test	ward_and_allport	3,1,0,0,0,0,2,0,0	82.0	2.0	0.402	0,0,0,1,2,3,0,0,0	to_board	s621
81.649	0.397	0	PA_without_intermediate	3,0,0,0,0,0,2,0,0	test	ward_and_allport	3,1,0,0,0,0,2,0,0	71.0	2.0	0.397	0,0,0,1,2,3,0,0,0	to_hand	s621
82.047	0.4	0	PA_without_intermediate	3,1,0,0,0,0,2,0,0	test	ward_and_allport	3,1,0,0,0,0,2,0,0	89.0	2.0	0.4	0,0,0,1,2,3,0,0,0	to_board	s621
82.453	1.0	0	PA_without_intermediate	n/a	test	ward_and_allport	n/a	-1.0	2.0	n/a	n/a	feedback	s621
83.453	2.224	0	PA_without_intermediate	n/a	test	ward_and_allport	n/a	-1.0	2.0	n/a	n/a	ITI	s621
85.679	2.906	1	PA_without_intermediate	1,2,0,0,0,0,0,0,0	test	ward_and_allport	0,0,0,3,2,0,1,0,0	89.0	3.0	2.906	1,2,3,0,0,0,0,0,0	to_hand	s621
88.585	0.465	0	PA_without_intermediate	1,2,0,3,0,0,0,0,0	test	ward_and_allport	0,0,0,3,2,0,1,0,0	71.0	3.0	0.465	1,2,3,0,0,0,0,0,0	to_board	s621
89.052	1.131	0	PA_without_intermediate	1,0,0,3,0,0,0,0,0	test	ward_and_allport	0,0,0,3,2,0,1,0,0	89.0	3.0	1.131	1,2,3,0,0,0,0,0,0	to_hand	s621
90.185	0.446	0	PA_without_intermediate	1,0,0,3,2,0,0,0,0	test	ward_and_allport	0,0,0,3,2,0,1,0,0	71.0	3.0	0.446	1,2,3,0,0,0,0,0,0	to_board	s621
90.634	1.032	0	PA_without_intermediate	0,0,0,3,2,0,0,0,0	test	ward_and_allport	0,0,0,3,2,0,1,0,0	89.0	3.0	1.032	1,2,3,0,0,0,0,0,0	to_hand	s621
91.667	0.384	0	PA_without_intermediate	0,0,0,3,2,0,1,0,0	test	ward_and_allport	0,0,0,3,2,0,1,0,0	82.0	3.0	0.384	1,2,3,0,0,0,0,0,0	to_board	s621
92.055	1.0	0	PA_without_intermediate	n/a	test	ward_and_allport	n/a	-1.0	3.0	n/a	n/a	feedback	s621
93.055	2.36	0	PA_without_intermediate	n/a	test	ward_and_allport	n/a	-1.0	3.0	n/a	n/a	ITI	s621
95.418	2.276	1	PA_without_intermediate	1,2,0,0,0,0,0,0,0	test	ward_and_allport	0,0,0,2,0,0,3,1,0	89.0	4.0	2.276	1,2,3,0,0,0,0,0,0	to_hand	s621
97.695	0.469	0	PA_without_intermediate	1,2,0,0,0,0,3,0,0	test	ward_and_allport	0,0,0,2,0,0,3,1,0	82.0	4.0	0.469	1,2,3,0,0,0,0,0,0	to_board	s621
98.166	1.463	0	PA_without_intermediate	1,0,0,0,0,0,3,0,0	test	ward_and_allport	0,0,0,2,0,0,3,1,0	89.0	4.0	1.463	1,2,3,0,0,0,0,0,0	to_hand	s621
99.63	0.365	0	PA_without_intermediate	1,0,0,2,0,0,3,0,0	test	ward_and_allport	0,0,0,2,0,0,3,1,0	71.0	4.0	0.365	1,2,3,0,0,0,0,0,0	to_board	s621
99.996	0.675	0	PA_without_intermediate	0,0,0,2,0,0,3,0,0	test	ward_and_allport	0,0,0,2,0,0,3,1,0	89.0	4.0	0.675	1,2,3,0,0,0,0,0,0	to_hand	s621
100.673	0.426	0	PA_without_intermediate	0,0,0,2,0,0,3,1,0	test	ward_and_allport	0,0,0,2,0,0,3,1,0	82.0	4.0	0.426	1,2,3,0,0,0,0,0,0	to_board	s621
101.103	1.0	0	PA_without_intermediate	n/a	test	ward_and_allport	n/a	-1.0	4.0	n/a	n/a	feedback	s621
102.103	1.0	0	PA_without_intermediate	n/a	test	ward_and_allport	n/a	-1.0	4.0	n/a	n/a	ITI	s621
103.107	3.117	1	PA_without_intermediate	0,0,0,0,0,0,1,2,0	test	ward_and_allport	3,2,0,1,0,0,0,0,0	82.0	5.0	3.117	0,0,0,0,0,0,1,2,3	to_hand	s621
106.225	0.434	0	PA_without_intermediate	3,0,0,0,0,0,1,2,0	test	ward_and_allport	3,2,0,1,0,0,0,0,0	89.0	5.0	0.434	0,0,0,0,0,0,1,2,3	to_board	s621
106.662	0.777	0	PA_without_intermediate	3,0,0,0,0,0,1,0,0	test	ward_and_allport	3,2,0,1,0,0,0,0,0	82.0	5.0	0.777	0,0,0,0,0,0,1,2,3	to_hand	s621
107.44	0.657	0	PA_without_intermediate	3,2,0,0,0,0,1,0,0	test	ward_and_allport	3,2,0,1,0,0,0,0,0	89.0	5.0	0.657	0,0,0,0,0,0,1,2,3	to_board	s621
108.1	1.161	0	PA_without_intermediate	3,2,0,0,0,0,0,0,0	test	ward_and_allport	3,2,0,1,0,0,0,0,0	82.0	5.0	1.161	0,0,0,0,0,0,1,2,3	to_hand	s621
109.262	0.554	0	PA_without_intermediate	3,2,0,1,0,0,0,0,0	test	ward_and_allport	3,2,0,1,0,0,0,0,0	71.0	5.0	0.554	0,0,0,0,0,0,1,2,3	to_board	s621
109.82	1.0	0	PA_without_intermediate	n/a	test	ward_and_allport	n/a	-1.0	5.0	n/a	n/a	feedback	s621
110.82	1.408	0	PA_without_intermediate	n/a	test	ward_and_allport	n/a	-1.0	5.0	n/a	n/a	ITI	s621
112.231	3.828	1	PA_with_intermediate	0,0,0,1,2,0,0,0,0	test	ward_and_allport	0,0,0,1,3,0,2,0,0	71.0	6.0	3.828	0,0,0,1,2,3,0,0,0	to_hand	s621
116.06	0.616	0	PA_with_intermediate	3,0,0,1,2,0,0,0,0	test	ward_and_allport	0,0,0,1,3,0,2,0,0	89.0	6.0	0.616	0,0,0,1,2,3,0,0,0	to_board	s621
116.679	0.525	0	PA_with_intermediate	3,0,0,1,0,0,0,0,0	test	ward_and_allport	0,0,0,1,3,0,2,0,0	71.0	6.0	0.525	0,0,0,1,2,3,0,0,0	to_hand	s621
117.205	0.505	0	PA_with_intermediate	3,0,0,1,0,0,2,0,0	test	ward_and_allport	0,0,0,1,3,0,2,0,0	82.0	6.0	0.505	0,0,0,1,2,3,0,0,0	to_board	s621
117.713	1.246	0	PA_with_intermediate	0,0,0,1,0,0,2,0,0	test	ward_and_allport	0,0,0,1,3,0,2,0,0	89.0	6.0	1.246	0,0,0,1,2,3,0,0,0	to_hand	s621
118.959	0.305	0	PA_with_intermediate	0,0,0,1,3,0,2,0,0	test	ward_and_allport	0,0,0,1,3,0,2,0,0	71.0	6.0	0.305	0,0,0,1,2,3,0,0,0	to_board	s621
119.269	1.0	0	PA_with_intermediate	n/a	test	ward_and_allport	n/a	-1.0	6.0	n/a	n/a	feedback	s621
120.269	1.136	0	PA_with_intermediate	n/a	test	ward_and_allport	n/a	-1.0	6.0	n/a	n/a	ITI	s621
121.408	6.302	1	PA_without_intermediate	0,0,0,0,0,0,1,2,0	test	ward_and_allport	3,1,0,2,0,0,0,0,0	82.0	7.0	6.302	0,0,0,0,0,0,1,2,3	to_hand	s621
127.711	0.547	0	PA_without_intermediate	3,0,0,0,0,0,1,2,0	test	ward_and_allport	3,1,0,2,0,0,0,0,0	89.0	7.0	0.547	0,0,0,0,0,0,1,2,3	to_board	s621
128.261	1.556	0	PA_without_intermediate	3,0,0,0,0,0,1,0,0	test	ward_and_allport	3,1,0,2,0,0,0,0,0	82.0	7.0	1.556	0,0,0,0,0,0,1,2,3	to_hand	s621
129.818	0.486	0	PA_without_intermediate	3,0,0,2,0,0,1,0,0	test	ward_and_allport	3,1,0,2,0,0,0,0,0	71.0	7.0	0.486	0,0,0,0,0,0,1,2,3	to_board	s621
130.307	1.149	0	PA_without_intermediate	3,0,0,2,0,0,0,0,0	test	ward_and_allport	3,1,0,2,0,0,0,0,0	82.0	7.0	1.149	0,0,0,0,0,0,1,2,3	to_hand	s621
131.457	0.514	0	PA_without_intermediate	3,1,0,2,0,0,0,0,0	test	ward_and_allport	3,1,0,2,0,0,0,0,0	89.0	7.0	0.514	0,0,0,0,0,0,1,2,3	to_board	s621
131.975	1.0	0	PA_without_intermediate	n/a	test	ward_and_allport	n/a	-1.0	7.0	n/a	n/a	feedback	s621
132.975	4.128	0	PA_without_intermediate	n/a	test	ward_and_allport	n/a	-1.0	7.0	n/a	n/a	ITI	s621
137.107	2.208	1	PA_without_intermediate	1,2,0,0,0,0,0,0,0	test	ward_and_allport	0,0,0,3,2,0,1,0,0	89.0	8.0	2.208	1,2,3,0,0,0,0,0,0	to_hand	s621
139.316	0.294	0	PA_without_intermediate	1,2,0,3,0,0,0,0,0	test	ward_and_allport	0,0,0,3,2,0,1,0,0	71.0	8.0	0.294	1,2,3,0,0,0,0,0,0	to_board	s621
139.612	0.589	0	PA_without_intermediate	1,0,0,3,0,0,0,0,0	test	ward_and_allport	0,0,0,3,2,0,1,0,0	89.0	8.0	0.589	1,2,3,0,0,0,0,0,0	to_hand	s621
140.203	0.366	0	PA_without_intermediate	1,0,0,3,2,0,0,0,0	test	ward_and_allport	0,0,0,3,2,0,1,0,0	71.0	8.0	0.366	1,2,3,0,0,0,0,0,0	to_board	s621
140.572	0.625	0	PA_without_intermediate	0,0,0,3,2,0,0,0,0	test	ward_and_allport	0,0,0,3,2,0,1,0,0	89.0	8.0	0.625	1,2,3,0,0,0,0,0,0	to_hand	s621
141.198	0.317	0	PA_without_intermediate	0,0,0,3,2,0,1,0,0	test	ward_and_allport	0,0,0,3,2,0,1,0,0	82.0	8.0	0.317	1,2,3,0,0,0,0,0,0	to_board	s621
141.519	1.0	0	PA_without_intermediate	n/a	test	ward_and_allport	n/a	-1.0	8.0	n/a	n/a	feedback	s621
142.519	1.136	0	PA_without_intermediate	n/a	test	ward_and_allport	n/a	-1.0	8.0	n/a	n/a	ITI	s621
143.658	2.429	1	PA_without_intermediate	0,0,0,0,0,0,1,2,0	test	ward_and_allport	1,0,0,3,2,0,0,0,0	82.0	9.0	2.429	0,0,0,0,0,0,1,2,3	to_hand	s621
146.088	0.493	0	PA_without_intermediate	0,0,0,3,0,0,1,2,0	test	ward_and_allport	1,0,0,3,2,0,0,0,0	71.0	9.0	0.493	0,0,0,0,0,0,1,2,3	to_board	s621
146.583	1.15	0	PA_without_intermediate	0,0,0,3,0,0,1,0,0	test	ward_and_allport	1,0,0,3,2,0,0,0,0	82.0	9.0	1.15	0,0,0,0,0,0,1,2,3	to_hand	s621
147.735	0.694	0	PA_without_intermediate	0,0,0,3,2,0,1,0,0	test	ward_and_allport	1,0,0,3,2,0,0,0,0	71.0	9.0	0.694	0,0,0,0,0,0,1,2,3	to_board	s621
148.432	2.438	0	PA_without_intermediate	0,0,0,3,2,0,0,0,0	test	ward_and_allport	1,0,0,3,2,0,0,0,0	82.0	9.0	2.438	0,0,0,0,0,0,1,2,3	to_hand	s621
150.871	0.39	0	PA_without_intermediate	1,0,0,3,2,0,0,0,0	test	ward_and_allport	1,0,0,3,2,0,0,0,0	89.0	9.0	0.39	0,0,0,0,0,0,1,2,3	to_board	s621
151.266	1.0	0	PA_without_intermediate	n/a	test	ward_and_allport	n/a	-1.0	9.0	n/a	n/a	feedback	s621
152.266	4.264	0	PA_without_intermediate	n/a	test	ward_and_allport	n/a	-1.0	9.0	n/a	n/a	ITI	s621
156.534	2.295	1	PA_with_intermediate	0,0,0,0,0,0,1,2,0	test	ward_and_allport	2,3,0,0,0,0,1,0,0	82.0	10.0	2.295	0,0,0,0,0,0,1,2,3	to_hand	s621
158.83	0.772	0	PA_with_intermediate	0,0,0,3,0,0,1,2,0	test	ward_and_allport	2,3,0,0,0,0,1,0,0	71.0	10.0	0.772	0,0,0,0,0,0,1,2,3	to_board	s621
159.606	1.837	0	PA_with_intermediate	0,0,0,3,0,0,1,0,0	test	ward_and_allport	2,3,0,0,0,0,1,0,0	82.0	10.0	1.837	0,0,0,0,0,0,1,2,3	to_hand	s621
161.444	0.387	0	PA_with_intermediate	2,0,0,3,0,0,1,0,0	test	ward_and_allport	2,3,0,0,0,0,1,0,0	89.0	10.0	0.387	0,0,0,0,0,0,1,2,3	to_board	s621
161.836	0.403	0	PA_with_intermediate	2,0,0,0,0,0,1,0,0	test	ward_and_allport	2,3,0,0,0,0,1,0,0	71.0	10.0	0.403	0,0,0,0,0,0,1,2,3	to_hand	s621
162.24	0.479	0	PA_with_intermediate	2,3,0,0,0,0,1,0,0	test	ward_and_allport	2,3,0,0,0,0,1,0,0	89.0	10.0	0.479	0,0,0,0,0,0,1,2,3	to_board	s621
162.725	1.0	0	PA_with_intermediate	n/a	test	ward_and_allport	n/a	-1.0	10.0	n/a	n/a	feedback	s621
163.725	3.04	0	PA_with_intermediate	n/a	test	ward_and_allport	n/a	-1.0	10.0	n/a	n/a	ITI	s621
166.77	4.165	1	PA_with_intermediate	0,0,0,0,0,0,1,2,0	test	ward_and_allport	2,0,0,0,0,0,1,3,0	82.0	11.0	4.165	0,0,0,0,0,0,1,2,3	to_hand	s621
170.936	0.405	0	PA_with_intermediate	0,0,0,3,0,0,1,2,0	test	ward_and_allport	2,0,0,0,0,0,1,3,0	71.0	11.0	0.405	0,0,0,0,0,0,1,2,3	to_board	s621
171.345	2.493	0	PA_with_intermediate	0,0,0,3,0,0,1,0,0	test	ward_and_allport	2,0,0,0,0,0,1,3,0	82.0	11.0	2.493	0,0,0,0,0,0,1,2,3	to_hand	s621
173.839	0.361	0	PA_with_intermediate	2,0,0,3,0,0,1,0,0	test	ward_and_allport	2,0,0,0,0,0,1,3,0	89.0	11.0	0.361	0,0,0,0,0,0,1,2,3	to_board	s621
174.204	0.762	0	PA_with_intermediate	2,0,0,0,0,0,1,0,0	test	ward_and_allport	2,0,0,0,0,0,1,3,0	71.0	11.0	0.762	0,0,0,0,0,0,1,2,3	to_hand	s621
174.967	0.496	0	PA_with_intermediate	2,0,0,0,0,0,1,3,0	test	ward_and_allport	2,0,0,0,0,0,1,3,0	82.0	11.0	0.496	0,0,0,0,0,0,1,2,3	to_board	s621
175.471	1.0	0	PA_with_intermediate	n/a	test	ward_and_allport	n/a	-1.0	11.0	n/a	n/a	feedback	s621
176.471	1.136	0	PA_with_intermediate	n/a	test	ward_and_allport	n/a	-1.0	11.0	n/a	n/a	ITI	s621
177.61	3.339	1	PA_with_intermediate	0,0,0,0,0,0,1,2,0	test	ward_and_allport	0,0,0,2,3,0,1,0,0	82.0	12.0	3.339	0,0,0,0,0,0,1,2,3	to_hand	s621
180.951	0.441	0	PA_with_intermediate	3,0,0,0,0,0,1,2,0	test	ward_and_allport	0,0,0,2,3,0,1,0,0	89.0	12.0	0.441	0,0,0,0,0,0,1,2,3	to_board	s621
181.396	1.947	0	PA_with_intermediate	3,0,0,0,0,0,1,0,0	test	ward_and_allport	0,0,0,2,3,0,1,0,0	82.0	12.0	1.947	0,0,0,0,0,0,1,2,3	to_hand	s621
183.344	0.733	0	PA_with_intermediate	3,0,0,2,0,0,1,0,0	test	ward_and_allport	0,0,0,2,3,0,1,0,0	71.0	12.0	0.733	0,0,0,0,0,0,1,2,3	to_board	s621
184.081	0.543	0	PA_with_intermediate	0,0,0,2,0,0,1,0,0	test	ward_and_allport	0,0,0,2,3,0,1,0,0	89.0	12.0	0.543	0,0,0,0,0,0,1,2,3	to_hand	s621
184.625	0.415	0	PA_with_intermediate	0,0,0,2,3,0,1,0,0	test	ward_and_allport	0,0,0,2,3,0,1,0,0	71.0	12.0	0.415	0,0,0,0,0,0,1,2,3	to_board	s621
185.048	1.0	0	PA_with_intermediate	n/a	test	ward_and_allport	n/a	-1.0	12.0	n/a	n/a	feedback	s621
186.048	1.408	0	PA_with_intermediate	n/a	test	ward_and_allport	n/a	-1.0	12.0	n/a	n/a	ITI	s621
187.461	2.014	1	PA_without_intermediate	1,2,0,0,0,0,0,0,0	test	ward_and_allport	0,0,0,1,0,0,3,2,0	89.0	13.0	2.014	1,2,3,0,0,0,0,0,0	to_hand	s621
189.477	0.553	0	PA_without_intermediate	1,2,0,0,0,0,3,0,0	test	ward_and_allport	0,0,0,1,0,0,3,2,0	82.0	13.0	0.553	1,2,3,0,0,0,0,0,0	to_board	s621
190.035	0.525	0	PA_without_intermediate	1,0,0,0,0,0,3,0,0	test	ward_and_allport	0,0,0,1,0,0,3,2,0	89.0	13.0	0.525	1,2,3,0,0,0,0,0,0	to_hand	s621
190.562	0.536	0	PA_without_intermediate	1,0,0,0,0,0,3,2,0	test	ward_and_allport	0,0,0,1,0,0,3,2,0	82.0	13.0	0.536	1,2,3,0,0,0,0,0,0	to_board	s621
191.1	1.21	0	PA_without_intermediate	0,0,0,0,0,0,3,2,0	test	ward_and_allport	0,0,0,1,0,0,3,2,0	89.0	13.0	1.21	1,2,3,0,0,0,0,0,0	to_hand	s621
192.312	0.933	0	PA_without_intermediate	0,0,0,1,0,0,3,2,0	test	ward_and_allport	0,0,0,1,0,0,3,2,0	71.0	13.0	0.933	1,2,3,0,0,0,0,0,0	to_board	s621
193.253	1.0	0	PA_without_intermediate	n/a	test	ward_and_allport	n/a	-1.0	13.0	n/a	n/a	feedback	s621
194.253	1.68	0	PA_without_intermediate	n/a	test	ward_and_allport	n/a	-1.0	13.0	n/a	n/a	ITI	s621
195.936	3.38	1	PA_with_intermediate	0,0,0,1,2,0,0,0,0	test	ward_and_allport	2,0,0,1,3,0,0,0,0	71.0	14.0	3.38	0,0,0,1,2,3,0,0,0	to_hand	s621
199.318	0.475	0	PA_with_intermediate	0,0,0,1,2,0,3,0,0	test	ward_and_allport	2,0,0,1,3,0,0,0,0	82.0	14.0	0.475	0,0,0,1,2,3,0,0,0	to_board	s621
199.797	0.774	0	PA_with_intermediate	0,0,0,1,0,0,3,0,0	test	ward_and_allport	2,0,0,1,3,0,0,0,0	71.0	14.0	0.774	0,0,0,1,2,3,0,0,0	to_hand	s621
200.572	0.431	0	PA_with_intermediate	2,0,0,1,0,0,3,0,0	test	ward_and_allport	2,0,0,1,3,0,0,0,0	89.0	14.0	0.431	0,0,0,1,2,3,0,0,0	to_board	s621
201.009	0.857	0	PA_with_intermediate	2,0,0,1,0,0,0,0,0	test	ward_and_allport	2,0,0,1,3,0,0,0,0	82.0	14.0	0.857	0,0,0,1,2,3,0,0,0	to_hand	s621
201.867	0.412	0	PA_with_intermediate	2,0,0,1,3,0,0,0,0	test	ward_and_allport	2,0,0,1,3,0,0,0,0	71.0	14.0	0.412	0,0,0,1,2,3,0,0,0	to_board	s621
202.283	1.0	0	PA_with_intermediate	n/a	test	ward_and_allport	n/a	-1.0	14.0	n/a	n/a	feedback	s621
203.283	3.72	0	PA_with_intermediate	n/a	test	ward_and_allport	n/a	-1.0	14.0	n/a	n/a	ITI	s621
212.012	4.977	1	PA_without_intermediate	0,0,0,1,2,0,0,0,0	test	ward_and_allport	2,0,0,0,0,0,3,1,0	71.0	15.0	4.977	0,0,0,1,2,3,0,0,0	to_hand	s621
216.99	0.348	0	PA_without_intermediate	0,0,0,1,2,0,3,0,0	test	ward_and_allport	2,0,0,0,0,0,3,1,0	82.0	15.0	0.348	0,0,0,1,2,3,0,0,0	to_board	s621
217.343	1.119	0	PA_without_intermediate	0,0,0,1,0,0,3,0,0	test	ward_and_allport	2,0,0,0,0,0,3,1,0	71.0	15.0	1.119	0,0,0,1,2,3,0,0,0	to_hand	s621
218.463	0.29	0	PA_without_intermediate	2,0,0,1,0,0,3,0,0	test	ward_and_allport	2,0,0,0,0,0,3,1,0	89.0	15.0	0.29	0,0,0,1,2,3,0,0,0	to_board	s621
218.757	0.526	0	PA_without_intermediate	2,0,0,0,0,0,3,0,0	test	ward_and_allport	2,0,0,0,0,0,3,1,0	71.0	15.0	0.526	0,0,0,1,2,3,0,0,0	to_hand	s621
219.285	0.525	0	PA_without_intermediate	2,0,0,0,0,0,3,1,0	test	ward_and_allport	2,0,0,0,0,0,3,1,0	82.0	15.0	0.525	0,0,0,1,2,3,0,0,0	to_board	s621
219.815	1.0	0	PA_without_intermediate	n/a	test	ward_and_allport	n/a	-1.0	15.0	n/a	n/a	feedback	s621
220.815	2.224	0	PA_without_intermediate	n/a	test	ward_and_allport	n/a	-1.0	15.0	n/a	n/a	ITI	s621
223.044	1.923	1	PA_without_intermediate	0,0,0,1,2,0,0,0,0	test	ward_and_allport	3,1,0,0,0,0,2,0,0	71.0	16.0	1.923	0,0,0,1,2,3,0,0,0	to_hand	s621
224.968	0.613	0	PA_without_intermediate	3,0,0,1,2,0,0,0,0	test	ward_and_allport	3,1,0,0,0,0,2,0,0	89.0	16.0	0.613	0,0,0,1,2,3,0,0,0	to_board	s621
225.585	0.451	0	PA_without_intermediate	3,0,0,1,0,0,0,0,0	test	ward_and_allport	3,1,0,0,0,0,2,0,0	71.0	16.0	0.451	0,0,0,1,2,3,0,0,0	to_hand	s621
226.037	0.359	0	PA_without_intermediate	3,0,0,1,0,0,2,0,0	test	ward_and_allport	3,1,0,0,0,0,2,0,0	82.0	16.0	0.359	0,0,0,1,2,3,0,0,0	to_board	s621
226.4	0.851	0	PA_without_intermediate	3,0,0,0,0,0,2,0,0	test	ward_and_allport	3,1,0,0,0,0,2,0,0	71.0	16.0	0.851	0,0,0,1,2,3,0,0,0	to_hand	s621
227.252	0.217	0	PA_without_intermediate	3,1,0,0,0,0,2,0,0	test	ward_and_allport	3,1,0,0,0,0,2,0,0	89.0	16.0	0.217	0,0,0,1,2,3,0,0,0	to_board	s621
227.474	1.0	0	PA_without_intermediate	n/a	test	ward_and_allport	n/a	-1.0	16.0	n/a	n/a	feedback	s621
228.474	1.272	0	PA_without_intermediate	n/a	test	ward_and_allport	n/a	-1.0	16.0	n/a	n/a	ITI	s621
229.751	3.254	1	PA_with_intermediate	1,2,0,0,0,0,0,0,0	test	ward_and_allport	1,0,0,2,3,0,0,0,0	89.0	17.0	3.254	1,2,3,0,0,0,0,0,0	to_hand	s621
233.006	0.316	0	PA_with_intermediate	1,2,0,0,0,0,3,0,0	test	ward_and_allport	1,0,0,2,3,0,0,0,0	82.0	17.0	0.316	1,2,3,0,0,0,0,0,0	to_board	s621
233.327	0.903	0	PA_with_intermediate	1,0,0,0,0,0,3,0,0	test	ward_and_allport	1,0,0,2,3,0,0,0,0	89.0	17.0	0.903	1,2,3,0,0,0,0,0,0	to_hand	s621
234.231	0.402	0	PA_with_intermediate	1,0,0,2,0,0,3,0,0	test	ward_and_allport	1,0,0,2,3,0,0,0,0	71.0	17.0	0.402	1,2,3,0,0,0,0,0,0	to_board	s621
234.637	0.787	0	PA_with_intermediate	1,0,0,2,0,0,0,0,0	test	ward_and_allport	1,0,0,2,3,0,0,0,0	82.0	17.0	0.787	1,2,3,0,0,0,0,0,0	to_hand	s621
235.425	0.455	0	PA_with_intermediate	1,0,0,2,3,0,0,0,0	test	ward_and_allport	1,0,0,2,3,0,0,0,0	71.0	17.0	0.455	1,2,3,0,0,0,0,0,0	to_board	s621
235.885	1.0	0	PA_with_intermediate	n/a	test	ward_and_allport	n/a	-1.0	17.0	n/a	n/a	feedback	s621
236.885	2.632	0	PA_with_intermediate	n/a	test	ward_and_allport	n/a	-1.0	17.0	n/a	n/a	ITI	s621
239.522	2.599	1	PA_without_intermediate	0,0,0,0,0,0,1,2,0	test	ward_and_allport	3,2,0,1,0,0,0,0,0	82.0	18.0	2.599	0,0,0,0,0,0,1,2,3	to_hand	s621
242.122	0.414	0	PA_without_intermediate	3,0,0,0,0,0,1,2,0	test	ward_and_allport	3,2,0,1,0,0,0,0,0	89.0	18.0	0.414	0,0,0,0,0,0,1,2,3	to_board	s621
242.54	1.75	0	PA_without_intermediate	3,0,0,0,0,0,1,0,0	test	ward_and_allport	3,2,0,1,0,0,0,0,0	82.0	18.0	1.75	0,0,0,0,0,0,1,2,3	to_hand	s621
244.291	0.371	0	PA_without_intermediate	3,2,0,0,0,0,1,0,0	test	ward_and_allport	3,2,0,1,0,0,0,0,0	89.0	18.0	0.371	0,0,0,0,0,0,1,2,3	to_board	s621
244.666	1.613	0	PA_without_intermediate	3,2,0,0,0,0,0,0,0	test	ward_and_allport	3,2,0,1,0,0,0,0,0	82.0	18.0	1.613	0,0,0,0,0,0,1,2,3	to_hand	s621
246.28	0.416	0	PA_without_intermediate	3,2,0,1,0,0,0,0,0	test	ward_and_allport	3,2,0,1,0,0,0,0,0	71.0	18.0	0.416	0,0,0,0,0,0,1,2,3	to_board	s621
246.703	1.0	0	PA_without_intermediate	n/a	test	ward_and_allport	n/a	-1.0	18.0	n/a	n/a	feedback	s621
247.703	1.408	0	PA_without_intermediate	n/a	test	ward_and_allport	n/a	-1.0	18.0	n/a	n/a	ITI	s621
249.116	1.961	1	PA_without_intermediate	1,2,0,0,0,0,0,0,0	test	ward_and_allport	0,0,0,1,0,0,3,2,0	89.0	19.0	1.961	1,2,3,0,0,0,0,0,0	to_hand	s621
251.077	0.624	0	PA_without_intermediate	1,2,0,0,0,0,3,0,0	test	ward_and_allport	0,0,0,1,0,0,3,2,0	82.0	19.0	0.624	1,2,3,0,0,0,0,0,0	to_board	s621
251.705	0.482	0	PA_without_intermediate	1,0,0,0,0,0,3,0,0	test	ward_and_allport	0,0,0,1,0,0,3,2,0	89.0	19.0	0.482	1,2,3,0,0,0,0,0,0	to_hand	s621
252.189	0.639	0	PA_without_intermediate	1,0,0,0,0,0,3,2,0	test	ward_and_allport	0,0,0,1,0,0,3,2,0	82.0	19.0	0.639	1,2,3,0,0,0,0,0,0	to_board	s621
252.832	0.619	0	PA_without_intermediate	0,0,0,0,0,0,3,2,0	test	ward_and_allport	0,0,0,1,0,0,3,2,0	89.0	19.0	0.619	1,2,3,0,0,0,0,0,0	to_hand	s621
253.453	0.516	0	PA_without_intermediate	0,0,0,1,0,0,3,2,0	test	ward_and_allport	0,0,0,1,0,0,3,2,0	71.0	19.0	0.516	1,2,3,0,0,0,0,0,0	to_board	s621
253.975	1.0	0	PA_without_intermediate	n/a	test	ward_and_allport	n/a	-1.0	19.0	n/a	n/a	feedback	s621
254.975	1.0	0	PA_without_intermediate	n/a	test	ward_and_allport	n/a	-1.0	19.0	n/a	n/a	ITI	s621
255.98	2.034	1	PA_with_intermediate	1,2,0,0,0,0,0,0,0	test	ward_and_allport	1,3,0,2,0,0,0,0,0	89.0	20.0	2.034	1,2,3,0,0,0,0,0,0	to_hand	s621
258.014	0.443	0	PA_with_intermediate	1,2,0,0,0,0,3,0,0	test	ward_and_allport	1,3,0,2,0,0,0,0,0	82.0	20.0	0.443	1,2,3,0,0,0,0,0,0	to_board	s621
258.463	0.601	0	PA_with_intermediate	1,0,0,0,0,0,3,0,0	test	ward_and_allport	1,3,0,2,0,0,0,0,0	89.0	20.0	0.601	1,2,3,0,0,0,0,0,0	to_hand	s621
259.065	0.445	0	PA_with_intermediate	1,0,0,2,0,0,3,0,0	test	ward_and_allport	1,3,0,2,0,0,0,0,0	71.0	20.0	0.445	1,2,3,0,0,0,0,0,0	to_board	s621
259.515	1.019	0	PA_with_intermediate	1,0,0,2,0,0,0,0,0	test	ward_and_allport	1,3,0,2,0,0,0,0,0	82.0	20.0	1.019	1,2,3,0,0,0,0,0,0	to_hand	s621
260.535	0.273	0	PA_with_intermediate	1,3,0,2,0,0,0,0,0	test	ward_and_allport	1,3,0,2,0,0,0,0,0	89.0	20.0	0.273	1,2,3,0,0,0,0,0,0	to_board	s621
260.813	1.0	0	PA_with_intermediate	n/a	test	ward_and_allport	n/a	-1.0	20.0	n/a	n/a	feedback	s621
261.813	1.0	0	PA_with_intermediate	n/a	test	ward_and_allport	n/a	-1.0	20.0	n/a	n/a	ITI	s621
262.817	4.055	1	PA_with_intermediate	0,0,0,0,0,0,1,2,0	test	ward_and_allport	0,0,0,2,0,0,1,3,0	82.0	21.0	4.055	0,0,0,0,0,0,1,2,3	to_hand	s621
266.874	0.331	0	PA_with_intermediate	3,0,0,0,0,0,1,2,0	test	ward_and_allport	0,0,0,2,0,0,1,3,0	89.0	21.0	0.331	0,0,0,0,0,0,1,2,3	to_board	s621
267.212	0.669	0	PA_with_intermediate	3,0,0,0,0,0,1,0,0	test	ward_and_allport	0,0,0,2,0,0,1,3,0	82.0	21.0	0.669	0,0,0,0,0,0,1,2,3	to_hand	s621
267.882	0.377	0	PA_with_intermediate	3,0,0,2,0,0,1,0,0	test	ward_and_allport	0,0,0,2,0,0,1,3,0	71.0	21.0	0.377	0,0,0,0,0,0,1,2,3	to_board	s621
268.263	0.437	0	PA_with_intermediate	0,0,0,2,0,0,1,0,0	test	ward_and_allport	0,0,0,2,0,0,1,3,0	89.0	21.0	0.437	0,0,0,0,0,0,1,2,3	to_hand	s621
268.701	0.49	0	PA_with_intermediate	0,0,0,2,0,0,1,3,0	test	ward_and_allport	0,0,0,2,0,0,1,3,0	82.0	21.0	0.49	0,0,0,0,0,0,1,2,3	to_board	s621
269.197	1.0	0	PA_with_intermediate	n/a	test	ward_and_allport	n/a	-1.0	21.0	n/a	n/a	feedback	s621
270.197	1.0	0	PA_with_intermediate	n/a	test	ward_and_allport	n/a	-1.0	21.0	n/a	n/a	ITI	s621
271.201	4.165	1	PA_with_intermediate	0,0,0,1,2,0,0,0,0	test	ward_and_allport	0,0,0,1,0,0,2,3,0	71.0	22.0	4.165	0,0,0,1,2,3,0,0,0	to_hand	s621
275.367	0.27	0	PA_with_intermediate	3,0,0,1,2,0,0,0,0	test	ward_and_allport	0,0,0,1,0,0,2,3,0	89.0	22.0	0.27	0,0,0,1,2,3,0,0,0	to_board	s621
275.641	1.297	0	PA_with_intermediate	3,0,0,1,0,0,0,0,0	test	ward_and_allport	0,0,0,1,0,0,2,3,0	71.0	22.0	1.297	0,0,0,1,2,3,0,0,0	to_hand	s621
276.939	0.631	0	PA_with_intermediate	3,0,0,1,0,0,2,0,0	test	ward_and_allport	0,0,0,1,0,0,2,3,0	82.0	22.0	0.631	0,0,0,1,2,3,0,0,0	to_board	s621
277.575	0.381	0	PA_with_intermediate	0,0,0,1,0,0,2,0,0	test	ward_and_allport	0,0,0,1,0,0,2,3,0	89.0	22.0	0.381	0,0,0,1,2,3,0,0,0	to_hand	s621
277.958	0.334	0	PA_with_intermediate	0,0,0,1,0,0,2,3,0	test	ward_and_allport	0,0,0,1,0,0,2,3,0	82.0	22.0	0.334	0,0,0,1,2,3,0,0,0	to_board	s621
278.303	1.0	0	PA_with_intermediate	n/a	test	ward_and_allport	n/a	-1.0	22.0	n/a	n/a	feedback	s621
279.303	1.408	0	PA_with_intermediate	n/a	test	ward_and_allport	n/a	-1.0	22.0	n/a	n/a	ITI	s621
280.717	4.592	1	PA_without_intermediate	0,0,0,0,0,0,1,2,0	test	ward_and_allport	2,0,0,3,1,0,0,0,0	82.0	23.0	4.592	0,0,0,0,0,0,1,2,3	to_hand	s621
285.31	1.119	0	PA_without_intermediate	0,0,0,3,0,0,1,2,0	test	ward_and_allport	2,0,0,3,1,0,0,0,0	71.0	23.0	1.119	0,0,0,0,0,0,1,2,3	to_board	s621
286.435	1.029	0	PA_without_intermediate	0,0,0,3,0,0,1,0,0	test	ward_and_allport	2,0,0,3,1,0,0,0,0	82.0	23.0	1.029	0,0,0,0,0,0,1,2,3	to_hand	s621
287.465	0.441	0	PA_without_intermediate	2,0,0,3,0,0,1,0,0	test	ward_and_allport	2,0,0,3,1,0,0,0,0	89.0	23.0	0.441	0,0,0,0,0,0,1,2,3	to_board	s621
287.912	1.399	0	PA_without_intermediate	2,0,0,3,0,0,0,0,0	test	ward_and_allport	2,0,0,3,1,0,0,0,0	82.0	23.0	1.399	0,0,0,0,0,0,1,2,3	to_hand	s621
289.312	0.347	0	PA_without_intermediate	2,0,0,3,1,0,0,0,0	test	ward_and_allport	2,0,0,3,1,0,0,0,0	71.0	23.0	0.347	0,0,0,0,0,0,1,2,3	to_board	s621
289.666	1.0	0	PA_without_intermediate	n/a	test	ward_and_allport	n/a	-1.0	23.0	n/a	n/a	feedback	s621
290.666	1.816	0	PA_without_intermediate	n/a	test	ward_and_allport	n/a	-1.0	23.0	n/a	n/a	ITI	s621
292.488	3.262	1	PA_with_intermediate	0,0,0,1,2,0,0,0,0	test	ward_and_allport	2,3,0,1,0,0,0,0,0	71.0	24.0	3.262	0,0,0,1,2,3,0,0,0	to_hand	s621
295.751	0.292	0	PA_with_intermediate	0,0,0,1,2,0,3,0,0	test	ward_and_allport	2,3,0,1,0,0,0,0,0	82.0	24.0	0.292	0,0,0,1,2,3,0,0,0	to_board	s621
296.049	0.545	0	PA_with_intermediate	0,0,0,1,0,0,3,0,0	test	ward_and_allport	2,3,0,1,0,0,0,0,0	71.0	24.0	0.545	0,0,0,1,2,3,0,0,0	to_hand	s621
296.594	0.285	0	PA_with_intermediate	2,0,0,1,0,0,3,0,0	test	ward_and_allport	2,3,0,1,0,0,0,0,0	89.0	24.0	0.285	0,0,0,1,2,3,0,0,0	to_board	s621
296.886	0.6	0	PA_with_intermediate	2,0,0,1,0,0,0,0,0	test	ward_and_allport	2,3,0,1,0,0,0,0,0	82.0	24.0	0.6	0,0,0,1,2,3,0,0,0	to_hand	s621
297.487	0.207	0	PA_with_intermediate	2,3,0,1,0,0,0,0,0	test	ward_and_allport	2,3,0,1,0,0,0,0,0	89.0	24.0	0.207	0,0,0,1,2,3,0,0,0	to_board	s621
297.703	1.0	0	PA_with_intermediate	n/a	test	ward_and_allport	n/a	-1.0	24.0	n/a	n/a	feedback	s621
298.703	3.176	0	PA_with_intermediate	n/a	test	ward_and_allport	n/a	-1.0	24.0	n/a	n/a	ITI	s621
301.886	3.674	1	PA_with_intermediate	0,0,0,1,2,0,0,0,0	test	ward_and_allport	0,0,0,1,0,0,2,3,0	71.0	25.0	3.674	0,0,0,1,2,3,0,0,0	to_hand	s621
305.561	0.29	0	PA_with_intermediate	3,0,0,1,2,0,0,0,0	test	ward_and_allport	0,0,0,1,0,0,2,3,0	89.0	25.0	0.29	0,0,0,1,2,3,0,0,0	to_board	s621
305.857	0.797	0	PA_with_intermediate	3,0,0,1,0,0,0,0,0	test	ward_and_allport	0,0,0,1,0,0,2,3,0	71.0	25.0	0.797	0,0,0,1,2,3,0,0,0	to_hand	s621
306.655	0.578	0	PA_with_intermediate	3,0,0,1,0,0,2,0,0	test	ward_and_allport	0,0,0,1,0,0,2,3,0	82.0	25.0	0.578	0,0,0,1,2,3,0,0,0	to_board	s621
307.239	0.326	0	PA_with_intermediate	0,0,0,1,0,0,2,0,0	test	ward_and_allport	0,0,0,1,0,0,2,3,0	89.0	25.0	0.326	0,0,0,1,2,3,0,0,0	to_hand	s621
307.566	0.358	0	PA_with_intermediate	0,0,0,1,0,0,2,3,0	test	ward_and_allport	0,0,0,1,0,0,2,3,0	82.0	25.0	0.358	0,0,0,1,2,3,0,0,0	to_board	s621
307.933	1.0	0	PA_with_intermediate	n/a	test	ward_and_allport	n/a	-1.0	25.0	n/a	n/a	feedback	s621
308.933	2.36	0	PA_with_intermediate	n/a	test	ward_and_allport	n/a	-1.0	25.0	n/a	n/a	ITI	s621
311.299	3.325	1	PA_with_intermediate	1,2,0,0,0,0,0,0,0	test	ward_and_allport	1,3,0,0,0,0,2,0,0	89.0	26.0	3.325	1,2,3,0,0,0,0,0,0	to_hand	s621
314.625	0.461	0	PA_with_intermediate	1,2,0,3,0,0,0,0,0	test	ward_and_allport	1,3,0,0,0,0,2,0,0	71.0	26.0	0.461	1,2,3,0,0,0,0,0,0	to_board	s621
315.091	1.196	0	PA_with_intermediate	1,0,0,3,0,0,0,0,0	test	ward_and_allport	1,3,0,0,0,0,2,0,0	89.0	26.0	1.196	1,2,3,0,0,0,0,0,0	to_hand	s621
316.289	0.384	0	PA_with_intermediate	1,0,0,3,0,0,2,0,0	test	ward_and_allport	1,3,0,0,0,0,2,0,0	82.0	26.0	0.384	1,2,3,0,0,0,0,0,0	to_board	s621
316.679	0.586	0	PA_with_intermediate	1,0,0,0,0,0,2,0,0	test	ward_and_allport	1,3,0,0,0,0,2,0,0	71.0	26.0	0.586	1,2,3,0,0,0,0,0,0	to_hand	s621
317.266	0.216	0	PA_with_intermediate	1,3,0,0,0,0,2,0,0	test	ward_and_allport	1,3,0,0,0,0,2,0,0	89.0	26.0	0.216	1,2,3,0,0,0,0,0,0	to_board	s621
317.49	1.0	0	PA_with_intermediate	n/a	test	ward_and_allport	n/a	-1.0	26.0	n/a	n/a	feedback	s621
318.49	1.0	0	PA_with_intermediate	n/a	test	ward_and_allport	n/a	-1.0	26.0	n/a	n/a	ITI	s621
319.496	6.205	1	PA_without_intermediate	0,0,0,0,0,0,1,2,0	test	ward_and_allport	1,0,0,3,2,0,0,0,0	82.0	27.0	6.205	0,0,0,0,0,0,1,2,3	to_hand	s621
325.702	0.389	0	PA_without_intermediate	0,0,0,3,0,0,1,2,0	test	ward_and_allport	1,0,0,3,2,0,0,0,0	71.0	27.0	0.389	0,0,0,0,0,0,1,2,3	to_board	s621
326.097	1.0	0	PA_without_intermediate	0,0,0,3,0,0,1,0,0	test	ward_and_allport	1,0,0,3,2,0,0,0,0	82.0	27.0	1.0	0,0,0,0,0,0,1,2,3	to_hand	s621
327.098	0.304	0	PA_without_intermediate	0,0,0,3,2,0,1,0,0	test	ward_and_allport	1,0,0,3,2,0,0,0,0	71.0	27.0	0.304	0,0,0,0,0,0,1,2,3	to_board	s621
327.408	1.514	0	PA_without_intermediate	0,0,0,3,2,0,0,0,0	test	ward_and_allport	1,0,0,3,2,0,0,0,0	82.0	27.0	1.514	0,0,0,0,0,0,1,2,3	to_hand	s621
328.923	0.417	0	PA_without_intermediate	1,0,0,3,2,0,0,0,0	test	ward_and_allport	1,0,0,3,2,0,0,0,0	89.0	27.0	0.417	0,0,0,0,0,0,1,2,3	to_board	s621
329.349	1.0	0	PA_without_intermediate	n/a	test	ward_and_allport	n/a	-1.0	27.0	n/a	n/a	feedback	s621
330.349	1.408	0	PA_without_intermediate	n/a	test	ward_and_allport	n/a	-1.0	27.0	n/a	n/a	ITI	s621
331.763	2.945	1	PA_with_intermediate	1,2,0,0,0,0,0,0,0	test	ward_and_allport	1,3,0,2,0,0,0,0,0	89.0	28.0	2.945	1,2,3,0,0,0,0,0,0	to_hand	s621
334.709	0.389	0	PA_with_intermediate	1,2,0,0,0,0,3,0,0	test	ward_and_allport	1,3,0,2,0,0,0,0,0	82.0	28.0	0.389	1,2,3,0,0,0,0,0,0	to_board	s621
335.105	0.427	0	PA_with_intermediate	1,0,0,0,0,0,3,0,0	test	ward_and_allport	1,3,0,2,0,0,0,0,0	89.0	28.0	0.427	1,2,3,0,0,0,0,0,0	to_hand	s621
335.533	0.338	0	PA_with_intermediate	1,0,0,2,0,0,3,0,0	test	ward_and_allport	1,3,0,2,0,0,0,0,0	71.0	28.0	0.338	1,2,3,0,0,0,0,0,0	to_board	s621
335.876	0.599	0	PA_with_intermediate	1,0,0,2,0,0,0,0,0	test	ward_and_allport	1,3,0,2,0,0,0,0,0	82.0	28.0	0.599	1,2,3,0,0,0,0,0,0	to_hand	s621
336.477	0.213	0	PA_with_intermediate	1,3,0,2,0,0,0,0,0	test	ward_and_allport	1,3,0,2,0,0,0,0,0	89.0	28.0	0.213	1,2,3,0,0,0,0,0,0	to_board	s621
336.7	1.0	0	PA_with_intermediate	n/a	test	ward_and_allport	n/a	-1.0	28.0	n/a	n/a	feedback	s621
337.7	1.816	0	PA_with_intermediate	n/a	test	ward_and_allport	n/a	-1.0	28.0	n/a	n/a	ITI	s621
339.523	2.207	1	PA_without_intermediate	1,2,0,0,0,0,0,0,0	test	ward_and_allport	0,0,0,2,0,0,3,1,0	89.0	29.0	2.207	1,2,3,0,0,0,0,0,0	to_hand	s621
341.731	0.729	0	PA_without_intermediate	1,2,0,0,0,0,3,0,0	test	ward_and_allport	0,0,0,2,0,0,3,1,0	82.0	29.0	0.729	1,2,3,0,0,0,0,0,0	to_board	s621
342.47	0.757	0	PA_without_intermediate	1,0,0,0,0,0,3,0,0	test	ward_and_allport	0,0,0,2,0,0,3,1,0	89.0	29.0	0.757	1,2,3,0,0,0,0,0,0	to_hand	s621
343.227	0.286	0	PA_without_intermediate	1,0,0,2,0,0,3,0,0	test	ward_and_allport	0,0,0,2,0,0,3,1,0	71.0	29.0	0.286	1,2,3,0,0,0,0,0,0	to_board	s621
343.52	0.337	0	PA_without_intermediate	0,0,0,2,0,0,3,0,0	test	ward_and_allport	0,0,0,2,0,0,3,1,0	89.0	29.0	0.337	1,2,3,0,0,0,0,0,0	to_hand	s621
343.858	0.328	0	PA_without_intermediate	0,0,0,2,0,0,3,1,0	test	ward_and_allport	0,0,0,2,0,0,3,1,0	82.0	29.0	0.328	1,2,3,0,0,0,0,0,0	to_board	s621
344.194	1.0	0	PA_without_intermediate	n/a	test	ward_and_allport	n/a	-1.0	29.0	n/a	n/a	feedback	s621
345.194	2.088	0	PA_without_intermediate	n/a	test	ward_and_allport	n/a	-1.0	29.0	n/a	n/a	ITI	s621
352.291	2.968	1	PA_without_intermediate	0,0,0,1,2,0,0,0,0	test	ward_and_allport	3,2,0,0,0,0,1,0,0	71.0	30.0	2.968	0,0,0,1,2,3,0,0,0	to_hand	s621
355.259	0.322	0	PA_without_intermediate	3,0,0,1,2,0,0,0,0	test	ward_and_allport	3,2,0,0,0,0,1,0,0	89.0	30.0	0.322	0,0,0,1,2,3,0,0,0	to_board	s621
355.588	0.366	0	PA_without_intermediate	3,0,0,1,0,0,0,0,0	test	ward_and_allport	3,2,0,0,0,0,1,0,0	71.0	30.0	0.366	0,0,0,1,2,3,0,0,0	to_hand	s621
355.955	0.355	0	PA_without_intermediate	3,2,0,1,0,0,0,0,0	test	ward_and_allport	3,2,0,0,0,0,1,0,0	89.0	30.0	0.355	0,0,0,1,2,3,0,0,0	to_board	s621
356.317	0.883	0	PA_without_intermediate	3,2,0,0,0,0,0,0,0	test	ward_and_allport	3,2,0,0,0,0,1,0,0	71.0	30.0	0.883	0,0,0,1,2,3,0,0,0	to_hand	s621
357.201	0.313	0	PA_without_intermediate	3,2,0,0,0,0,1,0,0	test	ward_and_allport	3,2,0,0,0,0,1,0,0	82.0	30.0	0.313	0,0,0,1,2,3,0,0,0	to_board	s621
357.525	1.0	0	PA_without_intermediate	n/a	test	ward_and_allport	n/a	-1.0	30.0	n/a	n/a	feedback	s621
358.525	1.136	0	PA_without_intermediate	n/a	test	ward_and_allport	n/a	-1.0	30.0	n/a	n/a	ITI	s621
359.668	3.781	1	PA_without_intermediate	0,0,0,0,0,0,1,2,0	test	ward_and_allport	2,0,0,3,1,0,0,0,0	82.0	31.0	3.781	0,0,0,0,0,0,1,2,3	to_hand	s621
363.449	0.368	0	PA_without_intermediate	0,0,0,3,0,0,1,2,0	test	ward_and_allport	2,0,0,3,1,0,0,0,0	71.0	31.0	0.368	0,0,0,0,0,0,1,2,3	to_board	s621
363.824	1.514	0	PA_without_intermediate	0,0,0,3,0,0,1,0,0	test	ward_and_allport	2,0,0,3,1,0,0,0,0	82.0	31.0	1.514	0,0,0,0,0,0,1,2,3	to_hand	s621
365.34	0.333	0	PA_without_intermediate	2,0,0,3,0,0,1,0,0	test	ward_and_allport	2,0,0,3,1,0,0,0,0	89.0	31.0	0.333	0,0,0,0,0,0,1,2,3	to_board	s621
365.682	0.955	0	PA_without_intermediate	2,0,0,3,0,0,0,0,0	test	ward_and_allport	2,0,0,3,1,0,0,0,0	82.0	31.0	0.955	0,0,0,0,0,0,1,2,3	to_hand	s621
366.639	0.288	0	PA_without_intermediate	2,0,0,3,1,0,0,0,0	test	ward_and_allport	2,0,0,3,1,0,0,0,0	71.0	31.0	0.288	0,0,0,0,0,0,1,2,3	to_board	s621
366.935	1.0	0	PA_without_intermediate	n/a	test	ward_and_allport	n/a	-1.0	31.0	n/a	n/a	feedback	s621
367.935	6.168	0	PA_without_intermediate	n/a	test	ward_and_allport	n/a	-1.0	31.0	n/a	n/a	ITI	s621
374.112	3.358	1	PA_without_intermediate	1,2,0,0,0,0,0,0,0	test	ward_and_allport	0,0,0,3,1,0,2,0,0	89.0	32.0	3.358	1,2,3,0,0,0,0,0,0	to_hand	s621
377.471	0.531	0	PA_without_intermediate	1,2,0,3,0,0,0,0,0	test	ward_and_allport	0,0,0,3,1,0,2,0,0	71.0	32.0	0.531	1,2,3,0,0,0,0,0,0	to_board	s621
378.011	0.409	0	PA_without_intermediate	1,0,0,3,0,0,0,0,0	test	ward_and_allport	0,0,0,3,1,0,2,0,0	89.0	32.0	0.409	1,2,3,0,0,0,0,0,0	to_hand	s621
378.42	0.41	0	PA_without_intermediate	1,0,0,3,0,0,2,0,0	test	ward_and_allport	0,0,0,3,1,0,2,0,0	82.0	32.0	0.41	1,2,3,0,0,0,0,0,0	to_board	s621
378.839	0.376	0	PA_without_intermediate	0,0,0,3,0,0,2,0,0	test	ward_and_allport	0,0,0,3,1,0,2,0,0	89.0	32.0	0.376	1,2,3,0,0,0,0,0,0	to_hand	s621
379.216	0.317	0	PA_without_intermediate	0,0,0,3,1,0,2,0,0	test	ward_and_allport	0,0,0,3,1,0,2,0,0	71.0	32.0	0.317	1,2,3,0,0,0,0,0,0	to_board	s621
379.543	1.0	0	PA_without_intermediate	n/a	test	ward_and_allport	n/a	-1.0	32.0	n/a	n/a	feedback	s621
380.543	1.816	0	PA_without_intermediate	n/a	test	ward_and_allport	n/a	-1.0	32.0	n/a	n/a	ITI	s621
382.367	4.12	1	PA_with_intermediate	0,0,0,1,2,0,0,0,0	test	ward_and_allport	2,0,0,1,3,0,0,0,0	71.0	33.0	4.12	0,0,0,1,2,3,0,0,0	to_hand	s621
386.488	0.352	0	PA_with_intermediate	0,0,0,1,2,0,3,0,0	test	ward_and_allport	2,0,0,1,3,0,0,0,0	82.0	33.0	0.352	0,0,0,1,2,3,0,0,0	to_board	s621
386.847	0.462	0	PA_with_intermediate	0,0,0,1,0,0,3,0,0	test	ward_and_allport	2,0,0,1,3,0,0,0,0	71.0	33.0	0.462	0,0,0,1,2,3,0,0,0	to_hand	s621
387.31	0.33	0	PA_with_intermediate	2,0,0,1,0,0,3,0,0	test	ward_and_allport	2,0,0,1,3,0,0,0,0	89.0	33.0	0.33	0,0,0,1,2,3,0,0,0	to_board	s621
387.648	0.484	0	PA_with_intermediate	2,0,0,1,0,0,0,0,0	test	ward_and_allport	2,0,0,1,3,0,0,0,0	82.0	33.0	0.484	0,0,0,1,2,3,0,0,0	to_hand	s621
388.132	0.269	0	PA_with_intermediate	2,0,0,1,3,0,0,0,0	test	ward_and_allport	2,0,0,1,3,0,0,0,0	71.0	33.0	0.269	0,0,0,1,2,3,0,0,0	to_board	s621
388.41	1.0	0	PA_with_intermediate	n/a	test	ward_and_allport	n/a	-1.0	33.0	n/a	n/a	feedback	s621
389.41	1.952	0	PA_with_intermediate	n/a	test	ward_and_allport	n/a	-1.0	33.0	n/a	n/a	ITI	s621
391.368	3.139	1	PA_with_intermediate	0,0,0,0,0,0,1,2,0	test	ward_and_allport	2,0,0,0,0,0,1,3,0	82.0	34.0	3.139	0,0,0,0,0,0,1,2,3	to_hand	s621
394.509	0.559	0	PA_with_intermediate	0,0,0,3,0,0,1,2,0	test	ward_and_allport	2,0,0,0,0,0,1,3,0	71.0	34.0	0.559	0,0,0,0,0,0,1,2,3	to_board	s621
395.076	0.709	0	PA_with_intermediate	0,0,0,3,0,0,1,0,0	test	ward_and_allport	2,0,0,0,0,0,1,3,0	82.0	34.0	0.709	0,0,0,0,0,0,1,2,3	to_hand	s621
395.787	0.268	0	PA_with_intermediate	2,0,0,3,0,0,1,0,0	test	ward_and_allport	2,0,0,0,0,0,1,3,0	89.0	34.0	0.268	0,0,0,0,0,0,1,2,3	to_board	s621
396.061	0.533	0	PA_with_intermediate	2,0,0,0,0,0,1,0,0	test	ward_and_allport	2,0,0,0,0,0,1,3,0	71.0	34.0	0.533	0,0,0,0,0,0,1,2,3	to_hand	s621
396.595	0.343	0	PA_with_intermediate	2,0,0,0,0,0,1,3,0	test	ward_and_allport	2,0,0,0,0,0,1,3,0	82.0	34.0	0.343	0,0,0,0,0,0,1,2,3	to_board	s621
396.949	1.0	0	PA_with_intermediate	n/a	test	ward_and_allport	n/a	-1.0	34.0	n/a	n/a	feedback	s621
397.949	1.136	0	PA_with_intermediate	n/a	test	ward_and_allport	n/a	-1.0	34.0	n/a	n/a	ITI	s621
399.098	3.284	1	PA_without_intermediate	0,0,0,1,2,0,0,0,0	test	ward_and_allport	2,0,0,0,0,0,3,1,0	71.0	35.0	3.284	0,0,0,1,2,3,0,0,0	to_hand	s621
402.382	0.376	0	PA_without_intermediate	0,0,0,1,2,0,3,0,0	test	ward_and_allport	2,0,0,0,0,0,3,1,0	82.0	35.0	0.376	0,0,0,1,2,3,0,0,0	to_board	s621
402.766	0.493	0	PA_without_intermediate	0,0,0,1,0,0,3,0,0	test	ward_and_allport	2,0,0,0,0,0,3,1,0	71.0	35.0	0.493	0,0,0,1,2,3,0,0,0	to_hand	s621
403.261	0.368	0	PA_without_intermediate	2,0,0,1,0,0,3,0,0	test	ward_and_allport	2,0,0,0,0,0,3,1,0	89.0	35.0	0.368	0,0,0,1,2,3,0,0,0	to_board	s621
403.636	0.406	0	PA_without_intermediate	2,0,0,0,0,0,3,0,0	test	ward_and_allport	2,0,0,0,0,0,3,1,0	71.0	35.0	0.406	0,0,0,1,2,3,0,0,0	to_hand	s621
404.043	0.596	0	PA_without_intermediate	2,0,0,0,0,0,3,1,0	test	ward_and_allport	2,0,0,0,0,0,3,1,0	82.0	35.0	0.596	0,0,0,1,2,3,0,0,0	to_board	s621
404.645	1.0	0	PA_without_intermediate	n/a	test	ward_and_allport	n/a	-1.0	35.0	n/a	n/a	feedback	s621
405.645	1.68	0	PA_without_intermediate	n/a	test	ward_and_allport	n/a	-1.0	35.0	n/a	n/a	ITI	s621
407.33	3.486	1	PA_without_intermediate	0,0,0,1,2,0,0,0,0	test	ward_and_allport	1,0,0,0,0,0,3,2,0	71.0	36.0	3.486	0,0,0,1,2,3,0,0,0	to_hand	s621
410.818	0.718	0	PA_without_intermediate	0,0,0,1,2,0,3,0,0	test	ward_and_allport	1,0,0,0,0,0,3,2,0	82.0	36.0	0.718	0,0,0,1,2,3,0,0,0	to_board	s621
411.544	0.869	0	PA_without_intermediate	0,0,0,1,0,0,3,0,0	test	ward_and_allport	1,0,0,0,0,0,3,2,0	71.0	36.0	0.869	0,0,0,1,2,3,0,0,0	to_hand	s621
412.414	0.387	0	PA_without_intermediate	0,0,0,1,0,0,3,2,0	test	ward_and_allport	1,0,0,0,0,0,3,2,0	82.0	36.0	0.387	0,0,0,1,2,3,0,0,0	to_board	s621
412.81	0.377	0	PA_without_intermediate	0,0,0,0,0,0,3,2,0	test	ward_and_allport	1,0,0,0,0,0,3,2,0	71.0	36.0	0.377	0,0,0,1,2,3,0,0,0	to_hand	s621
413.188	0.24	0	PA_without_intermediate	1,0,0,0,0,0,3,2,0	test	ward_and_allport	1,0,0,0,0,0,3,2,0	89.0	36.0	0.24	0,0,0,1,2,3,0,0,0	to_board	s621
413.436	1.0	0	PA_without_intermediate	n/a	test	ward_and_allport	n/a	-1.0	36.0	n/a	n/a	feedback	s621
414.436	2.088	0	PA_without_intermediate	n/a	test	ward_and_allport	n/a	-1.0	36.0	n/a	n/a	ITI	s621
416.53	2.639	1	PA_with_intermediate	1,2,0,0,0,0,0,0,0	test	ward_and_allport	1,3,0,0,0,0,2,0,0	89.0	37.0	2.639	1,2,3,0,0,0,0,0,0	to_hand	s621
419.17	0.399	0	PA_with_intermediate	1,2,0,3,0,0,0,0,0	test	ward_and_allport	1,3,0,0,0,0,2,0,0	71.0	37.0	0.399	1,2,3,0,0,0,0,0,0	to_board	s621
419.575	0.389	0	PA_with_intermediate	1,0,0,3,0,0,0,0,0	test	ward_and_allport	1,3,0,0,0,0,2,0,0	89.0	37.0	0.389	1,2,3,0,0,0,0,0,0	to_hand	s621
419.964	0.377	0	PA_with_intermediate	1,0,0,3,0,0,2,0,0	test	ward_and_allport	1,3,0,0,0,0,2,0,0	82.0	37.0	0.377	1,2,3,0,0,0,0,0,0	to_board	s621
420.35	1.38	0	PA_with_intermediate	1,0,0,0,0,0,2,0,0	test	ward_and_allport	1,3,0,0,0,0,2,0,0	71.0	37.0	1.38	1,2,3,0,0,0,0,0,0	to_hand	s621
421.731	0.215	0	PA_with_intermediate	1,3,0,0,0,0,2,0,0	test	ward_and_allport	1,3,0,0,0,0,2,0,0	89.0	37.0	0.215	1,2,3,0,0,0,0,0,0	to_board	s621
421.954	1.0	0	PA_with_intermediate	n/a	test	ward_and_allport	n/a	-1.0	37.0	n/a	n/a	feedback	s621
422.954	1.0	0	PA_with_intermediate	n/a	test	ward_and_allport	n/a	-1.0	37.0	n/a	n/a	ITI	s621
423.961	2.885	1	PA_without_intermediate	1,2,0,0,0,0,0,0,0	test	ward_and_allport	0,0,0,3,1,0,2,0,0	89.0	38.0	2.885	1,2,3,0,0,0,0,0,0	to_hand	s621
426.848	0.261	0	PA_without_intermediate	1,2,0,3,0,0,0,0,0	test	ward_and_allport	0,0,0,3,1,0,2,0,0	71.0	38.0	0.261	1,2,3,0,0,0,0,0,0	to_board	s621
427.115	1.087	0	PA_without_intermediate	1,0,0,3,0,0,0,0,0	test	ward_and_allport	0,0,0,3,1,0,2,0,0	89.0	38.0	1.087	1,2,3,0,0,0,0,0,0	to_hand	s621
428.203	0.346	0	PA_without_intermediate	1,0,0,3,0,0,2,0,0	test	ward_and_allport	0,0,0,3,1,0,2,0,0	82.0	38.0	0.346	1,2,3,0,0,0,0,0,0	to_board	s621
428.555	0.612	0	PA_without_intermediate	0,0,0,3,0,0,2,0,0	test	ward_and_allport	0,0,0,3,1,0,2,0,0	89.0	38.0	0.612	1,2,3,0,0,0,0,0,0	to_hand	s621
429.168	0.256	0	PA_without_intermediate	0,0,0,3,1,0,2,0,0	test	ward_and_allport	0,0,0,3,1,0,2,0,0	71.0	38.0	0.256	1,2,3,0,0,0,0,0,0	to_board	s621
429.431	1.0	0	PA_without_intermediate	n/a	test	ward_and_allport	n/a	-1.0	38.0	n/a	n/a	feedback	s621
430.431	1.0	0	PA_without_intermediate	n/a	test	ward_and_allport	n/a	-1.0	38.0	n/a	n/a	ITI	s621
431.437	2.355	1	PA_without_intermediate	0,0,0,1,2,0,0,0,0	test	ward_and_allport	1,0,0,0,0,0,3,2,0	71.0	39.0	2.355	0,0,0,1,2,3,0,0,0	to_hand	s621
433.793	0.436	0	PA_without_intermediate	0,0,0,1,2,0,3,0,0	test	ward_and_allport	1,0,0,0,0,0,3,2,0	82.0	39.0	0.436	0,0,0,1,2,3,0,0,0	to_board	s621
434.237	0.464	0	PA_without_intermediate	0,0,0,1,0,0,3,0,0	test	ward_and_allport	1,0,0,0,0,0,3,2,0	71.0	39.0	0.464	0,0,0,1,2,3,0,0,0	to_hand	s621
434.702	0.537	0	PA_without_intermediate	0,0,0,1,0,0,3,2,0	test	ward_and_allport	1,0,0,0,0,0,3,2,0	82.0	39.0	0.537	0,0,0,1,2,3,0,0,0	to_board	s621
435.247	0.547	0	PA_without_intermediate	0,0,0,0,0,0,3,2,0	test	ward_and_allport	1,0,0,0,0,0,3,2,0	71.0	39.0	0.547	0,0,0,1,2,3,0,0,0	to_hand	s621
435.795	0.337	0	PA_without_intermediate	1,0,0,0,0,0,3,2,0	test	ward_and_allport	1,0,0,0,0,0,3,2,0	89.0	39.0	0.337	0,0,0,1,2,3,0,0,0	to_board	s621
436.141	1.0	0	PA_without_intermediate	n/a	test	ward_and_allport	n/a	-1.0	39.0	n/a	n/a	feedback	s621
437.141	1.0	0	PA_without_intermediate	n/a	test	ward_and_allport	n/a	-1.0	39.0	n/a	n/a	ITI	s621
438.147	3.469	1	PA_with_intermediate	0,0,0,0,0,0,1,2,0	test	ward_and_allport	0,0,0,2,3,0,1,0,0	82.0	40.0	3.469	0,0,0,0,0,0,1,2,3	to_hand	s621
441.617	0.331	0	PA_with_intermediate	3,0,0,0,0,0,1,2,0	test	ward_and_allport	0,0,0,2,3,0,1,0,0	89.0	40.0	0.331	0,0,0,0,0,0,1,2,3	to_board	s621
441.953	0.883	0	PA_with_intermediate	3,0,0,0,0,0,1,0,0	test	ward_and_allport	0,0,0,2,3,0,1,0,0	82.0	40.0	0.883	0,0,0,0,0,0,1,2,3	to_hand	s621
442.837	0.307	0	PA_with_intermediate	3,0,0,2,0,0,1,0,0	test	ward_and_allport	0,0,0,2,3,0,1,0,0	71.0	40.0	0.307	0,0,0,0,0,0,1,2,3	to_board	s621
443.153	0.38	0	PA_with_intermediate	0,0,0,2,0,0,1,0,0	test	ward_and_allport	0,0,0,2,3,0,1,0,0	89.0	40.0	0.38	0,0,0,0,0,0,1,2,3	to_hand	s621
443.534	0.239	0	PA_with_intermediate	0,0,0,2,3,0,1,0,0	test	ward_and_allport	0,0,0,2,3,0,1,0,0	71.0	40.0	0.239	0,0,0,0,0,0,1,2,3	to_board	s621
443.783	1.0	0	PA_with_intermediate	n/a	test	ward_and_allport	n/a	-1.0	40.0	n/a	n/a	feedback	s621
444.783	1.544	0	PA_with_intermediate	n/a	test	ward_and_allport	n/a	-1.0	40.0	n/a	n/a	ITI	s621
446.335	1.788	1	PA_without_intermediate	0,0,0,1,2,0,0,0,0	test	ward_and_allport	3,2,0,0,0,0,1,0,0	71.0	41.0	1.788	0,0,0,1,2,3,0,0,0	to_hand	s621
448.125	0.279	0	PA_without_intermediate	3,0,0,1,2,0,0,0,0	test	ward_and_allport	3,2,0,0,0,0,1,0,0	89.0	41.0	0.279	0,0,0,1,2,3,0,0,0	to_board	s621
448.413	0.988	0	PA_without_intermediate	3,0,0,1,0,0,0,0,0	test	ward_and_allport	3,2,0,0,0,0,1,0,0	71.0	41.0	0.988	0,0,0,1,2,3,0,0,0	to_hand	s621
449.402	0.277	0	PA_without_intermediate	3,2,0,1,0,0,0,0,0	test	ward_and_allport	3,2,0,0,0,0,1,0,0	89.0	41.0	0.277	0,0,0,1,2,3,0,0,0	to_board	s621
449.685	0.576	0	PA_without_intermediate	3,2,0,0,0,0,0,0,0	test	ward_and_allport	3,2,0,0,0,0,1,0,0	71.0	41.0	0.576	0,0,0,1,2,3,0,0,0	to_hand	s621
450.262	0.529	0	PA_without_intermediate	3,2,0,0,0,0,1,0,0	test	ward_and_allport	3,2,0,0,0,0,1,0,0	82.0	41.0	0.529	0,0,0,1,2,3,0,0,0	to_board	s621
450.802	1.0	0	PA_without_intermediate	n/a	test	ward_and_allport	n/a	-1.0	41.0	n/a	n/a	feedback	s621
451.802	1.272	0	PA_without_intermediate	n/a	test	ward_and_allport	n/a	-1.0	41.0	n/a	n/a	ITI	s621
453.08	3.932	1	PA_with_intermediate	1,2,0,0,0,0,0,0,0	test	ward_and_allport	1,0,0,0,0,0,2,3,0	89.0	42.0	3.932	1,2,3,0,0,0,0,0,0	to_hand	s621
457.013	0.3	0	PA_with_intermediate	1,2,0,3,0,0,0,0,0	test	ward_and_allport	1,0,0,0,0,0,2,3,0	71.0	42.0	0.3	1,2,3,0,0,0,0,0,0	to_board	s621
457.318	0.382	0	PA_with_intermediate	1,0,0,3,0,0,0,0,0	test	ward_and_allport	1,0,0,0,0,0,2,3,0	89.0	42.0	0.382	1,2,3,0,0,0,0,0,0	to_hand	s621
457.702	0.376	0	PA_with_intermediate	1,0,0,3,0,0,2,0,0	test	ward_and_allport	1,0,0,0,0,0,2,3,0	82.0	42.0	0.376	1,2,3,0,0,0,0,0,0	to_board	s621
458.085	0.326	0	PA_with_intermediate	1,0,0,0,0,0,2,0,0	test	ward_and_allport	1,0,0,0,0,0,2,3,0	71.0	42.0	0.326	1,2,3,0,0,0,0,0,0	to_hand	s621
458.413	0.394	0	PA_with_intermediate	1,0,0,0,0,0,2,3,0	test	ward_and_allport	1,0,0,0,0,0,2,3,0	82.0	42.0	0.394	1,2,3,0,0,0,0,0,0	to_board	s621
458.821	1.0	0	PA_with_intermediate	n/a	test	ward_and_allport	n/a	-1.0	42.0	n/a	n/a	feedback	s621
459.821	3.04	0	PA_with_intermediate	n/a	test	ward_and_allport	n/a	-1.0	42.0	n/a	n/a	ITI	s621
462.869	2.53	1	PA_with_intermediate	1,2,0,0,0,0,0,0,0	test	ward_and_allport	1,0,0,2,3,0,0,0,0	89.0	43.0	2.53	1,2,3,0,0,0,0,0,0	to_hand	s621
465.4	0.327	0	PA_with_intermediate	1,2,0,0,0,0,3,0,0	test	ward_and_allport	1,0,0,2,3,0,0,0,0	82.0	43.0	0.327	1,2,3,0,0,0,0,0,0	to_board	s621
465.734	0.444	0	PA_with_intermediate	1,0,0,0,0,0,3,0,0	test	ward_and_allport	1,0,0,2,3,0,0,0,0	89.0	43.0	0.444	1,2,3,0,0,0,0,0,0	to_hand	s621
466.18	0.329	0	PA_with_intermediate	1,0,0,2,0,0,3,0,0	test	ward_and_allport	1,0,0,2,3,0,0,0,0	71.0	43.0	0.329	1,2,3,0,0,0,0,0,0	to_board	s621
466.516	0.355	0	PA_with_intermediate	1,0,0,2,0,0,0,0,0	test	ward_and_allport	1,0,0,2,3,0,0,0,0	82.0	43.0	0.355	1,2,3,0,0,0,0,0,0	to_hand	s621
466.872	0.274	0	PA_with_intermediate	1,0,0,2,3,0,0,0,0	test	ward_and_allport	1,0,0,2,3,0,0,0,0	71.0	43.0	0.274	1,2,3,0,0,0,0,0,0	to_board	s621
467.157	1.0	0	PA_with_intermediate	n/a	test	ward_and_allport	n/a	-1.0	43.0	n/a	n/a	feedback	s621
468.157	1.272	0	PA_with_intermediate	n/a	test	ward_and_allport	n/a	-1.0	43.0	n/a	n/a	ITI	s621
469.439	3.492	1	PA_with_intermediate	0,0,0,1,2,0,0,0,0	test	ward_and_allport	0,0,0,1,3,0,2,0,0	71.0	44.0	3.492	0,0,0,1,2,3,0,0,0	to_hand	s621
472.932	0.245	0	PA_with_intermediate	3,0,0,1,2,0,0,0,0	test	ward_and_allport	0,0,0,1,3,0,2,0,0	89.0	44.0	0.245	0,0,0,1,2,3,0,0,0	to_board	s621
473.182	0.327	0	PA_with_intermediate	3,0,0,1,0,0,0,0,0	test	ward_and_allport	0,0,0,1,3,0,2,0,0	71.0	44.0	0.327	0,0,0,1,2,3,0,0,0	to_hand	s621
473.511	0.561	0	PA_with_intermediate	3,0,0,1,0,0,2,0,0	test	ward_and_allport	0,0,0,1,3,0,2,0,0	82.0	44.0	0.561	0,0,0,1,2,3,0,0,0	to_board	s621
474.08	0.302	0	PA_with_intermediate	0,0,0,1,0,0,2,0,0	test	ward_and_allport	0,0,0,1,3,0,2,0,0	89.0	44.0	0.302	0,0,0,1,2,3,0,0,0	to_hand	s621
474.382	0.294	0	PA_with_intermediate	0,0,0,1,3,0,2,0,0	test	ward_and_allport	0,0,0,1,3,0,2,0,0	71.0	44.0	0.294	0,0,0,1,2,3,0,0,0	to_board	s621
474.687	1.0	0	PA_with_intermediate	n/a	test	ward_and_allport	n/a	-1.0	44.0	n/a	n/a	feedback	s621
475.687	1.136	0	PA_with_intermediate	n/a	test	ward_and_allport	n/a	-1.0	44.0	n/a	n/a	ITI	s621
481.838	4.032	1	PA_with_intermediate	0,0,0,0,0,0,1,2,0	test	ward_and_allport	2,3,0,0,0,0,1,0,0	82.0	45.0	4.032	0,0,0,0,0,0,1,2,3	to_hand	s621
485.871	0.314	0	PA_with_intermediate	0,0,0,3,0,0,1,2,0	test	ward_and_allport	2,3,0,0,0,0,1,0,0	71.0	45.0	0.314	0,0,0,0,0,0,1,2,3	to_board	s621
486.195	0.845	0	PA_with_intermediate	0,0,0,3,0,0,1,0,0	test	ward_and_allport	2,3,0,0,0,0,1,0,0	82.0	45.0	0.845	0,0,0,0,0,0,1,2,3	to_hand	s621
487.041	0.392	0	PA_with_intermediate	2,0,0,3,0,0,1,0,0	test	ward_and_allport	2,3,0,0,0,0,1,0,0	89.0	45.0	0.392	0,0,0,0,0,0,1,2,3	to_board	s621
487.444	0.487	0	PA_with_intermediate	2,0,0,0,0,0,1,0,0	test	ward_and_allport	2,3,0,0,0,0,1,0,0	71.0	45.0	0.487	0,0,0,0,0,0,1,2,3	to_hand	s621
487.932	0.287	0	PA_with_intermediate	2,3,0,0,0,0,1,0,0	test	ward_and_allport	2,3,0,0,0,0,1,0,0	89.0	45.0	0.287	0,0,0,0,0,0,1,2,3	to_board	s621
488.232	1.0	0	PA_with_intermediate	n/a	test	ward_and_allport	n/a	-1.0	45.0	n/a	n/a	feedback	s621
489.232	1.0	0	PA_with_intermediate	n/a	test	ward_and_allport	n/a	-1.0	45.0	n/a	n/a	ITI	s621
490.241	2.544	1	PA_with_intermediate	0,0,0,0,0,0,1,2,0	test	ward_and_allport	0,0,0,2,0,0,1,3,0	82.0	46.0	2.544	0,0,0,0,0,0,1,2,3	to_hand	s621
492.786	0.31	0	PA_with_intermediate	3,0,0,0,0,0,1,2,0	test	ward_and_allport	0,0,0,2,0,0,1,3,0	89.0	46.0	0.31	0,0,0,0,0,0,1,2,3	to_board	s621
493.103	0.622	0	PA_with_intermediate	3,0,0,0,0,0,1,0,0	test	ward_and_allport	0,0,0,2,0,0,1,3,0	82.0	46.0	0.622	0,0,0,0,0,0,1,2,3	to_hand	s621
493.726	0.256	0	PA_with_intermediate	3,0,0,2,0,0,1,0,0	test	ward_and_allport	0,0,0,2,0,0,1,3,0	71.0	46.0	0.256	0,0,0,0,0,0,1,2,3	to_board	s621
493.988	0.349	0	PA_with_intermediate	0,0,0,2,0,0,1,0,0	test	ward_and_allport	0,0,0,2,0,0,1,3,0	89.0	46.0	0.349	0,0,0,0,0,0,1,2,3	to_hand	s621
494.337	0.259	0	PA_with_intermediate	0,0,0,2,0,0,1,3,0	test	ward_and_allport	0,0,0,2,0,0,1,3,0	82.0	46.0	0.259	0,0,0,0,0,0,1,2,3	to_board	s621
494.605	1.0	0	PA_with_intermediate	n/a	test	ward_and_allport	n/a	-1.0	46.0	n/a	n/a	feedback	s621
495.605	1.0	0	PA_with_intermediate	n/a	test	ward_and_allport	n/a	-1.0	46.0	n/a	n/a	ITI	s621
496.612	3.178	1	PA_without_intermediate	0,0,0,0,0,0,1,2,0	test	ward_and_allport	3,1,0,2,0,0,0,0,0	82.0	47.0	3.178	0,0,0,0,0,0,1,2,3	to_hand	s621
499.791	0.343	0	PA_without_intermediate	3,0,0,0,0,0,1,2,0	test	ward_and_allport	3,1,0,2,0,0,0,0,0	89.0	47.0	0.343	0,0,0,0,0,0,1,2,3	to_board	s621
500.142	4.094	0	PA_without_intermediate	3,0,0,0,0,0,1,0,0	test	ward_and_allport	3,1,0,2,0,0,0,0,0	82.0	47.0	4.094	0,0,0,0,0,0,1,2,3	to_hand	s621
504.236	0.34	0	PA_without_intermediate	3,0,0,2,0,0,1,0,0	test	ward_and_allport	3,1,0,2,0,0,0,0,0	71.0	47.0	0.34	0,0,0,0,0,0,1,2,3	to_board	s621
504.585	1.035	0	PA_without_intermediate	3,0,0,2,0,0,0,0,0	test	ward_and_allport	3,1,0,2,0,0,0,0,0	82.0	47.0	1.035	0,0,0,0,0,0,1,2,3	to_hand	s621
505.621	0.433	0	PA_without_intermediate	3,1,0,2,0,0,0,0,0	test	ward_and_allport	3,1,0,2,0,0,0,0,0	89.0	47.0	0.433	0,0,0,0,0,0,1,2,3	to_board	s621
506.069	1.0	0	PA_without_intermediate	n/a	test	ward_and_allport	n/a	-1.0	47.0	n/a	n/a	feedback	s621
507.069	1.408	0	PA_without_intermediate	n/a	test	ward_and_allport	n/a	-1.0	47.0	n/a	n/a	ITI	s621
n/a	n/a	0	n/a	n/a	n/a	n/a	n/a	n/a	n/a	n/a	n/a	ITI	n/a
