onset	duration	EV	action	clicked_on_loss_card	experiment_exp_id	gain_amount	gain_probability	key_press	loss_amount	loss_probability	num_cards	num_click_in_round	num_loss_cards	risk	response_time	total_cards	trial_id	worker_id
3.012	4.994	-0.1072274840953	draw_card	0.0	columbia_card_task_fmri	12.0	0.8333333333333334	89.0	-70.0	0.1666666666666666	6.0	1.0	1.0	-1.6613647874271074	4.994	n/a	stim	s621
8.008	0.65	-2.8405608174286323	draw_card	0.0	columbia_card_task_fmri	12.0	0.8	89.0	-70.0	0.2	6.0	2.0	1.0	0.5763266989427507	0.65	n/a	stim	s621
8.659	0.681	-6.940560817428634	draw_card	0.0	columbia_card_task_fmri	12.0	0.75	89.0	-70.0	0.25	6.0	3.0	1.0	3.280546412876717	0.681	n/a	stim	s621
9.342	2.457	-13.773894150761969	end_round	0.0	columbia_card_task_fmri	12.0	0.6666666666666667	71.0	-70.0	0.3333333333333333	6.0	4.0	1.0	6.425890343789568	2.457	3.0	stim	s621
11.805	2.25	n/a	-1.0	n/a	columbia_card_task_fmri	n/a	n/a	-1.0	n/a	n/a	n/a	n/a	n/a	n/a	n/a	n/a	feedback	s621
14.055	0.204	n/a	-1.0	n/a	columbia_card_task_fmri	n/a	n/a	-1.0	n/a	n/a	n/a	n/a	n/a	n/a	n/a	n/a	ITI	s621
14.262	3.246	0.7261058492380339	draw_card	0.0	columbia_card_task_fmri	14.0	0.8333333333333334	89.0	-75.0	0.1666666666666666	6.0	1.0	1.0	0.9442573737654456	3.246	n/a	stim	s621
17.509	0.342	-2.2405608174286327	draw_card	1.0	columbia_card_task_fmri	14.0	0.8	89.0	-75.0	0.2	6.0	2.0	1.0	3.3734155672337565	0.342	2.0	stim	s621
17.856	2.25	n/a	-1.0	n/a	columbia_card_task_fmri	n/a	n/a	-1.0	n/a	n/a	n/a	n/a	n/a	n/a	n/a	n/a	feedback	s621
20.106	0.204	n/a	-1.0	n/a	columbia_card_task_fmri	n/a	n/a	-1.0	n/a	n/a	n/a	n/a	n/a	n/a	n/a	n/a	ITI	s621
20.312	5.281	2.3927725159047	draw_card	1.0	columbia_card_task_fmri	15.0	0.8333333333333334	89.0	-70.0	0.1666666666666666	6.0	1.0	1.0	-0.5447324628110266	5.281	1.0	stim	s621
25.598	2.25	n/a	-1.0	n/a	columbia_card_task_fmri	n/a	n/a	-1.0	n/a	n/a	n/a	n/a	n/a	n/a	n/a	n/a	feedback	s621
27.848	0.272	n/a	-1.0	n/a	columbia_card_task_fmri	n/a	n/a	-1.0	n/a	n/a	n/a	n/a	n/a	n/a	n/a	n/a	ITI	s621
28.121	6.287	3.226105849238034	draw_card	1.0	columbia_card_task_fmri	17.0	0.8333333333333334	89.0	-75.0	0.1666666666666666	6.0	1.0	1.0	2.061097867912565	6.287	1.0	stim	s621
34.411	2.25	n/a	-1.0	n/a	columbia_card_task_fmri	n/a	n/a	-1.0	n/a	n/a	n/a	n/a	n/a	n/a	n/a	n/a	feedback	s621
36.661	0.136	n/a	-1.0	n/a	columbia_card_task_fmri	n/a	n/a	-1.0	n/a	n/a	n/a	n/a	n/a	n/a	n/a	n/a	ITI	s621
36.799	3.674	4.559439182571366	draw_card	1.0	columbia_card_task_fmri	24.0	0.75	89.0	-60.0	0.25	8.0	1.0	2.0	4.145757618346963	3.674	1.0	stim	s621
40.478	2.25	n/a	-1.0	n/a	columbia_card_task_fmri	n/a	n/a	-1.0	n/a	n/a	n/a	n/a	n/a	n/a	n/a	n/a	feedback	s621
42.728	0.204	n/a	-1.0	n/a	columbia_card_task_fmri	n/a	n/a	-1.0	n/a	n/a	n/a	n/a	n/a	n/a	n/a	n/a	ITI	s621
42.933	3.081	4.559439182571366	draw_card	0.0	columbia_card_task_fmri	29.0	0.75	89.0	-75.0	0.25	8.0	1.0	2.0	12.799590207600048	3.081	n/a	stim	s621
46.015	0.522	0.8451534682856543	draw_card	0.0	columbia_card_task_fmri	29.0	0.7142857142857143	89.0	-75.0	0.2857142857142857	8.0	2.0	2.0	14.74756099438207	0.522	n/a	stim	s621
46.538	0.676	-4.107227484095298	draw_card	0.0	columbia_card_task_fmri	29.0	0.6666666666666667	89.0	-75.0	0.3333333333333333	8.0	3.0	2.0	16.790142229674267	0.676	n/a	stim	s621
47.216	1.191	-11.040560817428636	end_round	0.0	columbia_card_task_fmri	29.0	0.6	71.0	-75.0	0.4	8.0	4.0	2.0	18.71252315120961	1.191	3.0	stim	s621
48.408	2.25	n/a	-1.0	n/a	columbia_card_task_fmri	n/a	n/a	-1.0	n/a	n/a	n/a	n/a	n/a	n/a	n/a	n/a	feedback	s621
50.658	0.272	n/a	-1.0	n/a	columbia_card_task_fmri	n/a	n/a	-1.0	n/a	n/a	n/a	n/a	n/a	n/a	n/a	n/a	ITI	s621
50.933	3.95	0.3372169603491464	draw_card	0.0	columbia_card_task_fmri	17.0	0.7777777777777778	89.0	-65.0	0.2222222222222222	9.0	1.0	2.0	1.865581689266996	3.95	n/a	stim	s621
54.885	0.82	-1.940560817428634	draw_card	0.0	columbia_card_task_fmri	17.0	0.75	89.0	-65.0	0.25	9.0	2.0	2.0	3.280546412876717	0.82	n/a	stim	s621
55.706	0.816	-4.869132246000061	draw_card	0.0	columbia_card_task_fmri	17.0	0.7142857142857143	89.0	-65.0	0.2857142857142857	9.0	3.0	2.0	4.815910188753641	0.816	n/a	stim	s621
56.523	4.648	-8.773894150761965	end_round	0.0	columbia_card_task_fmri	17.0	0.6666666666666667	71.0	-65.0	0.3333333333333333	9.0	4.0	2.0	6.425890343789568	4.648	3.0	stim	s621
61.177	2.25	n/a	-1.0	n/a	columbia_card_task_fmri	n/a	n/a	-1.0	n/a	n/a	n/a	n/a	n/a	n/a	n/a	n/a	feedback	s621
63.427	0.272	n/a	-1.0	n/a	columbia_card_task_fmri	n/a	n/a	-1.0	n/a	n/a	n/a	n/a	n/a	n/a	n/a	n/a	ITI	s621
63.7	4.517	4.659439182571366	draw_card	0.0	columbia_card_task_fmri	14.0	0.9	89.0	-95.0	0.1	10.0	1.0	1.0	0.4764398731702215	4.517	n/a	stim	s621
68.219	0.981	3.4483280714602538	end_round	0.0	columbia_card_task_fmri	14.0	0.8888888888888888	71.0	-95.0	0.1111111111111111	10.0	2.0	1.0	2.030149414034234	0.981	1.0	stim	s621
69.205	2.25	n/a	-1.0	n/a	columbia_card_task_fmri	n/a	n/a	-1.0	n/a	n/a	n/a	n/a	n/a	n/a	n/a	n/a	feedback	s621
71.455	0.34	n/a	-1.0	n/a	columbia_card_task_fmri	n/a	n/a	-1.0	n/a	n/a	n/a	n/a	n/a	n/a	n/a	n/a	ITI	s621
71.797	2.19	0.559439182571366	draw_card	0.0	columbia_card_task_fmri	15.0	0.8	89.0	-65.0	0.2	10.0	1.0	2.0	-0.2227481364114041	2.19	n/a	stim	s621
73.988	0.618	-1.2183385952064107	draw_card	0.0	columbia_card_task_fmri	15.0	0.7777777777777778	89.0	-65.0	0.2222222222222222	10.0	2.0	2.0	1.034992523032507	0.618	n/a	stim	s621
74.608	0.541	-3.4405608174286337	draw_card	1.0	columbia_card_task_fmri	15.0	0.75	89.0	-65.0	0.25	10.0	3.0	2.0	2.415375857040964	0.541	3.0	stim	s621
75.153	2.25	n/a	-1.0	n/a	columbia_card_task_fmri	n/a	n/a	-1.0	n/a	n/a	n/a	n/a	n/a	n/a	n/a	n/a	feedback	s621
77.403	0.204	n/a	-1.0	n/a	columbia_card_task_fmri	n/a	n/a	-1.0	n/a	n/a	n/a	n/a	n/a	n/a	n/a	n/a	ITI	s621
77.609	1.908	2.159439182571368	draw_card	0.0	columbia_card_task_fmri	17.0	0.8	89.0	-65.0	0.2	10.0	1.0	2.0	0.5763266989427507	1.908	n/a	stim	s621
79.519	0.385	0.3372169603491464	draw_card	0.0	columbia_card_task_fmri	17.0	0.7777777777777778	89.0	-65.0	0.2222222222222222	10.0	2.0	2.0	1.865581689266996	0.385	n/a	stim	s621
79.906	0.487	-1.940560817428634	draw_card	1.0	columbia_card_task_fmri	17.0	0.75	89.0	-65.0	0.25	10.0	3.0	2.0	3.280546412876717	0.487	3.0	stim	s621
80.399	2.25	n/a	-1.0	n/a	columbia_card_task_fmri	n/a	n/a	-1.0	n/a	n/a	n/a	n/a	n/a	n/a	n/a	n/a	feedback	s621
82.649	0.068	n/a	-1.0	n/a	columbia_card_task_fmri	n/a	n/a	-1.0	n/a	n/a	n/a	n/a	n/a	n/a	n/a	n/a	ITI	s621
82.719	2.796	0.7261058492380339	draw_card	1.0	columbia_card_task_fmri	13.0	0.8333333333333334	89.0	-70.0	0.1666666666666666	12.0	1.0	2.0	-1.2891652495711377	2.796	1.0	stim	s621
85.518	2.25	n/a	-1.0	n/a	columbia_card_task_fmri	n/a	n/a	-1.0	n/a	n/a	n/a	n/a	n/a	n/a	n/a	n/a	feedback	s621
87.768	0.0	n/a	-1.0	n/a	columbia_card_task_fmri	n/a	n/a	-1.0	n/a	n/a	n/a	n/a	n/a	n/a	n/a	n/a	ITI	s621
87.771	3.468	0.7261058492380339	draw_card	0.0	columbia_card_task_fmri	15.0	0.8333333333333334	89.0	-80.0	0.1666666666666666	12.0	1.0	2.0	3.178013627537503	3.468	n/a	stim	s621
91.241	2.195	-0.7132880901559091	draw_card	0.0	columbia_card_task_fmri	15.0	0.8181818181818181	89.0	-80.0	0.1818181818181818	12.0	2.0	2.0	4.41343430921988	2.195	n/a	stim	s621
93.438	0.676	-2.4405608174286337	draw_card	1.0	columbia_card_task_fmri	15.0	0.8	89.0	-80.0	0.2	12.0	3.0	2.0	5.771261304545391	0.676	3.0	stim	s621
94.118	2.25	n/a	-1.0	n/a	columbia_card_task_fmri	n/a	n/a	-1.0	n/a	n/a	n/a	n/a	n/a	n/a	n/a	n/a	feedback	s621
96.368	0.408	n/a	-1.0	n/a	columbia_card_task_fmri	n/a	n/a	-1.0	n/a	n/a	n/a	n/a	n/a	n/a	n/a	n/a	ITI	s621
96.778	3.319	-0.2405608174286329	draw_card	0.0	columbia_card_task_fmri	14.0	0.8	89.0	-65.0	0.2	15.0	1.0	3.0	-0.622268019162604	3.319	n/a	stim	s621
100.099	0.429	-1.369132246000061	draw_card	1.0	columbia_card_task_fmri	14.0	0.7857142857142857	89.0	-65.0	0.2142857142857142	15.0	2.0	3.0	0.1925117445033635	0.429	2.0	stim	s621
100.53	2.25	n/a	-1.0	n/a	columbia_card_task_fmri	n/a	n/a	-1.0	n/a	n/a	n/a	n/a	n/a	n/a	n/a	n/a	feedback	s621
102.78	0.204	n/a	-1.0	n/a	columbia_card_task_fmri	n/a	n/a	-1.0	n/a	n/a	n/a	n/a	n/a	n/a	n/a	n/a	ITI	s621
102.986	6.75	-0.3155608174286339	draw_card	0.0	columbia_card_task_fmri	1.0	0.9375	89.0	-45.0	0.0625	16.0	1.0	1.0	-21.01722623402692	6.75	n/a	stim	s621
109.738	2.236	-0.5072274840953004	draw_card	0.0	columbia_card_task_fmri	1.0	0.9333333333333332	89.0	-45.0	0.0666666666666666	16.0	2.0	1.0	-20.680823753114336	2.236	n/a	stim	s621
111.976	0.638	-0.7262751031429195	draw_card	0.0	columbia_card_task_fmri	1.0	0.9285714285714286	89.0	-45.0	0.0714285714285714	16.0	3.0	1.0	-20.31171538752012	0.638	n/a	stim	s621
112.616	0.523	-0.9790223558901724	draw_card	0.0	columbia_card_task_fmri	1.0	0.9230769230769232	89.0	-45.0	0.0769230769230769	16.0	4.0	1.0	-19.90433337200229	0.523	n/a	stim	s621
113.141	0.383	-1.2738941507619674	draw_card	0.0	columbia_card_task_fmri	1.0	0.9166666666666666	89.0	-45.0	0.0833333333333333	16.0	5.0	1.0	-19.45171317977327	0.383	n/a	stim	s621
113.526	0.805	-1.6223789992468156	draw_card	1.0	columbia_card_task_fmri	1.0	0.9090909090909092	89.0	-45.0	0.0909090909090909	16.0	6.0	1.0	-18.94502262519668	0.805	6.0	stim	s621
114.337	2.25	n/a	-1.0	n/a	columbia_card_task_fmri	n/a	n/a	-1.0	n/a	n/a	n/a	n/a	n/a	n/a	n/a	n/a	feedback	s621
116.587	0.136	n/a	-1.0	n/a	columbia_card_task_fmri	n/a	n/a	-1.0	n/a	n/a	n/a	n/a	n/a	n/a	n/a	n/a	ITI	s621
116.725	4.015	0.621939182571366	draw_card	0.0	columbia_card_task_fmri	15.0	0.8125	89.0	-70.0	0.1875	16.0	1.0	3.0	0.9524585169648532	4.015	n/a	stim	s621
120.742	0.751	-0.4405608174286339	draw_card	0.0	columbia_card_task_fmri	15.0	0.8	89.0	-70.0	0.2	16.0	2.0	3.0	1.7750204513651369	0.751	n/a	stim	s621
121.495	1.148	-1.6548465317143493	draw_card	1.0	columbia_card_task_fmri	15.0	0.7857142857142857	89.0	-70.0	0.2142857142857142	16.0	3.0	3.0	2.651823648002626	1.148	3.0	stim	s621
122.647	2.25	n/a	-1.0	n/a	columbia_card_task_fmri	n/a	n/a	-1.0	n/a	n/a	n/a	n/a	n/a	n/a	n/a	n/a	feedback	s621
124.897	0.34	n/a	-1.0	n/a	columbia_card_task_fmri	n/a	n/a	-1.0	n/a	n/a	n/a	n/a	n/a	n/a	n/a	n/a	ITI	s621
125.239	2.426	7.559439182571366	draw_card	0.0	columbia_card_task_fmri	30.0	0.7	89.0	-50.0	0.3	10.0	1.0	3.0	4.4330343826912255	2.426	n/a	stim	s621
127.667	0.45	4.8927725159047055	draw_card	0.0	columbia_card_task_fmri	30.0	0.6666666666666667	89.0	-50.0	0.3333333333333333	10.0	2.0	3.0	5.483866711874448	0.45	n/a	stim	s621
128.119	0.421	1.559439182571366	draw_card	0.0	columbia_card_task_fmri	30.0	0.625	89.0	-50.0	0.375	10.0	3.0	3.0	6.500492534985405	0.421	n/a	stim	s621
128.542	0.435	-2.7262751031429184	draw_card	1.0	columbia_card_task_fmri	30.0	0.5714285714285714	89.0	-50.0	0.4285714285714285	10.0	4.0	3.0	7.359710718773307	0.435	4.0	stim	s621
128.98	2.25	n/a	-1.0	n/a	columbia_card_task_fmri	n/a	n/a	-1.0	n/a	n/a	n/a	n/a	n/a	n/a	n/a	n/a	feedback	s621
131.23	0.068	n/a	-1.0	n/a	columbia_card_task_fmri	n/a	n/a	-1.0	n/a	n/a	n/a	n/a	n/a	n/a	n/a	n/a	ITI	s621
131.3	1.911	6.959439182571367	draw_card	0.0	columbia_card_task_fmri	17.0	0.8666666666666667	89.0	-70.0	0.1333333333333333	15.0	1.0	2.0	-2.6453243928421983	1.911	n/a	stim	s621
133.213	0.934	6.130867753999939	draw_card	0.0	columbia_card_task_fmri	17.0	0.8571428571428572	89.0	-70.0	0.1428571428571428	15.0	2.0	2.0	-1.777151018927114	0.934	n/a	stim	s621
134.149	1.853	5.174823797955981	draw_card	0.0	columbia_card_task_fmri	17.0	0.8461538461538461	89.0	-70.0	0.1538461538461538	15.0	3.0	2.0	-0.8323052359012308	1.853	n/a	stim	s621
136.004	0.727	4.059439182571368	end_round	0.0	columbia_card_task_fmri	17.0	0.8333333333333334	71.0	-70.0	0.1666666666666666	15.0	4.0	2.0	0.1997426949505225	0.727	3.0	stim	s621
136.737	2.25	n/a	-1.0	n/a	columbia_card_task_fmri	n/a	n/a	-1.0	n/a	n/a	n/a	n/a	n/a	n/a	n/a	n/a	feedback	s621
138.987	0.34	n/a	-1.0	n/a	columbia_card_task_fmri	n/a	n/a	-1.0	n/a	n/a	n/a	n/a	n/a	n/a	n/a	n/a	ITI	s621
139.33	2.018	2.1844391825713663	draw_card	0.0	columbia_card_task_fmri	7.0	0.9375	89.0	-95.0	0.0625	16.0	1.0	1.0	-7.52125630649202	2.018	n/a	stim	s621
141.35	0.853	1.7594391825713662	end_round	0.0	columbia_card_task_fmri	7.0	0.9333333333333332	71.0	-95.0	0.0666666666666666	16.0	2.0	1.0	-6.769708173681025	0.853	1.0	stim	s621
142.208	2.25	n/a	-1.0	n/a	columbia_card_task_fmri	n/a	n/a	-1.0	n/a	n/a	n/a	n/a	n/a	n/a	n/a	n/a	feedback	s621
144.458	0.136	n/a	-1.0	n/a	columbia_card_task_fmri	n/a	n/a	-1.0	n/a	n/a	n/a	n/a	n/a	n/a	n/a	n/a	ITI	s621
144.597	2.689	3.7469391825713663	draw_card	0.0	columbia_card_task_fmri	9.0	0.9375	89.0	-100.0	0.0625	16.0	1.0	1.0	-5.829979913189423	2.689	n/a	stim	s621
147.288	3.488	3.2927725159047	draw_card	0.0	columbia_card_task_fmri	9.0	0.9333333333333332	89.0	-100.0	0.0666666666666666	16.0	2.0	1.0	-5.026662374345392	3.488	n/a	stim	s621
150.779	0.738	2.7737248968570816	end_round	0.0	columbia_card_task_fmri	9.0	0.9285714285714286	71.0	-100.0	0.0714285714285714	16.0	3.0	1.0	-4.145649717673468	0.738	2.0	stim	s621
151.524	2.25	n/a	-1.0	n/a	columbia_card_task_fmri	n/a	n/a	-1.0	n/a	n/a	n/a	n/a	n/a	n/a	n/a	n/a	feedback	s621
153.774	0.068	n/a	-1.0	n/a	columbia_card_task_fmri	n/a	n/a	-1.0	n/a	n/a	n/a	n/a	n/a	n/a	n/a	n/a	ITI	s621
153.844	1.814	4.684439182571366	draw_card	1.0	columbia_card_task_fmri	15.0	0.875	89.0	-80.0	0.125	16.0	1.0	2.0	-0.8037490725554086	1.814	1.0	stim	s621
155.663	2.25	n/a	-1.0	n/a	columbia_card_task_fmri	n/a	n/a	-1.0	n/a	n/a	n/a	n/a	n/a	n/a	n/a	n/a	feedback	s621
157.913	0.068	n/a	-1.0	n/a	columbia_card_task_fmri	n/a	n/a	-1.0	n/a	n/a	n/a	n/a	n/a	n/a	n/a	n/a	ITI	s621
157.984	2.408	6.809439182571366	draw_card	0.0	columbia_card_task_fmri	16.0	0.875	89.0	-70.0	0.125	16.0	1.0	2.0	-3.776177448629422	2.408	n/a	stim	s621
160.394	0.894	6.0927725159047	draw_card	0.0	columbia_card_task_fmri	16.0	0.8666666666666667	89.0	-70.0	0.1333333333333333	16.0	2.0	2.0	-2.984781960777717	0.894	n/a	stim	s621
161.291	0.819	5.273724896857082	end_round	0.0	columbia_card_task_fmri	16.0	0.8571428571428572	71.0	-70.0	0.1428571428571428	16.0	3.0	2.0	-2.1266146268703245	0.819	2.0	stim	s621
162.115	2.25	n/a	-1.0	n/a	columbia_card_task_fmri	n/a	n/a	-1.0	n/a	n/a	n/a	n/a	n/a	n/a	n/a	n/a	feedback	s621
164.365	0.068	n/a	-1.0	n/a	columbia_card_task_fmri	n/a	n/a	-1.0	n/a	n/a	n/a	n/a	n/a	n/a	n/a	n/a	ITI	s621
164.436	2.872	8.121939182571365	draw_card	0.0	columbia_card_task_fmri	30.0	0.6875	89.0	-45.0	0.3125	16.0	1.0	5.0	2.5376666987720995	2.872	n/a	stim	s621
167.311	3.444	6.55943918257137	draw_card	0.0	columbia_card_task_fmri	30.0	0.6666666666666667	89.0	-45.0	0.3333333333333333	16.0	2.0	5.0	3.128990640549148	3.444	n/a	stim	s621
170.757	5.005	4.773724896857078	draw_card	1.0	columbia_card_task_fmri	30.0	0.6428571428571428	89.0	-45.0	0.3571428571428571	16.0	3.0	5.0	3.709902694874664	5.005	3.0	stim	s621
175.765	2.25	n/a	-1.0	n/a	columbia_card_task_fmri	n/a	n/a	-1.0	n/a	n/a	n/a	n/a	n/a	n/a	n/a	n/a	feedback	s621
178.015	0.136	n/a	-1.0	n/a	columbia_card_task_fmri	n/a	n/a	-1.0	n/a	n/a	n/a	n/a	n/a	n/a	n/a	n/a	ITI	s621
178.153	1.793	-0.1072274840953	draw_card	0.0	columbia_card_task_fmri	13.0	0.8333333333333334	89.0	-75.0	0.1666666666666666	6.0	1.0	1.0	0.5719952622565927	1.793	n/a	stim	s621
179.948	0.824	-3.0405608174286334	end_round	0.0	columbia_card_task_fmri	13.0	0.8	71.0	-75.0	0.2	6.0	2.0	1.0	2.9738031305357424	0.824	1.0	stim	s621
180.776	2.25	n/a	-1.0	n/a	columbia_card_task_fmri	n/a	n/a	-1.0	n/a	n/a	n/a	n/a	n/a	n/a	n/a	n/a	feedback	s621
183.026	0.0	n/a	-1.0	n/a	columbia_card_task_fmri	n/a	n/a	-1.0	n/a	n/a	n/a	n/a	n/a	n/a	n/a	n/a	ITI	s621
183.028	4.764	1.5594391825713678	draw_card	0.0	columbia_card_task_fmri	14.0	0.8333333333333334	89.0	-70.0	0.1666666666666666	6.0	1.0	1.0	-0.916954341258286	4.764	n/a	stim	s621
187.795	1.242	-1.240560817428633	draw_card	1.0	columbia_card_task_fmri	14.0	0.8	89.0	-70.0	0.2	6.0	2.0	1.0	1.3754455169656978	1.242	2.0	stim	s621
189.04	2.25	n/a	-1.0	n/a	columbia_card_task_fmri	n/a	n/a	-1.0	n/a	n/a	n/a	n/a	n/a	n/a	n/a	n/a	feedback	s621
191.29	0.136	n/a	-1.0	n/a	columbia_card_task_fmri	n/a	n/a	-1.0	n/a	n/a	n/a	n/a	n/a	n/a	n/a	n/a	ITI	s621
191.429	1.838	1.5594391825713678	draw_card	0.0	columbia_card_task_fmri	16.0	0.8333333333333334	89.0	-80.0	0.1666666666666666	6.0	1.0	1.0	3.550334389217248	1.838	n/a	stim	s621
193.269	0.804	-1.6405608174286332	end_round	0.0	columbia_card_task_fmri	16.0	0.8	71.0	-80.0	0.2	6.0	2.0	1.0	6.170928407746814	0.804	1.0	stim	s621
194.079	2.25	n/a	-1.0	n/a	columbia_card_task_fmri	n/a	n/a	-1.0	n/a	n/a	n/a	n/a	n/a	n/a	n/a	n/a	feedback	s621
196.329	0.34	n/a	-1.0	n/a	columbia_card_task_fmri	n/a	n/a	-1.0	n/a	n/a	n/a	n/a	n/a	n/a	n/a	n/a	ITI	s621
196.67	2.515	4.059439182571368	draw_card	1.0	columbia_card_task_fmri	17.0	0.8333333333333334	89.0	-70.0	0.1666666666666666	6.0	1.0	1.0	0.1997426949505225	2.515	1.0	stim	s621
199.19	2.25	n/a	-1.0	n/a	columbia_card_task_fmri	n/a	n/a	-1.0	n/a	n/a	n/a	n/a	n/a	n/a	n/a	n/a	feedback	s621
201.44	0.408	n/a	-1.0	n/a	columbia_card_task_fmri	n/a	n/a	-1.0	n/a	n/a	n/a	n/a	n/a	n/a	n/a	n/a	ITI	s621
201.85	2.04	4.059439182571366	draw_card	0.0	columbia_card_task_fmri	25.0	0.75	89.0	-65.0	0.25	8.0	1.0	2.0	6.741608079310069	2.04	n/a	stim	s621
203.892	0.568	0.8451534682856543	draw_card	0.0	columbia_card_task_fmri	25.0	0.7142857142857143	89.0	-65.0	0.2857142857142857	8.0	2.0	2.0	8.427027653050999	0.568	n/a	stim	s621
204.463	0.857	-3.44056081742863	draw_card	1.0	columbia_card_task_fmri	25.0	0.6666666666666667	89.0	-65.0	0.3333333333333333	8.0	3.0	2.0	10.194333562982258	0.857	3.0	stim	s621
205.326	2.25	n/a	-1.0	n/a	columbia_card_task_fmri	n/a	n/a	-1.0	n/a	n/a	n/a	n/a	n/a	n/a	n/a	n/a	feedback	s621
207.576	0.136	n/a	-1.0	n/a	columbia_card_task_fmri	n/a	n/a	-1.0	n/a	n/a	n/a	n/a	n/a	n/a	n/a	n/a	ITI	s621
207.715	2.371	4.059439182571366	draw_card	0.0	columbia_card_task_fmri	30.0	0.75	89.0	-80.0	0.25	8.0	1.0	2.0	15.396194913065408	2.371	n/a	stim	s621
210.089	1.695	0.1308677539999425	draw_card	0.0	columbia_card_task_fmri	30.0	0.7142857142857143	89.0	-80.0	0.2857142857142857	8.0	2.0	2.0	17.456674145951126	1.695	n/a	stim	s621
211.786	4.369	-5.107227484095295	end_round	0.0	columbia_card_task_fmri	30.0	0.6666666666666667	71.0	-80.0	0.3333333333333333	8.0	3.0	2.0	19.61721751034485	4.369	2.0	stim	s621
216.16	2.25	n/a	-1.0	n/a	columbia_card_task_fmri	n/a	n/a	-1.0	n/a	n/a	n/a	n/a	n/a	n/a	n/a	n/a	feedback	s621
218.41	0.136	n/a	-1.0	n/a	columbia_card_task_fmri	n/a	n/a	-1.0	n/a	n/a	n/a	n/a	n/a	n/a	n/a	n/a	ITI	s621
218.549	3.45	3.7594391825713673	draw_card	0.0	columbia_card_task_fmri	13.0	0.9	89.0	-95.0	0.1	10.0	1.0	1.0	0.176783580275071	3.45	n/a	stim	s621
222.001	1.994	2.5594391825713663	draw_card	0.0	columbia_card_task_fmri	13.0	0.8888888888888888	89.0	-95.0	0.1111111111111111	10.0	2.0	1.0	1.716207884332782	1.994	n/a	stim	s621
223.997	2.492	1.059439182571366	end_round	0.0	columbia_card_task_fmri	13.0	0.875	71.0	-95.0	0.125	10.0	3.0	1.0	3.490945931194005	2.492	2.0	stim	s621
226.494	2.25	n/a	-1.0	n/a	columbia_card_task_fmri	n/a	n/a	-1.0	n/a	n/a	n/a	n/a	n/a	n/a	n/a	n/a	feedback	s621
228.744	0.0	n/a	-1.0	n/a	columbia_card_task_fmri	n/a	n/a	-1.0	n/a	n/a	n/a	n/a	n/a	n/a	n/a	n/a	ITI	s621
228.747	1.84	5.159439182571366	draw_card	0.0	columbia_card_task_fmri	14.0	0.9	89.0	-90.0	0.1	10.0	1.0	1.0	-1.0217756139402745	1.84	n/a	stim	s621
230.589	0.71	4.003883627015809	end_round	0.0	columbia_card_task_fmri	14.0	0.8888888888888888	71.0	-90.0	0.1111111111111111	10.0	2.0	1.0	0.4605047668989499	0.71	1.0	stim	s621
231.306	2.25	n/a	-1.0	n/a	columbia_card_task_fmri	n/a	n/a	-1.0	n/a	n/a	n/a	n/a	n/a	n/a	n/a	n/a	feedback	s621
233.556	0.068	n/a	-1.0	n/a	columbia_card_task_fmri	n/a	n/a	-1.0	n/a	n/a	n/a	n/a	n/a	n/a	n/a	n/a	ITI	s621
233.626	4.194	0.3594391825713667	draw_card	0.0	columbia_card_task_fmri	16.0	0.8	89.0	-70.0	0.2	10.0	1.0	2.0	2.174605255623902	4.194	n/a	stim	s621
237.823	1.262	-1.551671928539745	draw_card	0.0	columbia_card_task_fmri	16.0	0.7777777777777778	89.0	-70.0	0.2222222222222222	10.0	2.0	2.0	3.5268840588789843	1.262	n/a	stim	s621
239.087	3.41	-3.9405608174286337	end_round	0.0	columbia_card_task_fmri	16.0	0.75	71.0	-70.0	0.25	10.0	3.0	2.0	5.0110066425781525	3.41	2.0	stim	s621
242.499	2.25	n/a	-1.0	n/a	columbia_card_task_fmri	n/a	n/a	-1.0	n/a	n/a	n/a	n/a	n/a	n/a	n/a	n/a	feedback	s621
244.749	0.0	n/a	-1.0	n/a	columbia_card_task_fmri	n/a	n/a	-1.0	n/a	n/a	n/a	n/a	n/a	n/a	n/a	n/a	ITI	s621
244.753	3.063	-0.3572274840953	end_round	0.0	columbia_card_task_fmri	7.0	0.9166666666666666	71.0	-100.0	0.0833333333333333	12.0	1.0	1.0	-2.6463983656223107	3.063	0.0	stim	s621
247.822	2.25	n/a	-1.0	n/a	columbia_card_task_fmri	n/a	n/a	-1.0	n/a	n/a	n/a	n/a	n/a	n/a	n/a	n/a	feedback	s621
250.072	0.0	n/a	-1.0	n/a	columbia_card_task_fmri	n/a	n/a	-1.0	n/a	n/a	n/a	n/a	n/a	n/a	n/a	n/a	ITI	s621
250.075	1.725	-0.1072274840952982	draw_card	0.0	columbia_card_task_fmri	14.0	0.8333333333333334	89.0	-80.0	0.1666666666666666	12.0	1.0	2.0	2.805700455435222	1.725	n/a	stim	s621
251.802	2.207	-1.5314699083377274	end_round	0.0	columbia_card_task_fmri	14.0	0.8181818181818181	71.0	-80.0	0.1818181818181818	12.0	2.0	2.0	4.028092247524874	2.207	1.0	stim	s621
254.013	2.25	n/a	-1.0	n/a	columbia_card_task_fmri	n/a	n/a	-1.0	n/a	n/a	n/a	n/a	n/a	n/a	n/a	n/a	feedback	s621
256.263	0.136	n/a	-1.0	n/a	columbia_card_task_fmri	n/a	n/a	-1.0	n/a	n/a	n/a	n/a	n/a	n/a	n/a	n/a	ITI	s621
256.401	1.406	1.559439182571366	draw_card	0.0	columbia_card_task_fmri	15.0	0.8333333333333334	89.0	-75.0	0.1666666666666666	12.0	1.0	2.0	1.3165287120349234	1.406	n/a	stim	s621
257.808	2.705	0.1958028189350009	draw_card	0.0	columbia_card_task_fmri	15.0	0.8181818181818181	89.0	-75.0	0.1818181818181818	12.0	2.0	2.0	2.486802229732156	2.705	n/a	stim	s621
260.516	2.292	-1.440560817428634	end_round	0.0	columbia_card_task_fmri	15.0	0.8	71.0	-75.0	0.2	12.0	3.0	2.0	3.773036604213132	2.292	2.0	stim	s621
262.811	2.25	n/a	-1.0	n/a	columbia_card_task_fmri	n/a	n/a	-1.0	n/a	n/a	n/a	n/a	n/a	n/a	n/a	n/a	feedback	s621
265.061	0.136	n/a	-1.0	n/a	columbia_card_task_fmri	n/a	n/a	-1.0	n/a	n/a	n/a	n/a	n/a	n/a	n/a	n/a	ITI	s621
265.2	2.056	0.559439182571366	draw_card	0.0	columbia_card_task_fmri	15.0	0.8	89.0	-65.0	0.2	15.0	1.0	3.0	-0.2227481364114041	2.056	n/a	stim	s621
267.26	0.394	-0.5834179602857763	draw_card	0.0	columbia_card_task_fmri	15.0	0.7857142857142857	89.0	-65.0	0.2142857142857142	15.0	2.0	3.0	0.6023695709223915	0.394	n/a	stim	s621
267.657	2.345	-1.9020992789670972	draw_card	0.0	columbia_card_task_fmri	15.0	0.7692307692307692	89.0	-65.0	0.2307692307692307	15.0	3.0	3.0	1.4813354286297624	2.345	n/a	stim	s621
270.005	1.791	-3.4405608174286337	draw_card	0.0	columbia_card_task_fmri	15.0	0.75	89.0	-65.0	0.25	15.0	4.0	3.0	2.415375857040964	1.791	n/a	stim	s621
271.799	1.814	-5.25874263561045	draw_card	0.0	columbia_card_task_fmri	15.0	0.7272727272727273	89.0	-65.0	0.2727272727272727	15.0	5.0	3.0	3.4023295756923204	1.814	n/a	stim	s621
273.616	4.536	-7.440560817428634	end_round	0.0	columbia_card_task_fmri	15.0	0.7	71.0	-65.0	0.3	15.0	6.0	3.0	4.4330343826912255	4.536	5.0	stim	s621
278.155	2.25	n/a	-1.0	n/a	columbia_card_task_fmri	n/a	n/a	-1.0	n/a	n/a	n/a	n/a	n/a	n/a	n/a	n/a	feedback	s621
280.405	0.476	n/a	-1.0	n/a	columbia_card_task_fmri	n/a	n/a	-1.0	n/a	n/a	n/a	n/a	n/a	n/a	n/a	n/a	ITI	s621
280.885	3.856	-0.1905608174286339	draw_card	0.0	columbia_card_task_fmri	14.0	0.8125	89.0	-70.0	0.1875	16.0	1.0	3.0	0.5625817229893855	3.856	n/a	stim	s621
284.743	0.93	-1.240560817428633	draw_card	0.0	columbia_card_task_fmri	14.0	0.8	89.0	-70.0	0.2	16.0	2.0	3.0	1.3754455169656978	0.93	n/a	stim	s621
285.675	1.156	-2.4405608174286337	draw_card	0.0	columbia_card_task_fmri	14.0	0.7857142857142857	89.0	-70.0	0.2142857142857142	16.0	3.0	3.0	2.2419121462671114	1.156	n/a	stim	s621
286.834	3.046	-3.8251762020440183	draw_card	0.0	columbia_card_task_fmri	14.0	0.7692307692307692	89.0	-70.0	0.2307692307692307	16.0	4.0	3.0	3.1649203990831225	3.046	n/a	stim	s621
289.883	2.436	-5.440560817428634	draw_card	0.0	columbia_card_task_fmri	14.0	0.75	89.0	-70.0	0.25	16.0	5.0	3.0	4.145757618346963	2.436	n/a	stim	s621
292.322	3.697	-7.349651726519542	draw_card	0.0	columbia_card_task_fmri	14.0	0.7272727272727273	89.0	-70.0	0.2727272727272727	16.0	6.0	3.0	5.182153766351419	3.697	n/a	stim	s621
296.022	2.485	-9.640560817428636	end_round	0.0	columbia_card_task_fmri	14.0	0.7	71.0	-70.0	0.3	16.0	7.0	3.0	6.264487315796167	2.485	6.0	stim	s621
298.514	2.25	n/a	-1.0	n/a	columbia_card_task_fmri	n/a	n/a	-1.0	n/a	n/a	n/a	n/a	n/a	n/a	n/a	n/a	feedback	s621
300.764	0.204	n/a	-1.0	n/a	columbia_card_task_fmri	n/a	n/a	-1.0	n/a	n/a	n/a	n/a	n/a	n/a	n/a	n/a	ITI	s621
300.971	3.531	-0.2530608174286339	draw_card	1.0	columbia_card_task_fmri	11.0	0.6875	89.0	-30.0	0.3125	16.0	1.0	5.0	-13.192839423818883	3.531	1.0	stim	s621
304.506	2.25	n/a	-1.0	n/a	columbia_card_task_fmri	n/a	n/a	-1.0	n/a	n/a	n/a	n/a	n/a	n/a	n/a	n/a	feedback	s621
306.756	0.068	n/a	-1.0	n/a	columbia_card_task_fmri	n/a	n/a	-1.0	n/a	n/a	n/a	n/a	n/a	n/a	n/a	n/a	ITI	s621
306.826	4.73	4.559439182571366	draw_card	0.0	columbia_card_task_fmri	15.0	0.8666666666666667	89.0	-75.0	0.1333333333333333	15.0	1.0	2.0	-1.6268882071773805	4.73	n/a	stim	s621
311.559	0.373	3.7022963254285104	draw_card	0.0	columbia_card_task_fmri	15.0	0.8571428571428572	89.0	-75.0	0.1428571428571428	15.0	2.0	2.0	-0.7286985117831897	0.373	n/a	stim	s621
311.934	0.709	2.71328533641752	draw_card	0.0	columbia_card_task_fmri	15.0	0.8461538461538461	89.0	-75.0	0.1538461538461538	15.0	3.0	2.0	0.2488094932425966	0.709	n/a	stim	s621
312.646	1.822	1.559439182571366	draw_card	0.0	columbia_card_task_fmri	15.0	0.8333333333333334	89.0	-75.0	0.1666666666666666	15.0	4.0	2.0	1.3165287120349234	1.822	n/a	stim	s621
314.471	1.453	0.1958028189350009	draw_card	0.0	columbia_card_task_fmri	15.0	0.8181818181818181	89.0	-75.0	0.1818181818181818	15.0	5.0	2.0	2.486802229732156	1.453	n/a	stim	s621
315.926	2.453	-1.440560817428634	draw_card	0.0	columbia_card_task_fmri	15.0	0.8	89.0	-75.0	0.2	15.0	6.0	2.0	3.773036604213132	2.453	n/a	stim	s621
318.382	3.468	-3.440560817428632	end_round	0.0	columbia_card_task_fmri	15.0	0.7777777777777778	71.0	-75.0	0.2222222222222222	15.0	7.0	2.0	5.188333469478849	3.468	6.0	stim	s621
321.855	2.25	n/a	-1.0	n/a	columbia_card_task_fmri	n/a	n/a	-1.0	n/a	n/a	n/a	n/a	n/a	n/a	n/a	n/a	feedback	s621
324.105	0.068	n/a	-1.0	n/a	columbia_card_task_fmri	n/a	n/a	-1.0	n/a	n/a	n/a	n/a	n/a	n/a	n/a	n/a	ITI	s621
324.176	2.27	6.2927725159047005	draw_card	0.0	columbia_card_task_fmri	17.0	0.8666666666666667	89.0	-75.0	0.1333333333333333	15.0	1.0	2.0	-0.9478812897439788	2.27	n/a	stim	s621
326.449	1.771	5.416582039714226	draw_card	0.0	columbia_card_task_fmri	17.0	0.8571428571428572	89.0	-75.0	0.1428571428571428	15.0	2.0	2.0	-0.029682115139245	1.771	n/a	stim	s621
328.223	2.395	4.405593028725213	draw_card	0.0	columbia_card_task_fmri	17.0	0.8461538461538461	89.0	-75.0	0.1538461538461538	15.0	3.0	2.0	0.9695992663691868	2.395	n/a	stim	s621
330.621	1.869	3.226105849238034	draw_card	0.0	columbia_card_task_fmri	17.0	0.8333333333333334	89.0	-75.0	0.1666666666666666	15.0	4.0	2.0	2.061097867912565	1.869	n/a	stim	s621
332.492	1.95	1.8321664552986376	draw_card	0.0	columbia_card_task_fmri	17.0	0.8181818181818181	89.0	-75.0	0.1818181818181818	15.0	5.0	2.0	3.2574310836179663	1.95	n/a	stim	s621
334.445	2.134	0.1594391825713674	end_round	0.0	columbia_card_task_fmri	17.0	0.8	71.0	-75.0	0.2	15.0	6.0	2.0	4.5723033593017846	2.134	5.0	stim	s621
336.584	2.25	n/a	-1.0	n/a	columbia_card_task_fmri	n/a	n/a	-1.0	n/a	n/a	n/a	n/a	n/a	n/a	n/a	n/a	feedback	s621
338.834	0.34	n/a	-1.0	n/a	columbia_card_task_fmri	n/a	n/a	-1.0	n/a	n/a	n/a	n/a	n/a	n/a	n/a	n/a	ITI	s621
339.177	4.14	1.871939182571366	draw_card	0.0	columbia_card_task_fmri	2.0	0.9375	89.0	-25.0	0.0625	16.0	1.0	1.0	-25.541594283714964	4.14	n/a	stim	s621
343.319	1.785	1.759439182571366	draw_card	0.0	columbia_card_task_fmri	2.0	0.9333333333333332	89.0	-25.0	0.0666666666666666	16.0	2.0	1.0	-25.347558250638823	1.785	n/a	stim	s621
345.107	3.333	1.6308677539999377	draw_card	0.0	columbia_card_task_fmri	2.0	0.9285714285714286	89.0	-25.0	0.0714285714285714	16.0	3.0	1.0	-25.134441532523848	3.333	n/a	stim	s621
348.443	0.94	1.4825161056482892	draw_card	0.0	columbia_card_task_fmri	2.0	0.9230769230769232	89.0	-25.0	0.0769230769230769	16.0	4.0	1.0	-24.898986776771327	0.94	n/a	stim	s621
349.387	1.616	1.3094391825713665	draw_card	0.0	columbia_card_task_fmri	2.0	0.9166666666666666	89.0	-25.0	0.0833333333333333	16.0	5.0	1.0	-24.63711844111134	1.616	n/a	stim	s621
351.006	3.13	1.1048937280259112	draw_card	0.0	columbia_card_task_fmri	2.0	0.9090909090909092	89.0	-25.0	0.0909090909090909	16.0	6.0	1.0	-24.3436667164421	3.13	n/a	stim	s621
354.139	0.868	0.8594391825713661	draw_card	0.0	columbia_card_task_fmri	2.0	0.9	89.0	-25.0	0.1	16.0	7.0	1.0	-24.011974844394235	0.868	n/a	stim	s621
355.01	1.984	0.559439182571366	draw_card	0.0	columbia_card_task_fmri	2.0	0.8888888888888888	89.0	-25.0	0.1111111111111111	16.0	8.0	1.0	-23.63333371173432	1.984	n/a	stim	s621
356.997	1.04	0.184439182571366	end_round	0.0	columbia_card_task_fmri	2.0	0.875	71.0	-25.0	0.125	16.0	9.0	1.0	-23.196164505703425	1.04	8.0	stim	s621
358.04	2.25	n/a	-1.0	n/a	columbia_card_task_fmri	n/a	n/a	-1.0	n/a	n/a	n/a	n/a	n/a	n/a	n/a	n/a	feedback	s621
360.29	0.476	n/a	-1.0	n/a	columbia_card_task_fmri	n/a	n/a	-1.0	n/a	n/a	n/a	n/a	n/a	n/a	n/a	n/a	ITI	s621
360.77	2.467	4.059439182571366	draw_card	0.0	columbia_card_task_fmri	9.0	0.9375	89.0	-95.0	0.0625	16.0	1.0	1.0	-7.038077678390163	2.467	n/a	stim	s621
363.24	1.683	3.6261058492380336	draw_card	0.0	columbia_card_task_fmri	9.0	0.9333333333333332	89.0	-95.0	0.0666666666666666	16.0	2.0	1.0	-6.271737022017682	1.683	n/a	stim	s621
364.926	1.045	3.1308677539999383	draw_card	0.0	columbia_card_task_fmri	9.0	0.9285714285714286	89.0	-95.0	0.0714285714285714	16.0	3.0	1.0	-5.43126919901999	1.045	n/a	stim	s621
365.974	1.531	2.5594391825713663	draw_card	0.0	columbia_card_task_fmri	9.0	0.9230769230769232	89.0	-95.0	0.0769230769230769	16.0	4.0	1.0	-4.50406910117821	1.531	n/a	stim	s621
367.508	1.719	1.8927725159047	end_round	0.0	columbia_card_task_fmri	9.0	0.9166666666666666	71.0	-95.0	0.0833333333333333	16.0	5.0	1.0	-3.474371071902908	1.719	4.0	stim	s621
369.23	2.25	n/a	-1.0	n/a	columbia_card_task_fmri	n/a	n/a	-1.0	n/a	n/a	n/a	n/a	n/a	n/a	n/a	n/a	feedback	s621
371.48	0.272	n/a	-1.0	n/a	columbia_card_task_fmri	n/a	n/a	-1.0	n/a	n/a	n/a	n/a	n/a	n/a	n/a	n/a	ITI	s621
371.755	2.757	5.621939182571366	draw_card	0.0	columbia_card_task_fmri	11.0	0.9375	89.0	-100.0	0.0625	16.0	1.0	1.0	-5.346685215574958	2.757	n/a	stim	s621
374.515	1.693	5.159439182571367	draw_card	0.0	columbia_card_task_fmri	11.0	0.9333333333333332	89.0	-100.0	0.0666666666666666	16.0	2.0	1.0	-4.5285785522271205	1.693	n/a	stim	s621
376.211	0.636	4.630867753999939	draw_card	0.0	columbia_card_task_fmri	11.0	0.9285714285714286	89.0	-100.0	0.0714285714285714	16.0	3.0	1.0	-3.631349642138972	0.636	n/a	stim	s621
376.85	0.707	4.020977644109829	draw_card	0.0	columbia_card_task_fmri	11.0	0.9230769230769232	89.0	-100.0	0.0769230769230769	16.0	4.0	1.0	-2.6415444161118597	0.707	n/a	stim	s621
377.561	0.67	3.3094391825713663	end_round	0.0	columbia_card_task_fmri	11.0	0.9166666666666666	71.0	-100.0	0.0833333333333333	16.0	5.0	1.0	-1.5423354435453938	0.67	4.0	stim	s621
378.234	2.25	n/a	-1.0	n/a	columbia_card_task_fmri	n/a	n/a	-1.0	n/a	n/a	n/a	n/a	n/a	n/a	n/a	n/a	feedback	s621
380.484	0.884	n/a	-1.0	n/a	columbia_card_task_fmri	n/a	n/a	-1.0	n/a	n/a	n/a	n/a	n/a	n/a	n/a	n/a	ITI	s621
381.371	2.68	6.184439182571366	draw_card	0.0	columbia_card_task_fmri	16.0	0.875	89.0	-75.0	0.125	16.0	1.0	2.0	-2.1249268535333634	2.68	n/a	stim	s621
384.054	0.461	5.426105849238033	draw_card	0.0	columbia_card_task_fmri	16.0	0.8666666666666667	89.0	-75.0	0.1333333333333333	16.0	2.0	2.0	-1.2873894776424777	0.461	n/a	stim	s621
384.518	1.593	4.559439182571368	draw_card	0.0	columbia_card_task_fmri	16.0	0.8571428571428572	89.0	-75.0	0.1428571428571428	16.0	3.0	2.0	-0.3791949085808923	1.593	n/a	stim	s621
386.115	0.435	3.5594391825713663	draw_card	0.0	columbia_card_task_fmri	16.0	0.8461538461538461	89.0	-75.0	0.1538461538461538	16.0	4.0	2.0	0.609199922227603	0.435	n/a	stim	s621
386.553	0.866	2.3927725159047	draw_card	0.0	columbia_card_task_fmri	16.0	0.8333333333333334	89.0	-75.0	0.1666666666666666	16.0	5.0	2.0	1.688808973538734	0.866	n/a	stim	s621
387.422	1.02	1.0139846371168193	draw_card	0.0	columbia_card_task_fmri	16.0	0.8181818181818181	89.0	-75.0	0.1818181818181818	16.0	6.0	2.0	2.872112485036986	1.02	n/a	stim	s621
388.445	1.429	-0.6405608174286332	draw_card	0.0	columbia_card_task_fmri	16.0	0.8	89.0	-75.0	0.2	16.0	7.0	2.0	4.172665958476308	1.429	n/a	stim	s621
389.877	2.44	-2.6627830396508534	draw_card	1.0	columbia_card_task_fmri	16.0	0.7777777777777778	89.0	-75.0	0.2222222222222222	16.0	8.0	2.0	5.603716529041513	2.44	8.0	stim	s621
392.32	2.25	n/a	-1.0	n/a	columbia_card_task_fmri	n/a	n/a	-1.0	n/a	n/a	n/a	n/a	n/a	n/a	n/a	n/a	feedback	s621
394.57	0.136	n/a	-1.0	n/a	columbia_card_task_fmri	n/a	n/a	-1.0	n/a	n/a	n/a	n/a	n/a	n/a	n/a	n/a	ITI	s621
394.709	5.169	6.434439182571366	draw_card	0.0	columbia_card_task_fmri	17.0	0.875	89.0	-80.0	0.125	16.0	1.0	2.0	-0.1431077660326991	5.169	n/a	stim	s621
399.881	1.317	5.6261058492380345	draw_card	0.0	columbia_card_task_fmri	17.0	0.8666666666666667	89.0	-80.0	0.1333333333333333	16.0	2.0	2.0	0.749791310745124	1.317	n/a	stim	s621
401.203	2.173	4.702296325428512	draw_card	0.0	columbia_card_task_fmri	17.0	0.8571428571428572	89.0	-80.0	0.1428571428571428	16.0	3.0	2.0	1.7180097794511866	2.173	n/a	stim	s621
403.379	0.383	3.636362259494443	draw_card	0.0	columbia_card_task_fmri	17.0	0.8461538461538461	89.0	-80.0	0.1538461538461538	16.0	4.0	2.0	2.771720084065855	0.383	n/a	stim	s621
403.765	0.435	2.392772515904702	draw_card	0.0	columbia_card_task_fmri	17.0	0.8333333333333334	89.0	-80.0	0.1666666666666666	16.0	5.0	2.0	3.922662506188182	0.435	n/a	stim	s621
404.203	1.016	0.9230755462077276	draw_card	0.0	columbia_card_task_fmri	17.0	0.8181818181818181	89.0	-80.0	0.1818181818181818	16.0	6.0	2.0	5.18414021072212	1.016	n/a	stim	s621
405.222	0.434	-0.8405608174286325	draw_card	1.0	columbia_card_task_fmri	17.0	0.8	89.0	-80.0	0.2	16.0	7.0	2.0	6.570602366409339	0.434	7.0	stim	s621
405.659	2.25	n/a	-1.0	n/a	columbia_card_task_fmri	n/a	n/a	-1.0	n/a	n/a	n/a	n/a	n/a	n/a	n/a	n/a	feedback	s621
407.909	0.136	n/a	-1.0	n/a	columbia_card_task_fmri	n/a	n/a	-1.0	n/a	n/a	n/a	n/a	n/a	n/a	n/a	n/a	ITI	s621
419.056	3.8	0.7261058492380339	draw_card	0.0	columbia_card_task_fmri	13.0	0.8333333333333334	89.0	-70.0	0.1666666666666666	6.0	1.0	1.0	-1.2891652495711377	3.8	n/a	stim	s621
422.859	0.918	-2.0405608174286334	draw_card	0.0	columbia_card_task_fmri	13.0	0.8	89.0	-70.0	0.2	6.0	2.0	1.0	0.975880808395921	0.918	n/a	stim	s621
423.78	0.653	-6.190560817428634	draw_card	0.0	columbia_card_task_fmri	13.0	0.75	89.0	-70.0	0.25	6.0	3.0	1.0	3.713147117717135	0.653	n/a	stim	s621
424.435	1.287	-13.1072274840953	draw_card	0.0	columbia_card_task_fmri	13.0	0.6666666666666667	89.0	-70.0	0.3333333333333333	6.0	4.0	1.0	6.896916336732311	1.287	n/a	stim	s621
425.726	3.161	-26.940560817428636	end_round	0.0	columbia_card_task_fmri	13.0	0.5	71.0	-70.0	0.5	6.0	5.0	1.0	9.268565800353358	3.161	4.0	stim	s621
428.891	2.25	n/a	-1.0	n/a	columbia_card_task_fmri	n/a	n/a	-1.0	n/a	n/a	n/a	n/a	n/a	n/a	n/a	n/a	feedback	s621
431.141	0.068	n/a	-1.0	n/a	columbia_card_task_fmri	n/a	n/a	-1.0	n/a	n/a	n/a	n/a	n/a	n/a	n/a	n/a	ITI	s621
431.213	2.881	0.7261058492380339	draw_card	1.0	columbia_card_task_fmri	15.0	0.8333333333333334	89.0	-80.0	0.1666666666666666	6.0	1.0	1.0	3.178013627537503	2.881	1.0	stim	s621
434.1	2.25	n/a	-1.0	n/a	columbia_card_task_fmri	n/a	n/a	-1.0	n/a	n/a	n/a	n/a	n/a	n/a	n/a	n/a	feedback	s621
436.35	0.068	n/a	-1.0	n/a	columbia_card_task_fmri	n/a	n/a	-1.0	n/a	n/a	n/a	n/a	n/a	n/a	n/a	n/a	ITI	s621
436.421	2.046	2.3927725159047	draw_card	0.0	columbia_card_task_fmri	16.0	0.8333333333333334	89.0	-75.0	0.1666666666666666	6.0	1.0	1.0	1.688808973538734	2.046	n/a	stim	s621
438.471	1.181	-0.6405608174286332	draw_card	0.0	columbia_card_task_fmri	16.0	0.8	89.0	-75.0	0.2	6.0	2.0	1.0	4.172665958476308	1.181	n/a	stim	s621
439.654	1.091	-5.190560817428634	draw_card	0.0	columbia_card_task_fmri	16.0	0.75	89.0	-75.0	0.25	6.0	3.0	1.0	7.174278323542197	1.091	n/a	stim	s621
440.748	2.176	-12.773894150761969	draw_card	1.0	columbia_card_task_fmri	16.0	0.6666666666666667	89.0	-75.0	0.3333333333333333	6.0	4.0	1.0	10.665423458018717	2.176	4.0	stim	s621
442.932	2.25	n/a	-1.0	n/a	columbia_card_task_fmri	n/a	n/a	-1.0	n/a	n/a	n/a	n/a	n/a	n/a	n/a	n/a	feedback	s621
445.182	0.612	n/a	-1.0	n/a	columbia_card_task_fmri	n/a	n/a	-1.0	n/a	n/a	n/a	n/a	n/a	n/a	n/a	n/a	ITI	s621
445.797	1.997	3.5594391825713663	draw_card	1.0	columbia_card_task_fmri	21.0	0.75	89.0	-55.0	0.25	8.0	1.0	2.0	0.6851695038067263	1.997	1.0	stim	s621
447.799	2.25	n/a	-1.0	n/a	columbia_card_task_fmri	n/a	n/a	-1.0	n/a	n/a	n/a	n/a	n/a	n/a	n/a	n/a	feedback	s621
450.049	0.476	n/a	-1.0	n/a	columbia_card_task_fmri	n/a	n/a	-1.0	n/a	n/a	n/a	n/a	n/a	n/a	n/a	n/a	ITI	s621
450.528	1.753	4.809439182571366	draw_card	1.0	columbia_card_task_fmri	26.0	0.75	89.0	-65.0	0.25	8.0	1.0	2.0	7.174278323542197	1.753	1.0	stim	s621
452.286	2.25	n/a	-1.0	n/a	columbia_card_task_fmri	n/a	n/a	-1.0	n/a	n/a	n/a	n/a	n/a	n/a	n/a	n/a	feedback	s621
454.536	0.0	n/a	-1.0	n/a	columbia_card_task_fmri	n/a	n/a	-1.0	n/a	n/a	n/a	n/a	n/a	n/a	n/a	n/a	ITI	s621
454.539	3.064	-0.1072274840953	draw_card	0.0	columbia_card_task_fmri	15.0	0.7777777777777778	89.0	-60.0	0.2222222222222222	9.0	1.0	2.0	-1.0412730365285086	3.064	n/a	stim	s621
457.606	1.096	-2.1905608174286337	draw_card	0.0	columbia_card_task_fmri	15.0	0.75	89.0	-60.0	0.25	9.0	2.0	2.0	0.2526486046898029	1.096	n/a	stim	s621
458.705	0.516	-4.869132246000061	draw_card	0.0	columbia_card_task_fmri	15.0	0.7142857142857143	89.0	-60.0	0.2857142857142857	9.0	3.0	2.0	1.6566916423950744	0.516	n/a	stim	s621
459.225	0.628	-8.440560817428633	draw_card	0.0	columbia_card_task_fmri	15.0	0.6666666666666667	89.0	-60.0	0.3333333333333333	9.0	4.0	2.0	3.128990640549148	0.628	n/a	stim	s621
459.856	1.999	-13.440560817428636	end_round	0.0	columbia_card_task_fmri	15.0	0.6	71.0	-60.0	0.4	9.0	5.0	2.0	4.514701277850989	1.999	4.0	stim	s621
461.86	2.25	n/a	-1.0	n/a	columbia_card_task_fmri	n/a	n/a	-1.0	n/a	n/a	n/a	n/a	n/a	n/a	n/a	n/a	feedback	s621
464.11	0.068	n/a	-1.0	n/a	columbia_card_task_fmri	n/a	n/a	-1.0	n/a	n/a	n/a	n/a	n/a	n/a	n/a	n/a	ITI	s621
464.181	1.647	4.259439182571367	draw_card	0.0	columbia_card_task_fmri	13.0	0.9	89.0	-90.0	0.1	10.0	1.0	1.0	-1.3213979596908096	1.647	n/a	stim	s621
465.832	1.442	3.1149947381269216	draw_card	0.0	columbia_card_task_fmri	13.0	0.8888888888888888	89.0	-90.0	0.1111111111111111	10.0	2.0	1.0	0.1465956533135113	1.442	n/a	stim	s621
467.278	0.796	1.684439182571366	draw_card	0.0	columbia_card_task_fmri	13.0	0.875	89.0	-90.0	0.125	10.0	3.0	1.0	1.839001445408464	0.796	n/a	stim	s621
468.078	1.399	-0.1548465317143457	draw_card	0.0	columbia_card_task_fmri	13.0	0.8571428571428572	89.0	-90.0	0.1428571428571428	10.0	4.0	1.0	3.815488770101659	1.399	n/a	stim	s621
469.48	1.083	-2.6072274840953	draw_card	0.0	columbia_card_task_fmri	13.0	0.8333333333333334	89.0	-90.0	0.1666666666666666	10.0	5.0	1.0	6.156773692996424	1.083	n/a	stim	s621
470.567	1.898	-6.040560817428633	end_round	0.0	columbia_card_task_fmri	13.0	0.8	71.0	-90.0	0.2	10.0	6.0	1.0	8.968778918215541	1.898	5.0	stim	s621
472.473	2.25	n/a	-1.0	n/a	columbia_card_task_fmri	n/a	n/a	-1.0	n/a	n/a	n/a	n/a	n/a	n/a	n/a	n/a	feedback	s621
474.723	0.204	n/a	-1.0	n/a	columbia_card_task_fmri	n/a	n/a	-1.0	n/a	n/a	n/a	n/a	n/a	n/a	n/a	n/a	ITI	s621
474.931	2.155	5.559439182571366	draw_card	0.0	columbia_card_task_fmri	15.0	0.9	89.0	-95.0	0.1	10.0	1.0	1.0	0.776102404744293	2.155	n/a	stim	s621
477.089	0.911	4.337216960349143	draw_card	0.0	columbia_card_task_fmri	15.0	0.8888888888888888	89.0	-95.0	0.1111111111111111	10.0	2.0	1.0	2.344096900941772	0.911	n/a	stim	s621
478.004	0.905	2.8094391825713663	draw_card	0.0	columbia_card_task_fmri	15.0	0.875	89.0	-95.0	0.125	10.0	3.0	1.0	4.1517656681869965	0.905	n/a	stim	s621
478.913	1.973	0.8451534682856525	draw_card	0.0	columbia_card_task_fmri	15.0	0.8571428571428572	89.0	-95.0	0.1428571428571428	10.0	4.0	1.0	6.262834506264134	1.973	n/a	stim	s621
480.89	1.497	-1.773894150761966	draw_card	0.0	columbia_card_task_fmri	15.0	0.8333333333333334	89.0	-95.0	0.1666666666666666	10.0	5.0	1.0	8.763506232124826	1.497	n/a	stim	s621
482.391	2.48	-5.440560817428634	draw_card	0.0	columbia_card_task_fmri	15.0	0.8	89.0	-95.0	0.2	10.0	6.0	1.0	11.766902724328617	2.48	n/a	stim	s621
484.875	1.915	-10.940560817428636	end_round	0.0	columbia_card_task_fmri	15.0	0.75	71.0	-95.0	0.25	10.0	7.0	1.0	15.396194913065408	1.915	6.0	stim	s621
486.798	2.25	n/a	-1.0	n/a	columbia_card_task_fmri	n/a	n/a	-1.0	n/a	n/a	n/a	n/a	n/a	n/a	n/a	n/a	feedback	s621
489.048	0.272	n/a	-1.0	n/a	columbia_card_task_fmri	n/a	n/a	-1.0	n/a	n/a	n/a	n/a	n/a	n/a	n/a	n/a	ITI	s621
489.323	1.342	1.3594391825713668	draw_card	1.0	columbia_card_task_fmri	16.0	0.8	89.0	-65.0	0.2	10.0	1.0	2.0	0.176783580275071	1.342	1.0	stim	s621
490.669	2.25	n/a	-1.0	n/a	columbia_card_task_fmri	n/a	n/a	-1.0	n/a	n/a	n/a	n/a	n/a	n/a	n/a	n/a	feedback	s621
492.919	0.068	n/a	-1.0	n/a	columbia_card_task_fmri	n/a	n/a	-1.0	n/a	n/a	n/a	n/a	n/a	n/a	n/a	n/a	ITI	s621
492.99	2.197	0.059439182571366	draw_card	0.0	columbia_card_task_fmri	7.0	0.9166666666666666	89.0	-95.0	0.0833333333333333	12.0	1.0	1.0	-4.026314286474101	2.197	n/a	stim	s621
495.191	1.74	-0.7132880901559073	end_round	0.0	columbia_card_task_fmri	7.0	0.9090909090909092	71.0	-95.0	0.0909090909090909	12.0	2.0	1.0	-2.896347550495829	1.74	1.0	stim	s621
496.936	2.25	n/a	-1.0	n/a	columbia_card_task_fmri	n/a	n/a	-1.0	n/a	n/a	n/a	n/a	n/a	n/a	n/a	n/a	feedback	s621
499.186	0.272	n/a	-1.0	n/a	columbia_card_task_fmri	n/a	n/a	-1.0	n/a	n/a	n/a	n/a	n/a	n/a	n/a	n/a	ITI	s621
499.461	4.762	0.7261058492380339	draw_card	0.0	columbia_card_task_fmri	14.0	0.8333333333333334	89.0	-75.0	0.1666666666666666	12.0	1.0	2.0	0.9442573737654456	4.762	n/a	stim	s621
504.227	0.388	-0.6223789992468174	draw_card	0.0	columbia_card_task_fmri	14.0	0.8181818181818181	89.0	-75.0	0.1818181818181818	12.0	2.0	2.0	2.101500598367778	0.388	n/a	stim	s621
504.618	0.506	-2.2405608174286327	draw_card	0.0	columbia_card_task_fmri	14.0	0.8	89.0	-75.0	0.2	12.0	3.0	2.0	3.3734155672337565	0.506	n/a	stim	s621
505.127	0.629	-4.218338595206409	draw_card	0.0	columbia_card_task_fmri	14.0	0.7777777777777778	89.0	-75.0	0.2222222222222222	12.0	4.0	2.0	4.772958413982209	0.629	n/a	stim	s621
505.76	0.57	-6.690560817428634	draw_card	1.0	columbia_card_task_fmri	14.0	0.75	89.0	-75.0	0.25	12.0	5.0	2.0	6.30894552142307	0.57	5.0	stim	s621
506.337	2.25	n/a	-1.0	n/a	columbia_card_task_fmri	n/a	n/a	-1.0	n/a	n/a	n/a	n/a	n/a	n/a	n/a	n/a	feedback	s621
508.587	0.748	n/a	-1.0	n/a	columbia_card_task_fmri	n/a	n/a	-1.0	n/a	n/a	n/a	n/a	n/a	n/a	n/a	n/a	ITI	s621
509.338	3.402	2.3927725159047	draw_card	0.0	columbia_card_task_fmri	15.0	0.8333333333333334	89.0	-70.0	0.1666666666666666	12.0	1.0	2.0	-0.5447324628110266	3.402	n/a	stim	s621
512.744	1.021	1.1048937280259092	draw_card	0.0	columbia_card_task_fmri	15.0	0.8181818181818181	89.0	-70.0	0.1818181818181818	12.0	2.0	2.0	0.560386386630249	1.021	n/a	stim	s621
513.769	0.895	-0.4405608174286339	draw_card	0.0	columbia_card_task_fmri	15.0	0.8	89.0	-70.0	0.2	12.0	3.0	2.0	1.7750204513651369	0.895	n/a	stim	s621
514.667	1.295	-2.329449706317523	draw_card	0.0	columbia_card_task_fmri	15.0	0.7777777777777778	89.0	-70.0	0.2222222222222222	12.0	4.0	2.0	3.111543872059599	1.295	n/a	stim	s621
515.966	1.811	-4.690560817428634	draw_card	0.0	columbia_card_task_fmri	15.0	0.75	89.0	-70.0	0.25	12.0	5.0	2.0	4.578377569663182	1.811	n/a	stim	s621
517.78	0.993	-7.726275103142918	end_round	0.0	columbia_card_task_fmri	15.0	0.7142857142857143	71.0	-70.0	0.2857142857142857	12.0	6.0	2.0	6.170015034097467	0.993	5.0	stim	s621
518.778	2.25	n/a	-1.0	n/a	columbia_card_task_fmri	n/a	n/a	-1.0	n/a	n/a	n/a	n/a	n/a	n/a	n/a	n/a	feedback	s621
521.028	0.068	n/a	-1.0	n/a	columbia_card_task_fmri	n/a	n/a	-1.0	n/a	n/a	n/a	n/a	n/a	n/a	n/a	n/a	ITI	s621
521.1	2.178	0.3594391825713667	draw_card	1.0	columbia_card_task_fmri	16.0	0.8	89.0	-70.0	0.2	15.0	1.0	3.0	2.174605255623902	2.178	1.0	stim	s621
523.283	2.25	n/a	-1.0	n/a	columbia_card_task_fmri	n/a	n/a	-1.0	n/a	n/a	n/a	n/a	n/a	n/a	n/a	n/a	feedback	s621
525.533	0.0	n/a	-1.0	n/a	columbia_card_task_fmri	n/a	n/a	-1.0	n/a	n/a	n/a	n/a	n/a	n/a	n/a	n/a	ITI	s621
525.537	2.119	0.746939182571366	draw_card	0.0	columbia_card_task_fmri	14.0	0.8125	89.0	-65.0	0.1875	16.0	1.0	3.0	-1.386637139282822	2.119	n/a	stim	s621
527.661	0.641	-0.2405608174286329	draw_card	0.0	columbia_card_task_fmri	14.0	0.8	89.0	-65.0	0.2	16.0	2.0	3.0	-0.622268019162604	0.641	n/a	stim	s621
528.305	2.362	-1.369132246000061	draw_card	1.0	columbia_card_task_fmri	14.0	0.7857142857142857	89.0	-65.0	0.2142857142857142	16.0	3.0	3.0	0.1925117445033635	2.362	3.0	stim	s621
530.672	2.25	n/a	-1.0	n/a	columbia_card_task_fmri	n/a	n/a	-1.0	n/a	n/a	n/a	n/a	n/a	n/a	n/a	n/a	feedback	s621
532.922	0.204	n/a	-1.0	n/a	columbia_card_task_fmri	n/a	n/a	-1.0	n/a	n/a	n/a	n/a	n/a	n/a	n/a	n/a	ITI	s621
533.13	2.218	0.496939182571366	draw_card	0.0	columbia_card_task_fmri	16.0	0.8125	89.0	-75.0	0.1875	16.0	1.0	3.0	3.291920013179464	2.218	n/a	stim	s621
535.351	1.026	-0.6405608174286332	draw_card	0.0	columbia_card_task_fmri	16.0	0.8	89.0	-75.0	0.2	16.0	2.0	3.0	4.172665958476308	1.026	n/a	stim	s621
536.381	0.712	-1.940560817428632	draw_card	0.0	columbia_card_task_fmri	16.0	0.7857142857142857	89.0	-75.0	0.2142857142857142	16.0	3.0	3.0	5.1114836580966525	0.712	n/a	stim	s621
537.097	1.981	-3.4405608174286373	draw_card	0.0	columbia_card_task_fmri	16.0	0.7692307692307692	89.0	-75.0	0.2307692307692307	16.0	4.0	3.0	6.111556446997291	1.981	n/a	stim	s621
539.081	1.74	-5.190560817428634	end_round	0.0	columbia_card_task_fmri	16.0	0.75	71.0	-75.0	0.25	16.0	5.0	3.0	7.174278323542197	1.74	4.0	stim	s621
540.826	2.25	n/a	-1.0	n/a	columbia_card_task_fmri	n/a	n/a	-1.0	n/a	n/a	n/a	n/a	n/a	n/a	n/a	n/a	feedback	s621
543.076	0.068	n/a	-1.0	n/a	columbia_card_task_fmri	n/a	n/a	-1.0	n/a	n/a	n/a	n/a	n/a	n/a	n/a	n/a	ITI	s621
543.148	4.679	4.759439182571367	draw_card	0.0	columbia_card_task_fmri	16.0	0.8666666666666667	89.0	-80.0	0.1333333333333333	15.0	1.0	2.0	0.4102401480313702	4.679	n/a	stim	s621
547.83	0.46	3.8451534682856554	draw_card	0.0	columbia_card_task_fmri	16.0	0.8571428571428572	89.0	-80.0	0.1428571428571428	15.0	2.0	2.0	1.3684552299811088	0.46	n/a	stim	s621
548.294	1.696	2.790208413340596	draw_card	1.0	columbia_card_task_fmri	16.0	0.8461538461538461	89.0	-80.0	0.1538461538461538	15.0	3.0	2.0	2.4112802342643604	1.696	3.0	stim	s621
549.999	2.25	n/a	-1.0	n/a	columbia_card_task_fmri	n/a	n/a	-1.0	n/a	n/a	n/a	n/a	n/a	n/a	n/a	n/a	feedback	s621
552.249	0.068	n/a	-1.0	n/a	columbia_card_task_fmri	n/a	n/a	-1.0	n/a	n/a	n/a	n/a	n/a	n/a	n/a	n/a	ITI	s621
552.321	1.748	5.6261058492380345	draw_card	1.0	columbia_card_task_fmri	17.0	0.8666666666666667	89.0	-80.0	0.1333333333333333	15.0	1.0	2.0	0.749791310745124	1.748	1.0	stim	s621
554.074	2.25	n/a	-1.0	n/a	columbia_card_task_fmri	n/a	n/a	-1.0	n/a	n/a	n/a	n/a	n/a	n/a	n/a	n/a	feedback	s621
556.324	0.34	n/a	-1.0	n/a	columbia_card_task_fmri	n/a	n/a	-1.0	n/a	n/a	n/a	n/a	n/a	n/a	n/a	n/a	ITI	s621
556.668	3.182	1.559439182571366	draw_card	0.0	columbia_card_task_fmri	1.0	0.9375	89.0	-15.0	0.0625	16.0	1.0	1.0	-28.08557649692856	3.182	n/a	stim	s621
559.854	0.472	1.4927725159046994	draw_card	0.0	columbia_card_task_fmri	1.0	0.9333333333333332	89.0	-15.0	0.0666666666666666	16.0	2.0	1.0	-27.975779925461158	0.472	n/a	stim	s621
560.329	0.475	1.4165820397142233	draw_card	0.0	columbia_card_task_fmri	1.0	0.9285714285714286	89.0	-15.0	0.0714285714285714	16.0	3.0	1.0	-27.85488141921632	0.475	n/a	stim	s621
560.808	0.712	1.3286699518021352	draw_card	0.0	columbia_card_task_fmri	1.0	0.9230769230769232	89.0	-15.0	0.0769230769230769	16.0	4.0	1.0	-27.720969381220986	0.712	n/a	stim	s621
561.524	0.554	1.2261058492380328	draw_card	0.0	columbia_card_task_fmri	1.0	0.9166666666666666	89.0	-15.0	0.0833333333333333	16.0	5.0	1.0	-27.57165021301004	0.554	n/a	stim	s621
562.082	0.482	1.1048937280259112	draw_card	1.0	columbia_card_task_fmri	1.0	0.9090909090909092	89.0	-15.0	0.0909090909090909	16.0	6.0	1.0	-27.403885268570846	0.482	6.0	stim	s621
562.568	2.25	n/a	-1.0	n/a	columbia_card_task_fmri	n/a	n/a	-1.0	n/a	n/a	n/a	n/a	n/a	n/a	n/a	n/a	feedback	s621
564.818	0.0	n/a	-1.0	n/a	columbia_card_task_fmri	n/a	n/a	-1.0	n/a	n/a	n/a	n/a	n/a	n/a	n/a	n/a	ITI	s621
564.822	1.641	4.684439182571366	draw_card	0.0	columbia_card_task_fmri	10.0	0.9375	89.0	-100.0	0.0625	16.0	1.0	1.0	-5.588336319366714	1.641	n/a	stim	s621
566.467	2.545	4.226105849238033	draw_card	0.0	columbia_card_task_fmri	10.0	0.9333333333333332	89.0	-100.0	0.0666666666666666	16.0	2.0	1.0	-4.777624108230803	2.545	n/a	stim	s621
569.015	0.8	3.7022963254285104	end_round	0.0	columbia_card_task_fmri	10.0	0.9285714285714286	71.0	-100.0	0.0714285714285714	16.0	3.0	1.0	-3.888503211330193	0.8	2.0	stim	s621
569.822	2.25	n/a	-1.0	n/a	columbia_card_task_fmri	n/a	n/a	-1.0	n/a	n/a	n/a	n/a	n/a	n/a	n/a	n/a	feedback	s621
572.072	0.0	n/a	-1.0	n/a	columbia_card_task_fmri	n/a	n/a	-1.0	n/a	n/a	n/a	n/a	n/a	n/a	n/a	n/a	ITI	s621
572.075	1.853	5.309439182571366	draw_card	1.0	columbia_card_task_fmri	15.0	0.875	89.0	-75.0	0.125	16.0	1.0	2.0	-2.455197764588579	1.853	1.0	stim	s621
573.934	2.25	n/a	-1.0	n/a	columbia_card_task_fmri	n/a	n/a	-1.0	n/a	n/a	n/a	n/a	n/a	n/a	n/a	n/a	feedback	s621
576.184	0.272	n/a	-1.0	n/a	columbia_card_task_fmri	n/a	n/a	-1.0	n/a	n/a	n/a	n/a	n/a	n/a	n/a	n/a	ITI	s621
576.46	2.366	5.559439182571366	draw_card	1.0	columbia_card_task_fmri	16.0	0.875	89.0	-80.0	0.125	16.0	1.0	2.0	-0.4734325603517852	2.366	1.0	stim	s621
578.833	2.25	n/a	-1.0	n/a	columbia_card_task_fmri	n/a	n/a	-1.0	n/a	n/a	n/a	n/a	n/a	n/a	n/a	n/a	feedback	s621
581.083	0.204	n/a	-1.0	n/a	columbia_card_task_fmri	n/a	n/a	-1.0	n/a	n/a	n/a	n/a	n/a	n/a	n/a	n/a	ITI	s621
581.291	2.191	2.7469391825713663	draw_card	0.0	columbia_card_task_fmri	4.0	0.6875	89.0	-5.0	0.3125	16.0	1.0	5.0	-27.807163533393144	2.191	n/a	stim	s621
583.488	1.522	2.5594391825713663	draw_card	0.0	columbia_card_task_fmri	4.0	0.6666666666666667	89.0	-5.0	0.3333333333333333	16.0	2.0	5.0	-27.740562810710315	1.522	n/a	stim	s621
585.014	1.363	2.3451534682856514	end_round	0.0	columbia_card_task_fmri	4.0	0.6428571428571428	71.0	-5.0	0.3571428571428571	16.0	3.0	5.0	-27.675007474899616	1.363	2.0	stim	s621
586.384	2.25	n/a	-1.0	n/a	columbia_card_task_fmri	n/a	n/a	-1.0	n/a	n/a	n/a	n/a	n/a	n/a	n/a	n/a	feedback	s621
588.634	0.0	n/a	-1.0	n/a	columbia_card_task_fmri	n/a	n/a	-1.0	n/a	n/a	n/a	n/a	n/a	n/a	n/a	n/a	ITI	s621
588.637	1.73	-0.1072274840952982	draw_card	0.0	columbia_card_task_fmri	14.0	0.8333333333333334	89.0	-80.0	0.1666666666666666	6.0	1.0	1.0	2.805700455435222	1.73	n/a	stim	s621
590.373	1.119	-3.2405608174286327	draw_card	0.0	columbia_card_task_fmri	14.0	0.8	89.0	-80.0	0.2	6.0	2.0	1.0	5.371601275226503	1.119	n/a	stim	s621
591.496	1.225	-7.940560817428634	draw_card	0.0	columbia_card_task_fmri	14.0	0.75	89.0	-80.0	0.25	6.0	3.0	1.0	8.472332724935832	1.225	n/a	stim	s621
592.725	1.615	-15.773894150761963	end_round	0.0	columbia_card_task_fmri	14.0	0.6666666666666667	71.0	-80.0	0.3333333333333333	6.0	4.0	1.0	12.07873326989202	1.615	3.0	stim	s621
594.347	2.25	n/a	-1.0	n/a	columbia_card_task_fmri	n/a	n/a	-1.0	n/a	n/a	n/a	n/a	n/a	n/a	n/a	n/a	feedback	s621
596.597	0.204	n/a	-1.0	n/a	columbia_card_task_fmri	n/a	n/a	-1.0	n/a	n/a	n/a	n/a	n/a	n/a	n/a	n/a	ITI	s621
596.805	1.906	1.559439182571366	draw_card	0.0	columbia_card_task_fmri	15.0	0.8333333333333334	89.0	-75.0	0.1666666666666666	6.0	1.0	1.0	1.3165287120349234	1.906	n/a	stim	s621
598.714	0.782	-1.440560817428634	draw_card	1.0	columbia_card_task_fmri	15.0	0.8	89.0	-75.0	0.2	6.0	2.0	1.0	3.773036604213132	0.782	2.0	stim	s621
599.501	2.25	n/a	-1.0	n/a	columbia_card_task_fmri	n/a	n/a	-1.0	n/a	n/a	n/a	n/a	n/a	n/a	n/a	n/a	feedback	s621
601.751	0.204	n/a	-1.0	n/a	columbia_card_task_fmri	n/a	n/a	-1.0	n/a	n/a	n/a	n/a	n/a	n/a	n/a	n/a	ITI	s621
601.958	2.366	3.226105849238034	draw_card	0.0	columbia_card_task_fmri	16.0	0.8333333333333334	89.0	-70.0	0.1666666666666666	6.0	1.0	1.0	-0.1724999959884812	2.366	n/a	stim	s621
604.328	1.574	0.3594391825713667	draw_card	0.0	columbia_card_task_fmri	16.0	0.8	89.0	-70.0	0.2	6.0	2.0	1.0	2.174605255623902	1.574	n/a	stim	s621
605.905	0.762	-3.9405608174286337	end_round	0.0	columbia_card_task_fmri	16.0	0.75	71.0	-70.0	0.25	6.0	3.0	1.0	5.0110066425781525	0.762	2.0	stim	s621
606.675	2.25	n/a	-1.0	n/a	columbia_card_task_fmri	n/a	n/a	-1.0	n/a	n/a	n/a	n/a	n/a	n/a	n/a	n/a	feedback	s621
608.925	0.272	n/a	-1.0	n/a	columbia_card_task_fmri	n/a	n/a	-1.0	n/a	n/a	n/a	n/a	n/a	n/a	n/a	n/a	ITI	s621
609.201	2.113	3.8094391825713663	draw_card	0.0	columbia_card_task_fmri	23.0	0.75	89.0	-60.0	0.25	8.0	1.0	2.0	3.713147117717135	2.113	n/a	stim	s621
611.317	1.723	0.8451534682856543	draw_card	0.0	columbia_card_task_fmri	23.0	0.7142857142857143	89.0	-60.0	0.2857142857142857	8.0	2.0	2.0	5.267269189281407	1.723	n/a	stim	s621
613.045	1.365	-3.107227484095298	draw_card	0.0	columbia_card_task_fmri	23.0	0.6666666666666667	89.0	-60.0	0.3333333333333333	8.0	3.0	2.0	6.896916336732311	1.365	n/a	stim	s621
614.414	1.399	-8.640560817428636	draw_card	1.0	columbia_card_task_fmri	23.0	0.6	89.0	-60.0	0.4	8.0	4.0	2.0	8.430699053217609	1.399	4.0	stim	s621
615.822	2.25	n/a	-1.0	n/a	columbia_card_task_fmri	n/a	n/a	-1.0	n/a	n/a	n/a	n/a	n/a	n/a	n/a	n/a	feedback	s621
618.072	0.204	n/a	-1.0	n/a	columbia_card_task_fmri	n/a	n/a	-1.0	n/a	n/a	n/a	n/a	n/a	n/a	n/a	n/a	ITI	s621
618.28	1.551	4.309439182571366	draw_card	0.0	columbia_card_task_fmri	27.0	0.75	89.0	-70.0	0.25	8.0	1.0	2.0	9.77044790914369	1.551	n/a	stim	s621
619.835	4.446	0.8451534682856507	draw_card	0.0	columbia_card_task_fmri	27.0	0.7142857142857143	89.0	-70.0	0.2857142857142857	8.0	2.0	2.0	11.58714933892589	4.446	n/a	stim	s621
624.285	2.447	-3.7738941507619614	draw_card	1.0	columbia_card_task_fmri	27.0	0.6666666666666667	89.0	-70.0	0.3333333333333333	8.0	3.0	2.0	13.49209893355981	2.447	3.0	stim	s621
626.736	2.25	n/a	-1.0	n/a	columbia_card_task_fmri	n/a	n/a	-1.0	n/a	n/a	n/a	n/a	n/a	n/a	n/a	n/a	feedback	s621
628.986	0.408	n/a	-1.0	n/a	columbia_card_task_fmri	n/a	n/a	-1.0	n/a	n/a	n/a	n/a	n/a	n/a	n/a	n/a	ITI	s621
629.399	2.135	-0.4405608174286322	draw_card	0.0	columbia_card_task_fmri	16.0	0.7777777777777778	89.0	-65.0	0.2222222222222222	9.0	1.0	2.0	1.450281619582718	2.135	n/a	stim	s621
631.538	1.137	-2.6905608174286337	draw_card	0.0	columbia_card_task_fmri	16.0	0.75	89.0	-65.0	0.25	9.0	2.0	2.0	2.847955865929784	1.137	n/a	stim	s621
632.679	1.612	-5.583417960285774	draw_card	0.0	columbia_card_task_fmri	16.0	0.7142857142857143	89.0	-65.0	0.2857142857142857	9.0	3.0	2.0	4.364560926999275	1.612	n/a	stim	s621
634.295	0.874	-9.440560817428633	end_round	0.0	columbia_card_task_fmri	16.0	0.6666666666666667	71.0	-65.0	0.3333333333333333	9.0	4.0	2.0	5.954873685680418	0.874	3.0	stim	s621
635.173	2.25	n/a	-1.0	n/a	columbia_card_task_fmri	n/a	n/a	-1.0	n/a	n/a	n/a	n/a	n/a	n/a	n/a	n/a	feedback	s621
637.423	0.136	n/a	-1.0	n/a	columbia_card_task_fmri	n/a	n/a	-1.0	n/a	n/a	n/a	n/a	n/a	n/a	n/a	n/a	ITI	s621
637.564	2.447	4.759439182571367	draw_card	0.0	columbia_card_task_fmri	13.0	0.9	89.0	-85.0	0.1	10.0	1.0	1.0	-2.819394314726324	2.447	n/a	stim	s621
640.015	1.267	3.670550293682477	draw_card	0.0	columbia_card_task_fmri	13.0	0.8888888888888888	89.0	-85.0	0.1111111111111111	10.0	2.0	1.0	-1.4228397412398408	1.267	n/a	stim	s621
641.286	1.445	2.3094391825713663	draw_card	0.0	columbia_card_task_fmri	13.0	0.875	89.0	-85.0	0.125	10.0	3.0	1.0	0.1872250574624558	1.445	n/a	stim	s621
642.735	0.986	0.5594391825713678	draw_card	0.0	columbia_card_task_fmri	13.0	0.8571428571428572	89.0	-85.0	0.1428571428571428	10.0	4.0	1.0	2.06757192022647	0.986	n/a	stim	s621
643.725	1.274	-1.773894150761966	end_round	0.0	columbia_card_task_fmri	13.0	0.8333333333333334	71.0	-85.0	0.1666666666666666	10.0	5.0	1.0	4.294997753704486	1.274	4.0	stim	s621
645.006	2.25	n/a	-1.0	n/a	columbia_card_task_fmri	n/a	n/a	-1.0	n/a	n/a	n/a	n/a	n/a	n/a	n/a	n/a	feedback	s621
647.256	0.272	n/a	-1.0	n/a	columbia_card_task_fmri	n/a	n/a	-1.0	n/a	n/a	n/a	n/a	n/a	n/a	n/a	n/a	ITI	s621
647.532	2.243	-0.2405608174286329	draw_card	0.0	columbia_card_task_fmri	14.0	0.8	89.0	-65.0	0.2	10.0	1.0	2.0	-0.622268019162604	2.243	n/a	stim	s621
649.779	0.626	-1.9961163729841875	draw_card	1.0	columbia_card_task_fmri	14.0	0.7777777777777778	89.0	-65.0	0.2222222222222222	10.0	2.0	2.0	0.6197148153975931	0.626	2.0	stim	s621
650.41	2.25	n/a	-1.0	n/a	columbia_card_task_fmri	n/a	n/a	-1.0	n/a	n/a	n/a	n/a	n/a	n/a	n/a	n/a	feedback	s621
652.66	0.34	n/a	-1.0	n/a	columbia_card_task_fmri	n/a	n/a	-1.0	n/a	n/a	n/a	n/a	n/a	n/a	n/a	n/a	ITI	s621
653.004	1.32	1.1594391825713677	draw_card	1.0	columbia_card_task_fmri	17.0	0.8	89.0	-70.0	0.2	10.0	1.0	2.0	2.574199590096136	1.32	1.0	stim	s621
654.331	2.25	n/a	-1.0	n/a	columbia_card_task_fmri	n/a	n/a	-1.0	n/a	n/a	n/a	n/a	n/a	n/a	n/a	n/a	feedback	s621
656.581	0.136	n/a	-1.0	n/a	columbia_card_task_fmri	n/a	n/a	-1.0	n/a	n/a	n/a	n/a	n/a	n/a	n/a	n/a	ITI	s621
656.721	4.352	-0.1072274840953	draw_card	0.0	columbia_card_task_fmri	13.0	0.8333333333333334	89.0	-75.0	0.1666666666666666	12.0	1.0	2.0	0.5719952622565927	4.352	n/a	stim	s621
661.077	0.937	-1.4405608174286355	draw_card	0.0	columbia_card_task_fmri	13.0	0.8181818181818181	89.0	-75.0	0.1818181818181818	12.0	2.0	2.0	1.716207884332782	0.937	n/a	stim	s621
662.018	0.901	-3.0405608174286334	draw_card	0.0	columbia_card_task_fmri	13.0	0.8	89.0	-75.0	0.2	12.0	3.0	2.0	2.9738031305357424	0.901	n/a	stim	s621
662.923	0.804	-4.996116372984187	draw_card	0.0	columbia_card_task_fmri	13.0	0.7777777777777778	89.0	-75.0	0.2222222222222222	12.0	4.0	2.0	4.357591634930813	0.804	n/a	stim	s621
663.731	1.187	-7.440560817428634	end_round	0.0	columbia_card_task_fmri	13.0	0.75	71.0	-75.0	0.25	12.0	5.0	2.0	5.876290911484816	1.187	4.0	stim	s621
664.922	2.25	n/a	-1.0	n/a	columbia_card_task_fmri	n/a	n/a	-1.0	n/a	n/a	n/a	n/a	n/a	n/a	n/a	n/a	feedback	s621
667.172	0.34	n/a	-1.0	n/a	columbia_card_task_fmri	n/a	n/a	-1.0	n/a	n/a	n/a	n/a	n/a	n/a	n/a	n/a	ITI	s621
667.516	1.458	1.5594391825713678	draw_card	0.0	columbia_card_task_fmri	14.0	0.8333333333333334	89.0	-70.0	0.1666666666666666	12.0	1.0	2.0	-0.916954341258286	1.458	n/a	stim	s621
668.978	1.165	0.2867119098440909	draw_card	0.0	columbia_card_task_fmri	14.0	0.8181818181818181	89.0	-70.0	0.1818181818181818	12.0	2.0	2.0	0.1751325569027386	1.165	n/a	stim	s621
670.147	1.187	-1.240560817428633	draw_card	0.0	columbia_card_task_fmri	14.0	0.8	89.0	-70.0	0.2	12.0	3.0	2.0	1.3754455169656978	1.187	n/a	stim	s621
671.338	0.783	-3.1072274840953	draw_card	1.0	columbia_card_task_fmri	14.0	0.7777777777777778	89.0	-70.0	0.2222222222222222	12.0	4.0	2.0	2.6962131836535264	0.783	4.0	stim	s621
672.126	2.25	n/a	-1.0	n/a	columbia_card_task_fmri	n/a	n/a	-1.0	n/a	n/a	n/a	n/a	n/a	n/a	n/a	n/a	feedback	s621
674.376	0.068	n/a	-1.0	n/a	columbia_card_task_fmri	n/a	n/a	-1.0	n/a	n/a	n/a	n/a	n/a	n/a	n/a	n/a	ITI	s621
674.449	1.035	1.5594391825713678	draw_card	0.0	columbia_card_task_fmri	16.0	0.8333333333333334	89.0	-80.0	0.1666666666666666	12.0	1.0	2.0	3.550334389217248	1.035	n/a	stim	s621
675.488	0.565	0.1048937280259092	draw_card	0.0	columbia_card_task_fmri	16.0	0.8181818181818181	89.0	-80.0	0.1818181818181818	12.0	2.0	2.0	4.798783705769466	0.565	n/a	stim	s621
676.057	1.177	-1.6405608174286332	draw_card	1.0	columbia_card_task_fmri	16.0	0.8	89.0	-80.0	0.2	12.0	3.0	2.0	6.170928407746814	1.177	3.0	stim	s621
677.24	2.25	n/a	-1.0	n/a	columbia_card_task_fmri	n/a	n/a	-1.0	n/a	n/a	n/a	n/a	n/a	n/a	n/a	n/a	feedback	s621
679.49	0.0	n/a	-1.0	n/a	columbia_card_task_fmri	n/a	n/a	-1.0	n/a	n/a	n/a	n/a	n/a	n/a	n/a	n/a	ITI	s621
679.495	4.766	1.3594391825713668	draw_card	0.0	columbia_card_task_fmri	16.0	0.8	89.0	-65.0	0.2	15.0	1.0	3.0	0.176783580275071	4.766	n/a	stim	s621
684.265	0.375	0.2022963254285101	draw_card	1.0	columbia_card_task_fmri	16.0	0.7857142857142857	89.0	-65.0	0.2142857142857142	15.0	2.0	3.0	1.0122389355124426	0.375	2.0	stim	s621
684.647	2.25	n/a	-1.0	n/a	columbia_card_task_fmri	n/a	n/a	-1.0	n/a	n/a	n/a	n/a	n/a	n/a	n/a	n/a	feedback	s621
686.897	0.204	n/a	-1.0	n/a	columbia_card_task_fmri	n/a	n/a	-1.0	n/a	n/a	n/a	n/a	n/a	n/a	n/a	n/a	ITI	s621
