onset	duration	condition	correct	correct_response	experiment_exp_id	key_press	response_time	trial_id	trial_type	worker_id
3.013	0.5	BY	n/a	n/a	dot_pattern_expectancy	-1.0	n/a	cue	BY	s648
5.525	0.5	BY	0.0	71.0	dot_pattern_expectancy	-1.0	n/a	probe	BY	s648
7.167	0.5	AY	n/a	n/a	dot_pattern_expectancy	-1.0	n/a	cue	AY	s648
9.672	0.5	AY	1.0	71.0	dot_pattern_expectancy	71.0	1.052	probe	AY	s648
11.177	0.5	AX	n/a	n/a	dot_pattern_expectancy	-1.0	n/a	cue	AX	s648
13.684	0.5	AX	1.0	89.0	dot_pattern_expectancy	89.0	0.717	probe	AX	s648
15.734	0.5	BY	n/a	n/a	dot_pattern_expectancy	-1.0	n/a	cue	BY	s648
18.24	0.5	BY	1.0	71.0	dot_pattern_expectancy	71.0	0.603	probe	BY	s648
20.019	0.5	BX	n/a	n/a	dot_pattern_expectancy	-1.0	n/a	cue	BX	s648
22.532	0.5	BX	1.0	71.0	dot_pattern_expectancy	71.0	0.413	probe	BX	s648
24.173	0.5	AX	n/a	n/a	dot_pattern_expectancy	-1.0	n/a	cue	AX	s648
26.682	0.5	AX	1.0	89.0	dot_pattern_expectancy	89.0	0.523	probe	AX	s648
28.323	0.5	AX	n/a	n/a	dot_pattern_expectancy	-1.0	n/a	cue	AX	s648
30.832	0.5	AX	1.0	89.0	dot_pattern_expectancy	89.0	0.775	probe	AX	s648
32.334	0.5	AX	n/a	n/a	dot_pattern_expectancy	-1.0	n/a	cue	AX	s648
34.845	0.5	AX	1.0	89.0	dot_pattern_expectancy	89.0	0.936	probe	AX	s648
36.35	0.5	AY	n/a	n/a	dot_pattern_expectancy	-1.0	n/a	cue	AY	s648
38.857	0.5	AY	1.0	71.0	dot_pattern_expectancy	71.0	0.701	probe	AY	s648
40.907	0.5	AX	n/a	n/a	dot_pattern_expectancy	-1.0	n/a	cue	AX	s648
43.412	0.5	AX	1.0	89.0	dot_pattern_expectancy	89.0	0.828	probe	AX	s648
45.869	0.5	AX	n/a	n/a	dot_pattern_expectancy	-1.0	n/a	cue	AX	s648
48.377	0.5	AX	1.0	89.0	dot_pattern_expectancy	89.0	0.584	probe	AX	s648
50.292	0.5	AX	n/a	n/a	dot_pattern_expectancy	-1.0	n/a	cue	AX	s648
52.803	0.5	AX	1.0	89.0	dot_pattern_expectancy	89.0	0.819	probe	AX	s648
54.309	0.5	AX	n/a	n/a	dot_pattern_expectancy	-1.0	n/a	cue	AX	s648
56.822	0.5	AX	1.0	89.0	dot_pattern_expectancy	89.0	0.863	probe	AX	s648
58.737	0.5	BX	n/a	n/a	dot_pattern_expectancy	-1.0	n/a	cue	BX	s648
61.241	0.5	BX	1.0	71.0	dot_pattern_expectancy	71.0	0.456	probe	BX	s648
63.424	0.5	AX	n/a	n/a	dot_pattern_expectancy	-1.0	n/a	cue	AX	s648
65.932	0.5	AX	1.0	89.0	dot_pattern_expectancy	89.0	0.511	probe	AX	s648
67.437	0.5	BY	n/a	n/a	dot_pattern_expectancy	-1.0	n/a	cue	BY	s648
69.945	0.5	BY	1.0	71.0	dot_pattern_expectancy	71.0	0.49	probe	BY	s648
71.86	0.5	BX	n/a	n/a	dot_pattern_expectancy	-1.0	n/a	cue	BX	s648
74.368	0.5	BX	1.0	71.0	dot_pattern_expectancy	71.0	0.807	probe	BX	s648
76.689	0.5	AY	n/a	n/a	dot_pattern_expectancy	-1.0	n/a	cue	AY	s648
79.197	0.5	AY	1.0	71.0	dot_pattern_expectancy	71.0	1.333	probe	AY	s648
81.519	0.5	BX	n/a	n/a	dot_pattern_expectancy	-1.0	n/a	cue	BX	s648
84.031	0.5	BX	1.0	71.0	dot_pattern_expectancy	71.0	0.693	probe	BX	s648
85.674	0.5	AY	n/a	n/a	dot_pattern_expectancy	-1.0	n/a	cue	AY	s648
88.18	0.5	AY	1.0	71.0	dot_pattern_expectancy	71.0	0.657	probe	AY	s648
89.685	0.5	BY	n/a	n/a	dot_pattern_expectancy	-1.0	n/a	cue	BY	s648
92.193	0.5	BY	1.0	71.0	dot_pattern_expectancy	71.0	0.542	probe	BY	s648
94.108	0.5	AX	n/a	n/a	dot_pattern_expectancy	-1.0	n/a	cue	AX	s648
96.613	0.5	AX	1.0	89.0	dot_pattern_expectancy	89.0	0.839	probe	AX	s648
98.117	0.5	AY	n/a	n/a	dot_pattern_expectancy	-1.0	n/a	cue	AY	s648
100.626	0.5	AY	1.0	71.0	dot_pattern_expectancy	71.0	0.738	probe	AY	s648
102.948	0.5	AX	n/a	n/a	dot_pattern_expectancy	-1.0	n/a	cue	AX	s648
105.459	0.5	AX	1.0	89.0	dot_pattern_expectancy	89.0	0.75	probe	AX	s648
106.961	0.5	AY	n/a	n/a	dot_pattern_expectancy	-1.0	n/a	cue	AY	s648
109.47	0.5	AY	1.0	71.0	dot_pattern_expectancy	71.0	0.811	probe	AY	s648
112.199	0.5	AX	n/a	n/a	dot_pattern_expectancy	-1.0	n/a	cue	AX	s648
114.705	0.5	AX	1.0	89.0	dot_pattern_expectancy	89.0	0.888	probe	AX	s648
116.21	0.5	AX	n/a	n/a	dot_pattern_expectancy	-1.0	n/a	cue	AX	s648
118.719	0.5	AX	1.0	89.0	dot_pattern_expectancy	89.0	0.896	probe	AX	s648
120.36	0.5	AX	n/a	n/a	dot_pattern_expectancy	-1.0	n/a	cue	AX	s648
122.873	0.5	AX	1.0	89.0	dot_pattern_expectancy	89.0	0.764	probe	AX	s648
124.516	0.5	AX	n/a	n/a	dot_pattern_expectancy	-1.0	n/a	cue	AX	s648
127.022	0.5	AX	1.0	89.0	dot_pattern_expectancy	89.0	0.793	probe	AX	s648
128.799	0.5	BY	n/a	n/a	dot_pattern_expectancy	-1.0	n/a	cue	BY	s648
131.31	0.5	BY	1.0	71.0	dot_pattern_expectancy	71.0	0.708	probe	BY	s648
133.088	0.5	AX	n/a	n/a	dot_pattern_expectancy	-1.0	n/a	cue	AX	s648
135.599	0.5	AX	1.0	89.0	dot_pattern_expectancy	89.0	0.816	probe	AX	s648
137.105	0.5	BY	n/a	n/a	dot_pattern_expectancy	-1.0	n/a	cue	BY	s648
139.61	0.5	BY	1.0	71.0	dot_pattern_expectancy	71.0	0.871	probe	BY	s648
142.067	0.5	AX	n/a	n/a	dot_pattern_expectancy	-1.0	n/a	cue	AX	s648
144.574	0.5	AX	1.0	89.0	dot_pattern_expectancy	89.0	0.684	probe	AX	s648
146.216	0.5	AX	n/a	n/a	dot_pattern_expectancy	-1.0	n/a	cue	AX	s648
148.726	0.5	AX	1.0	89.0	dot_pattern_expectancy	89.0	0.694	probe	AX	s648
150.367	0.5	BX	n/a	n/a	dot_pattern_expectancy	-1.0	n/a	cue	BX	s648
152.878	0.5	BX	1.0	71.0	dot_pattern_expectancy	71.0	0.771	probe	BX	s648
154.384	0.5	BX	n/a	n/a	dot_pattern_expectancy	-1.0	n/a	cue	BX	s648
156.889	0.5	BX	1.0	71.0	dot_pattern_expectancy	71.0	0.372	probe	BX	s648
158.395	0.5	AX	n/a	n/a	dot_pattern_expectancy	-1.0	n/a	cue	AX	s648
160.901	0.5	AX	1.0	89.0	dot_pattern_expectancy	89.0	1.125	probe	AX	s648
163.224	0.5	AY	n/a	n/a	dot_pattern_expectancy	-1.0	n/a	cue	AY	s648
165.73	0.5	AY	1.0	71.0	dot_pattern_expectancy	71.0	0.865	probe	AY	s648
167.78	0.5	AX	n/a	n/a	dot_pattern_expectancy	-1.0	n/a	cue	AX	s648
170.287	0.5	AX	1.0	89.0	dot_pattern_expectancy	89.0	0.883	probe	AX	s648
174.24	0.5	AX	n/a	n/a	dot_pattern_expectancy	-1.0	n/a	cue	AX	s648
176.749	0.5	AX	1.0	89.0	dot_pattern_expectancy	89.0	0.665	probe	AX	s648
188.907	0.5	AY	n/a	n/a	dot_pattern_expectancy	-1.0	n/a	cue	AY	s648
191.416	0.5	AY	1.0	71.0	dot_pattern_expectancy	71.0	0.82	probe	AY	s648
193.057	0.5	AX	n/a	n/a	dot_pattern_expectancy	-1.0	n/a	cue	AX	s648
195.562	0.5	AX	1.0	89.0	dot_pattern_expectancy	89.0	0.836	probe	AX	s648
197.201	0.5	AX	n/a	n/a	dot_pattern_expectancy	-1.0	n/a	cue	AX	s648
199.713	0.5	AX	1.0	89.0	dot_pattern_expectancy	89.0	0.608	probe	AX	s648
201.218	0.5	AX	n/a	n/a	dot_pattern_expectancy	-1.0	n/a	cue	AX	s648
203.729	0.5	AX	1.0	89.0	dot_pattern_expectancy	89.0	0.727	probe	AX	s648
205.234	0.5	AX	n/a	n/a	dot_pattern_expectancy	-1.0	n/a	cue	AX	s648
207.744	0.5	AX	1.0	89.0	dot_pattern_expectancy	89.0	0.727	probe	AX	s648
209.657	0.5	BX	n/a	n/a	dot_pattern_expectancy	-1.0	n/a	cue	BX	s648
212.165	0.5	BX	1.0	71.0	dot_pattern_expectancy	71.0	0.562	probe	BX	s648
213.808	0.5	AX	n/a	n/a	dot_pattern_expectancy	-1.0	n/a	cue	AX	s648
216.32	0.5	AX	1.0	89.0	dot_pattern_expectancy	89.0	0.839	probe	AX	s648
218.37	0.5	AX	n/a	n/a	dot_pattern_expectancy	-1.0	n/a	cue	AX	s648
220.881	0.5	AX	1.0	89.0	dot_pattern_expectancy	89.0	0.638	probe	AX	s648
222.659	0.5	AX	n/a	n/a	dot_pattern_expectancy	-1.0	n/a	cue	AX	s648
225.164	0.5	AX	1.0	89.0	dot_pattern_expectancy	89.0	0.487	probe	AX	s648
226.669	0.5	AX	n/a	n/a	dot_pattern_expectancy	-1.0	n/a	cue	AX	s648
229.174	0.5	AX	1.0	89.0	dot_pattern_expectancy	89.0	0.581	probe	AX	s648
231.359	0.5	AX	n/a	n/a	dot_pattern_expectancy	-1.0	n/a	cue	AX	s648
233.865	0.5	AX	1.0	89.0	dot_pattern_expectancy	89.0	0.654	probe	AX	s648
235.37	0.5	BX	n/a	n/a	dot_pattern_expectancy	-1.0	n/a	cue	BX	s648
237.876	0.5	BX	1.0	71.0	dot_pattern_expectancy	71.0	0.453	probe	BX	s648
241.557	0.5	BY	n/a	n/a	dot_pattern_expectancy	-1.0	n/a	cue	BY	s648
244.066	0.5	BY	1.0	71.0	dot_pattern_expectancy	71.0	0.502	probe	BY	s648
245.707	0.5	BY	n/a	n/a	dot_pattern_expectancy	-1.0	n/a	cue	BY	s648
248.216	0.5	BY	1.0	71.0	dot_pattern_expectancy	71.0	0.934	probe	BY	s648
249.857	0.5	BX	n/a	n/a	dot_pattern_expectancy	-1.0	n/a	cue	BX	s648
252.362	0.5	BX	1.0	71.0	dot_pattern_expectancy	71.0	0.803	probe	BX	s648
253.868	0.5	AX	n/a	n/a	dot_pattern_expectancy	-1.0	n/a	cue	AX	s648
256.376	0.5	AX	1.0	89.0	dot_pattern_expectancy	89.0	0.709	probe	AX	s648
258.291	0.5	AX	n/a	n/a	dot_pattern_expectancy	-1.0	n/a	cue	AX	s648
260.799	0.5	AX	1.0	89.0	dot_pattern_expectancy	89.0	0.751	probe	AX	s648
262.44	0.5	BX	n/a	n/a	dot_pattern_expectancy	-1.0	n/a	cue	BX	s648
264.946	0.5	BX	1.0	71.0	dot_pattern_expectancy	71.0	0.508	probe	BX	s648
266.451	0.5	AX	n/a	n/a	dot_pattern_expectancy	-1.0	n/a	cue	AX	s648
268.959	0.5	AX	1.0	89.0	dot_pattern_expectancy	89.0	1.097	probe	AX	s648
270.873	0.5	BY	n/a	n/a	dot_pattern_expectancy	-1.0	n/a	cue	BY	s648
273.383	0.5	BY	1.0	71.0	dot_pattern_expectancy	71.0	0.4	probe	BY	s648
275.57	0.5	AX	n/a	n/a	dot_pattern_expectancy	-1.0	n/a	cue	AX	s648
278.076	0.5	AX	1.0	89.0	dot_pattern_expectancy	89.0	0.545	probe	AX	s648
279.853	0.5	AX	n/a	n/a	dot_pattern_expectancy	-1.0	n/a	cue	AX	s648
282.358	0.5	AX	1.0	89.0	dot_pattern_expectancy	89.0	0.592	probe	AX	s648
283.864	0.5	AX	n/a	n/a	dot_pattern_expectancy	-1.0	n/a	cue	AX	s648
286.369	0.5	AX	1.0	89.0	dot_pattern_expectancy	89.0	0.595	probe	AX	s648
287.874	0.5	AX	n/a	n/a	dot_pattern_expectancy	-1.0	n/a	cue	AX	s648
290.379	0.5	AX	1.0	89.0	dot_pattern_expectancy	89.0	0.569	probe	AX	s648
292.429	0.5	AX	n/a	n/a	dot_pattern_expectancy	-1.0	n/a	cue	AX	s648
294.939	0.5	AX	1.0	89.0	dot_pattern_expectancy	89.0	0.858	probe	AX	s648
297.806	0.5	BX	n/a	n/a	dot_pattern_expectancy	-1.0	n/a	cue	BX	s648
300.311	0.5	BX	1.0	71.0	dot_pattern_expectancy	71.0	0.867	probe	BX	s648
301.816	0.5	BY	n/a	n/a	dot_pattern_expectancy	-1.0	n/a	cue	BY	s648
304.322	0.5	BY	1.0	71.0	dot_pattern_expectancy	71.0	0.495	probe	BY	s648
306.1	0.5	AX	n/a	n/a	dot_pattern_expectancy	-1.0	n/a	cue	AX	s648
308.606	0.5	AX	1.0	89.0	dot_pattern_expectancy	89.0	0.434	probe	AX	s648
310.384	0.5	AX	n/a	n/a	dot_pattern_expectancy	-1.0	n/a	cue	AX	s648
312.893	0.5	AX	1.0	89.0	dot_pattern_expectancy	89.0	0.581	probe	AX	s648
315.758	0.5	AX	n/a	n/a	dot_pattern_expectancy	-1.0	n/a	cue	AX	s648
318.265	0.5	AX	1.0	89.0	dot_pattern_expectancy	89.0	0.922	probe	AX	s648
320.043	0.5	BX	n/a	n/a	dot_pattern_expectancy	-1.0	n/a	cue	BX	s648
322.554	0.5	BX	1.0	71.0	dot_pattern_expectancy	71.0	0.337	probe	BX	s648
324.197	0.5	BX	n/a	n/a	dot_pattern_expectancy	-1.0	n/a	cue	BX	s648
326.702	0.5	BX	1.0	71.0	dot_pattern_expectancy	71.0	0.34	probe	BX	s648
329.16	0.5	AX	n/a	n/a	dot_pattern_expectancy	-1.0	n/a	cue	AX	s648
331.668	0.5	AX	1.0	89.0	dot_pattern_expectancy	89.0	0.507	probe	AX	s648
333.31	0.5	BX	n/a	n/a	dot_pattern_expectancy	-1.0	n/a	cue	BX	s648
335.815	0.5	BX	1.0	71.0	dot_pattern_expectancy	71.0	0.344	probe	BX	s648
337.32	0.5	AX	n/a	n/a	dot_pattern_expectancy	-1.0	n/a	cue	AX	s648
339.829	0.5	AX	1.0	89.0	dot_pattern_expectancy	89.0	0.641	probe	AX	s648
341.47	0.5	AX	n/a	n/a	dot_pattern_expectancy	-1.0	n/a	cue	AX	s648
343.979	0.5	AX	1.0	89.0	dot_pattern_expectancy	89.0	0.681	probe	AX	s648
345.619	0.5	BY	n/a	n/a	dot_pattern_expectancy	-1.0	n/a	cue	BY	s648
348.129	0.5	BY	1.0	71.0	dot_pattern_expectancy	71.0	0.508	probe	BY	s648
350.316	0.5	AX	n/a	n/a	dot_pattern_expectancy	-1.0	n/a	cue	AX	s648
352.821	0.5	AX	1.0	89.0	dot_pattern_expectancy	89.0	0.741	probe	AX	s648
354.327	0.5	AY	n/a	n/a	dot_pattern_expectancy	-1.0	n/a	cue	AY	s648
356.835	0.5	AY	1.0	71.0	dot_pattern_expectancy	71.0	0.901	probe	AY	s648
358.477	0.5	AX	n/a	n/a	dot_pattern_expectancy	-1.0	n/a	cue	AX	s648
360.984	0.5	AX	1.0	89.0	dot_pattern_expectancy	89.0	0.527	probe	AX	s648
373.144	0.5	AX	n/a	n/a	dot_pattern_expectancy	-1.0	n/a	cue	AX	s648
375.653	0.5	AX	1.0	89.0	dot_pattern_expectancy	89.0	0.87	probe	AX	s648
377.839	0.5	AY	n/a	n/a	dot_pattern_expectancy	-1.0	n/a	cue	AY	s648
380.347	0.5	AY	1.0	71.0	dot_pattern_expectancy	71.0	0.963	probe	AY	s648
382.668	0.5	AY	n/a	n/a	dot_pattern_expectancy	-1.0	n/a	cue	AY	s648
385.177	0.5	AY	1.0	71.0	dot_pattern_expectancy	71.0	0.816	probe	AY	s648
386.818	0.5	BX	n/a	n/a	dot_pattern_expectancy	-1.0	n/a	cue	BX	s648
389.326	0.5	BX	1.0	71.0	dot_pattern_expectancy	71.0	0.932	probe	BX	s648
391.24	0.5	AX	n/a	n/a	dot_pattern_expectancy	-1.0	n/a	cue	AX	s648
393.748	0.5	AX	1.0	89.0	dot_pattern_expectancy	89.0	0.461	probe	AX	s648
397.295	0.5	BX	n/a	n/a	dot_pattern_expectancy	-1.0	n/a	cue	BX	s648
399.808	0.5	BX	1.0	71.0	dot_pattern_expectancy	71.0	0.464	probe	BX	s648
401.451	0.5	BY	n/a	n/a	dot_pattern_expectancy	-1.0	n/a	cue	BY	s648
403.962	0.5	BY	1.0	71.0	dot_pattern_expectancy	71.0	0.408	probe	BY	s648
405.465	0.5	AX	n/a	n/a	dot_pattern_expectancy	-1.0	n/a	cue	AX	s648
407.973	0.5	AX	1.0	89.0	dot_pattern_expectancy	89.0	0.594	probe	AX	s648
409.478	0.5	AX	n/a	n/a	dot_pattern_expectancy	-1.0	n/a	cue	AX	s648
411.984	0.5	AX	1.0	89.0	dot_pattern_expectancy	89.0	0.517	probe	AX	s648
413.762	0.5	BY	n/a	n/a	dot_pattern_expectancy	-1.0	n/a	cue	BY	s648
416.272	0.5	BY	1.0	71.0	dot_pattern_expectancy	71.0	0.425	probe	BY	s648
418.73	0.5	AX	n/a	n/a	dot_pattern_expectancy	-1.0	n/a	cue	AX	s648
421.238	0.5	AX	1.0	89.0	dot_pattern_expectancy	89.0	0.531	probe	AX	s648
423.147	0.5	BX	n/a	n/a	dot_pattern_expectancy	-1.0	n/a	cue	BX	s648
425.659	0.5	BX	1.0	71.0	dot_pattern_expectancy	71.0	0.562	probe	BX	s648
427.301	0.5	AX	n/a	n/a	dot_pattern_expectancy	-1.0	n/a	cue	AX	s648
429.808	0.5	AX	1.0	89.0	dot_pattern_expectancy	89.0	0.894	probe	AX	s648
431.311	0.5	AX	n/a	n/a	dot_pattern_expectancy	-1.0	n/a	cue	AX	s648
433.822	0.5	AX	1.0	89.0	dot_pattern_expectancy	89.0	0.836	probe	AX	s648
435.463	0.5	AX	n/a	n/a	dot_pattern_expectancy	-1.0	n/a	cue	AX	s648
437.971	0.5	AX	1.0	89.0	dot_pattern_expectancy	89.0	0.406	probe	AX	s648
439.613	0.5	BY	n/a	n/a	dot_pattern_expectancy	-1.0	n/a	cue	BY	s648
442.124	0.5	BY	1.0	71.0	dot_pattern_expectancy	71.0	0.406	probe	BY	s648
444.582	0.5	AX	n/a	n/a	dot_pattern_expectancy	-1.0	n/a	cue	AX	s648
447.087	0.5	AX	1.0	89.0	dot_pattern_expectancy	89.0	0.654	probe	AX	s648
448.592	0.5	BY	n/a	n/a	dot_pattern_expectancy	-1.0	n/a	cue	BY	s648
451.098	0.5	BY	1.0	71.0	dot_pattern_expectancy	71.0	0.417	probe	BY	s648
452.603	0.5	AX	n/a	n/a	dot_pattern_expectancy	-1.0	n/a	cue	AX	s648
455.112	0.5	AX	1.0	89.0	dot_pattern_expectancy	89.0	0.469	probe	AX	s648
456.753	0.5	AX	n/a	n/a	dot_pattern_expectancy	-1.0	n/a	cue	AX	s648
459.261	0.5	AX	1.0	89.0	dot_pattern_expectancy	89.0	0.468	probe	AX	s648
460.903	0.5	AY	n/a	n/a	dot_pattern_expectancy	-1.0	n/a	cue	AY	s648
463.412	0.5	AY	1.0	71.0	dot_pattern_expectancy	71.0	0.746	probe	AY	s648
465.053	0.5	AX	n/a	n/a	dot_pattern_expectancy	-1.0	n/a	cue	AX	s648
467.558	0.5	AX	1.0	89.0	dot_pattern_expectancy	89.0	0.632	probe	AX	s648
469.064	0.5	AX	n/a	n/a	dot_pattern_expectancy	-1.0	n/a	cue	AX	s648
471.569	0.5	AX	1.0	89.0	dot_pattern_expectancy	89.0	0.803	probe	AX	s648
473.075	0.5	AX	n/a	n/a	dot_pattern_expectancy	-1.0	n/a	cue	AX	s648
475.586	0.5	AX	1.0	89.0	dot_pattern_expectancy	89.0	0.606	probe	AX	s648
477.364	0.5	AX	n/a	n/a	dot_pattern_expectancy	-1.0	n/a	cue	AX	s648
479.868	0.5	AX	1.0	89.0	dot_pattern_expectancy	89.0	0.507	probe	AX	s648
482.054	0.5	BX	n/a	n/a	dot_pattern_expectancy	-1.0	n/a	cue	BX	s648
484.565	0.5	BX	1.0	71.0	dot_pattern_expectancy	71.0	0.479	probe	BX	s648
486.343	0.5	BY	n/a	n/a	dot_pattern_expectancy	-1.0	n/a	cue	BY	s648
488.848	0.5	BY	1.0	71.0	dot_pattern_expectancy	71.0	0.525	probe	BY	s648
490.353	0.5	AX	n/a	n/a	dot_pattern_expectancy	-1.0	n/a	cue	AX	s648
492.857	0.5	AX	1.0	89.0	dot_pattern_expectancy	89.0	0.543	probe	AX	s648
494.364	0.5	AX	n/a	n/a	dot_pattern_expectancy	-1.0	n/a	cue	AX	s648
496.873	0.5	AX	1.0	89.0	dot_pattern_expectancy	89.0	0.628	probe	AX	s648
498.514	0.5	AY	n/a	n/a	dot_pattern_expectancy	-1.0	n/a	cue	AY	s648
501.02	0.5	AY	1.0	71.0	dot_pattern_expectancy	71.0	0.749	probe	AY	s648
503.204	0.5	AY	n/a	n/a	dot_pattern_expectancy	-1.0	n/a	cue	AY	s648
505.712	0.5	AY	1.0	71.0	dot_pattern_expectancy	71.0	0.863	probe	AY	s648
508.033	0.5	BX	n/a	n/a	dot_pattern_expectancy	-1.0	n/a	cue	BX	s648
510.542	0.5	BX	1.0	71.0	dot_pattern_expectancy	71.0	0.381	probe	BX	s648
512.183	0.5	BX	n/a	n/a	dot_pattern_expectancy	-1.0	n/a	cue	BX	s648
514.692	0.5	BX	1.0	71.0	dot_pattern_expectancy	71.0	0.698	probe	BX	s648
516.879	0.5	AY	n/a	n/a	dot_pattern_expectancy	-1.0	n/a	cue	AY	s648
519.386	0.5	AY	1.0	71.0	dot_pattern_expectancy	71.0	0.737	probe	AY	s648
521.435	0.5	AX	n/a	n/a	dot_pattern_expectancy	-1.0	n/a	cue	AX	s648
523.941	0.5	AX	1.0	89.0	dot_pattern_expectancy	89.0	0.777	probe	AX	s648
525.72	0.5	AX	n/a	n/a	dot_pattern_expectancy	-1.0	n/a	cue	AX	s648
528.23	0.5	AX	1.0	89.0	dot_pattern_expectancy	89.0	0.86	probe	AX	s648
529.735	0.5	AX	n/a	n/a	dot_pattern_expectancy	-1.0	n/a	cue	AX	s648
532.244	0.5	AX	1.0	89.0	dot_pattern_expectancy	89.0	0.69	probe	AX	s648
534.431	0.5	AY	n/a	n/a	dot_pattern_expectancy	-1.0	n/a	cue	AY	s648
536.942	0.5	AY	1.0	71.0	dot_pattern_expectancy	71.0	0.607	probe	AY	s648
539.399	0.5	AX	n/a	n/a	dot_pattern_expectancy	-1.0	n/a	cue	AX	s648
541.908	0.5	AX	1.0	89.0	dot_pattern_expectancy	89.0	0.464	probe	AX	s648
543.549	0.5	AX	n/a	n/a	dot_pattern_expectancy	-1.0	n/a	cue	AX	s648
546.057	0.5	AX	1.0	89.0	dot_pattern_expectancy	89.0	0.468	probe	AX	s648
558.487	0.5	AX	n/a	n/a	dot_pattern_expectancy	-1.0	n/a	cue	AX	s648
560.995	0.5	AX	1.0	89.0	dot_pattern_expectancy	89.0	0.522	probe	AX	s648
562.772	0.5	AX	n/a	n/a	dot_pattern_expectancy	-1.0	n/a	cue	AX	s648
565.278	0.5	AX	1.0	89.0	dot_pattern_expectancy	89.0	0.536	probe	AX	s648
566.783	0.5	AY	n/a	n/a	dot_pattern_expectancy	-1.0	n/a	cue	AY	s648
569.293	0.5	AY	1.0	71.0	dot_pattern_expectancy	71.0	0.674	probe	AY	s648
571.751	0.5	AY	n/a	n/a	dot_pattern_expectancy	-1.0	n/a	cue	AY	s648
574.258	0.5	AY	1.0	71.0	dot_pattern_expectancy	71.0	0.667	probe	AY	s648
576.035	0.5	AX	n/a	n/a	dot_pattern_expectancy	-1.0	n/a	cue	AX	s648
578.543	0.5	AX	1.0	89.0	dot_pattern_expectancy	89.0	1.515	probe	AX	s648
580.458	0.5	AX	n/a	n/a	dot_pattern_expectancy	-1.0	n/a	cue	AX	s648
582.966	0.5	AX	1.0	89.0	dot_pattern_expectancy	89.0	0.605	probe	AX	s648
584.88	0.5	AX	n/a	n/a	dot_pattern_expectancy	-1.0	n/a	cue	AX	s648
587.389	0.5	AX	1.0	89.0	dot_pattern_expectancy	89.0	0.501	probe	AX	s648
589.982	0.5	AY	n/a	n/a	dot_pattern_expectancy	-1.0	n/a	cue	AY	s648
592.488	0.5	AY	1.0	71.0	dot_pattern_expectancy	71.0	0.567	probe	AY	s648
593.993	0.5	BY	n/a	n/a	dot_pattern_expectancy	-1.0	n/a	cue	BY	s648
596.504	0.5	BY	1.0	71.0	dot_pattern_expectancy	71.0	0.667	probe	BY	s648
598.01	0.5	BY	n/a	n/a	dot_pattern_expectancy	-1.0	n/a	cue	BY	s648
600.515	0.5	BY	1.0	71.0	dot_pattern_expectancy	71.0	0.532	probe	BY	s648
602.02	0.5	AX	n/a	n/a	dot_pattern_expectancy	-1.0	n/a	cue	AX	s648
604.529	0.5	AX	1.0	89.0	dot_pattern_expectancy	89.0	0.469	probe	AX	s648
606.17	0.5	BX	n/a	n/a	dot_pattern_expectancy	-1.0	n/a	cue	BX	s648
608.678	0.5	BX	1.0	71.0	dot_pattern_expectancy	71.0	0.296	probe	BX	s648
610.728	0.5	AX	n/a	n/a	dot_pattern_expectancy	-1.0	n/a	cue	AX	s648
613.239	0.5	AX	1.0	89.0	dot_pattern_expectancy	89.0	0.651	probe	AX	s648
615.016	0.5	BX	n/a	n/a	dot_pattern_expectancy	-1.0	n/a	cue	BX	s648
617.524	0.5	BX	1.0	71.0	dot_pattern_expectancy	71.0	0.358	probe	BX	s648
620.118	0.5	AY	n/a	n/a	dot_pattern_expectancy	-1.0	n/a	cue	AY	s648
622.627	0.5	AY	1.0	71.0	dot_pattern_expectancy	71.0	0.616	probe	AY	s648
624.133	0.5	AX	n/a	n/a	dot_pattern_expectancy	-1.0	n/a	cue	AX	s648
626.639	0.5	AX	1.0	89.0	dot_pattern_expectancy	89.0	0.597	probe	AX	s648
629.097	0.5	BY	n/a	n/a	dot_pattern_expectancy	-1.0	n/a	cue	BY	s648
631.605	0.5	BY	1.0	71.0	dot_pattern_expectancy	71.0	0.331	probe	BY	s648
633.247	0.5	AX	n/a	n/a	dot_pattern_expectancy	-1.0	n/a	cue	AX	s648
635.76	0.5	AX	1.0	89.0	dot_pattern_expectancy	89.0	0.76	probe	AX	s648
637.402	0.5	AX	n/a	n/a	dot_pattern_expectancy	-1.0	n/a	cue	AX	s648
639.908	0.5	AX	1.0	89.0	dot_pattern_expectancy	89.0	0.615	probe	AX	s648
641.413	0.5	BY	n/a	n/a	dot_pattern_expectancy	-1.0	n/a	cue	BY	s648
643.926	0.5	BY	1.0	71.0	dot_pattern_expectancy	71.0	0.445	probe	BY	s648
645.569	0.5	AX	n/a	n/a	dot_pattern_expectancy	-1.0	n/a	cue	AX	s648
648.074	0.5	AX	1.0	89.0	dot_pattern_expectancy	89.0	0.496	probe	AX	s648
649.576	0.5	AY	n/a	n/a	dot_pattern_expectancy	-1.0	n/a	cue	AY	s648
652.088	0.5	AY	1.0	71.0	dot_pattern_expectancy	71.0	0.645	probe	AY	s648
654.275	0.5	AX	n/a	n/a	dot_pattern_expectancy	-1.0	n/a	cue	AX	s648
656.781	0.5	AX	1.0	89.0	dot_pattern_expectancy	89.0	0.824	probe	AX	s648
658.286	0.5	AX	n/a	n/a	dot_pattern_expectancy	-1.0	n/a	cue	AX	s648
660.794	0.5	AX	1.0	89.0	dot_pattern_expectancy	89.0	0.404	probe	AX	s648
662.709	0.5	BY	n/a	n/a	dot_pattern_expectancy	-1.0	n/a	cue	BY	s648
665.217	0.5	BY	1.0	71.0	dot_pattern_expectancy	71.0	0.268	probe	BY	s648
666.859	0.5	BY	n/a	n/a	dot_pattern_expectancy	-1.0	n/a	cue	BY	s648
669.367	0.5	BY	1.0	71.0	dot_pattern_expectancy	71.0	0.276	probe	BY	s648
671.009	0.5	AX	n/a	n/a	dot_pattern_expectancy	-1.0	n/a	cue	AX	s648
673.517	0.5	AX	1.0	89.0	dot_pattern_expectancy	89.0	0.795	probe	AX	s648
675.159	0.5	AX	n/a	n/a	dot_pattern_expectancy	-1.0	n/a	cue	AX	s648
677.667	0.5	AX	1.0	89.0	dot_pattern_expectancy	89.0	0.529	probe	AX	s648
679.169	0.5	BY	n/a	n/a	dot_pattern_expectancy	-1.0	n/a	cue	BY	s648
681.681	0.5	BY	1.0	71.0	dot_pattern_expectancy	71.0	0.277	probe	BY	s648
683.732	0.5	AY	n/a	n/a	dot_pattern_expectancy	-1.0	n/a	cue	AY	s648
686.24	0.5	AY	1.0	71.0	dot_pattern_expectancy	71.0	0.811	probe	AY	s648
688.427	0.5	AY	n/a	n/a	dot_pattern_expectancy	-1.0	n/a	cue	AY	s648
690.936	0.5	AY	1.0	71.0	dot_pattern_expectancy	71.0	0.733	probe	AY	s648
692.577	0.5	AY	n/a	n/a	dot_pattern_expectancy	-1.0	n/a	cue	AY	s648
695.085	0.5	AY	1.0	71.0	dot_pattern_expectancy	71.0	0.975	probe	AY	s648
696.86	0.5	BY	n/a	n/a	dot_pattern_expectancy	-1.0	n/a	cue	BY	s648
699.366	0.5	BY	0.0	71.0	dot_pattern_expectancy	-1.0	n/a	probe	BY	s648
700.871	0.5	BX	n/a	n/a	dot_pattern_expectancy	-1.0	n/a	cue	BX	s648
703.379	0.5	BX	1.0	71.0	dot_pattern_expectancy	71.0	0.381	probe	BX	s648
705.294	0.5	AX	n/a	n/a	dot_pattern_expectancy	-1.0	n/a	cue	AX	s648
707.801	0.5	AX	1.0	89.0	dot_pattern_expectancy	89.0	0.57	probe	AX	s648
709.85	0.5	AX	n/a	n/a	dot_pattern_expectancy	-1.0	n/a	cue	AX	s648
712.358	0.5	AX	1.0	89.0	dot_pattern_expectancy	89.0	0.573	probe	AX	s648
714.0	0.5	AX	n/a	n/a	dot_pattern_expectancy	-1.0	n/a	cue	AX	s648
716.513	0.5	AX	1.0	89.0	dot_pattern_expectancy	89.0	0.701	probe	AX	s648
718.29	0.5	AX	n/a	n/a	dot_pattern_expectancy	-1.0	n/a	cue	AX	s648
720.798	0.5	AX	1.0	89.0	dot_pattern_expectancy	89.0	0.531	probe	AX	s648
722.439	0.5	BX	n/a	n/a	dot_pattern_expectancy	-1.0	n/a	cue	BX	s648
724.946	0.5	BX	1.0	71.0	dot_pattern_expectancy	71.0	0.451	probe	BX	s648
726.723	0.5	AX	n/a	n/a	dot_pattern_expectancy	-1.0	n/a	cue	AX	s648
729.234	0.5	AX	1.0	89.0	dot_pattern_expectancy	89.0	0.46	probe	AX	s648
