onset	duration	correct	correct_response	cue	experiment_exp_id	flanker_location	flanker_middle_direction	flanker_type	key_press	response_time	trial_id	worker_id
3.009	0.1	n/a	n/a	spatial	attention_network_task	n/a	n/a	n/a	-1	n/a	spatialcue	s555
3.511	1.7	1.0	71.0	n/a	attention_network_task	down	right	incongruent	71	0.704	stim	s555
5.613	0.1	n/a	n/a	spatial	attention_network_task	n/a	n/a	n/a	-1	n/a	spatialcue	s555
6.116	1.7	1.0	89.0	n/a	attention_network_task	up	left	incongruent	89	0.518	stim	s555
8.219	0.1	n/a	n/a	spatial	attention_network_task	n/a	n/a	n/a	-1	n/a	spatialcue	s555
8.721864	1.7	1.0	89.0	n/a	attention_network_task	up	left	congruent	89	0.493	stim	s555
10.823	0.1	n/a	n/a	spatial	attention_network_task	n/a	n/a	n/a	-1	n/a	spatialcue	s555
11.327727999999999	1.7	1.0	89.0	n/a	attention_network_task	down	left	congruent	89	0.465	stim	s555
13.431	0.1	n/a	n/a	double	attention_network_task	n/a	n/a	n/a	-1	n/a	doublecue	s555
13.933592	1.7	1.0	71.0	n/a	attention_network_task	up	right	incongruent	71	0.441	stim	s555
16.036	0.1	n/a	n/a	double	attention_network_task	n/a	n/a	n/a	-1	n/a	doublecue	s555
16.541	1.7	1.0	89.0	n/a	attention_network_task	down	left	congruent	89	0.459	stim	s555
18.642	0.1	n/a	n/a	double	attention_network_task	n/a	n/a	n/a	-1	n/a	doublecue	s555
19.146864	1.7	1.0	89.0	n/a	attention_network_task	down	left	congruent	89	0.52	stim	s555
21.249	0.1	n/a	n/a	spatial	attention_network_task	n/a	n/a	n/a	-1	n/a	spatialcue	s555
21.751864	1.7	1.0	71.0	n/a	attention_network_task	down	right	congruent	71	0.522	stim	s555
23.853	0.1	n/a	n/a	double	attention_network_task	n/a	n/a	n/a	-1	n/a	doublecue	s555
24.358	1.7	1.0	89.0	n/a	attention_network_task	up	left	congruent	89	0.619	stim	s555
26.461	0.1	n/a	n/a	double	attention_network_task	n/a	n/a	n/a	-1	n/a	doublecue	s555
26.964592	1.7	1.0	71.0	n/a	attention_network_task	down	right	incongruent	71	0.547	stim	s555
29.068	0.1	n/a	n/a	spatial	attention_network_task	n/a	n/a	n/a	-1	n/a	spatialcue	s555
29.570456	1.7	1.0	71.0	n/a	attention_network_task	down	right	congruent	71	0.656	stim	s555
31.672	0.1	n/a	n/a	spatial	attention_network_task	n/a	n/a	n/a	-1	n/a	spatialcue	s555
32.175864000000004	1.7	1.0	89.0	n/a	attention_network_task	down	left	congruent	89	0.561	stim	s555
34.278	0.1	n/a	n/a	spatial	attention_network_task	n/a	n/a	n/a	-1	n/a	spatialcue	s555
34.781864	1.7	1.0	71.0	n/a	attention_network_task	down	right	congruent	71	0.558	stim	s555
36.884	0.1	n/a	n/a	spatial	attention_network_task	n/a	n/a	n/a	-1	n/a	spatialcue	s555
37.39	1.7	1.0	71.0	n/a	attention_network_task	up	right	incongruent	71	0.718	stim	s555
39.491	0.1	n/a	n/a	double	attention_network_task	n/a	n/a	n/a	-1	n/a	doublecue	s555
39.996	1.7	1.0	89.0	n/a	attention_network_task	down	left	congruent	89	0.541	stim	s555
42.098	0.1	n/a	n/a	double	attention_network_task	n/a	n/a	n/a	-1	n/a	doublecue	s555
42.600864	1.7	1.0	71.0	n/a	attention_network_task	down	right	congruent	71	0.648	stim	s555
44.702	0.1	n/a	n/a	double	attention_network_task	n/a	n/a	n/a	-1	n/a	doublecue	s555
45.207	1.7	1.0	71.0	n/a	attention_network_task	up	right	congruent	71	0.528	stim	s555
47.309	0.1	n/a	n/a	double	attention_network_task	n/a	n/a	n/a	-1	n/a	doublecue	s555
47.813864	1.7	1.0	89.0	n/a	attention_network_task	down	left	congruent	89	0.533	stim	s555
49.916	0.1	n/a	n/a	double	attention_network_task	n/a	n/a	n/a	-1	n/a	doublecue	s555
50.421	1.7	1.0	89.0	n/a	attention_network_task	up	left	congruent	89	0.635	stim	s555
52.523	0.1	n/a	n/a	spatial	attention_network_task	n/a	n/a	n/a	-1	n/a	spatialcue	s555
53.027592	1.7	1.0	89.0	n/a	attention_network_task	up	left	congruent	89	0.736	stim	s555
55.129	0.1	n/a	n/a	spatial	attention_network_task	n/a	n/a	n/a	-1	n/a	spatialcue	s555
55.634	1.7	1.0	71.0	n/a	attention_network_task	down	right	incongruent	71	0.632	stim	s555
57.737	0.1	n/a	n/a	double	attention_network_task	n/a	n/a	n/a	-1	n/a	doublecue	s555
58.240184	1.7	1.0	89.0	n/a	attention_network_task	down	left	incongruent	89	0.66	stim	s555
60.344	0.1	n/a	n/a	spatial	attention_network_task	n/a	n/a	n/a	-1	n/a	spatialcue	s555
60.84632	1.7	1.0	89.0	n/a	attention_network_task	up	left	congruent	89	0.519	stim	s555
62.948	0.1	n/a	n/a	spatial	attention_network_task	n/a	n/a	n/a	-1	n/a	spatialcue	s555
63.453	1.7	1.0	71.0	n/a	attention_network_task	down	right	congruent	71	0.525	stim	s555
65.556	0.1	n/a	n/a	spatial	attention_network_task	n/a	n/a	n/a	-1	n/a	spatialcue	s555
66.062864	1.7	1.0	71.0	n/a	attention_network_task	up	right	congruent	71	0.594	stim	s555
68.164	0.1	n/a	n/a	double	attention_network_task	n/a	n/a	n/a	-1	n/a	doublecue	s555
68.668864	1.7	1.0	89.0	n/a	attention_network_task	up	left	incongruent	89	0.554	stim	s555
70.771	0.1	n/a	n/a	double	attention_network_task	n/a	n/a	n/a	-1	n/a	doublecue	s555
71.275864	1.7	1.0	71.0	n/a	attention_network_task	up	right	incongruent	71	0.687	stim	s555
73.379	0.1	n/a	n/a	double	attention_network_task	n/a	n/a	n/a	-1	n/a	doublecue	s555
73.882	1.7	1.0	71.0	n/a	attention_network_task	up	right	incongruent	71	0.629	stim	s555
75.983	0.1	n/a	n/a	spatial	attention_network_task	n/a	n/a	n/a	-1	n/a	spatialcue	s555
76.487864	1.7	1.0	71.0	n/a	attention_network_task	up	right	incongruent	71	0.553	stim	s555
78.59	0.1	n/a	n/a	spatial	attention_network_task	n/a	n/a	n/a	-1	n/a	spatialcue	s555
79.09204799999999	1.7	1.0	89.0	n/a	attention_network_task	down	left	incongruent	89	0.531	stim	s555
81.194	0.1	n/a	n/a	double	attention_network_task	n/a	n/a	n/a	-1	n/a	doublecue	s555
81.697864	1.7	1.0	71.0	n/a	attention_network_task	up	right	incongruent	71	0.473	stim	s555
83.8	0.1	n/a	n/a	double	attention_network_task	n/a	n/a	n/a	-1	n/a	doublecue	s555
84.30359200000001	1.7	1.0	71.0	n/a	attention_network_task	down	right	incongruent	71	0.661	stim	s555
86.405	0.1	n/a	n/a	spatial	attention_network_task	n/a	n/a	n/a	-1	n/a	spatialcue	s555
86.908048	1.7	1.0	71.0	n/a	attention_network_task	up	right	incongruent	71	0.546	stim	s555
89.012	0.1	n/a	n/a	double	attention_network_task	n/a	n/a	n/a	-1	n/a	doublecue	s555
89.513864	1.7	1.0	71.0	n/a	attention_network_task	up	right	incongruent	71	0.571	stim	s555
91.616	0.1	n/a	n/a	double	attention_network_task	n/a	n/a	n/a	-1	n/a	doublecue	s555
92.118728	1.7	1.0	71.0	n/a	attention_network_task	down	right	incongruent	71	0.494	stim	s555
94.222	0.1	n/a	n/a	double	attention_network_task	n/a	n/a	n/a	-1	n/a	doublecue	s555
94.724728	1.7	1.0	89.0	n/a	attention_network_task	down	left	incongruent	89	0.736	stim	s555
96.827	0.1	n/a	n/a	double	attention_network_task	n/a	n/a	n/a	-1	n/a	doublecue	s555
97.331	1.7	1.0	89.0	n/a	attention_network_task	up	left	congruent	89	0.577	stim	s555
99.433	0.1	n/a	n/a	spatial	attention_network_task	n/a	n/a	n/a	-1	n/a	spatialcue	s555
99.936	1.7	1.0	89.0	n/a	attention_network_task	down	left	incongruent	89	0.605	stim	s555
102.039	0.1	n/a	n/a	spatial	attention_network_task	n/a	n/a	n/a	-1	n/a	spatialcue	s555
102.543728	1.7	1.0	89.0	n/a	attention_network_task	down	left	congruent	89	0.583	stim	s555
104.646	0.1	n/a	n/a	spatial	attention_network_task	n/a	n/a	n/a	-1	n/a	spatialcue	s555
105.15	1.7	1.0	89.0	n/a	attention_network_task	down	left	congruent	89	0.612	stim	s555
107.252	0.1	n/a	n/a	spatial	attention_network_task	n/a	n/a	n/a	-1	n/a	spatialcue	s555
107.755	1.7	1.0	89.0	n/a	attention_network_task	up	left	incongruent	89	0.662	stim	s555
109.857	0.1	n/a	n/a	double	attention_network_task	n/a	n/a	n/a	-1	n/a	doublecue	s555
110.36072800000001	1.7	1.0	71.0	n/a	attention_network_task	down	right	congruent	71	0.541	stim	s555
112.463	0.1	n/a	n/a	spatial	attention_network_task	n/a	n/a	n/a	-1	n/a	spatialcue	s555
112.966	1.7	1.0	89.0	n/a	attention_network_task	down	left	incongruent	89	0.784	stim	s555
115.067	0.1	n/a	n/a	spatial	attention_network_task	n/a	n/a	n/a	-1	n/a	spatialcue	s555
115.571864	1.7	1.0	71.0	n/a	attention_network_task	down	right	congruent	71	0.601	stim	s555
117.674	0.1	n/a	n/a	spatial	attention_network_task	n/a	n/a	n/a	-1	n/a	spatialcue	s555
118.176728	1.7	1.0	89.0	n/a	attention_network_task	up	left	congruent	89	0.575	stim	s555
120.278	0.1	n/a	n/a	spatial	attention_network_task	n/a	n/a	n/a	-1	n/a	spatialcue	s555
120.783	1.7	1.0	71.0	n/a	attention_network_task	up	right	congruent	71	0.566	stim	s555
122.885	0.1	n/a	n/a	double	attention_network_task	n/a	n/a	n/a	-1	n/a	doublecue	s555
123.388	1.7	1.0	89.0	n/a	attention_network_task	up	left	incongruent	89	0.901	stim	s555
125.489	0.1	n/a	n/a	double	attention_network_task	n/a	n/a	n/a	-1	n/a	doublecue	s555
125.993	1.7	1.0	71.0	n/a	attention_network_task	up	right	congruent	71	0.602	stim	s555
128.096	0.1	n/a	n/a	spatial	attention_network_task	n/a	n/a	n/a	-1	n/a	spatialcue	s555
128.598	1.7	1.0	71.0	n/a	attention_network_task	up	right	incongruent	71	0.687	stim	s555
130.7	0.1	n/a	n/a	double	attention_network_task	n/a	n/a	n/a	-1	n/a	doublecue	s555
131.204	1.7	1.0	89.0	n/a	attention_network_task	down	left	congruent	89	0.63	stim	s555
133.306	0.1	n/a	n/a	spatial	attention_network_task	n/a	n/a	n/a	-1	n/a	spatialcue	s555
133.809	1.7	1.0	89.0	n/a	attention_network_task	up	left	incongruent	89	0.636	stim	s555
135.911	0.1	n/a	n/a	double	attention_network_task	n/a	n/a	n/a	-1	n/a	doublecue	s555
136.415728	1.7	1.0	71.0	n/a	attention_network_task	down	right	congruent	71	0.548	stim	s555
138.519	0.1	n/a	n/a	double	attention_network_task	n/a	n/a	n/a	-1	n/a	doublecue	s555
139.021864	1.7	1.0	89.0	n/a	attention_network_task	down	left	incongruent	89	0.598	stim	s555
141.125	0.1	n/a	n/a	double	attention_network_task	n/a	n/a	n/a	-1	n/a	doublecue	s555
141.62991200000002	1.7	1.0	89.0	n/a	attention_network_task	up	left	incongruent	89	0.603	stim	s555
143.733	0.1	n/a	n/a	spatial	attention_network_task	n/a	n/a	n/a	-1	n/a	spatialcue	s555
144.235728	1.7	1.0	89.0	n/a	attention_network_task	down	left	congruent	89	0.544	stim	s555
146.338	0.1	n/a	n/a	spatial	attention_network_task	n/a	n/a	n/a	-1	n/a	spatialcue	s555
146.840864	1.7	1.0	89.0	n/a	attention_network_task	down	left	congruent	89	0.617	stim	s555
148.944	0.1	n/a	n/a	double	attention_network_task	n/a	n/a	n/a	-1	n/a	doublecue	s555
149.446864	1.7	1.0	71.0	n/a	attention_network_task	up	right	congruent	71	0.553	stim	s555
151.549	0.1	n/a	n/a	double	attention_network_task	n/a	n/a	n/a	-1	n/a	doublecue	s555
152.054	1.7	1.0	89.0	n/a	attention_network_task	up	left	congruent	89	0.563	stim	s555
154.156	0.1	n/a	n/a	spatial	attention_network_task	n/a	n/a	n/a	-1	n/a	spatialcue	s555
154.661	1.7	1.0	71.0	n/a	attention_network_task	up	right	incongruent	71	0.47	stim	s555
156.763	0.1	n/a	n/a	spatial	attention_network_task	n/a	n/a	n/a	-1	n/a	spatialcue	s555
157.266	1.7	1.0	71.0	n/a	attention_network_task	up	right	congruent	71	0.516	stim	s555
159.368	0.1	n/a	n/a	double	attention_network_task	n/a	n/a	n/a	-1	n/a	doublecue	s555
159.873	1.7	1.0	89.0	n/a	attention_network_task	down	left	incongruent	89	0.677	stim	s555
161.976	0.1	n/a	n/a	spatial	attention_network_task	n/a	n/a	n/a	-1	n/a	spatialcue	s555
162.478864	1.7	1.0	71.0	n/a	attention_network_task	up	right	incongruent	71	0.464	stim	s555
164.581	0.1	n/a	n/a	double	attention_network_task	n/a	n/a	n/a	-1	n/a	doublecue	s555
165.084728	1.7	1.0	71.0	n/a	attention_network_task	down	right	incongruent	71	0.702	stim	s555
167.187	0.1	n/a	n/a	spatial	attention_network_task	n/a	n/a	n/a	-1	n/a	spatialcue	s555
167.690864	1.7	1.0	71.0	n/a	attention_network_task	up	right	congruent	71	0.564	stim	s555
180.302	0.1	n/a	n/a	double	attention_network_task	n/a	n/a	n/a	-1	n/a	doublecue	s555
180.804864	1.7	1.0	89.0	n/a	attention_network_task	up	left	congruent	89	0.584	stim	s555
182.907	0.1	n/a	n/a	double	attention_network_task	n/a	n/a	n/a	-1	n/a	doublecue	s555
183.411	1.7	1.0	71.0	n/a	attention_network_task	down	right	incongruent	71	0.605	stim	s555
185.513	0.1	n/a	n/a	spatial	attention_network_task	n/a	n/a	n/a	-1	n/a	spatialcue	s555
186.017	1.7	1.0	71.0	n/a	attention_network_task	down	right	congruent	71	0.516	stim	s555
188.12	0.1	n/a	n/a	double	attention_network_task	n/a	n/a	n/a	-1	n/a	doublecue	s555
188.621592	1.7	1.0	71.0	n/a	attention_network_task	up	right	congruent	71	0.562	stim	s555
190.724	0.1	n/a	n/a	double	attention_network_task	n/a	n/a	n/a	-1	n/a	doublecue	s555
191.22745600000002	1.7	1.0	89.0	n/a	attention_network_task	down	left	congruent	89	0.519	stim	s555
193.33	0.1	n/a	n/a	spatial	attention_network_task	n/a	n/a	n/a	-1	n/a	spatialcue	s555
193.832592	1.7	1.0	71.0	n/a	attention_network_task	down	right	incongruent	71	0.686	stim	s555
195.934	0.1	n/a	n/a	spatial	attention_network_task	n/a	n/a	n/a	-1	n/a	spatialcue	s555
196.439	1.7	1.0	71.0	n/a	attention_network_task	up	right	congruent	71	0.564	stim	s555
198.542	0.1	n/a	n/a	double	attention_network_task	n/a	n/a	n/a	-1	n/a	doublecue	s555
199.045592	1.7	1.0	71.0	n/a	attention_network_task	down	right	congruent	71	0.586	stim	s555
201.149	0.1	n/a	n/a	spatial	attention_network_task	n/a	n/a	n/a	-1	n/a	spatialcue	s555
201.652	1.7	1.0	71.0	n/a	attention_network_task	up	right	congruent	71	0.511	stim	s555
203.753	0.1	n/a	n/a	spatial	attention_network_task	n/a	n/a	n/a	-1	n/a	spatialcue	s555
204.256592	1.7	1.0	89.0	n/a	attention_network_task	down	left	congruent	89	0.551	stim	s555
206.359	0.1	n/a	n/a	spatial	attention_network_task	n/a	n/a	n/a	-1	n/a	spatialcue	s555
206.864	1.7	1.0	71.0	n/a	attention_network_task	down	right	incongruent	71	0.644	stim	s555
208.966	0.1	n/a	n/a	spatial	attention_network_task	n/a	n/a	n/a	-1	n/a	spatialcue	s555
209.471	1.7	1.0	89.0	n/a	attention_network_task	up	left	incongruent	89	0.569	stim	s555
211.572	0.1	n/a	n/a	spatial	attention_network_task	n/a	n/a	n/a	-1	n/a	spatialcue	s555
212.076592	1.7	1.0	71.0	n/a	attention_network_task	up	right	incongruent	71	0.603	stim	s555
214.179	0.1	n/a	n/a	spatial	attention_network_task	n/a	n/a	n/a	-1	n/a	spatialcue	s555
214.681864	1.7	1.0	89.0	n/a	attention_network_task	down	left	incongruent	89	0.523	stim	s555
216.783	0.1	n/a	n/a	double	attention_network_task	n/a	n/a	n/a	-1	n/a	doublecue	s555
217.28772800000002	1.7	1.0	89.0	n/a	attention_network_task	up	left	incongruent	89	0.601	stim	s555
219.39	0.1	n/a	n/a	double	attention_network_task	n/a	n/a	n/a	-1	n/a	doublecue	s555
219.892456	1.7	1.0	71.0	n/a	attention_network_task	up	right	incongruent	71	0.631	stim	s555
221.994	0.1	n/a	n/a	spatial	attention_network_task	n/a	n/a	n/a	-1	n/a	spatialcue	s555
222.497728	1.7	1.0	89.0	n/a	attention_network_task	up	left	incongruent	89	0.622	stim	s555
224.601	0.1	n/a	n/a	spatial	attention_network_task	n/a	n/a	n/a	-1	n/a	spatialcue	s555
225.103	1.7	1.0	89.0	n/a	attention_network_task	down	left	incongruent	89	0.576	stim	s555
227.205	0.1	n/a	n/a	spatial	attention_network_task	n/a	n/a	n/a	-1	n/a	spatialcue	s555
227.708592	1.7	1.0	71.0	n/a	attention_network_task	down	right	incongruent	71	0.555	stim	s555
229.812	0.1	n/a	n/a	spatial	attention_network_task	n/a	n/a	n/a	-1	n/a	spatialcue	s555
230.314	1.7	1.0	89.0	n/a	attention_network_task	down	left	congruent	89	0.595	stim	s555
232.416	0.1	n/a	n/a	double	attention_network_task	n/a	n/a	n/a	-1	n/a	doublecue	s555
232.919	1.7	1.0	71.0	n/a	attention_network_task	up	right	congruent	71	0.521	stim	s555
235.021	0.1	n/a	n/a	double	attention_network_task	n/a	n/a	n/a	-1	n/a	doublecue	s555
235.52445600000001	1.7	1.0	89.0	n/a	attention_network_task	down	left	incongruent	89	0.592	stim	s555
237.627	0.1	n/a	n/a	spatial	attention_network_task	n/a	n/a	n/a	-1	n/a	spatialcue	s555
238.130592	1.7	1.0	71.0	n/a	attention_network_task	down	right	congruent	71	0.76	stim	s555
240.233	0.1	n/a	n/a	spatial	attention_network_task	n/a	n/a	n/a	-1	n/a	spatialcue	s555
240.736	1.7	1.0	89.0	n/a	attention_network_task	up	left	congruent	89	0.607	stim	s555
242.838	0.1	n/a	n/a	spatial	attention_network_task	n/a	n/a	n/a	-1	n/a	spatialcue	s555
243.34186400000002	1.7	1.0	71.0	n/a	attention_network_task	up	right	congruent	71	0.561	stim	s555
245.444	0.1	n/a	n/a	spatial	attention_network_task	n/a	n/a	n/a	-1	n/a	spatialcue	s555
245.94618400000002	1.7	1.0	89.0	n/a	attention_network_task	up	left	incongruent	89	0.691	stim	s555
248.048	0.1	n/a	n/a	double	attention_network_task	n/a	n/a	n/a	-1	n/a	doublecue	s555
248.552864	1.7	1.0	71.0	n/a	attention_network_task	up	right	congruent	71	0.644	stim	s555
250.655	0.1	n/a	n/a	spatial	attention_network_task	n/a	n/a	n/a	-1	n/a	spatialcue	s555
251.158	1.7	1.0	71.0	n/a	attention_network_task	up	right	congruent	71	0.498	stim	s555
253.259	0.1	n/a	n/a	double	attention_network_task	n/a	n/a	n/a	-1	n/a	doublecue	s555
253.763864	1.7	1.0	71.0	n/a	attention_network_task	down	right	incongruent	71	0.755	stim	s555
255.866	0.1	n/a	n/a	spatial	attention_network_task	n/a	n/a	n/a	-1	n/a	spatialcue	s555
256.370864	1.7	1.0	89.0	n/a	attention_network_task	down	left	incongruent	89	0.654	stim	s555
258.474	0.1	n/a	n/a	double	attention_network_task	n/a	n/a	n/a	-1	n/a	doublecue	s555
258.977864	1.7	1.0	89.0	n/a	attention_network_task	down	left	incongruent	89	0.648	stim	s555
261.08	0.1	n/a	n/a	spatial	attention_network_task	n/a	n/a	n/a	-1	n/a	spatialcue	s555
261.584456	1.7	1.0	71.0	n/a	attention_network_task	down	right	congruent	71	0.778	stim	s555
263.686	0.1	n/a	n/a	spatial	attention_network_task	n/a	n/a	n/a	-1	n/a	spatialcue	s555
264.191	1.7	1.0	89.0	n/a	attention_network_task	up	left	congruent	89	0.652	stim	s555
266.294	0.1	n/a	n/a	double	attention_network_task	n/a	n/a	n/a	-1	n/a	doublecue	s555
266.797728	1.7	1.0	89.0	n/a	attention_network_task	down	left	incongruent	89	0.623	stim	s555
268.902	0.1	n/a	n/a	spatial	attention_network_task	n/a	n/a	n/a	-1	n/a	spatialcue	s555
269.406	1.7	1.0	89.0	n/a	attention_network_task	up	left	congruent	89	0.542	stim	s555
271.509	0.1	n/a	n/a	spatial	attention_network_task	n/a	n/a	n/a	-1	n/a	spatialcue	s555
272.011864	1.7	1.0	89.0	n/a	attention_network_task	up	left	congruent	89	0.511	stim	s555
274.113	0.1	n/a	n/a	double	attention_network_task	n/a	n/a	n/a	-1	n/a	doublecue	s555
274.618592	1.7	1.0	71.0	n/a	attention_network_task	down	right	incongruent	71	0.564	stim	s555
276.721	0.1	n/a	n/a	double	attention_network_task	n/a	n/a	n/a	-1	n/a	doublecue	s555
277.225456	1.7	1.0	71.0	n/a	attention_network_task	up	right	congruent	71	0.53	stim	s555
279.328	0.1	n/a	n/a	double	attention_network_task	n/a	n/a	n/a	-1	n/a	doublecue	s555
279.832	1.7	1.0	71.0	n/a	attention_network_task	up	right	incongruent	71	0.612	stim	s555
281.934	0.1	n/a	n/a	spatial	attention_network_task	n/a	n/a	n/a	-1	n/a	spatialcue	s555
282.438864	1.7	1.0	71.0	n/a	attention_network_task	up	right	incongruent	71	0.65	stim	s555
284.54	0.1	n/a	n/a	double	attention_network_task	n/a	n/a	n/a	-1	n/a	doublecue	s555
285.042864	1.7	1.0	89.0	n/a	attention_network_task	down	left	incongruent	89	0.647	stim	s555
287.145	0.1	n/a	n/a	spatial	attention_network_task	n/a	n/a	n/a	-1	n/a	spatialcue	s555
287.649864	1.7	1.0	89.0	n/a	attention_network_task	up	left	incongruent	89	0.525	stim	s555
289.751	0.1	n/a	n/a	double	attention_network_task	n/a	n/a	n/a	-1	n/a	doublecue	s555
290.254864	1.7	1.0	89.0	n/a	attention_network_task	down	left	congruent	89	0.579	stim	s555
292.357	0.1	n/a	n/a	spatial	attention_network_task	n/a	n/a	n/a	-1	n/a	spatialcue	s555
292.860728	1.7	1.0	71.0	n/a	attention_network_task	down	right	incongruent	71	0.62	stim	s555
294.962	0.1	n/a	n/a	spatial	attention_network_task	n/a	n/a	n/a	-1	n/a	spatialcue	s555
295.466864	1.7	1.0	71.0	n/a	attention_network_task	down	right	incongruent	71	0.588	stim	s555
297.569	0.1	n/a	n/a	spatial	attention_network_task	n/a	n/a	n/a	-1	n/a	spatialcue	s555
298.072592	1.7	1.0	71.0	n/a	attention_network_task	down	right	incongruent	71	0.524	stim	s555
300.175	0.1	n/a	n/a	double	attention_network_task	n/a	n/a	n/a	-1	n/a	doublecue	s555
300.68	1.7	1.0	71.0	n/a	attention_network_task	down	right	incongruent	71	0.67	stim	s555
302.781	0.1	n/a	n/a	double	attention_network_task	n/a	n/a	n/a	-1	n/a	doublecue	s555
303.284864	1.7	1.0	89.0	n/a	attention_network_task	up	left	congruent	89	0.637	stim	s555
305.388	0.1	n/a	n/a	spatial	attention_network_task	n/a	n/a	n/a	-1	n/a	spatialcue	s555
305.89	1.7	1.0	71.0	n/a	attention_network_task	down	right	congruent	71	0.54	stim	s555
307.992	0.1	n/a	n/a	double	attention_network_task	n/a	n/a	n/a	-1	n/a	doublecue	s555
308.496864	1.7	1.0	89.0	n/a	attention_network_task	up	left	incongruent	89	0.498	stim	s555
310.6	0.1	n/a	n/a	spatial	attention_network_task	n/a	n/a	n/a	-1	n/a	spatialcue	s555
311.103048	1.7	1.0	89.0	n/a	attention_network_task	down	left	congruent	89	0.504	stim	s555
313.208	0.1	n/a	n/a	double	attention_network_task	n/a	n/a	n/a	-1	n/a	doublecue	s555
313.712728	1.7	1.0	89.0	n/a	attention_network_task	down	left	congruent	89	0.582	stim	s555
315.815	0.1	n/a	n/a	double	attention_network_task	n/a	n/a	n/a	-1	n/a	doublecue	s555
316.319864	1.7	1.0	71.0	n/a	attention_network_task	down	right	congruent	71	0.534	stim	s555
318.422	0.1	n/a	n/a	double	attention_network_task	n/a	n/a	n/a	-1	n/a	doublecue	s555
318.926	1.7	1.0	71.0	n/a	attention_network_task	up	right	incongruent	71	0.593	stim	s555
321.027	0.1	n/a	n/a	spatial	attention_network_task	n/a	n/a	n/a	-1	n/a	spatialcue	s555
321.531864	1.7	1.0	89.0	n/a	attention_network_task	down	left	incongruent	89	0.628	stim	s555
323.634	0.1	n/a	n/a	double	attention_network_task	n/a	n/a	n/a	-1	n/a	doublecue	s555
324.139	1.7	1.0	71.0	n/a	attention_network_task	down	right	congruent	71	0.481	stim	s555
326.241	0.1	n/a	n/a	spatial	attention_network_task	n/a	n/a	n/a	-1	n/a	spatialcue	s555
326.744864	1.7	1.0	89.0	n/a	attention_network_task	down	left	incongruent	89	0.625	stim	s555
328.846	0.1	n/a	n/a	double	attention_network_task	n/a	n/a	n/a	-1	n/a	doublecue	s555
329.351728	1.7	1.0	89.0	n/a	attention_network_task	up	left	incongruent	89	0.481	stim	s555
331.454	0.1	n/a	n/a	spatial	attention_network_task	n/a	n/a	n/a	-1	n/a	spatialcue	s555
331.958728	1.7	1.0	89.0	n/a	attention_network_task	up	left	incongruent	89	0.504	stim	s555
334.061	0.1	n/a	n/a	double	attention_network_task	n/a	n/a	n/a	-1	n/a	doublecue	s555
334.562864	1.7	1.0	89.0	n/a	attention_network_task	up	left	congruent	89	0.638	stim	s555
336.665	0.1	n/a	n/a	double	attention_network_task	n/a	n/a	n/a	-1	n/a	doublecue	s555
337.169	1.7	1.0	89.0	n/a	attention_network_task	up	left	incongruent	89	0.695	stim	s555
339.272	0.1	n/a	n/a	double	attention_network_task	n/a	n/a	n/a	-1	n/a	doublecue	s555
339.773864	1.7	1.0	89.0	n/a	attention_network_task	up	left	incongruent	89	0.675	stim	s555
341.876	0.1	n/a	n/a	spatial	attention_network_task	n/a	n/a	n/a	-1	n/a	spatialcue	s555
342.38	1.7	1.0	71.0	n/a	attention_network_task	down	right	congruent	71	0.572	stim	s555
344.482	0.1	n/a	n/a	double	attention_network_task	n/a	n/a	n/a	-1	n/a	doublecue	s555
344.984728	1.7	1.0	71.0	n/a	attention_network_task	down	right	congruent	71	0.523	stim	s555
