onset	duration	planning	condition	current_position	exp_stage	experiment_exp_id	goal_state	key_press	problem_id	response_time	start_state	trial_id	worker_id
-70.376	0.0	0	n/a	n/a	n/a	ward_and_allport	n/a	32.0	n/a	31.445	n/a	instructions	s555
3.007	6.79	1	UA_with_intermediate	1,0,0,2,0,0,0,0,0	practice	ward_and_allport	1,2,3,0,0,0,0,0,0	71.0	0.0	6.79	1,0,0,2,3,0,0,0,0	to_hand	s555
9.798	2.665	0	UA_with_intermediate	1,0,0,2,0,0,3,0,0	practice	ward_and_allport	1,2,3,0,0,0,0,0,0	82.0	0.0	2.665	1,0,0,2,3,0,0,0,0	to_board	s555
12.466	1.143	0	UA_with_intermediate	1,0,0,0,0,0,3,0,0	practice	ward_and_allport	1,2,3,0,0,0,0,0,0	71.0	0.0	1.143	1,0,0,2,3,0,0,0,0	to_hand	s555
13.61	1.342	0	UA_with_intermediate	1,2,0,0,0,0,3,0,0	practice	ward_and_allport	1,2,3,0,0,0,0,0,0	89.0	0.0	1.342	1,0,0,2,3,0,0,0,0	to_board	s555
14.953	0.944	0	UA_with_intermediate	1,2,0,0,0,0,0,0,0	practice	ward_and_allport	1,2,3,0,0,0,0,0,0	82.0	0.0	0.944	1,0,0,2,3,0,0,0,0	to_hand	s555
15.898	0.832	0	UA_with_intermediate	1,2,3,0,0,0,0,0,0	practice	ward_and_allport	1,2,3,0,0,0,0,0,0	89.0	0.0	0.832	1,0,0,2,3,0,0,0,0	to_board	s555
16.734	1.0	0	UA_with_intermediate	n/a	practice	ward_and_allport	n/a	-1.0	0.0	n/a	n/a	feedback	s555
19.237	4.592	1	UA_with_intermediate	1,0,0,3,0,0,0,0,0	practice	ward_and_allport	1,3,2,0,0,0,0,0,0	89.0	1.0	4.592	1,2,0,3,0,0,0,0,0	to_hand	s555
23.829	1.171	0	UA_with_intermediate	1,0,0,3,0,0,2,0,0	practice	ward_and_allport	1,3,2,0,0,0,0,0,0	82.0	1.0	1.171	1,2,0,3,0,0,0,0,0	to_board	s555
25.002	0.736	0	UA_with_intermediate	1,0,0,0,0,0,2,0,0	practice	ward_and_allport	1,3,2,0,0,0,0,0,0	71.0	1.0	0.736	1,2,0,3,0,0,0,0,0	to_hand	s555
25.74	0.998	0	UA_with_intermediate	1,3,0,0,0,0,2,0,0	practice	ward_and_allport	1,3,2,0,0,0,0,0,0	89.0	1.0	0.998	1,2,0,3,0,0,0,0,0	to_board	s555
26.74	0.908	0	UA_with_intermediate	1,3,0,0,0,0,0,0,0	practice	ward_and_allport	1,3,2,0,0,0,0,0,0	82.0	1.0	0.908	1,2,0,3,0,0,0,0,0	to_hand	s555
27.648	0.945	0	UA_with_intermediate	1,3,2,0,0,0,0,0,0	practice	ward_and_allport	1,3,2,0,0,0,0,0,0	89.0	1.0	0.945	1,2,0,3,0,0,0,0,0	to_board	s555
28.596	1.0	0	UA_with_intermediate	n/a	practice	ward_and_allport	n/a	-1.0	1.0	n/a	n/a	feedback	s555
29.596	1.1	0	UA_with_intermediate	n/a	practice	ward_and_allport	n/a	-1.0	1.0	n/a	n/a	ITI	s555
30.697	3.902	1	UA_without_intermediate	0,0,0,1,2,0,0,0,0	practice	ward_and_allport	3,2,1,0,0,0,0,0,0	82.0	2.0	3.902	0,0,0,1,2,0,3,0,0	to_hand	s555
34.599	0.895	0	UA_without_intermediate	3,0,0,1,2,0,0,0,0	practice	ward_and_allport	3,2,1,0,0,0,0,0,0	89.0	2.0	0.895	0,0,0,1,2,0,3,0,0	to_board	s555
35.497	0.91	0	UA_without_intermediate	3,0,0,1,0,0,0,0,0	practice	ward_and_allport	3,2,1,0,0,0,0,0,0	71.0	2.0	0.91	0,0,0,1,2,0,3,0,0	to_hand	s555
36.408	0.717	0	UA_without_intermediate	3,2,0,1,0,0,0,0,0	practice	ward_and_allport	3,2,1,0,0,0,0,0,0	89.0	2.0	0.717	0,0,0,1,2,0,3,0,0	to_board	s555
37.127	0.849	0	UA_without_intermediate	3,2,0,0,0,0,0,0,0	practice	ward_and_allport	3,2,1,0,0,0,0,0,0	71.0	2.0	0.849	0,0,0,1,2,0,3,0,0	to_hand	s555
37.976	0.793	0	UA_without_intermediate	3,2,1,0,0,0,0,0,0	practice	ward_and_allport	3,2,1,0,0,0,0,0,0	89.0	2.0	0.793	0,0,0,1,2,0,3,0,0	to_board	s555
38.774	1.0	0	UA_without_intermediate	n/a	practice	ward_and_allport	n/a	-1.0	2.0	n/a	n/a	feedback	s555
39.774	1.2	0	UA_without_intermediate	n/a	practice	ward_and_allport	n/a	-1.0	2.0	n/a	n/a	ITI	s555
40.975	3.313	1	UA_without_intermediate	0,0,0,1,0,0,3,0,0	practice	ward_and_allport	2,3,1,0,0,0,0,0,0	71.0	3.0	3.313	0,0,0,1,2,0,3,0,0	to_hand	s555
44.289	1.342	0	UA_without_intermediate	2,0,0,1,0,0,3,0,0	practice	ward_and_allport	2,3,1,0,0,0,0,0,0	89.0	3.0	1.342	0,0,0,1,2,0,3,0,0	to_board	s555
45.632	0.885	0	UA_without_intermediate	2,0,0,1,0,0,0,0,0	practice	ward_and_allport	2,3,1,0,0,0,0,0,0	82.0	3.0	0.885	0,0,0,1,2,0,3,0,0	to_hand	s555
46.519	0.788	0	UA_without_intermediate	2,3,0,1,0,0,0,0,0	practice	ward_and_allport	2,3,1,0,0,0,0,0,0	89.0	3.0	0.788	0,0,0,1,2,0,3,0,0	to_board	s555
47.309	0.825	0	UA_without_intermediate	2,3,0,0,0,0,0,0,0	practice	ward_and_allport	2,3,1,0,0,0,0,0,0	71.0	3.0	0.825	0,0,0,1,2,0,3,0,0	to_hand	s555
48.134	0.878	0	UA_without_intermediate	2,3,1,0,0,0,0,0,0	practice	ward_and_allport	2,3,1,0,0,0,0,0,0	89.0	3.0	0.878	0,0,0,1,2,0,3,0,0	to_board	s555
49.016	1.0	0	UA_without_intermediate	n/a	practice	ward_and_allport	n/a	-1.0	3.0	n/a	n/a	feedback	s555
50.016	1.0	0	UA_without_intermediate	n/a	practice	ward_and_allport	n/a	-1.0	3.0	n/a	n/a	ITI	s555
53.021	4.594	1	PA_with_intermediate	0,0,0,1,2,0,0,0,0	test	ward_and_allport	2,0,0,1,3,0,0,0,0	71.0	0.0	4.594	0,0,0,1,2,3,0,0,0	to_hand	s555
57.616	1.253	0	PA_with_intermediate	0,0,0,1,2,0,3,0,0	test	ward_and_allport	2,0,0,1,3,0,0,0,0	82.0	0.0	1.253	0,0,0,1,2,3,0,0,0	to_board	s555
58.87	0.819	0	PA_with_intermediate	0,0,0,1,0,0,3,0,0	test	ward_and_allport	2,0,0,1,3,0,0,0,0	71.0	0.0	0.819	0,0,0,1,2,3,0,0,0	to_hand	s555
59.69	0.949	0	PA_with_intermediate	2,0,0,1,0,0,3,0,0	test	ward_and_allport	2,0,0,1,3,0,0,0,0	89.0	0.0	0.949	0,0,0,1,2,3,0,0,0	to_board	s555
60.641	2.549	0	PA_with_intermediate	2,0,0,1,0,0,0,0,0	test	ward_and_allport	2,0,0,1,3,0,0,0,0	82.0	0.0	2.549	0,0,0,1,2,3,0,0,0	to_hand	s555
63.191	0.866	0	PA_with_intermediate	2,0,0,1,3,0,0,0,0	test	ward_and_allport	2,0,0,1,3,0,0,0,0	71.0	0.0	0.866	0,0,0,1,2,3,0,0,0	to_board	s555
64.06	1.0	0	PA_with_intermediate	n/a	test	ward_and_allport	n/a	-1.0	0.0	n/a	n/a	feedback	s555
65.06	2.768	0	PA_with_intermediate	n/a	test	ward_and_allport	n/a	-1.0	0.0	n/a	n/a	ITI	s555
67.831	5.302	1	PA_with_intermediate	0,0,0,1,2,0,0,0,0	test	ward_and_allport	2,0,0,1,3,0,0,0,0	71.0	1.0	5.302	0,0,0,1,2,3,0,0,0	to_hand	s555
73.134	0.778	0	PA_with_intermediate	0,0,0,1,2,0,3,0,0	test	ward_and_allport	2,0,0,1,3,0,0,0,0	82.0	1.0	0.778	0,0,0,1,2,3,0,0,0	to_board	s555
73.914	0.911	0	PA_with_intermediate	0,0,0,1,0,0,3,0,0	test	ward_and_allport	2,0,0,1,3,0,0,0,0	71.0	1.0	0.911	0,0,0,1,2,3,0,0,0	to_hand	s555
74.826	0.89	0	PA_with_intermediate	2,0,0,1,0,0,3,0,0	test	ward_and_allport	2,0,0,1,3,0,0,0,0	89.0	1.0	0.89	0,0,0,1,2,3,0,0,0	to_board	s555
75.719	1.584	0	PA_with_intermediate	2,0,0,1,0,0,0,0,0	test	ward_and_allport	2,0,0,1,3,0,0,0,0	82.0	1.0	1.584	0,0,0,1,2,3,0,0,0	to_hand	s555
77.304	0.814	0	PA_with_intermediate	2,0,0,1,3,0,0,0,0	test	ward_and_allport	2,0,0,1,3,0,0,0,0	71.0	1.0	0.814	0,0,0,1,2,3,0,0,0	to_board	s555
78.121	1.0	0	PA_with_intermediate	n/a	test	ward_and_allport	n/a	-1.0	1.0	n/a	n/a	feedback	s555
79.121	1.68	0	PA_with_intermediate	n/a	test	ward_and_allport	n/a	-1.0	1.0	n/a	n/a	ITI	s555
80.803	4.728	1	PA_without_intermediate	0,0,0,1,2,0,0,0,0	test	ward_and_allport	3,2,0,0,0,0,1,0,0	71.0	2.0	4.728	0,0,0,1,2,3,0,0,0	to_hand	s555
85.532	1.7	0	PA_without_intermediate	3,0,0,1,2,0,0,0,0	test	ward_and_allport	3,2,0,0,0,0,1,0,0	89.0	2.0	1.7	0,0,0,1,2,3,0,0,0	to_board	s555
87.235	0.967	0	PA_without_intermediate	3,0,0,1,0,0,0,0,0	test	ward_and_allport	3,2,0,0,0,0,1,0,0	71.0	2.0	0.967	0,0,0,1,2,3,0,0,0	to_hand	s555
88.203	0.846	0	PA_without_intermediate	3,2,0,1,0,0,0,0,0	test	ward_and_allport	3,2,0,0,0,0,1,0,0	89.0	2.0	0.846	0,0,0,1,2,3,0,0,0	to_board	s555
89.051	0.801	0	PA_without_intermediate	3,2,0,0,0,0,0,0,0	test	ward_and_allport	3,2,0,0,0,0,1,0,0	71.0	2.0	0.801	0,0,0,1,2,3,0,0,0	to_hand	s555
89.853	0.839	0	PA_without_intermediate	3,2,0,0,0,0,1,0,0	test	ward_and_allport	3,2,0,0,0,0,1,0,0	82.0	2.0	0.839	0,0,0,1,2,3,0,0,0	to_board	s555
90.696	1.0	0	PA_without_intermediate	n/a	test	ward_and_allport	n/a	-1.0	2.0	n/a	n/a	feedback	s555
91.696	2.224	0	PA_without_intermediate	n/a	test	ward_and_allport	n/a	-1.0	2.0	n/a	n/a	ITI	s555
93.923	3.773	1	PA_without_intermediate	1,2,0,0,0,0,0,0,0	test	ward_and_allport	0,0,0,3,2,0,1,0,0	89.0	3.0	3.773	1,2,3,0,0,0,0,0,0	to_hand	s555
97.697	1.135	0	PA_without_intermediate	1,2,0,3,0,0,0,0,0	test	ward_and_allport	0,0,0,3,2,0,1,0,0	71.0	3.0	1.135	1,2,3,0,0,0,0,0,0	to_board	s555
98.835	1.003	0	PA_without_intermediate	1,0,0,3,0,0,0,0,0	test	ward_and_allport	0,0,0,3,2,0,1,0,0	89.0	3.0	1.003	1,2,3,0,0,0,0,0,0	to_hand	s555
99.839	0.853	0	PA_without_intermediate	1,2,0,3,0,0,0,0,0	test	ward_and_allport	0,0,0,3,2,0,1,0,0	89.0	3.0	0.853	1,2,3,0,0,0,0,0,0	to_board	s555
100.695	1.329	0	PA_without_intermediate	1,0,0,3,0,0,0,0,0	test	ward_and_allport	0,0,0,3,2,0,1,0,0	89.0	3.0	1.329	1,2,3,0,0,0,0,0,0	to_hand	s555
102.025	0.76	0	PA_without_intermediate	1,0,0,3,2,0,0,0,0	test	ward_and_allport	0,0,0,3,2,0,1,0,0	71.0	3.0	0.76	1,2,3,0,0,0,0,0,0	to_board	s555
102.787	0.723	0	PA_without_intermediate	0,0,0,3,2,0,0,0,0	test	ward_and_allport	0,0,0,3,2,0,1,0,0	89.0	3.0	0.723	1,2,3,0,0,0,0,0,0	to_hand	s555
103.512	0.772	0	PA_without_intermediate	0,0,0,3,2,0,1,0,0	test	ward_and_allport	0,0,0,3,2,0,1,0,0	82.0	3.0	0.772	1,2,3,0,0,0,0,0,0	to_board	s555
104.288	1.0	0	PA_without_intermediate	n/a	test	ward_and_allport	n/a	-1.0	3.0	n/a	n/a	feedback	s555
105.288	2.36	0	PA_without_intermediate	n/a	test	ward_and_allport	n/a	-1.0	3.0	n/a	n/a	ITI	s555
107.651	3.166	1	PA_without_intermediate	1,2,0,0,0,0,0,0,0	test	ward_and_allport	0,0,0,2,0,0,3,1,0	89.0	4.0	3.166	1,2,3,0,0,0,0,0,0	to_hand	s555
110.817	1.051	0	PA_without_intermediate	1,2,0,0,0,0,3,0,0	test	ward_and_allport	0,0,0,2,0,0,3,1,0	82.0	4.0	1.051	1,2,3,0,0,0,0,0,0	to_board	s555
111.87	1.515	0	PA_without_intermediate	1,0,0,0,0,0,3,0,0	test	ward_and_allport	0,0,0,2,0,0,3,1,0	89.0	4.0	1.515	1,2,3,0,0,0,0,0,0	to_hand	s555
113.385	0.894	0	PA_without_intermediate	1,0,0,2,0,0,3,0,0	test	ward_and_allport	0,0,0,2,0,0,3,1,0	71.0	4.0	0.894	1,2,3,0,0,0,0,0,0	to_board	s555
114.281	0.845	0	PA_without_intermediate	0,0,0,2,0,0,3,0,0	test	ward_and_allport	0,0,0,2,0,0,3,1,0	89.0	4.0	0.845	1,2,3,0,0,0,0,0,0	to_hand	s555
115.127	0.992	0	PA_without_intermediate	0,0,0,2,0,0,3,1,0	test	ward_and_allport	0,0,0,2,0,0,3,1,0	82.0	4.0	0.992	1,2,3,0,0,0,0,0,0	to_board	s555
116.124	1.0	0	PA_without_intermediate	n/a	test	ward_and_allport	n/a	-1.0	4.0	n/a	n/a	feedback	s555
117.124	1.0	0	PA_without_intermediate	n/a	test	ward_and_allport	n/a	-1.0	4.0	n/a	n/a	ITI	s555
118.126	4.312	1	PA_without_intermediate	0,0,0,1,2,0,0,0,0	test	ward_and_allport	2,0,0,0,0,0,3,1,0	71.0	5.0	4.312	0,0,0,1,2,3,0,0,0	to_hand	s555
122.438	1.34	0	PA_without_intermediate	0,0,0,1,2,0,3,0,0	test	ward_and_allport	2,0,0,0,0,0,3,1,0	82.0	5.0	1.34	0,0,0,1,2,3,0,0,0	to_board	s555
123.782	0.801	0	PA_without_intermediate	0,0,0,1,0,0,3,0,0	test	ward_and_allport	2,0,0,0,0,0,3,1,0	71.0	5.0	0.801	0,0,0,1,2,3,0,0,0	to_hand	s555
124.585	0.976	0	PA_without_intermediate	2,0,0,1,0,0,3,0,0	test	ward_and_allport	2,0,0,0,0,0,3,1,0	89.0	5.0	0.976	0,0,0,1,2,3,0,0,0	to_board	s555
125.563	0.963	0	PA_without_intermediate	2,0,0,0,0,0,3,0,0	test	ward_and_allport	2,0,0,0,0,0,3,1,0	71.0	5.0	0.963	0,0,0,1,2,3,0,0,0	to_hand	s555
126.527	0.955	0	PA_without_intermediate	2,0,0,0,0,0,3,1,0	test	ward_and_allport	2,0,0,0,0,0,3,1,0	82.0	5.0	0.955	0,0,0,1,2,3,0,0,0	to_board	s555
127.486	1.0	0	PA_without_intermediate	n/a	test	ward_and_allport	n/a	-1.0	5.0	n/a	n/a	feedback	s555
128.486	1.408	0	PA_without_intermediate	n/a	test	ward_and_allport	n/a	-1.0	5.0	n/a	n/a	ITI	s555
129.898	4.19	1	PA_with_intermediate	1,2,0,0,0,0,0,0,0	test	ward_and_allport	1,3,0,2,0,0,0,0,0	89.0	6.0	4.19	1,2,3,0,0,0,0,0,0	to_hand	s555
134.089	0.821	0	PA_with_intermediate	1,2,0,0,0,0,3,0,0	test	ward_and_allport	1,3,0,2,0,0,0,0,0	82.0	6.0	0.821	1,2,3,0,0,0,0,0,0	to_board	s555
134.912	0.914	0	PA_with_intermediate	1,0,0,0,0,0,3,0,0	test	ward_and_allport	1,3,0,2,0,0,0,0,0	89.0	6.0	0.914	1,2,3,0,0,0,0,0,0	to_hand	s555
135.827	0.826	0	PA_with_intermediate	1,0,0,2,0,0,3,0,0	test	ward_and_allport	1,3,0,2,0,0,0,0,0	71.0	6.0	0.826	1,2,3,0,0,0,0,0,0	to_board	s555
136.655	0.862	0	PA_with_intermediate	1,0,0,2,0,0,0,0,0	test	ward_and_allport	1,3,0,2,0,0,0,0,0	82.0	6.0	0.862	1,2,3,0,0,0,0,0,0	to_hand	s555
137.519	0.791	0	PA_with_intermediate	1,3,0,2,0,0,0,0,0	test	ward_and_allport	1,3,0,2,0,0,0,0,0	89.0	6.0	0.791	1,2,3,0,0,0,0,0,0	to_board	s555
138.314	1.0	0	PA_with_intermediate	n/a	test	ward_and_allport	n/a	-1.0	6.0	n/a	n/a	feedback	s555
139.314	1.136	0	PA_with_intermediate	n/a	test	ward_and_allport	n/a	-1.0	6.0	n/a	n/a	ITI	s555
140.452	2.948	1	PA_without_intermediate	0,0,0,0,0,0,1,2,0	test	ward_and_allport	1,0,0,3,2,0,0,0,0	82.0	7.0	2.948	0,0,0,0,0,0,1,2,3	to_hand	s555
143.401	1.573	0	PA_without_intermediate	0,0,0,3,0,0,1,2,0	test	ward_and_allport	1,0,0,3,2,0,0,0,0	71.0	7.0	1.573	0,0,0,0,0,0,1,2,3	to_board	s555
144.978	1.253	0	PA_without_intermediate	0,0,0,3,0,0,1,0,0	test	ward_and_allport	1,0,0,3,2,0,0,0,0	82.0	7.0	1.253	0,0,0,0,0,0,1,2,3	to_hand	s555
146.232	0.857	0	PA_without_intermediate	0,0,0,3,2,0,1,0,0	test	ward_and_allport	1,0,0,3,2,0,0,0,0	71.0	7.0	0.857	0,0,0,0,0,0,1,2,3	to_board	s555
147.091	0.998	0	PA_without_intermediate	0,0,0,3,2,0,0,0,0	test	ward_and_allport	1,0,0,3,2,0,0,0,0	82.0	7.0	0.998	0,0,0,0,0,0,1,2,3	to_hand	s555
148.089	0.948	0	PA_without_intermediate	1,0,0,3,2,0,0,0,0	test	ward_and_allport	1,0,0,3,2,0,0,0,0	89.0	7.0	0.948	0,0,0,0,0,0,1,2,3	to_board	s555
149.043	1.0	0	PA_without_intermediate	n/a	test	ward_and_allport	n/a	-1.0	7.0	n/a	n/a	feedback	s555
150.043	4.128	0	PA_without_intermediate	n/a	test	ward_and_allport	n/a	-1.0	7.0	n/a	n/a	ITI	s555
154.174	3.216	1	PA_without_intermediate	1,2,0,0,0,0,0,0,0	test	ward_and_allport	0,0,0,3,1,0,2,0,0	89.0	8.0	3.216	1,2,3,0,0,0,0,0,0	to_hand	s555
157.391	0.881	0	PA_without_intermediate	1,2,0,3,0,0,0,0,0	test	ward_and_allport	0,0,0,3,1,0,2,0,0	71.0	8.0	0.881	1,2,3,0,0,0,0,0,0	to_board	s555
158.275	0.906	0	PA_without_intermediate	1,0,0,3,0,0,0,0,0	test	ward_and_allport	0,0,0,3,1,0,2,0,0	89.0	8.0	0.906	1,2,3,0,0,0,0,0,0	to_hand	s555
159.182	0.935	0	PA_without_intermediate	1,0,0,3,0,0,2,0,0	test	ward_and_allport	0,0,0,3,1,0,2,0,0	82.0	8.0	0.935	1,2,3,0,0,0,0,0,0	to_board	s555
160.122	0.838	0	PA_without_intermediate	0,0,0,3,0,0,2,0,0	test	ward_and_allport	0,0,0,3,1,0,2,0,0	89.0	8.0	0.838	1,2,3,0,0,0,0,0,0	to_hand	s555
160.96	0.83	0	PA_without_intermediate	0,0,0,3,1,0,2,0,0	test	ward_and_allport	0,0,0,3,1,0,2,0,0	71.0	8.0	0.83	1,2,3,0,0,0,0,0,0	to_board	s555
161.794	1.0	0	PA_without_intermediate	n/a	test	ward_and_allport	n/a	-1.0	8.0	n/a	n/a	feedback	s555
162.794	1.136	0	PA_without_intermediate	n/a	test	ward_and_allport	n/a	-1.0	8.0	n/a	n/a	ITI	s555
163.934	2.995	1	PA_without_intermediate	1,2,0,0,0,0,0,0,0	test	ward_and_allport	0,0,0,3,2,0,1,0,0	89.0	9.0	2.995	1,2,3,0,0,0,0,0,0	to_hand	s555
166.931	1.481	0	PA_without_intermediate	1,2,0,3,0,0,0,0,0	test	ward_and_allport	0,0,0,3,2,0,1,0,0	71.0	9.0	1.481	1,2,3,0,0,0,0,0,0	to_board	s555
168.415	0.705	0	PA_without_intermediate	1,0,0,3,0,0,0,0,0	test	ward_and_allport	0,0,0,3,2,0,1,0,0	89.0	9.0	0.705	1,2,3,0,0,0,0,0,0	to_hand	s555
169.121	0.688	0	PA_without_intermediate	1,0,0,3,2,0,0,0,0	test	ward_and_allport	0,0,0,3,2,0,1,0,0	71.0	9.0	0.688	1,2,3,0,0,0,0,0,0	to_board	s555
169.812	0.651	0	PA_without_intermediate	0,0,0,3,2,0,0,0,0	test	ward_and_allport	0,0,0,3,2,0,1,0,0	89.0	9.0	0.651	1,2,3,0,0,0,0,0,0	to_hand	s555
170.464	0.671	0	PA_without_intermediate	0,0,0,3,2,0,1,0,0	test	ward_and_allport	0,0,0,3,2,0,1,0,0	82.0	9.0	0.671	1,2,3,0,0,0,0,0,0	to_board	s555
171.14	1.0	0	PA_without_intermediate	n/a	test	ward_and_allport	n/a	-1.0	9.0	n/a	n/a	feedback	s555
172.14	4.264	0	PA_without_intermediate	n/a	test	ward_and_allport	n/a	-1.0	9.0	n/a	n/a	ITI	s555
176.408	3.939	1	PA_with_intermediate	0,0,0,1,2,0,0,0,0	test	ward_and_allport	0,0,0,1,0,0,2,3,0	71.0	10.0	3.939	0,0,0,1,2,3,0,0,0	to_hand	s555
180.348	1.086	0	PA_with_intermediate	3,0,0,1,2,0,0,0,0	test	ward_and_allport	0,0,0,1,0,0,2,3,0	89.0	10.0	1.086	0,0,0,1,2,3,0,0,0	to_board	s555
181.439	0.728	0	PA_with_intermediate	3,0,0,1,0,0,0,0,0	test	ward_and_allport	0,0,0,1,0,0,2,3,0	71.0	10.0	0.728	0,0,0,1,2,3,0,0,0	to_hand	s555
182.168	0.931	0	PA_with_intermediate	3,0,0,1,0,0,2,0,0	test	ward_and_allport	0,0,0,1,0,0,2,3,0	82.0	10.0	0.931	0,0,0,1,2,3,0,0,0	to_board	s555
183.102	0.652	0	PA_with_intermediate	0,0,0,1,0,0,2,0,0	test	ward_and_allport	0,0,0,1,0,0,2,3,0	89.0	10.0	0.652	0,0,0,1,2,3,0,0,0	to_hand	s555
183.756	0.662	0	PA_with_intermediate	0,0,0,1,0,0,2,3,0	test	ward_and_allport	0,0,0,1,0,0,2,3,0	82.0	10.0	0.662	0,0,0,1,2,3,0,0,0	to_board	s555
184.423	1.0	0	PA_with_intermediate	n/a	test	ward_and_allport	n/a	-1.0	10.0	n/a	n/a	feedback	s555
185.423	3.04	0	PA_with_intermediate	n/a	test	ward_and_allport	n/a	-1.0	10.0	n/a	n/a	ITI	s555
188.467	4.748	1	PA_with_intermediate	1,2,0,0,0,0,0,0,0	test	ward_and_allport	1,0,0,0,0,0,2,3,0	89.0	11.0	4.748	1,2,3,0,0,0,0,0,0	to_hand	s555
193.216	1.033	0	PA_with_intermediate	1,2,0,3,0,0,0,0,0	test	ward_and_allport	1,0,0,0,0,0,2,3,0	71.0	11.0	1.033	1,2,3,0,0,0,0,0,0	to_board	s555
194.252	0.89	0	PA_with_intermediate	1,0,0,3,0,0,0,0,0	test	ward_and_allport	1,0,0,0,0,0,2,3,0	89.0	11.0	0.89	1,2,3,0,0,0,0,0,0	to_hand	s555
195.142	0.901	0	PA_with_intermediate	1,0,0,3,0,0,2,0,0	test	ward_and_allport	1,0,0,0,0,0,2,3,0	82.0	11.0	0.901	1,2,3,0,0,0,0,0,0	to_board	s555
196.047	0.774	0	PA_with_intermediate	1,0,0,0,0,0,2,0,0	test	ward_and_allport	1,0,0,0,0,0,2,3,0	71.0	11.0	0.774	1,2,3,0,0,0,0,0,0	to_hand	s555
196.821	0.92	0	PA_with_intermediate	1,0,0,0,0,0,2,3,0	test	ward_and_allport	1,0,0,0,0,0,2,3,0	82.0	11.0	0.92	1,2,3,0,0,0,0,0,0	to_board	s555
197.745	1.0	0	PA_with_intermediate	n/a	test	ward_and_allport	n/a	-1.0	11.0	n/a	n/a	feedback	s555
198.745	1.136	0	PA_with_intermediate	n/a	test	ward_and_allport	n/a	-1.0	11.0	n/a	n/a	ITI	s555
199.884	3.972	1	PA_with_intermediate	0,0,0,0,0,0,1,2,0	test	ward_and_allport	0,0,0,2,3,0,1,0,0	82.0	12.0	3.972	0,0,0,0,0,0,1,2,3	to_hand	s555
203.858	1.863	0	PA_with_intermediate	3,0,0,0,0,0,1,2,0	test	ward_and_allport	0,0,0,2,3,0,1,0,0	89.0	12.0	1.863	0,0,0,0,0,0,1,2,3	to_board	s555
205.725	0.846	0	PA_with_intermediate	3,0,0,0,0,0,1,0,0	test	ward_and_allport	0,0,0,2,3,0,1,0,0	82.0	12.0	0.846	0,0,0,0,0,0,1,2,3	to_hand	s555
206.572	0.649	0	PA_with_intermediate	3,0,0,2,0,0,1,0,0	test	ward_and_allport	0,0,0,2,3,0,1,0,0	71.0	12.0	0.649	0,0,0,0,0,0,1,2,3	to_board	s555
207.226	0.609	0	PA_with_intermediate	0,0,0,2,0,0,1,0,0	test	ward_and_allport	0,0,0,2,3,0,1,0,0	89.0	12.0	0.609	0,0,0,0,0,0,1,2,3	to_hand	s555
207.835	0.458	0	PA_with_intermediate	0,0,0,2,3,0,1,0,0	test	ward_and_allport	0,0,0,2,3,0,1,0,0	71.0	12.0	0.458	0,0,0,0,0,0,1,2,3	to_board	s555
208.298	1.0	0	PA_with_intermediate	n/a	test	ward_and_allport	n/a	-1.0	12.0	n/a	n/a	feedback	s555
209.298	1.408	0	PA_with_intermediate	n/a	test	ward_and_allport	n/a	-1.0	12.0	n/a	n/a	ITI	s555
210.711	2.836	1	PA_without_intermediate	1,2,0,0,0,0,0,0,0	test	ward_and_allport	0,0,0,2,0,0,3,1,0	89.0	13.0	2.836	1,2,3,0,0,0,0,0,0	to_hand	s555
213.548	1.001	0	PA_without_intermediate	1,2,0,0,0,0,3,0,0	test	ward_and_allport	0,0,0,2,0,0,3,1,0	82.0	13.0	1.001	1,2,3,0,0,0,0,0,0	to_board	s555
214.554	0.791	0	PA_without_intermediate	1,0,0,0,0,0,3,0,0	test	ward_and_allport	0,0,0,2,0,0,3,1,0	89.0	13.0	0.791	1,2,3,0,0,0,0,0,0	to_hand	s555
215.347	0.687	0	PA_without_intermediate	1,0,0,2,0,0,3,0,0	test	ward_and_allport	0,0,0,2,0,0,3,1,0	71.0	13.0	0.687	1,2,3,0,0,0,0,0,0	to_board	s555
216.037	0.614	0	PA_without_intermediate	0,0,0,2,0,0,3,0,0	test	ward_and_allport	0,0,0,2,0,0,3,1,0	89.0	13.0	0.614	1,2,3,0,0,0,0,0,0	to_hand	s555
216.652	0.574	0	PA_without_intermediate	0,0,0,2,0,0,3,1,0	test	ward_and_allport	0,0,0,2,0,0,3,1,0	82.0	13.0	0.574	1,2,3,0,0,0,0,0,0	to_board	s555
217.232	1.0	0	PA_without_intermediate	n/a	test	ward_and_allport	n/a	-1.0	13.0	n/a	n/a	feedback	s555
218.232	1.68	0	PA_without_intermediate	n/a	test	ward_and_allport	n/a	-1.0	13.0	n/a	n/a	ITI	s555
219.915	2.611	1	PA_with_intermediate	1,2,0,0,0,0,0,0,0	test	ward_and_allport	1,0,0,2,3,0,0,0,0	89.0	14.0	2.611	1,2,3,0,0,0,0,0,0	to_hand	s555
222.527	0.646	0	PA_with_intermediate	1,2,0,0,0,0,3,0,0	test	ward_and_allport	1,0,0,2,3,0,0,0,0	82.0	14.0	0.646	1,2,3,0,0,0,0,0,0	to_board	s555
223.178	0.661	0	PA_with_intermediate	1,0,0,0,0,0,3,0,0	test	ward_and_allport	1,0,0,2,3,0,0,0,0	89.0	14.0	0.661	1,2,3,0,0,0,0,0,0	to_hand	s555
223.839	0.451	0	PA_with_intermediate	1,0,0,2,0,0,3,0,0	test	ward_and_allport	1,0,0,2,3,0,0,0,0	71.0	14.0	0.451	1,2,3,0,0,0,0,0,0	to_board	s555
224.294	0.601	0	PA_with_intermediate	1,0,0,2,0,0,0,0,0	test	ward_and_allport	1,0,0,2,3,0,0,0,0	82.0	14.0	0.601	1,2,3,0,0,0,0,0,0	to_hand	s555
224.896	0.806	0	PA_with_intermediate	1,0,0,2,3,0,0,0,0	test	ward_and_allport	1,0,0,2,3,0,0,0,0	71.0	14.0	0.806	1,2,3,0,0,0,0,0,0	to_board	s555
225.706	1.0	0	PA_with_intermediate	n/a	test	ward_and_allport	n/a	-1.0	14.0	n/a	n/a	feedback	s555
226.706	3.72	0	PA_with_intermediate	n/a	test	ward_and_allport	n/a	-1.0	14.0	n/a	n/a	ITI	s555
235.433	2.344	1	PA_without_intermediate	1,2,0,0,0,0,0,0,0	test	ward_and_allport	0,0,0,1,0,0,3,2,0	89.0	15.0	2.344	1,2,3,0,0,0,0,0,0	to_hand	s555
237.778	0.812	0	PA_without_intermediate	1,2,0,0,0,0,3,0,0	test	ward_and_allport	0,0,0,1,0,0,3,2,0	82.0	15.0	0.812	1,2,3,0,0,0,0,0,0	to_board	s555
238.594	0.806	0	PA_without_intermediate	1,0,0,0,0,0,3,0,0	test	ward_and_allport	0,0,0,1,0,0,3,2,0	89.0	15.0	0.806	1,2,3,0,0,0,0,0,0	to_hand	s555
239.401	0.661	0	PA_without_intermediate	1,0,0,0,0,0,3,2,0	test	ward_and_allport	0,0,0,1,0,0,3,2,0	82.0	15.0	0.661	1,2,3,0,0,0,0,0,0	to_board	s555
240.066	0.612	0	PA_without_intermediate	0,0,0,0,0,0,3,2,0	test	ward_and_allport	0,0,0,1,0,0,3,2,0	89.0	15.0	0.612	1,2,3,0,0,0,0,0,0	to_hand	s555
240.679	0.566	0	PA_without_intermediate	0,0,0,1,0,0,3,2,0	test	ward_and_allport	0,0,0,1,0,0,3,2,0	71.0	15.0	0.566	1,2,3,0,0,0,0,0,0	to_board	s555
241.251	1.0	0	PA_without_intermediate	n/a	test	ward_and_allport	n/a	-1.0	15.0	n/a	n/a	feedback	s555
242.251	2.224	0	PA_without_intermediate	n/a	test	ward_and_allport	n/a	-1.0	15.0	n/a	n/a	ITI	s555
244.479	2.153	1	PA_without_intermediate	0,0,0,1,2,0,0,0,0	test	ward_and_allport	1,0,0,0,0,0,3,2,0	71.0	16.0	2.153	0,0,0,1,2,3,0,0,0	to_hand	s555
246.633	1.273	0	PA_without_intermediate	0,0,0,1,2,0,3,0,0	test	ward_and_allport	1,0,0,0,0,0,3,2,0	82.0	16.0	1.273	0,0,0,1,2,3,0,0,0	to_board	s555
247.91	0.551	0	PA_without_intermediate	0,0,0,1,0,0,3,0,0	test	ward_and_allport	1,0,0,0,0,0,3,2,0	71.0	16.0	0.551	0,0,0,1,2,3,0,0,0	to_hand	s555
248.461	0.562	0	PA_without_intermediate	0,0,0,1,0,0,3,2,0	test	ward_and_allport	1,0,0,0,0,0,3,2,0	82.0	16.0	0.562	0,0,0,1,2,3,0,0,0	to_board	s555
249.028	0.592	0	PA_without_intermediate	0,0,0,0,0,0,3,2,0	test	ward_and_allport	1,0,0,0,0,0,3,2,0	71.0	16.0	0.592	0,0,0,1,2,3,0,0,0	to_hand	s555
249.621	0.484	0	PA_without_intermediate	1,0,0,0,0,0,3,2,0	test	ward_and_allport	1,0,0,0,0,0,3,2,0	89.0	16.0	0.484	0,0,0,1,2,3,0,0,0	to_board	s555
250.111	1.0	0	PA_without_intermediate	n/a	test	ward_and_allport	n/a	-1.0	16.0	n/a	n/a	feedback	s555
251.111	1.272	0	PA_without_intermediate	n/a	test	ward_and_allport	n/a	-1.0	16.0	n/a	n/a	ITI	s555
252.388	2.27	1	PA_with_intermediate	1,2,0,0,0,0,0,0,0	test	ward_and_allport	1,0,0,2,3,0,0,0,0	89.0	17.0	2.27	1,2,3,0,0,0,0,0,0	to_hand	s555
254.659	0.538	0	PA_with_intermediate	1,2,0,0,0,0,3,0,0	test	ward_and_allport	1,0,0,2,3,0,0,0,0	82.0	17.0	0.538	1,2,3,0,0,0,0,0,0	to_board	s555
255.203	0.766	0	PA_with_intermediate	1,0,0,0,0,0,3,0,0	test	ward_and_allport	1,0,0,2,3,0,0,0,0	89.0	17.0	0.766	1,2,3,0,0,0,0,0,0	to_hand	s555
255.969	0.461	0	PA_with_intermediate	1,0,0,2,0,0,3,0,0	test	ward_and_allport	1,0,0,2,3,0,0,0,0	71.0	17.0	0.461	1,2,3,0,0,0,0,0,0	to_board	s555
256.435	0.93	0	PA_with_intermediate	1,0,0,2,0,0,0,0,0	test	ward_and_allport	1,0,0,2,3,0,0,0,0	82.0	17.0	0.93	1,2,3,0,0,0,0,0,0	to_hand	s555
257.365	0.494	0	PA_with_intermediate	1,0,0,2,3,0,0,0,0	test	ward_and_allport	1,0,0,2,3,0,0,0,0	71.0	17.0	0.494	1,2,3,0,0,0,0,0,0	to_board	s555
257.866	1.0	0	PA_with_intermediate	n/a	test	ward_and_allport	n/a	-1.0	17.0	n/a	n/a	feedback	s555
258.866	2.632	0	PA_with_intermediate	n/a	test	ward_and_allport	n/a	-1.0	17.0	n/a	n/a	ITI	s555
261.502	2.047	1	PA_without_intermediate	0,0,0,0,0,0,1,2,0	test	ward_and_allport	3,1,0,2,0,0,0,0,0	82.0	18.0	2.047	0,0,0,0,0,0,1,2,3	to_hand	s555
263.551	0.843	0	PA_without_intermediate	3,0,0,0,0,0,1,2,0	test	ward_and_allport	3,1,0,2,0,0,0,0,0	89.0	18.0	0.843	0,0,0,0,0,0,1,2,3	to_board	s555
264.399	0.863	0	PA_without_intermediate	3,0,0,0,0,0,1,0,0	test	ward_and_allport	3,1,0,2,0,0,0,0,0	82.0	18.0	0.863	0,0,0,0,0,0,1,2,3	to_hand	s555
265.262	0.583	0	PA_without_intermediate	3,0,0,2,0,0,1,0,0	test	ward_and_allport	3,1,0,2,0,0,0,0,0	71.0	18.0	0.583	0,0,0,0,0,0,1,2,3	to_board	s555
265.85	0.981	0	PA_without_intermediate	3,0,0,2,0,0,0,0,0	test	ward_and_allport	3,1,0,2,0,0,0,0,0	82.0	18.0	0.981	0,0,0,0,0,0,1,2,3	to_hand	s555
266.832	0.516	0	PA_without_intermediate	3,1,0,2,0,0,0,0,0	test	ward_and_allport	3,1,0,2,0,0,0,0,0	89.0	18.0	0.516	0,0,0,0,0,0,1,2,3	to_board	s555
267.353	1.0	0	PA_without_intermediate	n/a	test	ward_and_allport	n/a	-1.0	18.0	n/a	n/a	feedback	s555
268.353	1.408	0	PA_without_intermediate	n/a	test	ward_and_allport	n/a	-1.0	18.0	n/a	n/a	ITI	s555
269.765	2.178	1	PA_without_intermediate	0,0,0,1,2,0,0,0,0	test	ward_and_allport	1,0,0,0,0,0,3,2,0	71.0	19.0	2.178	0,0,0,1,2,3,0,0,0	to_hand	s555
271.945	0.735	0	PA_without_intermediate	0,0,0,1,2,0,3,0,0	test	ward_and_allport	1,0,0,0,0,0,3,2,0	82.0	19.0	0.735	0,0,0,1,2,3,0,0,0	to_board	s555
272.684	0.547	0	PA_without_intermediate	0,0,0,1,0,0,3,0,0	test	ward_and_allport	1,0,0,0,0,0,3,2,0	71.0	19.0	0.547	0,0,0,1,2,3,0,0,0	to_hand	s555
273.231	0.486	0	PA_without_intermediate	0,0,0,1,0,0,3,2,0	test	ward_and_allport	1,0,0,0,0,0,3,2,0	82.0	19.0	0.486	0,0,0,1,2,3,0,0,0	to_board	s555
273.723	0.529	0	PA_without_intermediate	0,0,0,0,0,0,3,2,0	test	ward_and_allport	1,0,0,0,0,0,3,2,0	71.0	19.0	0.529	0,0,0,1,2,3,0,0,0	to_hand	s555
274.252	0.485	0	PA_without_intermediate	1,0,0,0,0,0,3,2,0	test	ward_and_allport	1,0,0,0,0,0,3,2,0	89.0	19.0	0.485	0,0,0,1,2,3,0,0,0	to_board	s555
274.743	1.0	0	PA_without_intermediate	n/a	test	ward_and_allport	n/a	-1.0	19.0	n/a	n/a	feedback	s555
275.743	1.0	0	PA_without_intermediate	n/a	test	ward_and_allport	n/a	-1.0	19.0	n/a	n/a	ITI	s555
276.748	3.131	1	PA_with_intermediate	1,2,0,0,0,0,0,0,0	test	ward_and_allport	1,3,0,0,0,0,2,0,0	89.0	20.0	3.131	1,2,3,0,0,0,0,0,0	to_hand	s555
279.879	1.226	0	PA_with_intermediate	1,2,0,3,0,0,0,0,0	test	ward_and_allport	1,3,0,0,0,0,2,0,0	71.0	20.0	1.226	1,2,3,0,0,0,0,0,0	to_board	s555
281.11	1.244	0	PA_with_intermediate	1,0,0,3,0,0,0,0,0	test	ward_and_allport	1,3,0,0,0,0,2,0,0	89.0	20.0	1.244	1,2,3,0,0,0,0,0,0	to_hand	s555
282.356	0.661	0	PA_with_intermediate	1,0,0,3,0,0,2,0,0	test	ward_and_allport	1,3,0,0,0,0,2,0,0	82.0	20.0	0.661	1,2,3,0,0,0,0,0,0	to_board	s555
283.021	1.214	0	PA_with_intermediate	1,0,0,0,0,0,2,0,0	test	ward_and_allport	1,3,0,0,0,0,2,0,0	71.0	20.0	1.214	1,2,3,0,0,0,0,0,0	to_hand	s555
284.237	0.435	0	PA_with_intermediate	1,3,0,0,0,0,2,0,0	test	ward_and_allport	1,3,0,0,0,0,2,0,0	89.0	20.0	0.435	1,2,3,0,0,0,0,0,0	to_board	s555
284.678	1.0	0	PA_with_intermediate	n/a	test	ward_and_allport	n/a	-1.0	20.0	n/a	n/a	feedback	s555
285.678	1.0	0	PA_with_intermediate	n/a	test	ward_and_allport	n/a	-1.0	20.0	n/a	n/a	ITI	s555
286.684	2.606	1	PA_with_intermediate	1,2,0,0,0,0,0,0,0	test	ward_and_allport	1,3,0,2,0,0,0,0,0	89.0	21.0	2.606	1,2,3,0,0,0,0,0,0	to_hand	s555
289.291	0.981	0	PA_with_intermediate	1,2,0,0,0,0,3,0,0	test	ward_and_allport	1,3,0,2,0,0,0,0,0	82.0	21.0	0.981	1,2,3,0,0,0,0,0,0	to_board	s555
290.277	0.589	0	PA_with_intermediate	1,0,0,0,0,0,3,0,0	test	ward_and_allport	1,3,0,2,0,0,0,0,0	89.0	21.0	0.589	1,2,3,0,0,0,0,0,0	to_hand	s555
290.866	0.806	0	PA_with_intermediate	1,0,0,2,0,0,3,0,0	test	ward_and_allport	1,3,0,2,0,0,0,0,0	71.0	21.0	0.806	1,2,3,0,0,0,0,0,0	to_board	s555
291.676	0.734	0	PA_with_intermediate	1,0,0,2,0,0,0,0,0	test	ward_and_allport	1,3,0,2,0,0,0,0,0	82.0	21.0	0.734	1,2,3,0,0,0,0,0,0	to_hand	s555
292.412	0.513	0	PA_with_intermediate	1,3,0,2,0,0,0,0,0	test	ward_and_allport	1,3,0,2,0,0,0,0,0	89.0	21.0	0.513	1,2,3,0,0,0,0,0,0	to_board	s555
292.932	1.0	0	PA_with_intermediate	n/a	test	ward_and_allport	n/a	-1.0	21.0	n/a	n/a	feedback	s555
293.932	1.0	0	PA_with_intermediate	n/a	test	ward_and_allport	n/a	-1.0	21.0	n/a	n/a	ITI	s555
294.937	2.265	1	PA_with_intermediate	0,0,0,0,0,0,1,2,0	test	ward_and_allport	2,3,0,0,0,0,1,0,0	82.0	22.0	2.265	0,0,0,0,0,0,1,2,3	to_hand	s555
297.203	1.786	0	PA_with_intermediate	0,0,0,3,0,0,1,2,0	test	ward_and_allport	2,3,0,0,0,0,1,0,0	71.0	22.0	1.786	0,0,0,0,0,0,1,2,3	to_board	s555
298.994	0.733	0	PA_with_intermediate	0,0,0,3,0,0,1,0,0	test	ward_and_allport	2,3,0,0,0,0,1,0,0	82.0	22.0	0.733	0,0,0,0,0,0,1,2,3	to_hand	s555
299.727	0.672	0	PA_with_intermediate	2,0,0,3,0,0,1,0,0	test	ward_and_allport	2,3,0,0,0,0,1,0,0	89.0	22.0	0.672	0,0,0,0,0,0,1,2,3	to_board	s555
300.406	0.613	0	PA_with_intermediate	2,0,0,0,0,0,1,0,0	test	ward_and_allport	2,3,0,0,0,0,1,0,0	71.0	22.0	0.613	0,0,0,0,0,0,1,2,3	to_hand	s555
301.019	0.508	0	PA_with_intermediate	2,3,0,0,0,0,1,0,0	test	ward_and_allport	2,3,0,0,0,0,1,0,0	89.0	22.0	0.508	0,0,0,0,0,0,1,2,3	to_board	s555
301.535	1.0	0	PA_with_intermediate	n/a	test	ward_and_allport	n/a	-1.0	22.0	n/a	n/a	feedback	s555
302.535	1.408	0	PA_with_intermediate	n/a	test	ward_and_allport	n/a	-1.0	22.0	n/a	n/a	ITI	s555
303.948	1.815	1	PA_without_intermediate	0,0,0,0,0,0,1,2,0	test	ward_and_allport	2,0,0,3,1,0,0,0,0	82.0	23.0	1.815	0,0,0,0,0,0,1,2,3	to_hand	s555
305.764	1.816	0	PA_without_intermediate	0,0,0,3,0,0,1,2,0	test	ward_and_allport	2,0,0,3,1,0,0,0,0	71.0	23.0	1.816	0,0,0,0,0,0,1,2,3	to_board	s555
307.586	0.944	0	PA_without_intermediate	0,0,0,3,0,0,1,0,0	test	ward_and_allport	2,0,0,3,1,0,0,0,0	82.0	23.0	0.944	0,0,0,0,0,0,1,2,3	to_hand	s555
308.531	0.557	0	PA_without_intermediate	2,0,0,3,0,0,1,0,0	test	ward_and_allport	2,0,0,3,1,0,0,0,0	89.0	23.0	0.557	0,0,0,0,0,0,1,2,3	to_board	s555
309.094	0.525	0	PA_without_intermediate	2,0,0,3,0,0,0,0,0	test	ward_and_allport	2,0,0,3,1,0,0,0,0	82.0	23.0	0.525	0,0,0,0,0,0,1,2,3	to_hand	s555
309.62	0.378	0	PA_without_intermediate	2,0,0,3,1,0,0,0,0	test	ward_and_allport	2,0,0,3,1,0,0,0,0	71.0	23.0	0.378	0,0,0,0,0,0,1,2,3	to_board	s555
310.005	1.0	0	PA_without_intermediate	n/a	test	ward_and_allport	n/a	-1.0	23.0	n/a	n/a	feedback	s555
311.005	1.816	0	PA_without_intermediate	n/a	test	ward_and_allport	n/a	-1.0	23.0	n/a	n/a	ITI	s555
312.828	3.904	1	PA_with_intermediate	0,0,0,0,0,0,1,2,0	test	ward_and_allport	2,0,0,0,0,0,1,3,0	82.0	24.0	3.904	0,0,0,0,0,0,1,2,3	to_hand	s555
316.733	0.562	0	PA_with_intermediate	0,0,0,3,0,0,1,2,0	test	ward_and_allport	2,0,0,0,0,0,1,3,0	71.0	24.0	0.562	0,0,0,0,0,0,1,2,3	to_board	s555
317.302	0.846	0	PA_with_intermediate	0,0,0,3,0,0,1,0,0	test	ward_and_allport	2,0,0,0,0,0,1,3,0	82.0	24.0	0.846	0,0,0,0,0,0,1,2,3	to_hand	s555
318.149	0.549	0	PA_with_intermediate	2,0,0,3,0,0,1,0,0	test	ward_and_allport	2,0,0,0,0,0,1,3,0	89.0	24.0	0.549	0,0,0,0,0,0,1,2,3	to_board	s555
318.704	0.976	0	PA_with_intermediate	2,0,0,0,0,0,1,0,0	test	ward_and_allport	2,0,0,0,0,0,1,3,0	71.0	24.0	0.976	0,0,0,0,0,0,1,2,3	to_hand	s555
319.682	0.552	0	PA_with_intermediate	2,0,0,0,0,0,1,3,0	test	ward_and_allport	2,0,0,0,0,0,1,3,0	82.0	24.0	0.552	0,0,0,0,0,0,1,2,3	to_board	s555
320.241	1.0	0	PA_with_intermediate	n/a	test	ward_and_allport	n/a	-1.0	24.0	n/a	n/a	feedback	s555
321.241	3.176	0	PA_with_intermediate	n/a	test	ward_and_allport	n/a	-1.0	24.0	n/a	n/a	ITI	s555
324.425	3.434	1	PA_with_intermediate	0,0,0,1,2,0,0,0,0	test	ward_and_allport	0,0,0,1,3,0,2,0,0	71.0	25.0	3.434	0,0,0,1,2,3,0,0,0	to_hand	s555
327.86	1.126	0	PA_with_intermediate	3,0,0,1,2,0,0,0,0	test	ward_and_allport	0,0,0,1,3,0,2,0,0	89.0	25.0	1.126	0,0,0,1,2,3,0,0,0	to_board	s555
328.992	0.683	0	PA_with_intermediate	3,0,0,1,0,0,0,0,0	test	ward_and_allport	0,0,0,1,3,0,2,0,0	71.0	25.0	0.683	0,0,0,1,2,3,0,0,0	to_hand	s555
329.675	0.958	0	PA_with_intermediate	3,0,0,1,0,0,2,0,0	test	ward_and_allport	0,0,0,1,3,0,2,0,0	82.0	25.0	0.958	0,0,0,1,2,3,0,0,0	to_board	s555
330.639	0.612	0	PA_with_intermediate	0,0,0,1,0,0,2,0,0	test	ward_and_allport	0,0,0,1,3,0,2,0,0	89.0	25.0	0.612	0,0,0,1,2,3,0,0,0	to_hand	s555
331.252	0.534	0	PA_with_intermediate	0,0,0,1,3,0,2,0,0	test	ward_and_allport	0,0,0,1,3,0,2,0,0	71.0	25.0	0.534	0,0,0,1,2,3,0,0,0	to_board	s555
331.794	1.0	0	PA_with_intermediate	n/a	test	ward_and_allport	n/a	-1.0	25.0	n/a	n/a	feedback	s555
332.794	2.36	0	PA_with_intermediate	n/a	test	ward_and_allport	n/a	-1.0	25.0	n/a	n/a	ITI	s555
335.16	2.232	1	PA_with_intermediate	0,0,0,0,0,0,1,2,0	test	ward_and_allport	2,0,0,0,0,0,1,3,0	82.0	26.0	2.232	0,0,0,0,0,0,1,2,3	to_hand	s555
337.393	0.634	0	PA_with_intermediate	0,0,0,3,0,0,1,2,0	test	ward_and_allport	2,0,0,0,0,0,1,3,0	71.0	26.0	0.634	0,0,0,0,0,0,1,2,3	to_board	s555
338.033	1.2	0	PA_with_intermediate	0,0,0,3,0,0,1,0,0	test	ward_and_allport	2,0,0,0,0,0,1,3,0	82.0	26.0	1.2	0,0,0,0,0,0,1,2,3	to_hand	s555
339.234	0.723	0	PA_with_intermediate	2,0,0,3,0,0,1,0,0	test	ward_and_allport	2,0,0,0,0,0,1,3,0	89.0	26.0	0.723	0,0,0,0,0,0,1,2,3	to_board	s555
339.965	0.738	0	PA_with_intermediate	2,0,0,0,0,0,1,0,0	test	ward_and_allport	2,0,0,0,0,0,1,3,0	71.0	26.0	0.738	0,0,0,0,0,0,1,2,3	to_hand	s555
340.704	0.447	0	PA_with_intermediate	2,0,0,0,0,0,1,3,0	test	ward_and_allport	2,0,0,0,0,0,1,3,0	82.0	26.0	0.447	0,0,0,0,0,0,1,2,3	to_board	s555
341.159	1.0	0	PA_with_intermediate	n/a	test	ward_and_allport	n/a	-1.0	26.0	n/a	n/a	feedback	s555
342.159	1.0	0	PA_with_intermediate	n/a	test	ward_and_allport	n/a	-1.0	26.0	n/a	n/a	ITI	s555
343.166	2.473	1	PA_without_intermediate	0,0,0,1,2,0,0,0,0	test	ward_and_allport	2,0,0,0,0,0,3,1,0	71.0	27.0	2.473	0,0,0,1,2,3,0,0,0	to_hand	s555
345.64	0.562	0	PA_without_intermediate	0,0,0,1,2,0,3,0,0	test	ward_and_allport	2,0,0,0,0,0,3,1,0	82.0	27.0	0.562	0,0,0,1,2,3,0,0,0	to_board	s555
346.209	0.786	0	PA_without_intermediate	0,0,0,1,0,0,3,0,0	test	ward_and_allport	2,0,0,0,0,0,3,1,0	71.0	27.0	0.786	0,0,0,1,2,3,0,0,0	to_hand	s555
346.996	0.574	0	PA_without_intermediate	2,0,0,1,0,0,3,0,0	test	ward_and_allport	2,0,0,0,0,0,3,1,0	89.0	27.0	0.574	0,0,0,1,2,3,0,0,0	to_board	s555
347.577	0.623	0	PA_without_intermediate	2,0,0,0,0,0,3,0,0	test	ward_and_allport	2,0,0,0,0,0,3,1,0	71.0	27.0	0.623	0,0,0,1,2,3,0,0,0	to_hand	s555
348.2	0.604	0	PA_without_intermediate	2,0,0,0,0,0,3,1,0	test	ward_and_allport	2,0,0,0,0,0,3,1,0	82.0	27.0	0.604	0,0,0,1,2,3,0,0,0	to_board	s555
348.812	1.0	0	PA_without_intermediate	n/a	test	ward_and_allport	n/a	-1.0	27.0	n/a	n/a	feedback	s555
349.812	1.408	0	PA_without_intermediate	n/a	test	ward_and_allport	n/a	-1.0	27.0	n/a	n/a	ITI	s555
351.227	3.486	1	PA_with_intermediate	0,0,0,1,2,0,0,0,0	test	ward_and_allport	0,0,0,1,0,0,2,3,0	71.0	28.0	3.486	0,0,0,1,2,3,0,0,0	to_hand	s555
354.713	0.684	0	PA_with_intermediate	3,0,0,1,2,0,0,0,0	test	ward_and_allport	0,0,0,1,0,0,2,3,0	89.0	28.0	0.684	0,0,0,1,2,3,0,0,0	to_board	s555
355.404	0.653	0	PA_with_intermediate	3,0,0,1,0,0,0,0,0	test	ward_and_allport	0,0,0,1,0,0,2,3,0	71.0	28.0	0.653	0,0,0,1,2,3,0,0,0	to_hand	s555
356.058	0.647	0	PA_with_intermediate	3,0,0,1,0,0,2,0,0	test	ward_and_allport	0,0,0,1,0,0,2,3,0	82.0	28.0	0.647	0,0,0,1,2,3,0,0,0	to_board	s555
356.712	0.51	0	PA_with_intermediate	0,0,0,1,0,0,2,0,0	test	ward_and_allport	0,0,0,1,0,0,2,3,0	89.0	28.0	0.51	0,0,0,1,2,3,0,0,0	to_hand	s555
357.223	0.53	0	PA_with_intermediate	0,0,0,1,0,0,2,3,0	test	ward_and_allport	0,0,0,1,0,0,2,3,0	82.0	28.0	0.53	0,0,0,1,2,3,0,0,0	to_board	s555
357.763	1.0	0	PA_with_intermediate	n/a	test	ward_and_allport	n/a	-1.0	28.0	n/a	n/a	feedback	s555
358.763	1.816	0	PA_with_intermediate	n/a	test	ward_and_allport	n/a	-1.0	28.0	n/a	n/a	ITI	s555
360.586	1.706	1	PA_without_intermediate	0,0,0,0,0,0,1,2,0	test	ward_and_allport	3,2,0,1,0,0,0,0,0	82.0	29.0	1.706	0,0,0,0,0,0,1,2,3	to_hand	s555
362.293	0.855	0	PA_without_intermediate	3,0,0,0,0,0,1,2,0	test	ward_and_allport	3,2,0,1,0,0,0,0,0	89.0	29.0	0.855	0,0,0,0,0,0,1,2,3	to_board	s555
363.156	1.323	0	PA_without_intermediate	3,0,0,0,0,0,1,0,0	test	ward_and_allport	3,2,0,1,0,0,0,0,0	82.0	29.0	1.323	0,0,0,0,0,0,1,2,3	to_hand	s555
364.479	0.607	0	PA_without_intermediate	3,2,0,0,0,0,1,0,0	test	ward_and_allport	3,2,0,1,0,0,0,0,0	89.0	29.0	0.607	0,0,0,0,0,0,1,2,3	to_board	s555
365.093	0.781	0	PA_without_intermediate	3,2,0,0,0,0,0,0,0	test	ward_and_allport	3,2,0,1,0,0,0,0,0	82.0	29.0	0.781	0,0,0,0,0,0,1,2,3	to_hand	s555
365.876	0.555	0	PA_without_intermediate	3,2,0,1,0,0,0,0,0	test	ward_and_allport	3,2,0,1,0,0,0,0,0	71.0	29.0	0.555	0,0,0,0,0,0,1,2,3	to_board	s555
366.44	1.0	0	PA_without_intermediate	n/a	test	ward_and_allport	n/a	-1.0	29.0	n/a	n/a	feedback	s555
367.44	2.088	0	PA_without_intermediate	n/a	test	ward_and_allport	n/a	-1.0	29.0	n/a	n/a	ITI	s555
374.538	1.747	1	PA_without_intermediate	0,0,0,1,2,0,0,0,0	test	ward_and_allport	3,1,0,0,0,0,2,0,0	71.0	30.0	1.747	0,0,0,1,2,3,0,0,0	to_hand	s555
376.286	0.682	0	PA_without_intermediate	3,0,0,1,2,0,0,0,0	test	ward_and_allport	3,1,0,0,0,0,2,0,0	89.0	30.0	0.682	0,0,0,1,2,3,0,0,0	to_board	s555
376.975	0.577	0	PA_without_intermediate	3,0,0,1,0,0,0,0,0	test	ward_and_allport	3,1,0,0,0,0,2,0,0	71.0	30.0	0.577	0,0,0,1,2,3,0,0,0	to_hand	s555
377.554	0.647	0	PA_without_intermediate	3,0,0,1,2,0,0,0,0	test	ward_and_allport	3,1,0,0,0,0,2,0,0	71.0	30.0	0.647	0,0,0,1,2,3,0,0,0	to_board	s555
378.208	0.597	0	PA_without_intermediate	3,0,0,1,0,0,0,0,0	test	ward_and_allport	3,1,0,0,0,0,2,0,0	71.0	30.0	0.597	0,0,0,1,2,3,0,0,0	to_hand	s555
378.806	0.414	0	PA_without_intermediate	3,0,0,1,0,0,2,0,0	test	ward_and_allport	3,1,0,0,0,0,2,0,0	82.0	30.0	0.414	0,0,0,1,2,3,0,0,0	to_board	s555
379.227	0.999	0	PA_without_intermediate	3,0,0,0,0,0,2,0,0	test	ward_and_allport	3,1,0,0,0,0,2,0,0	71.0	30.0	0.999	0,0,0,1,2,3,0,0,0	to_hand	s555
380.226	0.412	0	PA_without_intermediate	3,1,0,0,0,0,2,0,0	test	ward_and_allport	3,1,0,0,0,0,2,0,0	89.0	30.0	0.412	0,0,0,1,2,3,0,0,0	to_board	s555
380.647	1.0	0	PA_without_intermediate	n/a	test	ward_and_allport	n/a	-1.0	30.0	n/a	n/a	feedback	s555
381.647	1.136	0	PA_without_intermediate	n/a	test	ward_and_allport	n/a	-1.0	30.0	n/a	n/a	ITI	s555
382.79	1.734	1	PA_without_intermediate	0,0,0,0,0,0,1,2,0	test	ward_and_allport	2,0,0,3,1,0,0,0,0	82.0	31.0	1.734	0,0,0,0,0,0,1,2,3	to_hand	s555
384.525	0.736	0	PA_without_intermediate	0,0,0,3,0,0,1,2,0	test	ward_and_allport	2,0,0,3,1,0,0,0,0	71.0	31.0	0.736	0,0,0,0,0,0,1,2,3	to_board	s555
385.269	1.106	0	PA_without_intermediate	0,0,0,3,0,0,1,0,0	test	ward_and_allport	2,0,0,3,1,0,0,0,0	82.0	31.0	1.106	0,0,0,0,0,0,1,2,3	to_hand	s555
386.375	0.442	0	PA_without_intermediate	2,0,0,3,0,0,1,0,0	test	ward_and_allport	2,0,0,3,1,0,0,0,0	89.0	31.0	0.442	0,0,0,0,0,0,1,2,3	to_board	s555
386.825	0.506	0	PA_without_intermediate	2,0,0,3,0,0,0,0,0	test	ward_and_allport	2,0,0,3,1,0,0,0,0	82.0	31.0	0.506	0,0,0,0,0,0,1,2,3	to_hand	s555
387.332	0.402	0	PA_without_intermediate	2,0,0,3,1,0,0,0,0	test	ward_and_allport	2,0,0,3,1,0,0,0,0	71.0	31.0	0.402	0,0,0,0,0,0,1,2,3	to_board	s555
387.744	1.0	0	PA_without_intermediate	n/a	test	ward_and_allport	n/a	-1.0	31.0	n/a	n/a	feedback	s555
388.744	6.168	0	PA_without_intermediate	n/a	test	ward_and_allport	n/a	-1.0	31.0	n/a	n/a	ITI	s555
394.921	1.475	1	PA_without_intermediate	0,0,0,1,2,0,0,0,0	test	ward_and_allport	3,2,0,0,0,0,1,0,0	71.0	32.0	1.475	0,0,0,1,2,3,0,0,0	to_hand	s555
396.398	0.74	0	PA_without_intermediate	3,0,0,1,2,0,0,0,0	test	ward_and_allport	3,2,0,0,0,0,1,0,0	89.0	32.0	0.74	0,0,0,1,2,3,0,0,0	to_board	s555
397.147	0.505	0	PA_without_intermediate	3,0,0,1,0,0,0,0,0	test	ward_and_allport	3,2,0,0,0,0,1,0,0	71.0	32.0	0.505	0,0,0,1,2,3,0,0,0	to_hand	s555
397.652	0.461	0	PA_without_intermediate	3,2,0,1,0,0,0,0,0	test	ward_and_allport	3,2,0,0,0,0,1,0,0	89.0	32.0	0.461	0,0,0,1,2,3,0,0,0	to_board	s555
398.123	0.356	0	PA_without_intermediate	3,2,0,0,0,0,0,0,0	test	ward_and_allport	3,2,0,0,0,0,1,0,0	71.0	32.0	0.356	0,0,0,1,2,3,0,0,0	to_hand	s555
398.48	0.552	0	PA_without_intermediate	3,2,0,0,0,0,1,0,0	test	ward_and_allport	3,2,0,0,0,0,1,0,0	82.0	32.0	0.552	0,0,0,1,2,3,0,0,0	to_board	s555
399.042	1.0	0	PA_without_intermediate	n/a	test	ward_and_allport	n/a	-1.0	32.0	n/a	n/a	feedback	s555
400.042	1.816	0	PA_without_intermediate	n/a	test	ward_and_allport	n/a	-1.0	32.0	n/a	n/a	ITI	s555
401.867	2.755	1	PA_with_intermediate	0,0,0,1,2,0,0,0,0	test	ward_and_allport	0,0,0,1,3,0,2,0,0	71.0	33.0	2.755	0,0,0,1,2,3,0,0,0	to_hand	s555
404.622	0.744	0	PA_with_intermediate	3,0,0,1,2,0,0,0,0	test	ward_and_allport	0,0,0,1,3,0,2,0,0	89.0	33.0	0.744	0,0,0,1,2,3,0,0,0	to_board	s555
405.373	0.436	0	PA_with_intermediate	3,0,0,1,0,0,0,0,0	test	ward_and_allport	0,0,0,1,3,0,2,0,0	71.0	33.0	0.436	0,0,0,1,2,3,0,0,0	to_hand	s555
405.81	1.062	0	PA_with_intermediate	3,0,0,1,0,0,2,0,0	test	ward_and_allport	0,0,0,1,3,0,2,0,0	82.0	33.0	1.062	0,0,0,1,2,3,0,0,0	to_board	s555
406.879	0.741	0	PA_with_intermediate	0,0,0,1,0,0,2,0,0	test	ward_and_allport	0,0,0,1,3,0,2,0,0	89.0	33.0	0.741	0,0,0,1,2,3,0,0,0	to_hand	s555
407.62	0.421	0	PA_with_intermediate	0,0,0,1,3,0,2,0,0	test	ward_and_allport	0,0,0,1,3,0,2,0,0	71.0	33.0	0.421	0,0,0,1,2,3,0,0,0	to_board	s555
408.052	1.0	0	PA_with_intermediate	n/a	test	ward_and_allport	n/a	-1.0	33.0	n/a	n/a	feedback	s555
409.052	1.952	0	PA_with_intermediate	n/a	test	ward_and_allport	n/a	-1.0	33.0	n/a	n/a	ITI	s555
411.012	3.135	1	PA_with_intermediate	1,2,0,0,0,0,0,0,0	test	ward_and_allport	1,3,0,0,0,0,2,0,0	89.0	34.0	3.135	1,2,3,0,0,0,0,0,0	to_hand	s555
414.148	0.874	0	PA_with_intermediate	1,2,0,3,0,0,0,0,0	test	ward_and_allport	1,3,0,0,0,0,2,0,0	71.0	34.0	0.874	1,2,3,0,0,0,0,0,0	to_board	s555
415.031	0.581	0	PA_with_intermediate	1,0,0,3,0,0,0,0,0	test	ward_and_allport	1,3,0,0,0,0,2,0,0	89.0	34.0	0.581	1,2,3,0,0,0,0,0,0	to_hand	s555
415.613	0.498	0	PA_with_intermediate	1,0,0,3,0,0,2,0,0	test	ward_and_allport	1,3,0,0,0,0,2,0,0	82.0	34.0	0.498	1,2,3,0,0,0,0,0,0	to_board	s555
416.12	0.652	0	PA_with_intermediate	1,0,0,0,0,0,2,0,0	test	ward_and_allport	1,3,0,0,0,0,2,0,0	71.0	34.0	0.652	1,2,3,0,0,0,0,0,0	to_hand	s555
416.772	0.371	0	PA_with_intermediate	1,3,0,0,0,0,2,0,0	test	ward_and_allport	1,3,0,0,0,0,2,0,0	89.0	34.0	0.371	1,2,3,0,0,0,0,0,0	to_board	s555
417.154	1.0	0	PA_with_intermediate	n/a	test	ward_and_allport	n/a	-1.0	34.0	n/a	n/a	feedback	s555
418.154	1.136	0	PA_with_intermediate	n/a	test	ward_and_allport	n/a	-1.0	34.0	n/a	n/a	ITI	s555
419.296	1.509	1	PA_without_intermediate	1,2,0,0,0,0,0,0,0	test	ward_and_allport	0,0,0,1,0,0,3,2,0	89.0	35.0	1.509	1,2,3,0,0,0,0,0,0	to_hand	s555
420.806	0.577	0	PA_without_intermediate	1,2,0,0,0,0,3,0,0	test	ward_and_allport	0,0,0,1,0,0,3,2,0	82.0	35.0	0.577	1,2,3,0,0,0,0,0,0	to_board	s555
421.389	1.227	0	PA_without_intermediate	1,0,0,0,0,0,3,0,0	test	ward_and_allport	0,0,0,1,0,0,3,2,0	89.0	35.0	1.227	1,2,3,0,0,0,0,0,0	to_hand	s555
422.618	0.473	0	PA_without_intermediate	1,0,0,0,0,0,3,2,0	test	ward_and_allport	0,0,0,1,0,0,3,2,0	82.0	35.0	0.473	1,2,3,0,0,0,0,0,0	to_board	s555
423.096	0.53	0	PA_without_intermediate	0,0,0,0,0,0,3,2,0	test	ward_and_allport	0,0,0,1,0,0,3,2,0	89.0	35.0	0.53	1,2,3,0,0,0,0,0,0	to_hand	s555
423.628	0.339	0	PA_without_intermediate	0,0,0,1,0,0,3,2,0	test	ward_and_allport	0,0,0,1,0,0,3,2,0	71.0	35.0	0.339	1,2,3,0,0,0,0,0,0	to_board	s555
423.975	1.0	0	PA_without_intermediate	n/a	test	ward_and_allport	n/a	-1.0	35.0	n/a	n/a	feedback	s555
424.975	1.68	0	PA_without_intermediate	n/a	test	ward_and_allport	n/a	-1.0	35.0	n/a	n/a	ITI	s555
426.663	1.779	1	PA_without_intermediate	0,0,0,0,0,0,1,2,0	test	ward_and_allport	3,1,0,2,0,0,0,0,0	82.0	36.0	1.779	0,0,0,0,0,0,1,2,3	to_hand	s555
428.443	0.544	0	PA_without_intermediate	3,0,0,0,0,0,1,2,0	test	ward_and_allport	3,1,0,2,0,0,0,0,0	89.0	36.0	0.544	0,0,0,0,0,0,1,2,3	to_board	s555
428.995	2.602	0	PA_without_intermediate	3,0,0,0,0,0,1,0,0	test	ward_and_allport	3,1,0,2,0,0,0,0,0	82.0	36.0	2.602	0,0,0,0,0,0,1,2,3	to_hand	s555
431.599	0.454	0	PA_without_intermediate	3,0,0,2,0,0,1,0,0	test	ward_and_allport	3,1,0,2,0,0,0,0,0	71.0	36.0	0.454	0,0,0,0,0,0,1,2,3	to_board	s555
432.064	0.848	0	PA_without_intermediate	3,0,0,2,0,0,0,0,0	test	ward_and_allport	3,1,0,2,0,0,0,0,0	82.0	36.0	0.848	0,0,0,0,0,0,1,2,3	to_hand	s555
432.913	0.591	0	PA_without_intermediate	3,1,0,2,0,0,0,0,0	test	ward_and_allport	3,1,0,2,0,0,0,0,0	89.0	36.0	0.591	0,0,0,0,0,0,1,2,3	to_board	s555
433.515	1.0	0	PA_without_intermediate	n/a	test	ward_and_allport	n/a	-1.0	36.0	n/a	n/a	feedback	s555
434.515	2.088	0	PA_without_intermediate	n/a	test	ward_and_allport	n/a	-1.0	36.0	n/a	n/a	ITI	s555
436.61	2.797	1	PA_with_intermediate	1,2,0,0,0,0,0,0,0	test	ward_and_allport	1,0,0,0,0,0,2,3,0	89.0	37.0	2.797	1,2,3,0,0,0,0,0,0	to_hand	s555
439.407	0.375	0	PA_with_intermediate	1,2,0,3,0,0,0,0,0	test	ward_and_allport	1,0,0,0,0,0,2,3,0	71.0	37.0	0.375	1,2,3,0,0,0,0,0,0	to_board	s555
439.788	0.519	0	PA_with_intermediate	1,0,0,3,0,0,0,0,0	test	ward_and_allport	1,0,0,0,0,0,2,3,0	89.0	37.0	0.519	1,2,3,0,0,0,0,0,0	to_hand	s555
440.307	0.406	0	PA_with_intermediate	1,0,0,3,0,0,2,0,0	test	ward_and_allport	1,0,0,0,0,0,2,3,0	82.0	37.0	0.406	1,2,3,0,0,0,0,0,0	to_board	s555
440.722	0.427	0	PA_with_intermediate	1,0,0,0,0,0,2,0,0	test	ward_and_allport	1,0,0,0,0,0,2,3,0	71.0	37.0	0.427	1,2,3,0,0,0,0,0,0	to_hand	s555
441.15	0.391	0	PA_with_intermediate	1,0,0,0,0,0,2,3,0	test	ward_and_allport	1,0,0,0,0,0,2,3,0	82.0	37.0	0.391	1,2,3,0,0,0,0,0,0	to_board	s555
441.552	1.0	0	PA_with_intermediate	n/a	test	ward_and_allport	n/a	-1.0	37.0	n/a	n/a	feedback	s555
442.552	1.0	0	PA_with_intermediate	n/a	test	ward_and_allport	n/a	-1.0	37.0	n/a	n/a	ITI	s555
443.561	1.787	1	PA_without_intermediate	0,0,0,0,0,0,1,2,0	test	ward_and_allport	1,0,0,3,2,0,0,0,0	82.0	38.0	1.787	0,0,0,0,0,0,1,2,3	to_hand	s555
445.349	0.798	0	PA_without_intermediate	0,0,0,3,0,0,1,2,0	test	ward_and_allport	1,0,0,3,2,0,0,0,0	71.0	38.0	0.798	0,0,0,0,0,0,1,2,3	to_board	s555
446.154	1.299	0	PA_without_intermediate	0,0,0,3,0,0,1,0,0	test	ward_and_allport	1,0,0,3,2,0,0,0,0	82.0	38.0	1.299	0,0,0,0,0,0,1,2,3	to_hand	s555
447.453	0.46	0	PA_without_intermediate	0,0,0,3,2,0,1,0,0	test	ward_and_allport	1,0,0,3,2,0,0,0,0	71.0	38.0	0.46	0,0,0,0,0,0,1,2,3	to_board	s555
447.92	0.771	0	PA_without_intermediate	0,0,0,3,2,0,0,0,0	test	ward_and_allport	1,0,0,3,2,0,0,0,0	82.0	38.0	0.771	0,0,0,0,0,0,1,2,3	to_hand	s555
448.692	0.39	0	PA_without_intermediate	1,0,0,3,2,0,0,0,0	test	ward_and_allport	1,0,0,3,2,0,0,0,0	89.0	38.0	0.39	0,0,0,0,0,0,1,2,3	to_board	s555
449.093	1.0	0	PA_without_intermediate	n/a	test	ward_and_allport	n/a	-1.0	38.0	n/a	n/a	feedback	s555
450.093	1.0	0	PA_without_intermediate	n/a	test	ward_and_allport	n/a	-1.0	38.0	n/a	n/a	ITI	s555
451.102	1.287	1	PA_without_intermediate	0,0,0,0,0,0,1,2,0	test	ward_and_allport	3,2,0,1,0,0,0,0,0	82.0	39.0	1.287	0,0,0,0,0,0,1,2,3	to_hand	s555
452.39	0.606	0	PA_without_intermediate	3,0,0,0,0,0,1,2,0	test	ward_and_allport	3,2,0,1,0,0,0,0,0	89.0	39.0	0.606	0,0,0,0,0,0,1,2,3	to_board	s555
453.004	1.213	0	PA_without_intermediate	3,0,0,0,0,0,1,0,0	test	ward_and_allport	3,2,0,1,0,0,0,0,0	82.0	39.0	1.213	0,0,0,0,0,0,1,2,3	to_hand	s555
454.218	0.349	0	PA_without_intermediate	3,2,0,0,0,0,1,0,0	test	ward_and_allport	3,2,0,1,0,0,0,0,0	89.0	39.0	0.349	0,0,0,0,0,0,1,2,3	to_board	s555
454.577	0.471	0	PA_without_intermediate	3,2,0,0,0,0,0,0,0	test	ward_and_allport	3,2,0,1,0,0,0,0,0	82.0	39.0	0.471	0,0,0,0,0,0,1,2,3	to_hand	s555
455.049	0.424	0	PA_without_intermediate	3,2,0,1,0,0,0,0,0	test	ward_and_allport	3,2,0,1,0,0,0,0,0	71.0	39.0	0.424	0,0,0,0,0,0,1,2,3	to_board	s555
455.48	1.0	0	PA_without_intermediate	n/a	test	ward_and_allport	n/a	-1.0	39.0	n/a	n/a	feedback	s555
456.48	1.0	0	PA_without_intermediate	n/a	test	ward_and_allport	n/a	-1.0	39.0	n/a	n/a	ITI	s555
457.488	2.529	1	PA_with_intermediate	0,0,0,0,0,0,1,2,0	test	ward_and_allport	0,0,0,2,0,0,1,3,0	82.0	40.0	2.529	0,0,0,0,0,0,1,2,3	to_hand	s555
460.018	0.607	0	PA_with_intermediate	3,0,0,0,0,0,1,2,0	test	ward_and_allport	0,0,0,2,0,0,1,3,0	89.0	40.0	0.607	0,0,0,0,0,0,1,2,3	to_board	s555
460.632	0.651	0	PA_with_intermediate	3,0,0,0,0,0,1,0,0	test	ward_and_allport	0,0,0,2,0,0,1,3,0	82.0	40.0	0.651	0,0,0,0,0,0,1,2,3	to_hand	s555
461.284	0.407	0	PA_with_intermediate	3,0,0,2,0,0,1,0,0	test	ward_and_allport	0,0,0,2,0,0,1,3,0	71.0	40.0	0.407	0,0,0,0,0,0,1,2,3	to_board	s555
461.698	0.414	0	PA_with_intermediate	0,0,0,2,0,0,1,0,0	test	ward_and_allport	0,0,0,2,0,0,1,3,0	89.0	40.0	0.414	0,0,0,0,0,0,1,2,3	to_hand	s555
462.112	0.444	0	PA_with_intermediate	0,0,0,2,0,0,1,3,0	test	ward_and_allport	0,0,0,2,0,0,1,3,0	82.0	40.0	0.444	0,0,0,0,0,0,1,2,3	to_board	s555
462.566	1.0	0	PA_with_intermediate	n/a	test	ward_and_allport	n/a	-1.0	40.0	n/a	n/a	feedback	s555
463.566	1.544	0	PA_with_intermediate	n/a	test	ward_and_allport	n/a	-1.0	40.0	n/a	n/a	ITI	s555
465.119	1.934	1	PA_without_intermediate	0,0,0,1,2,0,0,0,0	test	ward_and_allport	3,1,0,0,0,0,2,0,0	71.0	41.0	1.934	0,0,0,1,2,3,0,0,0	to_hand	s555
467.053	0.868	0	PA_without_intermediate	3,0,0,1,2,0,0,0,0	test	ward_and_allport	3,1,0,0,0,0,2,0,0	89.0	41.0	0.868	0,0,0,1,2,3,0,0,0	to_board	s555
467.929	0.554	0	PA_without_intermediate	3,0,0,1,0,0,0,0,0	test	ward_and_allport	3,1,0,0,0,0,2,0,0	71.0	41.0	0.554	0,0,0,1,2,3,0,0,0	to_hand	s555
468.483	0.444	0	PA_without_intermediate	3,0,0,1,0,0,2,0,0	test	ward_and_allport	3,1,0,0,0,0,2,0,0	82.0	41.0	0.444	0,0,0,1,2,3,0,0,0	to_board	s555
468.936	0.476	0	PA_without_intermediate	3,0,0,0,0,0,2,0,0	test	ward_and_allport	3,1,0,0,0,0,2,0,0	71.0	41.0	0.476	0,0,0,1,2,3,0,0,0	to_hand	s555
469.413	0.349	0	PA_without_intermediate	3,1,0,0,0,0,2,0,0	test	ward_and_allport	3,1,0,0,0,0,2,0,0	89.0	41.0	0.349	0,0,0,1,2,3,0,0,0	to_board	s555
469.773	1.0	0	PA_without_intermediate	n/a	test	ward_and_allport	n/a	-1.0	41.0	n/a	n/a	feedback	s555
470.773	1.272	0	PA_without_intermediate	n/a	test	ward_and_allport	n/a	-1.0	41.0	n/a	n/a	ITI	s555
472.053	3.471	1	PA_with_intermediate	0,0,0,0,0,0,1,2,0	test	ward_and_allport	2,3,0,0,0,0,1,0,0	82.0	42.0	3.471	0,0,0,0,0,0,1,2,3	to_hand	s555
475.525	0.35	0	PA_with_intermediate	0,0,0,3,0,0,1,2,0	test	ward_and_allport	2,3,0,0,0,0,1,0,0	71.0	42.0	0.35	0,0,0,0,0,0,1,2,3	to_board	s555
475.881	1.706	0	PA_with_intermediate	0,0,0,3,0,0,1,0,0	test	ward_and_allport	2,3,0,0,0,0,1,0,0	82.0	42.0	1.706	0,0,0,0,0,0,1,2,3	to_hand	s555
477.589	0.61	0	PA_with_intermediate	2,0,0,3,0,0,1,0,0	test	ward_and_allport	2,3,0,0,0,0,1,0,0	89.0	42.0	0.61	0,0,0,0,0,0,1,2,3	to_board	s555
478.209	1.249	0	PA_with_intermediate	2,0,0,0,0,0,1,0,0	test	ward_and_allport	2,3,0,0,0,0,1,0,0	71.0	42.0	1.249	0,0,0,0,0,0,1,2,3	to_hand	s555
479.459	0.594	0	PA_with_intermediate	2,0,0,0,0,0,1,3,0	test	ward_and_allport	2,3,0,0,0,0,1,0,0	82.0	42.0	0.594	0,0,0,0,0,0,1,2,3	to_board	s555
480.064	3.782	0	PA_with_intermediate	2,0,0,0,0,0,1,0,0	test	ward_and_allport	2,3,0,0,0,0,1,0,0	82.0	42.0	3.782	0,0,0,0,0,0,1,2,3	to_hand	s555
483.847	1.258	0	PA_with_intermediate	2,3,0,0,0,0,1,0,0	test	ward_and_allport	2,3,0,0,0,0,1,0,0	89.0	42.0	1.258	0,0,0,0,0,0,1,2,3	to_board	s555
485.116	1.0	0	PA_with_intermediate	n/a	test	ward_and_allport	n/a	-1.0	42.0	n/a	n/a	feedback	s555
486.116	3.04	0	PA_with_intermediate	n/a	test	ward_and_allport	n/a	-1.0	42.0	n/a	n/a	ITI	s555
489.166	3.078	1	PA_with_intermediate	0,0,0,0,0,0,1,2,0	test	ward_and_allport	0,0,0,2,0,0,1,3,0	82.0	43.0	3.078	0,0,0,0,0,0,1,2,3	to_hand	s555
492.245	0.697	0	PA_with_intermediate	3,0,0,0,0,0,1,2,0	test	ward_and_allport	0,0,0,2,0,0,1,3,0	89.0	43.0	0.697	0,0,0,0,0,0,1,2,3	to_board	s555
492.953	0.949	0	PA_with_intermediate	3,0,0,0,0,0,1,0,0	test	ward_and_allport	0,0,0,2,0,0,1,3,0	82.0	43.0	0.949	0,0,0,0,0,0,1,2,3	to_hand	s555
493.902	0.711	0	PA_with_intermediate	3,0,0,2,0,0,1,0,0	test	ward_and_allport	0,0,0,2,0,0,1,3,0	71.0	43.0	0.711	0,0,0,0,0,0,1,2,3	to_board	s555
494.623	0.647	0	PA_with_intermediate	0,0,0,2,0,0,1,0,0	test	ward_and_allport	0,0,0,2,0,0,1,3,0	89.0	43.0	0.647	0,0,0,0,0,0,1,2,3	to_hand	s555
495.271	0.48	0	PA_with_intermediate	0,0,0,2,0,0,1,3,0	test	ward_and_allport	0,0,0,2,0,0,1,3,0	82.0	43.0	0.48	0,0,0,0,0,0,1,2,3	to_board	s555
495.763	1.0	0	PA_with_intermediate	n/a	test	ward_and_allport	n/a	-1.0	43.0	n/a	n/a	feedback	s555
496.763	1.272	0	PA_with_intermediate	n/a	test	ward_and_allport	n/a	-1.0	43.0	n/a	n/a	ITI	s555
498.043	2.36	1	PA_with_intermediate	0,0,0,0,0,0,1,2,0	test	ward_and_allport	0,0,0,2,3,0,1,0,0	82.0	44.0	2.36	0,0,0,0,0,0,1,2,3	to_hand	s555
500.405	0.827	0	PA_with_intermediate	3,0,0,0,0,0,1,2,0	test	ward_and_allport	0,0,0,2,3,0,1,0,0	89.0	44.0	0.827	0,0,0,0,0,0,1,2,3	to_board	s555
501.242	0.665	0	PA_with_intermediate	3,0,0,0,0,0,1,0,0	test	ward_and_allport	0,0,0,2,3,0,1,0,0	82.0	44.0	0.665	0,0,0,0,0,0,1,2,3	to_hand	s555
501.908	0.629	0	PA_with_intermediate	3,0,0,2,0,0,1,0,0	test	ward_and_allport	0,0,0,2,3,0,1,0,0	71.0	44.0	0.629	0,0,0,0,0,0,1,2,3	to_board	s555
502.548	0.67	0	PA_with_intermediate	0,0,0,2,0,0,1,0,0	test	ward_and_allport	0,0,0,2,3,0,1,0,0	89.0	44.0	0.67	0,0,0,0,0,0,1,2,3	to_hand	s555
503.219	0.497	0	PA_with_intermediate	0,0,0,2,3,0,1,0,0	test	ward_and_allport	0,0,0,2,3,0,1,0,0	71.0	44.0	0.497	0,0,0,0,0,0,1,2,3	to_board	s555
503.727	1.0	0	PA_with_intermediate	n/a	test	ward_and_allport	n/a	-1.0	44.0	n/a	n/a	feedback	s555
504.727	1.136	0	PA_with_intermediate	n/a	test	ward_and_allport	n/a	-1.0	44.0	n/a	n/a	ITI	s555
510.874	3.405	1	PA_with_intermediate	0,0,0,1,2,0,0,0,0	test	ward_and_allport	2,3,0,1,0,0,0,0,0	71.0	45.0	3.405	0,0,0,1,2,3,0,0,0	to_hand	s555
514.279	0.623	0	PA_with_intermediate	0,0,0,1,2,0,3,0,0	test	ward_and_allport	2,3,0,1,0,0,0,0,0	82.0	45.0	0.623	0,0,0,1,2,3,0,0,0	to_board	s555
514.913	0.842	0	PA_with_intermediate	0,0,0,1,0,0,3,0,0	test	ward_and_allport	2,3,0,1,0,0,0,0,0	71.0	45.0	0.842	0,0,0,1,2,3,0,0,0	to_hand	s555
515.755	0.489	0	PA_with_intermediate	2,0,0,1,0,0,3,0,0	test	ward_and_allport	2,3,0,1,0,0,0,0,0	89.0	45.0	0.489	0,0,0,1,2,3,0,0,0	to_board	s555
516.255	0.412	0	PA_with_intermediate	2,0,0,1,0,0,0,0,0	test	ward_and_allport	2,3,0,1,0,0,0,0,0	82.0	45.0	0.412	0,0,0,1,2,3,0,0,0	to_hand	s555
516.668	0.511	0	PA_with_intermediate	2,3,0,1,0,0,0,0,0	test	ward_and_allport	2,3,0,1,0,0,0,0,0	89.0	45.0	0.511	0,0,0,1,2,3,0,0,0	to_board	s555
517.192	1.0	0	PA_with_intermediate	n/a	test	ward_and_allport	n/a	-1.0	45.0	n/a	n/a	feedback	s555
518.192	1.0	0	PA_with_intermediate	n/a	test	ward_and_allport	n/a	-1.0	45.0	n/a	n/a	ITI	s555
519.2	3.39	1	PA_with_intermediate	0,0,0,1,2,0,0,0,0	test	ward_and_allport	2,3,0,1,0,0,0,0,0	71.0	46.0	3.39	0,0,0,1,2,3,0,0,0	to_hand	s555
522.591	0.484	0	PA_with_intermediate	0,0,0,1,2,0,3,0,0	test	ward_and_allport	2,3,0,1,0,0,0,0,0	82.0	46.0	0.484	0,0,0,1,2,3,0,0,0	to_board	s555
523.084	0.451	0	PA_with_intermediate	0,0,0,1,0,0,3,0,0	test	ward_and_allport	2,3,0,1,0,0,0,0,0	71.0	46.0	0.451	0,0,0,1,2,3,0,0,0	to_hand	s555
523.535	0.408	0	PA_with_intermediate	2,0,0,1,0,0,3,0,0	test	ward_and_allport	2,3,0,1,0,0,0,0,0	89.0	46.0	0.408	0,0,0,1,2,3,0,0,0	to_board	s555
523.953	0.501	0	PA_with_intermediate	2,0,0,1,0,0,0,0,0	test	ward_and_allport	2,3,0,1,0,0,0,0,0	82.0	46.0	0.501	0,0,0,1,2,3,0,0,0	to_hand	s555
524.455	0.379	0	PA_with_intermediate	2,3,0,1,0,0,0,0,0	test	ward_and_allport	2,3,0,1,0,0,0,0,0	89.0	46.0	0.379	0,0,0,1,2,3,0,0,0	to_board	s555
524.847	1.0	0	PA_with_intermediate	n/a	test	ward_and_allport	n/a	-1.0	46.0	n/a	n/a	feedback	s555
525.847	1.0	0	PA_with_intermediate	n/a	test	ward_and_allport	n/a	-1.0	46.0	n/a	n/a	ITI	s555
526.857	1.721	1	PA_without_intermediate	1,2,0,0,0,0,0,0,0	test	ward_and_allport	0,0,0,3,1,0,2,0,0	89.0	47.0	1.721	1,2,3,0,0,0,0,0,0	to_hand	s555
528.578	0.73	0	PA_without_intermediate	1,2,0,3,0,0,0,0,0	test	ward_and_allport	0,0,0,3,1,0,2,0,0	71.0	47.0	0.73	1,2,3,0,0,0,0,0,0	to_board	s555
529.317	1.16	0	PA_without_intermediate	1,0,0,3,0,0,0,0,0	test	ward_and_allport	0,0,0,3,1,0,2,0,0	89.0	47.0	1.16	1,2,3,0,0,0,0,0,0	to_hand	s555
530.477	0.33	0	PA_without_intermediate	1,0,0,3,0,0,2,0,0	test	ward_and_allport	0,0,0,3,1,0,2,0,0	82.0	47.0	0.33	1,2,3,0,0,0,0,0,0	to_board	s555
530.816	0.63	0	PA_without_intermediate	0,0,0,3,0,0,2,0,0	test	ward_and_allport	0,0,0,3,1,0,2,0,0	89.0	47.0	0.63	1,2,3,0,0,0,0,0,0	to_hand	s555
531.447	0.266	0	PA_without_intermediate	0,0,0,3,1,0,2,0,0	test	ward_and_allport	0,0,0,3,1,0,2,0,0	71.0	47.0	0.266	1,2,3,0,0,0,0,0,0	to_board	s555
531.722	1.0	0	PA_without_intermediate	n/a	test	ward_and_allport	n/a	-1.0	47.0	n/a	n/a	feedback	s555
532.722	1.408	0	PA_without_intermediate	n/a	test	ward_and_allport	n/a	-1.0	47.0	n/a	n/a	ITI	s555
n/a	n/a	0	n/a	n/a	n/a	n/a	n/a	n/a	n/a	n/a	n/a	ITI	n/a
