onset	duration	CTI	correct	correct_response	cue	cue_switch	experiment_exp_id	key_press	response_time	stim_color	stim_number	switch_type	task_type	task_switch	worker_id	first_trial_of_block
3.614	1.0	0.1	False	71.0	Color	switch	twobytwo	89.0	0.891	orange	3.0	cue_switch	color	stay	s555	1
5.856	1.0	0.1	True	71.0	High-Low	n/a	twobytwo	71.0	0.844	blue	6.0	task_switch	magnitude	switch	s555	0
8.233	1.0	0.1	True	71.0	Orange-Blue	n/a	twobytwo	71.0	1.177	orange	2.0	task_switch	color	switch	s555	0
10.473	1.0	0.1	True	89.0	Orange-Blue	stay	twobytwo	89.0	0.639	blue	1.0	cue_stay	color	stay	s555	0
13.651	1.0	0.9	True	71.0	High-Low	n/a	twobytwo	71.0	0.476	blue	7.0	task_switch	magnitude	switch	s555	0
16.555	1.0	0.9	True	71.0	High-Low	stay	twobytwo	71.0	0.479	orange	7.0	cue_stay	magnitude	stay	s555	0
20.276	1.0	0.9	True	71.0	Magnitude	switch	twobytwo	71.0	0.486	orange	7.0	cue_switch	magnitude	stay	s555	0
22.788	1.0	0.1	True	71.0	Magnitude	stay	twobytwo	71.0	1.093	blue	7.0	cue_stay	magnitude	stay	s555	0
24.892	1.0	0.1	True	71.0	Magnitude	stay	twobytwo	71.0	0.726	orange	6.0	cue_stay	magnitude	stay	s555	0
27.541	1.0	0.1	True	71.0	Color	n/a	twobytwo	71.0	0.807	orange	1.0	task_switch	color	switch	s555	0
29.782	1.0	0.1	True	89.0	High-Low	n/a	twobytwo	89.0	0.735	blue	4.0	task_switch	magnitude	switch	s555	0
32.687	1.0	0.9	True	89.0	High-Low	stay	twobytwo	89.0	0.472	orange	2.0	cue_stay	magnitude	stay	s555	0
35.592	1.0	0.9	True	89.0	Magnitude	switch	twobytwo	89.0	0.693	blue	4.0	cue_switch	magnitude	stay	s555	0
37.833	1.0	0.1	True	71.0	Magnitude	stay	twobytwo	71.0	0.693	blue	8.0	cue_stay	magnitude	stay	s555	0
40.873	1.0	0.9	True	71.0	Color	n/a	twobytwo	71.0	0.617	orange	2.0	task_switch	color	switch	s555	0
44.049	1.0	0.9	True	89.0	Orange-Blue	switch	twobytwo	89.0	0.456	blue	2.0	cue_switch	color	stay	s555	0
48.178	1.0	0.9	True	89.0	Color	switch	twobytwo	89.0	0.409	blue	7.0	cue_switch	color	stay	s555	0
50.282	1.0	0.1	True	71.0	High-Low	n/a	twobytwo	71.0	0.766	blue	6.0	task_switch	magnitude	switch	s555	0
52.386	1.0	0.1	True	71.0	Orange-Blue	n/a	twobytwo	71.0	1.203	orange	8.0	task_switch	color	switch	s555	0
55.563	1.0	0.9	True	89.0	Magnitude	n/a	twobytwo	89.0	0.516	blue	2.0	task_switch	magnitude	switch	s555	0
58.604	1.0	0.9	True	89.0	High-Low	switch	twobytwo	89.0	0.576	blue	3.0	cue_switch	magnitude	stay	s555	0
61.509	1.0	0.9	True	89.0	High-Low	stay	twobytwo	89.0	0.6	orange	4.0	cue_stay	magnitude	stay	s555	0
64.413	1.0	0.9	True	89.0	High-Low	stay	twobytwo	89.0	0.581	orange	2.0	cue_stay	magnitude	stay	s555	0
67.318	1.0	0.9	True	89.0	High-Low	stay	twobytwo	89.0	0.479	orange	1.0	cue_stay	magnitude	stay	s555	0
70.901	1.0	0.9	True	71.0	Orange-Blue	n/a	twobytwo	71.0	0.791	orange	2.0	task_switch	color	switch	s555	0
73.806	1.0	0.9	True	71.0	High-Low	n/a	twobytwo	71.0	0.451	blue	8.0	task_switch	magnitude	switch	s555	0
76.182	1.0	0.1	True	89.0	Color	n/a	twobytwo	89.0	0.82	blue	4.0	task_switch	color	switch	s555	0
78.286	1.0	0.1	False	89.0	Orange-Blue	switch	twobytwo	71.0	0.906	blue	9.0	cue_switch	color	stay	s555	0
81.462	1.0	0.9	True	71.0	Color	switch	twobytwo	71.0	0.604	orange	1.0	cue_switch	color	stay	s555	0
85.318	1.0	0.9	True	89.0	Magnitude	n/a	twobytwo	89.0	0.587	orange	3.0	task_switch	magnitude	switch	s555	0
88.224	1.0	0.9	True	71.0	High-Low	switch	twobytwo	71.0	0.598	blue	9.0	cue_switch	magnitude	stay	s555	0
91.128	1.0	0.9	True	71.0	Color	n/a	twobytwo	71.0	0.623	orange	8.0	task_switch	color	switch	s555	0
93.233	1.0	0.1	True	71.0	Color	stay	twobytwo	71.0	0.76	orange	9.0	cue_stay	color	stay	s555	0
96.138	1.0	0.9	True	89.0	Orange-Blue	switch	twobytwo	89.0	0.553	blue	7.0	cue_switch	color	stay	s555	0
98.378	1.0	0.1	True	89.0	High-Low	n/a	twobytwo	89.0	0.777	orange	3.0	task_switch	magnitude	switch	s555	0
101.281	1.0	0.9	True	71.0	Orange-Blue	n/a	twobytwo	71.0	0.46	orange	6.0	task_switch	color	switch	s555	0
103.386	1.0	0.1	True	71.0	Color	switch	twobytwo	71.0	0.747	orange	4.0	cue_switch	color	stay	s555	0
106.289	1.0	0.9	True	71.0	Magnitude	n/a	twobytwo	71.0	0.439	blue	8.0	task_switch	magnitude	switch	s555	0
109.467	1.0	0.9	True	71.0	Orange-Blue	n/a	twobytwo	71.0	0.501	orange	8.0	task_switch	color	switch	s555	0
111.708	1.0	0.1	True	71.0	High-Low	n/a	twobytwo	71.0	0.811	blue	8.0	task_switch	magnitude	switch	s555	0
113.813	1.0	0.1	True	71.0	Color	n/a	twobytwo	71.0	0.718	orange	8.0	task_switch	color	switch	s555	0
116.854	1.0	0.9	True	71.0	Magnitude	n/a	twobytwo	71.0	0.545	blue	6.0	task_switch	magnitude	switch	s555	0
120.576	1.0	0.9	True	89.0	High-Low	switch	twobytwo	89.0	0.501	blue	2.0	cue_switch	magnitude	stay	s555	0
123.088	1.0	0.1	True	89.0	Orange-Blue	n/a	twobytwo	89.0	0.686	blue	6.0	task_switch	color	switch	s555	0
125.992	1.0	0.9	True	71.0	Magnitude	n/a	twobytwo	71.0	0.646	blue	7.0	task_switch	magnitude	switch	s555	0
129.032	1.0	0.9	True	89.0	Magnitude	stay	twobytwo	89.0	0.693	blue	3.0	cue_stay	magnitude	stay	s555	0
132.072	1.0	0.9	True	71.0	High-Low	switch	twobytwo	71.0	0.576	orange	8.0	cue_switch	magnitude	stay	s555	0
135.112	1.0	0.9	True	71.0	Orange-Blue	n/a	twobytwo	71.0	0.485	orange	2.0	task_switch	color	switch	s555	0
137.761	1.0	0.1	True	71.0	High-Low	n/a	twobytwo	71.0	0.939	blue	7.0	task_switch	magnitude	switch	s555	0
140.002	1.0	0.1	True	89.0	Orange-Blue	n/a	twobytwo	89.0	0.856	blue	3.0	task_switch	color	switch	s555	0
142.907	1.0	0.9	True	71.0	Magnitude	n/a	twobytwo	71.0	0.473	orange	8.0	task_switch	magnitude	switch	s555	0
145.811	1.0	0.9	True	71.0	Magnitude	stay	twobytwo	71.0	0.544	orange	7.0	cue_stay	magnitude	stay	s555	0
147.915	1.0	0.1	False	71.0	Orange-Blue	n/a	twobytwo	89.0	0.755	orange	2.0	task_switch	color	switch	s555	0
150.819	1.0	0.9	True	89.0	High-Low	n/a	twobytwo	89.0	0.537	orange	4.0	task_switch	magnitude	switch	s555	0
153.859	1.0	0.9	True	89.0	Magnitude	switch	twobytwo	89.0	0.727	blue	1.0	cue_switch	magnitude	stay	s555	0
156.764	1.0	0.9	True	89.0	High-Low	switch	twobytwo	89.0	0.557	orange	3.0	cue_switch	magnitude	stay	s555	0
159.668	1.0	0.9	True	89.0	High-Low	stay	twobytwo	89.0	0.661	blue	3.0	cue_stay	magnitude	stay	s555	0
161.772	1.0	0.1	True	71.0	Orange-Blue	n/a	twobytwo	71.0	1.191	orange	4.0	task_switch	color	switch	s555	0
164.814	1.0	0.9	True	89.0	High-Low	n/a	twobytwo	89.0	0.561	orange	1.0	task_switch	magnitude	switch	s555	0
167.054	1.0	0.1	True	89.0	High-Low	stay	twobytwo	89.0	0.63	blue	1.0	cue_stay	magnitude	stay	s555	0
170.095	1.0	0.9	True	89.0	Color	n/a	twobytwo	89.0	0.417	blue	2.0	task_switch	color	switch	s555	0
173.135	1.0	0.9	True	71.0	Color	stay	twobytwo	71.0	0.529	orange	9.0	cue_stay	color	stay	s555	0
176.719	1.0	0.9	True	71.0	Orange-Blue	switch	twobytwo	71.0	0.715	orange	3.0	cue_switch	color	stay	s555	0
180.167	1.0	0.9	True	71.0	Color	switch	twobytwo	71.0	0.485	orange	9.0	cue_switch	color	stay	s555	0
183.343	1.0	0.9	True	71.0	Orange-Blue	switch	twobytwo	71.0	0.481	orange	9.0	cue_switch	color	stay	s555	0
185.719	1.0	0.1	True	71.0	Magnitude	n/a	twobytwo	71.0	0.79	blue	7.0	task_switch	magnitude	switch	s555	0
189.031	1.0	0.9	True	89.0	Magnitude	stay	twobytwo	89.0	0.479	blue	4.0	cue_stay	magnitude	stay	s555	0
192.072	1.0	0.9	True	89.0	Orange-Blue	n/a	twobytwo	89.0	0.752	blue	7.0	task_switch	color	switch	s555	0
195.249	1.0	0.9	True	89.0	Color	switch	twobytwo	89.0	0.468	blue	3.0	cue_switch	color	stay	s555	0
198.154	1.0	0.9	True	89.0	Orange-Blue	switch	twobytwo	89.0	0.943	blue	3.0	cue_switch	color	stay	s555	0
201.194	1.0	0.9	True	89.0	Orange-Blue	stay	twobytwo	89.0	0.518	blue	2.0	cue_stay	color	stay	s555	0
204.371	1.0	0.9	True	89.0	High-Low	n/a	twobytwo	89.0	0.799	orange	1.0	task_switch	magnitude	switch	s555	0
207.274	1.0	0.9	True	89.0	Color	n/a	twobytwo	89.0	0.804	blue	9.0	task_switch	color	switch	s555	0
210.058	1.0	0.1	False	71.0	Orange-Blue	switch	twobytwo	89.0	1.226	orange	4.0	cue_switch	color	stay	s555	0
212.162	1.0	0.1	True	71.0	High-Low	n/a	twobytwo	71.0	0.866	orange	8.0	task_switch	magnitude	switch	s555	0
214.266	1.0	0.1	True	89.0	High-Low	stay	twobytwo	89.0	0.732	blue	3.0	cue_stay	magnitude	stay	s555	0
217.171	1.0	0.9	True	71.0	Color	n/a	twobytwo	71.0	0.655	orange	1.0	task_switch	color	switch	s555	0
220.347	1.0	0.9	True	89.0	Magnitude	n/a	twobytwo	89.0	0.505	orange	2.0	task_switch	magnitude	switch	s555	0
223.252	1.0	0.9	True	71.0	Color	n/a	twobytwo	71.0	0.658	orange	1.0	task_switch	color	switch	s555	0
225.355	1.0	0.1	True	89.0	High-Low	n/a	twobytwo	89.0	0.744	blue	4.0	task_switch	magnitude	switch	s555	0
240.971	1.0	0.1	True	89.0	Magnitude	switch	twobytwo	89.0	0.66	orange	3.0	cue_switch	magnitude	stay	s555	1
243.756	1.0	0.1	True	89.0	Color	n/a	twobytwo	89.0	0.556	blue	6.0	task_switch	color	switch	s555	0
245.861	1.0	0.1	True	89.0	Magnitude	n/a	twobytwo	89.0	0.697	orange	2.0	task_switch	magnitude	switch	s555	0
248.103	1.0	0.1	True	89.0	Magnitude	stay	twobytwo	89.0	0.757	blue	1.0	cue_stay	magnitude	stay	s555	0
251.415	1.0	0.9	True	89.0	Color	n/a	twobytwo	89.0	0.487	blue	7.0	task_switch	color	switch	s555	0
254.455	1.0	0.9	True	71.0	Color	stay	twobytwo	71.0	0.449	orange	7.0	cue_stay	color	stay	s555	0
257.359	1.0	0.9	True	71.0	Orange-Blue	switch	twobytwo	71.0	0.484	orange	7.0	cue_switch	color	stay	s555	0
259.464	1.0	0.1	True	89.0	Orange-Blue	stay	twobytwo	89.0	0.752	blue	7.0	cue_stay	color	stay	s555	0
262.113	1.0	0.1	True	71.0	Orange-Blue	stay	twobytwo	71.0	0.796	orange	6.0	cue_stay	color	stay	s555	0
264.353	1.0	0.1	True	89.0	Magnitude	n/a	twobytwo	89.0	0.754	orange	1.0	task_switch	magnitude	switch	s555	0
267.003	1.0	0.1	True	89.0	Orange-Blue	n/a	twobytwo	89.0	0.894	blue	4.0	task_switch	color	switch	s555	0
270.587	1.0	0.9	True	71.0	Orange-Blue	stay	twobytwo	71.0	0.432	orange	2.0	cue_stay	color	stay	s555	0
273.491	1.0	0.9	True	89.0	Color	switch	twobytwo	89.0	0.49	blue	4.0	cue_switch	color	stay	s555	0
275.867	1.0	0.1	True	89.0	Color	stay	twobytwo	89.0	0.728	blue	8.0	cue_stay	color	stay	s555	0
279.858	1.0	0.9	True	89.0	Magnitude	n/a	twobytwo	89.0	0.54	orange	2.0	task_switch	magnitude	switch	s555	0
282.764	1.0	0.9	True	89.0	High-Low	switch	twobytwo	89.0	0.665	blue	2.0	cue_switch	magnitude	stay	s555	0
285.806	1.0	0.9	True	71.0	Magnitude	switch	twobytwo	71.0	0.484	blue	7.0	cue_switch	magnitude	stay	s555	0
288.046	1.0	0.1	True	89.0	Orange-Blue	n/a	twobytwo	89.0	0.759	blue	6.0	task_switch	color	switch	s555	0
290.15	1.0	0.1	True	71.0	Magnitude	n/a	twobytwo	71.0	0.72	orange	8.0	task_switch	magnitude	switch	s555	0
293.326	1.0	0.9	True	89.0	Orange-Blue	n/a	twobytwo	89.0	0.527	blue	2.0	task_switch	color	switch	s555	0
296.231	1.0	0.9	True	89.0	Color	switch	twobytwo	89.0	0.465	blue	3.0	cue_switch	color	stay	s555	0
299.271	1.0	0.9	True	71.0	Color	stay	twobytwo	71.0	0.434	orange	4.0	cue_stay	color	stay	s555	0
302.312	1.0	0.9	True	71.0	Color	stay	twobytwo	71.0	0.539	orange	2.0	cue_stay	color	stay	s555	0
305.761	1.0	0.9	True	71.0	Color	stay	twobytwo	71.0	0.73	orange	1.0	cue_stay	color	stay	s555	0
308.665	1.0	0.9	True	89.0	High-Low	n/a	twobytwo	89.0	0.543	orange	2.0	task_switch	magnitude	switch	s555	0
311.705	1.0	0.9	True	89.0	Orange-Blue	n/a	twobytwo	89.0	0.824	blue	8.0	task_switch	color	switch	s555	0
313.945	1.0	0.1	True	89.0	Magnitude	n/a	twobytwo	89.0	0.815	blue	4.0	task_switch	magnitude	switch	s555	0
316.185	1.0	0.1	True	71.0	High-Low	switch	twobytwo	71.0	0.98	blue	9.0	cue_switch	magnitude	stay	s555	0
319.091	1.0	0.9	True	89.0	Magnitude	switch	twobytwo	89.0	0.67	orange	1.0	cue_switch	magnitude	stay	s555	0
322.13	1.0	0.9	True	71.0	Orange-Blue	n/a	twobytwo	71.0	0.785	orange	3.0	task_switch	color	switch	s555	0
325.034	1.0	0.9	True	89.0	Color	switch	twobytwo	89.0	0.482	blue	9.0	cue_switch	color	stay	s555	0
328.074	1.0	0.9	True	71.0	Magnitude	n/a	twobytwo	71.0	0.614	orange	8.0	task_switch	magnitude	switch	s555	0
330.996	1.0	0.1	True	71.0	Magnitude	stay	twobytwo	71.0	0.557	orange	9.0	cue_stay	magnitude	stay	s555	0
334.036	1.0	0.9	True	71.0	High-Low	switch	twobytwo	71.0	0.541	blue	7.0	cue_switch	magnitude	stay	s555	0
336.143	1.0	0.1	True	71.0	Color	n/a	twobytwo	71.0	0.755	orange	3.0	task_switch	color	switch	s555	0
339.048	1.0	0.9	True	71.0	High-Low	n/a	twobytwo	71.0	1.075	orange	6.0	task_switch	magnitude	switch	s555	0
341.423	1.0	0.1	True	89.0	Magnitude	switch	twobytwo	89.0	0.814	orange	4.0	cue_switch	magnitude	stay	s555	0
344.328	1.0	0.9	True	89.0	Orange-Blue	n/a	twobytwo	89.0	0.406	blue	8.0	task_switch	color	switch	s555	0
347.232	1.0	0.9	True	71.0	Magnitude	n/a	twobytwo	71.0	0.504	orange	8.0	task_switch	magnitude	switch	s555	0
349.336	1.0	0.1	True	89.0	Orange-Blue	n/a	twobytwo	89.0	0.944	blue	8.0	task_switch	color	switch	s555	0
351.848	1.0	0.1	True	71.0	Magnitude	n/a	twobytwo	71.0	0.695	orange	8.0	task_switch	magnitude	switch	s555	0
355.024	1.0	0.9	True	89.0	Color	n/a	twobytwo	89.0	0.445	blue	6.0	task_switch	color	switch	s555	0
358.064	1.0	0.9	True	89.0	Orange-Blue	switch	twobytwo	89.0	0.665	blue	2.0	cue_switch	color	stay	s555	0
360.168	1.0	0.1	True	71.0	High-Low	n/a	twobytwo	71.0	0.758	blue	6.0	task_switch	magnitude	switch	s555	0
363.072	1.0	0.9	False	89.0	Color	n/a	twobytwo	71.0	0.491	blue	7.0	task_switch	color	switch	s555	0
366.112	1.0	0.9	True	89.0	Color	stay	twobytwo	89.0	0.519	blue	3.0	cue_stay	color	stay	s555	0
369.017	1.0	0.9	True	71.0	Orange-Blue	switch	twobytwo	71.0	0.53	orange	8.0	cue_switch	color	stay	s555	0
372.057	1.0	0.9	True	89.0	High-Low	n/a	twobytwo	89.0	0.502	orange	2.0	task_switch	magnitude	switch	s555	0
374.57	1.0	0.1	True	89.0	Color	n/a	twobytwo	89.0	0.762	blue	7.0	task_switch	color	switch	s555	0
376.811	1.0	0.1	True	89.0	Magnitude	n/a	twobytwo	89.0	1.094	blue	3.0	task_switch	magnitude	switch	s555	0
379.715	1.0	0.9	True	71.0	Color	n/a	twobytwo	71.0	0.411	orange	8.0	task_switch	color	switch	s555	0
382.756	1.0	0.9	True	71.0	Color	stay	twobytwo	71.0	0.445	orange	7.0	cue_stay	color	stay	s555	0
385.133	1.0	0.1	True	89.0	Magnitude	n/a	twobytwo	89.0	0.795	orange	2.0	task_switch	magnitude	switch	s555	0
388.039	1.0	0.9	True	71.0	Orange-Blue	n/a	twobytwo	71.0	0.527	orange	4.0	task_switch	color	switch	s555	0
391.351	1.0	0.9	True	89.0	Color	switch	twobytwo	89.0	0.506	blue	1.0	cue_switch	color	stay	s555	0
394.255	1.0	0.9	True	71.0	Orange-Blue	switch	twobytwo	71.0	0.746	orange	3.0	cue_switch	color	stay	s555	0
397.296	1.0	0.9	True	89.0	Orange-Blue	stay	twobytwo	89.0	0.688	blue	3.0	cue_stay	color	stay	s555	0
399.809	1.0	0.1	True	89.0	Magnitude	n/a	twobytwo	89.0	1.028	orange	4.0	task_switch	magnitude	switch	s555	0
402.85	1.0	0.9	True	71.0	Orange-Blue	n/a	twobytwo	71.0	0.562	orange	1.0	task_switch	color	switch	s555	0
405.362	1.0	0.1	True	89.0	Orange-Blue	stay	twobytwo	89.0	0.681	blue	1.0	cue_stay	color	stay	s555	0
408.402	1.0	0.9	True	89.0	High-Low	n/a	twobytwo	89.0	0.471	blue	2.0	task_switch	magnitude	switch	s555	0
411.306	1.0	0.9	True	71.0	High-Low	stay	twobytwo	71.0	0.469	orange	9.0	cue_stay	magnitude	stay	s555	0
414.482	1.0	0.9	True	89.0	Magnitude	switch	twobytwo	89.0	0.536	orange	3.0	cue_switch	magnitude	stay	s555	0
417.386	1.0	0.9	True	71.0	High-Low	switch	twobytwo	71.0	0.438	orange	9.0	cue_switch	magnitude	stay	s555	0
420.562	1.0	0.9	True	71.0	Magnitude	switch	twobytwo	71.0	0.507	orange	9.0	cue_switch	magnitude	stay	s555	0
422.939	1.0	0.1	True	89.0	Color	n/a	twobytwo	89.0	0.792	blue	7.0	task_switch	color	switch	s555	0
426.797	1.0	0.9	True	89.0	Color	stay	twobytwo	89.0	0.524	blue	4.0	cue_stay	color	stay	s555	0
430.382	1.0	0.9	True	71.0	High-Low	n/a	twobytwo	71.0	0.794	blue	7.0	task_switch	magnitude	switch	s555	0
433.421	1.0	0.9	True	89.0	Magnitude	switch	twobytwo	89.0	0.444	blue	3.0	cue_switch	magnitude	stay	s555	0
436.598	1.0	0.9	True	89.0	High-Low	switch	twobytwo	89.0	0.521	blue	3.0	cue_switch	magnitude	stay	s555	0
439.774	1.0	0.9	True	89.0	High-Low	stay	twobytwo	89.0	0.743	blue	2.0	cue_stay	magnitude	stay	s555	0
442.814	1.0	0.9	True	71.0	Orange-Blue	n/a	twobytwo	71.0	0.448	orange	1.0	task_switch	color	switch	s555	0
446.126	1.0	0.9	True	71.0	High-Low	n/a	twobytwo	71.0	0.565	blue	9.0	task_switch	magnitude	switch	s555	0
448.365	1.0	0.1	True	89.0	Magnitude	switch	twobytwo	89.0	0.823	orange	4.0	cue_switch	magnitude	stay	s555	0
450.606	1.0	0.1	True	71.0	Orange-Blue	n/a	twobytwo	71.0	0.736	orange	8.0	task_switch	color	switch	s555	0
452.711	1.0	0.1	True	89.0	Orange-Blue	stay	twobytwo	89.0	0.959	blue	3.0	cue_stay	color	stay	s555	0
455.614	1.0	0.9	True	89.0	High-Low	n/a	twobytwo	89.0	0.416	orange	1.0	task_switch	magnitude	switch	s555	0
458.519	1.0	0.9	True	71.0	Orange-Blue	n/a	twobytwo	71.0	0.692	orange	2.0	task_switch	color	switch	s555	0
461.424	1.0	0.9	True	89.0	High-Low	n/a	twobytwo	89.0	0.482	orange	1.0	task_switch	magnitude	switch	s555	0
463.528	1.0	0.1	True	89.0	Orange-Blue	n/a	twobytwo	89.0	0.648	blue	4.0	task_switch	color	switch	s555	0
479.412	1.0	0.1	True	71.0	Color	switch	twobytwo	71.0	0.714	orange	3.0	cue_switch	color	stay	s555	1
481.924	1.0	0.1	False	71.0	High-Low	n/a	twobytwo	89.0	0.896	blue	6.0	task_switch	magnitude	switch	s555	0
484.028	1.0	0.1	True	71.0	Orange-Blue	n/a	twobytwo	71.0	0.767	orange	2.0	task_switch	color	switch	s555	0
486.269	1.0	0.1	True	89.0	Orange-Blue	stay	twobytwo	89.0	0.692	blue	1.0	cue_stay	color	stay	s555	0
489.173	1.0	0.9	True	71.0	Magnitude	n/a	twobytwo	71.0	0.683	blue	7.0	task_switch	magnitude	switch	s555	0
492.213	1.0	0.9	True	71.0	Magnitude	stay	twobytwo	71.0	0.453	orange	7.0	cue_stay	magnitude	stay	s555	0
495.661	1.0	0.9	True	71.0	High-Low	switch	twobytwo	71.0	0.44	orange	7.0	cue_switch	magnitude	stay	s555	0
498.446	1.0	0.1	True	71.0	High-Low	stay	twobytwo	71.0	0.729	blue	7.0	cue_stay	magnitude	stay	s555	0
501.638	1.0	0.1	True	71.0	High-Low	stay	twobytwo	71.0	0.726	orange	6.0	cue_stay	magnitude	stay	s555	0
503.878	1.0	0.1	True	71.0	Orange-Blue	n/a	twobytwo	71.0	0.901	orange	1.0	task_switch	color	switch	s555	0
506.526	1.0	0.1	True	89.0	Magnitude	n/a	twobytwo	89.0	0.996	blue	4.0	task_switch	magnitude	switch	s555	0
509.43	1.0	0.9	True	89.0	Magnitude	stay	twobytwo	89.0	0.414	orange	2.0	cue_stay	magnitude	stay	s555	0
512.47	1.0	0.9	True	89.0	High-Low	switch	twobytwo	89.0	0.55	blue	4.0	cue_switch	magnitude	stay	s555	0
514.575	1.0	0.1	True	71.0	High-Low	stay	twobytwo	71.0	0.717	blue	8.0	cue_stay	magnitude	stay	s555	0
517.887	1.0	0.9	True	71.0	Color	n/a	twobytwo	71.0	0.433	orange	2.0	task_switch	color	switch	s555	0
520.79	1.0	0.9	True	89.0	Orange-Blue	switch	twobytwo	89.0	0.459	blue	2.0	cue_switch	color	stay	s555	0
523.697	1.0	0.9	True	89.0	Color	switch	twobytwo	89.0	0.853	blue	7.0	cue_switch	color	stay	s555	0
525.801	1.0	0.1	True	71.0	Magnitude	n/a	twobytwo	71.0	0.855	blue	6.0	task_switch	magnitude	switch	s555	0
528.586	1.0	0.1	True	71.0	Orange-Blue	n/a	twobytwo	71.0	0.731	orange	8.0	task_switch	color	switch	s555	0
531.762	1.0	0.9	True	89.0	Magnitude	n/a	twobytwo	89.0	0.659	blue	2.0	task_switch	magnitude	switch	s555	0
535.074	1.0	0.9	True	89.0	High-Low	switch	twobytwo	89.0	0.577	blue	3.0	cue_switch	magnitude	stay	s555	0
539.202	1.0	0.9	True	89.0	High-Low	stay	twobytwo	89.0	0.613	orange	4.0	cue_stay	magnitude	stay	s555	0
542.514	1.0	0.9	True	89.0	High-Low	stay	twobytwo	89.0	0.587	orange	2.0	cue_stay	magnitude	stay	s555	0
546.234	1.0	0.9	True	89.0	High-Low	stay	twobytwo	89.0	0.641	orange	1.0	cue_stay	magnitude	stay	s555	0
549.547	1.0	0.9	True	71.0	Color	n/a	twobytwo	71.0	0.436	orange	2.0	task_switch	color	switch	s555	0
552.588	1.0	0.9	True	71.0	High-Low	n/a	twobytwo	71.0	0.768	blue	8.0	task_switch	magnitude	switch	s555	0
554.829	1.0	0.1	True	89.0	Color	n/a	twobytwo	89.0	0.814	blue	4.0	task_switch	color	switch	s555	0
556.932	1.0	0.1	False	89.0	Orange-Blue	switch	twobytwo	71.0	1.071	blue	9.0	cue_switch	color	stay	s555	0
559.837	1.0	0.9	True	71.0	Color	switch	twobytwo	71.0	0.66	orange	1.0	cue_switch	color	stay	s555	0
563.014	1.0	0.9	True	89.0	High-Low	n/a	twobytwo	89.0	0.599	orange	3.0	task_switch	magnitude	switch	s555	0
566.327	1.0	0.9	True	71.0	Magnitude	switch	twobytwo	71.0	0.576	blue	9.0	cue_switch	magnitude	stay	s555	0
569.231	1.0	0.9	True	71.0	Orange-Blue	n/a	twobytwo	71.0	0.413	orange	8.0	task_switch	color	switch	s555	0
571.472	1.0	0.1	True	71.0	Orange-Blue	stay	twobytwo	71.0	0.954	orange	9.0	cue_stay	color	stay	s555	0
574.376	1.0	0.9	True	89.0	Color	switch	twobytwo	89.0	0.379	blue	7.0	cue_switch	color	stay	s555	0
576.888	1.0	0.1	True	89.0	Magnitude	n/a	twobytwo	89.0	0.855	orange	3.0	task_switch	magnitude	switch	s555	0
580.065	1.0	0.9	True	71.0	Orange-Blue	n/a	twobytwo	71.0	0.669	orange	6.0	task_switch	color	switch	s555	0
582.17	1.0	0.1	True	71.0	Color	switch	twobytwo	71.0	0.778	orange	4.0	cue_switch	color	stay	s555	0
585.347	1.0	0.9	True	71.0	Magnitude	n/a	twobytwo	71.0	0.46	blue	8.0	task_switch	magnitude	switch	s555	0
588.254	1.0	0.9	True	71.0	Color	n/a	twobytwo	71.0	0.477	orange	8.0	task_switch	color	switch	s555	0
590.358	1.0	0.1	True	71.0	Magnitude	n/a	twobytwo	71.0	0.723	blue	8.0	task_switch	magnitude	switch	s555	0
592.734	1.0	0.1	True	71.0	Color	n/a	twobytwo	71.0	0.619	orange	8.0	task_switch	color	switch	s555	0
595.774	1.0	0.9	True	71.0	High-Low	n/a	twobytwo	71.0	0.607	blue	6.0	task_switch	magnitude	switch	s555	0
598.679	1.0	0.9	True	89.0	Magnitude	switch	twobytwo	89.0	0.43	blue	2.0	cue_switch	magnitude	stay	s555	0
600.783	1.0	0.1	True	89.0	Orange-Blue	n/a	twobytwo	89.0	0.72	blue	6.0	task_switch	color	switch	s555	0
603.687	1.0	0.9	True	71.0	Magnitude	n/a	twobytwo	71.0	0.559	blue	7.0	task_switch	magnitude	switch	s555	0
606.591	1.0	0.9	True	89.0	Magnitude	stay	twobytwo	89.0	0.645	blue	3.0	cue_stay	magnitude	stay	s555	0
609.496	1.0	0.9	True	71.0	High-Low	switch	twobytwo	71.0	0.517	orange	8.0	cue_switch	magnitude	stay	s555	0
612.535	1.0	0.9	False	71.0	Orange-Blue	n/a	twobytwo	89.0	0.667	orange	2.0	task_switch	color	switch	s555	0
614.639	1.0	0.1	True	71.0	Magnitude	n/a	twobytwo	71.0	0.768	blue	7.0	task_switch	magnitude	switch	s555	0
616.744	1.0	0.1	True	89.0	Color	n/a	twobytwo	89.0	0.792	blue	3.0	task_switch	color	switch	s555	0
619.785	1.0	0.9	True	71.0	Magnitude	n/a	twobytwo	71.0	0.715	orange	8.0	task_switch	magnitude	switch	s555	0
622.691	1.0	0.9	True	71.0	Magnitude	stay	twobytwo	71.0	0.562	orange	7.0	cue_stay	magnitude	stay	s555	0
624.933	1.0	0.1	True	71.0	Color	n/a	twobytwo	71.0	0.747	orange	2.0	task_switch	color	switch	s555	0
628.517	1.0	0.9	True	89.0	High-Low	n/a	twobytwo	89.0	0.918	orange	4.0	task_switch	magnitude	switch	s555	0
631.693	1.0	0.9	True	89.0	Magnitude	switch	twobytwo	89.0	0.597	blue	1.0	cue_switch	magnitude	stay	s555	0
634.734	1.0	0.9	True	89.0	High-Low	switch	twobytwo	89.0	0.521	orange	3.0	cue_switch	magnitude	stay	s555	0
637.637	1.0	0.9	True	89.0	High-Low	stay	twobytwo	89.0	0.532	blue	3.0	cue_stay	magnitude	stay	s555	0
639.878	1.0	0.1	True	71.0	Orange-Blue	n/a	twobytwo	71.0	0.77	orange	4.0	task_switch	color	switch	s555	0
643.461	1.0	0.9	True	89.0	High-Low	n/a	twobytwo	89.0	0.463	orange	1.0	task_switch	magnitude	switch	s555	0
645.838	1.0	0.1	True	89.0	High-Low	stay	twobytwo	89.0	0.646	blue	1.0	cue_stay	magnitude	stay	s555	0
648.741	1.0	0.9	True	89.0	Color	n/a	twobytwo	89.0	0.598	blue	2.0	task_switch	color	switch	s555	0
651.647	1.0	0.9	True	71.0	Color	stay	twobytwo	71.0	0.334	orange	9.0	cue_stay	color	stay	s555	0
654.688	1.0	0.9	True	71.0	Orange-Blue	switch	twobytwo	71.0	0.753	orange	3.0	cue_switch	color	stay	s555	0
657.593	1.0	0.9	True	71.0	Color	switch	twobytwo	71.0	0.493	orange	9.0	cue_switch	color	stay	s555	0
660.496	1.0	0.9	True	71.0	Orange-Blue	switch	twobytwo	71.0	0.493	orange	9.0	cue_switch	color	stay	s555	0
662.601	1.0	0.1	True	71.0	High-Low	n/a	twobytwo	71.0	0.801	blue	7.0	task_switch	magnitude	switch	s555	0
665.778	1.0	0.9	True	89.0	High-Low	stay	twobytwo	89.0	0.418	blue	4.0	cue_stay	magnitude	stay	s555	0
669.09	1.0	0.9	True	89.0	Orange-Blue	n/a	twobytwo	89.0	0.412	blue	7.0	task_switch	color	switch	s555	0
671.995	1.0	0.9	True	89.0	Color	switch	twobytwo	89.0	0.455	blue	3.0	cue_switch	color	stay	s555	0
674.9	1.0	0.9	True	89.0	Orange-Blue	switch	twobytwo	89.0	0.766	blue	3.0	cue_switch	color	stay	s555	0
677.804	1.0	0.9	True	89.0	Orange-Blue	stay	twobytwo	89.0	0.535	blue	2.0	cue_stay	color	stay	s555	0
680.98	1.0	0.9	True	89.0	Magnitude	n/a	twobytwo	89.0	0.534	orange	1.0	task_switch	magnitude	switch	s555	0
684.021	1.0	0.9	True	89.0	Orange-Blue	n/a	twobytwo	89.0	0.493	blue	9.0	task_switch	color	switch	s555	0
686.126	1.0	0.1	True	71.0	Color	switch	twobytwo	71.0	0.692	orange	4.0	cue_switch	color	stay	s555	0
688.776	1.0	0.1	True	71.0	High-Low	n/a	twobytwo	71.0	0.708	orange	8.0	task_switch	magnitude	switch	s555	0
691.153	1.0	0.1	True	89.0	High-Low	stay	twobytwo	89.0	0.749	blue	3.0	cue_stay	magnitude	stay	s555	0
694.33	1.0	0.9	True	71.0	Color	n/a	twobytwo	71.0	0.533	orange	1.0	task_switch	color	switch	s555	0
697.234	1.0	0.9	True	89.0	Magnitude	n/a	twobytwo	89.0	0.592	orange	2.0	task_switch	magnitude	switch	s555	0
700.139	1.0	0.9	True	71.0	Orange-Blue	n/a	twobytwo	71.0	0.535	orange	1.0	task_switch	color	switch	s555	0
702.38	1.0	0.1	True	89.0	High-Low	n/a	twobytwo	89.0	1.313	blue	4.0	task_switch	magnitude	switch	s555	0
