onset	duration	planning	condition	current_position	exp_stage	experiment_exp_id	goal_state	key_press	problem_id	response_time	start_state	trial_id	worker_id
-56.454	0.0	0	n/a	n/a	n/a	ward_and_allport	n/a	32.0	n/a	20.982	n/a	instructions	s596
3.014	3.756	1	UA_with_intermediate	1,0,0,2,0,0,0,0,0	practice	ward_and_allport	1,2,3,0,0,0,0,0,0	71.0	0.0	3.756	1,0,0,2,3,0,0,0,0	to_hand	s596
6.772	0.812	0	UA_with_intermediate	1,3,0,2,0,0,0,0,0	practice	ward_and_allport	1,2,3,0,0,0,0,0,0	89.0	0.0	0.812	1,0,0,2,3,0,0,0,0	to_board	s596
7.586	2.492	0	UA_with_intermediate	1,3,0,0,0,0,0,0,0	practice	ward_and_allport	1,2,3,0,0,0,0,0,0	71.0	0.0	2.492	1,0,0,2,3,0,0,0,0	to_hand	s596
10.079	2.742	0	UA_with_intermediate	1,3,0,2,0,0,0,0,0	practice	ward_and_allport	1,2,3,0,0,0,0,0,0	71.0	0.0	2.742	1,0,0,2,3,0,0,0,0	to_board	s596
12.823	1.201	0	UA_with_intermediate	1,0,0,2,0,0,0,0,0	practice	ward_and_allport	1,2,3,0,0,0,0,0,0	89.0	0.0	1.201	1,0,0,2,3,0,0,0,0	to_hand	s596
14.025	1.537	0	UA_with_intermediate	1,0,0,2,0,0,3,0,0	practice	ward_and_allport	1,2,3,0,0,0,0,0,0	82.0	0.0	1.537	1,0,0,2,3,0,0,0,0	to_board	s596
15.564	1.371	0	UA_with_intermediate	1,0,0,0,0,0,3,0,0	practice	ward_and_allport	1,2,3,0,0,0,0,0,0	71.0	0.0	1.371	1,0,0,2,3,0,0,0,0	to_hand	s596
16.936	0.795	0	UA_with_intermediate	1,2,0,0,0,0,3,0,0	practice	ward_and_allport	1,2,3,0,0,0,0,0,0	89.0	0.0	0.795	1,0,0,2,3,0,0,0,0	to_board	s596
17.734	1.705	0	UA_with_intermediate	1,2,0,0,0,0,0,0,0	practice	ward_and_allport	1,2,3,0,0,0,0,0,0	82.0	0.0	1.705	1,0,0,2,3,0,0,0,0	to_hand	s596
19.441	0.573	0	UA_with_intermediate	1,2,3,0,0,0,0,0,0	practice	ward_and_allport	1,2,3,0,0,0,0,0,0	89.0	0.0	0.573	1,0,0,2,3,0,0,0,0	to_board	s596
20.017	1.0	0	UA_with_intermediate	n/a	practice	ward_and_allport	n/a	-1.0	0.0	n/a	n/a	feedback	s596
22.518	3.228	1	UA_with_intermediate	1,2,0,0,0,0,0,0,0	practice	ward_and_allport	1,3,2,0,0,0,0,0,0	71.0	1.0	3.228	1,2,0,3,0,0,0,0,0	to_hand	s596
25.746	1.109	0	UA_with_intermediate	1,2,0,3,0,0,0,0,0	practice	ward_and_allport	1,3,2,0,0,0,0,0,0	71.0	1.0	1.109	1,2,0,3,0,0,0,0,0	to_board	s596
26.856	0.703	0	UA_with_intermediate	1,0,0,3,0,0,0,0,0	practice	ward_and_allport	1,3,2,0,0,0,0,0,0	89.0	1.0	0.703	1,2,0,3,0,0,0,0,0	to_hand	s596
27.56	0.961	0	UA_with_intermediate	1,0,0,3,0,0,2,0,0	practice	ward_and_allport	1,3,2,0,0,0,0,0,0	82.0	1.0	0.961	1,2,0,3,0,0,0,0,0	to_board	s596
28.523	0.637	0	UA_with_intermediate	1,0,0,0,0,0,2,0,0	practice	ward_and_allport	1,3,2,0,0,0,0,0,0	71.0	1.0	0.637	1,2,0,3,0,0,0,0,0	to_hand	s596
29.16	0.558	0	UA_with_intermediate	1,3,0,0,0,0,2,0,0	practice	ward_and_allport	1,3,2,0,0,0,0,0,0	89.0	1.0	0.558	1,2,0,3,0,0,0,0,0	to_board	s596
29.721	0.979	0	UA_with_intermediate	1,3,0,0,0,0,0,0,0	practice	ward_and_allport	1,3,2,0,0,0,0,0,0	82.0	1.0	0.979	1,2,0,3,0,0,0,0,0	to_hand	s596
30.7	0.781	0	UA_with_intermediate	1,3,2,0,0,0,0,0,0	practice	ward_and_allport	1,3,2,0,0,0,0,0,0	89.0	1.0	0.781	1,2,0,3,0,0,0,0,0	to_board	s596
31.484	1.0	0	UA_with_intermediate	n/a	practice	ward_and_allport	n/a	-1.0	1.0	n/a	n/a	feedback	s596
32.484	1.1	0	UA_with_intermediate	n/a	practice	ward_and_allport	n/a	-1.0	1.0	n/a	n/a	ITI	s596
33.587	3.605	1	UA_without_intermediate	0,0,0,1,2,0,0,0,0	practice	ward_and_allport	3,2,1,0,0,0,0,0,0	82.0	2.0	3.605	0,0,0,1,2,0,3,0,0	to_hand	s596
37.193	0.588	0	UA_without_intermediate	3,0,0,1,2,0,0,0,0	practice	ward_and_allport	3,2,1,0,0,0,0,0,0	89.0	2.0	0.588	0,0,0,1,2,0,3,0,0	to_board	s596
37.783	1.926	0	UA_without_intermediate	3,0,0,1,0,0,0,0,0	practice	ward_and_allport	3,2,1,0,0,0,0,0,0	71.0	2.0	1.926	0,0,0,1,2,0,3,0,0	to_hand	s596
39.71	0.51	0	UA_without_intermediate	3,2,0,1,0,0,0,0,0	practice	ward_and_allport	3,2,1,0,0,0,0,0,0	89.0	2.0	0.51	0,0,0,1,2,0,3,0,0	to_board	s596
40.221	0.853	0	UA_without_intermediate	3,2,0,0,0,0,0,0,0	practice	ward_and_allport	3,2,1,0,0,0,0,0,0	71.0	2.0	0.853	0,0,0,1,2,0,3,0,0	to_hand	s596
41.076	0.453	0	UA_without_intermediate	3,2,1,0,0,0,0,0,0	practice	ward_and_allport	3,2,1,0,0,0,0,0,0	89.0	2.0	0.453	0,0,0,1,2,0,3,0,0	to_board	s596
41.531	1.0	0	UA_without_intermediate	n/a	practice	ward_and_allport	n/a	-1.0	2.0	n/a	n/a	feedback	s596
42.531	1.2	0	UA_without_intermediate	n/a	practice	ward_and_allport	n/a	-1.0	2.0	n/a	n/a	ITI	s596
43.733	1.695	1	UA_without_intermediate	0,0,0,1,0,0,3,0,0	practice	ward_and_allport	2,3,1,0,0,0,0,0,0	71.0	3.0	1.695	0,0,0,1,2,0,3,0,0	to_hand	s596
45.429	0.371	0	UA_without_intermediate	2,0,0,1,0,0,3,0,0	practice	ward_and_allport	2,3,1,0,0,0,0,0,0	89.0	3.0	0.371	0,0,0,1,2,0,3,0,0	to_board	s596
45.801	1.55	0	UA_without_intermediate	2,0,0,1,0,0,0,0,0	practice	ward_and_allport	2,3,1,0,0,0,0,0,0	82.0	3.0	1.55	0,0,0,1,2,0,3,0,0	to_hand	s596
47.353	0.432	0	UA_without_intermediate	2,3,0,1,0,0,0,0,0	practice	ward_and_allport	2,3,1,0,0,0,0,0,0	89.0	3.0	0.432	0,0,0,1,2,0,3,0,0	to_board	s596
47.787	1.16	0	UA_without_intermediate	2,3,0,0,0,0,0,0,0	practice	ward_and_allport	2,3,1,0,0,0,0,0,0	71.0	3.0	1.16	0,0,0,1,2,0,3,0,0	to_hand	s596
48.948	0.408	0	UA_without_intermediate	2,3,1,0,0,0,0,0,0	practice	ward_and_allport	2,3,1,0,0,0,0,0,0	89.0	3.0	0.408	0,0,0,1,2,0,3,0,0	to_board	s596
49.361	1.0	0	UA_without_intermediate	n/a	practice	ward_and_allport	n/a	-1.0	3.0	n/a	n/a	feedback	s596
50.361	1.0	0	UA_without_intermediate	n/a	practice	ward_and_allport	n/a	-1.0	3.0	n/a	n/a	ITI	s596
53.366	3.196	1	PA_without_intermediate	0,0,0,1,2,0,0,0,0	test	ward_and_allport	3,1,0,0,0,0,2,0,0	71.0	0.0	3.196	0,0,0,1,2,3,0,0,0	to_hand	s596
56.564	0.445	0	PA_without_intermediate	3,0,0,1,2,0,0,0,0	test	ward_and_allport	3,1,0,0,0,0,2,0,0	89.0	0.0	0.445	0,0,0,1,2,3,0,0,0	to_board	s596
57.01	1.842	0	PA_without_intermediate	3,0,0,1,0,0,0,0,0	test	ward_and_allport	3,1,0,0,0,0,2,0,0	71.0	0.0	1.842	0,0,0,1,2,3,0,0,0	to_hand	s596
58.853	0.312	0	PA_without_intermediate	3,0,0,1,0,0,2,0,0	test	ward_and_allport	3,1,0,0,0,0,2,0,0	82.0	0.0	0.312	0,0,0,1,2,3,0,0,0	to_board	s596
59.168	0.557	0	PA_without_intermediate	3,0,0,0,0,0,2,0,0	test	ward_and_allport	3,1,0,0,0,0,2,0,0	71.0	0.0	0.557	0,0,0,1,2,3,0,0,0	to_hand	s596
59.726	0.402	0	PA_without_intermediate	3,1,0,0,0,0,2,0,0	test	ward_and_allport	3,1,0,0,0,0,2,0,0	89.0	0.0	0.402	0,0,0,1,2,3,0,0,0	to_board	s596
60.135	1.0	0	PA_without_intermediate	n/a	test	ward_and_allport	n/a	-1.0	0.0	n/a	n/a	feedback	s596
61.135	2.088	0	PA_without_intermediate	n/a	test	ward_and_allport	n/a	-1.0	0.0	n/a	n/a	ITI	s596
63.225	4.701	1	PA_with_intermediate	1,2,0,0,0,0,0,0,0	test	ward_and_allport	1,0,0,2,3,0,0,0,0	89.0	1.0	4.701	1,2,3,0,0,0,0,0,0	to_hand	s596
67.926	0.386	0	PA_with_intermediate	1,2,0,0,0,0,3,0,0	test	ward_and_allport	1,0,0,2,3,0,0,0,0	82.0	1.0	0.386	1,2,3,0,0,0,0,0,0	to_board	s596
68.315	1.654	0	PA_with_intermediate	1,0,0,0,0,0,3,0,0	test	ward_and_allport	1,0,0,2,3,0,0,0,0	89.0	1.0	1.654	1,2,3,0,0,0,0,0,0	to_hand	s596
69.97	1.049	0	PA_with_intermediate	1,0,0,2,0,0,3,0,0	test	ward_and_allport	1,0,0,2,3,0,0,0,0	71.0	1.0	1.049	1,2,3,0,0,0,0,0,0	to_board	s596
71.021	1.598	0	PA_with_intermediate	1,0,0,2,0,0,0,0,0	test	ward_and_allport	1,0,0,2,3,0,0,0,0	82.0	1.0	1.598	1,2,3,0,0,0,0,0,0	to_hand	s596
72.621	0.583	0	PA_with_intermediate	1,0,0,2,3,0,0,0,0	test	ward_and_allport	1,0,0,2,3,0,0,0,0	71.0	1.0	0.583	1,2,3,0,0,0,0,0,0	to_board	s596
73.212	1.0	0	PA_with_intermediate	n/a	test	ward_and_allport	n/a	-1.0	1.0	n/a	n/a	feedback	s596
74.212	1.0	0	PA_with_intermediate	n/a	test	ward_and_allport	n/a	-1.0	1.0	n/a	n/a	ITI	s596
75.215	1.659	1	PA_without_intermediate	0,0,0,1,2,0,0,0,0	test	ward_and_allport	3,2,0,0,0,0,1,0,0	71.0	2.0	1.659	0,0,0,1,2,3,0,0,0	to_hand	s596
76.876	0.379	0	PA_without_intermediate	3,0,0,1,2,0,0,0,0	test	ward_and_allport	3,2,0,0,0,0,1,0,0	89.0	2.0	0.379	0,0,0,1,2,3,0,0,0	to_board	s596
77.257	0.602	0	PA_without_intermediate	3,0,0,1,0,0,0,0,0	test	ward_and_allport	3,2,0,0,0,0,1,0,0	71.0	2.0	0.602	0,0,0,1,2,3,0,0,0	to_hand	s596
77.861	0.52	0	PA_without_intermediate	3,2,0,1,0,0,0,0,0	test	ward_and_allport	3,2,0,0,0,0,1,0,0	89.0	2.0	0.52	0,0,0,1,2,3,0,0,0	to_board	s596
78.383	0.759	0	PA_without_intermediate	3,2,0,0,0,0,0,0,0	test	ward_and_allport	3,2,0,0,0,0,1,0,0	71.0	2.0	0.759	0,0,0,1,2,3,0,0,0	to_hand	s596
79.144	0.449	0	PA_without_intermediate	3,2,0,0,0,0,1,0,0	test	ward_and_allport	3,2,0,0,0,0,1,0,0	82.0	2.0	0.449	0,0,0,1,2,3,0,0,0	to_board	s596
79.596	1.0	0	PA_without_intermediate	n/a	test	ward_and_allport	n/a	-1.0	2.0	n/a	n/a	feedback	s596
80.596	1.0	0	PA_without_intermediate	n/a	test	ward_and_allport	n/a	-1.0	2.0	n/a	n/a	ITI	s596
81.599	2.981	1	PA_without_intermediate	1,2,0,0,0,0,0,0,0	test	ward_and_allport	0,0,0,1,0,0,3,2,0	89.0	3.0	2.981	1,2,3,0,0,0,0,0,0	to_hand	s596
84.582	0.433	0	PA_without_intermediate	1,2,0,0,0,0,3,0,0	test	ward_and_allport	0,0,0,1,0,0,3,2,0	82.0	3.0	0.433	1,2,3,0,0,0,0,0,0	to_board	s596
85.016	1.277	0	PA_without_intermediate	1,0,0,0,0,0,3,0,0	test	ward_and_allport	0,0,0,1,0,0,3,2,0	89.0	3.0	1.277	1,2,3,0,0,0,0,0,0	to_hand	s596
86.295	0.396	0	PA_without_intermediate	1,0,0,0,0,0,3,2,0	test	ward_and_allport	0,0,0,1,0,0,3,2,0	82.0	3.0	0.396	1,2,3,0,0,0,0,0,0	to_board	s596
86.694	1.101	0	PA_without_intermediate	0,0,0,0,0,0,3,2,0	test	ward_and_allport	0,0,0,1,0,0,3,2,0	89.0	3.0	1.101	1,2,3,0,0,0,0,0,0	to_hand	s596
87.796	1.063	0	PA_without_intermediate	0,0,0,1,0,0,3,2,0	test	ward_and_allport	0,0,0,1,0,0,3,2,0	71.0	3.0	1.063	1,2,3,0,0,0,0,0,0	to_board	s596
88.866	1.0	0	PA_without_intermediate	n/a	test	ward_and_allport	n/a	-1.0	3.0	n/a	n/a	feedback	s596
89.866	1.0	0	PA_without_intermediate	n/a	test	ward_and_allport	n/a	-1.0	3.0	n/a	n/a	ITI	s596
90.87	3.193	1	PA_with_intermediate	0,0,0,0,0,0,1,2,0	test	ward_and_allport	0,0,0,2,3,0,1,0,0	82.0	4.0	3.193	0,0,0,0,0,0,1,2,3	to_hand	s596
94.064	0.617	0	PA_with_intermediate	3,0,0,0,0,0,1,2,0	test	ward_and_allport	0,0,0,2,3,0,1,0,0	89.0	4.0	0.617	0,0,0,0,0,0,1,2,3	to_board	s596
94.685	2.131	0	PA_with_intermediate	3,0,0,0,0,0,1,0,0	test	ward_and_allport	0,0,0,2,3,0,1,0,0	82.0	4.0	2.131	0,0,0,0,0,0,1,2,3	to_hand	s596
96.817	0.478	0	PA_with_intermediate	3,0,0,2,0,0,1,0,0	test	ward_and_allport	0,0,0,2,3,0,1,0,0	71.0	4.0	0.478	0,0,0,0,0,0,1,2,3	to_board	s596
97.298	2.127	0	PA_with_intermediate	0,0,0,2,0,0,1,0,0	test	ward_and_allport	0,0,0,2,3,0,1,0,0	89.0	4.0	2.127	0,0,0,0,0,0,1,2,3	to_hand	s596
99.427	0.48	0	PA_with_intermediate	0,0,0,2,3,0,1,0,0	test	ward_and_allport	0,0,0,2,3,0,1,0,0	71.0	4.0	0.48	0,0,0,0,0,0,1,2,3	to_board	s596
99.914	1.0	0	PA_with_intermediate	n/a	test	ward_and_allport	n/a	-1.0	4.0	n/a	n/a	feedback	s596
100.914	1.544	0	PA_with_intermediate	n/a	test	ward_and_allport	n/a	-1.0	4.0	n/a	n/a	ITI	s596
102.461	6.065	1	PA_without_intermediate	0,0,0,0,0,0,1,2,0	test	ward_and_allport	3,2,0,1,0,0,0,0,0	82.0	5.0	6.065	0,0,0,0,0,0,1,2,3	to_hand	s596
108.528	0.364	0	PA_without_intermediate	3,0,0,0,0,0,1,2,0	test	ward_and_allport	3,2,0,1,0,0,0,0,0	89.0	5.0	0.364	0,0,0,0,0,0,1,2,3	to_board	s596
108.894	0.475	0	PA_without_intermediate	3,0,0,0,0,0,1,0,0	test	ward_and_allport	3,2,0,1,0,0,0,0,0	82.0	5.0	0.475	0,0,0,0,0,0,1,2,3	to_hand	s596
109.371	0.84	0	PA_without_intermediate	3,2,0,0,0,0,1,0,0	test	ward_and_allport	3,2,0,1,0,0,0,0,0	89.0	5.0	0.84	0,0,0,0,0,0,1,2,3	to_board	s596
110.212	1.063	0	PA_without_intermediate	3,2,0,0,0,0,0,0,0	test	ward_and_allport	3,2,0,1,0,0,0,0,0	82.0	5.0	1.063	0,0,0,0,0,0,1,2,3	to_hand	s596
111.277	0.515	0	PA_without_intermediate	3,2,0,1,0,0,0,0,0	test	ward_and_allport	3,2,0,1,0,0,0,0,0	71.0	5.0	0.515	0,0,0,0,0,0,1,2,3	to_board	s596
111.795	1.0	0	PA_without_intermediate	n/a	test	ward_and_allport	n/a	-1.0	5.0	n/a	n/a	feedback	s596
112.795	1.272	0	PA_without_intermediate	n/a	test	ward_and_allport	n/a	-1.0	5.0	n/a	n/a	ITI	s596
114.069	7.359	1	PA_with_intermediate	0,0,0,0,0,0,1,2,0	test	ward_and_allport	2,3,0,0,0,0,1,0,0	82.0	6.0	7.359	0,0,0,0,0,0,1,2,3	to_hand	s596
121.43	0.303	0	PA_with_intermediate	0,0,0,3,0,0,1,2,0	test	ward_and_allport	2,3,0,0,0,0,1,0,0	71.0	6.0	0.303	0,0,0,0,0,0,1,2,3	to_board	s596
121.736	0.973	0	PA_with_intermediate	0,0,0,3,0,0,1,0,0	test	ward_and_allport	2,3,0,0,0,0,1,0,0	82.0	6.0	0.973	0,0,0,0,0,0,1,2,3	to_hand	s596
122.709	0.392	0	PA_with_intermediate	2,0,0,3,0,0,1,0,0	test	ward_and_allport	2,3,0,0,0,0,1,0,0	89.0	6.0	0.392	0,0,0,0,0,0,1,2,3	to_board	s596
123.104	0.581	0	PA_with_intermediate	2,0,0,0,0,0,1,0,0	test	ward_and_allport	2,3,0,0,0,0,1,0,0	71.0	6.0	0.581	0,0,0,0,0,0,1,2,3	to_hand	s596
123.686	0.521	0	PA_with_intermediate	2,3,0,0,0,0,1,0,0	test	ward_and_allport	2,3,0,0,0,0,1,0,0	89.0	6.0	0.521	0,0,0,0,0,0,1,2,3	to_board	s596
124.214	1.0	0	PA_with_intermediate	n/a	test	ward_and_allport	n/a	-1.0	6.0	n/a	n/a	feedback	s596
125.214	3.04	0	PA_with_intermediate	n/a	test	ward_and_allport	n/a	-1.0	6.0	n/a	n/a	ITI	s596
128.257	3.941	1	PA_with_intermediate	0,0,0,1,2,0,0,0,0	test	ward_and_allport	0,0,0,1,0,0,2,3,0	71.0	7.0	3.941	0,0,0,1,2,3,0,0,0	to_hand	s596
132.199	0.317	0	PA_with_intermediate	3,0,0,1,2,0,0,0,0	test	ward_and_allport	0,0,0,1,0,0,2,3,0	89.0	7.0	0.317	0,0,0,1,2,3,0,0,0	to_board	s596
132.519	0.602	0	PA_with_intermediate	3,0,0,1,0,0,0,0,0	test	ward_and_allport	0,0,0,1,0,0,2,3,0	71.0	7.0	0.602	0,0,0,1,2,3,0,0,0	to_hand	s596
133.122	0.345	0	PA_with_intermediate	3,0,0,1,0,0,2,0,0	test	ward_and_allport	0,0,0,1,0,0,2,3,0	82.0	7.0	0.345	0,0,0,1,2,3,0,0,0	to_board	s596
133.47	1.055	0	PA_with_intermediate	0,0,0,1,0,0,2,0,0	test	ward_and_allport	0,0,0,1,0,0,2,3,0	89.0	7.0	1.055	0,0,0,1,2,3,0,0,0	to_hand	s596
134.526	0.47	0	PA_with_intermediate	0,0,0,1,0,0,2,3,0	test	ward_and_allport	0,0,0,1,0,0,2,3,0	82.0	7.0	0.47	0,0,0,1,2,3,0,0,0	to_board	s596
135.001	1.0	0	PA_with_intermediate	n/a	test	ward_and_allport	n/a	-1.0	7.0	n/a	n/a	feedback	s596
136.001	1.272	0	PA_with_intermediate	n/a	test	ward_and_allport	n/a	-1.0	7.0	n/a	n/a	ITI	s596
137.277	2.998	1	PA_with_intermediate	0,0,0,0,0,0,1,2,0	test	ward_and_allport	0,0,0,2,0,0,1,3,0	82.0	8.0	2.998	0,0,0,0,0,0,1,2,3	to_hand	s596
140.275	0.556	0	PA_with_intermediate	3,0,0,0,0,0,1,2,0	test	ward_and_allport	0,0,0,2,0,0,1,3,0	89.0	8.0	0.556	0,0,0,0,0,0,1,2,3	to_board	s596
140.833	1.363	0	PA_with_intermediate	3,0,0,0,0,0,1,0,0	test	ward_and_allport	0,0,0,2,0,0,1,3,0	82.0	8.0	1.363	0,0,0,0,0,0,1,2,3	to_hand	s596
142.197	0.377	0	PA_with_intermediate	3,0,0,2,0,0,1,0,0	test	ward_and_allport	0,0,0,2,0,0,1,3,0	71.0	8.0	0.377	0,0,0,0,0,0,1,2,3	to_board	s596
142.578	1.003	0	PA_with_intermediate	0,0,0,2,0,0,1,0,0	test	ward_and_allport	0,0,0,2,0,0,1,3,0	89.0	8.0	1.003	0,0,0,0,0,0,1,2,3	to_hand	s596
143.582	0.519	0	PA_with_intermediate	0,0,0,2,0,0,1,3,0	test	ward_and_allport	0,0,0,2,0,0,1,3,0	82.0	8.0	0.519	0,0,0,0,0,0,1,2,3	to_board	s596
144.108	1.0	0	PA_with_intermediate	n/a	test	ward_and_allport	n/a	-1.0	8.0	n/a	n/a	feedback	s596
145.108	1.136	0	PA_with_intermediate	n/a	test	ward_and_allport	n/a	-1.0	8.0	n/a	n/a	ITI	s596
146.248	3.053	1	PA_with_intermediate	0,0,0,0,0,0,1,2,0	test	ward_and_allport	2,3,0,0,0,0,1,0,0	82.0	9.0	3.053	0,0,0,0,0,0,1,2,3	to_hand	s596
149.301	0.337	0	PA_with_intermediate	0,0,0,3,0,0,1,2,0	test	ward_and_allport	2,3,0,0,0,0,1,0,0	71.0	9.0	0.337	0,0,0,0,0,0,1,2,3	to_board	s596
149.641	0.978	0	PA_with_intermediate	0,0,0,3,0,0,1,0,0	test	ward_and_allport	2,3,0,0,0,0,1,0,0	82.0	9.0	0.978	0,0,0,0,0,0,1,2,3	to_hand	s596
150.62	0.492	0	PA_with_intermediate	2,0,0,3,0,0,1,0,0	test	ward_and_allport	2,3,0,0,0,0,1,0,0	89.0	9.0	0.492	0,0,0,0,0,0,1,2,3	to_board	s596
151.116	0.516	0	PA_with_intermediate	2,0,0,0,0,0,1,0,0	test	ward_and_allport	2,3,0,0,0,0,1,0,0	71.0	9.0	0.516	0,0,0,0,0,0,1,2,3	to_hand	s596
151.633	0.58	0	PA_with_intermediate	2,3,0,0,0,0,1,0,0	test	ward_and_allport	2,3,0,0,0,0,1,0,0	89.0	9.0	0.58	0,0,0,0,0,0,1,2,3	to_board	s596
152.22	1.0	0	PA_with_intermediate	n/a	test	ward_and_allport	n/a	-1.0	9.0	n/a	n/a	feedback	s596
153.22	1.0	0	PA_with_intermediate	n/a	test	ward_and_allport	n/a	-1.0	9.0	n/a	n/a	ITI	s596
154.225	3.05	1	PA_with_intermediate	1,2,0,0,0,0,0,0,0	test	ward_and_allport	1,0,0,0,0,0,2,3,0	89.0	10.0	3.05	1,2,3,0,0,0,0,0,0	to_hand	s596
157.276	0.344	0	PA_with_intermediate	1,2,0,3,0,0,0,0,0	test	ward_and_allport	1,0,0,0,0,0,2,3,0	71.0	10.0	0.344	1,2,3,0,0,0,0,0,0	to_board	s596
157.624	0.98	0	PA_with_intermediate	1,0,0,3,0,0,0,0,0	test	ward_and_allport	1,0,0,0,0,0,2,3,0	89.0	10.0	0.98	1,2,3,0,0,0,0,0,0	to_hand	s596
158.606	0.763	0	PA_with_intermediate	1,0,0,3,0,0,2,0,0	test	ward_and_allport	1,0,0,0,0,0,2,3,0	82.0	10.0	0.763	1,2,3,0,0,0,0,0,0	to_board	s596
159.373	0.43	0	PA_with_intermediate	1,0,0,0,0,0,2,0,0	test	ward_and_allport	1,0,0,0,0,0,2,3,0	71.0	10.0	0.43	1,2,3,0,0,0,0,0,0	to_hand	s596
159.804	0.663	0	PA_with_intermediate	1,0,0,0,0,0,2,3,0	test	ward_and_allport	1,0,0,0,0,0,2,3,0	82.0	10.0	0.663	1,2,3,0,0,0,0,0,0	to_board	s596
160.474	1.0	0	PA_with_intermediate	n/a	test	ward_and_allport	n/a	-1.0	10.0	n/a	n/a	feedback	s596
161.474	1.0	0	PA_with_intermediate	n/a	test	ward_and_allport	n/a	-1.0	10.0	n/a	n/a	ITI	s596
162.478	3.542	1	PA_without_intermediate	1,2,0,0,0,0,0,0,0	test	ward_and_allport	0,0,0,3,1,0,2,0,0	89.0	11.0	3.542	1,2,3,0,0,0,0,0,0	to_hand	s596
166.022	0.338	0	PA_without_intermediate	1,2,0,3,0,0,0,0,0	test	ward_and_allport	0,0,0,3,1,0,2,0,0	71.0	11.0	0.338	1,2,3,0,0,0,0,0,0	to_board	s596
166.364	0.995	0	PA_without_intermediate	1,0,0,3,0,0,0,0,0	test	ward_and_allport	0,0,0,3,1,0,2,0,0	89.0	11.0	0.995	1,2,3,0,0,0,0,0,0	to_hand	s596
167.36	0.339	0	PA_without_intermediate	1,0,0,3,0,0,2,0,0	test	ward_and_allport	0,0,0,3,1,0,2,0,0	82.0	11.0	0.339	1,2,3,0,0,0,0,0,0	to_board	s596
167.703	1.123	0	PA_without_intermediate	0,0,0,3,0,0,2,0,0	test	ward_and_allport	0,0,0,3,1,0,2,0,0	89.0	11.0	1.123	1,2,3,0,0,0,0,0,0	to_hand	s596
168.826	0.426	0	PA_without_intermediate	0,0,0,3,1,0,2,0,0	test	ward_and_allport	0,0,0,3,1,0,2,0,0	71.0	11.0	0.426	1,2,3,0,0,0,0,0,0	to_board	s596
169.261	1.0	0	PA_without_intermediate	n/a	test	ward_and_allport	n/a	-1.0	11.0	n/a	n/a	feedback	s596
170.261	1.408	0	PA_without_intermediate	n/a	test	ward_and_allport	n/a	-1.0	11.0	n/a	n/a	ITI	s596
171.673	2.673	1	PA_with_intermediate	0,0,0,1,2,0,0,0,0	test	ward_and_allport	0,0,0,1,0,0,2,3,0	71.0	12.0	2.673	0,0,0,1,2,3,0,0,0	to_hand	s596
174.348	0.333	0	PA_with_intermediate	0,0,0,1,2,0,3,0,0	test	ward_and_allport	0,0,0,1,0,0,2,3,0	82.0	12.0	0.333	0,0,0,1,2,3,0,0,0	to_board	s596
174.685	0.359	0	PA_with_intermediate	0,0,0,1,0,0,3,0,0	test	ward_and_allport	0,0,0,1,0,0,2,3,0	71.0	12.0	0.359	0,0,0,1,2,3,0,0,0	to_hand	s596
175.045	1.53	0	PA_with_intermediate	0,0,0,1,2,0,3,0,0	test	ward_and_allport	0,0,0,1,0,0,2,3,0	71.0	12.0	1.53	0,0,0,1,2,3,0,0,0	to_board	s596
176.579	1.04	0	PA_with_intermediate	0,0,0,1,2,0,0,0,0	test	ward_and_allport	0,0,0,1,0,0,2,3,0	82.0	12.0	1.04	0,0,0,1,2,3,0,0,0	to_hand	s596
177.62	0.577	0	PA_with_intermediate	3,0,0,1,2,0,0,0,0	test	ward_and_allport	0,0,0,1,0,0,2,3,0	89.0	12.0	0.577	0,0,0,1,2,3,0,0,0	to_board	s596
178.202	0.443	0	PA_with_intermediate	3,0,0,1,0,0,0,0,0	test	ward_and_allport	0,0,0,1,0,0,2,3,0	71.0	12.0	0.443	0,0,0,1,2,3,0,0,0	to_hand	s596
178.645	0.676	0	PA_with_intermediate	3,0,0,1,0,0,2,0,0	test	ward_and_allport	0,0,0,1,0,0,2,3,0	82.0	12.0	0.676	0,0,0,1,2,3,0,0,0	to_board	s596
179.324	0.79	0	PA_with_intermediate	0,0,0,1,0,0,2,0,0	test	ward_and_allport	0,0,0,1,0,0,2,3,0	89.0	12.0	0.79	0,0,0,1,2,3,0,0,0	to_hand	s596
180.115	0.574	0	PA_with_intermediate	0,0,0,1,0,0,2,3,0	test	ward_and_allport	0,0,0,1,0,0,2,3,0	82.0	12.0	0.574	0,0,0,1,2,3,0,0,0	to_board	s596
180.696	1.0	0	PA_with_intermediate	n/a	test	ward_and_allport	n/a	-1.0	12.0	n/a	n/a	feedback	s596
181.696	2.768	0	PA_with_intermediate	n/a	test	ward_and_allport	n/a	-1.0	12.0	n/a	n/a	ITI	s596
184.468	3.555	1	PA_with_intermediate	0,0,0,0,0,0,1,2,0	test	ward_and_allport	0,0,0,2,3,0,1,0,0	82.0	13.0	3.555	0,0,0,0,0,0,1,2,3	to_hand	s596
188.023	0.288	0	PA_with_intermediate	3,0,0,0,0,0,1,2,0	test	ward_and_allport	0,0,0,2,3,0,1,0,0	89.0	13.0	0.288	0,0,0,0,0,0,1,2,3	to_board	s596
188.315	1.06	0	PA_with_intermediate	3,0,0,0,0,0,1,0,0	test	ward_and_allport	0,0,0,2,3,0,1,0,0	82.0	13.0	1.06	0,0,0,0,0,0,1,2,3	to_hand	s596
189.376	0.414	0	PA_with_intermediate	3,0,0,2,0,0,1,0,0	test	ward_and_allport	0,0,0,2,3,0,1,0,0	71.0	13.0	0.414	0,0,0,0,0,0,1,2,3	to_board	s596
189.794	0.67	0	PA_with_intermediate	0,0,0,2,0,0,1,0,0	test	ward_and_allport	0,0,0,2,3,0,1,0,0	89.0	13.0	0.67	0,0,0,0,0,0,1,2,3	to_hand	s596
190.465	0.562	0	PA_with_intermediate	0,0,0,2,3,0,1,0,0	test	ward_and_allport	0,0,0,2,3,0,1,0,0	71.0	13.0	0.562	0,0,0,0,0,0,1,2,3	to_board	s596
191.036	1.0	0	PA_with_intermediate	n/a	test	ward_and_allport	n/a	-1.0	13.0	n/a	n/a	feedback	s596
192.036	1.68	0	PA_with_intermediate	n/a	test	ward_and_allport	n/a	-1.0	13.0	n/a	n/a	ITI	s596
193.72	3.066	1	PA_without_intermediate	1,2,0,0,0,0,0,0,0	test	ward_and_allport	0,0,0,3,1,0,2,0,0	89.0	14.0	3.066	1,2,3,0,0,0,0,0,0	to_hand	s596
196.787	0.397	0	PA_without_intermediate	1,2,0,3,0,0,0,0,0	test	ward_and_allport	0,0,0,3,1,0,2,0,0	71.0	14.0	0.397	1,2,3,0,0,0,0,0,0	to_board	s596
197.188	2.295	0	PA_without_intermediate	1,0,0,3,0,0,0,0,0	test	ward_and_allport	0,0,0,3,1,0,2,0,0	89.0	14.0	2.295	1,2,3,0,0,0,0,0,0	to_hand	s596
199.483	0.305	0	PA_without_intermediate	1,0,0,3,0,0,2,0,0	test	ward_and_allport	0,0,0,3,1,0,2,0,0	82.0	14.0	0.305	1,2,3,0,0,0,0,0,0	to_board	s596
199.791	0.781	0	PA_without_intermediate	0,0,0,3,0,0,2,0,0	test	ward_and_allport	0,0,0,3,1,0,2,0,0	89.0	14.0	0.781	1,2,3,0,0,0,0,0,0	to_hand	s596
200.573	0.607	0	PA_without_intermediate	0,0,0,3,1,0,2,0,0	test	ward_and_allport	0,0,0,3,1,0,2,0,0	71.0	14.0	0.607	1,2,3,0,0,0,0,0,0	to_board	s596
201.187	1.0	0	PA_without_intermediate	n/a	test	ward_and_allport	n/a	-1.0	14.0	n/a	n/a	feedback	s596
202.187	2.224	0	PA_without_intermediate	n/a	test	ward_and_allport	n/a	-1.0	14.0	n/a	n/a	ITI	s596
209.421	1.758	1	PA_without_intermediate	0,0,0,1,2,0,0,0,0	test	ward_and_allport	3,2,0,0,0,0,1,0,0	71.0	15.0	1.758	0,0,0,1,2,3,0,0,0	to_hand	s596
211.179	0.398	0	PA_without_intermediate	3,0,0,1,2,0,0,0,0	test	ward_and_allport	3,2,0,0,0,0,1,0,0	89.0	15.0	0.398	0,0,0,1,2,3,0,0,0	to_board	s596
211.582	0.583	0	PA_without_intermediate	3,0,0,1,0,0,0,0,0	test	ward_and_allport	3,2,0,0,0,0,1,0,0	71.0	15.0	0.583	0,0,0,1,2,3,0,0,0	to_hand	s596
212.166	0.359	0	PA_without_intermediate	3,2,0,1,0,0,0,0,0	test	ward_and_allport	3,2,0,0,0,0,1,0,0	89.0	15.0	0.359	0,0,0,1,2,3,0,0,0	to_board	s596
212.528	0.814	0	PA_without_intermediate	3,2,0,0,0,0,0,0,0	test	ward_and_allport	3,2,0,0,0,0,1,0,0	71.0	15.0	0.814	0,0,0,1,2,3,0,0,0	to_hand	s596
213.344	0.364	0	PA_without_intermediate	3,2,0,0,0,0,1,0,0	test	ward_and_allport	3,2,0,0,0,0,1,0,0	82.0	15.0	0.364	0,0,0,1,2,3,0,0,0	to_board	s596
213.719	1.0	0	PA_without_intermediate	n/a	test	ward_and_allport	n/a	-1.0	15.0	n/a	n/a	feedback	s596
214.719	2.36	0	PA_without_intermediate	n/a	test	ward_and_allport	n/a	-1.0	15.0	n/a	n/a	ITI	s596
217.083	3.523	1	PA_without_intermediate	0,0,0,0,0,0,1,2,0	test	ward_and_allport	1,0,0,3,2,0,0,0,0	82.0	16.0	3.523	0,0,0,0,0,0,1,2,3	to_hand	s596
220.608	0.54	0	PA_without_intermediate	0,0,0,3,0,0,1,2,0	test	ward_and_allport	1,0,0,3,2,0,0,0,0	71.0	16.0	0.54	0,0,0,0,0,0,1,2,3	to_board	s596
221.153	1.034	0	PA_without_intermediate	0,0,0,3,0,0,1,0,0	test	ward_and_allport	1,0,0,3,2,0,0,0,0	82.0	16.0	1.034	0,0,0,0,0,0,1,2,3	to_hand	s596
222.188	0.86	0	PA_without_intermediate	0,0,0,3,2,0,1,0,0	test	ward_and_allport	1,0,0,3,2,0,0,0,0	71.0	16.0	0.86	0,0,0,0,0,0,1,2,3	to_board	s596
223.052	0.572	0	PA_without_intermediate	0,0,0,3,2,0,0,0,0	test	ward_and_allport	1,0,0,3,2,0,0,0,0	82.0	16.0	0.572	0,0,0,0,0,0,1,2,3	to_hand	s596
223.625	0.343	0	PA_without_intermediate	1,0,0,3,2,0,0,0,0	test	ward_and_allport	1,0,0,3,2,0,0,0,0	89.0	16.0	0.343	0,0,0,0,0,0,1,2,3	to_board	s596
223.973	1.0	0	PA_without_intermediate	n/a	test	ward_and_allport	n/a	-1.0	16.0	n/a	n/a	feedback	s596
224.973	1.0	0	PA_without_intermediate	n/a	test	ward_and_allport	n/a	-1.0	16.0	n/a	n/a	ITI	s596
225.978	2.171	1	PA_without_intermediate	1,2,0,0,0,0,0,0,0	test	ward_and_allport	0,0,0,3,2,0,1,0,0	89.0	17.0	2.171	1,2,3,0,0,0,0,0,0	to_hand	s596
228.15	0.387	0	PA_without_intermediate	1,2,0,3,0,0,0,0,0	test	ward_and_allport	0,0,0,3,2,0,1,0,0	71.0	17.0	0.387	1,2,3,0,0,0,0,0,0	to_board	s596
228.542	0.983	0	PA_without_intermediate	1,0,0,3,0,0,0,0,0	test	ward_and_allport	0,0,0,3,2,0,1,0,0	89.0	17.0	0.983	1,2,3,0,0,0,0,0,0	to_hand	s596
229.526	0.399	0	PA_without_intermediate	1,0,0,3,2,0,0,0,0	test	ward_and_allport	0,0,0,3,2,0,1,0,0	71.0	17.0	0.399	1,2,3,0,0,0,0,0,0	to_board	s596
229.928	0.512	0	PA_without_intermediate	0,0,0,3,2,0,0,0,0	test	ward_and_allport	0,0,0,3,2,0,1,0,0	89.0	17.0	0.512	1,2,3,0,0,0,0,0,0	to_hand	s596
230.442	0.401	0	PA_without_intermediate	0,0,0,3,2,0,1,0,0	test	ward_and_allport	0,0,0,3,2,0,1,0,0	82.0	17.0	0.401	1,2,3,0,0,0,0,0,0	to_board	s596
230.849	1.0	0	PA_without_intermediate	n/a	test	ward_and_allport	n/a	-1.0	17.0	n/a	n/a	feedback	s596
231.849	1.408	0	PA_without_intermediate	n/a	test	ward_and_allport	n/a	-1.0	17.0	n/a	n/a	ITI	s596
233.262	3.591	1	PA_with_intermediate	1,2,0,0,0,0,0,0,0	test	ward_and_allport	1,0,0,0,0,0,2,3,0	89.0	18.0	3.591	1,2,3,0,0,0,0,0,0	to_hand	s596
236.854	0.358	0	PA_with_intermediate	1,2,0,3,0,0,0,0,0	test	ward_and_allport	1,0,0,0,0,0,2,3,0	71.0	18.0	0.358	1,2,3,0,0,0,0,0,0	to_board	s596
237.217	0.423	0	PA_with_intermediate	1,0,0,3,0,0,0,0,0	test	ward_and_allport	1,0,0,0,0,0,2,3,0	89.0	18.0	0.423	1,2,3,0,0,0,0,0,0	to_hand	s596
237.64	0.524	0	PA_with_intermediate	1,0,0,3,0,0,2,0,0	test	ward_and_allport	1,0,0,0,0,0,2,3,0	82.0	18.0	0.524	1,2,3,0,0,0,0,0,0	to_board	s596
238.168	0.411	0	PA_with_intermediate	1,0,0,0,0,0,2,0,0	test	ward_and_allport	1,0,0,0,0,0,2,3,0	71.0	18.0	0.411	1,2,3,0,0,0,0,0,0	to_hand	s596
238.58	0.523	0	PA_with_intermediate	1,0,0,0,0,0,2,3,0	test	ward_and_allport	1,0,0,0,0,0,2,3,0	82.0	18.0	0.523	1,2,3,0,0,0,0,0,0	to_board	s596
239.108	1.0	0	PA_with_intermediate	n/a	test	ward_and_allport	n/a	-1.0	18.0	n/a	n/a	feedback	s596
240.108	1.136	0	PA_with_intermediate	n/a	test	ward_and_allport	n/a	-1.0	18.0	n/a	n/a	ITI	s596
241.249	2.113	1	PA_without_intermediate	0,0,0,1,2,0,0,0,0	test	ward_and_allport	3,1,0,0,0,0,2,0,0	71.0	19.0	2.113	0,0,0,1,2,3,0,0,0	to_hand	s596
243.362	0.358	0	PA_without_intermediate	3,0,0,1,2,0,0,0,0	test	ward_and_allport	3,1,0,0,0,0,2,0,0	89.0	19.0	0.358	0,0,0,1,2,3,0,0,0	to_board	s596
243.725	0.831	0	PA_without_intermediate	3,0,0,1,0,0,0,0,0	test	ward_and_allport	3,1,0,0,0,0,2,0,0	71.0	19.0	0.831	0,0,0,1,2,3,0,0,0	to_hand	s596
244.557	0.359	0	PA_without_intermediate	3,0,0,1,0,0,2,0,0	test	ward_and_allport	3,1,0,0,0,0,2,0,0	82.0	19.0	0.359	0,0,0,1,2,3,0,0,0	to_board	s596
244.921	0.798	0	PA_without_intermediate	3,0,0,0,0,0,2,0,0	test	ward_and_allport	3,1,0,0,0,0,2,0,0	71.0	19.0	0.798	0,0,0,1,2,3,0,0,0	to_hand	s596
245.72	0.368	0	PA_without_intermediate	3,1,0,0,0,0,2,0,0	test	ward_and_allport	3,1,0,0,0,0,2,0,0	89.0	19.0	0.368	0,0,0,1,2,3,0,0,0	to_board	s596
246.096	1.0	0	PA_without_intermediate	n/a	test	ward_and_allport	n/a	-1.0	19.0	n/a	n/a	feedback	s596
247.096	4.128	0	PA_without_intermediate	n/a	test	ward_and_allport	n/a	-1.0	19.0	n/a	n/a	ITI	s596
251.228	1.881	1	PA_without_intermediate	0,0,0,1,2,0,0,0,0	test	ward_and_allport	2,0,0,0,0,0,3,1,0	71.0	20.0	1.881	0,0,0,1,2,3,0,0,0	to_hand	s596
253.109	0.318	0	PA_without_intermediate	0,0,0,1,2,0,3,0,0	test	ward_and_allport	2,0,0,0,0,0,3,1,0	82.0	20.0	0.318	0,0,0,1,2,3,0,0,0	to_board	s596
253.431	0.353	0	PA_without_intermediate	0,0,0,1,0,0,3,0,0	test	ward_and_allport	2,0,0,0,0,0,3,1,0	71.0	20.0	0.353	0,0,0,1,2,3,0,0,0	to_hand	s596
253.786	0.359	0	PA_without_intermediate	2,0,0,1,0,0,3,0,0	test	ward_and_allport	2,0,0,0,0,0,3,1,0	89.0	20.0	0.359	0,0,0,1,2,3,0,0,0	to_board	s596
254.149	0.383	0	PA_without_intermediate	2,0,0,0,0,0,3,0,0	test	ward_and_allport	2,0,0,0,0,0,3,1,0	71.0	20.0	0.383	0,0,0,1,2,3,0,0,0	to_hand	s596
254.534	0.446	0	PA_without_intermediate	2,0,0,0,0,0,3,1,0	test	ward_and_allport	2,0,0,0,0,0,3,1,0	82.0	20.0	0.446	0,0,0,1,2,3,0,0,0	to_board	s596
254.987	1.0	0	PA_without_intermediate	n/a	test	ward_and_allport	n/a	-1.0	20.0	n/a	n/a	feedback	s596
255.987	1.136	0	PA_without_intermediate	n/a	test	ward_and_allport	n/a	-1.0	20.0	n/a	n/a	ITI	s596
257.127	2.479	1	PA_without_intermediate	0,0,0,0,0,0,1,2,0	test	ward_and_allport	3,2,0,1,0,0,0,0,0	82.0	21.0	2.479	0,0,0,0,0,0,1,2,3	to_hand	s596
259.607	0.35	0	PA_without_intermediate	3,0,0,0,0,0,1,2,0	test	ward_and_allport	3,2,0,1,0,0,0,0,0	89.0	21.0	0.35	0,0,0,0,0,0,1,2,3	to_board	s596
259.963	0.666	0	PA_without_intermediate	3,0,0,0,0,0,1,0,0	test	ward_and_allport	3,2,0,1,0,0,0,0,0	82.0	21.0	0.666	0,0,0,0,0,0,1,2,3	to_hand	s596
260.63	0.808	0	PA_without_intermediate	3,2,0,0,0,0,1,0,0	test	ward_and_allport	3,2,0,1,0,0,0,0,0	89.0	21.0	0.808	0,0,0,0,0,0,1,2,3	to_board	s596
261.444	1.538	0	PA_without_intermediate	3,2,0,0,0,0,0,0,0	test	ward_and_allport	3,2,0,1,0,0,0,0,0	82.0	21.0	1.538	0,0,0,0,0,0,1,2,3	to_hand	s596
262.982	0.424	0	PA_without_intermediate	3,2,0,1,0,0,0,0,0	test	ward_and_allport	3,2,0,1,0,0,0,0,0	71.0	21.0	0.424	0,0,0,0,0,0,1,2,3	to_board	s596
263.416	1.0	0	PA_without_intermediate	n/a	test	ward_and_allport	n/a	-1.0	21.0	n/a	n/a	feedback	s596
264.416	4.264	0	PA_without_intermediate	n/a	test	ward_and_allport	n/a	-1.0	21.0	n/a	n/a	ITI	s596
268.687	3.916	1	PA_with_intermediate	1,2,0,0,0,0,0,0,0	test	ward_and_allport	1,3,0,2,0,0,0,0,0	89.0	22.0	3.916	1,2,3,0,0,0,0,0,0	to_hand	s596
272.604	0.367	0	PA_with_intermediate	1,2,0,0,0,0,3,0,0	test	ward_and_allport	1,3,0,2,0,0,0,0,0	82.0	22.0	0.367	1,2,3,0,0,0,0,0,0	to_board	s596
272.976	1.242	0	PA_with_intermediate	1,0,0,0,0,0,3,0,0	test	ward_and_allport	1,3,0,2,0,0,0,0,0	89.0	22.0	1.242	1,2,3,0,0,0,0,0,0	to_hand	s596
274.219	0.596	0	PA_with_intermediate	1,0,0,2,0,0,3,0,0	test	ward_and_allport	1,3,0,2,0,0,0,0,0	71.0	22.0	0.596	1,2,3,0,0,0,0,0,0	to_board	s596
274.821	1.004	0	PA_with_intermediate	1,0,0,2,0,0,0,0,0	test	ward_and_allport	1,3,0,2,0,0,0,0,0	82.0	22.0	1.004	1,2,3,0,0,0,0,0,0	to_hand	s596
275.826	0.42	0	PA_with_intermediate	1,3,0,2,0,0,0,0,0	test	ward_and_allport	1,3,0,2,0,0,0,0,0	89.0	22.0	0.42	1,2,3,0,0,0,0,0,0	to_board	s596
276.257	1.0	0	PA_with_intermediate	n/a	test	ward_and_allport	n/a	-1.0	22.0	n/a	n/a	feedback	s596
277.257	3.04	0	PA_with_intermediate	n/a	test	ward_and_allport	n/a	-1.0	22.0	n/a	n/a	ITI	s596
280.305	3.297	1	PA_with_intermediate	0,0,0,1,2,0,0,0,0	test	ward_and_allport	2,0,0,1,3,0,0,0,0	71.0	23.0	3.297	0,0,0,1,2,3,0,0,0	to_hand	s596
283.603	0.471	0	PA_with_intermediate	0,0,0,1,2,0,3,0,0	test	ward_and_allport	2,0,0,1,3,0,0,0,0	82.0	23.0	0.471	0,0,0,1,2,3,0,0,0	to_board	s596
284.08	1.053	0	PA_with_intermediate	0,0,0,1,0,0,3,0,0	test	ward_and_allport	2,0,0,1,3,0,0,0,0	71.0	23.0	1.053	0,0,0,1,2,3,0,0,0	to_hand	s596
285.134	0.345	0	PA_with_intermediate	2,0,0,1,0,0,3,0,0	test	ward_and_allport	2,0,0,1,3,0,0,0,0	89.0	23.0	0.345	0,0,0,1,2,3,0,0,0	to_board	s596
285.485	1.092	0	PA_with_intermediate	2,0,0,1,0,0,0,0,0	test	ward_and_allport	2,0,0,1,3,0,0,0,0	82.0	23.0	1.092	0,0,0,1,2,3,0,0,0	to_hand	s596
286.578	0.737	0	PA_with_intermediate	2,0,0,1,3,0,0,0,0	test	ward_and_allport	2,0,0,1,3,0,0,0,0	71.0	23.0	0.737	0,0,0,1,2,3,0,0,0	to_board	s596
287.323	1.0	0	PA_with_intermediate	n/a	test	ward_and_allport	n/a	-1.0	23.0	n/a	n/a	feedback	s596
288.323	1.136	0	PA_with_intermediate	n/a	test	ward_and_allport	n/a	-1.0	23.0	n/a	n/a	ITI	s596
289.466	2.805	1	PA_with_intermediate	1,2,0,0,0,0,0,0,0	test	ward_and_allport	1,3,0,2,0,0,0,0,0	89.0	24.0	2.805	1,2,3,0,0,0,0,0,0	to_hand	s596
292.272	0.407	0	PA_with_intermediate	1,2,0,0,0,0,3,0,0	test	ward_and_allport	1,3,0,2,0,0,0,0,0	82.0	24.0	0.407	1,2,3,0,0,0,0,0,0	to_board	s596
292.684	1.089	0	PA_with_intermediate	1,0,0,0,0,0,3,0,0	test	ward_and_allport	1,3,0,2,0,0,0,0,0	89.0	24.0	1.089	1,2,3,0,0,0,0,0,0	to_hand	s596
293.775	0.424	0	PA_with_intermediate	1,0,0,2,0,0,3,0,0	test	ward_and_allport	1,3,0,2,0,0,0,0,0	71.0	24.0	0.424	1,2,3,0,0,0,0,0,0	to_board	s596
294.204	1.056	0	PA_with_intermediate	1,0,0,2,0,0,0,0,0	test	ward_and_allport	1,3,0,2,0,0,0,0,0	82.0	24.0	1.056	1,2,3,0,0,0,0,0,0	to_hand	s596
295.261	0.449	0	PA_with_intermediate	1,3,0,2,0,0,0,0,0	test	ward_and_allport	1,3,0,2,0,0,0,0,0	89.0	24.0	0.449	1,2,3,0,0,0,0,0,0	to_board	s596
295.718	1.0	0	PA_with_intermediate	n/a	test	ward_and_allport	n/a	-1.0	24.0	n/a	n/a	feedback	s596
296.718	1.408	0	PA_with_intermediate	n/a	test	ward_and_allport	n/a	-1.0	24.0	n/a	n/a	ITI	s596
298.133	1.935	1	PA_without_intermediate	0,0,0,1,2,0,0,0,0	test	ward_and_allport	2,0,0,0,0,0,3,1,0	71.0	25.0	1.935	0,0,0,1,2,3,0,0,0	to_hand	s596
300.069	0.368	0	PA_without_intermediate	0,0,0,1,2,0,3,0,0	test	ward_and_allport	2,0,0,0,0,0,3,1,0	82.0	25.0	0.368	0,0,0,1,2,3,0,0,0	to_board	s596
300.442	0.916	0	PA_without_intermediate	0,0,0,1,0,0,3,0,0	test	ward_and_allport	2,0,0,0,0,0,3,1,0	71.0	25.0	0.916	0,0,0,1,2,3,0,0,0	to_hand	s596
301.36	0.342	0	PA_without_intermediate	2,0,0,1,0,0,3,0,0	test	ward_and_allport	2,0,0,0,0,0,3,1,0	89.0	25.0	0.342	0,0,0,1,2,3,0,0,0	to_board	s596
301.709	0.444	0	PA_without_intermediate	2,0,0,0,0,0,3,0,0	test	ward_and_allport	2,0,0,0,0,0,3,1,0	71.0	25.0	0.444	0,0,0,1,2,3,0,0,0	to_hand	s596
302.154	0.465	0	PA_without_intermediate	2,0,0,0,0,0,3,1,0	test	ward_and_allport	2,0,0,0,0,0,3,1,0	82.0	25.0	0.465	0,0,0,1,2,3,0,0,0	to_board	s596
302.629	1.0	0	PA_without_intermediate	n/a	test	ward_and_allport	n/a	-1.0	25.0	n/a	n/a	feedback	s596
303.629	1.68	0	PA_without_intermediate	n/a	test	ward_and_allport	n/a	-1.0	25.0	n/a	n/a	ITI	s596
305.319	2.648	1	PA_with_intermediate	0,0,0,0,0,0,1,2,0	test	ward_and_allport	2,0,0,0,0,0,1,3,0	82.0	26.0	2.648	0,0,0,0,0,0,1,2,3	to_hand	s596
307.968	0.319	0	PA_with_intermediate	0,0,0,3,0,0,1,2,0	test	ward_and_allport	2,0,0,0,0,0,1,3,0	71.0	26.0	0.319	0,0,0,0,0,0,1,2,3	to_board	s596
308.293	1.009	0	PA_with_intermediate	0,0,0,3,0,0,1,0,0	test	ward_and_allport	2,0,0,0,0,0,1,3,0	82.0	26.0	1.009	0,0,0,0,0,0,1,2,3	to_hand	s596
309.302	0.331	0	PA_with_intermediate	2,0,0,3,0,0,1,0,0	test	ward_and_allport	2,0,0,0,0,0,1,3,0	89.0	26.0	0.331	0,0,0,0,0,0,1,2,3	to_board	s596
309.64	1.571	0	PA_with_intermediate	2,0,0,0,0,0,1,0,0	test	ward_and_allport	2,0,0,0,0,0,1,3,0	71.0	26.0	1.571	0,0,0,0,0,0,1,2,3	to_hand	s596
311.212	0.374	0	PA_with_intermediate	2,0,0,0,0,0,1,3,0	test	ward_and_allport	2,0,0,0,0,0,1,3,0	82.0	26.0	0.374	0,0,0,0,0,0,1,2,3	to_board	s596
311.594	1.0	0	PA_with_intermediate	n/a	test	ward_and_allport	n/a	-1.0	26.0	n/a	n/a	feedback	s596
312.594	3.72	0	PA_with_intermediate	n/a	test	ward_and_allport	n/a	-1.0	26.0	n/a	n/a	ITI	s596
316.32	2.996	1	PA_without_intermediate	1,2,0,0,0,0,0,0,0	test	ward_and_allport	0,0,0,2,0,0,3,1,0	89.0	27.0	2.996	1,2,3,0,0,0,0,0,0	to_hand	s596
319.317	0.685	0	PA_without_intermediate	1,2,0,0,0,0,3,0,0	test	ward_and_allport	0,0,0,2,0,0,3,1,0	82.0	27.0	0.685	1,2,3,0,0,0,0,0,0	to_board	s596
320.009	1.449	0	PA_without_intermediate	1,0,0,0,0,0,3,0,0	test	ward_and_allport	0,0,0,2,0,0,3,1,0	89.0	27.0	1.449	1,2,3,0,0,0,0,0,0	to_hand	s596
321.459	0.423	0	PA_without_intermediate	1,0,0,2,0,0,3,0,0	test	ward_and_allport	0,0,0,2,0,0,3,1,0	71.0	27.0	0.423	1,2,3,0,0,0,0,0,0	to_board	s596
321.888	0.491	0	PA_without_intermediate	0,0,0,2,0,0,3,0,0	test	ward_and_allport	0,0,0,2,0,0,3,1,0	89.0	27.0	0.491	1,2,3,0,0,0,0,0,0	to_hand	s596
322.379	0.464	0	PA_without_intermediate	0,0,0,2,0,0,3,1,0	test	ward_and_allport	0,0,0,2,0,0,3,1,0	82.0	27.0	0.464	1,2,3,0,0,0,0,0,0	to_board	s596
322.855	1.0	0	PA_without_intermediate	n/a	test	ward_and_allport	n/a	-1.0	27.0	n/a	n/a	feedback	s596
323.855	2.224	0	PA_without_intermediate	n/a	test	ward_and_allport	n/a	-1.0	27.0	n/a	n/a	ITI	s596
326.086	2.448	1	PA_without_intermediate	1,2,0,0,0,0,0,0,0	test	ward_and_allport	0,0,0,2,0,0,3,1,0	89.0	28.0	2.448	1,2,3,0,0,0,0,0,0	to_hand	s596
328.535	0.604	0	PA_without_intermediate	1,2,0,0,0,0,3,0,0	test	ward_and_allport	0,0,0,2,0,0,3,1,0	82.0	28.0	0.604	1,2,3,0,0,0,0,0,0	to_board	s596
329.146	1.171	0	PA_without_intermediate	1,0,0,0,0,0,3,0,0	test	ward_and_allport	0,0,0,2,0,0,3,1,0	89.0	28.0	1.171	1,2,3,0,0,0,0,0,0	to_hand	s596
330.317	0.694	0	PA_without_intermediate	1,0,0,2,0,0,3,0,0	test	ward_and_allport	0,0,0,2,0,0,3,1,0	71.0	28.0	0.694	1,2,3,0,0,0,0,0,0	to_board	s596
331.018	0.42	0	PA_without_intermediate	0,0,0,2,0,0,3,0,0	test	ward_and_allport	0,0,0,2,0,0,3,1,0	89.0	28.0	0.42	1,2,3,0,0,0,0,0,0	to_hand	s596
331.438	0.501	0	PA_without_intermediate	0,0,0,2,0,0,3,1,0	test	ward_and_allport	0,0,0,2,0,0,3,1,0	82.0	28.0	0.501	1,2,3,0,0,0,0,0,0	to_board	s596
331.946	1.0	0	PA_without_intermediate	n/a	test	ward_and_allport	n/a	-1.0	28.0	n/a	n/a	feedback	s596
332.946	1.272	0	PA_without_intermediate	n/a	test	ward_and_allport	n/a	-1.0	28.0	n/a	n/a	ITI	s596
334.224	2.54	1	PA_with_intermediate	0,0,0,1,2,0,0,0,0	test	ward_and_allport	0,0,0,1,3,0,2,0,0	71.0	29.0	2.54	0,0,0,1,2,3,0,0,0	to_hand	s596
336.766	0.269	0	PA_with_intermediate	3,0,0,1,2,0,0,0,0	test	ward_and_allport	0,0,0,1,3,0,2,0,0	89.0	29.0	0.269	0,0,0,1,2,3,0,0,0	to_board	s596
337.041	0.372	0	PA_with_intermediate	3,0,0,1,0,0,0,0,0	test	ward_and_allport	0,0,0,1,3,0,2,0,0	71.0	29.0	0.372	0,0,0,1,2,3,0,0,0	to_hand	s596
337.414	0.481	0	PA_with_intermediate	3,0,0,1,0,0,2,0,0	test	ward_and_allport	0,0,0,1,3,0,2,0,0	82.0	29.0	0.481	0,0,0,1,2,3,0,0,0	to_board	s596
337.901	0.633	0	PA_with_intermediate	0,0,0,1,0,0,2,0,0	test	ward_and_allport	0,0,0,1,3,0,2,0,0	89.0	29.0	0.633	0,0,0,1,2,3,0,0,0	to_hand	s596
338.535	0.413	0	PA_with_intermediate	0,0,0,1,3,0,2,0,0	test	ward_and_allport	0,0,0,1,3,0,2,0,0	71.0	29.0	0.413	0,0,0,1,2,3,0,0,0	to_board	s596
338.955	1.0	0	PA_with_intermediate	n/a	test	ward_and_allport	n/a	-1.0	29.0	n/a	n/a	feedback	s596
339.955	2.632	0	PA_with_intermediate	n/a	test	ward_and_allport	n/a	-1.0	29.0	n/a	n/a	ITI	s596
347.596	2.748	1	PA_without_intermediate	0,0,0,0,0,0,1,2,0	test	ward_and_allport	3,1,0,2,0,0,0,0,0	82.0	30.0	2.748	0,0,0,0,0,0,1,2,3	to_hand	s596
350.346	0.298	0	PA_without_intermediate	3,0,0,0,0,0,1,2,0	test	ward_and_allport	3,1,0,2,0,0,0,0,0	89.0	30.0	0.298	0,0,0,0,0,0,1,2,3	to_board	s596
350.652	1.592	0	PA_without_intermediate	3,0,0,0,0,0,1,0,0	test	ward_and_allport	3,1,0,2,0,0,0,0,0	82.0	30.0	1.592	0,0,0,0,0,0,1,2,3	to_hand	s596
352.246	0.408	0	PA_without_intermediate	3,0,0,2,0,0,1,0,0	test	ward_and_allport	3,1,0,2,0,0,0,0,0	71.0	30.0	0.408	0,0,0,0,0,0,1,2,3	to_board	s596
352.661	0.892	0	PA_without_intermediate	3,0,0,2,0,0,0,0,0	test	ward_and_allport	3,1,0,2,0,0,0,0,0	82.0	30.0	0.892	0,0,0,0,0,0,1,2,3	to_hand	s596
353.554	0.309	0	PA_without_intermediate	3,1,0,2,0,0,0,0,0	test	ward_and_allport	3,1,0,2,0,0,0,0,0	89.0	30.0	0.309	0,0,0,0,0,0,1,2,3	to_board	s596
353.875	1.0	0	PA_without_intermediate	n/a	test	ward_and_allport	n/a	-1.0	30.0	n/a	n/a	feedback	s596
354.875	1.408	0	PA_without_intermediate	n/a	test	ward_and_allport	n/a	-1.0	30.0	n/a	n/a	ITI	s596
356.291	9.164	1	PA_without_intermediate	0,0,0,0,0,0,1,2,0	test	ward_and_allport	2,0,0,3,1,0,0,0,0	82.0	31.0	9.164	0,0,0,0,0,0,1,2,3	to_hand	s596
365.456	1.968	0	PA_without_intermediate	3,0,0,0,0,0,1,2,0	test	ward_and_allport	2,0,0,3,1,0,0,0,0	89.0	31.0	1.968	0,0,0,0,0,0,1,2,3	to_board	s596
367.431	1.799	0	PA_without_intermediate	3,0,0,0,0,0,1,0,0	test	ward_and_allport	2,0,0,3,1,0,0,0,0	82.0	31.0	1.799	0,0,0,0,0,0,1,2,3	to_hand	s596
369.231	0.766	0	PA_without_intermediate	3,0,0,2,0,0,1,0,0	test	ward_and_allport	2,0,0,3,1,0,0,0,0	71.0	31.0	0.766	0,0,0,0,0,0,1,2,3	to_board	s596
370.005	5.914	0	PA_without_intermediate	3,0,0,0,0,0,1,0,0	test	ward_and_allport	2,0,0,3,1,0,0,0,0	71.0	31.0	5.914	0,0,0,0,0,0,1,2,3	to_hand	s596
375.92	0.549	0	PA_without_intermediate	3,0,0,0,0,0,1,2,0	test	ward_and_allport	2,0,0,3,1,0,0,0,0	82.0	31.0	0.549	0,0,0,0,0,0,1,2,3	to_board	s596
376.478	1.034	0	PA_without_intermediate	0,0,0,0,0,0,1,2,0	test	ward_and_allport	2,0,0,3,1,0,0,0,0	89.0	31.0	1.034	0,0,0,0,0,0,1,2,3	to_hand	s596
377.513	0.421	0	PA_without_intermediate	0,0,0,3,0,0,1,2,0	test	ward_and_allport	2,0,0,3,1,0,0,0,0	71.0	31.0	0.421	0,0,0,0,0,0,1,2,3	to_board	s596
377.941	1.091	0	PA_without_intermediate	0,0,0,3,0,0,1,0,0	test	ward_and_allport	2,0,0,3,1,0,0,0,0	82.0	31.0	1.091	0,0,0,0,0,0,1,2,3	to_hand	s596
379.033	0.47	0	PA_without_intermediate	2,0,0,3,0,0,1,0,0	test	ward_and_allport	2,0,0,3,1,0,0,0,0	89.0	31.0	0.47	0,0,0,0,0,0,1,2,3	to_board	s596
379.511	0.936	0	PA_without_intermediate	2,0,0,3,0,0,0,0,0	test	ward_and_allport	2,0,0,3,1,0,0,0,0	82.0	31.0	0.936	0,0,0,0,0,0,1,2,3	to_hand	s596
380.448	0.707	0	PA_without_intermediate	2,0,0,3,1,0,0,0,0	test	ward_and_allport	2,0,0,3,1,0,0,0,0	71.0	31.0	0.707	0,0,0,0,0,0,1,2,3	to_board	s596
381.168	1.0	0	PA_without_intermediate	n/a	test	ward_and_allport	n/a	-1.0	31.0	n/a	n/a	feedback	s596
382.168	1.0	0	PA_without_intermediate	n/a	test	ward_and_allport	n/a	-1.0	31.0	n/a	n/a	ITI	s596
383.175	3.498	1	PA_with_intermediate	1,2,0,0,0,0,0,0,0	test	ward_and_allport	1,0,0,2,3,0,0,0,0	89.0	32.0	3.498	1,2,3,0,0,0,0,0,0	to_hand	s596
386.674	0.346	0	PA_with_intermediate	1,2,0,0,0,0,3,0,0	test	ward_and_allport	1,0,0,2,3,0,0,0,0	82.0	32.0	0.346	1,2,3,0,0,0,0,0,0	to_board	s596
387.025	1.476	0	PA_with_intermediate	1,0,0,0,0,0,3,0,0	test	ward_and_allport	1,0,0,2,3,0,0,0,0	89.0	32.0	1.476	1,2,3,0,0,0,0,0,0	to_hand	s596
388.503	0.273	0	PA_with_intermediate	1,0,0,2,0,0,3,0,0	test	ward_and_allport	1,0,0,2,3,0,0,0,0	71.0	32.0	0.273	1,2,3,0,0,0,0,0,0	to_board	s596
388.783	1.899	0	PA_with_intermediate	1,0,0,2,0,0,0,0,0	test	ward_and_allport	1,0,0,2,3,0,0,0,0	82.0	32.0	1.899	1,2,3,0,0,0,0,0,0	to_hand	s596
390.683	0.357	0	PA_with_intermediate	1,0,0,2,3,0,0,0,0	test	ward_and_allport	1,0,0,2,3,0,0,0,0	71.0	32.0	0.357	1,2,3,0,0,0,0,0,0	to_board	s596
391.05	1.0	0	PA_with_intermediate	n/a	test	ward_and_allport	n/a	-1.0	32.0	n/a	n/a	feedback	s596
392.05	1.0	0	PA_with_intermediate	n/a	test	ward_and_allport	n/a	-1.0	32.0	n/a	n/a	ITI	s596
393.059	3.398	1	PA_with_intermediate	0,0,0,1,2,0,0,0,0	test	ward_and_allport	2,3,0,1,0,0,0,0,0	71.0	33.0	3.398	0,0,0,1,2,3,0,0,0	to_hand	s596
396.457	0.471	0	PA_with_intermediate	0,0,0,1,2,0,3,0,0	test	ward_and_allport	2,3,0,1,0,0,0,0,0	82.0	33.0	0.471	0,0,0,1,2,3,0,0,0	to_board	s596
396.937	0.737	0	PA_with_intermediate	0,0,0,1,0,0,3,0,0	test	ward_and_allport	2,3,0,1,0,0,0,0,0	71.0	33.0	0.737	0,0,0,1,2,3,0,0,0	to_hand	s596
397.675	0.401	0	PA_with_intermediate	2,0,0,1,0,0,3,0,0	test	ward_and_allport	2,3,0,1,0,0,0,0,0	89.0	33.0	0.401	0,0,0,1,2,3,0,0,0	to_board	s596
398.084	2.53	0	PA_with_intermediate	2,0,0,1,0,0,0,0,0	test	ward_and_allport	2,3,0,1,0,0,0,0,0	82.0	33.0	2.53	0,0,0,1,2,3,0,0,0	to_hand	s596
400.616	0.293	0	PA_with_intermediate	2,3,0,1,0,0,0,0,0	test	ward_and_allport	2,3,0,1,0,0,0,0,0	89.0	33.0	0.293	0,0,0,1,2,3,0,0,0	to_board	s596
400.919	1.0	0	PA_with_intermediate	n/a	test	ward_and_allport	n/a	-1.0	33.0	n/a	n/a	feedback	s596
401.919	1.0	0	PA_with_intermediate	n/a	test	ward_and_allport	n/a	-1.0	33.0	n/a	n/a	ITI	s596
402.929	3.364	1	PA_with_intermediate	0,0,0,1,2,0,0,0,0	test	ward_and_allport	2,3,0,1,0,0,0,0,0	71.0	34.0	3.364	0,0,0,1,2,3,0,0,0	to_hand	s596
406.293	0.504	0	PA_with_intermediate	0,0,0,1,2,0,3,0,0	test	ward_and_allport	2,3,0,1,0,0,0,0,0	82.0	34.0	0.504	0,0,0,1,2,3,0,0,0	to_board	s596
406.804	1.013	0	PA_with_intermediate	0,0,0,1,0,0,3,0,0	test	ward_and_allport	2,3,0,1,0,0,0,0,0	71.0	34.0	1.013	0,0,0,1,2,3,0,0,0	to_hand	s596
407.818	0.31	0	PA_with_intermediate	2,0,0,1,0,0,3,0,0	test	ward_and_allport	2,3,0,1,0,0,0,0,0	89.0	34.0	0.31	0,0,0,1,2,3,0,0,0	to_board	s596
408.136	0.683	0	PA_with_intermediate	2,0,0,0,0,0,3,0,0	test	ward_and_allport	2,3,0,1,0,0,0,0,0	71.0	34.0	0.683	0,0,0,1,2,3,0,0,0	to_hand	s596
408.821	0.875	0	PA_with_intermediate	2,0,0,1,0,0,3,0,0	test	ward_and_allport	2,3,0,1,0,0,0,0,0	71.0	34.0	0.875	0,0,0,1,2,3,0,0,0	to_board	s596
409.705	0.983	0	PA_with_intermediate	2,0,0,1,0,0,0,0,0	test	ward_and_allport	2,3,0,1,0,0,0,0,0	82.0	34.0	0.983	0,0,0,1,2,3,0,0,0	to_hand	s596
410.688	0.28	0	PA_with_intermediate	2,3,0,1,0,0,0,0,0	test	ward_and_allport	2,3,0,1,0,0,0,0,0	89.0	34.0	0.28	0,0,0,1,2,3,0,0,0	to_board	s596
410.978	1.0	0	PA_with_intermediate	n/a	test	ward_and_allport	n/a	-1.0	34.0	n/a	n/a	feedback	s596
411.978	1.408	0	PA_with_intermediate	n/a	test	ward_and_allport	n/a	-1.0	34.0	n/a	n/a	ITI	s596
413.391	2.744	1	PA_without_intermediate	0,0,0,0,0,0,1,2,0	test	ward_and_allport	3,1,0,2,0,0,0,0,0	82.0	35.0	2.744	0,0,0,0,0,0,1,2,3	to_hand	s596
416.136	0.263	0	PA_without_intermediate	3,0,0,0,0,0,1,2,0	test	ward_and_allport	3,1,0,2,0,0,0,0,0	89.0	35.0	0.263	0,0,0,0,0,0,1,2,3	to_board	s596
416.405	1.922	0	PA_without_intermediate	3,0,0,0,0,0,1,0,0	test	ward_and_allport	3,1,0,2,0,0,0,0,0	82.0	35.0	1.922	0,0,0,0,0,0,1,2,3	to_hand	s596
418.327	0.268	0	PA_without_intermediate	3,0,0,2,0,0,1,0,0	test	ward_and_allport	3,1,0,2,0,0,0,0,0	71.0	35.0	0.268	0,0,0,0,0,0,1,2,3	to_board	s596
418.603	1.361	0	PA_without_intermediate	3,0,0,2,0,0,0,0,0	test	ward_and_allport	3,1,0,2,0,0,0,0,0	82.0	35.0	1.361	0,0,0,0,0,0,1,2,3	to_hand	s596
419.965	0.279	0	PA_without_intermediate	3,1,0,2,0,0,0,0,0	test	ward_and_allport	3,1,0,2,0,0,0,0,0	89.0	35.0	0.279	0,0,0,0,0,0,1,2,3	to_board	s596
420.258	1.0	0	PA_without_intermediate	n/a	test	ward_and_allport	n/a	-1.0	35.0	n/a	n/a	feedback	s596
421.258	1.816	0	PA_without_intermediate	n/a	test	ward_and_allport	n/a	-1.0	35.0	n/a	n/a	ITI	s596
423.085	3.317	1	PA_with_intermediate	1,2,0,0,0,0,0,0,0	test	ward_and_allport	1,3,0,0,0,0,2,0,0	89.0	36.0	3.317	1,2,3,0,0,0,0,0,0	to_hand	s596
426.402	0.424	0	PA_with_intermediate	1,2,0,3,0,0,0,0,0	test	ward_and_allport	1,3,0,0,0,0,2,0,0	71.0	36.0	0.424	1,2,3,0,0,0,0,0,0	to_board	s596
426.833	0.446	0	PA_with_intermediate	1,0,0,3,0,0,0,0,0	test	ward_and_allport	1,3,0,0,0,0,2,0,0	89.0	36.0	0.446	1,2,3,0,0,0,0,0,0	to_hand	s596
427.28	0.698	0	PA_with_intermediate	1,0,0,3,0,0,2,0,0	test	ward_and_allport	1,3,0,0,0,0,2,0,0	82.0	36.0	0.698	1,2,3,0,0,0,0,0,0	to_board	s596
427.985	0.818	0	PA_with_intermediate	1,0,0,0,0,0,2,0,0	test	ward_and_allport	1,3,0,0,0,0,2,0,0	71.0	36.0	0.818	1,2,3,0,0,0,0,0,0	to_hand	s596
428.805	0.395	0	PA_with_intermediate	1,3,0,0,0,0,2,0,0	test	ward_and_allport	1,3,0,0,0,0,2,0,0	89.0	36.0	0.395	1,2,3,0,0,0,0,0,0	to_board	s596
429.208	1.0	0	PA_with_intermediate	n/a	test	ward_and_allport	n/a	-1.0	36.0	n/a	n/a	feedback	s596
430.208	3.176	0	PA_with_intermediate	n/a	test	ward_and_allport	n/a	-1.0	36.0	n/a	n/a	ITI	s596
433.392	2.993	1	PA_with_intermediate	1,2,0,0,0,0,0,0,0	test	ward_and_allport	1,3,0,0,0,0,2,0,0	89.0	37.0	2.993	1,2,3,0,0,0,0,0,0	to_hand	s596
436.385	0.401	0	PA_with_intermediate	1,2,0,3,0,0,0,0,0	test	ward_and_allport	1,3,0,0,0,0,2,0,0	71.0	37.0	0.401	1,2,3,0,0,0,0,0,0	to_board	s596
436.795	0.434	0	PA_with_intermediate	1,0,0,3,0,0,0,0,0	test	ward_and_allport	1,3,0,0,0,0,2,0,0	89.0	37.0	0.434	1,2,3,0,0,0,0,0,0	to_hand	s596
437.23	0.62	0	PA_with_intermediate	1,0,0,3,0,0,2,0,0	test	ward_and_allport	1,3,0,0,0,0,2,0,0	82.0	37.0	0.62	1,2,3,0,0,0,0,0,0	to_board	s596
437.859	0.816	0	PA_with_intermediate	1,0,0,0,0,0,2,0,0	test	ward_and_allport	1,3,0,0,0,0,2,0,0	71.0	37.0	0.816	1,2,3,0,0,0,0,0,0	to_hand	s596
438.676	0.332	0	PA_with_intermediate	1,3,0,0,0,0,2,0,0	test	ward_and_allport	1,3,0,0,0,0,2,0,0	89.0	37.0	0.332	1,2,3,0,0,0,0,0,0	to_board	s596
439.016	1.0	0	PA_with_intermediate	n/a	test	ward_and_allport	n/a	-1.0	37.0	n/a	n/a	feedback	s596
440.016	2.36	0	PA_with_intermediate	n/a	test	ward_and_allport	n/a	-1.0	37.0	n/a	n/a	ITI	s596
442.382	2.961	1	PA_with_intermediate	0,0,0,1,2,0,0,0,0	test	ward_and_allport	0,0,0,1,3,0,2,0,0	71.0	38.0	2.961	0,0,0,1,2,3,0,0,0	to_hand	s596
445.344	0.273	0	PA_with_intermediate	3,0,0,1,2,0,0,0,0	test	ward_and_allport	0,0,0,1,3,0,2,0,0	89.0	38.0	0.273	0,0,0,1,2,3,0,0,0	to_board	s596
445.623	0.327	0	PA_with_intermediate	3,0,0,1,0,0,0,0,0	test	ward_and_allport	0,0,0,1,3,0,2,0,0	71.0	38.0	0.327	0,0,0,1,2,3,0,0,0	to_hand	s596
445.951	0.386	0	PA_with_intermediate	3,0,0,1,0,0,2,0,0	test	ward_and_allport	0,0,0,1,3,0,2,0,0	82.0	38.0	0.386	0,0,0,1,2,3,0,0,0	to_board	s596
446.345	0.299	0	PA_with_intermediate	0,0,0,1,0,0,2,0,0	test	ward_and_allport	0,0,0,1,3,0,2,0,0	89.0	38.0	0.299	0,0,0,1,2,3,0,0,0	to_hand	s596
446.645	0.365	0	PA_with_intermediate	0,0,0,1,3,0,2,0,0	test	ward_and_allport	0,0,0,1,3,0,2,0,0	71.0	38.0	0.365	0,0,0,1,2,3,0,0,0	to_board	s596
447.022	1.0	0	PA_with_intermediate	n/a	test	ward_and_allport	n/a	-1.0	38.0	n/a	n/a	feedback	s596
448.022	1.0	0	PA_with_intermediate	n/a	test	ward_and_allport	n/a	-1.0	38.0	n/a	n/a	ITI	s596
449.029	8.593	1	PA_without_intermediate	0,0,0,0,0,0,1,2,0	test	ward_and_allport	2,0,0,3,1,0,0,0,0	82.0	39.0	8.593	0,0,0,0,0,0,1,2,3	to_hand	s596
457.624	1.328	0	PA_without_intermediate	0,0,0,3,0,0,1,2,0	test	ward_and_allport	2,0,0,3,1,0,0,0,0	71.0	39.0	1.328	0,0,0,0,0,0,1,2,3	to_board	s596
458.958	1.106	0	PA_without_intermediate	0,0,0,3,0,0,1,0,0	test	ward_and_allport	2,0,0,3,1,0,0,0,0	82.0	39.0	1.106	0,0,0,0,0,0,1,2,3	to_hand	s596
460.065	0.335	0	PA_without_intermediate	2,0,0,3,0,0,1,0,0	test	ward_and_allport	2,0,0,3,1,0,0,0,0	89.0	39.0	0.335	0,0,0,0,0,0,1,2,3	to_board	s596
460.408	1.287	0	PA_without_intermediate	2,0,0,3,0,0,0,0,0	test	ward_and_allport	2,0,0,3,1,0,0,0,0	82.0	39.0	1.287	0,0,0,0,0,0,1,2,3	to_hand	s596
461.695	0.471	0	PA_without_intermediate	2,0,0,3,1,0,0,0,0	test	ward_and_allport	2,0,0,3,1,0,0,0,0	71.0	39.0	0.471	0,0,0,0,0,0,1,2,3	to_board	s596
462.181	1.0	0	PA_without_intermediate	n/a	test	ward_and_allport	n/a	-1.0	39.0	n/a	n/a	feedback	s596
463.181	1.408	0	PA_without_intermediate	n/a	test	ward_and_allport	n/a	-1.0	39.0	n/a	n/a	ITI	s596
464.597	2.912	1	PA_with_intermediate	0,0,0,0,0,0,1,2,0	test	ward_and_allport	0,0,0,2,0,0,1,3,0	82.0	40.0	2.912	0,0,0,0,0,0,1,2,3	to_hand	s596
467.51	0.324	0	PA_with_intermediate	3,0,0,0,0,0,1,2,0	test	ward_and_allport	0,0,0,2,0,0,1,3,0	89.0	40.0	0.324	0,0,0,0,0,0,1,2,3	to_board	s596
467.844	1.12	0	PA_with_intermediate	3,0,0,0,0,0,1,0,0	test	ward_and_allport	0,0,0,2,0,0,1,3,0	82.0	40.0	1.12	0,0,0,0,0,0,1,2,3	to_hand	s596
468.966	0.343	0	PA_with_intermediate	3,0,0,2,0,0,1,0,0	test	ward_and_allport	0,0,0,2,0,0,1,3,0	71.0	40.0	0.343	0,0,0,0,0,0,1,2,3	to_board	s596
469.316	1.896	0	PA_with_intermediate	3,0,0,2,0,0,0,0,0	test	ward_and_allport	0,0,0,2,0,0,1,3,0	82.0	40.0	1.896	0,0,0,0,0,0,1,2,3	to_hand	s596
471.213	0.482	0	PA_with_intermediate	3,0,0,2,1,0,0,0,0	test	ward_and_allport	0,0,0,2,0,0,1,3,0	71.0	40.0	0.482	0,0,0,0,0,0,1,2,3	to_board	s596
471.702	0.374	0	PA_with_intermediate	0,0,0,2,1,0,0,0,0	test	ward_and_allport	0,0,0,2,0,0,1,3,0	89.0	40.0	0.374	0,0,0,0,0,0,1,2,3	to_hand	s596
472.077	0.484	0	PA_with_intermediate	0,0,0,2,1,0,3,0,0	test	ward_and_allport	0,0,0,2,0,0,1,3,0	82.0	40.0	0.484	0,0,0,0,0,0,1,2,3	to_board	s596
472.569	0.386	0	PA_with_intermediate	0,0,0,2,0,0,3,0,0	test	ward_and_allport	0,0,0,2,0,0,1,3,0	71.0	40.0	0.386	0,0,0,0,0,0,1,2,3	to_hand	s596
472.955	0.426	0	PA_with_intermediate	0,0,0,2,0,0,3,1,0	test	ward_and_allport	0,0,0,2,0,0,1,3,0	82.0	40.0	0.426	0,0,0,0,0,0,1,2,3	to_board	s596
473.389	1.22	0	PA_with_intermediate	0,0,0,2,0,0,3,0,0	test	ward_and_allport	0,0,0,2,0,0,1,3,0	82.0	40.0	1.22	0,0,0,0,0,0,1,2,3	to_hand	s596
474.61	0.574	0	PA_with_intermediate	1,0,0,2,0,0,3,0,0	test	ward_and_allport	0,0,0,2,0,0,1,3,0	89.0	40.0	0.574	0,0,0,0,0,0,1,2,3	to_board	s596
475.189	1.087	0	PA_with_intermediate	1,0,0,2,0,0,0,0,0	test	ward_and_allport	0,0,0,2,0,0,1,3,0	82.0	40.0	1.087	0,0,0,0,0,0,1,2,3	to_hand	s596
476.277	0.802	0	PA_with_intermediate	1,0,0,2,3,0,0,0,0	test	ward_and_allport	0,0,0,2,0,0,1,3,0	71.0	40.0	0.802	0,0,0,0,0,0,1,2,3	to_board	s596
477.086	0.411	0	PA_with_intermediate	0,0,0,2,3,0,0,0,0	test	ward_and_allport	0,0,0,2,0,0,1,3,0	89.0	40.0	0.411	0,0,0,0,0,0,1,2,3	to_hand	s596
477.499	0.435	0	PA_with_intermediate	0,0,0,2,3,0,1,0,0	test	ward_and_allport	0,0,0,2,0,0,1,3,0	82.0	40.0	0.435	0,0,0,0,0,0,1,2,3	to_board	s596
477.939	0.398	0	PA_with_intermediate	0,0,0,2,0,0,1,0,0	test	ward_and_allport	0,0,0,2,0,0,1,3,0	71.0	40.0	0.398	0,0,0,0,0,0,1,2,3	to_hand	s596
478.338	0.637	0	PA_with_intermediate	0,0,0,2,0,0,1,3,0	test	ward_and_allport	0,0,0,2,0,0,1,3,0	82.0	40.0	0.637	0,0,0,0,0,0,1,2,3	to_board	s596
478.986	1.0	0	PA_with_intermediate	n/a	test	ward_and_allport	n/a	-1.0	40.0	n/a	n/a	feedback	s596
479.986	1.816	0	PA_with_intermediate	n/a	test	ward_and_allport	n/a	-1.0	40.0	n/a	n/a	ITI	s596
481.807	2.072	1	PA_without_intermediate	0,0,0,1,2,0,0,0,0	test	ward_and_allport	1,0,0,0,0,0,3,2,0	71.0	41.0	2.072	0,0,0,1,2,3,0,0,0	to_hand	s596
483.88	0.362	0	PA_without_intermediate	0,0,0,1,2,0,3,0,0	test	ward_and_allport	1,0,0,0,0,0,3,2,0	82.0	41.0	0.362	0,0,0,1,2,3,0,0,0	to_board	s596
484.25	0.398	0	PA_without_intermediate	0,0,0,1,0,0,3,0,0	test	ward_and_allport	1,0,0,0,0,0,3,2,0	71.0	41.0	0.398	0,0,0,1,2,3,0,0,0	to_hand	s596
484.648	0.458	0	PA_without_intermediate	0,0,0,1,0,0,3,2,0	test	ward_and_allport	1,0,0,0,0,0,3,2,0	82.0	41.0	0.458	0,0,0,1,2,3,0,0,0	to_board	s596
485.115	0.689	0	PA_without_intermediate	0,0,0,0,0,0,3,2,0	test	ward_and_allport	1,0,0,0,0,0,3,2,0	71.0	41.0	0.689	0,0,0,1,2,3,0,0,0	to_hand	s596
485.805	0.362	0	PA_without_intermediate	1,0,0,0,0,0,3,2,0	test	ward_and_allport	1,0,0,0,0,0,3,2,0	89.0	41.0	0.362	0,0,0,1,2,3,0,0,0	to_board	s596
486.181	1.0	0	PA_without_intermediate	n/a	test	ward_and_allport	n/a	-1.0	41.0	n/a	n/a	feedback	s596
487.181	2.088	0	PA_without_intermediate	n/a	test	ward_and_allport	n/a	-1.0	41.0	n/a	n/a	ITI	s596
489.276	1.923	1	PA_without_intermediate	0,0,0,1,2,0,0,0,0	test	ward_and_allport	1,0,0,0,0,0,3,2,0	71.0	42.0	1.923	0,0,0,1,2,3,0,0,0	to_hand	s596
491.199	0.318	0	PA_without_intermediate	0,0,0,1,2,0,3,0,0	test	ward_and_allport	1,0,0,0,0,0,3,2,0	82.0	42.0	0.318	0,0,0,1,2,3,0,0,0	to_board	s596
491.525	0.305	0	PA_without_intermediate	0,0,0,1,0,0,3,0,0	test	ward_and_allport	1,0,0,0,0,0,3,2,0	71.0	42.0	0.305	0,0,0,1,2,3,0,0,0	to_hand	s596
491.831	0.392	0	PA_without_intermediate	0,0,0,1,0,0,3,2,0	test	ward_and_allport	1,0,0,0,0,0,3,2,0	82.0	42.0	0.392	0,0,0,1,2,3,0,0,0	to_board	s596
492.232	0.637	0	PA_without_intermediate	0,0,0,0,0,0,3,2,0	test	ward_and_allport	1,0,0,0,0,0,3,2,0	71.0	42.0	0.637	0,0,0,1,2,3,0,0,0	to_hand	s596
492.87	0.356	0	PA_without_intermediate	1,0,0,0,0,0,3,2,0	test	ward_and_allport	1,0,0,0,0,0,3,2,0	89.0	42.0	0.356	0,0,0,1,2,3,0,0,0	to_board	s596
493.24	1.0	0	PA_without_intermediate	n/a	test	ward_and_allport	n/a	-1.0	42.0	n/a	n/a	feedback	s596
494.24	1.136	0	PA_without_intermediate	n/a	test	ward_and_allport	n/a	-1.0	42.0	n/a	n/a	ITI	s596
495.383	2.546	1	PA_without_intermediate	0,0,0,0,0,0,1,2,0	test	ward_and_allport	1,0,0,3,2,0,0,0,0	82.0	43.0	2.546	0,0,0,0,0,0,1,2,3	to_hand	s596
497.93	0.326	0	PA_without_intermediate	0,0,0,3,0,0,1,2,0	test	ward_and_allport	1,0,0,3,2,0,0,0,0	71.0	43.0	0.326	0,0,0,0,0,0,1,2,3	to_board	s596
498.265	0.434	0	PA_without_intermediate	0,0,0,0,0,0,1,2,0	test	ward_and_allport	1,0,0,3,2,0,0,0,0	71.0	43.0	0.434	0,0,0,0,0,0,1,2,3	to_hand	s596
498.7	0.649	0	PA_without_intermediate	0,0,0,3,0,0,1,2,0	test	ward_and_allport	1,0,0,3,2,0,0,0,0	71.0	43.0	0.649	0,0,0,0,0,0,1,2,3	to_board	s596
499.358	0.548	0	PA_without_intermediate	0,0,0,3,0,0,1,0,0	test	ward_and_allport	1,0,0,3,2,0,0,0,0	82.0	43.0	0.548	0,0,0,0,0,0,1,2,3	to_hand	s596
499.906	0.404	0	PA_without_intermediate	0,0,0,3,2,0,1,0,0	test	ward_and_allport	1,0,0,3,2,0,0,0,0	71.0	43.0	0.404	0,0,0,0,0,0,1,2,3	to_board	s596
500.32	1.029	0	PA_without_intermediate	0,0,0,3,2,0,0,0,0	test	ward_and_allport	1,0,0,3,2,0,0,0,0	82.0	43.0	1.029	0,0,0,0,0,0,1,2,3	to_hand	s596
501.351	0.385	0	PA_without_intermediate	1,0,0,3,2,0,0,0,0	test	ward_and_allport	1,0,0,3,2,0,0,0,0	89.0	43.0	0.385	0,0,0,0,0,0,1,2,3	to_board	s596
501.744	1.0	0	PA_without_intermediate	n/a	test	ward_and_allport	n/a	-1.0	43.0	n/a	n/a	feedback	s596
502.744	6.168	0	PA_without_intermediate	n/a	test	ward_and_allport	n/a	-1.0	43.0	n/a	n/a	ITI	s596
508.92	2.3	1	PA_without_intermediate	1,2,0,0,0,0,0,0,0	test	ward_and_allport	0,0,0,1,0,0,3,2,0	89.0	44.0	2.3	1,2,3,0,0,0,0,0,0	to_hand	s596
511.221	0.411	0	PA_without_intermediate	1,2,0,0,0,0,3,0,0	test	ward_and_allport	0,0,0,1,0,0,3,2,0	82.0	44.0	0.411	1,2,3,0,0,0,0,0,0	to_board	s596
511.64	0.447	0	PA_without_intermediate	1,0,0,0,0,0,3,0,0	test	ward_and_allport	0,0,0,1,0,0,3,2,0	89.0	44.0	0.447	1,2,3,0,0,0,0,0,0	to_hand	s596
512.088	0.434	0	PA_without_intermediate	1,0,0,0,0,0,3,2,0	test	ward_and_allport	0,0,0,1,0,0,3,2,0	82.0	44.0	0.434	1,2,3,0,0,0,0,0,0	to_board	s596
512.532	0.495	0	PA_without_intermediate	0,0,0,0,0,0,3,2,0	test	ward_and_allport	0,0,0,1,0,0,3,2,0	89.0	44.0	0.495	1,2,3,0,0,0,0,0,0	to_hand	s596
513.029	0.31	0	PA_without_intermediate	0,0,0,1,0,0,3,2,0	test	ward_and_allport	0,0,0,1,0,0,3,2,0	71.0	44.0	0.31	1,2,3,0,0,0,0,0,0	to_board	s596
513.35	1.0	0	PA_without_intermediate	n/a	test	ward_and_allport	n/a	-1.0	44.0	n/a	n/a	feedback	s596
514.35	1.816	0	PA_without_intermediate	n/a	test	ward_and_allport	n/a	-1.0	44.0	n/a	n/a	ITI	s596
521.179	3.652	1	PA_with_intermediate	0,0,0,1,2,0,0,0,0	test	ward_and_allport	2,0,0,1,3,0,0,0,0	71.0	45.0	3.652	0,0,0,1,2,3,0,0,0	to_hand	s596
524.832	0.467	0	PA_with_intermediate	0,0,0,1,2,0,3,0,0	test	ward_and_allport	2,0,0,1,3,0,0,0,0	82.0	45.0	0.467	0,0,0,1,2,3,0,0,0	to_board	s596
525.31	0.383	0	PA_with_intermediate	0,0,0,1,0,0,3,0,0	test	ward_and_allport	2,0,0,1,3,0,0,0,0	71.0	45.0	0.383	0,0,0,1,2,3,0,0,0	to_hand	s596
525.694	0.42	0	PA_with_intermediate	2,0,0,1,0,0,3,0,0	test	ward_and_allport	2,0,0,1,3,0,0,0,0	89.0	45.0	0.42	0,0,0,1,2,3,0,0,0	to_board	s596
526.125	0.812	0	PA_with_intermediate	2,0,0,1,0,0,0,0,0	test	ward_and_allport	2,0,0,1,3,0,0,0,0	82.0	45.0	0.812	0,0,0,1,2,3,0,0,0	to_hand	s596
526.937	0.563	0	PA_with_intermediate	2,0,0,1,3,0,0,0,0	test	ward_and_allport	2,0,0,1,3,0,0,0,0	71.0	45.0	0.563	0,0,0,1,2,3,0,0,0	to_board	s596
527.513	1.0	0	PA_with_intermediate	n/a	test	ward_and_allport	n/a	-1.0	45.0	n/a	n/a	feedback	s596
528.513	1.952	0	PA_with_intermediate	n/a	test	ward_and_allport	n/a	-1.0	45.0	n/a	n/a	ITI	s596
530.475	3.571	1	PA_with_intermediate	0,0,0,0,0,0,1,2,0	test	ward_and_allport	2,0,0,0,0,0,1,3,0	82.0	46.0	3.571	0,0,0,0,0,0,1,2,3	to_hand	s596
534.048	0.355	0	PA_with_intermediate	0,0,0,3,0,0,1,2,0	test	ward_and_allport	2,0,0,0,0,0,1,3,0	71.0	46.0	0.355	0,0,0,0,0,0,1,2,3	to_board	s596
534.411	1.335	0	PA_with_intermediate	0,0,0,3,0,0,1,0,0	test	ward_and_allport	2,0,0,0,0,0,1,3,0	82.0	46.0	1.335	0,0,0,0,0,0,1,2,3	to_hand	s596
535.748	0.315	0	PA_with_intermediate	2,0,0,3,0,0,1,0,0	test	ward_and_allport	2,0,0,0,0,0,1,3,0	89.0	46.0	0.315	0,0,0,0,0,0,1,2,3	to_board	s596
536.072	0.75	0	PA_with_intermediate	2,0,0,0,0,0,1,0,0	test	ward_and_allport	2,0,0,0,0,0,1,3,0	71.0	46.0	0.75	0,0,0,0,0,0,1,2,3	to_hand	s596
536.824	0.538	0	PA_with_intermediate	2,0,0,0,0,0,1,3,0	test	ward_and_allport	2,0,0,0,0,0,1,3,0	82.0	46.0	0.538	0,0,0,0,0,0,1,2,3	to_board	s596
537.375	1.0	0	PA_with_intermediate	n/a	test	ward_and_allport	n/a	-1.0	46.0	n/a	n/a	feedback	s596
538.375	1.136	0	PA_with_intermediate	n/a	test	ward_and_allport	n/a	-1.0	46.0	n/a	n/a	ITI	s596
539.52	3.125	1	PA_without_intermediate	1,2,0,0,0,0,0,0,0	test	ward_and_allport	0,0,0,3,2,0,1,0,0	89.0	47.0	3.125	1,2,3,0,0,0,0,0,0	to_hand	s596
542.646	0.337	0	PA_without_intermediate	1,2,0,3,0,0,0,0,0	test	ward_and_allport	0,0,0,3,2,0,1,0,0	71.0	47.0	0.337	1,2,3,0,0,0,0,0,0	to_board	s596
542.989	0.485	0	PA_without_intermediate	1,0,0,3,0,0,0,0,0	test	ward_and_allport	0,0,0,3,2,0,1,0,0	89.0	47.0	0.485	1,2,3,0,0,0,0,0,0	to_hand	s596
543.475	0.368	0	PA_without_intermediate	1,0,0,3,2,0,0,0,0	test	ward_and_allport	0,0,0,3,2,0,1,0,0	71.0	47.0	0.368	1,2,3,0,0,0,0,0,0	to_board	s596
543.852	0.357	0	PA_without_intermediate	0,0,0,3,2,0,0,0,0	test	ward_and_allport	0,0,0,3,2,0,1,0,0	89.0	47.0	0.357	1,2,3,0,0,0,0,0,0	to_hand	s596
544.211	0.377	0	PA_without_intermediate	0,0,0,3,2,0,1,0,0	test	ward_and_allport	0,0,0,3,2,0,1,0,0	82.0	47.0	0.377	1,2,3,0,0,0,0,0,0	to_board	s596
544.607	1.0	0	PA_without_intermediate	n/a	test	ward_and_allport	n/a	-1.0	47.0	n/a	n/a	feedback	s596
545.607	1.68	0	PA_without_intermediate	n/a	test	ward_and_allport	n/a	-1.0	47.0	n/a	n/a	ITI	s596
n/a	n/a	0	n/a	n/a	n/a	n/a	n/a	n/a	n/a	n/a	n/a	ITI	n/a
