onset	duration	condition	correct	correct_response	experiment_exp_id	key_press	response_time	trial_id	trial_type	worker_id
3.006	0.5	BY	n/a	n/a	dot_pattern_expectancy	-1.0	n/a	cue	BY	s061
5.509	0.5	BY	1.0	71.0	dot_pattern_expectancy	71.0	0.785	probe	BY	s061
7.148	0.5	AY	n/a	n/a	dot_pattern_expectancy	-1.0	n/a	cue	AY	s061
9.651	0.5	AY	1.0	71.0	dot_pattern_expectancy	71.0	0.798	probe	AY	s061
11.154	0.5	AX	n/a	n/a	dot_pattern_expectancy	-1.0	n/a	cue	AX	s061
13.656	0.5	AX	1.0	89.0	dot_pattern_expectancy	89.0	0.515	probe	AX	s061
15.702	0.5	BY	n/a	n/a	dot_pattern_expectancy	-1.0	n/a	cue	BY	s061
18.206	0.5	BY	1.0	71.0	dot_pattern_expectancy	71.0	0.547	probe	BY	s061
19.98	0.5	BX	n/a	n/a	dot_pattern_expectancy	-1.0	n/a	cue	BX	s061
22.483	0.5	BX	1.0	71.0	dot_pattern_expectancy	71.0	0.817	probe	BX	s061
24.121	0.5	AX	n/a	n/a	dot_pattern_expectancy	-1.0	n/a	cue	AX	s061
26.625	0.5	AX	1.0	89.0	dot_pattern_expectancy	89.0	0.745	probe	AX	s061
28.263	0.5	AX	n/a	n/a	dot_pattern_expectancy	-1.0	n/a	cue	AX	s061
30.766	0.5	AX	1.0	89.0	dot_pattern_expectancy	89.0	0.793	probe	AX	s061
32.268	0.5	AX	n/a	n/a	dot_pattern_expectancy	-1.0	n/a	cue	AX	s061
34.771	0.5	AX	1.0	89.0	dot_pattern_expectancy	89.0	0.87	probe	AX	s061
36.273	0.5	AY	n/a	n/a	dot_pattern_expectancy	-1.0	n/a	cue	AY	s061
38.777	0.5	AY	1.0	71.0	dot_pattern_expectancy	71.0	0.78	probe	AY	s061
40.824	0.5	AX	n/a	n/a	dot_pattern_expectancy	-1.0	n/a	cue	AX	s061
43.328	0.5	AX	1.0	89.0	dot_pattern_expectancy	89.0	0.572	probe	AX	s061
45.783	0.5	AX	n/a	n/a	dot_pattern_expectancy	-1.0	n/a	cue	AX	s061
48.287	0.5	AX	1.0	89.0	dot_pattern_expectancy	89.0	0.736	probe	AX	s061
50.198	0.5	AX	n/a	n/a	dot_pattern_expectancy	-1.0	n/a	cue	AX	s061
52.702	0.5	AX	1.0	89.0	dot_pattern_expectancy	89.0	0.699	probe	AX	s061
54.205	0.5	AX	n/a	n/a	dot_pattern_expectancy	-1.0	n/a	cue	AX	s061
56.709	0.5	AX	1.0	89.0	dot_pattern_expectancy	89.0	0.716	probe	AX	s061
58.621	0.5	BX	n/a	n/a	dot_pattern_expectancy	-1.0	n/a	cue	BX	s061
61.124	0.5	BX	1.0	71.0	dot_pattern_expectancy	71.0	0.78	probe	BX	s061
63.307	0.5	AX	n/a	n/a	dot_pattern_expectancy	-1.0	n/a	cue	AX	s061
65.81	0.5	AX	1.0	89.0	dot_pattern_expectancy	89.0	0.616	probe	AX	s061
67.313	0.5	BY	n/a	n/a	dot_pattern_expectancy	-1.0	n/a	cue	BY	s061
69.816	0.5	BY	1.0	71.0	dot_pattern_expectancy	71.0	0.383	probe	BY	s061
71.727	0.5	BX	n/a	n/a	dot_pattern_expectancy	-1.0	n/a	cue	BX	s061
74.229	0.5	BX	1.0	71.0	dot_pattern_expectancy	71.0	0.616	probe	BX	s061
76.548	0.5	AY	n/a	n/a	dot_pattern_expectancy	-1.0	n/a	cue	AY	s061
79.05	0.5	AY	1.0	71.0	dot_pattern_expectancy	71.0	0.82	probe	AY	s061
81.368	0.5	BX	n/a	n/a	dot_pattern_expectancy	-1.0	n/a	cue	BX	s061
83.873	0.5	BX	1.0	71.0	dot_pattern_expectancy	71.0	0.712	probe	BX	s061
85.512	0.5	AY	n/a	n/a	dot_pattern_expectancy	-1.0	n/a	cue	AY	s061
88.015	0.5	AY	1.0	71.0	dot_pattern_expectancy	71.0	0.796	probe	AY	s061
89.518	0.5	BY	n/a	n/a	dot_pattern_expectancy	-1.0	n/a	cue	BY	s061
92.021	0.5	BY	1.0	71.0	dot_pattern_expectancy	71.0	0.506	probe	BY	s061
93.932	0.5	AX	n/a	n/a	dot_pattern_expectancy	-1.0	n/a	cue	AX	s061
96.435	0.5	AX	1.0	89.0	dot_pattern_expectancy	89.0	0.549	probe	AX	s061
97.938	0.5	AY	n/a	n/a	dot_pattern_expectancy	-1.0	n/a	cue	AY	s061
100.444	0.5	AY	1.0	71.0	dot_pattern_expectancy	71.0	0.8	probe	AY	s061
102.763	0.5	AX	n/a	n/a	dot_pattern_expectancy	-1.0	n/a	cue	AX	s061
105.266	0.5	AX	1.0	89.0	dot_pattern_expectancy	89.0	0.654	probe	AX	s061
106.769	0.5	AY	n/a	n/a	dot_pattern_expectancy	-1.0	n/a	cue	AY	s061
109.272	0.5	AY	1.0	71.0	dot_pattern_expectancy	71.0	0.691	probe	AY	s061
111.998	0.5	AX	n/a	n/a	dot_pattern_expectancy	-1.0	n/a	cue	AX	s061
114.503	0.5	AX	1.0	89.0	dot_pattern_expectancy	89.0	0.565	probe	AX	s061
116.005	0.5	AX	n/a	n/a	dot_pattern_expectancy	-1.0	n/a	cue	AX	s061
118.51	0.5	AX	1.0	89.0	dot_pattern_expectancy	89.0	0.547	probe	AX	s061
120.148	0.5	AX	n/a	n/a	dot_pattern_expectancy	-1.0	n/a	cue	AX	s061
122.653	0.5	AX	1.0	89.0	dot_pattern_expectancy	89.0	0.526	probe	AX	s061
124.291	0.5	AX	n/a	n/a	dot_pattern_expectancy	-1.0	n/a	cue	AX	s061
126.794	0.5	AX	1.0	89.0	dot_pattern_expectancy	89.0	0.762	probe	AX	s061
128.568	0.5	BY	n/a	n/a	dot_pattern_expectancy	-1.0	n/a	cue	BY	s061
131.072	0.5	BY	1.0	71.0	dot_pattern_expectancy	71.0	0.418	probe	BY	s061
132.848	0.5	AX	n/a	n/a	dot_pattern_expectancy	-1.0	n/a	cue	AX	s061
135.351	0.5	AX	1.0	89.0	dot_pattern_expectancy	89.0	0.619	probe	AX	s061
136.853	0.5	BY	n/a	n/a	dot_pattern_expectancy	-1.0	n/a	cue	BY	s061
139.356	0.5	BY	1.0	71.0	dot_pattern_expectancy	71.0	0.729	probe	BY	s061
141.811	0.5	AX	n/a	n/a	dot_pattern_expectancy	-1.0	n/a	cue	AX	s061
144.314	0.5	AX	1.0	89.0	dot_pattern_expectancy	89.0	0.726	probe	AX	s061
145.952	0.5	AX	n/a	n/a	dot_pattern_expectancy	-1.0	n/a	cue	AX	s061
148.455	0.5	AX	1.0	89.0	dot_pattern_expectancy	89.0	0.627	probe	AX	s061
150.094	0.5	BX	n/a	n/a	dot_pattern_expectancy	-1.0	n/a	cue	BX	s061
152.597	0.5	BX	1.0	71.0	dot_pattern_expectancy	71.0	0.369	probe	BX	s061
154.1	0.5	BX	n/a	n/a	dot_pattern_expectancy	-1.0	n/a	cue	BX	s061
156.604	0.5	BX	1.0	71.0	dot_pattern_expectancy	71.0	0.741	probe	BX	s061
158.106	0.5	AX	n/a	n/a	dot_pattern_expectancy	-1.0	n/a	cue	AX	s061
160.609	0.5	AX	1.0	89.0	dot_pattern_expectancy	89.0	0.569	probe	AX	s061
162.928	0.5	AY	n/a	n/a	dot_pattern_expectancy	-1.0	n/a	cue	AY	s061
165.432	0.5	AY	1.0	71.0	dot_pattern_expectancy	71.0	0.769	probe	AY	s061
167.478	0.5	AX	n/a	n/a	dot_pattern_expectancy	-1.0	n/a	cue	AX	s061
169.981	0.5	AX	1.0	89.0	dot_pattern_expectancy	89.0	0.657	probe	AX	s061
173.932	0.5	AX	n/a	n/a	dot_pattern_expectancy	-1.0	n/a	cue	AX	s061
176.435	0.5	AX	1.0	89.0	dot_pattern_expectancy	89.0	0.718	probe	AX	s061
188.58	0.5	AY	n/a	n/a	dot_pattern_expectancy	-1.0	n/a	cue	AY	s061
191.083	0.5	AY	1.0	71.0	dot_pattern_expectancy	71.0	0.685	probe	AY	s061
192.721	0.5	AX	n/a	n/a	dot_pattern_expectancy	-1.0	n/a	cue	AX	s061
195.224	0.5	AX	1.0	89.0	dot_pattern_expectancy	89.0	0.576	probe	AX	s061
196.863	0.5	AX	n/a	n/a	dot_pattern_expectancy	-1.0	n/a	cue	AX	s061
199.367	0.5	AX	1.0	89.0	dot_pattern_expectancy	89.0	0.613	probe	AX	s061
200.87	0.5	AX	n/a	n/a	dot_pattern_expectancy	-1.0	n/a	cue	AX	s061
203.374	0.5	AX	1.0	89.0	dot_pattern_expectancy	89.0	0.692	probe	AX	s061
204.876	0.5	AX	n/a	n/a	dot_pattern_expectancy	-1.0	n/a	cue	AX	s061
207.381	0.5	AX	1.0	89.0	dot_pattern_expectancy	89.0	0.599	probe	AX	s061
209.292	0.5	BX	n/a	n/a	dot_pattern_expectancy	-1.0	n/a	cue	BX	s061
211.795	0.5	BX	1.0	71.0	dot_pattern_expectancy	71.0	0.338	probe	BX	s061
213.433	0.5	AX	n/a	n/a	dot_pattern_expectancy	-1.0	n/a	cue	AX	s061
215.936	0.5	AX	1.0	89.0	dot_pattern_expectancy	89.0	0.523	probe	AX	s061
217.982	0.5	AX	n/a	n/a	dot_pattern_expectancy	-1.0	n/a	cue	AX	s061
220.485	0.5	AX	1.0	89.0	dot_pattern_expectancy	89.0	0.501	probe	AX	s061
222.26	0.5	AX	n/a	n/a	dot_pattern_expectancy	-1.0	n/a	cue	AX	s061
224.763	0.5	AX	1.0	89.0	dot_pattern_expectancy	89.0	0.707	probe	AX	s061
226.265	0.5	AX	n/a	n/a	dot_pattern_expectancy	-1.0	n/a	cue	AX	s061
228.768	0.5	AX	1.0	89.0	dot_pattern_expectancy	89.0	0.679	probe	AX	s061
230.953	0.5	AX	n/a	n/a	dot_pattern_expectancy	-1.0	n/a	cue	AX	s061
233.455	0.5	AX	1.0	89.0	dot_pattern_expectancy	89.0	0.499	probe	AX	s061
234.958	0.5	BX	n/a	n/a	dot_pattern_expectancy	-1.0	n/a	cue	BX	s061
237.461	0.5	BX	1.0	71.0	dot_pattern_expectancy	71.0	0.659	probe	BX	s061
241.139	0.5	BY	n/a	n/a	dot_pattern_expectancy	-1.0	n/a	cue	BY	s061
243.642	0.5	BY	1.0	71.0	dot_pattern_expectancy	71.0	0.463	probe	BY	s061
245.28	0.5	BY	n/a	n/a	dot_pattern_expectancy	-1.0	n/a	cue	BY	s061
247.783	0.5	BY	1.0	71.0	dot_pattern_expectancy	71.0	0.632	probe	BY	s061
249.422	0.5	BX	n/a	n/a	dot_pattern_expectancy	-1.0	n/a	cue	BX	s061
251.925	0.5	BX	1.0	71.0	dot_pattern_expectancy	71.0	0.376	probe	BX	s061
253.428	0.5	AX	n/a	n/a	dot_pattern_expectancy	-1.0	n/a	cue	AX	s061
255.931	0.5	AX	1.0	89.0	dot_pattern_expectancy	89.0	0.522	probe	AX	s061
257.842	0.5	AX	n/a	n/a	dot_pattern_expectancy	-1.0	n/a	cue	AX	s061
260.344	0.5	AX	1.0	89.0	dot_pattern_expectancy	89.0	0.496	probe	AX	s061
261.982	0.5	BX	n/a	n/a	dot_pattern_expectancy	-1.0	n/a	cue	BX	s061
264.485	0.5	BX	1.0	71.0	dot_pattern_expectancy	71.0	0.362	probe	BX	s061
265.987	0.5	AX	n/a	n/a	dot_pattern_expectancy	-1.0	n/a	cue	AX	s061
268.491	0.5	AX	1.0	89.0	dot_pattern_expectancy	89.0	0.531	probe	AX	s061
270.401	0.5	BY	n/a	n/a	dot_pattern_expectancy	-1.0	n/a	cue	BY	s061
272.905	0.5	BY	1.0	71.0	dot_pattern_expectancy	71.0	0.505	probe	BY	s061
275.087	0.5	AX	n/a	n/a	dot_pattern_expectancy	-1.0	n/a	cue	AX	s061
277.59	0.5	AX	1.0	89.0	dot_pattern_expectancy	89.0	0.44	probe	AX	s061
279.365	0.5	AX	n/a	n/a	dot_pattern_expectancy	-1.0	n/a	cue	AX	s061
281.869	0.5	AX	1.0	89.0	dot_pattern_expectancy	89.0	0.548	probe	AX	s061
283.371	0.5	AX	n/a	n/a	dot_pattern_expectancy	-1.0	n/a	cue	AX	s061
285.875	0.5	AX	1.0	89.0	dot_pattern_expectancy	89.0	0.467	probe	AX	s061
287.377	0.5	AX	n/a	n/a	dot_pattern_expectancy	-1.0	n/a	cue	AX	s061
289.882	0.5	AX	1.0	89.0	dot_pattern_expectancy	89.0	0.602	probe	AX	s061
291.928	0.5	AX	n/a	n/a	dot_pattern_expectancy	-1.0	n/a	cue	AX	s061
294.431	0.5	AX	1.0	89.0	dot_pattern_expectancy	89.0	0.869	probe	AX	s061
297.294	0.5	BX	n/a	n/a	dot_pattern_expectancy	-1.0	n/a	cue	BX	s061
299.798	0.5	BX	1.0	71.0	dot_pattern_expectancy	71.0	0.533	probe	BX	s061
301.3	0.5	BY	n/a	n/a	dot_pattern_expectancy	-1.0	n/a	cue	BY	s061
303.803	0.5	BY	1.0	71.0	dot_pattern_expectancy	71.0	0.443	probe	BY	s061
305.578	0.5	AX	n/a	n/a	dot_pattern_expectancy	-1.0	n/a	cue	AX	s061
308.082	0.5	AX	1.0	89.0	dot_pattern_expectancy	89.0	0.511	probe	AX	s061
309.856	0.5	AX	n/a	n/a	dot_pattern_expectancy	-1.0	n/a	cue	AX	s061
312.358	0.5	AX	1.0	89.0	dot_pattern_expectancy	89.0	0.499	probe	AX	s061
315.221	0.5	AX	n/a	n/a	dot_pattern_expectancy	-1.0	n/a	cue	AX	s061
317.723	0.5	AX	1.0	89.0	dot_pattern_expectancy	89.0	0.525	probe	AX	s061
319.498	0.5	BX	n/a	n/a	dot_pattern_expectancy	-1.0	n/a	cue	BX	s061
322.001	0.5	BX	1.0	71.0	dot_pattern_expectancy	71.0	0.567	probe	BX	s061
323.639	0.5	BX	n/a	n/a	dot_pattern_expectancy	-1.0	n/a	cue	BX	s061
326.142	0.5	BX	1.0	71.0	dot_pattern_expectancy	71.0	0.521	probe	BX	s061
328.596	0.5	AX	n/a	n/a	dot_pattern_expectancy	-1.0	n/a	cue	AX	s061
331.098	0.5	AX	1.0	89.0	dot_pattern_expectancy	89.0	0.544	probe	AX	s061
332.736	0.5	BX	n/a	n/a	dot_pattern_expectancy	-1.0	n/a	cue	BX	s061
335.24	0.5	BX	1.0	71.0	dot_pattern_expectancy	71.0	0.369	probe	BX	s061
336.742	0.5	AX	n/a	n/a	dot_pattern_expectancy	-1.0	n/a	cue	AX	s061
339.246	0.5	AX	1.0	89.0	dot_pattern_expectancy	89.0	0.5	probe	AX	s061
340.885	0.5	AX	n/a	n/a	dot_pattern_expectancy	-1.0	n/a	cue	AX	s061
343.387	0.5	AX	1.0	89.0	dot_pattern_expectancy	89.0	0.481	probe	AX	s061
345.027	0.5	BY	n/a	n/a	dot_pattern_expectancy	-1.0	n/a	cue	BY	s061
347.53	0.5	BY	1.0	71.0	dot_pattern_expectancy	71.0	0.304	probe	BY	s061
349.713	0.5	AX	n/a	n/a	dot_pattern_expectancy	-1.0	n/a	cue	AX	s061
352.215	0.5	AX	1.0	89.0	dot_pattern_expectancy	89.0	0.497	probe	AX	s061
353.717	0.5	AY	n/a	n/a	dot_pattern_expectancy	-1.0	n/a	cue	AY	s061
356.221	0.5	AY	1.0	71.0	dot_pattern_expectancy	71.0	0.742	probe	AY	s061
357.858	0.5	AX	n/a	n/a	dot_pattern_expectancy	-1.0	n/a	cue	AX	s061
360.361	0.5	AX	1.0	89.0	dot_pattern_expectancy	89.0	0.699	probe	AX	s061
372.505	0.5	AX	n/a	n/a	dot_pattern_expectancy	-1.0	n/a	cue	AX	s061
375.009	0.5	AX	1.0	89.0	dot_pattern_expectancy	89.0	0.555	probe	AX	s061
377.191	0.5	AY	n/a	n/a	dot_pattern_expectancy	-1.0	n/a	cue	AY	s061
379.695	0.5	AY	1.0	71.0	dot_pattern_expectancy	71.0	0.602	probe	AY	s061
382.013	0.5	AY	n/a	n/a	dot_pattern_expectancy	-1.0	n/a	cue	AY	s061
384.517	0.5	AY	1.0	71.0	dot_pattern_expectancy	71.0	0.816	probe	AY	s061
386.155	0.5	BX	n/a	n/a	dot_pattern_expectancy	-1.0	n/a	cue	BX	s061
388.658	0.5	BX	1.0	71.0	dot_pattern_expectancy	71.0	0.689	probe	BX	s061
390.568	0.5	AX	n/a	n/a	dot_pattern_expectancy	-1.0	n/a	cue	AX	s061
393.071	0.5	AX	1.0	89.0	dot_pattern_expectancy	89.0	0.431	probe	AX	s061
396.614	0.5	BX	n/a	n/a	dot_pattern_expectancy	-1.0	n/a	cue	BX	s061
399.117	0.5	BX	1.0	71.0	dot_pattern_expectancy	71.0	0.392	probe	BX	s061
400.756	0.5	BY	n/a	n/a	dot_pattern_expectancy	-1.0	n/a	cue	BY	s061
403.258	0.5	BY	1.0	71.0	dot_pattern_expectancy	71.0	0.799	probe	BY	s061
404.761	0.5	AX	n/a	n/a	dot_pattern_expectancy	-1.0	n/a	cue	AX	s061
407.264	0.5	AX	1.0	89.0	dot_pattern_expectancy	89.0	1.052	probe	AX	s061
408.767	0.5	AX	n/a	n/a	dot_pattern_expectancy	-1.0	n/a	cue	AX	s061
411.27	0.5	AX	1.0	89.0	dot_pattern_expectancy	89.0	0.527	probe	AX	s061
413.045	0.5	BY	n/a	n/a	dot_pattern_expectancy	-1.0	n/a	cue	BY	s061
415.548	0.5	BY	1.0	71.0	dot_pattern_expectancy	71.0	0.29	probe	BY	s061
418.005	0.5	AX	n/a	n/a	dot_pattern_expectancy	-1.0	n/a	cue	AX	s061
420.508	0.5	AX	1.0	89.0	dot_pattern_expectancy	89.0	0.862	probe	AX	s061
422.42	0.5	BX	n/a	n/a	dot_pattern_expectancy	-1.0	n/a	cue	BX	s061
424.923	0.5	BX	1.0	71.0	dot_pattern_expectancy	71.0	0.399	probe	BX	s061
426.561	0.5	AX	n/a	n/a	dot_pattern_expectancy	-1.0	n/a	cue	AX	s061
429.064	0.5	AX	1.0	89.0	dot_pattern_expectancy	89.0	0.584	probe	AX	s061
430.566	0.5	AX	n/a	n/a	dot_pattern_expectancy	-1.0	n/a	cue	AX	s061
433.07	0.5	AX	1.0	89.0	dot_pattern_expectancy	89.0	0.467	probe	AX	s061
434.709	0.5	AX	n/a	n/a	dot_pattern_expectancy	-1.0	n/a	cue	AX	s061
437.212	0.5	AX	1.0	89.0	dot_pattern_expectancy	89.0	0.498	probe	AX	s061
438.851	0.5	BY	n/a	n/a	dot_pattern_expectancy	-1.0	n/a	cue	BY	s061
441.354	0.5	BY	1.0	71.0	dot_pattern_expectancy	71.0	0.318	probe	BY	s061
443.808	0.5	AX	n/a	n/a	dot_pattern_expectancy	-1.0	n/a	cue	AX	s061
446.312	0.5	AX	1.0	89.0	dot_pattern_expectancy	89.0	0.519	probe	AX	s061
447.816	0.5	BY	n/a	n/a	dot_pattern_expectancy	-1.0	n/a	cue	BY	s061
450.32	0.5	BY	1.0	71.0	dot_pattern_expectancy	71.0	0.792	probe	BY	s061
451.823	0.5	AX	n/a	n/a	dot_pattern_expectancy	-1.0	n/a	cue	AX	s061
454.328	0.5	AX	1.0	89.0	dot_pattern_expectancy	89.0	0.494	probe	AX	s061
455.967	0.5	AX	n/a	n/a	dot_pattern_expectancy	-1.0	n/a	cue	AX	s061
458.471	0.5	AX	1.0	89.0	dot_pattern_expectancy	89.0	0.467	probe	AX	s061
460.111	0.5	AY	n/a	n/a	dot_pattern_expectancy	-1.0	n/a	cue	AY	s061
462.615	0.5	AY	1.0	71.0	dot_pattern_expectancy	71.0	0.882	probe	AY	s061
464.255	0.5	AX	n/a	n/a	dot_pattern_expectancy	-1.0	n/a	cue	AX	s061
466.759	0.5	AX	1.0	89.0	dot_pattern_expectancy	89.0	0.619	probe	AX	s061
468.261	0.5	AX	n/a	n/a	dot_pattern_expectancy	-1.0	n/a	cue	AX	s061
470.765	0.5	AX	1.0	89.0	dot_pattern_expectancy	89.0	0.718	probe	AX	s061
472.268	0.5	AX	n/a	n/a	dot_pattern_expectancy	-1.0	n/a	cue	AX	s061
474.772	0.5	AX	1.0	89.0	dot_pattern_expectancy	89.0	0.543	probe	AX	s061
476.548	0.5	AX	n/a	n/a	dot_pattern_expectancy	-1.0	n/a	cue	AX	s061
479.05	0.5	AX	1.0	89.0	dot_pattern_expectancy	89.0	0.469	probe	AX	s061
481.232	0.5	BX	n/a	n/a	dot_pattern_expectancy	-1.0	n/a	cue	BX	s061
483.736	0.5	BX	1.0	71.0	dot_pattern_expectancy	71.0	0.361	probe	BX	s061
485.511	0.5	BY	n/a	n/a	dot_pattern_expectancy	-1.0	n/a	cue	BY	s061
488.016	0.5	BY	1.0	71.0	dot_pattern_expectancy	71.0	0.649	probe	BY	s061
489.519	0.5	AX	n/a	n/a	dot_pattern_expectancy	-1.0	n/a	cue	AX	s061
492.022	0.5	AX	1.0	89.0	dot_pattern_expectancy	89.0	0.485	probe	AX	s061
493.526	0.5	AX	n/a	n/a	dot_pattern_expectancy	-1.0	n/a	cue	AX	s061
496.031	0.5	AX	1.0	89.0	dot_pattern_expectancy	89.0	0.608	probe	AX	s061
497.67	0.5	AY	n/a	n/a	dot_pattern_expectancy	-1.0	n/a	cue	AY	s061
500.174	0.5	AY	1.0	71.0	dot_pattern_expectancy	71.0	0.792	probe	AY	s061
502.357	0.5	AY	n/a	n/a	dot_pattern_expectancy	-1.0	n/a	cue	AY	s061
504.861	0.5	AY	1.0	71.0	dot_pattern_expectancy	71.0	0.748	probe	AY	s061
507.18	0.5	BX	n/a	n/a	dot_pattern_expectancy	-1.0	n/a	cue	BX	s061
509.684	0.5	BX	1.0	71.0	dot_pattern_expectancy	71.0	1.034	probe	BX	s061
511.323	0.5	BX	n/a	n/a	dot_pattern_expectancy	-1.0	n/a	cue	BX	s061
513.828	0.5	BX	1.0	71.0	dot_pattern_expectancy	71.0	0.804	probe	BX	s061
516.011	0.5	AY	n/a	n/a	dot_pattern_expectancy	-1.0	n/a	cue	AY	s061
518.516	0.5	AY	1.0	71.0	dot_pattern_expectancy	71.0	0.671	probe	AY	s061
520.562	0.5	AX	n/a	n/a	dot_pattern_expectancy	-1.0	n/a	cue	AX	s061
523.066	0.5	AX	1.0	89.0	dot_pattern_expectancy	89.0	0.518	probe	AX	s061
524.841	0.5	AX	n/a	n/a	dot_pattern_expectancy	-1.0	n/a	cue	AX	s061
527.346	0.5	AX	1.0	89.0	dot_pattern_expectancy	89.0	1.316	probe	AX	s061
528.85	0.5	AX	n/a	n/a	dot_pattern_expectancy	-1.0	n/a	cue	AX	s061
531.354	0.5	AX	1.0	89.0	dot_pattern_expectancy	89.0	0.372	probe	AX	s061
533.537	0.5	AY	n/a	n/a	dot_pattern_expectancy	-1.0	n/a	cue	AY	s061
536.043	0.5	AY	1.0	71.0	dot_pattern_expectancy	71.0	0.617	probe	AY	s061
538.498	0.5	AX	n/a	n/a	dot_pattern_expectancy	-1.0	n/a	cue	AX	s061
541.001	0.5	AX	1.0	89.0	dot_pattern_expectancy	89.0	0.746	probe	AX	s061
542.641	0.5	AX	n/a	n/a	dot_pattern_expectancy	-1.0	n/a	cue	AX	s061
545.144	0.5	AX	1.0	89.0	dot_pattern_expectancy	89.0	0.592	probe	AX	s061
557.56	0.5	AX	n/a	n/a	dot_pattern_expectancy	-1.0	n/a	cue	AX	s061
560.064	0.5	AX	1.0	89.0	dot_pattern_expectancy	89.0	0.537	probe	AX	s061
561.838	0.5	AX	n/a	n/a	dot_pattern_expectancy	-1.0	n/a	cue	AX	s061
564.343	0.5	AX	1.0	89.0	dot_pattern_expectancy	89.0	0.479	probe	AX	s061
565.846	0.5	AY	n/a	n/a	dot_pattern_expectancy	-1.0	n/a	cue	AY	s061
568.35	0.5	AY	1.0	71.0	dot_pattern_expectancy	71.0	0.67	probe	AY	s061
570.804	0.5	AY	n/a	n/a	dot_pattern_expectancy	-1.0	n/a	cue	AY	s061
573.307	0.5	AY	1.0	71.0	dot_pattern_expectancy	71.0	0.649	probe	AY	s061
575.081	0.5	AX	n/a	n/a	dot_pattern_expectancy	-1.0	n/a	cue	AX	s061
577.586	0.5	AX	1.0	89.0	dot_pattern_expectancy	89.0	0.626	probe	AX	s061
579.497	0.5	AX	n/a	n/a	dot_pattern_expectancy	-1.0	n/a	cue	AX	s061
582.001	0.5	AX	1.0	89.0	dot_pattern_expectancy	89.0	0.723	probe	AX	s061
583.912	0.5	AX	n/a	n/a	dot_pattern_expectancy	-1.0	n/a	cue	AX	s061
586.416	0.5	AX	1.0	89.0	dot_pattern_expectancy	89.0	0.512	probe	AX	s061
589.007	0.5	AY	n/a	n/a	dot_pattern_expectancy	-1.0	n/a	cue	AY	s061
591.511	0.5	AY	1.0	71.0	dot_pattern_expectancy	71.0	0.693	probe	AY	s061
593.013	0.5	BY	n/a	n/a	dot_pattern_expectancy	-1.0	n/a	cue	BY	s061
595.518	0.5	BY	1.0	71.0	dot_pattern_expectancy	71.0	0.728	probe	BY	s061
597.021	0.5	BY	n/a	n/a	dot_pattern_expectancy	-1.0	n/a	cue	BY	s061
599.525	0.5	BY	1.0	71.0	dot_pattern_expectancy	71.0	0.334	probe	BY	s061
601.028	0.5	AX	n/a	n/a	dot_pattern_expectancy	-1.0	n/a	cue	AX	s061
603.533	0.5	AX	1.0	89.0	dot_pattern_expectancy	89.0	0.442	probe	AX	s061
605.172	0.5	BX	n/a	n/a	dot_pattern_expectancy	-1.0	n/a	cue	BX	s061
607.676	0.5	BX	1.0	71.0	dot_pattern_expectancy	71.0	0.306	probe	BX	s061
609.722	0.5	AX	n/a	n/a	dot_pattern_expectancy	-1.0	n/a	cue	AX	s061
612.226	0.5	AX	1.0	89.0	dot_pattern_expectancy	89.0	0.444	probe	AX	s061
614.0	0.5	BX	n/a	n/a	dot_pattern_expectancy	-1.0	n/a	cue	BX	s061
616.504	0.5	BX	1.0	71.0	dot_pattern_expectancy	71.0	0.28	probe	BX	s061
619.093	0.5	AY	n/a	n/a	dot_pattern_expectancy	-1.0	n/a	cue	AY	s061
621.597	0.5	AY	1.0	71.0	dot_pattern_expectancy	71.0	0.867	probe	AY	s061
623.099	0.5	AX	n/a	n/a	dot_pattern_expectancy	-1.0	n/a	cue	AX	s061
625.602	0.5	AX	1.0	89.0	dot_pattern_expectancy	89.0	0.81	probe	AX	s061
628.058	0.5	BY	n/a	n/a	dot_pattern_expectancy	-1.0	n/a	cue	BY	s061
630.562	0.5	BY	1.0	71.0	dot_pattern_expectancy	71.0	0.257	probe	BY	s061
632.201	0.5	AX	n/a	n/a	dot_pattern_expectancy	-1.0	n/a	cue	AX	s061
634.704	0.5	AX	1.0	89.0	dot_pattern_expectancy	89.0	0.545	probe	AX	s061
636.342	0.5	AX	n/a	n/a	dot_pattern_expectancy	-1.0	n/a	cue	AX	s061
638.846	0.5	AX	1.0	89.0	dot_pattern_expectancy	89.0	0.505	probe	AX	s061
640.349	0.5	BY	n/a	n/a	dot_pattern_expectancy	-1.0	n/a	cue	BY	s061
642.852	0.5	BY	1.0	71.0	dot_pattern_expectancy	71.0	0.261	probe	BY	s061
644.492	0.5	AX	n/a	n/a	dot_pattern_expectancy	-1.0	n/a	cue	AX	s061
646.996	0.5	AX	1.0	89.0	dot_pattern_expectancy	89.0	0.499	probe	AX	s061
648.497	0.5	AY	n/a	n/a	dot_pattern_expectancy	-1.0	n/a	cue	AY	s061
651.002	0.5	AY	1.0	71.0	dot_pattern_expectancy	71.0	0.574	probe	AY	s061
653.185	0.5	AX	n/a	n/a	dot_pattern_expectancy	-1.0	n/a	cue	AX	s061
655.689	0.5	AX	1.0	89.0	dot_pattern_expectancy	89.0	0.668	probe	AX	s061
657.191	0.5	AX	n/a	n/a	dot_pattern_expectancy	-1.0	n/a	cue	AX	s061
659.695	0.5	AX	1.0	89.0	dot_pattern_expectancy	89.0	0.492	probe	AX	s061
661.606	0.5	BY	n/a	n/a	dot_pattern_expectancy	-1.0	n/a	cue	BY	s061
664.112	0.5	BY	1.0	71.0	dot_pattern_expectancy	71.0	0.297	probe	BY	s061
665.751	0.5	BY	n/a	n/a	dot_pattern_expectancy	-1.0	n/a	cue	BY	s061
668.255	0.5	BY	1.0	71.0	dot_pattern_expectancy	71.0	0.73	probe	BY	s061
669.895	0.5	AX	n/a	n/a	dot_pattern_expectancy	-1.0	n/a	cue	AX	s061
672.399	0.5	AX	1.0	89.0	dot_pattern_expectancy	89.0	0.513	probe	AX	s061
674.038	0.5	AX	n/a	n/a	dot_pattern_expectancy	-1.0	n/a	cue	AX	s061
676.542	0.5	AX	1.0	89.0	dot_pattern_expectancy	89.0	0.509	probe	AX	s061
678.045	0.5	BY	n/a	n/a	dot_pattern_expectancy	-1.0	n/a	cue	BY	s061
680.549	0.5	BY	1.0	71.0	dot_pattern_expectancy	71.0	0.324	probe	BY	s061
682.594	0.5	AY	n/a	n/a	dot_pattern_expectancy	-1.0	n/a	cue	AY	s061
685.099	0.5	AY	1.0	71.0	dot_pattern_expectancy	71.0	0.742	probe	AY	s061
687.282	0.5	AY	n/a	n/a	dot_pattern_expectancy	-1.0	n/a	cue	AY	s061
689.786	0.5	AY	1.0	71.0	dot_pattern_expectancy	71.0	0.66	probe	AY	s061
691.426	0.5	AY	n/a	n/a	dot_pattern_expectancy	-1.0	n/a	cue	AY	s061
693.931	0.5	AY	1.0	71.0	dot_pattern_expectancy	71.0	0.686	probe	AY	s061
695.704	0.5	BY	n/a	n/a	dot_pattern_expectancy	-1.0	n/a	cue	BY	s061
698.208	0.5	BY	1.0	71.0	dot_pattern_expectancy	71.0	0.525	probe	BY	s061
699.71	0.5	BX	n/a	n/a	dot_pattern_expectancy	-1.0	n/a	cue	BX	s061
702.214	0.5	BX	1.0	71.0	dot_pattern_expectancy	71.0	0.439	probe	BX	s061
704.126	0.5	AX	n/a	n/a	dot_pattern_expectancy	-1.0	n/a	cue	AX	s061
706.63	0.5	AX	1.0	89.0	dot_pattern_expectancy	89.0	0.45	probe	AX	s061
708.676	0.5	AX	n/a	n/a	dot_pattern_expectancy	-1.0	n/a	cue	AX	s061
711.18	0.5	AX	1.0	89.0	dot_pattern_expectancy	89.0	0.773	probe	AX	s061
712.818	0.5	AX	n/a	n/a	dot_pattern_expectancy	-1.0	n/a	cue	AX	s061
715.322	0.5	AX	1.0	89.0	dot_pattern_expectancy	89.0	0.508	probe	AX	s061
717.097	0.5	AX	n/a	n/a	dot_pattern_expectancy	-1.0	n/a	cue	AX	s061
719.601	0.5	AX	1.0	89.0	dot_pattern_expectancy	89.0	0.59	probe	AX	s061
721.24	0.5	BX	n/a	n/a	dot_pattern_expectancy	-1.0	n/a	cue	BX	s061
723.745	0.5	BX	1.0	71.0	dot_pattern_expectancy	71.0	0.355	probe	BX	s061
725.52	0.5	AX	n/a	n/a	dot_pattern_expectancy	-1.0	n/a	cue	AX	s061
728.024	0.5	AX	1.0	89.0	dot_pattern_expectancy	89.0	0.454	probe	AX	s061
