onset	duration	planning	condition	current_position	exp_stage	experiment_exp_id	goal_state	key_press	problem_id	response_time	start_state	trial_id	worker_id
-56.838	0.0	0	n/a	n/a	n/a	ward_and_allport	n/a	32.0	n/a	12.389	n/a	instructions	s512
3.009	3.525	1	UA_with_intermediate	1,0,0,2,0,0,0,0,0	practice	ward_and_allport	1,2,3,0,0,0,0,0,0	71.0	0.0	3.525	1,0,0,2,3,0,0,0,0	to_hand	s512
6.536	0.94	0	UA_with_intermediate	1,0,0,2,0,0,3,0,0	practice	ward_and_allport	1,2,3,0,0,0,0,0,0	82.0	0.0	0.94	1,0,0,2,3,0,0,0,0	to_board	s512
7.48	0.697	0	UA_with_intermediate	1,0,0,0,0,0,3,0,0	practice	ward_and_allport	1,2,3,0,0,0,0,0,0	71.0	0.0	0.697	1,0,0,2,3,0,0,0,0	to_hand	s512
8.178	0.546	0	UA_with_intermediate	1,2,0,0,0,0,3,0,0	practice	ward_and_allport	1,2,3,0,0,0,0,0,0	89.0	0.0	0.546	1,0,0,2,3,0,0,0,0	to_board	s512
8.727	0.881	0	UA_with_intermediate	1,2,0,0,0,0,0,0,0	practice	ward_and_allport	1,2,3,0,0,0,0,0,0	82.0	0.0	0.881	1,0,0,2,3,0,0,0,0	to_hand	s512
9.609	0.519	0	UA_with_intermediate	1,2,3,0,0,0,0,0,0	practice	ward_and_allport	1,2,3,0,0,0,0,0,0	89.0	0.0	0.519	1,0,0,2,3,0,0,0,0	to_board	s512
10.133	1.0	0	UA_with_intermediate	n/a	practice	ward_and_allport	n/a	-1.0	0.0	n/a	n/a	feedback	s512
12.637	3.801	1	UA_with_intermediate	1,0,0,3,0,0,0,0,0	practice	ward_and_allport	1,3,2,0,0,0,0,0,0	89.0	1.0	3.801	1,2,0,3,0,0,0,0,0	to_hand	s512
16.44	0.781	0	UA_with_intermediate	1,0,0,3,0,0,2,0,0	practice	ward_and_allport	1,3,2,0,0,0,0,0,0	82.0	1.0	0.781	1,2,0,3,0,0,0,0,0	to_board	s512
17.224	0.67	0	UA_with_intermediate	1,0,0,0,0,0,2,0,0	practice	ward_and_allport	1,3,2,0,0,0,0,0,0	71.0	1.0	0.67	1,2,0,3,0,0,0,0,0	to_hand	s512
17.896	0.562	0	UA_with_intermediate	1,3,0,0,0,0,2,0,0	practice	ward_and_allport	1,3,2,0,0,0,0,0,0	89.0	1.0	0.562	1,2,0,3,0,0,0,0,0	to_board	s512
18.461	0.654	0	UA_with_intermediate	1,3,0,0,0,0,0,0,0	practice	ward_and_allport	1,3,2,0,0,0,0,0,0	82.0	1.0	0.654	1,2,0,3,0,0,0,0,0	to_hand	s512
19.115	0.44	0	UA_with_intermediate	1,3,2,0,0,0,0,0,0	practice	ward_and_allport	1,3,2,0,0,0,0,0,0	89.0	1.0	0.44	1,2,0,3,0,0,0,0,0	to_board	s512
19.559	1.0	0	UA_with_intermediate	n/a	practice	ward_and_allport	n/a	-1.0	1.0	n/a	n/a	feedback	s512
20.559	1.1	0	UA_with_intermediate	n/a	practice	ward_and_allport	n/a	-1.0	1.0	n/a	n/a	ITI	s512
21.662	1.799	1	UA_without_intermediate	0,0,0,1,2,0,0,0,0	practice	ward_and_allport	3,2,1,0,0,0,0,0,0	82.0	2.0	1.799	0,0,0,1,2,0,3,0,0	to_hand	s512
23.462	0.391	0	UA_without_intermediate	3,0,0,1,2,0,0,0,0	practice	ward_and_allport	3,2,1,0,0,0,0,0,0	89.0	2.0	0.391	0,0,0,1,2,0,3,0,0	to_board	s512
23.857	0.669	0	UA_without_intermediate	3,0,0,1,0,0,0,0,0	practice	ward_and_allport	3,2,1,0,0,0,0,0,0	71.0	2.0	0.669	0,0,0,1,2,0,3,0,0	to_hand	s512
24.527	0.426	0	UA_without_intermediate	3,2,0,1,0,0,0,0,0	practice	ward_and_allport	3,2,1,0,0,0,0,0,0	89.0	2.0	0.426	0,0,0,1,2,0,3,0,0	to_board	s512
24.956	1.651	0	UA_without_intermediate	3,2,0,0,0,0,0,0,0	practice	ward_and_allport	3,2,1,0,0,0,0,0,0	71.0	2.0	1.651	0,0,0,1,2,0,3,0,0	to_hand	s512
26.607	0.439	0	UA_without_intermediate	3,2,1,0,0,0,0,0,0	practice	ward_and_allport	3,2,1,0,0,0,0,0,0	89.0	2.0	0.439	0,0,0,1,2,0,3,0,0	to_board	s512
27.05	1.0	0	UA_without_intermediate	n/a	practice	ward_and_allport	n/a	-1.0	2.0	n/a	n/a	feedback	s512
28.05	1.2	0	UA_without_intermediate	n/a	practice	ward_and_allport	n/a	-1.0	2.0	n/a	n/a	ITI	s512
29.253	2.217	1	UA_without_intermediate	0,0,0,1,0,0,3,0,0	practice	ward_and_allport	2,3,1,0,0,0,0,0,0	71.0	3.0	2.217	0,0,0,1,2,0,3,0,0	to_hand	s512
31.472	0.432	0	UA_without_intermediate	2,0,0,1,0,0,3,0,0	practice	ward_and_allport	2,3,1,0,0,0,0,0,0	89.0	3.0	0.432	0,0,0,1,2,0,3,0,0	to_board	s512
31.907	1.043	0	UA_without_intermediate	2,0,0,1,0,0,0,0,0	practice	ward_and_allport	2,3,1,0,0,0,0,0,0	82.0	3.0	1.043	0,0,0,1,2,0,3,0,0	to_hand	s512
32.952	0.433	0	UA_without_intermediate	2,3,0,1,0,0,0,0,0	practice	ward_and_allport	2,3,1,0,0,0,0,0,0	89.0	3.0	0.433	0,0,0,1,2,0,3,0,0	to_board	s512
33.388	0.541	0	UA_without_intermediate	2,3,0,0,0,0,0,0,0	practice	ward_and_allport	2,3,1,0,0,0,0,0,0	71.0	3.0	0.541	0,0,0,1,2,0,3,0,0	to_hand	s512
33.931	0.519	0	UA_without_intermediate	2,3,1,0,0,0,0,0,0	practice	ward_and_allport	2,3,1,0,0,0,0,0,0	89.0	3.0	0.519	0,0,0,1,2,0,3,0,0	to_board	s512
34.454	1.0	0	UA_without_intermediate	n/a	practice	ward_and_allport	n/a	-1.0	3.0	n/a	n/a	feedback	s512
35.454	1.0	0	UA_without_intermediate	n/a	practice	ward_and_allport	n/a	-1.0	3.0	n/a	n/a	ITI	s512
38.461	4.341	1	PA_without_intermediate	0,0,0,0,0,0,1,2,0	test	ward_and_allport	2,0,0,3,1,0,0,0,0	82.0	0.0	4.341	0,0,0,0,0,0,1,2,3	to_hand	s512
42.803	0.85	0	PA_without_intermediate	0,0,0,3,0,0,1,2,0	test	ward_and_allport	2,0,0,3,1,0,0,0,0	71.0	0.0	0.85	0,0,0,0,0,0,1,2,3	to_board	s512
43.655	2.388	0	PA_without_intermediate	0,0,0,3,0,0,1,0,0	test	ward_and_allport	2,0,0,3,1,0,0,0,0	82.0	0.0	2.388	0,0,0,0,0,0,1,2,3	to_hand	s512
46.045	0.562	0	PA_without_intermediate	2,0,0,3,0,0,1,0,0	test	ward_and_allport	2,0,0,3,1,0,0,0,0	89.0	0.0	0.562	0,0,0,0,0,0,1,2,3	to_board	s512
46.609	1.037	0	PA_without_intermediate	2,0,0,3,0,0,0,0,0	test	ward_and_allport	2,0,0,3,1,0,0,0,0	82.0	0.0	1.037	0,0,0,0,0,0,1,2,3	to_hand	s512
47.648	0.673	0	PA_without_intermediate	2,0,0,3,1,0,0,0,0	test	ward_and_allport	2,0,0,3,1,0,0,0,0	71.0	0.0	0.673	0,0,0,0,0,0,1,2,3	to_board	s512
48.325	1.0	0	PA_without_intermediate	n/a	test	ward_and_allport	n/a	-1.0	0.0	n/a	n/a	feedback	s512
49.325	2.088	0	PA_without_intermediate	n/a	test	ward_and_allport	n/a	-1.0	0.0	n/a	n/a	ITI	s512
51.416	3.705	1	PA_with_intermediate	0,0,0,0,0,0,1,2,0	test	ward_and_allport	2,0,0,0,0,0,1,3,0	82.0	1.0	3.705	0,0,0,0,0,0,1,2,3	to_hand	s512
55.123	0.597	0	PA_with_intermediate	0,0,0,3,0,0,1,2,0	test	ward_and_allport	2,0,0,0,0,0,1,3,0	71.0	1.0	0.597	0,0,0,0,0,0,1,2,3	to_board	s512
55.723	1.062	0	PA_with_intermediate	0,0,0,3,0,0,1,0,0	test	ward_and_allport	2,0,0,0,0,0,1,3,0	82.0	1.0	1.062	0,0,0,0,0,0,1,2,3	to_hand	s512
56.787	0.687	0	PA_with_intermediate	2,0,0,3,0,0,1,0,0	test	ward_and_allport	2,0,0,0,0,0,1,3,0	89.0	1.0	0.687	0,0,0,0,0,0,1,2,3	to_board	s512
57.479	0.854	0	PA_with_intermediate	2,0,0,0,0,0,1,0,0	test	ward_and_allport	2,0,0,0,0,0,1,3,0	71.0	1.0	0.854	0,0,0,0,0,0,1,2,3	to_hand	s512
58.335	0.732	0	PA_with_intermediate	2,0,0,0,0,0,1,3,0	test	ward_and_allport	2,0,0,0,0,0,1,3,0	82.0	1.0	0.732	0,0,0,0,0,0,1,2,3	to_board	s512
59.072	1.0	0	PA_with_intermediate	n/a	test	ward_and_allport	n/a	-1.0	1.0	n/a	n/a	feedback	s512
60.072	1.0	0	PA_with_intermediate	n/a	test	ward_and_allport	n/a	-1.0	1.0	n/a	n/a	ITI	s512
61.074	3.233	1	PA_without_intermediate	1,2,0,0,0,0,0,0,0	test	ward_and_allport	0,0,0,3,2,0,1,0,0	89.0	2.0	3.233	1,2,3,0,0,0,0,0,0	to_hand	s512
64.308	1.126	0	PA_without_intermediate	1,2,0,3,0,0,0,0,0	test	ward_and_allport	0,0,0,3,2,0,1,0,0	71.0	2.0	1.126	1,2,3,0,0,0,0,0,0	to_board	s512
65.438	1.171	0	PA_without_intermediate	1,0,0,3,0,0,0,0,0	test	ward_and_allport	0,0,0,3,2,0,1,0,0	89.0	2.0	1.171	1,2,3,0,0,0,0,0,0	to_hand	s512
66.611	0.433	0	PA_without_intermediate	1,0,0,3,2,0,0,0,0	test	ward_and_allport	0,0,0,3,2,0,1,0,0	71.0	2.0	0.433	1,2,3,0,0,0,0,0,0	to_board	s512
67.046	0.895	0	PA_without_intermediate	0,0,0,3,2,0,0,0,0	test	ward_and_allport	0,0,0,3,2,0,1,0,0	89.0	2.0	0.895	1,2,3,0,0,0,0,0,0	to_hand	s512
67.942	0.511	0	PA_without_intermediate	0,0,0,3,2,0,1,0,0	test	ward_and_allport	0,0,0,3,2,0,1,0,0	82.0	2.0	0.511	1,2,3,0,0,0,0,0,0	to_board	s512
68.458	1.0	0	PA_without_intermediate	n/a	test	ward_and_allport	n/a	-1.0	2.0	n/a	n/a	feedback	s512
69.458	1.0	0	PA_without_intermediate	n/a	test	ward_and_allport	n/a	-1.0	2.0	n/a	n/a	ITI	s512
70.463	2.554	1	PA_without_intermediate	0,0,0,0,0,0,1,2,0	test	ward_and_allport	1,0,0,3,2,0,0,0,0	82.0	3.0	2.554	0,0,0,0,0,0,1,2,3	to_hand	s512
73.018	0.508	0	PA_without_intermediate	0,0,0,3,0,0,1,2,0	test	ward_and_allport	1,0,0,3,2,0,0,0,0	71.0	3.0	0.508	0,0,0,0,0,0,1,2,3	to_board	s512
73.53	1.955	0	PA_without_intermediate	0,0,0,3,0,0,1,0,0	test	ward_and_allport	1,0,0,3,2,0,0,0,0	82.0	3.0	1.955	0,0,0,0,0,0,1,2,3	to_hand	s512
75.486	0.5	0	PA_without_intermediate	0,0,0,3,2,0,1,0,0	test	ward_and_allport	1,0,0,3,2,0,0,0,0	71.0	3.0	0.5	0,0,0,0,0,0,1,2,3	to_board	s512
75.99	0.535	0	PA_without_intermediate	0,0,0,3,2,0,0,0,0	test	ward_and_allport	1,0,0,3,2,0,0,0,0	82.0	3.0	0.535	0,0,0,0,0,0,1,2,3	to_hand	s512
76.527	0.399	0	PA_without_intermediate	1,0,0,3,2,0,0,0,0	test	ward_and_allport	1,0,0,3,2,0,0,0,0	89.0	3.0	0.399	0,0,0,0,0,0,1,2,3	to_board	s512
76.931	1.0	0	PA_without_intermediate	n/a	test	ward_and_allport	n/a	-1.0	3.0	n/a	n/a	feedback	s512
77.931	1.0	0	PA_without_intermediate	n/a	test	ward_and_allport	n/a	-1.0	3.0	n/a	n/a	ITI	s512
78.935	2.962	1	PA_with_intermediate	0,0,0,1,2,0,0,0,0	test	ward_and_allport	0,0,0,1,0,0,2,3,0	71.0	4.0	2.962	0,0,0,1,2,3,0,0,0	to_hand	s512
81.899	0.478	0	PA_with_intermediate	3,0,0,1,2,0,0,0,0	test	ward_and_allport	0,0,0,1,0,0,2,3,0	89.0	4.0	0.478	0,0,0,1,2,3,0,0,0	to_board	s512
82.382	0.71	0	PA_with_intermediate	3,0,0,1,0,0,0,0,0	test	ward_and_allport	0,0,0,1,0,0,2,3,0	71.0	4.0	0.71	0,0,0,1,2,3,0,0,0	to_hand	s512
83.094	0.513	0	PA_with_intermediate	3,0,0,1,0,0,2,0,0	test	ward_and_allport	0,0,0,1,0,0,2,3,0	82.0	4.0	0.513	0,0,0,1,2,3,0,0,0	to_board	s512
83.611	0.71	0	PA_with_intermediate	0,0,0,1,0,0,2,0,0	test	ward_and_allport	0,0,0,1,0,0,2,3,0	89.0	4.0	0.71	0,0,0,1,2,3,0,0,0	to_hand	s512
84.322	0.448	0	PA_with_intermediate	0,0,0,1,0,0,2,3,0	test	ward_and_allport	0,0,0,1,0,0,2,3,0	82.0	4.0	0.448	0,0,0,1,2,3,0,0,0	to_board	s512
84.776	1.0	0	PA_with_intermediate	n/a	test	ward_and_allport	n/a	-1.0	4.0	n/a	n/a	feedback	s512
85.776	1.544	0	PA_with_intermediate	n/a	test	ward_and_allport	n/a	-1.0	4.0	n/a	n/a	ITI	s512
87.323	2.077	1	PA_without_intermediate	0,0,0,1,2,0,0,0,0	test	ward_and_allport	2,0,0,0,0,0,3,1,0	71.0	5.0	2.077	0,0,0,1,2,3,0,0,0	to_hand	s512
89.401	0.645	0	PA_without_intermediate	0,0,0,1,2,0,3,0,0	test	ward_and_allport	2,0,0,0,0,0,3,1,0	82.0	5.0	0.645	0,0,0,1,2,3,0,0,0	to_board	s512
90.051	0.57	0	PA_without_intermediate	0,0,0,1,0,0,3,0,0	test	ward_and_allport	2,0,0,0,0,0,3,1,0	71.0	5.0	0.57	0,0,0,1,2,3,0,0,0	to_hand	s512
90.622	0.521	0	PA_without_intermediate	2,0,0,1,0,0,3,0,0	test	ward_and_allport	2,0,0,0,0,0,3,1,0	89.0	5.0	0.521	0,0,0,1,2,3,0,0,0	to_board	s512
91.146	0.873	0	PA_without_intermediate	2,0,0,0,0,0,3,0,0	test	ward_and_allport	2,0,0,0,0,0,3,1,0	71.0	5.0	0.873	0,0,0,1,2,3,0,0,0	to_hand	s512
92.021	0.676	0	PA_without_intermediate	2,0,0,0,0,0,3,1,0	test	ward_and_allport	2,0,0,0,0,0,3,1,0	82.0	5.0	0.676	0,0,0,1,2,3,0,0,0	to_board	s512
92.702	1.0	0	PA_without_intermediate	n/a	test	ward_and_allport	n/a	-1.0	5.0	n/a	n/a	feedback	s512
93.702	1.272	0	PA_without_intermediate	n/a	test	ward_and_allport	n/a	-1.0	5.0	n/a	n/a	ITI	s512
94.979	3.524	1	PA_with_intermediate	0,0,0,0,0,0,1,2,0	test	ward_and_allport	0,0,0,2,0,0,1,3,0	82.0	6.0	3.524	0,0,0,0,0,0,1,2,3	to_hand	s512
98.505	0.488	0	PA_with_intermediate	3,0,0,0,0,0,1,2,0	test	ward_and_allport	0,0,0,2,0,0,1,3,0	89.0	6.0	0.488	0,0,0,0,0,0,1,2,3	to_board	s512
98.998	0.567	0	PA_with_intermediate	3,0,0,0,0,0,1,0,0	test	ward_and_allport	0,0,0,2,0,0,1,3,0	82.0	6.0	0.567	0,0,0,0,0,0,1,2,3	to_hand	s512
99.567	0.464	0	PA_with_intermediate	3,0,0,2,0,0,1,0,0	test	ward_and_allport	0,0,0,2,0,0,1,3,0	71.0	6.0	0.464	0,0,0,0,0,0,1,2,3	to_board	s512
100.035	0.468	0	PA_with_intermediate	0,0,0,2,0,0,1,0,0	test	ward_and_allport	0,0,0,2,0,0,1,3,0	89.0	6.0	0.468	0,0,0,0,0,0,1,2,3	to_hand	s512
100.504	0.699	0	PA_with_intermediate	0,0,0,2,0,0,1,3,0	test	ward_and_allport	0,0,0,2,0,0,1,3,0	82.0	6.0	0.699	0,0,0,0,0,0,1,2,3	to_board	s512
101.208	1.0	0	PA_with_intermediate	n/a	test	ward_and_allport	n/a	-1.0	6.0	n/a	n/a	feedback	s512
102.208	3.04	0	PA_with_intermediate	n/a	test	ward_and_allport	n/a	-1.0	6.0	n/a	n/a	ITI	s512
105.252	2.52	1	PA_with_intermediate	0,0,0,0,0,0,1,2,0	test	ward_and_allport	0,0,0,2,3,0,1,0,0	82.0	7.0	2.52	0,0,0,0,0,0,1,2,3	to_hand	s512
107.773	0.531	0	PA_with_intermediate	3,0,0,0,0,0,1,2,0	test	ward_and_allport	0,0,0,2,3,0,1,0,0	89.0	7.0	0.531	0,0,0,0,0,0,1,2,3	to_board	s512
108.308	1.152	0	PA_with_intermediate	3,0,0,0,0,0,1,0,0	test	ward_and_allport	0,0,0,2,3,0,1,0,0	82.0	7.0	1.152	0,0,0,0,0,0,1,2,3	to_hand	s512
109.462	0.496	0	PA_with_intermediate	3,0,0,2,0,0,1,0,0	test	ward_and_allport	0,0,0,2,3,0,1,0,0	71.0	7.0	0.496	0,0,0,0,0,0,1,2,3	to_board	s512
109.962	0.567	0	PA_with_intermediate	0,0,0,2,0,0,1,0,0	test	ward_and_allport	0,0,0,2,3,0,1,0,0	89.0	7.0	0.567	0,0,0,0,0,0,1,2,3	to_hand	s512
110.53	0.659	0	PA_with_intermediate	0,0,0,2,3,0,1,0,0	test	ward_and_allport	0,0,0,2,3,0,1,0,0	71.0	7.0	0.659	0,0,0,0,0,0,1,2,3	to_board	s512
111.196	1.0	0	PA_with_intermediate	n/a	test	ward_and_allport	n/a	-1.0	7.0	n/a	n/a	feedback	s512
112.196	1.272	0	PA_with_intermediate	n/a	test	ward_and_allport	n/a	-1.0	7.0	n/a	n/a	ITI	s512
113.473	2.521	1	PA_with_intermediate	0,0,0,1,2,0,0,0,0	test	ward_and_allport	0,0,0,1,3,0,2,0,0	71.0	8.0	2.521	0,0,0,1,2,3,0,0,0	to_hand	s512
115.995	0.515	0	PA_with_intermediate	3,0,0,1,2,0,0,0,0	test	ward_and_allport	0,0,0,1,3,0,2,0,0	89.0	8.0	0.515	0,0,0,1,2,3,0,0,0	to_board	s512
116.514	0.73	0	PA_with_intermediate	3,0,0,1,0,0,0,0,0	test	ward_and_allport	0,0,0,1,3,0,2,0,0	71.0	8.0	0.73	0,0,0,1,2,3,0,0,0	to_hand	s512
117.246	0.62	0	PA_with_intermediate	3,0,0,1,0,0,2,0,0	test	ward_and_allport	0,0,0,1,3,0,2,0,0	82.0	8.0	0.62	0,0,0,1,2,3,0,0,0	to_board	s512
117.87	0.488	0	PA_with_intermediate	0,0,0,1,0,0,2,0,0	test	ward_and_allport	0,0,0,1,3,0,2,0,0	89.0	8.0	0.488	0,0,0,1,2,3,0,0,0	to_hand	s512
118.36	0.404	0	PA_with_intermediate	0,0,0,1,3,0,2,0,0	test	ward_and_allport	0,0,0,1,3,0,2,0,0	71.0	8.0	0.404	0,0,0,1,2,3,0,0,0	to_board	s512
118.769	1.0	0	PA_with_intermediate	n/a	test	ward_and_allport	n/a	-1.0	8.0	n/a	n/a	feedback	s512
119.769	1.136	0	PA_with_intermediate	n/a	test	ward_and_allport	n/a	-1.0	8.0	n/a	n/a	ITI	s512
120.911	2.298	1	PA_with_intermediate	0,0,0,1,2,0,0,0,0	test	ward_and_allport	2,3,0,1,0,0,0,0,0	71.0	9.0	2.298	0,0,0,1,2,3,0,0,0	to_hand	s512
123.211	0.449	0	PA_with_intermediate	0,0,0,1,2,0,3,0,0	test	ward_and_allport	2,3,0,1,0,0,0,0,0	82.0	9.0	0.449	0,0,0,1,2,3,0,0,0	to_board	s512
123.665	0.552	0	PA_with_intermediate	0,0,0,1,0,0,3,0,0	test	ward_and_allport	2,3,0,1,0,0,0,0,0	71.0	9.0	0.552	0,0,0,1,2,3,0,0,0	to_hand	s512
124.219	0.413	0	PA_with_intermediate	2,0,0,1,0,0,3,0,0	test	ward_and_allport	2,3,0,1,0,0,0,0,0	89.0	9.0	0.413	0,0,0,1,2,3,0,0,0	to_board	s512
124.637	0.663	0	PA_with_intermediate	2,0,0,1,0,0,0,0,0	test	ward_and_allport	2,3,0,1,0,0,0,0,0	82.0	9.0	0.663	0,0,0,1,2,3,0,0,0	to_hand	s512
125.302	0.503	0	PA_with_intermediate	2,3,0,1,0,0,0,0,0	test	ward_and_allport	2,3,0,1,0,0,0,0,0	89.0	9.0	0.503	0,0,0,1,2,3,0,0,0	to_board	s512
125.81	1.0	0	PA_with_intermediate	n/a	test	ward_and_allport	n/a	-1.0	9.0	n/a	n/a	feedback	s512
126.81	1.0	0	PA_with_intermediate	n/a	test	ward_and_allport	n/a	-1.0	9.0	n/a	n/a	ITI	s512
127.815	2.647	1	PA_with_intermediate	1,2,0,0,0,0,0,0,0	test	ward_and_allport	1,0,0,2,3,0,0,0,0	89.0	10.0	2.647	1,2,3,0,0,0,0,0,0	to_hand	s512
130.463	1.002	0	PA_with_intermediate	1,2,0,0,0,0,3,0,0	test	ward_and_allport	1,0,0,2,3,0,0,0,0	82.0	10.0	1.002	1,2,3,0,0,0,0,0,0	to_board	s512
131.47	1.16	0	PA_with_intermediate	1,0,0,0,0,0,3,0,0	test	ward_and_allport	1,0,0,2,3,0,0,0,0	89.0	10.0	1.16	1,2,3,0,0,0,0,0,0	to_hand	s512
132.632	0.599	0	PA_with_intermediate	1,0,0,2,0,0,3,0,0	test	ward_and_allport	1,0,0,2,3,0,0,0,0	71.0	10.0	0.599	1,2,3,0,0,0,0,0,0	to_board	s512
133.236	0.599	0	PA_with_intermediate	1,0,0,2,0,0,0,0,0	test	ward_and_allport	1,0,0,2,3,0,0,0,0	82.0	10.0	0.599	1,2,3,0,0,0,0,0,0	to_hand	s512
133.836	0.462	0	PA_with_intermediate	1,0,0,2,3,0,0,0,0	test	ward_and_allport	1,0,0,2,3,0,0,0,0	71.0	10.0	0.462	1,2,3,0,0,0,0,0,0	to_board	s512
134.304	1.0	0	PA_with_intermediate	n/a	test	ward_and_allport	n/a	-1.0	10.0	n/a	n/a	feedback	s512
135.304	1.0	0	PA_with_intermediate	n/a	test	ward_and_allport	n/a	-1.0	10.0	n/a	n/a	ITI	s512
136.31	3.844	1	PA_without_intermediate	0,0,0,1,2,0,0,0,0	test	ward_and_allport	3,2,0,0,0,0,1,0,0	71.0	11.0	3.844	0,0,0,1,2,3,0,0,0	to_hand	s512
140.158	0.476	0	PA_without_intermediate	3,0,0,1,2,0,0,0,0	test	ward_and_allport	3,2,0,0,0,0,1,0,0	89.0	11.0	0.476	0,0,0,1,2,3,0,0,0	to_board	s512
140.64	1.717	0	PA_without_intermediate	3,0,0,1,0,0,0,0,0	test	ward_and_allport	3,2,0,0,0,0,1,0,0	71.0	11.0	1.717	0,0,0,1,2,3,0,0,0	to_hand	s512
142.359	0.473	0	PA_without_intermediate	3,2,0,1,0,0,0,0,0	test	ward_and_allport	3,2,0,0,0,0,1,0,0	89.0	11.0	0.473	0,0,0,1,2,3,0,0,0	to_board	s512
142.836	0.676	0	PA_without_intermediate	3,2,0,0,0,0,0,0,0	test	ward_and_allport	3,2,0,0,0,0,1,0,0	71.0	11.0	0.676	0,0,0,1,2,3,0,0,0	to_hand	s512
143.514	0.443	0	PA_without_intermediate	3,2,0,0,0,0,1,0,0	test	ward_and_allport	3,2,0,0,0,0,1,0,0	82.0	11.0	0.443	0,0,0,1,2,3,0,0,0	to_board	s512
143.964	1.0	0	PA_without_intermediate	n/a	test	ward_and_allport	n/a	-1.0	11.0	n/a	n/a	feedback	s512
144.964	1.408	0	PA_without_intermediate	n/a	test	ward_and_allport	n/a	-1.0	11.0	n/a	n/a	ITI	s512
146.377	2.78	1	PA_with_intermediate	0,0,0,0,0,0,1,2,0	test	ward_and_allport	2,0,0,0,0,0,1,3,0	82.0	12.0	2.78	0,0,0,0,0,0,1,2,3	to_hand	s512
149.158	1.443	0	PA_with_intermediate	0,0,0,3,0,0,1,2,0	test	ward_and_allport	2,0,0,0,0,0,1,3,0	71.0	12.0	1.443	0,0,0,0,0,0,1,2,3	to_board	s512
150.606	0.802	0	PA_with_intermediate	0,0,0,3,0,0,1,0,0	test	ward_and_allport	2,0,0,0,0,0,1,3,0	82.0	12.0	0.802	0,0,0,0,0,0,1,2,3	to_hand	s512
151.409	0.435	0	PA_with_intermediate	2,0,0,3,0,0,1,0,0	test	ward_and_allport	2,0,0,0,0,0,1,3,0	89.0	12.0	0.435	0,0,0,0,0,0,1,2,3	to_board	s512
151.849	0.751	0	PA_with_intermediate	2,0,0,0,0,0,1,0,0	test	ward_and_allport	2,0,0,0,0,0,1,3,0	71.0	12.0	0.751	0,0,0,0,0,0,1,2,3	to_hand	s512
152.602	0.431	0	PA_with_intermediate	2,0,0,0,0,0,1,3,0	test	ward_and_allport	2,0,0,0,0,0,1,3,0	82.0	12.0	0.431	0,0,0,0,0,0,1,2,3	to_board	s512
153.039	1.0	0	PA_with_intermediate	n/a	test	ward_and_allport	n/a	-1.0	12.0	n/a	n/a	feedback	s512
154.039	2.768	0	PA_with_intermediate	n/a	test	ward_and_allport	n/a	-1.0	12.0	n/a	n/a	ITI	s512
156.813	2.576	1	PA_with_intermediate	0,0,0,0,0,0,1,2,0	test	ward_and_allport	0,0,0,2,0,0,1,3,0	82.0	13.0	2.576	0,0,0,0,0,0,1,2,3	to_hand	s512
159.39	1.035	0	PA_with_intermediate	3,0,0,0,0,0,1,2,0	test	ward_and_allport	0,0,0,2,0,0,1,3,0	89.0	13.0	1.035	0,0,0,0,0,0,1,2,3	to_board	s512
160.431	1.157	0	PA_with_intermediate	3,0,0,0,0,0,1,0,0	test	ward_and_allport	0,0,0,2,0,0,1,3,0	82.0	13.0	1.157	0,0,0,0,0,0,1,2,3	to_hand	s512
161.59	0.446	0	PA_with_intermediate	3,0,0,2,0,0,1,0,0	test	ward_and_allport	0,0,0,2,0,0,1,3,0	71.0	13.0	0.446	0,0,0,0,0,0,1,2,3	to_board	s512
162.041	0.535	0	PA_with_intermediate	0,0,0,2,0,0,1,0,0	test	ward_and_allport	0,0,0,2,0,0,1,3,0	89.0	13.0	0.535	0,0,0,0,0,0,1,2,3	to_hand	s512
162.578	0.42	0	PA_with_intermediate	0,0,0,2,0,0,1,3,0	test	ward_and_allport	0,0,0,2,0,0,1,3,0	82.0	13.0	0.42	0,0,0,0,0,0,1,2,3	to_board	s512
163.004	1.0	0	PA_with_intermediate	n/a	test	ward_and_allport	n/a	-1.0	13.0	n/a	n/a	feedback	s512
164.004	1.68	0	PA_with_intermediate	n/a	test	ward_and_allport	n/a	-1.0	13.0	n/a	n/a	ITI	s512
165.69	2.159	1	PA_without_intermediate	0,0,0,0,0,0,1,2,0	test	ward_and_allport	3,1,0,2,0,0,0,0,0	82.0	14.0	2.159	0,0,0,0,0,0,1,2,3	to_hand	s512
167.853	0.428	0	PA_without_intermediate	3,0,0,0,0,0,1,2,0	test	ward_and_allport	3,1,0,2,0,0,0,0,0	89.0	14.0	0.428	0,0,0,0,0,0,1,2,3	to_board	s512
168.286	1.884	0	PA_without_intermediate	3,0,0,0,0,0,1,0,0	test	ward_and_allport	3,1,0,2,0,0,0,0,0	82.0	14.0	1.884	0,0,0,0,0,0,1,2,3	to_hand	s512
170.172	0.386	0	PA_without_intermediate	3,0,0,2,0,0,1,0,0	test	ward_and_allport	3,1,0,2,0,0,0,0,0	71.0	14.0	0.386	0,0,0,0,0,0,1,2,3	to_board	s512
170.563	0.701	0	PA_without_intermediate	3,0,0,2,0,0,0,0,0	test	ward_and_allport	3,1,0,2,0,0,0,0,0	82.0	14.0	0.701	0,0,0,0,0,0,1,2,3	to_hand	s512
171.266	0.619	0	PA_without_intermediate	3,1,0,2,0,0,0,0,0	test	ward_and_allport	3,1,0,2,0,0,0,0,0	89.0	14.0	0.619	0,0,0,0,0,0,1,2,3	to_board	s512
171.891	1.0	0	PA_without_intermediate	n/a	test	ward_and_allport	n/a	-1.0	14.0	n/a	n/a	feedback	s512
172.891	2.224	0	PA_without_intermediate	n/a	test	ward_and_allport	n/a	-1.0	14.0	n/a	n/a	ITI	s512
180.125	2.281	1	PA_without_intermediate	0,0,0,0,0,0,1,2,0	test	ward_and_allport	3,2,0,1,0,0,0,0,0	82.0	15.0	2.281	0,0,0,0,0,0,1,2,3	to_hand	s512
182.408	0.573	0	PA_without_intermediate	3,0,0,0,0,0,1,2,0	test	ward_and_allport	3,2,0,1,0,0,0,0,0	89.0	15.0	0.573	0,0,0,0,0,0,1,2,3	to_board	s512
182.986	1.052	0	PA_without_intermediate	3,0,0,0,0,0,1,0,0	test	ward_and_allport	3,2,0,1,0,0,0,0,0	82.0	15.0	1.052	0,0,0,0,0,0,1,2,3	to_hand	s512
184.039	0.809	0	PA_without_intermediate	3,2,0,0,0,0,1,0,0	test	ward_and_allport	3,2,0,1,0,0,0,0,0	89.0	15.0	0.809	0,0,0,0,0,0,1,2,3	to_board	s512
184.854	1.028	0	PA_without_intermediate	3,2,0,0,0,0,0,0,0	test	ward_and_allport	3,2,0,1,0,0,0,0,0	82.0	15.0	1.028	0,0,0,0,0,0,1,2,3	to_hand	s512
185.884	0.61	0	PA_without_intermediate	3,2,0,1,0,0,0,0,0	test	ward_and_allport	3,2,0,1,0,0,0,0,0	71.0	15.0	0.61	0,0,0,0,0,0,1,2,3	to_board	s512
186.501	1.0	0	PA_without_intermediate	n/a	test	ward_and_allport	n/a	-1.0	15.0	n/a	n/a	feedback	s512
187.501	2.36	0	PA_without_intermediate	n/a	test	ward_and_allport	n/a	-1.0	15.0	n/a	n/a	ITI	s512
189.867	2.568	1	PA_without_intermediate	0,0,0,1,2,0,0,0,0	test	ward_and_allport	3,1,0,0,0,0,2,0,0	71.0	16.0	2.568	0,0,0,1,2,3,0,0,0	to_hand	s512
192.436	0.416	0	PA_without_intermediate	3,0,0,1,2,0,0,0,0	test	ward_and_allport	3,1,0,0,0,0,2,0,0	89.0	16.0	0.416	0,0,0,1,2,3,0,0,0	to_board	s512
192.857	1.179	0	PA_without_intermediate	3,0,0,1,0,0,0,0,0	test	ward_and_allport	3,1,0,0,0,0,2,0,0	71.0	16.0	1.179	0,0,0,1,2,3,0,0,0	to_hand	s512
194.037	0.522	0	PA_without_intermediate	3,0,0,1,0,0,2,0,0	test	ward_and_allport	3,1,0,0,0,0,2,0,0	82.0	16.0	0.522	0,0,0,1,2,3,0,0,0	to_board	s512
194.564	0.753	0	PA_without_intermediate	3,0,0,0,0,0,2,0,0	test	ward_and_allport	3,1,0,0,0,0,2,0,0	71.0	16.0	0.753	0,0,0,1,2,3,0,0,0	to_hand	s512
195.318	0.644	0	PA_without_intermediate	3,1,0,0,0,0,2,0,0	test	ward_and_allport	3,1,0,0,0,0,2,0,0	89.0	16.0	0.644	0,0,0,1,2,3,0,0,0	to_board	s512
195.969	1.0	0	PA_without_intermediate	n/a	test	ward_and_allport	n/a	-1.0	16.0	n/a	n/a	feedback	s512
196.969	1.0	0	PA_without_intermediate	n/a	test	ward_and_allport	n/a	-1.0	16.0	n/a	n/a	ITI	s512
197.975	2.271	1	PA_without_intermediate	1,2,0,0,0,0,0,0,0	test	ward_and_allport	0,0,0,3,1,0,2,0,0	89.0	17.0	2.271	1,2,3,0,0,0,0,0,0	to_hand	s512
200.248	0.48	0	PA_without_intermediate	1,2,0,3,0,0,0,0,0	test	ward_and_allport	0,0,0,3,1,0,2,0,0	71.0	17.0	0.48	1,2,3,0,0,0,0,0,0	to_board	s512
200.734	0.816	0	PA_without_intermediate	1,0,0,3,0,0,0,0,0	test	ward_and_allport	0,0,0,3,1,0,2,0,0	89.0	17.0	0.816	1,2,3,0,0,0,0,0,0	to_hand	s512
201.552	0.57	0	PA_without_intermediate	1,0,0,3,0,0,2,0,0	test	ward_and_allport	0,0,0,3,1,0,2,0,0	82.0	17.0	0.57	1,2,3,0,0,0,0,0,0	to_board	s512
202.128	0.82	0	PA_without_intermediate	0,0,0,3,0,0,2,0,0	test	ward_and_allport	0,0,0,3,1,0,2,0,0	89.0	17.0	0.82	1,2,3,0,0,0,0,0,0	to_hand	s512
202.95	0.832	0	PA_without_intermediate	0,0,0,3,1,0,2,0,0	test	ward_and_allport	0,0,0,3,1,0,2,0,0	71.0	17.0	0.832	1,2,3,0,0,0,0,0,0	to_board	s512
203.789	1.0	0	PA_without_intermediate	n/a	test	ward_and_allport	n/a	-1.0	17.0	n/a	n/a	feedback	s512
204.789	1.408	0	PA_without_intermediate	n/a	test	ward_and_allport	n/a	-1.0	17.0	n/a	n/a	ITI	s512
206.203	3.195	1	PA_with_intermediate	0,0,0,1,2,0,0,0,0	test	ward_and_allport	0,0,0,1,3,0,2,0,0	71.0	18.0	3.195	0,0,0,1,2,3,0,0,0	to_hand	s512
209.4	0.561	0	PA_with_intermediate	3,0,0,1,2,0,0,0,0	test	ward_and_allport	0,0,0,1,3,0,2,0,0	89.0	18.0	0.561	0,0,0,1,2,3,0,0,0	to_board	s512
209.967	0.551	0	PA_with_intermediate	3,0,0,1,0,0,0,0,0	test	ward_and_allport	0,0,0,1,3,0,2,0,0	71.0	18.0	0.551	0,0,0,1,2,3,0,0,0	to_hand	s512
210.52	0.406	0	PA_with_intermediate	3,0,0,1,0,0,2,0,0	test	ward_and_allport	0,0,0,1,3,0,2,0,0	82.0	18.0	0.406	0,0,0,1,2,3,0,0,0	to_board	s512
210.931	0.566	0	PA_with_intermediate	0,0,0,1,0,0,2,0,0	test	ward_and_allport	0,0,0,1,3,0,2,0,0	89.0	18.0	0.566	0,0,0,1,2,3,0,0,0	to_hand	s512
211.499	0.5	0	PA_with_intermediate	0,0,0,1,3,0,2,0,0	test	ward_and_allport	0,0,0,1,3,0,2,0,0	71.0	18.0	0.5	0,0,0,1,2,3,0,0,0	to_board	s512
212.006	1.0	0	PA_with_intermediate	n/a	test	ward_and_allport	n/a	-1.0	18.0	n/a	n/a	feedback	s512
213.006	1.136	0	PA_with_intermediate	n/a	test	ward_and_allport	n/a	-1.0	18.0	n/a	n/a	ITI	s512
214.148	2.172	1	PA_without_intermediate	1,2,0,0,0,0,0,0,0	test	ward_and_allport	0,0,0,1,0,0,3,2,0	89.0	19.0	2.172	1,2,3,0,0,0,0,0,0	to_hand	s512
216.321	0.745	0	PA_without_intermediate	1,2,0,0,0,0,3,0,0	test	ward_and_allport	0,0,0,1,0,0,3,2,0	82.0	19.0	0.745	1,2,3,0,0,0,0,0,0	to_board	s512
217.072	0.924	0	PA_without_intermediate	1,0,0,0,0,0,3,0,0	test	ward_and_allport	0,0,0,1,0,0,3,2,0	89.0	19.0	0.924	1,2,3,0,0,0,0,0,0	to_hand	s512
217.997	0.533	0	PA_without_intermediate	1,0,0,0,0,0,3,2,0	test	ward_and_allport	0,0,0,1,0,0,3,2,0	82.0	19.0	0.533	1,2,3,0,0,0,0,0,0	to_board	s512
218.536	0.614	0	PA_without_intermediate	0,0,0,0,0,0,3,2,0	test	ward_and_allport	0,0,0,1,0,0,3,2,0	89.0	19.0	0.614	1,2,3,0,0,0,0,0,0	to_hand	s512
219.152	0.455	0	PA_without_intermediate	0,0,0,1,0,0,3,2,0	test	ward_and_allport	0,0,0,1,0,0,3,2,0	71.0	19.0	0.455	1,2,3,0,0,0,0,0,0	to_board	s512
219.614	1.0	0	PA_without_intermediate	n/a	test	ward_and_allport	n/a	-1.0	19.0	n/a	n/a	feedback	s512
220.614	4.128	0	PA_without_intermediate	n/a	test	ward_and_allport	n/a	-1.0	19.0	n/a	n/a	ITI	s512
224.749	1.675	1	PA_without_intermediate	1,2,0,0,0,0,0,0,0	test	ward_and_allport	0,0,0,2,0,0,3,1,0	89.0	20.0	1.675	1,2,3,0,0,0,0,0,0	to_hand	s512
226.426	0.652	0	PA_without_intermediate	1,2,0,0,0,0,3,0,0	test	ward_and_allport	0,0,0,2,0,0,3,1,0	82.0	20.0	0.652	1,2,3,0,0,0,0,0,0	to_board	s512
227.084	0.654	0	PA_without_intermediate	1,0,0,0,0,0,3,0,0	test	ward_and_allport	0,0,0,2,0,0,3,1,0	89.0	20.0	0.654	1,2,3,0,0,0,0,0,0	to_hand	s512
227.74	0.64	0	PA_without_intermediate	1,0,0,2,0,0,3,0,0	test	ward_and_allport	0,0,0,2,0,0,3,1,0	71.0	20.0	0.64	1,2,3,0,0,0,0,0,0	to_board	s512
228.386	0.433	0	PA_without_intermediate	0,0,0,2,0,0,3,0,0	test	ward_and_allport	0,0,0,2,0,0,3,1,0	89.0	20.0	0.433	1,2,3,0,0,0,0,0,0	to_hand	s512
228.821	0.653	0	PA_without_intermediate	0,0,0,2,0,0,3,1,0	test	ward_and_allport	0,0,0,2,0,0,3,1,0	82.0	20.0	0.653	1,2,3,0,0,0,0,0,0	to_board	s512
229.481	1.0	0	PA_without_intermediate	n/a	test	ward_and_allport	n/a	-1.0	20.0	n/a	n/a	feedback	s512
230.481	1.136	0	PA_without_intermediate	n/a	test	ward_and_allport	n/a	-1.0	20.0	n/a	n/a	ITI	s512
231.624	1.634	1	PA_without_intermediate	0,0,0,1,2,0,0,0,0	test	ward_and_allport	1,0,0,0,0,0,3,2,0	71.0	21.0	1.634	0,0,0,1,2,3,0,0,0	to_hand	s512
233.26	0.443	0	PA_without_intermediate	0,0,0,1,2,0,3,0,0	test	ward_and_allport	1,0,0,0,0,0,3,2,0	82.0	21.0	0.443	0,0,0,1,2,3,0,0,0	to_board	s512
233.71	0.628	0	PA_without_intermediate	0,0,0,1,0,0,3,0,0	test	ward_and_allport	1,0,0,0,0,0,3,2,0	71.0	21.0	0.628	0,0,0,1,2,3,0,0,0	to_hand	s512
234.34	0.467	0	PA_without_intermediate	0,0,0,1,0,0,3,2,0	test	ward_and_allport	1,0,0,0,0,0,3,2,0	82.0	21.0	0.467	0,0,0,1,2,3,0,0,0	to_board	s512
234.813	0.882	0	PA_without_intermediate	0,0,0,0,0,0,3,2,0	test	ward_and_allport	1,0,0,0,0,0,3,2,0	71.0	21.0	0.882	0,0,0,1,2,3,0,0,0	to_hand	s512
235.696	0.446	0	PA_without_intermediate	1,0,0,0,0,0,3,2,0	test	ward_and_allport	1,0,0,0,0,0,3,2,0	89.0	21.0	0.446	0,0,0,1,2,3,0,0,0	to_board	s512
236.149	1.0	0	PA_without_intermediate	n/a	test	ward_and_allport	n/a	-1.0	21.0	n/a	n/a	feedback	s512
237.149	4.264	0	PA_without_intermediate	n/a	test	ward_and_allport	n/a	-1.0	21.0	n/a	n/a	ITI	s512
241.42	3.479	1	PA_with_intermediate	0,0,0,1,2,0,0,0,0	test	ward_and_allport	2,0,0,1,3,0,0,0,0	71.0	22.0	3.479	0,0,0,1,2,3,0,0,0	to_hand	s512
244.901	0.402	0	PA_with_intermediate	0,0,0,1,2,0,3,0,0	test	ward_and_allport	2,0,0,1,3,0,0,0,0	82.0	22.0	0.402	0,0,0,1,2,3,0,0,0	to_board	s512
245.309	0.84	0	PA_with_intermediate	0,0,0,1,0,0,3,0,0	test	ward_and_allport	2,0,0,1,3,0,0,0,0	71.0	22.0	0.84	0,0,0,1,2,3,0,0,0	to_hand	s512
246.15	0.501	0	PA_with_intermediate	2,0,0,1,0,0,3,0,0	test	ward_and_allport	2,0,0,1,3,0,0,0,0	89.0	22.0	0.501	0,0,0,1,2,3,0,0,0	to_board	s512
246.657	0.691	0	PA_with_intermediate	2,0,0,1,0,0,0,0,0	test	ward_and_allport	2,0,0,1,3,0,0,0,0	82.0	22.0	0.691	0,0,0,1,2,3,0,0,0	to_hand	s512
247.349	0.442	0	PA_with_intermediate	2,0,0,1,3,0,0,0,0	test	ward_and_allport	2,0,0,1,3,0,0,0,0	71.0	22.0	0.442	0,0,0,1,2,3,0,0,0	to_board	s512
247.799	1.0	0	PA_with_intermediate	n/a	test	ward_and_allport	n/a	-1.0	22.0	n/a	n/a	feedback	s512
248.799	3.04	0	PA_with_intermediate	n/a	test	ward_and_allport	n/a	-1.0	22.0	n/a	n/a	ITI	s512
251.846	1.583	1	PA_with_intermediate	1,2,0,0,0,0,0,0,0	test	ward_and_allport	1,0,0,0,0,0,2,3,0	89.0	23.0	1.583	1,2,3,0,0,0,0,0,0	to_hand	s512
253.431	0.493	0	PA_with_intermediate	1,2,0,3,0,0,0,0,0	test	ward_and_allport	1,0,0,0,0,0,2,3,0	71.0	23.0	0.493	1,2,3,0,0,0,0,0,0	to_board	s512
253.932	0.424	0	PA_with_intermediate	1,0,0,3,0,0,0,0,0	test	ward_and_allport	1,0,0,0,0,0,2,3,0	89.0	23.0	0.424	1,2,3,0,0,0,0,0,0	to_hand	s512
254.357	0.397	0	PA_with_intermediate	1,0,0,3,0,0,2,0,0	test	ward_and_allport	1,0,0,0,0,0,2,3,0	82.0	23.0	0.397	1,2,3,0,0,0,0,0,0	to_board	s512
254.762	0.541	0	PA_with_intermediate	1,0,0,0,0,0,2,0,0	test	ward_and_allport	1,0,0,0,0,0,2,3,0	71.0	23.0	0.541	1,2,3,0,0,0,0,0,0	to_hand	s512
255.304	0.527	0	PA_with_intermediate	1,0,0,0,0,0,2,3,0	test	ward_and_allport	1,0,0,0,0,0,2,3,0	82.0	23.0	0.527	1,2,3,0,0,0,0,0,0	to_board	s512
255.841	1.0	0	PA_with_intermediate	n/a	test	ward_and_allport	n/a	-1.0	23.0	n/a	n/a	feedback	s512
256.841	1.136	0	PA_with_intermediate	n/a	test	ward_and_allport	n/a	-1.0	23.0	n/a	n/a	ITI	s512
257.983	1.604	1	PA_with_intermediate	1,2,0,0,0,0,0,0,0	test	ward_and_allport	1,0,0,2,3,0,0,0,0	89.0	24.0	1.604	1,2,3,0,0,0,0,0,0	to_hand	s512
259.588	0.428	0	PA_with_intermediate	1,2,0,0,0,0,3,0,0	test	ward_and_allport	1,0,0,2,3,0,0,0,0	82.0	24.0	0.428	1,2,3,0,0,0,0,0,0	to_board	s512
260.024	0.814	0	PA_with_intermediate	1,0,0,0,0,0,3,0,0	test	ward_and_allport	1,0,0,2,3,0,0,0,0	89.0	24.0	0.814	1,2,3,0,0,0,0,0,0	to_hand	s512
260.84	0.707	0	PA_with_intermediate	1,0,0,2,0,0,3,0,0	test	ward_and_allport	1,0,0,2,3,0,0,0,0	71.0	24.0	0.707	1,2,3,0,0,0,0,0,0	to_board	s512
261.553	0.647	0	PA_with_intermediate	1,0,0,2,0,0,0,0,0	test	ward_and_allport	1,0,0,2,3,0,0,0,0	82.0	24.0	0.647	1,2,3,0,0,0,0,0,0	to_hand	s512
262.202	0.54	0	PA_with_intermediate	1,0,0,2,3,0,0,0,0	test	ward_and_allport	1,0,0,2,3,0,0,0,0	71.0	24.0	0.54	1,2,3,0,0,0,0,0,0	to_board	s512
262.751	1.0	0	PA_with_intermediate	n/a	test	ward_and_allport	n/a	-1.0	24.0	n/a	n/a	feedback	s512
263.751	1.408	0	PA_with_intermediate	n/a	test	ward_and_allport	n/a	-1.0	24.0	n/a	n/a	ITI	s512
265.168	0.913	1	PA_without_intermediate	1,2,0,0,0,0,0,0,0	test	ward_and_allport	0,0,0,1,0,0,3,2,0	89.0	25.0	0.913	1,2,3,0,0,0,0,0,0	to_hand	s512
266.082	0.539	0	PA_without_intermediate	1,2,0,0,0,0,3,0,0	test	ward_and_allport	0,0,0,1,0,0,3,2,0	82.0	25.0	0.539	1,2,3,0,0,0,0,0,0	to_board	s512
266.629	0.503	0	PA_without_intermediate	1,0,0,0,0,0,3,0,0	test	ward_and_allport	0,0,0,1,0,0,3,2,0	89.0	25.0	0.503	1,2,3,0,0,0,0,0,0	to_hand	s512
267.134	0.523	0	PA_without_intermediate	1,0,0,0,0,0,3,2,0	test	ward_and_allport	0,0,0,1,0,0,3,2,0	82.0	25.0	0.523	1,2,3,0,0,0,0,0,0	to_board	s512
267.665	1.032	0	PA_without_intermediate	0,0,0,0,0,0,3,2,0	test	ward_and_allport	0,0,0,1,0,0,3,2,0	89.0	25.0	1.032	1,2,3,0,0,0,0,0,0	to_hand	s512
268.698	0.476	0	PA_without_intermediate	0,0,0,1,0,0,3,2,0	test	ward_and_allport	0,0,0,1,0,0,3,2,0	71.0	25.0	0.476	1,2,3,0,0,0,0,0,0	to_board	s512
269.182	1.0	0	PA_without_intermediate	n/a	test	ward_and_allport	n/a	-1.0	25.0	n/a	n/a	feedback	s512
270.182	1.68	0	PA_without_intermediate	n/a	test	ward_and_allport	n/a	-1.0	25.0	n/a	n/a	ITI	s512
271.871	1.306	1	PA_with_intermediate	1,2,0,0,0,0,0,0,0	test	ward_and_allport	1,0,0,0,0,0,2,3,0	89.0	26.0	1.306	1,2,3,0,0,0,0,0,0	to_hand	s512
273.179	0.429	0	PA_with_intermediate	1,2,0,3,0,0,0,0,0	test	ward_and_allport	1,0,0,0,0,0,2,3,0	71.0	26.0	0.429	1,2,3,0,0,0,0,0,0	to_board	s512
273.616	0.361	0	PA_with_intermediate	1,0,0,3,0,0,0,0,0	test	ward_and_allport	1,0,0,0,0,0,2,3,0	89.0	26.0	0.361	1,2,3,0,0,0,0,0,0	to_hand	s512
273.979	0.362	0	PA_with_intermediate	1,0,0,3,0,0,2,0,0	test	ward_and_allport	1,0,0,0,0,0,2,3,0	82.0	26.0	0.362	1,2,3,0,0,0,0,0,0	to_board	s512
274.349	0.833	0	PA_with_intermediate	1,0,0,0,0,0,2,0,0	test	ward_and_allport	1,0,0,0,0,0,2,3,0	71.0	26.0	0.833	1,2,3,0,0,0,0,0,0	to_hand	s512
275.184	0.883	0	PA_with_intermediate	1,0,0,0,0,0,2,3,0	test	ward_and_allport	1,0,0,0,0,0,2,3,0	82.0	26.0	0.883	1,2,3,0,0,0,0,0,0	to_board	s512
276.077	1.0	0	PA_with_intermediate	n/a	test	ward_and_allport	n/a	-1.0	26.0	n/a	n/a	feedback	s512
277.077	3.72	0	PA_with_intermediate	n/a	test	ward_and_allport	n/a	-1.0	26.0	n/a	n/a	ITI	s512
280.805	1.331	1	PA_without_intermediate	0,0,0,1,2,0,0,0,0	test	ward_and_allport	2,0,0,0,0,0,3,1,0	71.0	27.0	1.331	0,0,0,1,2,3,0,0,0	to_hand	s512
282.137	0.48	0	PA_without_intermediate	0,0,0,1,2,0,3,0,0	test	ward_and_allport	2,0,0,0,0,0,3,1,0	82.0	27.0	0.48	0,0,0,1,2,3,0,0,0	to_board	s512
282.625	1.056	0	PA_without_intermediate	0,0,0,1,0,0,3,0,0	test	ward_and_allport	2,0,0,0,0,0,3,1,0	71.0	27.0	1.056	0,0,0,1,2,3,0,0,0	to_hand	s512
283.682	0.4	0	PA_without_intermediate	2,0,0,1,0,0,3,0,0	test	ward_and_allport	2,0,0,0,0,0,3,1,0	89.0	27.0	0.4	0,0,0,1,2,3,0,0,0	to_board	s512
284.09	0.545	0	PA_without_intermediate	2,0,0,0,0,0,3,0,0	test	ward_and_allport	2,0,0,0,0,0,3,1,0	71.0	27.0	0.545	0,0,0,1,2,3,0,0,0	to_hand	s512
284.636	0.379	0	PA_without_intermediate	2,0,0,0,0,0,3,1,0	test	ward_and_allport	2,0,0,0,0,0,3,1,0	82.0	27.0	0.379	0,0,0,1,2,3,0,0,0	to_board	s512
285.024	1.0	0	PA_without_intermediate	n/a	test	ward_and_allport	n/a	-1.0	27.0	n/a	n/a	feedback	s512
286.024	2.224	0	PA_without_intermediate	n/a	test	ward_and_allport	n/a	-1.0	27.0	n/a	n/a	ITI	s512
288.256	1.314	1	PA_without_intermediate	0,0,0,1,2,0,0,0,0	test	ward_and_allport	1,0,0,0,0,0,3,2,0	71.0	28.0	1.314	0,0,0,1,2,3,0,0,0	to_hand	s512
289.572	0.441	0	PA_without_intermediate	0,0,0,1,2,0,3,0,0	test	ward_and_allport	1,0,0,0,0,0,3,2,0	82.0	28.0	0.441	0,0,0,1,2,3,0,0,0	to_board	s512
290.021	0.515	0	PA_without_intermediate	0,0,0,1,0,0,3,0,0	test	ward_and_allport	1,0,0,0,0,0,3,2,0	71.0	28.0	0.515	0,0,0,1,2,3,0,0,0	to_hand	s512
290.538	0.415	0	PA_without_intermediate	0,0,0,1,0,0,3,2,0	test	ward_and_allport	1,0,0,0,0,0,3,2,0	82.0	28.0	0.415	0,0,0,1,2,3,0,0,0	to_board	s512
290.961	0.788	0	PA_without_intermediate	0,0,0,0,0,0,3,2,0	test	ward_and_allport	1,0,0,0,0,0,3,2,0	71.0	28.0	0.788	0,0,0,1,2,3,0,0,0	to_hand	s512
291.75	0.394	0	PA_without_intermediate	1,0,0,0,0,0,3,2,0	test	ward_and_allport	1,0,0,0,0,0,3,2,0	89.0	28.0	0.394	0,0,0,1,2,3,0,0,0	to_board	s512
292.153	1.0	0	PA_without_intermediate	n/a	test	ward_and_allport	n/a	-1.0	28.0	n/a	n/a	feedback	s512
293.153	1.272	0	PA_without_intermediate	n/a	test	ward_and_allport	n/a	-1.0	28.0	n/a	n/a	ITI	s512
294.433	1.632	1	PA_with_intermediate	0,0,0,1,2,0,0,0,0	test	ward_and_allport	2,3,0,1,0,0,0,0,0	71.0	29.0	1.632	0,0,0,1,2,3,0,0,0	to_hand	s512
296.067	0.562	0	PA_with_intermediate	0,0,0,1,2,0,3,0,0	test	ward_and_allport	2,3,0,1,0,0,0,0,0	82.0	29.0	0.562	0,0,0,1,2,3,0,0,0	to_board	s512
296.638	0.53	0	PA_with_intermediate	0,0,0,1,0,0,3,0,0	test	ward_and_allport	2,3,0,1,0,0,0,0,0	71.0	29.0	0.53	0,0,0,1,2,3,0,0,0	to_hand	s512
297.169	0.361	0	PA_with_intermediate	2,0,0,1,0,0,3,0,0	test	ward_and_allport	2,3,0,1,0,0,0,0,0	89.0	29.0	0.361	0,0,0,1,2,3,0,0,0	to_board	s512
297.539	1.29	0	PA_with_intermediate	2,0,0,1,0,0,0,0,0	test	ward_and_allport	2,3,0,1,0,0,0,0,0	82.0	29.0	1.29	0,0,0,1,2,3,0,0,0	to_hand	s512
298.831	0.518	0	PA_with_intermediate	2,3,0,1,0,0,0,0,0	test	ward_and_allport	2,3,0,1,0,0,0,0,0	89.0	29.0	0.518	0,0,0,1,2,3,0,0,0	to_board	s512
299.358	1.0	0	PA_with_intermediate	n/a	test	ward_and_allport	n/a	-1.0	29.0	n/a	n/a	feedback	s512
300.358	2.632	0	PA_with_intermediate	n/a	test	ward_and_allport	n/a	-1.0	29.0	n/a	n/a	ITI	s512
308.001	0.982	1	PA_without_intermediate	1,2,0,0,0,0,0,0,0	test	ward_and_allport	0,0,0,2,0,0,3,1,0	89.0	30.0	0.982	1,2,3,0,0,0,0,0,0	to_hand	s512
308.984	0.552	0	PA_without_intermediate	1,2,0,0,0,0,3,0,0	test	ward_and_allport	0,0,0,2,0,0,3,1,0	82.0	30.0	0.552	1,2,3,0,0,0,0,0,0	to_board	s512
309.544	0.817	0	PA_without_intermediate	1,0,0,0,0,0,3,0,0	test	ward_and_allport	0,0,0,2,0,0,3,1,0	89.0	30.0	0.817	1,2,3,0,0,0,0,0,0	to_hand	s512
310.363	0.547	0	PA_without_intermediate	1,0,0,2,0,0,3,0,0	test	ward_and_allport	0,0,0,2,0,0,3,1,0	71.0	30.0	0.547	1,2,3,0,0,0,0,0,0	to_board	s512
310.919	0.452	0	PA_without_intermediate	0,0,0,2,0,0,3,0,0	test	ward_and_allport	0,0,0,2,0,0,3,1,0	89.0	30.0	0.452	1,2,3,0,0,0,0,0,0	to_hand	s512
311.372	0.811	0	PA_without_intermediate	0,0,0,2,0,0,3,1,0	test	ward_and_allport	0,0,0,2,0,0,3,1,0	82.0	30.0	0.811	1,2,3,0,0,0,0,0,0	to_board	s512
312.193	1.0	0	PA_without_intermediate	n/a	test	ward_and_allport	n/a	-1.0	30.0	n/a	n/a	feedback	s512
313.193	1.408	0	PA_without_intermediate	n/a	test	ward_and_allport	n/a	-1.0	30.0	n/a	n/a	ITI	s512
314.61	1.455	1	PA_without_intermediate	0,0,0,1,2,0,0,0,0	test	ward_and_allport	3,1,0,0,0,0,2,0,0	71.0	31.0	1.455	0,0,0,1,2,3,0,0,0	to_hand	s512
316.067	0.443	0	PA_without_intermediate	3,0,0,1,2,0,0,0,0	test	ward_and_allport	3,1,0,0,0,0,2,0,0	89.0	31.0	0.443	0,0,0,1,2,3,0,0,0	to_board	s512
316.519	0.532	0	PA_without_intermediate	3,0,0,1,0,0,0,0,0	test	ward_and_allport	3,1,0,0,0,0,2,0,0	71.0	31.0	0.532	0,0,0,1,2,3,0,0,0	to_hand	s512
317.053	0.317	0	PA_without_intermediate	3,0,0,1,0,0,2,0,0	test	ward_and_allport	3,1,0,0,0,0,2,0,0	82.0	31.0	0.317	0,0,0,1,2,3,0,0,0	to_board	s512
317.379	0.645	0	PA_without_intermediate	3,0,0,0,0,0,2,0,0	test	ward_and_allport	3,1,0,0,0,0,2,0,0	71.0	31.0	0.645	0,0,0,1,2,3,0,0,0	to_hand	s512
318.025	0.493	0	PA_without_intermediate	3,1,0,0,0,0,2,0,0	test	ward_and_allport	3,1,0,0,0,0,2,0,0	89.0	31.0	0.493	0,0,0,1,2,3,0,0,0	to_board	s512
318.527	1.0	0	PA_without_intermediate	n/a	test	ward_and_allport	n/a	-1.0	31.0	n/a	n/a	feedback	s512
319.527	1.0	0	PA_without_intermediate	n/a	test	ward_and_allport	n/a	-1.0	31.0	n/a	n/a	ITI	s512
320.536	1.44	1	PA_with_intermediate	0,0,0,1,2,0,0,0,0	test	ward_and_allport	0,0,0,1,0,0,2,3,0	71.0	32.0	1.44	0,0,0,1,2,3,0,0,0	to_hand	s512
321.977	0.32	0	PA_with_intermediate	3,0,0,1,2,0,0,0,0	test	ward_and_allport	0,0,0,1,0,0,2,3,0	89.0	32.0	0.32	0,0,0,1,2,3,0,0,0	to_board	s512
322.306	0.441	0	PA_with_intermediate	3,0,0,1,0,0,0,0,0	test	ward_and_allport	0,0,0,1,0,0,2,3,0	71.0	32.0	0.441	0,0,0,1,2,3,0,0,0	to_hand	s512
322.749	0.522	0	PA_with_intermediate	3,0,0,1,0,0,2,0,0	test	ward_and_allport	0,0,0,1,0,0,2,3,0	82.0	32.0	0.522	0,0,0,1,2,3,0,0,0	to_board	s512
323.279	1.165	0	PA_with_intermediate	0,0,0,1,0,0,2,0,0	test	ward_and_allport	0,0,0,1,0,0,2,3,0	89.0	32.0	1.165	0,0,0,1,2,3,0,0,0	to_hand	s512
324.446	0.538	0	PA_with_intermediate	0,0,0,1,0,0,2,3,0	test	ward_and_allport	0,0,0,1,0,0,2,3,0	82.0	32.0	0.538	0,0,0,1,2,3,0,0,0	to_board	s512
324.993	1.0	0	PA_with_intermediate	n/a	test	ward_and_allport	n/a	-1.0	32.0	n/a	n/a	feedback	s512
325.993	1.0	0	PA_with_intermediate	n/a	test	ward_and_allport	n/a	-1.0	32.0	n/a	n/a	ITI	s512
327.001	2.073	1	PA_with_intermediate	1,2,0,0,0,0,0,0,0	test	ward_and_allport	1,3,0,2,0,0,0,0,0	89.0	33.0	2.073	1,2,3,0,0,0,0,0,0	to_hand	s512
329.074	0.42	0	PA_with_intermediate	1,2,0,0,0,0,3,0,0	test	ward_and_allport	1,3,0,2,0,0,0,0,0	82.0	33.0	0.42	1,2,3,0,0,0,0,0,0	to_board	s512
329.501	1.606	0	PA_with_intermediate	1,0,0,0,0,0,3,0,0	test	ward_and_allport	1,3,0,2,0,0,0,0,0	89.0	33.0	1.606	1,2,3,0,0,0,0,0,0	to_hand	s512
331.109	0.649	0	PA_with_intermediate	1,0,0,2,0,0,3,0,0	test	ward_and_allport	1,3,0,2,0,0,0,0,0	71.0	33.0	0.649	1,2,3,0,0,0,0,0,0	to_board	s512
331.767	0.647	0	PA_with_intermediate	1,0,0,2,0,0,0,0,0	test	ward_and_allport	1,3,0,2,0,0,0,0,0	82.0	33.0	0.647	1,2,3,0,0,0,0,0,0	to_hand	s512
332.416	0.452	0	PA_with_intermediate	1,3,0,2,0,0,0,0,0	test	ward_and_allport	1,3,0,2,0,0,0,0,0	89.0	33.0	0.452	1,2,3,0,0,0,0,0,0	to_board	s512
332.88	1.0	0	PA_with_intermediate	n/a	test	ward_and_allport	n/a	-1.0	33.0	n/a	n/a	feedback	s512
333.88	1.0	0	PA_with_intermediate	n/a	test	ward_and_allport	n/a	-1.0	33.0	n/a	n/a	ITI	s512
334.891	2.353	1	PA_with_intermediate	1,2,0,0,0,0,0,0,0	test	ward_and_allport	1,3,0,2,0,0,0,0,0	89.0	34.0	2.353	1,2,3,0,0,0,0,0,0	to_hand	s512
337.246	0.399	0	PA_with_intermediate	1,2,0,0,0,0,3,0,0	test	ward_and_allport	1,3,0,2,0,0,0,0,0	82.0	34.0	0.399	1,2,3,0,0,0,0,0,0	to_board	s512
337.653	0.7	0	PA_with_intermediate	1,0,0,0,0,0,3,0,0	test	ward_and_allport	1,3,0,2,0,0,0,0,0	89.0	34.0	0.7	1,2,3,0,0,0,0,0,0	to_hand	s512
338.355	0.739	0	PA_with_intermediate	1,0,0,2,0,0,3,0,0	test	ward_and_allport	1,3,0,2,0,0,0,0,0	71.0	34.0	0.739	1,2,3,0,0,0,0,0,0	to_board	s512
339.102	0.758	0	PA_with_intermediate	1,0,0,2,0,0,0,0,0	test	ward_and_allport	1,3,0,2,0,0,0,0,0	82.0	34.0	0.758	1,2,3,0,0,0,0,0,0	to_hand	s512
339.862	0.426	0	PA_with_intermediate	1,3,0,2,0,0,0,0,0	test	ward_and_allport	1,3,0,2,0,0,0,0,0	89.0	34.0	0.426	1,2,3,0,0,0,0,0,0	to_board	s512
340.297	1.0	0	PA_with_intermediate	n/a	test	ward_and_allport	n/a	-1.0	34.0	n/a	n/a	feedback	s512
341.297	1.408	0	PA_with_intermediate	n/a	test	ward_and_allport	n/a	-1.0	34.0	n/a	n/a	ITI	s512
342.715	1.429	1	PA_without_intermediate	1,2,0,0,0,0,0,0,0	test	ward_and_allport	0,0,0,3,2,0,1,0,0	89.0	35.0	1.429	1,2,3,0,0,0,0,0,0	to_hand	s512
344.145	0.487	0	PA_without_intermediate	1,2,0,3,0,0,0,0,0	test	ward_and_allport	0,0,0,3,2,0,1,0,0	71.0	35.0	0.487	1,2,3,0,0,0,0,0,0	to_board	s512
344.642	0.95	0	PA_without_intermediate	1,0,0,3,0,0,0,0,0	test	ward_and_allport	0,0,0,3,2,0,1,0,0	89.0	35.0	0.95	1,2,3,0,0,0,0,0,0	to_hand	s512
345.593	0.422	0	PA_without_intermediate	1,0,0,3,2,0,0,0,0	test	ward_and_allport	0,0,0,3,2,0,1,0,0	71.0	35.0	0.422	1,2,3,0,0,0,0,0,0	to_board	s512
346.025	0.423	0	PA_without_intermediate	0,0,0,3,2,0,0,0,0	test	ward_and_allport	0,0,0,3,2,0,1,0,0	89.0	35.0	0.423	1,2,3,0,0,0,0,0,0	to_hand	s512
346.45	0.347	0	PA_without_intermediate	0,0,0,3,2,0,1,0,0	test	ward_and_allport	0,0,0,3,2,0,1,0,0	82.0	35.0	0.347	1,2,3,0,0,0,0,0,0	to_board	s512
346.806	1.0	0	PA_without_intermediate	n/a	test	ward_and_allport	n/a	-1.0	35.0	n/a	n/a	feedback	s512
347.806	1.816	0	PA_without_intermediate	n/a	test	ward_and_allport	n/a	-1.0	35.0	n/a	n/a	ITI	s512
349.631	2.973	1	PA_with_intermediate	0,0,0,0,0,0,1,2,0	test	ward_and_allport	0,0,0,2,3,0,1,0,0	82.0	36.0	2.973	0,0,0,0,0,0,1,2,3	to_hand	s512
352.606	0.373	0	PA_with_intermediate	3,0,0,0,0,0,1,2,0	test	ward_and_allport	0,0,0,2,3,0,1,0,0	89.0	36.0	0.373	0,0,0,0,0,0,1,2,3	to_board	s512
352.988	1.427	0	PA_with_intermediate	3,0,0,0,0,0,1,0,0	test	ward_and_allport	0,0,0,2,3,0,1,0,0	82.0	36.0	1.427	0,0,0,0,0,0,1,2,3	to_hand	s512
354.417	0.347	0	PA_with_intermediate	3,0,0,2,0,0,1,0,0	test	ward_and_allport	0,0,0,2,3,0,1,0,0	71.0	36.0	0.347	0,0,0,0,0,0,1,2,3	to_board	s512
354.774	0.593	0	PA_with_intermediate	0,0,0,2,0,0,1,0,0	test	ward_and_allport	0,0,0,2,3,0,1,0,0	89.0	36.0	0.593	0,0,0,0,0,0,1,2,3	to_hand	s512
355.369	0.41	0	PA_with_intermediate	0,0,0,2,3,0,1,0,0	test	ward_and_allport	0,0,0,2,3,0,1,0,0	71.0	36.0	0.41	0,0,0,0,0,0,1,2,3	to_board	s512
355.791	1.0	0	PA_with_intermediate	n/a	test	ward_and_allport	n/a	-1.0	36.0	n/a	n/a	feedback	s512
356.791	3.176	0	PA_with_intermediate	n/a	test	ward_and_allport	n/a	-1.0	36.0	n/a	n/a	ITI	s512
359.978	1.885	1	PA_with_intermediate	1,2,0,0,0,0,0,0,0	test	ward_and_allport	1,3,0,0,0,0,2,0,0	89.0	37.0	1.885	1,2,3,0,0,0,0,0,0	to_hand	s512
361.864	0.6	0	PA_with_intermediate	1,2,0,3,0,0,0,0,0	test	ward_and_allport	1,3,0,0,0,0,2,0,0	71.0	37.0	0.6	1,2,3,0,0,0,0,0,0	to_board	s512
362.473	0.443	0	PA_with_intermediate	1,0,0,3,0,0,0,0,0	test	ward_and_allport	1,3,0,0,0,0,2,0,0	89.0	37.0	0.443	1,2,3,0,0,0,0,0,0	to_hand	s512
362.918	0.404	0	PA_with_intermediate	1,0,0,3,0,0,2,0,0	test	ward_and_allport	1,3,0,0,0,0,2,0,0	82.0	37.0	0.404	1,2,3,0,0,0,0,0,0	to_board	s512
363.332	0.852	0	PA_with_intermediate	1,0,0,0,0,0,2,0,0	test	ward_and_allport	1,3,0,0,0,0,2,0,0	71.0	37.0	0.852	1,2,3,0,0,0,0,0,0	to_hand	s512
364.185	0.352	0	PA_with_intermediate	1,3,0,0,0,0,2,0,0	test	ward_and_allport	1,3,0,0,0,0,2,0,0	89.0	37.0	0.352	1,2,3,0,0,0,0,0,0	to_board	s512
364.55	1.0	0	PA_with_intermediate	n/a	test	ward_and_allport	n/a	-1.0	37.0	n/a	n/a	feedback	s512
365.55	2.36	0	PA_with_intermediate	n/a	test	ward_and_allport	n/a	-1.0	37.0	n/a	n/a	ITI	s512
367.92	2.481	1	PA_with_intermediate	0,0,0,1,2,0,0,0,0	test	ward_and_allport	2,0,0,1,3,0,0,0,0	71.0	38.0	2.481	0,0,0,1,2,3,0,0,0	to_hand	s512
370.403	1.77	0	PA_with_intermediate	0,0,0,1,2,0,3,0,0	test	ward_and_allport	2,0,0,1,3,0,0,0,0	82.0	38.0	1.77	0,0,0,1,2,3,0,0,0	to_board	s512
372.181	0.414	0	PA_with_intermediate	0,0,0,1,0,0,3,0,0	test	ward_and_allport	2,0,0,1,3,0,0,0,0	71.0	38.0	0.414	0,0,0,1,2,3,0,0,0	to_hand	s512
372.596	0.446	0	PA_with_intermediate	2,0,0,1,0,0,3,0,0	test	ward_and_allport	2,0,0,1,3,0,0,0,0	89.0	38.0	0.446	0,0,0,1,2,3,0,0,0	to_board	s512
373.052	0.576	0	PA_with_intermediate	2,0,0,1,0,0,0,0,0	test	ward_and_allport	2,0,0,1,3,0,0,0,0	82.0	38.0	0.576	0,0,0,1,2,3,0,0,0	to_hand	s512
373.629	0.877	0	PA_with_intermediate	2,0,0,1,3,0,0,0,0	test	ward_and_allport	2,0,0,1,3,0,0,0,0	71.0	38.0	0.877	0,0,0,1,2,3,0,0,0	to_board	s512
374.517	1.0	0	PA_with_intermediate	n/a	test	ward_and_allport	n/a	-1.0	38.0	n/a	n/a	feedback	s512
375.517	1.0	0	PA_with_intermediate	n/a	test	ward_and_allport	n/a	-1.0	38.0	n/a	n/a	ITI	s512
376.529	2.063	1	PA_without_intermediate	0,0,0,0,0,0,1,2,0	test	ward_and_allport	3,2,0,1,0,0,0,0,0	82.0	39.0	2.063	0,0,0,0,0,0,1,2,3	to_hand	s512
378.594	0.384	0	PA_without_intermediate	3,0,0,0,0,0,1,2,0	test	ward_and_allport	3,2,0,1,0,0,0,0,0	89.0	39.0	0.384	0,0,0,0,0,0,1,2,3	to_board	s512
378.988	1.198	0	PA_without_intermediate	3,0,0,0,0,0,1,0,0	test	ward_and_allport	3,2,0,1,0,0,0,0,0	82.0	39.0	1.198	0,0,0,0,0,0,1,2,3	to_hand	s512
380.188	0.386	0	PA_without_intermediate	3,2,0,0,0,0,1,0,0	test	ward_and_allport	3,2,0,1,0,0,0,0,0	89.0	39.0	0.386	0,0,0,0,0,0,1,2,3	to_board	s512
380.582	0.72	0	PA_without_intermediate	3,2,0,0,0,0,0,0,0	test	ward_and_allport	3,2,0,1,0,0,0,0,0	82.0	39.0	0.72	0,0,0,0,0,0,1,2,3	to_hand	s512
381.304	0.41	0	PA_without_intermediate	3,2,0,1,0,0,0,0,0	test	ward_and_allport	3,2,0,1,0,0,0,0,0	71.0	39.0	0.41	0,0,0,0,0,0,1,2,3	to_board	s512
381.724	1.0	0	PA_without_intermediate	n/a	test	ward_and_allport	n/a	-1.0	39.0	n/a	n/a	feedback	s512
382.724	1.408	0	PA_without_intermediate	n/a	test	ward_and_allport	n/a	-1.0	39.0	n/a	n/a	ITI	s512
384.14	1.503	1	PA_with_intermediate	1,2,0,0,0,0,0,0,0	test	ward_and_allport	1,3,0,0,0,0,2,0,0	89.0	40.0	1.503	1,2,3,0,0,0,0,0,0	to_hand	s512
385.645	0.571	0	PA_with_intermediate	1,2,0,3,0,0,0,0,0	test	ward_and_allport	1,3,0,0,0,0,2,0,0	71.0	40.0	0.571	1,2,3,0,0,0,0,0,0	to_board	s512
386.224	0.584	0	PA_with_intermediate	1,0,0,3,0,0,0,0,0	test	ward_and_allport	1,3,0,0,0,0,2,0,0	89.0	40.0	0.584	1,2,3,0,0,0,0,0,0	to_hand	s512
386.808	0.41	0	PA_with_intermediate	1,0,0,3,0,0,2,0,0	test	ward_and_allport	1,3,0,0,0,0,2,0,0	82.0	40.0	0.41	1,2,3,0,0,0,0,0,0	to_board	s512
387.228	0.567	0	PA_with_intermediate	1,0,0,0,0,0,2,0,0	test	ward_and_allport	1,3,0,0,0,0,2,0,0	71.0	40.0	0.567	1,2,3,0,0,0,0,0,0	to_hand	s512
387.796	0.299	0	PA_with_intermediate	1,3,0,0,0,0,2,0,0	test	ward_and_allport	1,3,0,0,0,0,2,0,0	89.0	40.0	0.299	1,2,3,0,0,0,0,0,0	to_board	s512
388.106	1.0	0	PA_with_intermediate	n/a	test	ward_and_allport	n/a	-1.0	40.0	n/a	n/a	feedback	s512
389.106	1.816	0	PA_with_intermediate	n/a	test	ward_and_allport	n/a	-1.0	40.0	n/a	n/a	ITI	s512
390.932	1.309	1	PA_without_intermediate	1,2,0,0,0,0,0,0,0	test	ward_and_allport	0,0,0,3,1,0,2,0,0	89.0	41.0	1.309	1,2,3,0,0,0,0,0,0	to_hand	s512
392.242	1.535	0	PA_without_intermediate	1,2,0,3,0,0,0,0,0	test	ward_and_allport	0,0,0,3,1,0,2,0,0	71.0	41.0	1.535	1,2,3,0,0,0,0,0,0	to_board	s512
393.785	0.702	0	PA_without_intermediate	1,0,0,3,0,0,0,0,0	test	ward_and_allport	0,0,0,3,1,0,2,0,0	89.0	41.0	0.702	1,2,3,0,0,0,0,0,0	to_hand	s512
394.489	0.401	0	PA_without_intermediate	1,0,0,3,0,0,2,0,0	test	ward_and_allport	0,0,0,3,1,0,2,0,0	82.0	41.0	0.401	1,2,3,0,0,0,0,0,0	to_board	s512
394.901	0.561	0	PA_without_intermediate	0,0,0,3,0,0,2,0,0	test	ward_and_allport	0,0,0,3,1,0,2,0,0	89.0	41.0	0.561	1,2,3,0,0,0,0,0,0	to_hand	s512
395.463	0.442	0	PA_without_intermediate	0,0,0,3,1,0,2,0,0	test	ward_and_allport	0,0,0,3,1,0,2,0,0	71.0	41.0	0.442	1,2,3,0,0,0,0,0,0	to_board	s512
395.917	1.0	0	PA_without_intermediate	n/a	test	ward_and_allport	n/a	-1.0	41.0	n/a	n/a	feedback	s512
396.917	2.088	0	PA_without_intermediate	n/a	test	ward_and_allport	n/a	-1.0	41.0	n/a	n/a	ITI	s512
399.015	2.063	1	PA_without_intermediate	0,0,0,0,0,0,1,2,0	test	ward_and_allport	3,1,0,2,0,0,0,0,0	82.0	42.0	2.063	0,0,0,0,0,0,1,2,3	to_hand	s512
401.079	0.336	0	PA_without_intermediate	3,0,0,0,0,0,1,2,0	test	ward_and_allport	3,1,0,2,0,0,0,0,0	89.0	42.0	0.336	0,0,0,0,0,0,1,2,3	to_board	s512
401.424	1.39	0	PA_without_intermediate	3,0,0,0,0,0,1,0,0	test	ward_and_allport	3,1,0,2,0,0,0,0,0	82.0	42.0	1.39	0,0,0,0,0,0,1,2,3	to_hand	s512
402.815	0.441	0	PA_without_intermediate	3,0,0,2,0,0,1,0,0	test	ward_and_allport	3,1,0,2,0,0,0,0,0	71.0	42.0	0.441	0,0,0,0,0,0,1,2,3	to_board	s512
403.267	0.489	0	PA_without_intermediate	3,0,0,2,0,0,0,0,0	test	ward_and_allport	3,1,0,2,0,0,0,0,0	82.0	42.0	0.489	0,0,0,0,0,0,1,2,3	to_hand	s512
403.758	0.368	0	PA_without_intermediate	3,1,0,2,0,0,0,0,0	test	ward_and_allport	3,1,0,2,0,0,0,0,0	89.0	42.0	0.368	0,0,0,0,0,0,1,2,3	to_board	s512
404.138	1.0	0	PA_without_intermediate	n/a	test	ward_and_allport	n/a	-1.0	42.0	n/a	n/a	feedback	s512
405.138	1.136	0	PA_without_intermediate	n/a	test	ward_and_allport	n/a	-1.0	42.0	n/a	n/a	ITI	s512
406.282	2.187	1	PA_without_intermediate	0,0,0,1,2,0,0,0,0	test	ward_and_allport	3,2,0,0,0,0,1,0,0	71.0	43.0	2.187	0,0,0,1,2,3,0,0,0	to_hand	s512
408.47	0.563	0	PA_without_intermediate	3,0,0,1,2,0,0,0,0	test	ward_and_allport	3,2,0,0,0,0,1,0,0	89.0	43.0	0.563	0,0,0,1,2,3,0,0,0	to_board	s512
409.041	0.83	0	PA_without_intermediate	3,0,0,1,0,0,0,0,0	test	ward_and_allport	3,2,0,0,0,0,1,0,0	71.0	43.0	0.83	0,0,0,1,2,3,0,0,0	to_hand	s512
409.872	0.429	0	PA_without_intermediate	3,2,0,1,0,0,0,0,0	test	ward_and_allport	3,2,0,0,0,0,1,0,0	89.0	43.0	0.429	0,0,0,1,2,3,0,0,0	to_board	s512
410.31	0.521	0	PA_without_intermediate	3,2,0,0,0,0,0,0,0	test	ward_and_allport	3,2,0,0,0,0,1,0,0	71.0	43.0	0.521	0,0,0,1,2,3,0,0,0	to_hand	s512
410.833	0.292	0	PA_without_intermediate	3,2,0,0,0,0,1,0,0	test	ward_and_allport	3,2,0,0,0,0,1,0,0	82.0	43.0	0.292	0,0,0,1,2,3,0,0,0	to_board	s512
411.137	1.0	0	PA_without_intermediate	n/a	test	ward_and_allport	n/a	-1.0	43.0	n/a	n/a	feedback	s512
412.137	6.168	0	PA_without_intermediate	n/a	test	ward_and_allport	n/a	-1.0	43.0	n/a	n/a	ITI	s512
418.317	1.365	1	PA_without_intermediate	0,0,0,0,0,0,1,2,0	test	ward_and_allport	2,0,0,3,1,0,0,0,0	82.0	44.0	1.365	0,0,0,0,0,0,1,2,3	to_hand	s512
419.683	0.463	0	PA_without_intermediate	0,0,0,3,0,0,1,2,0	test	ward_and_allport	2,0,0,3,1,0,0,0,0	71.0	44.0	0.463	0,0,0,0,0,0,1,2,3	to_board	s512
420.157	0.927	0	PA_without_intermediate	0,0,0,3,0,0,1,0,0	test	ward_and_allport	2,0,0,3,1,0,0,0,0	82.0	44.0	0.927	0,0,0,0,0,0,1,2,3	to_hand	s512
421.086	0.386	0	PA_without_intermediate	2,0,0,3,0,0,1,0,0	test	ward_and_allport	2,0,0,3,1,0,0,0,0	89.0	44.0	0.386	0,0,0,0,0,0,1,2,3	to_board	s512
421.484	1.075	0	PA_without_intermediate	2,0,0,3,0,0,0,0,0	test	ward_and_allport	2,0,0,3,1,0,0,0,0	82.0	44.0	1.075	0,0,0,0,0,0,1,2,3	to_hand	s512
422.561	0.38	0	PA_without_intermediate	2,0,0,3,1,0,0,0,0	test	ward_and_allport	2,0,0,3,1,0,0,0,0	71.0	44.0	0.38	0,0,0,0,0,0,1,2,3	to_board	s512
422.954	1.0	0	PA_without_intermediate	n/a	test	ward_and_allport	n/a	-1.0	44.0	n/a	n/a	feedback	s512
423.954	1.816	0	PA_without_intermediate	n/a	test	ward_and_allport	n/a	-1.0	44.0	n/a	n/a	ITI	s512
430.786	1.565	1	PA_with_intermediate	0,0,0,0,0,0,1,2,0	test	ward_and_allport	2,3,0,0,0,0,1,0,0	82.0	45.0	1.565	0,0,0,0,0,0,1,2,3	to_hand	s512
432.351	0.538	0	PA_with_intermediate	0,0,0,3,0,0,1,2,0	test	ward_and_allport	2,3,0,0,0,0,1,0,0	71.0	45.0	0.538	0,0,0,0,0,0,1,2,3	to_board	s512
432.9	0.595	0	PA_with_intermediate	0,0,0,3,0,0,1,0,0	test	ward_and_allport	2,3,0,0,0,0,1,0,0	82.0	45.0	0.595	0,0,0,0,0,0,1,2,3	to_hand	s512
433.497	0.366	0	PA_with_intermediate	2,0,0,3,0,0,1,0,0	test	ward_and_allport	2,3,0,0,0,0,1,0,0	89.0	45.0	0.366	0,0,0,0,0,0,1,2,3	to_board	s512
433.874	0.783	0	PA_with_intermediate	2,0,0,0,0,0,1,0,0	test	ward_and_allport	2,3,0,0,0,0,1,0,0	71.0	45.0	0.783	0,0,0,0,0,0,1,2,3	to_hand	s512
434.658	0.391	0	PA_with_intermediate	2,3,0,0,0,0,1,0,0	test	ward_and_allport	2,3,0,0,0,0,1,0,0	89.0	45.0	0.391	0,0,0,0,0,0,1,2,3	to_board	s512
435.061	1.0	0	PA_with_intermediate	n/a	test	ward_and_allport	n/a	-1.0	45.0	n/a	n/a	feedback	s512
436.061	1.952	0	PA_with_intermediate	n/a	test	ward_and_allport	n/a	-1.0	45.0	n/a	n/a	ITI	s512
438.022	3.192	1	PA_with_intermediate	0,0,0,0,0,0,1,2,0	test	ward_and_allport	2,3,0,0,0,0,1,0,0	82.0	46.0	3.192	0,0,0,0,0,0,1,2,3	to_hand	s512
441.216	0.333	0	PA_with_intermediate	0,0,0,3,0,0,1,2,0	test	ward_and_allport	2,3,0,0,0,0,1,0,0	71.0	46.0	0.333	0,0,0,0,0,0,1,2,3	to_board	s512
441.559	0.53	0	PA_with_intermediate	0,0,0,3,0,0,1,0,0	test	ward_and_allport	2,3,0,0,0,0,1,0,0	82.0	46.0	0.53	0,0,0,0,0,0,1,2,3	to_hand	s512
442.091	0.45	0	PA_with_intermediate	2,0,0,3,0,0,1,0,0	test	ward_and_allport	2,3,0,0,0,0,1,0,0	89.0	46.0	0.45	0,0,0,0,0,0,1,2,3	to_board	s512
442.553	0.642	0	PA_with_intermediate	2,0,0,0,0,0,1,0,0	test	ward_and_allport	2,3,0,0,0,0,1,0,0	71.0	46.0	0.642	0,0,0,0,0,0,1,2,3	to_hand	s512
443.197	0.4	0	PA_with_intermediate	2,3,0,0,0,0,1,0,0	test	ward_and_allport	2,3,0,0,0,0,1,0,0	89.0	46.0	0.4	0,0,0,0,0,0,1,2,3	to_board	s512
443.612	1.0	0	PA_with_intermediate	n/a	test	ward_and_allport	n/a	-1.0	46.0	n/a	n/a	feedback	s512
444.612	1.136	0	PA_with_intermediate	n/a	test	ward_and_allport	n/a	-1.0	46.0	n/a	n/a	ITI	s512
445.759	1.834	1	PA_without_intermediate	0,0,0,0,0,0,1,2,0	test	ward_and_allport	1,0,0,3,2,0,0,0,0	82.0	47.0	1.834	0,0,0,0,0,0,1,2,3	to_hand	s512
447.595	0.397	0	PA_without_intermediate	0,0,0,3,0,0,1,2,0	test	ward_and_allport	1,0,0,3,2,0,0,0,0	71.0	47.0	0.397	0,0,0,0,0,0,1,2,3	to_board	s512
448.002	1.085	0	PA_without_intermediate	0,0,0,3,0,0,1,0,0	test	ward_and_allport	1,0,0,3,2,0,0,0,0	82.0	47.0	1.085	0,0,0,0,0,0,1,2,3	to_hand	s512
449.089	0.42	0	PA_without_intermediate	0,0,0,3,2,0,1,0,0	test	ward_and_allport	1,0,0,3,2,0,0,0,0	71.0	47.0	0.42	0,0,0,0,0,0,1,2,3	to_board	s512
449.518	0.447	0	PA_without_intermediate	0,0,0,3,2,0,0,0,0	test	ward_and_allport	1,0,0,3,2,0,0,0,0	82.0	47.0	0.447	0,0,0,0,0,0,1,2,3	to_hand	s512
449.966	0.315	0	PA_without_intermediate	1,0,0,3,2,0,0,0,0	test	ward_and_allport	1,0,0,3,2,0,0,0,0	89.0	47.0	0.315	0,0,0,0,0,0,1,2,3	to_board	s512
450.292	1.0	0	PA_without_intermediate	n/a	test	ward_and_allport	n/a	-1.0	47.0	n/a	n/a	feedback	s512
451.292	1.68	0	PA_without_intermediate	n/a	test	ward_and_allport	n/a	-1.0	47.0	n/a	n/a	ITI	s512
n/a	n/a	0	n/a	n/a	n/a	n/a	n/a	n/a	n/a	n/a	n/a	ITI	n/a
