onset	duration	SS_delay	correct_response	experiment_exp_id	key_press	response_time	stopped	trial_type	worker_id
3.011	0.85	0.2	89.0	stop_signal	-1.0	n/a	True	stop_success	s512
5.264	0.85	0.25	89.0	stop_signal	89.0	0.522	False	go	s512
7.925	0.85	0.25	89.0	stop_signal	89.0	0.507	False	go	s512
10.587	0.85	0.25	89.0	stop_signal	89.0	0.418	False	go	s512
12.84	0.85	0.25	89.0	stop_signal	71.0	0.435	False	go	s512
15.092	0.85	0.25	89.0	stop_signal	71.0	0.435	False	go	s512
17.482	0.85	0.25	71.0	stop_signal	71.0	0.72	False	stop_failure	s512
20.279	0.85	0.2	71.0	stop_signal	-1.0	n/a	True	stop_success	s512
22.667	0.85	0.25	89.0	stop_signal	89.0	0.429	False	stop_failure	s512
24.92	0.85	0.2	71.0	stop_signal	-1.0	n/a	True	stop_success	s512
27.173	0.85	0.25	89.0	stop_signal	89.0	0.443	False	stop_failure	s512
29.426	0.85	0.2	71.0	stop_signal	71.0	0.694	False	go	s512
32.087	0.85	0.2	71.0	stop_signal	71.0	0.468	False	go	s512
34.748	0.85	0.2	89.0	stop_signal	89.0	0.561	False	go	s512
37.0	0.85	0.2	89.0	stop_signal	89.0	0.575	False	go	s512
39.525	0.85	0.2	89.0	stop_signal	89.0	0.437	False	go	s512
41.778	0.85	0.2	71.0	stop_signal	-1.0	n/a	True	stop_success	s512
44.303	0.85	0.25	89.0	stop_signal	-1.0	n/a	True	go	s512
46.828	0.85	0.25	71.0	stop_signal	-1.0	n/a	True	stop_success	s512
49.352	0.85	0.3	89.0	stop_signal	-1.0	n/a	True	stop_success	s512
51.742	0.85	0.35	71.0	stop_signal	-1.0	n/a	True	stop_success	s512
54.267	0.85	0.4	89.0	stop_signal	-1.0	n/a	True	go	s512
56.792	0.85	0.4	71.0	stop_signal	-1.0	n/a	True	go	s512
59.181	0.85	0.4	71.0	stop_signal	-1.0	n/a	True	go	s512
61.433	0.85	0.4	89.0	stop_signal	-1.0	n/a	True	go	s512
63.958	0.85	0.4	71.0	stop_signal	-1.0	n/a	True	go	s512
66.755	0.85	0.4	89.0	stop_signal	-1.0	n/a	True	stop_success	s512
69.279	0.85	0.45	89.0	stop_signal	-1.0	n/a	True	stop_success	s512
71.669	0.85	0.5	89.0	stop_signal	-1.0	n/a	True	go	s512
73.922	0.85	0.5	89.0	stop_signal	-1.0	n/a	True	stop_success	s512
76.175	0.85	0.55	89.0	stop_signal	-1.0	n/a	True	stop_success	s512
78.428	0.85	0.6	71.0	stop_signal	-1.0	n/a	True	stop_success	s512
80.681	0.85	0.65	71.0	stop_signal	-1.0	n/a	True	go	s512
83.206	0.85	0.65	89.0	stop_signal	-1.0	n/a	True	go	s512
85.46	0.85	0.65	89.0	stop_signal	-1.0	n/a	True	stop_success	s512
87.713	0.85	0.7	71.0	stop_signal	-1.0	n/a	True	go	s512
89.965	0.85	0.7	89.0	stop_signal	-1.0	n/a	True	go	s512
92.218	0.85	0.7	89.0	stop_signal	-1.0	n/a	True	go	s512
94.608	0.85	0.7	71.0	stop_signal	-1.0	n/a	True	go	s512
96.861	0.85	0.7	71.0	stop_signal	-1.0	n/a	True	stop_success	s512
99.114	0.85	0.75	89.0	stop_signal	-1.0	n/a	True	go	s512
111.874	0.85	0.75	71.0	stop_signal	-1.0	n/a	True	stop_success	s512
114.127	0.85	0.8	71.0	stop_signal	-1.0	n/a	True	stop_success	s512
116.652	0.85	0.85	71.0	stop_signal	-1.0	n/a	True	go	s512
119.041	0.85	0.85	71.0	stop_signal	-1.0	n/a	True	go	s512
121.566	0.85	0.85	71.0	stop_signal	-1.0	n/a	True	stop_success	s512
123.819	0.85	0.9	71.0	stop_signal	-1.0	n/a	True	go	s512
126.209	0.85	0.9	89.0	stop_signal	-1.0	n/a	True	go	s512
128.598	0.85	0.9	89.0	stop_signal	-1.0	n/a	True	go	s512
130.851	0.85	0.9	89.0	stop_signal	-1.0	n/a	True	go	s512
133.24	0.85	0.9	89.0	stop_signal	-1.0	n/a	True	go	s512
135.629	0.85	0.9	89.0	stop_signal	-1.0	n/a	True	stop_success	s512
138.018	0.85	0.95	71.0	stop_signal	-1.0	n/a	True	go	s512
140.679	0.85	0.95	89.0	stop_signal	-1.0	n/a	True	go	s512
143.205	0.85	0.95	89.0	stop_signal	-1.0	n/a	True	stop_success	s512
145.458	0.85	1.0	89.0	stop_signal	-1.0	n/a	True	stop_success	s512
148.39	0.85	1.0	71.0	stop_signal	-1.0	n/a	True	go	s512
150.643	0.85	1.0	71.0	stop_signal	-1.0	n/a	True	go	s512
153.168	0.85	1.0	71.0	stop_signal	-1.0	n/a	True	stop_success	s512
155.42	0.85	1.0	89.0	stop_signal	-1.0	n/a	True	go	s512
157.675	0.85	1.0	71.0	stop_signal	-1.0	n/a	True	go	s512
159.927	0.85	1.0	89.0	stop_signal	-1.0	n/a	True	go	s512
162.18	0.85	1.0	89.0	stop_signal	-1.0	n/a	True	go	s512
164.705	0.85	1.0	71.0	stop_signal	-1.0	n/a	True	stop_success	s512
167.775	0.85	1.0	89.0	stop_signal	-1.0	n/a	True	stop_success	s512
170.027	0.85	1.0	89.0	stop_signal	-1.0	n/a	True	go	s512
172.416	0.85	1.0	89.0	stop_signal	-1.0	n/a	True	stop_success	s512
174.804	0.85	1.0	71.0	stop_signal	-1.0	n/a	True	go	s512
177.329	0.85	1.0	71.0	stop_signal	-1.0	n/a	True	go	s512
179.718	0.85	1.0	89.0	stop_signal	-1.0	n/a	True	go	s512
182.107	0.85	1.0	71.0	stop_signal	-1.0	n/a	True	stop_success	s512
184.904	0.85	1.0	89.0	stop_signal	-1.0	n/a	True	go	s512
187.293	0.85	1.0	89.0	stop_signal	-1.0	n/a	True	stop_success	s512
189.546	0.85	1.0	71.0	stop_signal	-1.0	n/a	True	stop_success	s512
192.071	0.85	1.0	71.0	stop_signal	-1.0	n/a	True	stop_success	s512
194.46	0.85	1.0	89.0	stop_signal	-1.0	n/a	True	go	s512
196.849	0.85	1.0	71.0	stop_signal	-1.0	n/a	True	stop_success	s512
199.102	0.85	1.0	89.0	stop_signal	-1.0	n/a	True	go	s512
201.491	0.85	1.0	71.0	stop_signal	-1.0	n/a	True	go	s512
203.744	0.85	1.0	89.0	stop_signal	-1.0	n/a	True	stop_success	s512
205.997	0.85	1.0	71.0	stop_signal	-1.0	n/a	True	go	s512
208.249	0.85	1.0	71.0	stop_signal	-1.0	n/a	True	go	s512
210.639	0.85	1.0	71.0	stop_signal	-1.0	n/a	True	stop_success	s512
223.4	0.85	1.0	71.0	stop_signal	-1.0	n/a	True	stop_success	s512
225.652	0.85	1.0	71.0	stop_signal	-1.0	n/a	True	stop_success	s512
228.042	0.85	1.0	89.0	stop_signal	-1.0	n/a	True	stop_success	s512
230.43	0.85	1.0	71.0	stop_signal	-1.0	n/a	True	go	s512
232.684	0.85	1.0	71.0	stop_signal	-1.0	n/a	True	stop_success	s512
235.208	0.85	1.0	71.0	stop_signal	-1.0	n/a	True	go	s512
237.461	0.85	1.0	71.0	stop_signal	-1.0	n/a	True	go	s512
239.85	0.85	1.0	71.0	stop_signal	-1.0	n/a	True	go	s512
242.104	0.85	1.0	89.0	stop_signal	-1.0	n/a	True	stop_success	s512
244.357	0.85	1.0	71.0	stop_signal	-1.0	n/a	True	go	s512
246.746	0.85	1.0	89.0	stop_signal	-1.0	n/a	True	go	s512
249.27	0.85	1.0	89.0	stop_signal	-1.0	n/a	True	go	s512
251.659	0.85	1.0	71.0	stop_signal	-1.0	n/a	True	go	s512
254.184	0.85	1.0	89.0	stop_signal	-1.0	n/a	True	stop_success	s512
257.117	0.85	1.0	89.0	stop_signal	-1.0	n/a	True	go	s512
259.642	0.85	1.0	71.0	stop_signal	-1.0	n/a	True	go	s512
262.167	0.85	1.0	71.0	stop_signal	-1.0	n/a	True	go	s512
264.42	0.85	1.0	89.0	stop_signal	-1.0	n/a	True	stop_success	s512
266.946	0.85	1.0	89.0	stop_signal	-1.0	n/a	True	go	s512
269.335	0.85	1.0	71.0	stop_signal	-1.0	n/a	True	go	s512
271.588	0.85	1.0	71.0	stop_signal	-1.0	n/a	True	go	s512
273.977	0.85	1.0	71.0	stop_signal	-1.0	n/a	True	go	s512
276.23	0.85	1.0	71.0	stop_signal	-1.0	n/a	True	stop_success	s512
278.619	0.85	1.0	89.0	stop_signal	-1.0	n/a	True	go	s512
281.146	0.85	1.0	89.0	stop_signal	-1.0	n/a	True	stop_success	s512
283.399	0.85	1.0	71.0	stop_signal	-1.0	n/a	True	stop_success	s512
285.788	0.85	1.0	89.0	stop_signal	-1.0	n/a	True	go	s512
288.449	0.85	1.0	71.0	stop_signal	-1.0	n/a	True	stop_success	s512
290.702	0.85	1.0	71.0	stop_signal	-1.0	n/a	True	go	s512
293.907	0.85	1.0	71.0	stop_signal	-1.0	n/a	True	go	s512
296.296	0.85	1.0	89.0	stop_signal	-1.0	n/a	True	go	s512
298.685	0.85	1.0	71.0	stop_signal	-1.0	n/a	True	stop_success	s512
301.211	0.85	1.0	71.0	stop_signal	-1.0	n/a	True	go	s512
303.463	0.85	1.0	89.0	stop_signal	-1.0	n/a	True	stop_success	s512
305.716	0.85	1.0	89.0	stop_signal	-1.0	n/a	True	stop_success	s512
307.968	0.85	1.0	89.0	stop_signal	-1.0	n/a	True	go	s512
310.902	0.85	1.0	89.0	stop_signal	-1.0	n/a	True	go	s512
313.426	0.85	1.0	71.0	stop_signal	-1.0	n/a	True	go	s512
315.951	0.85	1.0	71.0	stop_signal	-1.0	n/a	True	go	s512
318.204	0.85	1.0	89.0	stop_signal	-1.0	n/a	True	stop_success	s512
320.729	0.85	1.0	71.0	stop_signal	-1.0	n/a	True	stop_success	s512
322.981	0.85	1.0	71.0	stop_signal	-1.0	n/a	True	go	s512
