onset	duration	EV	action	clicked_on_loss_card	experiment_exp_id	gain_amount	gain_probability	key_press	loss_amount	loss_probability	num_cards	num_click_in_round	num_loss_cards	risk	response_time	total_cards	trial_id	worker_id
3.01	4.124	0.2623233097826598	draw_card	0.0	columbia_card_task_fmri	12.0	0.8333333333333334	89.0	-70.0	0.1666666666666666	6.0	1.0	1.0	-2.277944398524252	4.124	n/a	stim	s512
7.137	1.95	-2.4710100235506727	draw_card	1.0	columbia_card_task_fmri	12.0	0.8	89.0	-70.0	0.2	6.0	2.0	1.0	-0.0416870122284862	1.95	2.0	stim	s512
9.091	2.25	n/a	-1.0	n/a	columbia_card_task_fmri	n/a	n/a	-1.0	n/a	n/a	n/a	n/a	n/a	n/a	n/a	n/a	feedback	s512
11.341	0.204	n/a	-1.0	n/a	columbia_card_task_fmri	n/a	n/a	-1.0	n/a	n/a	n/a	n/a	n/a	n/a	n/a	n/a	ITI	s512
11.548	2.023	1.0956566431159938	draw_card	0.0	columbia_card_task_fmri	14.0	0.8333333333333334	89.0	-75.0	0.1666666666666666	6.0	1.0	1.0	0.3260263485627561	2.023	n/a	stim	s512
13.573	2.032	-1.871010023550673	draw_card	0.0	columbia_card_task_fmri	14.0	0.8	89.0	-75.0	0.2	6.0	2.0	1.0	2.7538623179564183	2.032	n/a	stim	s512
15.607	1.457	-6.321010023550674	draw_card	0.0	columbia_card_task_fmri	14.0	0.75	89.0	-75.0	0.25	6.0	3.0	1.0	5.688016513133796	1.457	n/a	stim	s512
17.067	1.053	-13.73767669021734	end_round	0.0	columbia_card_task_fmri	14.0	0.6666666666666667	71.0	-75.0	0.3333333333333333	6.0	4.0	1.0	9.100963449556978	1.053	3.0	stim	s512
18.124	2.25	n/a	-1.0	n/a	columbia_card_task_fmri	n/a	n/a	-1.0	n/a	n/a	n/a	n/a	n/a	n/a	n/a	n/a	feedback	s512
20.374	0.204	n/a	-1.0	n/a	columbia_card_task_fmri	n/a	n/a	-1.0	n/a	n/a	n/a	n/a	n/a	n/a	n/a	n/a	ITI	s512
20.58	1.388	2.76232330978266	draw_card	0.0	columbia_card_task_fmri	15.0	0.8333333333333334	89.0	-70.0	0.1666666666666666	6.0	1.0	1.0	-1.162052976389031	1.388	n/a	stim	s512
21.97	1.246	-0.0710100235506741	draw_card	0.0	columbia_card_task_fmri	15.0	0.8	89.0	-70.0	0.2	6.0	2.0	1.0	1.1563160119018008	1.246	n/a	stim	s512
23.218	0.913	-4.321010023550674	draw_card	0.0	columbia_card_task_fmri	15.0	0.75	89.0	-70.0	0.25	6.0	3.0	1.0	3.958233096093366	0.913	n/a	stim	s512
24.133	1.117	-11.404343356884004	draw_card	1.0	columbia_card_task_fmri	15.0	0.6666666666666667	89.0	-70.0	0.3333333333333333	6.0	4.0	1.0	7.217428736984949	1.117	4.0	stim	s512
25.253	2.25	n/a	-1.0	n/a	columbia_card_task_fmri	n/a	n/a	-1.0	n/a	n/a	n/a	n/a	n/a	n/a	n/a	n/a	feedback	s512
27.503	0.272	n/a	-1.0	n/a	columbia_card_task_fmri	n/a	n/a	-1.0	n/a	n/a	n/a	n/a	n/a	n/a	n/a	n/a	ITI	s512
27.777	0.49	3.5956566431159938	draw_card	0.0	columbia_card_task_fmri	17.0	0.8333333333333334	89.0	-75.0	0.1666666666666666	6.0	1.0	1.0	1.44223570626702	0.49	n/a	stim	s512
28.271	1.848	0.5289899764493273	draw_card	0.0	columbia_card_task_fmri	17.0	0.8	89.0	-75.0	0.2	6.0	2.0	1.0	3.9521617691534345	1.848	n/a	stim	s512
30.121	1.443	-4.071010023550674	draw_card	0.0	columbia_card_task_fmri	17.0	0.75	89.0	-75.0	0.25	6.0	3.0	1.0	6.985483229243862	1.443	n/a	stim	s512
31.566	0.983	-11.73767669021734	end_round	0.0	columbia_card_task_fmri	17.0	0.6666666666666667	71.0	-75.0	0.3333333333333333	6.0	4.0	1.0	10.513733189105643	0.983	3.0	stim	s512
32.552	2.25	n/a	-1.0	n/a	columbia_card_task_fmri	n/a	n/a	-1.0	n/a	n/a	n/a	n/a	n/a	n/a	n/a	n/a	feedback	s512
34.802	0.204	n/a	-1.0	n/a	columbia_card_task_fmri	n/a	n/a	-1.0	n/a	n/a	n/a	n/a	n/a	n/a	n/a	n/a	ITI	s512
35.009	0.761	4.928989976449326	draw_card	0.0	columbia_card_task_fmri	24.0	0.75	89.0	-60.0	0.25	8.0	1.0	2.0	3.5258209133763785	0.761	n/a	stim	s512
35.772	1.207	1.928989976449326	draw_card	0.0	columbia_card_task_fmri	24.0	0.7142857142857143	89.0	-60.0	0.2857142857142857	8.0	2.0	2.0	5.097968153870589	1.207	n/a	stim	s512
36.981	1.102	-2.071010023550674	draw_card	0.0	columbia_card_task_fmri	24.0	0.6666666666666667	89.0	-60.0	0.3333333333333333	8.0	3.0	2.0	6.746576007565395	1.102	n/a	stim	s512
38.084	1.339	-7.671010023550675	draw_card	0.0	columbia_card_task_fmri	24.0	0.6	89.0	-60.0	0.4	8.0	4.0	2.0	8.298253319988838	1.339	n/a	stim	s512
39.425	1.623	-16.071010023550674	end_round	0.0	columbia_card_task_fmri	24.0	0.5	71.0	-60.0	0.5	8.0	5.0	2.0	9.145913664081007	1.623	4.0	stim	s512
41.052	2.25	n/a	-1.0	n/a	columbia_card_task_fmri	n/a	n/a	-1.0	n/a	n/a	n/a	n/a	n/a	n/a	n/a	n/a	feedback	s512
43.302	0.408	n/a	-1.0	n/a	columbia_card_task_fmri	n/a	n/a	-1.0	n/a	n/a	n/a	n/a	n/a	n/a	n/a	n/a	ITI	s512
43.713	0.548	4.928989976449326	draw_card	1.0	columbia_card_task_fmri	29.0	0.75	89.0	-75.0	0.25	8.0	1.0	2.0	12.176255295308296	0.548	1.0	stim	s512
44.264	2.25	n/a	-1.0	n/a	columbia_card_task_fmri	n/a	n/a	-1.0	n/a	n/a	n/a	n/a	n/a	n/a	n/a	n/a	feedback	s512
46.514	0.136	n/a	-1.0	n/a	columbia_card_task_fmri	n/a	n/a	-1.0	n/a	n/a	n/a	n/a	n/a	n/a	n/a	n/a	ITI	s512
46.653	0.482	0.7067677542271062	draw_card	0.0	columbia_card_task_fmri	17.0	0.7777777777777778	89.0	-65.0	0.2222222222222222	9.0	1.0	2.0	1.2468270351399011	0.482	n/a	stim	s512
47.137	1.415	-1.571010023550674	draw_card	0.0	columbia_card_task_fmri	17.0	0.75	89.0	-65.0	0.25	9.0	2.0	2.0	2.661040393272458	1.415	n/a	stim	s512
48.555	1.09	-4.499581452122101	draw_card	0.0	columbia_card_task_fmri	17.0	0.7142857142857143	89.0	-65.0	0.2857142857142857	9.0	3.0	2.0	4.195653699019552	1.09	n/a	stim	s512
49.647	0.871	-8.404343356884004	draw_card	0.0	columbia_card_task_fmri	17.0	0.6666666666666667	89.0	-65.0	0.3333333333333333	9.0	4.0	2.0	5.804910849946644	0.871	n/a	stim	s512
50.52	1.023	-13.871010023550674	draw_card	1.0	columbia_card_task_fmri	17.0	0.6	89.0	-65.0	0.4	9.0	5.0	2.0	7.319558274106839	1.023	5.0	stim	s512
51.547	2.25	n/a	-1.0	n/a	columbia_card_task_fmri	n/a	n/a	-1.0	n/a	n/a	n/a	n/a	n/a	n/a	n/a	n/a	feedback	s512
53.797	0.272	n/a	-1.0	n/a	columbia_card_task_fmri	n/a	n/a	-1.0	n/a	n/a	n/a	n/a	n/a	n/a	n/a	n/a	ITI	s512
54.072	0.406	5.028989976449326	draw_card	0.0	columbia_card_task_fmri	14.0	0.9	89.0	-95.0	0.1	10.0	1.0	1.0	-0.1415139986754496	0.406	n/a	stim	s512
54.48	0.515	3.817878865338213	draw_card	0.0	columbia_card_task_fmri	14.0	0.8888888888888888	89.0	-95.0	0.1111111111111111	10.0	2.0	1.0	1.4113041882600683	0.515	n/a	stim	s512
54.998	0.696	2.303989976449326	draw_card	0.0	columbia_card_task_fmri	14.0	0.875	89.0	-95.0	0.125	10.0	3.0	1.0	3.201575327224916	0.696	n/a	stim	s512
55.697	0.97	0.3575614050207547	draw_card	1.0	columbia_card_task_fmri	14.0	0.8571428571428572	89.0	-95.0	0.1428571428571428	10.0	4.0	1.0	5.29244097949843	0.97	4.0	stim	s512
55.84	2.25	n/a	-1.0	n/a	columbia_card_task_fmri	n/a	n/a	-1.0	n/a	n/a	n/a	n/a	n/a	n/a	n/a	n/a	feedback	s512
58.09	0.34	n/a	-1.0	n/a	columbia_card_task_fmri	n/a	n/a	-1.0	n/a	n/a	n/a	n/a	n/a	n/a	n/a	n/a	ITI	s512
58.431	0.454	0.928989976449326	draw_card	0.0	columbia_card_task_fmri	15.0	0.8	89.0	-65.0	0.2	10.0	1.0	2.0	-0.8402727074240914	0.454	n/a	stim	s512
58.888	0.409	-0.8487878013284509	draw_card	1.0	columbia_card_task_fmri	15.0	0.7777777777777778	89.0	-65.0	0.2222222222222222	10.0	2.0	2.0	0.4167086437614813	0.409	2.0	stim	s512
59.301	2.25	n/a	-1.0	n/a	columbia_card_task_fmri	n/a	n/a	-1.0	n/a	n/a	n/a	n/a	n/a	n/a	n/a	n/a	feedback	s512
61.551	0.136	n/a	-1.0	n/a	columbia_card_task_fmri	n/a	n/a	-1.0	n/a	n/a	n/a	n/a	n/a	n/a	n/a	n/a	ITI	s512
61.688	0.575	2.5289899764493278	draw_card	0.0	columbia_card_task_fmri	17.0	0.8	89.0	-65.0	0.2	10.0	1.0	2.0	-0.0416870122284862	0.575	n/a	stim	s512
62.267	0.989	0.7067677542271062	draw_card	0.0	columbia_card_task_fmri	17.0	0.7777777777777778	89.0	-65.0	0.2222222222222222	10.0	2.0	2.0	1.2468270351399011	0.989	n/a	stim	s512
63.259	2.1	-1.571010023550674	draw_card	0.0	columbia_card_task_fmri	17.0	0.75	89.0	-65.0	0.25	10.0	3.0	2.0	2.661040393272458	2.1	n/a	stim	s512
65.361	1.991	-4.499581452122101	draw_card	0.0	columbia_card_task_fmri	17.0	0.7142857142857143	89.0	-65.0	0.2857142857142857	10.0	4.0	2.0	4.195653699019552	1.991	n/a	stim	s512
67.354	0.92	-8.404343356884004	end_round	0.0	columbia_card_task_fmri	17.0	0.6666666666666667	71.0	-65.0	0.3333333333333333	10.0	5.0	2.0	5.804910849946644	0.92	4.0	stim	s512
68.277	2.25	n/a	-1.0	n/a	columbia_card_task_fmri	n/a	n/a	-1.0	n/a	n/a	n/a	n/a	n/a	n/a	n/a	n/a	feedback	s512
70.527	0.34	n/a	-1.0	n/a	columbia_card_task_fmri	n/a	n/a	-1.0	n/a	n/a	n/a	n/a	n/a	n/a	n/a	n/a	ITI	s512
70.871	1.073	1.0956566431159938	draw_card	0.0	columbia_card_task_fmri	13.0	0.8333333333333334	89.0	-70.0	0.1666666666666666	12.0	1.0	2.0	-1.9059977506875043	1.073	n/a	stim	s512
71.946	0.713	-0.1619191144597676	draw_card	0.0	columbia_card_task_fmri	13.0	0.8181818181818181	89.0	-70.0	0.1818181818181818	12.0	2.0	2.0	-0.8276431667664284	0.713	n/a	stim	s512
72.662	1.161	-1.6710100235506735	draw_card	0.0	columbia_card_task_fmri	13.0	0.8	89.0	-70.0	0.2	12.0	3.0	2.0	0.3576313295152005	1.161	n/a	stim	s512
73.826	2.255	-3.5154544679951187	draw_card	0.0	columbia_card_task_fmri	13.0	0.7777777777777778	89.0	-70.0	0.2222222222222222	12.0	4.0	2.0	1.6619107692842905	2.255	n/a	stim	s512
76.084	1.323	-5.821010023550674	draw_card	0.0	columbia_card_task_fmri	13.0	0.75	89.0	-70.0	0.25	12.0	5.0	2.0	3.093423170186618	1.323	n/a	stim	s512
77.411	1.567	-8.785295737836387	draw_card	0.0	columbia_card_task_fmri	13.0	0.7142857142857143	89.0	-70.0	0.2857142857142857	12.0	6.0	2.0	4.646803751236867	1.567	n/a	stim	s512
78.981	2.086	-12.737676690217338	draw_card	0.0	columbia_card_task_fmri	13.0	0.6666666666666667	89.0	-70.0	0.3333333333333333	12.0	7.0	2.0	6.2757365504238365	2.086	n/a	stim	s512
81.069	0.871	-18.271010023550676	end_round	0.0	columbia_card_task_fmri	13.0	0.6	71.0	-70.0	0.4	12.0	8.0	2.0	7.808899176585662	0.871	7.0	stim	s512
81.945	2.25	n/a	-1.0	n/a	columbia_card_task_fmri	n/a	n/a	-1.0	n/a	n/a	n/a	n/a	n/a	n/a	n/a	n/a	feedback	s512
84.195	0.068	n/a	-1.0	n/a	columbia_card_task_fmri	n/a	n/a	-1.0	n/a	n/a	n/a	n/a	n/a	n/a	n/a	n/a	ITI	s512
84.265	0.699	1.0956566431159938	draw_card	0.0	columbia_card_task_fmri	15.0	0.8333333333333334	89.0	-80.0	0.1666666666666666	12.0	1.0	2.0	2.558560039448686	0.699	n/a	stim	s512
84.968	1.498	-0.3437372962779492	draw_card	0.0	columbia_card_task_fmri	15.0	0.8181818181818181	89.0	-80.0	0.1818181818181818	12.0	2.0	2.0	3.79336847298616	1.498	n/a	stim	s512
86.469	0.981	-2.071010023550674	draw_card	0.0	columbia_card_task_fmri	15.0	0.8	89.0	-80.0	0.2	12.0	3.0	2.0	5.150568409464768	0.981	n/a	stim	s512
87.454	0.611	-4.182121134661786	draw_card	0.0	columbia_card_task_fmri	15.0	0.7777777777777778	89.0	-80.0	0.2222222222222222	12.0	4.0	2.0	6.643990643159008	0.611	n/a	stim	s512
88.068	0.853	-6.821010023550674	draw_card	1.0	columbia_card_task_fmri	15.0	0.75	89.0	-80.0	0.25	12.0	5.0	2.0	8.28304902223175	0.853	5.0	stim	s512
88.926	2.25	n/a	-1.0	n/a	columbia_card_task_fmri	n/a	n/a	-1.0	n/a	n/a	n/a	n/a	n/a	n/a	n/a	n/a	feedback	s512
91.176	0.0	n/a	-1.0	n/a	columbia_card_task_fmri	n/a	n/a	-1.0	n/a	n/a	n/a	n/a	n/a	n/a	n/a	n/a	ITI	s512
91.179	0.501	0.1289899764493269	draw_card	0.0	columbia_card_task_fmri	14.0	0.8	89.0	-65.0	0.2	15.0	1.0	3.0	-1.2395387747093525	0.501	n/a	stim	s512
91.682	0.966	-0.9995814521221013	draw_card	0.0	columbia_card_task_fmri	14.0	0.7857142857142857	89.0	-65.0	0.2142857142857142	15.0	2.0	3.0	-0.4252700243530682	0.966	n/a	stim	s512
92.651	0.37	-2.301779254319906	draw_card	1.0	columbia_card_task_fmri	14.0	0.7692307692307692	89.0	-65.0	0.2307692307692307	15.0	3.0	3.0	0.4421676155708098	0.37	3.0	stim	s512
93.025	2.25	n/a	-1.0	n/a	columbia_card_task_fmri	n/a	n/a	-1.0	n/a	n/a	n/a	n/a	n/a	n/a	n/a	n/a	feedback	s512
95.275	0.204	n/a	-1.0	n/a	columbia_card_task_fmri	n/a	n/a	-1.0	n/a	n/a	n/a	n/a	n/a	n/a	n/a	n/a	ITI	s512
95.483	0.461	0.0539899764493259	draw_card	0.0	columbia_card_task_fmri	1.0	0.9375	89.0	-45.0	0.0625	16.0	1.0	1.0	-21.597680254493007	0.461	n/a	stim	s512
95.948	0.904	-0.1376766902173405	draw_card	0.0	columbia_card_task_fmri	1.0	0.9333333333333332	89.0	-45.0	0.0666666666666666	16.0	2.0	1.0	-21.26293093615807	0.904	n/a	stim	s512
96.855	1.271	-0.3567243092649597	draw_card	0.0	columbia_card_task_fmri	1.0	0.9285714285714286	89.0	-45.0	0.0714285714285714	16.0	3.0	1.0	-20.895530101275693	1.271	n/a	stim	s512
98.129	0.432	-0.6094715620122124	draw_card	0.0	columbia_card_task_fmri	1.0	0.9230769230769232	89.0	-45.0	0.0769230769230769	16.0	4.0	1.0	-20.48991501331656	0.432	n/a	stim	s512
98.564	0.41	-0.9043433568840076	draw_card	0.0	columbia_card_task_fmri	1.0	0.9166666666666666	89.0	-45.0	0.0833333333333333	16.0	5.0	1.0	-20.03912695198221	0.41	n/a	stim	s512
98.977	0.448	-1.2528282053688558	draw_card	0.0	columbia_card_task_fmri	1.0	0.9090909090909092	89.0	-45.0	0.0909090909090909	16.0	6.0	1.0	-19.534340466222154	0.448	n/a	stim	s512
99.427	0.706	-1.6710100235506742	draw_card	0.0	columbia_card_task_fmri	1.0	0.9	89.0	-45.0	0.1	16.0	7.0	1.0	-18.964193921479392	0.706	n/a	stim	s512
100.137	1.336	-2.182121134661785	draw_card	0.0	columbia_card_task_fmri	1.0	0.8888888888888888	89.0	-45.0	0.1111111111111111	16.0	8.0	1.0	-18.3138258016289	1.336	n/a	stim	s512
101.477	0.679	-2.821010023550674	draw_card	0.0	columbia_card_task_fmri	1.0	0.875	89.0	-45.0	0.125	16.0	9.0	1.0	-17.563482025532373	0.679	n/a	stim	s512
102.16	2.229	-3.642438594979245	draw_card	0.0	columbia_card_task_fmri	1.0	0.8571428571428572	89.0	-45.0	0.1428571428571428	16.0	10.0	1.0	-16.686542638158148	2.229	n/a	stim	s512
104.392	2.545	-4.7376766902173415	draw_card	1.0	columbia_card_task_fmri	1.0	0.8333333333333334	89.0	-45.0	0.1666666666666666	16.0	11.0	1.0	-15.646987043000475	2.545	11.0	stim	s512
106.941	2.25	n/a	-1.0	n/a	columbia_card_task_fmri	n/a	n/a	-1.0	n/a	n/a	n/a	n/a	n/a	n/a	n/a	n/a	feedback	s512
109.191	1.02	n/a	-1.0	n/a	columbia_card_task_fmri	n/a	n/a	-1.0	n/a	n/a	n/a	n/a	n/a	n/a	n/a	n/a	ITI	s512
110.214	0.548	0.991489976449326	draw_card	0.0	columbia_card_task_fmri	15.0	0.8125	89.0	-70.0	0.1875	16.0	1.0	3.0	0.3342227026590265	0.548	n/a	stim	s512
110.765	0.748	-0.0710100235506741	draw_card	0.0	columbia_card_task_fmri	15.0	0.8	89.0	-70.0	0.2	16.0	2.0	3.0	1.1563160119018008	0.748	n/a	stim	s512
111.517	0.42	-1.2852957378363894	draw_card	0.0	columbia_card_task_fmri	15.0	0.7857142857142857	89.0	-70.0	0.2142857142857142	16.0	3.0	3.0	2.0326439760471477	0.42	n/a	stim	s512
111.939	0.357	-2.686394638935291	draw_card	0.0	columbia_card_task_fmri	15.0	0.7692307692307692	89.0	-70.0	0.2307692307692307	16.0	4.0	3.0	2.966181466921832	0.357	n/a	stim	s512
112.298	0.391	-4.321010023550674	draw_card	0.0	columbia_card_task_fmri	15.0	0.75	89.0	-70.0	0.25	16.0	5.0	3.0	3.958233096093366	0.391	n/a	stim	s512
112.693	1.059	-6.2528282053688535	draw_card	0.0	columbia_card_task_fmri	15.0	0.7272727272727273	89.0	-70.0	0.2727272727272727	16.0	6.0	3.0	5.00650518291031	1.059	n/a	stim	s512
113.755	1.232	-8.571010023550674	end_round	0.0	columbia_card_task_fmri	15.0	0.7	71.0	-70.0	0.3	16.0	7.0	3.0	6.10126758641082	1.232	6.0	stim	s512
114.992	2.25	n/a	-1.0	n/a	columbia_card_task_fmri	n/a	n/a	-1.0	n/a	n/a	n/a	n/a	n/a	n/a	n/a	n/a	feedback	s512
117.242	0.0	n/a	-1.0	n/a	columbia_card_task_fmri	n/a	n/a	-1.0	n/a	n/a	n/a	n/a	n/a	n/a	n/a	n/a	ITI	s512
117.246	1.785	7.928989976449326	draw_card	1.0	columbia_card_task_fmri	30.0	0.7	89.0	-50.0	0.3	10.0	1.0	3.0	3.8129591650603354	1.785	1.0	stim	s512
119.036	2.25	n/a	-1.0	n/a	columbia_card_task_fmri	n/a	n/a	-1.0	n/a	n/a	n/a	n/a	n/a	n/a	n/a	n/a	feedback	s512
121.286	0.0	n/a	-1.0	n/a	columbia_card_task_fmri	n/a	n/a	-1.0	n/a	n/a	n/a	n/a	n/a	n/a	n/a	n/a	ITI	s512
121.29	0.557	7.328989976449327	draw_card	0.0	columbia_card_task_fmri	17.0	0.8666666666666667	89.0	-70.0	0.1333333333333333	15.0	1.0	2.0	-3.261204873534652	0.557	n/a	stim	s512
121.851	0.875	6.500418547877899	draw_card	0.0	columbia_card_task_fmri	17.0	0.8571428571428572	89.0	-70.0	0.1428571428571428	15.0	2.0	2.0	-2.393650701294952	0.875	n/a	stim	s512
122.73	0.876	5.544374591833941	draw_card	0.0	columbia_card_task_fmri	17.0	0.8461538461538461	89.0	-70.0	0.1538461538461538	15.0	3.0	2.0	-1.4494399690370834	0.876	n/a	stim	s512
123.609	0.411	4.428989976449328	draw_card	0.0	columbia_card_task_fmri	17.0	0.8333333333333334	89.0	-70.0	0.1666666666666666	15.0	4.0	2.0	-0.4180434942728013	0.411	n/a	stim	s512
124.024	0.39	3.110808158267506	draw_card	0.0	columbia_card_task_fmri	17.0	0.8181818181818181	89.0	-70.0	0.1818181818181818	15.0	5.0	2.0	0.7124701146896086	0.39	n/a	stim	s512
124.417	1.141	1.528989976449327	draw_card	0.0	columbia_card_task_fmri	17.0	0.8	89.0	-70.0	0.2	15.0	6.0	2.0	1.9550610263832056	1.141	n/a	stim	s512
125.56	0.523	-0.4043433568840062	draw_card	0.0	columbia_card_task_fmri	17.0	0.7777777777777778	89.0	-70.0	0.2222222222222222	15.0	7.0	2.0	3.322396172335054	0.523	n/a	stim	s512
126.086	0.953	-2.821010023550674	draw_card	0.0	columbia_card_task_fmri	17.0	0.75	89.0	-70.0	0.25	15.0	8.0	2.0	4.823098793797918	0.953	n/a	stim	s512
127.043	0.852	-5.928152880693531	end_round	0.0	columbia_card_task_fmri	17.0	0.7142857142857143	71.0	-70.0	0.2857142857142857	15.0	9.0	2.0	6.451542528171977	0.852	8.0	stim	s512
127.9	2.25	n/a	-1.0	n/a	columbia_card_task_fmri	n/a	n/a	-1.0	n/a	n/a	n/a	n/a	n/a	n/a	n/a	n/a	feedback	s512
130.15	0.068	n/a	-1.0	n/a	columbia_card_task_fmri	n/a	n/a	-1.0	n/a	n/a	n/a	n/a	n/a	n/a	n/a	n/a	ITI	s512
130.222	0.512	2.553989976449326	draw_card	0.0	columbia_card_task_fmri	7.0	0.9375	89.0	-95.0	0.0625	16.0	1.0	1.0	-8.132852831920271	0.512	n/a	stim	s512
130.737	0.471	2.128989976449326	draw_card	1.0	columbia_card_task_fmri	7.0	0.9333333333333332	89.0	-95.0	0.0666666666666666	16.0	2.0	1.0	-7.382071686042842	0.471	2.0	stim	s512
131.213	2.25	n/a	-1.0	n/a	columbia_card_task_fmri	n/a	n/a	-1.0	n/a	n/a	n/a	n/a	n/a	n/a	n/a	n/a	feedback	s512
133.463	0.476	n/a	-1.0	n/a	columbia_card_task_fmri	n/a	n/a	-1.0	n/a	n/a	n/a	n/a	n/a	n/a	n/a	n/a	ITI	s512
133.943	0.616	4.116489976449326	draw_card	0.0	columbia_card_task_fmri	9.0	0.9375	89.0	-100.0	0.0625	16.0	1.0	1.0	-6.443241178560143	0.616	n/a	stim	s512
134.563	0.561	3.6623233097826593	draw_card	0.0	columbia_card_task_fmri	9.0	0.9333333333333332	89.0	-100.0	0.0666666666666666	16.0	2.0	1.0	-5.640642023425563	0.561	n/a	stim	s512
135.127	0.596	3.143275690735041	draw_card	0.0	columbia_card_task_fmri	9.0	0.9285714285714286	89.0	-100.0	0.0714285714285714	16.0	3.0	1.0	-4.760370090740395	0.596	n/a	stim	s512
135.728	0.446	2.5443745918339418	draw_card	1.0	columbia_card_task_fmri	9.0	0.9230769230769232	89.0	-100.0	0.0769230769230769	16.0	4.0	1.0	-3.7892159650345896	0.446	4.0	stim	s512
136.179	2.25	n/a	-1.0	n/a	columbia_card_task_fmri	n/a	n/a	-1.0	n/a	n/a	n/a	n/a	n/a	n/a	n/a	n/a	feedback	s512
138.429	0.136	n/a	-1.0	n/a	columbia_card_task_fmri	n/a	n/a	-1.0	n/a	n/a	n/a	n/a	n/a	n/a	n/a	n/a	ITI	s512
138.57	0.499	5.053989976449326	draw_card	0.0	columbia_card_task_fmri	15.0	0.875	89.0	-80.0	0.125	16.0	1.0	2.0	-1.4209024055638153	0.499	n/a	stim	s512
139.073	0.928	4.26232330978266	draw_card	0.0	columbia_card_task_fmri	15.0	0.8666666666666667	89.0	-80.0	0.1333333333333333	16.0	2.0	2.0	-0.5470099606595014	0.928	n/a	stim	s512
140.005	0.952	3.3575614050207565	draw_card	0.0	columbia_card_task_fmri	15.0	0.8571428571428572	89.0	-80.0	0.1428571428571428	16.0	3.0	2.0	0.400633979841011	0.952	n/a	stim	s512
140.962	2.114	2.313605361064709	draw_card	0.0	columbia_card_task_fmri	15.0	0.8461538461538461	89.0	-80.0	0.1538461538461538	16.0	4.0	2.0	1.431991424430528	2.114	n/a	stim	s512
143.08	1.101	1.0956566431159938	draw_card	0.0	columbia_card_task_fmri	15.0	0.8333333333333334	89.0	-80.0	0.1666666666666666	16.0	5.0	2.0	2.558560039448686	1.101	n/a	stim	s512
144.185	0.953	-0.3437372962779492	draw_card	0.0	columbia_card_task_fmri	15.0	0.8181818181818181	89.0	-80.0	0.1818181818181818	16.0	6.0	2.0	3.79336847298616	0.953	n/a	stim	s512
145.141	1.102	-2.071010023550674	draw_card	0.0	columbia_card_task_fmri	15.0	0.8	89.0	-80.0	0.2	16.0	7.0	2.0	5.150568409464768	1.102	n/a	stim	s512
146.245	1.057	-4.182121134661786	draw_card	0.0	columbia_card_task_fmri	15.0	0.7777777777777778	89.0	-80.0	0.2222222222222222	16.0	8.0	2.0	6.643990643159008	1.057	n/a	stim	s512
147.305	0.728	-6.821010023550674	end_round	0.0	columbia_card_task_fmri	15.0	0.75	71.0	-80.0	0.25	16.0	9.0	2.0	8.28304902223175	0.728	8.0	stim	s512
148.038	2.25	n/a	-1.0	n/a	columbia_card_task_fmri	n/a	n/a	-1.0	n/a	n/a	n/a	n/a	n/a	n/a	n/a	n/a	feedback	s512
150.288	0.068	n/a	-1.0	n/a	columbia_card_task_fmri	n/a	n/a	-1.0	n/a	n/a	n/a	n/a	n/a	n/a	n/a	n/a	ITI	s512
150.36	1.672	7.178989976449326	draw_card	1.0	columbia_card_task_fmri	16.0	0.875	89.0	-70.0	0.125	16.0	1.0	2.0	-4.391194840132854	1.672	1.0	stim	s512
152.038	2.25	n/a	-1.0	n/a	columbia_card_task_fmri	n/a	n/a	-1.0	n/a	n/a	n/a	n/a	n/a	n/a	n/a	n/a	feedback	s512
154.288	0.0	n/a	-1.0	n/a	columbia_card_task_fmri	n/a	n/a	-1.0	n/a	n/a	n/a	n/a	n/a	n/a	n/a	n/a	ITI	s512
154.292	0.99	8.491489976449326	draw_card	0.0	columbia_card_task_fmri	30.0	0.6875	89.0	-45.0	0.3125	16.0	1.0	5.0	1.91854754561016	0.99	n/a	stim	s512
155.286	1.349	6.92898997644933	draw_card	0.0	columbia_card_task_fmri	30.0	0.6666666666666667	89.0	-45.0	0.3333333333333333	16.0	2.0	5.0	2.509562228295465	1.349	n/a	stim	s512
156.639	0.925	5.143275690735038	draw_card	0.0	columbia_card_task_fmri	30.0	0.6428571428571428	89.0	-45.0	0.3571428571428571	16.0	3.0	5.0	3.0901803622677733	0.925	n/a	stim	s512
157.568	0.681	3.082836130295479	end_round	0.0	columbia_card_task_fmri	30.0	0.6153846153846154	71.0	-45.0	0.3846153846153846	16.0	4.0	5.0	3.6404125821174342	0.681	3.0	stim	s512
158.254	2.25	n/a	-1.0	n/a	columbia_card_task_fmri	n/a	n/a	-1.0	n/a	n/a	n/a	n/a	n/a	n/a	n/a	n/a	feedback	s512
160.504	0.0	n/a	-1.0	n/a	columbia_card_task_fmri	n/a	n/a	-1.0	n/a	n/a	n/a	n/a	n/a	n/a	n/a	n/a	ITI	s512
160.509	0.704	0.2623233097826598	draw_card	0.0	columbia_card_task_fmri	13.0	0.8333333333333334	89.0	-75.0	0.1666666666666666	6.0	1.0	1.0	-0.0460158616206243	0.704	n/a	stim	s512
161.217	2.113	-2.6710100235506737	draw_card	0.0	columbia_card_task_fmri	13.0	0.8	89.0	-75.0	0.2	6.0	2.0	1.0	2.354454876626079	2.113	n/a	stim	s512
163.333	1.521	-7.071010023550674	end_round	0.0	columbia_card_task_fmri	13.0	0.75	71.0	-75.0	0.25	6.0	3.0	1.0	5.255551371873359	1.521	2.0	stim	s512
164.86	2.25	n/a	-1.0	n/a	columbia_card_task_fmri	n/a	n/a	-1.0	n/a	n/a	n/a	n/a	n/a	n/a	n/a	n/a	feedback	s512
167.11	0.204	n/a	-1.0	n/a	columbia_card_task_fmri	n/a	n/a	-1.0	n/a	n/a	n/a	n/a	n/a	n/a	n/a	n/a	ITI	s512
167.317	0.743	1.928989976449328	draw_card	0.0	columbia_card_task_fmri	14.0	0.8333333333333334	89.0	-70.0	0.1666666666666666	6.0	1.0	1.0	-1.5340337398062935	0.743	n/a	stim	s512
168.064	0.638	-0.871010023550673	draw_card	1.0	columbia_card_task_fmri	14.0	0.8	89.0	-70.0	0.2	6.0	2.0	1.0	0.7569658607342191	0.638	2.0	stim	s512
168.708	2.25	n/a	-1.0	n/a	columbia_card_task_fmri	n/a	n/a	-1.0	n/a	n/a	n/a	n/a	n/a	n/a	n/a	n/a	feedback	s512
170.958	0.204	n/a	-1.0	n/a	columbia_card_task_fmri	n/a	n/a	-1.0	n/a	n/a	n/a	n/a	n/a	n/a	n/a	n/a	ITI	s512
171.167	1.567	1.928989976449328	draw_card	0.0	columbia_card_task_fmri	16.0	0.8333333333333334	89.0	-80.0	0.1666666666666666	6.0	1.0	1.0	2.9306918431654907	1.567	n/a	stim	s512
172.737	0.764	-1.2710100235506734	draw_card	0.0	columbia_card_task_fmri	16.0	0.8	89.0	-80.0	0.2	6.0	2.0	1.0	5.550059377027544	0.764	n/a	stim	s512
173.506	2.314	-6.071010023550674	end_round	0.0	columbia_card_task_fmri	16.0	0.75	71.0	-80.0	0.25	6.0	3.0	1.0	8.715591368463045	2.314	2.0	stim	s512
175.825	2.25	n/a	-1.0	n/a	columbia_card_task_fmri	n/a	n/a	-1.0	n/a	n/a	n/a	n/a	n/a	n/a	n/a	n/a	feedback	s512
178.075	0.272	n/a	-1.0	n/a	columbia_card_task_fmri	n/a	n/a	-1.0	n/a	n/a	n/a	n/a	n/a	n/a	n/a	n/a	ITI	s512
178.352	0.671	4.428989976449328	draw_card	0.0	columbia_card_task_fmri	17.0	0.8333333333333334	89.0	-70.0	0.1666666666666666	6.0	1.0	1.0	-0.4180434942728013	0.671	n/a	stim	s512
179.027	0.892	1.528989976449327	draw_card	0.0	columbia_card_task_fmri	17.0	0.8	89.0	-70.0	0.2	6.0	2.0	1.0	1.9550610263832056	0.892	n/a	stim	s512
179.923	0.779	-2.821010023550674	draw_card	1.0	columbia_card_task_fmri	17.0	0.75	89.0	-70.0	0.25	6.0	3.0	1.0	4.823098793797918	0.779	3.0	stim	s512
180.706	2.25	n/a	-1.0	n/a	columbia_card_task_fmri	n/a	n/a	-1.0	n/a	n/a	n/a	n/a	n/a	n/a	n/a	n/a	feedback	s512
182.956	0.136	n/a	-1.0	n/a	columbia_card_task_fmri	n/a	n/a	-1.0	n/a	n/a	n/a	n/a	n/a	n/a	n/a	n/a	ITI	s512
183.095	0.794	4.428989976449326	draw_card	0.0	columbia_card_task_fmri	25.0	0.75	89.0	-65.0	0.25	8.0	1.0	2.0	6.120493799847381	0.794	n/a	stim	s512
183.893	0.865	1.2147042621636142	draw_card	1.0	columbia_card_task_fmri	25.0	0.7142857142857143	89.0	-65.0	0.2857142857142857	8.0	2.0	2.0	7.805229204936964	0.865	2.0	stim	s512
184.764	2.25	n/a	-1.0	n/a	columbia_card_task_fmri	n/a	n/a	-1.0	n/a	n/a	n/a	n/a	n/a	n/a	n/a	n/a	feedback	s512
187.014	0.204	n/a	-1.0	n/a	columbia_card_task_fmri	n/a	n/a	-1.0	n/a	n/a	n/a	n/a	n/a	n/a	n/a	n/a	ITI	s512
187.222	0.376	4.428989976449326	draw_card	0.0	columbia_card_task_fmri	30.0	0.75	89.0	-80.0	0.25	8.0	1.0	2.0	14.772080953090011	0.376	n/a	stim	s512
187.602	2.085	0.5004185478779024	end_round	0.0	columbia_card_task_fmri	30.0	0.7142857142857143	71.0	-80.0	0.2857142857142857	8.0	2.0	2.0	16.831999873012577	2.085	1.0	stim	s512
189.692	2.25	n/a	-1.0	n/a	columbia_card_task_fmri	n/a	n/a	-1.0	n/a	n/a	n/a	n/a	n/a	n/a	n/a	n/a	feedback	s512
191.942	0.272	n/a	-1.0	n/a	columbia_card_task_fmri	n/a	n/a	-1.0	n/a	n/a	n/a	n/a	n/a	n/a	n/a	n/a	ITI	s512
192.219	0.704	4.128989976449327	draw_card	0.0	columbia_card_task_fmri	13.0	0.9	89.0	-95.0	0.1	10.0	1.0	1.0	-0.4409885669665314	0.704	n/a	stim	s512
192.927	0.725	2.928989976449326	draw_card	0.0	columbia_card_task_fmri	13.0	0.8888888888888888	89.0	-95.0	0.1111111111111111	10.0	2.0	1.0	1.0975361986831302	0.725	n/a	stim	s512
193.656	1.142	1.428989976449326	draw_card	0.0	columbia_card_task_fmri	13.0	0.875	89.0	-95.0	0.125	10.0	3.0	1.0	2.87133326199244	1.142	n/a	stim	s512
194.802	1.629	-0.4995814521221011	draw_card	0.0	columbia_card_task_fmri	13.0	0.8571428571428572	89.0	-95.0	0.1428571428571428	10.0	4.0	1.0	4.9429646509198975	1.629	n/a	stim	s512
196.435	0.755	-3.0710100235506723	end_round	0.0	columbia_card_task_fmri	13.0	0.8333333333333334	71.0	-95.0	0.1666666666666666	10.0	5.0	1.0	7.397060958248815	0.755	4.0	stim	s512
197.195	2.25	n/a	-1.0	n/a	columbia_card_task_fmri	n/a	n/a	-1.0	n/a	n/a	n/a	n/a	n/a	n/a	n/a	n/a	feedback	s512
199.445	0.272	n/a	-1.0	n/a	columbia_card_task_fmri	n/a	n/a	-1.0	n/a	n/a	n/a	n/a	n/a	n/a	n/a	n/a	ITI	s512
199.722	0.548	5.528989976449326	draw_card	0.0	columbia_card_task_fmri	14.0	0.9	89.0	-90.0	0.1	10.0	1.0	1.0	-1.638786076298068	0.548	n/a	stim	s512
200.274	0.582	4.373434420893769	draw_card	0.0	columbia_card_task_fmri	14.0	0.8888888888888888	89.0	-90.0	0.1111111111111111	10.0	2.0	1.0	-0.1574395249226299	0.582	n/a	stim	s512
200.861	0.661	2.928989976449326	draw_card	0.0	columbia_card_task_fmri	14.0	0.875	89.0	-90.0	0.125	10.0	3.0	1.0	1.550456492961466	0.661	n/a	stim	s512
201.525	1.813	1.07184711930647	draw_card	0.0	columbia_card_task_fmri	14.0	0.8571428571428572	89.0	-90.0	0.1428571428571428	10.0	4.0	1.0	3.545145847416485	1.813	n/a	stim	s512
203.342	0.643	-1.4043433568840062	end_round	0.0	columbia_card_task_fmri	14.0	0.8333333333333334	71.0	-90.0	0.1666666666666666	10.0	5.0	1.0	5.908123663826224	0.643	4.0	stim	s512
203.991	2.25	n/a	-1.0	n/a	columbia_card_task_fmri	n/a	n/a	-1.0	n/a	n/a	n/a	n/a	n/a	n/a	n/a	n/a	feedback	s512
206.241	0.34	n/a	-1.0	n/a	columbia_card_task_fmri	n/a	n/a	-1.0	n/a	n/a	n/a	n/a	n/a	n/a	n/a	n/a	ITI	s512
206.586	0.551	0.7289899764493266	draw_card	0.0	columbia_card_task_fmri	16.0	0.8	89.0	-70.0	0.2	10.0	1.0	2.0	1.5556812398745308	0.551	n/a	stim	s512
207.139	0.757	-1.1821211346617848	draw_card	0.0	columbia_card_task_fmri	16.0	0.7777777777777778	89.0	-70.0	0.2222222222222222	10.0	2.0	2.0	2.9072532982648625	0.757	n/a	stim	s512
207.9	0.648	-3.571010023550674	draw_card	0.0	columbia_card_task_fmri	16.0	0.75	89.0	-70.0	0.25	10.0	3.0	2.0	4.390659216005197	0.648	n/a	stim	s512
208.552	0.804	-6.642438594979245	draw_card	1.0	columbia_card_task_fmri	16.0	0.7142857142857143	89.0	-70.0	0.2857142857142857	10.0	4.0	2.0	6.000338013061317	0.804	4.0	stim	s512
209.362	2.25	n/a	-1.0	n/a	columbia_card_task_fmri	n/a	n/a	-1.0	n/a	n/a	n/a	n/a	n/a	n/a	n/a	n/a	feedback	s512
211.612	0.204	n/a	-1.0	n/a	columbia_card_task_fmri	n/a	n/a	-1.0	n/a	n/a	n/a	n/a	n/a	n/a	n/a	n/a	ITI	s512
211.821	0.494	0.0123233097826598	draw_card	0.0	columbia_card_task_fmri	7.0	0.9166666666666666	89.0	-100.0	0.0833333333333333	12.0	1.0	1.0	-3.2622780578732997	0.494	n/a	stim	s512
212.32	0.412	-0.7982827508234025	draw_card	0.0	columbia_card_task_fmri	7.0	0.9090909090909092	89.0	-100.0	0.0909090909090909	12.0	2.0	1.0	-2.0775989846311766	0.412	n/a	stim	s512
212.736	0.779	-1.7710100235506745	draw_card	0.0	columbia_card_task_fmri	7.0	0.9	89.0	-100.0	0.1	12.0	3.0	1.0	-0.7404533403729019	0.779	n/a	stim	s512
213.52	1.568	-2.9598989124395634	draw_card	0.0	columbia_card_task_fmri	7.0	0.8888888888888888	89.0	-100.0	0.1111111111111111	12.0	4.0	1.0	0.783777563644712	1.568	n/a	stim	s512
215.092	1.214	-4.446010023550674	draw_card	0.0	columbia_card_task_fmri	7.0	0.875	89.0	-100.0	0.125	12.0	5.0	1.0	2.5411000901907386	1.214	n/a	stim	s512
216.31	1.099	-6.356724309264958	draw_card	0.0	columbia_card_task_fmri	7.0	0.8571428571428572	89.0	-100.0	0.1428571428571428	12.0	6.0	1.0	4.593496731511038	1.099	n/a	stim	s512
217.413	1.483	-8.904343356884004	draw_card	0.0	columbia_card_task_fmri	7.0	0.8333333333333334	89.0	-100.0	0.1666666666666666	12.0	7.0	1.0	7.024814217150002	1.483	n/a	stim	s512
218.899	0.688	-12.471010023550672	end_round	0.0	columbia_card_task_fmri	7.0	0.8	71.0	-100.0	0.2	12.0	8.0	1.0	9.945086954071208	0.688	7.0	stim	s512
219.594	2.25	n/a	-1.0	n/a	columbia_card_task_fmri	n/a	n/a	-1.0	n/a	n/a	n/a	n/a	n/a	n/a	n/a	n/a	feedback	s512
221.844	0.068	n/a	-1.0	n/a	columbia_card_task_fmri	n/a	n/a	-1.0	n/a	n/a	n/a	n/a	n/a	n/a	n/a	n/a	ITI	s512
221.917	0.779	0.2623233097826616	draw_card	0.0	columbia_card_task_fmri	14.0	0.8333333333333334	89.0	-80.0	0.1666666666666666	12.0	1.0	2.0	2.186439830770567	0.779	n/a	stim	s512
222.701	1.101	-1.1619191144597676	draw_card	1.0	columbia_card_task_fmri	14.0	0.8181818181818181	89.0	-80.0	0.1818181818181818	12.0	2.0	2.0	3.408212908417667	1.101	2.0	stim	s512
223.808	2.25	n/a	-1.0	n/a	columbia_card_task_fmri	n/a	n/a	-1.0	n/a	n/a	n/a	n/a	n/a	n/a	n/a	n/a	feedback	s512
226.058	0.0	n/a	-1.0	n/a	columbia_card_task_fmri	n/a	n/a	-1.0	n/a	n/a	n/a	n/a	n/a	n/a	n/a	n/a	ITI	s512
226.062	0.539	1.928989976449326	draw_card	0.0	columbia_card_task_fmri	15.0	0.8333333333333334	89.0	-75.0	0.1666666666666666	12.0	1.0	2.0	0.6980826519888765	0.539	n/a	stim	s512
226.605	0.777	0.5653536128129608	draw_card	0.0	columbia_card_task_fmri	15.0	0.8181818181818181	89.0	-75.0	0.1818181818181818	12.0	2.0	2.0	1.867710169653627	0.777	n/a	stim	s512
227.386	1.024	-1.071010023550674	draw_card	0.0	columbia_card_task_fmri	15.0	0.8	89.0	-75.0	0.2	12.0	3.0	2.0	3.1532828986571038	1.024	n/a	stim	s512
228.413	0.42	-3.0710100235506723	draw_card	0.0	columbia_card_task_fmri	15.0	0.7777777777777778	89.0	-75.0	0.2222222222222222	12.0	4.0	2.0	4.56790421011732	0.42	n/a	stim	s512
228.837	0.62	-5.571010023550674	draw_card	1.0	columbia_card_task_fmri	15.0	0.75	89.0	-75.0	0.25	12.0	5.0	2.0	6.120493799847381	0.62	5.0	stim	s512
229.463	2.25	n/a	-1.0	n/a	columbia_card_task_fmri	n/a	n/a	-1.0	n/a	n/a	n/a	n/a	n/a	n/a	n/a	n/a	feedback	s512
231.713	0.408	n/a	-1.0	n/a	columbia_card_task_fmri	n/a	n/a	-1.0	n/a	n/a	n/a	n/a	n/a	n/a	n/a	n/a	ITI	s512
232.125	0.374	0.928989976449326	draw_card	1.0	columbia_card_task_fmri	15.0	0.8	89.0	-65.0	0.2	15.0	1.0	3.0	-0.8402727074240914	0.374	1.0	stim	s512
232.504	2.25	n/a	-1.0	n/a	columbia_card_task_fmri	n/a	n/a	-1.0	n/a	n/a	n/a	n/a	n/a	n/a	n/a	n/a	feedback	s512
234.754	0.204	n/a	-1.0	n/a	columbia_card_task_fmri	n/a	n/a	-1.0	n/a	n/a	n/a	n/a	n/a	n/a	n/a	n/a	ITI	s512
234.963	1.248	0.1789899764493259	draw_card	0.0	columbia_card_task_fmri	14.0	0.8125	89.0	-70.0	0.1875	16.0	1.0	3.0	-0.0554237755525193	1.248	n/a	stim	s512
236.216	0.699	-0.871010023550673	draw_card	0.0	columbia_card_task_fmri	14.0	0.8	89.0	-70.0	0.2	16.0	2.0	3.0	0.7569658607342191	0.699	n/a	stim	s512
236.92	0.425	-2.071010023550674	draw_card	0.0	columbia_card_task_fmri	14.0	0.7857142857142857	89.0	-70.0	0.2142857142857142	16.0	3.0	3.0	1.6229516447210486	0.425	n/a	stim	s512
237.35	1.458	-3.455625408166059	draw_card	1.0	columbia_card_task_fmri	14.0	0.7692307692307692	89.0	-70.0	0.2307692307692307	16.0	4.0	3.0	2.545473528228712	1.458	4.0	stim	s512
238.814	2.25	n/a	-1.0	n/a	columbia_card_task_fmri	n/a	n/a	-1.0	n/a	n/a	n/a	n/a	n/a	n/a	n/a	n/a	feedback	s512
241.064	0.136	n/a	-1.0	n/a	columbia_card_task_fmri	n/a	n/a	-1.0	n/a	n/a	n/a	n/a	n/a	n/a	n/a	n/a	ITI	s512
241.205	0.618	0.1164899764493259	draw_card	1.0	columbia_card_task_fmri	11.0	0.6875	89.0	-30.0	0.3125	16.0	1.0	5.0	-13.7967024444618	0.618	1.0	stim	s512
241.829	2.25	n/a	-1.0	n/a	columbia_card_task_fmri	n/a	n/a	-1.0	n/a	n/a	n/a	n/a	n/a	n/a	n/a	n/a	feedback	s512
244.079	0.34	n/a	-1.0	n/a	columbia_card_task_fmri	n/a	n/a	-1.0	n/a	n/a	n/a	n/a	n/a	n/a	n/a	n/a	ITI	s512
244.425	0.664	4.928989976449326	draw_card	0.0	columbia_card_task_fmri	15.0	0.8666666666666667	89.0	-75.0	0.1333333333333333	15.0	1.0	2.0	-2.2434915012828363	0.664	n/a	stim	s512
245.092	0.471	4.071847119306471	draw_card	0.0	columbia_card_task_fmri	15.0	0.8571428571428572	89.0	-75.0	0.1428571428571428	15.0	2.0	2.0	-1.34590056802573	0.471	n/a	stim	s512
245.568	1.406	3.082836130295479	draw_card	0.0	columbia_card_task_fmri	15.0	0.8461538461538461	89.0	-75.0	0.1538461538461538	15.0	3.0	2.0	-0.3690066392080666	1.406	n/a	stim	s512
246.979	1.65	1.928989976449326	draw_card	0.0	columbia_card_task_fmri	15.0	0.8333333333333334	89.0	-75.0	0.1666666666666666	15.0	4.0	2.0	0.6980826519888765	1.65	n/a	stim	s512
248.633	0.964	0.5653536128129608	draw_card	0.0	columbia_card_task_fmri	15.0	0.8181818181818181	89.0	-75.0	0.1818181818181818	15.0	5.0	2.0	1.867710169653627	0.964	n/a	stim	s512
249.602	0.807	-1.071010023550674	draw_card	0.0	columbia_card_task_fmri	15.0	0.8	89.0	-75.0	0.2	15.0	6.0	2.0	3.1532828986571038	0.807	n/a	stim	s512
250.412	1.214	-3.0710100235506723	draw_card	0.0	columbia_card_task_fmri	15.0	0.7777777777777778	89.0	-75.0	0.2222222222222222	15.0	7.0	2.0	4.56790421011732	1.214	n/a	stim	s512
251.63	1.139	-5.571010023550674	end_round	0.0	columbia_card_task_fmri	15.0	0.75	71.0	-75.0	0.25	15.0	8.0	2.0	6.120493799847381	1.139	7.0	stim	s512
252.775	2.25	n/a	-1.0	n/a	columbia_card_task_fmri	n/a	n/a	-1.0	n/a	n/a	n/a	n/a	n/a	n/a	n/a	n/a	feedback	s512
255.025	0.068	n/a	-1.0	n/a	columbia_card_task_fmri	n/a	n/a	-1.0	n/a	n/a	n/a	n/a	n/a	n/a	n/a	n/a	ITI	s512
255.099	1.26	6.662323309782661	draw_card	0.0	columbia_card_task_fmri	17.0	0.8666666666666667	89.0	-75.0	0.1333333333333333	15.0	1.0	2.0	-1.564940396993368	1.26	n/a	stim	s512
256.364	1.037	5.786132833592186	draw_card	0.0	columbia_card_task_fmri	17.0	0.8571428571428572	89.0	-75.0	0.1428571428571428	15.0	2.0	2.0	-0.6473270882601696	1.037	n/a	stim	s512
257.406	0.4	4.775143822603173	draw_card	0.0	columbia_card_task_fmri	17.0	0.8461538461538461	89.0	-75.0	0.1538461538461538	15.0	3.0	2.0	0.3513534502541517	0.4	n/a	stim	s512
257.81	0.452	3.5956566431159938	draw_card	1.0	columbia_card_task_fmri	17.0	0.8333333333333334	89.0	-75.0	0.1666666666666666	15.0	4.0	2.0	1.44223570626702	0.452	4.0	stim	s512
258.268	2.25	n/a	-1.0	n/a	columbia_card_task_fmri	n/a	n/a	-1.0	n/a	n/a	n/a	n/a	n/a	n/a	n/a	n/a	feedback	s512
260.518	0.34	n/a	-1.0	n/a	columbia_card_task_fmri	n/a	n/a	-1.0	n/a	n/a	n/a	n/a	n/a	n/a	n/a	n/a	ITI	s512
260.864	0.684	2.241489976449326	draw_card	0.0	columbia_card_task_fmri	2.0	0.9375	89.0	-25.0	0.0625	16.0	1.0	1.0	-26.083975415604208	0.684	n/a	stim	s512
261.553	0.434	2.1289899764493256	draw_card	0.0	columbia_card_task_fmri	2.0	0.9333333333333332	89.0	-25.0	0.0666666666666666	16.0	2.0	1.0	-25.8925771553455	0.434	n/a	stim	s512
261.992	0.394	2.000418547877897	draw_card	0.0	columbia_card_task_fmri	2.0	0.9285714285714286	89.0	-25.0	0.0714285714285714	16.0	3.0	1.0	-25.68219524227525	0.394	n/a	stim	s512
262.391	0.358	1.852066899526249	draw_card	0.0	columbia_card_task_fmri	2.0	0.9230769230769232	89.0	-25.0	0.0769230769230769	16.0	4.0	1.0	-25.44958115358118	0.358	n/a	stim	s512
262.754	0.37	1.678989976449326	draw_card	0.0	columbia_card_task_fmri	2.0	0.9166666666666666	89.0	-25.0	0.0833333333333333	16.0	5.0	1.0	-25.1906695314837	0.37	n/a	stim	s512
263.128	0.717	1.474444521903871	draw_card	0.0	columbia_card_task_fmri	2.0	0.9090909090909092	89.0	-25.0	0.0909090909090909	16.0	6.0	1.0	-24.90030236910416	0.717	n/a	stim	s512
263.85	0.988	1.228989976449326	draw_card	0.0	columbia_card_task_fmri	2.0	0.9	89.0	-25.0	0.1	16.0	7.0	1.0	-24.57183662238762	0.988	n/a	stim	s512
264.843	0.626	0.928989976449326	end_round	0.0	columbia_card_task_fmri	2.0	0.8888888888888888	71.0	-25.0	0.1111111111111111	16.0	8.0	1.0	-24.196579086159048	0.626	7.0	stim	s512
265.476	2.25	n/a	-1.0	n/a	columbia_card_task_fmri	n/a	n/a	-1.0	n/a	n/a	n/a	n/a	n/a	n/a	n/a	n/a	feedback	s512
267.726	0.136	n/a	-1.0	n/a	columbia_card_task_fmri	n/a	n/a	-1.0	n/a	n/a	n/a	n/a	n/a	n/a	n/a	n/a	ITI	s512
267.867	0.734	4.428989976449326	draw_card	0.0	columbia_card_task_fmri	9.0	0.9375	89.0	-95.0	0.0625	16.0	1.0	1.0	-7.650172546881588	0.734	n/a	stim	s512
268.606	0.859	3.995656643115993	draw_card	1.0	columbia_card_task_fmri	9.0	0.9333333333333332	89.0	-95.0	0.0666666666666666	16.0	2.0	1.0	-6.884584337228841	0.859	2.0	stim	s512
269.47	2.25	n/a	-1.0	n/a	columbia_card_task_fmri	n/a	n/a	-1.0	n/a	n/a	n/a	n/a	n/a	n/a	n/a	n/a	feedback	s512
271.72	0.068	n/a	-1.0	n/a	columbia_card_task_fmri	n/a	n/a	-1.0	n/a	n/a	n/a	n/a	n/a	n/a	n/a	n/a	ITI	s512
271.793	0.695	5.991489976449326	draw_card	0.0	columbia_card_task_fmri	11.0	0.9375	89.0	-100.0	0.0625	16.0	1.0	1.0	-5.960383809649883	0.695	n/a	stim	s512
272.494	0.955	5.528989976449326	draw_card	0.0	columbia_card_task_fmri	11.0	0.9333333333333332	89.0	-100.0	0.0666666666666666	16.0	2.0	1.0	-5.142982747574347	0.955	n/a	stim	s512
273.454	0.925	5.000418547877899	draw_card	0.0	columbia_card_task_fmri	11.0	0.9285714285714286	89.0	-100.0	0.0714285714285714	16.0	3.0	1.0	-4.246481371571303	0.925	n/a	stim	s512
274.383	0.579	4.390528437987788	draw_card	0.0	columbia_card_task_fmri	11.0	0.9230769230769232	89.0	-100.0	0.0769230769230769	16.0	4.0	1.0	-3.257427671364848	0.579	n/a	stim	s512
274.967	0.536	3.678989976449326	draw_card	0.0	columbia_card_task_fmri	11.0	0.9166666666666666	89.0	-100.0	0.0833333333333333	16.0	5.0	1.0	-2.158996594679813	0.536	n/a	stim	s512
275.507	0.817	2.838080885540234	draw_card	0.0	columbia_card_task_fmri	11.0	0.9090909090909092	89.0	-100.0	0.0909090909090909	16.0	6.0	1.0	-0.9298532506346646	0.817	n/a	stim	s512
276.329	0.381	1.8289899764493265	draw_card	0.0	columbia_card_task_fmri	11.0	0.9	89.0	-100.0	0.1	16.0	7.0	1.0	0.4574634672694841	0.381	n/a	stim	s512
276.715	0.729	0.595656643115992	draw_card	0.0	columbia_card_task_fmri	11.0	0.8888888888888888	89.0	-100.0	0.1111111111111111	16.0	8.0	1.0	2.038867222875126	0.729	n/a	stim	s512
277.448	1.097	-0.946010023550674	end_round	0.0	columbia_card_task_fmri	11.0	0.875	71.0	-100.0	0.125	16.0	9.0	1.0	3.862085179232743	1.097	8.0	stim	s512
278.551	2.25	n/a	-1.0	n/a	columbia_card_task_fmri	n/a	n/a	-1.0	n/a	n/a	n/a	n/a	n/a	n/a	n/a	n/a	feedback	s512
280.801	0.068	n/a	-1.0	n/a	columbia_card_task_fmri	n/a	n/a	-1.0	n/a	n/a	n/a	n/a	n/a	n/a	n/a	n/a	ITI	s512
280.875	0.558	6.553989976449326	draw_card	0.0	columbia_card_task_fmri	16.0	0.875	89.0	-75.0	0.125	16.0	1.0	2.0	-2.741182772721867	0.558	n/a	stim	s512
281.438	0.862	5.7956566431159935	draw_card	0.0	columbia_card_task_fmri	16.0	0.8666666666666667	89.0	-75.0	0.1333333333333333	16.0	2.0	2.0	-1.904223170749301	0.862	n/a	stim	s512
282.304	0.439	4.928989976449328	draw_card	0.0	columbia_card_task_fmri	16.0	0.8571428571428572	89.0	-75.0	0.1428571428571428	16.0	3.0	2.0	-0.9966208458305026	0.439	n/a	stim	s512
282.748	0.654	3.928989976449326	draw_card	0.0	columbia_card_task_fmri	16.0	0.8461538461538461	89.0	-75.0	0.1538461538461538	16.0	4.0	2.0	-0.0088334028771015	0.654	n/a	stim	s512
283.407	0.853	2.76232330978266	draw_card	0.0	columbia_card_task_fmri	16.0	0.8333333333333334	89.0	-75.0	0.1666666666666666	16.0	5.0	2.0	1.07015258556887	0.853	n/a	stim	s512
284.265	0.655	1.3835354309947792	end_round	0.0	columbia_card_task_fmri	16.0	0.8181818181818181	71.0	-75.0	0.1818181818181818	16.0	6.0	2.0	2.2528171407133755	0.655	5.0	stim	s512
284.927	2.25	n/a	-1.0	n/a	columbia_card_task_fmri	n/a	n/a	-1.0	n/a	n/a	n/a	n/a	n/a	n/a	n/a	n/a	feedback	s512
287.177	0.068	n/a	-1.0	n/a	columbia_card_task_fmri	n/a	n/a	-1.0	n/a	n/a	n/a	n/a	n/a	n/a	n/a	n/a	ITI	s512
287.251	0.37	6.803989976449326	draw_card	0.0	columbia_card_task_fmri	17.0	0.875	89.0	-80.0	0.125	16.0	1.0	2.0	-0.7606821785478459	0.37	n/a	stim	s512
287.626	0.751	5.9956566431159946	draw_card	0.0	columbia_card_task_fmri	17.0	0.8666666666666667	89.0	-80.0	0.1333333333333333	16.0	2.0	2.0	0.1316745416609208	0.751	n/a	stim	s512
288.383	1.014	5.071847119306472	draw_card	0.0	columbia_card_task_fmri	17.0	0.8571428571428572	89.0	-80.0	0.1428571428571428	16.0	3.0	2.0	1.0993370886102838	1.014	n/a	stim	s512
289.401	0.693	4.005913053372403	draw_card	0.0	columbia_card_task_fmri	17.0	0.8461538461538461	89.0	-80.0	0.1538461538461538	16.0	4.0	2.0	2.1524772749259924	0.693	n/a	stim	s512
290.099	0.678	2.7623233097826616	end_round	0.0	columbia_card_task_fmri	17.0	0.8333333333333334	71.0	-80.0	0.1666666666666666	16.0	5.0	2.0	3.3028348843458204	0.678	4.0	stim	s512
290.784	2.25	n/a	-1.0	n/a	columbia_card_task_fmri	n/a	n/a	-1.0	n/a	n/a	n/a	n/a	n/a	n/a	n/a	n/a	feedback	s512
293.034	0.136	n/a	-1.0	n/a	columbia_card_task_fmri	n/a	n/a	-1.0	n/a	n/a	n/a	n/a	n/a	n/a	n/a	n/a	ITI	s512
304.18	1.492	1.0956566431159938	draw_card	0.0	columbia_card_task_fmri	13.0	0.8333333333333334	89.0	-70.0	0.1666666666666666	6.0	1.0	1.0	-1.9059977506875043	1.492	n/a	stim	s512
305.677	1.496	-1.6710100235506735	draw_card	0.0	columbia_card_task_fmri	13.0	0.8	89.0	-70.0	0.2	6.0	2.0	1.0	0.3576313295152005	1.496	n/a	stim	s512
307.179	1.292	-5.821010023550674	draw_card	0.0	columbia_card_task_fmri	13.0	0.75	89.0	-70.0	0.25	6.0	3.0	1.0	3.093423170186618	1.292	n/a	stim	s512
308.476	1.181	-12.737676690217338	end_round	0.0	columbia_card_task_fmri	13.0	0.6666666666666667	71.0	-70.0	0.3333333333333333	6.0	4.0	1.0	6.2757365504238365	1.181	3.0	stim	s512
309.664	2.25	n/a	-1.0	n/a	columbia_card_task_fmri	n/a	n/a	-1.0	n/a	n/a	n/a	n/a	n/a	n/a	n/a	n/a	feedback	s512
311.914	0.0	n/a	-1.0	n/a	columbia_card_task_fmri	n/a	n/a	-1.0	n/a	n/a	n/a	n/a	n/a	n/a	n/a	n/a	ITI	s512
311.92	0.888	1.0956566431159938	draw_card	0.0	columbia_card_task_fmri	15.0	0.8333333333333334	89.0	-80.0	0.1666666666666666	6.0	1.0	1.0	2.558560039448686	0.888	n/a	stim	s512
312.812	1.307	-2.071010023550674	draw_card	0.0	columbia_card_task_fmri	15.0	0.8	89.0	-80.0	0.2	6.0	2.0	1.0	5.150568409464768	1.307	n/a	stim	s512
314.124	1.217	-6.821010023550674	draw_card	0.0	columbia_card_task_fmri	15.0	0.75	89.0	-80.0	0.25	6.0	3.0	1.0	8.28304902223175	1.217	n/a	stim	s512
315.345	0.831	-14.737676690217338	end_round	0.0	columbia_card_task_fmri	15.0	0.6666666666666667	71.0	-80.0	0.3333333333333333	6.0	4.0	1.0	11.926593986574945	0.831	3.0	stim	s512
316.182	2.25	n/a	-1.0	n/a	columbia_card_task_fmri	n/a	n/a	-1.0	n/a	n/a	n/a	n/a	n/a	n/a	n/a	n/a	feedback	s512
318.432	0.136	n/a	-1.0	n/a	columbia_card_task_fmri	n/a	n/a	-1.0	n/a	n/a	n/a	n/a	n/a	n/a	n/a	n/a	ITI	s512
318.573	1.873	2.76232330978266	draw_card	0.0	columbia_card_task_fmri	16.0	0.8333333333333334	89.0	-75.0	0.1666666666666666	6.0	1.0	1.0	1.07015258556887	1.873	n/a	stim	s512
320.452	0.43	-0.2710100235506734	draw_card	0.0	columbia_card_task_fmri	16.0	0.8	89.0	-75.0	0.2	6.0	2.0	1.0	3.5527161867956423	0.43	n/a	stim	s512
320.886	1.657	-4.821010023550674	draw_card	1.0	columbia_card_task_fmri	16.0	0.75	89.0	-75.0	0.25	6.0	3.0	1.0	6.552982832587972	1.657	3.0	stim	s512
322.549	2.25	n/a	-1.0	n/a	columbia_card_task_fmri	n/a	n/a	-1.0	n/a	n/a	n/a	n/a	n/a	n/a	n/a	n/a	feedback	s512
324.799	0.34	n/a	-1.0	n/a	columbia_card_task_fmri	n/a	n/a	-1.0	n/a	n/a	n/a	n/a	n/a	n/a	n/a	n/a	ITI	s512
325.145	0.473	3.928989976449326	draw_card	1.0	columbia_card_task_fmri	21.0	0.75	89.0	-55.0	0.25	8.0	1.0	2.0	0.0670910007771254	0.473	1.0	stim	s512
325.625	2.25	n/a	-1.0	n/a	columbia_card_task_fmri	n/a	n/a	-1.0	n/a	n/a	n/a	n/a	n/a	n/a	n/a	n/a	feedback	s512
327.875	0.408	n/a	-1.0	n/a	columbia_card_task_fmri	n/a	n/a	-1.0	n/a	n/a	n/a	n/a	n/a	n/a	n/a	n/a	ITI	s512
328.288	0.431	5.178989976449326	draw_card	0.0	columbia_card_task_fmri	26.0	0.75	89.0	-65.0	0.25	8.0	1.0	2.0	6.552982832587972	0.431	n/a	stim	s512
328.725	2.199	1.9289899764493292	draw_card	0.0	columbia_card_task_fmri	26.0	0.7142857142857143	89.0	-65.0	0.2857142857142857	8.0	2.0	2.0	8.25648113795993	2.199	n/a	stim	s512
330.929	0.69	-2.4043433568840027	end_round	0.0	columbia_card_task_fmri	26.0	0.6666666666666667	71.0	-65.0	0.3333333333333333	8.0	3.0	2.0	10.042799381205969	0.69	2.0	stim	s512
331.626	2.25	n/a	-1.0	n/a	columbia_card_task_fmri	n/a	n/a	-1.0	n/a	n/a	n/a	n/a	n/a	n/a	n/a	n/a	feedback	s512
333.876	0.136	n/a	-1.0	n/a	columbia_card_task_fmri	n/a	n/a	-1.0	n/a	n/a	n/a	n/a	n/a	n/a	n/a	n/a	ITI	s512
334.018	0.782	0.2623233097826598	draw_card	0.0	columbia_card_task_fmri	15.0	0.7777777777777778	89.0	-60.0	0.2222222222222222	9.0	1.0	2.0	-1.658270625306887	0.782	n/a	stim	s512
334.805	1.095	-1.821010023550674	draw_card	0.0	columbia_card_task_fmri	15.0	0.75	89.0	-60.0	0.25	9.0	2.0	2.0	-0.3651698667865588	1.095	n/a	stim	s512
335.905	0.875	-4.499581452122101	draw_card	0.0	columbia_card_task_fmri	15.0	0.7142857142857143	89.0	-60.0	0.2857142857142857	9.0	3.0	2.0	1.038053217988363	0.875	n/a	stim	s512
336.785	1.298	-8.071010023550672	draw_card	0.0	columbia_card_task_fmri	15.0	0.6666666666666667	89.0	-60.0	0.3333333333333333	9.0	4.0	2.0	2.509562228295465	1.298	n/a	stim	s512
338.088	0.734	-13.071010023550674	end_round	0.0	columbia_card_task_fmri	15.0	0.6	71.0	-60.0	0.4	9.0	5.0	2.0	3.894587078663477	0.734	4.0	stim	s512
338.827	2.25	n/a	-1.0	n/a	columbia_card_task_fmri	n/a	n/a	-1.0	n/a	n/a	n/a	n/a	n/a	n/a	n/a	n/a	feedback	s512
341.077	0.136	n/a	-1.0	n/a	columbia_card_task_fmri	n/a	n/a	-1.0	n/a	n/a	n/a	n/a	n/a	n/a	n/a	n/a	ITI	s512
341.219	0.678	4.628989976449327	draw_card	0.0	columbia_card_task_fmri	13.0	0.9	89.0	-90.0	0.1	10.0	1.0	1.0	-1.9382088007774136	0.678	n/a	stim	s512
341.901	0.842	3.4845455320048813	draw_card	0.0	columbia_card_task_fmri	13.0	0.8888888888888888	89.0	-90.0	0.1111111111111111	10.0	2.0	1.0	-0.4711580004945972	0.842	n/a	stim	s512
342.75	0.433	2.053989976449326	draw_card	0.0	columbia_card_task_fmri	13.0	0.875	89.0	-90.0	0.125	10.0	3.0	1.0	1.2202615019434615	0.433	n/a	stim	s512
343.188	0.394	0.2147042621636141	draw_card	0.0	columbia_card_task_fmri	13.0	0.8571428571428572	89.0	-90.0	0.1428571428571428	10.0	4.0	1.0	3.1957140306106098	0.394	n/a	stim	s512
343.587	0.896	-2.23767669021734	draw_card	0.0	columbia_card_task_fmri	13.0	0.8333333333333334	89.0	-90.0	0.1666666666666666	10.0	5.0	1.0	5.535910837786318	0.896	n/a	stim	s512
344.488	1.279	-5.671010023550673	draw_card	1.0	columbia_card_task_fmri	13.0	0.8	89.0	-90.0	0.2	10.0	6.0	1.0	8.346772427644318	1.279	6.0	stim	s512
345.774	2.25	n/a	-1.0	n/a	columbia_card_task_fmri	n/a	n/a	-1.0	n/a	n/a	n/a	n/a	n/a	n/a	n/a	n/a	feedback	s512
348.024	0.0	n/a	-1.0	n/a	columbia_card_task_fmri	n/a	n/a	-1.0	n/a	n/a	n/a	n/a	n/a	n/a	n/a	n/a	ITI	s512
348.03	0.517	5.928989976449326	draw_card	0.0	columbia_card_task_fmri	15.0	0.9	89.0	-95.0	0.1	10.0	1.0	1.0	0.1579700982894181	0.517	n/a	stim	s512
348.552	0.53	4.706767754227103	draw_card	0.0	columbia_card_task_fmri	15.0	0.8888888888888888	89.0	-95.0	0.1111111111111111	10.0	2.0	1.0	1.7250812780546454	0.53	n/a	stim	s512
349.088	0.422	3.178989976449326	draw_card	0.0	columbia_card_task_fmri	15.0	0.875	89.0	-95.0	0.125	10.0	3.0	1.0	3.531826044029529	0.422	n/a	stim	s512
349.516	0.452	1.2147042621636124	draw_card	0.0	columbia_card_task_fmri	15.0	0.8571428571428572	89.0	-95.0	0.1428571428571428	10.0	4.0	1.0	5.641925488488177	0.452	n/a	stim	s512
349.973	0.768	-1.4043433568840062	draw_card	0.0	columbia_card_task_fmri	15.0	0.8333333333333334	89.0	-95.0	0.1666666666666666	10.0	5.0	1.0	8.141577923867708	0.768	n/a	stim	s512
350.746	0.966	-5.071010023550674	end_round	0.0	columbia_card_task_fmri	15.0	0.8	71.0	-95.0	0.2	10.0	6.0	1.0	11.14390317249724	0.966	5.0	stim	s512
351.719	2.25	n/a	-1.0	n/a	columbia_card_task_fmri	n/a	n/a	-1.0	n/a	n/a	n/a	n/a	n/a	n/a	n/a	n/a	feedback	s512
353.969	0.068	n/a	-1.0	n/a	columbia_card_task_fmri	n/a	n/a	-1.0	n/a	n/a	n/a	n/a	n/a	n/a	n/a	n/a	ITI	s512
354.042	1.247	1.7289899764493266	draw_card	0.0	columbia_card_task_fmri	16.0	0.8	89.0	-65.0	0.2	10.0	1.0	2.0	-0.4409885669665314	1.247	n/a	stim	s512
355.294	0.404	-0.0710100235506723	draw_card	0.0	columbia_card_task_fmri	16.0	0.7777777777777778	89.0	-65.0	0.2222222222222222	10.0	2.0	2.0	0.8317594586596542	0.404	n/a	stim	s512
355.704	0.401	-2.321010023550674	draw_card	1.0	columbia_card_task_fmri	16.0	0.75	89.0	-65.0	0.25	10.0	3.0	2.0	2.228673135298834	0.401	3.0	stim	s512
356.112	2.25	n/a	-1.0	n/a	columbia_card_task_fmri	n/a	n/a	-1.0	n/a	n/a	n/a	n/a	n/a	n/a	n/a	n/a	feedback	s512
358.362	0.0	n/a	-1.0	n/a	columbia_card_task_fmri	n/a	n/a	-1.0	n/a	n/a	n/a	n/a	n/a	n/a	n/a	n/a	ITI	s512
358.369	0.449	0.4289899764493259	draw_card	0.0	columbia_card_task_fmri	7.0	0.9166666666666666	89.0	-95.0	0.0833333333333333	12.0	1.0	1.0	-4.641131442066985	0.449	n/a	stim	s512
358.823	0.454	-0.3437372962779474	draw_card	0.0	columbia_card_task_fmri	7.0	0.9090909090909092	89.0	-95.0	0.0909090909090909	12.0	2.0	1.0	-3.5120421793124343	0.454	n/a	stim	s512
359.282	0.404	-1.2710100235506745	draw_card	0.0	columbia_card_task_fmri	7.0	0.9	89.0	-95.0	0.1	12.0	3.0	1.0	-2.237620239419421	0.404	n/a	stim	s512
359.692	0.343	-2.404343356884008	draw_card	0.0	columbia_card_task_fmri	7.0	0.8888888888888888	89.0	-95.0	0.1111111111111111	12.0	4.0	1.0	-0.7848656971014591	0.343	n/a	stim	s512
360.04	0.342	-3.821010023550674	draw_card	0.0	columbia_card_task_fmri	7.0	0.875	89.0	-95.0	0.125	12.0	5.0	1.0	0.8900767590454066	0.342	n/a	stim	s512
360.388	0.391	-5.642438594979245	draw_card	0.0	columbia_card_task_fmri	7.0	0.8571428571428572	89.0	-95.0	0.1428571428571428	12.0	6.0	1.0	2.8462919043463444	0.391	n/a	stim	s512
360.783	0.678	-8.071010023550672	draw_card	1.0	columbia_card_task_fmri	7.0	0.8333333333333334	89.0	-95.0	0.1666666666666666	12.0	7.0	1.0	5.163707115325963	0.678	7.0	stim	s512
361.467	2.25	n/a	-1.0	n/a	columbia_card_task_fmri	n/a	n/a	-1.0	n/a	n/a	n/a	n/a	n/a	n/a	n/a	n/a	feedback	s512
363.717	0.0	n/a	-1.0	n/a	columbia_card_task_fmri	n/a	n/a	-1.0	n/a	n/a	n/a	n/a	n/a	n/a	n/a	n/a	ITI	s512
363.722	1.128	1.0956566431159938	draw_card	0.0	columbia_card_task_fmri	14.0	0.8333333333333334	89.0	-75.0	0.1666666666666666	12.0	1.0	2.0	0.3260263485627561	1.128	n/a	stim	s512
364.855	0.359	-0.2528282053688575	draw_card	1.0	columbia_card_task_fmri	14.0	0.8181818181818181	89.0	-75.0	0.1818181818181818	12.0	2.0	2.0	1.4826163730742437	0.359	2.0	stim	s512
365.22	2.25	n/a	-1.0	n/a	columbia_card_task_fmri	n/a	n/a	-1.0	n/a	n/a	n/a	n/a	n/a	n/a	n/a	n/a	feedback	s512
367.47	0.136	n/a	-1.0	n/a	columbia_card_task_fmri	n/a	n/a	-1.0	n/a	n/a	n/a	n/a	n/a	n/a	n/a	n/a	ITI	s512
367.613	0.86	2.76232330978266	draw_card	0.0	columbia_card_task_fmri	15.0	0.8333333333333334	89.0	-70.0	0.1666666666666666	12.0	1.0	2.0	-1.162052976389031	0.86	n/a	stim	s512
368.478	0.662	1.474444521903869	draw_card	0.0	columbia_card_task_fmri	15.0	0.8181818181818181	89.0	-70.0	0.1818181818181818	12.0	2.0	2.0	-0.0576177995607025	0.662	n/a	stim	s512
369.146	1.024	-0.0710100235506741	draw_card	1.0	columbia_card_task_fmri	15.0	0.8	89.0	-70.0	0.2	12.0	3.0	2.0	1.1563160119018008	1.024	3.0	stim	s512
370.177	2.25	n/a	-1.0	n/a	columbia_card_task_fmri	n/a	n/a	-1.0	n/a	n/a	n/a	n/a	n/a	n/a	n/a	n/a	feedback	s512
372.427	0.136	n/a	-1.0	n/a	columbia_card_task_fmri	n/a	n/a	-1.0	n/a	n/a	n/a	n/a	n/a	n/a	n/a	n/a	ITI	s512
372.57	0.406	0.7289899764493266	draw_card	0.0	columbia_card_task_fmri	16.0	0.8	89.0	-70.0	0.2	15.0	1.0	3.0	1.5556812398745308	0.406	n/a	stim	s512
372.981	0.491	-0.4995814521221029	draw_card	0.0	columbia_card_task_fmri	16.0	0.7857142857142857	89.0	-70.0	0.2142857142857142	15.0	2.0	3.0	2.442351008285464	0.491	n/a	stim	s512
373.477	0.745	-1.9171638697045208	draw_card	0.0	columbia_card_task_fmri	16.0	0.7692307692307692	89.0	-70.0	0.2307692307692307	15.0	3.0	3.0	3.3869037261202948	0.745	n/a	stim	s512
374.228	0.735	-3.571010023550674	end_round	0.0	columbia_card_task_fmri	16.0	0.75	71.0	-70.0	0.25	15.0	4.0	3.0	4.390659216005197	0.735	3.0	stim	s512
374.969	2.25	n/a	-1.0	n/a	columbia_card_task_fmri	n/a	n/a	-1.0	n/a	n/a	n/a	n/a	n/a	n/a	n/a	n/a	feedback	s512
377.219	0.476	n/a	-1.0	n/a	columbia_card_task_fmri	n/a	n/a	-1.0	n/a	n/a	n/a	n/a	n/a	n/a	n/a	n/a	ITI	s512
377.699	1.287	1.116489976449326	draw_card	0.0	columbia_card_task_fmri	14.0	0.8125	89.0	-65.0	0.1875	16.0	1.0	3.0	-2.003404002085692	1.287	n/a	stim	s512
378.991	1.064	0.1289899764493269	draw_card	0.0	columbia_card_task_fmri	14.0	0.8	89.0	-65.0	0.2	16.0	2.0	3.0	-1.2395387747093525	1.064	n/a	stim	s512
380.061	0.701	-0.9995814521221013	draw_card	0.0	columbia_card_task_fmri	14.0	0.7857142857142857	89.0	-65.0	0.2142857142857142	16.0	3.0	3.0	-0.4252700243530682	0.701	n/a	stim	s512
380.768	1.026	-2.301779254319906	draw_card	1.0	columbia_card_task_fmri	14.0	0.7692307692307692	89.0	-65.0	0.2307692307692307	16.0	4.0	3.0	0.4421676155708098	1.026	4.0	stim	s512
381.801	2.25	n/a	-1.0	n/a	columbia_card_task_fmri	n/a	n/a	-1.0	n/a	n/a	n/a	n/a	n/a	n/a	n/a	n/a	feedback	s512
384.051	0.204	n/a	-1.0	n/a	columbia_card_task_fmri	n/a	n/a	-1.0	n/a	n/a	n/a	n/a	n/a	n/a	n/a	n/a	ITI	s512
384.262	1.571	0.8664899764493259	draw_card	0.0	columbia_card_task_fmri	16.0	0.8125	89.0	-75.0	0.1875	16.0	1.0	3.0	2.6724081961517427	1.571	n/a	stim	s512
385.839	0.416	-0.2710100235506734	draw_card	0.0	columbia_card_task_fmri	16.0	0.8	89.0	-75.0	0.2	16.0	2.0	3.0	3.5527161867956423	0.416	n/a	stim	s512
386.261	0.448	-1.5710100235506723	draw_card	0.0	columbia_card_task_fmri	16.0	0.7857142857142857	89.0	-75.0	0.2142857142857142	16.0	3.0	3.0	4.491089768105525	0.448	n/a	stim	s512
386.714	0.551	-3.0710100235506776	end_round	0.0	columbia_card_task_fmri	16.0	0.7692307692307692	71.0	-75.0	0.2307692307692307	16.0	4.0	3.0	5.490713349959336	0.551	3.0	stim	s512
387.273	2.25	n/a	-1.0	n/a	columbia_card_task_fmri	n/a	n/a	-1.0	n/a	n/a	n/a	n/a	n/a	n/a	n/a	n/a	feedback	s512
389.523	0.068	n/a	-1.0	n/a	columbia_card_task_fmri	n/a	n/a	-1.0	n/a	n/a	n/a	n/a	n/a	n/a	n/a	n/a	ITI	s512
389.597	0.703	5.128989976449327	draw_card	0.0	columbia_card_task_fmri	16.0	0.8666666666666667	89.0	-80.0	0.1333333333333333	15.0	1.0	2.0	-0.2076738640364794	0.703	n/a	stim	s512
390.306	0.883	4.214704262163615	draw_card	0.0	columbia_card_task_fmri	16.0	0.8571428571428572	89.0	-80.0	0.1428571428571428	15.0	2.0	2.0	0.7499795536779814	0.883	n/a	stim	s512
391.195	0.416	3.159759207218556	draw_card	0.0	columbia_card_task_fmri	16.0	0.8461538461538461	89.0	-80.0	0.1538461538461538	15.0	3.0	2.0	1.7922285476786757	0.416	n/a	stim	s512
391.617	0.67	1.928989976449328	draw_card	0.0	columbia_card_task_fmri	16.0	0.8333333333333334	89.0	-80.0	0.1666666666666666	15.0	4.0	2.0	2.9306918431654907	0.67	n/a	stim	s512
392.293	1.138	0.4744445219038691	draw_card	0.0	columbia_card_task_fmri	16.0	0.8181818181818181	89.0	-80.0	0.1818181818181818	15.0	5.0	2.0	4.178535244580303	1.138	n/a	stim	s512
393.437	0.841	-1.2710100235506734	end_round	0.0	columbia_card_task_fmri	16.0	0.8	71.0	-80.0	0.2	15.0	6.0	2.0	5.550059377027544	0.841	5.0	stim	s512
394.285	2.25	n/a	-1.0	n/a	columbia_card_task_fmri	n/a	n/a	-1.0	n/a	n/a	n/a	n/a	n/a	n/a	n/a	n/a	feedback	s512
396.535	0.068	n/a	-1.0	n/a	columbia_card_task_fmri	n/a	n/a	-1.0	n/a	n/a	n/a	n/a	n/a	n/a	n/a	n/a	ITI	s512
396.61	0.636	5.9956566431159946	draw_card	0.0	columbia_card_task_fmri	17.0	0.8666666666666667	89.0	-80.0	0.1333333333333333	15.0	1.0	2.0	0.1316745416609208	0.636	n/a	stim	s512
397.252	0.663	5.071847119306472	draw_card	0.0	columbia_card_task_fmri	17.0	0.8571428571428572	89.0	-80.0	0.1428571428571428	15.0	2.0	2.0	1.0993370886102838	0.663	n/a	stim	s512
397.92	0.526	4.005913053372403	draw_card	0.0	columbia_card_task_fmri	17.0	0.8461538461538461	89.0	-80.0	0.1538461538461538	15.0	3.0	2.0	2.1524772749259924	0.526	n/a	stim	s512
398.453	0.419	2.7623233097826616	draw_card	0.0	columbia_card_task_fmri	17.0	0.8333333333333334	89.0	-80.0	0.1666666666666666	15.0	4.0	2.0	3.3028348843458204	0.419	n/a	stim	s512
398.877	0.396	1.2926263400856874	draw_card	0.0	columbia_card_task_fmri	17.0	0.8181818181818181	89.0	-80.0	0.1818181818181818	15.0	5.0	2.0	4.563712877524587	0.396	n/a	stim	s512
399.279	0.93	-0.4710100235506727	draw_card	0.0	columbia_card_task_fmri	17.0	0.8	89.0	-80.0	0.2	15.0	6.0	2.0	5.94956082048904	0.93	n/a	stim	s512
400.214	0.975	-2.626565579106229	draw_card	0.0	columbia_card_task_fmri	17.0	0.7777777777777778	89.0	-80.0	0.2222222222222222	15.0	7.0	2.0	7.474500484272703	0.975	n/a	stim	s512
401.194	0.867	-5.321010023550674	end_round	0.0	columbia_card_task_fmri	17.0	0.75	71.0	-80.0	0.25	15.0	8.0	2.0	9.148143397277297	0.867	7.0	stim	s512
402.068	2.25	n/a	-1.0	n/a	columbia_card_task_fmri	n/a	n/a	-1.0	n/a	n/a	n/a	n/a	n/a	n/a	n/a	n/a	feedback	s512
404.318	0.34	n/a	-1.0	n/a	columbia_card_task_fmri	n/a	n/a	-1.0	n/a	n/a	n/a	n/a	n/a	n/a	n/a	n/a	ITI	s512
404.664	2.856	1.928989976449326	draw_card	0.0	columbia_card_task_fmri	1.0	0.9375	89.0	-15.0	0.0625	16.0	1.0	1.0	-28.571583286087204	2.856	n/a	stim	s512
407.526	0.399	1.8623233097826597	draw_card	0.0	columbia_card_task_fmri	1.0	0.9333333333333332	89.0	-15.0	0.0666666666666666	16.0	2.0	1.0	-28.465540864983453	0.399	n/a	stim	s512
407.931	0.378	1.7861328335921831	draw_card	0.0	columbia_card_task_fmri	1.0	0.9285714285714286	89.0	-15.0	0.0714285714285714	16.0	3.0	1.0	-28.348570083938	0.378	n/a	stim	s512
408.315	0.31	1.698220745680095	draw_card	0.0	columbia_card_task_fmri	1.0	0.9230769230769232	89.0	-15.0	0.0769230769230769	16.0	4.0	1.0	-28.21877550257291	0.31	n/a	stim	s512
408.631	0.22	1.5956566431159924	draw_card	0.0	columbia_card_task_fmri	1.0	0.9166666666666666	89.0	-15.0	0.0833333333333333	16.0	5.0	1.0	-28.07378212793176	0.22	n/a	stim	s512
408.857	1.161	1.474444521903871	draw_card	1.0	columbia_card_task_fmri	1.0	0.9090909090909092	89.0	-15.0	0.0909090909090909	16.0	6.0	1.0	-27.9105728483311	1.161	6.0	stim	s512
410.026	2.25	n/a	-1.0	n/a	columbia_card_task_fmri	n/a	n/a	-1.0	n/a	n/a	n/a	n/a	n/a	n/a	n/a	n/a	feedback	s512
412.276	0.476	n/a	-1.0	n/a	columbia_card_task_fmri	n/a	n/a	-1.0	n/a	n/a	n/a	n/a	n/a	n/a	n/a	n/a	ITI	s512
412.759	0.8	5.053989976449326	draw_card	0.0	columbia_card_task_fmri	10.0	0.9375	89.0	-100.0	0.0625	16.0	1.0	1.0	-6.201818224065931	0.8	n/a	stim	s512
413.565	0.442	4.595656643115992	draw_card	0.0	columbia_card_task_fmri	10.0	0.9333333333333332	89.0	-100.0	0.0666666666666666	16.0	2.0	1.0	-5.391817948421558	0.442	n/a	stim	s512
414.013	0.665	4.071847119306471	draw_card	0.0	columbia_card_task_fmri	10.0	0.9285714285714286	89.0	-100.0	0.0714285714285714	16.0	3.0	1.0	-4.503431121672147	0.665	n/a	stim	s512
414.682	1.985	3.467451514910865	draw_card	0.0	columbia_card_task_fmri	10.0	0.9230769230769232	89.0	-100.0	0.0769230769230769	16.0	4.0	1.0	-3.523327030445863	1.985	n/a	stim	s512
416.673	0.363	2.76232330978266	draw_card	0.0	columbia_card_task_fmri	10.0	0.9166666666666666	89.0	-100.0	0.0833333333333333	16.0	5.0	1.0	-2.4348323238309355	0.363	n/a	stim	s512
417.043	1.013	1.928989976449324	draw_card	0.0	columbia_card_task_fmri	10.0	0.9090909090909092	89.0	-100.0	0.0909090909090909	16.0	6.0	1.0	-1.2168044613982971	1.013	n/a	stim	s512
418.062	0.768	0.928989976449326	draw_card	0.0	columbia_card_task_fmri	10.0	0.9	89.0	-100.0	0.1	16.0	7.0	1.0	0.1579700982894181	0.768	n/a	stim	s512
418.835	1.029	-0.2932322457728955	draw_card	0.0	columbia_card_task_fmri	10.0	0.8888888888888888	89.0	-100.0	0.1111111111111111	16.0	8.0	1.0	1.7250812780546454	1.029	n/a	stim	s512
419.87	0.901	-1.821010023550674	draw_card	0.0	columbia_card_task_fmri	10.0	0.875	89.0	-100.0	0.125	16.0	9.0	1.0	3.531826044029529	0.901	n/a	stim	s512
420.776	2.207	-3.785295737836386	end_round	0.0	columbia_card_task_fmri	10.0	0.8571428571428572	71.0	-100.0	0.1428571428571428	16.0	10.0	1.0	5.641925488488177	2.207	9.0	stim	s512
422.988	2.25	n/a	-1.0	n/a	columbia_card_task_fmri	n/a	n/a	-1.0	n/a	n/a	n/a	n/a	n/a	n/a	n/a	n/a	feedback	s512
425.238	0.272	n/a	-1.0	n/a	columbia_card_task_fmri	n/a	n/a	-1.0	n/a	n/a	n/a	n/a	n/a	n/a	n/a	n/a	ITI	s512
425.517	1.426	5.678989976449326	draw_card	0.0	columbia_card_task_fmri	15.0	0.875	89.0	-75.0	0.125	16.0	1.0	2.0	-3.071216929561622	1.426	n/a	stim	s512
426.949	0.404	4.928989976449326	draw_card	1.0	columbia_card_task_fmri	15.0	0.8666666666666667	89.0	-75.0	0.1333333333333333	16.0	2.0	2.0	-2.2434915012828363	0.404	2.0	stim	s512
427.36	2.25	n/a	-1.0	n/a	columbia_card_task_fmri	n/a	n/a	-1.0	n/a	n/a	n/a	n/a	n/a	n/a	n/a	n/a	feedback	s512
429.61	0.884	n/a	-1.0	n/a	columbia_card_task_fmri	n/a	n/a	-1.0	n/a	n/a	n/a	n/a	n/a	n/a	n/a	n/a	ITI	s512
430.501	1.48	5.928989976449326	draw_card	0.0	columbia_card_task_fmri	16.0	0.875	89.0	-80.0	0.125	16.0	1.0	2.0	-1.0907986162267846	1.48	n/a	stim	s512
431.987	0.355	5.128989976449327	draw_card	0.0	columbia_card_task_fmri	16.0	0.8666666666666667	89.0	-80.0	0.1333333333333333	16.0	2.0	2.0	-0.2076738640364794	0.355	n/a	stim	s512
432.348	0.375	4.214704262163615	draw_card	0.0	columbia_card_task_fmri	16.0	0.8571428571428572	89.0	-80.0	0.1428571428571428	16.0	3.0	2.0	0.7499795536779814	0.375	n/a	stim	s512
432.73	0.351	3.159759207218556	draw_card	0.0	columbia_card_task_fmri	16.0	0.8461538461538461	89.0	-80.0	0.1538461538461538	16.0	4.0	2.0	1.7922285476786757	0.351	n/a	stim	s512
433.092	0.41	1.928989976449328	draw_card	0.0	columbia_card_task_fmri	16.0	0.8333333333333334	89.0	-80.0	0.1666666666666666	16.0	5.0	2.0	2.9306918431654907	0.41	n/a	stim	s512
433.508	0.353	0.4744445219038691	draw_card	1.0	columbia_card_task_fmri	16.0	0.8181818181818181	89.0	-80.0	0.1818181818181818	16.0	6.0	2.0	4.178535244580303	0.353	6.0	stim	s512
433.869	2.25	n/a	-1.0	n/a	columbia_card_task_fmri	n/a	n/a	-1.0	n/a	n/a	n/a	n/a	n/a	n/a	n/a	n/a	feedback	s512
436.119	0.136	n/a	-1.0	n/a	columbia_card_task_fmri	n/a	n/a	-1.0	n/a	n/a	n/a	n/a	n/a	n/a	n/a	n/a	ITI	s512
436.261	2.712	3.116489976449326	draw_card	1.0	columbia_card_task_fmri	4.0	0.6875	89.0	-5.0	0.3125	16.0	1.0	5.0	-28.302346495475756	2.712	1.0	stim	s512
438.981	2.25	n/a	-1.0	n/a	columbia_card_task_fmri	n/a	n/a	-1.0	n/a	n/a	n/a	n/a	n/a	n/a	n/a	n/a	feedback	s512
441.231	0.136	n/a	-1.0	n/a	columbia_card_task_fmri	n/a	n/a	-1.0	n/a	n/a	n/a	n/a	n/a	n/a	n/a	n/a	ITI	s512
441.373	0.75	0.2623233097826616	draw_card	0.0	columbia_card_task_fmri	14.0	0.8333333333333334	89.0	-80.0	0.1666666666666666	6.0	1.0	1.0	2.186439830770567	0.75	n/a	stim	s512
442.129	2.07	-2.871010023550673	draw_card	0.0	columbia_card_task_fmri	14.0	0.8	89.0	-80.0	0.2	6.0	2.0	1.0	4.751088251273863	2.07	n/a	stim	s512
444.206	1.246	-7.571010023550674	draw_card	0.0	columbia_card_task_fmri	14.0	0.75	89.0	-80.0	0.25	6.0	3.0	1.0	7.850516666920292	1.246	n/a	stim	s512
445.459	0.728	-15.404343356884002	end_round	0.0	columbia_card_task_fmri	14.0	0.6666666666666667	71.0	-80.0	0.3333333333333333	6.0	4.0	1.0	11.455630807004129	0.728	3.0	stim	s512
446.195	2.25	n/a	-1.0	n/a	columbia_card_task_fmri	n/a	n/a	-1.0	n/a	n/a	n/a	n/a	n/a	n/a	n/a	n/a	feedback	s512
448.445	0.068	n/a	-1.0	n/a	columbia_card_task_fmri	n/a	n/a	-1.0	n/a	n/a	n/a	n/a	n/a	n/a	n/a	n/a	ITI	s512
448.521	1.237	1.928989976449326	draw_card	0.0	columbia_card_task_fmri	15.0	0.8333333333333334	89.0	-75.0	0.1666666666666666	6.0	1.0	1.0	0.6980826519888765	1.237	n/a	stim	s512
449.765	0.385	-1.071010023550674	draw_card	0.0	columbia_card_task_fmri	15.0	0.8	89.0	-75.0	0.2	6.0	2.0	1.0	3.1532828986571038	0.385	n/a	stim	s512
450.157	0.95	-5.571010023550674	draw_card	0.0	columbia_card_task_fmri	15.0	0.75	89.0	-75.0	0.25	6.0	3.0	1.0	6.120493799847381	0.95	n/a	stim	s512
451.114	0.763	-13.071010023550672	end_round	0.0	columbia_card_task_fmri	15.0	0.6666666666666667	71.0	-75.0	0.3333333333333333	6.0	4.0	1.0	9.571876017581827	0.763	3.0	stim	s512
451.885	2.25	n/a	-1.0	n/a	columbia_card_task_fmri	n/a	n/a	-1.0	n/a	n/a	n/a	n/a	n/a	n/a	n/a	n/a	feedback	s512
454.135	0.068	n/a	-1.0	n/a	columbia_card_task_fmri	n/a	n/a	-1.0	n/a	n/a	n/a	n/a	n/a	n/a	n/a	n/a	ITI	s512
454.211	0.592	3.5956566431159938	draw_card	0.0	columbia_card_task_fmri	16.0	0.8333333333333334	89.0	-70.0	0.1666666666666666	6.0	1.0	1.0	-0.7900560426795806	0.592	n/a	stim	s512
454.81	0.961	0.7289899764493266	draw_card	0.0	columbia_card_task_fmri	16.0	0.8	89.0	-70.0	0.2	6.0	2.0	1.0	1.5556812398745308	0.961	n/a	stim	s512
455.775	1.457	-3.571010023550674	draw_card	0.0	columbia_card_task_fmri	16.0	0.75	89.0	-70.0	0.25	6.0	3.0	1.0	4.390659216005197	1.457	n/a	stim	s512
457.24	0.716	-10.737676690217338	end_round	0.0	columbia_card_task_fmri	16.0	0.6666666666666667	71.0	-70.0	0.3333333333333333	6.0	4.0	1.0	7.688294276760601	0.716	3.0	stim	s512
457.965	2.25	n/a	-1.0	n/a	columbia_card_task_fmri	n/a	n/a	-1.0	n/a	n/a	n/a	n/a	n/a	n/a	n/a	n/a	feedback	s512
460.215	0.612	n/a	-1.0	n/a	columbia_card_task_fmri	n/a	n/a	-1.0	n/a	n/a	n/a	n/a	n/a	n/a	n/a	n/a	ITI	s512
460.833	1.447	4.178989976449326	draw_card	0.0	columbia_card_task_fmri	23.0	0.75	89.0	-60.0	0.25	8.0	1.0	2.0	3.093423170186618	1.447	n/a	stim	s512
462.288	1.164	1.2147042621636142	draw_card	0.0	columbia_card_task_fmri	23.0	0.7142857142857143	89.0	-60.0	0.2857142857142857	8.0	2.0	2.0	4.646803751236867	1.164	n/a	stim	s512
463.459	1.206	-2.7376766902173384	draw_card	1.0	columbia_card_task_fmri	23.0	0.6666666666666667	89.0	-60.0	0.3333333333333333	8.0	3.0	2.0	6.2757365504238365	1.206	3.0	stim	s512
464.673	2.25	n/a	-1.0	n/a	columbia_card_task_fmri	n/a	n/a	-1.0	n/a	n/a	n/a	n/a	n/a	n/a	n/a	n/a	feedback	s512
466.923	0.476	n/a	-1.0	n/a	columbia_card_task_fmri	n/a	n/a	-1.0	n/a	n/a	n/a	n/a	n/a	n/a	n/a	n/a	ITI	s512
467.407	0.531	4.678989976449326	draw_card	0.0	columbia_card_task_fmri	27.0	0.75	89.0	-70.0	0.25	8.0	1.0	2.0	9.148143397277297	0.531	n/a	stim	s512
467.945	0.836	1.2147042621636106	draw_card	0.0	columbia_card_task_fmri	27.0	0.7142857142857143	89.0	-70.0	0.2857142857142857	8.0	2.0	2.0	10.96420977447415	0.836	n/a	stim	s512
468.788	0.657	-3.4043433568840027	end_round	0.0	columbia_card_task_fmri	27.0	0.6666666666666667	71.0	-70.0	0.3333333333333333	8.0	3.0	2.0	12.868547608154708	0.657	2.0	stim	s512
469.454	2.25	n/a	-1.0	n/a	columbia_card_task_fmri	n/a	n/a	-1.0	n/a	n/a	n/a	n/a	n/a	n/a	n/a	n/a	feedback	s512
471.704	0.0	n/a	-1.0	n/a	columbia_card_task_fmri	n/a	n/a	-1.0	n/a	n/a	n/a	n/a	n/a	n/a	n/a	n/a	ITI	s512
471.711	0.758	-0.0710100235506723	draw_card	0.0	columbia_card_task_fmri	16.0	0.7777777777777778	89.0	-65.0	0.2222222222222222	9.0	1.0	2.0	0.8317594586596542	0.758	n/a	stim	s512
472.476	1.054	-2.321010023550674	draw_card	0.0	columbia_card_task_fmri	16.0	0.75	89.0	-65.0	0.25	9.0	2.0	2.0	2.228673135298834	1.054	n/a	stim	s512
473.535	1.343	-5.213867166407814	draw_card	1.0	columbia_card_task_fmri	16.0	0.7142857142857143	89.0	-65.0	0.2857142857142857	9.0	3.0	2.0	3.744518527269065	1.343	3.0	stim	s512
474.887	2.25	n/a	-1.0	n/a	columbia_card_task_fmri	n/a	n/a	-1.0	n/a	n/a	n/a	n/a	n/a	n/a	n/a	n/a	feedback	s512
477.137	0.068	n/a	-1.0	n/a	columbia_card_task_fmri	n/a	n/a	-1.0	n/a	n/a	n/a	n/a	n/a	n/a	n/a	n/a	ITI	s512
477.213	0.635	5.128989976449327	draw_card	0.0	columbia_card_task_fmri	13.0	0.9	89.0	-85.0	0.1	10.0	1.0	1.0	-3.4351462544632696	0.635	n/a	stim	s512
477.855	0.749	4.040101087560437	draw_card	0.0	columbia_card_task_fmri	13.0	0.8888888888888888	89.0	-85.0	0.1111111111111111	10.0	2.0	1.0	-2.039582119364404	0.749	n/a	stim	s512
478.611	0.524	2.678989976449326	draw_card	0.0	columbia_card_task_fmri	13.0	0.875	89.0	-85.0	0.125	10.0	3.0	1.0	-0.4305534783330671	0.524	n/a	stim	s512
479.144	0.462	0.9289899764493276	draw_card	0.0	columbia_card_task_fmri	13.0	0.8571428571428572	89.0	-85.0	0.1428571428571428	10.0	4.0	1.0	1.448706219654909	0.462	n/a	stim	s512
479.612	0.87	-1.4043433568840062	draw_card	0.0	columbia_card_task_fmri	13.0	0.8333333333333334	89.0	-85.0	0.1666666666666666	10.0	5.0	1.0	3.674988819957619	0.87	n/a	stim	s512
480.489	0.615	-4.671010023550673	end_round	0.0	columbia_card_task_fmri	13.0	0.8	71.0	-85.0	0.2	10.0	6.0	1.0	6.34907241994528	0.615	5.0	stim	s512
481.113	2.25	n/a	-1.0	n/a	columbia_card_task_fmri	n/a	n/a	-1.0	n/a	n/a	n/a	n/a	n/a	n/a	n/a	n/a	feedback	s512
483.363	0.204	n/a	-1.0	n/a	columbia_card_task_fmri	n/a	n/a	-1.0	n/a	n/a	n/a	n/a	n/a	n/a	n/a	n/a	ITI	s512
483.572	1.304	0.1289899764493269	draw_card	0.0	columbia_card_task_fmri	14.0	0.8	89.0	-65.0	0.2	10.0	1.0	2.0	-1.2395387747093525	1.304	n/a	stim	s512
484.882	1.115	-1.6265655791062277	draw_card	1.0	columbia_card_task_fmri	14.0	0.7777777777777778	89.0	-65.0	0.2222222222222222	10.0	2.0	2.0	0.0016752248132334	1.115	2.0	stim	s512
486.005	2.25	n/a	-1.0	n/a	columbia_card_task_fmri	n/a	n/a	-1.0	n/a	n/a	n/a	n/a	n/a	n/a	n/a	n/a	feedback	s512
488.255	0.272	n/a	-1.0	n/a	columbia_card_task_fmri	n/a	n/a	-1.0	n/a	n/a	n/a	n/a	n/a	n/a	n/a	n/a	ITI	s512
488.536	0.736	1.528989976449327	draw_card	1.0	columbia_card_task_fmri	17.0	0.8	89.0	-70.0	0.2	10.0	1.0	2.0	1.9550610263832056	0.736	1.0	stim	s512
489.281	2.25	n/a	-1.0	n/a	columbia_card_task_fmri	n/a	n/a	-1.0	n/a	n/a	n/a	n/a	n/a	n/a	n/a	n/a	feedback	s512
491.531	0.068	n/a	-1.0	n/a	columbia_card_task_fmri	n/a	n/a	-1.0	n/a	n/a	n/a	n/a	n/a	n/a	n/a	n/a	ITI	s512
491.607	0.554	0.2623233097826598	draw_card	1.0	columbia_card_task_fmri	13.0	0.8333333333333334	89.0	-75.0	0.1666666666666666	12.0	1.0	2.0	-0.0460158616206243	0.554	1.0	stim	s512
492.169	2.25	n/a	-1.0	n/a	columbia_card_task_fmri	n/a	n/a	-1.0	n/a	n/a	n/a	n/a	n/a	n/a	n/a	n/a	feedback	s512
494.419	0.272	n/a	-1.0	n/a	columbia_card_task_fmri	n/a	n/a	-1.0	n/a	n/a	n/a	n/a	n/a	n/a	n/a	n/a	ITI	s512
494.699	0.491	1.928989976449328	draw_card	0.0	columbia_card_task_fmri	14.0	0.8333333333333334	89.0	-70.0	0.1666666666666666	12.0	1.0	2.0	-1.5340337398062935	0.491	n/a	stim	s512
495.198	0.727	0.6562627037220508	draw_card	0.0	columbia_card_task_fmri	14.0	0.8181818181818181	89.0	-70.0	0.1818181818181818	12.0	2.0	2.0	-0.4426385797940568	0.727	n/a	stim	s512
495.933	1.016	-0.871010023550673	draw_card	1.0	columbia_card_task_fmri	14.0	0.8	89.0	-70.0	0.2	12.0	3.0	2.0	0.7569658607342191	1.016	3.0	stim	s512
496.957	2.25	n/a	-1.0	n/a	columbia_card_task_fmri	n/a	n/a	-1.0	n/a	n/a	n/a	n/a	n/a	n/a	n/a	n/a	feedback	s512
499.207	0.748	n/a	-1.0	n/a	columbia_card_task_fmri	n/a	n/a	-1.0	n/a	n/a	n/a	n/a	n/a	n/a	n/a	n/a	ITI	s512
499.962	0.688	1.928989976449328	draw_card	0.0	columbia_card_task_fmri	16.0	0.8333333333333334	89.0	-80.0	0.1666666666666666	12.0	1.0	2.0	2.9306918431654907	0.688	n/a	stim	s512
500.658	0.918	0.4744445219038691	draw_card	0.0	columbia_card_task_fmri	16.0	0.8181818181818181	89.0	-80.0	0.1818181818181818	12.0	2.0	2.0	4.178535244580303	0.918	n/a	stim	s512
501.583	1.005	-1.2710100235506734	draw_card	0.0	columbia_card_task_fmri	16.0	0.8	89.0	-80.0	0.2	12.0	3.0	2.0	5.550059377027544	1.005	n/a	stim	s512
502.595	1.042	-3.404343356884008	end_round	0.0	columbia_card_task_fmri	16.0	0.7777777777777778	71.0	-80.0	0.2222222222222222	12.0	4.0	2.0	7.059240522658719	1.042	3.0	stim	s512
503.646	2.25	n/a	-1.0	n/a	columbia_card_task_fmri	n/a	n/a	-1.0	n/a	n/a	n/a	n/a	n/a	n/a	n/a	n/a	feedback	s512
505.896	0.068	n/a	-1.0	n/a	columbia_card_task_fmri	n/a	n/a	-1.0	n/a	n/a	n/a	n/a	n/a	n/a	n/a	n/a	ITI	s512
505.972	0.935	1.7289899764493266	draw_card	0.0	columbia_card_task_fmri	16.0	0.8	89.0	-65.0	0.2	15.0	1.0	3.0	-0.4409885669665314	0.935	n/a	stim	s512
506.915	0.538	0.57184711930647	draw_card	1.0	columbia_card_task_fmri	16.0	0.7857142857142857	89.0	-65.0	0.2142857142857142	15.0	2.0	3.0	0.3939682833611684	0.538	2.0	stim	s512
507.462	2.25	n/a	-1.0	n/a	columbia_card_task_fmri	n/a	n/a	-1.0	n/a	n/a	n/a	n/a	n/a	n/a	n/a	n/a	feedback	s512
509.712	0.0	n/a	-1.0	n/a	columbia_card_task_fmri	n/a	n/a	-1.0	n/a	n/a	n/a	n/a	n/a	n/a	n/a	n/a	ITI	s512
509.72	0.501	0.0539899764493259	draw_card	0.0	columbia_card_task_fmri	15.0	0.8125	89.0	-75.0	0.1875	16.0	1.0	3.0	2.282676537011284	0.501	n/a	stim	s512
510.229	1.075	-1.071010023550674	draw_card	0.0	columbia_card_task_fmri	15.0	0.8	89.0	-75.0	0.2	16.0	2.0	3.0	3.1532828986571038	1.075	n/a	stim	s512
511.31	0.856	-2.356724309264959	draw_card	0.0	columbia_card_task_fmri	15.0	0.7857142857142857	89.0	-75.0	0.2142857142857142	16.0	3.0	3.0	4.081316373595492	0.856	n/a	stim	s512
512.173	2.691	-3.840240792781448	draw_card	0.0	columbia_card_task_fmri	15.0	0.7692307692307692	89.0	-75.0	0.2307692307692307	16.0	4.0	3.0	5.069926446692605	2.691	n/a	stim	s512
514.87	0.996	-5.571010023550674	end_round	0.0	columbia_card_task_fmri	15.0	0.75	71.0	-75.0	0.25	16.0	5.0	3.0	6.120493799847381	0.996	4.0	stim	s512
515.875	2.25	n/a	-1.0	n/a	columbia_card_task_fmri	n/a	n/a	-1.0	n/a	n/a	n/a	n/a	n/a	n/a	n/a	n/a	feedback	s512
518.125	0.204	n/a	-1.0	n/a	columbia_card_task_fmri	n/a	n/a	-1.0	n/a	n/a	n/a	n/a	n/a	n/a	n/a	n/a	ITI	s512
518.337	1.419	0.6164899764493259	draw_card	0.0	columbia_card_task_fmri	14.0	0.6875	89.0	-35.0	0.3125	16.0	1.0	5.0	-10.10448326538684	1.419	n/a	stim	s512
519.763	0.485	-0.4043433568840062	draw_card	0.0	columbia_card_task_fmri	14.0	0.6666666666666667	89.0	-35.0	0.3333333333333333	16.0	2.0	5.0	-9.719133785568232	0.485	n/a	stim	s512
520.255	0.862	-1.571010023550674	draw_card	1.0	columbia_card_task_fmri	14.0	0.6428571428571428	89.0	-35.0	0.3571428571428571	16.0	3.0	5.0	-9.340538117353717	0.862	3.0	stim	s512
521.126	2.25	n/a	-1.0	n/a	columbia_card_task_fmri	n/a	n/a	-1.0	n/a	n/a	n/a	n/a	n/a	n/a	n/a	n/a	feedback	s512
523.376	0.068	n/a	-1.0	n/a	columbia_card_task_fmri	n/a	n/a	-1.0	n/a	n/a	n/a	n/a	n/a	n/a	n/a	n/a	ITI	s512
523.453	0.53	5.7956566431159935	draw_card	0.0	columbia_card_task_fmri	16.0	0.8666666666666667	89.0	-75.0	0.1333333333333333	15.0	1.0	2.0	-1.904223170749301	0.53	n/a	stim	s512
523.991	0.593	4.928989976449328	draw_card	1.0	columbia_card_task_fmri	16.0	0.8571428571428572	89.0	-75.0	0.1428571428571428	15.0	2.0	2.0	-0.9966208458305026	0.593	2.0	stim	s512
524.592	2.25	n/a	-1.0	n/a	columbia_card_task_fmri	n/a	n/a	-1.0	n/a	n/a	n/a	n/a	n/a	n/a	n/a	n/a	feedback	s512
526.842	0.068	n/a	-1.0	n/a	columbia_card_task_fmri	n/a	n/a	-1.0	n/a	n/a	n/a	n/a	n/a	n/a	n/a	n/a	ITI	s512
526.918	0.249	6.46232330978266	draw_card	0.0	columbia_card_task_fmri	16.0	0.8666666666666667	89.0	-70.0	0.1333333333333333	15.0	1.0	2.0	-3.600410356418088	0.249	n/a	stim	s512
527.174	0.42	5.643275690735042	draw_card	0.0	columbia_card_task_fmri	16.0	0.8571428571428572	89.0	-70.0	0.1428571428571428	15.0	2.0	2.0	-2.742869349359463	0.42	n/a	stim	s512
527.601	1.915	4.698220745680095	draw_card	0.0	columbia_card_task_fmri	16.0	0.8461538461538461	89.0	-70.0	0.1538461538461538	15.0	3.0	2.0	-1.8095539515108143	1.915	n/a	stim	s512
529.523	0.714	3.5956566431159938	draw_card	0.0	columbia_card_task_fmri	16.0	0.8333333333333334	89.0	-70.0	0.1666666666666666	15.0	4.0	2.0	-0.7900560426795806	0.714	n/a	stim	s512
530.244	0.887	2.2926263400856874	draw_card	0.0	columbia_card_task_fmri	16.0	0.8181818181818181	89.0	-70.0	0.1818181818181818	15.0	5.0	2.0	0.3274186109904633	0.887	n/a	stim	s512
531.137	0.736	0.7289899764493266	end_round	0.0	columbia_card_task_fmri	16.0	0.8	71.0	-70.0	0.2	15.0	6.0	2.0	1.5556812398745308	0.736	5.0	stim	s512
531.881	2.25	n/a	-1.0	n/a	columbia_card_task_fmri	n/a	n/a	-1.0	n/a	n/a	n/a	n/a	n/a	n/a	n/a	n/a	feedback	s512
534.131	0.34	n/a	-1.0	n/a	columbia_card_task_fmri	n/a	n/a	-1.0	n/a	n/a	n/a	n/a	n/a	n/a	n/a	n/a	ITI	s512
534.478	0.918	3.803989976449326	draw_card	0.0	columbia_card_task_fmri	8.0	0.9375	89.0	-90.0	0.0625	16.0	1.0	1.0	-9.098037595864676	0.918	n/a	stim	s512
535.404	0.657	3.3956566431159927	draw_card	0.0	columbia_card_task_fmri	8.0	0.9333333333333332	89.0	-90.0	0.0666666666666666	16.0	2.0	1.0	-8.376875688684297	0.657	n/a	stim	s512
536.069	0.418	2.928989976449327	draw_card	0.0	columbia_card_task_fmri	8.0	0.9285714285714286	89.0	-90.0	0.0714285714285714	16.0	3.0	1.0	-7.58589331686828	0.418	n/a	stim	s512
536.494	1.545	2.390528437987788	draw_card	0.0	columbia_card_task_fmri	8.0	0.9230769230769232	89.0	-90.0	0.0769230769230769	16.0	4.0	1.0	-6.713215416513148	1.545	n/a	stim	s512
538.046	1.479	1.762323309782659	draw_card	0.0	columbia_card_task_fmri	8.0	0.9166666666666666	89.0	-90.0	0.0833333333333333	16.0	5.0	1.0	-5.743989153102678	1.479	n/a	stim	s512
539.53	0.509	1.0198990673584167	draw_card	0.0	columbia_card_task_fmri	8.0	0.9090909090909092	89.0	-90.0	0.0909090909090909	16.0	6.0	1.0	-4.659380307678696	0.509	n/a	stim	s512
540.046	1.125	0.128989976449326	draw_card	0.0	columbia_card_task_fmri	8.0	0.9	89.0	-90.0	0.1	16.0	7.0	1.0	-3.435146254463266	1.125	n/a	stim	s512
541.178	0.651	-0.9598989124395634	end_round	0.0	columbia_card_task_fmri	8.0	0.8888888888888888	71.0	-90.0	0.1111111111111111	16.0	8.0	1.0	-2.039582119364404	0.651	7.0	stim	s512
541.837	2.25	n/a	-1.0	n/a	columbia_card_task_fmri	n/a	n/a	-1.0	n/a	n/a	n/a	n/a	n/a	n/a	n/a	n/a	feedback	s512
544.087	0.0	n/a	-1.0	n/a	columbia_card_task_fmri	n/a	n/a	-1.0	n/a	n/a	n/a	n/a	n/a	n/a	n/a	n/a	ITI	s512
544.095	0.553	5.366489976449326	draw_card	0.0	columbia_card_task_fmri	10.0	0.9375	89.0	-95.0	0.0625	16.0	1.0	1.0	-7.40881188502593	0.553	n/a	stim	s512
544.654	0.775	4.928989976449326	draw_card	0.0	columbia_card_task_fmri	10.0	0.9333333333333332	89.0	-95.0	0.0666666666666666	16.0	2.0	1.0	-6.635820740521961	0.775	n/a	stim	s512
545.436	0.386	4.428989976449326	draw_card	0.0	columbia_card_task_fmri	10.0	0.9285714285714286	89.0	-95.0	0.0714285714285714	16.0	3.0	1.0	-5.788012026230149	0.386	n/a	stim	s512
545.828	0.332	3.852066899526249	draw_card	0.0	columbia_card_task_fmri	10.0	0.9230769230769232	89.0	-95.0	0.0769230769230769	16.0	4.0	1.0	-4.852661528838791	0.332	n/a	stim	s512
546.166	0.352	3.178989976449326	draw_card	0.0	columbia_card_task_fmri	10.0	0.9166666666666666	89.0	-95.0	0.0833333333333333	16.0	5.0	1.0	-3.813854422199871	0.352	n/a	stim	s512
546.525	0.424	2.383535430994779	draw_card	1.0	columbia_card_task_fmri	10.0	0.9090909090909092	89.0	-95.0	0.0909090909090909	16.0	6.0	1.0	-2.651409938965422	0.424	6.0	stim	s512
546.957	2.25	n/a	-1.0	n/a	columbia_card_task_fmri	n/a	n/a	-1.0	n/a	n/a	n/a	n/a	n/a	n/a	n/a	n/a	feedback	s512
549.207	0.0	n/a	-1.0	n/a	columbia_card_task_fmri	n/a	n/a	-1.0	n/a	n/a	n/a	n/a	n/a	n/a	n/a	n/a	ITI	s512
549.214	0.52	6.303989976449326	draw_card	1.0	columbia_card_task_fmri	15.0	0.875	89.0	-70.0	0.125	16.0	1.0	2.0	-4.721146850386106	0.52	1.0	stim	s512
549.743	2.25	n/a	-1.0	n/a	columbia_card_task_fmri	n/a	n/a	-1.0	n/a	n/a	n/a	n/a	n/a	n/a	n/a	n/a	feedback	s512
551.993	0.272	n/a	-1.0	n/a	columbia_card_task_fmri	n/a	n/a	-1.0	n/a	n/a	n/a	n/a	n/a	n/a	n/a	n/a	ITI	s512
552.272	0.845	5.303989976449326	draw_card	0.0	columbia_card_task_fmri	16.0	0.875	89.0	-85.0	0.125	16.0	1.0	2.0	0.5599025676697238	0.845	n/a	stim	s512
553.125	0.375	4.46232330978266	draw_card	0.0	columbia_card_task_fmri	16.0	0.8666666666666667	89.0	-85.0	0.1333333333333333	16.0	2.0	2.0	1.4891839667798763	0.375	n/a	stim	s512
553.508	0.364	3.500418547877899	draw_card	0.0	columbia_card_task_fmri	16.0	0.8571428571428572	89.0	-85.0	0.1428571428571428	16.0	3.0	2.0	2.4968797556190125	0.364	n/a	stim	s512
553.88	0.555	2.390528437987786	draw_card	0.0	columbia_card_task_fmri	16.0	0.8461538461538461	89.0	-85.0	0.1538461538461538	16.0	4.0	2.0	3.5935813504554943	0.555	n/a	stim	s512
554.442	0.843	1.0956566431159938	draw_card	0.0	columbia_card_task_fmri	16.0	0.8333333333333334	89.0	-85.0	0.1666666666666666	16.0	5.0	2.0	4.791512766150454	0.843	n/a	stim	s512
555.292	0.627	-0.4346463871870392	draw_card	0.0	columbia_card_task_fmri	16.0	0.8181818181818181	89.0	-85.0	0.1818181818181818	16.0	6.0	2.0	6.104525586914285	0.627	n/a	stim	s512
555.926	0.968	-2.2710100235506734	draw_card	0.0	columbia_card_task_fmri	16.0	0.8	89.0	-85.0	0.2	16.0	7.0	2.0	7.5476651447241	0.968	n/a	stim	s512
556.901	0.573	-4.515454467995118	end_round	0.0	columbia_card_task_fmri	16.0	0.7777777777777778	71.0	-85.0	0.2222222222222222	16.0	8.0	2.0	9.135635175602424	0.573	7.0	stim	s512
557.482	2.25	n/a	-1.0	n/a	columbia_card_task_fmri	n/a	n/a	-1.0	n/a	n/a	n/a	n/a	n/a	n/a	n/a	n/a	feedback	s512
559.732	0.204	n/a	-1.0	n/a	columbia_card_task_fmri	n/a	n/a	-1.0	n/a	n/a	n/a	n/a	n/a	n/a	n/a	n/a	ITI	s512
