onset	duration	planning	condition	current_position	exp_stage	experiment_exp_id	goal_state	key_press	problem_id	response_time	start_state	trial_id	worker_id
-53.064	0.0	0	n/a	n/a	n/a	ward_and_allport	n/a	32.0	n/a	17.267	n/a	instructions	s647
3.009	3.4	1	UA_with_intermediate	1,0,0,2,0,0,0,0,0	practice	ward_and_allport	1,2,3,0,0,0,0,0,0	71.0	0.0	3.4	1,0,0,2,3,0,0,0,0	to_hand	s647
6.412	5.751	0	UA_with_intermediate	1,0,0,2,0,0,3,0,0	practice	ward_and_allport	1,2,3,0,0,0,0,0,0	82.0	0.0	5.751	1,0,0,2,3,0,0,0,0	to_board	s647
12.165	0.43	0	UA_with_intermediate	1,0,0,0,0,0,3,0,0	practice	ward_and_allport	1,2,3,0,0,0,0,0,0	71.0	0.0	0.43	1,0,0,2,3,0,0,0,0	to_hand	s647
12.596	0.949	0	UA_with_intermediate	1,2,0,0,0,0,3,0,0	practice	ward_and_allport	1,2,3,0,0,0,0,0,0	89.0	0.0	0.949	1,0,0,2,3,0,0,0,0	to_board	s647
13.547	1.367	0	UA_with_intermediate	1,2,0,0,0,0,0,0,0	practice	ward_and_allport	1,2,3,0,0,0,0,0,0	82.0	0.0	1.367	1,0,0,2,3,0,0,0,0	to_hand	s647
14.915	0.417	0	UA_with_intermediate	1,2,3,0,0,0,0,0,0	practice	ward_and_allport	1,2,3,0,0,0,0,0,0	89.0	0.0	0.417	1,0,0,2,3,0,0,0,0	to_board	s647
15.339	1.0	0	UA_with_intermediate	n/a	practice	ward_and_allport	n/a	-1.0	0.0	n/a	n/a	feedback	s647
17.842	2.921	1	UA_with_intermediate	1,2,0,0,0,0,0,0,0	practice	ward_and_allport	1,3,2,0,0,0,0,0,0	71.0	1.0	2.921	1,2,0,3,0,0,0,0,0	to_hand	s647
20.763	1.046	0	UA_with_intermediate	1,2,0,3,0,0,0,0,0	practice	ward_and_allport	1,3,2,0,0,0,0,0,0	71.0	1.0	1.046	1,2,0,3,0,0,0,0,0	to_board	s647
21.811	0.442	0	UA_with_intermediate	1,0,0,3,0,0,0,0,0	practice	ward_and_allport	1,3,2,0,0,0,0,0,0	89.0	1.0	0.442	1,2,0,3,0,0,0,0,0	to_hand	s647
22.255	1.803	0	UA_with_intermediate	1,0,0,3,0,0,2,0,0	practice	ward_and_allport	1,3,2,0,0,0,0,0,0	82.0	1.0	1.803	1,2,0,3,0,0,0,0,0	to_board	s647
24.061	0.407	0	UA_with_intermediate	1,0,0,0,0,0,2,0,0	practice	ward_and_allport	1,3,2,0,0,0,0,0,0	71.0	1.0	0.407	1,2,0,3,0,0,0,0,0	to_hand	s647
24.469	0.599	0	UA_with_intermediate	1,3,0,0,0,0,2,0,0	practice	ward_and_allport	1,3,2,0,0,0,0,0,0	89.0	1.0	0.599	1,2,0,3,0,0,0,0,0	to_board	s647
25.07	0.872	0	UA_with_intermediate	1,3,0,0,0,0,0,0,0	practice	ward_and_allport	1,3,2,0,0,0,0,0,0	82.0	1.0	0.872	1,2,0,3,0,0,0,0,0	to_hand	s647
25.942	0.489	0	UA_with_intermediate	1,3,2,0,0,0,0,0,0	practice	ward_and_allport	1,3,2,0,0,0,0,0,0	89.0	1.0	0.489	1,2,0,3,0,0,0,0,0	to_board	s647
26.434	1.0	0	UA_with_intermediate	n/a	practice	ward_and_allport	n/a	-1.0	1.0	n/a	n/a	feedback	s647
27.434	1.1	0	UA_with_intermediate	n/a	practice	ward_and_allport	n/a	-1.0	1.0	n/a	n/a	ITI	s647
28.537	3.26	1	UA_without_intermediate	0,0,0,1,0,0,3,0,0	practice	ward_and_allport	3,2,1,0,0,0,0,0,0	71.0	2.0	3.26	0,0,0,1,2,0,3,0,0	to_hand	s647
31.798	1.027	0	UA_without_intermediate	2,0,0,1,0,0,3,0,0	practice	ward_and_allport	3,2,1,0,0,0,0,0,0	89.0	2.0	1.027	0,0,0,1,2,0,3,0,0	to_board	s647
32.826	0.996	0	UA_without_intermediate	2,0,0,0,0,0,3,0,0	practice	ward_and_allport	3,2,1,0,0,0,0,0,0	71.0	2.0	0.996	0,0,0,1,2,0,3,0,0	to_hand	s647
33.823	0.876	0	UA_without_intermediate	2,0,0,0,0,0,3,1,0	practice	ward_and_allport	3,2,1,0,0,0,0,0,0	82.0	2.0	0.876	0,0,0,1,2,0,3,0,0	to_board	s647
34.702	0.546	0	UA_without_intermediate	0,0,0,0,0,0,3,1,0	practice	ward_and_allport	3,2,1,0,0,0,0,0,0	89.0	2.0	0.546	0,0,0,1,2,0,3,0,0	to_hand	s647
35.249	0.575	0	UA_without_intermediate	0,0,0,0,0,0,3,1,2	practice	ward_and_allport	3,2,1,0,0,0,0,0,0	82.0	2.0	0.575	0,0,0,1,2,0,3,0,0	to_board	s647
35.826	4.028	0	UA_without_intermediate	0,0,0,0,0,0,3,1,0	practice	ward_and_allport	3,2,1,0,0,0,0,0,0	82.0	2.0	4.028	0,0,0,1,2,0,3,0,0	to_hand	s647
39.855	1.638	0	UA_without_intermediate	0,0,0,2,0,0,3,1,0	practice	ward_and_allport	3,2,1,0,0,0,0,0,0	71.0	2.0	1.638	0,0,0,1,2,0,3,0,0	to_board	s647
41.496	2.385	0	UA_without_intermediate	0,0,0,2,0,0,3,0,0	practice	ward_and_allport	3,2,1,0,0,0,0,0,0	82.0	2.0	2.385	0,0,0,1,2,0,3,0,0	to_hand	s647
43.882	1.93	0	UA_without_intermediate	0,0,0,2,1,0,3,0,0	practice	ward_and_allport	3,2,1,0,0,0,0,0,0	71.0	2.0	1.93	0,0,0,1,2,0,3,0,0	to_board	s647
45.814	0.657	0	UA_without_intermediate	0,0,0,2,1,0,0,0,0	practice	ward_and_allport	3,2,1,0,0,0,0,0,0	82.0	2.0	0.657	0,0,0,1,2,0,3,0,0	to_hand	s647
46.472	0.715	0	UA_without_intermediate	0,0,0,2,1,3,0,0,0	practice	ward_and_allport	3,2,1,0,0,0,0,0,0	71.0	2.0	0.715	0,0,0,1,2,0,3,0,0	to_board	s647
47.189	1.147	0	UA_without_intermediate	0,0,0,2,1,0,0,0,0	practice	ward_and_allport	3,2,1,0,0,0,0,0,0	71.0	2.0	1.147	0,0,0,1,2,0,3,0,0	to_hand	s647
48.337	0.371	0	UA_without_intermediate	3,0,0,2,1,0,0,0,0	practice	ward_and_allport	3,2,1,0,0,0,0,0,0	89.0	2.0	0.371	0,0,0,1,2,0,3,0,0	to_board	s647
48.711	1.019	0	UA_without_intermediate	3,0,0,2,0,0,0,0,0	practice	ward_and_allport	3,2,1,0,0,0,0,0,0	71.0	2.0	1.019	0,0,0,1,2,0,3,0,0	to_hand	s647
49.732	1.746	0	UA_without_intermediate	3,0,0,2,0,0,1,0,0	practice	ward_and_allport	3,2,1,0,0,0,0,0,0	82.0	2.0	1.746	0,0,0,1,2,0,3,0,0	to_board	s647
51.48	0.786	0	UA_without_intermediate	3,0,0,0,0,0,1,0,0	practice	ward_and_allport	3,2,1,0,0,0,0,0,0	71.0	2.0	0.786	0,0,0,1,2,0,3,0,0	to_hand	s647
52.268	1.032	0	UA_without_intermediate	3,2,0,0,0,0,1,0,0	practice	ward_and_allport	3,2,1,0,0,0,0,0,0	89.0	2.0	1.032	0,0,0,1,2,0,3,0,0	to_board	s647
53.301	0.545	0	UA_without_intermediate	3,2,0,0,0,0,0,0,0	practice	ward_and_allport	3,2,1,0,0,0,0,0,0	82.0	2.0	0.545	0,0,0,1,2,0,3,0,0	to_hand	s647
53.848	0.809	0	UA_without_intermediate	3,2,1,0,0,0,0,0,0	practice	ward_and_allport	3,2,1,0,0,0,0,0,0	89.0	2.0	0.809	0,0,0,1,2,0,3,0,0	to_board	s647
54.661	1.0	0	UA_without_intermediate	n/a	practice	ward_and_allport	n/a	-1.0	2.0	n/a	n/a	feedback	s647
55.661	1.2	0	UA_without_intermediate	n/a	practice	ward_and_allport	n/a	-1.0	2.0	n/a	n/a	ITI	s647
56.864	2.52	1	UA_without_intermediate	0,0,0,1,0,0,3,0,0	practice	ward_and_allport	2,3,1,0,0,0,0,0,0	71.0	3.0	2.52	0,0,0,1,2,0,3,0,0	to_hand	s647
59.386	0.801	0	UA_without_intermediate	2,0,0,1,0,0,3,0,0	practice	ward_and_allport	2,3,1,0,0,0,0,0,0	89.0	3.0	0.801	0,0,0,1,2,0,3,0,0	to_board	s647
60.189	1.78	0	UA_without_intermediate	2,0,0,1,0,0,0,0,0	practice	ward_and_allport	2,3,1,0,0,0,0,0,0	82.0	3.0	1.78	0,0,0,1,2,0,3,0,0	to_hand	s647
61.971	0.623	0	UA_without_intermediate	2,3,0,1,0,0,0,0,0	practice	ward_and_allport	2,3,1,0,0,0,0,0,0	89.0	3.0	0.623	0,0,0,1,2,0,3,0,0	to_board	s647
62.596	1.216	0	UA_without_intermediate	2,3,0,0,0,0,0,0,0	practice	ward_and_allport	2,3,1,0,0,0,0,0,0	71.0	3.0	1.216	0,0,0,1,2,0,3,0,0	to_hand	s647
63.813	0.529	0	UA_without_intermediate	2,3,1,0,0,0,0,0,0	practice	ward_and_allport	2,3,1,0,0,0,0,0,0	89.0	3.0	0.529	0,0,0,1,2,0,3,0,0	to_board	s647
64.346	1.0	0	UA_without_intermediate	n/a	practice	ward_and_allport	n/a	-1.0	3.0	n/a	n/a	feedback	s647
65.346	1.0	0	UA_without_intermediate	n/a	practice	ward_and_allport	n/a	-1.0	3.0	n/a	n/a	ITI	s647
68.354	2.593	1	PA_with_intermediate	0,0,0,1,2,0,0,0,0	test	ward_and_allport	0,0,0,1,3,0,2,0,0	71.0	0.0	2.593	0,0,0,1,2,3,0,0,0	to_hand	s647
70.948	2.02	0	PA_with_intermediate	3,0,0,1,2,0,0,0,0	test	ward_and_allport	0,0,0,1,3,0,2,0,0	89.0	0.0	2.02	0,0,0,1,2,3,0,0,0	to_board	s647
72.97	0.892	0	PA_with_intermediate	3,0,0,1,0,0,0,0,0	test	ward_and_allport	0,0,0,1,3,0,2,0,0	71.0	0.0	0.892	0,0,0,1,2,3,0,0,0	to_hand	s647
73.864	0.665	0	PA_with_intermediate	3,0,0,1,0,0,2,0,0	test	ward_and_allport	0,0,0,1,3,0,2,0,0	82.0	0.0	0.665	0,0,0,1,2,3,0,0,0	to_board	s647
74.531	0.986	0	PA_with_intermediate	0,0,0,1,0,0,2,0,0	test	ward_and_allport	0,0,0,1,3,0,2,0,0	89.0	0.0	0.986	0,0,0,1,2,3,0,0,0	to_hand	s647
75.519	0.536	0	PA_with_intermediate	0,0,0,1,3,0,2,0,0	test	ward_and_allport	0,0,0,1,3,0,2,0,0	71.0	0.0	0.536	0,0,0,1,2,3,0,0,0	to_board	s647
76.059	1.0	0	PA_with_intermediate	n/a	test	ward_and_allport	n/a	-1.0	0.0	n/a	n/a	feedback	s647
77.059	2.768	0	PA_with_intermediate	n/a	test	ward_and_allport	n/a	-1.0	0.0	n/a	n/a	ITI	s647
79.831	2.313	1	PA_with_intermediate	1,2,0,0,0,0,0,0,0	test	ward_and_allport	1,3,0,0,0,0,2,0,0	89.0	1.0	2.313	1,2,3,0,0,0,0,0,0	to_hand	s647
82.145	1.751	0	PA_with_intermediate	1,2,0,3,0,0,0,0,0	test	ward_and_allport	1,3,0,0,0,0,2,0,0	71.0	1.0	1.751	1,2,3,0,0,0,0,0,0	to_board	s647
83.899	1.71	0	PA_with_intermediate	1,0,0,3,0,0,0,0,0	test	ward_and_allport	1,3,0,0,0,0,2,0,0	89.0	1.0	1.71	1,2,3,0,0,0,0,0,0	to_hand	s647
85.61	0.402	0	PA_with_intermediate	1,0,0,3,0,0,2,0,0	test	ward_and_allport	1,3,0,0,0,0,2,0,0	82.0	1.0	0.402	1,2,3,0,0,0,0,0,0	to_board	s647
86.016	1.412	0	PA_with_intermediate	1,0,0,0,0,0,2,0,0	test	ward_and_allport	1,3,0,0,0,0,2,0,0	71.0	1.0	1.412	1,2,3,0,0,0,0,0,0	to_hand	s647
87.429	0.375	0	PA_with_intermediate	1,3,0,0,0,0,2,0,0	test	ward_and_allport	1,3,0,0,0,0,2,0,0	89.0	1.0	0.375	1,2,3,0,0,0,0,0,0	to_board	s647
87.808	1.0	0	PA_with_intermediate	n/a	test	ward_and_allport	n/a	-1.0	1.0	n/a	n/a	feedback	s647
88.808	1.68	0	PA_with_intermediate	n/a	test	ward_and_allport	n/a	-1.0	1.0	n/a	n/a	ITI	s647
90.491	3.819	1	PA_without_intermediate	0,0,0,1,2,0,0,0,0	test	ward_and_allport	3,1,0,0,0,0,2,0,0	71.0	2.0	3.819	0,0,0,1,2,3,0,0,0	to_hand	s647
94.312	0.365	0	PA_without_intermediate	3,0,0,1,2,0,0,0,0	test	ward_and_allport	3,1,0,0,0,0,2,0,0	89.0	2.0	0.365	0,0,0,1,2,3,0,0,0	to_board	s647
94.68	1.17	0	PA_without_intermediate	3,0,0,1,0,0,0,0,0	test	ward_and_allport	3,1,0,0,0,0,2,0,0	71.0	2.0	1.17	0,0,0,1,2,3,0,0,0	to_hand	s647
95.852	0.41	0	PA_without_intermediate	3,0,0,1,0,0,2,0,0	test	ward_and_allport	3,1,0,0,0,0,2,0,0	82.0	2.0	0.41	0,0,0,1,2,3,0,0,0	to_board	s647
96.266	0.827	0	PA_without_intermediate	3,0,0,0,0,0,2,0,0	test	ward_and_allport	3,1,0,0,0,0,2,0,0	71.0	2.0	0.827	0,0,0,1,2,3,0,0,0	to_hand	s647
97.095	0.475	0	PA_without_intermediate	3,1,0,0,0,0,2,0,0	test	ward_and_allport	3,1,0,0,0,0,2,0,0	89.0	2.0	0.475	0,0,0,1,2,3,0,0,0	to_board	s647
97.575	1.0	0	PA_without_intermediate	n/a	test	ward_and_allport	n/a	-1.0	2.0	n/a	n/a	feedback	s647
98.575	2.224	0	PA_without_intermediate	n/a	test	ward_and_allport	n/a	-1.0	2.0	n/a	n/a	ITI	s647
100.804	1.996	1	PA_without_intermediate	0,0,0,1,2,0,0,0,0	test	ward_and_allport	2,0,0,0,0,0,3,1,0	71.0	3.0	1.996	0,0,0,1,2,3,0,0,0	to_hand	s647
102.801	2.123	0	PA_without_intermediate	0,0,0,1,2,0,3,0,0	test	ward_and_allport	2,0,0,0,0,0,3,1,0	82.0	3.0	2.123	0,0,0,1,2,3,0,0,0	to_board	s647
104.928	0.627	0	PA_without_intermediate	0,0,0,1,0,0,3,0,0	test	ward_and_allport	2,0,0,0,0,0,3,1,0	71.0	3.0	0.627	0,0,0,1,2,3,0,0,0	to_hand	s647
105.557	0.476	0	PA_without_intermediate	2,0,0,1,0,0,3,0,0	test	ward_and_allport	2,0,0,0,0,0,3,1,0	89.0	3.0	0.476	0,0,0,1,2,3,0,0,0	to_board	s647
106.037	0.597	0	PA_without_intermediate	2,0,0,0,0,0,3,0,0	test	ward_and_allport	2,0,0,0,0,0,3,1,0	71.0	3.0	0.597	0,0,0,1,2,3,0,0,0	to_hand	s647
106.636	0.542	0	PA_without_intermediate	2,0,0,0,0,0,3,1,0	test	ward_and_allport	2,0,0,0,0,0,3,1,0	82.0	3.0	0.542	0,0,0,1,2,3,0,0,0	to_board	s647
107.183	1.0	0	PA_without_intermediate	n/a	test	ward_and_allport	n/a	-1.0	3.0	n/a	n/a	feedback	s647
108.183	2.36	0	PA_without_intermediate	n/a	test	ward_and_allport	n/a	-1.0	3.0	n/a	n/a	ITI	s647
110.546	1.067	1	PA_without_intermediate	1,2,0,0,0,0,0,0,0	test	ward_and_allport	0,0,0,3,1,0,2,0,0	89.0	4.0	1.067	1,2,3,0,0,0,0,0,0	to_hand	s647
111.614	0.965	0	PA_without_intermediate	1,2,0,3,0,0,0,0,0	test	ward_and_allport	0,0,0,3,1,0,2,0,0	71.0	4.0	0.965	1,2,3,0,0,0,0,0,0	to_board	s647
112.583	0.746	0	PA_without_intermediate	1,0,0,3,0,0,0,0,0	test	ward_and_allport	0,0,0,3,1,0,2,0,0	89.0	4.0	0.746	1,2,3,0,0,0,0,0,0	to_hand	s647
113.33	0.65	0	PA_without_intermediate	1,0,0,3,0,0,2,0,0	test	ward_and_allport	0,0,0,3,1,0,2,0,0	82.0	4.0	0.65	1,2,3,0,0,0,0,0,0	to_board	s647
113.982	0.522	0	PA_without_intermediate	0,0,0,3,0,0,2,0,0	test	ward_and_allport	0,0,0,3,1,0,2,0,0	89.0	4.0	0.522	1,2,3,0,0,0,0,0,0	to_hand	s647
114.505	0.455	0	PA_without_intermediate	0,0,0,3,1,0,2,0,0	test	ward_and_allport	0,0,0,3,1,0,2,0,0	71.0	4.0	0.455	1,2,3,0,0,0,0,0,0	to_board	s647
114.966	1.0	0	PA_without_intermediate	n/a	test	ward_and_allport	n/a	-1.0	4.0	n/a	n/a	feedback	s647
115.966	1.0	0	PA_without_intermediate	n/a	test	ward_and_allport	n/a	-1.0	4.0	n/a	n/a	ITI	s647
116.969	1.248	1	PA_without_intermediate	1,2,0,0,0,0,0,0,0	test	ward_and_allport	0,0,0,2,0,0,3,1,0	89.0	5.0	1.248	1,2,3,0,0,0,0,0,0	to_hand	s647
118.218	0.938	0	PA_without_intermediate	1,2,0,0,0,0,3,0,0	test	ward_and_allport	0,0,0,2,0,0,3,1,0	82.0	5.0	0.938	1,2,3,0,0,0,0,0,0	to_board	s647
119.16	1.197	0	PA_without_intermediate	1,0,0,0,0,0,3,0,0	test	ward_and_allport	0,0,0,2,0,0,3,1,0	89.0	5.0	1.197	1,2,3,0,0,0,0,0,0	to_hand	s647
120.357	0.72	0	PA_without_intermediate	1,0,0,2,0,0,3,0,0	test	ward_and_allport	0,0,0,2,0,0,3,1,0	71.0	5.0	0.72	1,2,3,0,0,0,0,0,0	to_board	s647
121.081	0.621	0	PA_without_intermediate	0,0,0,2,0,0,3,0,0	test	ward_and_allport	0,0,0,2,0,0,3,1,0	89.0	5.0	0.621	1,2,3,0,0,0,0,0,0	to_hand	s647
121.703	0.384	0	PA_without_intermediate	0,0,0,2,0,0,3,1,0	test	ward_and_allport	0,0,0,2,0,0,3,1,0	82.0	5.0	0.384	1,2,3,0,0,0,0,0,0	to_board	s647
122.092	1.0	0	PA_without_intermediate	n/a	test	ward_and_allport	n/a	-1.0	5.0	n/a	n/a	feedback	s647
123.092	1.408	0	PA_without_intermediate	n/a	test	ward_and_allport	n/a	-1.0	5.0	n/a	n/a	ITI	s647
124.505	1.109	1	PA_with_intermediate	0,0,0,0,0,0,1,2,0	test	ward_and_allport	0,0,0,2,3,0,1,0,0	82.0	6.0	1.109	0,0,0,0,0,0,1,2,3	to_hand	s647
125.615	0.953	0	PA_with_intermediate	3,0,0,0,0,0,1,2,0	test	ward_and_allport	0,0,0,2,3,0,1,0,0	89.0	6.0	0.953	0,0,0,0,0,0,1,2,3	to_board	s647
126.572	1.402	0	PA_with_intermediate	3,0,0,0,0,0,1,0,0	test	ward_and_allport	0,0,0,2,3,0,1,0,0	82.0	6.0	1.402	0,0,0,0,0,0,1,2,3	to_hand	s647
127.975	0.685	0	PA_with_intermediate	3,0,0,2,0,0,1,0,0	test	ward_and_allport	0,0,0,2,3,0,1,0,0	71.0	6.0	0.685	0,0,0,0,0,0,1,2,3	to_board	s647
128.664	0.573	0	PA_with_intermediate	3,0,0,2,0,0,0,0,0	test	ward_and_allport	0,0,0,2,3,0,1,0,0	82.0	6.0	0.573	0,0,0,0,0,0,1,2,3	to_hand	s647
129.237	1.303	0	PA_with_intermediate	3,0,0,2,0,0,1,0,0	test	ward_and_allport	0,0,0,2,3,0,1,0,0	82.0	6.0	1.303	0,0,0,0,0,0,1,2,3	to_board	s647
130.544	0.769	0	PA_with_intermediate	0,0,0,2,0,0,1,0,0	test	ward_and_allport	0,0,0,2,3,0,1,0,0	89.0	6.0	0.769	0,0,0,0,0,0,1,2,3	to_hand	s647
131.314	0.694	0	PA_with_intermediate	0,0,0,2,3,0,1,0,0	test	ward_and_allport	0,0,0,2,3,0,1,0,0	71.0	6.0	0.694	0,0,0,0,0,0,1,2,3	to_board	s647
132.013	1.0	0	PA_with_intermediate	n/a	test	ward_and_allport	n/a	-1.0	6.0	n/a	n/a	feedback	s647
133.013	1.136	0	PA_with_intermediate	n/a	test	ward_and_allport	n/a	-1.0	6.0	n/a	n/a	ITI	s647
134.154	1.616	1	PA_without_intermediate	1,2,0,0,0,0,0,0,0	test	ward_and_allport	0,0,0,3,2,0,1,0,0	89.0	7.0	1.616	1,2,3,0,0,0,0,0,0	to_hand	s647
135.771	0.492	0	PA_without_intermediate	1,2,0,3,0,0,0,0,0	test	ward_and_allport	0,0,0,3,2,0,1,0,0	71.0	7.0	0.492	1,2,3,0,0,0,0,0,0	to_board	s647
136.266	0.576	0	PA_without_intermediate	1,0,0,3,0,0,0,0,0	test	ward_and_allport	0,0,0,3,2,0,1,0,0	89.0	7.0	0.576	1,2,3,0,0,0,0,0,0	to_hand	s647
136.843	0.449	0	PA_without_intermediate	1,0,0,3,2,0,0,0,0	test	ward_and_allport	0,0,0,3,2,0,1,0,0	71.0	7.0	0.449	1,2,3,0,0,0,0,0,0	to_board	s647
137.296	0.808	0	PA_without_intermediate	0,0,0,3,2,0,0,0,0	test	ward_and_allport	0,0,0,3,2,0,1,0,0	89.0	7.0	0.808	1,2,3,0,0,0,0,0,0	to_hand	s647
138.106	0.495	0	PA_without_intermediate	0,0,0,3,2,0,1,0,0	test	ward_and_allport	0,0,0,3,2,0,1,0,0	82.0	7.0	0.495	1,2,3,0,0,0,0,0,0	to_board	s647
138.607	1.0	0	PA_without_intermediate	n/a	test	ward_and_allport	n/a	-1.0	7.0	n/a	n/a	feedback	s647
139.607	4.128	0	PA_without_intermediate	n/a	test	ward_and_allport	n/a	-1.0	7.0	n/a	n/a	ITI	s647
143.74	1.724	1	PA_without_intermediate	0,0,0,1,2,0,0,0,0	test	ward_and_allport	2,0,0,0,0,0,3,1,0	71.0	8.0	1.724	0,0,0,1,2,3,0,0,0	to_hand	s647
145.465	0.551	0	PA_without_intermediate	0,0,0,1,2,0,3,0,0	test	ward_and_allport	2,0,0,0,0,0,3,1,0	82.0	8.0	0.551	0,0,0,1,2,3,0,0,0	to_board	s647
146.02	0.949	0	PA_without_intermediate	0,0,0,1,0,0,3,0,0	test	ward_and_allport	2,0,0,0,0,0,3,1,0	71.0	8.0	0.949	0,0,0,1,2,3,0,0,0	to_hand	s647
146.97	0.362	0	PA_without_intermediate	2,0,0,1,0,0,3,0,0	test	ward_and_allport	2,0,0,0,0,0,3,1,0	89.0	8.0	0.362	0,0,0,1,2,3,0,0,0	to_board	s647
147.336	0.742	0	PA_without_intermediate	2,0,0,0,0,0,3,0,0	test	ward_and_allport	2,0,0,0,0,0,3,1,0	71.0	8.0	0.742	0,0,0,1,2,3,0,0,0	to_hand	s647
148.08	0.354	0	PA_without_intermediate	2,0,0,0,0,0,3,1,0	test	ward_and_allport	2,0,0,0,0,0,3,1,0	82.0	8.0	0.354	0,0,0,1,2,3,0,0,0	to_board	s647
148.44	1.0	0	PA_without_intermediate	n/a	test	ward_and_allport	n/a	-1.0	8.0	n/a	n/a	feedback	s647
149.44	1.136	0	PA_without_intermediate	n/a	test	ward_and_allport	n/a	-1.0	8.0	n/a	n/a	ITI	s647
150.58	1.499	1	PA_without_intermediate	1,2,0,0,0,0,0,0,0	test	ward_and_allport	0,0,0,1,0,0,3,2,0	89.0	9.0	1.499	1,2,3,0,0,0,0,0,0	to_hand	s647
152.081	0.856	0	PA_without_intermediate	1,2,0,0,0,0,3,0,0	test	ward_and_allport	0,0,0,1,0,0,3,2,0	82.0	9.0	0.856	1,2,3,0,0,0,0,0,0	to_board	s647
152.941	0.931	0	PA_without_intermediate	1,0,0,0,0,0,3,0,0	test	ward_and_allport	0,0,0,1,0,0,3,2,0	89.0	9.0	0.931	1,2,3,0,0,0,0,0,0	to_hand	s647
153.874	0.404	0	PA_without_intermediate	1,0,0,0,0,0,3,2,0	test	ward_and_allport	0,0,0,1,0,0,3,2,0	82.0	9.0	0.404	1,2,3,0,0,0,0,0,0	to_board	s647
154.282	1.331	0	PA_without_intermediate	0,0,0,0,0,0,3,2,0	test	ward_and_allport	0,0,0,1,0,0,3,2,0	89.0	9.0	1.331	1,2,3,0,0,0,0,0,0	to_hand	s647
155.615	0.34	0	PA_without_intermediate	0,0,0,1,0,0,3,2,0	test	ward_and_allport	0,0,0,1,0,0,3,2,0	71.0	9.0	0.34	1,2,3,0,0,0,0,0,0	to_board	s647
155.961	1.0	0	PA_without_intermediate	n/a	test	ward_and_allport	n/a	-1.0	9.0	n/a	n/a	feedback	s647
156.961	4.264	0	PA_without_intermediate	n/a	test	ward_and_allport	n/a	-1.0	9.0	n/a	n/a	ITI	s647
161.23	0.928	1	PA_with_intermediate	0,0,0,1,2,0,0,0,0	test	ward_and_allport	2,3,0,1,0,0,0,0,0	71.0	10.0	0.928	0,0,0,1,2,3,0,0,0	to_hand	s647
162.159	1.339	0	PA_with_intermediate	0,0,0,1,2,0,3,0,0	test	ward_and_allport	2,3,0,1,0,0,0,0,0	82.0	10.0	1.339	0,0,0,1,2,3,0,0,0	to_board	s647
163.502	0.684	0	PA_with_intermediate	0,0,0,1,0,0,3,0,0	test	ward_and_allport	2,3,0,1,0,0,0,0,0	71.0	10.0	0.684	0,0,0,1,2,3,0,0,0	to_hand	s647
164.187	0.656	0	PA_with_intermediate	2,0,0,1,0,0,3,0,0	test	ward_and_allport	2,3,0,1,0,0,0,0,0	89.0	10.0	0.656	0,0,0,1,2,3,0,0,0	to_board	s647
164.847	0.642	0	PA_with_intermediate	2,0,0,1,0,0,0,0,0	test	ward_and_allport	2,3,0,1,0,0,0,0,0	82.0	10.0	0.642	0,0,0,1,2,3,0,0,0	to_hand	s647
165.491	0.995	0	PA_with_intermediate	2,3,0,1,0,0,0,0,0	test	ward_and_allport	2,3,0,1,0,0,0,0,0	89.0	10.0	0.995	0,0,0,1,2,3,0,0,0	to_board	s647
166.492	1.0	0	PA_with_intermediate	n/a	test	ward_and_allport	n/a	-1.0	10.0	n/a	n/a	feedback	s647
167.492	3.04	0	PA_with_intermediate	n/a	test	ward_and_allport	n/a	-1.0	10.0	n/a	n/a	ITI	s647
170.538	1.17	1	PA_with_intermediate	1,2,0,0,0,0,0,0,0	test	ward_and_allport	1,0,0,2,3,0,0,0,0	89.0	11.0	1.17	1,2,3,0,0,0,0,0,0	to_hand	s647
171.709	0.998	0	PA_with_intermediate	1,2,0,0,0,0,3,0,0	test	ward_and_allport	1,0,0,2,3,0,0,0,0	82.0	11.0	0.998	1,2,3,0,0,0,0,0,0	to_board	s647
172.713	1.012	0	PA_with_intermediate	1,0,0,0,0,0,3,0,0	test	ward_and_allport	1,0,0,2,3,0,0,0,0	89.0	11.0	1.012	1,2,3,0,0,0,0,0,0	to_hand	s647
173.726	0.633	0	PA_with_intermediate	1,0,0,2,0,0,3,0,0	test	ward_and_allport	1,0,0,2,3,0,0,0,0	71.0	11.0	0.633	1,2,3,0,0,0,0,0,0	to_board	s647
174.364	1.014	0	PA_with_intermediate	1,0,0,2,0,0,0,0,0	test	ward_and_allport	1,0,0,2,3,0,0,0,0	82.0	11.0	1.014	1,2,3,0,0,0,0,0,0	to_hand	s647
175.379	0.436	0	PA_with_intermediate	1,0,0,2,3,0,0,0,0	test	ward_and_allport	1,0,0,2,3,0,0,0,0	71.0	11.0	0.436	1,2,3,0,0,0,0,0,0	to_board	s647
175.821	1.0	0	PA_with_intermediate	n/a	test	ward_and_allport	n/a	-1.0	11.0	n/a	n/a	feedback	s647
176.821	1.136	0	PA_with_intermediate	n/a	test	ward_and_allport	n/a	-1.0	11.0	n/a	n/a	ITI	s647
177.963	1.801	1	PA_with_intermediate	0,0,0,1,2,0,0,0,0	test	ward_and_allport	2,0,0,1,3,0,0,0,0	71.0	12.0	1.801	0,0,0,1,2,3,0,0,0	to_hand	s647
179.764	1.112	0	PA_with_intermediate	0,0,0,1,2,0,3,0,0	test	ward_and_allport	2,0,0,1,3,0,0,0,0	82.0	12.0	1.112	0,0,0,1,2,3,0,0,0	to_board	s647
180.881	0.595	0	PA_with_intermediate	0,0,0,1,0,0,3,0,0	test	ward_and_allport	2,0,0,1,3,0,0,0,0	71.0	12.0	0.595	0,0,0,1,2,3,0,0,0	to_hand	s647
181.478	0.392	0	PA_with_intermediate	2,0,0,1,0,0,3,0,0	test	ward_and_allport	2,0,0,1,3,0,0,0,0	89.0	12.0	0.392	0,0,0,1,2,3,0,0,0	to_board	s647
181.874	0.655	0	PA_with_intermediate	2,0,0,1,0,0,0,0,0	test	ward_and_allport	2,0,0,1,3,0,0,0,0	82.0	12.0	0.655	0,0,0,1,2,3,0,0,0	to_hand	s647
182.53	0.373	0	PA_with_intermediate	2,0,0,1,3,0,0,0,0	test	ward_and_allport	2,0,0,1,3,0,0,0,0	71.0	12.0	0.373	0,0,0,1,2,3,0,0,0	to_board	s647
182.91	1.0	0	PA_with_intermediate	n/a	test	ward_and_allport	n/a	-1.0	12.0	n/a	n/a	feedback	s647
183.91	1.408	0	PA_with_intermediate	n/a	test	ward_and_allport	n/a	-1.0	12.0	n/a	n/a	ITI	s647
185.324	0.971	1	PA_without_intermediate	0,0,0,0,0,0,1,2,0	test	ward_and_allport	2,0,0,3,1,0,0,0,0	82.0	13.0	0.971	0,0,0,0,0,0,1,2,3	to_hand	s647
186.297	0.87	0	PA_without_intermediate	0,0,0,3,0,0,1,2,0	test	ward_and_allport	2,0,0,3,1,0,0,0,0	71.0	13.0	0.87	0,0,0,0,0,0,1,2,3	to_board	s647
187.172	0.81	0	PA_without_intermediate	0,0,0,3,0,0,1,0,0	test	ward_and_allport	2,0,0,3,1,0,0,0,0	82.0	13.0	0.81	0,0,0,0,0,0,1,2,3	to_hand	s647
187.984	0.509	0	PA_without_intermediate	2,0,0,3,0,0,1,0,0	test	ward_and_allport	2,0,0,3,1,0,0,0,0	89.0	13.0	0.509	0,0,0,0,0,0,1,2,3	to_board	s647
188.497	0.579	0	PA_without_intermediate	2,0,0,3,0,0,0,0,0	test	ward_and_allport	2,0,0,3,1,0,0,0,0	82.0	13.0	0.579	0,0,0,0,0,0,1,2,3	to_hand	s647
189.077	0.446	0	PA_without_intermediate	2,0,0,3,1,0,0,0,0	test	ward_and_allport	2,0,0,3,1,0,0,0,0	71.0	13.0	0.446	0,0,0,0,0,0,1,2,3	to_board	s647
189.529	1.0	0	PA_without_intermediate	n/a	test	ward_and_allport	n/a	-1.0	13.0	n/a	n/a	feedback	s647
190.529	1.68	0	PA_without_intermediate	n/a	test	ward_and_allport	n/a	-1.0	13.0	n/a	n/a	ITI	s647
192.214	0.98	1	PA_with_intermediate	1,2,0,0,0,0,0,0,0	test	ward_and_allport	1,3,0,2,0,0,0,0,0	89.0	14.0	0.98	1,2,3,0,0,0,0,0,0	to_hand	s647
193.196	1.087	0	PA_with_intermediate	1,2,0,0,0,0,3,0,0	test	ward_and_allport	1,3,0,2,0,0,0,0,0	82.0	14.0	1.087	1,2,3,0,0,0,0,0,0	to_board	s647
194.288	0.826	0	PA_with_intermediate	1,0,0,0,0,0,3,0,0	test	ward_and_allport	1,3,0,2,0,0,0,0,0	89.0	14.0	0.826	1,2,3,0,0,0,0,0,0	to_hand	s647
195.115	0.39	0	PA_with_intermediate	1,0,0,2,0,0,3,0,0	test	ward_and_allport	1,3,0,2,0,0,0,0,0	71.0	14.0	0.39	1,2,3,0,0,0,0,0,0	to_board	s647
195.51	0.941	0	PA_with_intermediate	1,0,0,2,0,0,0,0,0	test	ward_and_allport	1,3,0,2,0,0,0,0,0	82.0	14.0	0.941	1,2,3,0,0,0,0,0,0	to_hand	s647
196.452	0.398	0	PA_with_intermediate	1,3,0,2,0,0,0,0,0	test	ward_and_allport	1,3,0,2,0,0,0,0,0	89.0	14.0	0.398	1,2,3,0,0,0,0,0,0	to_board	s647
196.856	1.0	0	PA_with_intermediate	n/a	test	ward_and_allport	n/a	-1.0	14.0	n/a	n/a	feedback	s647
197.856	3.72	0	PA_with_intermediate	n/a	test	ward_and_allport	n/a	-1.0	14.0	n/a	n/a	ITI	s647
206.584	0.951	1	PA_without_intermediate	0,0,0,0,0,0,1,2,0	test	ward_and_allport	3,1,0,2,0,0,0,0,0	82.0	15.0	0.951	0,0,0,0,0,0,1,2,3	to_hand	s647
207.536	0.589	0	PA_without_intermediate	3,0,0,0,0,0,1,2,0	test	ward_and_allport	3,1,0,2,0,0,0,0,0	89.0	15.0	0.589	0,0,0,0,0,0,1,2,3	to_board	s647
208.129	1.17	0	PA_without_intermediate	3,0,0,0,0,0,1,0,0	test	ward_and_allport	3,1,0,2,0,0,0,0,0	82.0	15.0	1.17	0,0,0,0,0,0,1,2,3	to_hand	s647
209.3	0.313	0	PA_without_intermediate	3,0,0,2,0,0,1,0,0	test	ward_and_allport	3,1,0,2,0,0,0,0,0	71.0	15.0	0.313	0,0,0,0,0,0,1,2,3	to_board	s647
209.619	0.407	0	PA_without_intermediate	3,0,0,2,0,0,0,0,0	test	ward_and_allport	3,1,0,2,0,0,0,0,0	82.0	15.0	0.407	0,0,0,0,0,0,1,2,3	to_hand	s647
210.027	0.323	0	PA_without_intermediate	3,1,0,2,0,0,0,0,0	test	ward_and_allport	3,1,0,2,0,0,0,0,0	89.0	15.0	0.323	0,0,0,0,0,0,1,2,3	to_board	s647
210.357	1.0	0	PA_without_intermediate	n/a	test	ward_and_allport	n/a	-1.0	15.0	n/a	n/a	feedback	s647
211.357	2.224	0	PA_without_intermediate	n/a	test	ward_and_allport	n/a	-1.0	15.0	n/a	n/a	ITI	s647
213.587	0.914	1	PA_without_intermediate	0,0,0,0,0,0,1,2,0	test	ward_and_allport	2,0,0,3,1,0,0,0,0	82.0	16.0	0.914	0,0,0,0,0,0,1,2,3	to_hand	s647
214.502	1.181	0	PA_without_intermediate	0,0,0,3,0,0,1,2,0	test	ward_and_allport	2,0,0,3,1,0,0,0,0	71.0	16.0	1.181	0,0,0,0,0,0,1,2,3	to_board	s647
215.688	0.439	0	PA_without_intermediate	0,0,0,3,0,0,1,0,0	test	ward_and_allport	2,0,0,3,1,0,0,0,0	82.0	16.0	0.439	0,0,0,0,0,0,1,2,3	to_hand	s647
216.127	0.315	0	PA_without_intermediate	2,0,0,3,0,0,1,0,0	test	ward_and_allport	2,0,0,3,1,0,0,0,0	89.0	16.0	0.315	0,0,0,0,0,0,1,2,3	to_board	s647
216.447	0.589	0	PA_without_intermediate	2,0,0,3,0,0,0,0,0	test	ward_and_allport	2,0,0,3,1,0,0,0,0	82.0	16.0	0.589	0,0,0,0,0,0,1,2,3	to_hand	s647
217.037	0.424	0	PA_without_intermediate	2,0,0,3,1,0,0,0,0	test	ward_and_allport	2,0,0,3,1,0,0,0,0	71.0	16.0	0.424	0,0,0,0,0,0,1,2,3	to_board	s647
217.468	1.0	0	PA_without_intermediate	n/a	test	ward_and_allport	n/a	-1.0	16.0	n/a	n/a	feedback	s647
218.468	1.272	0	PA_without_intermediate	n/a	test	ward_and_allport	n/a	-1.0	16.0	n/a	n/a	ITI	s647
219.745	1.006	1	PA_with_intermediate	0,0,0,0,0,0,1,2,0	test	ward_and_allport	0,0,0,2,3,0,1,0,0	82.0	17.0	1.006	0,0,0,0,0,0,1,2,3	to_hand	s647
220.753	1.145	0	PA_with_intermediate	3,0,0,0,0,0,1,2,0	test	ward_and_allport	0,0,0,2,3,0,1,0,0	89.0	17.0	1.145	0,0,0,0,0,0,1,2,3	to_board	s647
221.902	0.864	0	PA_with_intermediate	3,0,0,0,0,0,1,0,0	test	ward_and_allport	0,0,0,2,3,0,1,0,0	82.0	17.0	0.864	0,0,0,0,0,0,1,2,3	to_hand	s647
222.767	0.563	0	PA_with_intermediate	3,0,0,2,0,0,1,0,0	test	ward_and_allport	0,0,0,2,3,0,1,0,0	71.0	17.0	0.563	0,0,0,0,0,0,1,2,3	to_board	s647
223.335	0.649	0	PA_with_intermediate	3,0,0,2,0,0,0,0,0	test	ward_and_allport	0,0,0,2,3,0,1,0,0	82.0	17.0	0.649	0,0,0,0,0,0,1,2,3	to_hand	s647
223.986	1.305	0	PA_with_intermediate	3,0,0,2,0,0,1,0,0	test	ward_and_allport	0,0,0,2,3,0,1,0,0	82.0	17.0	1.305	0,0,0,0,0,0,1,2,3	to_board	s647
225.296	0.701	0	PA_with_intermediate	0,0,0,2,0,0,1,0,0	test	ward_and_allport	0,0,0,2,3,0,1,0,0	89.0	17.0	0.701	0,0,0,0,0,0,1,2,3	to_hand	s647
225.999	0.419	0	PA_with_intermediate	0,0,0,2,3,0,1,0,0	test	ward_and_allport	0,0,0,2,3,0,1,0,0	71.0	17.0	0.419	0,0,0,0,0,0,1,2,3	to_board	s647
226.425	1.0	0	PA_with_intermediate	n/a	test	ward_and_allport	n/a	-1.0	17.0	n/a	n/a	feedback	s647
227.425	2.632	0	PA_with_intermediate	n/a	test	ward_and_allport	n/a	-1.0	17.0	n/a	n/a	ITI	s647
230.064	0.997	1	PA_without_intermediate	0,0,0,0,0,0,1,2,0	test	ward_and_allport	3,2,0,1,0,0,0,0,0	82.0	18.0	0.997	0,0,0,0,0,0,1,2,3	to_hand	s647
231.062	0.457	0	PA_without_intermediate	3,0,0,0,0,0,1,2,0	test	ward_and_allport	3,2,0,1,0,0,0,0,0	89.0	18.0	0.457	0,0,0,0,0,0,1,2,3	to_board	s647
231.525	0.734	0	PA_without_intermediate	3,0,0,0,0,0,1,0,0	test	ward_and_allport	3,2,0,1,0,0,0,0,0	82.0	18.0	0.734	0,0,0,0,0,0,1,2,3	to_hand	s647
232.261	0.952	0	PA_without_intermediate	3,2,0,0,0,0,1,0,0	test	ward_and_allport	3,2,0,1,0,0,0,0,0	89.0	18.0	0.952	0,0,0,0,0,0,1,2,3	to_board	s647
233.221	0.681	0	PA_without_intermediate	3,2,0,0,0,0,0,0,0	test	ward_and_allport	3,2,0,1,0,0,0,0,0	82.0	18.0	0.681	0,0,0,0,0,0,1,2,3	to_hand	s647
233.904	0.432	0	PA_without_intermediate	3,2,0,1,0,0,0,0,0	test	ward_and_allport	3,2,0,1,0,0,0,0,0	71.0	18.0	0.432	0,0,0,0,0,0,1,2,3	to_board	s647
234.343	1.0	0	PA_without_intermediate	n/a	test	ward_and_allport	n/a	-1.0	18.0	n/a	n/a	feedback	s647
235.343	1.408	0	PA_without_intermediate	n/a	test	ward_and_allport	n/a	-1.0	18.0	n/a	n/a	ITI	s647
236.759	0.746	1	PA_without_intermediate	0,0,0,0,0,0,1,2,0	test	ward_and_allport	1,0,0,3,2,0,0,0,0	82.0	19.0	0.746	0,0,0,0,0,0,1,2,3	to_hand	s647
237.506	0.794	0	PA_without_intermediate	0,0,0,3,0,0,1,2,0	test	ward_and_allport	1,0,0,3,2,0,0,0,0	71.0	19.0	0.794	0,0,0,0,0,0,1,2,3	to_board	s647
238.307	0.958	0	PA_without_intermediate	0,0,0,3,0,0,1,0,0	test	ward_and_allport	1,0,0,3,2,0,0,0,0	82.0	19.0	0.958	0,0,0,0,0,0,1,2,3	to_hand	s647
239.266	1.084	0	PA_without_intermediate	0,0,0,3,2,0,1,0,0	test	ward_and_allport	1,0,0,3,2,0,0,0,0	71.0	19.0	1.084	0,0,0,0,0,0,1,2,3	to_board	s647
240.357	0.493	0	PA_without_intermediate	0,0,0,3,2,0,0,0,0	test	ward_and_allport	1,0,0,3,2,0,0,0,0	82.0	19.0	0.493	0,0,0,0,0,0,1,2,3	to_hand	s647
240.852	0.329	0	PA_without_intermediate	1,0,0,3,2,0,0,0,0	test	ward_and_allport	1,0,0,3,2,0,0,0,0	89.0	19.0	0.329	0,0,0,0,0,0,1,2,3	to_board	s647
241.188	1.0	0	PA_without_intermediate	n/a	test	ward_and_allport	n/a	-1.0	19.0	n/a	n/a	feedback	s647
242.188	1.0	0	PA_without_intermediate	n/a	test	ward_and_allport	n/a	-1.0	19.0	n/a	n/a	ITI	s647
243.196	0.912	1	PA_with_intermediate	0,0,0,0,0,0,1,2,0	test	ward_and_allport	2,3,0,0,0,0,1,0,0	82.0	20.0	0.912	0,0,0,0,0,0,1,2,3	to_hand	s647
244.11	1.491	0	PA_with_intermediate	0,0,0,3,0,0,1,2,0	test	ward_and_allport	2,3,0,0,0,0,1,0,0	71.0	20.0	1.491	0,0,0,0,0,0,1,2,3	to_board	s647
245.607	0.707	0	PA_with_intermediate	0,0,0,3,0,0,1,0,0	test	ward_and_allport	2,3,0,0,0,0,1,0,0	82.0	20.0	0.707	0,0,0,0,0,0,1,2,3	to_hand	s647
246.316	0.581	0	PA_with_intermediate	2,0,0,3,0,0,1,0,0	test	ward_and_allport	2,3,0,0,0,0,1,0,0	89.0	20.0	0.581	0,0,0,0,0,0,1,2,3	to_board	s647
246.904	0.695	0	PA_with_intermediate	2,0,0,0,0,0,1,0,0	test	ward_and_allport	2,3,0,0,0,0,1,0,0	71.0	20.0	0.695	0,0,0,0,0,0,1,2,3	to_hand	s647
247.6	0.348	0	PA_with_intermediate	2,3,0,0,0,0,1,0,0	test	ward_and_allport	2,3,0,0,0,0,1,0,0	89.0	20.0	0.348	0,0,0,0,0,0,1,2,3	to_board	s647
247.956	1.0	0	PA_with_intermediate	n/a	test	ward_and_allport	n/a	-1.0	20.0	n/a	n/a	feedback	s647
248.956	1.0	0	PA_with_intermediate	n/a	test	ward_and_allport	n/a	-1.0	20.0	n/a	n/a	ITI	s647
249.962	1.042	1	PA_with_intermediate	0,0,0,1,2,0,0,0,0	test	ward_and_allport	2,0,0,1,3,0,0,0,0	71.0	21.0	1.042	0,0,0,1,2,3,0,0,0	to_hand	s647
251.005	1.439	0	PA_with_intermediate	0,0,0,1,2,0,3,0,0	test	ward_and_allport	2,0,0,1,3,0,0,0,0	82.0	21.0	1.439	0,0,0,1,2,3,0,0,0	to_board	s647
252.451	0.551	0	PA_with_intermediate	0,0,0,1,0,0,3,0,0	test	ward_and_allport	2,0,0,1,3,0,0,0,0	71.0	21.0	0.551	0,0,0,1,2,3,0,0,0	to_hand	s647
253.003	0.412	0	PA_with_intermediate	2,0,0,1,0,0,3,0,0	test	ward_and_allport	2,0,0,1,3,0,0,0,0	89.0	21.0	0.412	0,0,0,1,2,3,0,0,0	to_board	s647
253.422	0.734	0	PA_with_intermediate	2,0,0,1,0,0,0,0,0	test	ward_and_allport	2,0,0,1,3,0,0,0,0	82.0	21.0	0.734	0,0,0,1,2,3,0,0,0	to_hand	s647
254.156	0.383	0	PA_with_intermediate	2,0,0,1,3,0,0,0,0	test	ward_and_allport	2,0,0,1,3,0,0,0,0	71.0	21.0	0.383	0,0,0,1,2,3,0,0,0	to_board	s647
254.547	1.0	0	PA_with_intermediate	n/a	test	ward_and_allport	n/a	-1.0	21.0	n/a	n/a	feedback	s647
255.547	1.0	0	PA_with_intermediate	n/a	test	ward_and_allport	n/a	-1.0	21.0	n/a	n/a	ITI	s647
256.554	0.858	1	PA_with_intermediate	0,0,0,1,2,0,0,0,0	test	ward_and_allport	0,0,0,1,3,0,2,0,0	71.0	22.0	0.858	0,0,0,1,2,3,0,0,0	to_hand	s647
257.413	1.712	0	PA_with_intermediate	3,0,0,1,2,0,0,0,0	test	ward_and_allport	0,0,0,1,3,0,2,0,0	89.0	22.0	1.712	0,0,0,1,2,3,0,0,0	to_board	s647
259.132	0.471	0	PA_with_intermediate	3,0,0,1,0,0,0,0,0	test	ward_and_allport	0,0,0,1,3,0,2,0,0	71.0	22.0	0.471	0,0,0,1,2,3,0,0,0	to_hand	s647
259.604	0.774	0	PA_with_intermediate	3,0,0,1,0,0,2,0,0	test	ward_and_allport	0,0,0,1,3,0,2,0,0	82.0	22.0	0.774	0,0,0,1,2,3,0,0,0	to_board	s647
260.385	0.387	0	PA_with_intermediate	0,0,0,1,0,0,2,0,0	test	ward_and_allport	0,0,0,1,3,0,2,0,0	89.0	22.0	0.387	0,0,0,1,2,3,0,0,0	to_hand	s647
260.773	0.379	0	PA_with_intermediate	0,0,0,1,3,0,2,0,0	test	ward_and_allport	0,0,0,1,3,0,2,0,0	71.0	22.0	0.379	0,0,0,1,2,3,0,0,0	to_board	s647
261.161	1.0	0	PA_with_intermediate	n/a	test	ward_and_allport	n/a	-1.0	22.0	n/a	n/a	feedback	s647
262.161	1.408	0	PA_with_intermediate	n/a	test	ward_and_allport	n/a	-1.0	22.0	n/a	n/a	ITI	s647
263.577	0.955	1	PA_without_intermediate	0,0,0,1,2,0,0,0,0	test	ward_and_allport	3,2,0,0,0,0,1,0,0	71.0	23.0	0.955	0,0,0,1,2,3,0,0,0	to_hand	s647
264.532	0.684	0	PA_without_intermediate	3,0,0,1,2,0,0,0,0	test	ward_and_allport	3,2,0,0,0,0,1,0,0	89.0	23.0	0.684	0,0,0,1,2,3,0,0,0	to_board	s647
265.223	0.519	0	PA_without_intermediate	3,0,0,1,0,0,0,0,0	test	ward_and_allport	3,2,0,0,0,0,1,0,0	71.0	23.0	0.519	0,0,0,1,2,3,0,0,0	to_hand	s647
265.743	0.636	0	PA_without_intermediate	3,2,0,1,0,0,0,0,0	test	ward_and_allport	3,2,0,0,0,0,1,0,0	89.0	23.0	0.636	0,0,0,1,2,3,0,0,0	to_board	s647
266.387	0.625	0	PA_without_intermediate	3,2,0,0,0,0,0,0,0	test	ward_and_allport	3,2,0,0,0,0,1,0,0	71.0	23.0	0.625	0,0,0,1,2,3,0,0,0	to_hand	s647
267.013	0.661	0	PA_without_intermediate	3,2,0,0,0,0,1,0,0	test	ward_and_allport	3,2,0,0,0,0,1,0,0	82.0	23.0	0.661	0,0,0,1,2,3,0,0,0	to_board	s647
267.683	1.0	0	PA_without_intermediate	n/a	test	ward_and_allport	n/a	-1.0	23.0	n/a	n/a	feedback	s647
268.683	1.816	0	PA_without_intermediate	n/a	test	ward_and_allport	n/a	-1.0	23.0	n/a	n/a	ITI	s647
270.507	0.81	1	PA_with_intermediate	0,0,0,0,0,0,1,2,0	test	ward_and_allport	0,0,0,2,0,0,1,3,0	82.0	24.0	0.81	0,0,0,0,0,0,1,2,3	to_hand	s647
271.318	1.022	0	PA_with_intermediate	3,0,0,0,0,0,1,2,0	test	ward_and_allport	0,0,0,2,0,0,1,3,0	89.0	24.0	1.022	0,0,0,0,0,0,1,2,3	to_board	s647
272.347	1.743	0	PA_with_intermediate	3,0,0,0,0,0,1,0,0	test	ward_and_allport	0,0,0,2,0,0,1,3,0	82.0	24.0	1.743	0,0,0,0,0,0,1,2,3	to_hand	s647
274.092	0.34	0	PA_with_intermediate	3,0,0,2,0,0,1,0,0	test	ward_and_allport	0,0,0,2,0,0,1,3,0	71.0	24.0	0.34	0,0,0,0,0,0,1,2,3	to_board	s647
274.439	0.623	0	PA_with_intermediate	0,0,0,2,0,0,1,0,0	test	ward_and_allport	0,0,0,2,0,0,1,3,0	89.0	24.0	0.623	0,0,0,0,0,0,1,2,3	to_hand	s647
275.063	0.343	0	PA_with_intermediate	0,0,0,2,0,0,1,3,0	test	ward_and_allport	0,0,0,2,0,0,1,3,0	82.0	24.0	0.343	0,0,0,0,0,0,1,2,3	to_board	s647
275.415	1.0	0	PA_with_intermediate	n/a	test	ward_and_allport	n/a	-1.0	24.0	n/a	n/a	feedback	s647
276.415	3.176	0	PA_with_intermediate	n/a	test	ward_and_allport	n/a	-1.0	24.0	n/a	n/a	ITI	s647
279.6	1.874	1	PA_with_intermediate	1,2,0,0,0,0,0,0,0	test	ward_and_allport	1,3,0,2,0,0,0,0,0	89.0	25.0	1.874	1,2,3,0,0,0,0,0,0	to_hand	s647
281.476	1.057	0	PA_with_intermediate	1,2,0,0,0,0,3,0,0	test	ward_and_allport	1,3,0,2,0,0,0,0,0	82.0	25.0	1.057	1,2,3,0,0,0,0,0,0	to_board	s647
282.541	0.909	0	PA_with_intermediate	1,0,0,0,0,0,3,0,0	test	ward_and_allport	1,3,0,2,0,0,0,0,0	89.0	25.0	0.909	1,2,3,0,0,0,0,0,0	to_hand	s647
283.452	0.397	0	PA_with_intermediate	1,0,0,2,0,0,3,0,0	test	ward_and_allport	1,3,0,2,0,0,0,0,0	71.0	25.0	0.397	1,2,3,0,0,0,0,0,0	to_board	s647
283.857	0.609	0	PA_with_intermediate	1,0,0,2,0,0,0,0,0	test	ward_and_allport	1,3,0,2,0,0,0,0,0	82.0	25.0	0.609	1,2,3,0,0,0,0,0,0	to_hand	s647
284.467	0.321	0	PA_with_intermediate	1,3,0,2,0,0,0,0,0	test	ward_and_allport	1,3,0,2,0,0,0,0,0	89.0	25.0	0.321	1,2,3,0,0,0,0,0,0	to_board	s647
284.796	1.0	0	PA_with_intermediate	n/a	test	ward_and_allport	n/a	-1.0	25.0	n/a	n/a	feedback	s647
285.796	2.36	0	PA_with_intermediate	n/a	test	ward_and_allport	n/a	-1.0	25.0	n/a	n/a	ITI	s647
288.164	0.634	1	PA_with_intermediate	0,0,0,0,0,0,1,2,0	test	ward_and_allport	2,0,0,0,0,0,1,3,0	82.0	26.0	0.634	0,0,0,0,0,0,1,2,3	to_hand	s647
288.8	0.81	0	PA_with_intermediate	3,0,0,0,0,0,1,2,0	test	ward_and_allport	2,0,0,0,0,0,1,3,0	89.0	26.0	0.81	0,0,0,0,0,0,1,2,3	to_board	s647
289.616	1.029	0	PA_with_intermediate	3,0,0,0,0,0,1,0,0	test	ward_and_allport	2,0,0,0,0,0,1,3,0	82.0	26.0	1.029	0,0,0,0,0,0,1,2,3	to_hand	s647
290.647	1.313	0	PA_with_intermediate	3,0,0,2,0,0,1,0,0	test	ward_and_allport	2,0,0,0,0,0,1,3,0	71.0	26.0	1.313	0,0,0,0,0,0,1,2,3	to_board	s647
291.966	0.307	0	PA_with_intermediate	0,0,0,2,0,0,1,0,0	test	ward_and_allport	2,0,0,0,0,0,1,3,0	89.0	26.0	0.307	0,0,0,0,0,0,1,2,3	to_hand	s647
292.274	0.34	0	PA_with_intermediate	0,0,0,2,0,0,1,3,0	test	ward_and_allport	2,0,0,0,0,0,1,3,0	82.0	26.0	0.34	0,0,0,0,0,0,1,2,3	to_board	s647
292.621	0.507	0	PA_with_intermediate	0,0,0,0,0,0,1,3,0	test	ward_and_allport	2,0,0,0,0,0,1,3,0	71.0	26.0	0.507	0,0,0,0,0,0,1,2,3	to_hand	s647
293.13	0.298	0	PA_with_intermediate	2,0,0,0,0,0,1,3,0	test	ward_and_allport	2,0,0,0,0,0,1,3,0	89.0	26.0	0.298	0,0,0,0,0,0,1,2,3	to_board	s647
293.436	1.0	0	PA_with_intermediate	n/a	test	ward_and_allport	n/a	-1.0	26.0	n/a	n/a	feedback	s647
294.436	1.0	0	PA_with_intermediate	n/a	test	ward_and_allport	n/a	-1.0	26.0	n/a	n/a	ITI	s647
295.444	1.306	1	PA_without_intermediate	1,2,0,0,0,0,0,0,0	test	ward_and_allport	0,0,0,2,0,0,3,1,0	89.0	27.0	1.306	1,2,3,0,0,0,0,0,0	to_hand	s647
296.751	0.773	0	PA_without_intermediate	1,2,0,0,0,0,3,0,0	test	ward_and_allport	0,0,0,2,0,0,3,1,0	82.0	27.0	0.773	1,2,3,0,0,0,0,0,0	to_board	s647
297.531	0.73	0	PA_without_intermediate	1,0,0,0,0,0,3,0,0	test	ward_and_allport	0,0,0,2,0,0,3,1,0	89.0	27.0	0.73	1,2,3,0,0,0,0,0,0	to_hand	s647
298.263	0.547	0	PA_without_intermediate	1,0,0,2,0,0,3,0,0	test	ward_and_allport	0,0,0,2,0,0,3,1,0	71.0	27.0	0.547	1,2,3,0,0,0,0,0,0	to_board	s647
298.816	0.562	0	PA_without_intermediate	0,0,0,2,0,0,3,0,0	test	ward_and_allport	0,0,0,2,0,0,3,1,0	89.0	27.0	0.562	1,2,3,0,0,0,0,0,0	to_hand	s647
299.379	0.568	0	PA_without_intermediate	0,0,0,2,0,0,3,1,0	test	ward_and_allport	0,0,0,2,0,0,3,1,0	82.0	27.0	0.568	1,2,3,0,0,0,0,0,0	to_board	s647
299.957	1.0	0	PA_without_intermediate	n/a	test	ward_and_allport	n/a	-1.0	27.0	n/a	n/a	feedback	s647
300.957	1.408	0	PA_without_intermediate	n/a	test	ward_and_allport	n/a	-1.0	27.0	n/a	n/a	ITI	s647
302.374	0.914	1	PA_with_intermediate	0,0,0,0,0,0,1,2,0	test	ward_and_allport	0,0,0,2,0,0,1,3,0	82.0	28.0	0.914	0,0,0,0,0,0,1,2,3	to_hand	s647
303.288	1.076	0	PA_with_intermediate	3,0,0,0,0,0,1,2,0	test	ward_and_allport	0,0,0,2,0,0,1,3,0	89.0	28.0	1.076	0,0,0,0,0,0,1,2,3	to_board	s647
304.371	1.111	0	PA_with_intermediate	3,0,0,0,0,0,1,0,0	test	ward_and_allport	0,0,0,2,0,0,1,3,0	82.0	28.0	1.111	0,0,0,0,0,0,1,2,3	to_hand	s647
305.483	0.306	0	PA_with_intermediate	3,0,0,2,0,0,1,0,0	test	ward_and_allport	0,0,0,2,0,0,1,3,0	71.0	28.0	0.306	0,0,0,0,0,0,1,2,3	to_board	s647
305.796	0.557	0	PA_with_intermediate	0,0,0,2,0,0,1,0,0	test	ward_and_allport	0,0,0,2,0,0,1,3,0	89.0	28.0	0.557	0,0,0,0,0,0,1,2,3	to_hand	s647
306.354	0.404	0	PA_with_intermediate	0,0,0,2,0,0,1,3,0	test	ward_and_allport	0,0,0,2,0,0,1,3,0	82.0	28.0	0.404	0,0,0,0,0,0,1,2,3	to_board	s647
306.768	1.0	0	PA_with_intermediate	n/a	test	ward_and_allport	n/a	-1.0	28.0	n/a	n/a	feedback	s647
307.768	1.816	0	PA_with_intermediate	n/a	test	ward_and_allport	n/a	-1.0	28.0	n/a	n/a	ITI	s647
309.591	1.611	1	PA_without_intermediate	0,0,0,0,0,0,1,2,0	test	ward_and_allport	1,0,0,3,2,0,0,0,0	82.0	29.0	1.611	0,0,0,0,0,0,1,2,3	to_hand	s647
311.203	0.365	0	PA_without_intermediate	0,0,0,3,0,0,1,2,0	test	ward_and_allport	1,0,0,3,2,0,0,0,0	71.0	29.0	0.365	0,0,0,0,0,0,1,2,3	to_board	s647
311.576	2.215	0	PA_without_intermediate	0,0,0,3,0,0,1,0,0	test	ward_and_allport	1,0,0,3,2,0,0,0,0	82.0	29.0	2.215	0,0,0,0,0,0,1,2,3	to_hand	s647
313.793	0.391	0	PA_without_intermediate	2,0,0,3,0,0,1,0,0	test	ward_and_allport	1,0,0,3,2,0,0,0,0	89.0	29.0	0.391	0,0,0,0,0,0,1,2,3	to_board	s647
314.192	0.183	0	PA_without_intermediate	0,0,0,3,0,0,1,0,0	test	ward_and_allport	1,0,0,3,2,0,0,0,0	89.0	29.0	0.183	0,0,0,0,0,0,1,2,3	to_hand	s647
314.376	0.579	0	PA_without_intermediate	0,0,0,3,2,0,1,0,0	test	ward_and_allport	1,0,0,3,2,0,0,0,0	71.0	29.0	0.579	0,0,0,0,0,0,1,2,3	to_board	s647
314.964	0.89	0	PA_without_intermediate	0,0,0,3,2,0,0,0,0	test	ward_and_allport	1,0,0,3,2,0,0,0,0	82.0	29.0	0.89	0,0,0,0,0,0,1,2,3	to_hand	s647
315.854	0.336	0	PA_without_intermediate	1,0,0,3,2,0,0,0,0	test	ward_and_allport	1,0,0,3,2,0,0,0,0	89.0	29.0	0.336	0,0,0,0,0,0,1,2,3	to_board	s647
316.201	1.0	0	PA_without_intermediate	n/a	test	ward_and_allport	n/a	-1.0	29.0	n/a	n/a	feedback	s647
317.201	2.088	0	PA_without_intermediate	n/a	test	ward_and_allport	n/a	-1.0	29.0	n/a	n/a	ITI	s647
324.303	1.199	1	PA_without_intermediate	0,0,0,1,2,0,0,0,0	test	ward_and_allport	1,0,0,0,0,0,3,2,0	71.0	30.0	1.199	0,0,0,1,2,3,0,0,0	to_hand	s647
325.504	0.767	0	PA_without_intermediate	0,0,0,1,2,0,3,0,0	test	ward_and_allport	1,0,0,0,0,0,3,2,0	82.0	30.0	0.767	0,0,0,1,2,3,0,0,0	to_board	s647
326.279	0.591	0	PA_without_intermediate	0,0,0,1,0,0,3,0,0	test	ward_and_allport	1,0,0,0,0,0,3,2,0	71.0	30.0	0.591	0,0,0,1,2,3,0,0,0	to_hand	s647
326.871	0.717	0	PA_without_intermediate	0,0,0,1,0,0,3,2,0	test	ward_and_allport	1,0,0,0,0,0,3,2,0	82.0	30.0	0.717	0,0,0,1,2,3,0,0,0	to_board	s647
327.598	0.712	0	PA_without_intermediate	0,0,0,0,0,0,3,2,0	test	ward_and_allport	1,0,0,0,0,0,3,2,0	71.0	30.0	0.712	0,0,0,1,2,3,0,0,0	to_hand	s647
328.311	0.369	0	PA_without_intermediate	1,0,0,0,0,0,3,2,0	test	ward_and_allport	1,0,0,0,0,0,3,2,0	89.0	30.0	0.369	0,0,0,1,2,3,0,0,0	to_board	s647
328.691	1.0	0	PA_without_intermediate	n/a	test	ward_and_allport	n/a	-1.0	30.0	n/a	n/a	feedback	s647
329.691	1.136	0	PA_without_intermediate	n/a	test	ward_and_allport	n/a	-1.0	30.0	n/a	n/a	ITI	s647
330.836	1.752	1	PA_without_intermediate	1,2,0,0,0,0,0,0,0	test	ward_and_allport	0,0,0,3,1,0,2,0,0	89.0	31.0	1.752	1,2,3,0,0,0,0,0,0	to_hand	s647
332.59	0.631	0	PA_without_intermediate	1,2,0,3,0,0,0,0,0	test	ward_and_allport	0,0,0,3,1,0,2,0,0	71.0	31.0	0.631	1,2,3,0,0,0,0,0,0	to_board	s647
333.227	1.219	0	PA_without_intermediate	1,0,0,3,0,0,0,0,0	test	ward_and_allport	0,0,0,3,1,0,2,0,0	89.0	31.0	1.219	1,2,3,0,0,0,0,0,0	to_hand	s647
334.448	0.294	0	PA_without_intermediate	1,0,0,3,0,0,2,0,0	test	ward_and_allport	0,0,0,3,1,0,2,0,0	82.0	31.0	0.294	1,2,3,0,0,0,0,0,0	to_board	s647
334.749	0.433	0	PA_without_intermediate	0,0,0,3,0,0,2,0,0	test	ward_and_allport	0,0,0,3,1,0,2,0,0	89.0	31.0	0.433	1,2,3,0,0,0,0,0,0	to_hand	s647
335.184	0.326	0	PA_without_intermediate	0,0,0,3,1,0,2,0,0	test	ward_and_allport	0,0,0,3,1,0,2,0,0	71.0	31.0	0.326	1,2,3,0,0,0,0,0,0	to_board	s647
335.52	1.0	0	PA_without_intermediate	n/a	test	ward_and_allport	n/a	-1.0	31.0	n/a	n/a	feedback	s647
336.52	6.168	0	PA_without_intermediate	n/a	test	ward_and_allport	n/a	-1.0	31.0	n/a	n/a	ITI	s647
342.696	1.065	1	PA_without_intermediate	1,2,0,0,0,0,0,0,0	test	ward_and_allport	0,0,0,3,2,0,1,0,0	89.0	32.0	1.065	1,2,3,0,0,0,0,0,0	to_hand	s647
343.763	0.576	0	PA_without_intermediate	1,2,0,3,0,0,0,0,0	test	ward_and_allport	0,0,0,3,2,0,1,0,0	71.0	32.0	0.576	1,2,3,0,0,0,0,0,0	to_board	s647
344.348	0.498	0	PA_without_intermediate	1,0,0,3,0,0,0,0,0	test	ward_and_allport	0,0,0,3,2,0,1,0,0	89.0	32.0	0.498	1,2,3,0,0,0,0,0,0	to_hand	s647
344.848	0.463	0	PA_without_intermediate	1,0,0,3,2,0,0,0,0	test	ward_and_allport	0,0,0,3,2,0,1,0,0	71.0	32.0	0.463	1,2,3,0,0,0,0,0,0	to_board	s647
345.321	0.456	0	PA_without_intermediate	0,0,0,3,2,0,0,0,0	test	ward_and_allport	0,0,0,3,2,0,1,0,0	89.0	32.0	0.456	1,2,3,0,0,0,0,0,0	to_hand	s647
345.778	0.347	0	PA_without_intermediate	0,0,0,3,2,0,1,0,0	test	ward_and_allport	0,0,0,3,2,0,1,0,0	82.0	32.0	0.347	1,2,3,0,0,0,0,0,0	to_board	s647
346.135	1.0	0	PA_without_intermediate	n/a	test	ward_and_allport	n/a	-1.0	32.0	n/a	n/a	feedback	s647
347.135	1.816	0	PA_without_intermediate	n/a	test	ward_and_allport	n/a	-1.0	32.0	n/a	n/a	ITI	s647
348.959	0.912	1	PA_with_intermediate	0,0,0,0,0,0,1,2,0	test	ward_and_allport	2,0,0,0,0,0,1,3,0	82.0	33.0	0.912	0,0,0,0,0,0,1,2,3	to_hand	s647
349.872	1.654	0	PA_with_intermediate	0,0,0,3,0,0,1,2,0	test	ward_and_allport	2,0,0,0,0,0,1,3,0	71.0	33.0	1.654	0,0,0,0,0,0,1,2,3	to_board	s647
351.534	0.61	0	PA_with_intermediate	0,0,0,3,0,0,1,0,0	test	ward_and_allport	2,0,0,0,0,0,1,3,0	82.0	33.0	0.61	0,0,0,0,0,0,1,2,3	to_hand	s647
352.145	0.342	0	PA_with_intermediate	2,0,0,3,0,0,1,0,0	test	ward_and_allport	2,0,0,0,0,0,1,3,0	89.0	33.0	0.342	0,0,0,0,0,0,1,2,3	to_board	s647
352.495	0.452	0	PA_with_intermediate	2,0,0,0,0,0,1,0,0	test	ward_and_allport	2,0,0,0,0,0,1,3,0	71.0	33.0	0.452	0,0,0,0,0,0,1,2,3	to_hand	s647
352.948	0.435	0	PA_with_intermediate	2,0,0,0,0,0,1,3,0	test	ward_and_allport	2,0,0,0,0,0,1,3,0	82.0	33.0	0.435	0,0,0,0,0,0,1,2,3	to_board	s647
353.394	1.0	0	PA_with_intermediate	n/a	test	ward_and_allport	n/a	-1.0	33.0	n/a	n/a	feedback	s647
354.394	1.952	0	PA_with_intermediate	n/a	test	ward_and_allport	n/a	-1.0	33.0	n/a	n/a	ITI	s647
356.354	0.728	1	PA_with_intermediate	0,0,0,1,2,0,0,0,0	test	ward_and_allport	2,3,0,1,0,0,0,0,0	71.0	34.0	0.728	0,0,0,1,2,3,0,0,0	to_hand	s647
357.084	1.095	0	PA_with_intermediate	0,0,0,1,2,0,3,0,0	test	ward_and_allport	2,3,0,1,0,0,0,0,0	82.0	34.0	1.095	0,0,0,1,2,3,0,0,0	to_board	s647
358.186	0.473	0	PA_with_intermediate	0,0,0,1,0,0,3,0,0	test	ward_and_allport	2,3,0,1,0,0,0,0,0	71.0	34.0	0.473	0,0,0,1,2,3,0,0,0	to_hand	s647
358.659	0.417	0	PA_with_intermediate	2,0,0,1,0,0,3,0,0	test	ward_and_allport	2,3,0,1,0,0,0,0,0	89.0	34.0	0.417	0,0,0,1,2,3,0,0,0	to_board	s647
359.083	0.471	0	PA_with_intermediate	2,0,0,1,0,0,0,0,0	test	ward_and_allport	2,3,0,1,0,0,0,0,0	82.0	34.0	0.471	0,0,0,1,2,3,0,0,0	to_hand	s647
359.555	0.381	0	PA_with_intermediate	2,3,0,1,0,0,0,0,0	test	ward_and_allport	2,3,0,1,0,0,0,0,0	89.0	34.0	0.381	0,0,0,1,2,3,0,0,0	to_board	s647
359.944	1.0	0	PA_with_intermediate	n/a	test	ward_and_allport	n/a	-1.0	34.0	n/a	n/a	feedback	s647
360.944	1.136	0	PA_with_intermediate	n/a	test	ward_and_allport	n/a	-1.0	34.0	n/a	n/a	ITI	s647
362.088	1.751	1	PA_without_intermediate	1,2,0,0,0,0,0,0,0	test	ward_and_allport	0,0,0,1,0,0,3,2,0	89.0	35.0	1.751	1,2,3,0,0,0,0,0,0	to_hand	s647
363.839	0.785	0	PA_without_intermediate	1,2,0,0,0,0,3,0,0	test	ward_and_allport	0,0,0,1,0,0,3,2,0	82.0	35.0	0.785	1,2,3,0,0,0,0,0,0	to_board	s647
364.631	0.88	0	PA_without_intermediate	1,0,0,0,0,0,3,0,0	test	ward_and_allport	0,0,0,1,0,0,3,2,0	89.0	35.0	0.88	1,2,3,0,0,0,0,0,0	to_hand	s647
365.512	0.403	0	PA_without_intermediate	1,0,0,0,0,0,3,2,0	test	ward_and_allport	0,0,0,1,0,0,3,2,0	82.0	35.0	0.403	1,2,3,0,0,0,0,0,0	to_board	s647
365.922	0.821	0	PA_without_intermediate	0,0,0,0,0,0,3,2,0	test	ward_and_allport	0,0,0,1,0,0,3,2,0	89.0	35.0	0.821	1,2,3,0,0,0,0,0,0	to_hand	s647
366.744	0.401	0	PA_without_intermediate	0,0,0,1,0,0,3,2,0	test	ward_and_allport	0,0,0,1,0,0,3,2,0	71.0	35.0	0.401	1,2,3,0,0,0,0,0,0	to_board	s647
367.152	1.0	0	PA_without_intermediate	n/a	test	ward_and_allport	n/a	-1.0	35.0	n/a	n/a	feedback	s647
368.152	1.68	0	PA_without_intermediate	n/a	test	ward_and_allport	n/a	-1.0	35.0	n/a	n/a	ITI	s647
369.843	1.179	1	PA_without_intermediate	0,0,0,1,2,0,0,0,0	test	ward_and_allport	3,1,0,0,0,0,2,0,0	71.0	36.0	1.179	0,0,0,1,2,3,0,0,0	to_hand	s647
371.023	0.7	0	PA_without_intermediate	3,0,0,1,2,0,0,0,0	test	ward_and_allport	3,1,0,0,0,0,2,0,0	89.0	36.0	0.7	0,0,0,1,2,3,0,0,0	to_board	s647
371.733	0.652	0	PA_without_intermediate	3,0,0,1,0,0,0,0,0	test	ward_and_allport	3,1,0,0,0,0,2,0,0	71.0	36.0	0.652	0,0,0,1,2,3,0,0,0	to_hand	s647
372.386	0.373	0	PA_without_intermediate	3,0,0,1,0,0,2,0,0	test	ward_and_allport	3,1,0,0,0,0,2,0,0	82.0	36.0	0.373	0,0,0,1,2,3,0,0,0	to_board	s647
372.767	0.342	0	PA_without_intermediate	3,0,0,0,0,0,2,0,0	test	ward_and_allport	3,1,0,0,0,0,2,0,0	71.0	36.0	0.342	0,0,0,1,2,3,0,0,0	to_hand	s647
373.11	0.313	0	PA_without_intermediate	3,1,0,0,0,0,2,0,0	test	ward_and_allport	3,1,0,0,0,0,2,0,0	89.0	36.0	0.313	0,0,0,1,2,3,0,0,0	to_board	s647
373.432	1.0	0	PA_without_intermediate	n/a	test	ward_and_allport	n/a	-1.0	36.0	n/a	n/a	feedback	s647
374.432	2.088	0	PA_without_intermediate	n/a	test	ward_and_allport	n/a	-1.0	36.0	n/a	n/a	ITI	s647
376.528	1.347	1	PA_with_intermediate	1,2,0,0,0,0,0,0,0	test	ward_and_allport	1,0,0,0,0,0,2,3,0	89.0	37.0	1.347	1,2,3,0,0,0,0,0,0	to_hand	s647
377.877	1.094	0	PA_with_intermediate	1,2,0,3,0,0,0,0,0	test	ward_and_allport	1,0,0,0,0,0,2,3,0	71.0	37.0	1.094	1,2,3,0,0,0,0,0,0	to_board	s647
378.979	0.43	0	PA_with_intermediate	1,0,0,3,0,0,0,0,0	test	ward_and_allport	1,0,0,0,0,0,2,3,0	89.0	37.0	0.43	1,2,3,0,0,0,0,0,0	to_hand	s647
379.411	0.405	0	PA_with_intermediate	1,0,0,3,0,0,2,0,0	test	ward_and_allport	1,0,0,0,0,0,2,3,0	82.0	37.0	0.405	1,2,3,0,0,0,0,0,0	to_board	s647
379.826	0.431	0	PA_with_intermediate	1,0,0,0,0,0,2,0,0	test	ward_and_allport	1,0,0,0,0,0,2,3,0	71.0	37.0	0.431	1,2,3,0,0,0,0,0,0	to_hand	s647
380.259	0.389	0	PA_with_intermediate	1,0,0,0,0,0,2,3,0	test	ward_and_allport	1,0,0,0,0,0,2,3,0	82.0	37.0	0.389	1,2,3,0,0,0,0,0,0	to_board	s647
380.659	1.0	0	PA_with_intermediate	n/a	test	ward_and_allport	n/a	-1.0	37.0	n/a	n/a	feedback	s647
381.659	1.0	0	PA_with_intermediate	n/a	test	ward_and_allport	n/a	-1.0	37.0	n/a	n/a	ITI	s647
382.667	1.209	1	PA_without_intermediate	0,0,0,0,0,0,1,2,0	test	ward_and_allport	3,2,0,1,0,0,0,0,0	82.0	38.0	1.209	0,0,0,0,0,0,1,2,3	to_hand	s647
383.877	0.514	0	PA_without_intermediate	3,0,0,0,0,0,1,2,0	test	ward_and_allport	3,2,0,1,0,0,0,0,0	89.0	38.0	0.514	0,0,0,0,0,0,1,2,3	to_board	s647
384.4	0.682	0	PA_without_intermediate	3,0,0,0,0,0,1,0,0	test	ward_and_allport	3,2,0,1,0,0,0,0,0	82.0	38.0	0.682	0,0,0,0,0,0,1,2,3	to_hand	s647
385.083	0.287	0	PA_without_intermediate	3,2,0,0,0,0,1,0,0	test	ward_and_allport	3,2,0,1,0,0,0,0,0	89.0	38.0	0.287	0,0,0,0,0,0,1,2,3	to_board	s647
385.377	1.294	0	PA_without_intermediate	3,2,0,0,0,0,0,0,0	test	ward_and_allport	3,2,0,1,0,0,0,0,0	82.0	38.0	1.294	0,0,0,0,0,0,1,2,3	to_hand	s647
386.673	0.336	0	PA_without_intermediate	3,2,0,1,0,0,0,0,0	test	ward_and_allport	3,2,0,1,0,0,0,0,0	71.0	38.0	0.336	0,0,0,0,0,0,1,2,3	to_board	s647
387.017	1.0	0	PA_without_intermediate	n/a	test	ward_and_allport	n/a	-1.0	38.0	n/a	n/a	feedback	s647
388.017	1.0	0	PA_without_intermediate	n/a	test	ward_and_allport	n/a	-1.0	38.0	n/a	n/a	ITI	s647
389.025	1.191	1	PA_without_intermediate	0,0,0,1,2,0,0,0,0	test	ward_and_allport	1,0,0,0,0,0,3,2,0	71.0	39.0	1.191	0,0,0,1,2,3,0,0,0	to_hand	s647
390.218	0.682	0	PA_without_intermediate	0,0,0,1,2,0,3,0,0	test	ward_and_allport	1,0,0,0,0,0,3,2,0	82.0	39.0	0.682	0,0,0,1,2,3,0,0,0	to_board	s647
390.906	0.367	0	PA_without_intermediate	0,0,0,1,0,0,3,0,0	test	ward_and_allport	1,0,0,0,0,0,3,2,0	71.0	39.0	0.367	0,0,0,1,2,3,0,0,0	to_hand	s647
391.274	0.75	0	PA_without_intermediate	0,0,0,1,0,0,3,2,0	test	ward_and_allport	1,0,0,0,0,0,3,2,0	82.0	39.0	0.75	0,0,0,1,2,3,0,0,0	to_board	s647
392.031	0.363	0	PA_without_intermediate	0,0,0,0,0,0,3,2,0	test	ward_and_allport	1,0,0,0,0,0,3,2,0	71.0	39.0	0.363	0,0,0,1,2,3,0,0,0	to_hand	s647
392.396	0.333	0	PA_without_intermediate	1,0,0,0,0,0,3,2,0	test	ward_and_allport	1,0,0,0,0,0,3,2,0	89.0	39.0	0.333	0,0,0,1,2,3,0,0,0	to_board	s647
392.738	1.0	0	PA_without_intermediate	n/a	test	ward_and_allport	n/a	-1.0	39.0	n/a	n/a	feedback	s647
393.738	1.0	0	PA_without_intermediate	n/a	test	ward_and_allport	n/a	-1.0	39.0	n/a	n/a	ITI	s647
394.746	1.497	1	PA_with_intermediate	0,0,0,0,0,0,1,2,0	test	ward_and_allport	2,3,0,0,0,0,1,0,0	82.0	40.0	1.497	0,0,0,0,0,0,1,2,3	to_hand	s647
396.243	0.937	0	PA_with_intermediate	0,0,0,3,0,0,1,2,0	test	ward_and_allport	2,3,0,0,0,0,1,0,0	71.0	40.0	0.937	0,0,0,0,0,0,1,2,3	to_board	s647
397.188	0.496	0	PA_with_intermediate	0,0,0,3,0,0,1,0,0	test	ward_and_allport	2,3,0,0,0,0,1,0,0	82.0	40.0	0.496	0,0,0,0,0,0,1,2,3	to_hand	s647
397.686	0.367	0	PA_with_intermediate	2,0,0,3,0,0,1,0,0	test	ward_and_allport	2,3,0,0,0,0,1,0,0	89.0	40.0	0.367	0,0,0,0,0,0,1,2,3	to_board	s647
398.06	0.412	0	PA_with_intermediate	2,0,0,0,0,0,1,0,0	test	ward_and_allport	2,3,0,0,0,0,1,0,0	71.0	40.0	0.412	0,0,0,0,0,0,1,2,3	to_hand	s647
398.472	0.33	0	PA_with_intermediate	2,3,0,0,0,0,1,0,0	test	ward_and_allport	2,3,0,0,0,0,1,0,0	89.0	40.0	0.33	0,0,0,0,0,0,1,2,3	to_board	s647
398.811	1.0	0	PA_with_intermediate	n/a	test	ward_and_allport	n/a	-1.0	40.0	n/a	n/a	feedback	s647
399.811	1.544	0	PA_with_intermediate	n/a	test	ward_and_allport	n/a	-1.0	40.0	n/a	n/a	ITI	s647
401.362	0.935	1	PA_without_intermediate	0,0,0,0,0,0,1,2,0	test	ward_and_allport	3,1,0,2,0,0,0,0,0	82.0	41.0	0.935	0,0,0,0,0,0,1,2,3	to_hand	s647
402.298	0.355	0	PA_without_intermediate	3,0,0,0,0,0,1,2,0	test	ward_and_allport	3,1,0,2,0,0,0,0,0	89.0	41.0	0.355	0,0,0,0,0,0,1,2,3	to_board	s647
402.661	1.059	0	PA_without_intermediate	3,0,0,0,0,0,1,0,0	test	ward_and_allport	3,1,0,2,0,0,0,0,0	82.0	41.0	1.059	0,0,0,0,0,0,1,2,3	to_hand	s647
403.72	0.297	0	PA_without_intermediate	3,0,0,2,0,0,1,0,0	test	ward_and_allport	3,1,0,2,0,0,0,0,0	71.0	41.0	0.297	0,0,0,0,0,0,1,2,3	to_board	s647
404.025	0.412	0	PA_without_intermediate	3,0,0,2,0,0,0,0,0	test	ward_and_allport	3,1,0,2,0,0,0,0,0	82.0	41.0	0.412	0,0,0,0,0,0,1,2,3	to_hand	s647
404.438	0.264	0	PA_without_intermediate	3,1,0,2,0,0,0,0,0	test	ward_and_allport	3,1,0,2,0,0,0,0,0	89.0	41.0	0.264	0,0,0,0,0,0,1,2,3	to_board	s647
404.711	1.0	0	PA_without_intermediate	n/a	test	ward_and_allport	n/a	-1.0	41.0	n/a	n/a	feedback	s647
405.711	1.272	0	PA_without_intermediate	n/a	test	ward_and_allport	n/a	-1.0	41.0	n/a	n/a	ITI	s647
406.99	0.923	1	PA_with_intermediate	1,2,0,0,0,0,0,0,0	test	ward_and_allport	1,3,0,0,0,0,2,0,0	89.0	42.0	0.923	1,2,3,0,0,0,0,0,0	to_hand	s647
407.915	1.342	0	PA_with_intermediate	1,2,0,3,0,0,0,0,0	test	ward_and_allport	1,3,0,0,0,0,2,0,0	71.0	42.0	1.342	1,2,3,0,0,0,0,0,0	to_board	s647
409.265	0.453	0	PA_with_intermediate	1,0,0,3,0,0,0,0,0	test	ward_and_allport	1,3,0,0,0,0,2,0,0	89.0	42.0	0.453	1,2,3,0,0,0,0,0,0	to_hand	s647
409.719	0.505	0	PA_with_intermediate	1,0,0,3,0,0,2,0,0	test	ward_and_allport	1,3,0,0,0,0,2,0,0	82.0	42.0	0.505	1,2,3,0,0,0,0,0,0	to_board	s647
410.232	0.527	0	PA_with_intermediate	0,0,0,3,0,0,2,0,0	test	ward_and_allport	1,3,0,0,0,0,2,0,0	89.0	42.0	0.527	1,2,3,0,0,0,0,0,0	to_hand	s647
410.76	1.284	0	PA_with_intermediate	1,0,0,3,0,0,2,0,0	test	ward_and_allport	1,3,0,0,0,0,2,0,0	89.0	42.0	1.284	1,2,3,0,0,0,0,0,0	to_board	s647
412.05	0.358	0	PA_with_intermediate	1,0,0,0,0,0,2,0,0	test	ward_and_allport	1,3,0,0,0,0,2,0,0	71.0	42.0	0.358	1,2,3,0,0,0,0,0,0	to_hand	s647
412.41	0.303	0	PA_with_intermediate	1,3,0,0,0,0,2,0,0	test	ward_and_allport	1,3,0,0,0,0,2,0,0	89.0	42.0	0.303	1,2,3,0,0,0,0,0,0	to_board	s647
412.721	1.0	0	PA_with_intermediate	n/a	test	ward_and_allport	n/a	-1.0	42.0	n/a	n/a	feedback	s647
413.721	3.04	0	PA_with_intermediate	n/a	test	ward_and_allport	n/a	-1.0	42.0	n/a	n/a	ITI	s647
416.769	1.067	1	PA_with_intermediate	0,0,0,1,2,0,0,0,0	test	ward_and_allport	0,0,0,1,0,0,2,3,0	71.0	43.0	1.067	0,0,0,1,2,3,0,0,0	to_hand	s647
417.838	0.961	0	PA_with_intermediate	3,0,0,1,2,0,0,0,0	test	ward_and_allport	0,0,0,1,0,0,2,3,0	89.0	43.0	0.961	0,0,0,1,2,3,0,0,0	to_board	s647
418.81	0.454	0	PA_with_intermediate	3,0,0,1,0,0,0,0,0	test	ward_and_allport	0,0,0,1,0,0,2,3,0	71.0	43.0	0.454	0,0,0,1,2,3,0,0,0	to_hand	s647
419.265	0.421	0	PA_with_intermediate	3,0,0,1,0,0,2,0,0	test	ward_and_allport	0,0,0,1,0,0,2,3,0	82.0	43.0	0.421	0,0,0,1,2,3,0,0,0	to_board	s647
419.697	0.435	0	PA_with_intermediate	0,0,0,1,0,0,2,0,0	test	ward_and_allport	0,0,0,1,0,0,2,3,0	89.0	43.0	0.435	0,0,0,1,2,3,0,0,0	to_hand	s647
420.133	0.2	0	PA_with_intermediate	3,0,0,1,0,0,2,0,0	test	ward_and_allport	0,0,0,1,0,0,2,3,0	89.0	43.0	0.2	0,0,0,1,2,3,0,0,0	to_board	s647
420.343	0.465	0	PA_with_intermediate	3,0,0,1,0,0,0,0,0	test	ward_and_allport	0,0,0,1,0,0,2,3,0	82.0	43.0	0.465	0,0,0,1,2,3,0,0,0	to_hand	s647
420.81	1.383	0	PA_with_intermediate	3,0,0,1,2,0,0,0,0	test	ward_and_allport	0,0,0,1,0,0,2,3,0	71.0	43.0	1.383	0,0,0,1,2,3,0,0,0	to_board	s647
422.202	0.996	0	PA_with_intermediate	3,0,0,1,0,0,0,0,0	test	ward_and_allport	0,0,0,1,0,0,2,3,0	71.0	43.0	0.996	0,0,0,1,2,3,0,0,0	to_hand	s647
423.2	0.507	0	PA_with_intermediate	3,0,0,1,0,0,2,0,0	test	ward_and_allport	0,0,0,1,0,0,2,3,0	82.0	43.0	0.507	0,0,0,1,2,3,0,0,0	to_board	s647
423.716	0.382	0	PA_with_intermediate	0,0,0,1,0,0,2,0,0	test	ward_and_allport	0,0,0,1,0,0,2,3,0	89.0	43.0	0.382	0,0,0,1,2,3,0,0,0	to_hand	s647
424.098	0.601	0	PA_with_intermediate	0,0,0,1,0,0,2,3,0	test	ward_and_allport	0,0,0,1,0,0,2,3,0	82.0	43.0	0.601	0,0,0,1,2,3,0,0,0	to_board	s647
424.71	1.0	0	PA_with_intermediate	n/a	test	ward_and_allport	n/a	-1.0	43.0	n/a	n/a	feedback	s647
425.71	1.272	0	PA_with_intermediate	n/a	test	ward_and_allport	n/a	-1.0	43.0	n/a	n/a	ITI	s647
426.992	0.853	1	PA_with_intermediate	1,2,0,0,0,0,0,0,0	test	ward_and_allport	1,0,0,0,0,0,2,3,0	89.0	44.0	0.853	1,2,3,0,0,0,0,0,0	to_hand	s647
427.847	0.891	0	PA_with_intermediate	1,2,0,3,0,0,0,0,0	test	ward_and_allport	1,0,0,0,0,0,2,3,0	71.0	44.0	0.891	1,2,3,0,0,0,0,0,0	to_board	s647
428.746	0.465	0	PA_with_intermediate	1,0,0,3,0,0,0,0,0	test	ward_and_allport	1,0,0,0,0,0,2,3,0	89.0	44.0	0.465	1,2,3,0,0,0,0,0,0	to_hand	s647
429.213	0.564	0	PA_with_intermediate	1,0,0,3,0,0,2,0,0	test	ward_and_allport	1,0,0,0,0,0,2,3,0	82.0	44.0	0.564	1,2,3,0,0,0,0,0,0	to_board	s647
429.786	0.436	0	PA_with_intermediate	1,0,0,0,0,0,2,0,0	test	ward_and_allport	1,0,0,0,0,0,2,3,0	71.0	44.0	0.436	1,2,3,0,0,0,0,0,0	to_hand	s647
430.223	0.417	0	PA_with_intermediate	1,0,0,0,0,0,2,3,0	test	ward_and_allport	1,0,0,0,0,0,2,3,0	82.0	44.0	0.417	1,2,3,0,0,0,0,0,0	to_board	s647
430.649	1.0	0	PA_with_intermediate	n/a	test	ward_and_allport	n/a	-1.0	44.0	n/a	n/a	feedback	s647
431.649	1.136	0	PA_with_intermediate	n/a	test	ward_and_allport	n/a	-1.0	44.0	n/a	n/a	ITI	s647
437.794	1.461	1	PA_with_intermediate	0,0,0,1,2,0,0,0,0	test	ward_and_allport	0,0,0,1,0,0,2,3,0	71.0	45.0	1.461	0,0,0,1,2,3,0,0,0	to_hand	s647
439.256	0.777	0	PA_with_intermediate	3,0,0,1,2,0,0,0,0	test	ward_and_allport	0,0,0,1,0,0,2,3,0	89.0	45.0	0.777	0,0,0,1,2,3,0,0,0	to_board	s647
440.042	0.441	0	PA_with_intermediate	3,0,0,1,0,0,0,0,0	test	ward_and_allport	0,0,0,1,0,0,2,3,0	71.0	45.0	0.441	0,0,0,1,2,3,0,0,0	to_hand	s647
440.484	0.388	0	PA_with_intermediate	3,0,0,1,0,0,2,0,0	test	ward_and_allport	0,0,0,1,0,0,2,3,0	82.0	45.0	0.388	0,0,0,1,2,3,0,0,0	to_board	s647
440.884	0.506	0	PA_with_intermediate	0,0,0,1,0,0,2,0,0	test	ward_and_allport	0,0,0,1,0,0,2,3,0	89.0	45.0	0.506	0,0,0,1,2,3,0,0,0	to_hand	s647
441.392	0.407	0	PA_with_intermediate	0,0,0,1,0,0,2,3,0	test	ward_and_allport	0,0,0,1,0,0,2,3,0	82.0	45.0	0.407	0,0,0,1,2,3,0,0,0	to_board	s647
441.813	1.0	0	PA_with_intermediate	n/a	test	ward_and_allport	n/a	-1.0	45.0	n/a	n/a	feedback	s647
442.813	1.0	0	PA_with_intermediate	n/a	test	ward_and_allport	n/a	-1.0	45.0	n/a	n/a	ITI	s647
443.824	0.94	1	PA_with_intermediate	1,2,0,0,0,0,0,0,0	test	ward_and_allport	1,0,0,2,3,0,0,0,0	89.0	46.0	0.94	1,2,3,0,0,0,0,0,0	to_hand	s647
444.765	2.077	0	PA_with_intermediate	1,2,0,0,0,0,3,0,0	test	ward_and_allport	1,0,0,2,3,0,0,0,0	82.0	46.0	2.077	1,2,3,0,0,0,0,0,0	to_board	s647
446.853	0.933	0	PA_with_intermediate	1,0,0,0,0,0,3,0,0	test	ward_and_allport	1,0,0,2,3,0,0,0,0	89.0	46.0	0.933	1,2,3,0,0,0,0,0,0	to_hand	s647
447.786	0.502	0	PA_with_intermediate	1,0,0,2,0,0,3,0,0	test	ward_and_allport	1,0,0,2,3,0,0,0,0	71.0	46.0	0.502	1,2,3,0,0,0,0,0,0	to_board	s647
448.298	0.444	0	PA_with_intermediate	1,0,0,2,0,0,0,0,0	test	ward_and_allport	1,0,0,2,3,0,0,0,0	82.0	46.0	0.444	1,2,3,0,0,0,0,0,0	to_hand	s647
448.744	0.288	0	PA_with_intermediate	1,0,0,2,3,0,0,0,0	test	ward_and_allport	1,0,0,2,3,0,0,0,0	71.0	46.0	0.288	1,2,3,0,0,0,0,0,0	to_board	s647
449.041	1.0	0	PA_with_intermediate	n/a	test	ward_and_allport	n/a	-1.0	46.0	n/a	n/a	feedback	s647
450.041	1.0	0	PA_with_intermediate	n/a	test	ward_and_allport	n/a	-1.0	46.0	n/a	n/a	ITI	s647
451.052	1.305	1	PA_without_intermediate	0,0,0,1,2,0,0,0,0	test	ward_and_allport	3,2,0,0,0,0,1,0,0	71.0	47.0	1.305	0,0,0,1,2,3,0,0,0	to_hand	s647
452.357	0.588	0	PA_without_intermediate	3,0,0,1,2,0,0,0,0	test	ward_and_allport	3,2,0,0,0,0,1,0,0	89.0	47.0	0.588	0,0,0,1,2,3,0,0,0	to_board	s647
452.955	0.358	0	PA_without_intermediate	3,0,0,1,0,0,0,0,0	test	ward_and_allport	3,2,0,0,0,0,1,0,0	71.0	47.0	0.358	0,0,0,1,2,3,0,0,0	to_hand	s647
453.314	0.317	0	PA_without_intermediate	3,2,0,1,0,0,0,0,0	test	ward_and_allport	3,2,0,0,0,0,1,0,0	89.0	47.0	0.317	0,0,0,1,2,3,0,0,0	to_board	s647
453.639	0.389	0	PA_without_intermediate	3,2,0,0,0,0,0,0,0	test	ward_and_allport	3,2,0,0,0,0,1,0,0	71.0	47.0	0.389	0,0,0,1,2,3,0,0,0	to_hand	s647
454.029	0.449	0	PA_without_intermediate	3,2,0,0,0,0,1,0,0	test	ward_and_allport	3,2,0,0,0,0,1,0,0	82.0	47.0	0.449	0,0,0,1,2,3,0,0,0	to_board	s647
454.488	1.0	0	PA_without_intermediate	n/a	test	ward_and_allport	n/a	-1.0	47.0	n/a	n/a	feedback	s647
455.488	1.408	0	PA_without_intermediate	n/a	test	ward_and_allport	n/a	-1.0	47.0	n/a	n/a	ITI	s647
n/a	n/a	0	n/a	n/a	n/a	n/a	n/a	n/a	n/a	n/a	n/a	ITI	n/a
