onset	duration	planning	condition	current_position	exp_stage	experiment_exp_id	goal_state	key_press	problem_id	response_time	start_state	trial_id	worker_id
-61.949	0.0	0	n/a	n/a	n/a	ward_and_allport	n/a	32.0	n/a	9.537	n/a	instructions	s234
3.009	4.509	1	UA_with_intermediate	1,0,0,2,0,0,0,0,0	practice	ward_and_allport	1,2,3,0,0,0,0,0,0	71.0	0.0	4.509	1,0,0,2,3,0,0,0,0	to_hand	s234
7.519	0.89	0	UA_with_intermediate	1,0,0,2,3,0,0,0,0	practice	ward_and_allport	1,2,3,0,0,0,0,0,0	71.0	0.0	0.89	1,0,0,2,3,0,0,0,0	to_board	s234
8.412	0.477	0	UA_with_intermediate	1,0,0,2,0,0,0,0,0	practice	ward_and_allport	1,2,3,0,0,0,0,0,0	71.0	0.0	0.477	1,0,0,2,3,0,0,0,0	to_hand	s234
8.89	0.633	0	UA_with_intermediate	1,0,0,2,0,0,3,0,0	practice	ward_and_allport	1,2,3,0,0,0,0,0,0	82.0	0.0	0.633	1,0,0,2,3,0,0,0,0	to_board	s234
9.524	0.717	0	UA_with_intermediate	1,0,0,0,0,0,3,0,0	practice	ward_and_allport	1,2,3,0,0,0,0,0,0	71.0	0.0	0.717	1,0,0,2,3,0,0,0,0	to_hand	s234
10.242	0.918	0	UA_with_intermediate	1,2,0,0,0,0,3,0,0	practice	ward_and_allport	1,2,3,0,0,0,0,0,0	89.0	0.0	0.918	1,0,0,2,3,0,0,0,0	to_board	s234
11.162	0.776	0	UA_with_intermediate	1,2,0,0,0,0,0,0,0	practice	ward_and_allport	1,2,3,0,0,0,0,0,0	82.0	0.0	0.776	1,0,0,2,3,0,0,0,0	to_hand	s234
11.939	0.579	0	UA_with_intermediate	1,2,3,0,0,0,0,0,0	practice	ward_and_allport	1,2,3,0,0,0,0,0,0	89.0	0.0	0.579	1,0,0,2,3,0,0,0,0	to_board	s234
12.521	1.0	0	UA_with_intermediate	n/a	practice	ward_and_allport	n/a	-1.0	0.0	n/a	n/a	feedback	s234
15.023	4.713	1	UA_with_intermediate	1,0,0,3,0,0,0,0,0	practice	ward_and_allport	1,3,2,0,0,0,0,0,0	89.0	1.0	4.713	1,2,0,3,0,0,0,0,0	to_hand	s234
19.736	0.534	0	UA_with_intermediate	1,0,0,3,0,0,2,0,0	practice	ward_and_allport	1,3,2,0,0,0,0,0,0	82.0	1.0	0.534	1,2,0,3,0,0,0,0,0	to_board	s234
20.271	0.742	0	UA_with_intermediate	1,0,0,0,0,0,2,0,0	practice	ward_and_allport	1,3,2,0,0,0,0,0,0	71.0	1.0	0.742	1,2,0,3,0,0,0,0,0	to_hand	s234
21.014	0.379	0	UA_with_intermediate	1,3,0,0,0,0,2,0,0	practice	ward_and_allport	1,3,2,0,0,0,0,0,0	89.0	1.0	0.379	1,2,0,3,0,0,0,0,0	to_board	s234
21.395	0.651	0	UA_with_intermediate	1,3,0,0,0,0,0,0,0	practice	ward_and_allport	1,3,2,0,0,0,0,0,0	82.0	1.0	0.651	1,2,0,3,0,0,0,0,0	to_hand	s234
22.046	0.306	0	UA_with_intermediate	1,3,2,0,0,0,0,0,0	practice	ward_and_allport	1,3,2,0,0,0,0,0,0	89.0	1.0	0.306	1,2,0,3,0,0,0,0,0	to_board	s234
22.355	1.0	0	UA_with_intermediate	n/a	practice	ward_and_allport	n/a	-1.0	1.0	n/a	n/a	feedback	s234
23.355	1.1	0	UA_with_intermediate	n/a	practice	ward_and_allport	n/a	-1.0	1.0	n/a	n/a	ITI	s234
24.456	2.843	1	UA_without_intermediate	0,0,0,1,2,0,0,0,0	practice	ward_and_allport	3,2,1,0,0,0,0,0,0	82.0	2.0	2.843	0,0,0,1,2,0,3,0,0	to_hand	s234
27.3	0.348	0	UA_without_intermediate	3,0,0,1,2,0,0,0,0	practice	ward_and_allport	3,2,1,0,0,0,0,0,0	89.0	2.0	0.348	0,0,0,1,2,0,3,0,0	to_board	s234
27.652	0.671	0	UA_without_intermediate	3,0,0,1,0,0,0,0,0	practice	ward_and_allport	3,2,1,0,0,0,0,0,0	71.0	2.0	0.671	0,0,0,1,2,0,3,0,0	to_hand	s234
28.323	0.353	0	UA_without_intermediate	3,2,0,1,0,0,0,0,0	practice	ward_and_allport	3,2,1,0,0,0,0,0,0	89.0	2.0	0.353	0,0,0,1,2,0,3,0,0	to_board	s234
28.678	0.641	0	UA_without_intermediate	3,2,0,0,0,0,0,0,0	practice	ward_and_allport	3,2,1,0,0,0,0,0,0	71.0	2.0	0.641	0,0,0,1,2,0,3,0,0	to_hand	s234
29.32	0.299	0	UA_without_intermediate	3,2,1,0,0,0,0,0,0	practice	ward_and_allport	3,2,1,0,0,0,0,0,0	89.0	2.0	0.299	0,0,0,1,2,0,3,0,0	to_board	s234
29.622	1.0	0	UA_without_intermediate	n/a	practice	ward_and_allport	n/a	-1.0	2.0	n/a	n/a	feedback	s234
30.622	1.2	0	UA_without_intermediate	n/a	practice	ward_and_allport	n/a	-1.0	2.0	n/a	n/a	ITI	s234
31.823	2.142	1	UA_without_intermediate	0,0,0,1,0,0,3,0,0	practice	ward_and_allport	2,3,1,0,0,0,0,0,0	71.0	3.0	2.142	0,0,0,1,2,0,3,0,0	to_hand	s234
33.967	0.411	0	UA_without_intermediate	2,0,0,1,0,0,3,0,0	practice	ward_and_allport	2,3,1,0,0,0,0,0,0	89.0	3.0	0.411	0,0,0,1,2,0,3,0,0	to_board	s234
34.381	0.868	0	UA_without_intermediate	2,0,0,1,0,0,0,0,0	practice	ward_and_allport	2,3,1,0,0,0,0,0,0	82.0	3.0	0.868	0,0,0,1,2,0,3,0,0	to_hand	s234
35.249	0.377	0	UA_without_intermediate	2,3,0,1,0,0,0,0,0	practice	ward_and_allport	2,3,1,0,0,0,0,0,0	89.0	3.0	0.377	0,0,0,1,2,0,3,0,0	to_board	s234
35.628	0.44	0	UA_without_intermediate	2,3,0,0,0,0,0,0,0	practice	ward_and_allport	2,3,1,0,0,0,0,0,0	71.0	3.0	0.44	0,0,0,1,2,0,3,0,0	to_hand	s234
36.069	0.292	0	UA_without_intermediate	2,3,1,0,0,0,0,0,0	practice	ward_and_allport	2,3,1,0,0,0,0,0,0	89.0	3.0	0.292	0,0,0,1,2,0,3,0,0	to_board	s234
36.364	1.0	0	UA_without_intermediate	n/a	practice	ward_and_allport	n/a	-1.0	3.0	n/a	n/a	feedback	s234
37.364	1.0	0	UA_without_intermediate	n/a	practice	ward_and_allport	n/a	-1.0	3.0	n/a	n/a	ITI	s234
40.371	5.061	1	PA_with_intermediate	1,2,0,0,0,0,0,0,0	test	ward_and_allport	1,3,0,2,0,0,0,0,0	89.0	0.0	5.061	1,2,3,0,0,0,0,0,0	to_hand	s234
45.433	0.412	0	PA_with_intermediate	1,2,0,0,0,0,3,0,0	test	ward_and_allport	1,3,0,2,0,0,0,0,0	82.0	0.0	0.412	1,2,3,0,0,0,0,0,0	to_board	s234
45.847	5.163	0	PA_with_intermediate	1,0,0,0,0,0,3,0,0	test	ward_and_allport	1,3,0,2,0,0,0,0,0	89.0	0.0	5.163	1,2,3,0,0,0,0,0,0	to_hand	s234
51.011	0.471	0	PA_with_intermediate	1,0,0,2,0,0,3,0,0	test	ward_and_allport	1,3,0,2,0,0,0,0,0	71.0	0.0	0.471	1,2,3,0,0,0,0,0,0	to_board	s234
51.484	0.474	0	PA_with_intermediate	1,0,0,2,0,0,0,0,0	test	ward_and_allport	1,3,0,2,0,0,0,0,0	82.0	0.0	0.474	1,2,3,0,0,0,0,0,0	to_hand	s234
51.959	0.259	0	PA_with_intermediate	1,3,0,2,0,0,0,0,0	test	ward_and_allport	1,3,0,2,0,0,0,0,0	89.0	0.0	0.259	1,2,3,0,0,0,0,0,0	to_board	s234
52.221	1.0	0	PA_with_intermediate	n/a	test	ward_and_allport	n/a	-1.0	0.0	n/a	n/a	feedback	s234
53.221	3.176	0	PA_with_intermediate	n/a	test	ward_and_allport	n/a	-1.0	0.0	n/a	n/a	ITI	s234
56.398	3.237	1	PA_with_intermediate	0,0,0,0,0,0,1,2,0	test	ward_and_allport	0,0,0,2,3,0,1,0,0	82.0	1.0	3.237	0,0,0,0,0,0,1,2,3	to_hand	s234
59.636	0.514	0	PA_with_intermediate	3,0,0,0,0,0,1,2,0	test	ward_and_allport	0,0,0,2,3,0,1,0,0	89.0	1.0	0.514	0,0,0,0,0,0,1,2,3	to_board	s234
60.152	1.76	0	PA_with_intermediate	3,0,0,0,0,0,1,0,0	test	ward_and_allport	0,0,0,2,3,0,1,0,0	82.0	1.0	1.76	0,0,0,0,0,0,1,2,3	to_hand	s234
61.914	0.495	0	PA_with_intermediate	3,0,0,2,0,0,1,0,0	test	ward_and_allport	0,0,0,2,3,0,1,0,0	71.0	1.0	0.495	0,0,0,0,0,0,1,2,3	to_board	s234
62.41	0.704	0	PA_with_intermediate	0,0,0,2,0,0,1,0,0	test	ward_and_allport	0,0,0,2,3,0,1,0,0	89.0	1.0	0.704	0,0,0,0,0,0,1,2,3	to_hand	s234
63.114	0.432	0	PA_with_intermediate	0,0,0,2,3,0,1,0,0	test	ward_and_allport	0,0,0,2,3,0,1,0,0	71.0	1.0	0.432	0,0,0,0,0,0,1,2,3	to_board	s234
63.549	1.0	0	PA_with_intermediate	n/a	test	ward_and_allport	n/a	-1.0	1.0	n/a	n/a	feedback	s234
64.549	2.36	0	PA_with_intermediate	n/a	test	ward_and_allport	n/a	-1.0	1.0	n/a	n/a	ITI	s234
66.912	2.156	1	PA_with_intermediate	0,0,0,1,2,0,0,0,0	test	ward_and_allport	2,3,0,1,0,0,0,0,0	71.0	2.0	2.156	0,0,0,1,2,3,0,0,0	to_hand	s234
69.069	0.492	0	PA_with_intermediate	0,0,0,1,2,0,3,0,0	test	ward_and_allport	2,3,0,1,0,0,0,0,0	82.0	2.0	0.492	0,0,0,1,2,3,0,0,0	to_board	s234
69.564	0.858	0	PA_with_intermediate	0,0,0,1,0,0,3,0,0	test	ward_and_allport	2,3,0,1,0,0,0,0,0	71.0	2.0	0.858	0,0,0,1,2,3,0,0,0	to_hand	s234
70.423	0.327	0	PA_with_intermediate	2,0,0,1,0,0,3,0,0	test	ward_and_allport	2,3,0,1,0,0,0,0,0	89.0	2.0	0.327	0,0,0,1,2,3,0,0,0	to_board	s234
70.753	0.486	0	PA_with_intermediate	2,0,0,1,0,0,0,0,0	test	ward_and_allport	2,3,0,1,0,0,0,0,0	82.0	2.0	0.486	0,0,0,1,2,3,0,0,0	to_hand	s234
71.239	0.365	0	PA_with_intermediate	2,3,0,1,0,0,0,0,0	test	ward_and_allport	2,3,0,1,0,0,0,0,0	89.0	2.0	0.365	0,0,0,1,2,3,0,0,0	to_board	s234
71.608	1.0	0	PA_with_intermediate	n/a	test	ward_and_allport	n/a	-1.0	2.0	n/a	n/a	feedback	s234
72.608	1.0	0	PA_with_intermediate	n/a	test	ward_and_allport	n/a	-1.0	2.0	n/a	n/a	ITI	s234
73.611	1.321	1	PA_without_intermediate	0,0,0,0,0,0,1,2,0	test	ward_and_allport	3,2,0,1,0,0,0,0,0	82.0	3.0	1.321	0,0,0,0,0,0,1,2,3	to_hand	s234
74.933	0.372	0	PA_without_intermediate	3,0,0,0,0,0,1,2,0	test	ward_and_allport	3,2,0,1,0,0,0,0,0	89.0	3.0	0.372	0,0,0,0,0,0,1,2,3	to_board	s234
75.308	1.572	0	PA_without_intermediate	3,0,0,0,0,0,1,0,0	test	ward_and_allport	3,2,0,1,0,0,0,0,0	82.0	3.0	1.572	0,0,0,0,0,0,1,2,3	to_hand	s234
76.881	0.442	0	PA_without_intermediate	3,2,0,0,0,0,1,0,0	test	ward_and_allport	3,2,0,1,0,0,0,0,0	89.0	3.0	0.442	0,0,0,0,0,0,1,2,3	to_board	s234
77.325	0.549	0	PA_without_intermediate	3,2,0,0,0,0,0,0,0	test	ward_and_allport	3,2,0,1,0,0,0,0,0	82.0	3.0	0.549	0,0,0,0,0,0,1,2,3	to_hand	s234
77.875	0.309	0	PA_without_intermediate	3,2,0,1,0,0,0,0,0	test	ward_and_allport	3,2,0,1,0,0,0,0,0	71.0	3.0	0.309	0,0,0,0,0,0,1,2,3	to_board	s234
78.188	1.0	0	PA_without_intermediate	n/a	test	ward_and_allport	n/a	-1.0	3.0	n/a	n/a	feedback	s234
79.188	1.408	0	PA_without_intermediate	n/a	test	ward_and_allport	n/a	-1.0	3.0	n/a	n/a	ITI	s234
80.599	2.133	1	PA_with_intermediate	1,2,0,0,0,0,0,0,0	test	ward_and_allport	1,0,0,2,3,0,0,0,0	89.0	4.0	2.133	1,2,3,0,0,0,0,0,0	to_hand	s234
82.733	0.431	0	PA_with_intermediate	1,2,0,0,0,0,3,0,0	test	ward_and_allport	1,0,0,2,3,0,0,0,0	82.0	4.0	0.431	1,2,3,0,0,0,0,0,0	to_board	s234
83.166	0.667	0	PA_with_intermediate	1,0,0,0,0,0,3,0,0	test	ward_and_allport	1,0,0,2,3,0,0,0,0	89.0	4.0	0.667	1,2,3,0,0,0,0,0,0	to_hand	s234
83.835	0.374	0	PA_with_intermediate	1,0,0,2,0,0,3,0,0	test	ward_and_allport	1,0,0,2,3,0,0,0,0	71.0	4.0	0.374	1,2,3,0,0,0,0,0,0	to_board	s234
84.212	0.353	0	PA_with_intermediate	1,0,0,2,0,0,0,0,0	test	ward_and_allport	1,0,0,2,3,0,0,0,0	82.0	4.0	0.353	1,2,3,0,0,0,0,0,0	to_hand	s234
84.565	0.404	0	PA_with_intermediate	1,0,0,2,3,0,0,0,0	test	ward_and_allport	1,0,0,2,3,0,0,0,0	71.0	4.0	0.404	1,2,3,0,0,0,0,0,0	to_board	s234
84.973	1.0	0	PA_with_intermediate	n/a	test	ward_and_allport	n/a	-1.0	4.0	n/a	n/a	feedback	s234
85.973	1.816	0	PA_with_intermediate	n/a	test	ward_and_allport	n/a	-1.0	4.0	n/a	n/a	ITI	s234
87.793	1.626	1	PA_without_intermediate	0,0,0,1,2,0,0,0,0	test	ward_and_allport	3,1,0,0,0,0,2,0,0	71.0	5.0	1.626	0,0,0,1,2,3,0,0,0	to_hand	s234
89.42	0.49	0	PA_without_intermediate	3,0,0,1,2,0,0,0,0	test	ward_and_allport	3,1,0,0,0,0,2,0,0	89.0	5.0	0.49	0,0,0,1,2,3,0,0,0	to_board	s234
89.913	0.777	0	PA_without_intermediate	3,0,0,1,0,0,0,0,0	test	ward_and_allport	3,1,0,0,0,0,2,0,0	71.0	5.0	0.777	0,0,0,1,2,3,0,0,0	to_hand	s234
90.691	0.419	0	PA_without_intermediate	3,0,0,1,0,0,2,0,0	test	ward_and_allport	3,1,0,0,0,0,2,0,0	82.0	5.0	0.419	0,0,0,1,2,3,0,0,0	to_board	s234
91.112	0.469	0	PA_without_intermediate	3,0,0,0,0,0,2,0,0	test	ward_and_allport	3,1,0,0,0,0,2,0,0	71.0	5.0	0.469	0,0,0,1,2,3,0,0,0	to_hand	s234
91.582	0.383	0	PA_without_intermediate	3,1,0,0,0,0,2,0,0	test	ward_and_allport	3,1,0,0,0,0,2,0,0	89.0	5.0	0.383	0,0,0,1,2,3,0,0,0	to_board	s234
91.969	1.0	0	PA_without_intermediate	n/a	test	ward_and_allport	n/a	-1.0	5.0	n/a	n/a	feedback	s234
92.969	2.088	0	PA_without_intermediate	n/a	test	ward_and_allport	n/a	-1.0	5.0	n/a	n/a	ITI	s234
95.06	1.404	1	PA_without_intermediate	1,2,0,0,0,0,0,0,0	test	ward_and_allport	0,0,0,2,0,0,3,1,0	89.0	6.0	1.404	1,2,3,0,0,0,0,0,0	to_hand	s234
96.466	0.474	0	PA_without_intermediate	1,2,0,0,0,0,3,0,0	test	ward_and_allport	0,0,0,2,0,0,3,1,0	82.0	6.0	0.474	1,2,3,0,0,0,0,0,0	to_board	s234
96.943	1.127	0	PA_without_intermediate	1,0,0,0,0,0,3,0,0	test	ward_and_allport	0,0,0,2,0,0,3,1,0	89.0	6.0	1.127	1,2,3,0,0,0,0,0,0	to_hand	s234
98.07	0.334	0	PA_without_intermediate	1,0,0,2,0,0,3,0,0	test	ward_and_allport	0,0,0,2,0,0,3,1,0	71.0	6.0	0.334	1,2,3,0,0,0,0,0,0	to_board	s234
98.408	0.621	0	PA_without_intermediate	0,0,0,2,0,0,3,0,0	test	ward_and_allport	0,0,0,2,0,0,3,1,0	89.0	6.0	0.621	1,2,3,0,0,0,0,0,0	to_hand	s234
99.029	0.293	0	PA_without_intermediate	0,0,0,2,0,0,3,1,0	test	ward_and_allport	0,0,0,2,0,0,3,1,0	82.0	6.0	0.293	1,2,3,0,0,0,0,0,0	to_board	s234
99.326	1.0	0	PA_without_intermediate	n/a	test	ward_and_allport	n/a	-1.0	6.0	n/a	n/a	feedback	s234
100.326	1.136	0	PA_without_intermediate	n/a	test	ward_and_allport	n/a	-1.0	6.0	n/a	n/a	ITI	s234
101.466	1.306	1	PA_without_intermediate	0,0,0,1,2,0,0,0,0	test	ward_and_allport	3,2,0,0,0,0,1,0,0	71.0	7.0	1.306	0,0,0,1,2,3,0,0,0	to_hand	s234
102.772	0.365	0	PA_without_intermediate	3,0,0,1,2,0,0,0,0	test	ward_and_allport	3,2,0,0,0,0,1,0,0	89.0	7.0	0.365	0,0,0,1,2,3,0,0,0	to_board	s234
103.14	0.456	0	PA_without_intermediate	3,0,0,1,0,0,0,0,0	test	ward_and_allport	3,2,0,0,0,0,1,0,0	71.0	7.0	0.456	0,0,0,1,2,3,0,0,0	to_hand	s234
103.597	0.3	0	PA_without_intermediate	3,2,0,1,0,0,0,0,0	test	ward_and_allport	3,2,0,0,0,0,1,0,0	89.0	7.0	0.3	0,0,0,1,2,3,0,0,0	to_board	s234
103.901	0.423	0	PA_without_intermediate	3,2,0,0,0,0,0,0,0	test	ward_and_allport	3,2,0,0,0,0,1,0,0	71.0	7.0	0.423	0,0,0,1,2,3,0,0,0	to_hand	s234
104.324	0.294	0	PA_without_intermediate	3,2,0,0,0,0,1,0,0	test	ward_and_allport	3,2,0,0,0,0,1,0,0	82.0	7.0	0.294	0,0,0,1,2,3,0,0,0	to_board	s234
104.622	1.0	0	PA_without_intermediate	n/a	test	ward_and_allport	n/a	-1.0	7.0	n/a	n/a	feedback	s234
105.622	6.168	0	PA_without_intermediate	n/a	test	ward_and_allport	n/a	-1.0	7.0	n/a	n/a	ITI	s234
111.794	1.287	1	PA_without_intermediate	0,0,0,1,2,0,0,0,0	test	ward_and_allport	3,1,0,0,0,0,2,0,0	71.0	8.0	1.287	0,0,0,1,2,3,0,0,0	to_hand	s234
113.083	0.293	0	PA_without_intermediate	3,0,0,1,2,0,0,0,0	test	ward_and_allport	3,1,0,0,0,0,2,0,0	89.0	8.0	0.293	0,0,0,1,2,3,0,0,0	to_board	s234
113.379	0.459	0	PA_without_intermediate	3,0,0,1,0,0,0,0,0	test	ward_and_allport	3,1,0,0,0,0,2,0,0	71.0	8.0	0.459	0,0,0,1,2,3,0,0,0	to_hand	s234
113.839	0.291	0	PA_without_intermediate	3,0,0,1,0,0,2,0,0	test	ward_and_allport	3,1,0,0,0,0,2,0,0	82.0	8.0	0.291	0,0,0,1,2,3,0,0,0	to_board	s234
114.133	0.364	0	PA_without_intermediate	3,0,0,0,0,0,2,0,0	test	ward_and_allport	3,1,0,0,0,0,2,0,0	71.0	8.0	0.364	0,0,0,1,2,3,0,0,0	to_hand	s234
114.498	0.241	0	PA_without_intermediate	3,1,0,0,0,0,2,0,0	test	ward_and_allport	3,1,0,0,0,0,2,0,0	89.0	8.0	0.241	0,0,0,1,2,3,0,0,0	to_board	s234
114.744	1.0	0	PA_without_intermediate	n/a	test	ward_and_allport	n/a	-1.0	8.0	n/a	n/a	feedback	s234
115.744	1.816	0	PA_without_intermediate	n/a	test	ward_and_allport	n/a	-1.0	8.0	n/a	n/a	ITI	s234
117.564	3.471	1	PA_with_intermediate	0,0,0,0,0,0,1,2,0	test	ward_and_allport	0,0,0,2,0,0,1,3,0	82.0	9.0	3.471	0,0,0,0,0,0,1,2,3	to_hand	s234
121.036	0.357	0	PA_with_intermediate	3,0,0,0,0,0,1,2,0	test	ward_and_allport	0,0,0,2,0,0,1,3,0	89.0	9.0	0.357	0,0,0,0,0,0,1,2,3	to_board	s234
121.396	1.243	0	PA_with_intermediate	3,0,0,0,0,0,1,0,0	test	ward_and_allport	0,0,0,2,0,0,1,3,0	82.0	9.0	1.243	0,0,0,0,0,0,1,2,3	to_hand	s234
122.64	0.276	0	PA_with_intermediate	3,0,0,2,0,0,1,0,0	test	ward_and_allport	0,0,0,2,0,0,1,3,0	71.0	9.0	0.276	0,0,0,0,0,0,1,2,3	to_board	s234
122.92	0.419	0	PA_with_intermediate	0,0,0,2,0,0,1,0,0	test	ward_and_allport	0,0,0,2,0,0,1,3,0	89.0	9.0	0.419	0,0,0,0,0,0,1,2,3	to_hand	s234
123.339	0.237	0	PA_with_intermediate	0,0,0,2,0,0,1,3,0	test	ward_and_allport	0,0,0,2,0,0,1,3,0	82.0	9.0	0.237	0,0,0,0,0,0,1,2,3	to_board	s234
123.58	1.0	0	PA_with_intermediate	n/a	test	ward_and_allport	n/a	-1.0	9.0	n/a	n/a	feedback	s234
124.58	1.952	0	PA_with_intermediate	n/a	test	ward_and_allport	n/a	-1.0	9.0	n/a	n/a	ITI	s234
126.536	2.21	1	PA_with_intermediate	0,0,0,0,0,0,1,2,0	test	ward_and_allport	0,0,0,2,0,0,1,3,0	82.0	10.0	2.21	0,0,0,0,0,0,1,2,3	to_hand	s234
128.748	0.411	0	PA_with_intermediate	3,0,0,0,0,0,1,2,0	test	ward_and_allport	0,0,0,2,0,0,1,3,0	89.0	10.0	0.411	0,0,0,0,0,0,1,2,3	to_board	s234
129.162	0.536	0	PA_with_intermediate	3,0,0,0,0,0,1,0,0	test	ward_and_allport	0,0,0,2,0,0,1,3,0	82.0	10.0	0.536	0,0,0,0,0,0,1,2,3	to_hand	s234
129.7	0.338	0	PA_with_intermediate	3,0,0,2,0,0,1,0,0	test	ward_and_allport	0,0,0,2,0,0,1,3,0	71.0	10.0	0.338	0,0,0,0,0,0,1,2,3	to_board	s234
130.042	0.455	0	PA_with_intermediate	0,0,0,2,0,0,1,0,0	test	ward_and_allport	0,0,0,2,0,0,1,3,0	89.0	10.0	0.455	0,0,0,0,0,0,1,2,3	to_hand	s234
130.497	0.319	0	PA_with_intermediate	0,0,0,2,0,0,1,3,0	test	ward_and_allport	0,0,0,2,0,0,1,3,0	82.0	10.0	0.319	0,0,0,0,0,0,1,2,3	to_board	s234
130.823	1.0	0	PA_with_intermediate	n/a	test	ward_and_allport	n/a	-1.0	10.0	n/a	n/a	feedback	s234
131.823	1.136	0	PA_with_intermediate	n/a	test	ward_and_allport	n/a	-1.0	10.0	n/a	n/a	ITI	s234
132.964	1.892	1	PA_without_intermediate	1,2,0,0,0,0,0,0,0	test	ward_and_allport	0,0,0,3,2,0,1,0,0	89.0	11.0	1.892	1,2,3,0,0,0,0,0,0	to_hand	s234
134.857	0.44	0	PA_without_intermediate	1,2,0,3,0,0,0,0,0	test	ward_and_allport	0,0,0,3,2,0,1,0,0	71.0	11.0	0.44	1,2,3,0,0,0,0,0,0	to_board	s234
135.301	0.658	0	PA_without_intermediate	1,0,0,3,0,0,0,0,0	test	ward_and_allport	0,0,0,3,2,0,1,0,0	89.0	11.0	0.658	1,2,3,0,0,0,0,0,0	to_hand	s234
135.96	0.302	0	PA_without_intermediate	1,0,0,3,2,0,0,0,0	test	ward_and_allport	0,0,0,3,2,0,1,0,0	71.0	11.0	0.302	1,2,3,0,0,0,0,0,0	to_board	s234
136.266	0.344	0	PA_without_intermediate	0,0,0,3,2,0,0,0,0	test	ward_and_allport	0,0,0,3,2,0,1,0,0	89.0	11.0	0.344	1,2,3,0,0,0,0,0,0	to_hand	s234
136.612	0.262	0	PA_without_intermediate	0,0,0,3,2,0,1,0,0	test	ward_and_allport	0,0,0,3,2,0,1,0,0	82.0	11.0	0.262	1,2,3,0,0,0,0,0,0	to_board	s234
136.879	1.0	0	PA_without_intermediate	n/a	test	ward_and_allport	n/a	-1.0	11.0	n/a	n/a	feedback	s234
137.879	1.68	0	PA_without_intermediate	n/a	test	ward_and_allport	n/a	-1.0	11.0	n/a	n/a	ITI	s234
139.563	0.85	1	PA_without_intermediate	1,2,0,0,0,0,0,0,0	test	ward_and_allport	0,0,0,1,0,0,3,2,0	89.0	12.0	0.85	1,2,3,0,0,0,0,0,0	to_hand	s234
140.414	0.237	0	PA_without_intermediate	1,2,0,0,0,0,3,0,0	test	ward_and_allport	0,0,0,1,0,0,3,2,0	82.0	12.0	0.237	1,2,3,0,0,0,0,0,0	to_board	s234
140.656	1.435	0	PA_without_intermediate	1,0,0,0,0,0,3,0,0	test	ward_and_allport	0,0,0,1,0,0,3,2,0	89.0	12.0	1.435	1,2,3,0,0,0,0,0,0	to_hand	s234
142.092	0.398	0	PA_without_intermediate	1,0,0,0,0,0,3,2,0	test	ward_and_allport	0,0,0,1,0,0,3,2,0	82.0	12.0	0.398	1,2,3,0,0,0,0,0,0	to_board	s234
142.494	0.435	0	PA_without_intermediate	0,0,0,0,0,0,3,2,0	test	ward_and_allport	0,0,0,1,0,0,3,2,0	89.0	12.0	0.435	1,2,3,0,0,0,0,0,0	to_hand	s234
142.93	0.361	0	PA_without_intermediate	0,0,0,1,0,0,3,2,0	test	ward_and_allport	0,0,0,1,0,0,3,2,0	71.0	12.0	0.361	1,2,3,0,0,0,0,0,0	to_board	s234
143.296	1.0	0	PA_without_intermediate	n/a	test	ward_and_allport	n/a	-1.0	12.0	n/a	n/a	feedback	s234
144.296	2.088	0	PA_without_intermediate	n/a	test	ward_and_allport	n/a	-1.0	12.0	n/a	n/a	ITI	s234
146.388	1.32	1	PA_with_intermediate	0,0,0,0,0,0,1,2,0	test	ward_and_allport	2,0,0,0,0,0,1,3,0	82.0	13.0	1.32	0,0,0,0,0,0,1,2,3	to_hand	s234
147.709	0.813	0	PA_with_intermediate	0,0,0,3,0,0,1,2,0	test	ward_and_allport	2,0,0,0,0,0,1,3,0	71.0	13.0	0.813	0,0,0,0,0,0,1,2,3	to_board	s234
148.526	0.322	0	PA_with_intermediate	0,0,0,3,0,0,1,0,0	test	ward_and_allport	2,0,0,0,0,0,1,3,0	82.0	13.0	0.322	0,0,0,0,0,0,1,2,3	to_hand	s234
148.85	0.245	0	PA_with_intermediate	2,0,0,3,0,0,1,0,0	test	ward_and_allport	2,0,0,0,0,0,1,3,0	89.0	13.0	0.245	0,0,0,0,0,0,1,2,3	to_board	s234
149.099	0.572	0	PA_with_intermediate	2,0,0,0,0,0,1,0,0	test	ward_and_allport	2,0,0,0,0,0,1,3,0	71.0	13.0	0.572	0,0,0,0,0,0,1,2,3	to_hand	s234
149.672	0.305	0	PA_with_intermediate	2,0,0,0,0,0,1,3,0	test	ward_and_allport	2,0,0,0,0,0,1,3,0	82.0	13.0	0.305	0,0,0,0,0,0,1,2,3	to_board	s234
149.982	1.0	0	PA_with_intermediate	n/a	test	ward_and_allport	n/a	-1.0	13.0	n/a	n/a	feedback	s234
150.982	1.0	0	PA_with_intermediate	n/a	test	ward_and_allport	n/a	-1.0	13.0	n/a	n/a	ITI	s234
151.986	0.966	1	PA_without_intermediate	0,0,0,0,0,0,1,2,0	test	ward_and_allport	3,2,0,1,0,0,0,0,0	82.0	14.0	0.966	0,0,0,0,0,0,1,2,3	to_hand	s234
152.953	0.213	0	PA_without_intermediate	3,0,0,0,0,0,1,2,0	test	ward_and_allport	3,2,0,1,0,0,0,0,0	89.0	14.0	0.213	0,0,0,0,0,0,1,2,3	to_board	s234
153.171	1.119	0	PA_without_intermediate	3,0,0,0,0,0,1,0,0	test	ward_and_allport	3,2,0,1,0,0,0,0,0	82.0	14.0	1.119	0,0,0,0,0,0,1,2,3	to_hand	s234
154.29	0.212	0	PA_without_intermediate	3,2,0,0,0,0,1,0,0	test	ward_and_allport	3,2,0,1,0,0,0,0,0	89.0	14.0	0.212	0,0,0,0,0,0,1,2,3	to_board	s234
154.506	1.609	0	PA_without_intermediate	3,2,0,0,0,0,0,0,0	test	ward_and_allport	3,2,0,1,0,0,0,0,0	82.0	14.0	1.609	0,0,0,0,0,0,1,2,3	to_hand	s234
156.116	0.295	0	PA_without_intermediate	3,2,0,1,0,0,0,0,0	test	ward_and_allport	3,2,0,1,0,0,0,0,0	71.0	14.0	0.295	0,0,0,0,0,0,1,2,3	to_board	s234
156.416	1.0	0	PA_without_intermediate	n/a	test	ward_and_allport	n/a	-1.0	14.0	n/a	n/a	feedback	s234
157.416	1.0	0	PA_without_intermediate	n/a	test	ward_and_allport	n/a	-1.0	14.0	n/a	n/a	ITI	s234
163.422	1.777	1	PA_without_intermediate	1,2,0,0,0,0,0,0,0	test	ward_and_allport	0,0,0,3,1,0,2,0,0	89.0	15.0	1.777	1,2,3,0,0,0,0,0,0	to_hand	s234
165.2	0.283	0	PA_without_intermediate	1,2,0,3,0,0,0,0,0	test	ward_and_allport	0,0,0,3,1,0,2,0,0	71.0	15.0	0.283	1,2,3,0,0,0,0,0,0	to_board	s234
165.487	0.553	0	PA_without_intermediate	1,0,0,3,0,0,0,0,0	test	ward_and_allport	0,0,0,3,1,0,2,0,0	89.0	15.0	0.553	1,2,3,0,0,0,0,0,0	to_hand	s234
166.041	0.237	0	PA_without_intermediate	1,0,0,3,0,0,2,0,0	test	ward_and_allport	0,0,0,3,1,0,2,0,0	82.0	15.0	0.237	1,2,3,0,0,0,0,0,0	to_board	s234
166.282	0.379	0	PA_without_intermediate	0,0,0,3,0,0,2,0,0	test	ward_and_allport	0,0,0,3,1,0,2,0,0	89.0	15.0	0.379	1,2,3,0,0,0,0,0,0	to_hand	s234
166.663	0.25	0	PA_without_intermediate	0,0,0,3,0,0,2,1,0	test	ward_and_allport	0,0,0,3,1,0,2,0,0	82.0	15.0	0.25	1,2,3,0,0,0,0,0,0	to_board	s234
166.917	0.807	0	PA_without_intermediate	0,0,0,3,0,0,2,0,0	test	ward_and_allport	0,0,0,3,1,0,2,0,0	82.0	15.0	0.807	1,2,3,0,0,0,0,0,0	to_hand	s234
167.725	0.313	0	PA_without_intermediate	0,0,0,3,1,0,2,0,0	test	ward_and_allport	0,0,0,3,1,0,2,0,0	71.0	15.0	0.313	1,2,3,0,0,0,0,0,0	to_board	s234
168.043	1.0	0	PA_without_intermediate	n/a	test	ward_and_allport	n/a	-1.0	15.0	n/a	n/a	feedback	s234
169.043	1.0	0	PA_without_intermediate	n/a	test	ward_and_allport	n/a	-1.0	15.0	n/a	n/a	ITI	s234
170.046	4.331	1	PA_with_intermediate	0,0,0,1,2,0,0,0,0	test	ward_and_allport	0,0,0,1,3,0,2,0,0	71.0	16.0	4.331	0,0,0,1,2,3,0,0,0	to_hand	s234
174.378	0.329	0	PA_with_intermediate	3,0,0,1,2,0,0,0,0	test	ward_and_allport	0,0,0,1,3,0,2,0,0	89.0	16.0	0.329	0,0,0,1,2,3,0,0,0	to_board	s234
174.713	0.52	0	PA_with_intermediate	3,0,0,1,0,0,0,0,0	test	ward_and_allport	0,0,0,1,3,0,2,0,0	71.0	16.0	0.52	0,0,0,1,2,3,0,0,0	to_hand	s234
175.234	0.32	0	PA_with_intermediate	3,0,0,1,0,0,2,0,0	test	ward_and_allport	0,0,0,1,3,0,2,0,0	82.0	16.0	0.32	0,0,0,1,2,3,0,0,0	to_board	s234
175.557	0.377	0	PA_with_intermediate	0,0,0,1,0,0,2,0,0	test	ward_and_allport	0,0,0,1,3,0,2,0,0	89.0	16.0	0.377	0,0,0,1,2,3,0,0,0	to_hand	s234
175.936	0.337	0	PA_with_intermediate	0,0,0,1,3,0,2,0,0	test	ward_and_allport	0,0,0,1,3,0,2,0,0	71.0	16.0	0.337	0,0,0,1,2,3,0,0,0	to_board	s234
176.278	1.0	0	PA_with_intermediate	n/a	test	ward_and_allport	n/a	-1.0	16.0	n/a	n/a	feedback	s234
177.278	1.544	0	PA_with_intermediate	n/a	test	ward_and_allport	n/a	-1.0	16.0	n/a	n/a	ITI	s234
178.827	1.276	1	PA_without_intermediate	0,0,0,1,2,0,0,0,0	test	ward_and_allport	2,0,0,0,0,0,3,1,0	71.0	17.0	1.276	0,0,0,1,2,3,0,0,0	to_hand	s234
180.105	0.329	0	PA_without_intermediate	0,0,0,1,2,0,3,0,0	test	ward_and_allport	2,0,0,0,0,0,3,1,0	82.0	17.0	0.329	0,0,0,1,2,3,0,0,0	to_board	s234
180.438	0.441	0	PA_without_intermediate	0,0,0,1,0,0,3,0,0	test	ward_and_allport	2,0,0,0,0,0,3,1,0	71.0	17.0	0.441	0,0,0,1,2,3,0,0,0	to_hand	s234
180.881	0.285	0	PA_without_intermediate	2,0,0,1,0,0,3,0,0	test	ward_and_allport	2,0,0,0,0,0,3,1,0	89.0	17.0	0.285	0,0,0,1,2,3,0,0,0	to_board	s234
181.17	0.413	0	PA_without_intermediate	2,0,0,0,0,0,3,0,0	test	ward_and_allport	2,0,0,0,0,0,3,1,0	71.0	17.0	0.413	0,0,0,1,2,3,0,0,0	to_hand	s234
181.584	0.28	0	PA_without_intermediate	2,0,0,0,0,0,3,1,0	test	ward_and_allport	2,0,0,0,0,0,3,1,0	82.0	17.0	0.28	0,0,0,1,2,3,0,0,0	to_board	s234
181.87	1.0	0	PA_without_intermediate	n/a	test	ward_and_allport	n/a	-1.0	17.0	n/a	n/a	feedback	s234
182.87	1.272	0	PA_without_intermediate	n/a	test	ward_and_allport	n/a	-1.0	17.0	n/a	n/a	ITI	s234
184.148	1.392	1	PA_with_intermediate	1,2,0,0,0,0,0,0,0	test	ward_and_allport	1,3,0,0,0,0,2,0,0	89.0	18.0	1.392	1,2,3,0,0,0,0,0,0	to_hand	s234
185.54	1.127	0	PA_with_intermediate	1,2,0,3,0,0,0,0,0	test	ward_and_allport	1,3,0,0,0,0,2,0,0	71.0	18.0	1.127	1,2,3,0,0,0,0,0,0	to_board	s234
186.672	0.283	0	PA_with_intermediate	1,0,0,3,0,0,0,0,0	test	ward_and_allport	1,3,0,0,0,0,2,0,0	89.0	18.0	0.283	1,2,3,0,0,0,0,0,0	to_hand	s234
186.955	0.283	0	PA_with_intermediate	1,0,0,3,0,0,2,0,0	test	ward_and_allport	1,3,0,0,0,0,2,0,0	82.0	18.0	0.283	1,2,3,0,0,0,0,0,0	to_board	s234
187.243	0.536	0	PA_with_intermediate	1,0,0,0,0,0,2,0,0	test	ward_and_allport	1,3,0,0,0,0,2,0,0	71.0	18.0	0.536	1,2,3,0,0,0,0,0,0	to_hand	s234
187.78	0.25	0	PA_with_intermediate	1,3,0,0,0,0,2,0,0	test	ward_and_allport	1,3,0,0,0,0,2,0,0	89.0	18.0	0.25	1,2,3,0,0,0,0,0,0	to_board	s234
188.036	1.0	0	PA_with_intermediate	n/a	test	ward_and_allport	n/a	-1.0	18.0	n/a	n/a	feedback	s234
189.036	3.04	0	PA_with_intermediate	n/a	test	ward_and_allport	n/a	-1.0	18.0	n/a	n/a	ITI	s234
192.079	1.452	1	PA_with_intermediate	0,0,0,1,2,0,0,0,0	test	ward_and_allport	0,0,0,1,0,0,2,3,0	71.0	19.0	1.452	0,0,0,1,2,3,0,0,0	to_hand	s234
193.532	0.462	0	PA_with_intermediate	3,0,0,1,2,0,0,0,0	test	ward_and_allport	0,0,0,1,0,0,2,3,0	89.0	19.0	0.462	0,0,0,1,2,3,0,0,0	to_board	s234
194.0	0.34	0	PA_with_intermediate	3,0,0,1,0,0,0,0,0	test	ward_and_allport	0,0,0,1,0,0,2,3,0	71.0	19.0	0.34	0,0,0,1,2,3,0,0,0	to_hand	s234
194.34	0.032	0	PA_with_intermediate	3,2,0,1,0,0,0,0,0	test	ward_and_allport	0,0,0,1,0,0,2,3,0	89.0	19.0	0.032	0,0,0,1,2,3,0,0,0	to_board	s234
194.376	1.068	0	PA_with_intermediate	3,2,0,0,0,0,0,0,0	test	ward_and_allport	0,0,0,1,0,0,2,3,0	71.0	19.0	1.068	0,0,0,1,2,3,0,0,0	to_hand	s234
195.446	0.136	0	PA_with_intermediate	3,2,1,0,0,0,0,0,0	test	ward_and_allport	0,0,0,1,0,0,2,3,0	89.0	19.0	0.136	0,0,0,1,2,3,0,0,0	to_board	s234
195.587	1.684	0	PA_with_intermediate	3,2,0,0,0,0,0,0,0	test	ward_and_allport	0,0,0,1,0,0,2,3,0	89.0	19.0	1.684	0,0,0,1,2,3,0,0,0	to_hand	s234
197.271	0.362	0	PA_with_intermediate	3,2,0,1,0,0,0,0,0	test	ward_and_allport	0,0,0,1,0,0,2,3,0	71.0	19.0	0.362	0,0,0,1,2,3,0,0,0	to_board	s234
197.638	0.392	0	PA_with_intermediate	3,0,0,1,0,0,0,0,0	test	ward_and_allport	0,0,0,1,0,0,2,3,0	89.0	19.0	0.392	0,0,0,1,2,3,0,0,0	to_hand	s234
198.032	0.363	0	PA_with_intermediate	3,0,0,1,0,0,2,0,0	test	ward_and_allport	0,0,0,1,0,0,2,3,0	82.0	19.0	0.363	0,0,0,1,2,3,0,0,0	to_board	s234
198.399	0.597	0	PA_with_intermediate	0,0,0,1,0,0,2,0,0	test	ward_and_allport	0,0,0,1,0,0,2,3,0	89.0	19.0	0.597	0,0,0,1,2,3,0,0,0	to_hand	s234
198.997	0.319	0	PA_with_intermediate	0,0,0,1,0,0,2,3,0	test	ward_and_allport	0,0,0,1,0,0,2,3,0	82.0	19.0	0.319	0,0,0,1,2,3,0,0,0	to_board	s234
199.322	1.0	0	PA_with_intermediate	n/a	test	ward_and_allport	n/a	-1.0	19.0	n/a	n/a	feedback	s234
200.322	1.272	0	PA_with_intermediate	n/a	test	ward_and_allport	n/a	-1.0	19.0	n/a	n/a	ITI	s234
201.599	1.97	1	PA_with_intermediate	1,2,0,0,0,0,0,0,0	test	ward_and_allport	1,0,0,2,3,0,0,0,0	89.0	20.0	1.97	1,2,3,0,0,0,0,0,0	to_hand	s234
203.571	0.334	0	PA_with_intermediate	1,2,0,0,0,0,3,0,0	test	ward_and_allport	1,0,0,2,3,0,0,0,0	82.0	20.0	0.334	1,2,3,0,0,0,0,0,0	to_board	s234
203.91	0.734	0	PA_with_intermediate	1,0,0,0,0,0,3,0,0	test	ward_and_allport	1,0,0,2,3,0,0,0,0	89.0	20.0	0.734	1,2,3,0,0,0,0,0,0	to_hand	s234
204.644	0.397	0	PA_with_intermediate	1,0,0,2,0,0,3,0,0	test	ward_and_allport	1,0,0,2,3,0,0,0,0	71.0	20.0	0.397	1,2,3,0,0,0,0,0,0	to_board	s234
205.046	0.364	0	PA_with_intermediate	1,0,0,2,0,0,0,0,0	test	ward_and_allport	1,0,0,2,3,0,0,0,0	82.0	20.0	0.364	1,2,3,0,0,0,0,0,0	to_hand	s234
205.411	0.336	0	PA_with_intermediate	1,0,0,2,3,0,0,0,0	test	ward_and_allport	1,0,0,2,3,0,0,0,0	71.0	20.0	0.336	1,2,3,0,0,0,0,0,0	to_board	s234
205.755	1.0	0	PA_with_intermediate	n/a	test	ward_and_allport	n/a	-1.0	20.0	n/a	n/a	feedback	s234
206.755	1.136	0	PA_with_intermediate	n/a	test	ward_and_allport	n/a	-1.0	20.0	n/a	n/a	ITI	s234
207.896	1.76	1	PA_with_intermediate	0,0,0,1,2,0,0,0,0	test	ward_and_allport	0,0,0,1,3,0,2,0,0	71.0	21.0	1.76	0,0,0,1,2,3,0,0,0	to_hand	s234
209.657	0.271	0	PA_with_intermediate	3,0,0,1,2,0,0,0,0	test	ward_and_allport	0,0,0,1,3,0,2,0,0	89.0	21.0	0.271	0,0,0,1,2,3,0,0,0	to_board	s234
209.935	0.419	0	PA_with_intermediate	3,0,0,1,0,0,0,0,0	test	ward_and_allport	0,0,0,1,3,0,2,0,0	71.0	21.0	0.419	0,0,0,1,2,3,0,0,0	to_hand	s234
210.354	0.327	0	PA_with_intermediate	3,0,0,1,0,0,2,0,0	test	ward_and_allport	0,0,0,1,3,0,2,0,0	82.0	21.0	0.327	0,0,0,1,2,3,0,0,0	to_board	s234
210.688	0.974	0	PA_with_intermediate	0,0,0,1,0,0,2,0,0	test	ward_and_allport	0,0,0,1,3,0,2,0,0	89.0	21.0	0.974	0,0,0,1,2,3,0,0,0	to_hand	s234
211.663	0.286	0	PA_with_intermediate	0,0,0,1,3,0,2,0,0	test	ward_and_allport	0,0,0,1,3,0,2,0,0	71.0	21.0	0.286	0,0,0,1,2,3,0,0,0	to_board	s234
211.957	1.0	0	PA_with_intermediate	n/a	test	ward_and_allport	n/a	-1.0	21.0	n/a	n/a	feedback	s234
212.957	1.0	0	PA_with_intermediate	n/a	test	ward_and_allport	n/a	-1.0	21.0	n/a	n/a	ITI	s234
213.964	1.195	1	PA_with_intermediate	1,2,0,0,0,0,0,0,0	test	ward_and_allport	1,0,0,0,0,0,2,3,0	89.0	22.0	1.195	1,2,3,0,0,0,0,0,0	to_hand	s234
215.16	0.334	0	PA_with_intermediate	1,2,0,3,0,0,0,0,0	test	ward_and_allport	1,0,0,0,0,0,2,3,0	71.0	22.0	0.334	1,2,3,0,0,0,0,0,0	to_board	s234
215.502	0.392	0	PA_with_intermediate	1,0,0,3,0,0,0,0,0	test	ward_and_allport	1,0,0,0,0,0,2,3,0	89.0	22.0	0.392	1,2,3,0,0,0,0,0,0	to_hand	s234
215.895	0.419	0	PA_with_intermediate	1,0,0,3,0,0,2,0,0	test	ward_and_allport	1,0,0,0,0,0,2,3,0	82.0	22.0	0.419	1,2,3,0,0,0,0,0,0	to_board	s234
216.321	0.435	0	PA_with_intermediate	1,0,0,0,0,0,2,0,0	test	ward_and_allport	1,0,0,0,0,0,2,3,0	71.0	22.0	0.435	1,2,3,0,0,0,0,0,0	to_hand	s234
216.757	0.383	0	PA_with_intermediate	1,0,0,0,0,0,2,3,0	test	ward_and_allport	1,0,0,0,0,0,2,3,0	82.0	22.0	0.383	1,2,3,0,0,0,0,0,0	to_board	s234
217.147	1.0	0	PA_with_intermediate	n/a	test	ward_and_allport	n/a	-1.0	22.0	n/a	n/a	feedback	s234
218.147	1.0	0	PA_with_intermediate	n/a	test	ward_and_allport	n/a	-1.0	22.0	n/a	n/a	ITI	s234
219.153	1.569	1	PA_without_intermediate	1,2,0,0,0,0,0,0,0	test	ward_and_allport	0,0,0,3,2,0,1,0,0	89.0	23.0	1.569	1,2,3,0,0,0,0,0,0	to_hand	s234
220.724	0.32	0	PA_without_intermediate	1,2,0,3,0,0,0,0,0	test	ward_and_allport	0,0,0,3,2,0,1,0,0	71.0	23.0	0.32	1,2,3,0,0,0,0,0,0	to_board	s234
221.051	0.325	0	PA_without_intermediate	1,0,0,3,0,0,0,0,0	test	ward_and_allport	0,0,0,3,2,0,1,0,0	89.0	23.0	0.325	1,2,3,0,0,0,0,0,0	to_hand	s234
221.377	0.314	0	PA_without_intermediate	1,0,0,3,2,0,0,0,0	test	ward_and_allport	0,0,0,3,2,0,1,0,0	71.0	23.0	0.314	1,2,3,0,0,0,0,0,0	to_board	s234
221.7	0.597	0	PA_without_intermediate	0,0,0,3,2,0,0,0,0	test	ward_and_allport	0,0,0,3,2,0,1,0,0	89.0	23.0	0.597	1,2,3,0,0,0,0,0,0	to_hand	s234
222.298	0.29	0	PA_without_intermediate	0,0,0,3,2,0,1,0,0	test	ward_and_allport	0,0,0,3,2,0,1,0,0	82.0	23.0	0.29	1,2,3,0,0,0,0,0,0	to_board	s234
222.596	1.0	0	PA_without_intermediate	n/a	test	ward_and_allport	n/a	-1.0	23.0	n/a	n/a	feedback	s234
223.596	1.408	0	PA_without_intermediate	n/a	test	ward_and_allport	n/a	-1.0	23.0	n/a	n/a	ITI	s234
225.011	1.191	1	PA_with_intermediate	1,2,0,0,0,0,0,0,0	test	ward_and_allport	1,3,0,0,0,0,2,0,0	89.0	24.0	1.191	1,2,3,0,0,0,0,0,0	to_hand	s234
226.202	0.347	0	PA_with_intermediate	1,2,0,3,0,0,0,0,0	test	ward_and_allport	1,3,0,0,0,0,2,0,0	71.0	24.0	0.347	1,2,3,0,0,0,0,0,0	to_board	s234
226.555	0.371	0	PA_with_intermediate	1,0,0,3,0,0,0,0,0	test	ward_and_allport	1,3,0,0,0,0,2,0,0	89.0	24.0	0.371	1,2,3,0,0,0,0,0,0	to_hand	s234
226.927	0.29	0	PA_with_intermediate	1,0,0,3,0,0,2,0,0	test	ward_and_allport	1,3,0,0,0,0,2,0,0	82.0	24.0	0.29	1,2,3,0,0,0,0,0,0	to_board	s234
227.224	0.513	0	PA_with_intermediate	1,0,0,0,0,0,2,0,0	test	ward_and_allport	1,3,0,0,0,0,2,0,0	71.0	24.0	0.513	1,2,3,0,0,0,0,0,0	to_hand	s234
227.737	0.224	0	PA_with_intermediate	1,3,0,0,0,0,2,0,0	test	ward_and_allport	1,3,0,0,0,0,2,0,0	89.0	24.0	0.224	1,2,3,0,0,0,0,0,0	to_board	s234
227.969	1.0	0	PA_with_intermediate	n/a	test	ward_and_allport	n/a	-1.0	24.0	n/a	n/a	feedback	s234
228.969	2.768	0	PA_with_intermediate	n/a	test	ward_and_allport	n/a	-1.0	24.0	n/a	n/a	ITI	s234
231.743	1.291	1	PA_with_intermediate	0,0,0,1,2,0,0,0,0	test	ward_and_allport	0,0,0,1,0,0,2,3,0	71.0	25.0	1.291	0,0,0,1,2,3,0,0,0	to_hand	s234
233.035	0.371	0	PA_with_intermediate	3,0,0,1,2,0,0,0,0	test	ward_and_allport	0,0,0,1,0,0,2,3,0	89.0	25.0	0.371	0,0,0,1,2,3,0,0,0	to_board	s234
233.412	0.342	0	PA_with_intermediate	3,0,0,1,0,0,0,0,0	test	ward_and_allport	0,0,0,1,0,0,2,3,0	71.0	25.0	0.342	0,0,0,1,2,3,0,0,0	to_hand	s234
233.755	0.296	0	PA_with_intermediate	3,0,0,1,0,0,2,0,0	test	ward_and_allport	0,0,0,1,0,0,2,3,0	82.0	25.0	0.296	0,0,0,1,2,3,0,0,0	to_board	s234
234.058	0.415	0	PA_with_intermediate	0,0,0,1,0,0,2,0,0	test	ward_and_allport	0,0,0,1,0,0,2,3,0	89.0	25.0	0.415	0,0,0,1,2,3,0,0,0	to_hand	s234
234.474	0.593	0	PA_with_intermediate	0,0,0,1,0,0,2,3,0	test	ward_and_allport	0,0,0,1,0,0,2,3,0	82.0	25.0	0.593	0,0,0,1,2,3,0,0,0	to_board	s234
235.077	1.0	0	PA_with_intermediate	n/a	test	ward_and_allport	n/a	-1.0	25.0	n/a	n/a	feedback	s234
236.077	1.68	0	PA_with_intermediate	n/a	test	ward_and_allport	n/a	-1.0	25.0	n/a	n/a	ITI	s234
237.763	3.579	1	PA_without_intermediate	0,0,0,0,0,0,1,2,0	test	ward_and_allport	3,1,0,2,0,0,0,0,0	82.0	26.0	3.579	0,0,0,0,0,0,1,2,3	to_hand	s234
241.344	0.407	0	PA_without_intermediate	3,0,0,0,0,0,1,2,0	test	ward_and_allport	3,1,0,2,0,0,0,0,0	89.0	26.0	0.407	0,0,0,0,0,0,1,2,3	to_board	s234
241.758	1.183	0	PA_without_intermediate	3,0,0,0,0,0,1,0,0	test	ward_and_allport	3,1,0,2,0,0,0,0,0	82.0	26.0	1.183	0,0,0,0,0,0,1,2,3	to_hand	s234
242.942	0.34	0	PA_without_intermediate	3,0,0,2,0,0,1,0,0	test	ward_and_allport	3,1,0,2,0,0,0,0,0	71.0	26.0	0.34	0,0,0,0,0,0,1,2,3	to_board	s234
243.289	0.447	0	PA_without_intermediate	3,0,0,2,0,0,0,0,0	test	ward_and_allport	3,1,0,2,0,0,0,0,0	82.0	26.0	0.447	0,0,0,0,0,0,1,2,3	to_hand	s234
243.736	0.298	0	PA_without_intermediate	3,1,0,2,0,0,0,0,0	test	ward_and_allport	3,1,0,2,0,0,0,0,0	89.0	26.0	0.298	0,0,0,0,0,0,1,2,3	to_board	s234
244.042	1.0	0	PA_without_intermediate	n/a	test	ward_and_allport	n/a	-1.0	26.0	n/a	n/a	feedback	s234
245.042	2.224	0	PA_without_intermediate	n/a	test	ward_and_allport	n/a	-1.0	26.0	n/a	n/a	ITI	s234
247.274	2.243	1	PA_without_intermediate	0,0,0,1,2,0,0,0,0	test	ward_and_allport	2,0,0,0,0,0,3,1,0	71.0	27.0	2.243	0,0,0,1,2,3,0,0,0	to_hand	s234
249.518	0.41	0	PA_without_intermediate	0,0,0,1,2,0,3,0,0	test	ward_and_allport	2,0,0,0,0,0,3,1,0	82.0	27.0	0.41	0,0,0,1,2,3,0,0,0	to_board	s234
249.935	0.484	0	PA_without_intermediate	0,0,0,1,0,0,3,0,0	test	ward_and_allport	2,0,0,0,0,0,3,1,0	71.0	27.0	0.484	0,0,0,1,2,3,0,0,0	to_hand	s234
250.419	0.368	0	PA_without_intermediate	2,0,0,1,0,0,3,0,0	test	ward_and_allport	2,0,0,0,0,0,3,1,0	89.0	27.0	0.368	0,0,0,1,2,3,0,0,0	to_board	s234
250.793	0.287	0	PA_without_intermediate	2,0,0,0,0,0,3,0,0	test	ward_and_allport	2,0,0,0,0,0,3,1,0	71.0	27.0	0.287	0,0,0,1,2,3,0,0,0	to_hand	s234
251.082	0.411	0	PA_without_intermediate	2,0,0,0,0,0,3,1,0	test	ward_and_allport	2,0,0,0,0,0,3,1,0	82.0	27.0	0.411	0,0,0,1,2,3,0,0,0	to_board	s234
251.501	1.0	0	PA_without_intermediate	n/a	test	ward_and_allport	n/a	-1.0	27.0	n/a	n/a	feedback	s234
252.501	2.36	0	PA_without_intermediate	n/a	test	ward_and_allport	n/a	-1.0	27.0	n/a	n/a	ITI	s234
254.869	0.927	1	PA_without_intermediate	0,0,0,1,2,0,0,0,0	test	ward_and_allport	1,0,0,0,0,0,3,2,0	71.0	28.0	0.927	0,0,0,1,2,3,0,0,0	to_hand	s234
255.797	0.384	0	PA_without_intermediate	0,0,0,1,2,0,3,0,0	test	ward_and_allport	1,0,0,0,0,0,3,2,0	82.0	28.0	0.384	0,0,0,1,2,3,0,0,0	to_board	s234
256.189	0.463	0	PA_without_intermediate	0,0,0,1,0,0,3,0,0	test	ward_and_allport	1,0,0,0,0,0,3,2,0	71.0	28.0	0.463	0,0,0,1,2,3,0,0,0	to_hand	s234
256.654	0.252	0	PA_without_intermediate	0,0,0,1,0,0,3,2,0	test	ward_and_allport	1,0,0,0,0,0,3,2,0	82.0	28.0	0.252	0,0,0,1,2,3,0,0,0	to_board	s234
256.913	1.033	0	PA_without_intermediate	0,0,0,0,0,0,3,2,0	test	ward_and_allport	1,0,0,0,0,0,3,2,0	71.0	28.0	1.033	0,0,0,1,2,3,0,0,0	to_hand	s234
257.947	0.326	0	PA_without_intermediate	1,0,0,0,0,0,3,2,0	test	ward_and_allport	1,0,0,0,0,0,3,2,0	89.0	28.0	0.326	0,0,0,1,2,3,0,0,0	to_board	s234
258.282	1.0	0	PA_without_intermediate	n/a	test	ward_and_allport	n/a	-1.0	28.0	n/a	n/a	feedback	s234
259.282	1.0	0	PA_without_intermediate	n/a	test	ward_and_allport	n/a	-1.0	28.0	n/a	n/a	ITI	s234
260.288	1.81	1	PA_without_intermediate	1,2,0,0,0,0,0,0,0	test	ward_and_allport	0,0,0,1,0,0,3,2,0	89.0	29.0	1.81	1,2,3,0,0,0,0,0,0	to_hand	s234
262.1	0.305	0	PA_without_intermediate	1,2,0,0,0,0,3,0,0	test	ward_and_allport	0,0,0,1,0,0,3,2,0	82.0	29.0	0.305	1,2,3,0,0,0,0,0,0	to_board	s234
262.413	0.616	0	PA_without_intermediate	1,0,0,0,0,0,3,0,0	test	ward_and_allport	0,0,0,1,0,0,3,2,0	89.0	29.0	0.616	1,2,3,0,0,0,0,0,0	to_hand	s234
263.029	0.3	0	PA_without_intermediate	1,0,0,0,0,0,3,2,0	test	ward_and_allport	0,0,0,1,0,0,3,2,0	82.0	29.0	0.3	1,2,3,0,0,0,0,0,0	to_board	s234
263.336	1.233	0	PA_without_intermediate	0,0,0,0,0,0,3,2,0	test	ward_and_allport	0,0,0,1,0,0,3,2,0	89.0	29.0	1.233	1,2,3,0,0,0,0,0,0	to_hand	s234
264.57	0.4	0	PA_without_intermediate	0,0,0,1,0,0,3,2,0	test	ward_and_allport	0,0,0,1,0,0,3,2,0	71.0	29.0	0.4	1,2,3,0,0,0,0,0,0	to_board	s234
264.979	1.0	0	PA_without_intermediate	n/a	test	ward_and_allport	n/a	-1.0	29.0	n/a	n/a	feedback	s234
265.979	1.408	0	PA_without_intermediate	n/a	test	ward_and_allport	n/a	-1.0	29.0	n/a	n/a	ITI	s234
272.397	2.71	1	PA_with_intermediate	0,0,0,1,2,0,0,0,0	test	ward_and_allport	2,0,0,1,3,0,0,0,0	71.0	30.0	2.71	0,0,0,1,2,3,0,0,0	to_hand	s234
275.108	0.966	0	PA_with_intermediate	0,0,0,1,2,0,3,0,0	test	ward_and_allport	2,0,0,1,3,0,0,0,0	82.0	30.0	0.966	0,0,0,1,2,3,0,0,0	to_board	s234
276.082	0.339	0	PA_with_intermediate	0,0,0,1,0,0,3,0,0	test	ward_and_allport	2,0,0,1,3,0,0,0,0	71.0	30.0	0.339	0,0,0,1,2,3,0,0,0	to_hand	s234
276.421	0.358	0	PA_with_intermediate	2,0,0,1,0,0,3,0,0	test	ward_and_allport	2,0,0,1,3,0,0,0,0	89.0	30.0	0.358	0,0,0,1,2,3,0,0,0	to_board	s234
276.788	0.557	0	PA_with_intermediate	2,0,0,1,0,0,0,0,0	test	ward_and_allport	2,0,0,1,3,0,0,0,0	82.0	30.0	0.557	0,0,0,1,2,3,0,0,0	to_hand	s234
277.346	0.404	0	PA_with_intermediate	2,0,0,1,3,0,0,0,0	test	ward_and_allport	2,0,0,1,3,0,0,0,0	71.0	30.0	0.404	0,0,0,1,2,3,0,0,0	to_board	s234
277.761	1.0	0	PA_with_intermediate	n/a	test	ward_and_allport	n/a	-1.0	30.0	n/a	n/a	feedback	s234
278.761	1.136	0	PA_with_intermediate	n/a	test	ward_and_allport	n/a	-1.0	30.0	n/a	n/a	ITI	s234
279.906	1.721	1	PA_without_intermediate	0,0,0,0,0,0,1,2,0	test	ward_and_allport	3,1,0,2,0,0,0,0,0	82.0	31.0	1.721	0,0,0,0,0,0,1,2,3	to_hand	s234
281.628	0.332	0	PA_without_intermediate	3,0,0,0,0,0,1,2,0	test	ward_and_allport	3,1,0,2,0,0,0,0,0	89.0	31.0	0.332	0,0,0,0,0,0,1,2,3	to_board	s234
281.967	1.282	0	PA_without_intermediate	3,0,0,0,0,0,1,0,0	test	ward_and_allport	3,1,0,2,0,0,0,0,0	82.0	31.0	1.282	0,0,0,0,0,0,1,2,3	to_hand	s234
283.25	0.384	0	PA_without_intermediate	3,0,0,2,0,0,1,0,0	test	ward_and_allport	3,1,0,2,0,0,0,0,0	71.0	31.0	0.384	0,0,0,0,0,0,1,2,3	to_board	s234
283.641	0.467	0	PA_without_intermediate	3,0,0,2,0,0,0,0,0	test	ward_and_allport	3,1,0,2,0,0,0,0,0	82.0	31.0	0.467	0,0,0,0,0,0,1,2,3	to_hand	s234
284.109	0.364	0	PA_without_intermediate	3,1,0,2,0,0,0,0,0	test	ward_and_allport	3,1,0,2,0,0,0,0,0	89.0	31.0	0.364	0,0,0,0,0,0,1,2,3	to_board	s234
284.481	1.0	0	PA_without_intermediate	n/a	test	ward_and_allport	n/a	-1.0	31.0	n/a	n/a	feedback	s234
285.481	4.128	0	PA_without_intermediate	n/a	test	ward_and_allport	n/a	-1.0	31.0	n/a	n/a	ITI	s234
289.615	1.151	1	PA_without_intermediate	0,0,0,0,0,0,1,2,0	test	ward_and_allport	2,0,0,3,1,0,0,0,0	82.0	32.0	1.151	0,0,0,0,0,0,1,2,3	to_hand	s234
290.767	0.516	0	PA_without_intermediate	0,0,0,3,0,0,1,2,0	test	ward_and_allport	2,0,0,3,1,0,0,0,0	71.0	32.0	0.516	0,0,0,0,0,0,1,2,3	to_board	s234
291.292	0.637	0	PA_without_intermediate	0,0,0,3,0,0,1,0,0	test	ward_and_allport	2,0,0,3,1,0,0,0,0	82.0	32.0	0.637	0,0,0,0,0,0,1,2,3	to_hand	s234
291.931	0.29	0	PA_without_intermediate	2,0,0,3,0,0,1,0,0	test	ward_and_allport	2,0,0,3,1,0,0,0,0	89.0	32.0	0.29	0,0,0,0,0,0,1,2,3	to_board	s234
292.231	0.762	0	PA_without_intermediate	2,0,0,3,0,0,0,0,0	test	ward_and_allport	2,0,0,3,1,0,0,0,0	82.0	32.0	0.762	0,0,0,0,0,0,1,2,3	to_hand	s234
292.995	0.321	0	PA_without_intermediate	2,0,0,3,1,0,0,0,0	test	ward_and_allport	2,0,0,3,1,0,0,0,0	71.0	32.0	0.321	0,0,0,0,0,0,1,2,3	to_board	s234
293.325	1.0	0	PA_without_intermediate	n/a	test	ward_and_allport	n/a	-1.0	32.0	n/a	n/a	feedback	s234
294.325	1.136	0	PA_without_intermediate	n/a	test	ward_and_allport	n/a	-1.0	32.0	n/a	n/a	ITI	s234
295.471	2.438	1	PA_without_intermediate	1,2,0,0,0,0,0,0,0	test	ward_and_allport	0,0,0,2,0,0,3,1,0	89.0	33.0	2.438	1,2,3,0,0,0,0,0,0	to_hand	s234
297.91	0.383	0	PA_without_intermediate	1,2,0,0,0,0,3,0,0	test	ward_and_allport	0,0,0,2,0,0,3,1,0	82.0	33.0	0.383	1,2,3,0,0,0,0,0,0	to_board	s234
298.3	0.37	0	PA_without_intermediate	1,0,0,0,0,0,3,0,0	test	ward_and_allport	0,0,0,2,0,0,3,1,0	89.0	33.0	0.37	1,2,3,0,0,0,0,0,0	to_hand	s234
298.671	0.389	0	PA_without_intermediate	1,0,0,2,0,0,3,0,0	test	ward_and_allport	0,0,0,2,0,0,3,1,0	71.0	33.0	0.389	1,2,3,0,0,0,0,0,0	to_board	s234
299.065	0.382	0	PA_without_intermediate	0,0,0,2,0,0,3,0,0	test	ward_and_allport	0,0,0,2,0,0,3,1,0	89.0	33.0	0.382	1,2,3,0,0,0,0,0,0	to_hand	s234
299.449	0.384	0	PA_without_intermediate	0,0,0,2,0,0,3,1,0	test	ward_and_allport	0,0,0,2,0,0,3,1,0	82.0	33.0	0.384	1,2,3,0,0,0,0,0,0	to_board	s234
299.841	1.0	0	PA_without_intermediate	n/a	test	ward_and_allport	n/a	-1.0	33.0	n/a	n/a	feedback	s234
300.841	4.264	0	PA_without_intermediate	n/a	test	ward_and_allport	n/a	-1.0	33.0	n/a	n/a	ITI	s234
305.114	1.438	1	PA_with_intermediate	0,0,0,1,2,0,0,0,0	test	ward_and_allport	2,0,0,1,3,0,0,0,0	71.0	34.0	1.438	0,0,0,1,2,3,0,0,0	to_hand	s234
306.553	0.442	0	PA_with_intermediate	0,0,0,1,2,0,3,0,0	test	ward_and_allport	2,0,0,1,3,0,0,0,0	82.0	34.0	0.442	0,0,0,1,2,3,0,0,0	to_board	s234
307.006	0.396	0	PA_with_intermediate	0,0,0,1,0,0,3,0,0	test	ward_and_allport	2,0,0,1,3,0,0,0,0	71.0	34.0	0.396	0,0,0,1,2,3,0,0,0	to_hand	s234
307.403	0.335	0	PA_with_intermediate	2,0,0,1,0,0,3,0,0	test	ward_and_allport	2,0,0,1,3,0,0,0,0	89.0	34.0	0.335	0,0,0,1,2,3,0,0,0	to_board	s234
307.745	0.425	0	PA_with_intermediate	2,0,0,1,0,0,0,0,0	test	ward_and_allport	2,0,0,1,3,0,0,0,0	82.0	34.0	0.425	0,0,0,1,2,3,0,0,0	to_hand	s234
308.172	0.298	0	PA_with_intermediate	2,0,0,1,3,0,0,0,0	test	ward_and_allport	2,0,0,1,3,0,0,0,0	71.0	34.0	0.298	0,0,0,1,2,3,0,0,0	to_board	s234
308.478	1.0	0	PA_with_intermediate	n/a	test	ward_and_allport	n/a	-1.0	34.0	n/a	n/a	feedback	s234
309.478	3.04	0	PA_with_intermediate	n/a	test	ward_and_allport	n/a	-1.0	34.0	n/a	n/a	ITI	s234
312.524	2.224	1	PA_with_intermediate	0,0,0,0,0,0,1,2,0	test	ward_and_allport	0,0,0,2,3,0,1,0,0	82.0	35.0	2.224	0,0,0,0,0,0,1,2,3	to_hand	s234
314.749	0.375	0	PA_with_intermediate	3,0,0,0,0,0,1,2,0	test	ward_and_allport	0,0,0,2,3,0,1,0,0	89.0	35.0	0.375	0,0,0,0,0,0,1,2,3	to_board	s234
315.133	0.572	0	PA_with_intermediate	3,0,0,0,0,0,1,0,0	test	ward_and_allport	0,0,0,2,3,0,1,0,0	82.0	35.0	0.572	0,0,0,0,0,0,1,2,3	to_hand	s234
315.705	0.305	0	PA_with_intermediate	3,0,0,2,0,0,1,0,0	test	ward_and_allport	0,0,0,2,3,0,1,0,0	71.0	35.0	0.305	0,0,0,0,0,0,1,2,3	to_board	s234
316.02	0.532	0	PA_with_intermediate	0,0,0,2,0,0,1,0,0	test	ward_and_allport	0,0,0,2,3,0,1,0,0	89.0	35.0	0.532	0,0,0,0,0,0,1,2,3	to_hand	s234
316.553	0.318	0	PA_with_intermediate	0,0,0,2,3,0,1,0,0	test	ward_and_allport	0,0,0,2,3,0,1,0,0	71.0	35.0	0.318	0,0,0,0,0,0,1,2,3	to_board	s234
316.882	1.0	0	PA_with_intermediate	n/a	test	ward_and_allport	n/a	-1.0	35.0	n/a	n/a	feedback	s234
317.882	1.136	0	PA_with_intermediate	n/a	test	ward_and_allport	n/a	-1.0	35.0	n/a	n/a	ITI	s234
319.025	1.193	1	PA_with_intermediate	0,0,0,0,0,0,1,2,0	test	ward_and_allport	2,3,0,0,0,0,1,0,0	82.0	36.0	1.193	0,0,0,0,0,0,1,2,3	to_hand	s234
320.22	1.023	0	PA_with_intermediate	0,0,0,3,0,0,1,2,0	test	ward_and_allport	2,3,0,0,0,0,1,0,0	71.0	36.0	1.023	0,0,0,0,0,0,1,2,3	to_board	s234
321.25	0.485	0	PA_with_intermediate	0,0,0,3,0,0,1,0,0	test	ward_and_allport	2,3,0,0,0,0,1,0,0	82.0	36.0	0.485	0,0,0,0,0,0,1,2,3	to_hand	s234
321.735	0.292	0	PA_with_intermediate	2,0,0,3,0,0,1,0,0	test	ward_and_allport	2,3,0,0,0,0,1,0,0	89.0	36.0	0.292	0,0,0,0,0,0,1,2,3	to_board	s234
322.034	0.324	0	PA_with_intermediate	2,0,0,0,0,0,1,0,0	test	ward_and_allport	2,3,0,0,0,0,1,0,0	71.0	36.0	0.324	0,0,0,0,0,0,1,2,3	to_hand	s234
322.358	0.26	0	PA_with_intermediate	2,3,0,0,0,0,1,0,0	test	ward_and_allport	2,3,0,0,0,0,1,0,0	89.0	36.0	0.26	0,0,0,0,0,0,1,2,3	to_board	s234
322.625	1.0	0	PA_with_intermediate	n/a	test	ward_and_allport	n/a	-1.0	36.0	n/a	n/a	feedback	s234
323.625	1.408	0	PA_with_intermediate	n/a	test	ward_and_allport	n/a	-1.0	36.0	n/a	n/a	ITI	s234
325.04	1.345	1	PA_without_intermediate	0,0,0,0,0,0,1,2,0	test	ward_and_allport	1,0,0,3,2,0,0,0,0	82.0	37.0	1.345	0,0,0,0,0,0,1,2,3	to_hand	s234
326.387	0.294	0	PA_without_intermediate	0,0,0,3,0,0,1,2,0	test	ward_and_allport	1,0,0,3,2,0,0,0,0	71.0	37.0	0.294	0,0,0,0,0,0,1,2,3	to_board	s234
326.687	0.74	0	PA_without_intermediate	0,0,0,3,0,0,1,0,0	test	ward_and_allport	1,0,0,3,2,0,0,0,0	82.0	37.0	0.74	0,0,0,0,0,0,1,2,3	to_hand	s234
327.427	0.326	0	PA_without_intermediate	0,0,0,3,2,0,1,0,0	test	ward_and_allport	1,0,0,3,2,0,0,0,0	71.0	37.0	0.326	0,0,0,0,0,0,1,2,3	to_board	s234
327.761	0.52	0	PA_without_intermediate	0,0,0,3,2,0,0,0,0	test	ward_and_allport	1,0,0,3,2,0,0,0,0	82.0	37.0	0.52	0,0,0,0,0,0,1,2,3	to_hand	s234
328.282	0.237	0	PA_without_intermediate	1,0,0,3,2,0,0,0,0	test	ward_and_allport	1,0,0,3,2,0,0,0,0	89.0	37.0	0.237	0,0,0,0,0,0,1,2,3	to_board	s234
328.529	1.0	0	PA_without_intermediate	n/a	test	ward_and_allport	n/a	-1.0	37.0	n/a	n/a	feedback	s234
329.529	1.68	0	PA_without_intermediate	n/a	test	ward_and_allport	n/a	-1.0	37.0	n/a	n/a	ITI	s234
331.216	2.522	1	PA_with_intermediate	0,0,0,1,2,0,0,0,0	test	ward_and_allport	2,3,0,1,0,0,0,0,0	71.0	38.0	2.522	0,0,0,1,2,3,0,0,0	to_hand	s234
333.74	0.393	0	PA_with_intermediate	0,0,0,1,2,0,3,0,0	test	ward_and_allport	2,3,0,1,0,0,0,0,0	82.0	38.0	0.393	0,0,0,1,2,3,0,0,0	to_board	s234
334.139	0.348	0	PA_with_intermediate	0,0,0,1,0,0,3,0,0	test	ward_and_allport	2,3,0,1,0,0,0,0,0	71.0	38.0	0.348	0,0,0,1,2,3,0,0,0	to_hand	s234
334.488	0.307	0	PA_with_intermediate	2,0,0,1,0,0,3,0,0	test	ward_and_allport	2,3,0,1,0,0,0,0,0	89.0	38.0	0.307	0,0,0,1,2,3,0,0,0	to_board	s234
334.804	0.583	0	PA_with_intermediate	2,0,0,1,0,0,0,0,0	test	ward_and_allport	2,3,0,1,0,0,0,0,0	82.0	38.0	0.583	0,0,0,1,2,3,0,0,0	to_hand	s234
335.388	0.253	0	PA_with_intermediate	2,3,0,1,0,0,0,0,0	test	ward_and_allport	2,3,0,1,0,0,0,0,0	89.0	38.0	0.253	0,0,0,1,2,3,0,0,0	to_board	s234
335.648	1.0	0	PA_with_intermediate	n/a	test	ward_and_allport	n/a	-1.0	38.0	n/a	n/a	feedback	s234
336.648	3.72	0	PA_with_intermediate	n/a	test	ward_and_allport	n/a	-1.0	38.0	n/a	n/a	ITI	s234
340.378	0.987	1	PA_without_intermediate	0,0,0,0,0,0,1,2,0	test	ward_and_allport	1,0,0,3,2,0,0,0,0	82.0	39.0	0.987	0,0,0,0,0,0,1,2,3	to_hand	s234
341.366	0.353	0	PA_without_intermediate	0,0,0,3,0,0,1,2,0	test	ward_and_allport	1,0,0,3,2,0,0,0,0	71.0	39.0	0.353	0,0,0,0,0,0,1,2,3	to_board	s234
341.728	0.61	0	PA_without_intermediate	0,0,0,3,0,0,1,0,0	test	ward_and_allport	1,0,0,3,2,0,0,0,0	82.0	39.0	0.61	0,0,0,0,0,0,1,2,3	to_hand	s234
342.34	1.155	0	PA_without_intermediate	0,0,0,3,2,0,1,0,0	test	ward_and_allport	1,0,0,3,2,0,0,0,0	71.0	39.0	1.155	0,0,0,0,0,0,1,2,3	to_board	s234
343.504	0.394	0	PA_without_intermediate	0,0,0,3,2,0,0,0,0	test	ward_and_allport	1,0,0,3,2,0,0,0,0	82.0	39.0	0.394	0,0,0,0,0,0,1,2,3	to_hand	s234
343.9	0.288	0	PA_without_intermediate	1,0,0,3,2,0,0,0,0	test	ward_and_allport	1,0,0,3,2,0,0,0,0	89.0	39.0	0.288	0,0,0,0,0,0,1,2,3	to_board	s234
344.196	1.0	0	PA_without_intermediate	n/a	test	ward_and_allport	n/a	-1.0	39.0	n/a	n/a	feedback	s234
345.196	2.224	0	PA_without_intermediate	n/a	test	ward_and_allport	n/a	-1.0	39.0	n/a	n/a	ITI	s234
347.426	2.581	1	PA_without_intermediate	0,0,0,1,2,0,0,0,0	test	ward_and_allport	3,2,0,0,0,0,1,0,0	71.0	40.0	2.581	0,0,0,1,2,3,0,0,0	to_hand	s234
350.008	0.323	0	PA_without_intermediate	3,0,0,1,2,0,0,0,0	test	ward_and_allport	3,2,0,0,0,0,1,0,0	89.0	40.0	0.323	0,0,0,1,2,3,0,0,0	to_board	s234
350.338	0.608	0	PA_without_intermediate	3,0,0,1,0,0,0,0,0	test	ward_and_allport	3,2,0,0,0,0,1,0,0	71.0	40.0	0.608	0,0,0,1,2,3,0,0,0	to_hand	s234
350.947	0.385	0	PA_without_intermediate	3,2,0,1,0,0,0,0,0	test	ward_and_allport	3,2,0,0,0,0,1,0,0	89.0	40.0	0.385	0,0,0,1,2,3,0,0,0	to_board	s234
351.343	0.34	0	PA_without_intermediate	3,2,0,0,0,0,0,0,0	test	ward_and_allport	3,2,0,0,0,0,1,0,0	71.0	40.0	0.34	0,0,0,1,2,3,0,0,0	to_hand	s234
351.684	0.323	0	PA_without_intermediate	3,2,0,0,0,0,1,0,0	test	ward_and_allport	3,2,0,0,0,0,1,0,0	82.0	40.0	0.323	0,0,0,1,2,3,0,0,0	to_board	s234
352.018	1.0	0	PA_without_intermediate	n/a	test	ward_and_allport	n/a	-1.0	40.0	n/a	n/a	feedback	s234
353.018	1.272	0	PA_without_intermediate	n/a	test	ward_and_allport	n/a	-1.0	40.0	n/a	n/a	ITI	s234
354.297	2.061	1	PA_with_intermediate	0,0,0,0,0,0,1,2,0	test	ward_and_allport	2,3,0,0,0,0,1,0,0	82.0	41.0	2.061	0,0,0,0,0,0,1,2,3	to_hand	s234
356.358	0.305	0	PA_with_intermediate	0,0,0,3,0,0,1,2,0	test	ward_and_allport	2,3,0,0,0,0,1,0,0	71.0	41.0	0.305	0,0,0,0,0,0,1,2,3	to_board	s234
356.67	0.382	0	PA_with_intermediate	0,0,0,3,0,0,1,0,0	test	ward_and_allport	2,3,0,0,0,0,1,0,0	82.0	41.0	0.382	0,0,0,0,0,0,1,2,3	to_hand	s234
357.052	0.292	0	PA_with_intermediate	2,0,0,3,0,0,1,0,0	test	ward_and_allport	2,3,0,0,0,0,1,0,0	89.0	41.0	0.292	0,0,0,0,0,0,1,2,3	to_board	s234
357.352	0.634	0	PA_with_intermediate	2,0,0,0,0,0,1,0,0	test	ward_and_allport	2,3,0,0,0,0,1,0,0	71.0	41.0	0.634	0,0,0,0,0,0,1,2,3	to_hand	s234
357.987	0.293	0	PA_with_intermediate	2,3,0,0,0,0,1,0,0	test	ward_and_allport	2,3,0,0,0,0,1,0,0	89.0	41.0	0.293	0,0,0,0,0,0,1,2,3	to_board	s234
358.288	1.0	0	PA_with_intermediate	n/a	test	ward_and_allport	n/a	-1.0	41.0	n/a	n/a	feedback	s234
359.288	2.632	0	PA_with_intermediate	n/a	test	ward_and_allport	n/a	-1.0	41.0	n/a	n/a	ITI	s234
361.928	1.496	1	PA_without_intermediate	0,0,0,1,2,0,0,0,0	test	ward_and_allport	1,0,0,0,0,0,3,2,0	71.0	42.0	1.496	0,0,0,1,2,3,0,0,0	to_hand	s234
363.424	0.378	0	PA_without_intermediate	0,0,0,1,2,0,3,0,0	test	ward_and_allport	1,0,0,0,0,0,3,2,0	82.0	42.0	0.378	0,0,0,1,2,3,0,0,0	to_board	s234
363.809	0.608	0	PA_without_intermediate	0,0,0,1,0,0,3,0,0	test	ward_and_allport	1,0,0,0,0,0,3,2,0	71.0	42.0	0.608	0,0,0,1,2,3,0,0,0	to_hand	s234
364.418	0.423	0	PA_without_intermediate	0,0,0,1,0,0,3,2,0	test	ward_and_allport	1,0,0,0,0,0,3,2,0	82.0	42.0	0.423	0,0,0,1,2,3,0,0,0	to_board	s234
364.849	0.38	0	PA_without_intermediate	0,0,0,0,0,0,3,2,0	test	ward_and_allport	1,0,0,0,0,0,3,2,0	71.0	42.0	0.38	0,0,0,1,2,3,0,0,0	to_hand	s234
365.23	0.308	0	PA_without_intermediate	1,0,0,0,0,0,3,2,0	test	ward_and_allport	1,0,0,0,0,0,3,2,0	89.0	42.0	0.308	0,0,0,1,2,3,0,0,0	to_board	s234
365.55	1.0	0	PA_without_intermediate	n/a	test	ward_and_allport	n/a	-1.0	42.0	n/a	n/a	feedback	s234
366.55	1.408	0	PA_without_intermediate	n/a	test	ward_and_allport	n/a	-1.0	42.0	n/a	n/a	ITI	s234
367.968	1.139	1	PA_without_intermediate	1,2,0,0,0,0,0,0,0	test	ward_and_allport	0,0,0,3,1,0,2,0,0	89.0	43.0	1.139	1,2,3,0,0,0,0,0,0	to_hand	s234
369.108	0.566	0	PA_without_intermediate	1,2,0,3,0,0,0,0,0	test	ward_and_allport	0,0,0,3,1,0,2,0,0	71.0	43.0	0.566	1,2,3,0,0,0,0,0,0	to_board	s234
369.682	0.565	0	PA_without_intermediate	1,0,0,3,0,0,0,0,0	test	ward_and_allport	0,0,0,3,1,0,2,0,0	89.0	43.0	0.565	1,2,3,0,0,0,0,0,0	to_hand	s234
370.248	0.299	0	PA_without_intermediate	1,0,0,3,0,0,2,0,0	test	ward_and_allport	0,0,0,3,1,0,2,0,0	82.0	43.0	0.299	1,2,3,0,0,0,0,0,0	to_board	s234
370.554	0.623	0	PA_without_intermediate	0,0,0,3,0,0,2,0,0	test	ward_and_allport	0,0,0,3,1,0,2,0,0	89.0	43.0	0.623	1,2,3,0,0,0,0,0,0	to_hand	s234
371.178	0.26	0	PA_without_intermediate	0,0,0,3,1,0,2,0,0	test	ward_and_allport	0,0,0,3,1,0,2,0,0	71.0	43.0	0.26	1,2,3,0,0,0,0,0,0	to_board	s234
371.446	1.0	0	PA_without_intermediate	n/a	test	ward_and_allport	n/a	-1.0	43.0	n/a	n/a	feedback	s234
372.446	1.0	0	PA_without_intermediate	n/a	test	ward_and_allport	n/a	-1.0	43.0	n/a	n/a	ITI	s234
373.455	0.83	1	PA_with_intermediate	1,2,0,0,0,0,0,0,0	test	ward_and_allport	1,0,0,0,0,0,2,3,0	89.0	44.0	0.83	1,2,3,0,0,0,0,0,0	to_hand	s234
374.287	1.764	0	PA_with_intermediate	1,2,0,3,0,0,0,0,0	test	ward_and_allport	1,0,0,0,0,0,2,3,0	71.0	44.0	1.764	1,2,3,0,0,0,0,0,0	to_board	s234
376.058	0.307	0	PA_with_intermediate	1,0,0,3,0,0,0,0,0	test	ward_and_allport	1,0,0,0,0,0,2,3,0	89.0	44.0	0.307	1,2,3,0,0,0,0,0,0	to_hand	s234
376.366	0.28	0	PA_with_intermediate	1,0,0,3,0,0,2,0,0	test	ward_and_allport	1,0,0,0,0,0,2,3,0	82.0	44.0	0.28	1,2,3,0,0,0,0,0,0	to_board	s234
376.652	0.472	0	PA_with_intermediate	1,0,0,0,0,0,2,0,0	test	ward_and_allport	1,0,0,0,0,0,2,3,0	71.0	44.0	0.472	1,2,3,0,0,0,0,0,0	to_hand	s234
377.126	0.256	0	PA_with_intermediate	1,0,0,0,0,0,2,3,0	test	ward_and_allport	1,0,0,0,0,0,2,3,0	82.0	44.0	0.256	1,2,3,0,0,0,0,0,0	to_board	s234
377.39	1.0	0	PA_with_intermediate	n/a	test	ward_and_allport	n/a	-1.0	44.0	n/a	n/a	feedback	s234
378.39	1.0	0	PA_with_intermediate	n/a	test	ward_and_allport	n/a	-1.0	44.0	n/a	n/a	ITI	s234
384.403	0.81	1	PA_with_intermediate	1,2,0,0,0,0,0,0,0	test	ward_and_allport	1,3,0,2,0,0,0,0,0	89.0	45.0	0.81	1,2,3,0,0,0,0,0,0	to_hand	s234
385.214	1.487	0	PA_with_intermediate	1,2,0,3,0,0,0,0,0	test	ward_and_allport	1,3,0,2,0,0,0,0,0	71.0	45.0	1.487	1,2,3,0,0,0,0,0,0	to_board	s234
386.712	0.298	0	PA_with_intermediate	1,0,0,3,0,0,0,0,0	test	ward_and_allport	1,3,0,2,0,0,0,0,0	89.0	45.0	0.298	1,2,3,0,0,0,0,0,0	to_hand	s234
387.01	0.515	0	PA_with_intermediate	1,0,0,3,0,0,2,0,0	test	ward_and_allport	1,3,0,2,0,0,0,0,0	82.0	45.0	0.515	1,2,3,0,0,0,0,0,0	to_board	s234
387.535	0.563	0	PA_with_intermediate	0,0,0,3,0,0,2,0,0	test	ward_and_allport	1,3,0,2,0,0,0,0,0	89.0	45.0	0.563	1,2,3,0,0,0,0,0,0	to_hand	s234
388.1	0.925	0	PA_with_intermediate	1,0,0,3,0,0,2,0,0	test	ward_and_allport	1,3,0,2,0,0,0,0,0	89.0	45.0	0.925	1,2,3,0,0,0,0,0,0	to_board	s234
389.035	0.257	0	PA_with_intermediate	1,0,0,0,0,0,2,0,0	test	ward_and_allport	1,3,0,2,0,0,0,0,0	71.0	45.0	0.257	1,2,3,0,0,0,0,0,0	to_hand	s234
389.293	0.201	0	PA_with_intermediate	1,3,0,0,0,0,2,0,0	test	ward_and_allport	1,3,0,2,0,0,0,0,0	89.0	45.0	0.201	1,2,3,0,0,0,0,0,0	to_board	s234
389.502	0.545	0	PA_with_intermediate	1,3,0,0,0,0,0,0,0	test	ward_and_allport	1,3,0,2,0,0,0,0,0	82.0	45.0	0.545	1,2,3,0,0,0,0,0,0	to_hand	s234
390.048	0.254	0	PA_with_intermediate	1,3,0,2,0,0,0,0,0	test	ward_and_allport	1,3,0,2,0,0,0,0,0	71.0	45.0	0.254	1,2,3,0,0,0,0,0,0	to_board	s234
390.311	1.0	0	PA_with_intermediate	n/a	test	ward_and_allport	n/a	-1.0	45.0	n/a	n/a	feedback	s234
391.311	1.0	0	PA_with_intermediate	n/a	test	ward_and_allport	n/a	-1.0	45.0	n/a	n/a	ITI	s234
392.32	1.159	1	PA_with_intermediate	0,0,0,0,0,0,1,2,0	test	ward_and_allport	2,0,0,0,0,0,1,3,0	82.0	46.0	1.159	0,0,0,0,0,0,1,2,3	to_hand	s234
393.48	2.576	0	PA_with_intermediate	0,0,0,3,0,0,1,2,0	test	ward_and_allport	2,0,0,0,0,0,1,3,0	71.0	46.0	2.576	0,0,0,0,0,0,1,2,3	to_board	s234
396.064	0.407	0	PA_with_intermediate	0,0,0,3,0,0,1,0,0	test	ward_and_allport	2,0,0,0,0,0,1,3,0	82.0	46.0	0.407	0,0,0,0,0,0,1,2,3	to_hand	s234
396.472	0.332	0	PA_with_intermediate	2,0,0,3,0,0,1,0,0	test	ward_and_allport	2,0,0,0,0,0,1,3,0	89.0	46.0	0.332	0,0,0,0,0,0,1,2,3	to_board	s234
396.814	0.35	0	PA_with_intermediate	2,0,0,0,0,0,1,0,0	test	ward_and_allport	2,0,0,0,0,0,1,3,0	71.0	46.0	0.35	0,0,0,0,0,0,1,2,3	to_hand	s234
397.165	0.26	0	PA_with_intermediate	2,0,0,0,0,0,1,3,0	test	ward_and_allport	2,0,0,0,0,0,1,3,0	82.0	46.0	0.26	0,0,0,0,0,0,1,2,3	to_board	s234
397.437	1.0	0	PA_with_intermediate	n/a	test	ward_and_allport	n/a	-1.0	46.0	n/a	n/a	feedback	s234
398.437	1.408	0	PA_with_intermediate	n/a	test	ward_and_allport	n/a	-1.0	46.0	n/a	n/a	ITI	s234
399.853	1.037	1	PA_without_intermediate	0,0,0,0,0,0,1,2,0	test	ward_and_allport	2,0,0,3,1,0,0,0,0	82.0	47.0	1.037	0,0,0,0,0,0,1,2,3	to_hand	s234
400.891	0.323	0	PA_without_intermediate	0,0,0,3,0,0,1,2,0	test	ward_and_allport	2,0,0,3,1,0,0,0,0	71.0	47.0	0.323	0,0,0,0,0,0,1,2,3	to_board	s234
401.222	0.663	0	PA_without_intermediate	0,0,0,3,0,0,1,0,0	test	ward_and_allport	2,0,0,3,1,0,0,0,0	82.0	47.0	0.663	0,0,0,0,0,0,1,2,3	to_hand	s234
401.886	0.277	0	PA_without_intermediate	2,0,0,3,0,0,1,0,0	test	ward_and_allport	2,0,0,3,1,0,0,0,0	89.0	47.0	0.277	0,0,0,0,0,0,1,2,3	to_board	s234
402.17	0.691	0	PA_without_intermediate	2,0,0,3,0,0,0,0,0	test	ward_and_allport	2,0,0,3,1,0,0,0,0	82.0	47.0	0.691	0,0,0,0,0,0,1,2,3	to_hand	s234
402.863	0.333	0	PA_without_intermediate	2,0,0,3,1,0,0,0,0	test	ward_and_allport	2,0,0,3,1,0,0,0,0	71.0	47.0	0.333	0,0,0,0,0,0,1,2,3	to_board	s234
403.206	1.0	0	PA_without_intermediate	n/a	test	ward_and_allport	n/a	-1.0	47.0	n/a	n/a	feedback	s234
404.206	1.816	0	PA_without_intermediate	n/a	test	ward_and_allport	n/a	-1.0	47.0	n/a	n/a	ITI	s234
n/a	n/a	0	n/a	n/a	n/a	n/a	n/a	n/a	n/a	n/a	n/a	ITI	n/a
