onset	duration	planning	condition	current_position	exp_stage	experiment_exp_id	goal_state	key_press	problem_id	response_time	start_state	trial_id	worker_id
-42.962	0.0	0	n/a	n/a	n/a	ward_and_allport	n/a	32.0	n/a	4.725	n/a	instructions	s445
3.007	4.715	1	UA_with_intermediate	1,0,0,2,0,0,0,0,0	practice	ward_and_allport	1,2,3,0,0,0,0,0,0	71.0	0.0	4.715	1,0,0,2,3,0,0,0,0	to_hand	s445
7.722	1.642	0	UA_with_intermediate	1,0,0,2,0,0,3,0,0	practice	ward_and_allport	1,2,3,0,0,0,0,0,0	82.0	0.0	1.642	1,0,0,2,3,0,0,0,0	to_board	s445
9.367	0.817	0	UA_with_intermediate	1,0,0,0,0,0,3,0,0	practice	ward_and_allport	1,2,3,0,0,0,0,0,0	71.0	0.0	0.817	1,0,0,2,3,0,0,0,0	to_hand	s445
10.185	0.31	0	UA_with_intermediate	1,2,0,0,0,0,3,0,0	practice	ward_and_allport	1,2,3,0,0,0,0,0,0	89.0	0.0	0.31	1,0,0,2,3,0,0,0,0	to_board	s445
10.497	1.161	0	UA_with_intermediate	1,2,0,0,0,0,0,0,0	practice	ward_and_allport	1,2,3,0,0,0,0,0,0	82.0	0.0	1.161	1,0,0,2,3,0,0,0,0	to_hand	s445
11.659	0.324	0	UA_with_intermediate	1,2,3,0,0,0,0,0,0	practice	ward_and_allport	1,2,3,0,0,0,0,0,0	89.0	0.0	0.324	1,0,0,2,3,0,0,0,0	to_board	s445
11.986	1.0	0	UA_with_intermediate	n/a	practice	ward_and_allport	n/a	-1.0	0.0	n/a	n/a	feedback	s445
14.489	2.332	1	UA_with_intermediate	1,0,0,3,0,0,0,0,0	practice	ward_and_allport	1,3,2,0,0,0,0,0,0	89.0	1.0	2.332	1,2,0,3,0,0,0,0,0	to_hand	s445
16.822	1.163	0	UA_with_intermediate	1,0,0,3,0,0,2,0,0	practice	ward_and_allport	1,3,2,0,0,0,0,0,0	82.0	1.0	1.163	1,2,0,3,0,0,0,0,0	to_board	s445
17.987	0.464	0	UA_with_intermediate	1,0,0,0,0,0,2,0,0	practice	ward_and_allport	1,3,2,0,0,0,0,0,0	71.0	1.0	0.464	1,2,0,3,0,0,0,0,0	to_hand	s445
18.452	0.381	0	UA_with_intermediate	1,3,0,0,0,0,2,0,0	practice	ward_and_allport	1,3,2,0,0,0,0,0,0	89.0	1.0	0.381	1,2,0,3,0,0,0,0,0	to_board	s445
18.834	0.832	0	UA_with_intermediate	1,3,0,0,0,0,0,0,0	practice	ward_and_allport	1,3,2,0,0,0,0,0,0	82.0	1.0	0.832	1,2,0,3,0,0,0,0,0	to_hand	s445
19.667	0.221	0	UA_with_intermediate	1,3,2,0,0,0,0,0,0	practice	ward_and_allport	1,3,2,0,0,0,0,0,0	89.0	1.0	0.221	1,2,0,3,0,0,0,0,0	to_board	s445
19.891	1.0	0	UA_with_intermediate	n/a	practice	ward_and_allport	n/a	-1.0	1.0	n/a	n/a	feedback	s445
20.891	1.1	0	UA_with_intermediate	n/a	practice	ward_and_allport	n/a	-1.0	1.0	n/a	n/a	ITI	s445
21.993	2.058	1	UA_without_intermediate	0,0,0,1,2,0,0,0,0	practice	ward_and_allport	3,2,1,0,0,0,0,0,0	82.0	2.0	2.058	0,0,0,1,2,0,3,0,0	to_hand	s445
24.051	0.326	0	UA_without_intermediate	3,0,0,1,2,0,0,0,0	practice	ward_and_allport	3,2,1,0,0,0,0,0,0	89.0	2.0	0.326	0,0,0,1,2,0,3,0,0	to_board	s445
24.379	1.438	0	UA_without_intermediate	3,0,0,1,0,0,0,0,0	practice	ward_and_allport	3,2,1,0,0,0,0,0,0	71.0	2.0	1.438	0,0,0,1,2,0,3,0,0	to_hand	s445
25.818	0.289	0	UA_without_intermediate	3,2,0,1,0,0,0,0,0	practice	ward_and_allport	3,2,1,0,0,0,0,0,0	89.0	2.0	0.289	0,0,0,1,2,0,3,0,0	to_board	s445
26.109	0.488	0	UA_without_intermediate	3,2,0,0,0,0,0,0,0	practice	ward_and_allport	3,2,1,0,0,0,0,0,0	71.0	2.0	0.488	0,0,0,1,2,0,3,0,0	to_hand	s445
26.598	0.232	0	UA_without_intermediate	3,2,1,0,0,0,0,0,0	practice	ward_and_allport	3,2,1,0,0,0,0,0,0	89.0	2.0	0.232	0,0,0,1,2,0,3,0,0	to_board	s445
26.833	1.0	0	UA_without_intermediate	n/a	practice	ward_and_allport	n/a	-1.0	2.0	n/a	n/a	feedback	s445
27.833	1.2	0	UA_without_intermediate	n/a	practice	ward_and_allport	n/a	-1.0	2.0	n/a	n/a	ITI	s445
29.034	1.886	1	UA_without_intermediate	0,0,0,1,0,0,3,0,0	practice	ward_and_allport	2,3,1,0,0,0,0,0,0	71.0	3.0	1.886	0,0,0,1,2,0,3,0,0	to_hand	s445
30.921	0.341	0	UA_without_intermediate	2,0,0,1,0,0,3,0,0	practice	ward_and_allport	2,3,1,0,0,0,0,0,0	89.0	3.0	0.341	0,0,0,1,2,0,3,0,0	to_board	s445
31.264	0.965	0	UA_without_intermediate	2,0,0,1,0,0,0,0,0	practice	ward_and_allport	2,3,1,0,0,0,0,0,0	82.0	3.0	0.965	0,0,0,1,2,0,3,0,0	to_hand	s445
32.23	0.281	0	UA_without_intermediate	2,3,0,1,0,0,0,0,0	practice	ward_and_allport	2,3,1,0,0,0,0,0,0	89.0	3.0	0.281	0,0,0,1,2,0,3,0,0	to_board	s445
32.512	0.526	0	UA_without_intermediate	2,3,0,0,0,0,0,0,0	practice	ward_and_allport	2,3,1,0,0,0,0,0,0	71.0	3.0	0.526	0,0,0,1,2,0,3,0,0	to_hand	s445
33.039	0.256	0	UA_without_intermediate	2,3,1,0,0,0,0,0,0	practice	ward_and_allport	2,3,1,0,0,0,0,0,0	89.0	3.0	0.256	0,0,0,1,2,0,3,0,0	to_board	s445
33.299	1.0	0	UA_without_intermediate	n/a	practice	ward_and_allport	n/a	-1.0	3.0	n/a	n/a	feedback	s445
34.299	1.0	0	UA_without_intermediate	n/a	practice	ward_and_allport	n/a	-1.0	3.0	n/a	n/a	ITI	s445
37.306	3.313	1	PA_without_intermediate	0,0,0,0,0,0,1,2,0	test	ward_and_allport	3,1,0,2,0,0,0,0,0	82.0	0.0	3.313	0,0,0,0,0,0,1,2,3	to_hand	s445
40.619	0.576	0	PA_without_intermediate	3,0,0,0,0,0,1,2,0	test	ward_and_allport	3,1,0,2,0,0,0,0,0	89.0	0.0	0.576	0,0,0,0,0,0,1,2,3	to_board	s445
41.198	2.126	0	PA_without_intermediate	3,0,0,0,0,0,1,0,0	test	ward_and_allport	3,1,0,2,0,0,0,0,0	82.0	0.0	2.126	0,0,0,0,0,0,1,2,3	to_hand	s445
43.325	0.409	0	PA_without_intermediate	3,0,0,2,0,0,1,0,0	test	ward_and_allport	3,1,0,2,0,0,0,0,0	71.0	0.0	0.409	0,0,0,0,0,0,1,2,3	to_board	s445
43.737	0.579	0	PA_without_intermediate	3,0,0,2,0,0,0,0,0	test	ward_and_allport	3,1,0,2,0,0,0,0,0	82.0	0.0	0.579	0,0,0,0,0,0,1,2,3	to_hand	s445
44.318	0.244	0	PA_without_intermediate	3,1,0,2,0,0,0,0,0	test	ward_and_allport	3,1,0,2,0,0,0,0,0	89.0	0.0	0.244	0,0,0,0,0,0,1,2,3	to_board	s445
44.565	1.0	0	PA_without_intermediate	n/a	test	ward_and_allport	n/a	-1.0	0.0	n/a	n/a	feedback	s445
45.565	2.088	0	PA_without_intermediate	n/a	test	ward_and_allport	n/a	-1.0	0.0	n/a	n/a	ITI	s445
47.655	3.078	1	PA_with_intermediate	0,0,0,1,2,0,0,0,0	test	ward_and_allport	0,0,0,1,3,0,2,0,0	71.0	1.0	3.078	0,0,0,1,2,3,0,0,0	to_hand	s445
50.734	0.589	0	PA_with_intermediate	3,0,0,1,2,0,0,0,0	test	ward_and_allport	0,0,0,1,3,0,2,0,0	89.0	1.0	0.589	0,0,0,1,2,3,0,0,0	to_board	s445
51.325	0.406	0	PA_with_intermediate	3,0,0,1,0,0,0,0,0	test	ward_and_allport	0,0,0,1,3,0,2,0,0	71.0	1.0	0.406	0,0,0,1,2,3,0,0,0	to_hand	s445
51.732	0.316	0	PA_with_intermediate	3,0,0,1,0,0,2,0,0	test	ward_and_allport	0,0,0,1,3,0,2,0,0	82.0	1.0	0.316	0,0,0,1,2,3,0,0,0	to_board	s445
52.05	0.388	0	PA_with_intermediate	3,0,0,0,0,0,2,0,0	test	ward_and_allport	0,0,0,1,3,0,2,0,0	71.0	1.0	0.388	0,0,0,1,2,3,0,0,0	to_hand	s445
52.439	0.665	0	PA_with_intermediate	3,0,0,1,0,0,2,0,0	test	ward_and_allport	0,0,0,1,3,0,2,0,0	71.0	1.0	0.665	0,0,0,1,2,3,0,0,0	to_board	s445
53.107	0.349	0	PA_with_intermediate	0,0,0,1,0,0,2,0,0	test	ward_and_allport	0,0,0,1,3,0,2,0,0	89.0	1.0	0.349	0,0,0,1,2,3,0,0,0	to_hand	s445
53.456	0.58	0	PA_with_intermediate	0,0,0,1,3,0,2,0,0	test	ward_and_allport	0,0,0,1,3,0,2,0,0	71.0	1.0	0.58	0,0,0,1,2,3,0,0,0	to_board	s445
54.04	1.0	0	PA_with_intermediate	n/a	test	ward_and_allport	n/a	-1.0	1.0	n/a	n/a	feedback	s445
55.04	1.0	0	PA_with_intermediate	n/a	test	ward_and_allport	n/a	-1.0	1.0	n/a	n/a	ITI	s445
56.043	2.919	1	PA_without_intermediate	1,2,0,0,0,0,0,0,0	test	ward_and_allport	0,0,0,2,0,0,3,1,0	89.0	2.0	2.919	1,2,3,0,0,0,0,0,0	to_hand	s445
58.962	0.572	0	PA_without_intermediate	1,2,0,0,0,0,3,0,0	test	ward_and_allport	0,0,0,2,0,0,3,1,0	82.0	2.0	0.572	1,2,3,0,0,0,0,0,0	to_board	s445
59.536	1.7	0	PA_without_intermediate	1,0,0,0,0,0,3,0,0	test	ward_and_allport	0,0,0,2,0,0,3,1,0	89.0	2.0	1.7	1,2,3,0,0,0,0,0,0	to_hand	s445
61.237	0.45	0	PA_without_intermediate	1,0,0,2,0,0,3,0,0	test	ward_and_allport	0,0,0,2,0,0,3,1,0	71.0	2.0	0.45	1,2,3,0,0,0,0,0,0	to_board	s445
61.689	0.707	0	PA_without_intermediate	0,0,0,2,0,0,3,0,0	test	ward_and_allport	0,0,0,2,0,0,3,1,0	89.0	2.0	0.707	1,2,3,0,0,0,0,0,0	to_hand	s445
62.397	0.365	0	PA_without_intermediate	0,0,0,2,0,0,3,1,0	test	ward_and_allport	0,0,0,2,0,0,3,1,0	82.0	2.0	0.365	1,2,3,0,0,0,0,0,0	to_board	s445
62.766	1.0	0	PA_without_intermediate	n/a	test	ward_and_allport	n/a	-1.0	2.0	n/a	n/a	feedback	s445
63.766	1.0	0	PA_without_intermediate	n/a	test	ward_and_allport	n/a	-1.0	2.0	n/a	n/a	ITI	s445
64.769	2.012	1	PA_without_intermediate	1,2,0,0,0,0,0,0,0	test	ward_and_allport	0,0,0,3,2,0,1,0,0	89.0	3.0	2.012	1,2,3,0,0,0,0,0,0	to_hand	s445
66.782	0.326	0	PA_without_intermediate	1,2,0,3,0,0,0,0,0	test	ward_and_allport	0,0,0,3,2,0,1,0,0	71.0	3.0	0.326	1,2,3,0,0,0,0,0,0	to_board	s445
67.11	0.723	0	PA_without_intermediate	1,0,0,3,0,0,0,0,0	test	ward_and_allport	0,0,0,3,2,0,1,0,0	89.0	3.0	0.723	1,2,3,0,0,0,0,0,0	to_hand	s445
67.835	0.387	0	PA_without_intermediate	1,0,0,3,2,0,0,0,0	test	ward_and_allport	0,0,0,3,2,0,1,0,0	71.0	3.0	0.387	1,2,3,0,0,0,0,0,0	to_board	s445
68.224	0.847	0	PA_without_intermediate	0,0,0,3,2,0,0,0,0	test	ward_and_allport	0,0,0,3,2,0,1,0,0	89.0	3.0	0.847	1,2,3,0,0,0,0,0,0	to_hand	s445
69.071	0.339	0	PA_without_intermediate	0,0,0,3,2,0,1,0,0	test	ward_and_allport	0,0,0,3,2,0,1,0,0	82.0	3.0	0.339	1,2,3,0,0,0,0,0,0	to_board	s445
69.413	1.0	0	PA_without_intermediate	n/a	test	ward_and_allport	n/a	-1.0	3.0	n/a	n/a	feedback	s445
70.413	1.0	0	PA_without_intermediate	n/a	test	ward_and_allport	n/a	-1.0	3.0	n/a	n/a	ITI	s445
71.416	3.619	1	PA_with_intermediate	0,0,0,0,0,0,1,2,0	test	ward_and_allport	0,0,0,2,3,0,1,0,0	82.0	4.0	3.619	0,0,0,0,0,0,1,2,3	to_hand	s445
75.036	0.401	0	PA_with_intermediate	3,0,0,0,0,0,1,2,0	test	ward_and_allport	0,0,0,2,3,0,1,0,0	89.0	4.0	0.401	0,0,0,0,0,0,1,2,3	to_board	s445
75.44	0.715	0	PA_with_intermediate	3,0,0,0,0,0,1,0,0	test	ward_and_allport	0,0,0,2,3,0,1,0,0	82.0	4.0	0.715	0,0,0,0,0,0,1,2,3	to_hand	s445
76.156	0.573	0	PA_with_intermediate	3,0,0,2,0,0,1,0,0	test	ward_and_allport	0,0,0,2,3,0,1,0,0	71.0	4.0	0.573	0,0,0,0,0,0,1,2,3	to_board	s445
76.732	0.493	0	PA_with_intermediate	0,0,0,2,0,0,1,0,0	test	ward_and_allport	0,0,0,2,3,0,1,0,0	89.0	4.0	0.493	0,0,0,0,0,0,1,2,3	to_hand	s445
77.226	0.522	0	PA_with_intermediate	0,0,0,2,3,0,1,0,0	test	ward_and_allport	0,0,0,2,3,0,1,0,0	71.0	4.0	0.522	0,0,0,0,0,0,1,2,3	to_board	s445
77.752	1.0	0	PA_with_intermediate	n/a	test	ward_and_allport	n/a	-1.0	4.0	n/a	n/a	feedback	s445
78.752	1.544	0	PA_with_intermediate	n/a	test	ward_and_allport	n/a	-1.0	4.0	n/a	n/a	ITI	s445
80.3	3.089	1	PA_without_intermediate	0,0,0,1,2,0,0,0,0	test	ward_and_allport	3,2,0,0,0,0,1,0,0	71.0	5.0	3.089	0,0,0,1,2,3,0,0,0	to_hand	s445
83.39	0.568	0	PA_without_intermediate	3,0,0,1,2,0,0,0,0	test	ward_and_allport	3,2,0,0,0,0,1,0,0	89.0	5.0	0.568	0,0,0,1,2,3,0,0,0	to_board	s445
83.961	0.409	0	PA_without_intermediate	3,0,0,1,0,0,0,0,0	test	ward_and_allport	3,2,0,0,0,0,1,0,0	71.0	5.0	0.409	0,0,0,1,2,3,0,0,0	to_hand	s445
84.372	0.346	0	PA_without_intermediate	3,2,0,1,0,0,0,0,0	test	ward_and_allport	3,2,0,0,0,0,1,0,0	89.0	5.0	0.346	0,0,0,1,2,3,0,0,0	to_board	s445
84.721	0.472	0	PA_without_intermediate	3,2,0,0,0,0,0,0,0	test	ward_and_allport	3,2,0,0,0,0,1,0,0	71.0	5.0	0.472	0,0,0,1,2,3,0,0,0	to_hand	s445
85.195	0.61	0	PA_without_intermediate	3,2,0,0,0,0,1,0,0	test	ward_and_allport	3,2,0,0,0,0,1,0,0	82.0	5.0	0.61	0,0,0,1,2,3,0,0,0	to_board	s445
85.809	1.0	0	PA_without_intermediate	n/a	test	ward_and_allport	n/a	-1.0	5.0	n/a	n/a	feedback	s445
86.809	1.272	0	PA_without_intermediate	n/a	test	ward_and_allport	n/a	-1.0	5.0	n/a	n/a	ITI	s445
88.083	2.629	1	PA_with_intermediate	0,0,0,0,0,0,1,2,0	test	ward_and_allport	0,0,0,2,3,0,1,0,0	82.0	6.0	2.629	0,0,0,0,0,0,1,2,3	to_hand	s445
90.713	0.31	0	PA_with_intermediate	3,0,0,0,0,0,1,2,0	test	ward_and_allport	0,0,0,2,3,0,1,0,0	89.0	6.0	0.31	0,0,0,0,0,0,1,2,3	to_board	s445
91.027	0.552	0	PA_with_intermediate	3,0,0,0,0,0,1,0,0	test	ward_and_allport	0,0,0,2,3,0,1,0,0	82.0	6.0	0.552	0,0,0,0,0,0,1,2,3	to_hand	s445
91.58	0.378	0	PA_with_intermediate	3,0,0,2,0,0,1,0,0	test	ward_and_allport	0,0,0,2,3,0,1,0,0	71.0	6.0	0.378	0,0,0,0,0,0,1,2,3	to_board	s445
91.96	0.517	0	PA_with_intermediate	0,0,0,2,0,0,1,0,0	test	ward_and_allport	0,0,0,2,3,0,1,0,0	89.0	6.0	0.517	0,0,0,0,0,0,1,2,3	to_hand	s445
92.478	0.341	0	PA_with_intermediate	0,0,0,2,3,0,1,0,0	test	ward_and_allport	0,0,0,2,3,0,1,0,0	71.0	6.0	0.341	0,0,0,0,0,0,1,2,3	to_board	s445
92.824	1.0	0	PA_with_intermediate	n/a	test	ward_and_allport	n/a	-1.0	6.0	n/a	n/a	feedback	s445
93.824	3.04	0	PA_with_intermediate	n/a	test	ward_and_allport	n/a	-1.0	6.0	n/a	n/a	ITI	s445
96.867	1.717	1	PA_with_intermediate	0,0,0,1,2,0,0,0,0	test	ward_and_allport	2,0,0,1,3,0,0,0,0	71.0	7.0	1.717	0,0,0,1,2,3,0,0,0	to_hand	s445
98.585	0.635	0	PA_with_intermediate	0,0,0,1,2,0,3,0,0	test	ward_and_allport	2,0,0,1,3,0,0,0,0	82.0	7.0	0.635	0,0,0,1,2,3,0,0,0	to_board	s445
99.224	0.394	0	PA_with_intermediate	0,0,0,1,0,0,3,0,0	test	ward_and_allport	2,0,0,1,3,0,0,0,0	71.0	7.0	0.394	0,0,0,1,2,3,0,0,0	to_hand	s445
99.618	0.441	0	PA_with_intermediate	2,0,0,1,0,0,3,0,0	test	ward_and_allport	2,0,0,1,3,0,0,0,0	89.0	7.0	0.441	0,0,0,1,2,3,0,0,0	to_board	s445
100.061	1.637	0	PA_with_intermediate	2,0,0,1,0,0,0,0,0	test	ward_and_allport	2,0,0,1,3,0,0,0,0	82.0	7.0	1.637	0,0,0,1,2,3,0,0,0	to_hand	s445
101.7	0.469	0	PA_with_intermediate	2,0,0,1,3,0,0,0,0	test	ward_and_allport	2,0,0,1,3,0,0,0,0	71.0	7.0	0.469	0,0,0,1,2,3,0,0,0	to_board	s445
102.173	1.0	0	PA_with_intermediate	n/a	test	ward_and_allport	n/a	-1.0	7.0	n/a	n/a	feedback	s445
103.173	1.272	0	PA_with_intermediate	n/a	test	ward_and_allport	n/a	-1.0	7.0	n/a	n/a	ITI	s445
104.447	2.97	1	PA_with_intermediate	1,2,0,0,0,0,0,0,0	test	ward_and_allport	1,0,0,0,0,0,2,3,0	89.0	8.0	2.97	1,2,3,0,0,0,0,0,0	to_hand	s445
107.419	0.27	0	PA_with_intermediate	1,2,0,3,0,0,0,0,0	test	ward_and_allport	1,0,0,0,0,0,2,3,0	71.0	8.0	0.27	1,2,3,0,0,0,0,0,0	to_board	s445
107.692	0.752	0	PA_with_intermediate	1,0,0,3,0,0,0,0,0	test	ward_and_allport	1,0,0,0,0,0,2,3,0	89.0	8.0	0.752	1,2,3,0,0,0,0,0,0	to_hand	s445
108.444	0.576	0	PA_with_intermediate	1,0,0,3,0,0,2,0,0	test	ward_and_allport	1,0,0,0,0,0,2,3,0	82.0	8.0	0.576	1,2,3,0,0,0,0,0,0	to_board	s445
109.024	0.509	0	PA_with_intermediate	1,0,0,0,0,0,2,0,0	test	ward_and_allport	1,0,0,0,0,0,2,3,0	71.0	8.0	0.509	1,2,3,0,0,0,0,0,0	to_hand	s445
109.533	0.346	0	PA_with_intermediate	1,0,0,0,0,0,2,3,0	test	ward_and_allport	1,0,0,0,0,0,2,3,0	82.0	8.0	0.346	1,2,3,0,0,0,0,0,0	to_board	s445
109.883	1.0	0	PA_with_intermediate	n/a	test	ward_and_allport	n/a	-1.0	8.0	n/a	n/a	feedback	s445
110.883	1.136	0	PA_with_intermediate	n/a	test	ward_and_allport	n/a	-1.0	8.0	n/a	n/a	ITI	s445
112.024	2.38	1	PA_with_intermediate	1,2,0,0,0,0,0,0,0	test	ward_and_allport	1,0,0,0,0,0,2,3,0	89.0	9.0	2.38	1,2,3,0,0,0,0,0,0	to_hand	s445
114.405	0.286	0	PA_with_intermediate	1,2,0,3,0,0,0,0,0	test	ward_and_allport	1,0,0,0,0,0,2,3,0	71.0	9.0	0.286	1,2,3,0,0,0,0,0,0	to_board	s445
114.695	0.341	0	PA_with_intermediate	1,0,0,3,0,0,0,0,0	test	ward_and_allport	1,0,0,0,0,0,2,3,0	89.0	9.0	0.341	1,2,3,0,0,0,0,0,0	to_hand	s445
115.037	0.569	0	PA_with_intermediate	1,0,0,3,0,0,2,0,0	test	ward_and_allport	1,0,0,0,0,0,2,3,0	82.0	9.0	0.569	1,2,3,0,0,0,0,0,0	to_board	s445
115.609	0.428	0	PA_with_intermediate	1,0,0,0,0,0,2,0,0	test	ward_and_allport	1,0,0,0,0,0,2,3,0	71.0	9.0	0.428	1,2,3,0,0,0,0,0,0	to_hand	s445
116.038	0.3	0	PA_with_intermediate	1,0,0,0,0,0,2,3,0	test	ward_and_allport	1,0,0,0,0,0,2,3,0	82.0	9.0	0.3	1,2,3,0,0,0,0,0,0	to_board	s445
116.343	1.0	0	PA_with_intermediate	n/a	test	ward_and_allport	n/a	-1.0	9.0	n/a	n/a	feedback	s445
117.343	1.0	0	PA_with_intermediate	n/a	test	ward_and_allport	n/a	-1.0	9.0	n/a	n/a	ITI	s445
118.346	2.849	1	PA_with_intermediate	0,0,0,1,2,0,0,0,0	test	ward_and_allport	0,0,0,1,3,0,2,0,0	71.0	10.0	2.849	0,0,0,1,2,3,0,0,0	to_hand	s445
121.197	0.355	0	PA_with_intermediate	3,0,0,1,2,0,0,0,0	test	ward_and_allport	0,0,0,1,3,0,2,0,0	89.0	10.0	0.355	0,0,0,1,2,3,0,0,0	to_board	s445
121.555	0.95	0	PA_with_intermediate	3,0,0,1,0,0,0,0,0	test	ward_and_allport	0,0,0,1,3,0,2,0,0	71.0	10.0	0.95	0,0,0,1,2,3,0,0,0	to_hand	s445
122.506	0.351	0	PA_with_intermediate	3,0,0,1,0,0,2,0,0	test	ward_and_allport	0,0,0,1,3,0,2,0,0	82.0	10.0	0.351	0,0,0,1,2,3,0,0,0	to_board	s445
122.861	1.021	0	PA_with_intermediate	0,0,0,1,0,0,2,0,0	test	ward_and_allport	0,0,0,1,3,0,2,0,0	89.0	10.0	1.021	0,0,0,1,2,3,0,0,0	to_hand	s445
123.883	0.244	0	PA_with_intermediate	0,0,0,1,3,0,2,0,0	test	ward_and_allport	0,0,0,1,3,0,2,0,0	71.0	10.0	0.244	0,0,0,1,2,3,0,0,0	to_board	s445
124.132	1.0	0	PA_with_intermediate	n/a	test	ward_and_allport	n/a	-1.0	10.0	n/a	n/a	feedback	s445
125.132	1.0	0	PA_with_intermediate	n/a	test	ward_and_allport	n/a	-1.0	10.0	n/a	n/a	ITI	s445
126.137	1.955	1	PA_without_intermediate	0,0,0,0,0,0,1,2,0	test	ward_and_allport	3,1,0,2,0,0,0,0,0	82.0	11.0	1.955	0,0,0,0,0,0,1,2,3	to_hand	s445
128.094	0.388	0	PA_without_intermediate	3,0,0,0,0,0,1,2,0	test	ward_and_allport	3,1,0,2,0,0,0,0,0	89.0	11.0	0.388	0,0,0,0,0,0,1,2,3	to_board	s445
128.485	1.198	0	PA_without_intermediate	3,0,0,0,0,0,1,0,0	test	ward_and_allport	3,1,0,2,0,0,0,0,0	82.0	11.0	1.198	0,0,0,0,0,0,1,2,3	to_hand	s445
129.684	0.34	0	PA_without_intermediate	3,0,0,2,0,0,1,0,0	test	ward_and_allport	3,1,0,2,0,0,0,0,0	71.0	11.0	0.34	0,0,0,0,0,0,1,2,3	to_board	s445
130.028	0.485	0	PA_without_intermediate	3,0,0,2,0,0,0,0,0	test	ward_and_allport	3,1,0,2,0,0,0,0,0	82.0	11.0	0.485	0,0,0,0,0,0,1,2,3	to_hand	s445
130.514	0.373	0	PA_without_intermediate	3,1,0,2,0,0,0,0,0	test	ward_and_allport	3,1,0,2,0,0,0,0,0	89.0	11.0	0.373	0,0,0,0,0,0,1,2,3	to_board	s445
130.891	1.0	0	PA_without_intermediate	n/a	test	ward_and_allport	n/a	-1.0	11.0	n/a	n/a	feedback	s445
131.891	1.408	0	PA_without_intermediate	n/a	test	ward_and_allport	n/a	-1.0	11.0	n/a	n/a	ITI	s445
133.304	3.477	1	PA_with_intermediate	1,2,0,0,0,0,0,0,0	test	ward_and_allport	1,3,0,2,0,0,0,0,0	89.0	12.0	3.477	1,2,3,0,0,0,0,0,0	to_hand	s445
136.781	0.293	0	PA_with_intermediate	1,2,0,0,0,0,3,0,0	test	ward_and_allport	1,3,0,2,0,0,0,0,0	82.0	12.0	0.293	1,2,3,0,0,0,0,0,0	to_board	s445
137.078	0.662	0	PA_with_intermediate	1,0,0,0,0,0,3,0,0	test	ward_and_allport	1,3,0,2,0,0,0,0,0	89.0	12.0	0.662	1,2,3,0,0,0,0,0,0	to_hand	s445
137.742	0.349	0	PA_with_intermediate	1,0,0,2,0,0,3,0,0	test	ward_and_allport	1,3,0,2,0,0,0,0,0	71.0	12.0	0.349	1,2,3,0,0,0,0,0,0	to_board	s445
138.096	0.432	0	PA_with_intermediate	1,0,0,2,0,0,0,0,0	test	ward_and_allport	1,3,0,2,0,0,0,0,0	82.0	12.0	0.432	1,2,3,0,0,0,0,0,0	to_hand	s445
138.529	0.227	0	PA_with_intermediate	1,3,0,2,0,0,0,0,0	test	ward_and_allport	1,3,0,2,0,0,0,0,0	89.0	12.0	0.227	1,2,3,0,0,0,0,0,0	to_board	s445
138.762	1.0	0	PA_with_intermediate	n/a	test	ward_and_allport	n/a	-1.0	12.0	n/a	n/a	feedback	s445
139.762	2.768	0	PA_with_intermediate	n/a	test	ward_and_allport	n/a	-1.0	12.0	n/a	n/a	ITI	s445
142.535	3.198	1	PA_with_intermediate	1,2,0,0,0,0,0,0,0	test	ward_and_allport	1,3,0,0,0,0,2,0,0	89.0	13.0	3.198	1,2,3,0,0,0,0,0,0	to_hand	s445
145.735	0.246	0	PA_with_intermediate	1,2,0,3,0,0,0,0,0	test	ward_and_allport	1,3,0,0,0,0,2,0,0	71.0	13.0	0.246	1,2,3,0,0,0,0,0,0	to_board	s445
145.985	0.435	0	PA_with_intermediate	1,0,0,3,0,0,0,0,0	test	ward_and_allport	1,3,0,0,0,0,2,0,0	89.0	13.0	0.435	1,2,3,0,0,0,0,0,0	to_hand	s445
146.422	0.29	0	PA_with_intermediate	1,0,0,3,0,0,2,0,0	test	ward_and_allport	1,3,0,0,0,0,2,0,0	82.0	13.0	0.29	1,2,3,0,0,0,0,0,0	to_board	s445
146.715	0.456	0	PA_with_intermediate	1,0,0,0,0,0,2,0,0	test	ward_and_allport	1,3,0,0,0,0,2,0,0	71.0	13.0	0.456	1,2,3,0,0,0,0,0,0	to_hand	s445
147.173	0.275	0	PA_with_intermediate	1,3,0,0,0,0,2,0,0	test	ward_and_allport	1,3,0,0,0,0,2,0,0	89.0	13.0	0.275	1,2,3,0,0,0,0,0,0	to_board	s445
147.453	1.0	0	PA_with_intermediate	n/a	test	ward_and_allport	n/a	-1.0	13.0	n/a	n/a	feedback	s445
148.453	1.68	0	PA_with_intermediate	n/a	test	ward_and_allport	n/a	-1.0	13.0	n/a	n/a	ITI	s445
150.137	2.123	1	PA_without_intermediate	0,0,0,0,0,0,1,2,0	test	ward_and_allport	1,0,0,3,2,0,0,0,0	82.0	14.0	2.123	0,0,0,0,0,0,1,2,3	to_hand	s445
152.262	0.323	0	PA_without_intermediate	0,0,0,3,0,0,1,2,0	test	ward_and_allport	1,0,0,3,2,0,0,0,0	71.0	14.0	0.323	0,0,0,0,0,0,1,2,3	to_board	s445
152.588	0.483	0	PA_without_intermediate	0,0,0,3,0,0,1,0,0	test	ward_and_allport	1,0,0,3,2,0,0,0,0	82.0	14.0	0.483	0,0,0,0,0,0,1,2,3	to_hand	s445
153.072	0.367	0	PA_without_intermediate	0,0,0,3,2,0,1,0,0	test	ward_and_allport	1,0,0,3,2,0,0,0,0	71.0	14.0	0.367	0,0,0,0,0,0,1,2,3	to_board	s445
153.444	1.355	0	PA_without_intermediate	0,0,0,3,2,0,0,0,0	test	ward_and_allport	1,0,0,3,2,0,0,0,0	82.0	14.0	1.355	0,0,0,0,0,0,1,2,3	to_hand	s445
154.799	0.23	0	PA_without_intermediate	1,0,0,3,2,0,0,0,0	test	ward_and_allport	1,0,0,3,2,0,0,0,0	89.0	14.0	0.23	0,0,0,0,0,0,1,2,3	to_board	s445
155.035	1.0	0	PA_without_intermediate	n/a	test	ward_and_allport	n/a	-1.0	14.0	n/a	n/a	feedback	s445
156.035	2.224	0	PA_without_intermediate	n/a	test	ward_and_allport	n/a	-1.0	14.0	n/a	n/a	ITI	s445
163.266	2.372	1	PA_without_intermediate	0,0,0,0,0,0,1,2,0	test	ward_and_allport	1,0,0,3,2,0,0,0,0	82.0	15.0	2.372	0,0,0,0,0,0,1,2,3	to_hand	s445
165.639	0.292	0	PA_without_intermediate	0,0,0,3,0,0,1,2,0	test	ward_and_allport	1,0,0,3,2,0,0,0,0	71.0	15.0	0.292	0,0,0,0,0,0,1,2,3	to_board	s445
165.934	0.347	0	PA_without_intermediate	0,0,0,3,0,0,1,0,0	test	ward_and_allport	1,0,0,3,2,0,0,0,0	82.0	15.0	0.347	0,0,0,0,0,0,1,2,3	to_hand	s445
166.283	0.225	0	PA_without_intermediate	0,0,0,3,2,0,1,0,0	test	ward_and_allport	1,0,0,3,2,0,0,0,0	71.0	15.0	0.225	0,0,0,0,0,0,1,2,3	to_board	s445
166.512	0.398	0	PA_without_intermediate	0,0,0,3,2,0,0,0,0	test	ward_and_allport	1,0,0,3,2,0,0,0,0	82.0	15.0	0.398	0,0,0,0,0,0,1,2,3	to_hand	s445
166.912	0.261	0	PA_without_intermediate	1,0,0,3,2,0,0,0,0	test	ward_and_allport	1,0,0,3,2,0,0,0,0	89.0	15.0	0.261	0,0,0,0,0,0,1,2,3	to_board	s445
167.178	1.0	0	PA_without_intermediate	n/a	test	ward_and_allport	n/a	-1.0	15.0	n/a	n/a	feedback	s445
168.178	2.36	0	PA_without_intermediate	n/a	test	ward_and_allport	n/a	-1.0	15.0	n/a	n/a	ITI	s445
170.544	1.976	1	PA_without_intermediate	0,0,0,1,2,0,0,0,0	test	ward_and_allport	2,0,0,0,0,0,3,1,0	71.0	16.0	1.976	0,0,0,1,2,3,0,0,0	to_hand	s445
172.521	0.295	0	PA_without_intermediate	0,0,0,1,2,0,3,0,0	test	ward_and_allport	2,0,0,0,0,0,3,1,0	82.0	16.0	0.295	0,0,0,1,2,3,0,0,0	to_board	s445
172.821	0.885	0	PA_without_intermediate	0,0,0,1,0,0,3,0,0	test	ward_and_allport	2,0,0,0,0,0,3,1,0	71.0	16.0	0.885	0,0,0,1,2,3,0,0,0	to_hand	s445
173.707	0.242	0	PA_without_intermediate	2,0,0,1,0,0,3,0,0	test	ward_and_allport	2,0,0,0,0,0,3,1,0	89.0	16.0	0.242	0,0,0,1,2,3,0,0,0	to_board	s445
173.953	0.298	0	PA_without_intermediate	2,0,0,0,0,0,3,0,0	test	ward_and_allport	2,0,0,0,0,0,3,1,0	71.0	16.0	0.298	0,0,0,1,2,3,0,0,0	to_hand	s445
174.252	0.238	0	PA_without_intermediate	2,0,0,0,0,0,3,1,0	test	ward_and_allport	2,0,0,0,0,0,3,1,0	82.0	16.0	0.238	0,0,0,1,2,3,0,0,0	to_board	s445
174.494	1.0	0	PA_without_intermediate	n/a	test	ward_and_allport	n/a	-1.0	16.0	n/a	n/a	feedback	s445
175.494	1.0	0	PA_without_intermediate	n/a	test	ward_and_allport	n/a	-1.0	16.0	n/a	n/a	ITI	s445
176.498	2.724	1	PA_without_intermediate	1,2,0,0,0,0,0,0,0	test	ward_and_allport	0,0,0,3,1,0,2,0,0	89.0	17.0	2.724	1,2,3,0,0,0,0,0,0	to_hand	s445
179.224	0.287	0	PA_without_intermediate	1,2,0,3,0,0,0,0,0	test	ward_and_allport	0,0,0,3,1,0,2,0,0	71.0	17.0	0.287	1,2,3,0,0,0,0,0,0	to_board	s445
179.515	0.582	0	PA_without_intermediate	1,0,0,3,0,0,0,0,0	test	ward_and_allport	0,0,0,3,1,0,2,0,0	89.0	17.0	0.582	1,2,3,0,0,0,0,0,0	to_hand	s445
180.098	0.636	0	PA_without_intermediate	1,0,0,3,0,0,2,0,0	test	ward_and_allport	0,0,0,3,1,0,2,0,0	82.0	17.0	0.636	1,2,3,0,0,0,0,0,0	to_board	s445
180.738	1.817	0	PA_without_intermediate	0,0,0,3,0,0,2,0,0	test	ward_and_allport	0,0,0,3,1,0,2,0,0	89.0	17.0	1.817	1,2,3,0,0,0,0,0,0	to_hand	s445
182.556	0.291	0	PA_without_intermediate	0,0,0,3,1,0,2,0,0	test	ward_and_allport	0,0,0,3,1,0,2,0,0	71.0	17.0	0.291	1,2,3,0,0,0,0,0,0	to_board	s445
182.853	1.0	0	PA_without_intermediate	n/a	test	ward_and_allport	n/a	-1.0	17.0	n/a	n/a	feedback	s445
183.853	1.408	0	PA_without_intermediate	n/a	test	ward_and_allport	n/a	-1.0	17.0	n/a	n/a	ITI	s445
185.267	2.603	1	PA_with_intermediate	0,0,0,0,0,0,1,2,0	test	ward_and_allport	2,0,0,0,0,0,1,3,0	82.0	18.0	2.603	0,0,0,0,0,0,1,2,3	to_hand	s445
187.871	0.477	0	PA_with_intermediate	0,0,0,3,0,0,1,2,0	test	ward_and_allport	2,0,0,0,0,0,1,3,0	71.0	18.0	0.477	0,0,0,0,0,0,1,2,3	to_board	s445
188.351	0.404	0	PA_with_intermediate	0,0,0,3,0,0,1,0,0	test	ward_and_allport	2,0,0,0,0,0,1,3,0	82.0	18.0	0.404	0,0,0,0,0,0,1,2,3	to_hand	s445
188.757	0.356	0	PA_with_intermediate	2,0,0,3,0,0,1,0,0	test	ward_and_allport	2,0,0,0,0,0,1,3,0	89.0	18.0	0.356	0,0,0,0,0,0,1,2,3	to_board	s445
189.118	0.711	0	PA_with_intermediate	2,0,0,0,0,0,1,0,0	test	ward_and_allport	2,0,0,0,0,0,1,3,0	71.0	18.0	0.711	0,0,0,0,0,0,1,2,3	to_hand	s445
189.83	0.27	0	PA_with_intermediate	2,0,0,0,0,0,1,3,0	test	ward_and_allport	2,0,0,0,0,0,1,3,0	82.0	18.0	0.27	0,0,0,0,0,0,1,2,3	to_board	s445
190.106	1.0	0	PA_with_intermediate	n/a	test	ward_and_allport	n/a	-1.0	18.0	n/a	n/a	feedback	s445
191.106	1.136	0	PA_with_intermediate	n/a	test	ward_and_allport	n/a	-1.0	18.0	n/a	n/a	ITI	s445
192.246	1.481	1	PA_without_intermediate	0,0,0,1,2,0,0,0,0	test	ward_and_allport	3,1,0,0,0,0,2,0,0	71.0	19.0	1.481	0,0,0,1,2,3,0,0,0	to_hand	s445
193.729	0.37	0	PA_without_intermediate	3,0,0,1,2,0,0,0,0	test	ward_and_allport	3,1,0,0,0,0,2,0,0	89.0	19.0	0.37	0,0,0,1,2,3,0,0,0	to_board	s445
194.104	0.696	0	PA_without_intermediate	3,0,0,1,0,0,0,0,0	test	ward_and_allport	3,1,0,0,0,0,2,0,0	71.0	19.0	0.696	0,0,0,1,2,3,0,0,0	to_hand	s445
194.801	0.277	0	PA_without_intermediate	3,0,0,1,0,0,2,0,0	test	ward_and_allport	3,1,0,0,0,0,2,0,0	82.0	19.0	0.277	0,0,0,1,2,3,0,0,0	to_board	s445
195.083	0.42	0	PA_without_intermediate	3,0,0,0,0,0,2,0,0	test	ward_and_allport	3,1,0,0,0,0,2,0,0	71.0	19.0	0.42	0,0,0,1,2,3,0,0,0	to_hand	s445
195.503	0.229	0	PA_without_intermediate	3,1,0,0,0,0,2,0,0	test	ward_and_allport	3,1,0,0,0,0,2,0,0	89.0	19.0	0.229	0,0,0,1,2,3,0,0,0	to_board	s445
195.738	1.0	0	PA_without_intermediate	n/a	test	ward_and_allport	n/a	-1.0	19.0	n/a	n/a	feedback	s445
196.738	4.128	0	PA_without_intermediate	n/a	test	ward_and_allport	n/a	-1.0	19.0	n/a	n/a	ITI	s445
200.871	1.251	1	PA_without_intermediate	0,0,0,1,2,0,0,0,0	test	ward_and_allport	3,2,0,0,0,0,1,0,0	71.0	20.0	1.251	0,0,0,1,2,3,0,0,0	to_hand	s445
202.124	0.289	0	PA_without_intermediate	3,0,0,1,2,0,0,0,0	test	ward_and_allport	3,2,0,0,0,0,1,0,0	89.0	20.0	0.289	0,0,0,1,2,3,0,0,0	to_board	s445
202.418	0.444	0	PA_without_intermediate	3,0,0,1,0,0,0,0,0	test	ward_and_allport	3,2,0,0,0,0,1,0,0	71.0	20.0	0.444	0,0,0,1,2,3,0,0,0	to_hand	s445
202.863	0.213	0	PA_without_intermediate	3,2,0,1,0,0,0,0,0	test	ward_and_allport	3,2,0,0,0,0,1,0,0	89.0	20.0	0.213	0,0,0,1,2,3,0,0,0	to_board	s445
203.08	0.679	0	PA_without_intermediate	3,2,0,0,0,0,0,0,0	test	ward_and_allport	3,2,0,0,0,0,1,0,0	71.0	20.0	0.679	0,0,0,1,2,3,0,0,0	to_hand	s445
203.761	0.262	0	PA_without_intermediate	3,2,0,0,0,0,1,0,0	test	ward_and_allport	3,2,0,0,0,0,1,0,0	82.0	20.0	0.262	0,0,0,1,2,3,0,0,0	to_board	s445
204.029	1.0	0	PA_without_intermediate	n/a	test	ward_and_allport	n/a	-1.0	20.0	n/a	n/a	feedback	s445
205.029	1.136	0	PA_without_intermediate	n/a	test	ward_and_allport	n/a	-1.0	20.0	n/a	n/a	ITI	s445
206.169	1.918	1	PA_without_intermediate	1,2,0,0,0,0,0,0,0	test	ward_and_allport	0,0,0,1,0,0,3,2,0	89.0	21.0	1.918	1,2,3,0,0,0,0,0,0	to_hand	s445
208.088	0.199	0	PA_without_intermediate	1,2,0,0,0,0,3,0,0	test	ward_and_allport	0,0,0,1,0,0,3,2,0	82.0	21.0	0.199	1,2,3,0,0,0,0,0,0	to_board	s445
208.292	0.677	0	PA_without_intermediate	1,0,0,0,0,0,3,0,0	test	ward_and_allport	0,0,0,1,0,0,3,2,0	89.0	21.0	0.677	1,2,3,0,0,0,0,0,0	to_hand	s445
208.97	0.223	0	PA_without_intermediate	1,0,0,0,0,0,3,2,0	test	ward_and_allport	0,0,0,1,0,0,3,2,0	82.0	21.0	0.223	1,2,3,0,0,0,0,0,0	to_board	s445
209.198	1.152	0	PA_without_intermediate	0,0,0,0,0,0,3,2,0	test	ward_and_allport	0,0,0,1,0,0,3,2,0	89.0	21.0	1.152	1,2,3,0,0,0,0,0,0	to_hand	s445
210.351	0.243	0	PA_without_intermediate	0,0,0,1,0,0,3,2,0	test	ward_and_allport	0,0,0,1,0,0,3,2,0	71.0	21.0	0.243	1,2,3,0,0,0,0,0,0	to_board	s445
210.601	1.0	0	PA_without_intermediate	n/a	test	ward_and_allport	n/a	-1.0	21.0	n/a	n/a	feedback	s445
211.601	4.264	0	PA_without_intermediate	n/a	test	ward_and_allport	n/a	-1.0	21.0	n/a	n/a	ITI	s445
215.871	2.039	1	PA_with_intermediate	0,0,0,0,0,0,1,2,0	test	ward_and_allport	0,0,0,2,0,0,1,3,0	82.0	22.0	2.039	0,0,0,0,0,0,1,2,3	to_hand	s445
217.912	0.231	0	PA_with_intermediate	3,0,0,0,0,0,1,2,0	test	ward_and_allport	0,0,0,2,0,0,1,3,0	89.0	22.0	0.231	0,0,0,0,0,0,1,2,3	to_board	s445
218.147	0.377	0	PA_with_intermediate	3,0,0,0,0,0,1,0,0	test	ward_and_allport	0,0,0,2,0,0,1,3,0	82.0	22.0	0.377	0,0,0,0,0,0,1,2,3	to_hand	s445
218.526	0.482	0	PA_with_intermediate	3,0,0,2,0,0,1,0,0	test	ward_and_allport	0,0,0,2,0,0,1,3,0	71.0	22.0	0.482	0,0,0,0,0,0,1,2,3	to_board	s445
219.014	0.415	0	PA_with_intermediate	0,0,0,2,0,0,1,0,0	test	ward_and_allport	0,0,0,2,0,0,1,3,0	89.0	22.0	0.415	0,0,0,0,0,0,1,2,3	to_hand	s445
219.43	0.195	0	PA_with_intermediate	0,0,0,2,0,0,1,3,0	test	ward_and_allport	0,0,0,2,0,0,1,3,0	82.0	22.0	0.195	0,0,0,0,0,0,1,2,3	to_board	s445
219.633	1.0	0	PA_with_intermediate	n/a	test	ward_and_allport	n/a	-1.0	22.0	n/a	n/a	feedback	s445
220.633	3.04	0	PA_with_intermediate	n/a	test	ward_and_allport	n/a	-1.0	22.0	n/a	n/a	ITI	s445
223.679	3.069	1	PA_with_intermediate	0,0,0,1,2,0,0,0,0	test	ward_and_allport	2,3,0,1,0,0,0,0,0	71.0	23.0	3.069	0,0,0,1,2,3,0,0,0	to_hand	s445
226.749	0.279	0	PA_with_intermediate	0,0,0,1,2,0,3,0,0	test	ward_and_allport	2,3,0,1,0,0,0,0,0	82.0	23.0	0.279	0,0,0,1,2,3,0,0,0	to_board	s445
227.034	0.251	0	PA_with_intermediate	0,0,0,1,0,0,3,0,0	test	ward_and_allport	2,3,0,1,0,0,0,0,0	71.0	23.0	0.251	0,0,0,1,2,3,0,0,0	to_hand	s445
227.286	0.257	0	PA_with_intermediate	2,0,0,1,0,0,3,0,0	test	ward_and_allport	2,3,0,1,0,0,0,0,0	89.0	23.0	0.257	0,0,0,1,2,3,0,0,0	to_board	s445
227.549	0.345	0	PA_with_intermediate	2,0,0,1,0,0,0,0,0	test	ward_and_allport	2,3,0,1,0,0,0,0,0	82.0	23.0	0.345	0,0,0,1,2,3,0,0,0	to_hand	s445
227.896	0.236	0	PA_with_intermediate	2,3,0,1,0,0,0,0,0	test	ward_and_allport	2,3,0,1,0,0,0,0,0	89.0	23.0	0.236	0,0,0,1,2,3,0,0,0	to_board	s445
228.139	1.0	0	PA_with_intermediate	n/a	test	ward_and_allport	n/a	-1.0	23.0	n/a	n/a	feedback	s445
229.139	1.136	0	PA_with_intermediate	n/a	test	ward_and_allport	n/a	-1.0	23.0	n/a	n/a	ITI	s445
230.282	2.452	1	PA_with_intermediate	0,0,0,0,0,0,1,2,0	test	ward_and_allport	2,0,0,0,0,0,1,3,0	82.0	24.0	2.452	0,0,0,0,0,0,1,2,3	to_hand	s445
232.735	0.276	0	PA_with_intermediate	0,0,0,3,0,0,1,2,0	test	ward_and_allport	2,0,0,0,0,0,1,3,0	71.0	24.0	0.276	0,0,0,0,0,0,1,2,3	to_board	s445
233.018	0.365	0	PA_with_intermediate	0,0,0,3,0,0,1,0,0	test	ward_and_allport	2,0,0,0,0,0,1,3,0	82.0	24.0	0.365	0,0,0,0,0,0,1,2,3	to_hand	s445
233.384	0.259	0	PA_with_intermediate	2,0,0,3,0,0,1,0,0	test	ward_and_allport	2,0,0,0,0,0,1,3,0	89.0	24.0	0.259	0,0,0,0,0,0,1,2,3	to_board	s445
233.649	0.341	0	PA_with_intermediate	2,0,0,0,0,0,1,0,0	test	ward_and_allport	2,0,0,0,0,0,1,3,0	71.0	24.0	0.341	0,0,0,0,0,0,1,2,3	to_hand	s445
233.992	0.241	0	PA_with_intermediate	2,0,0,0,0,0,1,3,0	test	ward_and_allport	2,0,0,0,0,0,1,3,0	82.0	24.0	0.241	0,0,0,0,0,0,1,2,3	to_board	s445
234.24	1.0	0	PA_with_intermediate	n/a	test	ward_and_allport	n/a	-1.0	24.0	n/a	n/a	feedback	s445
235.24	1.408	0	PA_with_intermediate	n/a	test	ward_and_allport	n/a	-1.0	24.0	n/a	n/a	ITI	s445
236.654	1.376	1	PA_without_intermediate	0,0,0,1,2,0,0,0,0	test	ward_and_allport	3,1,0,0,0,0,2,0,0	71.0	25.0	1.376	0,0,0,1,2,3,0,0,0	to_hand	s445
238.031	0.294	0	PA_without_intermediate	3,0,0,1,2,0,0,0,0	test	ward_and_allport	3,1,0,0,0,0,2,0,0	89.0	25.0	0.294	0,0,0,1,2,3,0,0,0	to_board	s445
238.331	0.737	0	PA_without_intermediate	3,0,0,1,0,0,0,0,0	test	ward_and_allport	3,1,0,0,0,0,2,0,0	71.0	25.0	0.737	0,0,0,1,2,3,0,0,0	to_hand	s445
239.069	0.239	0	PA_without_intermediate	3,0,0,1,0,0,2,0,0	test	ward_and_allport	3,1,0,0,0,0,2,0,0	82.0	25.0	0.239	0,0,0,1,2,3,0,0,0	to_board	s445
239.315	0.297	0	PA_without_intermediate	3,0,0,0,0,0,2,0,0	test	ward_and_allport	3,1,0,0,0,0,2,0,0	71.0	25.0	0.297	0,0,0,1,2,3,0,0,0	to_hand	s445
239.612	0.207	0	PA_without_intermediate	3,1,0,0,0,0,2,0,0	test	ward_and_allport	3,1,0,0,0,0,2,0,0	89.0	25.0	0.207	0,0,0,1,2,3,0,0,0	to_board	s445
239.827	1.0	0	PA_without_intermediate	n/a	test	ward_and_allport	n/a	-1.0	25.0	n/a	n/a	feedback	s445
240.827	1.68	0	PA_without_intermediate	n/a	test	ward_and_allport	n/a	-1.0	25.0	n/a	n/a	ITI	s445
242.514	2.192	1	PA_with_intermediate	0,0,0,1,2,0,0,0,0	test	ward_and_allport	2,3,0,1,0,0,0,0,0	71.0	26.0	2.192	0,0,0,1,2,3,0,0,0	to_hand	s445
244.707	0.285	0	PA_with_intermediate	0,0,0,1,2,0,3,0,0	test	ward_and_allport	2,3,0,1,0,0,0,0,0	82.0	26.0	0.285	0,0,0,1,2,3,0,0,0	to_board	s445
244.998	0.392	0	PA_with_intermediate	0,0,0,1,0,0,3,0,0	test	ward_and_allport	2,3,0,1,0,0,0,0,0	71.0	26.0	0.392	0,0,0,1,2,3,0,0,0	to_hand	s445
245.392	0.332	0	PA_with_intermediate	2,0,0,1,0,0,3,0,0	test	ward_and_allport	2,3,0,1,0,0,0,0,0	89.0	26.0	0.332	0,0,0,1,2,3,0,0,0	to_board	s445
245.731	0.629	0	PA_with_intermediate	2,0,0,1,0,0,0,0,0	test	ward_and_allport	2,3,0,1,0,0,0,0,0	82.0	26.0	0.629	0,0,0,1,2,3,0,0,0	to_hand	s445
246.36	0.324	0	PA_with_intermediate	2,3,0,1,0,0,0,0,0	test	ward_and_allport	2,3,0,1,0,0,0,0,0	89.0	26.0	0.324	0,0,0,1,2,3,0,0,0	to_board	s445
246.693	1.0	0	PA_with_intermediate	n/a	test	ward_and_allport	n/a	-1.0	26.0	n/a	n/a	feedback	s445
247.693	3.72	0	PA_with_intermediate	n/a	test	ward_and_allport	n/a	-1.0	26.0	n/a	n/a	ITI	s445
251.42	1.776	1	PA_without_intermediate	1,2,0,0,0,0,0,0,0	test	ward_and_allport	0,0,0,1,0,0,3,2,0	89.0	27.0	1.776	1,2,3,0,0,0,0,0,0	to_hand	s445
253.197	0.423	0	PA_without_intermediate	1,2,0,0,0,0,3,0,0	test	ward_and_allport	0,0,0,1,0,0,3,2,0	82.0	27.0	0.423	1,2,3,0,0,0,0,0,0	to_board	s445
253.626	0.418	0	PA_without_intermediate	1,0,0,0,0,0,3,0,0	test	ward_and_allport	0,0,0,1,0,0,3,2,0	89.0	27.0	0.418	1,2,3,0,0,0,0,0,0	to_hand	s445
254.045	0.223	0	PA_without_intermediate	1,0,0,0,0,0,3,2,0	test	ward_and_allport	0,0,0,1,0,0,3,2,0	82.0	27.0	0.223	1,2,3,0,0,0,0,0,0	to_board	s445
254.274	0.643	0	PA_without_intermediate	0,0,0,0,0,0,3,2,0	test	ward_and_allport	0,0,0,1,0,0,3,2,0	89.0	27.0	0.643	1,2,3,0,0,0,0,0,0	to_hand	s445
254.918	0.273	0	PA_without_intermediate	0,0,0,1,0,0,3,2,0	test	ward_and_allport	0,0,0,1,0,0,3,2,0	71.0	27.0	0.273	1,2,3,0,0,0,0,0,0	to_board	s445
255.198	1.0	0	PA_without_intermediate	n/a	test	ward_and_allport	n/a	-1.0	27.0	n/a	n/a	feedback	s445
256.198	2.224	0	PA_without_intermediate	n/a	test	ward_and_allport	n/a	-1.0	27.0	n/a	n/a	ITI	s445
258.429	1.917	1	PA_without_intermediate	1,2,0,0,0,0,0,0,0	test	ward_and_allport	0,0,0,2,0,0,3,1,0	89.0	28.0	1.917	1,2,3,0,0,0,0,0,0	to_hand	s445
260.347	0.227	0	PA_without_intermediate	1,2,0,0,0,0,3,0,0	test	ward_and_allport	0,0,0,2,0,0,3,1,0	82.0	28.0	0.227	1,2,3,0,0,0,0,0,0	to_board	s445
260.58	0.622	0	PA_without_intermediate	1,0,0,0,0,0,3,0,0	test	ward_and_allport	0,0,0,2,0,0,3,1,0	89.0	28.0	0.622	1,2,3,0,0,0,0,0,0	to_hand	s445
261.204	0.251	0	PA_without_intermediate	1,0,0,2,0,0,3,0,0	test	ward_and_allport	0,0,0,2,0,0,3,1,0	71.0	28.0	0.251	1,2,3,0,0,0,0,0,0	to_board	s445
261.462	0.39	0	PA_without_intermediate	0,0,0,2,0,0,3,0,0	test	ward_and_allport	0,0,0,2,0,0,3,1,0	89.0	28.0	0.39	1,2,3,0,0,0,0,0,0	to_hand	s445
261.852	0.2	0	PA_without_intermediate	0,0,0,2,0,0,3,1,0	test	ward_and_allport	0,0,0,2,0,0,3,1,0	82.0	28.0	0.2	1,2,3,0,0,0,0,0,0	to_board	s445
262.06	1.0	0	PA_without_intermediate	n/a	test	ward_and_allport	n/a	-1.0	28.0	n/a	n/a	feedback	s445
263.06	1.272	0	PA_without_intermediate	n/a	test	ward_and_allport	n/a	-1.0	28.0	n/a	n/a	ITI	s445
264.338	3.532	1	PA_with_intermediate	0,0,0,0,0,0,1,2,0	test	ward_and_allport	0,0,0,2,0,0,1,3,0	82.0	29.0	3.532	0,0,0,0,0,0,1,2,3	to_hand	s445
267.871	0.303	0	PA_with_intermediate	3,0,0,0,0,0,1,2,0	test	ward_and_allport	0,0,0,2,0,0,1,3,0	89.0	29.0	0.303	0,0,0,0,0,0,1,2,3	to_board	s445
268.182	0.359	0	PA_with_intermediate	3,0,0,0,0,0,1,0,0	test	ward_and_allport	0,0,0,2,0,0,1,3,0	82.0	29.0	0.359	0,0,0,0,0,0,1,2,3	to_hand	s445
268.542	0.432	0	PA_with_intermediate	3,0,0,2,0,0,1,0,0	test	ward_and_allport	0,0,0,2,0,0,1,3,0	71.0	29.0	0.432	0,0,0,0,0,0,1,2,3	to_board	s445
268.981	0.355	0	PA_with_intermediate	0,0,0,2,0,0,1,0,0	test	ward_and_allport	0,0,0,2,0,0,1,3,0	89.0	29.0	0.355	0,0,0,0,0,0,1,2,3	to_hand	s445
269.337	0.247	0	PA_with_intermediate	0,0,0,2,0,0,1,3,0	test	ward_and_allport	0,0,0,2,0,0,1,3,0	82.0	29.0	0.247	0,0,0,0,0,0,1,2,3	to_board	s445
269.593	1.0	0	PA_with_intermediate	n/a	test	ward_and_allport	n/a	-1.0	29.0	n/a	n/a	feedback	s445
270.593	2.632	0	PA_with_intermediate	n/a	test	ward_and_allport	n/a	-1.0	29.0	n/a	n/a	ITI	s445
278.234	1.814	1	PA_without_intermediate	0,0,0,0,0,0,1,2,0	test	ward_and_allport	3,2,0,1,0,0,0,0,0	82.0	30.0	1.814	0,0,0,0,0,0,1,2,3	to_hand	s445
280.049	0.262	0	PA_without_intermediate	3,0,0,0,0,0,1,2,0	test	ward_and_allport	3,2,0,1,0,0,0,0,0	89.0	30.0	0.262	0,0,0,0,0,0,1,2,3	to_board	s445
280.318	0.666	0	PA_without_intermediate	3,0,0,0,0,0,1,0,0	test	ward_and_allport	3,2,0,1,0,0,0,0,0	82.0	30.0	0.666	0,0,0,0,0,0,1,2,3	to_hand	s445
280.984	0.181	0	PA_without_intermediate	3,2,0,0,0,0,1,0,0	test	ward_and_allport	3,2,0,1,0,0,0,0,0	89.0	30.0	0.181	0,0,0,0,0,0,1,2,3	to_board	s445
281.173	0.46	0	PA_without_intermediate	3,2,0,0,0,0,0,0,0	test	ward_and_allport	3,2,0,1,0,0,0,0,0	82.0	30.0	0.46	0,0,0,0,0,0,1,2,3	to_hand	s445
281.634	0.184	0	PA_without_intermediate	3,2,0,1,0,0,0,0,0	test	ward_and_allport	3,2,0,1,0,0,0,0,0	71.0	30.0	0.184	0,0,0,0,0,0,1,2,3	to_board	s445
281.827	1.0	0	PA_without_intermediate	n/a	test	ward_and_allport	n/a	-1.0	30.0	n/a	n/a	feedback	s445
282.827	1.408	0	PA_without_intermediate	n/a	test	ward_and_allport	n/a	-1.0	30.0	n/a	n/a	ITI	s445
284.243	1.697	1	PA_without_intermediate	0,0,0,0,0,0,1,2,0	test	ward_and_allport	2,0,0,3,1,0,0,0,0	82.0	31.0	1.697	0,0,0,0,0,0,1,2,3	to_hand	s445
285.94	0.255	0	PA_without_intermediate	0,0,0,3,0,0,1,2,0	test	ward_and_allport	2,0,0,3,1,0,0,0,0	71.0	31.0	0.255	0,0,0,0,0,0,1,2,3	to_board	s445
286.203	0.289	0	PA_without_intermediate	0,0,0,3,0,0,1,0,0	test	ward_and_allport	2,0,0,3,1,0,0,0,0	82.0	31.0	0.289	0,0,0,0,0,0,1,2,3	to_hand	s445
286.492	0.241	0	PA_without_intermediate	2,0,0,3,0,0,1,0,0	test	ward_and_allport	2,0,0,3,1,0,0,0,0	89.0	31.0	0.241	0,0,0,0,0,0,1,2,3	to_board	s445
286.741	0.303	0	PA_without_intermediate	2,0,0,3,0,0,0,0,0	test	ward_and_allport	2,0,0,3,1,0,0,0,0	82.0	31.0	0.303	0,0,0,0,0,0,1,2,3	to_hand	s445
287.045	0.214	0	PA_without_intermediate	2,0,0,3,1,0,0,0,0	test	ward_and_allport	2,0,0,3,1,0,0,0,0	71.0	31.0	0.214	0,0,0,0,0,0,1,2,3	to_board	s445
287.269	1.0	0	PA_without_intermediate	n/a	test	ward_and_allport	n/a	-1.0	31.0	n/a	n/a	feedback	s445
288.269	1.0	0	PA_without_intermediate	n/a	test	ward_and_allport	n/a	-1.0	31.0	n/a	n/a	ITI	s445
289.275	1.655	1	PA_with_intermediate	1,2,0,0,0,0,0,0,0	test	ward_and_allport	1,0,0,2,3,0,0,0,0	89.0	32.0	1.655	1,2,3,0,0,0,0,0,0	to_hand	s445
290.931	0.161	0	PA_with_intermediate	1,2,0,0,0,0,3,0,0	test	ward_and_allport	1,0,0,2,3,0,0,0,0	82.0	32.0	0.161	1,2,3,0,0,0,0,0,0	to_board	s445
291.098	0.416	0	PA_with_intermediate	1,0,0,0,0,0,3,0,0	test	ward_and_allport	1,0,0,2,3,0,0,0,0	89.0	32.0	0.416	1,2,3,0,0,0,0,0,0	to_hand	s445
291.514	0.222	0	PA_with_intermediate	1,0,0,2,0,0,3,0,0	test	ward_and_allport	1,0,0,2,3,0,0,0,0	71.0	32.0	0.222	1,2,3,0,0,0,0,0,0	to_board	s445
291.742	0.704	0	PA_with_intermediate	1,0,0,2,0,0,0,0,0	test	ward_and_allport	1,0,0,2,3,0,0,0,0	82.0	32.0	0.704	1,2,3,0,0,0,0,0,0	to_hand	s445
292.446	0.186	0	PA_with_intermediate	1,3,0,2,0,0,0,0,0	test	ward_and_allport	1,0,0,2,3,0,0,0,0	89.0	32.0	0.186	1,2,3,0,0,0,0,0,0	to_board	s445
292.637	0.722	0	PA_with_intermediate	1,0,0,2,0,0,0,0,0	test	ward_and_allport	1,0,0,2,3,0,0,0,0	89.0	32.0	0.722	1,2,3,0,0,0,0,0,0	to_hand	s445
293.36	0.33	0	PA_with_intermediate	1,0,0,2,3,0,0,0,0	test	ward_and_allport	1,0,0,2,3,0,0,0,0	71.0	32.0	0.33	1,2,3,0,0,0,0,0,0	to_board	s445
293.697	1.0	0	PA_with_intermediate	n/a	test	ward_and_allport	n/a	-1.0	32.0	n/a	n/a	feedback	s445
294.697	1.0	0	PA_with_intermediate	n/a	test	ward_and_allport	n/a	-1.0	32.0	n/a	n/a	ITI	s445
295.706	1.763	1	PA_with_intermediate	0,0,0,1,2,0,0,0,0	test	ward_and_allport	0,0,0,1,0,0,2,3,0	71.0	33.0	1.763	0,0,0,1,2,3,0,0,0	to_hand	s445
297.471	0.232	0	PA_with_intermediate	3,0,0,1,2,0,0,0,0	test	ward_and_allport	0,0,0,1,0,0,2,3,0	89.0	33.0	0.232	0,0,0,1,2,3,0,0,0	to_board	s445
297.712	0.377	0	PA_with_intermediate	3,0,0,1,0,0,0,0,0	test	ward_and_allport	0,0,0,1,0,0,2,3,0	71.0	33.0	0.377	0,0,0,1,2,3,0,0,0	to_hand	s445
298.09	0.361	0	PA_with_intermediate	3,0,0,1,0,0,2,0,0	test	ward_and_allport	0,0,0,1,0,0,2,3,0	82.0	33.0	0.361	0,0,0,1,2,3,0,0,0	to_board	s445
298.46	0.428	0	PA_with_intermediate	0,0,0,1,0,0,2,0,0	test	ward_and_allport	0,0,0,1,0,0,2,3,0	89.0	33.0	0.428	0,0,0,1,2,3,0,0,0	to_hand	s445
298.888	0.584	0	PA_with_intermediate	0,0,0,1,0,0,2,3,0	test	ward_and_allport	0,0,0,1,0,0,2,3,0	82.0	33.0	0.584	0,0,0,1,2,3,0,0,0	to_board	s445
299.479	1.0	0	PA_with_intermediate	n/a	test	ward_and_allport	n/a	-1.0	33.0	n/a	n/a	feedback	s445
300.479	1.0	0	PA_with_intermediate	n/a	test	ward_and_allport	n/a	-1.0	33.0	n/a	n/a	ITI	s445
301.485	1.369	1	PA_with_intermediate	1,2,0,0,0,0,0,0,0	test	ward_and_allport	1,3,0,2,0,0,0,0,0	89.0	34.0	1.369	1,2,3,0,0,0,0,0,0	to_hand	s445
302.856	0.183	0	PA_with_intermediate	1,2,0,0,0,0,3,0,0	test	ward_and_allport	1,3,0,2,0,0,0,0,0	82.0	34.0	0.183	1,2,3,0,0,0,0,0,0	to_board	s445
303.044	0.731	0	PA_with_intermediate	1,0,0,0,0,0,3,0,0	test	ward_and_allport	1,3,0,2,0,0,0,0,0	89.0	34.0	0.731	1,2,3,0,0,0,0,0,0	to_hand	s445
303.776	0.233	0	PA_with_intermediate	1,0,0,2,0,0,3,0,0	test	ward_and_allport	1,3,0,2,0,0,0,0,0	71.0	34.0	0.233	1,2,3,0,0,0,0,0,0	to_board	s445
304.015	0.369	0	PA_with_intermediate	1,0,0,2,0,0,0,0,0	test	ward_and_allport	1,3,0,2,0,0,0,0,0	82.0	34.0	0.369	1,2,3,0,0,0,0,0,0	to_hand	s445
304.385	0.222	0	PA_with_intermediate	1,3,0,2,0,0,0,0,0	test	ward_and_allport	1,3,0,2,0,0,0,0,0	89.0	34.0	0.222	1,2,3,0,0,0,0,0,0	to_board	s445
304.613	1.0	0	PA_with_intermediate	n/a	test	ward_and_allport	n/a	-1.0	34.0	n/a	n/a	feedback	s445
305.613	1.408	0	PA_with_intermediate	n/a	test	ward_and_allport	n/a	-1.0	34.0	n/a	n/a	ITI	s445
307.027	2.123	1	PA_without_intermediate	0,0,0,1,2,0,0,0,0	test	ward_and_allport	1,0,0,0,0,0,3,2,0	71.0	35.0	2.123	0,0,0,1,2,3,0,0,0	to_hand	s445
309.151	0.451	0	PA_without_intermediate	0,0,0,1,2,0,3,0,0	test	ward_and_allport	1,0,0,0,0,0,3,2,0	82.0	35.0	0.451	0,0,0,1,2,3,0,0,0	to_board	s445
309.608	0.428	0	PA_without_intermediate	0,0,0,1,0,0,3,0,0	test	ward_and_allport	1,0,0,0,0,0,3,2,0	71.0	35.0	0.428	0,0,0,1,2,3,0,0,0	to_hand	s445
310.036	0.281	0	PA_without_intermediate	0,0,0,1,0,0,3,2,0	test	ward_and_allport	1,0,0,0,0,0,3,2,0	82.0	35.0	0.281	0,0,0,1,2,3,0,0,0	to_board	s445
310.332	0.385	0	PA_without_intermediate	0,0,0,0,0,0,3,2,0	test	ward_and_allport	1,0,0,0,0,0,3,2,0	71.0	35.0	0.385	0,0,0,1,2,3,0,0,0	to_hand	s445
310.719	0.21	0	PA_without_intermediate	1,0,0,0,0,0,3,2,0	test	ward_and_allport	1,0,0,0,0,0,3,2,0	89.0	35.0	0.21	0,0,0,1,2,3,0,0,0	to_board	s445
310.94	1.0	0	PA_without_intermediate	n/a	test	ward_and_allport	n/a	-1.0	35.0	n/a	n/a	feedback	s445
311.94	1.816	0	PA_without_intermediate	n/a	test	ward_and_allport	n/a	-1.0	35.0	n/a	n/a	ITI	s445
313.767	1.256	1	PA_with_intermediate	0,0,0,1,2,0,0,0,0	test	ward_and_allport	0,0,0,1,0,0,2,3,0	71.0	36.0	1.256	0,0,0,1,2,3,0,0,0	to_hand	s445
315.024	0.229	0	PA_with_intermediate	3,0,0,1,2,0,0,0,0	test	ward_and_allport	0,0,0,1,0,0,2,3,0	89.0	36.0	0.229	0,0,0,1,2,3,0,0,0	to_board	s445
315.259	0.241	0	PA_with_intermediate	3,0,0,1,0,0,0,0,0	test	ward_and_allport	0,0,0,1,0,0,2,3,0	71.0	36.0	0.241	0,0,0,1,2,3,0,0,0	to_hand	s445
315.502	0.299	0	PA_with_intermediate	3,0,0,1,0,0,2,0,0	test	ward_and_allport	0,0,0,1,0,0,2,3,0	82.0	36.0	0.299	0,0,0,1,2,3,0,0,0	to_board	s445
315.808	0.567	0	PA_with_intermediate	0,0,0,1,0,0,2,0,0	test	ward_and_allport	0,0,0,1,0,0,2,3,0	89.0	36.0	0.567	0,0,0,1,2,3,0,0,0	to_hand	s445
316.377	0.164	0	PA_with_intermediate	0,0,0,1,3,0,2,0,0	test	ward_and_allport	0,0,0,1,0,0,2,3,0	71.0	36.0	0.164	0,0,0,1,2,3,0,0,0	to_board	s445
316.548	1.281	0	PA_with_intermediate	0,0,0,1,0,0,2,0,0	test	ward_and_allport	0,0,0,1,0,0,2,3,0	71.0	36.0	1.281	0,0,0,1,2,3,0,0,0	to_hand	s445
317.829	0.237	0	PA_with_intermediate	0,0,0,1,0,0,2,3,0	test	ward_and_allport	0,0,0,1,0,0,2,3,0	82.0	36.0	0.237	0,0,0,1,2,3,0,0,0	to_board	s445
318.074	1.0	0	PA_with_intermediate	n/a	test	ward_and_allport	n/a	-1.0	36.0	n/a	n/a	feedback	s445
319.074	3.176	0	PA_with_intermediate	n/a	test	ward_and_allport	n/a	-1.0	36.0	n/a	n/a	ITI	s445
322.257	1.84	1	PA_with_intermediate	0,0,0,0,0,0,1,2,0	test	ward_and_allport	2,3,0,0,0,0,1,0,0	82.0	37.0	1.84	0,0,0,0,0,0,1,2,3	to_hand	s445
324.099	0.443	0	PA_with_intermediate	0,0,0,3,0,0,1,2,0	test	ward_and_allport	2,3,0,0,0,0,1,0,0	71.0	37.0	0.443	0,0,0,0,0,0,1,2,3	to_board	s445
324.554	0.62	0	PA_with_intermediate	0,0,0,3,0,0,1,0,0	test	ward_and_allport	2,3,0,0,0,0,1,0,0	82.0	37.0	0.62	0,0,0,0,0,0,1,2,3	to_hand	s445
325.175	0.424	0	PA_with_intermediate	2,0,0,3,0,0,1,0,0	test	ward_and_allport	2,3,0,0,0,0,1,0,0	89.0	37.0	0.424	0,0,0,0,0,0,1,2,3	to_board	s445
325.614	0.608	0	PA_with_intermediate	2,0,0,0,0,0,1,0,0	test	ward_and_allport	2,3,0,0,0,0,1,0,0	71.0	37.0	0.608	0,0,0,0,0,0,1,2,3	to_hand	s445
326.223	0.247	0	PA_with_intermediate	2,3,0,0,0,0,1,0,0	test	ward_and_allport	2,3,0,0,0,0,1,0,0	89.0	37.0	0.247	0,0,0,0,0,0,1,2,3	to_board	s445
326.482	1.0	0	PA_with_intermediate	n/a	test	ward_and_allport	n/a	-1.0	37.0	n/a	n/a	feedback	s445
327.482	2.36	0	PA_with_intermediate	n/a	test	ward_and_allport	n/a	-1.0	37.0	n/a	n/a	ITI	s445
329.852	1.374	1	PA_with_intermediate	1,2,0,0,0,0,0,0,0	test	ward_and_allport	1,0,0,2,3,0,0,0,0	89.0	38.0	1.374	1,2,3,0,0,0,0,0,0	to_hand	s445
331.228	0.222	0	PA_with_intermediate	1,2,0,0,0,0,3,0,0	test	ward_and_allport	1,0,0,2,3,0,0,0,0	82.0	38.0	0.222	1,2,3,0,0,0,0,0,0	to_board	s445
331.458	0.822	0	PA_with_intermediate	1,0,0,0,0,0,3,0,0	test	ward_and_allport	1,0,0,2,3,0,0,0,0	89.0	38.0	0.822	1,2,3,0,0,0,0,0,0	to_hand	s445
332.282	0.263	0	PA_with_intermediate	1,0,0,2,0,0,3,0,0	test	ward_and_allport	1,0,0,2,3,0,0,0,0	71.0	38.0	0.263	1,2,3,0,0,0,0,0,0	to_board	s445
332.552	0.92	0	PA_with_intermediate	1,0,0,2,0,0,0,0,0	test	ward_and_allport	1,0,0,2,3,0,0,0,0	82.0	38.0	0.92	1,2,3,0,0,0,0,0,0	to_hand	s445
333.474	0.313	0	PA_with_intermediate	1,0,0,2,3,0,0,0,0	test	ward_and_allport	1,0,0,2,3,0,0,0,0	71.0	38.0	0.313	1,2,3,0,0,0,0,0,0	to_board	s445
333.801	1.0	0	PA_with_intermediate	n/a	test	ward_and_allport	n/a	-1.0	38.0	n/a	n/a	feedback	s445
334.801	1.0	0	PA_with_intermediate	n/a	test	ward_and_allport	n/a	-1.0	38.0	n/a	n/a	ITI	s445
335.811	2.057	1	PA_without_intermediate	1,2,0,0,0,0,0,0,0	test	ward_and_allport	0,0,0,3,1,0,2,0,0	89.0	39.0	2.057	1,2,3,0,0,0,0,0,0	to_hand	s445
337.869	0.207	0	PA_without_intermediate	1,2,0,3,0,0,0,0,0	test	ward_and_allport	0,0,0,3,1,0,2,0,0	71.0	39.0	0.207	1,2,3,0,0,0,0,0,0	to_board	s445
338.085	0.449	0	PA_without_intermediate	1,0,0,3,0,0,0,0,0	test	ward_and_allport	0,0,0,3,1,0,2,0,0	89.0	39.0	0.449	1,2,3,0,0,0,0,0,0	to_hand	s445
338.536	0.216	0	PA_without_intermediate	1,0,0,3,2,0,0,0,0	test	ward_and_allport	0,0,0,3,1,0,2,0,0	71.0	39.0	0.216	1,2,3,0,0,0,0,0,0	to_board	s445
338.76	0.838	0	PA_without_intermediate	1,0,0,3,0,0,0,0,0	test	ward_and_allport	0,0,0,3,1,0,2,0,0	71.0	39.0	0.838	1,2,3,0,0,0,0,0,0	to_hand	s445
339.599	0.462	0	PA_without_intermediate	1,0,0,3,0,0,2,0,0	test	ward_and_allport	0,0,0,3,1,0,2,0,0	82.0	39.0	0.462	1,2,3,0,0,0,0,0,0	to_board	s445
340.071	0.346	0	PA_without_intermediate	0,0,0,3,0,0,2,0,0	test	ward_and_allport	0,0,0,3,1,0,2,0,0	89.0	39.0	0.346	1,2,3,0,0,0,0,0,0	to_hand	s445
340.419	0.235	0	PA_without_intermediate	0,0,0,3,1,0,2,0,0	test	ward_and_allport	0,0,0,3,1,0,2,0,0	71.0	39.0	0.235	1,2,3,0,0,0,0,0,0	to_board	s445
340.663	1.0	0	PA_without_intermediate	n/a	test	ward_and_allport	n/a	-1.0	39.0	n/a	n/a	feedback	s445
341.663	1.408	0	PA_without_intermediate	n/a	test	ward_and_allport	n/a	-1.0	39.0	n/a	n/a	ITI	s445
343.078	3.269	1	PA_with_intermediate	1,2,0,0,0,0,0,0,0	test	ward_and_allport	1,3,0,0,0,0,2,0,0	89.0	40.0	3.269	1,2,3,0,0,0,0,0,0	to_hand	s445
346.349	0.235	0	PA_with_intermediate	1,2,0,3,0,0,0,0,0	test	ward_and_allport	1,3,0,0,0,0,2,0,0	71.0	40.0	0.235	1,2,3,0,0,0,0,0,0	to_board	s445
346.591	0.446	0	PA_with_intermediate	1,0,0,3,0,0,0,0,0	test	ward_and_allport	1,3,0,0,0,0,2,0,0	89.0	40.0	0.446	1,2,3,0,0,0,0,0,0	to_hand	s445
347.039	0.257	0	PA_with_intermediate	1,0,0,3,0,0,2,0,0	test	ward_and_allport	1,3,0,0,0,0,2,0,0	82.0	40.0	0.257	1,2,3,0,0,0,0,0,0	to_board	s445
347.312	0.25	0	PA_with_intermediate	1,0,0,0,0,0,2,0,0	test	ward_and_allport	1,3,0,0,0,0,2,0,0	71.0	40.0	0.25	1,2,3,0,0,0,0,0,0	to_hand	s445
347.564	0.225	0	PA_with_intermediate	1,3,0,0,0,0,2,0,0	test	ward_and_allport	1,3,0,0,0,0,2,0,0	89.0	40.0	0.225	1,2,3,0,0,0,0,0,0	to_board	s445
347.801	1.0	0	PA_with_intermediate	n/a	test	ward_and_allport	n/a	-1.0	40.0	n/a	n/a	feedback	s445
348.801	1.816	0	PA_with_intermediate	n/a	test	ward_and_allport	n/a	-1.0	40.0	n/a	n/a	ITI	s445
350.631	1.251	1	PA_without_intermediate	0,0,0,0,0,0,1,2,0	test	ward_and_allport	3,2,0,1,0,0,0,0,0	82.0	41.0	1.251	0,0,0,0,0,0,1,2,3	to_hand	s445
351.883	0.276	0	PA_without_intermediate	3,0,0,0,0,0,1,2,0	test	ward_and_allport	3,2,0,1,0,0,0,0,0	89.0	41.0	0.276	0,0,0,0,0,0,1,2,3	to_board	s445
352.167	0.311	0	PA_without_intermediate	3,0,0,0,0,0,1,0,0	test	ward_and_allport	3,2,0,1,0,0,0,0,0	82.0	41.0	0.311	0,0,0,0,0,0,1,2,3	to_hand	s445
352.479	0.24	0	PA_without_intermediate	3,2,0,0,0,0,1,0,0	test	ward_and_allport	3,2,0,1,0,0,0,0,0	89.0	41.0	0.24	0,0,0,0,0,0,1,2,3	to_board	s445
352.729	0.408	0	PA_without_intermediate	3,2,0,0,0,0,0,0,0	test	ward_and_allport	3,2,0,1,0,0,0,0,0	82.0	41.0	0.408	0,0,0,0,0,0,1,2,3	to_hand	s445
353.138	0.383	0	PA_without_intermediate	3,2,0,1,0,0,0,0,0	test	ward_and_allport	3,2,0,1,0,0,0,0,0	71.0	41.0	0.383	0,0,0,0,0,0,1,2,3	to_board	s445
353.53	1.0	0	PA_without_intermediate	n/a	test	ward_and_allport	n/a	-1.0	41.0	n/a	n/a	feedback	s445
354.53	2.088	0	PA_without_intermediate	n/a	test	ward_and_allport	n/a	-1.0	41.0	n/a	n/a	ITI	s445
356.626	1.402	1	PA_without_intermediate	0,0,0,1,2,0,0,0,0	test	ward_and_allport	2,0,0,0,0,0,3,1,0	71.0	42.0	1.402	0,0,0,1,2,3,0,0,0	to_hand	s445
358.03	0.241	0	PA_without_intermediate	0,0,0,1,2,0,3,0,0	test	ward_and_allport	2,0,0,0,0,0,3,1,0	82.0	42.0	0.241	0,0,0,1,2,3,0,0,0	to_board	s445
358.283	0.425	0	PA_without_intermediate	0,0,0,1,0,0,3,0,0	test	ward_and_allport	2,0,0,0,0,0,3,1,0	71.0	42.0	0.425	0,0,0,1,2,3,0,0,0	to_hand	s445
358.71	0.181	0	PA_without_intermediate	2,0,0,1,0,0,3,0,0	test	ward_and_allport	2,0,0,0,0,0,3,1,0	89.0	42.0	0.181	0,0,0,1,2,3,0,0,0	to_board	s445
358.901	0.41	0	PA_without_intermediate	2,0,0,0,0,0,3,0,0	test	ward_and_allport	2,0,0,0,0,0,3,1,0	71.0	42.0	0.41	0,0,0,1,2,3,0,0,0	to_hand	s445
359.312	0.209	0	PA_without_intermediate	2,0,0,0,0,0,3,1,0	test	ward_and_allport	2,0,0,0,0,0,3,1,0	82.0	42.0	0.209	0,0,0,1,2,3,0,0,0	to_board	s445
359.534	1.0	0	PA_without_intermediate	n/a	test	ward_and_allport	n/a	-1.0	42.0	n/a	n/a	feedback	s445
360.534	1.136	0	PA_without_intermediate	n/a	test	ward_and_allport	n/a	-1.0	42.0	n/a	n/a	ITI	s445
361.679	1.778	1	PA_without_intermediate	0,0,0,0,0,0,1,2,0	test	ward_and_allport	2,0,0,3,1,0,0,0,0	82.0	43.0	1.778	0,0,0,0,0,0,1,2,3	to_hand	s445
363.457	0.215	0	PA_without_intermediate	0,0,0,3,0,0,1,2,0	test	ward_and_allport	2,0,0,3,1,0,0,0,0	71.0	43.0	0.215	0,0,0,0,0,0,1,2,3	to_board	s445
363.678	0.724	0	PA_without_intermediate	0,0,0,3,0,0,1,0,0	test	ward_and_allport	2,0,0,3,1,0,0,0,0	82.0	43.0	0.724	0,0,0,0,0,0,1,2,3	to_hand	s445
364.404	0.239	0	PA_without_intermediate	2,0,0,3,0,0,1,0,0	test	ward_and_allport	2,0,0,3,1,0,0,0,0	89.0	43.0	0.239	0,0,0,0,0,0,1,2,3	to_board	s445
364.653	0.309	0	PA_without_intermediate	2,0,0,3,0,0,0,0,0	test	ward_and_allport	2,0,0,3,1,0,0,0,0	82.0	43.0	0.309	0,0,0,0,0,0,1,2,3	to_hand	s445
364.963	0.469	0	PA_without_intermediate	2,0,0,3,1,0,0,0,0	test	ward_and_allport	2,0,0,3,1,0,0,0,0	71.0	43.0	0.469	0,0,0,0,0,0,1,2,3	to_board	s445
365.44	1.0	0	PA_without_intermediate	n/a	test	ward_and_allport	n/a	-1.0	43.0	n/a	n/a	feedback	s445
366.44	6.168	0	PA_without_intermediate	n/a	test	ward_and_allport	n/a	-1.0	43.0	n/a	n/a	ITI	s445
372.616	1.282	1	PA_without_intermediate	0,0,0,1,2,0,0,0,0	test	ward_and_allport	1,0,0,0,0,0,3,2,0	71.0	44.0	1.282	0,0,0,1,2,3,0,0,0	to_hand	s445
373.899	0.231	0	PA_without_intermediate	0,0,0,1,2,0,3,0,0	test	ward_and_allport	1,0,0,0,0,0,3,2,0	82.0	44.0	0.231	0,0,0,1,2,3,0,0,0	to_board	s445
374.14	0.37	0	PA_without_intermediate	0,0,0,1,0,0,3,0,0	test	ward_and_allport	1,0,0,0,0,0,3,2,0	71.0	44.0	0.37	0,0,0,1,2,3,0,0,0	to_hand	s445
374.511	0.24	0	PA_without_intermediate	0,0,0,1,0,0,3,2,0	test	ward_and_allport	1,0,0,0,0,0,3,2,0	82.0	44.0	0.24	0,0,0,1,2,3,0,0,0	to_board	s445
374.762	0.344	0	PA_without_intermediate	0,0,0,0,0,0,3,2,0	test	ward_and_allport	1,0,0,0,0,0,3,2,0	71.0	44.0	0.344	0,0,0,1,2,3,0,0,0	to_hand	s445
375.108	0.235	0	PA_without_intermediate	1,0,0,0,0,0,3,2,0	test	ward_and_allport	1,0,0,0,0,0,3,2,0	89.0	44.0	0.235	0,0,0,1,2,3,0,0,0	to_board	s445
375.355	1.0	0	PA_without_intermediate	n/a	test	ward_and_allport	n/a	-1.0	44.0	n/a	n/a	feedback	s445
376.355	1.816	0	PA_without_intermediate	n/a	test	ward_and_allport	n/a	-1.0	44.0	n/a	n/a	ITI	s445
383.186	1.09	1	PA_with_intermediate	0,0,0,0,0,0,1,2,0	test	ward_and_allport	2,3,0,0,0,0,1,0,0	82.0	45.0	1.09	0,0,0,0,0,0,1,2,3	to_hand	s445
384.278	0.767	0	PA_with_intermediate	0,0,0,3,0,0,1,2,0	test	ward_and_allport	2,3,0,0,0,0,1,0,0	71.0	45.0	0.767	0,0,0,0,0,0,1,2,3	to_board	s445
385.061	0.271	0	PA_with_intermediate	0,0,0,3,0,0,1,0,0	test	ward_and_allport	2,3,0,0,0,0,1,0,0	82.0	45.0	0.271	0,0,0,0,0,0,1,2,3	to_hand	s445
385.334	0.306	0	PA_with_intermediate	2,0,0,3,0,0,1,0,0	test	ward_and_allport	2,3,0,0,0,0,1,0,0	89.0	45.0	0.306	0,0,0,0,0,0,1,2,3	to_board	s445
385.658	0.243	0	PA_with_intermediate	2,0,0,0,0,0,1,0,0	test	ward_and_allport	2,3,0,0,0,0,1,0,0	71.0	45.0	0.243	0,0,0,0,0,0,1,2,3	to_hand	s445
385.903	0.304	0	PA_with_intermediate	2,3,0,0,0,0,1,0,0	test	ward_and_allport	2,3,0,0,0,0,1,0,0	89.0	45.0	0.304	0,0,0,0,0,0,1,2,3	to_board	s445
386.227	1.0	0	PA_with_intermediate	n/a	test	ward_and_allport	n/a	-1.0	45.0	n/a	n/a	feedback	s445
387.227	1.952	0	PA_with_intermediate	n/a	test	ward_and_allport	n/a	-1.0	45.0	n/a	n/a	ITI	s445
389.194	2.996	1	PA_with_intermediate	0,0,0,1,2,0,0,0,0	test	ward_and_allport	2,0,0,1,3,0,0,0,0	71.0	46.0	2.996	0,0,0,1,2,3,0,0,0	to_hand	s445
392.191	0.278	0	PA_with_intermediate	0,0,0,1,2,0,3,0,0	test	ward_and_allport	2,0,0,1,3,0,0,0,0	82.0	46.0	0.278	0,0,0,1,2,3,0,0,0	to_board	s445
392.485	0.391	0	PA_with_intermediate	0,0,0,1,0,0,3,0,0	test	ward_and_allport	2,0,0,1,3,0,0,0,0	71.0	46.0	0.391	0,0,0,1,2,3,0,0,0	to_hand	s445
392.878	0.338	0	PA_with_intermediate	2,0,0,1,0,0,3,0,0	test	ward_and_allport	2,0,0,1,3,0,0,0,0	89.0	46.0	0.338	0,0,0,1,2,3,0,0,0	to_board	s445
393.232	0.682	0	PA_with_intermediate	2,0,0,1,0,0,0,0,0	test	ward_and_allport	2,0,0,1,3,0,0,0,0	82.0	46.0	0.682	0,0,0,1,2,3,0,0,0	to_hand	s445
393.916	0.219	0	PA_with_intermediate	2,0,0,1,3,0,0,0,0	test	ward_and_allport	2,0,0,1,3,0,0,0,0	71.0	46.0	0.219	0,0,0,1,2,3,0,0,0	to_board	s445
394.154	1.0	0	PA_with_intermediate	n/a	test	ward_and_allport	n/a	-1.0	46.0	n/a	n/a	feedback	s445
395.154	1.136	0	PA_with_intermediate	n/a	test	ward_and_allport	n/a	-1.0	46.0	n/a	n/a	ITI	s445
396.311	1.591	1	PA_without_intermediate	1,2,0,0,0,0,0,0,0	test	ward_and_allport	0,0,0,3,2,0,1,0,0	89.0	47.0	1.591	1,2,3,0,0,0,0,0,0	to_hand	s445
397.903	0.273	0	PA_without_intermediate	1,2,0,3,0,0,0,0,0	test	ward_and_allport	0,0,0,3,2,0,1,0,0	71.0	47.0	0.273	1,2,3,0,0,0,0,0,0	to_board	s445
398.187	0.231	0	PA_without_intermediate	1,0,0,3,0,0,0,0,0	test	ward_and_allport	0,0,0,3,2,0,1,0,0	89.0	47.0	0.231	1,2,3,0,0,0,0,0,0	to_hand	s445
398.419	0.191	0	PA_without_intermediate	1,0,0,3,2,0,0,0,0	test	ward_and_allport	0,0,0,3,2,0,1,0,0	71.0	47.0	0.191	1,2,3,0,0,0,0,0,0	to_board	s445
398.619	0.539	0	PA_without_intermediate	0,0,0,3,2,0,0,0,0	test	ward_and_allport	0,0,0,3,2,0,1,0,0	89.0	47.0	0.539	1,2,3,0,0,0,0,0,0	to_hand	s445
399.16	0.213	0	PA_without_intermediate	0,0,0,3,2,0,1,0,0	test	ward_and_allport	0,0,0,3,2,0,1,0,0	82.0	47.0	0.213	1,2,3,0,0,0,0,0,0	to_board	s445
399.382	1.0	0	PA_without_intermediate	n/a	test	ward_and_allport	n/a	-1.0	47.0	n/a	n/a	feedback	s445
400.382	1.68	0	PA_without_intermediate	n/a	test	ward_and_allport	n/a	-1.0	47.0	n/a	n/a	ITI	s445
n/a	n/a	0	n/a	n/a	n/a	n/a	n/a	n/a	n/a	n/a	n/a	ITI	n/a
