onset	duration	EV	action	clicked_on_loss_card	experiment_exp_id	gain_amount	gain_probability	key_press	loss_amount	loss_probability	num_cards	num_click_in_round	num_loss_cards	risk	response_time	total_cards	trial_id	worker_id
3.007	4.034	1.152684873518207	draw_card	0.0	columbia_card_task_fmri	12.0	0.8333333333333334	89.0	-70.0	0.1666666666666666	6.0	1.0	1.0	-3.807635988343797	4.034	n/a	stim	s445
7.043	1.296	-1.5806484598151256	draw_card	1.0	columbia_card_task_fmri	12.0	0.8	89.0	-70.0	0.2	6.0	2.0	1.0	-1.5760623886778546	1.296	2.0	stim	s445
8.341	2.25	n/a	-1.0	n/a	columbia_card_task_fmri	n/a	n/a	-1.0	n/a	n/a	n/a	n/a	n/a	n/a	n/a	n/a	feedback	s445
10.591	0.204	n/a	-1.0	n/a	columbia_card_task_fmri	n/a	n/a	-1.0	n/a	n/a	n/a	n/a	n/a	n/a	n/a	n/a	ITI	s445
10.798	2.173	1.9860182068515408	draw_card	0.0	columbia_card_task_fmri	14.0	0.8333333333333334	89.0	-75.0	0.1666666666666666	6.0	1.0	1.0	-1.209059010832604	2.173	n/a	stim	s445
12.973	1.491	-0.980648459815126	draw_card	0.0	columbia_card_task_fmri	14.0	0.8	89.0	-75.0	0.2	6.0	2.0	1.0	1.2144558861856254	1.491	n/a	stim	s445
14.465	1.627	-5.430648459815127	draw_card	1.0	columbia_card_task_fmri	14.0	0.75	89.0	-75.0	0.25	6.0	3.0	1.0	4.14411187887471	1.627	3.0	stim	s445
16.095	2.25	n/a	-1.0	n/a	columbia_card_task_fmri	n/a	n/a	-1.0	n/a	n/a	n/a	n/a	n/a	n/a	n/a	n/a	feedback	s445
18.345	0.204	n/a	-1.0	n/a	columbia_card_task_fmri	n/a	n/a	-1.0	n/a	n/a	n/a	n/a	n/a	n/a	n/a	n/a	ITI	s445
18.551	2.499	3.652684873518207	draw_card	0.0	columbia_card_task_fmri	15.0	0.8333333333333334	89.0	-70.0	0.1666666666666666	6.0	1.0	1.0	-2.6941640235510675	2.499	n/a	stim	s445
21.051	1.85	0.819351540184873	draw_card	0.0	columbia_card_task_fmri	15.0	0.8	89.0	-70.0	0.2	6.0	2.0	1.0	-0.3803162359530816	1.85	n/a	stim	s445
22.903	2.396	-3.430648459815127	draw_card	0.0	columbia_card_task_fmri	15.0	0.75	89.0	-70.0	0.25	6.0	3.0	1.0	2.4168938508852875	2.396	n/a	stim	s445
25.3	2.569	-10.513981793148456	end_round	0.0	columbia_card_task_fmri	15.0	0.6666666666666667	71.0	-70.0	0.3333333333333333	6.0	4.0	1.0	5.671439781696151	2.569	3.0	stim	s445
27.871	2.25	n/a	-1.0	n/a	columbia_card_task_fmri	n/a	n/a	-1.0	n/a	n/a	n/a	n/a	n/a	n/a	n/a	n/a	feedback	s445
30.121	0.272	n/a	-1.0	n/a	columbia_card_task_fmri	n/a	n/a	-1.0	n/a	n/a	n/a	n/a	n/a	n/a	n/a	n/a	ITI	s445
30.395	2.929	4.486018206851541	draw_card	0.0	columbia_card_task_fmri	17.0	0.8333333333333334	89.0	-75.0	0.1666666666666666	6.0	1.0	1.0	-0.0949119627297463	2.929	n/a	stim	s445
33.326	1.103	1.4193515401848744	draw_card	0.0	columbia_card_task_fmri	17.0	0.8	89.0	-75.0	0.2	6.0	2.0	1.0	2.410831951318009	1.103	n/a	stim	s445
34.433	0.966	-3.180648459815127	draw_card	0.0	columbia_card_task_fmri	17.0	0.75	89.0	-75.0	0.25	6.0	3.0	1.0	5.439800112572705	0.966	n/a	stim	s445
35.4	1.665	-10.847315126481792	draw_card	0.0	columbia_card_task_fmri	17.0	0.6666666666666667	89.0	-75.0	0.3333333333333333	6.0	4.0	1.0	8.963750417304311	1.665	n/a	stim	s445
37.066	1.568	-26.180648459815128	end_round	0.0	columbia_card_task_fmri	17.0	0.5	71.0	-75.0	0.5	6.0	5.0	1.0	11.589309130855902	1.568	4.0	stim	s445
38.636	2.25	n/a	-1.0	n/a	columbia_card_task_fmri	n/a	n/a	-1.0	n/a	n/a	n/a	n/a	n/a	n/a	n/a	n/a	feedback	s445
40.886	0.204	n/a	-1.0	n/a	columbia_card_task_fmri	n/a	n/a	-1.0	n/a	n/a	n/a	n/a	n/a	n/a	n/a	n/a	ITI	s445
41.091	2.242	5.819351540184873	draw_card	1.0	columbia_card_task_fmri	24.0	0.75	89.0	-60.0	0.25	8.0	1.0	2.0	1.9851609452178491	2.242	1.0	stim	s445
43.336	2.25	n/a	-1.0	n/a	columbia_card_task_fmri	n/a	n/a	-1.0	n/a	n/a	n/a	n/a	n/a	n/a	n/a	n/a	feedback	s445
45.586	0.408	n/a	-1.0	n/a	columbia_card_task_fmri	n/a	n/a	-1.0	n/a	n/a	n/a	n/a	n/a	n/a	n/a	n/a	ITI	s445
45.996	2.557	5.819351540184873	draw_card	0.0	columbia_card_task_fmri	29.0	0.75	89.0	-75.0	0.25	8.0	1.0	2.0	10.624479443602006	2.557	n/a	stim	s445
48.554	1.168	2.105065825899161	draw_card	1.0	columbia_card_task_fmri	29.0	0.7142857142857143	89.0	-75.0	0.2857142857142857	8.0	2.0	2.0	12.569918423808026	1.168	2.0	stim	s445
49.725	2.25	n/a	-1.0	n/a	columbia_card_task_fmri	n/a	n/a	-1.0	n/a	n/a	n/a	n/a	n/a	n/a	n/a	n/a	feedback	s445
51.975	0.136	n/a	-1.0	n/a	columbia_card_task_fmri	n/a	n/a	-1.0	n/a	n/a	n/a	n/a	n/a	n/a	n/a	n/a	ITI	s445
52.112	1.238	1.5971293179626531	draw_card	1.0	columbia_card_task_fmri	17.0	0.7777777777777778	89.0	-65.0	0.2222222222222222	9.0	1.0	2.0	-0.2899693061737096	1.238	1.0	stim	s445
53.354	2.25	n/a	-1.0	n/a	columbia_card_task_fmri	n/a	n/a	-1.0	n/a	n/a	n/a	n/a	n/a	n/a	n/a	n/a	feedback	s445
55.604	0.272	n/a	-1.0	n/a	columbia_card_task_fmri	n/a	n/a	-1.0	n/a	n/a	n/a	n/a	n/a	n/a	n/a	n/a	ITI	s445
55.877	1.435	5.919351540184873	draw_card	0.0	columbia_card_task_fmri	14.0	0.9	89.0	-95.0	0.1	10.0	1.0	1.0	-1.6756938856121408	1.435	n/a	stim	s445
57.314	3.579	4.7082404290737605	draw_card	1.0	columbia_card_task_fmri	14.0	0.8888888888888888	89.0	-95.0	0.1111111111111111	10.0	2.0	1.0	-0.1257881344578351	3.579	2.0	stim	s445
60.896	2.25	n/a	-1.0	n/a	columbia_card_task_fmri	n/a	n/a	-1.0	n/a	n/a	n/a	n/a	n/a	n/a	n/a	n/a	feedback	s445
63.146	0.34	n/a	-1.0	n/a	columbia_card_task_fmri	n/a	n/a	-1.0	n/a	n/a	n/a	n/a	n/a	n/a	n/a	n/a	ITI	s445
63.489	4.053	1.819351540184873	draw_card	0.0	columbia_card_task_fmri	15.0	0.8	89.0	-65.0	0.2	10.0	1.0	2.0	-2.37305024325795	4.053	n/a	stim	s445
67.542	1.631	0.0415737624070962	draw_card	0.0	columbia_card_task_fmri	15.0	0.7777777777777778	89.0	-65.0	0.2222222222222222	10.0	2.0	2.0	-1.1185494032634935	1.631	n/a	stim	s445
69.174	0.948	-2.180648459815127	draw_card	0.0	columbia_card_task_fmri	15.0	0.75	89.0	-65.0	0.25	10.0	3.0	2.0	0.2585477473782234	0.948	n/a	stim	s445
70.123	2.079	-5.037791316957981	draw_card	1.0	columbia_card_task_fmri	15.0	0.7142857142857143	89.0	-65.0	0.2857142857142857	10.0	4.0	2.0	1.7531106275742443	2.079	4.0	stim	s445
72.206	2.25	n/a	-1.0	n/a	columbia_card_task_fmri	n/a	n/a	-1.0	n/a	n/a	n/a	n/a	n/a	n/a	n/a	n/a	feedback	s445
74.456	0.136	n/a	-1.0	n/a	columbia_card_task_fmri	n/a	n/a	-1.0	n/a	n/a	n/a	n/a	n/a	n/a	n/a	n/a	ITI	s445
74.593	1.787	3.4193515401848744	draw_card	0.0	columbia_card_task_fmri	17.0	0.8	89.0	-65.0	0.2	10.0	1.0	2.0	-1.5760623886778546	1.787	n/a	stim	s445
76.381	1.255	1.5971293179626531	draw_card	0.0	columbia_card_task_fmri	17.0	0.7777777777777778	89.0	-65.0	0.2222222222222222	10.0	2.0	2.0	-0.2899693061737096	1.255	n/a	stim	s445
77.638	1.384	-0.680648459815127	draw_card	0.0	columbia_card_task_fmri	17.0	0.75	89.0	-65.0	0.25	10.0	3.0	2.0	1.1217883458681897	1.384	n/a	stim	s445
79.023	1.976	-3.609219888386554	draw_card	0.0	columbia_card_task_fmri	17.0	0.7142857142857143	89.0	-65.0	0.2857142857142857	10.0	4.0	2.0	2.653948208651464	1.976	n/a	stim	s445
81.0	1.69	-7.513981793148457	end_round	0.0	columbia_card_task_fmri	17.0	0.6666666666666667	71.0	-65.0	0.3333333333333333	10.0	5.0	2.0	4.2608411072571215	1.69	4.0	stim	s445
82.694	2.25	n/a	-1.0	n/a	columbia_card_task_fmri	n/a	n/a	-1.0	n/a	n/a	n/a	n/a	n/a	n/a	n/a	n/a	feedback	s445
84.944	0.34	n/a	-1.0	n/a	columbia_card_task_fmri	n/a	n/a	-1.0	n/a	n/a	n/a	n/a	n/a	n/a	n/a	n/a	ITI	s445
85.286	4.384	1.9860182068515408	draw_card	0.0	columbia_card_task_fmri	13.0	0.8333333333333334	89.0	-70.0	0.1666666666666666	12.0	1.0	2.0	-3.4365150837730667	4.384	n/a	stim	s445
89.672	0.934	0.7284424492757795	draw_card	1.0	columbia_card_task_fmri	13.0	0.8181818181818181	89.0	-70.0	0.1818181818181818	12.0	2.0	2.0	-2.3604465896611373	0.934	2.0	stim	s445
90.61	2.25	n/a	-1.0	n/a	columbia_card_task_fmri	n/a	n/a	-1.0	n/a	n/a	n/a	n/a	n/a	n/a	n/a	n/a	feedback	s445
92.86	0.068	n/a	-1.0	n/a	columbia_card_task_fmri	n/a	n/a	-1.0	n/a	n/a	n/a	n/a	n/a	n/a	n/a	n/a	ITI	s445
92.929	1.398	1.9860182068515408	draw_card	1.0	columbia_card_task_fmri	15.0	0.8333333333333334	89.0	-80.0	0.1666666666666666	12.0	1.0	2.0	1.0194793771197157	1.398	1.0	stim	s445
94.329	2.25	n/a	-1.0	n/a	columbia_card_task_fmri	n/a	n/a	-1.0	n/a	n/a	n/a	n/a	n/a	n/a	n/a	n/a	feedback	s445
96.579	0.0	n/a	-1.0	n/a	columbia_card_task_fmri	n/a	n/a	-1.0	n/a	n/a	n/a	n/a	n/a	n/a	n/a	n/a	ITI	s445
96.58	1.304	1.019351540184874	draw_card	0.0	columbia_card_task_fmri	14.0	0.8	89.0	-65.0	0.2	15.0	1.0	3.0	-2.7714873113893432	1.304	n/a	stim	s445
97.886	1.553	-0.109219888386554	draw_card	0.0	columbia_card_task_fmri	14.0	0.7857142857142857	89.0	-65.0	0.2142857142857142	15.0	2.0	3.0	-1.9588876923423089	1.553	n/a	stim	s445
99.44	4.755	-1.4114176905843587	draw_card	0.0	columbia_card_task_fmri	14.0	0.7692307692307692	89.0	-65.0	0.2307692307692307	15.0	3.0	3.0	-1.093138744943687	4.755	n/a	stim	s445
104.198	3.269	-2.930648459815127	draw_card	0.0	columbia_card_task_fmri	14.0	0.75	89.0	-65.0	0.25	15.0	4.0	3.0	-0.1730199391798592	3.269	n/a	stim	s445
107.469	2.917	-4.726103005269672	draw_card	1.0	columbia_card_task_fmri	14.0	0.7272727272727273	89.0	-65.0	0.2727272727272727	15.0	5.0	3.0	0.7993508981019772	2.917	5.0	stim	s445
110.389	2.25	n/a	-1.0	n/a	columbia_card_task_fmri	n/a	n/a	-1.0	n/a	n/a	n/a	n/a	n/a	n/a	n/a	n/a	feedback	s445
112.639	0.204	n/a	-1.0	n/a	columbia_card_task_fmri	n/a	n/a	-1.0	n/a	n/a	n/a	n/a	n/a	n/a	n/a	n/a	ITI	s445
112.845	6.803	0.944351540184873	end_round	0.0	columbia_card_task_fmri	1.0	0.9375	71.0	-45.0	0.0625	16.0	1.0	1.0	-23.01079499957413	6.803	0.0	stim	s445
119.651	2.25	n/a	-1.0	n/a	columbia_card_task_fmri	n/a	n/a	-1.0	n/a	n/a	n/a	n/a	n/a	n/a	n/a	n/a	feedback	s445
121.901	1.02	n/a	-1.0	n/a	columbia_card_task_fmri	n/a	n/a	-1.0	n/a	n/a	n/a	n/a	n/a	n/a	n/a	n/a	ITI	s445
122.923	2.097	1.881851540184873	draw_card	0.0	columbia_card_task_fmri	15.0	0.8125	89.0	-70.0	0.1875	16.0	1.0	3.0	-1.2008783038047357	2.097	n/a	stim	s445
125.022	0.799	0.819351540184873	draw_card	0.0	columbia_card_task_fmri	15.0	0.8	89.0	-70.0	0.2	16.0	2.0	3.0	-0.3803162359530816	0.799	n/a	stim	s445
125.823	4.564	-0.3949341741008423	end_round	0.0	columbia_card_task_fmri	15.0	0.7857142857142857	71.0	-70.0	0.2142857142857142	16.0	3.0	3.0	0.4944586218182465	4.564	2.0	stim	s445
130.389	2.25	n/a	-1.0	n/a	columbia_card_task_fmri	n/a	n/a	-1.0	n/a	n/a	n/a	n/a	n/a	n/a	n/a	n/a	feedback	s445
132.639	0.0	n/a	-1.0	n/a	columbia_card_task_fmri	n/a	n/a	-1.0	n/a	n/a	n/a	n/a	n/a	n/a	n/a	n/a	ITI	s445
132.64	2.102	8.819351540184872	draw_card	0.0	columbia_card_task_fmri	30.0	0.7	89.0	-50.0	0.3	10.0	1.0	3.0	2.271846350158981	2.102	n/a	stim	s445
134.744	0.876	6.152684873518212	draw_card	1.0	columbia_card_task_fmri	30.0	0.6666666666666667	89.0	-50.0	0.3333333333333333	10.0	2.0	3.0	3.3205920004776885	0.876	2.0	stim	s445
135.624	2.25	n/a	-1.0	n/a	columbia_card_task_fmri	n/a	n/a	-1.0	n/a	n/a	n/a	n/a	n/a	n/a	n/a	n/a	feedback	s445
137.874	0.0	n/a	-1.0	n/a	columbia_card_task_fmri	n/a	n/a	-1.0	n/a	n/a	n/a	n/a	n/a	n/a	n/a	n/a	ITI	s445
137.876	1.607	8.219351540184874	draw_card	0.0	columbia_card_task_fmri	17.0	0.8666666666666667	89.0	-70.0	0.1333333333333333	15.0	1.0	2.0	-4.788614100984795	1.607	n/a	stim	s445
139.485	0.903	7.390780111613446	draw_card	0.0	columbia_card_task_fmri	17.0	0.8571428571428572	89.0	-70.0	0.1428571428571428	15.0	2.0	2.0	-3.923081323774984	0.903	n/a	stim	s445
140.39	2.244	6.434736155569488	draw_card	0.0	columbia_card_task_fmri	17.0	0.8461538461538461	89.0	-70.0	0.1538461538461538	15.0	3.0	2.0	-2.9809442711641942	2.244	n/a	stim	s445
142.636	1.231	5.319351540184875	draw_card	0.0	columbia_card_task_fmri	17.0	0.8333333333333334	89.0	-70.0	0.1666666666666666	15.0	4.0	2.0	-1.9516756020586852	1.231	n/a	stim	s445
143.869	3.148	4.001169722003053	draw_card	1.0	columbia_card_task_fmri	17.0	0.8181818181818181	89.0	-70.0	0.1818181818181818	15.0	5.0	2.0	-0.823344697785501	3.148	5.0	stim	s445
147.021	2.25	n/a	-1.0	n/a	columbia_card_task_fmri	n/a	n/a	-1.0	n/a	n/a	n/a	n/a	n/a	n/a	n/a	n/a	feedback	s445
149.271	0.068	n/a	-1.0	n/a	columbia_card_task_fmri	n/a	n/a	-1.0	n/a	n/a	n/a	n/a	n/a	n/a	n/a	n/a	ITI	s445
149.34	5.52	3.444351540184873	end_round	0.0	columbia_card_task_fmri	7.0	0.9375	71.0	-95.0	0.0625	16.0	1.0	1.0	-9.64629261129726	5.52	0.0	stim	s445
154.864	2.25	n/a	-1.0	n/a	columbia_card_task_fmri	n/a	n/a	-1.0	n/a	n/a	n/a	n/a	n/a	n/a	n/a	n/a	feedback	s445
157.114	0.476	n/a	-1.0	n/a	columbia_card_task_fmri	n/a	n/a	-1.0	n/a	n/a	n/a	n/a	n/a	n/a	n/a	n/a	ITI	s445
157.593	2.335	5.006851540184873	draw_card	0.0	columbia_card_task_fmri	9.0	0.9375	89.0	-100.0	0.0625	16.0	1.0	1.0	-7.962106081474165	2.335	n/a	stim	s445
159.929	1.202	4.552684873518206	draw_card	0.0	columbia_card_task_fmri	9.0	0.9333333333333332	89.0	-100.0	0.0666666666666666	16.0	2.0	1.0	-7.161849389221217	1.202	n/a	stim	s445
161.134	1.327	4.033637254470588	draw_card	0.0	columbia_card_task_fmri	9.0	0.9285714285714286	89.0	-100.0	0.0714285714285714	16.0	3.0	1.0	-6.2839935910310345	1.327	n/a	stim	s445
162.463	2.385	3.434736155569489	draw_card	0.0	columbia_card_task_fmri	9.0	0.9230769230769232	89.0	-100.0	0.0769230769230769	16.0	4.0	1.0	-5.315336163643966	2.385	n/a	stim	s445
164.85	1.13	2.736018206851541	draw_card	0.0	columbia_card_task_fmri	9.0	0.9166666666666666	89.0	-100.0	0.0833333333333333	16.0	5.0	1.0	-4.239363419490452	1.13	n/a	stim	s445
165.983	1.701	1.910260631093963	draw_card	0.0	columbia_card_task_fmri	9.0	0.9090909090909092	89.0	-100.0	0.0909090909090909	16.0	6.0	1.0	-3.035134405508554	1.701	n/a	stim	s445
167.686	2.59	0.9193515401848726	end_round	0.0	columbia_card_task_fmri	9.0	0.9	71.0	-100.0	0.1	16.0	7.0	1.0	-1.6756938856121408	2.59	6.0	stim	s445
170.279	2.25	n/a	-1.0	n/a	columbia_card_task_fmri	n/a	n/a	-1.0	n/a	n/a	n/a	n/a	n/a	n/a	n/a	n/a	feedback	s445
172.529	0.136	n/a	-1.0	n/a	columbia_card_task_fmri	n/a	n/a	-1.0	n/a	n/a	n/a	n/a	n/a	n/a	n/a	n/a	ITI	s445
172.667	2.08	5.944351540184873	draw_card	0.0	columbia_card_task_fmri	15.0	0.875	89.0	-80.0	0.125	16.0	1.0	2.0	-2.952467451425715	2.08	n/a	stim	s445
174.749	0.88	5.152684873518207	draw_card	0.0	columbia_card_task_fmri	15.0	0.8666666666666667	89.0	-80.0	0.1333333333333333	16.0	2.0	2.0	-2.080383405410977	0.88	n/a	stim	s445
175.632	0.544	4.247922968756304	draw_card	0.0	columbia_card_task_fmri	15.0	0.8571428571428572	89.0	-80.0	0.1428571428571428	16.0	3.0	2.0	-1.1345935243548553	0.544	n/a	stim	s445
176.178	0.597	3.203966924800256	draw_card	0.0	columbia_card_task_fmri	15.0	0.8461538461538461	89.0	-80.0	0.1538461538461538	16.0	4.0	2.0	-0.1051379253186866	0.597	n/a	stim	s445
176.777	0.412	1.9860182068515408	draw_card	0.0	columbia_card_task_fmri	15.0	0.8333333333333334	89.0	-80.0	0.1666666666666666	16.0	5.0	2.0	1.0194793771197157	0.412	n/a	stim	s445
177.19	0.749	0.5466242674575978	draw_card	0.0	columbia_card_task_fmri	15.0	0.8181818181818181	89.0	-80.0	0.1818181818181818	16.0	6.0	2.0	2.2522863298737548	0.749	n/a	stim	s445
177.942	1.093	-1.180648459815127	draw_card	0.0	columbia_card_task_fmri	15.0	0.8	89.0	-80.0	0.2	16.0	7.0	2.0	3.607435925207653	1.093	n/a	stim	s445
179.037	2.984	-3.2917595709262395	end_round	0.0	columbia_card_task_fmri	15.0	0.7777777777777778	71.0	-80.0	0.2222222222222222	16.0	8.0	2.0	5.098764328518101	2.984	7.0	stim	s445
182.025	2.25	n/a	-1.0	n/a	columbia_card_task_fmri	n/a	n/a	-1.0	n/a	n/a	n/a	n/a	n/a	n/a	n/a	n/a	feedback	s445
184.275	0.068	n/a	-1.0	n/a	columbia_card_task_fmri	n/a	n/a	-1.0	n/a	n/a	n/a	n/a	n/a	n/a	n/a	n/a	ITI	s445
184.346	1.855	8.069351540184872	draw_card	0.0	columbia_card_task_fmri	16.0	0.875	89.0	-70.0	0.125	16.0	1.0	2.0	-5.915787401389071	1.855	n/a	stim	s445
186.203	0.856	7.352684873518206	draw_card	0.0	columbia_card_task_fmri	16.0	0.8666666666666667	89.0	-70.0	0.1333333333333333	16.0	2.0	2.0	-5.126996801453604	0.856	n/a	stim	s445
187.062	0.882	6.533637254470588	draw_card	1.0	columbia_card_task_fmri	16.0	0.8571428571428572	89.0	-70.0	0.1428571428571428	16.0	3.0	2.0	-4.271500232322101	0.882	3.0	stim	s445
187.949	2.25	n/a	-1.0	n/a	columbia_card_task_fmri	n/a	n/a	-1.0	n/a	n/a	n/a	n/a	n/a	n/a	n/a	n/a	feedback	s445
190.199	0.0	n/a	-1.0	n/a	columbia_card_task_fmri	n/a	n/a	-1.0	n/a	n/a	n/a	n/a	n/a	n/a	n/a	n/a	ITI	s445
190.201	2.214	9.381851540184872	draw_card	0.0	columbia_card_task_fmri	30.0	0.6875	89.0	-45.0	0.3125	16.0	1.0	5.0	0.380559987904391	2.214	n/a	stim	s445
192.416	0.901	7.8193515401848765	draw_card	0.0	columbia_card_task_fmri	30.0	0.6666666666666667	89.0	-45.0	0.3333333333333333	16.0	2.0	5.0	0.9705638581135788	0.901	n/a	stim	s445
193.319	2.778	6.033637254470585	draw_card	0.0	columbia_card_task_fmri	30.0	0.6428571428571428	89.0	-45.0	0.3571428571428571	16.0	3.0	5.0	1.5502212094523813	2.778	n/a	stim	s445
196.1	2.742	3.9731976940310254	draw_card	0.0	columbia_card_task_fmri	30.0	0.6153846153846154	89.0	-45.0	0.3846153846153846	16.0	4.0	5.0	2.0995710396310443	2.742	n/a	stim	s445
198.844	4.282	1.5693515401848694	draw_card	0.0	columbia_card_task_fmri	30.0	0.5833333333333333	89.0	-45.0	0.4166666666666667	16.0	5.0	5.0	2.585820228575791	4.282	n/a	stim	s445
203.128	4.601	-1.271557550724217	end_round	0.0	columbia_card_task_fmri	30.0	0.5454545454545454	71.0	-45.0	0.4545454545454545	16.0	6.0	5.0	2.9539832775826653	4.601	5.0	stim	s445
207.733	2.25	n/a	-1.0	n/a	columbia_card_task_fmri	n/a	n/a	-1.0	n/a	n/a	n/a	n/a	n/a	n/a	n/a	n/a	feedback	s445
209.983	0.0	n/a	-1.0	n/a	columbia_card_task_fmri	n/a	n/a	-1.0	n/a	n/a	n/a	n/a	n/a	n/a	n/a	n/a	ITI	s445
209.985	5.159	1.152684873518207	draw_card	0.0	columbia_card_task_fmri	13.0	0.8333333333333334	89.0	-75.0	0.1666666666666666	6.0	1.0	1.0	-1.5803827855266874	5.159	n/a	stim	s445
215.146	3.459	-1.7806484598151266	draw_card	0.0	columbia_card_task_fmri	13.0	0.8	89.0	-75.0	0.2	6.0	2.0	1.0	0.8157185146945878	3.459	n/a	stim	s445
218.607	3.35	-6.180648459815127	end_round	0.0	columbia_card_task_fmri	13.0	0.75	71.0	-75.0	0.25	6.0	3.0	1.0	3.712266353021633	3.35	2.0	stim	s445
221.961	2.25	n/a	-1.0	n/a	columbia_card_task_fmri	n/a	n/a	-1.0	n/a	n/a	n/a	n/a	n/a	n/a	n/a	n/a	feedback	s445
224.211	0.204	n/a	-1.0	n/a	columbia_card_task_fmri	n/a	n/a	-1.0	n/a	n/a	n/a	n/a	n/a	n/a	n/a	n/a	ITI	s445
224.417	1.926	2.8193515401848748	draw_card	0.0	columbia_card_task_fmri	14.0	0.8333333333333334	89.0	-70.0	0.1666666666666666	6.0	1.0	1.0	-3.065357332148896	1.926	n/a	stim	s445
226.345	0.803	0.019351540184874	draw_card	0.0	columbia_card_task_fmri	14.0	0.8	89.0	-70.0	0.2	6.0	2.0	1.0	-0.7789318696815215	0.803	n/a	stim	s445
227.151	1.396	-4.180648459815127	draw_card	1.0	columbia_card_task_fmri	14.0	0.75	89.0	-70.0	0.25	6.0	3.0	1.0	1.9851609452178491	1.396	3.0	stim	s445
228.551	2.25	n/a	-1.0	n/a	columbia_card_task_fmri	n/a	n/a	-1.0	n/a	n/a	n/a	n/a	n/a	n/a	n/a	n/a	feedback	s445
230.801	0.204	n/a	-1.0	n/a	columbia_card_task_fmri	n/a	n/a	-1.0	n/a	n/a	n/a	n/a	n/a	n/a	n/a	n/a	ITI	s445
231.008	2.454	2.8193515401848748	draw_card	0.0	columbia_card_task_fmri	16.0	0.8333333333333334	89.0	-80.0	0.1666666666666666	6.0	1.0	1.0	1.3909935109281122	2.454	n/a	stim	s445
233.466	0.514	-0.3806484598151263	draw_card	1.0	columbia_card_task_fmri	16.0	0.8	89.0	-80.0	0.2	6.0	2.0	1.0	4.006350890382187	0.514	2.0	stim	s445
233.984	2.25	n/a	-1.0	n/a	columbia_card_task_fmri	n/a	n/a	-1.0	n/a	n/a	n/a	n/a	n/a	n/a	n/a	n/a	feedback	s445
236.234	0.272	n/a	-1.0	n/a	columbia_card_task_fmri	n/a	n/a	-1.0	n/a	n/a	n/a	n/a	n/a	n/a	n/a	n/a	ITI	s445
236.509	1.717	5.319351540184875	draw_card	1.0	columbia_card_task_fmri	17.0	0.8333333333333334	89.0	-70.0	0.1666666666666666	6.0	1.0	1.0	-1.9516756020586852	1.717	1.0	stim	s445
238.229	2.25	n/a	-1.0	n/a	columbia_card_task_fmri	n/a	n/a	-1.0	n/a	n/a	n/a	n/a	n/a	n/a	n/a	n/a	feedback	s445
240.479	0.136	n/a	-1.0	n/a	columbia_card_task_fmri	n/a	n/a	-1.0	n/a	n/a	n/a	n/a	n/a	n/a	n/a	n/a	ITI	s445
240.62	1.15	5.319351540184873	draw_card	0.0	columbia_card_task_fmri	25.0	0.75	89.0	-65.0	0.25	8.0	1.0	2.0	4.575983239507004	1.15	n/a	stim	s445
241.773	0.942	2.105065825899161	draw_card	0.0	columbia_card_task_fmri	25.0	0.7142857142857143	89.0	-65.0	0.2857142857142857	8.0	2.0	2.0	6.2584807670621885	0.942	n/a	stim	s445
242.718	3.097	-2.1806484598151235	draw_card	0.0	columbia_card_task_fmri	25.0	0.6666666666666667	89.0	-65.0	0.3333333333333333	8.0	3.0	2.0	8.022971253228178	3.097	n/a	stim	s445
245.816	5.01	-8.180648459815128	end_round	0.0	columbia_card_task_fmri	25.0	0.6	71.0	-65.0	0.4	8.0	4.0	2.0	9.68385472923267	5.01	3.0	stim	s445
250.831	2.25	n/a	-1.0	n/a	columbia_card_task_fmri	n/a	n/a	-1.0	n/a	n/a	n/a	n/a	n/a	n/a	n/a	n/a	feedback	s445
253.081	0.204	n/a	-1.0	n/a	columbia_card_task_fmri	n/a	n/a	-1.0	n/a	n/a	n/a	n/a	n/a	n/a	n/a	n/a	ITI	s445
253.287	1.277	5.319351540184873	draw_card	0.0	columbia_card_task_fmri	30.0	0.75	89.0	-80.0	0.25	8.0	1.0	2.0	13.217755151168523	1.277	n/a	stim	s445
254.567	0.721	1.3907801116134495	draw_card	0.0	columbia_card_task_fmri	30.0	0.7142857142857143	89.0	-80.0	0.2857142857142857	8.0	2.0	2.0	15.27583974327368	0.721	n/a	stim	s445
255.29	0.596	-3.847315126481788	draw_card	1.0	columbia_card_task_fmri	30.0	0.6666666666666667	89.0	-80.0	0.3333333333333333	8.0	3.0	2.0	17.434076148223845	0.596	3.0	stim	s445
255.89	2.25	n/a	-1.0	n/a	columbia_card_task_fmri	n/a	n/a	-1.0	n/a	n/a	n/a	n/a	n/a	n/a	n/a	n/a	feedback	s445
258.14	0.272	n/a	-1.0	n/a	columbia_card_task_fmri	n/a	n/a	-1.0	n/a	n/a	n/a	n/a	n/a	n/a	n/a	n/a	ITI	s445
258.414	1.853	5.019351540184874	draw_card	1.0	columbia_card_task_fmri	13.0	0.9	89.0	-95.0	0.1	10.0	1.0	1.0	-1.9745748045833975	1.853	1.0	stim	s445
260.271	2.25	n/a	-1.0	n/a	columbia_card_task_fmri	n/a	n/a	-1.0	n/a	n/a	n/a	n/a	n/a	n/a	n/a	n/a	feedback	s445
262.521	0.272	n/a	-1.0	n/a	columbia_card_task_fmri	n/a	n/a	-1.0	n/a	n/a	n/a	n/a	n/a	n/a	n/a	n/a	ITI	s445
262.795	3.516	6.419351540184873	draw_card	0.0	columbia_card_task_fmri	14.0	0.9	89.0	-90.0	0.1	10.0	1.0	1.0	-3.169884544919139	3.516	n/a	stim	s445
266.314	0.432	5.263795984629316	draw_card	0.0	columbia_card_task_fmri	14.0	0.8888888888888888	89.0	-90.0	0.1111111111111111	10.0	2.0	1.0	-1.6915881152353265	0.432	n/a	stim	s445
266.749	0.33	3.819351540184873	draw_card	0.0	columbia_card_task_fmri	14.0	0.875	89.0	-90.0	0.125	10.0	3.0	1.0	0.0131159628187234	0.33	n/a	stim	s445
267.082	0.341	1.962208683042017	draw_card	0.0	columbia_card_task_fmri	14.0	0.8571428571428572	89.0	-90.0	0.1428571428571428	10.0	4.0	1.0	2.00445517839853	0.341	n/a	stim	s445
267.425	0.369	-0.5139817931484592	draw_card	0.0	columbia_card_task_fmri	14.0	0.8333333333333334	89.0	-90.0	0.1666666666666666	10.0	5.0	1.0	4.363908962425711	0.369	n/a	stim	s445
267.797	1.028	-3.980648459815126	draw_card	0.0	columbia_card_task_fmri	14.0	0.8	89.0	-90.0	0.2	10.0	6.0	1.0	7.198419060744968	1.028	n/a	stim	s445
268.828	1.338	-9.180648459815128	draw_card	0.0	columbia_card_task_fmri	14.0	0.75	89.0	-90.0	0.25	10.0	7.0	1.0	10.624479443602006	1.338	n/a	stim	s445
270.168	2.57	-17.847315126481792	end_round	0.0	columbia_card_task_fmri	14.0	0.6666666666666667	71.0	-90.0	0.3333333333333333	10.0	8.0	1.0	14.610060479094557	2.57	7.0	stim	s445
272.742	2.25	n/a	-1.0	n/a	columbia_card_task_fmri	n/a	n/a	-1.0	n/a	n/a	n/a	n/a	n/a	n/a	n/a	n/a	feedback	s445
274.992	0.34	n/a	-1.0	n/a	columbia_card_task_fmri	n/a	n/a	-1.0	n/a	n/a	n/a	n/a	n/a	n/a	n/a	n/a	ITI	s445
275.335	1.586	1.6193515401848737	draw_card	0.0	columbia_card_task_fmri	16.0	0.8	89.0	-70.0	0.2	10.0	1.0	2.0	0.0183314292442133	1.586	n/a	stim	s445
276.924	0.683	-0.2917595709262377	draw_card	0.0	columbia_card_task_fmri	16.0	0.7777777777777778	89.0	-70.0	0.2222222222222222	10.0	2.0	2.0	1.3675934917468735	0.683	n/a	stim	s445
277.611	0.605	-2.680648459815127	draw_card	0.0	columbia_card_task_fmri	16.0	0.75	89.0	-70.0	0.25	10.0	3.0	2.0	2.8486563904763287	0.605	n/a	stim	s445
278.218	0.436	-5.752077031243698	draw_card	1.0	columbia_card_task_fmri	16.0	0.7142857142857143	89.0	-70.0	0.2857142857142857	10.0	4.0	2.0	4.455994449204638	0.436	4.0	stim	s445
278.659	2.25	n/a	-1.0	n/a	columbia_card_task_fmri	n/a	n/a	-1.0	n/a	n/a	n/a	n/a	n/a	n/a	n/a	n/a	feedback	s445
280.909	0.204	n/a	-1.0	n/a	columbia_card_task_fmri	n/a	n/a	-1.0	n/a	n/a	n/a	n/a	n/a	n/a	n/a	n/a	ITI	s445
281.115	2.623	0.9026848735182068	end_round	0.0	columbia_card_task_fmri	7.0	0.9166666666666666	71.0	-100.0	0.0833333333333333	12.0	1.0	1.0	-4.789684711783046	2.623	0.0	stim	s445
283.743	2.25	n/a	-1.0	n/a	columbia_card_task_fmri	n/a	n/a	-1.0	n/a	n/a	n/a	n/a	n/a	n/a	n/a	n/a	feedback	s445
285.993	0.068	n/a	-1.0	n/a	columbia_card_task_fmri	n/a	n/a	-1.0	n/a	n/a	n/a	n/a	n/a	n/a	n/a	n/a	ITI	s445
286.063	1.331	1.1526848735182087	draw_card	0.0	columbia_card_task_fmri	14.0	0.8333333333333334	89.0	-80.0	0.1666666666666666	12.0	1.0	2.0	0.6479898880002963	1.331	n/a	stim	s445
287.398	0.805	-0.2715575507242205	draw_card	0.0	columbia_card_task_fmri	14.0	0.8181818181818181	89.0	-80.0	0.1818181818181818	12.0	2.0	2.0	1.8677404830539717	0.805	n/a	stim	s445
288.206	0.341	-1.980648459815126	draw_card	0.0	columbia_card_task_fmri	14.0	0.8	89.0	-80.0	0.2	12.0	3.0	2.0	3.20854395003726	0.341	n/a	stim	s445
288.55	0.339	-4.069537348704016	draw_card	0.0	columbia_card_task_fmri	14.0	0.7777777777777778	89.0	-80.0	0.2222222222222222	12.0	4.0	2.0	4.684091023288048	0.339	n/a	stim	s445
288.892	0.642	-6.680648459815127	draw_card	1.0	columbia_card_task_fmri	14.0	0.75	89.0	-80.0	0.25	12.0	5.0	2.0	6.303710621588998	0.642	5.0	stim	s445
289.539	2.25	n/a	-1.0	n/a	columbia_card_task_fmri	n/a	n/a	-1.0	n/a	n/a	n/a	n/a	n/a	n/a	n/a	n/a	feedback	s445
291.789	0.0	n/a	-1.0	n/a	columbia_card_task_fmri	n/a	n/a	-1.0	n/a	n/a	n/a	n/a	n/a	n/a	n/a	n/a	ITI	s445
291.792	2.22	2.819351540184873	draw_card	0.0	columbia_card_task_fmri	15.0	0.8333333333333334	89.0	-75.0	0.1666666666666666	12.0	1.0	2.0	-0.8377053025520951	2.22	n/a	stim	s445
294.016	0.23	1.455715176548508	draw_card	0.0	columbia_card_task_fmri	15.0	0.8181818181818181	89.0	-75.0	0.1818181818181818	12.0	2.0	2.0	0.3298111601679778	0.23	n/a	stim	s445
294.248	0.357	-0.180648459815127	draw_card	0.0	columbia_card_task_fmri	15.0	0.8	89.0	-75.0	0.2	12.0	3.0	2.0	1.6132211862983894	0.357	n/a	stim	s445
294.609	0.334	-2.180648459815125	draw_card	0.0	columbia_card_task_fmri	15.0	0.7777777777777778	89.0	-75.0	0.2222222222222222	12.0	4.0	2.0	3.0256338089001105	0.334	n/a	stim	s445
294.946	0.346	-4.680648459815127	draw_card	0.0	columbia_card_task_fmri	15.0	0.75	89.0	-75.0	0.25	12.0	5.0	2.0	4.575983239507004	0.346	n/a	stim	s445
295.296	1.631	-7.894934174100839	draw_card	0.0	columbia_card_task_fmri	15.0	0.7142857142857143	89.0	-75.0	0.2857142857142857	12.0	6.0	2.0	6.2584807670621885	1.631	n/a	stim	s445
296.93	2.13	-12.180648459815124	draw_card	0.0	columbia_card_task_fmri	15.0	0.6666666666666667	89.0	-75.0	0.3333333333333333	12.0	7.0	2.0	8.022971253228178	2.13	n/a	stim	s445
299.062	3.739	-18.180648459815128	draw_card	0.0	columbia_card_task_fmri	15.0	0.6	89.0	-75.0	0.4	12.0	8.0	2.0	9.68385472923267	3.739	n/a	stim	s445
302.803	2.256	-27.180648459815128	end_round	0.0	columbia_card_task_fmri	15.0	0.5	71.0	-75.0	0.5	12.0	9.0	2.0	10.591223604345975	2.256	8.0	stim	s445
305.064	2.25	n/a	-1.0	n/a	columbia_card_task_fmri	n/a	n/a	-1.0	n/a	n/a	n/a	n/a	n/a	n/a	n/a	n/a	feedback	s445
307.314	0.408	n/a	-1.0	n/a	columbia_card_task_fmri	n/a	n/a	-1.0	n/a	n/a	n/a	n/a	n/a	n/a	n/a	n/a	ITI	s445
307.725	1.723	1.819351540184873	draw_card	1.0	columbia_card_task_fmri	15.0	0.8	89.0	-65.0	0.2	15.0	1.0	3.0	-2.37305024325795	1.723	1.0	stim	s445
309.452	2.25	n/a	-1.0	n/a	columbia_card_task_fmri	n/a	n/a	-1.0	n/a	n/a	n/a	n/a	n/a	n/a	n/a	n/a	feedback	s445
311.702	0.204	n/a	-1.0	n/a	columbia_card_task_fmri	n/a	n/a	-1.0	n/a	n/a	n/a	n/a	n/a	n/a	n/a	n/a	ITI	s445
311.91	0.901	1.069351540184873	draw_card	1.0	columbia_card_task_fmri	14.0	0.8125	89.0	-70.0	0.1875	16.0	1.0	3.0	-1.589772321835483	0.901	1.0	stim	s445
312.816	2.25	n/a	-1.0	n/a	columbia_card_task_fmri	n/a	n/a	-1.0	n/a	n/a	n/a	n/a	n/a	n/a	n/a	n/a	feedback	s445
315.066	0.136	n/a	-1.0	n/a	columbia_card_task_fmri	n/a	n/a	-1.0	n/a	n/a	n/a	n/a	n/a	n/a	n/a	n/a	ITI	s445
315.204	0.554	1.006851540184873	draw_card	0.0	columbia_card_task_fmri	11.0	0.6875	89.0	-30.0	0.3125	16.0	1.0	5.0	-15.285005545164973	0.554	n/a	stim	s445
315.762	0.453	0.1526848735182069	draw_card	0.0	columbia_card_task_fmri	11.0	0.6666666666666667	89.0	-30.0	0.3333333333333333	16.0	2.0	5.0	-14.964874237365656	0.453	n/a	stim	s445
316.218	0.42	-0.8235056026722711	draw_card	0.0	columbia_card_task_fmri	11.0	0.6428571428571428	89.0	-30.0	0.3571428571428571	16.0	3.0	5.0	-14.650281052661974	0.42	n/a	stim	s445
316.641	0.338	-1.9498792290458955	draw_card	1.0	columbia_card_task_fmri	11.0	0.6153846153846154	89.0	-30.0	0.3846153846153846	16.0	4.0	5.0	-14.35207030580366	0.338	4.0	stim	s445
316.983	2.25	n/a	-1.0	n/a	columbia_card_task_fmri	n/a	n/a	-1.0	n/a	n/a	n/a	n/a	n/a	n/a	n/a	n/a	feedback	s445
319.233	0.34	n/a	-1.0	n/a	columbia_card_task_fmri	n/a	n/a	-1.0	n/a	n/a	n/a	n/a	n/a	n/a	n/a	n/a	ITI	s445
319.577	1.287	5.819351540184873	draw_card	0.0	columbia_card_task_fmri	15.0	0.8666666666666667	89.0	-75.0	0.1333333333333333	15.0	1.0	2.0	-3.773260417810423	1.287	n/a	stim	s445
320.867	0.368	4.962208683042017	draw_card	0.0	columbia_card_task_fmri	15.0	0.8571428571428572	89.0	-75.0	0.1428571428571428	15.0	2.0	2.0	-2.877624737111077	0.368	n/a	stim	s445
321.239	0.344	3.9731976940310254	draw_card	0.0	columbia_card_task_fmri	15.0	0.8461538461538461	89.0	-75.0	0.1538461538461538	15.0	3.0	2.0	-1.902736561734251	0.344	n/a	stim	s445
321.586	0.4	2.819351540184873	draw_card	0.0	columbia_card_task_fmri	15.0	0.8333333333333334	89.0	-75.0	0.1666666666666666	15.0	4.0	2.0	-0.8377053025520951	0.4	n/a	stim	s445
321.99	0.323	1.455715176548508	draw_card	0.0	columbia_card_task_fmri	15.0	0.8181818181818181	89.0	-75.0	0.1818181818181818	15.0	5.0	2.0	0.3298111601679778	0.323	n/a	stim	s445
322.316	0.594	-0.180648459815127	draw_card	1.0	columbia_card_task_fmri	15.0	0.8	89.0	-75.0	0.2	15.0	6.0	2.0	1.6132211862983894	0.594	6.0	stim	s445
322.915	2.25	n/a	-1.0	n/a	columbia_card_task_fmri	n/a	n/a	-1.0	n/a	n/a	n/a	n/a	n/a	n/a	n/a	n/a	feedback	s445
325.165	0.068	n/a	-1.0	n/a	columbia_card_task_fmri	n/a	n/a	-1.0	n/a	n/a	n/a	n/a	n/a	n/a	n/a	n/a	ITI	s445
325.237	1.813	7.552684873518207	draw_card	0.0	columbia_card_task_fmri	17.0	0.8666666666666667	89.0	-75.0	0.1333333333333333	15.0	1.0	2.0	-3.0961977237355534	1.813	n/a	stim	s445
327.054	0.186	6.676494397327732	draw_card	0.0	columbia_card_task_fmri	17.0	0.8571428571428572	89.0	-75.0	0.1428571428571428	15.0	2.0	2.0	-2.1804979047586457	0.186	n/a	stim	s445
327.244	0.361	5.66550538633872	draw_card	0.0	columbia_card_task_fmri	17.0	0.8461538461538461	89.0	-75.0	0.1538461538461538	15.0	3.0	2.0	-1.183780234444704	0.361	n/a	stim	s445
327.608	0.492	4.486018206851541	draw_card	0.0	columbia_card_task_fmri	17.0	0.8333333333333334	89.0	-75.0	0.1666666666666666	15.0	4.0	2.0	-0.0949119627297463	0.492	n/a	stim	s445
328.104	0.363	3.0920788129121446	draw_card	0.0	columbia_card_task_fmri	17.0	0.8181818181818181	89.0	-75.0	0.1818181818181818	15.0	5.0	2.0	1.0987233621061565	0.363	n/a	stim	s445
328.471	1.403	1.4193515401848744	draw_card	0.0	columbia_card_task_fmri	17.0	0.8	89.0	-75.0	0.2	15.0	6.0	2.0	2.410831951318009	1.403	n/a	stim	s445
329.878	1.857	-0.6250929042595681	end_round	0.0	columbia_card_task_fmri	17.0	0.7777777777777778	71.0	-75.0	0.2222222222222222	15.0	7.0	2.0	3.854813683869111	1.857	6.0	stim	s445
331.739	2.25	n/a	-1.0	n/a	columbia_card_task_fmri	n/a	n/a	-1.0	n/a	n/a	n/a	n/a	n/a	n/a	n/a	n/a	feedback	s445
333.989	0.34	n/a	-1.0	n/a	columbia_card_task_fmri	n/a	n/a	-1.0	n/a	n/a	n/a	n/a	n/a	n/a	n/a	n/a	ITI	s445
334.332	5.296	3.131851540184873	draw_card	0.0	columbia_card_task_fmri	2.0	0.9375	89.0	-25.0	0.0625	16.0	1.0	1.0	-27.37917343628848	5.296	n/a	stim	s445
339.632	0.378	3.019351540184873	draw_card	0.0	columbia_card_task_fmri	2.0	0.9333333333333332	89.0	-25.0	0.0666666666666666	16.0	2.0	1.0	-27.195725601479303	0.378	n/a	stim	s445
340.013	0.322	2.8907801116134446	draw_card	0.0	columbia_card_task_fmri	2.0	0.9285714285714286	89.0	-25.0	0.0714285714285714	16.0	3.0	1.0	-26.99362443198649	0.322	n/a	stim	s445
340.338	0.447	2.7424284632617963	draw_card	0.0	columbia_card_task_fmri	2.0	0.9230769230769232	89.0	-25.0	0.0769230769230769	16.0	4.0	1.0	-26.76965158295249	0.447	n/a	stim	s445
340.788	0.371	2.569351540184873	draw_card	0.0	columbia_card_task_fmri	2.0	0.9166666666666666	89.0	-25.0	0.0833333333333333	16.0	5.0	1.0	-26.51977646547665	0.371	n/a	stim	s445
341.163	1.34	2.364806085639418	draw_card	0.0	columbia_card_task_fmri	2.0	0.9090909090909092	89.0	-25.0	0.0909090909090909	16.0	6.0	1.0	-26.23888132804189	1.34	n/a	stim	s445
342.505	1.036	2.119351540184873	draw_card	1.0	columbia_card_task_fmri	2.0	0.9	89.0	-25.0	0.1	16.0	7.0	1.0	-25.920369880013936	1.036	7.0	stim	s445
343.547	2.25	n/a	-1.0	n/a	columbia_card_task_fmri	n/a	n/a	-1.0	n/a	n/a	n/a	n/a	n/a	n/a	n/a	n/a	feedback	s445
345.797	0.136	n/a	-1.0	n/a	columbia_card_task_fmri	n/a	n/a	-1.0	n/a	n/a	n/a	n/a	n/a	n/a	n/a	n/a	ITI	s445
345.937	3.585	5.319351540184873	end_round	0.0	columbia_card_task_fmri	9.0	0.9375	71.0	-95.0	0.0625	16.0	1.0	1.0	-9.165235872588898	3.585	0.0	stim	s445
349.526	2.25	n/a	-1.0	n/a	columbia_card_task_fmri	n/a	n/a	-1.0	n/a	n/a	n/a	n/a	n/a	n/a	n/a	n/a	feedback	s445
351.776	0.068	n/a	-1.0	n/a	columbia_card_task_fmri	n/a	n/a	-1.0	n/a	n/a	n/a	n/a	n/a	n/a	n/a	n/a	ITI	s445
351.848	1.685	6.881851540184873	draw_card	0.0	columbia_card_task_fmri	11.0	0.9375	89.0	-100.0	0.0625	16.0	1.0	1.0	-7.480674632764281	1.685	n/a	stim	s445
353.536	0.47	6.4193515401848735	draw_card	0.0	columbia_card_task_fmri	11.0	0.9333333333333332	89.0	-100.0	0.0666666666666666	16.0	2.0	1.0	-6.665574820938897	0.47	n/a	stim	s445
354.009	0.246	5.890780111613446	draw_card	0.0	columbia_card_task_fmri	11.0	0.9285714285714286	89.0	-100.0	0.0714285714285714	16.0	3.0	1.0	-5.7714470095632	0.246	n/a	stim	s445
354.258	0.264	5.280890001723336	draw_card	0.0	columbia_card_task_fmri	11.0	0.9230769230769232	89.0	-100.0	0.0769230769230769	16.0	4.0	1.0	-4.784845955224988	0.264	n/a	stim	s445
354.526	0.454	4.569351540184873	draw_card	0.0	columbia_card_task_fmri	11.0	0.9166666666666666	89.0	-100.0	0.0833333333333333	16.0	5.0	1.0	-3.688954421736902	0.454	n/a	stim	s445
354.984	0.33	3.728442449275781	draw_card	0.0	columbia_card_task_fmri	11.0	0.9090909090909092	89.0	-100.0	0.0909090909090909	16.0	6.0	1.0	-2.462446585916389	0.33	n/a	stim	s445
355.318	0.285	2.7193515401848734	draw_card	0.0	columbia_card_task_fmri	11.0	0.9	89.0	-100.0	0.1	16.0	7.0	1.0	-1.0778718848170925	0.285	n/a	stim	s445
355.607	0.363	1.486018206851539	draw_card	0.0	columbia_card_task_fmri	11.0	0.8888888888888888	89.0	-100.0	0.1111111111111111	16.0	8.0	1.0	0.5006711171409322	0.363	n/a	stim	s445
355.974	0.269	-0.055648459815127	draw_card	0.0	columbia_card_task_fmri	11.0	0.875	89.0	-100.0	0.125	16.0	9.0	1.0	2.320895594573372	0.269	n/a	stim	s445
356.247	0.343	-2.037791316957983	draw_card	0.0	columbia_card_task_fmri	11.0	0.8571428571428572	89.0	-100.0	0.1428571428571428	16.0	10.0	1.0	4.447086831941135	0.343	n/a	stim	s445
356.593	1.16	-4.680648459815124	draw_card	0.0	columbia_card_task_fmri	11.0	0.8333333333333334	89.0	-100.0	0.1666666666666666	16.0	11.0	1.0	6.966212308660239	1.16	n/a	stim	s445
357.757	3.545	-8.380648459815127	end_round	0.0	columbia_card_task_fmri	11.0	0.8	71.0	-100.0	0.2	16.0	12.0	1.0	9.992413559735212	3.545	11.0	stim	s445
361.307	2.25	n/a	-1.0	n/a	columbia_card_task_fmri	n/a	n/a	-1.0	n/a	n/a	n/a	n/a	n/a	n/a	n/a	n/a	feedback	s445
363.557	0.068	n/a	-1.0	n/a	columbia_card_task_fmri	n/a	n/a	-1.0	n/a	n/a	n/a	n/a	n/a	n/a	n/a	n/a	ITI	s445
363.628	1.664	7.444351540184873	draw_card	0.0	columbia_card_task_fmri	16.0	0.875	89.0	-75.0	0.125	16.0	1.0	2.0	-4.269817562440611	1.664	n/a	stim	s445
365.295	0.938	6.68601820685154	draw_card	1.0	columbia_card_task_fmri	16.0	0.8666666666666667	89.0	-75.0	0.1333333333333333	16.0	2.0	2.0	-3.434744396158912	0.938	2.0	stim	s445
366.239	2.25	n/a	-1.0	n/a	columbia_card_task_fmri	n/a	n/a	-1.0	n/a	n/a	n/a	n/a	n/a	n/a	n/a	n/a	feedback	s445
368.489	0.068	n/a	-1.0	n/a	columbia_card_task_fmri	n/a	n/a	-1.0	n/a	n/a	n/a	n/a	n/a	n/a	n/a	n/a	ITI	s445
368.561	1.384	7.694351540184873	draw_card	0.0	columbia_card_task_fmri	17.0	0.875	89.0	-80.0	0.125	16.0	1.0	2.0	-2.293622514056125	1.384	n/a	stim	s445
369.949	1.051	6.886018206851541	draw_card	0.0	columbia_card_task_fmri	17.0	0.8666666666666667	89.0	-80.0	0.1333333333333333	16.0	2.0	2.0	-1.4030375260788546	1.051	n/a	stim	s445
371.004	0.399	5.962208683042019	draw_card	0.0	columbia_card_task_fmri	17.0	0.8571428571428572	89.0	-80.0	0.1428571428571428	16.0	3.0	2.0	-0.4371914114413542	0.399	n/a	stim	s445
371.407	0.481	4.89627461710795	draw_card	0.0	columbia_card_task_fmri	17.0	0.8461538461538461	89.0	-80.0	0.1538461538461538	16.0	4.0	2.0	0.6140855616844831	0.481	n/a	stim	s445
371.891	0.381	3.6526848735182087	draw_card	0.0	columbia_card_task_fmri	17.0	0.8333333333333334	89.0	-80.0	0.1666666666666666	16.0	5.0	2.0	1.7625315318993344	0.381	n/a	stim	s445
372.276	0.368	2.1829879038212345	draw_card	0.0	columbia_card_task_fmri	17.0	0.8181818181818181	89.0	-80.0	0.1818181818181818	16.0	6.0	2.0	3.02144877453717	0.368	n/a	stim	s445
372.648	0.371	0.4193515401848744	draw_card	0.0	columbia_card_task_fmri	17.0	0.8	89.0	-80.0	0.2	16.0	7.0	2.0	4.405288138323172	0.371	n/a	stim	s445
373.023	0.391	-1.7362040153706824	draw_card	0.0	columbia_card_task_fmri	17.0	0.7777777777777778	89.0	-80.0	0.2222222222222222	16.0	8.0	2.0	5.928176657178547	0.391	n/a	stim	s445
373.417	0.429	-4.430648459815127	draw_card	0.0	columbia_card_task_fmri	17.0	0.75	89.0	-80.0	0.25	16.0	9.0	2.0	7.599739341856534	0.429	n/a	stim	s445
373.85	0.359	-7.894934174100839	draw_card	0.0	columbia_card_task_fmri	17.0	0.7142857142857143	89.0	-80.0	0.2857142857142857	16.0	10.0	2.0	9.413727746675178	0.359	n/a	stim	s445
374.213	0.663	-12.513981793148456	draw_card	0.0	columbia_card_task_fmri	17.0	0.6666666666666667	89.0	-80.0	0.3333333333333333	16.0	11.0	2.0	11.316063456353724	0.663	n/a	stim	s445
374.88	0.664	-18.98064845981513	draw_card	0.0	columbia_card_task_fmri	17.0	0.6	89.0	-80.0	0.4	16.0	12.0	2.0	13.106653863902544	0.664	n/a	stim	s445
375.549	2.832	-28.680648459815128	end_round	0.0	columbia_card_task_fmri	17.0	0.5	71.0	-80.0	0.5	16.0	13.0	2.0	14.084867430881085	2.832	12.0	stim	s445
378.386	2.25	n/a	-1.0	n/a	columbia_card_task_fmri	n/a	n/a	-1.0	n/a	n/a	n/a	n/a	n/a	n/a	n/a	n/a	feedback	s445
380.636	0.136	n/a	-1.0	n/a	columbia_card_task_fmri	n/a	n/a	-1.0	n/a	n/a	n/a	n/a	n/a	n/a	n/a	n/a	ITI	s445
391.78	4.033	1.9860182068515408	draw_card	0.0	columbia_card_task_fmri	13.0	0.8333333333333334	89.0	-70.0	0.1666666666666666	6.0	1.0	1.0	-3.4365150837730667	4.033	n/a	stim	s445
395.817	0.645	-0.7806484598151266	draw_card	0.0	columbia_card_task_fmri	13.0	0.8	89.0	-70.0	0.2	6.0	2.0	1.0	-1.1775143223218336	0.645	n/a	stim	s445
396.465	2.023	-4.930648459815127	draw_card	0.0	columbia_card_task_fmri	13.0	0.75	89.0	-70.0	0.25	6.0	3.0	1.0	1.5534587381431493	2.023	n/a	stim	s445
398.491	3.154	-11.847315126481792	end_round	0.0	columbia_card_task_fmri	13.0	0.6666666666666667	71.0	-70.0	0.3333333333333333	6.0	4.0	1.0	4.731011742269089	3.154	3.0	stim	s445
401.651	2.25	n/a	-1.0	n/a	columbia_card_task_fmri	n/a	n/a	-1.0	n/a	n/a	n/a	n/a	n/a	n/a	n/a	n/a	feedback	s445
403.901	0.0	n/a	-1.0	n/a	columbia_card_task_fmri	n/a	n/a	-1.0	n/a	n/a	n/a	n/a	n/a	n/a	n/a	n/a	ITI	s445
403.906	1.274	1.9860182068515408	draw_card	0.0	columbia_card_task_fmri	15.0	0.8333333333333334	89.0	-80.0	0.1666666666666666	6.0	1.0	1.0	1.0194793771197157	1.274	n/a	stim	s445
405.183	0.673	-1.180648459815127	draw_card	0.0	columbia_card_task_fmri	15.0	0.8	89.0	-80.0	0.2	6.0	2.0	1.0	3.607435925207653	0.673	n/a	stim	s445
405.86	0.382	-5.930648459815127	draw_card	0.0	columbia_card_task_fmri	15.0	0.75	89.0	-80.0	0.25	6.0	3.0	1.0	6.73569915035344	0.382	n/a	stim	s445
406.245	1.174	-13.847315126481792	draw_card	0.0	columbia_card_task_fmri	15.0	0.6666666666666667	89.0	-80.0	0.3333333333333333	6.0	4.0	1.0	10.375078928386948	1.174	n/a	stim	s445
407.423	0.863	-29.680648459815128	end_round	0.0	columbia_card_task_fmri	15.0	0.5	71.0	-80.0	0.5	6.0	5.0	1.0	13.086588153542856	0.863	4.0	stim	s445
408.292	2.25	n/a	-1.0	n/a	columbia_card_task_fmri	n/a	n/a	-1.0	n/a	n/a	n/a	n/a	n/a	n/a	n/a	n/a	feedback	s445
410.542	0.136	n/a	-1.0	n/a	columbia_card_task_fmri	n/a	n/a	-1.0	n/a	n/a	n/a	n/a	n/a	n/a	n/a	n/a	ITI	s445
410.682	1.179	3.652684873518207	draw_card	0.0	columbia_card_task_fmri	16.0	0.8333333333333334	89.0	-75.0	0.1666666666666666	6.0	1.0	1.0	-0.466322640619687	1.179	n/a	stim	s445
411.866	0.367	0.6193515401848737	draw_card	1.0	columbia_card_task_fmri	16.0	0.8	89.0	-75.0	0.2	6.0	2.0	1.0	2.012013499892113	0.367	2.0	stim	s445
412.238	2.25	n/a	-1.0	n/a	columbia_card_task_fmri	n/a	n/a	-1.0	n/a	n/a	n/a	n/a	n/a	n/a	n/a	n/a	feedback	s445
414.488	0.34	n/a	-1.0	n/a	columbia_card_task_fmri	n/a	n/a	-1.0	n/a	n/a	n/a	n/a	n/a	n/a	n/a	n/a	ITI	s445
414.833	1.886	4.819351540184873	draw_card	0.0	columbia_card_task_fmri	21.0	0.75	89.0	-55.0	0.25	8.0	1.0	2.0	-1.467496049785311	1.886	n/a	stim	s445
416.724	0.522	2.1050658258991595	draw_card	1.0	columbia_card_task_fmri	21.0	0.7142857142857143	89.0	-55.0	0.2857142857142857	8.0	2.0	2.0	-0.0481449376585771	0.522	2.0	stim	s445
417.252	2.25	n/a	-1.0	n/a	columbia_card_task_fmri	n/a	n/a	-1.0	n/a	n/a	n/a	n/a	n/a	n/a	n/a	n/a	feedback	s445
419.502	0.408	n/a	-1.0	n/a	columbia_card_task_fmri	n/a	n/a	-1.0	n/a	n/a	n/a	n/a	n/a	n/a	n/a	n/a	ITI	s445
419.915	1.09	6.069351540184873	draw_card	0.0	columbia_card_task_fmri	26.0	0.75	89.0	-65.0	0.25	8.0	1.0	2.0	5.007879587633418	1.09	n/a	stim	s445
421.009	0.396	2.8193515401848765	draw_card	1.0	columbia_card_task_fmri	26.0	0.7142857142857143	89.0	-65.0	0.2857142857142857	8.0	2.0	2.0	6.709164341214112	0.396	2.0	stim	s445
421.411	2.25	n/a	-1.0	n/a	columbia_card_task_fmri	n/a	n/a	-1.0	n/a	n/a	n/a	n/a	n/a	n/a	n/a	n/a	feedback	s445
423.661	0.136	n/a	-1.0	n/a	columbia_card_task_fmri	n/a	n/a	-1.0	n/a	n/a	n/a	n/a	n/a	n/a	n/a	n/a	ITI	s445
423.801	1.119	1.152684873518207	draw_card	0.0	columbia_card_task_fmri	15.0	0.7777777777777778	89.0	-60.0	0.2222222222222222	9.0	1.0	2.0	-3.1893270536058047	1.119	n/a	stim	s445
424.924	0.441	-0.930648459815127	draw_card	1.0	columbia_card_task_fmri	15.0	0.75	89.0	-60.0	0.25	9.0	2.0	2.0	-1.8989074301939648	0.441	2.0	stim	s445
425.37	2.25	n/a	-1.0	n/a	columbia_card_task_fmri	n/a	n/a	-1.0	n/a	n/a	n/a	n/a	n/a	n/a	n/a	n/a	feedback	s445
427.62	0.136	n/a	-1.0	n/a	columbia_card_task_fmri	n/a	n/a	-1.0	n/a	n/a	n/a	n/a	n/a	n/a	n/a	n/a	ITI	s445
427.76	2.0	5.519351540184874	draw_card	1.0	columbia_card_task_fmri	13.0	0.9	89.0	-90.0	0.1	10.0	1.0	1.0	-3.4686554055643803	2.0	1.0	stim	s445
429.767	2.25	n/a	-1.0	n/a	columbia_card_task_fmri	n/a	n/a	-1.0	n/a	n/a	n/a	n/a	n/a	n/a	n/a	n/a	feedback	s445
432.017	0.0	n/a	-1.0	n/a	columbia_card_task_fmri	n/a	n/a	-1.0	n/a	n/a	n/a	n/a	n/a	n/a	n/a	n/a	ITI	s445
432.022	1.049	6.819351540184873	draw_card	0.0	columbia_card_task_fmri	15.0	0.9	89.0	-95.0	0.1	10.0	1.0	1.0	-1.376792731372234	1.049	n/a	stim	s445
433.075	2.174	5.59712931796265	draw_card	0.0	columbia_card_task_fmri	15.0	0.8888888888888888	89.0	-95.0	0.1111111111111111	10.0	2.0	1.0	0.1874320831817755	2.174	n/a	stim	s445
435.253	1.494	4.069351540184873	draw_card	0.0	columbia_card_task_fmri	15.0	0.875	89.0	-95.0	0.125	10.0	3.0	1.0	1.9911565322462292	1.494	n/a	stim	s445
436.752	1.015	2.1050658258991595	draw_card	1.0	columbia_card_task_fmri	15.0	0.8571428571428572	89.0	-95.0	0.1428571428571428	10.0	4.0	1.0	4.098086230628056	1.015	4.0	stim	s445
437.773	2.25	n/a	-1.0	n/a	columbia_card_task_fmri	n/a	n/a	-1.0	n/a	n/a	n/a	n/a	n/a	n/a	n/a	n/a	feedback	s445
440.023	0.068	n/a	-1.0	n/a	columbia_card_task_fmri	n/a	n/a	-1.0	n/a	n/a	n/a	n/a	n/a	n/a	n/a	n/a	ITI	s445
440.096	6.229	2.6193515401848737	draw_card	0.0	columbia_card_task_fmri	16.0	0.8	89.0	-65.0	0.2	10.0	1.0	2.0	-1.9745748045833904	6.229	n/a	stim	s445
446.33	1.518	0.8193515401848748	draw_card	0.0	columbia_card_task_fmri	16.0	0.7777777777777778	89.0	-65.0	0.2222222222222222	10.0	2.0	2.0	-0.7042771582736549	1.518	n/a	stim	s445
447.852	0.769	-1.430648459815127	draw_card	0.0	columbia_card_task_fmri	16.0	0.75	89.0	-65.0	0.25	10.0	3.0	2.0	0.6901509392894525	0.769	n/a	stim	s445
448.625	0.535	-4.323505602672268	draw_card	0.0	columbia_card_task_fmri	16.0	0.7142857142857143	89.0	-65.0	0.2857142857142857	10.0	4.0	2.0	2.203513007644574	0.535	n/a	stim	s445
449.165	0.478	-8.180648459815124	draw_card	0.0	columbia_card_task_fmri	16.0	0.6666666666666667	89.0	-65.0	0.3333333333333333	10.0	5.0	2.0	3.7907008160983935	0.478	n/a	stim	s445
449.647	1.971	-13.580648459815126	draw_card	0.0	columbia_card_task_fmri	16.0	0.6	89.0	-65.0	0.4	10.0	6.0	2.0	5.284754688600451	1.971	n/a	stim	s445
451.623	1.494	-21.680648459815128	end_round	0.0	columbia_card_task_fmri	16.0	0.5	71.0	-65.0	0.5	10.0	7.0	2.0	6.101004766022747	1.494	6.0	stim	s445
453.122	2.25	n/a	-1.0	n/a	columbia_card_task_fmri	n/a	n/a	-1.0	n/a	n/a	n/a	n/a	n/a	n/a	n/a	n/a	feedback	s445
455.372	0.0	n/a	-1.0	n/a	columbia_card_task_fmri	n/a	n/a	-1.0	n/a	n/a	n/a	n/a	n/a	n/a	n/a	n/a	ITI	s445
455.376	2.393	1.319351540184873	draw_card	0.0	columbia_card_task_fmri	7.0	0.9166666666666666	89.0	-95.0	0.0833333333333333	12.0	1.0	1.0	-6.16507069355746	2.393	n/a	stim	s445
457.774	0.384	0.5466242674575996	draw_card	0.0	columbia_card_task_fmri	7.0	0.9090909090909092	89.0	-95.0	0.0909090909090909	12.0	2.0	1.0	-5.038844794617219	0.384	n/a	stim	s445
458.161	0.767	-0.3806484598151272	draw_card	0.0	columbia_card_task_fmri	7.0	0.9	89.0	-95.0	0.1	12.0	3.0	1.0	-3.767402316241192	0.767	n/a	stim	s445
458.933	0.391	-1.513981793148461	draw_card	0.0	columbia_card_task_fmri	7.0	0.8888888888888888	89.0	-95.0	0.1111111111111111	12.0	4.0	1.0	-2.3177566511444283	0.391	n/a	stim	s445
459.328	0.386	-2.930648459815127	draw_card	0.0	columbia_card_task_fmri	7.0	0.875	89.0	-95.0	0.125	12.0	5.0	1.0	-0.6460677236307646	0.386	n/a	stim	s445
459.719	0.34	-4.752077031243698	draw_card	0.0	columbia_card_task_fmri	7.0	0.8571428571428572	89.0	-95.0	0.1428571428571428	12.0	6.0	1.0	1.3067325355181367	0.34	n/a	stim	s445
460.063	0.644	-7.180648459815125	draw_card	1.0	columbia_card_task_fmri	7.0	0.8333333333333334	89.0	-95.0	0.1666666666666666	12.0	7.0	1.0	3.6205554952727823	0.644	7.0	stim	s445
460.713	2.25	n/a	-1.0	n/a	columbia_card_task_fmri	n/a	n/a	-1.0	n/a	n/a	n/a	n/a	n/a	n/a	n/a	n/a	feedback	s445
462.963	0.0	n/a	-1.0	n/a	columbia_card_task_fmri	n/a	n/a	-1.0	n/a	n/a	n/a	n/a	n/a	n/a	n/a	n/a	ITI	s445
462.966	1.957	1.9860182068515408	draw_card	0.0	columbia_card_task_fmri	14.0	0.8333333333333334	89.0	-75.0	0.1666666666666666	12.0	1.0	2.0	-1.209059010832604	1.957	n/a	stim	s445
464.927	0.711	0.6375333583666896	draw_card	0.0	columbia_card_task_fmri	14.0	0.8181818181818181	89.0	-75.0	0.1818181818181818	12.0	2.0	2.0	-0.0546034002543294	0.711	n/a	stim	s445
465.643	0.38	-0.980648459815126	draw_card	1.0	columbia_card_task_fmri	14.0	0.8	89.0	-75.0	0.2	12.0	3.0	2.0	1.2144558861856254	0.38	3.0	stim	s445
466.029	2.25	n/a	-1.0	n/a	columbia_card_task_fmri	n/a	n/a	-1.0	n/a	n/a	n/a	n/a	n/a	n/a	n/a	n/a	feedback	s445
468.279	0.136	n/a	-1.0	n/a	columbia_card_task_fmri	n/a	n/a	-1.0	n/a	n/a	n/a	n/a	n/a	n/a	n/a	n/a	ITI	s445
468.419	1.075	3.652684873518207	draw_card	1.0	columbia_card_task_fmri	15.0	0.8333333333333334	89.0	-70.0	0.1666666666666666	12.0	1.0	2.0	-2.6941640235510675	1.075	1.0	stim	s445
469.499	2.25	n/a	-1.0	n/a	columbia_card_task_fmri	n/a	n/a	-1.0	n/a	n/a	n/a	n/a	n/a	n/a	n/a	n/a	feedback	s445
471.749	0.136	n/a	-1.0	n/a	columbia_card_task_fmri	n/a	n/a	-1.0	n/a	n/a	n/a	n/a	n/a	n/a	n/a	n/a	ITI	s445
471.891	0.916	1.6193515401848737	draw_card	0.0	columbia_card_task_fmri	16.0	0.8	89.0	-70.0	0.2	15.0	1.0	3.0	0.0183314292442133	0.916	n/a	stim	s445
472.812	3.287	0.3907801116134441	draw_card	0.0	columbia_card_task_fmri	16.0	0.7857142857142857	89.0	-70.0	0.2142857142857142	15.0	2.0	3.0	0.9034658900361876	3.287	n/a	stim	s445
476.104	0.727	-1.0268023059689737	draw_card	0.0	columbia_card_task_fmri	16.0	0.7692307692307692	89.0	-70.0	0.2307692307692307	15.0	3.0	3.0	1.8464654110790304	0.727	n/a	stim	s445
476.836	0.465	-2.680648459815127	draw_card	0.0	columbia_card_task_fmri	16.0	0.75	89.0	-70.0	0.25	15.0	4.0	3.0	2.8486563904763287	0.465	n/a	stim	s445
477.305	0.442	-4.63519391436058	draw_card	0.0	columbia_card_task_fmri	16.0	0.7272727272727273	89.0	-70.0	0.2727272727272727	15.0	5.0	3.0	3.907729373171506	0.442	n/a	stim	s445
477.752	0.388	-6.980648459815128	draw_card	0.0	columbia_card_task_fmri	16.0	0.7	89.0	-70.0	0.3	15.0	6.0	3.0	5.013859407543038	0.388	n/a	stim	s445
478.144	1.593	-9.847315126481792	draw_card	0.0	columbia_card_task_fmri	16.0	0.6666666666666667	89.0	-70.0	0.3333333333333333	15.0	7.0	3.0	6.141695178163928	1.593	n/a	stim	s445
479.742	1.27	-13.430648459815128	draw_card	1.0	columbia_card_task_fmri	16.0	0.625	89.0	-70.0	0.375	15.0	8.0	3.0	7.232910975367922	1.27	8.0	stim	s445
481.018	2.25	n/a	-1.0	n/a	columbia_card_task_fmri	n/a	n/a	-1.0	n/a	n/a	n/a	n/a	n/a	n/a	n/a	n/a	feedback	s445
483.268	0.476	n/a	-1.0	n/a	columbia_card_task_fmri	n/a	n/a	-1.0	n/a	n/a	n/a	n/a	n/a	n/a	n/a	n/a	ITI	s445
483.749	4.921	2.006851540184873	draw_card	0.0	columbia_card_task_fmri	14.0	0.8125	89.0	-65.0	0.1875	16.0	1.0	3.0	-3.5337070028687343	4.921	n/a	stim	s445
488.675	1.265	1.019351540184874	draw_card	0.0	columbia_card_task_fmri	14.0	0.8	89.0	-65.0	0.2	16.0	2.0	3.0	-2.7714873113893432	1.265	n/a	stim	s445
489.945	0.513	-0.109219888386554	draw_card	0.0	columbia_card_task_fmri	14.0	0.7857142857142857	89.0	-65.0	0.2142857142857142	16.0	3.0	3.0	-1.9588876923423089	0.513	n/a	stim	s445
490.462	0.54	-1.4114176905843587	draw_card	0.0	columbia_card_task_fmri	14.0	0.7692307692307692	89.0	-65.0	0.2307692307692307	16.0	4.0	3.0	-1.093138744943687	0.54	n/a	stim	s445
491.007	0.461	-2.930648459815127	draw_card	0.0	columbia_card_task_fmri	14.0	0.75	89.0	-65.0	0.25	16.0	5.0	3.0	-0.1730199391798592	0.461	n/a	stim	s445
491.473	1.137	-4.726103005269672	draw_card	1.0	columbia_card_task_fmri	14.0	0.7272727272727273	89.0	-65.0	0.2727272727272727	16.0	6.0	3.0	0.7993508981019772	1.137	6.0	stim	s445
492.616	2.25	n/a	-1.0	n/a	columbia_card_task_fmri	n/a	n/a	-1.0	n/a	n/a	n/a	n/a	n/a	n/a	n/a	n/a	feedback	s445
494.866	0.204	n/a	-1.0	n/a	columbia_card_task_fmri	n/a	n/a	-1.0	n/a	n/a	n/a	n/a	n/a	n/a	n/a	n/a	ITI	s445
495.074	1.704	1.756851540184873	draw_card	0.0	columbia_card_task_fmri	16.0	0.8125	89.0	-75.0	0.1875	16.0	1.0	3.0	1.1331371982694591	1.704	n/a	stim	s445
496.783	0.728	0.6193515401848737	draw_card	0.0	columbia_card_task_fmri	16.0	0.8	89.0	-75.0	0.2	16.0	2.0	3.0	2.012013499892113	0.728	n/a	stim	s445
497.516	0.398	-0.6806484598151252	draw_card	0.0	columbia_card_task_fmri	16.0	0.7857142857142857	89.0	-75.0	0.2142857142857142	16.0	3.0	3.0	2.9489350180730227	0.398	n/a	stim	s445
497.918	0.362	-2.1806484598151306	draw_card	0.0	columbia_card_task_fmri	16.0	0.7692307692307692	89.0	-75.0	0.2307692307692307	16.0	4.0	3.0	3.947089674302042	0.362	n/a	stim	s445
498.284	0.329	-3.930648459815127	draw_card	0.0	columbia_card_task_fmri	16.0	0.75	89.0	-75.0	0.25	16.0	5.0	3.0	5.007879587633418	0.329	n/a	stim	s445
498.619	0.433	-5.998830277996944	draw_card	0.0	columbia_card_task_fmri	16.0	0.7272727272727273	89.0	-75.0	0.2727272727272727	16.0	6.0	3.0	6.128858602129213	0.433	n/a	stim	s445
499.056	0.42	-8.480648459815129	draw_card	0.0	columbia_card_task_fmri	16.0	0.7	89.0	-75.0	0.3	16.0	7.0	3.0	7.299626284619599	0.42	n/a	stim	s445
499.482	3.576	-11.51398179314846	draw_card	0.0	columbia_card_task_fmri	16.0	0.6666666666666667	89.0	-75.0	0.3333333333333333	16.0	8.0	3.0	8.493349718085192	3.576	n/a	stim	s445
503.063	1.914	-15.305648459815128	draw_card	1.0	columbia_card_task_fmri	16.0	0.625	89.0	-75.0	0.375	16.0	9.0	3.0	9.648297600812455	1.914	9.0	stim	s445
504.982	2.25	n/a	-1.0	n/a	columbia_card_task_fmri	n/a	n/a	-1.0	n/a	n/a	n/a	n/a	n/a	n/a	n/a	n/a	feedback	s445
507.232	0.068	n/a	-1.0	n/a	columbia_card_task_fmri	n/a	n/a	-1.0	n/a	n/a	n/a	n/a	n/a	n/a	n/a	n/a	ITI	s445
507.305	2.052	6.019351540184874	draw_card	0.0	columbia_card_task_fmri	16.0	0.8666666666666667	89.0	-80.0	0.1333333333333333	15.0	1.0	2.0	-1.7417235353198492	2.052	n/a	stim	s445
509.362	0.759	5.105065825899161	draw_card	0.0	columbia_card_task_fmri	16.0	0.8571428571428572	89.0	-80.0	0.1428571428571428	15.0	2.0	2.0	-0.7859051722084445	0.759	n/a	stim	s445
510.125	0.366	4.050120770954103	draw_card	1.0	columbia_card_task_fmri	16.0	0.8461538461538461	89.0	-80.0	0.1538461538461538	15.0	3.0	2.0	0.2544614890849033	0.366	3.0	stim	s445
510.497	2.25	n/a	-1.0	n/a	columbia_card_task_fmri	n/a	n/a	-1.0	n/a	n/a	n/a	n/a	n/a	n/a	n/a	n/a	feedback	s445
512.747	0.068	n/a	-1.0	n/a	columbia_card_task_fmri	n/a	n/a	-1.0	n/a	n/a	n/a	n/a	n/a	n/a	n/a	n/a	ITI	s445
512.819	1.004	6.886018206851541	draw_card	1.0	columbia_card_task_fmri	17.0	0.8666666666666667	89.0	-80.0	0.1333333333333333	15.0	1.0	2.0	-1.4030375260788546	1.004	1.0	stim	s445
513.83	2.25	n/a	-1.0	n/a	columbia_card_task_fmri	n/a	n/a	-1.0	n/a	n/a	n/a	n/a	n/a	n/a	n/a	n/a	feedback	s445
516.08	0.34	n/a	-1.0	n/a	columbia_card_task_fmri	n/a	n/a	-1.0	n/a	n/a	n/a	n/a	n/a	n/a	n/a	n/a	ITI	s445
516.425	4.541	2.819351540184873	end_round	0.0	columbia_card_task_fmri	1.0	0.9375	71.0	-15.0	0.0625	16.0	1.0	1.0	-29.70652462088018	4.541	0.0	stim	s445
520.972	2.25	n/a	-1.0	n/a	columbia_card_task_fmri	n/a	n/a	-1.0	n/a	n/a	n/a	n/a	n/a	n/a	n/a	n/a	feedback	s445
523.222	0.476	n/a	-1.0	n/a	columbia_card_task_fmri	n/a	n/a	-1.0	n/a	n/a	n/a	n/a	n/a	n/a	n/a	n/a	ITI	s445
523.704	1.891	5.944351540184873	draw_card	0.0	columbia_card_task_fmri	10.0	0.9375	89.0	-100.0	0.0625	16.0	1.0	1.0	-7.721402489242063	1.891	n/a	stim	s445
525.599	1.15	5.48601820685154	draw_card	0.0	columbia_card_task_fmri	10.0	0.9333333333333332	89.0	-100.0	0.0666666666666666	16.0	2.0	1.0	-6.913723889577327	1.15	n/a	stim	s445
526.754	0.715	4.962208683042017	draw_card	0.0	columbia_card_task_fmri	10.0	0.9285714285714286	89.0	-100.0	0.0714285714285714	16.0	3.0	1.0	-6.027731725436677	0.715	n/a	stim	s445
527.474	0.341	4.357813078646412	draw_card	0.0	columbia_card_task_fmri	10.0	0.9230769230769232	89.0	-100.0	0.0769230769230769	16.0	4.0	1.0	-5.050102112407327	0.341	n/a	stim	s445
527.82	0.396	3.652684873518207	draw_card	0.0	columbia_card_task_fmri	10.0	0.9166666666666666	89.0	-100.0	0.0833333333333333	16.0	5.0	1.0	-3.964169587367572	0.396	n/a	stim	s445
528.221	0.39	2.819351540184871	draw_card	0.0	columbia_card_task_fmri	10.0	0.9090909090909092	89.0	-100.0	0.0909090909090909	16.0	6.0	1.0	-2.7488007607533547	0.39	n/a	stim	s445
528.616	0.35	1.819351540184873	draw_card	1.0	columbia_card_task_fmri	10.0	0.9	89.0	-100.0	0.1	16.0	7.0	1.0	-1.376792731372234	0.35	7.0	stim	s445
528.972	2.25	n/a	-1.0	n/a	columbia_card_task_fmri	n/a	n/a	-1.0	n/a	n/a	n/a	n/a	n/a	n/a	n/a	n/a	feedback	s445
531.222	0.272	n/a	-1.0	n/a	columbia_card_task_fmri	n/a	n/a	-1.0	n/a	n/a	n/a	n/a	n/a	n/a	n/a	n/a	ITI	s445
531.5	1.187	6.569351540184873	draw_card	0.0	columbia_card_task_fmri	15.0	0.875	89.0	-75.0	0.125	16.0	1.0	2.0	-4.599078847962602	1.187	n/a	stim	s445
532.693	0.759	5.819351540184873	draw_card	0.0	columbia_card_task_fmri	15.0	0.8666666666666667	89.0	-75.0	0.1333333333333333	16.0	2.0	2.0	-3.773260417810423	0.759	n/a	stim	s445
533.457	0.546	4.962208683042017	draw_card	0.0	columbia_card_task_fmri	15.0	0.8571428571428572	89.0	-75.0	0.1428571428571428	16.0	3.0	2.0	-2.877624737111077	0.546	n/a	stim	s445
534.008	2.168	3.9731976940310254	draw_card	0.0	columbia_card_task_fmri	15.0	0.8461538461538461	89.0	-75.0	0.1538461538461538	16.0	4.0	2.0	-1.902736561734251	2.168	n/a	stim	s445
536.18	1.105	2.819351540184873	draw_card	1.0	columbia_card_task_fmri	15.0	0.8333333333333334	89.0	-75.0	0.1666666666666666	16.0	5.0	2.0	-0.8377053025520951	1.105	5.0	stim	s445
537.292	2.25	n/a	-1.0	n/a	columbia_card_task_fmri	n/a	n/a	-1.0	n/a	n/a	n/a	n/a	n/a	n/a	n/a	n/a	feedback	s445
539.542	0.884	n/a	-1.0	n/a	columbia_card_task_fmri	n/a	n/a	-1.0	n/a	n/a	n/a	n/a	n/a	n/a	n/a	n/a	ITI	s445
540.431	1.168	6.819351540184873	draw_card	0.0	columbia_card_task_fmri	16.0	0.875	89.0	-80.0	0.125	16.0	1.0	2.0	-2.6230584080760657	1.168	n/a	stim	s445
541.604	0.245	6.019351540184874	draw_card	0.0	columbia_card_task_fmri	16.0	0.8666666666666667	89.0	-80.0	0.1333333333333333	16.0	2.0	2.0	-1.7417235353198492	0.245	n/a	stim	s445
541.853	0.258	5.105065825899161	draw_card	0.0	columbia_card_task_fmri	16.0	0.8571428571428572	89.0	-80.0	0.1428571428571428	16.0	3.0	2.0	-0.7859051722084445	0.258	n/a	stim	s445
542.116	0.228	4.050120770954103	draw_card	0.0	columbia_card_task_fmri	16.0	0.8461538461538461	89.0	-80.0	0.1538461538461538	16.0	4.0	2.0	0.2544614890849033	0.228	n/a	stim	s445
542.349	0.496	2.8193515401848748	draw_card	0.0	columbia_card_task_fmri	16.0	0.8333333333333334	89.0	-80.0	0.1666666666666666	16.0	5.0	2.0	1.3909935109281122	0.496	n/a	stim	s445
542.851	0.286	1.3648060856394162	draw_card	0.0	columbia_card_task_fmri	16.0	0.8181818181818181	89.0	-80.0	0.1818181818181818	16.0	6.0	2.0	2.6368560046077505	0.286	n/a	stim	s445
543.141	0.328	-0.3806484598151263	draw_card	0.0	columbia_card_task_fmri	16.0	0.8	89.0	-80.0	0.2	16.0	7.0	2.0	4.006350890382187	0.328	n/a	stim	s445
543.473	0.926	-2.513981793148461	draw_card	0.0	columbia_card_task_fmri	16.0	0.7777777777777778	89.0	-80.0	0.2222222222222222	16.0	8.0	2.0	5.513459766864038	0.926	n/a	stim	s445
544.403	0.735	-5.180648459815127	draw_card	0.0	columbia_card_task_fmri	16.0	0.75	89.0	-80.0	0.25	16.0	9.0	2.0	7.167708941982006	0.735	n/a	stim	s445
545.143	2.262	-8.609219888386551	draw_card	0.0	columbia_card_task_fmri	16.0	0.7142857142857143	89.0	-80.0	0.2857142857142857	16.0	10.0	2.0	8.96291560613534	2.262	n/a	stim	s445
547.409	2.624	-13.180648459815124	draw_card	0.0	columbia_card_task_fmri	16.0	0.6666666666666667	89.0	-80.0	0.3333333333333333	16.0	11.0	2.0	10.84556171726068	2.624	n/a	stim	s445
550.037	1.985	-19.580648459815126	draw_card	1.0	columbia_card_task_fmri	16.0	0.6	89.0	-80.0	0.4	16.0	12.0	2.0	12.617624802221158	1.985	12.0	stim	s445
552.028	2.25	n/a	-1.0	n/a	columbia_card_task_fmri	n/a	n/a	-1.0	n/a	n/a	n/a	n/a	n/a	n/a	n/a	n/a	feedback	s445
554.278	0.136	n/a	-1.0	n/a	columbia_card_task_fmri	n/a	n/a	-1.0	n/a	n/a	n/a	n/a	n/a	n/a	n/a	n/a	ITI	s445
554.42	1.832	4.006851540184873	end_round	0.0	columbia_card_task_fmri	4.0	0.6875	71.0	-5.0	0.3125	16.0	1.0	5.0	-29.46202298135561	1.832	0.0	stim	s445
556.258	2.25	n/a	-1.0	n/a	columbia_card_task_fmri	n/a	n/a	-1.0	n/a	n/a	n/a	n/a	n/a	n/a	n/a	n/a	feedback	s445
558.508	0.136	n/a	-1.0	n/a	columbia_card_task_fmri	n/a	n/a	-1.0	n/a	n/a	n/a	n/a	n/a	n/a	n/a	n/a	ITI	s445
558.65	1.17	1.1526848735182087	draw_card	0.0	columbia_card_task_fmri	14.0	0.8333333333333334	89.0	-80.0	0.1666666666666666	6.0	1.0	1.0	0.6479898880002963	1.17	n/a	stim	s445
559.825	1.602	-1.980648459815126	draw_card	0.0	columbia_card_task_fmri	14.0	0.8	89.0	-80.0	0.2	6.0	2.0	1.0	3.20854395003726	1.602	n/a	stim	s445
561.433	1.762	-6.680648459815127	draw_card	0.0	columbia_card_task_fmri	14.0	0.75	89.0	-80.0	0.25	6.0	3.0	1.0	6.303710621588998	1.762	n/a	stim	s445
563.2	1.53	-14.513981793148456	end_round	0.0	columbia_card_task_fmri	14.0	0.6666666666666667	71.0	-80.0	0.3333333333333333	6.0	4.0	1.0	9.904615692126164	1.53	3.0	stim	s445
564.736	2.25	n/a	-1.0	n/a	columbia_card_task_fmri	n/a	n/a	-1.0	n/a	n/a	n/a	n/a	n/a	n/a	n/a	n/a	feedback	s445
566.986	0.068	n/a	-1.0	n/a	columbia_card_task_fmri	n/a	n/a	-1.0	n/a	n/a	n/a	n/a	n/a	n/a	n/a	n/a	ITI	s445
567.058	1.05	2.819351540184873	draw_card	0.0	columbia_card_task_fmri	15.0	0.8333333333333334	89.0	-75.0	0.1666666666666666	6.0	1.0	1.0	-0.8377053025520951	1.05	n/a	stim	s445
568.116	0.731	-0.180648459815127	draw_card	1.0	columbia_card_task_fmri	15.0	0.8	89.0	-75.0	0.2	6.0	2.0	1.0	1.6132211862983894	0.731	2.0	stim	s445
568.853	2.25	n/a	-1.0	n/a	columbia_card_task_fmri	n/a	n/a	-1.0	n/a	n/a	n/a	n/a	n/a	n/a	n/a	n/a	feedback	s445
571.103	0.068	n/a	-1.0	n/a	columbia_card_task_fmri	n/a	n/a	-1.0	n/a	n/a	n/a	n/a	n/a	n/a	n/a	n/a	ITI	s445
571.176	0.832	4.486018206851541	draw_card	1.0	columbia_card_task_fmri	16.0	0.8333333333333334	89.0	-70.0	0.1666666666666666	6.0	1.0	1.0	-2.322936388645388	0.832	1.0	stim	s445
572.013	2.25	n/a	-1.0	n/a	columbia_card_task_fmri	n/a	n/a	-1.0	n/a	n/a	n/a	n/a	n/a	n/a	n/a	n/a	feedback	s445
574.263	0.612	n/a	-1.0	n/a	columbia_card_task_fmri	n/a	n/a	-1.0	n/a	n/a	n/a	n/a	n/a	n/a	n/a	n/a	ITI	s445
574.881	1.294	5.069351540184873	draw_card	0.0	columbia_card_task_fmri	23.0	0.75	89.0	-60.0	0.25	8.0	1.0	2.0	1.5534587381431493	1.294	n/a	stim	s445
576.179	0.844	2.105065825899161	draw_card	1.0	columbia_card_task_fmri	23.0	0.7142857142857143	89.0	-60.0	0.2857142857142857	8.0	2.0	2.0	3.1044150510886865	0.844	2.0	stim	s445
577.03	2.25	n/a	-1.0	n/a	columbia_card_task_fmri	n/a	n/a	-1.0	n/a	n/a	n/a	n/a	n/a	n/a	n/a	n/a	feedback	s445
579.28	0.476	n/a	-1.0	n/a	columbia_card_task_fmri	n/a	n/a	-1.0	n/a	n/a	n/a	n/a	n/a	n/a	n/a	n/a	ITI	s445
579.76	0.855	5.569351540184873	draw_card	0.0	columbia_card_task_fmri	27.0	0.75	89.0	-70.0	0.25	8.0	1.0	2.0	7.599739341856534	0.855	n/a	stim	s445
580.62	1.678	2.1050658258991577	draw_card	0.0	columbia_card_task_fmri	27.0	0.7142857142857143	89.0	-70.0	0.2857142857142857	8.0	2.0	2.0	9.413727746675178	1.678	n/a	stim	s445
582.302	1.042	-2.513981793148456	draw_card	0.0	columbia_card_task_fmri	27.0	0.6666666666666667	89.0	-70.0	0.3333333333333333	8.0	3.0	2.0	11.316063456353724	1.042	n/a	stim	s445
583.349	4.005	-8.980648459815129	draw_card	1.0	columbia_card_task_fmri	27.0	0.6	89.0	-70.0	0.4	8.0	4.0	2.0	13.106653863902544	4.005	4.0	stim	s445
587.36	2.25	n/a	-1.0	n/a	columbia_card_task_fmri	n/a	n/a	-1.0	n/a	n/a	n/a	n/a	n/a	n/a	n/a	n/a	feedback	s445
589.61	0.0	n/a	-1.0	n/a	columbia_card_task_fmri	n/a	n/a	-1.0	n/a	n/a	n/a	n/a	n/a	n/a	n/a	n/a	ITI	s445
589.616	1.764	0.8193515401848748	draw_card	0.0	columbia_card_task_fmri	16.0	0.7777777777777778	89.0	-65.0	0.2222222222222222	9.0	1.0	2.0	-0.7042771582736549	1.764	n/a	stim	s445
591.385	1.17	-1.430648459815127	draw_card	1.0	columbia_card_task_fmri	16.0	0.75	89.0	-65.0	0.25	9.0	2.0	2.0	0.6901509392894525	1.17	2.0	stim	s445
592.561	2.25	n/a	-1.0	n/a	columbia_card_task_fmri	n/a	n/a	-1.0	n/a	n/a	n/a	n/a	n/a	n/a	n/a	n/a	feedback	s445
594.811	0.068	n/a	-1.0	n/a	columbia_card_task_fmri	n/a	n/a	-1.0	n/a	n/a	n/a	n/a	n/a	n/a	n/a	n/a	ITI	s445
594.884	3.305	6.019351540184874	draw_card	0.0	columbia_card_task_fmri	13.0	0.9	89.0	-85.0	0.1	10.0	1.0	1.0	-4.96213592481763	3.305	n/a	stim	s445
598.195	1.136	4.930462651295984	draw_card	0.0	columbia_card_task_fmri	13.0	0.8888888888888888	89.0	-85.0	0.1111111111111111	10.0	2.0	1.0	-3.569805170505653	1.136	n/a	stim	s445
599.335	0.438	3.569351540184873	draw_card	1.0	columbia_card_task_fmri	13.0	0.875	89.0	-85.0	0.125	10.0	3.0	1.0	-1.9641605850560069	0.438	3.0	stim	s445
599.779	2.25	n/a	-1.0	n/a	columbia_card_task_fmri	n/a	n/a	-1.0	n/a	n/a	n/a	n/a	n/a	n/a	n/a	n/a	feedback	s445
602.029	0.204	n/a	-1.0	n/a	columbia_card_task_fmri	n/a	n/a	-1.0	n/a	n/a	n/a	n/a	n/a	n/a	n/a	n/a	ITI	s445
602.239	1.627	1.019351540184874	draw_card	0.0	columbia_card_task_fmri	14.0	0.8	89.0	-65.0	0.2	10.0	1.0	2.0	-2.7714873113893432	1.627	n/a	stim	s445
603.871	0.428	-0.7362040153706806	draw_card	0.0	columbia_card_task_fmri	14.0	0.7777777777777778	89.0	-65.0	0.2222222222222222	10.0	2.0	2.0	-1.5327846986844378	0.428	n/a	stim	s445
604.305	0.397	-2.930648459815127	draw_card	1.0	columbia_card_task_fmri	14.0	0.75	89.0	-65.0	0.25	10.0	3.0	2.0	-0.1730199391798592	0.397	3.0	stim	s445
604.709	2.25	n/a	-1.0	n/a	columbia_card_task_fmri	n/a	n/a	-1.0	n/a	n/a	n/a	n/a	n/a	n/a	n/a	n/a	feedback	s445
606.959	0.272	n/a	-1.0	n/a	columbia_card_task_fmri	n/a	n/a	-1.0	n/a	n/a	n/a	n/a	n/a	n/a	n/a	n/a	ITI	s445
607.235	0.812	2.4193515401848744	draw_card	0.0	columbia_card_task_fmri	17.0	0.8	89.0	-70.0	0.2	10.0	1.0	2.0	0.4170100287061018	0.812	n/a	stim	s445
608.052	0.503	0.4860182068515408	draw_card	0.0	columbia_card_task_fmri	17.0	0.7777777777777778	89.0	-70.0	0.2222222222222222	10.0	2.0	2.0	1.7820613607581637	0.503	n/a	stim	s445
608.56	0.316	-1.930648459815127	draw_card	0.0	columbia_card_task_fmri	17.0	0.75	89.0	-70.0	0.25	10.0	3.0	2.0	3.280447547923273	0.316	n/a	stim	s445
608.882	0.399	-5.037791316957985	draw_card	0.0	columbia_card_task_fmri	17.0	0.7142857142857143	89.0	-70.0	0.2857142857142857	10.0	4.0	2.0	4.906577130270563	0.399	n/a	stim	s445
609.292	0.798	-9.180648459815124	draw_card	0.0	columbia_card_task_fmri	17.0	0.6666666666666667	89.0	-70.0	0.3333333333333333	10.0	5.0	2.0	6.611976896970511	0.798	n/a	stim	s445
610.095	0.786	-14.980648459815129	draw_card	1.0	columbia_card_task_fmri	17.0	0.6	89.0	-70.0	0.4	10.0	6.0	2.0	8.217259349495208	0.786	6.0	stim	s445
610.888	2.25	n/a	-1.0	n/a	columbia_card_task_fmri	n/a	n/a	-1.0	n/a	n/a	n/a	n/a	n/a	n/a	n/a	n/a	feedback	s445
613.138	0.068	n/a	-1.0	n/a	columbia_card_task_fmri	n/a	n/a	-1.0	n/a	n/a	n/a	n/a	n/a	n/a	n/a	n/a	ITI	s445
613.211	0.847	1.152684873518207	draw_card	1.0	columbia_card_task_fmri	13.0	0.8333333333333334	89.0	-75.0	0.1666666666666666	12.0	1.0	2.0	-1.5803827855266874	0.847	1.0	stim	s445
614.063	2.25	n/a	-1.0	n/a	columbia_card_task_fmri	n/a	n/a	-1.0	n/a	n/a	n/a	n/a	n/a	n/a	n/a	n/a	feedback	s445
616.313	0.272	n/a	-1.0	n/a	columbia_card_task_fmri	n/a	n/a	-1.0	n/a	n/a	n/a	n/a	n/a	n/a	n/a	n/a	ITI	s445
616.59	1.629	2.8193515401848748	draw_card	0.0	columbia_card_task_fmri	14.0	0.8333333333333334	89.0	-70.0	0.1666666666666666	12.0	1.0	2.0	-3.065357332148896	1.629	n/a	stim	s445
618.225	0.84	1.5466242674575978	draw_card	0.0	columbia_card_task_fmri	14.0	0.8181818181818181	89.0	-70.0	0.1818181818181818	12.0	2.0	2.0	-1.976221516329602	0.84	n/a	stim	s445
619.071	0.66	0.019351540184874	draw_card	0.0	columbia_card_task_fmri	14.0	0.8	89.0	-70.0	0.2	12.0	3.0	2.0	-0.7789318696815215	0.66	n/a	stim	s445
619.738	0.8	-1.847315126481793	draw_card	1.0	columbia_card_task_fmri	14.0	0.7777777777777778	89.0	-70.0	0.2222222222222222	12.0	4.0	2.0	0.5387481664771343	0.8	4.0	stim	s445
620.545	2.25	n/a	-1.0	n/a	columbia_card_task_fmri	n/a	n/a	-1.0	n/a	n/a	n/a	n/a	n/a	n/a	n/a	n/a	feedback	s445
622.795	0.748	n/a	-1.0	n/a	columbia_card_task_fmri	n/a	n/a	-1.0	n/a	n/a	n/a	n/a	n/a	n/a	n/a	n/a	ITI	s445
623.549	0.807	2.8193515401848748	draw_card	0.0	columbia_card_task_fmri	16.0	0.8333333333333334	89.0	-80.0	0.1666666666666666	12.0	1.0	2.0	1.3909935109281122	0.807	n/a	stim	s445
624.362	0.495	1.3648060856394162	draw_card	0.0	columbia_card_task_fmri	16.0	0.8181818181818181	89.0	-80.0	0.1818181818181818	12.0	2.0	2.0	2.6368560046077505	0.495	n/a	stim	s445
624.863	0.458	-0.3806484598151263	draw_card	0.0	columbia_card_task_fmri	16.0	0.8	89.0	-80.0	0.2	12.0	3.0	2.0	4.006350890382187	0.458	n/a	stim	s445
625.327	1.222	-2.513981793148461	draw_card	0.0	columbia_card_task_fmri	16.0	0.7777777777777778	89.0	-80.0	0.2222222222222222	12.0	4.0	2.0	5.513459766864038	1.222	n/a	stim	s445
626.554	1.476	-5.180648459815127	draw_card	0.0	columbia_card_task_fmri	16.0	0.75	89.0	-80.0	0.25	12.0	5.0	2.0	7.167708941982006	1.476	n/a	stim	s445
628.038	1.932	-8.609219888386551	draw_card	0.0	columbia_card_task_fmri	16.0	0.7142857142857143	89.0	-80.0	0.2857142857142857	12.0	6.0	2.0	8.96291560613534	1.932	n/a	stim	s445
629.976	2.346	-13.180648459815124	draw_card	1.0	columbia_card_task_fmri	16.0	0.6666666666666667	89.0	-80.0	0.3333333333333333	12.0	7.0	2.0	10.84556171726068	2.346	7.0	stim	s445
632.329	2.25	n/a	-1.0	n/a	columbia_card_task_fmri	n/a	n/a	-1.0	n/a	n/a	n/a	n/a	n/a	n/a	n/a	n/a	feedback	s445
634.579	0.068	n/a	-1.0	n/a	columbia_card_task_fmri	n/a	n/a	-1.0	n/a	n/a	n/a	n/a	n/a	n/a	n/a	n/a	ITI	s445
634.653	1.961	2.6193515401848737	draw_card	0.0	columbia_card_task_fmri	16.0	0.8	89.0	-65.0	0.2	15.0	1.0	3.0	-1.9745748045833904	1.961	n/a	stim	s445
636.62	0.613	1.4622086830420171	draw_card	0.0	columbia_card_task_fmri	16.0	0.7857142857142857	89.0	-65.0	0.2142857142857142	15.0	2.0	3.0	-1.1412465469837727	0.613	n/a	stim	s445
637.24	0.423	0.1270438478771796	draw_card	1.0	columbia_card_task_fmri	16.0	0.7692307692307692	89.0	-65.0	0.2307692307692307	15.0	3.0	3.0	-0.2534215520905363	0.423	3.0	stim	s445
637.67	2.25	n/a	-1.0	n/a	columbia_card_task_fmri	n/a	n/a	-1.0	n/a	n/a	n/a	n/a	n/a	n/a	n/a	n/a	feedback	s445
639.92	0.0	n/a	-1.0	n/a	columbia_card_task_fmri	n/a	n/a	-1.0	n/a	n/a	n/a	n/a	n/a	n/a	n/a	n/a	ITI	s445
639.925	0.851	0.944351540184873	draw_card	0.0	columbia_card_task_fmri	15.0	0.8125	89.0	-75.0	0.1875	16.0	1.0	3.0	0.7440622034235815	0.851	n/a	stim	s445
640.782	0.409	-0.180648459815127	draw_card	0.0	columbia_card_task_fmri	15.0	0.8	89.0	-75.0	0.2	16.0	2.0	3.0	1.6132211862983894	0.409	n/a	stim	s445
641.198	2.485	-1.4663627455294117	draw_card	0.0	columbia_card_task_fmri	15.0	0.7857142857142857	89.0	-75.0	0.2142857142857142	16.0	3.0	3.0	2.5397866743563	2.485	n/a	stim	s445
643.687	0.947	-2.9498792290459006	draw_card	1.0	columbia_card_task_fmri	15.0	0.7692307692307692	89.0	-75.0	0.2307692307692307	16.0	4.0	3.0	3.5269117024441243	0.947	4.0	stim	s445
644.642	2.25	n/a	-1.0	n/a	columbia_card_task_fmri	n/a	n/a	-1.0	n/a	n/a	n/a	n/a	n/a	n/a	n/a	n/a	feedback	s445
646.892	0.204	n/a	-1.0	n/a	columbia_card_task_fmri	n/a	n/a	-1.0	n/a	n/a	n/a	n/a	n/a	n/a	n/a	n/a	ITI	s445
647.103	0.505	1.506851540184873	draw_card	1.0	columbia_card_task_fmri	14.0	0.6875	89.0	-35.0	0.3125	16.0	1.0	5.0	-11.610581257443377	0.505	1.0	stim	s445
647.616	2.25	n/a	-1.0	n/a	columbia_card_task_fmri	n/a	n/a	-1.0	n/a	n/a	n/a	n/a	n/a	n/a	n/a	n/a	feedback	s445
649.866	0.068	n/a	-1.0	n/a	columbia_card_task_fmri	n/a	n/a	-1.0	n/a	n/a	n/a	n/a	n/a	n/a	n/a	n/a	ITI	s445
649.941	1.646	6.68601820685154	draw_card	0.0	columbia_card_task_fmri	16.0	0.8666666666666667	89.0	-75.0	0.1333333333333333	15.0	1.0	2.0	-3.434744396158912	1.646	n/a	stim	s445
651.594	1.124	5.819351540184875	draw_card	0.0	columbia_card_task_fmri	16.0	0.8571428571428572	89.0	-75.0	0.1428571428571428	15.0	2.0	2.0	-2.5290762190559306	1.124	n/a	stim	s445
652.724	0.418	4.819351540184873	draw_card	0.0	columbia_card_task_fmri	16.0	0.8461538461538461	89.0	-75.0	0.1538461538461538	15.0	3.0	2.0	-1.5432728572153636	0.418	n/a	stim	s445
653.148	3.274	3.652684873518207	draw_card	0.0	columbia_card_task_fmri	16.0	0.8333333333333334	89.0	-75.0	0.1666666666666666	15.0	4.0	2.0	-0.466322640619687	3.274	n/a	stim	s445
656.428	0.436	2.2738969947303262	draw_card	0.0	columbia_card_task_fmri	16.0	0.8181818181818181	89.0	-75.0	0.1818181818181818	15.0	5.0	2.0	0.7142537166524079	0.436	n/a	stim	s445
656.87	1.838	0.6193515401848737	draw_card	0.0	columbia_card_task_fmri	16.0	0.8	89.0	-75.0	0.2	15.0	6.0	2.0	2.012013499892113	1.838	n/a	stim	s445
658.714	1.999	-1.4028706820373469	draw_card	1.0	columbia_card_task_fmri	16.0	0.7777777777777778	89.0	-75.0	0.2222222222222222	15.0	7.0	2.0	3.4402111638898987	1.999	7.0	stim	s445
660.72	2.25	n/a	-1.0	n/a	columbia_card_task_fmri	n/a	n/a	-1.0	n/a	n/a	n/a	n/a	n/a	n/a	n/a	n/a	feedback	s445
662.97	0.068	n/a	-1.0	n/a	columbia_card_task_fmri	n/a	n/a	-1.0	n/a	n/a	n/a	n/a	n/a	n/a	n/a	n/a	ITI	s445
663.044	1.561	7.352684873518206	draw_card	0.0	columbia_card_task_fmri	16.0	0.8666666666666667	89.0	-70.0	0.1333333333333333	15.0	1.0	2.0	-5.126996801453604	1.561	n/a	stim	s445
664.613	0.6	6.533637254470588	draw_card	1.0	columbia_card_task_fmri	16.0	0.8571428571428572	89.0	-70.0	0.1428571428571428	15.0	2.0	2.0	-4.271500232322101	0.6	2.0	stim	s445
665.22	2.25	n/a	-1.0	n/a	columbia_card_task_fmri	n/a	n/a	-1.0	n/a	n/a	n/a	n/a	n/a	n/a	n/a	n/a	feedback	s445
667.47	0.34	n/a	-1.0	n/a	columbia_card_task_fmri	n/a	n/a	-1.0	n/a	n/a	n/a	n/a	n/a	n/a	n/a	n/a	ITI	s445
667.816	1.938	4.694351540184873	draw_card	0.0	columbia_card_task_fmri	8.0	0.9375	89.0	-90.0	0.0625	16.0	1.0	1.0	-10.60803443980242	1.938	n/a	stim	s445
669.761	0.379	4.28601820685154	draw_card	0.0	columbia_card_task_fmri	8.0	0.9333333333333332	89.0	-90.0	0.0666666666666666	16.0	2.0	1.0	-9.889470472509869	0.379	n/a	stim	s445
670.146	1.883	3.819351540184874	draw_card	1.0	columbia_card_task_fmri	8.0	0.9285714285714286	89.0	-90.0	0.0714285714285714	16.0	3.0	1.0	-9.10116820382006	1.883	3.0	stim	s445
672.036	2.25	n/a	-1.0	n/a	columbia_card_task_fmri	n/a	n/a	-1.0	n/a	n/a	n/a	n/a	n/a	n/a	n/a	n/a	feedback	s445
674.286	0.0	n/a	-1.0	n/a	columbia_card_task_fmri	n/a	n/a	-1.0	n/a	n/a	n/a	n/a	n/a	n/a	n/a	n/a	ITI	s445
674.292	1.303	6.256851540184873	draw_card	0.0	columbia_card_task_fmri	10.0	0.9375	89.0	-95.0	0.0625	16.0	1.0	1.0	-8.924664105523693	1.303	n/a	stim	s445
675.601	0.221	5.819351540184874	draw_card	0.0	columbia_card_task_fmri	10.0	0.9333333333333332	89.0	-95.0	0.0666666666666666	16.0	2.0	1.0	-8.15410237892625	0.221	n/a	stim	s445
675.828	0.356	5.319351540184874	draw_card	0.0	columbia_card_task_fmri	10.0	0.9285714285714286	89.0	-95.0	0.0714285714285714	16.0	3.0	1.0	-7.308799628990506	0.356	n/a	stim	s445
676.191	0.226	4.742428463261796	draw_card	0.0	columbia_card_task_fmri	10.0	0.9230769230769232	89.0	-95.0	0.0769230769230769	16.0	4.0	1.0	-6.376038799854708	0.226	n/a	stim	s445
676.423	0.36	4.069351540184873	draw_card	0.0	columbia_card_task_fmri	10.0	0.9166666666666666	89.0	-95.0	0.0833333333333333	16.0	5.0	1.0	-5.339913332463031	0.36	n/a	stim	s445
676.788	0.315	3.2738969947303262	draw_card	0.0	columbia_card_task_fmri	10.0	0.9090909090909092	89.0	-95.0	0.0909090909090909	16.0	6.0	1.0	-4.180252050267953	0.315	n/a	stim	s445
677.107	0.372	2.319351540184873	draw_card	0.0	columbia_card_task_fmri	10.0	0.9	89.0	-95.0	0.1	16.0	7.0	1.0	-2.871090413073354	0.372	n/a	stim	s445
677.485	1.501	1.152684873518207	draw_card	0.0	columbia_card_task_fmri	10.0	0.8888888888888888	89.0	-95.0	0.1111111111111111	16.0	8.0	1.0	-1.3784701649238542	1.501	n/a	stim	s445
678.991	1.58	-0.305648459815127	draw_card	0.0	columbia_card_task_fmri	10.0	0.875	89.0	-95.0	0.125	16.0	9.0	1.0	0.3427398477734229	1.58	n/a	stim	s445
680.576	2.433	-2.180648459815125	end_round	0.0	columbia_card_task_fmri	10.0	0.8571428571428572	71.0	-95.0	0.1428571428571428	16.0	10.0	1.0	2.3533468153517987	2.433	9.0	stim	s445
683.015	2.25	n/a	-1.0	n/a	columbia_card_task_fmri	n/a	n/a	-1.0	n/a	n/a	n/a	n/a	n/a	n/a	n/a	n/a	feedback	s445
685.265	0.0	n/a	-1.0	n/a	columbia_card_task_fmri	n/a	n/a	-1.0	n/a	n/a	n/a	n/a	n/a	n/a	n/a	n/a	ITI	s445
