onset	duration	planning	condition	current_position	exp_stage	experiment_exp_id	goal_state	key_press	problem_id	response_time	start_state	trial_id	worker_id
-59.896	0.0	0	n/a	n/a	n/a	ward_and_allport	n/a	32.0	n/a	19.308	n/a	instructions	s582
3.013	4.709	1	UA_with_intermediate	1,0,0,2,0,0,0,0,0	practice	ward_and_allport	1,2,3,0,0,0,0,0,0	71.0	0.0	4.709	1,0,0,2,3,0,0,0,0	to_hand	s582
7.724	0.45	0	UA_with_intermediate	1,0,0,2,0,0,3,0,0	practice	ward_and_allport	1,2,3,0,0,0,0,0,0	82.0	0.0	0.45	1,0,0,2,3,0,0,0,0	to_board	s582
8.176	0.623	0	UA_with_intermediate	1,0,0,0,0,0,3,0,0	practice	ward_and_allport	1,2,3,0,0,0,0,0,0	71.0	0.0	0.623	1,0,0,2,3,0,0,0,0	to_hand	s582
8.801	0.454	0	UA_with_intermediate	1,2,0,0,0,0,3,0,0	practice	ward_and_allport	1,2,3,0,0,0,0,0,0	89.0	0.0	0.454	1,0,0,2,3,0,0,0,0	to_board	s582
9.256	0.498	0	UA_with_intermediate	1,2,0,0,0,0,0,0,0	practice	ward_and_allport	1,2,3,0,0,0,0,0,0	82.0	0.0	0.498	1,0,0,2,3,0,0,0,0	to_hand	s582
9.755	0.375	0	UA_with_intermediate	1,2,3,0,0,0,0,0,0	practice	ward_and_allport	1,2,3,0,0,0,0,0,0	89.0	0.0	0.375	1,0,0,2,3,0,0,0,0	to_board	s582
10.133	1.0	0	UA_with_intermediate	n/a	practice	ward_and_allport	n/a	-1.0	0.0	n/a	n/a	feedback	s582
12.636	4.785	1	UA_with_intermediate	1,0,0,3,0,0,0,0,0	practice	ward_and_allport	1,3,2,0,0,0,0,0,0	89.0	1.0	4.785	1,2,0,3,0,0,0,0,0	to_hand	s582
17.423	0.392	0	UA_with_intermediate	1,0,0,3,0,0,2,0,0	practice	ward_and_allport	1,3,2,0,0,0,0,0,0	82.0	1.0	0.392	1,2,0,3,0,0,0,0,0	to_board	s582
17.816	0.488	0	UA_with_intermediate	1,0,0,0,0,0,2,0,0	practice	ward_and_allport	1,3,2,0,0,0,0,0,0	71.0	1.0	0.488	1,2,0,3,0,0,0,0,0	to_hand	s582
18.306	0.414	0	UA_with_intermediate	1,3,0,0,0,0,2,0,0	practice	ward_and_allport	1,3,2,0,0,0,0,0,0	89.0	1.0	0.414	1,2,0,3,0,0,0,0,0	to_board	s582
18.722	0.593	0	UA_with_intermediate	1,3,0,0,0,0,0,0,0	practice	ward_and_allport	1,3,2,0,0,0,0,0,0	82.0	1.0	0.593	1,2,0,3,0,0,0,0,0	to_hand	s582
19.317	0.385	0	UA_with_intermediate	1,3,2,0,0,0,0,0,0	practice	ward_and_allport	1,3,2,0,0,0,0,0,0	89.0	1.0	0.385	1,2,0,3,0,0,0,0,0	to_board	s582
19.706	1.0	0	UA_with_intermediate	n/a	practice	ward_and_allport	n/a	-1.0	1.0	n/a	n/a	feedback	s582
20.706	1.1	0	UA_with_intermediate	n/a	practice	ward_and_allport	n/a	-1.0	1.0	n/a	n/a	ITI	s582
21.807	3.212	1	UA_without_intermediate	0,0,0,1,2,0,0,0,0	practice	ward_and_allport	3,2,1,0,0,0,0,0,0	82.0	2.0	3.212	0,0,0,1,2,0,3,0,0	to_hand	s582
25.02	0.51	0	UA_without_intermediate	3,0,0,1,2,0,0,0,0	practice	ward_and_allport	3,2,1,0,0,0,0,0,0	89.0	2.0	0.51	0,0,0,1,2,0,3,0,0	to_board	s582
25.532	1.665	0	UA_without_intermediate	3,0,0,1,0,0,0,0,0	practice	ward_and_allport	3,2,1,0,0,0,0,0,0	71.0	2.0	1.665	0,0,0,1,2,0,3,0,0	to_hand	s582
27.198	0.473	0	UA_without_intermediate	3,0,0,1,0,0,2,0,0	practice	ward_and_allport	3,2,1,0,0,0,0,0,0	82.0	2.0	0.473	0,0,0,1,2,0,3,0,0	to_board	s582
27.675	0.858	0	UA_without_intermediate	3,0,0,0,0,0,2,0,0	practice	ward_and_allport	3,2,1,0,0,0,0,0,0	71.0	2.0	0.858	0,0,0,1,2,0,3,0,0	to_hand	s582
28.534	0.347	0	UA_without_intermediate	3,1,0,0,0,0,2,0,0	practice	ward_and_allport	3,2,1,0,0,0,0,0,0	89.0	2.0	0.347	0,0,0,1,2,0,3,0,0	to_board	s582
28.883	1.5	0	UA_without_intermediate	3,0,0,0,0,0,2,0,0	practice	ward_and_allport	3,2,1,0,0,0,0,0,0	89.0	2.0	1.5	0,0,0,1,2,0,3,0,0	to_hand	s582
30.384	1.333	0	UA_without_intermediate	3,0,0,1,0,0,2,0,0	practice	ward_and_allport	3,2,1,0,0,0,0,0,0	71.0	2.0	1.333	0,0,0,1,2,0,3,0,0	to_board	s582
31.718	0.54	0	UA_without_intermediate	3,0,0,1,0,0,0,0,0	practice	ward_and_allport	3,2,1,0,0,0,0,0,0	82.0	2.0	0.54	0,0,0,1,2,0,3,0,0	to_hand	s582
32.26	0.817	0	UA_without_intermediate	3,2,0,1,0,0,0,0,0	practice	ward_and_allport	3,2,1,0,0,0,0,0,0	89.0	2.0	0.817	0,0,0,1,2,0,3,0,0	to_board	s582
33.079	0.45	0	UA_without_intermediate	3,2,0,0,0,0,0,0,0	practice	ward_and_allport	3,2,1,0,0,0,0,0,0	71.0	2.0	0.45	0,0,0,1,2,0,3,0,0	to_hand	s582
33.53	0.332	0	UA_without_intermediate	3,2,1,0,0,0,0,0,0	practice	ward_and_allport	3,2,1,0,0,0,0,0,0	89.0	2.0	0.332	0,0,0,1,2,0,3,0,0	to_board	s582
33.864	1.0	0	UA_without_intermediate	n/a	practice	ward_and_allport	n/a	-1.0	2.0	n/a	n/a	feedback	s582
34.864	1.2	0	UA_without_intermediate	n/a	practice	ward_and_allport	n/a	-1.0	2.0	n/a	n/a	ITI	s582
36.067	1.868	1	UA_without_intermediate	0,0,0,1,0,0,3,0,0	practice	ward_and_allport	2,3,1,0,0,0,0,0,0	71.0	3.0	1.868	0,0,0,1,2,0,3,0,0	to_hand	s582
37.936	0.571	0	UA_without_intermediate	2,0,0,1,0,0,3,0,0	practice	ward_and_allport	2,3,1,0,0,0,0,0,0	89.0	3.0	0.571	0,0,0,1,2,0,3,0,0	to_board	s582
38.51	0.436	0	UA_without_intermediate	2,0,0,1,0,0,0,0,0	practice	ward_and_allport	2,3,1,0,0,0,0,0,0	82.0	3.0	0.436	0,0,0,1,2,0,3,0,0	to_hand	s582
38.947	0.557	0	UA_without_intermediate	2,3,0,1,0,0,0,0,0	practice	ward_and_allport	2,3,1,0,0,0,0,0,0	89.0	3.0	0.557	0,0,0,1,2,0,3,0,0	to_board	s582
39.506	0.418	0	UA_without_intermediate	2,3,0,0,0,0,0,0,0	practice	ward_and_allport	2,3,1,0,0,0,0,0,0	71.0	3.0	0.418	0,0,0,1,2,0,3,0,0	to_hand	s582
39.925	0.424	0	UA_without_intermediate	2,3,1,0,0,0,0,0,0	practice	ward_and_allport	2,3,1,0,0,0,0,0,0	89.0	3.0	0.424	0,0,0,1,2,0,3,0,0	to_board	s582
40.352	1.0	0	UA_without_intermediate	n/a	practice	ward_and_allport	n/a	-1.0	3.0	n/a	n/a	feedback	s582
41.352	1.0	0	UA_without_intermediate	n/a	practice	ward_and_allport	n/a	-1.0	3.0	n/a	n/a	ITI	s582
44.358	3.716	1	PA_with_intermediate	0,0,0,0,0,0,1,2,0	test	ward_and_allport	2,3,0,0,0,0,1,0,0	82.0	0.0	3.716	0,0,0,0,0,0,1,2,3	to_hand	s582
48.075	0.464	0	PA_with_intermediate	0,0,0,3,0,0,1,2,0	test	ward_and_allport	2,3,0,0,0,0,1,0,0	71.0	0.0	0.464	0,0,0,0,0,0,1,2,3	to_board	s582
48.543	0.979	0	PA_with_intermediate	0,0,0,3,0,0,1,0,0	test	ward_and_allport	2,3,0,0,0,0,1,0,0	82.0	0.0	0.979	0,0,0,0,0,0,1,2,3	to_hand	s582
49.523	0.367	0	PA_with_intermediate	2,0,0,3,0,0,1,0,0	test	ward_and_allport	2,3,0,0,0,0,1,0,0	89.0	0.0	0.367	0,0,0,0,0,0,1,2,3	to_board	s582
49.893	0.48	0	PA_with_intermediate	2,0,0,0,0,0,1,0,0	test	ward_and_allport	2,3,0,0,0,0,1,0,0	71.0	0.0	0.48	0,0,0,0,0,0,1,2,3	to_hand	s582
50.375	0.38	0	PA_with_intermediate	2,3,0,0,0,0,1,0,0	test	ward_and_allport	2,3,0,0,0,0,1,0,0	89.0	0.0	0.38	0,0,0,0,0,0,1,2,3	to_board	s582
50.762	1.0	0	PA_with_intermediate	n/a	test	ward_and_allport	n/a	-1.0	0.0	n/a	n/a	feedback	s582
51.762	3.176	0	PA_with_intermediate	n/a	test	ward_and_allport	n/a	-1.0	0.0	n/a	n/a	ITI	s582
54.941	2.428	1	PA_with_intermediate	0,0,0,1,2,0,0,0,0	test	ward_and_allport	2,0,0,1,3,0,0,0,0	71.0	1.0	2.428	0,0,0,1,2,3,0,0,0	to_hand	s582
57.37	0.45	0	PA_with_intermediate	0,0,0,1,2,0,3,0,0	test	ward_and_allport	2,0,0,1,3,0,0,0,0	82.0	1.0	0.45	0,0,0,1,2,3,0,0,0	to_board	s582
57.822	0.414	0	PA_with_intermediate	0,0,0,1,0,0,3,0,0	test	ward_and_allport	2,0,0,1,3,0,0,0,0	71.0	1.0	0.414	0,0,0,1,2,3,0,0,0	to_hand	s582
58.238	0.378	0	PA_with_intermediate	2,0,0,1,0,0,3,0,0	test	ward_and_allport	2,0,0,1,3,0,0,0,0	89.0	1.0	0.378	0,0,0,1,2,3,0,0,0	to_board	s582
58.617	0.572	0	PA_with_intermediate	2,0,0,1,0,0,0,0,0	test	ward_and_allport	2,0,0,1,3,0,0,0,0	82.0	1.0	0.572	0,0,0,1,2,3,0,0,0	to_hand	s582
59.191	0.402	0	PA_with_intermediate	2,0,0,1,3,0,0,0,0	test	ward_and_allport	2,0,0,1,3,0,0,0,0	71.0	1.0	0.402	0,0,0,1,2,3,0,0,0	to_board	s582
59.6	1.0	0	PA_with_intermediate	n/a	test	ward_and_allport	n/a	-1.0	1.0	n/a	n/a	feedback	s582
60.6	2.36	0	PA_with_intermediate	n/a	test	ward_and_allport	n/a	-1.0	1.0	n/a	n/a	ITI	s582
62.963	3.753	1	PA_with_intermediate	0,0,0,0,0,0,1,2,0	test	ward_and_allport	0,0,0,2,0,0,1,3,0	82.0	2.0	3.753	0,0,0,0,0,0,1,2,3	to_hand	s582
66.717	0.393	0	PA_with_intermediate	3,0,0,0,0,0,1,2,0	test	ward_and_allport	0,0,0,2,0,0,1,3,0	89.0	2.0	0.393	0,0,0,0,0,0,1,2,3	to_board	s582
67.113	1.008	0	PA_with_intermediate	3,0,0,0,0,0,1,0,0	test	ward_and_allport	0,0,0,2,0,0,1,3,0	82.0	2.0	1.008	0,0,0,0,0,0,1,2,3	to_hand	s582
68.122	0.393	0	PA_with_intermediate	3,0,0,2,0,0,1,0,0	test	ward_and_allport	0,0,0,2,0,0,1,3,0	71.0	2.0	0.393	0,0,0,0,0,0,1,2,3	to_board	s582
68.518	0.398	0	PA_with_intermediate	0,0,0,2,0,0,1,0,0	test	ward_and_allport	0,0,0,2,0,0,1,3,0	89.0	2.0	0.398	0,0,0,0,0,0,1,2,3	to_hand	s582
68.917	0.329	0	PA_with_intermediate	0,0,0,2,0,0,1,3,0	test	ward_and_allport	0,0,0,2,0,0,1,3,0	82.0	2.0	0.329	0,0,0,0,0,0,1,2,3	to_board	s582
69.249	1.0	0	PA_with_intermediate	n/a	test	ward_and_allport	n/a	-1.0	2.0	n/a	n/a	feedback	s582
70.249	1.0	0	PA_with_intermediate	n/a	test	ward_and_allport	n/a	-1.0	2.0	n/a	n/a	ITI	s582
71.252	3.077	1	PA_without_intermediate	0,0,0,0,0,0,1,2,0	test	ward_and_allport	3,2,0,1,0,0,0,0,0	82.0	3.0	3.077	0,0,0,0,0,0,1,2,3	to_hand	s582
74.331	0.346	0	PA_without_intermediate	3,0,0,0,0,0,1,2,0	test	ward_and_allport	3,2,0,1,0,0,0,0,0	89.0	3.0	0.346	0,0,0,0,0,0,1,2,3	to_board	s582
74.68	0.541	0	PA_without_intermediate	3,0,0,0,0,0,1,0,0	test	ward_and_allport	3,2,0,1,0,0,0,0,0	82.0	3.0	0.541	0,0,0,0,0,0,1,2,3	to_hand	s582
75.223	0.366	0	PA_without_intermediate	3,2,0,0,0,0,1,0,0	test	ward_and_allport	3,2,0,1,0,0,0,0,0	89.0	3.0	0.366	0,0,0,0,0,0,1,2,3	to_board	s582
75.592	0.773	0	PA_without_intermediate	3,2,0,0,0,0,0,0,0	test	ward_and_allport	3,2,0,1,0,0,0,0,0	82.0	3.0	0.773	0,0,0,0,0,0,1,2,3	to_hand	s582
76.366	0.451	0	PA_without_intermediate	3,2,0,1,0,0,0,0,0	test	ward_and_allport	3,2,0,1,0,0,0,0,0	71.0	3.0	0.451	0,0,0,0,0,0,1,2,3	to_board	s582
76.824	1.0	0	PA_without_intermediate	n/a	test	ward_and_allport	n/a	-1.0	3.0	n/a	n/a	feedback	s582
77.824	1.408	0	PA_without_intermediate	n/a	test	ward_and_allport	n/a	-1.0	3.0	n/a	n/a	ITI	s582
79.235	2.684	1	PA_with_intermediate	1,2,0,0,0,0,0,0,0	test	ward_and_allport	1,3,0,2,0,0,0,0,0	89.0	4.0	2.684	1,2,3,0,0,0,0,0,0	to_hand	s582
81.92	0.36	0	PA_with_intermediate	1,2,0,0,0,0,3,0,0	test	ward_and_allport	1,3,0,2,0,0,0,0,0	82.0	4.0	0.36	1,2,3,0,0,0,0,0,0	to_board	s582
82.285	0.534	0	PA_with_intermediate	1,0,0,0,0,0,3,0,0	test	ward_and_allport	1,3,0,2,0,0,0,0,0	89.0	4.0	0.534	1,2,3,0,0,0,0,0,0	to_hand	s582
82.821	0.367	0	PA_with_intermediate	1,0,0,2,0,0,3,0,0	test	ward_and_allport	1,3,0,2,0,0,0,0,0	71.0	4.0	0.367	1,2,3,0,0,0,0,0,0	to_board	s582
83.192	0.49	0	PA_with_intermediate	1,0,0,2,0,0,0,0,0	test	ward_and_allport	1,3,0,2,0,0,0,0,0	82.0	4.0	0.49	1,2,3,0,0,0,0,0,0	to_hand	s582
83.684	0.379	0	PA_with_intermediate	1,3,0,2,0,0,0,0,0	test	ward_and_allport	1,3,0,2,0,0,0,0,0	89.0	4.0	0.379	1,2,3,0,0,0,0,0,0	to_board	s582
84.07	1.0	0	PA_with_intermediate	n/a	test	ward_and_allport	n/a	-1.0	4.0	n/a	n/a	feedback	s582
85.07	1.816	0	PA_with_intermediate	n/a	test	ward_and_allport	n/a	-1.0	4.0	n/a	n/a	ITI	s582
86.889	2.47	1	PA_without_intermediate	0,0,0,1,2,0,0,0,0	test	ward_and_allport	3,2,0,0,0,0,1,0,0	71.0	5.0	2.47	0,0,0,1,2,3,0,0,0	to_hand	s582
89.36	0.397	0	PA_without_intermediate	3,0,0,1,2,0,0,0,0	test	ward_and_allport	3,2,0,0,0,0,1,0,0	89.0	5.0	0.397	0,0,0,1,2,3,0,0,0	to_board	s582
89.762	0.637	0	PA_without_intermediate	3,0,0,1,0,0,0,0,0	test	ward_and_allport	3,2,0,0,0,0,1,0,0	71.0	5.0	0.637	0,0,0,1,2,3,0,0,0	to_hand	s582
90.4	0.306	0	PA_without_intermediate	3,2,0,1,0,0,0,0,0	test	ward_and_allport	3,2,0,0,0,0,1,0,0	89.0	5.0	0.306	0,0,0,1,2,3,0,0,0	to_board	s582
90.708	0.466	0	PA_without_intermediate	3,2,0,0,0,0,0,0,0	test	ward_and_allport	3,2,0,0,0,0,1,0,0	71.0	5.0	0.466	0,0,0,1,2,3,0,0,0	to_hand	s582
91.175	0.283	0	PA_without_intermediate	3,2,0,0,0,0,1,0,0	test	ward_and_allport	3,2,0,0,0,0,1,0,0	82.0	5.0	0.283	0,0,0,1,2,3,0,0,0	to_board	s582
91.463	1.0	0	PA_without_intermediate	n/a	test	ward_and_allport	n/a	-1.0	5.0	n/a	n/a	feedback	s582
92.463	2.088	0	PA_without_intermediate	n/a	test	ward_and_allport	n/a	-1.0	5.0	n/a	n/a	ITI	s582
94.554	2.982	1	PA_without_intermediate	0,0,0,0,0,0,1,2,0	test	ward_and_allport	2,0,0,3,1,0,0,0,0	82.0	6.0	2.982	0,0,0,0,0,0,1,2,3	to_hand	s582
97.537	0.347	0	PA_without_intermediate	0,0,0,3,0,0,1,2,0	test	ward_and_allport	2,0,0,3,1,0,0,0,0	71.0	6.0	0.347	0,0,0,0,0,0,1,2,3	to_board	s582
97.888	0.672	0	PA_without_intermediate	0,0,0,3,0,0,1,0,0	test	ward_and_allport	2,0,0,3,1,0,0,0,0	82.0	6.0	0.672	0,0,0,0,0,0,1,2,3	to_hand	s582
98.561	0.269	0	PA_without_intermediate	2,0,0,3,0,0,1,0,0	test	ward_and_allport	2,0,0,3,1,0,0,0,0	89.0	6.0	0.269	0,0,0,0,0,0,1,2,3	to_board	s582
98.833	1.748	0	PA_without_intermediate	2,0,0,3,0,0,0,0,0	test	ward_and_allport	2,0,0,3,1,0,0,0,0	82.0	6.0	1.748	0,0,0,0,0,0,1,2,3	to_hand	s582
100.583	0.452	0	PA_without_intermediate	2,0,0,3,1,0,0,0,0	test	ward_and_allport	2,0,0,3,1,0,0,0,0	71.0	6.0	0.452	0,0,0,0,0,0,1,2,3	to_board	s582
101.039	1.0	0	PA_without_intermediate	n/a	test	ward_and_allport	n/a	-1.0	6.0	n/a	n/a	feedback	s582
102.039	1.136	0	PA_without_intermediate	n/a	test	ward_and_allport	n/a	-1.0	6.0	n/a	n/a	ITI	s582
103.179	2.564	1	PA_without_intermediate	0,0,0,0,0,0,1,2,0	test	ward_and_allport	2,0,0,3,1,0,0,0,0	82.0	7.0	2.564	0,0,0,0,0,0,1,2,3	to_hand	s582
105.744	0.385	0	PA_without_intermediate	0,0,0,3,0,0,1,2,0	test	ward_and_allport	2,0,0,3,1,0,0,0,0	71.0	7.0	0.385	0,0,0,0,0,0,1,2,3	to_board	s582
106.134	0.673	0	PA_without_intermediate	0,0,0,3,0,0,1,0,0	test	ward_and_allport	2,0,0,3,1,0,0,0,0	82.0	7.0	0.673	0,0,0,0,0,0,1,2,3	to_hand	s582
106.808	0.368	0	PA_without_intermediate	2,0,0,3,0,0,1,0,0	test	ward_and_allport	2,0,0,3,1,0,0,0,0	89.0	7.0	0.368	0,0,0,0,0,0,1,2,3	to_board	s582
107.18	1.065	0	PA_without_intermediate	2,0,0,3,0,0,0,0,0	test	ward_and_allport	2,0,0,3,1,0,0,0,0	82.0	7.0	1.065	0,0,0,0,0,0,1,2,3	to_hand	s582
108.247	0.252	0	PA_without_intermediate	2,0,0,3,1,0,0,0,0	test	ward_and_allport	2,0,0,3,1,0,0,0,0	71.0	7.0	0.252	0,0,0,0,0,0,1,2,3	to_board	s582
108.506	1.0	0	PA_without_intermediate	n/a	test	ward_and_allport	n/a	-1.0	7.0	n/a	n/a	feedback	s582
109.506	6.168	0	PA_without_intermediate	n/a	test	ward_and_allport	n/a	-1.0	7.0	n/a	n/a	ITI	s582
115.679	1.719	1	PA_without_intermediate	0,0,0,1,2,0,0,0,0	test	ward_and_allport	1,0,0,0,0,0,3,2,0	71.0	8.0	1.719	0,0,0,1,2,3,0,0,0	to_hand	s582
117.399	0.439	0	PA_without_intermediate	0,0,0,1,2,0,3,0,0	test	ward_and_allport	1,0,0,0,0,0,3,2,0	82.0	8.0	0.439	0,0,0,1,2,3,0,0,0	to_board	s582
117.841	0.794	0	PA_without_intermediate	0,0,0,1,0,0,3,0,0	test	ward_and_allport	1,0,0,0,0,0,3,2,0	71.0	8.0	0.794	0,0,0,1,2,3,0,0,0	to_hand	s582
118.637	0.367	0	PA_without_intermediate	0,0,0,1,0,0,3,2,0	test	ward_and_allport	1,0,0,0,0,0,3,2,0	82.0	8.0	0.367	0,0,0,1,2,3,0,0,0	to_board	s582
119.008	0.494	0	PA_without_intermediate	0,0,0,0,0,0,3,2,0	test	ward_and_allport	1,0,0,0,0,0,3,2,0	71.0	8.0	0.494	0,0,0,1,2,3,0,0,0	to_hand	s582
119.504	0.264	0	PA_without_intermediate	1,0,0,0,0,0,3,2,0	test	ward_and_allport	1,0,0,0,0,0,3,2,0	89.0	8.0	0.264	0,0,0,1,2,3,0,0,0	to_board	s582
119.776	1.0	0	PA_without_intermediate	n/a	test	ward_and_allport	n/a	-1.0	8.0	n/a	n/a	feedback	s582
120.776	1.816	0	PA_without_intermediate	n/a	test	ward_and_allport	n/a	-1.0	8.0	n/a	n/a	ITI	s582
122.595	2.627	1	PA_with_intermediate	1,2,0,0,0,0,0,0,0	test	ward_and_allport	1,0,0,2,3,0,0,0,0	89.0	9.0	2.627	1,2,3,0,0,0,0,0,0	to_hand	s582
125.224	0.282	0	PA_with_intermediate	1,2,0,0,0,0,3,0,0	test	ward_and_allport	1,0,0,2,3,0,0,0,0	82.0	9.0	0.282	1,2,3,0,0,0,0,0,0	to_board	s582
125.51	0.313	0	PA_with_intermediate	1,0,0,0,0,0,3,0,0	test	ward_and_allport	1,0,0,2,3,0,0,0,0	89.0	9.0	0.313	1,2,3,0,0,0,0,0,0	to_hand	s582
125.825	0.728	0	PA_with_intermediate	1,0,0,2,0,0,3,0,0	test	ward_and_allport	1,0,0,2,3,0,0,0,0	71.0	9.0	0.728	1,2,3,0,0,0,0,0,0	to_board	s582
126.557	0.456	0	PA_with_intermediate	1,0,0,2,0,0,0,0,0	test	ward_and_allport	1,0,0,2,3,0,0,0,0	82.0	9.0	0.456	1,2,3,0,0,0,0,0,0	to_hand	s582
127.015	0.286	0	PA_with_intermediate	1,0,0,2,3,0,0,0,0	test	ward_and_allport	1,0,0,2,3,0,0,0,0	71.0	9.0	0.286	1,2,3,0,0,0,0,0,0	to_board	s582
127.305	1.0	0	PA_with_intermediate	n/a	test	ward_and_allport	n/a	-1.0	9.0	n/a	n/a	feedback	s582
128.305	1.952	0	PA_with_intermediate	n/a	test	ward_and_allport	n/a	-1.0	9.0	n/a	n/a	ITI	s582
130.264	2.383	1	PA_with_intermediate	0,0,0,0,0,0,1,2,0	test	ward_and_allport	2,3,0,0,0,0,1,0,0	82.0	10.0	2.383	0,0,0,0,0,0,1,2,3	to_hand	s582
132.648	0.283	0	PA_with_intermediate	0,0,0,3,0,0,1,2,0	test	ward_and_allport	2,3,0,0,0,0,1,0,0	71.0	10.0	0.283	0,0,0,0,0,0,1,2,3	to_board	s582
132.936	0.348	0	PA_with_intermediate	0,0,0,3,0,0,1,0,0	test	ward_and_allport	2,3,0,0,0,0,1,0,0	82.0	10.0	0.348	0,0,0,0,0,0,1,2,3	to_hand	s582
133.287	0.3	0	PA_with_intermediate	2,0,0,3,0,0,1,0,0	test	ward_and_allport	2,3,0,0,0,0,1,0,0	89.0	10.0	0.3	0,0,0,0,0,0,1,2,3	to_board	s582
133.593	0.704	0	PA_with_intermediate	2,0,0,0,0,0,1,0,0	test	ward_and_allport	2,3,0,0,0,0,1,0,0	71.0	10.0	0.704	0,0,0,0,0,0,1,2,3	to_hand	s582
134.298	0.226	0	PA_with_intermediate	2,3,0,0,0,0,1,0,0	test	ward_and_allport	2,3,0,0,0,0,1,0,0	89.0	10.0	0.226	0,0,0,0,0,0,1,2,3	to_board	s582
134.529	1.0	0	PA_with_intermediate	n/a	test	ward_and_allport	n/a	-1.0	10.0	n/a	n/a	feedback	s582
135.529	1.136	0	PA_with_intermediate	n/a	test	ward_and_allport	n/a	-1.0	10.0	n/a	n/a	ITI	s582
136.671	1.37	1	PA_without_intermediate	0,0,0,0,0,0,1,2,0	test	ward_and_allport	3,1,0,2,0,0,0,0,0	82.0	11.0	1.37	0,0,0,0,0,0,1,2,3	to_hand	s582
138.043	0.422	0	PA_without_intermediate	3,0,0,0,0,0,1,2,0	test	ward_and_allport	3,1,0,2,0,0,0,0,0	89.0	11.0	0.422	0,0,0,0,0,0,1,2,3	to_board	s582
138.469	0.501	0	PA_without_intermediate	3,0,0,0,0,0,1,0,0	test	ward_and_allport	3,1,0,2,0,0,0,0,0	82.0	11.0	0.501	0,0,0,0,0,0,1,2,3	to_hand	s582
138.972	0.324	0	PA_without_intermediate	3,0,0,2,0,0,1,0,0	test	ward_and_allport	3,1,0,2,0,0,0,0,0	71.0	11.0	0.324	0,0,0,0,0,0,1,2,3	to_board	s582
139.302	0.507	0	PA_without_intermediate	3,0,0,2,0,0,0,0,0	test	ward_and_allport	3,1,0,2,0,0,0,0,0	82.0	11.0	0.507	0,0,0,0,0,0,1,2,3	to_hand	s582
139.811	0.266	0	PA_without_intermediate	3,1,0,2,0,0,0,0,0	test	ward_and_allport	3,1,0,2,0,0,0,0,0	89.0	11.0	0.266	0,0,0,0,0,0,1,2,3	to_board	s582
140.085	1.0	0	PA_without_intermediate	n/a	test	ward_and_allport	n/a	-1.0	11.0	n/a	n/a	feedback	s582
141.085	1.68	0	PA_without_intermediate	n/a	test	ward_and_allport	n/a	-1.0	11.0	n/a	n/a	ITI	s582
142.77	2.85	1	PA_without_intermediate	0,0,0,0,0,0,1,2,0	test	ward_and_allport	3,2,0,1,0,0,0,0,0	82.0	12.0	2.85	0,0,0,0,0,0,1,2,3	to_hand	s582
145.622	0.322	0	PA_without_intermediate	3,0,0,0,0,0,1,2,0	test	ward_and_allport	3,2,0,1,0,0,0,0,0	89.0	12.0	0.322	0,0,0,0,0,0,1,2,3	to_board	s582
145.95	0.314	0	PA_without_intermediate	3,0,0,0,0,0,1,0,0	test	ward_and_allport	3,2,0,1,0,0,0,0,0	82.0	12.0	0.314	0,0,0,0,0,0,1,2,3	to_hand	s582
146.266	0.323	0	PA_without_intermediate	3,2,0,0,0,0,1,0,0	test	ward_and_allport	3,2,0,1,0,0,0,0,0	89.0	12.0	0.323	0,0,0,0,0,0,1,2,3	to_board	s582
146.596	0.306	0	PA_without_intermediate	3,2,0,0,0,0,0,0,0	test	ward_and_allport	3,2,0,1,0,0,0,0,0	82.0	12.0	0.306	0,0,0,0,0,0,1,2,3	to_hand	s582
146.904	0.249	0	PA_without_intermediate	3,2,0,1,0,0,0,0,0	test	ward_and_allport	3,2,0,1,0,0,0,0,0	71.0	12.0	0.249	0,0,0,0,0,0,1,2,3	to_board	s582
147.163	1.0	0	PA_without_intermediate	n/a	test	ward_and_allport	n/a	-1.0	12.0	n/a	n/a	feedback	s582
148.163	2.088	0	PA_without_intermediate	n/a	test	ward_and_allport	n/a	-1.0	12.0	n/a	n/a	ITI	s582
150.255	2.367	1	PA_with_intermediate	0,0,0,0,0,0,1,2,0	test	ward_and_allport	0,0,0,2,3,0,1,0,0	82.0	13.0	2.367	0,0,0,0,0,0,1,2,3	to_hand	s582
152.624	0.308	0	PA_with_intermediate	3,0,0,0,0,0,1,2,0	test	ward_and_allport	0,0,0,2,3,0,1,0,0	89.0	13.0	0.308	0,0,0,0,0,0,1,2,3	to_board	s582
152.935	0.339	0	PA_with_intermediate	3,0,0,0,0,0,1,0,0	test	ward_and_allport	0,0,0,2,3,0,1,0,0	82.0	13.0	0.339	0,0,0,0,0,0,1,2,3	to_hand	s582
153.275	0.331	0	PA_with_intermediate	3,0,0,2,0,0,1,0,0	test	ward_and_allport	0,0,0,2,3,0,1,0,0	71.0	13.0	0.331	0,0,0,0,0,0,1,2,3	to_board	s582
153.611	0.354	0	PA_with_intermediate	0,0,0,2,0,0,1,0,0	test	ward_and_allport	0,0,0,2,3,0,1,0,0	89.0	13.0	0.354	0,0,0,0,0,0,1,2,3	to_hand	s582
153.966	0.327	0	PA_with_intermediate	0,0,0,2,3,0,1,0,0	test	ward_and_allport	0,0,0,2,3,0,1,0,0	71.0	13.0	0.327	0,0,0,0,0,0,1,2,3	to_board	s582
154.302	1.0	0	PA_with_intermediate	n/a	test	ward_and_allport	n/a	-1.0	13.0	n/a	n/a	feedback	s582
155.302	1.0	0	PA_with_intermediate	n/a	test	ward_and_allport	n/a	-1.0	13.0	n/a	n/a	ITI	s582
156.306	2.531	1	PA_without_intermediate	1,2,0,0,0,0,0,0,0	test	ward_and_allport	0,0,0,3,1,0,2,0,0	89.0	14.0	2.531	1,2,3,0,0,0,0,0,0	to_hand	s582
158.839	0.285	0	PA_without_intermediate	1,2,0,3,0,0,0,0,0	test	ward_and_allport	0,0,0,3,1,0,2,0,0	71.0	14.0	0.285	1,2,3,0,0,0,0,0,0	to_board	s582
159.13	0.431	0	PA_without_intermediate	1,0,0,3,0,0,0,0,0	test	ward_and_allport	0,0,0,3,1,0,2,0,0	89.0	14.0	0.431	1,2,3,0,0,0,0,0,0	to_hand	s582
159.563	0.331	0	PA_without_intermediate	1,0,0,3,0,0,2,0,0	test	ward_and_allport	0,0,0,3,1,0,2,0,0	82.0	14.0	0.331	1,2,3,0,0,0,0,0,0	to_board	s582
159.899	0.415	0	PA_without_intermediate	0,0,0,3,0,0,2,0,0	test	ward_and_allport	0,0,0,3,1,0,2,0,0	89.0	14.0	0.415	1,2,3,0,0,0,0,0,0	to_hand	s582
160.315	0.26	0	PA_without_intermediate	0,0,0,3,1,0,2,0,0	test	ward_and_allport	0,0,0,3,1,0,2,0,0	71.0	14.0	0.26	1,2,3,0,0,0,0,0,0	to_board	s582
160.582	1.0	0	PA_without_intermediate	n/a	test	ward_and_allport	n/a	-1.0	14.0	n/a	n/a	feedback	s582
161.582	1.0	0	PA_without_intermediate	n/a	test	ward_and_allport	n/a	-1.0	14.0	n/a	n/a	ITI	s582
167.592	2.392	1	PA_without_intermediate	1,2,0,0,0,0,0,0,0	test	ward_and_allport	0,0,0,1,0,0,3,2,0	89.0	15.0	2.392	1,2,3,0,0,0,0,0,0	to_hand	s582
169.985	0.233	0	PA_without_intermediate	1,2,0,0,0,0,3,0,0	test	ward_and_allport	0,0,0,1,0,0,3,2,0	82.0	15.0	0.233	1,2,3,0,0,0,0,0,0	to_board	s582
170.224	0.241	0	PA_without_intermediate	1,0,0,0,0,0,3,0,0	test	ward_and_allport	0,0,0,1,0,0,3,2,0	89.0	15.0	0.241	1,2,3,0,0,0,0,0,0	to_hand	s582
170.466	0.271	0	PA_without_intermediate	1,0,0,0,0,0,3,2,0	test	ward_and_allport	0,0,0,1,0,0,3,2,0	82.0	15.0	0.271	1,2,3,0,0,0,0,0,0	to_board	s582
170.742	0.252	0	PA_without_intermediate	0,0,0,0,0,0,3,2,0	test	ward_and_allport	0,0,0,1,0,0,3,2,0	89.0	15.0	0.252	1,2,3,0,0,0,0,0,0	to_hand	s582
170.995	0.177	0	PA_without_intermediate	0,0,0,1,0,0,3,2,0	test	ward_and_allport	0,0,0,1,0,0,3,2,0	71.0	15.0	0.177	1,2,3,0,0,0,0,0,0	to_board	s582
171.182	1.0	0	PA_without_intermediate	n/a	test	ward_and_allport	n/a	-1.0	15.0	n/a	n/a	feedback	s582
172.182	1.0	0	PA_without_intermediate	n/a	test	ward_and_allport	n/a	-1.0	15.0	n/a	n/a	ITI	s582
173.187	3.181	1	PA_with_intermediate	0,0,0,1,2,0,0,0,0	test	ward_and_allport	2,0,0,1,3,0,0,0,0	71.0	16.0	3.181	0,0,0,1,2,3,0,0,0	to_hand	s582
176.369	0.273	0	PA_with_intermediate	0,0,0,1,2,0,3,0,0	test	ward_and_allport	2,0,0,1,3,0,0,0,0	82.0	16.0	0.273	0,0,0,1,2,3,0,0,0	to_board	s582
176.647	0.331	0	PA_with_intermediate	0,0,0,1,0,0,3,0,0	test	ward_and_allport	2,0,0,1,3,0,0,0,0	71.0	16.0	0.331	0,0,0,1,2,3,0,0,0	to_hand	s582
176.98	0.325	0	PA_with_intermediate	2,0,0,1,0,0,3,0,0	test	ward_and_allport	2,0,0,1,3,0,0,0,0	89.0	16.0	0.325	0,0,0,1,2,3,0,0,0	to_board	s582
177.312	0.476	0	PA_with_intermediate	2,0,0,1,0,0,0,0,0	test	ward_and_allport	2,0,0,1,3,0,0,0,0	82.0	16.0	0.476	0,0,0,1,2,3,0,0,0	to_hand	s582
177.789	0.306	0	PA_with_intermediate	2,0,0,1,3,0,0,0,0	test	ward_and_allport	2,0,0,1,3,0,0,0,0	71.0	16.0	0.306	0,0,0,1,2,3,0,0,0	to_board	s582
178.105	1.0	0	PA_with_intermediate	n/a	test	ward_and_allport	n/a	-1.0	16.0	n/a	n/a	feedback	s582
179.105	1.544	0	PA_with_intermediate	n/a	test	ward_and_allport	n/a	-1.0	16.0	n/a	n/a	ITI	s582
180.653	2.513	1	PA_without_intermediate	0,0,0,1,2,0,0,0,0	test	ward_and_allport	1,0,0,0,0,0,3,2,0	71.0	17.0	2.513	0,0,0,1,2,3,0,0,0	to_hand	s582
183.167	0.187	0	PA_without_intermediate	0,0,0,1,2,0,3,0,0	test	ward_and_allport	1,0,0,0,0,0,3,2,0	82.0	17.0	0.187	0,0,0,1,2,3,0,0,0	to_board	s582
183.36	0.22	0	PA_without_intermediate	0,0,0,1,0,0,3,0,0	test	ward_and_allport	1,0,0,0,0,0,3,2,0	71.0	17.0	0.22	0,0,0,1,2,3,0,0,0	to_hand	s582
183.581	0.22	0	PA_without_intermediate	0,0,0,1,0,0,3,2,0	test	ward_and_allport	1,0,0,0,0,0,3,2,0	82.0	17.0	0.22	0,0,0,1,2,3,0,0,0	to_board	s582
183.807	0.209	0	PA_without_intermediate	0,0,0,0,0,0,3,2,0	test	ward_and_allport	1,0,0,0,0,0,3,2,0	71.0	17.0	0.209	0,0,0,1,2,3,0,0,0	to_hand	s582
184.017	0.172	0	PA_without_intermediate	1,0,0,0,0,0,3,2,0	test	ward_and_allport	1,0,0,0,0,0,3,2,0	89.0	17.0	0.172	0,0,0,1,2,3,0,0,0	to_board	s582
184.196	1.0	0	PA_without_intermediate	n/a	test	ward_and_allport	n/a	-1.0	17.0	n/a	n/a	feedback	s582
185.196	1.272	0	PA_without_intermediate	n/a	test	ward_and_allport	n/a	-1.0	17.0	n/a	n/a	ITI	s582
186.473	2.457	1	PA_with_intermediate	1,2,0,0,0,0,0,0,0	test	ward_and_allport	1,0,0,2,3,0,0,0,0	89.0	18.0	2.457	1,2,3,0,0,0,0,0,0	to_hand	s582
188.932	0.188	0	PA_with_intermediate	1,2,0,0,0,0,3,0,0	test	ward_and_allport	1,0,0,2,3,0,0,0,0	82.0	18.0	0.188	1,2,3,0,0,0,0,0,0	to_board	s582
189.125	0.286	0	PA_with_intermediate	1,0,0,0,0,0,3,0,0	test	ward_and_allport	1,0,0,2,3,0,0,0,0	89.0	18.0	0.286	1,2,3,0,0,0,0,0,0	to_hand	s582
189.413	0.234	0	PA_with_intermediate	1,0,0,2,0,0,3,0,0	test	ward_and_allport	1,0,0,2,3,0,0,0,0	71.0	18.0	0.234	1,2,3,0,0,0,0,0,0	to_board	s582
189.651	0.344	0	PA_with_intermediate	1,0,0,2,0,0,0,0,0	test	ward_and_allport	1,0,0,2,3,0,0,0,0	82.0	18.0	0.344	1,2,3,0,0,0,0,0,0	to_hand	s582
189.997	0.225	0	PA_with_intermediate	1,0,0,2,3,0,0,0,0	test	ward_and_allport	1,0,0,2,3,0,0,0,0	71.0	18.0	0.225	1,2,3,0,0,0,0,0,0	to_board	s582
190.231	1.0	0	PA_with_intermediate	n/a	test	ward_and_allport	n/a	-1.0	18.0	n/a	n/a	feedback	s582
191.231	3.04	0	PA_with_intermediate	n/a	test	ward_and_allport	n/a	-1.0	18.0	n/a	n/a	ITI	s582
194.277	3.266	1	PA_with_intermediate	1,2,0,0,0,0,0,0,0	test	ward_and_allport	1,3,0,2,0,0,0,0,0	89.0	19.0	3.266	1,2,3,0,0,0,0,0,0	to_hand	s582
197.544	0.255	0	PA_with_intermediate	1,2,0,0,0,0,3,0,0	test	ward_and_allport	1,3,0,2,0,0,0,0,0	82.0	19.0	0.255	1,2,3,0,0,0,0,0,0	to_board	s582
197.805	0.237	0	PA_with_intermediate	1,0,0,0,0,0,3,0,0	test	ward_and_allport	1,3,0,2,0,0,0,0,0	89.0	19.0	0.237	1,2,3,0,0,0,0,0,0	to_hand	s582
198.043	0.29	0	PA_with_intermediate	1,0,0,2,0,0,3,0,0	test	ward_and_allport	1,3,0,2,0,0,0,0,0	71.0	19.0	0.29	1,2,3,0,0,0,0,0,0	to_board	s582
198.339	0.334	0	PA_with_intermediate	1,0,0,2,0,0,0,0,0	test	ward_and_allport	1,3,0,2,0,0,0,0,0	82.0	19.0	0.334	1,2,3,0,0,0,0,0,0	to_hand	s582
198.674	0.208	0	PA_with_intermediate	1,3,0,2,0,0,0,0,0	test	ward_and_allport	1,3,0,2,0,0,0,0,0	89.0	19.0	0.208	1,2,3,0,0,0,0,0,0	to_board	s582
198.89	1.0	0	PA_with_intermediate	n/a	test	ward_and_allport	n/a	-1.0	19.0	n/a	n/a	feedback	s582
199.89	1.272	0	PA_with_intermediate	n/a	test	ward_and_allport	n/a	-1.0	19.0	n/a	n/a	ITI	s582
201.168	2.706	1	PA_with_intermediate	0,0,0,0,0,0,1,2,0	test	ward_and_allport	2,0,0,0,0,0,1,3,0	82.0	20.0	2.706	0,0,0,0,0,0,1,2,3	to_hand	s582
203.875	0.342	0	PA_with_intermediate	0,0,0,3,0,0,1,2,0	test	ward_and_allport	2,0,0,0,0,0,1,3,0	71.0	20.0	0.342	0,0,0,0,0,0,1,2,3	to_board	s582
204.224	0.237	0	PA_with_intermediate	0,0,0,3,0,0,1,0,0	test	ward_and_allport	2,0,0,0,0,0,1,3,0	82.0	20.0	0.237	0,0,0,0,0,0,1,2,3	to_hand	s582
204.462	0.27	0	PA_with_intermediate	2,0,0,3,0,0,1,0,0	test	ward_and_allport	2,0,0,0,0,0,1,3,0	89.0	20.0	0.27	0,0,0,0,0,0,1,2,3	to_board	s582
204.738	0.673	0	PA_with_intermediate	2,0,0,0,0,0,1,0,0	test	ward_and_allport	2,0,0,0,0,0,1,3,0	71.0	20.0	0.673	0,0,0,0,0,0,1,2,3	to_hand	s582
205.413	0.232	0	PA_with_intermediate	2,0,0,0,0,0,1,3,0	test	ward_and_allport	2,0,0,0,0,0,1,3,0	82.0	20.0	0.232	0,0,0,0,0,0,1,2,3	to_board	s582
205.653	1.0	0	PA_with_intermediate	n/a	test	ward_and_allport	n/a	-1.0	20.0	n/a	n/a	feedback	s582
206.653	1.136	0	PA_with_intermediate	n/a	test	ward_and_allport	n/a	-1.0	20.0	n/a	n/a	ITI	s582
207.795	3.026	1	PA_with_intermediate	0,0,0,1,2,0,0,0,0	test	ward_and_allport	0,0,0,1,0,0,2,3,0	71.0	21.0	3.026	0,0,0,1,2,3,0,0,0	to_hand	s582
210.823	0.251	0	PA_with_intermediate	3,0,0,1,2,0,0,0,0	test	ward_and_allport	0,0,0,1,0,0,2,3,0	89.0	21.0	0.251	0,0,0,1,2,3,0,0,0	to_board	s582
211.079	0.265	0	PA_with_intermediate	3,0,0,1,0,0,0,0,0	test	ward_and_allport	0,0,0,1,0,0,2,3,0	71.0	21.0	0.265	0,0,0,1,2,3,0,0,0	to_hand	s582
211.345	0.265	0	PA_with_intermediate	3,0,0,1,0,0,2,0,0	test	ward_and_allport	0,0,0,1,0,0,2,3,0	82.0	21.0	0.265	0,0,0,1,2,3,0,0,0	to_board	s582
211.617	0.228	0	PA_with_intermediate	0,0,0,1,0,0,2,0,0	test	ward_and_allport	0,0,0,1,0,0,2,3,0	89.0	21.0	0.228	0,0,0,1,2,3,0,0,0	to_hand	s582
211.847	0.221	0	PA_with_intermediate	0,0,0,1,0,0,2,3,0	test	ward_and_allport	0,0,0,1,0,0,2,3,0	82.0	21.0	0.221	0,0,0,1,2,3,0,0,0	to_board	s582
212.079	1.0	0	PA_with_intermediate	n/a	test	ward_and_allport	n/a	-1.0	21.0	n/a	n/a	feedback	s582
213.079	1.0	0	PA_with_intermediate	n/a	test	ward_and_allport	n/a	-1.0	21.0	n/a	n/a	ITI	s582
214.085	3.211	1	PA_with_intermediate	1,2,0,0,0,0,0,0,0	test	ward_and_allport	1,3,0,0,0,0,2,0,0	89.0	22.0	3.211	1,2,3,0,0,0,0,0,0	to_hand	s582
217.298	0.189	0	PA_with_intermediate	1,2,0,3,0,0,0,0,0	test	ward_and_allport	1,3,0,0,0,0,2,0,0	71.0	22.0	0.189	1,2,3,0,0,0,0,0,0	to_board	s582
217.494	0.316	0	PA_with_intermediate	1,0,0,3,0,0,0,0,0	test	ward_and_allport	1,3,0,0,0,0,2,0,0	89.0	22.0	0.316	1,2,3,0,0,0,0,0,0	to_hand	s582
217.81	0.245	0	PA_with_intermediate	1,0,0,3,0,0,2,0,0	test	ward_and_allport	1,3,0,0,0,0,2,0,0	82.0	22.0	0.245	1,2,3,0,0,0,0,0,0	to_board	s582
218.063	0.402	0	PA_with_intermediate	1,0,0,0,0,0,2,0,0	test	ward_and_allport	1,3,0,0,0,0,2,0,0	71.0	22.0	0.402	1,2,3,0,0,0,0,0,0	to_hand	s582
218.466	0.325	0	PA_with_intermediate	1,3,0,0,0,0,2,0,0	test	ward_and_allport	1,3,0,0,0,0,2,0,0	89.0	22.0	0.325	1,2,3,0,0,0,0,0,0	to_board	s582
218.8	1.0	0	PA_with_intermediate	n/a	test	ward_and_allport	n/a	-1.0	22.0	n/a	n/a	feedback	s582
219.8	1.0	0	PA_with_intermediate	n/a	test	ward_and_allport	n/a	-1.0	22.0	n/a	n/a	ITI	s582
220.807	2.127	1	PA_without_intermediate	1,2,0,0,0,0,0,0,0	test	ward_and_allport	0,0,0,3,2,0,1,0,0	89.0	23.0	2.127	1,2,3,0,0,0,0,0,0	to_hand	s582
222.936	0.27	0	PA_without_intermediate	1,2,0,3,0,0,0,0,0	test	ward_and_allport	0,0,0,3,2,0,1,0,0	71.0	23.0	0.27	1,2,3,0,0,0,0,0,0	to_board	s582
223.214	0.239	0	PA_without_intermediate	1,0,0,3,0,0,0,0,0	test	ward_and_allport	0,0,0,3,2,0,1,0,0	89.0	23.0	0.239	1,2,3,0,0,0,0,0,0	to_hand	s582
223.454	0.235	0	PA_without_intermediate	1,0,0,3,2,0,0,0,0	test	ward_and_allport	0,0,0,3,2,0,1,0,0	71.0	23.0	0.235	1,2,3,0,0,0,0,0,0	to_board	s582
223.697	0.378	0	PA_without_intermediate	0,0,0,3,2,0,0,0,0	test	ward_and_allport	0,0,0,3,2,0,1,0,0	89.0	23.0	0.378	1,2,3,0,0,0,0,0,0	to_hand	s582
224.076	0.251	0	PA_without_intermediate	0,0,0,3,2,0,1,0,0	test	ward_and_allport	0,0,0,3,2,0,1,0,0	82.0	23.0	0.251	1,2,3,0,0,0,0,0,0	to_board	s582
224.338	1.0	0	PA_without_intermediate	n/a	test	ward_and_allport	n/a	-1.0	23.0	n/a	n/a	feedback	s582
225.338	1.408	0	PA_without_intermediate	n/a	test	ward_and_allport	n/a	-1.0	23.0	n/a	n/a	ITI	s582
226.754	1.843	1	PA_with_intermediate	0,0,0,1,2,0,0,0,0	test	ward_and_allport	0,0,0,1,0,0,2,3,0	71.0	24.0	1.843	0,0,0,1,2,3,0,0,0	to_hand	s582
228.598	0.207	0	PA_with_intermediate	3,0,0,1,2,0,0,0,0	test	ward_and_allport	0,0,0,1,0,0,2,3,0	89.0	24.0	0.207	0,0,0,1,2,3,0,0,0	to_board	s582
228.813	0.289	0	PA_with_intermediate	3,0,0,1,0,0,0,0,0	test	ward_and_allport	0,0,0,1,0,0,2,3,0	71.0	24.0	0.289	0,0,0,1,2,3,0,0,0	to_hand	s582
229.103	0.281	0	PA_with_intermediate	3,0,0,1,0,0,2,0,0	test	ward_and_allport	0,0,0,1,0,0,2,3,0	82.0	24.0	0.281	0,0,0,1,2,3,0,0,0	to_board	s582
229.392	0.234	0	PA_with_intermediate	0,0,0,1,0,0,2,0,0	test	ward_and_allport	0,0,0,1,0,0,2,3,0	89.0	24.0	0.234	0,0,0,1,2,3,0,0,0	to_hand	s582
229.627	0.263	0	PA_with_intermediate	0,0,0,1,0,0,2,3,0	test	ward_and_allport	0,0,0,1,0,0,2,3,0	82.0	24.0	0.263	0,0,0,1,2,3,0,0,0	to_board	s582
229.901	1.0	0	PA_with_intermediate	n/a	test	ward_and_allport	n/a	-1.0	24.0	n/a	n/a	feedback	s582
230.901	2.768	0	PA_with_intermediate	n/a	test	ward_and_allport	n/a	-1.0	24.0	n/a	n/a	ITI	s582
233.678	3.247	1	PA_with_intermediate	0,0,0,1,2,0,0,0,0	test	ward_and_allport	2,3,0,1,0,0,0,0,0	71.0	25.0	3.247	0,0,0,1,2,3,0,0,0	to_hand	s582
236.926	0.201	0	PA_with_intermediate	0,0,0,1,2,0,3,0,0	test	ward_and_allport	2,3,0,1,0,0,0,0,0	82.0	25.0	0.201	0,0,0,1,2,3,0,0,0	to_board	s582
237.136	0.235	0	PA_with_intermediate	0,0,0,1,0,0,3,0,0	test	ward_and_allport	2,3,0,1,0,0,0,0,0	71.0	25.0	0.235	0,0,0,1,2,3,0,0,0	to_hand	s582
237.373	0.186	0	PA_with_intermediate	2,0,0,1,0,0,3,0,0	test	ward_and_allport	2,3,0,1,0,0,0,0,0	89.0	25.0	0.186	0,0,0,1,2,3,0,0,0	to_board	s582
237.567	0.247	0	PA_with_intermediate	2,0,0,1,0,0,0,0,0	test	ward_and_allport	2,3,0,1,0,0,0,0,0	82.0	25.0	0.247	0,0,0,1,2,3,0,0,0	to_hand	s582
237.816	0.146	0	PA_with_intermediate	2,3,0,1,0,0,0,0,0	test	ward_and_allport	2,3,0,1,0,0,0,0,0	89.0	25.0	0.146	0,0,0,1,2,3,0,0,0	to_board	s582
237.974	1.0	0	PA_with_intermediate	n/a	test	ward_and_allport	n/a	-1.0	25.0	n/a	n/a	feedback	s582
238.974	1.68	0	PA_with_intermediate	n/a	test	ward_and_allport	n/a	-1.0	25.0	n/a	n/a	ITI	s582
240.662	2.425	1	PA_without_intermediate	1,2,0,0,0,0,0,0,0	test	ward_and_allport	0,0,0,2,0,0,3,1,0	89.0	26.0	2.425	1,2,3,0,0,0,0,0,0	to_hand	s582
243.089	0.186	0	PA_without_intermediate	1,2,0,0,0,0,3,0,0	test	ward_and_allport	0,0,0,2,0,0,3,1,0	82.0	26.0	0.186	1,2,3,0,0,0,0,0,0	to_board	s582
243.283	0.251	0	PA_without_intermediate	1,0,0,0,0,0,3,0,0	test	ward_and_allport	0,0,0,2,0,0,3,1,0	89.0	26.0	0.251	1,2,3,0,0,0,0,0,0	to_hand	s582
243.536	0.21	0	PA_without_intermediate	1,0,0,2,0,0,3,0,0	test	ward_and_allport	0,0,0,2,0,0,3,1,0	71.0	26.0	0.21	1,2,3,0,0,0,0,0,0	to_board	s582
243.755	0.223	0	PA_without_intermediate	0,0,0,2,0,0,3,0,0	test	ward_and_allport	0,0,0,2,0,0,3,1,0	89.0	26.0	0.223	1,2,3,0,0,0,0,0,0	to_hand	s582
243.979	0.214	0	PA_without_intermediate	0,0,0,2,0,0,3,1,0	test	ward_and_allport	0,0,0,2,0,0,3,1,0	82.0	26.0	0.214	1,2,3,0,0,0,0,0,0	to_board	s582
244.206	1.0	0	PA_without_intermediate	n/a	test	ward_and_allport	n/a	-1.0	26.0	n/a	n/a	feedback	s582
245.206	2.224	0	PA_without_intermediate	n/a	test	ward_and_allport	n/a	-1.0	26.0	n/a	n/a	ITI	s582
247.437	2.629	1	PA_without_intermediate	1,2,0,0,0,0,0,0,0	test	ward_and_allport	0,0,0,3,1,0,2,0,0	89.0	27.0	2.629	1,2,3,0,0,0,0,0,0	to_hand	s582
250.067	0.232	0	PA_without_intermediate	1,2,0,3,0,0,0,0,0	test	ward_and_allport	0,0,0,3,1,0,2,0,0	71.0	27.0	0.232	1,2,3,0,0,0,0,0,0	to_board	s582
250.307	0.239	0	PA_without_intermediate	1,0,0,3,0,0,0,0,0	test	ward_and_allport	0,0,0,3,1,0,2,0,0	89.0	27.0	0.239	1,2,3,0,0,0,0,0,0	to_hand	s582
250.547	0.248	0	PA_without_intermediate	1,0,0,3,0,0,2,0,0	test	ward_and_allport	0,0,0,3,1,0,2,0,0	82.0	27.0	0.248	1,2,3,0,0,0,0,0,0	to_board	s582
250.803	0.206	0	PA_without_intermediate	0,0,0,3,0,0,2,0,0	test	ward_and_allport	0,0,0,3,1,0,2,0,0	89.0	27.0	0.206	1,2,3,0,0,0,0,0,0	to_hand	s582
251.01	0.198	0	PA_without_intermediate	0,0,0,3,1,0,2,0,0	test	ward_and_allport	0,0,0,3,1,0,2,0,0	71.0	27.0	0.198	1,2,3,0,0,0,0,0,0	to_board	s582
251.217	1.0	0	PA_without_intermediate	n/a	test	ward_and_allport	n/a	-1.0	27.0	n/a	n/a	feedback	s582
252.217	2.36	0	PA_without_intermediate	n/a	test	ward_and_allport	n/a	-1.0	27.0	n/a	n/a	ITI	s582
254.586	2.995	1	PA_without_intermediate	0,0,0,1,2,0,0,0,0	test	ward_and_allport	3,1,0,0,0,0,2,0,0	71.0	28.0	2.995	0,0,0,1,2,3,0,0,0	to_hand	s582
257.582	0.218	0	PA_without_intermediate	3,0,0,1,2,0,0,0,0	test	ward_and_allport	3,1,0,0,0,0,2,0,0	89.0	28.0	0.218	0,0,0,1,2,3,0,0,0	to_board	s582
257.809	0.305	0	PA_without_intermediate	3,0,0,1,0,0,0,0,0	test	ward_and_allport	3,1,0,0,0,0,2,0,0	71.0	28.0	0.305	0,0,0,1,2,3,0,0,0	to_hand	s582
258.115	0.236	0	PA_without_intermediate	3,0,0,1,0,0,2,0,0	test	ward_and_allport	3,1,0,0,0,0,2,0,0	82.0	28.0	0.236	0,0,0,1,2,3,0,0,0	to_board	s582
258.36	0.392	0	PA_without_intermediate	3,0,0,0,0,0,2,0,0	test	ward_and_allport	3,1,0,0,0,0,2,0,0	71.0	28.0	0.392	0,0,0,1,2,3,0,0,0	to_hand	s582
258.753	0.21	0	PA_without_intermediate	3,1,0,0,0,0,2,0,0	test	ward_and_allport	3,1,0,0,0,0,2,0,0	89.0	28.0	0.21	0,0,0,1,2,3,0,0,0	to_board	s582
258.972	1.0	0	PA_without_intermediate	n/a	test	ward_and_allport	n/a	-1.0	28.0	n/a	n/a	feedback	s582
259.972	1.0	0	PA_without_intermediate	n/a	test	ward_and_allport	n/a	-1.0	28.0	n/a	n/a	ITI	s582
260.982	2.983	1	PA_without_intermediate	0,0,0,0,0,0,1,2,0	test	ward_and_allport	1,0,0,3,2,0,0,0,0	82.0	29.0	2.983	0,0,0,0,0,0,1,2,3	to_hand	s582
263.967	0.192	0	PA_without_intermediate	0,0,0,3,0,0,1,2,0	test	ward_and_allport	1,0,0,3,2,0,0,0,0	71.0	29.0	0.192	0,0,0,0,0,0,1,2,3	to_board	s582
264.168	0.221	0	PA_without_intermediate	0,0,0,3,0,0,1,0,0	test	ward_and_allport	1,0,0,3,2,0,0,0,0	82.0	29.0	0.221	0,0,0,0,0,0,1,2,3	to_hand	s582
264.39	0.227	0	PA_without_intermediate	0,0,0,3,2,0,1,0,0	test	ward_and_allport	1,0,0,3,2,0,0,0,0	71.0	29.0	0.227	0,0,0,0,0,0,1,2,3	to_board	s582
264.626	0.291	0	PA_without_intermediate	0,0,0,3,2,0,0,0,0	test	ward_and_allport	1,0,0,3,2,0,0,0,0	82.0	29.0	0.291	0,0,0,0,0,0,1,2,3	to_hand	s582
264.918	0.211	0	PA_without_intermediate	1,0,0,3,2,0,0,0,0	test	ward_and_allport	1,0,0,3,2,0,0,0,0	89.0	29.0	0.211	0,0,0,0,0,0,1,2,3	to_board	s582
265.139	1.0	0	PA_without_intermediate	n/a	test	ward_and_allport	n/a	-1.0	29.0	n/a	n/a	feedback	s582
266.139	1.408	0	PA_without_intermediate	n/a	test	ward_and_allport	n/a	-1.0	29.0	n/a	n/a	ITI	s582
272.56	2.652	1	PA_with_intermediate	0,0,0,1,2,0,0,0,0	test	ward_and_allport	2,3,0,1,0,0,0,0,0	71.0	30.0	2.652	0,0,0,1,2,3,0,0,0	to_hand	s582
275.213	0.061	0	PA_with_intermediate	3,0,0,1,2,0,0,0,0	test	ward_and_allport	2,3,0,1,0,0,0,0,0	89.0	30.0	0.061	0,0,0,1,2,3,0,0,0	to_board	s582
275.284	0.364	0	PA_with_intermediate	3,0,0,1,0,0,0,0,0	test	ward_and_allport	2,3,0,1,0,0,0,0,0	71.0	30.0	0.364	0,0,0,1,2,3,0,0,0	to_hand	s582
275.65	0.076	0	PA_with_intermediate	3,2,0,1,0,0,0,0,0	test	ward_and_allport	2,3,0,1,0,0,0,0,0	89.0	30.0	0.076	0,0,0,1,2,3,0,0,0	to_board	s582
275.735	3.198	0	PA_with_intermediate	3,0,0,1,0,0,0,0,0	test	ward_and_allport	2,3,0,1,0,0,0,0,0	89.0	30.0	3.198	0,0,0,1,2,3,0,0,0	to_hand	s582
278.934	0.19	0	PA_with_intermediate	3,0,0,1,0,0,2,0,0	test	ward_and_allport	2,3,0,1,0,0,0,0,0	82.0	30.0	0.19	0,0,0,1,2,3,0,0,0	to_board	s582
279.133	1.037	0	PA_with_intermediate	0,0,0,1,0,0,2,0,0	test	ward_and_allport	2,3,0,1,0,0,0,0,0	89.0	30.0	1.037	0,0,0,1,2,3,0,0,0	to_hand	s582
280.171	0.483	0	PA_with_intermediate	0,0,0,1,3,0,2,0,0	test	ward_and_allport	2,3,0,1,0,0,0,0,0	71.0	30.0	0.483	0,0,0,1,2,3,0,0,0	to_board	s582
280.665	0.447	0	PA_with_intermediate	0,0,0,1,3,0,0,0,0	test	ward_and_allport	2,3,0,1,0,0,0,0,0	82.0	30.0	0.447	0,0,0,1,2,3,0,0,0	to_hand	s582
281.113	0.191	0	PA_with_intermediate	2,0,0,1,3,0,0,0,0	test	ward_and_allport	2,3,0,1,0,0,0,0,0	89.0	30.0	0.191	0,0,0,1,2,3,0,0,0	to_board	s582
281.316	0.483	0	PA_with_intermediate	2,0,0,1,0,0,0,0,0	test	ward_and_allport	2,3,0,1,0,0,0,0,0	71.0	30.0	0.483	0,0,0,1,2,3,0,0,0	to_hand	s582
281.799	0.127	0	PA_with_intermediate	2,3,0,1,0,0,0,0,0	test	ward_and_allport	2,3,0,1,0,0,0,0,0	89.0	30.0	0.127	0,0,0,1,2,3,0,0,0	to_board	s582
281.94	1.0	0	PA_with_intermediate	n/a	test	ward_and_allport	n/a	-1.0	30.0	n/a	n/a	feedback	s582
282.94	1.136	0	PA_with_intermediate	n/a	test	ward_and_allport	n/a	-1.0	30.0	n/a	n/a	ITI	s582
284.084	2.294	1	PA_without_intermediate	1,2,0,0,0,0,0,0,0	test	ward_and_allport	0,0,0,1,0,0,3,2,0	89.0	31.0	2.294	1,2,3,0,0,0,0,0,0	to_hand	s582
286.38	0.199	0	PA_without_intermediate	1,2,0,0,0,0,3,0,0	test	ward_and_allport	0,0,0,1,0,0,3,2,0	82.0	31.0	0.199	1,2,3,0,0,0,0,0,0	to_board	s582
286.585	0.199	0	PA_without_intermediate	1,0,0,0,0,0,3,0,0	test	ward_and_allport	0,0,0,1,0,0,3,2,0	89.0	31.0	0.199	1,2,3,0,0,0,0,0,0	to_hand	s582
286.786	0.244	0	PA_without_intermediate	1,0,0,0,0,0,3,2,0	test	ward_and_allport	0,0,0,1,0,0,3,2,0	82.0	31.0	0.244	1,2,3,0,0,0,0,0,0	to_board	s582
287.037	0.211	0	PA_without_intermediate	0,0,0,0,0,0,3,2,0	test	ward_and_allport	0,0,0,1,0,0,3,2,0	89.0	31.0	0.211	1,2,3,0,0,0,0,0,0	to_hand	s582
287.249	0.175	0	PA_without_intermediate	0,0,0,1,0,0,3,2,0	test	ward_and_allport	0,0,0,1,0,0,3,2,0	71.0	31.0	0.175	1,2,3,0,0,0,0,0,0	to_board	s582
287.432	1.0	0	PA_without_intermediate	n/a	test	ward_and_allport	n/a	-1.0	31.0	n/a	n/a	feedback	s582
288.432	4.128	0	PA_without_intermediate	n/a	test	ward_and_allport	n/a	-1.0	31.0	n/a	n/a	ITI	s582
292.568	1.528	1	PA_without_intermediate	0,0,0,0,0,0,1,2,0	test	ward_and_allport	3,1,0,2,0,0,0,0,0	82.0	32.0	1.528	0,0,0,0,0,0,1,2,3	to_hand	s582
294.097	0.196	0	PA_without_intermediate	3,0,0,0,0,0,1,2,0	test	ward_and_allport	3,1,0,2,0,0,0,0,0	89.0	32.0	0.196	0,0,0,0,0,0,1,2,3	to_board	s582
294.303	0.307	0	PA_without_intermediate	3,0,0,0,0,0,1,0,0	test	ward_and_allport	3,1,0,2,0,0,0,0,0	82.0	32.0	0.307	0,0,0,0,0,0,1,2,3	to_hand	s582
294.612	0.198	0	PA_without_intermediate	3,0,0,2,0,0,1,0,0	test	ward_and_allport	3,1,0,2,0,0,0,0,0	71.0	32.0	0.198	0,0,0,0,0,0,1,2,3	to_board	s582
294.822	0.311	0	PA_without_intermediate	3,0,0,2,0,0,0,0,0	test	ward_and_allport	3,1,0,2,0,0,0,0,0	82.0	32.0	0.311	0,0,0,0,0,0,1,2,3	to_hand	s582
295.134	0.172	0	PA_without_intermediate	3,1,0,2,0,0,0,0,0	test	ward_and_allport	3,1,0,2,0,0,0,0,0	89.0	32.0	0.172	0,0,0,0,0,0,1,2,3	to_board	s582
295.321	1.0	0	PA_without_intermediate	n/a	test	ward_and_allport	n/a	-1.0	32.0	n/a	n/a	feedback	s582
296.321	1.136	0	PA_without_intermediate	n/a	test	ward_and_allport	n/a	-1.0	32.0	n/a	n/a	ITI	s582
297.467	2.294	1	PA_without_intermediate	1,2,0,0,0,0,0,0,0	test	ward_and_allport	0,0,0,3,2,0,1,0,0	89.0	33.0	2.294	1,2,3,0,0,0,0,0,0	to_hand	s582
299.762	0.181	0	PA_without_intermediate	1,2,0,3,0,0,0,0,0	test	ward_and_allport	0,0,0,3,2,0,1,0,0	71.0	33.0	0.181	1,2,3,0,0,0,0,0,0	to_board	s582
299.954	0.208	0	PA_without_intermediate	1,0,0,3,0,0,0,0,0	test	ward_and_allport	0,0,0,3,2,0,1,0,0	89.0	33.0	0.208	1,2,3,0,0,0,0,0,0	to_hand	s582
300.164	0.191	0	PA_without_intermediate	1,0,0,3,2,0,0,0,0	test	ward_and_allport	0,0,0,3,2,0,1,0,0	71.0	33.0	0.191	1,2,3,0,0,0,0,0,0	to_board	s582
300.363	0.227	0	PA_without_intermediate	0,0,0,3,2,0,0,0,0	test	ward_and_allport	0,0,0,3,2,0,1,0,0	89.0	33.0	0.227	1,2,3,0,0,0,0,0,0	to_hand	s582
300.591	0.361	0	PA_without_intermediate	0,0,0,3,2,0,1,0,0	test	ward_and_allport	0,0,0,3,2,0,1,0,0	82.0	33.0	0.361	1,2,3,0,0,0,0,0,0	to_board	s582
300.963	1.0	0	PA_without_intermediate	n/a	test	ward_and_allport	n/a	-1.0	33.0	n/a	n/a	feedback	s582
301.963	4.264	0	PA_without_intermediate	n/a	test	ward_and_allport	n/a	-1.0	33.0	n/a	n/a	ITI	s582
306.238	1.22	1	PA_with_intermediate	1,2,0,0,0,0,0,0,0	test	ward_and_allport	1,0,0,0,0,0,2,3,0	89.0	34.0	1.22	1,2,3,0,0,0,0,0,0	to_hand	s582
307.46	0.172	0	PA_with_intermediate	1,2,0,0,0,0,3,0,0	test	ward_and_allport	1,0,0,0,0,0,2,3,0	82.0	34.0	0.172	1,2,3,0,0,0,0,0,0	to_board	s582
307.641	0.175	0	PA_with_intermediate	1,0,0,0,0,0,3,0,0	test	ward_and_allport	1,0,0,0,0,0,2,3,0	89.0	34.0	0.175	1,2,3,0,0,0,0,0,0	to_hand	s582
307.817	0.207	0	PA_with_intermediate	1,0,0,0,0,0,3,2,0	test	ward_and_allport	1,0,0,0,0,0,2,3,0	82.0	34.0	0.207	1,2,3,0,0,0,0,0,0	to_board	s582
308.035	0.142	0	PA_with_intermediate	0,0,0,0,0,0,3,2,0	test	ward_and_allport	1,0,0,0,0,0,2,3,0	89.0	34.0	0.142	1,2,3,0,0,0,0,0,0	to_hand	s582
308.178	0.767	0	PA_with_intermediate	1,0,0,0,0,0,3,2,0	test	ward_and_allport	1,0,0,0,0,0,2,3,0	89.0	34.0	0.767	1,2,3,0,0,0,0,0,0	to_board	s582
308.957	1.402	0	PA_with_intermediate	1,0,0,0,0,0,3,0,0	test	ward_and_allport	1,0,0,0,0,0,2,3,0	82.0	34.0	1.402	1,2,3,0,0,0,0,0,0	to_hand	s582
310.36	0.224	0	PA_with_intermediate	1,0,0,2,0,0,3,0,0	test	ward_and_allport	1,0,0,0,0,0,2,3,0	71.0	34.0	0.224	1,2,3,0,0,0,0,0,0	to_board	s582
310.597	0.515	0	PA_with_intermediate	1,0,0,2,0,0,0,0,0	test	ward_and_allport	1,0,0,0,0,0,2,3,0	82.0	34.0	0.515	1,2,3,0,0,0,0,0,0	to_hand	s582
311.112	0.787	0	PA_with_intermediate	1,3,0,2,0,0,0,0,0	test	ward_and_allport	1,0,0,0,0,0,2,3,0	89.0	34.0	0.787	1,2,3,0,0,0,0,0,0	to_board	s582
311.907	0.72	0	PA_with_intermediate	1,3,0,0,0,0,0,0,0	test	ward_and_allport	1,0,0,0,0,0,2,3,0	71.0	34.0	0.72	1,2,3,0,0,0,0,0,0	to_hand	s582
312.628	0.202	0	PA_with_intermediate	1,3,0,0,0,0,2,0,0	test	ward_and_allport	1,0,0,0,0,0,2,3,0	82.0	34.0	0.202	1,2,3,0,0,0,0,0,0	to_board	s582
312.838	0.59	0	PA_with_intermediate	1,0,0,0,0,0,2,0,0	test	ward_and_allport	1,0,0,0,0,0,2,3,0	89.0	34.0	0.59	1,2,3,0,0,0,0,0,0	to_hand	s582
313.429	0.188	0	PA_with_intermediate	1,0,0,0,0,0,2,3,0	test	ward_and_allport	1,0,0,0,0,0,2,3,0	82.0	34.0	0.188	1,2,3,0,0,0,0,0,0	to_board	s582
313.627	1.0	0	PA_with_intermediate	n/a	test	ward_and_allport	n/a	-1.0	34.0	n/a	n/a	feedback	s582
314.627	3.04	0	PA_with_intermediate	n/a	test	ward_and_allport	n/a	-1.0	34.0	n/a	n/a	ITI	s582
317.675	2.977	1	PA_with_intermediate	0,0,0,1,2,0,0,0,0	test	ward_and_allport	0,0,0,1,3,0,2,0,0	71.0	35.0	2.977	0,0,0,1,2,3,0,0,0	to_hand	s582
320.654	0.201	0	PA_with_intermediate	3,0,0,1,2,0,0,0,0	test	ward_and_allport	0,0,0,1,3,0,2,0,0	89.0	35.0	0.201	0,0,0,1,2,3,0,0,0	to_board	s582
320.868	0.39	0	PA_with_intermediate	3,0,0,1,0,0,0,0,0	test	ward_and_allport	0,0,0,1,3,0,2,0,0	71.0	35.0	0.39	0,0,0,1,2,3,0,0,0	to_hand	s582
321.259	0.372	0	PA_with_intermediate	3,0,0,1,0,0,2,0,0	test	ward_and_allport	0,0,0,1,3,0,2,0,0	82.0	35.0	0.372	0,0,0,1,2,3,0,0,0	to_board	s582
321.644	0.233	0	PA_with_intermediate	0,0,0,1,0,0,2,0,0	test	ward_and_allport	0,0,0,1,3,0,2,0,0	89.0	35.0	0.233	0,0,0,1,2,3,0,0,0	to_hand	s582
321.879	0.177	0	PA_with_intermediate	0,0,0,1,3,0,2,0,0	test	ward_and_allport	0,0,0,1,3,0,2,0,0	71.0	35.0	0.177	0,0,0,1,2,3,0,0,0	to_board	s582
322.071	1.0	0	PA_with_intermediate	n/a	test	ward_and_allport	n/a	-1.0	35.0	n/a	n/a	feedback	s582
323.071	1.136	0	PA_with_intermediate	n/a	test	ward_and_allport	n/a	-1.0	35.0	n/a	n/a	ITI	s582
324.219	2.11	1	PA_with_intermediate	0,0,0,0,0,0,1,2,0	test	ward_and_allport	0,0,0,2,0,0,1,3,0	82.0	36.0	2.11	0,0,0,0,0,0,1,2,3	to_hand	s582
326.33	0.19	0	PA_with_intermediate	3,0,0,0,0,0,1,2,0	test	ward_and_allport	0,0,0,2,0,0,1,3,0	89.0	36.0	0.19	0,0,0,0,0,0,1,2,3	to_board	s582
326.528	0.305	0	PA_with_intermediate	3,0,0,0,0,0,1,0,0	test	ward_and_allport	0,0,0,2,0,0,1,3,0	82.0	36.0	0.305	0,0,0,0,0,0,1,2,3	to_hand	s582
326.834	0.207	0	PA_with_intermediate	3,0,0,2,0,0,1,0,0	test	ward_and_allport	0,0,0,2,0,0,1,3,0	71.0	36.0	0.207	0,0,0,0,0,0,1,2,3	to_board	s582
327.049	0.714	0	PA_with_intermediate	0,0,0,2,0,0,1,0,0	test	ward_and_allport	0,0,0,2,0,0,1,3,0	89.0	36.0	0.714	0,0,0,0,0,0,1,2,3	to_hand	s582
327.765	0.217	0	PA_with_intermediate	0,0,0,2,0,0,1,3,0	test	ward_and_allport	0,0,0,2,0,0,1,3,0	82.0	36.0	0.217	0,0,0,0,0,0,1,2,3	to_board	s582
327.995	1.0	0	PA_with_intermediate	n/a	test	ward_and_allport	n/a	-1.0	36.0	n/a	n/a	feedback	s582
328.995	1.408	0	PA_with_intermediate	n/a	test	ward_and_allport	n/a	-1.0	36.0	n/a	n/a	ITI	s582
330.411	1.875	1	PA_without_intermediate	0,0,0,1,2,0,0,0,0	test	ward_and_allport	3,2,0,0,0,0,1,0,0	71.0	37.0	1.875	0,0,0,1,2,3,0,0,0	to_hand	s582
332.287	0.215	0	PA_without_intermediate	3,0,0,1,2,0,0,0,0	test	ward_and_allport	3,2,0,0,0,0,1,0,0	89.0	37.0	0.215	0,0,0,1,2,3,0,0,0	to_board	s582
332.51	0.251	0	PA_without_intermediate	3,0,0,1,0,0,0,0,0	test	ward_and_allport	3,2,0,0,0,0,1,0,0	71.0	37.0	0.251	0,0,0,1,2,3,0,0,0	to_hand	s582
332.763	0.209	0	PA_without_intermediate	3,2,0,1,0,0,0,0,0	test	ward_and_allport	3,2,0,0,0,0,1,0,0	89.0	37.0	0.209	0,0,0,1,2,3,0,0,0	to_board	s582
332.984	0.841	0	PA_without_intermediate	3,2,0,0,0,0,0,0,0	test	ward_and_allport	3,2,0,0,0,0,1,0,0	71.0	37.0	0.841	0,0,0,1,2,3,0,0,0	to_hand	s582
333.826	0.213	0	PA_without_intermediate	3,2,0,0,0,0,1,0,0	test	ward_and_allport	3,2,0,0,0,0,1,0,0	82.0	37.0	0.213	0,0,0,1,2,3,0,0,0	to_board	s582
334.053	1.0	0	PA_without_intermediate	n/a	test	ward_and_allport	n/a	-1.0	37.0	n/a	n/a	feedback	s582
335.053	1.68	0	PA_without_intermediate	n/a	test	ward_and_allport	n/a	-1.0	37.0	n/a	n/a	ITI	s582
336.742	2.965	1	PA_with_intermediate	0,0,0,1,2,0,0,0,0	test	ward_and_allport	0,0,0,1,3,0,2,0,0	71.0	38.0	2.965	0,0,0,1,2,3,0,0,0	to_hand	s582
339.709	0.2	0	PA_with_intermediate	3,0,0,1,2,0,0,0,0	test	ward_and_allport	0,0,0,1,3,0,2,0,0	89.0	38.0	0.2	0,0,0,1,2,3,0,0,0	to_board	s582
339.917	0.29	0	PA_with_intermediate	3,0,0,1,0,0,0,0,0	test	ward_and_allport	0,0,0,1,3,0,2,0,0	71.0	38.0	0.29	0,0,0,1,2,3,0,0,0	to_hand	s582
340.208	0.254	0	PA_with_intermediate	3,0,0,1,0,0,2,0,0	test	ward_and_allport	0,0,0,1,3,0,2,0,0	82.0	38.0	0.254	0,0,0,1,2,3,0,0,0	to_board	s582
340.475	0.369	0	PA_with_intermediate	0,0,0,1,0,0,2,0,0	test	ward_and_allport	0,0,0,1,3,0,2,0,0	89.0	38.0	0.369	0,0,0,1,2,3,0,0,0	to_hand	s582
340.846	0.218	0	PA_with_intermediate	0,0,0,1,3,0,2,0,0	test	ward_and_allport	0,0,0,1,3,0,2,0,0	71.0	38.0	0.218	0,0,0,1,2,3,0,0,0	to_board	s582
341.08	1.0	0	PA_with_intermediate	n/a	test	ward_and_allport	n/a	-1.0	38.0	n/a	n/a	feedback	s582
342.08	3.72	0	PA_with_intermediate	n/a	test	ward_and_allport	n/a	-1.0	38.0	n/a	n/a	ITI	s582
345.81	1.986	1	PA_without_intermediate	0,0,0,1,2,0,0,0,0	test	ward_and_allport	2,0,0,0,0,0,3,1,0	71.0	39.0	1.986	0,0,0,1,2,3,0,0,0	to_hand	s582
347.797	0.23	0	PA_without_intermediate	0,0,0,1,2,0,3,0,0	test	ward_and_allport	2,0,0,0,0,0,3,1,0	82.0	39.0	0.23	0,0,0,1,2,3,0,0,0	to_board	s582
348.039	0.233	0	PA_without_intermediate	0,0,0,1,0,0,3,0,0	test	ward_and_allport	2,0,0,0,0,0,3,1,0	71.0	39.0	0.233	0,0,0,1,2,3,0,0,0	to_hand	s582
348.273	0.204	0	PA_without_intermediate	2,0,0,1,0,0,3,0,0	test	ward_and_allport	2,0,0,0,0,0,3,1,0	89.0	39.0	0.204	0,0,0,1,2,3,0,0,0	to_board	s582
348.49	0.483	0	PA_without_intermediate	2,0,0,0,0,0,3,0,0	test	ward_and_allport	2,0,0,0,0,0,3,1,0	71.0	39.0	0.483	0,0,0,1,2,3,0,0,0	to_hand	s582
348.973	0.197	0	PA_without_intermediate	2,0,0,0,0,0,3,1,0	test	ward_and_allport	2,0,0,0,0,0,3,1,0	82.0	39.0	0.197	0,0,0,1,2,3,0,0,0	to_board	s582
349.18	1.0	0	PA_without_intermediate	n/a	test	ward_and_allport	n/a	-1.0	39.0	n/a	n/a	feedback	s582
350.18	2.224	0	PA_without_intermediate	n/a	test	ward_and_allport	n/a	-1.0	39.0	n/a	n/a	ITI	s582
352.413	1.491	1	PA_without_intermediate	0,0,0,0,0,0,1,2,0	test	ward_and_allport	1,0,0,3,2,0,0,0,0	82.0	40.0	1.491	0,0,0,0,0,0,1,2,3	to_hand	s582
353.905	0.27	0	PA_without_intermediate	0,0,0,3,0,0,1,2,0	test	ward_and_allport	1,0,0,3,2,0,0,0,0	71.0	40.0	0.27	0,0,0,0,0,0,1,2,3	to_board	s582
354.186	0.217	0	PA_without_intermediate	0,0,0,3,0,0,1,0,0	test	ward_and_allport	1,0,0,3,2,0,0,0,0	82.0	40.0	0.217	0,0,0,0,0,0,1,2,3	to_hand	s582
354.403	0.213	0	PA_without_intermediate	0,0,0,3,2,0,1,0,0	test	ward_and_allport	1,0,0,3,2,0,0,0,0	71.0	40.0	0.213	0,0,0,0,0,0,1,2,3	to_board	s582
354.628	0.334	0	PA_without_intermediate	0,0,0,3,2,0,0,0,0	test	ward_and_allport	1,0,0,3,2,0,0,0,0	82.0	40.0	0.334	0,0,0,0,0,0,1,2,3	to_hand	s582
354.963	0.19	0	PA_without_intermediate	1,0,0,3,2,0,0,0,0	test	ward_and_allport	1,0,0,3,2,0,0,0,0	89.0	40.0	0.19	0,0,0,0,0,0,1,2,3	to_board	s582
355.164	1.0	0	PA_without_intermediate	n/a	test	ward_and_allport	n/a	-1.0	40.0	n/a	n/a	feedback	s582
356.164	1.272	0	PA_without_intermediate	n/a	test	ward_and_allport	n/a	-1.0	40.0	n/a	n/a	ITI	s582
357.445	2.8	1	PA_with_intermediate	1,2,0,0,0,0,0,0,0	test	ward_and_allport	1,0,0,0,0,0,2,3,0	89.0	41.0	2.8	1,2,3,0,0,0,0,0,0	to_hand	s582
360.246	0.175	0	PA_with_intermediate	1,2,0,3,0,0,0,0,0	test	ward_and_allport	1,0,0,0,0,0,2,3,0	71.0	41.0	0.175	1,2,3,0,0,0,0,0,0	to_board	s582
360.43	0.21	0	PA_with_intermediate	1,0,0,3,0,0,0,0,0	test	ward_and_allport	1,0,0,0,0,0,2,3,0	89.0	41.0	0.21	1,2,3,0,0,0,0,0,0	to_hand	s582
360.641	0.234	0	PA_with_intermediate	1,0,0,3,0,0,2,0,0	test	ward_and_allport	1,0,0,0,0,0,2,3,0	82.0	41.0	0.234	1,2,3,0,0,0,0,0,0	to_board	s582
360.887	1.046	0	PA_with_intermediate	1,0,0,0,0,0,2,0,0	test	ward_and_allport	1,0,0,0,0,0,2,3,0	71.0	41.0	1.046	1,2,3,0,0,0,0,0,0	to_hand	s582
361.935	0.408	0	PA_with_intermediate	1,0,0,0,0,0,2,3,0	test	ward_and_allport	1,0,0,0,0,0,2,3,0	82.0	41.0	0.408	1,2,3,0,0,0,0,0,0	to_board	s582
362.356	1.0	0	PA_with_intermediate	n/a	test	ward_and_allport	n/a	-1.0	41.0	n/a	n/a	feedback	s582
363.356	2.632	0	PA_with_intermediate	n/a	test	ward_and_allport	n/a	-1.0	41.0	n/a	n/a	ITI	s582
365.997	1.213	1	PA_without_intermediate	1,2,0,0,0,0,0,0,0	test	ward_and_allport	0,0,0,2,0,0,3,1,0	89.0	42.0	1.213	1,2,3,0,0,0,0,0,0	to_hand	s582
367.212	0.269	0	PA_without_intermediate	1,2,0,0,0,0,3,0,0	test	ward_and_allport	0,0,0,2,0,0,3,1,0	82.0	42.0	0.269	1,2,3,0,0,0,0,0,0	to_board	s582
367.494	0.252	0	PA_without_intermediate	1,0,0,0,0,0,3,0,0	test	ward_and_allport	0,0,0,2,0,0,3,1,0	89.0	42.0	0.252	1,2,3,0,0,0,0,0,0	to_hand	s582
367.747	0.228	0	PA_without_intermediate	1,0,0,2,0,0,3,0,0	test	ward_and_allport	0,0,0,2,0,0,3,1,0	71.0	42.0	0.228	1,2,3,0,0,0,0,0,0	to_board	s582
367.988	0.252	0	PA_without_intermediate	0,0,0,2,0,0,3,0,0	test	ward_and_allport	0,0,0,2,0,0,3,1,0	89.0	42.0	0.252	1,2,3,0,0,0,0,0,0	to_hand	s582
368.24	0.218	0	PA_without_intermediate	0,0,0,2,0,0,3,1,0	test	ward_and_allport	0,0,0,2,0,0,3,1,0	82.0	42.0	0.218	1,2,3,0,0,0,0,0,0	to_board	s582
368.471	1.0	0	PA_without_intermediate	n/a	test	ward_and_allport	n/a	-1.0	42.0	n/a	n/a	feedback	s582
369.471	1.408	0	PA_without_intermediate	n/a	test	ward_and_allport	n/a	-1.0	42.0	n/a	n/a	ITI	s582
370.889	1.888	1	PA_without_intermediate	0,0,0,1,2,0,0,0,0	test	ward_and_allport	3,1,0,0,0,0,2,0,0	71.0	43.0	1.888	0,0,0,1,2,3,0,0,0	to_hand	s582
372.778	0.172	0	PA_without_intermediate	3,0,0,1,2,0,0,0,0	test	ward_and_allport	3,1,0,0,0,0,2,0,0	89.0	43.0	0.172	0,0,0,1,2,3,0,0,0	to_board	s582
372.96	0.243	0	PA_without_intermediate	3,0,0,1,0,0,0,0,0	test	ward_and_allport	3,1,0,0,0,0,2,0,0	71.0	43.0	0.243	0,0,0,1,2,3,0,0,0	to_hand	s582
373.205	0.227	0	PA_without_intermediate	3,0,0,1,0,0,2,0,0	test	ward_and_allport	3,1,0,0,0,0,2,0,0	82.0	43.0	0.227	0,0,0,1,2,3,0,0,0	to_board	s582
373.441	0.372	0	PA_without_intermediate	3,0,0,0,0,0,2,0,0	test	ward_and_allport	3,1,0,0,0,0,2,0,0	71.0	43.0	0.372	0,0,0,1,2,3,0,0,0	to_hand	s582
373.815	0.166	0	PA_without_intermediate	3,1,0,0,0,0,2,0,0	test	ward_and_allport	3,1,0,0,0,0,2,0,0	89.0	43.0	0.166	0,0,0,1,2,3,0,0,0	to_board	s582
373.992	1.0	0	PA_without_intermediate	n/a	test	ward_and_allport	n/a	-1.0	43.0	n/a	n/a	feedback	s582
374.992	1.0	0	PA_without_intermediate	n/a	test	ward_and_allport	n/a	-1.0	43.0	n/a	n/a	ITI	s582
376.001	3.846	1	PA_with_intermediate	1,2,0,0,0,0,0,0,0	test	ward_and_allport	1,3,0,0,0,0,2,0,0	89.0	44.0	3.846	1,2,3,0,0,0,0,0,0	to_hand	s582
379.848	0.379	0	PA_with_intermediate	1,2,0,3,0,0,0,0,0	test	ward_and_allport	1,3,0,0,0,0,2,0,0	71.0	44.0	0.379	1,2,3,0,0,0,0,0,0	to_board	s582
380.237	0.252	0	PA_with_intermediate	1,0,0,3,0,0,0,0,0	test	ward_and_allport	1,3,0,0,0,0,2,0,0	89.0	44.0	0.252	1,2,3,0,0,0,0,0,0	to_hand	s582
380.489	0.264	0	PA_with_intermediate	1,0,0,3,0,0,2,0,0	test	ward_and_allport	1,3,0,0,0,0,2,0,0	82.0	44.0	0.264	1,2,3,0,0,0,0,0,0	to_board	s582
380.766	0.381	0	PA_with_intermediate	1,0,0,0,0,0,2,0,0	test	ward_and_allport	1,3,0,0,0,0,2,0,0	71.0	44.0	0.381	1,2,3,0,0,0,0,0,0	to_hand	s582
381.148	0.2	0	PA_with_intermediate	1,3,0,0,0,0,2,0,0	test	ward_and_allport	1,3,0,0,0,0,2,0,0	89.0	44.0	0.2	1,2,3,0,0,0,0,0,0	to_board	s582
381.365	1.0	0	PA_with_intermediate	n/a	test	ward_and_allport	n/a	-1.0	44.0	n/a	n/a	feedback	s582
382.365	1.0	0	PA_with_intermediate	n/a	test	ward_and_allport	n/a	-1.0	44.0	n/a	n/a	ITI	s582
388.378	2.139	1	PA_with_intermediate	0,0,0,0,0,0,1,2,0	test	ward_and_allport	2,0,0,0,0,0,1,3,0	82.0	45.0	2.139	0,0,0,0,0,0,1,2,3	to_hand	s582
390.519	0.252	0	PA_with_intermediate	0,0,0,3,0,0,1,2,0	test	ward_and_allport	2,0,0,0,0,0,1,3,0	71.0	45.0	0.252	0,0,0,0,0,0,1,2,3	to_board	s582
390.785	0.337	0	PA_with_intermediate	0,0,0,3,0,0,1,0,0	test	ward_and_allport	2,0,0,0,0,0,1,3,0	82.0	45.0	0.337	0,0,0,0,0,0,1,2,3	to_hand	s582
391.124	0.174	0	PA_with_intermediate	2,0,0,3,0,0,1,0,0	test	ward_and_allport	2,0,0,0,0,0,1,3,0	89.0	45.0	0.174	0,0,0,0,0,0,1,2,3	to_board	s582
391.313	0.402	0	PA_with_intermediate	2,0,0,0,0,0,1,0,0	test	ward_and_allport	2,0,0,0,0,0,1,3,0	71.0	45.0	0.402	0,0,0,0,0,0,1,2,3	to_hand	s582
391.716	0.189	0	PA_with_intermediate	2,0,0,0,0,0,1,3,0	test	ward_and_allport	2,0,0,0,0,0,1,3,0	82.0	45.0	0.189	0,0,0,0,0,0,1,2,3	to_board	s582
391.923	1.0	0	PA_with_intermediate	n/a	test	ward_and_allport	n/a	-1.0	45.0	n/a	n/a	feedback	s582
392.923	1.0	0	PA_with_intermediate	n/a	test	ward_and_allport	n/a	-1.0	45.0	n/a	n/a	ITI	s582
393.935	1.805	1	PA_with_intermediate	0,0,0,0,0,0,1,2,0	test	ward_and_allport	0,0,0,2,3,0,1,0,0	82.0	46.0	1.805	0,0,0,0,0,0,1,2,3	to_hand	s582
395.741	0.161	0	PA_with_intermediate	3,0,0,0,0,0,1,2,0	test	ward_and_allport	0,0,0,2,3,0,1,0,0	89.0	46.0	0.161	0,0,0,0,0,0,1,2,3	to_board	s582
395.913	0.278	0	PA_with_intermediate	3,0,0,0,0,0,1,0,0	test	ward_and_allport	0,0,0,2,3,0,1,0,0	82.0	46.0	0.278	0,0,0,0,0,0,1,2,3	to_hand	s582
396.192	0.191	0	PA_with_intermediate	3,0,0,2,0,0,1,0,0	test	ward_and_allport	0,0,0,2,3,0,1,0,0	71.0	46.0	0.191	0,0,0,0,0,0,1,2,3	to_board	s582
396.393	0.301	0	PA_with_intermediate	0,0,0,2,0,0,1,0,0	test	ward_and_allport	0,0,0,2,3,0,1,0,0	89.0	46.0	0.301	0,0,0,0,0,0,1,2,3	to_hand	s582
396.695	0.179	0	PA_with_intermediate	0,0,0,2,3,0,1,0,0	test	ward_and_allport	0,0,0,2,3,0,1,0,0	71.0	46.0	0.179	0,0,0,0,0,0,1,2,3	to_board	s582
396.888	1.0	0	PA_with_intermediate	n/a	test	ward_and_allport	n/a	-1.0	46.0	n/a	n/a	feedback	s582
397.888	1.408	0	PA_with_intermediate	n/a	test	ward_and_allport	n/a	-1.0	46.0	n/a	n/a	ITI	s582
399.305	2.08	1	PA_without_intermediate	0,0,0,1,2,0,0,0,0	test	ward_and_allport	2,0,0,0,0,0,3,1,0	71.0	47.0	2.08	0,0,0,1,2,3,0,0,0	to_hand	s582
401.386	0.191	0	PA_without_intermediate	0,0,0,1,2,0,3,0,0	test	ward_and_allport	2,0,0,0,0,0,3,1,0	82.0	47.0	0.191	0,0,0,1,2,3,0,0,0	to_board	s582
401.587	0.259	0	PA_without_intermediate	0,0,0,1,0,0,3,0,0	test	ward_and_allport	2,0,0,0,0,0,3,1,0	71.0	47.0	0.259	0,0,0,1,2,3,0,0,0	to_hand	s582
401.848	0.183	0	PA_without_intermediate	2,0,0,1,0,0,3,0,0	test	ward_and_allport	2,0,0,0,0,0,3,1,0	89.0	47.0	0.183	0,0,0,1,2,3,0,0,0	to_board	s582
402.042	0.34	0	PA_without_intermediate	2,0,0,0,0,0,3,0,0	test	ward_and_allport	2,0,0,0,0,0,3,1,0	71.0	47.0	0.34	0,0,0,1,2,3,0,0,0	to_hand	s582
402.383	0.205	0	PA_without_intermediate	2,0,0,0,0,0,3,1,0	test	ward_and_allport	2,0,0,0,0,0,3,1,0	82.0	47.0	0.205	0,0,0,1,2,3,0,0,0	to_board	s582
402.598	1.0	0	PA_without_intermediate	n/a	test	ward_and_allport	n/a	-1.0	47.0	n/a	n/a	feedback	s582
403.598	1.816	0	PA_without_intermediate	n/a	test	ward_and_allport	n/a	-1.0	47.0	n/a	n/a	ITI	s582
n/a	n/a	0	n/a	n/a	n/a	n/a	n/a	n/a	n/a	n/a	n/a	ITI	n/a
