onset	duration	planning	condition	current_position	exp_stage	experiment_exp_id	goal_state	key_press	problem_id	response_time	start_state	trial_id	worker_id
-52.696	0.0	0	n/a	n/a	n/a	ward_and_allport	n/a	32.0	n/a	17.805	n/a	instructions	s586
3.012	5.276	1	UA_with_intermediate	1,0,0,2,0,0,0,0,0	practice	ward_and_allport	1,2,3,0,0,0,0,0,0	71.0	0.0	5.276	1,0,0,2,3,0,0,0,0	to_hand	s586
8.29	2.598	0	UA_with_intermediate	1,0,0,2,0,0,3,0,0	practice	ward_and_allport	1,2,3,0,0,0,0,0,0	82.0	0.0	2.598	1,0,0,2,3,0,0,0,0	to_board	s586
10.891	1.012	0	UA_with_intermediate	1,0,0,0,0,0,3,0,0	practice	ward_and_allport	1,2,3,0,0,0,0,0,0	71.0	0.0	1.012	1,0,0,2,3,0,0,0,0	to_hand	s586
11.905	1.131	0	UA_with_intermediate	1,2,0,0,0,0,3,0,0	practice	ward_and_allport	1,2,3,0,0,0,0,0,0	89.0	0.0	1.131	1,0,0,2,3,0,0,0,0	to_board	s586
13.038	1.782	0	UA_with_intermediate	1,2,0,0,0,0,0,0,0	practice	ward_and_allport	1,2,3,0,0,0,0,0,0	82.0	0.0	1.782	1,0,0,2,3,0,0,0,0	to_hand	s586
14.822	0.704	0	UA_with_intermediate	1,2,3,0,0,0,0,0,0	practice	ward_and_allport	1,2,3,0,0,0,0,0,0	89.0	0.0	0.704	1,0,0,2,3,0,0,0,0	to_board	s586
15.53	1.0	0	UA_with_intermediate	n/a	practice	ward_and_allport	n/a	-1.0	0.0	n/a	n/a	feedback	s586
18.031	2.593	1	UA_with_intermediate	1,2,0,0,0,0,0,0,0	practice	ward_and_allport	1,3,2,0,0,0,0,0,0	71.0	1.0	2.593	1,2,0,3,0,0,0,0,0	to_hand	s586
20.625	1.177	0	UA_with_intermediate	1,2,0,3,0,0,0,0,0	practice	ward_and_allport	1,3,2,0,0,0,0,0,0	71.0	1.0	1.177	1,2,0,3,0,0,0,0,0	to_board	s586
21.805	5.117	0	UA_with_intermediate	1,0,0,3,0,0,0,0,0	practice	ward_and_allport	1,3,2,0,0,0,0,0,0	89.0	1.0	5.117	1,2,0,3,0,0,0,0,0	to_hand	s586
26.923	1.897	0	UA_with_intermediate	1,0,0,3,0,0,2,0,0	practice	ward_and_allport	1,3,2,0,0,0,0,0,0	82.0	1.0	1.897	1,2,0,3,0,0,0,0,0	to_board	s586
28.821	0.808	0	UA_with_intermediate	1,0,0,0,0,0,2,0,0	practice	ward_and_allport	1,3,2,0,0,0,0,0,0	71.0	1.0	0.808	1,2,0,3,0,0,0,0,0	to_hand	s586
29.63	1.825	0	UA_with_intermediate	1,3,0,0,0,0,2,0,0	practice	ward_and_allport	1,3,2,0,0,0,0,0,0	89.0	1.0	1.825	1,2,0,3,0,0,0,0,0	to_board	s586
31.457	1.844	0	UA_with_intermediate	1,3,0,0,0,0,0,0,0	practice	ward_and_allport	1,3,2,0,0,0,0,0,0	82.0	1.0	1.844	1,2,0,3,0,0,0,0,0	to_hand	s586
33.302	0.546	0	UA_with_intermediate	1,3,2,0,0,0,0,0,0	practice	ward_and_allport	1,3,2,0,0,0,0,0,0	89.0	1.0	0.546	1,2,0,3,0,0,0,0,0	to_board	s586
33.851	1.0	0	UA_with_intermediate	n/a	practice	ward_and_allport	n/a	-1.0	1.0	n/a	n/a	feedback	s586
34.851	1.1	0	UA_with_intermediate	n/a	practice	ward_and_allport	n/a	-1.0	1.0	n/a	n/a	ITI	s586
35.955	4.146	1	UA_without_intermediate	0,0,0,1,2,0,0,0,0	practice	ward_and_allport	3,2,1,0,0,0,0,0,0	82.0	2.0	4.146	0,0,0,1,2,0,3,0,0	to_hand	s586
40.102	0.838	0	UA_without_intermediate	3,0,0,1,2,0,0,0,0	practice	ward_and_allport	3,2,1,0,0,0,0,0,0	89.0	2.0	0.838	0,0,0,1,2,0,3,0,0	to_board	s586
40.942	4.29	0	UA_without_intermediate	3,0,0,1,0,0,0,0,0	practice	ward_and_allport	3,2,1,0,0,0,0,0,0	71.0	2.0	4.29	0,0,0,1,2,0,3,0,0	to_hand	s586
45.234	1.594	0	UA_without_intermediate	3,2,0,1,0,0,0,0,0	practice	ward_and_allport	3,2,1,0,0,0,0,0,0	89.0	2.0	1.594	0,0,0,1,2,0,3,0,0	to_board	s586
46.831	0.597	0	UA_without_intermediate	3,2,0,0,0,0,0,0,0	practice	ward_and_allport	3,2,1,0,0,0,0,0,0	71.0	2.0	0.597	0,0,0,1,2,0,3,0,0	to_hand	s586
47.429	0.531	0	UA_without_intermediate	3,2,1,0,0,0,0,0,0	practice	ward_and_allport	3,2,1,0,0,0,0,0,0	89.0	2.0	0.531	0,0,0,1,2,0,3,0,0	to_board	s586
47.964	1.0	0	UA_without_intermediate	n/a	practice	ward_and_allport	n/a	-1.0	2.0	n/a	n/a	feedback	s586
48.964	1.2	0	UA_without_intermediate	n/a	practice	ward_and_allport	n/a	-1.0	2.0	n/a	n/a	ITI	s586
50.165	4.174	1	UA_without_intermediate	0,0,0,1,0,0,3,0,0	practice	ward_and_allport	2,3,1,0,0,0,0,0,0	71.0	3.0	4.174	0,0,0,1,2,0,3,0,0	to_hand	s586
54.341	0.662	0	UA_without_intermediate	2,0,0,1,0,0,3,0,0	practice	ward_and_allport	2,3,1,0,0,0,0,0,0	89.0	3.0	0.662	0,0,0,1,2,0,3,0,0	to_board	s586
55.005	1.372	0	UA_without_intermediate	2,0,0,1,0,0,0,0,0	practice	ward_and_allport	2,3,1,0,0,0,0,0,0	82.0	3.0	1.372	0,0,0,1,2,0,3,0,0	to_hand	s586
56.379	2.207	0	UA_without_intermediate	2,3,0,1,0,0,0,0,0	practice	ward_and_allport	2,3,1,0,0,0,0,0,0	89.0	3.0	2.207	0,0,0,1,2,0,3,0,0	to_board	s586
58.587	0.486	0	UA_without_intermediate	2,3,0,0,0,0,0,0,0	practice	ward_and_allport	2,3,1,0,0,0,0,0,0	71.0	3.0	0.486	0,0,0,1,2,0,3,0,0	to_hand	s586
59.075	0.365	0	UA_without_intermediate	2,3,1,0,0,0,0,0,0	practice	ward_and_allport	2,3,1,0,0,0,0,0,0	89.0	3.0	0.365	0,0,0,1,2,0,3,0,0	to_board	s586
59.445	1.0	0	UA_without_intermediate	n/a	practice	ward_and_allport	n/a	-1.0	3.0	n/a	n/a	feedback	s586
60.445	1.0	0	UA_without_intermediate	n/a	practice	ward_and_allport	n/a	-1.0	3.0	n/a	n/a	ITI	s586
63.45	4.286	1	PA_with_intermediate	0,0,0,1,2,0,0,0,0	test	ward_and_allport	2,0,0,1,3,0,0,0,0	71.0	0.0	4.286	0,0,0,1,2,3,0,0,0	to_hand	s586
67.737	1.97	0	PA_with_intermediate	0,0,0,1,2,0,3,0,0	test	ward_and_allport	2,0,0,1,3,0,0,0,0	82.0	0.0	1.97	0,0,0,1,2,3,0,0,0	to_board	s586
69.709	2.663	0	PA_with_intermediate	0,0,0,1,0,0,3,0,0	test	ward_and_allport	2,0,0,1,3,0,0,0,0	71.0	0.0	2.663	0,0,0,1,2,3,0,0,0	to_hand	s586
72.374	0.915	0	PA_with_intermediate	2,0,0,1,0,0,3,0,0	test	ward_and_allport	2,0,0,1,3,0,0,0,0	89.0	0.0	0.915	0,0,0,1,2,3,0,0,0	to_board	s586
73.291	2.299	0	PA_with_intermediate	2,0,0,1,0,0,0,0,0	test	ward_and_allport	2,0,0,1,3,0,0,0,0	82.0	0.0	2.299	0,0,0,1,2,3,0,0,0	to_hand	s586
75.591	0.79	0	PA_with_intermediate	2,0,0,1,3,0,0,0,0	test	ward_and_allport	2,0,0,1,3,0,0,0,0	71.0	0.0	0.79	0,0,0,1,2,3,0,0,0	to_board	s586
76.387	1.0	0	PA_with_intermediate	n/a	test	ward_and_allport	n/a	-1.0	0.0	n/a	n/a	feedback	s586
77.387	2.768	0	PA_with_intermediate	n/a	test	ward_and_allport	n/a	-1.0	0.0	n/a	n/a	ITI	s586
80.157	4.294	1	PA_with_intermediate	1,2,0,0,0,0,0,0,0	test	ward_and_allport	1,3,0,2,0,0,0,0,0	89.0	1.0	4.294	1,2,3,0,0,0,0,0,0	to_hand	s586
84.452	1.28	0	PA_with_intermediate	1,2,0,0,0,0,3,0,0	test	ward_and_allport	1,3,0,2,0,0,0,0,0	82.0	1.0	1.28	1,2,3,0,0,0,0,0,0	to_board	s586
85.735	6.631	0	PA_with_intermediate	1,0,0,0,0,0,3,0,0	test	ward_and_allport	1,3,0,2,0,0,0,0,0	89.0	1.0	6.631	1,2,3,0,0,0,0,0,0	to_hand	s586
92.367	0.505	0	PA_with_intermediate	1,0,0,2,0,0,3,0,0	test	ward_and_allport	1,3,0,2,0,0,0,0,0	71.0	1.0	0.505	1,2,3,0,0,0,0,0,0	to_board	s586
92.875	1.779	0	PA_with_intermediate	1,0,0,2,0,0,0,0,0	test	ward_and_allport	1,3,0,2,0,0,0,0,0	82.0	1.0	1.779	1,2,3,0,0,0,0,0,0	to_hand	s586
94.655	0.811	0	PA_with_intermediate	1,3,0,2,0,0,0,0,0	test	ward_and_allport	1,3,0,2,0,0,0,0,0	89.0	1.0	0.811	1,2,3,0,0,0,0,0,0	to_board	s586
95.473	1.0	0	PA_with_intermediate	n/a	test	ward_and_allport	n/a	-1.0	1.0	n/a	n/a	feedback	s586
96.473	1.68	0	PA_with_intermediate	n/a	test	ward_and_allport	n/a	-1.0	1.0	n/a	n/a	ITI	s586
98.157	6.201	1	PA_without_intermediate	1,2,0,0,0,0,0,0,0	test	ward_and_allport	0,0,0,3,2,0,1,0,0	89.0	2.0	6.201	1,2,3,0,0,0,0,0,0	to_hand	s586
104.358	5.653	0	PA_without_intermediate	1,2,0,3,0,0,0,0,0	test	ward_and_allport	0,0,0,3,2,0,1,0,0	71.0	2.0	5.653	1,2,3,0,0,0,0,0,0	to_board	s586
110.014	1.176	0	PA_without_intermediate	1,0,0,3,0,0,0,0,0	test	ward_and_allport	0,0,0,3,2,0,1,0,0	89.0	2.0	1.176	1,2,3,0,0,0,0,0,0	to_hand	s586
111.192	1.583	0	PA_without_intermediate	1,0,0,3,2,0,0,0,0	test	ward_and_allport	0,0,0,3,2,0,1,0,0	71.0	2.0	1.583	1,2,3,0,0,0,0,0,0	to_board	s586
112.777	0.81	0	PA_without_intermediate	0,0,0,3,2,0,0,0,0	test	ward_and_allport	0,0,0,3,2,0,1,0,0	89.0	2.0	0.81	1,2,3,0,0,0,0,0,0	to_hand	s586
113.588	1.086	0	PA_without_intermediate	0,0,0,3,2,0,1,0,0	test	ward_and_allport	0,0,0,3,2,0,1,0,0	82.0	2.0	1.086	1,2,3,0,0,0,0,0,0	to_board	s586
114.679	1.0	0	PA_without_intermediate	n/a	test	ward_and_allport	n/a	-1.0	2.0	n/a	n/a	feedback	s586
115.679	2.224	0	PA_without_intermediate	n/a	test	ward_and_allport	n/a	-1.0	2.0	n/a	n/a	ITI	s586
117.907	8.986	1	PA_without_intermediate	1,2,0,0,0,0,0,0,0	test	ward_and_allport	0,0,0,1,0,0,3,2,0	89.0	3.0	8.986	1,2,3,0,0,0,0,0,0	to_hand	s586
126.894	1.241	0	PA_without_intermediate	1,2,0,0,0,0,3,0,0	test	ward_and_allport	0,0,0,1,0,0,3,2,0	82.0	3.0	1.241	1,2,3,0,0,0,0,0,0	to_board	s586
128.138	4.226	0	PA_without_intermediate	1,0,0,0,0,0,3,0,0	test	ward_and_allport	0,0,0,1,0,0,3,2,0	89.0	3.0	4.226	1,2,3,0,0,0,0,0,0	to_hand	s586
132.367	1.737	0	PA_without_intermediate	1,0,0,0,0,0,3,2,0	test	ward_and_allport	0,0,0,1,0,0,3,2,0	82.0	3.0	1.737	1,2,3,0,0,0,0,0,0	to_board	s586
134.107	1.441	0	PA_without_intermediate	0,0,0,0,0,0,3,2,0	test	ward_and_allport	0,0,0,1,0,0,3,2,0	89.0	3.0	1.441	1,2,3,0,0,0,0,0,0	to_hand	s586
135.549	0.402	0	PA_without_intermediate	0,0,0,1,0,0,3,2,0	test	ward_and_allport	0,0,0,1,0,0,3,2,0	71.0	3.0	0.402	1,2,3,0,0,0,0,0,0	to_board	s586
135.96	1.0	0	PA_without_intermediate	n/a	test	ward_and_allport	n/a	-1.0	3.0	n/a	n/a	feedback	s586
136.96	2.36	0	PA_without_intermediate	n/a	test	ward_and_allport	n/a	-1.0	3.0	n/a	n/a	ITI	s586
139.323	12.115	1	PA_without_intermediate	0,0,0,0,0,0,1,2,0	test	ward_and_allport	3,2,0,1,0,0,0,0,0	82.0	4.0	12.115	0,0,0,0,0,0,1,2,3	to_hand	s586
151.439	1.127	0	PA_without_intermediate	3,0,0,0,0,0,1,2,0	test	ward_and_allport	3,2,0,1,0,0,0,0,0	89.0	4.0	1.127	0,0,0,0,0,0,1,2,3	to_board	s586
152.57	3.762	0	PA_without_intermediate	3,0,0,0,0,0,1,0,0	test	ward_and_allport	3,2,0,1,0,0,0,0,0	82.0	4.0	3.762	0,0,0,0,0,0,1,2,3	to_hand	s586
156.333	1.453	0	PA_without_intermediate	3,2,0,0,0,0,1,0,0	test	ward_and_allport	3,2,0,1,0,0,0,0,0	89.0	4.0	1.453	0,0,0,0,0,0,1,2,3	to_board	s586
157.79	2.143	0	PA_without_intermediate	3,2,0,0,0,0,0,0,0	test	ward_and_allport	3,2,0,1,0,0,0,0,0	82.0	4.0	2.143	0,0,0,0,0,0,1,2,3	to_hand	s586
159.934	0.34	0	PA_without_intermediate	3,2,0,1,0,0,0,0,0	test	ward_and_allport	3,2,0,1,0,0,0,0,0	71.0	4.0	0.34	0,0,0,0,0,0,1,2,3	to_board	s586
160.28	1.0	0	PA_without_intermediate	n/a	test	ward_and_allport	n/a	-1.0	4.0	n/a	n/a	feedback	s586
161.28	1.0	0	PA_without_intermediate	n/a	test	ward_and_allport	n/a	-1.0	4.0	n/a	n/a	ITI	s586
162.284	11.631	1	PA_without_intermediate	0,0,0,0,0,0,1,2,0	test	ward_and_allport	3,2,0,1,0,0,0,0,0	82.0	5.0	11.631	0,0,0,0,0,0,1,2,3	to_hand	s586
173.916	2.769	0	PA_without_intermediate	3,0,0,0,0,0,1,2,0	test	ward_and_allport	3,2,0,1,0,0,0,0,0	89.0	5.0	2.769	0,0,0,0,0,0,1,2,3	to_board	s586
176.69	1.901	0	PA_without_intermediate	3,0,0,0,0,0,1,0,0	test	ward_and_allport	3,2,0,1,0,0,0,0,0	82.0	5.0	1.901	0,0,0,0,0,0,1,2,3	to_hand	s586
178.593	0.765	0	PA_without_intermediate	3,2,0,0,0,0,1,0,0	test	ward_and_allport	3,2,0,1,0,0,0,0,0	89.0	5.0	0.765	0,0,0,0,0,0,1,2,3	to_board	s586
179.361	1.23	0	PA_without_intermediate	3,2,0,0,0,0,0,0,0	test	ward_and_allport	3,2,0,1,0,0,0,0,0	82.0	5.0	1.23	0,0,0,0,0,0,1,2,3	to_hand	s586
180.593	0.916	0	PA_without_intermediate	3,2,0,1,0,0,0,0,0	test	ward_and_allport	3,2,0,1,0,0,0,0,0	71.0	5.0	0.916	0,0,0,0,0,0,1,2,3	to_board	s586
181.516	1.0	0	PA_without_intermediate	n/a	test	ward_and_allport	n/a	-1.0	5.0	n/a	n/a	feedback	s586
182.516	1.408	0	PA_without_intermediate	n/a	test	ward_and_allport	n/a	-1.0	5.0	n/a	n/a	ITI	s586
183.927	6.853	1	PA_with_intermediate	0,0,0,1,2,0,0,0,0	test	ward_and_allport	2,3,0,1,0,0,0,0,0	71.0	6.0	6.853	0,0,0,1,2,3,0,0,0	to_hand	s586
190.781	0.497	0	PA_with_intermediate	0,0,0,1,2,0,3,0,0	test	ward_and_allport	2,3,0,1,0,0,0,0,0	82.0	6.0	0.497	0,0,0,1,2,3,0,0,0	to_board	s586
191.281	0.457	0	PA_with_intermediate	0,0,0,1,0,0,3,0,0	test	ward_and_allport	2,3,0,1,0,0,0,0,0	71.0	6.0	0.457	0,0,0,1,2,3,0,0,0	to_hand	s586
191.739	0.496	0	PA_with_intermediate	2,0,0,1,0,0,3,0,0	test	ward_and_allport	2,3,0,1,0,0,0,0,0	89.0	6.0	0.496	0,0,0,1,2,3,0,0,0	to_board	s586
192.238	0.906	0	PA_with_intermediate	2,0,0,1,0,0,0,0,0	test	ward_and_allport	2,3,0,1,0,0,0,0,0	82.0	6.0	0.906	0,0,0,1,2,3,0,0,0	to_hand	s586
193.145	0.423	0	PA_with_intermediate	2,3,0,1,0,0,0,0,0	test	ward_and_allport	2,3,0,1,0,0,0,0,0	89.0	6.0	0.423	0,0,0,1,2,3,0,0,0	to_board	s586
193.574	1.0	0	PA_with_intermediate	n/a	test	ward_and_allport	n/a	-1.0	6.0	n/a	n/a	feedback	s586
194.574	1.136	0	PA_with_intermediate	n/a	test	ward_and_allport	n/a	-1.0	6.0	n/a	n/a	ITI	s586
195.714	7.252	1	PA_without_intermediate	0,0,0,1,2,0,0,0,0	test	ward_and_allport	2,0,0,0,0,0,3,1,0	71.0	7.0	7.252	0,0,0,1,2,3,0,0,0	to_hand	s586
202.967	0.965	0	PA_without_intermediate	0,0,0,1,2,0,3,0,0	test	ward_and_allport	2,0,0,0,0,0,3,1,0	82.0	7.0	0.965	0,0,0,1,2,3,0,0,0	to_board	s586
203.936	1.55	0	PA_without_intermediate	0,0,0,1,0,0,3,0,0	test	ward_and_allport	2,0,0,0,0,0,3,1,0	71.0	7.0	1.55	0,0,0,1,2,3,0,0,0	to_hand	s586
205.487	1.859	0	PA_without_intermediate	2,0,0,1,0,0,3,0,0	test	ward_and_allport	2,0,0,0,0,0,3,1,0	89.0	7.0	1.859	0,0,0,1,2,3,0,0,0	to_board	s586
207.35	0.408	0	PA_without_intermediate	2,0,0,0,0,0,3,0,0	test	ward_and_allport	2,0,0,0,0,0,3,1,0	71.0	7.0	0.408	0,0,0,1,2,3,0,0,0	to_hand	s586
207.759	0.818	0	PA_without_intermediate	2,0,0,0,0,0,3,1,0	test	ward_and_allport	2,0,0,0,0,0,3,1,0	82.0	7.0	0.818	0,0,0,1,2,3,0,0,0	to_board	s586
208.584	1.0	0	PA_without_intermediate	n/a	test	ward_and_allport	n/a	-1.0	7.0	n/a	n/a	feedback	s586
209.584	4.128	0	PA_without_intermediate	n/a	test	ward_and_allport	n/a	-1.0	7.0	n/a	n/a	ITI	s586
213.715	4.115	1	PA_without_intermediate	0,0,0,1,2,0,0,0,0	test	ward_and_allport	2,0,0,0,0,0,3,1,0	71.0	8.0	4.115	0,0,0,1,2,3,0,0,0	to_hand	s586
217.831	1.231	0	PA_without_intermediate	0,0,0,1,2,0,3,0,0	test	ward_and_allport	2,0,0,0,0,0,3,1,0	82.0	8.0	1.231	0,0,0,1,2,3,0,0,0	to_board	s586
219.065	0.87	0	PA_without_intermediate	0,0,0,1,0,0,3,0,0	test	ward_and_allport	2,0,0,0,0,0,3,1,0	71.0	8.0	0.87	0,0,0,1,2,3,0,0,0	to_hand	s586
219.936	0.838	0	PA_without_intermediate	2,0,0,1,0,0,3,0,0	test	ward_and_allport	2,0,0,0,0,0,3,1,0	89.0	8.0	0.838	0,0,0,1,2,3,0,0,0	to_board	s586
220.778	0.417	0	PA_without_intermediate	2,0,0,0,0,0,3,0,0	test	ward_and_allport	2,0,0,0,0,0,3,1,0	71.0	8.0	0.417	0,0,0,1,2,3,0,0,0	to_hand	s586
221.196	0.479	0	PA_without_intermediate	2,0,0,0,0,0,3,1,0	test	ward_and_allport	2,0,0,0,0,0,3,1,0	82.0	8.0	0.479	0,0,0,1,2,3,0,0,0	to_board	s586
221.683	1.0	0	PA_without_intermediate	n/a	test	ward_and_allport	n/a	-1.0	8.0	n/a	n/a	feedback	s586
222.683	1.136	0	PA_without_intermediate	n/a	test	ward_and_allport	n/a	-1.0	8.0	n/a	n/a	ITI	s586
223.823	3.965	1	PA_without_intermediate	1,2,0,0,0,0,0,0,0	test	ward_and_allport	0,0,0,2,0,0,3,1,0	89.0	9.0	3.965	1,2,3,0,0,0,0,0,0	to_hand	s586
227.789	1.082	0	PA_without_intermediate	1,2,0,0,0,0,3,0,0	test	ward_and_allport	0,0,0,2,0,0,3,1,0	82.0	9.0	1.082	1,2,3,0,0,0,0,0,0	to_board	s586
228.877	1.903	0	PA_without_intermediate	1,0,0,0,0,0,3,0,0	test	ward_and_allport	0,0,0,2,0,0,3,1,0	89.0	9.0	1.903	1,2,3,0,0,0,0,0,0	to_hand	s586
230.781	0.437	0	PA_without_intermediate	1,0,0,2,0,0,3,0,0	test	ward_and_allport	0,0,0,2,0,0,3,1,0	71.0	9.0	0.437	1,2,3,0,0,0,0,0,0	to_board	s586
231.222	0.394	0	PA_without_intermediate	0,0,0,2,0,0,3,0,0	test	ward_and_allport	0,0,0,2,0,0,3,1,0	89.0	9.0	0.394	1,2,3,0,0,0,0,0,0	to_hand	s586
231.617	0.9	0	PA_without_intermediate	0,0,0,2,0,0,3,1,0	test	ward_and_allport	0,0,0,2,0,0,3,1,0	82.0	9.0	0.9	1,2,3,0,0,0,0,0,0	to_board	s586
232.523	1.0	0	PA_without_intermediate	n/a	test	ward_and_allport	n/a	-1.0	9.0	n/a	n/a	feedback	s586
233.523	4.264	0	PA_without_intermediate	n/a	test	ward_and_allport	n/a	-1.0	9.0	n/a	n/a	ITI	s586
237.791	5.938	1	PA_with_intermediate	1,2,0,0,0,0,0,0,0	test	ward_and_allport	1,0,0,0,0,0,2,3,0	89.0	10.0	5.938	1,2,3,0,0,0,0,0,0	to_hand	s586
243.731	1.297	0	PA_with_intermediate	1,2,0,3,0,0,0,0,0	test	ward_and_allport	1,0,0,0,0,0,2,3,0	71.0	10.0	1.297	1,2,3,0,0,0,0,0,0	to_board	s586
245.034	1.243	0	PA_with_intermediate	1,0,0,3,0,0,0,0,0	test	ward_and_allport	1,0,0,0,0,0,2,3,0	89.0	10.0	1.243	1,2,3,0,0,0,0,0,0	to_hand	s586
246.278	1.158	0	PA_with_intermediate	1,0,0,3,0,0,2,0,0	test	ward_and_allport	1,0,0,0,0,0,2,3,0	82.0	10.0	1.158	1,2,3,0,0,0,0,0,0	to_board	s586
247.441	0.51	0	PA_with_intermediate	1,0,0,0,0,0,2,0,0	test	ward_and_allport	1,0,0,0,0,0,2,3,0	71.0	10.0	0.51	1,2,3,0,0,0,0,0,0	to_hand	s586
247.953	0.782	0	PA_with_intermediate	1,0,0,0,0,0,2,3,0	test	ward_and_allport	1,0,0,0,0,0,2,3,0	82.0	10.0	0.782	1,2,3,0,0,0,0,0,0	to_board	s586
248.74	1.0	0	PA_with_intermediate	n/a	test	ward_and_allport	n/a	-1.0	10.0	n/a	n/a	feedback	s586
249.74	3.04	0	PA_with_intermediate	n/a	test	ward_and_allport	n/a	-1.0	10.0	n/a	n/a	ITI	s586
252.786	8.752	1	PA_with_intermediate	0,0,0,1,2,0,0,0,0	test	ward_and_allport	0,0,0,1,3,0,2,0,0	71.0	11.0	8.752	0,0,0,1,2,3,0,0,0	to_hand	s586
261.539	0.777	0	PA_with_intermediate	3,0,0,1,2,0,0,0,0	test	ward_and_allport	0,0,0,1,3,0,2,0,0	89.0	11.0	0.777	0,0,0,1,2,3,0,0,0	to_board	s586
262.321	1.376	0	PA_with_intermediate	3,0,0,1,0,0,0,0,0	test	ward_and_allport	0,0,0,1,3,0,2,0,0	71.0	11.0	1.376	0,0,0,1,2,3,0,0,0	to_hand	s586
263.698	1.41	0	PA_with_intermediate	3,0,0,1,0,0,2,0,0	test	ward_and_allport	0,0,0,1,3,0,2,0,0	82.0	11.0	1.41	0,0,0,1,2,3,0,0,0	to_board	s586
265.113	0.672	0	PA_with_intermediate	0,0,0,1,0,0,2,0,0	test	ward_and_allport	0,0,0,1,3,0,2,0,0	89.0	11.0	0.672	0,0,0,1,2,3,0,0,0	to_hand	s586
265.787	0.425	0	PA_with_intermediate	0,0,0,1,3,0,2,0,0	test	ward_and_allport	0,0,0,1,3,0,2,0,0	71.0	11.0	0.425	0,0,0,1,2,3,0,0,0	to_board	s586
266.218	1.0	0	PA_with_intermediate	n/a	test	ward_and_allport	n/a	-1.0	11.0	n/a	n/a	feedback	s586
267.218	1.136	0	PA_with_intermediate	n/a	test	ward_and_allport	n/a	-1.0	11.0	n/a	n/a	ITI	s586
268.357	9.318	1	PA_with_intermediate	0,0,0,0,0,0,1,2,0	test	ward_and_allport	2,0,0,0,0,0,1,3,0	82.0	12.0	9.318	0,0,0,0,0,0,1,2,3	to_hand	s586
277.676	2.194	0	PA_with_intermediate	0,0,0,3,0,0,1,2,0	test	ward_and_allport	2,0,0,0,0,0,1,3,0	71.0	12.0	2.194	0,0,0,0,0,0,1,2,3	to_board	s586
279.874	1.414	0	PA_with_intermediate	0,0,0,3,0,0,1,0,0	test	ward_and_allport	2,0,0,0,0,0,1,3,0	82.0	12.0	1.414	0,0,0,0,0,0,1,2,3	to_hand	s586
281.289	0.471	0	PA_with_intermediate	2,0,0,3,0,0,1,0,0	test	ward_and_allport	2,0,0,0,0,0,1,3,0	89.0	12.0	0.471	0,0,0,0,0,0,1,2,3	to_board	s586
281.766	0.578	0	PA_with_intermediate	2,0,0,0,0,0,1,0,0	test	ward_and_allport	2,0,0,0,0,0,1,3,0	71.0	12.0	0.578	0,0,0,0,0,0,1,2,3	to_hand	s586
282.345	2.708	0	PA_with_intermediate	2,0,0,0,0,0,1,3,0	test	ward_and_allport	2,0,0,0,0,0,1,3,0	82.0	12.0	2.708	0,0,0,0,0,0,1,2,3	to_board	s586
285.061	1.0	0	PA_with_intermediate	n/a	test	ward_and_allport	n/a	-1.0	12.0	n/a	n/a	feedback	s586
286.061	1.408	0	PA_with_intermediate	n/a	test	ward_and_allport	n/a	-1.0	12.0	n/a	n/a	ITI	s586
287.474	13.418	1	PA_without_intermediate	0,0,0,0,0,0,1,2,0	test	ward_and_allport	2,0,0,3,1,0,0,0,0	82.0	13.0	13.418	0,0,0,0,0,0,1,2,3	to_hand	s586
300.894	1.082	0	PA_without_intermediate	0,0,0,3,0,0,1,2,0	test	ward_and_allport	2,0,0,3,1,0,0,0,0	71.0	13.0	1.082	0,0,0,0,0,0,1,2,3	to_board	s586
301.981	2.276	0	PA_without_intermediate	0,0,0,3,0,0,1,0,0	test	ward_and_allport	2,0,0,3,1,0,0,0,0	82.0	13.0	2.276	0,0,0,0,0,0,1,2,3	to_hand	s586
304.259	0.417	0	PA_without_intermediate	2,0,0,3,0,0,1,0,0	test	ward_and_allport	2,0,0,3,1,0,0,0,0	89.0	13.0	0.417	0,0,0,0,0,0,1,2,3	to_board	s586
304.681	2.679	0	PA_without_intermediate	2,0,0,3,0,0,0,0,0	test	ward_and_allport	2,0,0,3,1,0,0,0,0	82.0	13.0	2.679	0,0,0,0,0,0,1,2,3	to_hand	s586
307.36	0.639	0	PA_without_intermediate	2,0,0,3,1,0,0,0,0	test	ward_and_allport	2,0,0,3,1,0,0,0,0	71.0	13.0	0.639	0,0,0,0,0,0,1,2,3	to_board	s586
308.006	1.0	0	PA_without_intermediate	n/a	test	ward_and_allport	n/a	-1.0	13.0	n/a	n/a	feedback	s586
309.006	1.68	0	PA_without_intermediate	n/a	test	ward_and_allport	n/a	-1.0	13.0	n/a	n/a	ITI	s586
310.691	4.641	1	PA_with_intermediate	0,0,0,1,2,0,0,0,0	test	ward_and_allport	2,3,0,1,0,0,0,0,0	71.0	14.0	4.641	0,0,0,1,2,3,0,0,0	to_hand	s586
315.333	1.281	0	PA_with_intermediate	0,0,0,1,2,0,3,0,0	test	ward_and_allport	2,3,0,1,0,0,0,0,0	82.0	14.0	1.281	0,0,0,1,2,3,0,0,0	to_board	s586
316.619	0.583	0	PA_with_intermediate	0,0,0,1,0,0,3,0,0	test	ward_and_allport	2,3,0,1,0,0,0,0,0	71.0	14.0	0.583	0,0,0,1,2,3,0,0,0	to_hand	s586
317.203	0.46	0	PA_with_intermediate	2,0,0,1,0,0,3,0,0	test	ward_and_allport	2,3,0,1,0,0,0,0,0	89.0	14.0	0.46	0,0,0,1,2,3,0,0,0	to_board	s586
317.668	1.04	0	PA_with_intermediate	2,0,0,1,0,0,0,0,0	test	ward_and_allport	2,3,0,1,0,0,0,0,0	82.0	14.0	1.04	0,0,0,1,2,3,0,0,0	to_hand	s586
318.709	0.427	0	PA_with_intermediate	2,3,0,1,0,0,0,0,0	test	ward_and_allport	2,3,0,1,0,0,0,0,0	89.0	14.0	0.427	0,0,0,1,2,3,0,0,0	to_board	s586
319.145	1.0	0	PA_with_intermediate	n/a	test	ward_and_allport	n/a	-1.0	14.0	n/a	n/a	feedback	s586
320.145	3.72	0	PA_with_intermediate	n/a	test	ward_and_allport	n/a	-1.0	14.0	n/a	n/a	ITI	s586
328.871	5.127	1	PA_without_intermediate	1,2,0,0,0,0,0,0,0	test	ward_and_allport	0,0,0,3,1,0,2,0,0	89.0	15.0	5.127	1,2,3,0,0,0,0,0,0	to_hand	s586
334.0	1.19	0	PA_without_intermediate	1,2,0,3,0,0,0,0,0	test	ward_and_allport	0,0,0,3,1,0,2,0,0	71.0	15.0	1.19	1,2,3,0,0,0,0,0,0	to_board	s586
335.195	2.039	0	PA_without_intermediate	1,0,0,3,0,0,0,0,0	test	ward_and_allport	0,0,0,3,1,0,2,0,0	89.0	15.0	2.039	1,2,3,0,0,0,0,0,0	to_hand	s586
337.235	0.99	0	PA_without_intermediate	1,0,0,3,0,0,2,0,0	test	ward_and_allport	0,0,0,3,1,0,2,0,0	82.0	15.0	0.99	1,2,3,0,0,0,0,0,0	to_board	s586
338.231	4.637	0	PA_without_intermediate	0,0,0,3,0,0,2,0,0	test	ward_and_allport	0,0,0,3,1,0,2,0,0	89.0	15.0	4.637	1,2,3,0,0,0,0,0,0	to_hand	s586
342.869	0.357	0	PA_without_intermediate	0,0,0,3,1,0,2,0,0	test	ward_and_allport	0,0,0,3,1,0,2,0,0	71.0	15.0	0.357	1,2,3,0,0,0,0,0,0	to_board	s586
343.233	1.0	0	PA_without_intermediate	n/a	test	ward_and_allport	n/a	-1.0	15.0	n/a	n/a	feedback	s586
344.233	2.224	0	PA_without_intermediate	n/a	test	ward_and_allport	n/a	-1.0	15.0	n/a	n/a	ITI	s586
346.462	1.712	1	PA_without_intermediate	0,0,0,1,2,0,0,0,0	test	ward_and_allport	1,0,0,0,0,0,3,2,0	71.0	16.0	1.712	0,0,0,1,2,3,0,0,0	to_hand	s586
348.175	2.074	0	PA_without_intermediate	0,0,0,1,2,0,3,0,0	test	ward_and_allport	1,0,0,0,0,0,3,2,0	82.0	16.0	2.074	0,0,0,1,2,3,0,0,0	to_board	s586
350.255	0.833	0	PA_without_intermediate	0,0,0,1,0,0,3,0,0	test	ward_and_allport	1,0,0,0,0,0,3,2,0	71.0	16.0	0.833	0,0,0,1,2,3,0,0,0	to_hand	s586
351.09	0.781	0	PA_without_intermediate	0,0,0,1,0,0,3,2,0	test	ward_and_allport	1,0,0,0,0,0,3,2,0	82.0	16.0	0.781	0,0,0,1,2,3,0,0,0	to_board	s586
351.876	2.323	0	PA_without_intermediate	0,0,0,0,0,0,3,2,0	test	ward_and_allport	1,0,0,0,0,0,3,2,0	71.0	16.0	2.323	0,0,0,1,2,3,0,0,0	to_hand	s586
354.201	0.209	0	PA_without_intermediate	1,0,0,0,0,0,3,2,0	test	ward_and_allport	1,0,0,0,0,0,3,2,0	89.0	16.0	0.209	0,0,0,1,2,3,0,0,0	to_board	s586
354.421	1.0	0	PA_without_intermediate	n/a	test	ward_and_allport	n/a	-1.0	16.0	n/a	n/a	feedback	s586
355.421	1.272	0	PA_without_intermediate	n/a	test	ward_and_allport	n/a	-1.0	16.0	n/a	n/a	ITI	s586
356.697	5.642	1	PA_with_intermediate	1,2,0,0,0,0,0,0,0	test	ward_and_allport	1,3,0,0,0,0,2,0,0	89.0	17.0	5.642	1,2,3,0,0,0,0,0,0	to_hand	s586
362.341	1.051	0	PA_with_intermediate	1,2,0,3,0,0,0,0,0	test	ward_and_allport	1,3,0,0,0,0,2,0,0	71.0	17.0	1.051	1,2,3,0,0,0,0,0,0	to_board	s586
363.4	1.14	0	PA_with_intermediate	1,0,0,3,0,0,0,0,0	test	ward_and_allport	1,3,0,0,0,0,2,0,0	89.0	17.0	1.14	1,2,3,0,0,0,0,0,0	to_hand	s586
364.54	0.565	0	PA_with_intermediate	1,0,0,3,0,0,2,0,0	test	ward_and_allport	1,3,0,0,0,0,2,0,0	82.0	17.0	0.565	1,2,3,0,0,0,0,0,0	to_board	s586
365.111	2.284	0	PA_with_intermediate	1,0,0,0,0,0,2,0,0	test	ward_and_allport	1,3,0,0,0,0,2,0,0	71.0	17.0	2.284	1,2,3,0,0,0,0,0,0	to_hand	s586
367.396	0.451	0	PA_with_intermediate	1,3,0,0,0,0,2,0,0	test	ward_and_allport	1,3,0,0,0,0,2,0,0	89.0	17.0	0.451	1,2,3,0,0,0,0,0,0	to_board	s586
367.856	1.0	0	PA_with_intermediate	n/a	test	ward_and_allport	n/a	-1.0	17.0	n/a	n/a	feedback	s586
368.856	2.632	0	PA_with_intermediate	n/a	test	ward_and_allport	n/a	-1.0	17.0	n/a	n/a	ITI	s586
371.495	3.498	1	PA_without_intermediate	0,0,0,1,2,0,0,0,0	test	ward_and_allport	1,0,0,0,0,0,3,2,0	71.0	18.0	3.498	0,0,0,1,2,3,0,0,0	to_hand	s586
374.994	0.447	0	PA_without_intermediate	0,0,0,1,2,0,3,0,0	test	ward_and_allport	1,0,0,0,0,0,3,2,0	82.0	18.0	0.447	0,0,0,1,2,3,0,0,0	to_board	s586
375.447	0.484	0	PA_without_intermediate	0,0,0,1,0,0,3,0,0	test	ward_and_allport	1,0,0,0,0,0,3,2,0	71.0	18.0	0.484	0,0,0,1,2,3,0,0,0	to_hand	s586
375.932	0.458	0	PA_without_intermediate	0,0,0,1,0,0,3,2,0	test	ward_and_allport	1,0,0,0,0,0,3,2,0	82.0	18.0	0.458	0,0,0,1,2,3,0,0,0	to_board	s586
376.396	2.589	0	PA_without_intermediate	0,0,0,0,0,0,3,2,0	test	ward_and_allport	1,0,0,0,0,0,3,2,0	71.0	18.0	2.589	0,0,0,1,2,3,0,0,0	to_hand	s586
378.986	0.279	0	PA_without_intermediate	1,0,0,0,0,0,3,2,0	test	ward_and_allport	1,0,0,0,0,0,3,2,0	89.0	18.0	0.279	0,0,0,1,2,3,0,0,0	to_board	s586
379.272	1.0	0	PA_without_intermediate	n/a	test	ward_and_allport	n/a	-1.0	18.0	n/a	n/a	feedback	s586
380.272	1.408	0	PA_without_intermediate	n/a	test	ward_and_allport	n/a	-1.0	18.0	n/a	n/a	ITI	s586
381.685	5.325	1	PA_without_intermediate	1,2,0,0,0,0,0,0,0	test	ward_and_allport	0,0,0,3,1,0,2,0,0	89.0	19.0	5.325	1,2,3,0,0,0,0,0,0	to_hand	s586
387.011	0.261	0	PA_without_intermediate	1,2,0,3,0,0,0,0,0	test	ward_and_allport	0,0,0,3,1,0,2,0,0	71.0	19.0	0.261	1,2,3,0,0,0,0,0,0	to_board	s586
387.277	1.967	0	PA_without_intermediate	1,0,0,3,0,0,0,0,0	test	ward_and_allport	0,0,0,3,1,0,2,0,0	89.0	19.0	1.967	1,2,3,0,0,0,0,0,0	to_hand	s586
389.246	2.321	0	PA_without_intermediate	1,0,0,3,0,0,2,0,0	test	ward_and_allport	0,0,0,3,1,0,2,0,0	82.0	19.0	2.321	1,2,3,0,0,0,0,0,0	to_board	s586
391.572	0.818	0	PA_without_intermediate	0,0,0,3,0,0,2,0,0	test	ward_and_allport	0,0,0,3,1,0,2,0,0	89.0	19.0	0.818	1,2,3,0,0,0,0,0,0	to_hand	s586
392.391	0.301	0	PA_without_intermediate	0,0,0,3,1,0,2,0,0	test	ward_and_allport	0,0,0,3,1,0,2,0,0	71.0	19.0	0.301	1,2,3,0,0,0,0,0,0	to_board	s586
392.699	1.0	0	PA_without_intermediate	n/a	test	ward_and_allport	n/a	-1.0	19.0	n/a	n/a	feedback	s586
393.699	1.0	0	PA_without_intermediate	n/a	test	ward_and_allport	n/a	-1.0	19.0	n/a	n/a	ITI	s586
394.706	3.001	1	PA_with_intermediate	1,2,0,0,0,0,0,0,0	test	ward_and_allport	1,0,0,2,3,0,0,0,0	89.0	20.0	3.001	1,2,3,0,0,0,0,0,0	to_hand	s586
397.708	2.347	0	PA_with_intermediate	1,2,0,0,0,0,3,0,0	test	ward_and_allport	1,0,0,2,3,0,0,0,0	82.0	20.0	2.347	1,2,3,0,0,0,0,0,0	to_board	s586
400.061	1.284	0	PA_with_intermediate	1,0,0,0,0,0,3,0,0	test	ward_and_allport	1,0,0,2,3,0,0,0,0	89.0	20.0	1.284	1,2,3,0,0,0,0,0,0	to_hand	s586
401.346	0.352	0	PA_with_intermediate	1,0,0,2,0,0,3,0,0	test	ward_and_allport	1,0,0,2,3,0,0,0,0	71.0	20.0	0.352	1,2,3,0,0,0,0,0,0	to_board	s586
401.705	1.1	0	PA_with_intermediate	1,0,0,2,0,0,0,0,0	test	ward_and_allport	1,0,0,2,3,0,0,0,0	82.0	20.0	1.1	1,2,3,0,0,0,0,0,0	to_hand	s586
402.806	0.441	0	PA_with_intermediate	1,0,0,2,3,0,0,0,0	test	ward_and_allport	1,0,0,2,3,0,0,0,0	71.0	20.0	0.441	1,2,3,0,0,0,0,0,0	to_board	s586
403.255	1.0	0	PA_with_intermediate	n/a	test	ward_and_allport	n/a	-1.0	20.0	n/a	n/a	feedback	s586
404.255	1.0	0	PA_with_intermediate	n/a	test	ward_and_allport	n/a	-1.0	20.0	n/a	n/a	ITI	s586
405.261	3.487	1	PA_with_intermediate	1,2,0,0,0,0,0,0,0	test	ward_and_allport	1,0,0,2,3,0,0,0,0	89.0	21.0	3.487	1,2,3,0,0,0,0,0,0	to_hand	s586
408.749	0.807	0	PA_with_intermediate	1,2,0,0,0,0,3,0,0	test	ward_and_allport	1,0,0,2,3,0,0,0,0	82.0	21.0	0.807	1,2,3,0,0,0,0,0,0	to_board	s586
409.564	1.635	0	PA_with_intermediate	1,0,0,0,0,0,3,0,0	test	ward_and_allport	1,0,0,2,3,0,0,0,0	89.0	21.0	1.635	1,2,3,0,0,0,0,0,0	to_hand	s586
411.2	0.354	0	PA_with_intermediate	1,0,0,2,0,0,3,0,0	test	ward_and_allport	1,0,0,2,3,0,0,0,0	71.0	21.0	0.354	1,2,3,0,0,0,0,0,0	to_board	s586
411.561	0.949	0	PA_with_intermediate	1,0,0,2,0,0,0,0,0	test	ward_and_allport	1,0,0,2,3,0,0,0,0	82.0	21.0	0.949	1,2,3,0,0,0,0,0,0	to_hand	s586
412.51	0.297	0	PA_with_intermediate	1,0,0,2,3,0,0,0,0	test	ward_and_allport	1,0,0,2,3,0,0,0,0	71.0	21.0	0.297	1,2,3,0,0,0,0,0,0	to_board	s586
412.815	1.0	0	PA_with_intermediate	n/a	test	ward_and_allport	n/a	-1.0	21.0	n/a	n/a	feedback	s586
413.815	1.0	0	PA_with_intermediate	n/a	test	ward_and_allport	n/a	-1.0	21.0	n/a	n/a	ITI	s586
414.823	5.097	1	PA_with_intermediate	0,0,0,0,0,0,1,2,0	test	ward_and_allport	0,0,0,2,3,0,1,0,0	82.0	22.0	5.097	0,0,0,0,0,0,1,2,3	to_hand	s586
419.921	0.545	0	PA_with_intermediate	3,0,0,0,0,0,1,2,0	test	ward_and_allport	0,0,0,2,3,0,1,0,0	89.0	22.0	0.545	0,0,0,0,0,0,1,2,3	to_board	s586
420.472	2.186	0	PA_with_intermediate	3,0,0,0,0,0,1,0,0	test	ward_and_allport	0,0,0,2,3,0,1,0,0	82.0	22.0	2.186	0,0,0,0,0,0,1,2,3	to_hand	s586
422.659	0.368	0	PA_with_intermediate	3,0,0,2,0,0,1,0,0	test	ward_and_allport	0,0,0,2,3,0,1,0,0	71.0	22.0	0.368	0,0,0,0,0,0,1,2,3	to_board	s586
423.034	0.917	0	PA_with_intermediate	0,0,0,2,0,0,1,0,0	test	ward_and_allport	0,0,0,2,3,0,1,0,0	89.0	22.0	0.917	0,0,0,0,0,0,1,2,3	to_hand	s586
423.953	0.581	0	PA_with_intermediate	0,0,0,2,3,0,1,0,0	test	ward_and_allport	0,0,0,2,3,0,1,0,0	71.0	22.0	0.581	0,0,0,0,0,0,1,2,3	to_board	s586
424.543	1.0	0	PA_with_intermediate	n/a	test	ward_and_allport	n/a	-1.0	22.0	n/a	n/a	feedback	s586
425.543	1.408	0	PA_with_intermediate	n/a	test	ward_and_allport	n/a	-1.0	22.0	n/a	n/a	ITI	s586
426.958	4.384	1	PA_without_intermediate	1,2,0,0,0,0,0,0,0	test	ward_and_allport	0,0,0,1,0,0,3,2,0	89.0	23.0	4.384	1,2,3,0,0,0,0,0,0	to_hand	s586
431.344	0.981	0	PA_without_intermediate	1,2,0,0,0,0,3,0,0	test	ward_and_allport	0,0,0,1,0,0,3,2,0	82.0	23.0	0.981	1,2,3,0,0,0,0,0,0	to_board	s586
432.333	1.624	0	PA_without_intermediate	1,0,0,0,0,0,3,0,0	test	ward_and_allport	0,0,0,1,0,0,3,2,0	89.0	23.0	1.624	1,2,3,0,0,0,0,0,0	to_hand	s586
433.958	0.332	0	PA_without_intermediate	1,0,0,0,0,0,3,2,0	test	ward_and_allport	0,0,0,1,0,0,3,2,0	82.0	23.0	0.332	1,2,3,0,0,0,0,0,0	to_board	s586
434.298	1.457	0	PA_without_intermediate	0,0,0,0,0,0,3,2,0	test	ward_and_allport	0,0,0,1,0,0,3,2,0	89.0	23.0	1.457	1,2,3,0,0,0,0,0,0	to_hand	s586
435.757	0.322	0	PA_without_intermediate	0,0,0,1,0,0,3,2,0	test	ward_and_allport	0,0,0,1,0,0,3,2,0	71.0	23.0	0.322	1,2,3,0,0,0,0,0,0	to_board	s586
436.089	1.0	0	PA_without_intermediate	n/a	test	ward_and_allport	n/a	-1.0	23.0	n/a	n/a	feedback	s586
437.089	1.816	0	PA_without_intermediate	n/a	test	ward_and_allport	n/a	-1.0	23.0	n/a	n/a	ITI	s586
438.912	5.353	1	PA_with_intermediate	0,0,0,1,2,0,0,0,0	test	ward_and_allport	0,0,0,1,0,0,2,3,0	71.0	24.0	5.353	0,0,0,1,2,3,0,0,0	to_hand	s586
444.266	0.367	0	PA_with_intermediate	3,0,0,1,2,0,0,0,0	test	ward_and_allport	0,0,0,1,0,0,2,3,0	89.0	24.0	0.367	0,0,0,1,2,3,0,0,0	to_board	s586
444.641	0.713	0	PA_with_intermediate	3,0,0,1,0,0,0,0,0	test	ward_and_allport	0,0,0,1,0,0,2,3,0	71.0	24.0	0.713	0,0,0,1,2,3,0,0,0	to_hand	s586
445.355	0.411	0	PA_with_intermediate	3,0,0,1,0,0,2,0,0	test	ward_and_allport	0,0,0,1,0,0,2,3,0	82.0	24.0	0.411	0,0,0,1,2,3,0,0,0	to_board	s586
445.773	0.732	0	PA_with_intermediate	0,0,0,1,0,0,2,0,0	test	ward_and_allport	0,0,0,1,0,0,2,3,0	89.0	24.0	0.732	0,0,0,1,2,3,0,0,0	to_hand	s586
446.506	0.456	0	PA_with_intermediate	0,0,0,1,0,0,2,3,0	test	ward_and_allport	0,0,0,1,0,0,2,3,0	82.0	24.0	0.456	0,0,0,1,2,3,0,0,0	to_board	s586
446.971	1.0	0	PA_with_intermediate	n/a	test	ward_and_allport	n/a	-1.0	24.0	n/a	n/a	feedback	s586
447.971	3.176	0	PA_with_intermediate	n/a	test	ward_and_allport	n/a	-1.0	24.0	n/a	n/a	ITI	s586
451.155	7.288	1	PA_with_intermediate	0,0,0,0,0,0,1,2,0	test	ward_and_allport	2,0,0,0,0,0,1,3,0	82.0	25.0	7.288	0,0,0,0,0,0,1,2,3	to_hand	s586
458.444	9.034	0	PA_with_intermediate	0,0,0,3,0,0,1,2,0	test	ward_and_allport	2,0,0,0,0,0,1,3,0	71.0	25.0	9.034	0,0,0,0,0,0,1,2,3	to_board	s586
467.486	1.745	0	PA_with_intermediate	0,0,0,0,0,0,1,2,0	test	ward_and_allport	2,0,0,0,0,0,1,3,0	71.0	25.0	1.745	0,0,0,0,0,0,1,2,3	to_hand	s586
469.233	0.543	0	PA_with_intermediate	0,0,0,3,0,0,1,2,0	test	ward_and_allport	2,0,0,0,0,0,1,3,0	71.0	25.0	0.543	0,0,0,0,0,0,1,2,3	to_board	s586
469.784	0.792	0	PA_with_intermediate	0,0,0,3,0,0,1,0,0	test	ward_and_allport	2,0,0,0,0,0,1,3,0	82.0	25.0	0.792	0,0,0,0,0,0,1,2,3	to_hand	s586
470.577	0.637	0	PA_with_intermediate	2,0,0,3,0,0,1,0,0	test	ward_and_allport	2,0,0,0,0,0,1,3,0	89.0	25.0	0.637	0,0,0,0,0,0,1,2,3	to_board	s586
471.221	1.051	0	PA_with_intermediate	2,0,0,0,0,0,1,0,0	test	ward_and_allport	2,0,0,0,0,0,1,3,0	71.0	25.0	1.051	0,0,0,0,0,0,1,2,3	to_hand	s586
472.274	0.481	0	PA_with_intermediate	2,0,0,0,0,0,1,3,0	test	ward_and_allport	2,0,0,0,0,0,1,3,0	82.0	25.0	0.481	0,0,0,0,0,0,1,2,3	to_board	s586
472.764	1.0	0	PA_with_intermediate	n/a	test	ward_and_allport	n/a	-1.0	25.0	n/a	n/a	feedback	s586
473.764	2.36	0	PA_with_intermediate	n/a	test	ward_and_allport	n/a	-1.0	25.0	n/a	n/a	ITI	s586
476.132	5.498	1	PA_with_intermediate	0,0,0,0,0,0,1,2,0	test	ward_and_allport	0,0,0,2,0,0,1,3,0	82.0	26.0	5.498	0,0,0,0,0,0,1,2,3	to_hand	s586
481.631	4.431	0	PA_with_intermediate	3,0,0,0,0,0,1,2,0	test	ward_and_allport	0,0,0,2,0,0,1,3,0	89.0	26.0	4.431	0,0,0,0,0,0,1,2,3	to_board	s586
486.071	1.515	0	PA_with_intermediate	3,0,0,0,0,0,1,0,0	test	ward_and_allport	0,0,0,2,0,0,1,3,0	82.0	26.0	1.515	0,0,0,0,0,0,1,2,3	to_hand	s586
487.587	0.367	0	PA_with_intermediate	3,0,0,2,0,0,1,0,0	test	ward_and_allport	0,0,0,2,0,0,1,3,0	71.0	26.0	0.367	0,0,0,0,0,0,1,2,3	to_board	s586
487.962	0.52	0	PA_with_intermediate	0,0,0,2,0,0,1,0,0	test	ward_and_allport	0,0,0,2,0,0,1,3,0	89.0	26.0	0.52	0,0,0,0,0,0,1,2,3	to_hand	s586
488.483	0.422	0	PA_with_intermediate	0,0,0,2,0,0,1,3,0	test	ward_and_allport	0,0,0,2,0,0,1,3,0	82.0	26.0	0.422	0,0,0,0,0,0,1,2,3	to_board	s586
488.917	1.0	0	PA_with_intermediate	n/a	test	ward_and_allport	n/a	-1.0	26.0	n/a	n/a	feedback	s586
489.917	1.0	0	PA_with_intermediate	n/a	test	ward_and_allport	n/a	-1.0	26.0	n/a	n/a	ITI	s586
490.925	7.483	1	PA_without_intermediate	1,2,0,0,0,0,0,0,0	test	ward_and_allport	0,0,0,3,2,0,1,0,0	89.0	27.0	7.483	1,2,3,0,0,0,0,0,0	to_hand	s586
498.408	0.375	0	PA_without_intermediate	1,2,0,3,0,0,0,0,0	test	ward_and_allport	0,0,0,3,2,0,1,0,0	71.0	27.0	0.375	1,2,3,0,0,0,0,0,0	to_board	s586
498.792	1.818	0	PA_without_intermediate	1,0,0,3,0,0,0,0,0	test	ward_and_allport	0,0,0,3,2,0,1,0,0	89.0	27.0	1.818	1,2,3,0,0,0,0,0,0	to_hand	s586
500.611	0.367	0	PA_without_intermediate	1,0,0,3,2,0,0,0,0	test	ward_and_allport	0,0,0,3,2,0,1,0,0	71.0	27.0	0.367	1,2,3,0,0,0,0,0,0	to_board	s586
500.985	0.384	0	PA_without_intermediate	0,0,0,3,2,0,0,0,0	test	ward_and_allport	0,0,0,3,2,0,1,0,0	89.0	27.0	0.384	1,2,3,0,0,0,0,0,0	to_hand	s586
501.37	0.372	0	PA_without_intermediate	0,0,0,3,2,0,1,0,0	test	ward_and_allport	0,0,0,3,2,0,1,0,0	82.0	27.0	0.372	1,2,3,0,0,0,0,0,0	to_board	s586
501.753	1.0	0	PA_without_intermediate	n/a	test	ward_and_allport	n/a	-1.0	27.0	n/a	n/a	feedback	s586
502.753	1.408	0	PA_without_intermediate	n/a	test	ward_and_allport	n/a	-1.0	27.0	n/a	n/a	ITI	s586
504.171	7.851	1	PA_with_intermediate	0,0,0,0,0,0,1,2,0	test	ward_and_allport	2,3,0,0,0,0,1,0,0	82.0	28.0	7.851	0,0,0,0,0,0,1,2,3	to_hand	s586
512.023	1.664	0	PA_with_intermediate	0,0,0,3,0,0,1,2,0	test	ward_and_allport	2,3,0,0,0,0,1,0,0	71.0	28.0	1.664	0,0,0,0,0,0,1,2,3	to_board	s586
513.696	1.282	0	PA_with_intermediate	0,0,0,0,0,0,1,2,0	test	ward_and_allport	2,3,0,0,0,0,1,0,0	71.0	28.0	1.282	0,0,0,0,0,0,1,2,3	to_hand	s586
514.98	0.75	0	PA_with_intermediate	0,0,0,3,0,0,1,2,0	test	ward_and_allport	2,3,0,0,0,0,1,0,0	71.0	28.0	0.75	0,0,0,0,0,0,1,2,3	to_board	s586
515.74	0.753	0	PA_with_intermediate	0,0,0,3,0,0,1,0,0	test	ward_and_allport	2,3,0,0,0,0,1,0,0	82.0	28.0	0.753	0,0,0,0,0,0,1,2,3	to_hand	s586
516.495	0.827	0	PA_with_intermediate	2,0,0,3,0,0,1,0,0	test	ward_and_allport	2,3,0,0,0,0,1,0,0	89.0	28.0	0.827	0,0,0,0,0,0,1,2,3	to_board	s586
517.331	2.467	0	PA_with_intermediate	2,0,0,0,0,0,1,0,0	test	ward_and_allport	2,3,0,0,0,0,1,0,0	71.0	28.0	2.467	0,0,0,0,0,0,1,2,3	to_hand	s586
519.8	0.42	0	PA_with_intermediate	2,3,0,0,0,0,1,0,0	test	ward_and_allport	2,3,0,0,0,0,1,0,0	89.0	28.0	0.42	0,0,0,0,0,0,1,2,3	to_board	s586
520.229	1.0	0	PA_with_intermediate	n/a	test	ward_and_allport	n/a	-1.0	28.0	n/a	n/a	feedback	s586
521.229	1.816	0	PA_with_intermediate	n/a	test	ward_and_allport	n/a	-1.0	28.0	n/a	n/a	ITI	s586
523.053	6.034	1	PA_without_intermediate	0,0,0,0,0,0,1,2,0	test	ward_and_allport	1,0,0,3,2,0,0,0,0	82.0	29.0	6.034	0,0,0,0,0,0,1,2,3	to_hand	s586
529.089	0.432	0	PA_without_intermediate	0,0,0,3,0,0,1,2,0	test	ward_and_allport	1,0,0,3,2,0,0,0,0	71.0	29.0	0.432	0,0,0,0,0,0,1,2,3	to_board	s586
529.529	0.97	0	PA_without_intermediate	0,0,0,0,0,0,1,2,0	test	ward_and_allport	1,0,0,3,2,0,0,0,0	71.0	29.0	0.97	0,0,0,0,0,0,1,2,3	to_hand	s586
530.5	0.633	0	PA_without_intermediate	0,0,0,3,0,0,1,2,0	test	ward_and_allport	1,0,0,3,2,0,0,0,0	71.0	29.0	0.633	0,0,0,0,0,0,1,2,3	to_board	s586
531.142	0.594	0	PA_without_intermediate	0,0,0,0,0,0,1,2,0	test	ward_and_allport	1,0,0,3,2,0,0,0,0	71.0	29.0	0.594	0,0,0,0,0,0,1,2,3	to_hand	s586
531.737	0.568	0	PA_without_intermediate	0,0,0,3,0,0,1,2,0	test	ward_and_allport	1,0,0,3,2,0,0,0,0	71.0	29.0	0.568	0,0,0,0,0,0,1,2,3	to_board	s586
532.315	2.274	0	PA_without_intermediate	0,0,0,3,0,0,1,0,0	test	ward_and_allport	1,0,0,3,2,0,0,0,0	82.0	29.0	2.274	0,0,0,0,0,0,1,2,3	to_hand	s586
534.59	0.668	0	PA_without_intermediate	0,0,0,3,2,0,1,0,0	test	ward_and_allport	1,0,0,3,2,0,0,0,0	71.0	29.0	0.668	0,0,0,0,0,0,1,2,3	to_board	s586
535.267	3.254	0	PA_without_intermediate	0,0,0,3,2,0,0,0,0	test	ward_and_allport	1,0,0,3,2,0,0,0,0	82.0	29.0	3.254	0,0,0,0,0,0,1,2,3	to_hand	s586
538.522	0.531	0	PA_without_intermediate	1,0,0,3,2,0,0,0,0	test	ward_and_allport	1,0,0,3,2,0,0,0,0	89.0	29.0	0.531	0,0,0,0,0,0,1,2,3	to_board	s586
539.062	1.0	0	PA_without_intermediate	n/a	test	ward_and_allport	n/a	-1.0	29.0	n/a	n/a	feedback	s586
540.062	2.088	0	PA_without_intermediate	n/a	test	ward_and_allport	n/a	-1.0	29.0	n/a	n/a	ITI	s586
547.162	4.879	1	PA_without_intermediate	0,0,0,1,2,0,0,0,0	test	ward_and_allport	3,2,0,0,0,0,1,0,0	71.0	30.0	4.879	0,0,0,1,2,3,0,0,0	to_hand	s586
552.043	1.29	0	PA_without_intermediate	3,0,0,1,2,0,0,0,0	test	ward_and_allport	3,2,0,0,0,0,1,0,0	89.0	30.0	1.29	0,0,0,1,2,3,0,0,0	to_board	s586
553.343	0.394	0	PA_without_intermediate	3,0,0,1,0,0,0,0,0	test	ward_and_allport	3,2,0,0,0,0,1,0,0	71.0	30.0	0.394	0,0,0,1,2,3,0,0,0	to_hand	s586
553.738	0.339	0	PA_without_intermediate	3,2,0,1,0,0,0,0,0	test	ward_and_allport	3,2,0,0,0,0,1,0,0	89.0	30.0	0.339	0,0,0,1,2,3,0,0,0	to_board	s586
554.088	1.979	0	PA_without_intermediate	3,2,0,0,0,0,0,0,0	test	ward_and_allport	3,2,0,0,0,0,1,0,0	71.0	30.0	1.979	0,0,0,1,2,3,0,0,0	to_hand	s586
556.068	0.316	0	PA_without_intermediate	3,2,0,0,0,0,1,0,0	test	ward_and_allport	3,2,0,0,0,0,1,0,0	82.0	30.0	0.316	0,0,0,1,2,3,0,0,0	to_board	s586
556.398	1.0	0	PA_without_intermediate	n/a	test	ward_and_allport	n/a	-1.0	30.0	n/a	n/a	feedback	s586
557.398	1.136	0	PA_without_intermediate	n/a	test	ward_and_allport	n/a	-1.0	30.0	n/a	n/a	ITI	s586
558.545	4.854	1	PA_without_intermediate	0,0,0,0,0,0,1,2,0	test	ward_and_allport	3,1,0,2,0,0,0,0,0	82.0	31.0	4.854	0,0,0,0,0,0,1,2,3	to_hand	s586
563.4	0.443	0	PA_without_intermediate	3,0,0,0,0,0,1,2,0	test	ward_and_allport	3,1,0,2,0,0,0,0,0	89.0	31.0	0.443	0,0,0,0,0,0,1,2,3	to_board	s586
563.85	2.581	0	PA_without_intermediate	3,0,0,0,0,0,1,0,0	test	ward_and_allport	3,1,0,2,0,0,0,0,0	82.0	31.0	2.581	0,0,0,0,0,0,1,2,3	to_hand	s586
566.432	0.486	0	PA_without_intermediate	3,0,0,2,0,0,1,0,0	test	ward_and_allport	3,1,0,2,0,0,0,0,0	71.0	31.0	0.486	0,0,0,0,0,0,1,2,3	to_board	s586
566.928	0.774	0	PA_without_intermediate	3,0,0,0,0,0,1,0,0	test	ward_and_allport	3,1,0,2,0,0,0,0,0	71.0	31.0	0.774	0,0,0,0,0,0,1,2,3	to_hand	s586
567.703	0.592	0	PA_without_intermediate	3,2,0,0,0,0,1,0,0	test	ward_and_allport	3,1,0,2,0,0,0,0,0	89.0	31.0	0.592	0,0,0,0,0,0,1,2,3	to_board	s586
568.306	0.803	0	PA_without_intermediate	3,2,0,0,0,0,0,0,0	test	ward_and_allport	3,1,0,2,0,0,0,0,0	82.0	31.0	0.803	0,0,0,0,0,0,1,2,3	to_hand	s586
569.11	1.881	0	PA_without_intermediate	3,2,0,1,0,0,0,0,0	test	ward_and_allport	3,1,0,2,0,0,0,0,0	71.0	31.0	1.881	0,0,0,0,0,0,1,2,3	to_board	s586
571.001	0.659	0	PA_without_intermediate	3,2,0,0,0,0,0,0,0	test	ward_and_allport	3,1,0,2,0,0,0,0,0	71.0	31.0	0.659	0,0,0,0,0,0,1,2,3	to_hand	s586
571.662	1.83	0	PA_without_intermediate	3,2,0,1,0,0,0,0,0	test	ward_and_allport	3,1,0,2,0,0,0,0,0	71.0	31.0	1.83	0,0,0,0,0,0,1,2,3	to_board	s586
573.504	0.885	0	PA_without_intermediate	3,0,0,1,0,0,0,0,0	test	ward_and_allport	3,1,0,2,0,0,0,0,0	89.0	31.0	0.885	0,0,0,0,0,0,1,2,3	to_hand	s586
574.39	0.425	0	PA_without_intermediate	3,0,0,1,0,0,2,0,0	test	ward_and_allport	3,1,0,2,0,0,0,0,0	82.0	31.0	0.425	0,0,0,0,0,0,1,2,3	to_board	s586
574.827	0.717	0	PA_without_intermediate	3,0,0,0,0,0,2,0,0	test	ward_and_allport	3,1,0,2,0,0,0,0,0	71.0	31.0	0.717	0,0,0,0,0,0,1,2,3	to_hand	s586
575.545	0.967	0	PA_without_intermediate	3,1,0,0,0,0,2,0,0	test	ward_and_allport	3,1,0,2,0,0,0,0,0	89.0	31.0	0.967	0,0,0,0,0,0,1,2,3	to_board	s586
576.522	0.899	0	PA_without_intermediate	3,1,0,0,0,0,0,0,0	test	ward_and_allport	3,1,0,2,0,0,0,0,0	82.0	31.0	0.899	0,0,0,0,0,0,1,2,3	to_hand	s586
577.423	0.391	0	PA_without_intermediate	3,1,0,2,0,0,0,0,0	test	ward_and_allport	3,1,0,2,0,0,0,0,0	71.0	31.0	0.391	0,0,0,0,0,0,1,2,3	to_board	s586
577.826	1.0	0	PA_without_intermediate	n/a	test	ward_and_allport	n/a	-1.0	31.0	n/a	n/a	feedback	s586
578.826	6.168	0	PA_without_intermediate	n/a	test	ward_and_allport	n/a	-1.0	31.0	n/a	n/a	ITI	s586
n/a	n/a	0	n/a	n/a	n/a	n/a	n/a	n/a	n/a	n/a	n/a	ITI	n/a
