onset	duration	EV	action	clicked_on_loss_card	experiment_exp_id	gain_amount	gain_probability	key_press	loss_amount	loss_probability	num_cards	num_click_in_round	num_loss_cards	risk	response_time	total_cards	trial_id	worker_id
3.009	2.088	-1.0643419929812334	draw_card	0.0	columbia_card_task_fmri	12.0	0.8333333333333334	89.0	-70.0	0.1666666666666666	6.0	1.0	1.0	-2.0839538627258136	2.088	n/a	stim	s144
5.1	1.198	-3.797675326314566	draw_card	0.0	columbia_card_task_fmri	12.0	0.8	89.0	-70.0	0.2	6.0	2.0	1.0	0.1560451059615388	1.198	n/a	stim	s144
6.299	2.352	-7.897675326314567	end_round	0.0	columbia_card_task_fmri	12.0	0.75	71.0	-70.0	0.25	6.0	3.0	1.0	2.862665123600685	2.352	2.0	stim	s144
8.654	2.25	n/a	-1.0	n/a	columbia_card_task_fmri	n/a	n/a	-1.0	n/a	n/a	n/a	n/a	n/a	n/a	n/a	n/a	feedback	s144
10.904	0.0	n/a	-1.0	n/a	columbia_card_task_fmri	n/a	n/a	-1.0	n/a	n/a	n/a	n/a	n/a	n/a	n/a	n/a	ITI	s144
10.905	1.522	-0.2310086596478994	draw_card	0.0	columbia_card_task_fmri	14.0	0.8333333333333334	89.0	-75.0	0.1666666666666666	6.0	1.0	1.0	0.5243253711368041	1.522	n/a	stim	s144
12.429	0.524	-3.1976753263145663	draw_card	0.0	columbia_card_task_fmri	14.0	0.8	89.0	-75.0	0.2	6.0	2.0	1.0	2.9556102313142887	0.524	n/a	stim	s144
12.955	1.304	-7.647675326314567	draw_card	0.0	columbia_card_task_fmri	14.0	0.75	89.0	-75.0	0.25	6.0	3.0	1.0	5.893352303097998	1.304	n/a	stim	s144
14.26	1.081	-15.064341992981234	end_round	0.0	columbia_card_task_fmri	14.0	0.6666666666666667	71.0	-75.0	0.3333333333333333	6.0	4.0	1.0	9.3098409084433	1.081	3.0	stim	s144
15.347	2.25	n/a	-1.0	n/a	columbia_card_task_fmri	n/a	n/a	-1.0	n/a	n/a	n/a	n/a	n/a	n/a	n/a	n/a	feedback	s144
17.597	0.136	n/a	-1.0	n/a	columbia_card_task_fmri	n/a	n/a	-1.0	n/a	n/a	n/a	n/a	n/a	n/a	n/a	n/a	ITI	s144
17.734	1.177	1.4356580070187666	draw_card	0.0	columbia_card_task_fmri	15.0	0.8333333333333334	89.0	-70.0	0.1666666666666666	6.0	1.0	1.0	-0.9661293160530492	1.177	n/a	stim	s144
18.912	0.472	-1.3976753263145674	draw_card	1.0	columbia_card_task_fmri	15.0	0.8	89.0	-70.0	0.2	6.0	2.0	1.0	1.3558499625896443	0.472	2.0	stim	s144
19.389	2.25	n/a	-1.0	n/a	columbia_card_task_fmri	n/a	n/a	-1.0	n/a	n/a	n/a	n/a	n/a	n/a	n/a	n/a	feedback	s144
21.639	0.34	n/a	-1.0	n/a	columbia_card_task_fmri	n/a	n/a	-1.0	n/a	n/a	n/a	n/a	n/a	n/a	n/a	n/a	ITI	s144
21.979	1.308	2.2689913403521005	draw_card	0.0	columbia_card_task_fmri	17.0	0.8333333333333334	89.0	-75.0	0.1666666666666666	6.0	1.0	1.0	1.6421810657557216	1.308	n/a	stim	s144
23.288	1.035	-0.7976753263145658	draw_card	0.0	columbia_card_task_fmri	17.0	0.8	89.0	-75.0	0.2	6.0	2.0	1.0	4.155444110320836	1.035	n/a	stim	s144
24.325	0.919	-5.397675326314567	end_round	0.0	columbia_card_task_fmri	17.0	0.75	71.0	-75.0	0.25	6.0	3.0	1.0	7.192236948098959	0.919	2.0	stim	s144
25.246	2.25	n/a	-1.0	n/a	columbia_card_task_fmri	n/a	n/a	-1.0	n/a	n/a	n/a	n/a	n/a	n/a	n/a	n/a	feedback	s144
27.496	0.408	n/a	-1.0	n/a	columbia_card_task_fmri	n/a	n/a	-1.0	n/a	n/a	n/a	n/a	n/a	n/a	n/a	n/a	ITI	s144
27.905	1.311	3.6023246736854326	draw_card	0.0	columbia_card_task_fmri	24.0	0.75	89.0	-60.0	0.25	8.0	1.0	2.0	3.728568915497519	1.311	n/a	stim	s144
29.217	0.786	0.6023246736854327	draw_card	0.0	columbia_card_task_fmri	24.0	0.7142857142857143	89.0	-60.0	0.2857142857142857	8.0	2.0	2.0	5.302627025335809	0.786	n/a	stim	s144
30.004	1.107	-3.397675326314568	draw_card	0.0	columbia_card_task_fmri	24.0	0.6666666666666667	89.0	-60.0	0.3333333333333333	8.0	3.0	2.0	6.95307562065851	1.107	n/a	stim	s144
31.112	1.113	-8.99767532631457	draw_card	0.0	columbia_card_task_fmri	24.0	0.6	89.0	-60.0	0.4	8.0	4.0	2.0	8.506350651959032	1.113	n/a	stim	s144
32.226	2.065	-17.397675326314566	end_round	0.0	columbia_card_task_fmri	24.0	0.5	71.0	-60.0	0.5	8.0	5.0	2.0	9.35483392654811	2.065	4.0	stim	s144
34.296	2.25	n/a	-1.0	n/a	columbia_card_task_fmri	n/a	n/a	-1.0	n/a	n/a	n/a	n/a	n/a	n/a	n/a	n/a	feedback	s144
36.546	0.136	n/a	-1.0	n/a	columbia_card_task_fmri	n/a	n/a	-1.0	n/a	n/a	n/a	n/a	n/a	n/a	n/a	n/a	ITI	s144
36.683	1.403	3.6023246736854326	draw_card	0.0	columbia_card_task_fmri	29.0	0.75	89.0	-75.0	0.25	8.0	1.0	2.0	12.387864050047895	1.403	n/a	stim	s144
38.088	1.304	-0.111961040600279	draw_card	1.0	columbia_card_task_fmri	29.0	0.7142857142857143	89.0	-75.0	0.2857142857142857	8.0	2.0	2.0	14.336786919108173	1.304	2.0	stim	s144
39.394	2.25	n/a	-1.0	n/a	columbia_card_task_fmri	n/a	n/a	-1.0	n/a	n/a	n/a	n/a	n/a	n/a	n/a	n/a	feedback	s144
41.644	0.136	n/a	-1.0	n/a	columbia_card_task_fmri	n/a	n/a	-1.0	n/a	n/a	n/a	n/a	n/a	n/a	n/a	n/a	ITI	s144
41.782	1.337	-0.6198975485367869	draw_card	1.0	columbia_card_task_fmri	17.0	0.7777777777777778	89.0	-65.0	0.2222222222222222	9.0	1.0	2.0	1.446491968744617	1.337	1.0	stim	s144
43.121	2.25	n/a	-1.0	n/a	columbia_card_task_fmri	n/a	n/a	-1.0	n/a	n/a	n/a	n/a	n/a	n/a	n/a	n/a	feedback	s144
45.371	0.0	n/a	-1.0	n/a	columbia_card_task_fmri	n/a	n/a	-1.0	n/a	n/a	n/a	n/a	n/a	n/a	n/a	n/a	ITI	s144
45.372	1.86	3.702324673685432	draw_card	0.0	columbia_card_task_fmri	14.0	0.9	89.0	-95.0	0.1	10.0	1.0	1.0	0.0560620142464429	1.86	n/a	stim	s144
47.235	1.337	2.49121356257432	draw_card	0.0	columbia_card_task_fmri	14.0	0.8888888888888888	89.0	-95.0	0.1111111111111111	10.0	2.0	1.0	1.6112053719882056	1.337	n/a	stim	s144
48.572	1.08	0.9773246736854329	end_round	0.0	columbia_card_task_fmri	14.0	0.875	71.0	-95.0	0.125	10.0	3.0	1.0	3.403908482094401	1.08	2.0	stim	s144
49.657	2.25	n/a	-1.0	n/a	columbia_card_task_fmri	n/a	n/a	-1.0	n/a	n/a	n/a	n/a	n/a	n/a	n/a	n/a	feedback	s144
51.907	0.068	n/a	-1.0	n/a	columbia_card_task_fmri	n/a	n/a	-1.0	n/a	n/a	n/a	n/a	n/a	n/a	n/a	n/a	ITI	s144
51.976	1.749	-0.3976753263145672	draw_card	0.0	columbia_card_task_fmri	15.0	0.8	89.0	-65.0	0.2	10.0	1.0	2.0	-0.6438166695833445	1.749	n/a	stim	s144
53.727	0.876	-2.175453104092344	draw_card	0.0	columbia_card_task_fmri	15.0	0.7777777777777778	89.0	-65.0	0.2222222222222222	10.0	2.0	2.0	0.6151455433647257	0.876	n/a	stim	s144
54.605	1.252	-4.397675326314567	draw_card	0.0	columbia_card_task_fmri	15.0	0.75	89.0	-65.0	0.25	10.0	3.0	2.0	1.996767410952927	1.252	n/a	stim	s144
55.859	0.667	-7.254818183457421	end_round	0.0	columbia_card_task_fmri	15.0	0.7142857142857143	71.0	-65.0	0.2857142857142857	10.0	4.0	2.0	3.495850184277984	0.667	3.0	stim	s144
56.53	2.25	n/a	-1.0	n/a	columbia_card_task_fmri	n/a	n/a	-1.0	n/a	n/a	n/a	n/a	n/a	n/a	n/a	n/a	feedback	s144
58.78	0.0	n/a	-1.0	n/a	columbia_card_task_fmri	n/a	n/a	-1.0	n/a	n/a	n/a	n/a	n/a	n/a	n/a	n/a	ITI	s144
58.781	1.577	1.202324673685434	draw_card	0.0	columbia_card_task_fmri	17.0	0.8	89.0	-65.0	0.2	10.0	1.0	2.0	0.1560451059615388	1.577	n/a	stim	s144
60.359	0.62	-0.6198975485367869	draw_card	0.0	columbia_card_task_fmri	17.0	0.7777777777777778	89.0	-65.0	0.2222222222222222	10.0	2.0	2.0	1.446491968744617	0.62	n/a	stim	s144
60.98	0.55	-2.897675326314568	draw_card	1.0	columbia_card_task_fmri	17.0	0.75	89.0	-65.0	0.25	10.0	3.0	2.0	2.862665123600685	0.55	3.0	stim	s144
61.535	2.25	n/a	-1.0	n/a	columbia_card_task_fmri	n/a	n/a	-1.0	n/a	n/a	n/a	n/a	n/a	n/a	n/a	n/a	feedback	s144
63.785	0.0	n/a	-1.0	n/a	columbia_card_task_fmri	n/a	n/a	-1.0	n/a	n/a	n/a	n/a	n/a	n/a	n/a	n/a	ITI	s144
63.786	1.632	-0.2310086596478994	draw_card	0.0	columbia_card_task_fmri	13.0	0.8333333333333334	89.0	-70.0	0.1666666666666666	12.0	1.0	2.0	-1.7113473622908089	1.632	n/a	stim	s144
65.42	0.411	-1.4885844172236609	draw_card	1.0	columbia_card_task_fmri	13.0	0.8181818181818181	89.0	-70.0	0.1818181818181818	12.0	2.0	2.0	-0.6311664520802083	0.411	2.0	stim	s144
65.836	2.25	n/a	-1.0	n/a	columbia_card_task_fmri	n/a	n/a	-1.0	n/a	n/a	n/a	n/a	n/a	n/a	n/a	n/a	feedback	s144
68.086	0.136	n/a	-1.0	n/a	columbia_card_task_fmri	n/a	n/a	-1.0	n/a	n/a	n/a	n/a	n/a	n/a	n/a	n/a	ITI	s144
68.223	1.349	-0.2310086596478994	draw_card	0.0	columbia_card_task_fmri	15.0	0.8333333333333334	89.0	-80.0	0.1666666666666666	12.0	1.0	2.0	2.7600480185314	1.349	n/a	stim	s144
69.573	0.59	-1.6704025990418423	draw_card	0.0	columbia_card_task_fmri	15.0	0.8181818181818181	89.0	-80.0	0.1818181818181818	12.0	2.0	2.0	3.9964532501775807	0.59	n/a	stim	s144
70.164	0.753	-3.397675326314568	draw_card	0.0	columbia_card_task_fmri	15.0	0.8	89.0	-80.0	0.2	12.0	3.0	2.0	5.355288479137165	0.753	n/a	stim	s144
70.918	0.839	-5.508786437425679	draw_card	1.0	columbia_card_task_fmri	15.0	0.7777777777777778	89.0	-80.0	0.2222222222222222	12.0	4.0	2.0	6.850380200907644	0.839	4.0	stim	s144
71.762	2.25	n/a	-1.0	n/a	columbia_card_task_fmri	n/a	n/a	-1.0	n/a	n/a	n/a	n/a	n/a	n/a	n/a	n/a	feedback	s144
74.012	0.136	n/a	-1.0	n/a	columbia_card_task_fmri	n/a	n/a	-1.0	n/a	n/a	n/a	n/a	n/a	n/a	n/a	n/a	ITI	s144
74.149	1.414	-1.1976753263145663	draw_card	0.0	columbia_card_task_fmri	14.0	0.8	89.0	-65.0	0.2	15.0	1.0	3.0	-1.04374493354403	1.414	n/a	stim	s144
75.564	0.623	-2.3262467548859944	draw_card	0.0	columbia_card_task_fmri	14.0	0.7857142857142857	89.0	-65.0	0.2142857142857142	15.0	2.0	3.0	-0.2281429911497383	0.623	n/a	stim	s144
76.189	0.658	-3.628444557083799	draw_card	0.0	columbia_card_task_fmri	14.0	0.7692307692307692	89.0	-65.0	0.2307692307692307	15.0	3.0	3.0	0.6406430888759047	0.658	n/a	stim	s144
76.85	0.887	-5.147675326314567	draw_card	0.0	columbia_card_task_fmri	14.0	0.75	89.0	-65.0	0.25	15.0	4.0	3.0	1.5638209785899235	0.887	n/a	stim	s144
77.738	1.14	-6.943129871769112	end_round	0.0	columbia_card_task_fmri	14.0	0.7272727272727273	71.0	-65.0	0.2727272727272727	15.0	5.0	3.0	2.539250467733069	1.14	4.0	stim	s144
78.882	2.25	n/a	-1.0	n/a	columbia_card_task_fmri	n/a	n/a	-1.0	n/a	n/a	n/a	n/a	n/a	n/a	n/a	n/a	feedback	s144
81.132	0.476	n/a	-1.0	n/a	columbia_card_task_fmri	n/a	n/a	-1.0	n/a	n/a	n/a	n/a	n/a	n/a	n/a	n/a	ITI	s144
81.609	2.486	-1.2726753263145674	end_round	0.0	columbia_card_task_fmri	1.0	0.9375	71.0	-45.0	0.0625	16.0	1.0	1.0	-21.49837861593878	2.486	0.0	stim	s144
84.101	2.25	n/a	-1.0	n/a	columbia_card_task_fmri	n/a	n/a	-1.0	n/a	n/a	n/a	n/a	n/a	n/a	n/a	n/a	feedback	s144
86.351	0.204	n/a	-1.0	n/a	columbia_card_task_fmri	n/a	n/a	-1.0	n/a	n/a	n/a	n/a	n/a	n/a	n/a	n/a	ITI	s144
86.557	1.583	-0.3351753263145672	draw_card	0.0	columbia_card_task_fmri	15.0	0.8125	89.0	-70.0	0.1875	16.0	1.0	3.0	0.5325342183038657	1.583	n/a	stim	s144
88.141	1.091	-1.3976753263145674	draw_card	0.0	columbia_card_task_fmri	15.0	0.8	89.0	-70.0	0.2	16.0	2.0	3.0	1.3558499625896443	1.091	n/a	stim	s144
89.234	0.992	-2.6119610406002827	end_round	0.0	columbia_card_task_fmri	15.0	0.7857142857142857	71.0	-70.0	0.2142857142857142	16.0	3.0	3.0	2.233417514441193	0.992	2.0	stim	s144
90.231	2.25	n/a	-1.0	n/a	columbia_card_task_fmri	n/a	n/a	-1.0	n/a	n/a	n/a	n/a	n/a	n/a	n/a	n/a	feedback	s144
92.481	0.068	n/a	-1.0	n/a	columbia_card_task_fmri	n/a	n/a	-1.0	n/a	n/a	n/a	n/a	n/a	n/a	n/a	n/a	ITI	s144
92.551	1.763	6.602324673685433	draw_card	1.0	columbia_card_task_fmri	30.0	0.7	89.0	-50.0	0.3	10.0	1.0	3.0	4.016068408765619	1.763	1.0	stim	s144
94.32	2.25	n/a	-1.0	n/a	columbia_card_task_fmri	n/a	n/a	-1.0	n/a	n/a	n/a	n/a	n/a	n/a	n/a	n/a	feedback	s144
96.57	0.068	n/a	-1.0	n/a	columbia_card_task_fmri	n/a	n/a	-1.0	n/a	n/a	n/a	n/a	n/a	n/a	n/a	n/a	ITI	s144
96.639	1.432	6.002324673685433	draw_card	0.0	columbia_card_task_fmri	17.0	0.8666666666666667	89.0	-70.0	0.1333333333333333	15.0	1.0	2.0	-3.069038679856764	1.432	n/a	stim	s144
98.072	0.632	5.173753245114006	draw_card	1.0	columbia_card_task_fmri	17.0	0.8571428571428572	89.0	-70.0	0.1428571428571428	15.0	2.0	2.0	-2.199868724778611	0.632	2.0	stim	s144
98.711	2.25	n/a	-1.0	n/a	columbia_card_task_fmri	n/a	n/a	-1.0	n/a	n/a	n/a	n/a	n/a	n/a	n/a	n/a	feedback	s144
100.961	0.34	n/a	-1.0	n/a	columbia_card_task_fmri	n/a	n/a	-1.0	n/a	n/a	n/a	n/a	n/a	n/a	n/a	n/a	ITI	s144
101.303	1.896	1.2273246736854326	draw_card	0.0	columbia_card_task_fmri	7.0	0.9375	89.0	-95.0	0.0625	16.0	1.0	1.0	-7.951870177249024	1.896	n/a	stim	s144
103.201	0.925	0.8023246736854329	draw_card	0.0	columbia_card_task_fmri	7.0	0.9333333333333332	89.0	-95.0	0.0666666666666666	16.0	2.0	1.0	-7.19908611954267	0.925	n/a	stim	s144
104.128	1.384	0.3166103879711471	draw_card	0.0	columbia_card_task_fmri	7.0	0.9285714285714286	89.0	-95.0	0.0714285714285714	16.0	3.0	1.0	-6.37356393281528	1.384	n/a	stim	s144
105.513	0.811	-0.2438291724684139	end_round	0.0	columbia_card_task_fmri	7.0	0.9230769230769232	71.0	-95.0	0.0769230769230769	16.0	4.0	1.0	-5.462937483602516	0.811	3.0	stim	s144
106.33	2.25	n/a	-1.0	n/a	columbia_card_task_fmri	n/a	n/a	-1.0	n/a	n/a	n/a	n/a	n/a	n/a	n/a	n/a	feedback	s144
108.58	0.476	n/a	-1.0	n/a	columbia_card_task_fmri	n/a	n/a	-1.0	n/a	n/a	n/a	n/a	n/a	n/a	n/a	n/a	ITI	s144
109.058	1.946	2.7898246736854326	draw_card	0.0	columbia_card_task_fmri	9.0	0.9375	89.0	-100.0	0.0625	16.0	1.0	1.0	-6.257911586764191	1.946	n/a	stim	s144
111.006	0.43	2.335658007018766	draw_card	0.0	columbia_card_task_fmri	9.0	0.9333333333333332	89.0	-100.0	0.0666666666666666	16.0	2.0	1.0	-5.453437015845584	0.43	n/a	stim	s144
111.437	0.383	1.816610387971148	draw_card	0.0	columbia_card_task_fmri	9.0	0.9285714285714286	89.0	-100.0	0.0714285714285714	16.0	3.0	1.0	-4.571231595964893	0.383	n/a	stim	s144
111.822	1.224	1.2177092890700485	draw_card	0.0	columbia_card_task_fmri	9.0	0.9230769230769232	89.0	-100.0	0.0769230769230769	16.0	4.0	1.0	-3.5980804538448936	1.224	n/a	stim	s144
113.049	0.673	0.5189913403521006	end_round	0.0	columbia_card_task_fmri	9.0	0.9166666666666666	71.0	-100.0	0.0833333333333333	16.0	5.0	1.0	-2.517455636469652	0.673	4.0	stim	s144
113.729	2.25	n/a	-1.0	n/a	columbia_card_task_fmri	n/a	n/a	-1.0	n/a	n/a	n/a	n/a	n/a	n/a	n/a	n/a	feedback	s144
115.979	0.272	n/a	-1.0	n/a	columbia_card_task_fmri	n/a	n/a	-1.0	n/a	n/a	n/a	n/a	n/a	n/a	n/a	n/a	ITI	s144
116.252	1.073	3.7273246736854326	draw_card	0.0	columbia_card_task_fmri	15.0	0.875	89.0	-80.0	0.125	16.0	1.0	2.0	-1.22541492481529	1.073	n/a	stim	s144
117.329	0.362	2.9356580070187666	draw_card	0.0	columbia_card_task_fmri	15.0	0.8666666666666667	89.0	-80.0	0.1333333333333333	16.0	2.0	2.0	-0.3500779735586974	0.362	n/a	stim	s144
117.692	1.128	2.0308961022568632	draw_card	0.0	columbia_card_task_fmri	15.0	0.8571428571428572	89.0	-80.0	0.1428571428571428	16.0	3.0	2.0	0.5990464937599	1.128	n/a	stim	s144
118.822	0.934	0.986940058300816	draw_card	1.0	columbia_card_task_fmri	15.0	0.8461538461538461	89.0	-80.0	0.1538461538461538	16.0	4.0	2.0	1.63192216208094	0.934	4.0	stim	s144
119.762	2.25	n/a	-1.0	n/a	columbia_card_task_fmri	n/a	n/a	-1.0	n/a	n/a	n/a	n/a	n/a	n/a	n/a	n/a	feedback	s144
122.012	0.884	n/a	-1.0	n/a	columbia_card_task_fmri	n/a	n/a	-1.0	n/a	n/a	n/a	n/a	n/a	n/a	n/a	n/a	ITI	s144
122.898	1.149	5.852324673685433	draw_card	1.0	columbia_card_task_fmri	16.0	0.875	89.0	-70.0	0.125	16.0	1.0	2.0	-4.201281117579423	1.149	1.0	stim	s144
124.051	2.25	n/a	-1.0	n/a	columbia_card_task_fmri	n/a	n/a	-1.0	n/a	n/a	n/a	n/a	n/a	n/a	n/a	n/a	feedback	s144
126.301	0.136	n/a	-1.0	n/a	columbia_card_task_fmri	n/a	n/a	-1.0	n/a	n/a	n/a	n/a	n/a	n/a	n/a	n/a	ITI	s144
126.438	1.769	7.164824673685433	draw_card	0.0	columbia_card_task_fmri	30.0	0.6875	89.0	-45.0	0.3125	16.0	1.0	5.0	2.1191632324624408	1.769	n/a	stim	s144
128.209	0.848	5.602324673685437	end_round	0.0	columbia_card_task_fmri	30.0	0.6666666666666667	71.0	-45.0	0.3333333333333333	16.0	2.0	5.0	2.7109845437222475	0.848	1.0	stim	s144
129.063	2.25	n/a	-1.0	n/a	columbia_card_task_fmri	n/a	n/a	-1.0	n/a	n/a	n/a	n/a	n/a	n/a	n/a	n/a	feedback	s144
131.313	0.136	n/a	-1.0	n/a	columbia_card_task_fmri	n/a	n/a	-1.0	n/a	n/a	n/a	n/a	n/a	n/a	n/a	n/a	ITI	s144
131.45	1.374	-1.0643419929812334	draw_card	0.0	columbia_card_task_fmri	13.0	0.8333333333333334	89.0	-75.0	0.1666666666666666	6.0	1.0	1.0	0.1517095070193121	1.374	n/a	stim	s144
132.826	2.605	-3.997675326314567	draw_card	0.0	columbia_card_task_fmri	13.0	0.8	89.0	-75.0	0.2	6.0	2.0	1.0	2.5556681214210077	2.605	n/a	stim	s144
135.432	0.549	-8.397675326314568	end_round	0.0	columbia_card_task_fmri	13.0	0.75	71.0	-75.0	0.25	6.0	3.0	1.0	5.460393079498424	0.549	2.0	stim	s144
135.986	2.25	n/a	-1.0	n/a	columbia_card_task_fmri	n/a	n/a	-1.0	n/a	n/a	n/a	n/a	n/a	n/a	n/a	n/a	feedback	s144
138.236	0.068	n/a	-1.0	n/a	columbia_card_task_fmri	n/a	n/a	-1.0	n/a	n/a	n/a	n/a	n/a	n/a	n/a	n/a	ITI	s144
138.305	1.477	0.6023246736854345	draw_card	1.0	columbia_card_task_fmri	14.0	0.8333333333333334	89.0	-70.0	0.1666666666666666	6.0	1.0	1.0	-1.3387391600527143	1.477	1.0	stim	s144
139.789	2.25	n/a	-1.0	n/a	columbia_card_task_fmri	n/a	n/a	-1.0	n/a	n/a	n/a	n/a	n/a	n/a	n/a	n/a	feedback	s144
142.039	0.068	n/a	-1.0	n/a	columbia_card_task_fmri	n/a	n/a	-1.0	n/a	n/a	n/a	n/a	n/a	n/a	n/a	n/a	ITI	s144
142.108	1.554	0.6023246736854345	draw_card	0.0	columbia_card_task_fmri	16.0	0.8333333333333334	89.0	-80.0	0.1666666666666666	6.0	1.0	1.0	3.1326726555654645	1.554	n/a	stim	s144
143.664	1.53	-2.5976753263145667	end_round	0.0	columbia_card_task_fmri	16.0	0.8	71.0	-80.0	0.2	6.0	2.0	1.0	5.755238763214209	1.53	1.0	stim	s144
145.197	2.25	n/a	-1.0	n/a	columbia_card_task_fmri	n/a	n/a	-1.0	n/a	n/a	n/a	n/a	n/a	n/a	n/a	n/a	feedback	s144
147.447	0.612	n/a	-1.0	n/a	columbia_card_task_fmri	n/a	n/a	-1.0	n/a	n/a	n/a	n/a	n/a	n/a	n/a	n/a	ITI	s144
148.06	1.1	3.1023246736854344	draw_card	0.0	columbia_card_task_fmri	17.0	0.8333333333333334	89.0	-70.0	0.1666666666666666	6.0	1.0	1.0	-0.2209049291387117	1.1	n/a	stim	s144
149.162	1.054	0.2023246736854341	draw_card	1.0	columbia_card_task_fmri	17.0	0.8	89.0	-70.0	0.2	6.0	2.0	1.0	2.155727342039228	1.054	2.0	stim	s144
150.223	2.25	n/a	-1.0	n/a	columbia_card_task_fmri	n/a	n/a	-1.0	n/a	n/a	n/a	n/a	n/a	n/a	n/a	n/a	feedback	s144
152.473	0.476	n/a	-1.0	n/a	columbia_card_task_fmri	n/a	n/a	-1.0	n/a	n/a	n/a	n/a	n/a	n/a	n/a	n/a	ITI	s144
152.952	1.328	3.1023246736854326	draw_card	1.0	columbia_card_task_fmri	25.0	0.75	89.0	-65.0	0.25	8.0	1.0	2.0	6.326312714888807	1.328	1.0	stim	s144
154.283	2.25	n/a	-1.0	n/a	columbia_card_task_fmri	n/a	n/a	-1.0	n/a	n/a	n/a	n/a	n/a	n/a	n/a	n/a	feedback	s144
156.533	0.0	n/a	-1.0	n/a	columbia_card_task_fmri	n/a	n/a	-1.0	n/a	n/a	n/a	n/a	n/a	n/a	n/a	n/a	ITI	s144
156.535	1.625	3.1023246736854326	draw_card	0.0	columbia_card_task_fmri	30.0	0.75	89.0	-80.0	0.25	8.0	1.0	2.0	14.98572057622244	1.625	n/a	stim	s144
158.162	0.745	-0.8262467548859908	end_round	0.0	columbia_card_task_fmri	30.0	0.7142857142857143	71.0	-80.0	0.2857142857142857	8.0	2.0	2.0	17.047100054227734	0.745	1.0	stim	s144
158.914	2.25	n/a	-1.0	n/a	columbia_card_task_fmri	n/a	n/a	-1.0	n/a	n/a	n/a	n/a	n/a	n/a	n/a	n/a	feedback	s144
161.164	0.068	n/a	-1.0	n/a	columbia_card_task_fmri	n/a	n/a	-1.0	n/a	n/a	n/a	n/a	n/a	n/a	n/a	n/a	ITI	s144
161.234	1.398	2.8023246736854337	draw_card	0.0	columbia_card_task_fmri	13.0	0.9	89.0	-95.0	0.1	10.0	1.0	1.0	-0.2438866348271702	1.398	n/a	stim	s144
162.635	1.048	1.6023246736854326	draw_card	0.0	columbia_card_task_fmri	13.0	0.8888888888888888	89.0	-95.0	0.1111111111111111	10.0	2.0	1.0	1.2969847118720068	1.048	n/a	stim	s144
163.686	0.637	0.1023246736854327	end_round	0.0	columbia_card_task_fmri	13.0	0.875	71.0	-95.0	0.125	10.0	3.0	1.0	3.0732361515119777	0.637	2.0	stim	s144
164.33	2.25	n/a	-1.0	n/a	columbia_card_task_fmri	n/a	n/a	-1.0	n/a	n/a	n/a	n/a	n/a	n/a	n/a	n/a	feedback	s144
166.58	0.204	n/a	-1.0	n/a	columbia_card_task_fmri	n/a	n/a	-1.0	n/a	n/a	n/a	n/a	n/a	n/a	n/a	n/a	ITI	s144
166.787	1.055	4.202324673685433	draw_card	0.0	columbia_card_task_fmri	14.0	0.9	89.0	-90.0	0.1	10.0	1.0	1.0	-1.443671358626613	1.055	n/a	stim	s144
167.845	0.547	3.0467691181298755	draw_card	1.0	columbia_card_task_fmri	14.0	0.8888888888888888	89.0	-90.0	0.1111111111111111	10.0	2.0	1.0	0.0401114960752551	0.547	2.0	stim	s144
168.401	2.25	n/a	-1.0	n/a	columbia_card_task_fmri	n/a	n/a	-1.0	n/a	n/a	n/a	n/a	n/a	n/a	n/a	n/a	feedback	s144
170.651	0.272	n/a	-1.0	n/a	columbia_card_task_fmri	n/a	n/a	-1.0	n/a	n/a	n/a	n/a	n/a	n/a	n/a	n/a	ITI	s144
170.925	1.372	-0.5976753263145665	draw_card	0.0	columbia_card_task_fmri	16.0	0.8	89.0	-70.0	0.2	10.0	1.0	2.0	1.755787939568151	1.372	n/a	stim	s144
172.299	0.816	-2.508786437425678	end_round	0.0	columbia_card_task_fmri	16.0	0.7777777777777778	71.0	-70.0	0.2222222222222222	10.0	2.0	2.0	3.109203372681357	0.816	1.0	stim	s144
173.118	2.25	n/a	-1.0	n/a	columbia_card_task_fmri	n/a	n/a	-1.0	n/a	n/a	n/a	n/a	n/a	n/a	n/a	n/a	feedback	s144
175.368	0.068	n/a	-1.0	n/a	columbia_card_task_fmri	n/a	n/a	-1.0	n/a	n/a	n/a	n/a	n/a	n/a	n/a	n/a	ITI	s144
175.438	1.31	-1.3143419929812334	draw_card	0.0	columbia_card_task_fmri	7.0	0.9166666666666666	89.0	-100.0	0.0833333333333333	12.0	1.0	1.0	-3.070113921705929	1.31	n/a	stim	s144
176.751	0.716	-2.124948053587296	draw_card	0.0	columbia_card_task_fmri	7.0	0.9090909090909092	89.0	-100.0	0.0909090909090909	12.0	2.0	1.0	-1.8832510415417156	0.716	n/a	stim	s144
177.469	0.659	-3.0976753263145675	end_round	0.0	columbia_card_task_fmri	7.0	0.9	71.0	-100.0	0.1	12.0	3.0	1.0	-0.5438343243214305	0.659	2.0	stim	s144
178.134	2.25	n/a	-1.0	n/a	columbia_card_task_fmri	n/a	n/a	-1.0	n/a	n/a	n/a	n/a	n/a	n/a	n/a	n/a	feedback	s144
180.384	0.272	n/a	-1.0	n/a	columbia_card_task_fmri	n/a	n/a	-1.0	n/a	n/a	n/a	n/a	n/a	n/a	n/a	n/a	ITI	s144
180.658	1.307	-1.0643419929812317	draw_card	0.0	columbia_card_task_fmri	14.0	0.8333333333333334	89.0	-80.0	0.1666666666666666	12.0	1.0	2.0	2.387424516550773	1.307	n/a	stim	s144
181.967	0.498	-2.488584417223661	draw_card	0.0	columbia_card_task_fmri	14.0	0.8181818181818181	89.0	-80.0	0.1818181818181818	12.0	2.0	2.0	3.610811298193916	0.498	n/a	stim	s144
182.467	0.981	-4.197675326314566	end_round	0.0	columbia_card_task_fmri	14.0	0.8	71.0	-80.0	0.2	12.0	3.0	2.0	4.955339252644308	0.981	2.0	stim	s144
183.455	2.25	n/a	-1.0	n/a	columbia_card_task_fmri	n/a	n/a	-1.0	n/a	n/a	n/a	n/a	n/a	n/a	n/a	n/a	feedback	s144
185.705	0.748	n/a	-1.0	n/a	columbia_card_task_fmri	n/a	n/a	-1.0	n/a	n/a	n/a	n/a	n/a	n/a	n/a	n/a	ITI	s144
186.455	1.089	0.6023246736854327	draw_card	0.0	columbia_card_task_fmri	15.0	0.8333333333333334	89.0	-75.0	0.1666666666666666	12.0	1.0	2.0	0.8969426156307208	1.089	n/a	stim	s144
187.546	0.619	-0.7613116899509323	draw_card	0.0	columbia_card_task_fmri	15.0	0.8181818181818181	89.0	-75.0	0.1818181818181818	12.0	2.0	2.0	2.0682551890206327	0.619	n/a	stim	s144
188.167	1.078	-2.397675326314568	draw_card	1.0	columbia_card_task_fmri	15.0	0.8	89.0	-75.0	0.2	12.0	3.0	2.0	3.3555536273812976	1.078	3.0	stim	s144
189.252	2.25	n/a	-1.0	n/a	columbia_card_task_fmri	n/a	n/a	-1.0	n/a	n/a	n/a	n/a	n/a	n/a	n/a	n/a	feedback	s144
191.502	0.068	n/a	-1.0	n/a	columbia_card_task_fmri	n/a	n/a	-1.0	n/a	n/a	n/a	n/a	n/a	n/a	n/a	n/a	ITI	s144
191.573	1.083	-0.3976753263145672	draw_card	0.0	columbia_card_task_fmri	15.0	0.8	89.0	-65.0	0.2	15.0	1.0	3.0	-0.6438166695833445	1.083	n/a	stim	s144
192.659	0.4	-1.5405324691717095	draw_card	0.0	columbia_card_task_fmri	15.0	0.7857142857142857	89.0	-65.0	0.2142857142857142	15.0	2.0	3.0	0.1821129804466963	0.4	n/a	stim	s144
193.061	0.473	-2.859213787853031	draw_card	0.0	columbia_card_task_fmri	15.0	0.7692307692307692	89.0	-65.0	0.2307692307692307	15.0	3.0	3.0	1.061900026128285	0.473	n/a	stim	s144
193.536	1.205	-4.397675326314567	draw_card	0.0	columbia_card_task_fmri	15.0	0.75	89.0	-65.0	0.25	15.0	4.0	3.0	1.996767410952927	1.205	n/a	stim	s144
194.744	0.647	-6.215857144496384	end_round	0.0	columbia_card_task_fmri	15.0	0.7272727272727273	71.0	-65.0	0.2727272727272727	15.0	5.0	3.0	2.9845478063432296	0.647	4.0	stim	s144
195.398	2.25	n/a	-1.0	n/a	columbia_card_task_fmri	n/a	n/a	-1.0	n/a	n/a	n/a	n/a	n/a	n/a	n/a	n/a	feedback	s144
197.648	0.0	n/a	-1.0	n/a	columbia_card_task_fmri	n/a	n/a	-1.0	n/a	n/a	n/a	n/a	n/a	n/a	n/a	n/a	ITI	s144
197.65	1.349	-1.1476753263145674	draw_card	0.0	columbia_card_task_fmri	14.0	0.8125	89.0	-70.0	0.1875	16.0	1.0	3.0	0.1422869181006802	1.349	n/a	stim	s144
199.001	0.508	-2.1976753263145663	draw_card	0.0	columbia_card_task_fmri	14.0	0.8	89.0	-70.0	0.2	16.0	2.0	3.0	0.9559134619980938	0.508	n/a	stim	s144
199.512	0.476	-3.397675326314568	draw_card	1.0	columbia_card_task_fmri	14.0	0.7857142857142857	89.0	-70.0	0.2142857142857142	16.0	3.0	3.0	1.82315351328738	0.476	3.0	stim	s144
199.996	2.25	n/a	-1.0	n/a	columbia_card_task_fmri	n/a	n/a	-1.0	n/a	n/a	n/a	n/a	n/a	n/a	n/a	n/a	feedback	s144
202.246	0.204	n/a	-1.0	n/a	columbia_card_task_fmri	n/a	n/a	-1.0	n/a	n/a	n/a	n/a	n/a	n/a	n/a	n/a	ITI	s144
202.454	1.781	-1.2101753263145674	draw_card	1.0	columbia_card_task_fmri	11.0	0.6875	89.0	-30.0	0.3125	16.0	1.0	5.0	-13.635933389106532	1.781	1.0	stim	s144
204.242	2.25	n/a	-1.0	n/a	columbia_card_task_fmri	n/a	n/a	-1.0	n/a	n/a	n/a	n/a	n/a	n/a	n/a	n/a	feedback	s144
206.492	0.068	n/a	-1.0	n/a	columbia_card_task_fmri	n/a	n/a	-1.0	n/a	n/a	n/a	n/a	n/a	n/a	n/a	n/a	ITI	s144
206.562	1.465	3.6023246736854326	draw_card	0.0	columbia_card_task_fmri	15.0	0.8666666666666667	89.0	-75.0	0.1333333333333333	15.0	1.0	2.0	-2.049439169546453	1.465	n/a	stim	s144
208.03	0.435	2.7451818165425768	draw_card	0.0	columbia_card_task_fmri	15.0	0.8571428571428572	89.0	-75.0	0.1428571428571428	15.0	2.0	2.0	-1.1502859656104043	0.435	n/a	stim	s144
208.466	0.608	1.756170827531586	draw_card	0.0	columbia_card_task_fmri	15.0	0.8461538461538461	89.0	-75.0	0.1538461538461538	15.0	3.0	2.0	-0.1717899578560988	0.608	n/a	stim	s144
209.077	0.68	0.6023246736854327	end_round	0.0	columbia_card_task_fmri	15.0	0.8333333333333334	71.0	-75.0	0.1666666666666666	15.0	4.0	2.0	0.8969426156307208	0.68	3.0	stim	s144
209.762	2.25	n/a	-1.0	n/a	columbia_card_task_fmri	n/a	n/a	-1.0	n/a	n/a	n/a	n/a	n/a	n/a	n/a	n/a	feedback	s144
212.012	0.068	n/a	-1.0	n/a	columbia_card_task_fmri	n/a	n/a	-1.0	n/a	n/a	n/a	n/a	n/a	n/a	n/a	n/a	ITI	s144
212.082	1.472	5.335658007018767	draw_card	0.0	columbia_card_task_fmri	17.0	0.8666666666666667	89.0	-75.0	0.1333333333333333	15.0	1.0	2.0	-1.3696987592650736	1.472	n/a	stim	s144
213.556	0.448	4.4594675308282925	draw_card	1.0	columbia_card_task_fmri	17.0	0.8571428571428572	89.0	-75.0	0.1428571428571428	15.0	2.0	2.0	-0.4505569339304784	0.448	2.0	stim	s144
214.011	2.25	n/a	-1.0	n/a	columbia_card_task_fmri	n/a	n/a	-1.0	n/a	n/a	n/a	n/a	n/a	n/a	n/a	n/a	feedback	s144
216.261	0.34	n/a	-1.0	n/a	columbia_card_task_fmri	n/a	n/a	-1.0	n/a	n/a	n/a	n/a	n/a	n/a	n/a	n/a	ITI	s144
216.603	2.165	0.9148246736854329	draw_card	0.0	columbia_card_task_fmri	2.0	0.9375	89.0	-25.0	0.0625	16.0	1.0	1.0	-26.086129084968768	2.165	n/a	stim	s144
218.77	1.003	0.8023246736854327	draw_card	0.0	columbia_card_task_fmri	2.0	0.9333333333333332	89.0	-25.0	0.0666666666666666	16.0	2.0	1.0	-25.88762156001276	1.003	n/a	stim	s144
219.776	0.544	0.6737532451140044	end_round	0.0	columbia_card_task_fmri	2.0	0.9285714285714286	71.0	-25.0	0.0714285714285714	16.0	3.0	1.0	-25.66988343062725	0.544	2.0	stim	s144
220.326	2.25	n/a	-1.0	n/a	columbia_card_task_fmri	n/a	n/a	-1.0	n/a	n/a	n/a	n/a	n/a	n/a	n/a	n/a	feedback	s144
222.576	0.0	n/a	-1.0	n/a	columbia_card_task_fmri	n/a	n/a	-1.0	n/a	n/a	n/a	n/a	n/a	n/a	n/a	n/a	ITI	s144
222.579	1.412	3.1023246736854326	draw_card	0.0	columbia_card_task_fmri	9.0	0.9375	89.0	-95.0	0.0625	16.0	1.0	1.0	-7.46788848412794	1.412	n/a	stim	s144
223.993	0.47	2.6689913403521	draw_card	1.0	columbia_card_task_fmri	9.0	0.9333333333333332	89.0	-95.0	0.0666666666666666	16.0	2.0	1.0	-6.700335517022975	0.47	2.0	stim	s144
224.468	2.25	n/a	-1.0	n/a	columbia_card_task_fmri	n/a	n/a	-1.0	n/a	n/a	n/a	n/a	n/a	n/a	n/a	n/a	feedback	s144
226.718	0.0	n/a	-1.0	n/a	columbia_card_task_fmri	n/a	n/a	-1.0	n/a	n/a	n/a	n/a	n/a	n/a	n/a	n/a	ITI	s144
226.721	1.763	4.664824673685433	draw_card	0.0	columbia_card_task_fmri	11.0	0.9375	89.0	-100.0	0.0625	16.0	1.0	1.0	-5.773912496675873	1.763	n/a	stim	s144
228.485	0.632	4.202324673685434	draw_card	0.0	columbia_card_task_fmri	11.0	0.9333333333333332	89.0	-100.0	0.0666666666666666	16.0	2.0	1.0	-4.954669530418688	0.632	n/a	stim	s144
229.12	0.993	3.6737532451140056	draw_card	0.0	columbia_card_task_fmri	11.0	0.9285714285714286	89.0	-100.0	0.0714285714285714	16.0	3.0	1.0	-4.056269233742729	0.993	n/a	stim	s144
230.116	0.636	3.063863135223895	end_round	0.0	columbia_card_task_fmri	11.0	0.9230769230769232	71.0	-100.0	0.0769230769230769	16.0	4.0	1.0	-3.065254237218064	0.636	3.0	stim	s144
230.758	2.25	n/a	-1.0	n/a	columbia_card_task_fmri	n/a	n/a	-1.0	n/a	n/a	n/a	n/a	n/a	n/a	n/a	n/a	feedback	s144
233.008	0.272	n/a	-1.0	n/a	columbia_card_task_fmri	n/a	n/a	-1.0	n/a	n/a	n/a	n/a	n/a	n/a	n/a	n/a	ITI	s144
233.282	1.415	5.227324673685433	draw_card	0.0	columbia_card_task_fmri	16.0	0.875	89.0	-75.0	0.125	16.0	1.0	2.0	-2.548036867626717	1.415	n/a	stim	s144
234.7	0.596	4.4689913403521	draw_card	0.0	columbia_card_task_fmri	16.0	0.8666666666666667	89.0	-75.0	0.1333333333333333	16.0	2.0	2.0	-1.7095696722165703	0.596	n/a	stim	s144
235.298	0.86	3.6023246736854344	draw_card	0.0	columbia_card_task_fmri	16.0	0.8571428571428572	89.0	-75.0	0.1428571428571428	16.0	3.0	2.0	-0.8004221373911093	0.86	n/a	stim	s144
236.161	0.658	2.6023246736854326	end_round	0.0	columbia_card_task_fmri	16.0	0.8461538461538461	71.0	-75.0	0.1538461538461538	16.0	4.0	2.0	0.1889498826752245	0.658	3.0	stim	s144
236.822	2.25	n/a	-1.0	n/a	columbia_card_task_fmri	n/a	n/a	-1.0	n/a	n/a	n/a	n/a	n/a	n/a	n/a	n/a	feedback	s144
239.072	0.204	n/a	-1.0	n/a	columbia_card_task_fmri	n/a	n/a	-1.0	n/a	n/a	n/a	n/a	n/a	n/a	n/a	n/a	ITI	s144
239.28	1.312	5.477324673685433	draw_card	1.0	columbia_card_task_fmri	17.0	0.875	89.0	-80.0	0.125	16.0	1.0	2.0	-0.5640961087585268	1.312	1.0	stim	s144
240.598	2.25	n/a	-1.0	n/a	columbia_card_task_fmri	n/a	n/a	-1.0	n/a	n/a	n/a	n/a	n/a	n/a	n/a	n/a	feedback	s144
242.848	0.0	n/a	-1.0	n/a	columbia_card_task_fmri	n/a	n/a	-1.0	n/a	n/a	n/a	n/a	n/a	n/a	n/a	n/a	ITI	s144
253.857	1.454	-0.2310086596478994	draw_card	0.0	columbia_card_task_fmri	13.0	0.8333333333333334	89.0	-70.0	0.1666666666666666	6.0	1.0	1.0	-1.7113473622908089	1.454	n/a	stim	s144
255.314	0.879	-2.997675326314567	end_round	0.0	columbia_card_task_fmri	13.0	0.8	71.0	-70.0	0.2	6.0	2.0	1.0	0.5559784911396122	0.879	1.0	stim	s144
256.201	2.25	n/a	-1.0	n/a	columbia_card_task_fmri	n/a	n/a	-1.0	n/a	n/a	n/a	n/a	n/a	n/a	n/a	n/a	feedback	s144
258.451	0.204	n/a	-1.0	n/a	columbia_card_task_fmri	n/a	n/a	-1.0	n/a	n/a	n/a	n/a	n/a	n/a	n/a	n/a	ITI	s144
258.657	1.139	-0.2310086596478994	draw_card	0.0	columbia_card_task_fmri	15.0	0.8333333333333334	89.0	-80.0	0.1666666666666666	6.0	1.0	1.0	2.7600480185314	1.139	n/a	stim	s144
259.798	0.984	-3.397675326314568	end_round	0.0	columbia_card_task_fmri	15.0	0.8	71.0	-80.0	0.2	6.0	2.0	1.0	5.355288479137165	0.984	1.0	stim	s144
260.788	2.25	n/a	-1.0	n/a	columbia_card_task_fmri	n/a	n/a	-1.0	n/a	n/a	n/a	n/a	n/a	n/a	n/a	n/a	feedback	s144
263.038	0.204	n/a	-1.0	n/a	columbia_card_task_fmri	n/a	n/a	-1.0	n/a	n/a	n/a	n/a	n/a	n/a	n/a	n/a	ITI	s144
263.244	1.072	1.4356580070187666	draw_card	0.0	columbia_card_task_fmri	16.0	0.8333333333333334	89.0	-75.0	0.1666666666666666	6.0	1.0	1.0	1.2695611950087624	1.072	n/a	stim	s144
264.319	1.06	-1.5976753263145669	end_round	0.0	columbia_card_task_fmri	16.0	0.8	71.0	-75.0	0.2	6.0	2.0	1.0	3.755498267232525	1.06	1.0	stim	s144
265.387	2.25	n/a	-1.0	n/a	columbia_card_task_fmri	n/a	n/a	-1.0	n/a	n/a	n/a	n/a	n/a	n/a	n/a	n/a	feedback	s144
267.637	0.272	n/a	-1.0	n/a	columbia_card_task_fmri	n/a	n/a	-1.0	n/a	n/a	n/a	n/a	n/a	n/a	n/a	n/a	ITI	s144
267.911	1.572	2.6023246736854326	draw_card	0.0	columbia_card_task_fmri	21.0	0.75	89.0	-55.0	0.25	8.0	1.0	2.0	0.2649921425597341	1.572	n/a	stim	s144
269.485	0.858	-0.1119610406002807	draw_card	0.0	columbia_card_task_fmri	21.0	0.7142857142857143	89.0	-55.0	0.2857142857142857	8.0	2.0	2.0	1.6890984918808982	0.858	n/a	stim	s144
270.346	0.659	-3.7310086596478977	end_round	0.0	columbia_card_task_fmri	21.0	0.6666666666666667	71.0	-55.0	0.3333333333333333	8.0	3.0	2.0	3.182321569851041	0.659	2.0	stim	s144
271.013	2.25	n/a	-1.0	n/a	columbia_card_task_fmri	n/a	n/a	-1.0	n/a	n/a	n/a	n/a	n/a	n/a	n/a	n/a	feedback	s144
273.263	0.204	n/a	-1.0	n/a	columbia_card_task_fmri	n/a	n/a	-1.0	n/a	n/a	n/a	n/a	n/a	n/a	n/a	n/a	ITI	s144
273.468	1.295	3.8523246736854326	draw_card	0.0	columbia_card_task_fmri	26.0	0.75	89.0	-65.0	0.25	8.0	1.0	2.0	6.759274275709011	1.295	n/a	stim	s144
274.767	0.755	0.6023246736854363	draw_card	0.0	columbia_card_task_fmri	26.0	0.7142857142857143	89.0	-65.0	0.2857142857142857	8.0	2.0	2.0	8.464537038687148	0.755	n/a	stim	s144
275.524	0.801	-3.731008659647896	end_round	0.0	columbia_card_task_fmri	26.0	0.6666666666666667	71.0	-65.0	0.3333333333333333	8.0	3.0	2.0	10.2525549397661	0.801	2.0	stim	s144
276.329	2.25	n/a	-1.0	n/a	columbia_card_task_fmri	n/a	n/a	-1.0	n/a	n/a	n/a	n/a	n/a	n/a	n/a	n/a	feedback	s144
278.579	0.408	n/a	-1.0	n/a	columbia_card_task_fmri	n/a	n/a	-1.0	n/a	n/a	n/a	n/a	n/a	n/a	n/a	n/a	ITI	s144
278.99	1.352	-1.0643419929812334	draw_card	0.0	columbia_card_task_fmri	15.0	0.7777777777777778	89.0	-60.0	0.2222222222222222	9.0	1.0	2.0	-1.4631894964284378	1.352	n/a	stim	s144
280.344	0.644	-3.147675326314568	draw_card	0.0	columbia_card_task_fmri	15.0	0.75	89.0	-60.0	0.25	9.0	2.0	2.0	-0.1679470833734981	0.644	n/a	stim	s144
280.991	1.213	-5.826246754885994	draw_card	0.0	columbia_card_task_fmri	15.0	0.7142857142857143	89.0	-60.0	0.2857142857142857	9.0	3.0	2.0	1.2374149696550845	1.213	n/a	stim	s144
282.206	0.569	-9.397675326314566	end_round	0.0	columbia_card_task_fmri	15.0	0.6666666666666667	71.0	-60.0	0.3333333333333333	9.0	4.0	2.0	2.7109845437222475	0.569	3.0	stim	s144
282.782	2.25	n/a	-1.0	n/a	columbia_card_task_fmri	n/a	n/a	-1.0	n/a	n/a	n/a	n/a	n/a	n/a	n/a	n/a	feedback	s144
285.032	0.136	n/a	-1.0	n/a	columbia_card_task_fmri	n/a	n/a	-1.0	n/a	n/a	n/a	n/a	n/a	n/a	n/a	n/a	ITI	s144
285.17	1.574	3.3023246736854337	draw_card	0.0	columbia_card_task_fmri	13.0	0.9	89.0	-90.0	0.1	10.0	1.0	1.0	-1.7436149277316204	1.574	n/a	stim	s144
286.747	0.911	2.157880229240988	draw_card	0.0	columbia_card_task_fmri	13.0	0.8888888888888888	89.0	-90.0	0.1111111111111111	10.0	2.0	1.0	-0.2741043145006685	0.911	n/a	stim	s144
287.66	0.762	0.7273246736854327	end_round	0.0	columbia_card_task_fmri	13.0	0.875	71.0	-90.0	0.125	10.0	3.0	1.0	1.4198880634782682	0.762	2.0	stim	s144
288.427	2.25	n/a	-1.0	n/a	columbia_card_task_fmri	n/a	n/a	-1.0	n/a	n/a	n/a	n/a	n/a	n/a	n/a	n/a	feedback	s144
290.677	0.272	n/a	-1.0	n/a	columbia_card_task_fmri	n/a	n/a	-1.0	n/a	n/a	n/a	n/a	n/a	n/a	n/a	n/a	ITI	s144
290.951	1.212	4.602324673685433	draw_card	0.0	columbia_card_task_fmri	15.0	0.9	89.0	-95.0	0.1	10.0	1.0	1.0	0.3560115967379005	1.212	n/a	stim	s144
292.166	0.784	3.380102451463209	draw_card	0.0	columbia_card_task_fmri	15.0	0.8888888888888888	89.0	-95.0	0.1111111111111111	10.0	2.0	1.0	1.925426923179863	0.784	n/a	stim	s144
292.953	0.666	1.8523246736854329	draw_card	0.0	columbia_card_task_fmri	15.0	0.875	89.0	-95.0	0.125	10.0	3.0	1.0	3.734581659470223	0.666	n/a	stim	s144
293.622	1.054	-0.1119610406002807	draw_card	0.0	columbia_card_task_fmri	15.0	0.8571428571428572	89.0	-95.0	0.1428571428571428	10.0	4.0	1.0	5.847209149231951	1.054	n/a	stim	s144
294.679	0.519	-2.7310086596478995	end_round	0.0	columbia_card_task_fmri	15.0	0.8333333333333334	71.0	-95.0	0.1666666666666666	10.0	5.0	1.0	8.349519423477439	0.519	4.0	stim	s144
295.205	2.25	n/a	-1.0	n/a	columbia_card_task_fmri	n/a	n/a	-1.0	n/a	n/a	n/a	n/a	n/a	n/a	n/a	n/a	feedback	s144
297.455	0.34	n/a	-1.0	n/a	columbia_card_task_fmri	n/a	n/a	-1.0	n/a	n/a	n/a	n/a	n/a	n/a	n/a	n/a	ITI	s144
297.797	1.076	0.4023246736854334	draw_card	0.0	columbia_card_task_fmri	16.0	0.8	89.0	-65.0	0.2	10.0	1.0	2.0	-0.2438866348271773	1.076	n/a	stim	s144
298.876	0.577	-1.3976753263145656	draw_card	1.0	columbia_card_task_fmri	16.0	0.7777777777777778	89.0	-65.0	0.2222222222222222	10.0	2.0	2.0	1.0308179353015916	0.577	2.0	stim	s144
299.459	2.25	n/a	-1.0	n/a	columbia_card_task_fmri	n/a	n/a	-1.0	n/a	n/a	n/a	n/a	n/a	n/a	n/a	n/a	feedback	s144
301.709	0.136	n/a	-1.0	n/a	columbia_card_task_fmri	n/a	n/a	-1.0	n/a	n/a	n/a	n/a	n/a	n/a	n/a	n/a	ITI	s144
301.847	0.95	-0.8976753263145673	draw_card	1.0	columbia_card_task_fmri	7.0	0.9166666666666666	89.0	-95.0	0.0833333333333333	12.0	1.0	1.0	-4.451740337430834	0.95	1.0	stim	s144
302.802	2.25	n/a	-1.0	n/a	columbia_card_task_fmri	n/a	n/a	-1.0	n/a	n/a	n/a	n/a	n/a	n/a	n/a	n/a	feedback	s144
305.052	0.34	n/a	-1.0	n/a	columbia_card_task_fmri	n/a	n/a	-1.0	n/a	n/a	n/a	n/a	n/a	n/a	n/a	n/a	ITI	s144
305.394	1.419	-0.2310086596478994	draw_card	0.0	columbia_card_task_fmri	14.0	0.8333333333333334	89.0	-75.0	0.1666666666666666	12.0	1.0	2.0	0.5243253711368041	1.419	n/a	stim	s144
306.816	0.566	-1.5794935081327508	draw_card	0.0	columbia_card_task_fmri	14.0	0.8181818181818181	89.0	-75.0	0.1818181818181818	12.0	2.0	2.0	1.6826192835290286	0.566	n/a	stim	s144
307.384	1.112	-3.1976753263145663	end_round	0.0	columbia_card_task_fmri	14.0	0.8	71.0	-75.0	0.2	12.0	3.0	2.0	2.9556102313142887	1.112	2.0	stim	s144
308.501	2.25	n/a	-1.0	n/a	columbia_card_task_fmri	n/a	n/a	-1.0	n/a	n/a	n/a	n/a	n/a	n/a	n/a	n/a	feedback	s144
310.751	0.068	n/a	-1.0	n/a	columbia_card_task_fmri	n/a	n/a	-1.0	n/a	n/a	n/a	n/a	n/a	n/a	n/a	n/a	ITI	s144
310.822	1.071	1.4356580070187666	draw_card	0.0	columbia_card_task_fmri	15.0	0.8333333333333334	89.0	-70.0	0.1666666666666666	12.0	1.0	2.0	-0.9661293160530492	1.071	n/a	stim	s144
311.896	0.507	0.1477792191399759	draw_card	0.0	columbia_card_task_fmri	15.0	0.8181818181818181	89.0	-70.0	0.1818181818181818	12.0	2.0	2.0	0.1400894705201025	0.507	n/a	stim	s144
312.406	0.504	-1.3976753263145674	draw_card	1.0	columbia_card_task_fmri	15.0	0.8	89.0	-70.0	0.2	12.0	3.0	2.0	1.3558499625896443	0.504	3.0	stim	s144
312.918	2.25	n/a	-1.0	n/a	columbia_card_task_fmri	n/a	n/a	-1.0	n/a	n/a	n/a	n/a	n/a	n/a	n/a	n/a	feedback	s144
315.168	0.0	n/a	-1.0	n/a	columbia_card_task_fmri	n/a	n/a	-1.0	n/a	n/a	n/a	n/a	n/a	n/a	n/a	n/a	ITI	s144
315.17	1.367	-0.5976753263145665	draw_card	0.0	columbia_card_task_fmri	16.0	0.8	89.0	-70.0	0.2	15.0	1.0	3.0	1.755787939568151	1.367	n/a	stim	s144
316.54	0.497	-1.826246754885996	draw_card	0.0	columbia_card_task_fmri	16.0	0.7857142857142857	89.0	-70.0	0.2142857142857142	15.0	2.0	3.0	2.6436829548621503	0.497	n/a	stim	s144
317.04	0.789	-3.243829172468414	draw_card	0.0	columbia_card_task_fmri	16.0	0.7692307692307692	89.0	-70.0	0.2307692307692307	15.0	3.0	3.0	3.589474903924689	0.789	n/a	stim	s144
317.832	0.822	-4.897675326314567	end_round	0.0	columbia_card_task_fmri	16.0	0.75	71.0	-70.0	0.25	15.0	4.0	3.0	4.594478362624798	0.822	3.0	stim	s144
318.658	2.25	n/a	-1.0	n/a	columbia_card_task_fmri	n/a	n/a	-1.0	n/a	n/a	n/a	n/a	n/a	n/a	n/a	n/a	feedback	s144
320.908	0.204	n/a	-1.0	n/a	columbia_card_task_fmri	n/a	n/a	-1.0	n/a	n/a	n/a	n/a	n/a	n/a	n/a	n/a	ITI	s144
321.116	1.674	-0.2101753263145672	draw_card	0.0	columbia_card_task_fmri	14.0	0.8125	89.0	-65.0	0.1875	16.0	1.0	3.0	-1.8089248777682805	1.674	n/a	stim	s144
322.793	0.622	-1.1976753263145663	draw_card	0.0	columbia_card_task_fmri	14.0	0.8	89.0	-65.0	0.2	16.0	2.0	3.0	-1.04374493354403	0.622	n/a	stim	s144
323.418	0.805	-2.3262467548859944	draw_card	1.0	columbia_card_task_fmri	14.0	0.7857142857142857	89.0	-65.0	0.2142857142857142	16.0	3.0	3.0	-0.2281429911497383	0.805	3.0	stim	s144
324.229	2.25	n/a	-1.0	n/a	columbia_card_task_fmri	n/a	n/a	-1.0	n/a	n/a	n/a	n/a	n/a	n/a	n/a	n/a	feedback	s144
326.479	1.02	n/a	-1.0	n/a	columbia_card_task_fmri	n/a	n/a	-1.0	n/a	n/a	n/a	n/a	n/a	n/a	n/a	n/a	ITI	s144
327.501	0.917	-0.4601753263145672	draw_card	0.0	columbia_card_task_fmri	16.0	0.8125	89.0	-75.0	0.1875	16.0	1.0	3.0	2.874048047190037	0.917	n/a	stim	s144
328.422	0.476	-1.5976753263145669	draw_card	0.0	columbia_card_task_fmri	16.0	0.8	89.0	-75.0	0.2	16.0	2.0	3.0	3.755498267232525	0.476	n/a	stim	s144
328.901	0.471	-2.8976753263145656	end_round	0.0	columbia_card_task_fmri	16.0	0.7857142857142857	71.0	-75.0	0.2142857142857142	16.0	3.0	3.0	4.695030085736285	0.471	2.0	stim	s144
329.377	2.25	n/a	-1.0	n/a	columbia_card_task_fmri	n/a	n/a	-1.0	n/a	n/a	n/a	n/a	n/a	n/a	n/a	n/a	feedback	s144
331.627	0.0	n/a	-1.0	n/a	columbia_card_task_fmri	n/a	n/a	-1.0	n/a	n/a	n/a	n/a	n/a	n/a	n/a	n/a	ITI	s144
331.63	1.091	3.8023246736854337	draw_card	0.0	columbia_card_task_fmri	16.0	0.8666666666666667	89.0	-80.0	0.1333333333333333	15.0	1.0	2.0	-0.0102018356927047	1.091	n/a	stim	s144
332.724	0.455	2.888038959399721	draw_card	1.0	columbia_card_task_fmri	16.0	0.8571428571428572	89.0	-80.0	0.1428571428571428	15.0	2.0	2.0	0.94891677308717	0.455	2.0	stim	s144
333.185	2.25	n/a	-1.0	n/a	columbia_card_task_fmri	n/a	n/a	-1.0	n/a	n/a	n/a	n/a	n/a	n/a	n/a	n/a	feedback	s144
335.435	0.0	n/a	-1.0	n/a	columbia_card_task_fmri	n/a	n/a	-1.0	n/a	n/a	n/a	n/a	n/a	n/a	n/a	n/a	ITI	s144
335.438	1.205	4.668991340352101	draw_card	1.0	columbia_card_task_fmri	17.0	0.8666666666666667	89.0	-80.0	0.1333333333333333	15.0	1.0	2.0	0.3296755079791822	1.205	1.0	stim	s144
336.648	2.25	n/a	-1.0	n/a	columbia_card_task_fmri	n/a	n/a	-1.0	n/a	n/a	n/a	n/a	n/a	n/a	n/a	n/a	feedback	s144
338.898	0.068	n/a	-1.0	n/a	columbia_card_task_fmri	n/a	n/a	-1.0	n/a	n/a	n/a	n/a	n/a	n/a	n/a	n/a	ITI	s144
338.969	2.473	0.6023246736854327	draw_card	0.0	columbia_card_task_fmri	1.0	0.9375	89.0	-15.0	0.0625	16.0	1.0	1.0	-28.7299446864539	2.473	n/a	stim	s144
341.447	1.135	0.5356580070187661	draw_card	0.0	columbia_card_task_fmri	1.0	0.9333333333333332	89.0	-15.0	0.0666666666666666	16.0	2.0	1.0	-28.61318902524232	1.135	n/a	stim	s144
342.584	0.535	0.4594675308282899	end_round	0.0	columbia_card_task_fmri	1.0	0.9285714285714286	71.0	-15.0	0.0714285714285714	16.0	3.0	1.0	-28.485065690566863	0.535	2.0	stim	s144
343.125	2.25	n/a	-1.0	n/a	columbia_card_task_fmri	n/a	n/a	-1.0	n/a	n/a	n/a	n/a	n/a	n/a	n/a	n/a	feedback	s144
345.375	0.476	n/a	-1.0	n/a	columbia_card_task_fmri	n/a	n/a	-1.0	n/a	n/a	n/a	n/a	n/a	n/a	n/a	n/a	ITI	s144
345.856	1.173	3.7273246736854326	draw_card	0.0	columbia_card_task_fmri	10.0	0.9375	89.0	-100.0	0.0625	16.0	1.0	1.0	-6.015912604359507	1.173	n/a	stim	s144
347.032	0.621	3.2689913403521	draw_card	0.0	columbia_card_task_fmri	10.0	0.9333333333333332	89.0	-100.0	0.0666666666666666	16.0	2.0	1.0	-5.204053819144551	0.621	n/a	stim	s144
347.657	0.67	2.7451818165425768	draw_card	0.0	columbia_card_task_fmri	10.0	0.9285714285714286	89.0	-100.0	0.0714285714285714	16.0	3.0	1.0	-4.31375094372639	0.67	n/a	stim	s144
348.331	0.995	2.140786212146972	draw_card	0.0	columbia_card_task_fmri	10.0	0.9230769230769232	89.0	-100.0	0.0769230769230769	16.0	4.0	1.0	-3.331667856703202	0.995	n/a	stim	s144
349.329	1.339	1.4356580070187666	end_round	0.0	columbia_card_task_fmri	10.0	0.9166666666666666	71.0	-100.0	0.0833333333333333	16.0	5.0	1.0	-2.241124960038288	1.339	4.0	stim	s144
350.675	2.25	n/a	-1.0	n/a	columbia_card_task_fmri	n/a	n/a	-1.0	n/a	n/a	n/a	n/a	n/a	n/a	n/a	n/a	feedback	s144
352.925	0.136	n/a	-1.0	n/a	columbia_card_task_fmri	n/a	n/a	-1.0	n/a	n/a	n/a	n/a	n/a	n/a	n/a	n/a	ITI	s144
353.065	0.99	4.352324673685433	draw_card	0.0	columbia_card_task_fmri	15.0	0.875	89.0	-75.0	0.125	16.0	1.0	2.0	-2.878688830600701	0.99	n/a	stim	s144
354.058	0.546	3.6023246736854326	draw_card	0.0	columbia_card_task_fmri	15.0	0.8666666666666667	89.0	-75.0	0.1333333333333333	16.0	2.0	2.0	-2.049439169546453	0.546	n/a	stim	s144
354.607	0.921	2.7451818165425768	draw_card	0.0	columbia_card_task_fmri	15.0	0.8571428571428572	89.0	-75.0	0.1428571428571428	16.0	3.0	2.0	-1.1502859656104043	0.921	n/a	stim	s144
355.532	0.543	1.756170827531586	end_round	0.0	columbia_card_task_fmri	15.0	0.8461538461538461	71.0	-75.0	0.1538461538461538	16.0	4.0	2.0	-0.1717899578560988	0.543	3.0	stim	s144
356.082	2.25	n/a	-1.0	n/a	columbia_card_task_fmri	n/a	n/a	-1.0	n/a	n/a	n/a	n/a	n/a	n/a	n/a	n/a	feedback	s144
358.332	0.068	n/a	-1.0	n/a	columbia_card_task_fmri	n/a	n/a	-1.0	n/a	n/a	n/a	n/a	n/a	n/a	n/a	n/a	ITI	s144
358.402	1.398	4.602324673685433	draw_card	0.0	columbia_card_task_fmri	16.0	0.875	89.0	-80.0	0.125	16.0	1.0	2.0	-0.8947561364722851	1.398	n/a	stim	s144
359.803	0.452	3.8023246736854337	draw_card	0.0	columbia_card_task_fmri	16.0	0.8666666666666667	89.0	-80.0	0.1333333333333333	16.0	2.0	2.0	-0.0102018356927047	0.452	n/a	stim	s144
360.259	0.587	2.888038959399721	draw_card	0.0	columbia_card_task_fmri	16.0	0.8571428571428572	89.0	-80.0	0.1428571428571428	16.0	3.0	2.0	0.94891677308717	0.587	n/a	stim	s144
360.849	0.588	1.8330939044546624	draw_card	0.0	columbia_card_task_fmri	16.0	0.8461538461538461	89.0	-80.0	0.1538461538461538	16.0	4.0	2.0	1.9926682594829896	0.588	n/a	stim	s144
361.44	0.648	0.6023246736854345	end_round	0.0	columbia_card_task_fmri	16.0	0.8333333333333334	71.0	-80.0	0.1666666666666666	16.0	5.0	2.0	3.1326726555654645	0.648	4.0	stim	s144
362.097	2.25	n/a	-1.0	n/a	columbia_card_task_fmri	n/a	n/a	-1.0	n/a	n/a	n/a	n/a	n/a	n/a	n/a	n/a	feedback	s144
364.347	0.0	n/a	-1.0	n/a	columbia_card_task_fmri	n/a	n/a	-1.0	n/a	n/a	n/a	n/a	n/a	n/a	n/a	n/a	ITI	s144
364.35	2.07	1.7898246736854326	draw_card	1.0	columbia_card_task_fmri	4.0	0.6875	89.0	-5.0	0.3125	16.0	1.0	5.0	-28.43461369541374	2.07	1.0	stim	s144
366.427	2.25	n/a	-1.0	n/a	columbia_card_task_fmri	n/a	n/a	-1.0	n/a	n/a	n/a	n/a	n/a	n/a	n/a	n/a	feedback	s144
368.677	0.0	n/a	-1.0	n/a	columbia_card_task_fmri	n/a	n/a	-1.0	n/a	n/a	n/a	n/a	n/a	n/a	n/a	n/a	ITI	s144
368.68	1.211	-1.0643419929812317	draw_card	0.0	columbia_card_task_fmri	14.0	0.8333333333333334	89.0	-80.0	0.1666666666666666	6.0	1.0	1.0	2.387424516550773	1.211	n/a	stim	s144
369.895	1.393	-4.197675326314566	end_round	0.0	columbia_card_task_fmri	14.0	0.8	71.0	-80.0	0.2	6.0	2.0	1.0	4.955339252644308	1.393	1.0	stim	s144
371.294	2.25	n/a	-1.0	n/a	columbia_card_task_fmri	n/a	n/a	-1.0	n/a	n/a	n/a	n/a	n/a	n/a	n/a	n/a	feedback	s144
373.544	0.204	n/a	-1.0	n/a	columbia_card_task_fmri	n/a	n/a	-1.0	n/a	n/a	n/a	n/a	n/a	n/a	n/a	n/a	ITI	s144
373.751	1.069	0.6023246736854327	draw_card	0.0	columbia_card_task_fmri	15.0	0.8333333333333334	89.0	-75.0	0.1666666666666666	6.0	1.0	1.0	0.8969426156307208	1.069	n/a	stim	s144
374.823	1.47	-2.397675326314568	end_round	0.0	columbia_card_task_fmri	15.0	0.8	71.0	-75.0	0.2	6.0	2.0	1.0	3.3555536273812976	1.47	1.0	stim	s144
376.298	2.25	n/a	-1.0	n/a	columbia_card_task_fmri	n/a	n/a	-1.0	n/a	n/a	n/a	n/a	n/a	n/a	n/a	n/a	feedback	s144
378.548	0.204	n/a	-1.0	n/a	columbia_card_task_fmri	n/a	n/a	-1.0	n/a	n/a	n/a	n/a	n/a	n/a	n/a	n/a	ITI	s144
378.754	1.234	2.2689913403521005	draw_card	0.0	columbia_card_task_fmri	16.0	0.8333333333333334	89.0	-70.0	0.1666666666666666	6.0	1.0	1.0	-0.5935178875420064	1.234	n/a	stim	s144
379.991	0.86	-0.5976753263145665	end_round	0.0	columbia_card_task_fmri	16.0	0.8	71.0	-70.0	0.2	6.0	2.0	1.0	1.755787939568151	0.86	1.0	stim	s144
380.856	2.25	n/a	-1.0	n/a	columbia_card_task_fmri	n/a	n/a	-1.0	n/a	n/a	n/a	n/a	n/a	n/a	n/a	n/a	feedback	s144
383.106	0.272	n/a	-1.0	n/a	columbia_card_task_fmri	n/a	n/a	-1.0	n/a	n/a	n/a	n/a	n/a	n/a	n/a	n/a	ITI	s144
383.382	1.443	2.8523246736854326	draw_card	1.0	columbia_card_task_fmri	23.0	0.75	89.0	-60.0	0.25	8.0	1.0	2.0	3.295616287101666	1.443	1.0	stim	s144
384.83	2.25	n/a	-1.0	n/a	columbia_card_task_fmri	n/a	n/a	-1.0	n/a	n/a	n/a	n/a	n/a	n/a	n/a	n/a	feedback	s144
387.08	0.136	n/a	-1.0	n/a	columbia_card_task_fmri	n/a	n/a	-1.0	n/a	n/a	n/a	n/a	n/a	n/a	n/a	n/a	ITI	s144
387.219	1.401	3.3523246736854326	draw_card	0.0	columbia_card_task_fmri	27.0	0.75	89.0	-70.0	0.25	8.0	1.0	2.0	9.357065780609013	1.401	n/a	stim	s144
388.623	1.115	-0.1119610406002825	end_round	0.0	columbia_card_task_fmri	27.0	0.7142857142857143	71.0	-70.0	0.2857142857142857	8.0	2.0	2.0	11.174787848496573	1.115	1.0	stim	s144
389.743	2.25	n/a	-1.0	n/a	columbia_card_task_fmri	n/a	n/a	-1.0	n/a	n/a	n/a	n/a	n/a	n/a	n/a	n/a	feedback	s144
391.993	0.204	n/a	-1.0	n/a	columbia_card_task_fmri	n/a	n/a	-1.0	n/a	n/a	n/a	n/a	n/a	n/a	n/a	n/a	ITI	s144
392.2	1.925	-1.3976753263145656	draw_card	0.0	columbia_card_task_fmri	16.0	0.7777777777777778	89.0	-65.0	0.2222222222222222	9.0	1.0	2.0	1.0308179353015916	1.925	n/a	stim	s144
394.128	0.734	-3.647675326314568	end_round	0.0	columbia_card_task_fmri	16.0	0.75	71.0	-65.0	0.25	9.0	2.0	2.0	2.429715479234225	0.734	1.0	stim	s144
394.87	2.25	n/a	-1.0	n/a	columbia_card_task_fmri	n/a	n/a	-1.0	n/a	n/a	n/a	n/a	n/a	n/a	n/a	n/a	feedback	s144
397.12	0.272	n/a	-1.0	n/a	columbia_card_task_fmri	n/a	n/a	-1.0	n/a	n/a	n/a	n/a	n/a	n/a	n/a	n/a	ITI	s144
397.395	1.099	3.8023246736854337	draw_card	0.0	columbia_card_task_fmri	13.0	0.9	89.0	-85.0	0.1	10.0	1.0	1.0	-3.243315503736373	1.099	n/a	stim	s144
398.497	0.482	2.713435784796544	draw_card	0.0	columbia_card_task_fmri	13.0	0.8888888888888888	89.0	-85.0	0.1111111111111111	10.0	2.0	1.0	-1.8451668811402653	0.482	n/a	stim	s144
398.982	0.819	1.3523246736854326	draw_card	0.0	columbia_card_task_fmri	13.0	0.875	89.0	-85.0	0.125	10.0	3.0	1.0	-0.2334348796006367	0.819	n/a	stim	s144
399.804	0.512	-0.3976753263145655	end_round	0.0	columbia_card_task_fmri	13.0	0.8571428571428572	71.0	-85.0	0.1428571428571428	10.0	4.0	1.0	1.6486608101137747	0.512	3.0	stim	s144
400.321	2.25	n/a	-1.0	n/a	columbia_card_task_fmri	n/a	n/a	-1.0	n/a	n/a	n/a	n/a	n/a	n/a	n/a	n/a	feedback	s144
402.571	0.272	n/a	-1.0	n/a	columbia_card_task_fmri	n/a	n/a	-1.0	n/a	n/a	n/a	n/a	n/a	n/a	n/a	n/a	ITI	s144
402.845	1.176	-1.1976753263145663	draw_card	1.0	columbia_card_task_fmri	14.0	0.8	89.0	-65.0	0.2	10.0	1.0	2.0	-1.04374493354403	1.176	1.0	stim	s144
404.029	2.25	n/a	-1.0	n/a	columbia_card_task_fmri	n/a	n/a	-1.0	n/a	n/a	n/a	n/a	n/a	n/a	n/a	n/a	feedback	s144
406.279	0.34	n/a	-1.0	n/a	columbia_card_task_fmri	n/a	n/a	-1.0	n/a	n/a	n/a	n/a	n/a	n/a	n/a	n/a	ITI	s144
406.621	1.311	0.2023246736854341	draw_card	0.0	columbia_card_task_fmri	17.0	0.8	89.0	-70.0	0.2	10.0	1.0	2.0	2.155727342039228	1.311	n/a	stim	s144
407.935	0.789	-1.7310086596478995	draw_card	0.0	columbia_card_task_fmri	17.0	0.7777777777777778	89.0	-70.0	0.2222222222222222	10.0	2.0	2.0	3.524884778003674	0.789	n/a	stim	s144
408.728	0.537	-4.147675326314567	end_round	0.0	columbia_card_task_fmri	17.0	0.75	71.0	-70.0	0.25	10.0	3.0	2.0	5.027435085051884	0.537	2.0	stim	s144
409.273	2.25	n/a	-1.0	n/a	columbia_card_task_fmri	n/a	n/a	-1.0	n/a	n/a	n/a	n/a	n/a	n/a	n/a	n/a	feedback	s144
411.523	0.204	n/a	-1.0	n/a	columbia_card_task_fmri	n/a	n/a	-1.0	n/a	n/a	n/a	n/a	n/a	n/a	n/a	n/a	ITI	s144
411.73	2.323	-1.0643419929812334	draw_card	0.0	columbia_card_task_fmri	13.0	0.8333333333333334	89.0	-75.0	0.1666666666666666	12.0	1.0	2.0	0.1517095070193121	2.323	n/a	stim	s144
414.057	0.915	-2.397675326314569	draw_card	0.0	columbia_card_task_fmri	13.0	0.8181818181818181	89.0	-75.0	0.1818181818181818	12.0	2.0	2.0	1.296984711872014	0.915	n/a	stim	s144
414.975	0.736	-3.997675326314567	draw_card	0.0	columbia_card_task_fmri	13.0	0.8	89.0	-75.0	0.2	12.0	3.0	2.0	2.5556681214210077	0.736	n/a	stim	s144
415.714	0.469	-5.9532308818701205	end_round	0.0	columbia_card_task_fmri	13.0	0.7777777777777778	71.0	-75.0	0.2222222222222222	12.0	4.0	2.0	3.94056750815173	0.469	3.0	stim	s144
416.191	2.25	n/a	-1.0	n/a	columbia_card_task_fmri	n/a	n/a	-1.0	n/a	n/a	n/a	n/a	n/a	n/a	n/a	n/a	feedback	s144
418.441	0.068	n/a	-1.0	n/a	columbia_card_task_fmri	n/a	n/a	-1.0	n/a	n/a	n/a	n/a	n/a	n/a	n/a	n/a	ITI	s144
418.512	1.818	0.6023246736854345	draw_card	0.0	columbia_card_task_fmri	14.0	0.8333333333333334	89.0	-70.0	0.1666666666666666	12.0	1.0	2.0	-1.3387391600527143	1.818	n/a	stim	s144
420.333	0.522	-0.6704025990418424	draw_card	1.0	columbia_card_task_fmri	14.0	0.8181818181818181	89.0	-70.0	0.1818181818181818	12.0	2.0	2.0	-0.2455392839865666	0.522	2.0	stim	s144
420.865	2.25	n/a	-1.0	n/a	columbia_card_task_fmri	n/a	n/a	-1.0	n/a	n/a	n/a	n/a	n/a	n/a	n/a	n/a	feedback	s144
423.115	0.0	n/a	-1.0	n/a	columbia_card_task_fmri	n/a	n/a	-1.0	n/a	n/a	n/a	n/a	n/a	n/a	n/a	n/a	ITI	s144
423.118	1.497	0.6023246736854345	draw_card	0.0	columbia_card_task_fmri	16.0	0.8333333333333334	89.0	-80.0	0.1666666666666666	12.0	1.0	2.0	3.1326726555654645	1.497	n/a	stim	s144
424.62	0.506	-0.8522207808600241	draw_card	0.0	columbia_card_task_fmri	16.0	0.8181818181818181	89.0	-80.0	0.1818181818181818	12.0	2.0	2.0	4.382096298939942	0.506	n/a	stim	s144
425.131	1.545	-2.5976753263145667	draw_card	0.0	columbia_card_task_fmri	16.0	0.8	89.0	-80.0	0.2	12.0	3.0	2.0	5.755238763214209	1.545	n/a	stim	s144
426.68	0.584	-4.731008659647901	end_round	0.0	columbia_card_task_fmri	16.0	0.7777777777777778	71.0	-80.0	0.2222222222222222	12.0	4.0	2.0	7.266072076185196	0.584	3.0	stim	s144
427.271	2.25	n/a	-1.0	n/a	columbia_card_task_fmri	n/a	n/a	-1.0	n/a	n/a	n/a	n/a	n/a	n/a	n/a	n/a	feedback	s144
429.521	0.408	n/a	-1.0	n/a	columbia_card_task_fmri	n/a	n/a	-1.0	n/a	n/a	n/a	n/a	n/a	n/a	n/a	n/a	ITI	s144
429.932	1.222	0.4023246736854334	draw_card	0.0	columbia_card_task_fmri	16.0	0.8	89.0	-65.0	0.2	15.0	1.0	3.0	-0.2438866348271773	1.222	n/a	stim	s144
431.158	0.496	-0.7548181834574231	draw_card	1.0	columbia_card_task_fmri	16.0	0.7857142857142857	89.0	-65.0	0.2142857142857142	15.0	2.0	3.0	0.5923706783219131	0.496	2.0	stim	s144
431.66	2.25	n/a	-1.0	n/a	columbia_card_task_fmri	n/a	n/a	-1.0	n/a	n/a	n/a	n/a	n/a	n/a	n/a	n/a	feedback	s144
433.91	0.204	n/a	-1.0	n/a	columbia_card_task_fmri	n/a	n/a	-1.0	n/a	n/a	n/a	n/a	n/a	n/a	n/a	n/a	ITI	s144
434.118	1.166	-1.2726753263145674	draw_card	0.0	columbia_card_task_fmri	15.0	0.8125	89.0	-75.0	0.1875	16.0	1.0	3.0	2.4837924058960965	1.166	n/a	stim	s144
435.287	0.513	-2.397675326314568	draw_card	0.0	columbia_card_task_fmri	15.0	0.8	89.0	-75.0	0.2	16.0	2.0	3.0	3.3555536273812976	0.513	n/a	stim	s144
435.805	0.804	-3.683389612028852	draw_card	0.0	columbia_card_task_fmri	15.0	0.7857142857142857	89.0	-75.0	0.2142857142857142	16.0	3.0	3.0	4.284758149972546	0.804	n/a	stim	s144
436.613	0.602	-5.1669060955453405	end_round	0.0	columbia_card_task_fmri	15.0	0.7692307692307692	71.0	-75.0	0.2307692307692307	16.0	4.0	3.0	5.274552623383968	0.602	3.0	stim	s144
437.225	2.25	n/a	-1.0	n/a	columbia_card_task_fmri	n/a	n/a	-1.0	n/a	n/a	n/a	n/a	n/a	n/a	n/a	n/a	feedback	s144
439.475	0.136	n/a	-1.0	n/a	columbia_card_task_fmri	n/a	n/a	-1.0	n/a	n/a	n/a	n/a	n/a	n/a	n/a	n/a	ITI	s144
439.614	1.535	-0.7101753263145673	draw_card	1.0	columbia_card_task_fmri	14.0	0.6875	89.0	-35.0	0.3125	16.0	1.0	5.0	-9.929391557217148	1.535	1.0	stim	s144
441.154	2.25	n/a	-1.0	n/a	columbia_card_task_fmri	n/a	n/a	-1.0	n/a	n/a	n/a	n/a	n/a	n/a	n/a	n/a	feedback	s144
443.404	0.34	n/a	-1.0	n/a	columbia_card_task_fmri	n/a	n/a	-1.0	n/a	n/a	n/a	n/a	n/a	n/a	n/a	n/a	ITI	s144
443.747	1.33	4.4689913403521	draw_card	0.0	columbia_card_task_fmri	16.0	0.8666666666666667	89.0	-75.0	0.1333333333333333	15.0	1.0	2.0	-1.7095696722165703	1.33	n/a	stim	s144
445.082	0.598	3.6023246736854344	draw_card	0.0	columbia_card_task_fmri	16.0	0.8571428571428572	89.0	-75.0	0.1428571428571428	15.0	2.0	2.0	-0.8004221373911093	0.598	n/a	stim	s144
445.683	0.78	2.6023246736854326	draw_card	0.0	columbia_card_task_fmri	16.0	0.8461538461538461	89.0	-75.0	0.1538461538461538	15.0	3.0	2.0	0.1889498826752245	0.78	n/a	stim	s144
446.467	0.552	1.4356580070187666	end_round	0.0	columbia_card_task_fmri	16.0	0.8333333333333334	71.0	-75.0	0.1666666666666666	15.0	4.0	2.0	1.2695611950087624	0.552	3.0	stim	s144
447.026	2.25	n/a	-1.0	n/a	columbia_card_task_fmri	n/a	n/a	-1.0	n/a	n/a	n/a	n/a	n/a	n/a	n/a	n/a	feedback	s144
449.276	0.068	n/a	-1.0	n/a	columbia_card_task_fmri	n/a	n/a	-1.0	n/a	n/a	n/a	n/a	n/a	n/a	n/a	n/a	ITI	s144
449.348	1.203	5.135658007018766	draw_card	1.0	columbia_card_task_fmri	16.0	0.8666666666666667	89.0	-70.0	0.1333333333333333	15.0	1.0	2.0	-3.4089020154086818	1.203	1.0	stim	s144
450.557	2.25	n/a	-1.0	n/a	columbia_card_task_fmri	n/a	n/a	-1.0	n/a	n/a	n/a	n/a	n/a	n/a	n/a	n/a	feedback	s144
452.807	0.34	n/a	-1.0	n/a	columbia_card_task_fmri	n/a	n/a	-1.0	n/a	n/a	n/a	n/a	n/a	n/a	n/a	n/a	ITI	s144
453.151	2.008	2.4773246736854326	draw_card	0.0	columbia_card_task_fmri	8.0	0.9375	89.0	-90.0	0.0625	16.0	1.0	1.0	-8.919816278701937	2.008	n/a	stim	s144
455.162	0.987	2.0689913403520994	draw_card	0.0	columbia_card_task_fmri	8.0	0.9333333333333332	89.0	-90.0	0.0666666666666666	16.0	2.0	1.0	-8.19657055045603	0.987	n/a	stim	s144
456.153	0.667	1.6023246736854335	end_round	0.0	columbia_card_task_fmri	8.0	0.9285714285714286	71.0	-90.0	0.0714285714285714	16.0	3.0	1.0	-7.403439703580837	0.667	2.0	stim	s144
456.825	2.25	n/a	-1.0	n/a	columbia_card_task_fmri	n/a	n/a	-1.0	n/a	n/a	n/a	n/a	n/a	n/a	n/a	n/a	feedback	s144
459.075	0.136	n/a	-1.0	n/a	columbia_card_task_fmri	n/a	n/a	-1.0	n/a	n/a	n/a	n/a	n/a	n/a	n/a	n/a	ITI	s144
459.214	2.122	4.039824673685433	draw_card	1.0	columbia_card_task_fmri	10.0	0.9375	89.0	-95.0	0.0625	16.0	1.0	1.0	-7.22589562092557	2.122	1.0	stim	s144
461.341	2.25	n/a	-1.0	n/a	columbia_card_task_fmri	n/a	n/a	-1.0	n/a	n/a	n/a	n/a	n/a	n/a	n/a	n/a	feedback	s144
463.591	0.068	n/a	-1.0	n/a	columbia_card_task_fmri	n/a	n/a	-1.0	n/a	n/a	n/a	n/a	n/a	n/a	n/a	n/a	ITI	s144
463.662	1.116	4.977324673685433	draw_card	0.0	columbia_card_task_fmri	15.0	0.875	89.0	-70.0	0.125	16.0	1.0	2.0	-4.531925023541643	1.116	n/a	stim	s144
464.783	0.865	4.268991340352099	draw_card	0.0	columbia_card_task_fmri	15.0	0.8666666666666667	89.0	-70.0	0.1333333333333333	16.0	2.0	2.0	-3.7487636738846426	0.865	n/a	stim	s144
465.651	0.701	3.4594675308282903	draw_card	0.0	columbia_card_task_fmri	15.0	0.8571428571428572	89.0	-70.0	0.1428571428571428	16.0	3.0	2.0	-2.899582779921364	0.701	n/a	stim	s144
466.356	0.95	2.525401596762354	draw_card	0.0	columbia_card_task_fmri	15.0	0.8461538461538461	89.0	-70.0	0.1538461538461538	16.0	4.0	2.0	-1.975467505901218	0.95	n/a	stim	s144
467.31	0.575	1.4356580070187666	end_round	0.0	columbia_card_task_fmri	15.0	0.8333333333333334	71.0	-70.0	0.1666666666666666	16.0	5.0	2.0	-0.9661293160530492	0.575	4.0	stim	s144
467.89	2.25	n/a	-1.0	n/a	columbia_card_task_fmri	n/a	n/a	-1.0	n/a	n/a	n/a	n/a	n/a	n/a	n/a	n/a	feedback	s144
470.14	0.068	n/a	-1.0	n/a	columbia_card_task_fmri	n/a	n/a	-1.0	n/a	n/a	n/a	n/a	n/a	n/a	n/a	n/a	ITI	s144
470.212	1.268	3.9773246736854326	draw_card	0.0	columbia_card_task_fmri	16.0	0.875	89.0	-85.0	0.125	16.0	1.0	2.0	0.7585556597928402	1.268	n/a	stim	s144
471.486	0.501	3.135658007018766	draw_card	0.0	columbia_card_task_fmri	16.0	0.8666666666666667	89.0	-85.0	0.1333333333333333	16.0	2.0	2.0	1.6891962246342231	0.501	n/a	stim	s144
471.991	0.613	2.1737532451140056	draw_card	1.0	columbia_card_task_fmri	16.0	0.8571428571428572	89.0	-85.0	0.1428571428571428	16.0	3.0	2.0	2.698285045149412	0.613	3.0	stim	s144
472.61	2.25	n/a	-1.0	n/a	columbia_card_task_fmri	n/a	n/a	-1.0	n/a	n/a	n/a	n/a	n/a	n/a	n/a	n/a	feedback	s144
474.86	0.068	n/a	-1.0	n/a	columbia_card_task_fmri	n/a	n/a	-1.0	n/a	n/a	n/a	n/a	n/a	n/a	n/a	n/a	ITI	s144
