onset	duration	planning	condition	current_position	exp_stage	experiment_exp_id	goal_state	key_press	problem_id	response_time	start_state	trial_id	worker_id
-64.425	0.0	0	n/a	n/a	n/a	ward_and_allport	n/a	32.0	n/a	21.006	n/a	instructions	s144
3.012	2.048	1	UA_with_intermediate	1,0,0,2,0,0,0,0,0	practice	ward_and_allport	1,2,3,0,0,0,0,0,0	71.0	0.0	2.048	1,0,0,2,3,0,0,0,0	to_hand	s144
5.061	0.283	0	UA_with_intermediate	1,0,0,2,0,0,3,0,0	practice	ward_and_allport	1,2,3,0,0,0,0,0,0	82.0	0.0	0.283	1,0,0,2,3,0,0,0,0	to_board	s144
5.346	0.283	0	UA_with_intermediate	1,0,0,0,0,0,3,0,0	practice	ward_and_allport	1,2,3,0,0,0,0,0,0	71.0	0.0	0.283	1,0,0,2,3,0,0,0,0	to_hand	s144
5.63	0.227	0	UA_with_intermediate	1,2,0,0,0,0,3,0,0	practice	ward_and_allport	1,2,3,0,0,0,0,0,0	89.0	0.0	0.227	1,0,0,2,3,0,0,0,0	to_board	s144
5.858	0.305	0	UA_with_intermediate	1,2,0,0,0,0,0,0,0	practice	ward_and_allport	1,2,3,0,0,0,0,0,0	82.0	0.0	0.305	1,0,0,2,3,0,0,0,0	to_hand	s144
6.164	0.171	0	UA_with_intermediate	1,2,3,0,0,0,0,0,0	practice	ward_and_allport	1,2,3,0,0,0,0,0,0	89.0	0.0	0.171	1,0,0,2,3,0,0,0,0	to_board	s144
6.339	1.0	0	UA_with_intermediate	n/a	practice	ward_and_allport	n/a	-1.0	0.0	n/a	n/a	feedback	s144
8.842	2.182	1	UA_with_intermediate	1,0,0,3,0,0,0,0,0	practice	ward_and_allport	1,3,2,0,0,0,0,0,0	89.0	1.0	2.182	1,2,0,3,0,0,0,0,0	to_hand	s144
11.024	0.183	0	UA_with_intermediate	1,0,0,3,0,0,2,0,0	practice	ward_and_allport	1,3,2,0,0,0,0,0,0	82.0	1.0	0.183	1,2,0,3,0,0,0,0,0	to_board	s144
11.209	0.266	0	UA_with_intermediate	1,0,0,0,0,0,2,0,0	practice	ward_and_allport	1,3,2,0,0,0,0,0,0	71.0	1.0	0.266	1,2,0,3,0,0,0,0,0	to_hand	s144
11.476	0.173	0	UA_with_intermediate	1,3,0,0,0,0,2,0,0	practice	ward_and_allport	1,3,2,0,0,0,0,0,0	89.0	1.0	0.173	1,2,0,3,0,0,0,0,0	to_board	s144
11.65	0.503	0	UA_with_intermediate	1,3,0,0,0,0,0,0,0	practice	ward_and_allport	1,3,2,0,0,0,0,0,0	82.0	1.0	0.503	1,2,0,3,0,0,0,0,0	to_hand	s144
12.154	0.116	0	UA_with_intermediate	1,3,2,0,0,0,0,0,0	practice	ward_and_allport	1,3,2,0,0,0,0,0,0	89.0	1.0	0.116	1,2,0,3,0,0,0,0,0	to_board	s144
12.273	1.0	0	UA_with_intermediate	n/a	practice	ward_and_allport	n/a	-1.0	1.0	n/a	n/a	feedback	s144
13.273	1.1	0	UA_with_intermediate	n/a	practice	ward_and_allport	n/a	-1.0	1.0	n/a	n/a	ITI	s144
14.375	1.543	1	UA_without_intermediate	0,0,0,1,2,0,0,0,0	practice	ward_and_allport	3,2,1,0,0,0,0,0,0	82.0	2.0	1.543	0,0,0,1,2,0,3,0,0	to_hand	s144
15.918	0.189	0	UA_without_intermediate	3,0,0,1,2,0,0,0,0	practice	ward_and_allport	3,2,1,0,0,0,0,0,0	89.0	2.0	0.189	0,0,0,1,2,0,3,0,0	to_board	s144
16.108	0.378	0	UA_without_intermediate	3,0,0,1,0,0,0,0,0	practice	ward_and_allport	3,2,1,0,0,0,0,0,0	71.0	2.0	0.378	0,0,0,1,2,0,3,0,0	to_hand	s144
16.487	0.138	0	UA_without_intermediate	3,2,0,1,0,0,0,0,0	practice	ward_and_allport	3,2,1,0,0,0,0,0,0	89.0	2.0	0.138	0,0,0,1,2,0,3,0,0	to_board	s144
16.627	0.52	0	UA_without_intermediate	3,2,0,0,0,0,0,0,0	practice	ward_and_allport	3,2,1,0,0,0,0,0,0	71.0	2.0	0.52	0,0,0,1,2,0,3,0,0	to_hand	s144
17.148	0.108	0	UA_without_intermediate	3,2,1,0,0,0,0,0,0	practice	ward_and_allport	3,2,1,0,0,0,0,0,0	89.0	2.0	0.108	0,0,0,1,2,0,3,0,0	to_board	s144
17.259	1.0	0	UA_without_intermediate	n/a	practice	ward_and_allport	n/a	-1.0	2.0	n/a	n/a	feedback	s144
18.259	1.2	0	UA_without_intermediate	n/a	practice	ward_and_allport	n/a	-1.0	2.0	n/a	n/a	ITI	s144
19.461	1.826	1	UA_without_intermediate	0,0,0,1,0,0,3,0,0	practice	ward_and_allport	2,3,1,0,0,0,0,0,0	71.0	3.0	1.826	0,0,0,1,2,0,3,0,0	to_hand	s144
21.288	0.164	0	UA_without_intermediate	2,0,0,1,0,0,3,0,0	practice	ward_and_allport	2,3,1,0,0,0,0,0,0	89.0	3.0	0.164	0,0,0,1,2,0,3,0,0	to_board	s144
21.454	0.175	0	UA_without_intermediate	2,0,0,1,0,0,0,0,0	practice	ward_and_allport	2,3,1,0,0,0,0,0,0	82.0	3.0	0.175	0,0,0,1,2,0,3,0,0	to_hand	s144
21.63	0.101	0	UA_without_intermediate	2,3,0,1,0,0,0,0,0	practice	ward_and_allport	2,3,1,0,0,0,0,0,0	89.0	3.0	0.101	0,0,0,1,2,0,3,0,0	to_board	s144
21.732	0.171	0	UA_without_intermediate	2,3,0,0,0,0,0,0,0	practice	ward_and_allport	2,3,1,0,0,0,0,0,0	71.0	3.0	0.171	0,0,0,1,2,0,3,0,0	to_hand	s144
21.905	0.608	0	UA_without_intermediate	2,3,1,0,0,0,0,0,0	practice	ward_and_allport	2,3,1,0,0,0,0,0,0	89.0	3.0	0.608	0,0,0,1,2,0,3,0,0	to_board	s144
22.52	1.0	0	UA_without_intermediate	n/a	practice	ward_and_allport	n/a	-1.0	3.0	n/a	n/a	feedback	s144
23.52	1.0	0	UA_without_intermediate	n/a	practice	ward_and_allport	n/a	-1.0	3.0	n/a	n/a	ITI	s144
26.525	1.799	1	PA_with_intermediate	0,0,0,1,2,0,0,0,0	test	ward_and_allport	2,0,0,1,3,0,0,0,0	71.0	0.0	1.799	0,0,0,1,2,3,0,0,0	to_hand	s144
28.325	0.176	0	PA_with_intermediate	0,0,0,1,2,0,3,0,0	test	ward_and_allport	2,0,0,1,3,0,0,0,0	82.0	0.0	0.176	0,0,0,1,2,3,0,0,0	to_board	s144
28.502	0.357	0	PA_with_intermediate	0,0,0,1,0,0,3,0,0	test	ward_and_allport	2,0,0,1,3,0,0,0,0	71.0	0.0	0.357	0,0,0,1,2,3,0,0,0	to_hand	s144
28.86	0.151	0	PA_with_intermediate	2,0,0,1,0,0,3,0,0	test	ward_and_allport	2,0,0,1,3,0,0,0,0	89.0	0.0	0.151	0,0,0,1,2,3,0,0,0	to_board	s144
29.012	0.266	0	PA_with_intermediate	2,0,0,0,0,0,3,0,0	test	ward_and_allport	2,0,0,1,3,0,0,0,0	71.0	0.0	0.266	0,0,0,1,2,3,0,0,0	to_hand	s144
29.279	0.653	0	PA_with_intermediate	2,0,0,1,0,0,3,0,0	test	ward_and_allport	2,0,0,1,3,0,0,0,0	71.0	0.0	0.653	0,0,0,1,2,3,0,0,0	to_board	s144
29.934	0.281	0	PA_with_intermediate	2,0,0,1,0,0,0,0,0	test	ward_and_allport	2,0,0,1,3,0,0,0,0	82.0	0.0	0.281	0,0,0,1,2,3,0,0,0	to_hand	s144
30.216	0.179	0	PA_with_intermediate	2,0,0,1,3,0,0,0,0	test	ward_and_allport	2,0,0,1,3,0,0,0,0	71.0	0.0	0.179	0,0,0,1,2,3,0,0,0	to_board	s144
30.4	1.0	0	PA_with_intermediate	n/a	test	ward_and_allport	n/a	-1.0	0.0	n/a	n/a	feedback	s144
31.4	1.408	0	PA_with_intermediate	n/a	test	ward_and_allport	n/a	-1.0	0.0	n/a	n/a	ITI	s144
32.81	2.04	1	PA_without_intermediate	1,2,0,0,0,0,0,0,0	test	ward_and_allport	0,0,0,1,0,0,3,2,0	89.0	1.0	2.04	1,2,3,0,0,0,0,0,0	to_hand	s144
34.852	0.222	0	PA_without_intermediate	1,2,0,0,0,0,3,0,0	test	ward_and_allport	0,0,0,1,0,0,3,2,0	82.0	1.0	0.222	1,2,3,0,0,0,0,0,0	to_board	s144
35.076	0.42	0	PA_without_intermediate	1,0,0,0,0,0,3,0,0	test	ward_and_allport	0,0,0,1,0,0,3,2,0	89.0	1.0	0.42	1,2,3,0,0,0,0,0,0	to_hand	s144
35.498	0.249	0	PA_without_intermediate	1,0,0,0,0,0,3,2,0	test	ward_and_allport	0,0,0,1,0,0,3,2,0	82.0	1.0	0.249	1,2,3,0,0,0,0,0,0	to_board	s144
35.749	0.882	0	PA_without_intermediate	0,0,0,0,0,0,3,2,0	test	ward_and_allport	0,0,0,1,0,0,3,2,0	89.0	1.0	0.882	1,2,3,0,0,0,0,0,0	to_hand	s144
36.633	0.245	0	PA_without_intermediate	0,0,0,1,0,0,3,2,0	test	ward_and_allport	0,0,0,1,0,0,3,2,0	71.0	1.0	0.245	1,2,3,0,0,0,0,0,0	to_board	s144
36.88	1.0	0	PA_without_intermediate	n/a	test	ward_and_allport	n/a	-1.0	1.0	n/a	n/a	feedback	s144
37.88	1.68	0	PA_without_intermediate	n/a	test	ward_and_allport	n/a	-1.0	1.0	n/a	n/a	ITI	s144
39.564	1.709	1	PA_with_intermediate	0,0,0,0,0,0,1,2,0	test	ward_and_allport	2,0,0,0,0,0,1,3,0	82.0	2.0	1.709	0,0,0,0,0,0,1,2,3	to_hand	s144
41.273	0.227	0	PA_with_intermediate	0,0,0,3,0,0,1,2,0	test	ward_and_allport	2,0,0,0,0,0,1,3,0	71.0	2.0	0.227	0,0,0,0,0,0,1,2,3	to_board	s144
41.502	0.333	0	PA_with_intermediate	0,0,0,3,0,0,1,0,0	test	ward_and_allport	2,0,0,0,0,0,1,3,0	82.0	2.0	0.333	0,0,0,0,0,0,1,2,3	to_hand	s144
41.836	0.201	0	PA_with_intermediate	2,0,0,3,0,0,1,0,0	test	ward_and_allport	2,0,0,0,0,0,1,3,0	89.0	2.0	0.201	0,0,0,0,0,0,1,2,3	to_board	s144
42.04	0.492	0	PA_with_intermediate	2,0,0,0,0,0,1,0,0	test	ward_and_allport	2,0,0,0,0,0,1,3,0	71.0	2.0	0.492	0,0,0,0,0,0,1,2,3	to_hand	s144
42.533	0.326	0	PA_with_intermediate	2,0,0,0,0,0,1,3,0	test	ward_and_allport	2,0,0,0,0,0,1,3,0	82.0	2.0	0.326	0,0,0,0,0,0,1,2,3	to_board	s144
42.862	1.0	0	PA_with_intermediate	n/a	test	ward_and_allport	n/a	-1.0	2.0	n/a	n/a	feedback	s144
43.862	3.72	0	PA_with_intermediate	n/a	test	ward_and_allport	n/a	-1.0	2.0	n/a	n/a	ITI	s144
47.585	3.091	1	PA_without_intermediate	1,2,0,0,0,0,0,0,0	test	ward_and_allport	0,0,0,3,2,0,1,0,0	89.0	3.0	3.091	1,2,3,0,0,0,0,0,0	to_hand	s144
50.676	0.231	0	PA_without_intermediate	1,2,0,3,0,0,0,0,0	test	ward_and_allport	0,0,0,3,2,0,1,0,0	71.0	3.0	0.231	1,2,3,0,0,0,0,0,0	to_board	s144
50.909	0.56	0	PA_without_intermediate	1,0,0,3,0,0,0,0,0	test	ward_and_allport	0,0,0,3,2,0,1,0,0	89.0	3.0	0.56	1,2,3,0,0,0,0,0,0	to_hand	s144
51.471	0.273	0	PA_without_intermediate	1,0,0,3,2,0,0,0,0	test	ward_and_allport	0,0,0,3,2,0,1,0,0	71.0	3.0	0.273	1,2,3,0,0,0,0,0,0	to_board	s144
51.748	0.279	0	PA_without_intermediate	0,0,0,3,2,0,0,0,0	test	ward_and_allport	0,0,0,3,2,0,1,0,0	89.0	3.0	0.279	1,2,3,0,0,0,0,0,0	to_hand	s144
52.027	0.15	0	PA_without_intermediate	0,0,0,3,2,0,1,0,0	test	ward_and_allport	0,0,0,3,2,0,1,0,0	82.0	3.0	0.15	1,2,3,0,0,0,0,0,0	to_board	s144
52.182	1.0	0	PA_without_intermediate	n/a	test	ward_and_allport	n/a	-1.0	3.0	n/a	n/a	feedback	s144
53.182	2.224	0	PA_without_intermediate	n/a	test	ward_and_allport	n/a	-1.0	3.0	n/a	n/a	ITI	s144
55.407	1.355	1	PA_without_intermediate	0,0,0,0,0,0,1,2,0	test	ward_and_allport	3,1,0,2,0,0,0,0,0	82.0	4.0	1.355	0,0,0,0,0,0,1,2,3	to_hand	s144
56.763	0.191	0	PA_without_intermediate	3,0,0,0,0,0,1,2,0	test	ward_and_allport	3,1,0,2,0,0,0,0,0	89.0	4.0	0.191	0,0,0,0,0,0,1,2,3	to_board	s144
56.956	0.357	0	PA_without_intermediate	3,0,0,0,0,0,1,0,0	test	ward_and_allport	3,1,0,2,0,0,0,0,0	82.0	4.0	0.357	0,0,0,0,0,0,1,2,3	to_hand	s144
57.314	0.595	0	PA_without_intermediate	3,0,0,2,0,0,1,0,0	test	ward_and_allport	3,1,0,2,0,0,0,0,0	71.0	4.0	0.595	0,0,0,0,0,0,1,2,3	to_board	s144
57.911	0.229	0	PA_without_intermediate	3,0,0,2,0,0,0,0,0	test	ward_and_allport	3,1,0,2,0,0,0,0,0	82.0	4.0	0.229	0,0,0,0,0,0,1,2,3	to_hand	s144
58.141	0.132	0	PA_without_intermediate	3,1,0,2,0,0,0,0,0	test	ward_and_allport	3,1,0,2,0,0,0,0,0	89.0	4.0	0.132	0,0,0,0,0,0,1,2,3	to_board	s144
58.279	1.0	0	PA_without_intermediate	n/a	test	ward_and_allport	n/a	-1.0	4.0	n/a	n/a	feedback	s144
59.279	1.272	0	PA_without_intermediate	n/a	test	ward_and_allport	n/a	-1.0	4.0	n/a	n/a	ITI	s144
60.553	1.799	1	PA_with_intermediate	0,0,0,0,0,0,1,2,0	test	ward_and_allport	2,3,0,0,0,0,1,0,0	82.0	5.0	1.799	0,0,0,0,0,0,1,2,3	to_hand	s144
62.354	0.157	0	PA_with_intermediate	0,0,0,3,0,0,1,2,0	test	ward_and_allport	2,3,0,0,0,0,1,0,0	71.0	5.0	0.157	0,0,0,0,0,0,1,2,3	to_board	s144
62.513	0.217	0	PA_with_intermediate	0,0,0,3,0,0,1,0,0	test	ward_and_allport	2,3,0,0,0,0,1,0,0	82.0	5.0	0.217	0,0,0,0,0,0,1,2,3	to_hand	s144
62.731	0.165	0	PA_with_intermediate	2,0,0,3,0,0,1,0,0	test	ward_and_allport	2,3,0,0,0,0,1,0,0	89.0	5.0	0.165	0,0,0,0,0,0,1,2,3	to_board	s144
62.9	0.757	0	PA_with_intermediate	2,0,0,3,0,0,0,0,0	test	ward_and_allport	2,3,0,0,0,0,1,0,0	82.0	5.0	0.757	0,0,0,0,0,0,1,2,3	to_hand	s144
63.658	0.569	0	PA_with_intermediate	2,0,0,3,0,0,1,0,0	test	ward_and_allport	2,3,0,0,0,0,1,0,0	82.0	5.0	0.569	0,0,0,0,0,0,1,2,3	to_board	s144
64.228	0.225	0	PA_with_intermediate	2,0,0,0,0,0,1,0,0	test	ward_and_allport	2,3,0,0,0,0,1,0,0	71.0	5.0	0.225	0,0,0,0,0,0,1,2,3	to_hand	s144
64.455	0.136	0	PA_with_intermediate	2,3,0,0,0,0,1,0,0	test	ward_and_allport	2,3,0,0,0,0,1,0,0	89.0	5.0	0.136	0,0,0,0,0,0,1,2,3	to_board	s144
64.595	1.0	0	PA_with_intermediate	n/a	test	ward_and_allport	n/a	-1.0	5.0	n/a	n/a	feedback	s144
65.595	2.632	0	PA_with_intermediate	n/a	test	ward_and_allport	n/a	-1.0	5.0	n/a	n/a	ITI	s144
68.229	1.765	1	PA_without_intermediate	0,0,0,0,0,0,1,2,0	test	ward_and_allport	3,2,0,1,0,0,0,0,0	82.0	6.0	1.765	0,0,0,0,0,0,1,2,3	to_hand	s144
69.995	0.183	0	PA_without_intermediate	3,0,0,0,0,0,1,2,0	test	ward_and_allport	3,2,0,1,0,0,0,0,0	89.0	6.0	0.183	0,0,0,0,0,0,1,2,3	to_board	s144
70.181	0.512	0	PA_without_intermediate	3,0,0,0,0,0,1,0,0	test	ward_and_allport	3,2,0,1,0,0,0,0,0	82.0	6.0	0.512	0,0,0,0,0,0,1,2,3	to_hand	s144
70.694	0.174	0	PA_without_intermediate	3,2,0,0,0,0,1,0,0	test	ward_and_allport	3,2,0,1,0,0,0,0,0	89.0	6.0	0.174	0,0,0,0,0,0,1,2,3	to_board	s144
70.87	0.58	0	PA_without_intermediate	3,2,0,0,0,0,0,0,0	test	ward_and_allport	3,2,0,1,0,0,0,0,0	82.0	6.0	0.58	0,0,0,0,0,0,1,2,3	to_hand	s144
71.451	0.135	0	PA_without_intermediate	3,2,0,1,0,0,0,0,0	test	ward_and_allport	3,2,0,1,0,0,0,0,0	71.0	6.0	0.135	0,0,0,0,0,0,1,2,3	to_board	s144
71.594	1.0	0	PA_without_intermediate	n/a	test	ward_and_allport	n/a	-1.0	6.0	n/a	n/a	feedback	s144
72.594	1.408	0	PA_without_intermediate	n/a	test	ward_and_allport	n/a	-1.0	6.0	n/a	n/a	ITI	s144
74.005	1.252	1	PA_without_intermediate	0,0,0,1,2,0,0,0,0	test	ward_and_allport	3,2,0,0,0,0,1,0,0	71.0	7.0	1.252	0,0,0,1,2,3,0,0,0	to_hand	s144
75.258	0.21	0	PA_without_intermediate	3,0,0,1,2,0,0,0,0	test	ward_and_allport	3,2,0,0,0,0,1,0,0	89.0	7.0	0.21	0,0,0,1,2,3,0,0,0	to_board	s144
75.471	0.436	0	PA_without_intermediate	3,0,0,1,0,0,0,0,0	test	ward_and_allport	3,2,0,0,0,0,1,0,0	71.0	7.0	0.436	0,0,0,1,2,3,0,0,0	to_hand	s144
75.909	0.223	0	PA_without_intermediate	3,2,0,1,0,0,0,0,0	test	ward_and_allport	3,2,0,0,0,0,1,0,0	89.0	7.0	0.223	0,0,0,1,2,3,0,0,0	to_board	s144
76.134	0.451	0	PA_without_intermediate	3,2,0,0,0,0,0,0,0	test	ward_and_allport	3,2,0,0,0,0,1,0,0	71.0	7.0	0.451	0,0,0,1,2,3,0,0,0	to_hand	s144
76.586	0.197	0	PA_without_intermediate	3,2,0,0,0,0,1,0,0	test	ward_and_allport	3,2,0,0,0,0,1,0,0	82.0	7.0	0.197	0,0,0,1,2,3,0,0,0	to_board	s144
76.787	1.0	0	PA_without_intermediate	n/a	test	ward_and_allport	n/a	-1.0	7.0	n/a	n/a	feedback	s144
77.787	1.0	0	PA_without_intermediate	n/a	test	ward_and_allport	n/a	-1.0	7.0	n/a	n/a	ITI	s144
78.79	2.856	1	PA_with_intermediate	1,2,0,0,0,0,0,0,0	test	ward_and_allport	1,3,0,2,0,0,0,0,0	89.0	8.0	2.856	1,2,3,0,0,0,0,0,0	to_hand	s144
81.646	0.163	0	PA_with_intermediate	1,2,0,0,0,0,3,0,0	test	ward_and_allport	1,3,0,2,0,0,0,0,0	82.0	8.0	0.163	1,2,3,0,0,0,0,0,0	to_board	s144
81.812	0.365	0	PA_with_intermediate	1,0,0,0,0,0,3,0,0	test	ward_and_allport	1,3,0,2,0,0,0,0,0	89.0	8.0	0.365	1,2,3,0,0,0,0,0,0	to_hand	s144
82.178	0.178	0	PA_with_intermediate	1,0,0,2,0,0,3,0,0	test	ward_and_allport	1,3,0,2,0,0,0,0,0	71.0	8.0	0.178	1,2,3,0,0,0,0,0,0	to_board	s144
82.359	0.412	0	PA_with_intermediate	1,0,0,2,0,0,0,0,0	test	ward_and_allport	1,3,0,2,0,0,0,0,0	82.0	8.0	0.412	1,2,3,0,0,0,0,0,0	to_hand	s144
82.772	0.073	0	PA_with_intermediate	1,3,0,2,0,0,0,0,0	test	ward_and_allport	1,3,0,2,0,0,0,0,0	89.0	8.0	0.073	1,2,3,0,0,0,0,0,0	to_board	s144
82.851	1.0	0	PA_with_intermediate	n/a	test	ward_and_allport	n/a	-1.0	8.0	n/a	n/a	feedback	s144
83.851	1.0	0	PA_with_intermediate	n/a	test	ward_and_allport	n/a	-1.0	8.0	n/a	n/a	ITI	s144
84.855	2.954	1	PA_with_intermediate	0,0,0,1,2,0,0,0,0	test	ward_and_allport	0,0,0,1,3,0,2,0,0	71.0	9.0	2.954	0,0,0,1,2,3,0,0,0	to_hand	s144
87.81	0.15	0	PA_with_intermediate	3,0,0,1,2,0,0,0,0	test	ward_and_allport	0,0,0,1,3,0,2,0,0	89.0	9.0	0.15	0,0,0,1,2,3,0,0,0	to_board	s144
87.964	0.222	0	PA_with_intermediate	3,0,0,1,0,0,0,0,0	test	ward_and_allport	0,0,0,1,3,0,2,0,0	71.0	9.0	0.222	0,0,0,1,2,3,0,0,0	to_hand	s144
88.186	0.17	0	PA_with_intermediate	3,0,0,1,0,0,2,0,0	test	ward_and_allport	0,0,0,1,3,0,2,0,0	82.0	9.0	0.17	0,0,0,1,2,3,0,0,0	to_board	s144
88.359	0.185	0	PA_with_intermediate	0,0,0,1,0,0,2,0,0	test	ward_and_allport	0,0,0,1,3,0,2,0,0	89.0	9.0	0.185	0,0,0,1,2,3,0,0,0	to_hand	s144
88.545	0.148	0	PA_with_intermediate	0,0,0,1,3,0,2,0,0	test	ward_and_allport	0,0,0,1,3,0,2,0,0	71.0	9.0	0.148	0,0,0,1,2,3,0,0,0	to_board	s144
88.699	1.0	0	PA_with_intermediate	n/a	test	ward_and_allport	n/a	-1.0	9.0	n/a	n/a	feedback	s144
89.699	1.0	0	PA_with_intermediate	n/a	test	ward_and_allport	n/a	-1.0	9.0	n/a	n/a	ITI	s144
90.705	1.574	1	PA_with_intermediate	1,2,0,0,0,0,0,0,0	test	ward_and_allport	1,0,0,0,0,0,2,3,0	89.0	10.0	1.574	1,2,3,0,0,0,0,0,0	to_hand	s144
92.281	0.208	0	PA_with_intermediate	1,2,0,0,0,0,3,0,0	test	ward_and_allport	1,0,0,0,0,0,2,3,0	82.0	10.0	0.208	1,2,3,0,0,0,0,0,0	to_board	s144
92.494	0.144	0	PA_with_intermediate	1,0,0,0,0,0,3,0,0	test	ward_and_allport	1,0,0,0,0,0,2,3,0	89.0	10.0	0.144	1,2,3,0,0,0,0,0,0	to_hand	s144
92.638	0.152	0	PA_with_intermediate	1,0,0,0,0,0,3,2,0	test	ward_and_allport	1,0,0,0,0,0,2,3,0	82.0	10.0	0.152	1,2,3,0,0,0,0,0,0	to_board	s144
92.794	1.412	0	PA_with_intermediate	1,0,0,0,0,0,3,0,0	test	ward_and_allport	1,0,0,0,0,0,2,3,0	82.0	10.0	1.412	1,2,3,0,0,0,0,0,0	to_hand	s144
94.207	0.253	0	PA_with_intermediate	1,0,0,2,0,0,3,0,0	test	ward_and_allport	1,0,0,0,0,0,2,3,0	71.0	10.0	0.253	1,2,3,0,0,0,0,0,0	to_board	s144
94.464	0.766	0	PA_with_intermediate	1,0,0,2,0,0,0,0,0	test	ward_and_allport	1,0,0,0,0,0,2,3,0	82.0	10.0	0.766	1,2,3,0,0,0,0,0,0	to_hand	s144
95.23	0.315	0	PA_with_intermediate	1,3,0,2,0,0,0,0,0	test	ward_and_allport	1,0,0,0,0,0,2,3,0	89.0	10.0	0.315	1,2,3,0,0,0,0,0,0	to_board	s144
95.549	0.364	0	PA_with_intermediate	1,3,0,0,0,0,0,0,0	test	ward_and_allport	1,0,0,0,0,0,2,3,0	71.0	10.0	0.364	1,2,3,0,0,0,0,0,0	to_hand	s144
95.913	0.429	0	PA_with_intermediate	1,3,0,0,0,0,2,0,0	test	ward_and_allport	1,0,0,0,0,0,2,3,0	82.0	10.0	0.429	1,2,3,0,0,0,0,0,0	to_board	s144
96.346	0.297	0	PA_with_intermediate	1,0,0,0,0,0,2,0,0	test	ward_and_allport	1,0,0,0,0,0,2,3,0	89.0	10.0	0.297	1,2,3,0,0,0,0,0,0	to_hand	s144
96.643	0.143	0	PA_with_intermediate	1,0,0,0,0,0,2,3,0	test	ward_and_allport	1,0,0,0,0,0,2,3,0	82.0	10.0	0.143	1,2,3,0,0,0,0,0,0	to_board	s144
96.795	1.0	0	PA_with_intermediate	n/a	test	ward_and_allport	n/a	-1.0	10.0	n/a	n/a	feedback	s144
97.795	1.408	0	PA_with_intermediate	n/a	test	ward_and_allport	n/a	-1.0	10.0	n/a	n/a	ITI	s144
99.205	1.258	1	PA_without_intermediate	0,0,0,0,0,0,1,2,0	test	ward_and_allport	3,1,0,2,0,0,0,0,0	82.0	11.0	1.258	0,0,0,0,0,0,1,2,3	to_hand	s144
100.464	0.257	0	PA_without_intermediate	3,0,0,0,0,0,1,2,0	test	ward_and_allport	3,1,0,2,0,0,0,0,0	89.0	11.0	0.257	0,0,0,0,0,0,1,2,3	to_board	s144
100.725	0.201	0	PA_without_intermediate	3,0,0,0,0,0,1,0,0	test	ward_and_allport	3,1,0,2,0,0,0,0,0	82.0	11.0	0.201	0,0,0,0,0,0,1,2,3	to_hand	s144
100.927	0.193	0	PA_without_intermediate	3,0,0,2,0,0,1,0,0	test	ward_and_allport	3,1,0,2,0,0,0,0,0	71.0	11.0	0.193	0,0,0,0,0,0,1,2,3	to_board	s144
101.123	0.202	0	PA_without_intermediate	3,0,0,2,0,0,0,0,0	test	ward_and_allport	3,1,0,2,0,0,0,0,0	82.0	11.0	0.202	0,0,0,0,0,0,1,2,3	to_hand	s144
101.326	0.168	0	PA_without_intermediate	3,1,0,2,0,0,0,0,0	test	ward_and_allport	3,1,0,2,0,0,0,0,0	89.0	11.0	0.168	0,0,0,0,0,0,1,2,3	to_board	s144
101.502	1.0	0	PA_without_intermediate	n/a	test	ward_and_allport	n/a	-1.0	11.0	n/a	n/a	feedback	s144
102.502	1.816	0	PA_without_intermediate	n/a	test	ward_and_allport	n/a	-1.0	11.0	n/a	n/a	ITI	s144
104.321	1.377	1	PA_with_intermediate	0,0,0,0,0,0,1,2,0	test	ward_and_allport	0,0,0,2,3,0,1,0,0	82.0	12.0	1.377	0,0,0,0,0,0,1,2,3	to_hand	s144
105.699	0.189	0	PA_with_intermediate	3,0,0,0,0,0,1,2,0	test	ward_and_allport	0,0,0,2,3,0,1,0,0	89.0	12.0	0.189	0,0,0,0,0,0,1,2,3	to_board	s144
105.893	0.162	0	PA_with_intermediate	3,0,0,0,0,0,1,0,0	test	ward_and_allport	0,0,0,2,3,0,1,0,0	82.0	12.0	0.162	0,0,0,0,0,0,1,2,3	to_hand	s144
106.056	0.184	0	PA_with_intermediate	3,0,0,2,0,0,1,0,0	test	ward_and_allport	0,0,0,2,3,0,1,0,0	71.0	12.0	0.184	0,0,0,0,0,0,1,2,3	to_board	s144
106.244	0.413	0	PA_with_intermediate	0,0,0,2,0,0,1,0,0	test	ward_and_allport	0,0,0,2,3,0,1,0,0	89.0	12.0	0.413	0,0,0,0,0,0,1,2,3	to_hand	s144
106.658	0.196	0	PA_with_intermediate	0,0,0,2,3,0,1,0,0	test	ward_and_allport	0,0,0,2,3,0,1,0,0	71.0	12.0	0.196	0,0,0,0,0,0,1,2,3	to_board	s144
106.861	1.0	0	PA_with_intermediate	n/a	test	ward_and_allport	n/a	-1.0	12.0	n/a	n/a	feedback	s144
107.861	3.176	0	PA_with_intermediate	n/a	test	ward_and_allport	n/a	-1.0	12.0	n/a	n/a	ITI	s144
111.04	1.906	1	PA_with_intermediate	1,2,0,0,0,0,0,0,0	test	ward_and_allport	1,0,0,0,0,0,2,3,0	89.0	13.0	1.906	1,2,3,0,0,0,0,0,0	to_hand	s144
112.947	0.223	0	PA_with_intermediate	1,2,0,0,0,0,3,0,0	test	ward_and_allport	1,0,0,0,0,0,2,3,0	82.0	13.0	0.223	1,2,3,0,0,0,0,0,0	to_board	s144
113.173	0.325	0	PA_with_intermediate	1,0,0,0,0,0,3,0,0	test	ward_and_allport	1,0,0,0,0,0,2,3,0	89.0	13.0	0.325	1,2,3,0,0,0,0,0,0	to_hand	s144
113.499	0.173	0	PA_with_intermediate	1,0,0,0,0,0,3,2,0	test	ward_and_allport	1,0,0,0,0,0,2,3,0	82.0	13.0	0.173	1,2,3,0,0,0,0,0,0	to_board	s144
113.676	1.124	0	PA_with_intermediate	1,0,0,0,0,0,3,0,0	test	ward_and_allport	1,0,0,0,0,0,2,3,0	82.0	13.0	1.124	1,2,3,0,0,0,0,0,0	to_hand	s144
114.801	0.174	0	PA_with_intermediate	1,0,0,2,0,0,3,0,0	test	ward_and_allport	1,0,0,0,0,0,2,3,0	71.0	13.0	0.174	1,2,3,0,0,0,0,0,0	to_board	s144
114.979	0.38	0	PA_with_intermediate	1,0,0,2,0,0,0,0,0	test	ward_and_allport	1,0,0,0,0,0,2,3,0	82.0	13.0	0.38	1,2,3,0,0,0,0,0,0	to_hand	s144
115.359	0.189	0	PA_with_intermediate	1,3,0,2,0,0,0,0,0	test	ward_and_allport	1,0,0,0,0,0,2,3,0	89.0	13.0	0.189	1,2,3,0,0,0,0,0,0	to_board	s144
115.552	0.671	0	PA_with_intermediate	1,3,0,0,0,0,0,0,0	test	ward_and_allport	1,0,0,0,0,0,2,3,0	71.0	13.0	0.671	1,2,3,0,0,0,0,0,0	to_hand	s144
116.224	0.122	0	PA_with_intermediate	1,3,0,0,0,0,2,0,0	test	ward_and_allport	1,0,0,0,0,0,2,3,0	82.0	13.0	0.122	1,2,3,0,0,0,0,0,0	to_board	s144
116.351	0.458	0	PA_with_intermediate	1,0,0,0,0,0,2,0,0	test	ward_and_allport	1,0,0,0,0,0,2,3,0	89.0	13.0	0.458	1,2,3,0,0,0,0,0,0	to_hand	s144
116.81	0.122	0	PA_with_intermediate	1,0,0,0,0,0,2,3,0	test	ward_and_allport	1,0,0,0,0,0,2,3,0	82.0	13.0	0.122	1,2,3,0,0,0,0,0,0	to_board	s144
116.938	1.0	0	PA_with_intermediate	n/a	test	ward_and_allport	n/a	-1.0	13.0	n/a	n/a	feedback	s144
117.938	2.36	0	PA_with_intermediate	n/a	test	ward_and_allport	n/a	-1.0	13.0	n/a	n/a	ITI	s144
120.301	1.549	1	PA_with_intermediate	1,2,0,0,0,0,0,0,0	test	ward_and_allport	1,0,0,2,3,0,0,0,0	89.0	14.0	1.549	1,2,3,0,0,0,0,0,0	to_hand	s144
121.851	0.15	0	PA_with_intermediate	1,2,0,0,0,0,3,0,0	test	ward_and_allport	1,0,0,2,3,0,0,0,0	82.0	14.0	0.15	1,2,3,0,0,0,0,0,0	to_board	s144
122.005	0.18	0	PA_with_intermediate	1,0,0,0,0,0,3,0,0	test	ward_and_allport	1,0,0,2,3,0,0,0,0	89.0	14.0	0.18	1,2,3,0,0,0,0,0,0	to_hand	s144
122.186	0.138	0	PA_with_intermediate	1,0,0,2,0,0,3,0,0	test	ward_and_allport	1,0,0,2,3,0,0,0,0	71.0	14.0	0.138	1,2,3,0,0,0,0,0,0	to_board	s144
122.329	0.265	0	PA_with_intermediate	1,0,0,2,0,0,0,0,0	test	ward_and_allport	1,0,0,2,3,0,0,0,0	82.0	14.0	0.265	1,2,3,0,0,0,0,0,0	to_hand	s144
122.596	0.123	0	PA_with_intermediate	1,0,0,2,3,0,0,0,0	test	ward_and_allport	1,0,0,2,3,0,0,0,0	71.0	14.0	0.123	1,2,3,0,0,0,0,0,0	to_board	s144
122.723	1.0	0	PA_with_intermediate	n/a	test	ward_and_allport	n/a	-1.0	14.0	n/a	n/a	feedback	s144
123.723	1.0	0	PA_with_intermediate	n/a	test	ward_and_allport	n/a	-1.0	14.0	n/a	n/a	ITI	s144
129.73	2.218	1	PA_without_intermediate	1,2,0,0,0,0,0,0,0	test	ward_and_allport	0,0,0,3,2,0,1,0,0	89.0	15.0	2.218	1,2,3,0,0,0,0,0,0	to_hand	s144
131.949	0.175	0	PA_without_intermediate	1,2,0,3,0,0,0,0,0	test	ward_and_allport	0,0,0,3,2,0,1,0,0	71.0	15.0	0.175	1,2,3,0,0,0,0,0,0	to_board	s144
132.128	0.246	0	PA_without_intermediate	1,0,0,3,0,0,0,0,0	test	ward_and_allport	0,0,0,3,2,0,1,0,0	89.0	15.0	0.246	1,2,3,0,0,0,0,0,0	to_hand	s144
132.375	0.198	0	PA_without_intermediate	1,0,0,3,2,0,0,0,0	test	ward_and_allport	0,0,0,3,2,0,1,0,0	71.0	15.0	0.198	1,2,3,0,0,0,0,0,0	to_board	s144
132.578	0.232	0	PA_without_intermediate	0,0,0,3,2,0,0,0,0	test	ward_and_allport	0,0,0,3,2,0,1,0,0	89.0	15.0	0.232	1,2,3,0,0,0,0,0,0	to_hand	s144
132.81	0.114	0	PA_without_intermediate	0,0,0,3,2,0,1,0,0	test	ward_and_allport	0,0,0,3,2,0,1,0,0	82.0	15.0	0.114	1,2,3,0,0,0,0,0,0	to_board	s144
132.93	1.0	0	PA_without_intermediate	n/a	test	ward_and_allport	n/a	-1.0	15.0	n/a	n/a	feedback	s144
133.93	1.408	0	PA_without_intermediate	n/a	test	ward_and_allport	n/a	-1.0	15.0	n/a	n/a	ITI	s144
135.341	2.571	1	PA_with_intermediate	1,2,0,0,0,0,0,0,0	test	ward_and_allport	1,3,0,2,0,0,0,0,0	89.0	16.0	2.571	1,2,3,0,0,0,0,0,0	to_hand	s144
137.913	0.126	0	PA_with_intermediate	1,2,0,0,0,0,3,0,0	test	ward_and_allport	1,3,0,2,0,0,0,0,0	82.0	16.0	0.126	1,2,3,0,0,0,0,0,0	to_board	s144
138.044	0.243	0	PA_with_intermediate	1,0,0,0,0,0,3,0,0	test	ward_and_allport	1,3,0,2,0,0,0,0,0	89.0	16.0	0.243	1,2,3,0,0,0,0,0,0	to_hand	s144
138.288	0.43	0	PA_with_intermediate	1,0,0,2,0,0,3,0,0	test	ward_and_allport	1,3,0,2,0,0,0,0,0	71.0	16.0	0.43	1,2,3,0,0,0,0,0,0	to_board	s144
138.723	0.336	0	PA_with_intermediate	1,0,0,2,0,0,0,0,0	test	ward_and_allport	1,3,0,2,0,0,0,0,0	82.0	16.0	0.336	1,2,3,0,0,0,0,0,0	to_hand	s144
139.059	0.087	0	PA_with_intermediate	1,3,0,2,0,0,0,0,0	test	ward_and_allport	1,3,0,2,0,0,0,0,0	89.0	16.0	0.087	1,2,3,0,0,0,0,0,0	to_board	s144
139.151	1.0	0	PA_with_intermediate	n/a	test	ward_and_allport	n/a	-1.0	16.0	n/a	n/a	feedback	s144
140.151	1.816	0	PA_with_intermediate	n/a	test	ward_and_allport	n/a	-1.0	16.0	n/a	n/a	ITI	s144
141.971	1.444	1	PA_without_intermediate	0,0,0,1,2,0,0,0,0	test	ward_and_allport	1,0,0,0,0,0,3,2,0	71.0	17.0	1.444	0,0,0,1,2,3,0,0,0	to_hand	s144
143.416	0.138	0	PA_without_intermediate	0,0,0,1,2,0,3,0,0	test	ward_and_allport	1,0,0,0,0,0,3,2,0	82.0	17.0	0.138	0,0,0,1,2,3,0,0,0	to_board	s144
143.559	0.236	0	PA_without_intermediate	0,0,0,1,0,0,3,0,0	test	ward_and_allport	1,0,0,0,0,0,3,2,0	71.0	17.0	0.236	0,0,0,1,2,3,0,0,0	to_hand	s144
143.795	0.117	0	PA_without_intermediate	0,0,0,1,0,0,3,2,0	test	ward_and_allport	1,0,0,0,0,0,3,2,0	82.0	17.0	0.117	0,0,0,1,2,3,0,0,0	to_board	s144
143.917	0.211	0	PA_without_intermediate	0,0,0,0,0,0,3,2,0	test	ward_and_allport	1,0,0,0,0,0,3,2,0	71.0	17.0	0.211	0,0,0,1,2,3,0,0,0	to_hand	s144
144.128	0.114	0	PA_without_intermediate	1,0,0,0,0,0,3,2,0	test	ward_and_allport	1,0,0,0,0,0,3,2,0	89.0	17.0	0.114	0,0,0,1,2,3,0,0,0	to_board	s144
144.252	1.0	0	PA_without_intermediate	n/a	test	ward_and_allport	n/a	-1.0	17.0	n/a	n/a	feedback	s144
145.252	2.088	0	PA_without_intermediate	n/a	test	ward_and_allport	n/a	-1.0	17.0	n/a	n/a	ITI	s144
147.344	1.782	1	PA_without_intermediate	1,2,0,0,0,0,0,0,0	test	ward_and_allport	0,0,0,3,1,0,2,0,0	89.0	18.0	1.782	1,2,3,0,0,0,0,0,0	to_hand	s144
149.127	0.097	0	PA_without_intermediate	1,2,0,3,0,0,0,0,0	test	ward_and_allport	0,0,0,3,1,0,2,0,0	71.0	18.0	0.097	1,2,3,0,0,0,0,0,0	to_board	s144
149.228	0.248	0	PA_without_intermediate	1,0,0,3,0,0,0,0,0	test	ward_and_allport	0,0,0,3,1,0,2,0,0	89.0	18.0	0.248	1,2,3,0,0,0,0,0,0	to_hand	s144
149.478	0.109	0	PA_without_intermediate	1,0,0,3,0,0,2,0,0	test	ward_and_allport	0,0,0,3,1,0,2,0,0	82.0	18.0	0.109	1,2,3,0,0,0,0,0,0	to_board	s144
149.593	0.557	0	PA_without_intermediate	0,0,0,3,0,0,2,0,0	test	ward_and_allport	0,0,0,3,1,0,2,0,0	89.0	18.0	0.557	1,2,3,0,0,0,0,0,0	to_hand	s144
150.152	0.075	0	PA_without_intermediate	0,0,0,3,1,0,2,0,0	test	ward_and_allport	0,0,0,3,1,0,2,0,0	71.0	18.0	0.075	1,2,3,0,0,0,0,0,0	to_board	s144
150.232	1.0	0	PA_without_intermediate	n/a	test	ward_and_allport	n/a	-1.0	18.0	n/a	n/a	feedback	s144
151.232	1.136	0	PA_without_intermediate	n/a	test	ward_and_allport	n/a	-1.0	18.0	n/a	n/a	ITI	s144
152.372	1.259	1	PA_without_intermediate	0,0,0,0,0,0,1,2,0	test	ward_and_allport	2,0,0,3,1,0,0,0,0	82.0	19.0	1.259	0,0,0,0,0,0,1,2,3	to_hand	s144
153.633	0.12	0	PA_without_intermediate	0,0,0,3,0,0,1,2,0	test	ward_and_allport	2,0,0,3,1,0,0,0,0	71.0	19.0	0.12	0,0,0,0,0,0,1,2,3	to_board	s144
153.76	0.757	0	PA_without_intermediate	0,0,0,3,0,0,1,0,0	test	ward_and_allport	2,0,0,3,1,0,0,0,0	82.0	19.0	0.757	0,0,0,0,0,0,1,2,3	to_hand	s144
154.518	0.131	0	PA_without_intermediate	2,0,0,3,0,0,1,0,0	test	ward_and_allport	2,0,0,3,1,0,0,0,0	89.0	19.0	0.131	0,0,0,0,0,0,1,2,3	to_board	s144
154.654	0.435	0	PA_without_intermediate	2,0,0,0,0,0,1,0,0	test	ward_and_allport	2,0,0,3,1,0,0,0,0	71.0	19.0	0.435	0,0,0,0,0,0,1,2,3	to_hand	s144
155.089	0.011	0	PA_without_intermediate	2,0,0,0,0,0,1,3,0	test	ward_and_allport	2,0,0,3,1,0,0,0,0	82.0	19.0	0.011	0,0,0,0,0,0,1,2,3	to_board	s144
155.107	0.876	0	PA_without_intermediate	2,0,0,0,0,0,1,0,0	test	ward_and_allport	2,0,0,3,1,0,0,0,0	82.0	19.0	0.876	0,0,0,0,0,0,1,2,3	to_hand	s144
155.984	0.068	0	PA_without_intermediate	2,0,0,3,0,0,1,0,0	test	ward_and_allport	2,0,0,3,1,0,0,0,0	71.0	19.0	0.068	0,0,0,0,0,0,1,2,3	to_board	s144
156.056	0.232	0	PA_without_intermediate	2,0,0,0,0,0,1,0,0	test	ward_and_allport	2,0,0,3,1,0,0,0,0	71.0	19.0	0.232	0,0,0,0,0,0,1,2,3	to_hand	s144
156.289	0.545	0	PA_without_intermediate	2,0,0,3,0,0,1,0,0	test	ward_and_allport	2,0,0,3,1,0,0,0,0	71.0	19.0	0.545	0,0,0,0,0,0,1,2,3	to_board	s144
156.839	0.186	0	PA_without_intermediate	2,0,0,3,0,0,0,0,0	test	ward_and_allport	2,0,0,3,1,0,0,0,0	82.0	19.0	0.186	0,0,0,0,0,0,1,2,3	to_hand	s144
157.026	0.154	0	PA_without_intermediate	2,0,0,3,1,0,0,0,0	test	ward_and_allport	2,0,0,3,1,0,0,0,0	71.0	19.0	0.154	0,0,0,0,0,0,1,2,3	to_board	s144
157.187	1.0	0	PA_without_intermediate	n/a	test	ward_and_allport	n/a	-1.0	19.0	n/a	n/a	feedback	s144
158.187	6.168	0	PA_without_intermediate	n/a	test	ward_and_allport	n/a	-1.0	19.0	n/a	n/a	ITI	s144
164.362	1.177	1	PA_without_intermediate	0,0,0,0,0,0,1,2,0	test	ward_and_allport	1,0,0,3,2,0,0,0,0	82.0	20.0	1.177	0,0,0,0,0,0,1,2,3	to_hand	s144
165.54	0.169	0	PA_without_intermediate	0,0,0,3,0,0,1,2,0	test	ward_and_allport	1,0,0,3,2,0,0,0,0	71.0	20.0	0.169	0,0,0,0,0,0,1,2,3	to_board	s144
165.716	0.162	0	PA_without_intermediate	0,0,0,3,0,0,1,0,0	test	ward_and_allport	1,0,0,3,2,0,0,0,0	82.0	20.0	0.162	0,0,0,0,0,0,1,2,3	to_hand	s144
165.879	0.131	0	PA_without_intermediate	0,0,0,3,2,0,1,0,0	test	ward_and_allport	1,0,0,3,2,0,0,0,0	71.0	20.0	0.131	0,0,0,0,0,0,1,2,3	to_board	s144
166.016	0.262	0	PA_without_intermediate	0,0,0,3,2,0,0,0,0	test	ward_and_allport	1,0,0,3,2,0,0,0,0	82.0	20.0	0.262	0,0,0,0,0,0,1,2,3	to_hand	s144
166.278	0.101	0	PA_without_intermediate	1,0,0,3,2,0,0,0,0	test	ward_and_allport	1,0,0,3,2,0,0,0,0	89.0	20.0	0.101	0,0,0,0,0,0,1,2,3	to_board	s144
166.386	1.0	0	PA_without_intermediate	n/a	test	ward_and_allport	n/a	-1.0	20.0	n/a	n/a	feedback	s144
167.386	1.816	0	PA_without_intermediate	n/a	test	ward_and_allport	n/a	-1.0	20.0	n/a	n/a	ITI	s144
169.208	2.142	1	PA_with_intermediate	0,0,0,0,0,0,1,2,0	test	ward_and_allport	0,0,0,2,0,0,1,3,0	82.0	21.0	2.142	0,0,0,0,0,0,1,2,3	to_hand	s144
171.352	0.149	0	PA_with_intermediate	3,0,0,0,0,0,1,2,0	test	ward_and_allport	0,0,0,2,0,0,1,3,0	89.0	21.0	0.149	0,0,0,0,0,0,1,2,3	to_board	s144
171.507	0.174	0	PA_with_intermediate	3,0,0,0,0,0,1,0,0	test	ward_and_allport	0,0,0,2,0,0,1,3,0	82.0	21.0	0.174	0,0,0,0,0,0,1,2,3	to_hand	s144
171.682	0.154	0	PA_with_intermediate	3,0,0,2,0,0,1,0,0	test	ward_and_allport	0,0,0,2,0,0,1,3,0	71.0	21.0	0.154	0,0,0,0,0,0,1,2,3	to_board	s144
171.842	0.448	0	PA_with_intermediate	0,0,0,2,0,0,1,0,0	test	ward_and_allport	0,0,0,2,0,0,1,3,0	89.0	21.0	0.448	0,0,0,0,0,0,1,2,3	to_hand	s144
172.291	0.114	0	PA_with_intermediate	0,0,0,2,0,0,1,3,0	test	ward_and_allport	0,0,0,2,0,0,1,3,0	82.0	21.0	0.114	0,0,0,0,0,0,1,2,3	to_board	s144
172.412	1.0	0	PA_with_intermediate	n/a	test	ward_and_allport	n/a	-1.0	21.0	n/a	n/a	feedback	s144
173.412	1.952	0	PA_with_intermediate	n/a	test	ward_and_allport	n/a	-1.0	21.0	n/a	n/a	ITI	s144
175.369	1.427	1	PA_with_intermediate	0,0,0,0,0,0,1,2,0	test	ward_and_allport	2,0,0,0,0,0,1,3,0	82.0	22.0	1.427	0,0,0,0,0,0,1,2,3	to_hand	s144
176.797	0.148	0	PA_with_intermediate	0,0,0,3,0,0,1,2,0	test	ward_and_allport	2,0,0,0,0,0,1,3,0	71.0	22.0	0.148	0,0,0,0,0,0,1,2,3	to_board	s144
176.951	0.125	0	PA_with_intermediate	0,0,0,3,0,0,1,0,0	test	ward_and_allport	2,0,0,0,0,0,1,3,0	82.0	22.0	0.125	0,0,0,0,0,0,1,2,3	to_hand	s144
177.077	0.194	0	PA_with_intermediate	2,0,0,3,0,0,1,0,0	test	ward_and_allport	2,0,0,0,0,0,1,3,0	89.0	22.0	0.194	0,0,0,0,0,0,1,2,3	to_board	s144
177.277	0.295	0	PA_with_intermediate	2,0,0,0,0,0,1,0,0	test	ward_and_allport	2,0,0,0,0,0,1,3,0	71.0	22.0	0.295	0,0,0,0,0,0,1,2,3	to_hand	s144
177.573	0.142	0	PA_with_intermediate	2,0,0,0,0,0,1,3,0	test	ward_and_allport	2,0,0,0,0,0,1,3,0	82.0	22.0	0.142	0,0,0,0,0,0,1,2,3	to_board	s144
177.726	1.0	0	PA_with_intermediate	n/a	test	ward_and_allport	n/a	-1.0	22.0	n/a	n/a	feedback	s144
178.726	1.136	0	PA_with_intermediate	n/a	test	ward_and_allport	n/a	-1.0	22.0	n/a	n/a	ITI	s144
179.868	0.955	1	PA_without_intermediate	0,0,0,1,2,0,0,0,0	test	ward_and_allport	1,0,0,0,0,0,3,2,0	71.0	23.0	0.955	0,0,0,1,2,3,0,0,0	to_hand	s144
180.823	0.134	0	PA_without_intermediate	0,0,0,1,2,0,3,0,0	test	ward_and_allport	1,0,0,0,0,0,3,2,0	82.0	23.0	0.134	0,0,0,1,2,3,0,0,0	to_board	s144
180.964	0.219	0	PA_without_intermediate	0,0,0,1,0,0,3,0,0	test	ward_and_allport	1,0,0,0,0,0,3,2,0	71.0	23.0	0.219	0,0,0,1,2,3,0,0,0	to_hand	s144
181.183	0.116	0	PA_without_intermediate	0,0,0,1,0,0,3,2,0	test	ward_and_allport	1,0,0,0,0,0,3,2,0	82.0	23.0	0.116	0,0,0,1,2,3,0,0,0	to_board	s144
181.304	0.319	0	PA_without_intermediate	0,0,0,0,0,0,3,2,0	test	ward_and_allport	1,0,0,0,0,0,3,2,0	71.0	23.0	0.319	0,0,0,1,2,3,0,0,0	to_hand	s144
181.625	0.091	0	PA_without_intermediate	1,0,0,0,0,0,3,2,0	test	ward_and_allport	1,0,0,0,0,0,3,2,0	89.0	23.0	0.091	0,0,0,1,2,3,0,0,0	to_board	s144
181.721	1.0	0	PA_without_intermediate	n/a	test	ward_and_allport	n/a	-1.0	23.0	n/a	n/a	feedback	s144
182.721	1.68	0	PA_without_intermediate	n/a	test	ward_and_allport	n/a	-1.0	23.0	n/a	n/a	ITI	s144
184.407	1.198	1	PA_without_intermediate	0,0,0,0,0,0,1,2,0	test	ward_and_allport	3,2,0,1,0,0,0,0,0	82.0	24.0	1.198	0,0,0,0,0,0,1,2,3	to_hand	s144
185.606	0.139	0	PA_without_intermediate	3,0,0,0,0,0,1,2,0	test	ward_and_allport	3,2,0,1,0,0,0,0,0	89.0	24.0	0.139	0,0,0,0,0,0,1,2,3	to_board	s144
185.751	0.228	0	PA_without_intermediate	3,0,0,0,0,0,1,0,0	test	ward_and_allport	3,2,0,1,0,0,0,0,0	82.0	24.0	0.228	0,0,0,0,0,0,1,2,3	to_hand	s144
185.98	0.081	0	PA_without_intermediate	3,2,0,0,0,0,1,0,0	test	ward_and_allport	3,2,0,1,0,0,0,0,0	89.0	24.0	0.081	0,0,0,0,0,0,1,2,3	to_board	s144
186.066	0.474	0	PA_without_intermediate	3,2,0,0,0,0,0,0,0	test	ward_and_allport	3,2,0,1,0,0,0,0,0	82.0	24.0	0.474	0,0,0,0,0,0,1,2,3	to_hand	s144
186.54	0.137	0	PA_without_intermediate	3,2,0,1,0,0,0,0,0	test	ward_and_allport	3,2,0,1,0,0,0,0,0	71.0	24.0	0.137	0,0,0,0,0,0,1,2,3	to_board	s144
186.686	1.0	0	PA_without_intermediate	n/a	test	ward_and_allport	n/a	-1.0	24.0	n/a	n/a	feedback	s144
187.686	2.088	0	PA_without_intermediate	n/a	test	ward_and_allport	n/a	-1.0	24.0	n/a	n/a	ITI	s144
189.778	1.739	1	PA_with_intermediate	1,2,0,0,0,0,0,0,0	test	ward_and_allport	1,0,0,2,3,0,0,0,0	89.0	25.0	1.739	1,2,3,0,0,0,0,0,0	to_hand	s144
191.518	0.134	0	PA_with_intermediate	1,2,0,0,0,0,3,0,0	test	ward_and_allport	1,0,0,2,3,0,0,0,0	82.0	25.0	0.134	1,2,3,0,0,0,0,0,0	to_board	s144
191.658	0.263	0	PA_with_intermediate	1,0,0,0,0,0,3,0,0	test	ward_and_allport	1,0,0,2,3,0,0,0,0	89.0	25.0	0.263	1,2,3,0,0,0,0,0,0	to_hand	s144
191.922	0.111	0	PA_with_intermediate	1,0,0,2,0,0,3,0,0	test	ward_and_allport	1,0,0,2,3,0,0,0,0	71.0	25.0	0.111	1,2,3,0,0,0,0,0,0	to_board	s144
192.039	0.25	0	PA_with_intermediate	1,0,0,2,0,0,0,0,0	test	ward_and_allport	1,0,0,2,3,0,0,0,0	82.0	25.0	0.25	1,2,3,0,0,0,0,0,0	to_hand	s144
192.29	0.112	0	PA_with_intermediate	1,0,0,2,3,0,0,0,0	test	ward_and_allport	1,0,0,2,3,0,0,0,0	71.0	25.0	0.112	1,2,3,0,0,0,0,0,0	to_board	s144
192.414	1.0	0	PA_with_intermediate	n/a	test	ward_and_allport	n/a	-1.0	25.0	n/a	n/a	feedback	s144
193.414	1.0	0	PA_with_intermediate	n/a	test	ward_and_allport	n/a	-1.0	25.0	n/a	n/a	ITI	s144
194.422	1.667	1	PA_without_intermediate	0,0,0,0,0,0,1,2,0	test	ward_and_allport	2,0,0,3,1,0,0,0,0	82.0	26.0	1.667	0,0,0,0,0,0,1,2,3	to_hand	s144
196.089	0.146	0	PA_without_intermediate	0,0,0,3,0,0,1,2,0	test	ward_and_allport	2,0,0,3,1,0,0,0,0	71.0	26.0	0.146	0,0,0,0,0,0,1,2,3	to_board	s144
196.241	0.262	0	PA_without_intermediate	0,0,0,3,0,0,1,0,0	test	ward_and_allport	2,0,0,3,1,0,0,0,0	82.0	26.0	0.262	0,0,0,0,0,0,1,2,3	to_hand	s144
196.504	0.12	0	PA_without_intermediate	2,0,0,3,0,0,1,0,0	test	ward_and_allport	2,0,0,3,1,0,0,0,0	89.0	26.0	0.12	0,0,0,0,0,0,1,2,3	to_board	s144
196.63	0.29	0	PA_without_intermediate	2,0,0,3,0,0,0,0,0	test	ward_and_allport	2,0,0,3,1,0,0,0,0	82.0	26.0	0.29	0,0,0,0,0,0,1,2,3	to_hand	s144
196.921	0.088	0	PA_without_intermediate	2,0,0,3,1,0,0,0,0	test	ward_and_allport	2,0,0,3,1,0,0,0,0	71.0	26.0	0.088	0,0,0,0,0,0,1,2,3	to_board	s144
197.016	1.0	0	PA_without_intermediate	n/a	test	ward_and_allport	n/a	-1.0	26.0	n/a	n/a	feedback	s144
198.016	1.0	0	PA_without_intermediate	n/a	test	ward_and_allport	n/a	-1.0	26.0	n/a	n/a	ITI	s144
199.021	1.185	1	PA_without_intermediate	0,0,0,1,2,0,0,0,0	test	ward_and_allport	3,1,0,0,0,0,2,0,0	71.0	27.0	1.185	0,0,0,1,2,3,0,0,0	to_hand	s144
200.207	0.107	0	PA_without_intermediate	3,0,0,1,2,0,0,0,0	test	ward_and_allport	3,1,0,0,0,0,2,0,0	89.0	27.0	0.107	0,0,0,1,2,3,0,0,0	to_board	s144
200.32	0.342	0	PA_without_intermediate	3,0,0,1,0,0,0,0,0	test	ward_and_allport	3,1,0,0,0,0,2,0,0	71.0	27.0	0.342	0,0,0,1,2,3,0,0,0	to_hand	s144
200.663	0.094	0	PA_without_intermediate	3,0,0,1,0,0,2,0,0	test	ward_and_allport	3,1,0,0,0,0,2,0,0	82.0	27.0	0.094	0,0,0,1,2,3,0,0,0	to_board	s144
200.763	0.396	0	PA_without_intermediate	3,0,0,0,0,0,2,0,0	test	ward_and_allport	3,1,0,0,0,0,2,0,0	71.0	27.0	0.396	0,0,0,1,2,3,0,0,0	to_hand	s144
201.16	0.08	0	PA_without_intermediate	3,1,0,0,0,0,2,0,0	test	ward_and_allport	3,1,0,0,0,0,2,0,0	89.0	27.0	0.08	0,0,0,1,2,3,0,0,0	to_board	s144
201.246	1.0	0	PA_without_intermediate	n/a	test	ward_and_allport	n/a	-1.0	27.0	n/a	n/a	feedback	s144
202.246	1.0	0	PA_without_intermediate	n/a	test	ward_and_allport	n/a	-1.0	27.0	n/a	n/a	ITI	s144
203.251	1.507	1	PA_with_intermediate	0,0,0,1,2,0,0,0,0	test	ward_and_allport	0,0,0,1,3,0,2,0,0	71.0	28.0	1.507	0,0,0,1,2,3,0,0,0	to_hand	s144
204.758	0.1	0	PA_with_intermediate	3,0,0,1,2,0,0,0,0	test	ward_and_allport	0,0,0,1,3,0,2,0,0	89.0	28.0	0.1	0,0,0,1,2,3,0,0,0	to_board	s144
204.863	0.17	0	PA_with_intermediate	3,0,0,1,0,0,0,0,0	test	ward_and_allport	0,0,0,1,3,0,2,0,0	71.0	28.0	0.17	0,0,0,1,2,3,0,0,0	to_hand	s144
205.035	0.1	0	PA_with_intermediate	3,0,0,1,0,0,2,0,0	test	ward_and_allport	0,0,0,1,3,0,2,0,0	82.0	28.0	0.1	0,0,0,1,2,3,0,0,0	to_board	s144
205.141	0.315	0	PA_with_intermediate	0,0,0,1,0,0,2,0,0	test	ward_and_allport	0,0,0,1,3,0,2,0,0	89.0	28.0	0.315	0,0,0,1,2,3,0,0,0	to_hand	s144
205.457	0.103	0	PA_with_intermediate	0,0,0,1,3,0,2,0,0	test	ward_and_allport	0,0,0,1,3,0,2,0,0	71.0	28.0	0.103	0,0,0,1,2,3,0,0,0	to_board	s144
205.566	1.0	0	PA_with_intermediate	n/a	test	ward_and_allport	n/a	-1.0	28.0	n/a	n/a	feedback	s144
206.566	1.544	0	PA_with_intermediate	n/a	test	ward_and_allport	n/a	-1.0	28.0	n/a	n/a	ITI	s144
208.114	2.159	1	PA_without_intermediate	1,2,0,0,0,0,0,0,0	test	ward_and_allport	0,0,0,2,0,0,3,1,0	89.0	29.0	2.159	1,2,3,0,0,0,0,0,0	to_hand	s144
210.274	0.083	0	PA_without_intermediate	1,2,0,0,0,0,3,0,0	test	ward_and_allport	0,0,0,2,0,0,3,1,0	82.0	29.0	0.083	1,2,3,0,0,0,0,0,0	to_board	s144
210.362	0.235	0	PA_without_intermediate	1,0,0,0,0,0,3,0,0	test	ward_and_allport	0,0,0,2,0,0,3,1,0	89.0	29.0	0.235	1,2,3,0,0,0,0,0,0	to_hand	s144
210.598	0.064	0	PA_without_intermediate	1,0,0,2,0,0,3,0,0	test	ward_and_allport	0,0,0,2,0,0,3,1,0	71.0	29.0	0.064	1,2,3,0,0,0,0,0,0	to_board	s144
210.67	0.59	0	PA_without_intermediate	0,0,0,2,0,0,3,0,0	test	ward_and_allport	0,0,0,2,0,0,3,1,0	89.0	29.0	0.59	1,2,3,0,0,0,0,0,0	to_hand	s144
211.261	0.196	0	PA_without_intermediate	0,0,0,2,0,0,3,1,0	test	ward_and_allport	0,0,0,2,0,0,3,1,0	82.0	29.0	0.196	1,2,3,0,0,0,0,0,0	to_board	s144
211.47	1.0	0	PA_without_intermediate	n/a	test	ward_and_allport	n/a	-1.0	29.0	n/a	n/a	feedback	s144
212.47	1.272	0	PA_without_intermediate	n/a	test	ward_and_allport	n/a	-1.0	29.0	n/a	n/a	ITI	s144
218.751	1.56	1	PA_with_intermediate	1,2,0,0,0,0,0,0,0	test	ward_and_allport	1,3,0,0,0,0,2,0,0	89.0	30.0	1.56	1,2,3,0,0,0,0,0,0	to_hand	s144
220.312	0.119	0	PA_with_intermediate	1,2,0,3,0,0,0,0,0	test	ward_and_allport	1,3,0,0,0,0,2,0,0	71.0	30.0	0.119	1,2,3,0,0,0,0,0,0	to_board	s144
220.44	0.173	0	PA_with_intermediate	1,0,0,3,0,0,0,0,0	test	ward_and_allport	1,3,0,0,0,0,2,0,0	89.0	30.0	0.173	1,2,3,0,0,0,0,0,0	to_hand	s144
220.613	0.111	0	PA_with_intermediate	1,0,0,3,0,0,2,0,0	test	ward_and_allport	1,3,0,0,0,0,2,0,0	82.0	30.0	0.111	1,2,3,0,0,0,0,0,0	to_board	s144
220.732	0.322	0	PA_with_intermediate	1,0,0,0,0,0,2,0,0	test	ward_and_allport	1,3,0,0,0,0,2,0,0	71.0	30.0	0.322	1,2,3,0,0,0,0,0,0	to_hand	s144
221.055	0.071	0	PA_with_intermediate	1,3,0,0,0,0,2,0,0	test	ward_and_allport	1,3,0,0,0,0,2,0,0	89.0	30.0	0.071	1,2,3,0,0,0,0,0,0	to_board	s144
221.136	1.0	0	PA_with_intermediate	n/a	test	ward_and_allport	n/a	-1.0	30.0	n/a	n/a	feedback	s144
222.136	3.04	0	PA_with_intermediate	n/a	test	ward_and_allport	n/a	-1.0	30.0	n/a	n/a	ITI	s144
225.182	2.421	1	PA_with_intermediate	0,0,0,1,2,0,0,0,0	test	ward_and_allport	0,0,0,1,0,0,2,3,0	71.0	31.0	2.421	0,0,0,1,2,3,0,0,0	to_hand	s144
227.604	0.261	0	PA_with_intermediate	0,0,0,1,2,0,3,0,0	test	ward_and_allport	0,0,0,1,0,0,2,3,0	82.0	31.0	0.261	0,0,0,1,2,3,0,0,0	to_board	s144
227.87	0.241	0	PA_with_intermediate	0,0,0,1,0,0,3,0,0	test	ward_and_allport	0,0,0,1,0,0,2,3,0	71.0	31.0	0.241	0,0,0,1,2,3,0,0,0	to_hand	s144
228.112	0.715	0	PA_with_intermediate	0,0,0,1,0,0,3,2,0	test	ward_and_allport	0,0,0,1,0,0,2,3,0	82.0	31.0	0.715	0,0,0,1,2,3,0,0,0	to_board	s144
228.835	0.378	0	PA_with_intermediate	0,0,0,0,0,0,3,2,0	test	ward_and_allport	0,0,0,1,0,0,2,3,0	71.0	31.0	0.378	0,0,0,1,2,3,0,0,0	to_hand	s144
229.214	0.113	0	PA_with_intermediate	1,0,0,0,0,0,3,2,0	test	ward_and_allport	0,0,0,1,0,0,2,3,0	89.0	31.0	0.113	0,0,0,1,2,3,0,0,0	to_board	s144
229.336	0.605	0	PA_with_intermediate	1,0,0,0,0,0,3,0,0	test	ward_and_allport	0,0,0,1,0,0,2,3,0	82.0	31.0	0.605	0,0,0,1,2,3,0,0,0	to_hand	s144
229.942	0.101	0	PA_with_intermediate	1,0,0,2,0,0,3,0,0	test	ward_and_allport	0,0,0,1,0,0,2,3,0	71.0	31.0	0.101	0,0,0,1,2,3,0,0,0	to_board	s144
230.052	1.742	0	PA_with_intermediate	1,0,0,2,0,0,0,0,0	test	ward_and_allport	0,0,0,1,0,0,2,3,0	82.0	31.0	1.742	0,0,0,1,2,3,0,0,0	to_hand	s144
231.795	0.155	0	PA_with_intermediate	1,3,0,2,0,0,0,0,0	test	ward_and_allport	0,0,0,1,0,0,2,3,0	89.0	31.0	0.155	0,0,0,1,2,3,0,0,0	to_board	s144
231.957	0.266	0	PA_with_intermediate	1,3,0,0,0,0,0,0,0	test	ward_and_allport	0,0,0,1,0,0,2,3,0	71.0	31.0	0.266	0,0,0,1,2,3,0,0,0	to_hand	s144
232.223	0.124	0	PA_with_intermediate	1,3,0,0,0,0,2,0,0	test	ward_and_allport	0,0,0,1,0,0,2,3,0	82.0	31.0	0.124	0,0,0,1,2,3,0,0,0	to_board	s144
232.353	0.407	0	PA_with_intermediate	1,0,0,0,0,0,2,0,0	test	ward_and_allport	0,0,0,1,0,0,2,3,0	89.0	31.0	0.407	0,0,0,1,2,3,0,0,0	to_hand	s144
232.761	0.099	0	PA_with_intermediate	1,0,0,0,0,0,2,3,0	test	ward_and_allport	0,0,0,1,0,0,2,3,0	82.0	31.0	0.099	0,0,0,1,2,3,0,0,0	to_board	s144
232.866	1.471	0	PA_with_intermediate	0,0,0,0,0,0,2,3,0	test	ward_and_allport	0,0,0,1,0,0,2,3,0	89.0	31.0	1.471	0,0,0,1,2,3,0,0,0	to_hand	s144
234.338	0.051	0	PA_with_intermediate	0,0,0,1,0,0,2,3,0	test	ward_and_allport	0,0,0,1,0,0,2,3,0	71.0	31.0	0.051	0,0,0,1,2,3,0,0,0	to_board	s144
234.398	1.0	0	PA_with_intermediate	n/a	test	ward_and_allport	n/a	-1.0	31.0	n/a	n/a	feedback	s144
235.398	1.272	0	PA_with_intermediate	n/a	test	ward_and_allport	n/a	-1.0	31.0	n/a	n/a	ITI	s144
236.676	2.611	1	PA_with_intermediate	0,0,0,1,2,0,0,0,0	test	ward_and_allport	0,0,0,1,0,0,2,3,0	71.0	32.0	2.611	0,0,0,1,2,3,0,0,0	to_hand	s144
239.288	0.107	0	PA_with_intermediate	3,0,0,1,2,0,0,0,0	test	ward_and_allport	0,0,0,1,0,0,2,3,0	89.0	32.0	0.107	0,0,0,1,2,3,0,0,0	to_board	s144
239.402	0.202	0	PA_with_intermediate	3,0,0,1,0,0,0,0,0	test	ward_and_allport	0,0,0,1,0,0,2,3,0	71.0	32.0	0.202	0,0,0,1,2,3,0,0,0	to_hand	s144
239.604	0.104	0	PA_with_intermediate	3,0,0,1,0,0,2,0,0	test	ward_and_allport	0,0,0,1,0,0,2,3,0	82.0	32.0	0.104	0,0,0,1,2,3,0,0,0	to_board	s144
239.715	0.193	0	PA_with_intermediate	0,0,0,1,0,0,2,0,0	test	ward_and_allport	0,0,0,1,0,0,2,3,0	89.0	32.0	0.193	0,0,0,1,2,3,0,0,0	to_hand	s144
239.909	0.1	0	PA_with_intermediate	0,0,0,1,0,0,2,3,0	test	ward_and_allport	0,0,0,1,0,0,2,3,0	82.0	32.0	0.1	0,0,0,1,2,3,0,0,0	to_board	s144
240.022	1.0	0	PA_with_intermediate	n/a	test	ward_and_allport	n/a	-1.0	32.0	n/a	n/a	feedback	s144
241.022	1.136	0	PA_with_intermediate	n/a	test	ward_and_allport	n/a	-1.0	32.0	n/a	n/a	ITI	s144
242.163	1.843	1	PA_with_intermediate	0,0,0,1,2,0,0,0,0	test	ward_and_allport	2,3,0,1,0,0,0,0,0	71.0	33.0	1.843	0,0,0,1,2,3,0,0,0	to_hand	s144
244.007	0.104	0	PA_with_intermediate	0,0,0,1,2,0,3,0,0	test	ward_and_allport	2,3,0,1,0,0,0,0,0	82.0	33.0	0.104	0,0,0,1,2,3,0,0,0	to_board	s144
244.118	0.143	0	PA_with_intermediate	0,0,0,1,0,0,3,0,0	test	ward_and_allport	2,3,0,1,0,0,0,0,0	71.0	33.0	0.143	0,0,0,1,2,3,0,0,0	to_hand	s144
244.261	0.121	0	PA_with_intermediate	2,0,0,1,0,0,3,0,0	test	ward_and_allport	2,3,0,1,0,0,0,0,0	89.0	33.0	0.121	0,0,0,1,2,3,0,0,0	to_board	s144
244.388	0.292	0	PA_with_intermediate	2,0,0,1,0,0,0,0,0	test	ward_and_allport	2,3,0,1,0,0,0,0,0	82.0	33.0	0.292	0,0,0,1,2,3,0,0,0	to_hand	s144
244.681	0.092	0	PA_with_intermediate	2,3,0,1,0,0,0,0,0	test	ward_and_allport	2,3,0,1,0,0,0,0,0	89.0	33.0	0.092	0,0,0,1,2,3,0,0,0	to_board	s144
244.782	1.0	0	PA_with_intermediate	n/a	test	ward_and_allport	n/a	-1.0	33.0	n/a	n/a	feedback	s144
245.782	1.0	0	PA_with_intermediate	n/a	test	ward_and_allport	n/a	-1.0	33.0	n/a	n/a	ITI	s144
246.787	1.434	1	PA_with_intermediate	0,0,0,1,2,0,0,0,0	test	ward_and_allport	2,0,0,1,3,0,0,0,0	71.0	34.0	1.434	0,0,0,1,2,3,0,0,0	to_hand	s144
248.223	0.114	0	PA_with_intermediate	0,0,0,1,2,0,3,0,0	test	ward_and_allport	2,0,0,1,3,0,0,0,0	82.0	34.0	0.114	0,0,0,1,2,3,0,0,0	to_board	s144
248.343	0.153	0	PA_with_intermediate	0,0,0,1,0,0,3,0,0	test	ward_and_allport	2,0,0,1,3,0,0,0,0	71.0	34.0	0.153	0,0,0,1,2,3,0,0,0	to_hand	s144
248.497	0.102	0	PA_with_intermediate	2,0,0,1,0,0,3,0,0	test	ward_and_allport	2,0,0,1,3,0,0,0,0	89.0	34.0	0.102	0,0,0,1,2,3,0,0,0	to_board	s144
248.605	0.106	0	PA_with_intermediate	2,0,0,1,0,0,0,0,0	test	ward_and_allport	2,0,0,1,3,0,0,0,0	82.0	34.0	0.106	0,0,0,1,2,3,0,0,0	to_hand	s144
248.712	0.072	0	PA_with_intermediate	2,0,0,1,3,0,0,0,0	test	ward_and_allport	2,0,0,1,3,0,0,0,0	71.0	34.0	0.072	0,0,0,1,2,3,0,0,0	to_board	s144
248.798	1.0	0	PA_with_intermediate	n/a	test	ward_and_allport	n/a	-1.0	34.0	n/a	n/a	feedback	s144
249.798	1.0	0	PA_with_intermediate	n/a	test	ward_and_allport	n/a	-1.0	34.0	n/a	n/a	ITI	s144
250.804	1.547	1	PA_without_intermediate	1,2,0,0,0,0,0,0,0	test	ward_and_allport	0,0,0,1,0,0,3,2,0	89.0	35.0	1.547	1,2,3,0,0,0,0,0,0	to_hand	s144
252.352	0.091	0	PA_without_intermediate	1,2,0,0,0,0,3,0,0	test	ward_and_allport	0,0,0,1,0,0,3,2,0	82.0	35.0	0.091	1,2,3,0,0,0,0,0,0	to_board	s144
252.449	0.105	0	PA_without_intermediate	1,0,0,0,0,0,3,0,0	test	ward_and_allport	0,0,0,1,0,0,3,2,0	89.0	35.0	0.105	1,2,3,0,0,0,0,0,0	to_hand	s144
252.555	0.099	0	PA_without_intermediate	1,0,0,0,0,0,3,2,0	test	ward_and_allport	0,0,0,1,0,0,3,2,0	82.0	35.0	0.099	1,2,3,0,0,0,0,0,0	to_board	s144
252.661	0.101	0	PA_without_intermediate	0,0,0,0,0,0,3,2,0	test	ward_and_allport	0,0,0,1,0,0,3,2,0	89.0	35.0	0.101	1,2,3,0,0,0,0,0,0	to_hand	s144
252.763	0.071	0	PA_without_intermediate	0,0,0,1,0,0,3,2,0	test	ward_and_allport	0,0,0,1,0,0,3,2,0	71.0	35.0	0.071	1,2,3,0,0,0,0,0,0	to_board	s144
252.843	1.0	0	PA_without_intermediate	n/a	test	ward_and_allport	n/a	-1.0	35.0	n/a	n/a	feedback	s144
253.843	1.408	0	PA_without_intermediate	n/a	test	ward_and_allport	n/a	-1.0	35.0	n/a	n/a	ITI	s144
255.256	1.359	1	PA_with_intermediate	0,0,0,0,0,0,1,2,0	test	ward_and_allport	0,0,0,2,0,0,1,3,0	82.0	36.0	1.359	0,0,0,0,0,0,1,2,3	to_hand	s144
256.616	0.054	0	PA_with_intermediate	3,0,0,0,0,0,1,2,0	test	ward_and_allport	0,0,0,2,0,0,1,3,0	89.0	36.0	0.054	0,0,0,0,0,0,1,2,3	to_board	s144
256.676	0.196	0	PA_with_intermediate	3,0,0,0,0,0,1,0,0	test	ward_and_allport	0,0,0,2,0,0,1,3,0	82.0	36.0	0.196	0,0,0,0,0,0,1,2,3	to_hand	s144
256.873	0.107	0	PA_with_intermediate	3,0,0,2,0,0,1,0,0	test	ward_and_allport	0,0,0,2,0,0,1,3,0	71.0	36.0	0.107	0,0,0,0,0,0,1,2,3	to_board	s144
256.986	0.212	0	PA_with_intermediate	0,0,0,2,0,0,1,0,0	test	ward_and_allport	0,0,0,2,0,0,1,3,0	89.0	36.0	0.212	0,0,0,0,0,0,1,2,3	to_hand	s144
257.199	0.074	0	PA_with_intermediate	0,0,0,2,0,0,1,3,0	test	ward_and_allport	0,0,0,2,0,0,1,3,0	82.0	36.0	0.074	0,0,0,0,0,0,1,2,3	to_board	s144
257.28	1.0	0	PA_with_intermediate	n/a	test	ward_and_allport	n/a	-1.0	36.0	n/a	n/a	feedback	s144
258.28	2.768	0	PA_with_intermediate	n/a	test	ward_and_allport	n/a	-1.0	36.0	n/a	n/a	ITI	s144
261.055	2.355	1	PA_with_intermediate	1,2,0,0,0,0,0,0,0	test	ward_and_allport	1,3,0,0,0,0,2,0,0	89.0	37.0	2.355	1,2,3,0,0,0,0,0,0	to_hand	s144
263.41	0.082	0	PA_with_intermediate	1,2,0,3,0,0,0,0,0	test	ward_and_allport	1,3,0,0,0,0,2,0,0	71.0	37.0	0.082	1,2,3,0,0,0,0,0,0	to_board	s144
263.498	0.115	0	PA_with_intermediate	1,0,0,3,0,0,0,0,0	test	ward_and_allport	1,3,0,0,0,0,2,0,0	89.0	37.0	0.115	1,2,3,0,0,0,0,0,0	to_hand	s144
263.614	0.098	0	PA_with_intermediate	1,0,0,3,0,0,2,0,0	test	ward_and_allport	1,3,0,0,0,0,2,0,0	82.0	37.0	0.098	1,2,3,0,0,0,0,0,0	to_board	s144
263.72	0.136	0	PA_with_intermediate	1,0,0,0,0,0,2,0,0	test	ward_and_allport	1,3,0,0,0,0,2,0,0	71.0	37.0	0.136	1,2,3,0,0,0,0,0,0	to_hand	s144
263.857	0.103	0	PA_with_intermediate	1,3,0,0,0,0,2,0,0	test	ward_and_allport	1,3,0,0,0,0,2,0,0	89.0	37.0	0.103	1,2,3,0,0,0,0,0,0	to_board	s144
263.973	1.0	0	PA_with_intermediate	n/a	test	ward_and_allport	n/a	-1.0	37.0	n/a	n/a	feedback	s144
264.973	1.68	0	PA_with_intermediate	n/a	test	ward_and_allport	n/a	-1.0	37.0	n/a	n/a	ITI	s144
266.659	1.6	1	PA_without_intermediate	0,0,0,1,2,0,0,0,0	test	ward_and_allport	2,0,0,0,0,0,3,1,0	71.0	38.0	1.6	0,0,0,1,2,3,0,0,0	to_hand	s144
268.26	0.099	0	PA_without_intermediate	0,0,0,1,2,0,3,0,0	test	ward_and_allport	2,0,0,0,0,0,3,1,0	82.0	38.0	0.099	0,0,0,1,2,3,0,0,0	to_board	s144
268.366	0.102	0	PA_without_intermediate	0,0,0,1,0,0,3,0,0	test	ward_and_allport	2,0,0,0,0,0,3,1,0	71.0	38.0	0.102	0,0,0,1,2,3,0,0,0	to_hand	s144
268.469	0.097	0	PA_without_intermediate	2,0,0,1,0,0,3,0,0	test	ward_and_allport	2,0,0,0,0,0,3,1,0	89.0	38.0	0.097	0,0,0,1,2,3,0,0,0	to_board	s144
268.572	0.125	0	PA_without_intermediate	2,0,0,0,0,0,3,0,0	test	ward_and_allport	2,0,0,0,0,0,3,1,0	71.0	38.0	0.125	0,0,0,1,2,3,0,0,0	to_hand	s144
268.698	0.109	0	PA_without_intermediate	2,0,0,0,0,0,3,1,0	test	ward_and_allport	2,0,0,0,0,0,3,1,0	82.0	38.0	0.109	0,0,0,1,2,3,0,0,0	to_board	s144
268.816	1.0	0	PA_without_intermediate	n/a	test	ward_and_allport	n/a	-1.0	38.0	n/a	n/a	feedback	s144
269.816	2.224	0	PA_without_intermediate	n/a	test	ward_and_allport	n/a	-1.0	38.0	n/a	n/a	ITI	s144
272.047	1.701	1	PA_without_intermediate	0,0,0,1,2,0,0,0,0	test	ward_and_allport	2,0,0,0,0,0,3,1,0	71.0	39.0	1.701	0,0,0,1,2,3,0,0,0	to_hand	s144
273.748	0.124	0	PA_without_intermediate	0,0,0,1,2,0,3,0,0	test	ward_and_allport	2,0,0,0,0,0,3,1,0	82.0	39.0	0.124	0,0,0,1,2,3,0,0,0	to_board	s144
273.878	0.108	0	PA_without_intermediate	0,0,0,1,0,0,3,0,0	test	ward_and_allport	2,0,0,0,0,0,3,1,0	71.0	39.0	0.108	0,0,0,1,2,3,0,0,0	to_hand	s144
273.987	0.117	0	PA_without_intermediate	2,0,0,1,0,0,3,0,0	test	ward_and_allport	2,0,0,0,0,0,3,1,0	89.0	39.0	0.117	0,0,0,1,2,3,0,0,0	to_board	s144
274.113	0.127	0	PA_without_intermediate	2,0,0,0,0,0,3,0,0	test	ward_and_allport	2,0,0,0,0,0,3,1,0	71.0	39.0	0.127	0,0,0,1,2,3,0,0,0	to_hand	s144
274.241	0.111	0	PA_without_intermediate	2,0,0,0,0,0,3,1,0	test	ward_and_allport	2,0,0,0,0,0,3,1,0	82.0	39.0	0.111	0,0,0,1,2,3,0,0,0	to_board	s144
274.364	1.0	0	PA_without_intermediate	n/a	test	ward_and_allport	n/a	-1.0	39.0	n/a	n/a	feedback	s144
275.364	2.36	0	PA_without_intermediate	n/a	test	ward_and_allport	n/a	-1.0	39.0	n/a	n/a	ITI	s144
277.73	1.631	1	PA_without_intermediate	1,2,0,0,0,0,0,0,0	test	ward_and_allport	0,0,0,2,0,0,3,1,0	89.0	40.0	1.631	1,2,3,0,0,0,0,0,0	to_hand	s144
279.362	0.096	0	PA_without_intermediate	1,2,0,0,0,0,3,0,0	test	ward_and_allport	0,0,0,2,0,0,3,1,0	82.0	40.0	0.096	1,2,3,0,0,0,0,0,0	to_board	s144
279.465	0.094	0	PA_without_intermediate	1,0,0,0,0,0,3,0,0	test	ward_and_allport	0,0,0,2,0,0,3,1,0	89.0	40.0	0.094	1,2,3,0,0,0,0,0,0	to_hand	s144
279.56	0.094	0	PA_without_intermediate	1,0,0,2,0,0,3,0,0	test	ward_and_allport	0,0,0,2,0,0,3,1,0	71.0	40.0	0.094	1,2,3,0,0,0,0,0,0	to_board	s144
279.663	0.092	0	PA_without_intermediate	0,0,0,2,0,0,3,0,0	test	ward_and_allport	0,0,0,2,0,0,3,1,0	89.0	40.0	0.092	1,2,3,0,0,0,0,0,0	to_hand	s144
279.756	0.106	0	PA_without_intermediate	0,0,0,2,0,0,3,1,0	test	ward_and_allport	0,0,0,2,0,0,3,1,0	82.0	40.0	0.106	1,2,3,0,0,0,0,0,0	to_board	s144
279.875	1.0	0	PA_without_intermediate	n/a	test	ward_and_allport	n/a	-1.0	40.0	n/a	n/a	feedback	s144
280.875	1.0	0	PA_without_intermediate	n/a	test	ward_and_allport	n/a	-1.0	40.0	n/a	n/a	ITI	s144
281.886	1.51	1	PA_without_intermediate	1,2,0,0,0,0,0,0,0	test	ward_and_allport	0,0,0,3,1,0,2,0,0	89.0	41.0	1.51	1,2,3,0,0,0,0,0,0	to_hand	s144
283.397	0.117	0	PA_without_intermediate	1,2,0,3,0,0,0,0,0	test	ward_and_allport	0,0,0,3,1,0,2,0,0	71.0	41.0	0.117	1,2,3,0,0,0,0,0,0	to_board	s144
283.52	0.109	0	PA_without_intermediate	1,0,0,3,0,0,0,0,0	test	ward_and_allport	0,0,0,3,1,0,2,0,0	89.0	41.0	0.109	1,2,3,0,0,0,0,0,0	to_hand	s144
283.63	0.098	0	PA_without_intermediate	1,0,0,3,0,0,2,0,0	test	ward_and_allport	0,0,0,3,1,0,2,0,0	82.0	41.0	0.098	1,2,3,0,0,0,0,0,0	to_board	s144
283.735	0.08	0	PA_without_intermediate	0,0,0,3,0,0,2,0,0	test	ward_and_allport	0,0,0,3,1,0,2,0,0	89.0	41.0	0.08	1,2,3,0,0,0,0,0,0	to_hand	s144
283.816	0.086	0	PA_without_intermediate	0,0,0,3,1,0,2,0,0	test	ward_and_allport	0,0,0,3,1,0,2,0,0	71.0	41.0	0.086	1,2,3,0,0,0,0,0,0	to_board	s144
283.91	1.0	0	PA_without_intermediate	n/a	test	ward_and_allport	n/a	-1.0	41.0	n/a	n/a	feedback	s144
284.91	1.408	0	PA_without_intermediate	n/a	test	ward_and_allport	n/a	-1.0	41.0	n/a	n/a	ITI	s144
286.324	1.207	1	PA_with_intermediate	0,0,0,0,0,0,1,2,0	test	ward_and_allport	0,0,0,2,3,0,1,0,0	82.0	42.0	1.207	0,0,0,0,0,0,1,2,3	to_hand	s144
287.532	0.125	0	PA_with_intermediate	3,0,0,0,0,0,1,2,0	test	ward_and_allport	0,0,0,2,3,0,1,0,0	89.0	42.0	0.125	0,0,0,0,0,0,1,2,3	to_board	s144
287.663	0.17	0	PA_with_intermediate	3,0,0,0,0,0,1,0,0	test	ward_and_allport	0,0,0,2,3,0,1,0,0	82.0	42.0	0.17	0,0,0,0,0,0,1,2,3	to_hand	s144
287.834	0.073	0	PA_with_intermediate	3,0,0,2,0,0,1,0,0	test	ward_and_allport	0,0,0,2,3,0,1,0,0	71.0	42.0	0.073	0,0,0,0,0,0,1,2,3	to_board	s144
287.914	0.18	0	PA_with_intermediate	0,0,0,2,0,0,1,0,0	test	ward_and_allport	0,0,0,2,3,0,1,0,0	89.0	42.0	0.18	0,0,0,0,0,0,1,2,3	to_hand	s144
288.095	0.154	0	PA_with_intermediate	0,0,0,2,3,0,1,0,0	test	ward_and_allport	0,0,0,2,3,0,1,0,0	71.0	42.0	0.154	0,0,0,0,0,0,1,2,3	to_board	s144
288.256	1.0	0	PA_with_intermediate	n/a	test	ward_and_allport	n/a	-1.0	42.0	n/a	n/a	feedback	s144
289.256	1.136	0	PA_with_intermediate	n/a	test	ward_and_allport	n/a	-1.0	42.0	n/a	n/a	ITI	s144
290.4	1.187	1	PA_without_intermediate	0,0,0,1,2,0,0,0,0	test	ward_and_allport	3,2,0,0,0,0,1,0,0	71.0	43.0	1.187	0,0,0,1,2,3,0,0,0	to_hand	s144
291.587	0.098	0	PA_without_intermediate	3,0,0,1,2,0,0,0,0	test	ward_and_allport	3,2,0,0,0,0,1,0,0	89.0	43.0	0.098	0,0,0,1,2,3,0,0,0	to_board	s144
291.695	0.094	0	PA_without_intermediate	3,0,0,1,0,0,0,0,0	test	ward_and_allport	3,2,0,0,0,0,1,0,0	71.0	43.0	0.094	0,0,0,1,2,3,0,0,0	to_hand	s144
291.79	0.086	0	PA_without_intermediate	3,2,0,1,0,0,0,0,0	test	ward_and_allport	3,2,0,0,0,0,1,0,0	89.0	43.0	0.086	0,0,0,1,2,3,0,0,0	to_board	s144
291.883	0.143	0	PA_without_intermediate	3,2,0,0,0,0,0,0,0	test	ward_and_allport	3,2,0,0,0,0,1,0,0	71.0	43.0	0.143	0,0,0,1,2,3,0,0,0	to_hand	s144
292.029	0.102	0	PA_without_intermediate	3,2,0,0,0,0,1,0,0	test	ward_and_allport	3,2,0,0,0,0,1,0,0	82.0	43.0	0.102	0,0,0,1,2,3,0,0,0	to_board	s144
292.144	1.0	0	PA_without_intermediate	n/a	test	ward_and_allport	n/a	-1.0	43.0	n/a	n/a	feedback	s144
293.144	4.128	0	PA_without_intermediate	n/a	test	ward_and_allport	n/a	-1.0	43.0	n/a	n/a	ITI	s144
297.279	1.38	1	PA_without_intermediate	0,0,0,1,2,0,0,0,0	test	ward_and_allport	3,1,0,0,0,0,2,0,0	71.0	44.0	1.38	0,0,0,1,2,3,0,0,0	to_hand	s144
298.66	0.081	0	PA_without_intermediate	3,0,0,1,2,0,0,0,0	test	ward_and_allport	3,1,0,0,0,0,2,0,0	89.0	44.0	0.081	0,0,0,1,2,3,0,0,0	to_board	s144
298.754	0.114	0	PA_without_intermediate	3,0,0,1,0,0,0,0,0	test	ward_and_allport	3,1,0,0,0,0,2,0,0	71.0	44.0	0.114	0,0,0,1,2,3,0,0,0	to_hand	s144
298.869	0.129	0	PA_without_intermediate	3,0,0,1,0,0,2,0,0	test	ward_and_allport	3,1,0,0,0,0,2,0,0	82.0	44.0	0.129	0,0,0,1,2,3,0,0,0	to_board	s144
299.012	0.09	0	PA_without_intermediate	3,0,0,0,0,0,2,0,0	test	ward_and_allport	3,1,0,0,0,0,2,0,0	71.0	44.0	0.09	0,0,0,1,2,3,0,0,0	to_hand	s144
299.103	0.09	0	PA_without_intermediate	3,1,0,0,0,0,2,0,0	test	ward_and_allport	3,1,0,0,0,0,2,0,0	89.0	44.0	0.09	0,0,0,1,2,3,0,0,0	to_board	s144
299.211	1.0	0	PA_without_intermediate	n/a	test	ward_and_allport	n/a	-1.0	44.0	n/a	n/a	feedback	s144
300.211	1.136	0	PA_without_intermediate	n/a	test	ward_and_allport	n/a	-1.0	44.0	n/a	n/a	ITI	s144
306.362	1.825	1	PA_without_intermediate	0,0,0,0,0,0,1,2,0	test	ward_and_allport	1,0,0,3,2,0,0,0,0	82.0	45.0	1.825	0,0,0,0,0,0,1,2,3	to_hand	s144
308.188	0.159	0	PA_without_intermediate	0,0,0,3,0,0,1,2,0	test	ward_and_allport	1,0,0,3,2,0,0,0,0	71.0	45.0	0.159	0,0,0,0,0,0,1,2,3	to_board	s144
308.364	0.786	0	PA_without_intermediate	0,0,0,3,0,0,1,0,0	test	ward_and_allport	1,0,0,3,2,0,0,0,0	82.0	45.0	0.786	0,0,0,0,0,0,1,2,3	to_hand	s144
309.15	0.144	0	PA_without_intermediate	0,0,0,3,2,0,1,0,0	test	ward_and_allport	1,0,0,3,2,0,0,0,0	71.0	45.0	0.144	0,0,0,0,0,0,1,2,3	to_board	s144
309.309	0.276	0	PA_without_intermediate	0,0,0,3,2,0,0,0,0	test	ward_and_allport	1,0,0,3,2,0,0,0,0	82.0	45.0	0.276	0,0,0,0,0,0,1,2,3	to_hand	s144
309.586	0.1	0	PA_without_intermediate	1,0,0,3,2,0,0,0,0	test	ward_and_allport	1,0,0,3,2,0,0,0,0	89.0	45.0	0.1	0,0,0,0,0,0,1,2,3	to_board	s144
309.704	1.0	0	PA_without_intermediate	n/a	test	ward_and_allport	n/a	-1.0	45.0	n/a	n/a	feedback	s144
310.704	4.264	0	PA_without_intermediate	n/a	test	ward_and_allport	n/a	-1.0	45.0	n/a	n/a	ITI	s144
314.975	1.247	1	PA_with_intermediate	0,0,0,0,0,0,1,2,0	test	ward_and_allport	2,3,0,0,0,0,1,0,0	82.0	46.0	1.247	0,0,0,0,0,0,1,2,3	to_hand	s144
316.223	0.095	0	PA_with_intermediate	0,0,0,3,0,0,1,2,0	test	ward_and_allport	2,3,0,0,0,0,1,0,0	71.0	46.0	0.095	0,0,0,0,0,0,1,2,3	to_board	s144
316.329	0.122	0	PA_with_intermediate	0,0,0,3,0,0,1,0,0	test	ward_and_allport	2,3,0,0,0,0,1,0,0	82.0	46.0	0.122	0,0,0,0,0,0,1,2,3	to_hand	s144
316.452	0.091	0	PA_with_intermediate	2,0,0,3,0,0,1,0,0	test	ward_and_allport	2,3,0,0,0,0,1,0,0	89.0	46.0	0.091	0,0,0,0,0,0,1,2,3	to_board	s144
316.553	0.117	0	PA_with_intermediate	2,0,0,0,0,0,1,0,0	test	ward_and_allport	2,3,0,0,0,0,1,0,0	71.0	46.0	0.117	0,0,0,0,0,0,1,2,3	to_hand	s144
316.672	0.668	0	PA_with_intermediate	2,3,0,0,0,0,1,0,0	test	ward_and_allport	2,3,0,0,0,0,1,0,0	89.0	46.0	0.668	0,0,0,0,0,0,1,2,3	to_board	s144
317.355	1.0	0	PA_with_intermediate	n/a	test	ward_and_allport	n/a	-1.0	46.0	n/a	n/a	feedback	s144
318.355	3.04	0	PA_with_intermediate	n/a	test	ward_and_allport	n/a	-1.0	46.0	n/a	n/a	ITI	s144
321.406	1.592	1	PA_with_intermediate	0,0,0,1,2,0,0,0,0	test	ward_and_allport	2,3,0,1,0,0,0,0,0	71.0	47.0	1.592	0,0,0,1,2,3,0,0,0	to_hand	s144
322.999	0.12	0	PA_with_intermediate	0,0,0,1,2,0,3,0,0	test	ward_and_allport	2,3,0,1,0,0,0,0,0	82.0	47.0	0.12	0,0,0,1,2,3,0,0,0	to_board	s144
323.129	0.091	0	PA_with_intermediate	0,0,0,1,0,0,3,0,0	test	ward_and_allport	2,3,0,1,0,0,0,0,0	71.0	47.0	0.091	0,0,0,1,2,3,0,0,0	to_hand	s144
323.222	0.093	0	PA_with_intermediate	2,0,0,1,0,0,3,0,0	test	ward_and_allport	2,3,0,1,0,0,0,0,0	89.0	47.0	0.093	0,0,0,1,2,3,0,0,0	to_board	s144
323.324	0.337	0	PA_with_intermediate	2,0,0,1,0,0,0,0,0	test	ward_and_allport	2,3,0,1,0,0,0,0,0	82.0	47.0	0.337	0,0,0,1,2,3,0,0,0	to_hand	s144
323.661	0.061	0	PA_with_intermediate	2,3,0,1,0,0,0,0,0	test	ward_and_allport	2,3,0,1,0,0,0,0,0	89.0	47.0	0.061	0,0,0,1,2,3,0,0,0	to_board	s144
323.733	1.0	0	PA_with_intermediate	n/a	test	ward_and_allport	n/a	-1.0	47.0	n/a	n/a	feedback	s144
324.733	1.136	0	PA_with_intermediate	n/a	test	ward_and_allport	n/a	-1.0	47.0	n/a	n/a	ITI	s144
n/a	n/a	0	n/a	n/a	n/a	n/a	n/a	n/a	n/a	n/a	n/a	ITI	n/a
