onset	duration	planning	condition	current_position	exp_stage	experiment_exp_id	goal_state	key_press	problem_id	response_time	start_state	trial_id	worker_id
-56.112	0.0	0	n/a	n/a	n/a	ward_and_allport	n/a	32.0	n/a	20.658	n/a	instructions	s585
3.014	5.424	1	UA_with_intermediate	1,0,0,2,0,0,0,0,0	practice	ward_and_allport	1,2,3,0,0,0,0,0,0	71.0	0.0	5.424	1,0,0,2,3,0,0,0,0	to_hand	s585
8.44	1.047	0	UA_with_intermediate	1,0,0,2,0,0,3,0,0	practice	ward_and_allport	1,2,3,0,0,0,0,0,0	82.0	0.0	1.047	1,0,0,2,3,0,0,0,0	to_board	s585
9.489	1.088	0	UA_with_intermediate	1,0,0,0,0,0,3,0,0	practice	ward_and_allport	1,2,3,0,0,0,0,0,0	71.0	0.0	1.088	1,0,0,2,3,0,0,0,0	to_hand	s585
10.577	0.744	0	UA_with_intermediate	1,2,0,0,0,0,3,0,0	practice	ward_and_allport	1,2,3,0,0,0,0,0,0	89.0	0.0	0.744	1,0,0,2,3,0,0,0,0	to_board	s585
11.324	1.334	0	UA_with_intermediate	1,2,0,0,0,0,0,0,0	practice	ward_and_allport	1,2,3,0,0,0,0,0,0	82.0	0.0	1.334	1,0,0,2,3,0,0,0,0	to_hand	s585
12.659	0.574	0	UA_with_intermediate	1,2,3,0,0,0,0,0,0	practice	ward_and_allport	1,2,3,0,0,0,0,0,0	89.0	0.0	0.574	1,0,0,2,3,0,0,0,0	to_board	s585
13.238	1.0	0	UA_with_intermediate	n/a	practice	ward_and_allport	n/a	-1.0	0.0	n/a	n/a	feedback	s585
15.741	2.231	1	UA_with_intermediate	1,0,0,3,0,0,0,0,0	practice	ward_and_allport	1,3,2,0,0,0,0,0,0	89.0	1.0	2.231	1,2,0,3,0,0,0,0,0	to_hand	s585
17.974	0.531	0	UA_with_intermediate	1,0,0,3,0,0,2,0,0	practice	ward_and_allport	1,3,2,0,0,0,0,0,0	82.0	1.0	0.531	1,2,0,3,0,0,0,0,0	to_board	s585
18.508	0.781	0	UA_with_intermediate	1,0,0,0,0,0,2,0,0	practice	ward_and_allport	1,3,2,0,0,0,0,0,0	71.0	1.0	0.781	1,2,0,3,0,0,0,0,0	to_hand	s585
19.291	0.437	0	UA_with_intermediate	1,3,0,0,0,0,2,0,0	practice	ward_and_allport	1,3,2,0,0,0,0,0,0	89.0	1.0	0.437	1,2,0,3,0,0,0,0,0	to_board	s585
19.73	0.807	0	UA_with_intermediate	1,3,0,0,0,0,0,0,0	practice	ward_and_allport	1,3,2,0,0,0,0,0,0	82.0	1.0	0.807	1,2,0,3,0,0,0,0,0	to_hand	s585
20.538	0.432	0	UA_with_intermediate	1,3,2,0,0,0,0,0,0	practice	ward_and_allport	1,3,2,0,0,0,0,0,0	89.0	1.0	0.432	1,2,0,3,0,0,0,0,0	to_board	s585
20.973	1.0	0	UA_with_intermediate	n/a	practice	ward_and_allport	n/a	-1.0	1.0	n/a	n/a	feedback	s585
21.973	1.1	0	UA_with_intermediate	n/a	practice	ward_and_allport	n/a	-1.0	1.0	n/a	n/a	ITI	s585
23.075	2.47	1	UA_without_intermediate	0,0,0,1,2,0,0,0,0	practice	ward_and_allport	3,2,1,0,0,0,0,0,0	82.0	2.0	2.47	0,0,0,1,2,0,3,0,0	to_hand	s585
25.547	0.45	0	UA_without_intermediate	3,0,0,1,2,0,0,0,0	practice	ward_and_allport	3,2,1,0,0,0,0,0,0	89.0	2.0	0.45	0,0,0,1,2,0,3,0,0	to_board	s585
26.0	2.058	0	UA_without_intermediate	3,0,0,1,0,0,0,0,0	practice	ward_and_allport	3,2,1,0,0,0,0,0,0	71.0	2.0	2.058	0,0,0,1,2,0,3,0,0	to_hand	s585
28.06	0.695	0	UA_without_intermediate	3,0,0,1,0,0,2,0,0	practice	ward_and_allport	3,2,1,0,0,0,0,0,0	82.0	2.0	0.695	0,0,0,1,2,0,3,0,0	to_board	s585
28.758	1.456	0	UA_without_intermediate	3,0,0,1,0,0,0,0,0	practice	ward_and_allport	3,2,1,0,0,0,0,0,0	82.0	2.0	1.456	0,0,0,1,2,0,3,0,0	to_hand	s585
30.215	0.466	0	UA_without_intermediate	3,2,0,1,0,0,0,0,0	practice	ward_and_allport	3,2,1,0,0,0,0,0,0	89.0	2.0	0.466	0,0,0,1,2,0,3,0,0	to_board	s585
30.683	0.476	0	UA_without_intermediate	3,2,0,0,0,0,0,0,0	practice	ward_and_allport	3,2,1,0,0,0,0,0,0	71.0	2.0	0.476	0,0,0,1,2,0,3,0,0	to_hand	s585
31.16	0.488	0	UA_without_intermediate	3,2,1,0,0,0,0,0,0	practice	ward_and_allport	3,2,1,0,0,0,0,0,0	89.0	2.0	0.488	0,0,0,1,2,0,3,0,0	to_board	s585
31.651	1.0	0	UA_without_intermediate	n/a	practice	ward_and_allport	n/a	-1.0	2.0	n/a	n/a	feedback	s585
32.651	1.2	0	UA_without_intermediate	n/a	practice	ward_and_allport	n/a	-1.0	2.0	n/a	n/a	ITI	s585
33.853	2.575	1	UA_without_intermediate	0,0,0,1,0,0,3,0,0	practice	ward_and_allport	2,3,1,0,0,0,0,0,0	71.0	3.0	2.575	0,0,0,1,2,0,3,0,0	to_hand	s585
36.43	0.35	0	UA_without_intermediate	2,0,0,1,0,0,3,0,0	practice	ward_and_allport	2,3,1,0,0,0,0,0,0	89.0	3.0	0.35	0,0,0,1,2,0,3,0,0	to_board	s585
36.783	1.434	0	UA_without_intermediate	2,0,0,1,0,0,0,0,0	practice	ward_and_allport	2,3,1,0,0,0,0,0,0	82.0	3.0	1.434	0,0,0,1,2,0,3,0,0	to_hand	s585
38.218	0.428	0	UA_without_intermediate	2,3,0,1,0,0,0,0,0	practice	ward_and_allport	2,3,1,0,0,0,0,0,0	89.0	3.0	0.428	0,0,0,1,2,0,3,0,0	to_board	s585
38.647	0.599	0	UA_without_intermediate	2,3,0,0,0,0,0,0,0	practice	ward_and_allport	2,3,1,0,0,0,0,0,0	71.0	3.0	0.599	0,0,0,1,2,0,3,0,0	to_hand	s585
39.247	0.347	0	UA_without_intermediate	2,3,1,0,0,0,0,0,0	practice	ward_and_allport	2,3,1,0,0,0,0,0,0	89.0	3.0	0.347	0,0,0,1,2,0,3,0,0	to_board	s585
39.6	1.0	0	UA_without_intermediate	n/a	practice	ward_and_allport	n/a	-1.0	3.0	n/a	n/a	feedback	s585
40.6	1.0	0	UA_without_intermediate	n/a	practice	ward_and_allport	n/a	-1.0	3.0	n/a	n/a	ITI	s585
43.612	5.074	1	PA_with_intermediate	1,2,0,0,0,0,0,0,0	test	ward_and_allport	1,0,0,2,3,0,0,0,0	89.0	0.0	5.074	1,2,3,0,0,0,0,0,0	to_hand	s585
48.687	1.319	0	PA_with_intermediate	1,2,0,0,0,0,3,0,0	test	ward_and_allport	1,0,0,2,3,0,0,0,0	82.0	0.0	1.319	1,2,3,0,0,0,0,0,0	to_board	s585
50.008	1.383	0	PA_with_intermediate	1,0,0,0,0,0,3,0,0	test	ward_and_allport	1,0,0,2,3,0,0,0,0	89.0	0.0	1.383	1,2,3,0,0,0,0,0,0	to_hand	s585
51.393	1.106	0	PA_with_intermediate	1,0,0,2,0,0,3,0,0	test	ward_and_allport	1,0,0,2,3,0,0,0,0	71.0	0.0	1.106	1,2,3,0,0,0,0,0,0	to_board	s585
52.502	0.599	0	PA_with_intermediate	1,0,0,2,0,0,0,0,0	test	ward_and_allport	1,0,0,2,3,0,0,0,0	82.0	0.0	0.599	1,2,3,0,0,0,0,0,0	to_hand	s585
53.103	0.379	0	PA_with_intermediate	1,0,0,2,3,0,0,0,0	test	ward_and_allport	1,0,0,2,3,0,0,0,0	71.0	0.0	0.379	1,2,3,0,0,0,0,0,0	to_board	s585
53.486	1.0	0	PA_with_intermediate	n/a	test	ward_and_allport	n/a	-1.0	0.0	n/a	n/a	feedback	s585
54.486	1.408	0	PA_with_intermediate	n/a	test	ward_and_allport	n/a	-1.0	0.0	n/a	n/a	ITI	s585
55.896	4.431	1	PA_without_intermediate	0,0,0,0,0,0,1,2,0	test	ward_and_allport	1,0,0,3,2,0,0,0,0	82.0	1.0	4.431	0,0,0,0,0,0,1,2,3	to_hand	s585
60.328	0.673	0	PA_without_intermediate	0,0,0,3,0,0,1,2,0	test	ward_and_allport	1,0,0,3,2,0,0,0,0	71.0	1.0	0.673	0,0,0,0,0,0,1,2,3	to_board	s585
61.004	1.473	0	PA_without_intermediate	0,0,0,3,0,0,1,0,0	test	ward_and_allport	1,0,0,3,2,0,0,0,0	82.0	1.0	1.473	0,0,0,0,0,0,1,2,3	to_hand	s585
62.478	2.08	0	PA_without_intermediate	0,0,0,3,2,0,1,0,0	test	ward_and_allport	1,0,0,3,2,0,0,0,0	71.0	1.0	2.08	0,0,0,0,0,0,1,2,3	to_board	s585
64.561	0.548	0	PA_without_intermediate	0,0,0,3,2,0,0,0,0	test	ward_and_allport	1,0,0,3,2,0,0,0,0	82.0	1.0	0.548	0,0,0,0,0,0,1,2,3	to_hand	s585
65.11	0.557	0	PA_without_intermediate	1,0,0,3,2,0,0,0,0	test	ward_and_allport	1,0,0,3,2,0,0,0,0	89.0	1.0	0.557	0,0,0,0,0,0,1,2,3	to_board	s585
65.672	1.0	0	PA_without_intermediate	n/a	test	ward_and_allport	n/a	-1.0	1.0	n/a	n/a	feedback	s585
66.672	1.68	0	PA_without_intermediate	n/a	test	ward_and_allport	n/a	-1.0	1.0	n/a	n/a	ITI	s585
68.355	3.008	1	PA_with_intermediate	0,0,0,1,2,0,0,0,0	test	ward_and_allport	2,3,0,1,0,0,0,0,0	71.0	2.0	3.008	0,0,0,1,2,3,0,0,0	to_hand	s585
71.365	1.408	0	PA_with_intermediate	0,0,0,1,2,0,3,0,0	test	ward_and_allport	2,3,0,1,0,0,0,0,0	82.0	2.0	1.408	0,0,0,1,2,3,0,0,0	to_board	s585
72.776	0.523	0	PA_with_intermediate	0,0,0,1,0,0,3,0,0	test	ward_and_allport	2,3,0,1,0,0,0,0,0	71.0	2.0	0.523	0,0,0,1,2,3,0,0,0	to_hand	s585
73.301	0.489	0	PA_with_intermediate	2,0,0,1,0,0,3,0,0	test	ward_and_allport	2,3,0,1,0,0,0,0,0	89.0	2.0	0.489	0,0,0,1,2,3,0,0,0	to_board	s585
73.793	0.429	0	PA_with_intermediate	2,0,0,1,0,0,0,0,0	test	ward_and_allport	2,3,0,1,0,0,0,0,0	82.0	2.0	0.429	0,0,0,1,2,3,0,0,0	to_hand	s585
74.223	0.68	0	PA_with_intermediate	2,3,0,1,0,0,0,0,0	test	ward_and_allport	2,3,0,1,0,0,0,0,0	89.0	2.0	0.68	0,0,0,1,2,3,0,0,0	to_board	s585
74.909	1.0	0	PA_with_intermediate	n/a	test	ward_and_allport	n/a	-1.0	2.0	n/a	n/a	feedback	s585
75.909	3.72	0	PA_with_intermediate	n/a	test	ward_and_allport	n/a	-1.0	2.0	n/a	n/a	ITI	s585
79.632	3.377	1	PA_without_intermediate	1,2,0,0,0,0,0,0,0	test	ward_and_allport	0,0,0,3,1,0,2,0,0	89.0	3.0	3.377	1,2,3,0,0,0,0,0,0	to_hand	s585
83.01	1.128	0	PA_without_intermediate	1,2,0,3,0,0,0,0,0	test	ward_and_allport	0,0,0,3,1,0,2,0,0	71.0	3.0	1.128	1,2,3,0,0,0,0,0,0	to_board	s585
84.14	1.23	0	PA_without_intermediate	1,0,0,3,0,0,0,0,0	test	ward_and_allport	0,0,0,3,1,0,2,0,0	89.0	3.0	1.23	1,2,3,0,0,0,0,0,0	to_hand	s585
85.372	0.414	0	PA_without_intermediate	1,0,0,3,0,0,2,0,0	test	ward_and_allport	0,0,0,3,1,0,2,0,0	82.0	3.0	0.414	1,2,3,0,0,0,0,0,0	to_board	s585
85.789	0.447	0	PA_without_intermediate	0,0,0,3,0,0,2,0,0	test	ward_and_allport	0,0,0,3,1,0,2,0,0	89.0	3.0	0.447	1,2,3,0,0,0,0,0,0	to_hand	s585
86.237	0.58	0	PA_without_intermediate	0,0,0,3,1,0,2,0,0	test	ward_and_allport	0,0,0,3,1,0,2,0,0	71.0	3.0	0.58	1,2,3,0,0,0,0,0,0	to_board	s585
86.824	1.0	0	PA_without_intermediate	n/a	test	ward_and_allport	n/a	-1.0	3.0	n/a	n/a	feedback	s585
87.824	2.224	0	PA_without_intermediate	n/a	test	ward_and_allport	n/a	-1.0	3.0	n/a	n/a	ITI	s585
90.051	2.236	1	PA_without_intermediate	1,2,0,0,0,0,0,0,0	test	ward_and_allport	0,0,0,1,0,0,3,2,0	89.0	4.0	2.236	1,2,3,0,0,0,0,0,0	to_hand	s585
92.288	1.402	0	PA_without_intermediate	1,2,0,0,0,0,3,0,0	test	ward_and_allport	0,0,0,1,0,0,3,2,0	82.0	4.0	1.402	1,2,3,0,0,0,0,0,0	to_board	s585
93.693	0.61	0	PA_without_intermediate	1,0,0,0,0,0,3,0,0	test	ward_and_allport	0,0,0,1,0,0,3,2,0	89.0	4.0	0.61	1,2,3,0,0,0,0,0,0	to_hand	s585
94.304	0.506	0	PA_without_intermediate	1,0,0,0,0,0,3,2,0	test	ward_and_allport	0,0,0,1,0,0,3,2,0	82.0	4.0	0.506	1,2,3,0,0,0,0,0,0	to_board	s585
94.813	0.849	0	PA_without_intermediate	0,0,0,0,0,0,3,2,0	test	ward_and_allport	0,0,0,1,0,0,3,2,0	89.0	4.0	0.849	1,2,3,0,0,0,0,0,0	to_hand	s585
95.663	0.57	0	PA_without_intermediate	0,0,0,1,0,0,3,2,0	test	ward_and_allport	0,0,0,1,0,0,3,2,0	71.0	4.0	0.57	1,2,3,0,0,0,0,0,0	to_board	s585
96.238	1.0	0	PA_without_intermediate	n/a	test	ward_and_allport	n/a	-1.0	4.0	n/a	n/a	feedback	s585
97.238	1.272	0	PA_without_intermediate	n/a	test	ward_and_allport	n/a	-1.0	4.0	n/a	n/a	ITI	s585
98.513	1.946	1	PA_with_intermediate	0,0,0,1,2,0,0,0,0	test	ward_and_allport	0,0,0,1,3,0,2,0,0	71.0	5.0	1.946	0,0,0,1,2,3,0,0,0	to_hand	s585
100.46	2.35	0	PA_with_intermediate	3,0,0,1,2,0,0,0,0	test	ward_and_allport	0,0,0,1,3,0,2,0,0	89.0	5.0	2.35	0,0,0,1,2,3,0,0,0	to_board	s585
102.814	1.009	0	PA_with_intermediate	3,0,0,1,0,0,0,0,0	test	ward_and_allport	0,0,0,1,3,0,2,0,0	71.0	5.0	1.009	0,0,0,1,2,3,0,0,0	to_hand	s585
103.825	0.744	0	PA_with_intermediate	3,0,0,1,0,0,2,0,0	test	ward_and_allport	0,0,0,1,3,0,2,0,0	82.0	5.0	0.744	0,0,0,1,2,3,0,0,0	to_board	s585
104.573	1.552	0	PA_with_intermediate	0,0,0,1,0,0,2,0,0	test	ward_and_allport	0,0,0,1,3,0,2,0,0	89.0	5.0	1.552	0,0,0,1,2,3,0,0,0	to_hand	s585
106.127	0.71	0	PA_with_intermediate	0,0,0,1,3,0,2,0,0	test	ward_and_allport	0,0,0,1,3,0,2,0,0	71.0	5.0	0.71	0,0,0,1,2,3,0,0,0	to_board	s585
106.846	1.0	0	PA_with_intermediate	n/a	test	ward_and_allport	n/a	-1.0	5.0	n/a	n/a	feedback	s585
107.846	2.632	0	PA_with_intermediate	n/a	test	ward_and_allport	n/a	-1.0	5.0	n/a	n/a	ITI	s585
110.48	2.255	1	PA_without_intermediate	0,0,0,1,2,0,0,0,0	test	ward_and_allport	2,0,0,0,0,0,3,1,0	71.0	6.0	2.255	0,0,0,1,2,3,0,0,0	to_hand	s585
112.737	0.747	0	PA_without_intermediate	0,0,0,1,2,0,3,0,0	test	ward_and_allport	2,0,0,0,0,0,3,1,0	82.0	6.0	0.747	0,0,0,1,2,3,0,0,0	to_board	s585
113.489	0.787	0	PA_without_intermediate	0,0,0,1,0,0,3,0,0	test	ward_and_allport	2,0,0,0,0,0,3,1,0	71.0	6.0	0.787	0,0,0,1,2,3,0,0,0	to_hand	s585
114.277	0.484	0	PA_without_intermediate	2,0,0,1,0,0,3,0,0	test	ward_and_allport	2,0,0,0,0,0,3,1,0	89.0	6.0	0.484	0,0,0,1,2,3,0,0,0	to_board	s585
114.764	0.775	0	PA_without_intermediate	2,0,0,0,0,0,3,0,0	test	ward_and_allport	2,0,0,0,0,0,3,1,0	71.0	6.0	0.775	0,0,0,1,2,3,0,0,0	to_hand	s585
115.54	0.581	0	PA_without_intermediate	2,0,0,0,0,0,3,1,0	test	ward_and_allport	2,0,0,0,0,0,3,1,0	82.0	6.0	0.581	0,0,0,1,2,3,0,0,0	to_board	s585
116.129	1.0	0	PA_without_intermediate	n/a	test	ward_and_allport	n/a	-1.0	6.0	n/a	n/a	feedback	s585
117.129	1.408	0	PA_without_intermediate	n/a	test	ward_and_allport	n/a	-1.0	6.0	n/a	n/a	ITI	s585
118.54	1.422	1	PA_without_intermediate	0,0,0,0,0,0,1,2,0	test	ward_and_allport	3,2,0,1,0,0,0,0,0	82.0	7.0	1.422	0,0,0,0,0,0,1,2,3	to_hand	s585
119.963	0.712	0	PA_without_intermediate	3,0,0,0,0,0,1,2,0	test	ward_and_allport	3,2,0,1,0,0,0,0,0	89.0	7.0	0.712	0,0,0,0,0,0,1,2,3	to_board	s585
120.679	1.282	0	PA_without_intermediate	3,0,0,0,0,0,1,0,0	test	ward_and_allport	3,2,0,1,0,0,0,0,0	82.0	7.0	1.282	0,0,0,0,0,0,1,2,3	to_hand	s585
121.962	0.505	0	PA_without_intermediate	3,2,0,0,0,0,1,0,0	test	ward_and_allport	3,2,0,1,0,0,0,0,0	89.0	7.0	0.505	0,0,0,0,0,0,1,2,3	to_board	s585
122.471	2.265	0	PA_without_intermediate	3,2,0,0,0,0,0,0,0	test	ward_and_allport	3,2,0,1,0,0,0,0,0	82.0	7.0	2.265	0,0,0,0,0,0,1,2,3	to_hand	s585
124.737	0.469	0	PA_without_intermediate	3,2,0,1,0,0,0,0,0	test	ward_and_allport	3,2,0,1,0,0,0,0,0	71.0	7.0	0.469	0,0,0,0,0,0,1,2,3	to_board	s585
125.215	1.0	0	PA_without_intermediate	n/a	test	ward_and_allport	n/a	-1.0	7.0	n/a	n/a	feedback	s585
126.215	1.0	0	PA_without_intermediate	n/a	test	ward_and_allport	n/a	-1.0	7.0	n/a	n/a	ITI	s585
127.219	1.51	1	PA_with_intermediate	0,0,0,0,0,0,1,2,0	test	ward_and_allport	2,0,0,0,0,0,1,3,0	82.0	8.0	1.51	0,0,0,0,0,0,1,2,3	to_hand	s585
128.731	1.718	0	PA_with_intermediate	0,0,0,3,0,0,1,2,0	test	ward_and_allport	2,0,0,0,0,0,1,3,0	71.0	8.0	1.718	0,0,0,0,0,0,1,2,3	to_board	s585
130.454	1.449	0	PA_with_intermediate	0,0,0,3,0,0,1,0,0	test	ward_and_allport	2,0,0,0,0,0,1,3,0	82.0	8.0	1.449	0,0,0,0,0,0,1,2,3	to_hand	s585
131.905	0.479	0	PA_with_intermediate	2,0,0,3,0,0,1,0,0	test	ward_and_allport	2,0,0,0,0,0,1,3,0	89.0	8.0	0.479	0,0,0,0,0,0,1,2,3	to_board	s585
132.389	1.208	0	PA_with_intermediate	2,0,0,0,0,0,1,0,0	test	ward_and_allport	2,0,0,0,0,0,1,3,0	71.0	8.0	1.208	0,0,0,0,0,0,1,2,3	to_hand	s585
133.599	0.594	0	PA_with_intermediate	2,0,0,0,0,0,1,3,0	test	ward_and_allport	2,0,0,0,0,0,1,3,0	82.0	8.0	0.594	0,0,0,0,0,0,1,2,3	to_board	s585
134.2	1.0	0	PA_with_intermediate	n/a	test	ward_and_allport	n/a	-1.0	8.0	n/a	n/a	feedback	s585
135.2	1.0	0	PA_with_intermediate	n/a	test	ward_and_allport	n/a	-1.0	8.0	n/a	n/a	ITI	s585
136.206	1.311	1	PA_with_intermediate	0,0,0,0,0,0,1,2,0	test	ward_and_allport	2,3,0,0,0,0,1,0,0	82.0	9.0	1.311	0,0,0,0,0,0,1,2,3	to_hand	s585
137.518	1.212	0	PA_with_intermediate	0,0,0,3,0,0,1,2,0	test	ward_and_allport	2,3,0,0,0,0,1,0,0	71.0	9.0	1.212	0,0,0,0,0,0,1,2,3	to_board	s585
138.734	2.409	0	PA_with_intermediate	0,0,0,3,0,0,1,0,0	test	ward_and_allport	2,3,0,0,0,0,1,0,0	82.0	9.0	2.409	0,0,0,0,0,0,1,2,3	to_hand	s585
141.144	0.415	0	PA_with_intermediate	2,0,0,3,0,0,1,0,0	test	ward_and_allport	2,3,0,0,0,0,1,0,0	89.0	9.0	0.415	0,0,0,0,0,0,1,2,3	to_board	s585
141.562	0.87	0	PA_with_intermediate	2,0,0,0,0,0,1,0,0	test	ward_and_allport	2,3,0,0,0,0,1,0,0	71.0	9.0	0.87	0,0,0,0,0,0,1,2,3	to_hand	s585
142.433	0.466	0	PA_with_intermediate	2,3,0,0,0,0,1,0,0	test	ward_and_allport	2,3,0,0,0,0,1,0,0	89.0	9.0	0.466	0,0,0,0,0,0,1,2,3	to_board	s585
142.906	1.0	0	PA_with_intermediate	n/a	test	ward_and_allport	n/a	-1.0	9.0	n/a	n/a	feedback	s585
143.906	1.0	0	PA_with_intermediate	n/a	test	ward_and_allport	n/a	-1.0	9.0	n/a	n/a	ITI	s585
144.91	2.28	1	PA_with_intermediate	1,2,0,0,0,0,0,0,0	test	ward_and_allport	1,3,0,0,0,0,2,0,0	89.0	10.0	2.28	1,2,3,0,0,0,0,0,0	to_hand	s585
147.191	1.787	0	PA_with_intermediate	1,2,0,3,0,0,0,0,0	test	ward_and_allport	1,3,0,0,0,0,2,0,0	71.0	10.0	1.787	1,2,3,0,0,0,0,0,0	to_board	s585
148.984	0.515	0	PA_with_intermediate	1,0,0,3,0,0,0,0,0	test	ward_and_allport	1,3,0,0,0,0,2,0,0	89.0	10.0	0.515	1,2,3,0,0,0,0,0,0	to_hand	s585
149.5	0.402	0	PA_with_intermediate	1,0,0,3,0,0,2,0,0	test	ward_and_allport	1,3,0,0,0,0,2,0,0	82.0	10.0	0.402	1,2,3,0,0,0,0,0,0	to_board	s585
149.908	0.827	0	PA_with_intermediate	1,0,0,0,0,0,2,0,0	test	ward_and_allport	1,3,0,0,0,0,2,0,0	71.0	10.0	0.827	1,2,3,0,0,0,0,0,0	to_hand	s585
150.736	0.501	0	PA_with_intermediate	1,3,0,0,0,0,2,0,0	test	ward_and_allport	1,3,0,0,0,0,2,0,0	89.0	10.0	0.501	1,2,3,0,0,0,0,0,0	to_board	s585
151.245	1.0	0	PA_with_intermediate	n/a	test	ward_and_allport	n/a	-1.0	10.0	n/a	n/a	feedback	s585
152.245	1.408	0	PA_with_intermediate	n/a	test	ward_and_allport	n/a	-1.0	10.0	n/a	n/a	ITI	s585
153.658	1.788	1	PA_without_intermediate	1,2,0,0,0,0,0,0,0	test	ward_and_allport	0,0,0,3,1,0,2,0,0	89.0	11.0	1.788	1,2,3,0,0,0,0,0,0	to_hand	s585
155.448	0.38	0	PA_without_intermediate	1,2,0,3,0,0,0,0,0	test	ward_and_allport	0,0,0,3,1,0,2,0,0	71.0	11.0	0.38	1,2,3,0,0,0,0,0,0	to_board	s585
155.832	0.78	0	PA_without_intermediate	1,0,0,3,0,0,0,0,0	test	ward_and_allport	0,0,0,3,1,0,2,0,0	89.0	11.0	0.78	1,2,3,0,0,0,0,0,0	to_hand	s585
156.614	0.432	0	PA_without_intermediate	1,0,0,3,0,0,2,0,0	test	ward_and_allport	0,0,0,3,1,0,2,0,0	82.0	11.0	0.432	1,2,3,0,0,0,0,0,0	to_board	s585
157.051	0.691	0	PA_without_intermediate	0,0,0,3,0,0,2,0,0	test	ward_and_allport	0,0,0,3,1,0,2,0,0	89.0	11.0	0.691	1,2,3,0,0,0,0,0,0	to_hand	s585
157.744	0.458	0	PA_without_intermediate	0,0,0,3,1,0,2,0,0	test	ward_and_allport	0,0,0,3,1,0,2,0,0	71.0	11.0	0.458	1,2,3,0,0,0,0,0,0	to_board	s585
158.21	1.0	0	PA_without_intermediate	n/a	test	ward_and_allport	n/a	-1.0	11.0	n/a	n/a	feedback	s585
159.21	1.816	0	PA_without_intermediate	n/a	test	ward_and_allport	n/a	-1.0	11.0	n/a	n/a	ITI	s585
161.031	1.881	1	PA_with_intermediate	1,2,0,0,0,0,0,0,0	test	ward_and_allport	1,3,0,0,0,0,2,0,0	89.0	12.0	1.881	1,2,3,0,0,0,0,0,0	to_hand	s585
162.914	0.797	0	PA_with_intermediate	1,2,0,3,0,0,0,0,0	test	ward_and_allport	1,3,0,0,0,0,2,0,0	71.0	12.0	0.797	1,2,3,0,0,0,0,0,0	to_board	s585
163.716	0.396	0	PA_with_intermediate	1,0,0,3,0,0,0,0,0	test	ward_and_allport	1,3,0,0,0,0,2,0,0	89.0	12.0	0.396	1,2,3,0,0,0,0,0,0	to_hand	s585
164.113	0.42	0	PA_with_intermediate	1,0,0,3,0,0,2,0,0	test	ward_and_allport	1,3,0,0,0,0,2,0,0	82.0	12.0	0.42	1,2,3,0,0,0,0,0,0	to_board	s585
164.539	0.554	0	PA_with_intermediate	1,0,0,0,0,0,2,0,0	test	ward_and_allport	1,3,0,0,0,0,2,0,0	71.0	12.0	0.554	1,2,3,0,0,0,0,0,0	to_hand	s585
165.094	0.327	0	PA_with_intermediate	1,3,0,0,0,0,2,0,0	test	ward_and_allport	1,3,0,0,0,0,2,0,0	89.0	12.0	0.327	1,2,3,0,0,0,0,0,0	to_board	s585
165.429	1.0	0	PA_with_intermediate	n/a	test	ward_and_allport	n/a	-1.0	12.0	n/a	n/a	feedback	s585
166.429	3.176	0	PA_with_intermediate	n/a	test	ward_and_allport	n/a	-1.0	12.0	n/a	n/a	ITI	s585
169.611	1.051	1	PA_with_intermediate	1,2,0,0,0,0,0,0,0	test	ward_and_allport	1,0,0,0,0,0,2,3,0	89.0	13.0	1.051	1,2,3,0,0,0,0,0,0	to_hand	s585
170.663	1.335	0	PA_with_intermediate	1,2,0,3,0,0,0,0,0	test	ward_and_allport	1,0,0,0,0,0,2,3,0	71.0	13.0	1.335	1,2,3,0,0,0,0,0,0	to_board	s585
172.004	0.385	0	PA_with_intermediate	1,0,0,3,0,0,0,0,0	test	ward_and_allport	1,0,0,0,0,0,2,3,0	89.0	13.0	0.385	1,2,3,0,0,0,0,0,0	to_hand	s585
172.391	0.468	0	PA_with_intermediate	1,0,0,3,0,0,2,0,0	test	ward_and_allport	1,0,0,0,0,0,2,3,0	82.0	13.0	0.468	1,2,3,0,0,0,0,0,0	to_board	s585
172.863	0.831	0	PA_with_intermediate	1,0,0,0,0,0,2,0,0	test	ward_and_allport	1,0,0,0,0,0,2,3,0	71.0	13.0	0.831	1,2,3,0,0,0,0,0,0	to_hand	s585
173.696	0.678	0	PA_with_intermediate	1,0,0,0,0,0,2,3,0	test	ward_and_allport	1,0,0,0,0,0,2,3,0	82.0	13.0	0.678	1,2,3,0,0,0,0,0,0	to_board	s585
174.379	1.0	0	PA_with_intermediate	n/a	test	ward_and_allport	n/a	-1.0	13.0	n/a	n/a	feedback	s585
175.379	2.36	0	PA_with_intermediate	n/a	test	ward_and_allport	n/a	-1.0	13.0	n/a	n/a	ITI	s585
177.744	0.961	1	PA_with_intermediate	1,2,0,0,0,0,0,0,0	test	ward_and_allport	1,3,0,2,0,0,0,0,0	89.0	14.0	0.961	1,2,3,0,0,0,0,0,0	to_hand	s585
178.707	0.654	0	PA_with_intermediate	1,2,0,3,0,0,0,0,0	test	ward_and_allport	1,3,0,2,0,0,0,0,0	71.0	14.0	0.654	1,2,3,0,0,0,0,0,0	to_board	s585
179.367	0.356	0	PA_with_intermediate	1,0,0,3,0,0,0,0,0	test	ward_and_allport	1,3,0,2,0,0,0,0,0	89.0	14.0	0.356	1,2,3,0,0,0,0,0,0	to_hand	s585
179.724	1.493	0	PA_with_intermediate	1,2,0,3,0,0,0,0,0	test	ward_and_allport	1,3,0,2,0,0,0,0,0	89.0	14.0	1.493	1,2,3,0,0,0,0,0,0	to_board	s585
181.222	0.637	0	PA_with_intermediate	1,0,0,3,0,0,0,0,0	test	ward_and_allport	1,3,0,2,0,0,0,0,0	89.0	14.0	0.637	1,2,3,0,0,0,0,0,0	to_hand	s585
181.86	1.205	0	PA_with_intermediate	1,2,0,3,0,0,0,0,0	test	ward_and_allport	1,3,0,2,0,0,0,0,0	89.0	14.0	1.205	1,2,3,0,0,0,0,0,0	to_board	s585
183.07	0.501	0	PA_with_intermediate	1,2,0,0,0,0,0,0,0	test	ward_and_allport	1,3,0,2,0,0,0,0,0	71.0	14.0	0.501	1,2,3,0,0,0,0,0,0	to_hand	s585
183.572	0.791	0	PA_with_intermediate	1,2,0,0,0,0,3,0,0	test	ward_and_allport	1,3,0,2,0,0,0,0,0	82.0	14.0	0.791	1,2,3,0,0,0,0,0,0	to_board	s585
184.369	0.566	0	PA_with_intermediate	1,0,0,0,0,0,3,0,0	test	ward_and_allport	1,3,0,2,0,0,0,0,0	89.0	14.0	0.566	1,2,3,0,0,0,0,0,0	to_hand	s585
184.936	0.438	0	PA_with_intermediate	1,0,0,2,0,0,3,0,0	test	ward_and_allport	1,3,0,2,0,0,0,0,0	71.0	14.0	0.438	1,2,3,0,0,0,0,0,0	to_board	s585
185.379	0.426	0	PA_with_intermediate	1,0,0,2,0,0,0,0,0	test	ward_and_allport	1,3,0,2,0,0,0,0,0	82.0	14.0	0.426	1,2,3,0,0,0,0,0,0	to_hand	s585
185.807	0.434	0	PA_with_intermediate	1,3,0,2,0,0,0,0,0	test	ward_and_allport	1,3,0,2,0,0,0,0,0	89.0	14.0	0.434	1,2,3,0,0,0,0,0,0	to_board	s585
186.247	1.0	0	PA_with_intermediate	n/a	test	ward_and_allport	n/a	-1.0	14.0	n/a	n/a	feedback	s585
187.247	1.0	0	PA_with_intermediate	n/a	test	ward_and_allport	n/a	-1.0	14.0	n/a	n/a	ITI	s585
193.253	2.715	1	PA_without_intermediate	0,0,0,0,0,0,1,2,0	test	ward_and_allport	3,1,0,2,0,0,0,0,0	82.0	15.0	2.715	0,0,0,0,0,0,1,2,3	to_hand	s585
195.969	0.363	0	PA_without_intermediate	3,0,0,0,0,0,1,2,0	test	ward_and_allport	3,1,0,2,0,0,0,0,0	89.0	15.0	0.363	0,0,0,0,0,0,1,2,3	to_board	s585
196.339	2.746	0	PA_without_intermediate	3,0,0,0,0,0,1,0,0	test	ward_and_allport	3,1,0,2,0,0,0,0,0	82.0	15.0	2.746	0,0,0,0,0,0,1,2,3	to_hand	s585
199.085	0.47	0	PA_without_intermediate	3,0,0,2,0,0,1,0,0	test	ward_and_allport	3,1,0,2,0,0,0,0,0	71.0	15.0	0.47	0,0,0,0,0,0,1,2,3	to_board	s585
199.561	1.251	0	PA_without_intermediate	3,0,0,2,0,0,0,0,0	test	ward_and_allport	3,1,0,2,0,0,0,0,0	82.0	15.0	1.251	0,0,0,0,0,0,1,2,3	to_hand	s585
200.812	0.414	0	PA_without_intermediate	3,1,0,2,0,0,0,0,0	test	ward_and_allport	3,1,0,2,0,0,0,0,0	89.0	15.0	0.414	0,0,0,0,0,0,1,2,3	to_board	s585
201.236	1.0	0	PA_without_intermediate	n/a	test	ward_and_allport	n/a	-1.0	15.0	n/a	n/a	feedback	s585
202.236	1.408	0	PA_without_intermediate	n/a	test	ward_and_allport	n/a	-1.0	15.0	n/a	n/a	ITI	s585
203.65	2.144	1	PA_with_intermediate	0,0,0,0,0,0,1,2,0	test	ward_and_allport	0,0,0,2,3,0,1,0,0	82.0	16.0	2.144	0,0,0,0,0,0,1,2,3	to_hand	s585
205.795	1.098	0	PA_with_intermediate	3,0,0,0,0,0,1,2,0	test	ward_and_allport	0,0,0,2,3,0,1,0,0	89.0	16.0	1.098	0,0,0,0,0,0,1,2,3	to_board	s585
206.9	1.367	0	PA_with_intermediate	3,0,0,0,0,0,1,0,0	test	ward_and_allport	0,0,0,2,3,0,1,0,0	82.0	16.0	1.367	0,0,0,0,0,0,1,2,3	to_hand	s585
208.268	0.458	0	PA_with_intermediate	3,0,0,2,0,0,1,0,0	test	ward_and_allport	0,0,0,2,3,0,1,0,0	71.0	16.0	0.458	0,0,0,0,0,0,1,2,3	to_board	s585
208.732	0.524	0	PA_with_intermediate	0,0,0,2,0,0,1,0,0	test	ward_and_allport	0,0,0,2,3,0,1,0,0	89.0	16.0	0.524	0,0,0,0,0,0,1,2,3	to_hand	s585
209.257	0.524	0	PA_with_intermediate	0,0,0,2,3,0,1,0,0	test	ward_and_allport	0,0,0,2,3,0,1,0,0	71.0	16.0	0.524	0,0,0,0,0,0,1,2,3	to_board	s585
209.788	1.0	0	PA_with_intermediate	n/a	test	ward_and_allport	n/a	-1.0	16.0	n/a	n/a	feedback	s585
210.788	1.816	0	PA_with_intermediate	n/a	test	ward_and_allport	n/a	-1.0	16.0	n/a	n/a	ITI	s585
212.61	1.276	1	PA_without_intermediate	0,0,0,1,2,0,0,0,0	test	ward_and_allport	3,1,0,0,0,0,2,0,0	71.0	17.0	1.276	0,0,0,1,2,3,0,0,0	to_hand	s585
213.886	0.713	0	PA_without_intermediate	3,0,0,1,2,0,0,0,0	test	ward_and_allport	3,1,0,0,0,0,2,0,0	89.0	17.0	0.713	0,0,0,1,2,3,0,0,0	to_board	s585
214.606	1.146	0	PA_without_intermediate	3,0,0,1,0,0,0,0,0	test	ward_and_allport	3,1,0,0,0,0,2,0,0	71.0	17.0	1.146	0,0,0,1,2,3,0,0,0	to_hand	s585
215.754	0.463	0	PA_without_intermediate	3,0,0,1,0,0,2,0,0	test	ward_and_allport	3,1,0,0,0,0,2,0,0	82.0	17.0	0.463	0,0,0,1,2,3,0,0,0	to_board	s585
216.223	0.641	0	PA_without_intermediate	3,0,0,0,0,0,2,0,0	test	ward_and_allport	3,1,0,0,0,0,2,0,0	71.0	17.0	0.641	0,0,0,1,2,3,0,0,0	to_hand	s585
216.866	0.372	0	PA_without_intermediate	3,1,0,0,0,0,2,0,0	test	ward_and_allport	3,1,0,0,0,0,2,0,0	89.0	17.0	0.372	0,0,0,1,2,3,0,0,0	to_board	s585
217.245	1.0	0	PA_without_intermediate	n/a	test	ward_and_allport	n/a	-1.0	17.0	n/a	n/a	feedback	s585
218.245	2.088	0	PA_without_intermediate	n/a	test	ward_and_allport	n/a	-1.0	17.0	n/a	n/a	ITI	s585
220.338	1.066	1	PA_without_intermediate	0,0,0,1,2,0,0,0,0	test	ward_and_allport	3,2,0,0,0,0,1,0,0	71.0	18.0	1.066	0,0,0,1,2,3,0,0,0	to_hand	s585
221.405	0.666	0	PA_without_intermediate	3,0,0,1,2,0,0,0,0	test	ward_and_allport	3,2,0,0,0,0,1,0,0	89.0	18.0	0.666	0,0,0,1,2,3,0,0,0	to_board	s585
222.078	0.517	0	PA_without_intermediate	3,0,0,1,0,0,0,0,0	test	ward_and_allport	3,2,0,0,0,0,1,0,0	71.0	18.0	0.517	0,0,0,1,2,3,0,0,0	to_hand	s585
222.596	0.351	0	PA_without_intermediate	3,2,0,1,0,0,0,0,0	test	ward_and_allport	3,2,0,0,0,0,1,0,0	89.0	18.0	0.351	0,0,0,1,2,3,0,0,0	to_board	s585
222.952	0.971	0	PA_without_intermediate	3,2,0,0,0,0,0,0,0	test	ward_and_allport	3,2,0,0,0,0,1,0,0	71.0	18.0	0.971	0,0,0,1,2,3,0,0,0	to_hand	s585
223.925	0.327	0	PA_without_intermediate	3,2,0,0,0,0,1,0,0	test	ward_and_allport	3,2,0,0,0,0,1,0,0	82.0	18.0	0.327	0,0,0,1,2,3,0,0,0	to_board	s585
224.261	1.0	0	PA_without_intermediate	n/a	test	ward_and_allport	n/a	-1.0	18.0	n/a	n/a	feedback	s585
225.261	1.136	0	PA_without_intermediate	n/a	test	ward_and_allport	n/a	-1.0	18.0	n/a	n/a	ITI	s585
226.403	1.136	1	PA_without_intermediate	0,0,0,0,0,0,1,2,0	test	ward_and_allport	2,0,0,3,1,0,0,0,0	82.0	19.0	1.136	0,0,0,0,0,0,1,2,3	to_hand	s585
227.54	0.516	0	PA_without_intermediate	0,0,0,3,0,0,1,2,0	test	ward_and_allport	2,0,0,3,1,0,0,0,0	71.0	19.0	0.516	0,0,0,0,0,0,1,2,3	to_board	s585
228.062	1.432	0	PA_without_intermediate	0,0,0,3,0,0,1,0,0	test	ward_and_allport	2,0,0,3,1,0,0,0,0	82.0	19.0	1.432	0,0,0,0,0,0,1,2,3	to_hand	s585
229.495	0.542	0	PA_without_intermediate	2,0,0,3,0,0,1,0,0	test	ward_and_allport	2,0,0,3,1,0,0,0,0	89.0	19.0	0.542	0,0,0,0,0,0,1,2,3	to_board	s585
230.044	0.947	0	PA_without_intermediate	2,0,0,3,0,0,0,0,0	test	ward_and_allport	2,0,0,3,1,0,0,0,0	82.0	19.0	0.947	0,0,0,0,0,0,1,2,3	to_hand	s585
230.992	0.661	0	PA_without_intermediate	2,0,0,3,1,0,0,0,0	test	ward_and_allport	2,0,0,3,1,0,0,0,0	71.0	19.0	0.661	0,0,0,0,0,0,1,2,3	to_board	s585
231.663	1.0	0	PA_without_intermediate	n/a	test	ward_and_allport	n/a	-1.0	19.0	n/a	n/a	feedback	s585
232.663	6.168	0	PA_without_intermediate	n/a	test	ward_and_allport	n/a	-1.0	19.0	n/a	n/a	ITI	s585
238.837	1.473	1	PA_without_intermediate	0,0,0,1,2,0,0,0,0	test	ward_and_allport	2,0,0,0,0,0,3,1,0	71.0	20.0	1.473	0,0,0,1,2,3,0,0,0	to_hand	s585
240.311	0.939	0	PA_without_intermediate	0,0,0,1,2,0,3,0,0	test	ward_and_allport	2,0,0,0,0,0,3,1,0	82.0	20.0	0.939	0,0,0,1,2,3,0,0,0	to_board	s585
241.257	0.579	0	PA_without_intermediate	0,0,0,1,0,0,3,0,0	test	ward_and_allport	2,0,0,0,0,0,3,1,0	71.0	20.0	0.579	0,0,0,1,2,3,0,0,0	to_hand	s585
241.838	0.632	0	PA_without_intermediate	2,0,0,1,0,0,3,0,0	test	ward_and_allport	2,0,0,0,0,0,3,1,0	89.0	20.0	0.632	0,0,0,1,2,3,0,0,0	to_board	s585
242.478	0.373	0	PA_without_intermediate	2,0,0,0,0,0,3,0,0	test	ward_and_allport	2,0,0,0,0,0,3,1,0	71.0	20.0	0.373	0,0,0,1,2,3,0,0,0	to_hand	s585
242.852	0.387	0	PA_without_intermediate	2,0,0,0,0,0,3,1,0	test	ward_and_allport	2,0,0,0,0,0,3,1,0	82.0	20.0	0.387	0,0,0,1,2,3,0,0,0	to_board	s585
243.247	1.0	0	PA_without_intermediate	n/a	test	ward_and_allport	n/a	-1.0	20.0	n/a	n/a	feedback	s585
244.247	1.816	0	PA_without_intermediate	n/a	test	ward_and_allport	n/a	-1.0	20.0	n/a	n/a	ITI	s585
246.069	0.939	1	PA_with_intermediate	0,0,0,0,0,0,1,2,0	test	ward_and_allport	0,0,0,2,0,0,1,3,0	82.0	21.0	0.939	0,0,0,0,0,0,1,2,3	to_hand	s585
247.01	0.926	0	PA_with_intermediate	0,0,0,3,0,0,1,2,0	test	ward_and_allport	0,0,0,2,0,0,1,3,0	71.0	21.0	0.926	0,0,0,0,0,0,1,2,3	to_board	s585
247.942	1.22	0	PA_with_intermediate	0,0,0,0,0,0,1,2,0	test	ward_and_allport	0,0,0,2,0,0,1,3,0	71.0	21.0	1.22	0,0,0,0,0,0,1,2,3	to_hand	s585
249.163	0.534	0	PA_with_intermediate	3,0,0,0,0,0,1,2,0	test	ward_and_allport	0,0,0,2,0,0,1,3,0	89.0	21.0	0.534	0,0,0,0,0,0,1,2,3	to_board	s585
249.704	0.855	0	PA_with_intermediate	3,0,0,0,0,0,1,0,0	test	ward_and_allport	0,0,0,2,0,0,1,3,0	82.0	21.0	0.855	0,0,0,0,0,0,1,2,3	to_hand	s585
250.56	0.42	0	PA_with_intermediate	3,0,0,2,0,0,1,0,0	test	ward_and_allport	0,0,0,2,0,0,1,3,0	71.0	21.0	0.42	0,0,0,0,0,0,1,2,3	to_board	s585
250.987	0.741	0	PA_with_intermediate	0,0,0,2,0,0,1,0,0	test	ward_and_allport	0,0,0,2,0,0,1,3,0	89.0	21.0	0.741	0,0,0,0,0,0,1,2,3	to_hand	s585
251.729	0.406	0	PA_with_intermediate	0,0,0,2,0,0,1,3,0	test	ward_and_allport	0,0,0,2,0,0,1,3,0	82.0	21.0	0.406	0,0,0,0,0,0,1,2,3	to_board	s585
252.145	1.0	0	PA_with_intermediate	n/a	test	ward_and_allport	n/a	-1.0	21.0	n/a	n/a	feedback	s585
253.145	1.952	0	PA_with_intermediate	n/a	test	ward_and_allport	n/a	-1.0	21.0	n/a	n/a	ITI	s585
255.104	1.926	1	PA_with_intermediate	1,2,0,0,0,0,0,0,0	test	ward_and_allport	1,0,0,0,0,0,2,3,0	89.0	22.0	1.926	1,2,3,0,0,0,0,0,0	to_hand	s585
257.032	0.371	0	PA_with_intermediate	1,2,0,3,0,0,0,0,0	test	ward_and_allport	1,0,0,0,0,0,2,3,0	71.0	22.0	0.371	1,2,3,0,0,0,0,0,0	to_board	s585
257.412	0.318	0	PA_with_intermediate	1,0,0,3,0,0,0,0,0	test	ward_and_allport	1,0,0,0,0,0,2,3,0	89.0	22.0	0.318	1,2,3,0,0,0,0,0,0	to_hand	s585
257.731	0.308	0	PA_with_intermediate	1,0,0,3,0,0,2,0,0	test	ward_and_allport	1,0,0,0,0,0,2,3,0	82.0	22.0	0.308	1,2,3,0,0,0,0,0,0	to_board	s585
258.048	0.473	0	PA_with_intermediate	1,0,0,0,0,0,2,0,0	test	ward_and_allport	1,0,0,0,0,0,2,3,0	71.0	22.0	0.473	1,2,3,0,0,0,0,0,0	to_hand	s585
258.522	0.407	0	PA_with_intermediate	1,0,0,0,0,0,2,3,0	test	ward_and_allport	1,0,0,0,0,0,2,3,0	82.0	22.0	0.407	1,2,3,0,0,0,0,0,0	to_board	s585
258.939	1.0	0	PA_with_intermediate	n/a	test	ward_and_allport	n/a	-1.0	22.0	n/a	n/a	feedback	s585
259.939	1.136	0	PA_with_intermediate	n/a	test	ward_and_allport	n/a	-1.0	22.0	n/a	n/a	ITI	s585
261.083	2.328	1	PA_without_intermediate	0,0,0,0,0,0,1,2,0	test	ward_and_allport	2,0,0,3,1,0,0,0,0	82.0	23.0	2.328	0,0,0,0,0,0,1,2,3	to_hand	s585
263.413	0.328	0	PA_without_intermediate	0,0,0,3,0,0,1,2,0	test	ward_and_allport	2,0,0,3,1,0,0,0,0	71.0	23.0	0.328	0,0,0,0,0,0,1,2,3	to_board	s585
263.749	1.941	0	PA_without_intermediate	0,0,0,3,0,0,1,0,0	test	ward_and_allport	2,0,0,3,1,0,0,0,0	82.0	23.0	1.941	0,0,0,0,0,0,1,2,3	to_hand	s585
265.691	0.381	0	PA_without_intermediate	2,0,0,3,0,0,1,0,0	test	ward_and_allport	2,0,0,3,1,0,0,0,0	89.0	23.0	0.381	0,0,0,0,0,0,1,2,3	to_board	s585
266.082	0.64	0	PA_without_intermediate	2,0,0,3,0,0,0,0,0	test	ward_and_allport	2,0,0,3,1,0,0,0,0	82.0	23.0	0.64	0,0,0,0,0,0,1,2,3	to_hand	s585
266.723	0.959	0	PA_without_intermediate	2,0,0,3,1,0,0,0,0	test	ward_and_allport	2,0,0,3,1,0,0,0,0	71.0	23.0	0.959	0,0,0,0,0,0,1,2,3	to_board	s585
267.691	1.0	0	PA_without_intermediate	n/a	test	ward_and_allport	n/a	-1.0	23.0	n/a	n/a	feedback	s585
268.691	1.68	0	PA_without_intermediate	n/a	test	ward_and_allport	n/a	-1.0	23.0	n/a	n/a	ITI	s585
270.38	1.254	1	PA_without_intermediate	1,2,0,0,0,0,0,0,0	test	ward_and_allport	0,0,0,2,0,0,3,1,0	89.0	24.0	1.254	1,2,3,0,0,0,0,0,0	to_hand	s585
271.635	0.338	0	PA_without_intermediate	1,2,0,0,0,0,3,0,0	test	ward_and_allport	0,0,0,2,0,0,3,1,0	82.0	24.0	0.338	1,2,3,0,0,0,0,0,0	to_board	s585
271.98	0.782	0	PA_without_intermediate	1,0,0,0,0,0,3,0,0	test	ward_and_allport	0,0,0,2,0,0,3,1,0	89.0	24.0	0.782	1,2,3,0,0,0,0,0,0	to_hand	s585
272.763	0.399	0	PA_without_intermediate	1,0,0,2,0,0,3,0,0	test	ward_and_allport	0,0,0,2,0,0,3,1,0	71.0	24.0	0.399	1,2,3,0,0,0,0,0,0	to_board	s585
273.171	0.618	0	PA_without_intermediate	0,0,0,2,0,0,3,0,0	test	ward_and_allport	0,0,0,2,0,0,3,1,0	89.0	24.0	0.618	1,2,3,0,0,0,0,0,0	to_hand	s585
273.791	0.256	0	PA_without_intermediate	0,0,0,2,0,0,3,1,0	test	ward_and_allport	0,0,0,2,0,0,3,1,0	82.0	24.0	0.256	1,2,3,0,0,0,0,0,0	to_board	s585
274.057	1.0	0	PA_without_intermediate	n/a	test	ward_and_allport	n/a	-1.0	24.0	n/a	n/a	feedback	s585
275.057	2.088	0	PA_without_intermediate	n/a	test	ward_and_allport	n/a	-1.0	24.0	n/a	n/a	ITI	s585
277.154	0.807	1	PA_with_intermediate	0,0,0,1,2,0,0,0,0	test	ward_and_allport	2,3,0,1,0,0,0,0,0	71.0	25.0	0.807	0,0,0,1,2,3,0,0,0	to_hand	s585
277.962	1.325	0	PA_with_intermediate	0,0,0,1,2,0,3,0,0	test	ward_and_allport	2,3,0,1,0,0,0,0,0	82.0	25.0	1.325	0,0,0,1,2,3,0,0,0	to_board	s585
279.296	0.438	0	PA_with_intermediate	0,0,0,1,0,0,3,0,0	test	ward_and_allport	2,3,0,1,0,0,0,0,0	71.0	25.0	0.438	0,0,0,1,2,3,0,0,0	to_hand	s585
279.736	0.372	0	PA_with_intermediate	2,0,0,1,0,0,3,0,0	test	ward_and_allport	2,3,0,1,0,0,0,0,0	89.0	25.0	0.372	0,0,0,1,2,3,0,0,0	to_board	s585
280.117	0.38	0	PA_with_intermediate	2,0,0,1,0,0,0,0,0	test	ward_and_allport	2,3,0,1,0,0,0,0,0	82.0	25.0	0.38	0,0,0,1,2,3,0,0,0	to_hand	s585
280.499	0.436	0	PA_with_intermediate	2,3,0,1,0,0,0,0,0	test	ward_and_allport	2,3,0,1,0,0,0,0,0	89.0	25.0	0.436	0,0,0,1,2,3,0,0,0	to_board	s585
280.948	1.0	0	PA_with_intermediate	n/a	test	ward_and_allport	n/a	-1.0	25.0	n/a	n/a	feedback	s585
281.948	1.0	0	PA_with_intermediate	n/a	test	ward_and_allport	n/a	-1.0	25.0	n/a	n/a	ITI	s585
282.958	1.921	1	PA_without_intermediate	0,0,0,0,0,0,1,2,0	test	ward_and_allport	1,0,0,3,2,0,0,0,0	82.0	26.0	1.921	0,0,0,0,0,0,1,2,3	to_hand	s585
284.88	0.347	0	PA_without_intermediate	3,0,0,0,0,0,1,2,0	test	ward_and_allport	1,0,0,3,2,0,0,0,0	89.0	26.0	0.347	0,0,0,0,0,0,1,2,3	to_board	s585
285.236	0.916	0	PA_without_intermediate	0,0,0,0,0,0,1,2,0	test	ward_and_allport	1,0,0,3,2,0,0,0,0	89.0	26.0	0.916	0,0,0,0,0,0,1,2,3	to_hand	s585
286.153	0.59	0	PA_without_intermediate	0,0,0,3,0,0,1,2,0	test	ward_and_allport	1,0,0,3,2,0,0,0,0	71.0	26.0	0.59	0,0,0,0,0,0,1,2,3	to_board	s585
286.751	1.813	0	PA_without_intermediate	0,0,0,3,0,0,1,0,0	test	ward_and_allport	1,0,0,3,2,0,0,0,0	82.0	26.0	1.813	0,0,0,0,0,0,1,2,3	to_hand	s585
288.565	0.475	0	PA_without_intermediate	0,0,0,3,2,0,1,0,0	test	ward_and_allport	1,0,0,3,2,0,0,0,0	71.0	26.0	0.475	0,0,0,0,0,0,1,2,3	to_board	s585
289.048	1.177	0	PA_without_intermediate	0,0,0,3,2,0,0,0,0	test	ward_and_allport	1,0,0,3,2,0,0,0,0	82.0	26.0	1.177	0,0,0,0,0,0,1,2,3	to_hand	s585
290.226	0.333	0	PA_without_intermediate	1,0,0,3,2,0,0,0,0	test	ward_and_allport	1,0,0,3,2,0,0,0,0	89.0	26.0	0.333	0,0,0,0,0,0,1,2,3	to_board	s585
290.571	1.0	0	PA_without_intermediate	n/a	test	ward_and_allport	n/a	-1.0	26.0	n/a	n/a	feedback	s585
291.571	1.0	0	PA_without_intermediate	n/a	test	ward_and_allport	n/a	-1.0	26.0	n/a	n/a	ITI	s585
292.582	1.527	1	PA_without_intermediate	0,0,0,1,2,0,0,0,0	test	ward_and_allport	3,2,0,0,0,0,1,0,0	71.0	27.0	1.527	0,0,0,1,2,3,0,0,0	to_hand	s585
294.11	0.338	0	PA_without_intermediate	3,0,0,1,2,0,0,0,0	test	ward_and_allport	3,2,0,0,0,0,1,0,0	89.0	27.0	0.338	0,0,0,1,2,3,0,0,0	to_board	s585
294.457	0.725	0	PA_without_intermediate	3,0,0,1,0,0,0,0,0	test	ward_and_allport	3,2,0,0,0,0,1,0,0	71.0	27.0	0.725	0,0,0,1,2,3,0,0,0	to_hand	s585
295.184	0.297	0	PA_without_intermediate	3,2,0,1,0,0,0,0,0	test	ward_and_allport	3,2,0,0,0,0,1,0,0	89.0	27.0	0.297	0,0,0,1,2,3,0,0,0	to_board	s585
295.491	0.794	0	PA_without_intermediate	3,2,0,0,0,0,0,0,0	test	ward_and_allport	3,2,0,0,0,0,1,0,0	71.0	27.0	0.794	0,0,0,1,2,3,0,0,0	to_hand	s585
296.287	0.33	0	PA_without_intermediate	3,2,0,0,0,0,1,0,0	test	ward_and_allport	3,2,0,0,0,0,1,0,0	82.0	27.0	0.33	0,0,0,1,2,3,0,0,0	to_board	s585
296.628	1.0	0	PA_without_intermediate	n/a	test	ward_and_allport	n/a	-1.0	27.0	n/a	n/a	feedback	s585
297.628	1.0	0	PA_without_intermediate	n/a	test	ward_and_allport	n/a	-1.0	27.0	n/a	n/a	ITI	s585
298.638	1.559	1	PA_with_intermediate	0,0,0,0,0,0,1,2,0	test	ward_and_allport	2,0,0,0,0,0,1,3,0	82.0	28.0	1.559	0,0,0,0,0,0,1,2,3	to_hand	s585
300.197	1.488	0	PA_with_intermediate	0,0,0,3,0,0,1,2,0	test	ward_and_allport	2,0,0,0,0,0,1,3,0	71.0	28.0	1.488	0,0,0,0,0,0,1,2,3	to_board	s585
301.693	0.36	0	PA_with_intermediate	0,0,0,3,0,0,1,0,0	test	ward_and_allport	2,0,0,0,0,0,1,3,0	82.0	28.0	0.36	0,0,0,0,0,0,1,2,3	to_hand	s585
302.054	0.308	0	PA_with_intermediate	2,0,0,3,0,0,1,0,0	test	ward_and_allport	2,0,0,0,0,0,1,3,0	89.0	28.0	0.308	0,0,0,0,0,0,1,2,3	to_board	s585
302.373	0.622	0	PA_with_intermediate	2,0,0,0,0,0,1,0,0	test	ward_and_allport	2,0,0,0,0,0,1,3,0	71.0	28.0	0.622	0,0,0,0,0,0,1,2,3	to_hand	s585
302.996	0.386	0	PA_with_intermediate	2,0,0,0,0,0,1,3,0	test	ward_and_allport	2,0,0,0,0,0,1,3,0	82.0	28.0	0.386	0,0,0,0,0,0,1,2,3	to_board	s585
303.395	1.0	0	PA_with_intermediate	n/a	test	ward_and_allport	n/a	-1.0	28.0	n/a	n/a	feedback	s585
304.395	1.544	0	PA_with_intermediate	n/a	test	ward_and_allport	n/a	-1.0	28.0	n/a	n/a	ITI	s585
305.947	1.782	1	PA_without_intermediate	0,0,0,1,2,0,0,0,0	test	ward_and_allport	3,1,0,0,0,0,2,0,0	71.0	29.0	1.782	0,0,0,1,2,3,0,0,0	to_hand	s585
307.731	0.327	0	PA_without_intermediate	3,0,0,1,2,0,0,0,0	test	ward_and_allport	3,1,0,0,0,0,2,0,0	89.0	29.0	0.327	0,0,0,1,2,3,0,0,0	to_board	s585
308.067	0.871	0	PA_without_intermediate	3,0,0,1,0,0,0,0,0	test	ward_and_allport	3,1,0,0,0,0,2,0,0	71.0	29.0	0.871	0,0,0,1,2,3,0,0,0	to_hand	s585
308.938	0.263	0	PA_without_intermediate	3,0,0,1,0,0,2,0,0	test	ward_and_allport	3,1,0,0,0,0,2,0,0	82.0	29.0	0.263	0,0,0,1,2,3,0,0,0	to_board	s585
309.21	0.436	0	PA_without_intermediate	3,0,0,0,0,0,2,0,0	test	ward_and_allport	3,1,0,0,0,0,2,0,0	71.0	29.0	0.436	0,0,0,1,2,3,0,0,0	to_hand	s585
309.647	0.233	0	PA_without_intermediate	3,1,0,0,0,0,2,0,0	test	ward_and_allport	3,1,0,0,0,0,2,0,0	89.0	29.0	0.233	0,0,0,1,2,3,0,0,0	to_board	s585
309.893	1.0	0	PA_without_intermediate	n/a	test	ward_and_allport	n/a	-1.0	29.0	n/a	n/a	feedback	s585
310.893	1.272	0	PA_without_intermediate	n/a	test	ward_and_allport	n/a	-1.0	29.0	n/a	n/a	ITI	s585
317.176	1.363	1	PA_with_intermediate	0,0,0,1,2,0,0,0,0	test	ward_and_allport	2,0,0,1,3,0,0,0,0	71.0	30.0	1.363	0,0,0,1,2,3,0,0,0	to_hand	s585
318.54	1.39	0	PA_with_intermediate	0,0,0,1,2,0,3,0,0	test	ward_and_allport	2,0,0,1,3,0,0,0,0	82.0	30.0	1.39	0,0,0,1,2,3,0,0,0	to_board	s585
319.941	0.282	0	PA_with_intermediate	0,0,0,1,0,0,3,0,0	test	ward_and_allport	2,0,0,1,3,0,0,0,0	71.0	30.0	0.282	0,0,0,1,2,3,0,0,0	to_hand	s585
320.224	0.24	0	PA_with_intermediate	2,0,0,1,0,0,3,0,0	test	ward_and_allport	2,0,0,1,3,0,0,0,0	89.0	30.0	0.24	0,0,0,1,2,3,0,0,0	to_board	s585
320.476	0.932	0	PA_with_intermediate	2,0,0,1,0,0,0,0,0	test	ward_and_allport	2,0,0,1,3,0,0,0,0	82.0	30.0	0.932	0,0,0,1,2,3,0,0,0	to_hand	s585
321.41	0.273	0	PA_with_intermediate	2,0,0,1,3,0,0,0,0	test	ward_and_allport	2,0,0,1,3,0,0,0,0	71.0	30.0	0.273	0,0,0,1,2,3,0,0,0	to_board	s585
321.695	1.0	0	PA_with_intermediate	n/a	test	ward_and_allport	n/a	-1.0	30.0	n/a	n/a	feedback	s585
322.695	3.04	0	PA_with_intermediate	n/a	test	ward_and_allport	n/a	-1.0	30.0	n/a	n/a	ITI	s585
325.744	1.562	1	PA_with_intermediate	0,0,0,1,2,0,0,0,0	test	ward_and_allport	0,0,0,1,3,0,2,0,0	71.0	31.0	1.562	0,0,0,1,2,3,0,0,0	to_hand	s585
327.308	1.041	0	PA_with_intermediate	3,0,0,1,2,0,0,0,0	test	ward_and_allport	0,0,0,1,3,0,2,0,0	89.0	31.0	1.041	0,0,0,1,2,3,0,0,0	to_board	s585
328.362	0.359	0	PA_with_intermediate	3,0,0,1,0,0,0,0,0	test	ward_and_allport	0,0,0,1,3,0,2,0,0	71.0	31.0	0.359	0,0,0,1,2,3,0,0,0	to_hand	s585
328.722	0.349	0	PA_with_intermediate	3,0,0,1,0,0,2,0,0	test	ward_and_allport	0,0,0,1,3,0,2,0,0	82.0	31.0	0.349	0,0,0,1,2,3,0,0,0	to_board	s585
329.082	0.433	0	PA_with_intermediate	0,0,0,1,0,0,2,0,0	test	ward_and_allport	0,0,0,1,3,0,2,0,0	89.0	31.0	0.433	0,0,0,1,2,3,0,0,0	to_hand	s585
329.517	0.502	0	PA_with_intermediate	0,0,0,1,3,0,2,0,0	test	ward_and_allport	0,0,0,1,3,0,2,0,0	71.0	31.0	0.502	0,0,0,1,2,3,0,0,0	to_board	s585
330.031	1.0	0	PA_with_intermediate	n/a	test	ward_and_allport	n/a	-1.0	31.0	n/a	n/a	feedback	s585
331.031	1.272	0	PA_with_intermediate	n/a	test	ward_and_allport	n/a	-1.0	31.0	n/a	n/a	ITI	s585
332.314	2.016	1	PA_with_intermediate	1,2,0,0,0,0,0,0,0	test	ward_and_allport	1,3,0,2,0,0,0,0,0	89.0	32.0	2.016	1,2,3,0,0,0,0,0,0	to_hand	s585
334.331	0.754	0	PA_with_intermediate	1,2,0,0,0,0,3,0,0	test	ward_and_allport	1,3,0,2,0,0,0,0,0	82.0	32.0	0.754	1,2,3,0,0,0,0,0,0	to_board	s585
335.092	0.789	0	PA_with_intermediate	1,0,0,0,0,0,3,0,0	test	ward_and_allport	1,3,0,2,0,0,0,0,0	89.0	32.0	0.789	1,2,3,0,0,0,0,0,0	to_hand	s585
335.883	0.521	0	PA_with_intermediate	1,0,0,2,0,0,3,0,0	test	ward_and_allport	1,3,0,2,0,0,0,0,0	71.0	32.0	0.521	1,2,3,0,0,0,0,0,0	to_board	s585
336.412	0.447	0	PA_with_intermediate	1,0,0,2,0,0,0,0,0	test	ward_and_allport	1,3,0,2,0,0,0,0,0	82.0	32.0	0.447	1,2,3,0,0,0,0,0,0	to_hand	s585
336.86	0.396	0	PA_with_intermediate	1,3,0,2,0,0,0,0,0	test	ward_and_allport	1,3,0,2,0,0,0,0,0	89.0	32.0	0.396	1,2,3,0,0,0,0,0,0	to_board	s585
337.273	1.0	0	PA_with_intermediate	n/a	test	ward_and_allport	n/a	-1.0	32.0	n/a	n/a	feedback	s585
338.273	1.136	0	PA_with_intermediate	n/a	test	ward_and_allport	n/a	-1.0	32.0	n/a	n/a	ITI	s585
339.42	2.069	1	PA_with_intermediate	0,0,0,1,2,0,0,0,0	test	ward_and_allport	2,0,0,1,3,0,0,0,0	71.0	33.0	2.069	0,0,0,1,2,3,0,0,0	to_hand	s585
341.49	1.556	0	PA_with_intermediate	0,0,0,1,2,0,3,0,0	test	ward_and_allport	2,0,0,1,3,0,0,0,0	82.0	33.0	1.556	0,0,0,1,2,3,0,0,0	to_board	s585
343.057	0.363	0	PA_with_intermediate	0,0,0,1,0,0,3,0,0	test	ward_and_allport	2,0,0,1,3,0,0,0,0	71.0	33.0	0.363	0,0,0,1,2,3,0,0,0	to_hand	s585
343.422	0.31	0	PA_with_intermediate	2,0,0,1,0,0,3,0,0	test	ward_and_allport	2,0,0,1,3,0,0,0,0	89.0	33.0	0.31	0,0,0,1,2,3,0,0,0	to_board	s585
343.744	1.165	0	PA_with_intermediate	2,0,0,1,0,0,0,0,0	test	ward_and_allport	2,0,0,1,3,0,0,0,0	82.0	33.0	1.165	0,0,0,1,2,3,0,0,0	to_hand	s585
344.91	0.376	0	PA_with_intermediate	2,0,0,1,3,0,0,0,0	test	ward_and_allport	2,0,0,1,3,0,0,0,0	71.0	33.0	0.376	0,0,0,1,2,3,0,0,0	to_board	s585
345.298	1.0	0	PA_with_intermediate	n/a	test	ward_and_allport	n/a	-1.0	33.0	n/a	n/a	feedback	s585
346.298	1.0	0	PA_with_intermediate	n/a	test	ward_and_allport	n/a	-1.0	33.0	n/a	n/a	ITI	s585
347.307	1.774	1	PA_with_intermediate	0,0,0,1,2,0,0,0,0	test	ward_and_allport	0,0,0,1,0,0,2,3,0	71.0	34.0	1.774	0,0,0,1,2,3,0,0,0	to_hand	s585
349.082	0.665	0	PA_with_intermediate	3,0,0,1,2,0,0,0,0	test	ward_and_allport	0,0,0,1,0,0,2,3,0	89.0	34.0	0.665	0,0,0,1,2,3,0,0,0	to_board	s585
349.756	0.337	0	PA_with_intermediate	3,0,0,1,0,0,0,0,0	test	ward_and_allport	0,0,0,1,0,0,2,3,0	71.0	34.0	0.337	0,0,0,1,2,3,0,0,0	to_hand	s585
350.095	0.325	0	PA_with_intermediate	3,0,0,1,0,0,2,0,0	test	ward_and_allport	0,0,0,1,0,0,2,3,0	82.0	34.0	0.325	0,0,0,1,2,3,0,0,0	to_board	s585
350.428	0.352	0	PA_with_intermediate	0,0,0,1,0,0,2,0,0	test	ward_and_allport	0,0,0,1,0,0,2,3,0	89.0	34.0	0.352	0,0,0,1,2,3,0,0,0	to_hand	s585
350.781	0.33	0	PA_with_intermediate	0,0,0,1,0,0,2,3,0	test	ward_and_allport	0,0,0,1,0,0,2,3,0	82.0	34.0	0.33	0,0,0,1,2,3,0,0,0	to_board	s585
351.121	1.0	0	PA_with_intermediate	n/a	test	ward_and_allport	n/a	-1.0	34.0	n/a	n/a	feedback	s585
352.121	1.0	0	PA_with_intermediate	n/a	test	ward_and_allport	n/a	-1.0	34.0	n/a	n/a	ITI	s585
353.129	1.318	1	PA_without_intermediate	0,0,0,0,0,0,1,2,0	test	ward_and_allport	3,1,0,2,0,0,0,0,0	82.0	35.0	1.318	0,0,0,0,0,0,1,2,3	to_hand	s585
354.449	0.415	0	PA_without_intermediate	3,0,0,0,0,0,1,2,0	test	ward_and_allport	3,1,0,2,0,0,0,0,0	89.0	35.0	0.415	0,0,0,0,0,0,1,2,3	to_board	s585
354.871	2.832	0	PA_without_intermediate	3,0,0,0,0,0,1,0,0	test	ward_and_allport	3,1,0,2,0,0,0,0,0	82.0	35.0	2.832	0,0,0,0,0,0,1,2,3	to_hand	s585
357.704	0.457	0	PA_without_intermediate	3,0,0,2,0,0,1,0,0	test	ward_and_allport	3,1,0,2,0,0,0,0,0	71.0	35.0	0.457	0,0,0,0,0,0,1,2,3	to_board	s585
358.168	0.777	0	PA_without_intermediate	3,0,0,2,0,0,0,0,0	test	ward_and_allport	3,1,0,2,0,0,0,0,0	82.0	35.0	0.777	0,0,0,0,0,0,1,2,3	to_hand	s585
358.946	0.373	0	PA_without_intermediate	3,1,0,2,0,0,0,0,0	test	ward_and_allport	3,1,0,2,0,0,0,0,0	89.0	35.0	0.373	0,0,0,0,0,0,1,2,3	to_board	s585
359.332	1.0	0	PA_without_intermediate	n/a	test	ward_and_allport	n/a	-1.0	35.0	n/a	n/a	feedback	s585
360.332	1.408	0	PA_without_intermediate	n/a	test	ward_and_allport	n/a	-1.0	35.0	n/a	n/a	ITI	s585
361.752	1.624	1	PA_with_intermediate	0,0,0,0,0,0,1,2,0	test	ward_and_allport	0,0,0,2,0,0,1,3,0	82.0	36.0	1.624	0,0,0,0,0,0,1,2,3	to_hand	s585
363.377	1.111	0	PA_with_intermediate	3,0,0,0,0,0,1,2,0	test	ward_and_allport	0,0,0,2,0,0,1,3,0	89.0	36.0	1.111	0,0,0,0,0,0,1,2,3	to_board	s585
364.499	0.709	0	PA_with_intermediate	3,0,0,0,0,0,1,0,0	test	ward_and_allport	0,0,0,2,0,0,1,3,0	82.0	36.0	0.709	0,0,0,0,0,0,1,2,3	to_hand	s585
365.208	0.491	0	PA_with_intermediate	3,0,0,2,0,0,1,0,0	test	ward_and_allport	0,0,0,2,0,0,1,3,0	71.0	36.0	0.491	0,0,0,0,0,0,1,2,3	to_board	s585
365.707	0.475	0	PA_with_intermediate	0,0,0,2,0,0,1,0,0	test	ward_and_allport	0,0,0,2,0,0,1,3,0	89.0	36.0	0.475	0,0,0,0,0,0,1,2,3	to_hand	s585
366.185	0.322	0	PA_with_intermediate	0,0,0,2,0,0,1,3,0	test	ward_and_allport	0,0,0,2,0,0,1,3,0	82.0	36.0	0.322	0,0,0,0,0,0,1,2,3	to_board	s585
366.518	1.0	0	PA_with_intermediate	n/a	test	ward_and_allport	n/a	-1.0	36.0	n/a	n/a	feedback	s585
367.518	2.768	0	PA_with_intermediate	n/a	test	ward_and_allport	n/a	-1.0	36.0	n/a	n/a	ITI	s585
370.294	1.217	1	PA_with_intermediate	0,0,0,0,0,0,1,2,0	test	ward_and_allport	0,0,0,2,3,0,1,0,0	82.0	37.0	1.217	0,0,0,0,0,0,1,2,3	to_hand	s585
371.513	1.908	0	PA_with_intermediate	3,0,0,0,0,0,1,2,0	test	ward_and_allport	0,0,0,2,3,0,1,0,0	89.0	37.0	1.908	0,0,0,0,0,0,1,2,3	to_board	s585
373.432	0.462	0	PA_with_intermediate	3,0,0,0,0,0,1,0,0	test	ward_and_allport	0,0,0,2,3,0,1,0,0	82.0	37.0	0.462	0,0,0,0,0,0,1,2,3	to_hand	s585
373.895	0.678	0	PA_with_intermediate	3,0,0,2,0,0,1,0,0	test	ward_and_allport	0,0,0,2,3,0,1,0,0	71.0	37.0	0.678	0,0,0,0,0,0,1,2,3	to_board	s585
374.586	0.382	0	PA_with_intermediate	0,0,0,2,0,0,1,0,0	test	ward_and_allport	0,0,0,2,3,0,1,0,0	89.0	37.0	0.382	0,0,0,0,0,0,1,2,3	to_hand	s585
374.97	0.367	0	PA_with_intermediate	0,0,0,2,3,0,1,0,0	test	ward_and_allport	0,0,0,2,3,0,1,0,0	71.0	37.0	0.367	0,0,0,0,0,0,1,2,3	to_board	s585
375.348	1.0	0	PA_with_intermediate	n/a	test	ward_and_allport	n/a	-1.0	37.0	n/a	n/a	feedback	s585
376.348	1.68	0	PA_with_intermediate	n/a	test	ward_and_allport	n/a	-1.0	37.0	n/a	n/a	ITI	s585
378.037	1.449	1	PA_without_intermediate	1,2,0,0,0,0,0,0,0	test	ward_and_allport	0,0,0,2,0,0,3,1,0	89.0	38.0	1.449	1,2,3,0,0,0,0,0,0	to_hand	s585
379.488	0.427	0	PA_without_intermediate	1,2,0,0,0,0,3,0,0	test	ward_and_allport	0,0,0,2,0,0,3,1,0	82.0	38.0	0.427	1,2,3,0,0,0,0,0,0	to_board	s585
379.924	0.776	0	PA_without_intermediate	1,0,0,0,0,0,3,0,0	test	ward_and_allport	0,0,0,2,0,0,3,1,0	89.0	38.0	0.776	1,2,3,0,0,0,0,0,0	to_hand	s585
380.702	0.857	0	PA_without_intermediate	1,0,0,2,0,0,3,0,0	test	ward_and_allport	0,0,0,2,0,0,3,1,0	71.0	38.0	0.857	1,2,3,0,0,0,0,0,0	to_board	s585
381.568	0.36	0	PA_without_intermediate	0,0,0,2,0,0,3,0,0	test	ward_and_allport	0,0,0,2,0,0,3,1,0	89.0	38.0	0.36	1,2,3,0,0,0,0,0,0	to_hand	s585
381.93	0.248	0	PA_without_intermediate	0,0,0,2,0,0,3,1,0	test	ward_and_allport	0,0,0,2,0,0,3,1,0	82.0	38.0	0.248	1,2,3,0,0,0,0,0,0	to_board	s585
382.192	1.0	0	PA_without_intermediate	n/a	test	ward_and_allport	n/a	-1.0	38.0	n/a	n/a	feedback	s585
383.192	2.224	0	PA_without_intermediate	n/a	test	ward_and_allport	n/a	-1.0	38.0	n/a	n/a	ITI	s585
385.427	1.02	1	PA_without_intermediate	1,2,0,0,0,0,0,0,0	test	ward_and_allport	0,0,0,3,2,0,1,0,0	89.0	39.0	1.02	1,2,3,0,0,0,0,0,0	to_hand	s585
386.449	0.354	0	PA_without_intermediate	1,2,0,3,0,0,0,0,0	test	ward_and_allport	0,0,0,3,2,0,1,0,0	71.0	39.0	0.354	1,2,3,0,0,0,0,0,0	to_board	s585
386.814	0.484	0	PA_without_intermediate	1,0,0,3,0,0,0,0,0	test	ward_and_allport	0,0,0,3,2,0,1,0,0	89.0	39.0	0.484	1,2,3,0,0,0,0,0,0	to_hand	s585
387.299	0.278	0	PA_without_intermediate	1,0,0,3,2,0,0,0,0	test	ward_and_allport	0,0,0,3,2,0,1,0,0	71.0	39.0	0.278	1,2,3,0,0,0,0,0,0	to_board	s585
387.586	0.449	0	PA_without_intermediate	0,0,0,3,2,0,0,0,0	test	ward_and_allport	0,0,0,3,2,0,1,0,0	89.0	39.0	0.449	1,2,3,0,0,0,0,0,0	to_hand	s585
388.035	0.486	0	PA_without_intermediate	0,0,0,3,2,0,1,0,0	test	ward_and_allport	0,0,0,3,2,0,1,0,0	82.0	39.0	0.486	1,2,3,0,0,0,0,0,0	to_board	s585
388.532	1.0	0	PA_without_intermediate	n/a	test	ward_and_allport	n/a	-1.0	39.0	n/a	n/a	feedback	s585
389.532	2.36	0	PA_without_intermediate	n/a	test	ward_and_allport	n/a	-1.0	39.0	n/a	n/a	ITI	s585
391.904	3.469	1	PA_without_intermediate	0,0,0,1,2,0,0,0,0	test	ward_and_allport	1,0,0,0,0,0,3,2,0	71.0	40.0	3.469	0,0,0,1,2,3,0,0,0	to_hand	s585
395.374	0.357	0	PA_without_intermediate	0,0,0,1,2,0,3,0,0	test	ward_and_allport	1,0,0,0,0,0,3,2,0	82.0	40.0	0.357	0,0,0,1,2,3,0,0,0	to_board	s585
395.74	1.555	0	PA_without_intermediate	0,0,0,1,0,0,3,0,0	test	ward_and_allport	1,0,0,0,0,0,3,2,0	71.0	40.0	1.555	0,0,0,1,2,3,0,0,0	to_hand	s585
397.296	0.397	0	PA_without_intermediate	0,0,0,1,0,0,3,2,0	test	ward_and_allport	1,0,0,0,0,0,3,2,0	82.0	40.0	0.397	0,0,0,1,2,3,0,0,0	to_board	s585
397.703	0.663	0	PA_without_intermediate	0,0,0,0,0,0,3,2,0	test	ward_and_allport	1,0,0,0,0,0,3,2,0	71.0	40.0	0.663	0,0,0,1,2,3,0,0,0	to_hand	s585
398.367	0.327	0	PA_without_intermediate	1,0,0,0,0,0,3,2,0	test	ward_and_allport	1,0,0,0,0,0,3,2,0	89.0	40.0	0.327	0,0,0,1,2,3,0,0,0	to_board	s585
398.707	1.0	0	PA_without_intermediate	n/a	test	ward_and_allport	n/a	-1.0	40.0	n/a	n/a	feedback	s585
399.707	1.0	0	PA_without_intermediate	n/a	test	ward_and_allport	n/a	-1.0	40.0	n/a	n/a	ITI	s585
400.72	2.063	1	PA_without_intermediate	0,0,0,0,0,0,1,2,0	test	ward_and_allport	3,2,0,1,0,0,0,0,0	82.0	41.0	2.063	0,0,0,0,0,0,1,2,3	to_hand	s585
402.785	0.354	0	PA_without_intermediate	3,0,0,0,0,0,1,2,0	test	ward_and_allport	3,2,0,1,0,0,0,0,0	89.0	41.0	0.354	0,0,0,0,0,0,1,2,3	to_board	s585
403.152	2.2	0	PA_without_intermediate	3,0,0,0,0,0,1,0,0	test	ward_and_allport	3,2,0,1,0,0,0,0,0	82.0	41.0	2.2	0,0,0,0,0,0,1,2,3	to_hand	s585
405.353	0.377	0	PA_without_intermediate	3,2,0,0,0,0,1,0,0	test	ward_and_allport	3,2,0,1,0,0,0,0,0	89.0	41.0	0.377	0,0,0,0,0,0,1,2,3	to_board	s585
405.741	1.479	0	PA_without_intermediate	3,2,0,0,0,0,0,0,0	test	ward_and_allport	3,2,0,1,0,0,0,0,0	82.0	41.0	1.479	0,0,0,0,0,0,1,2,3	to_hand	s585
407.221	0.434	0	PA_without_intermediate	3,2,0,1,0,0,0,0,0	test	ward_and_allport	3,2,0,1,0,0,0,0,0	71.0	41.0	0.434	0,0,0,0,0,0,1,2,3	to_board	s585
407.665	1.0	0	PA_without_intermediate	n/a	test	ward_and_allport	n/a	-1.0	41.0	n/a	n/a	feedback	s585
408.665	1.408	0	PA_without_intermediate	n/a	test	ward_and_allport	n/a	-1.0	41.0	n/a	n/a	ITI	s585
410.083	1.917	1	PA_with_intermediate	0,0,0,0,0,0,1,2,0	test	ward_and_allport	2,3,0,0,0,0,1,0,0	82.0	42.0	1.917	0,0,0,0,0,0,1,2,3	to_hand	s585
412.001	1.16	0	PA_with_intermediate	0,0,0,3,0,0,1,2,0	test	ward_and_allport	2,3,0,0,0,0,1,0,0	71.0	42.0	1.16	0,0,0,0,0,0,1,2,3	to_board	s585
413.173	0.476	0	PA_with_intermediate	0,0,0,3,0,0,1,0,0	test	ward_and_allport	2,3,0,0,0,0,1,0,0	82.0	42.0	0.476	0,0,0,0,0,0,1,2,3	to_hand	s585
413.65	0.44	0	PA_with_intermediate	2,0,0,3,0,0,1,0,0	test	ward_and_allport	2,3,0,0,0,0,1,0,0	89.0	42.0	0.44	0,0,0,0,0,0,1,2,3	to_board	s585
414.103	0.504	0	PA_with_intermediate	2,0,0,0,0,0,1,0,0	test	ward_and_allport	2,3,0,0,0,0,1,0,0	71.0	42.0	0.504	0,0,0,0,0,0,1,2,3	to_hand	s585
414.608	0.375	0	PA_with_intermediate	2,3,0,0,0,0,1,0,0	test	ward_and_allport	2,3,0,0,0,0,1,0,0	89.0	42.0	0.375	0,0,0,0,0,0,1,2,3	to_board	s585
414.998	1.0	0	PA_with_intermediate	n/a	test	ward_and_allport	n/a	-1.0	42.0	n/a	n/a	feedback	s585
415.998	1.136	0	PA_with_intermediate	n/a	test	ward_and_allport	n/a	-1.0	42.0	n/a	n/a	ITI	s585
417.143	1.032	1	PA_without_intermediate	0,0,0,1,2,0,0,0,0	test	ward_and_allport	1,0,0,0,0,0,3,2,0	71.0	43.0	1.032	0,0,0,1,2,3,0,0,0	to_hand	s585
418.177	0.622	0	PA_without_intermediate	0,0,0,1,2,0,3,0,0	test	ward_and_allport	1,0,0,0,0,0,3,2,0	82.0	43.0	0.622	0,0,0,1,2,3,0,0,0	to_board	s585
418.808	0.766	0	PA_without_intermediate	0,0,0,1,0,0,3,0,0	test	ward_and_allport	1,0,0,0,0,0,3,2,0	71.0	43.0	0.766	0,0,0,1,2,3,0,0,0	to_hand	s585
419.575	0.344	0	PA_without_intermediate	0,0,0,1,0,0,3,2,0	test	ward_and_allport	1,0,0,0,0,0,3,2,0	82.0	43.0	0.344	0,0,0,1,2,3,0,0,0	to_board	s585
419.927	0.734	0	PA_without_intermediate	0,0,0,0,0,0,3,2,0	test	ward_and_allport	1,0,0,0,0,0,3,2,0	71.0	43.0	0.734	0,0,0,1,2,3,0,0,0	to_hand	s585
420.662	0.392	0	PA_without_intermediate	1,0,0,0,0,0,3,2,0	test	ward_and_allport	1,0,0,0,0,0,3,2,0	89.0	43.0	0.392	0,0,0,1,2,3,0,0,0	to_board	s585
421.067	1.0	0	PA_without_intermediate	n/a	test	ward_and_allport	n/a	-1.0	43.0	n/a	n/a	feedback	s585
422.067	4.128	0	PA_without_intermediate	n/a	test	ward_and_allport	n/a	-1.0	43.0	n/a	n/a	ITI	s585
426.205	2.53	1	PA_without_intermediate	1,2,0,0,0,0,0,0,0	test	ward_and_allport	0,0,0,1,0,0,3,2,0	89.0	44.0	2.53	1,2,3,0,0,0,0,0,0	to_hand	s585
428.737	0.38	0	PA_without_intermediate	1,2,0,0,0,0,3,0,0	test	ward_and_allport	0,0,0,1,0,0,3,2,0	82.0	44.0	0.38	1,2,3,0,0,0,0,0,0	to_board	s585
429.13	0.455	0	PA_without_intermediate	1,0,0,0,0,0,3,0,0	test	ward_and_allport	0,0,0,1,0,0,3,2,0	89.0	44.0	0.455	1,2,3,0,0,0,0,0,0	to_hand	s585
429.586	0.648	0	PA_without_intermediate	1,0,0,0,0,0,3,2,0	test	ward_and_allport	0,0,0,1,0,0,3,2,0	82.0	44.0	0.648	1,2,3,0,0,0,0,0,0	to_board	s585
430.248	0.778	0	PA_without_intermediate	0,0,0,0,0,0,3,2,0	test	ward_and_allport	0,0,0,1,0,0,3,2,0	89.0	44.0	0.778	1,2,3,0,0,0,0,0,0	to_hand	s585
431.028	0.624	0	PA_without_intermediate	0,0,0,1,0,0,3,2,0	test	ward_and_allport	0,0,0,1,0,0,3,2,0	71.0	44.0	0.624	1,2,3,0,0,0,0,0,0	to_board	s585
431.665	1.0	0	PA_without_intermediate	n/a	test	ward_and_allport	n/a	-1.0	44.0	n/a	n/a	feedback	s585
432.665	1.136	0	PA_without_intermediate	n/a	test	ward_and_allport	n/a	-1.0	44.0	n/a	n/a	ITI	s585
438.819	1.868	1	PA_without_intermediate	1,2,0,0,0,0,0,0,0	test	ward_and_allport	0,0,0,3,2,0,1,0,0	89.0	45.0	1.868	1,2,3,0,0,0,0,0,0	to_hand	s585
440.689	0.388	0	PA_without_intermediate	1,2,0,3,0,0,0,0,0	test	ward_and_allport	0,0,0,3,2,0,1,0,0	71.0	45.0	0.388	1,2,3,0,0,0,0,0,0	to_board	s585
441.09	0.41	0	PA_without_intermediate	1,0,0,3,0,0,0,0,0	test	ward_and_allport	0,0,0,3,2,0,1,0,0	89.0	45.0	0.41	1,2,3,0,0,0,0,0,0	to_hand	s585
441.501	0.307	0	PA_without_intermediate	1,0,0,3,2,0,0,0,0	test	ward_and_allport	0,0,0,3,2,0,1,0,0	71.0	45.0	0.307	1,2,3,0,0,0,0,0,0	to_board	s585
441.824	0.372	0	PA_without_intermediate	0,0,0,3,2,0,0,0,0	test	ward_and_allport	0,0,0,3,2,0,1,0,0	89.0	45.0	0.372	1,2,3,0,0,0,0,0,0	to_hand	s585
442.197	0.354	0	PA_without_intermediate	0,0,0,3,2,0,1,0,0	test	ward_and_allport	0,0,0,3,2,0,1,0,0	82.0	45.0	0.354	1,2,3,0,0,0,0,0,0	to_board	s585
442.57	1.0	0	PA_without_intermediate	n/a	test	ward_and_allport	n/a	-1.0	45.0	n/a	n/a	feedback	s585
443.57	4.264	0	PA_without_intermediate	n/a	test	ward_and_allport	n/a	-1.0	45.0	n/a	n/a	ITI	s585
447.844	1.654	1	PA_with_intermediate	1,2,0,0,0,0,0,0,0	test	ward_and_allport	1,0,0,2,3,0,0,0,0	89.0	46.0	1.654	1,2,3,0,0,0,0,0,0	to_hand	s585
449.499	0.329	0	PA_with_intermediate	1,2,0,3,0,0,0,0,0	test	ward_and_allport	1,0,0,2,3,0,0,0,0	71.0	46.0	0.329	1,2,3,0,0,0,0,0,0	to_board	s585
449.841	1.069	0	PA_with_intermediate	1,2,0,0,0,0,0,0,0	test	ward_and_allport	1,0,0,2,3,0,0,0,0	71.0	46.0	1.069	1,2,3,0,0,0,0,0,0	to_hand	s585
450.912	0.387	0	PA_with_intermediate	1,2,0,0,0,0,3,0,0	test	ward_and_allport	1,0,0,2,3,0,0,0,0	82.0	46.0	0.387	1,2,3,0,0,0,0,0,0	to_board	s585
451.315	0.371	0	PA_with_intermediate	1,0,0,0,0,0,3,0,0	test	ward_and_allport	1,0,0,2,3,0,0,0,0	89.0	46.0	0.371	1,2,3,0,0,0,0,0,0	to_hand	s585
451.687	0.441	0	PA_with_intermediate	1,0,0,2,0,0,3,0,0	test	ward_and_allport	1,0,0,2,3,0,0,0,0	71.0	46.0	0.441	1,2,3,0,0,0,0,0,0	to_board	s585
452.142	0.363	0	PA_with_intermediate	1,0,0,2,0,0,0,0,0	test	ward_and_allport	1,0,0,2,3,0,0,0,0	82.0	46.0	0.363	1,2,3,0,0,0,0,0,0	to_hand	s585
452.506	0.428	0	PA_with_intermediate	1,0,0,2,3,0,0,0,0	test	ward_and_allport	1,0,0,2,3,0,0,0,0	71.0	46.0	0.428	1,2,3,0,0,0,0,0,0	to_board	s585
452.945	1.0	0	PA_with_intermediate	n/a	test	ward_and_allport	n/a	-1.0	46.0	n/a	n/a	feedback	s585
453.945	3.04	0	PA_with_intermediate	n/a	test	ward_and_allport	n/a	-1.0	46.0	n/a	n/a	ITI	s585
456.995	2.478	1	PA_with_intermediate	0,0,0,1,2,0,0,0,0	test	ward_and_allport	0,0,0,1,0,0,2,3,0	71.0	47.0	2.478	0,0,0,1,2,3,0,0,0	to_hand	s585
459.474	0.31	0	PA_with_intermediate	3,0,0,1,2,0,0,0,0	test	ward_and_allport	0,0,0,1,0,0,2,3,0	89.0	47.0	0.31	0,0,0,1,2,3,0,0,0	to_board	s585
459.794	0.518	0	PA_with_intermediate	3,0,0,1,0,0,0,0,0	test	ward_and_allport	0,0,0,1,0,0,2,3,0	71.0	47.0	0.518	0,0,0,1,2,3,0,0,0	to_hand	s585
460.313	0.408	0	PA_with_intermediate	3,0,0,1,0,0,2,0,0	test	ward_and_allport	0,0,0,1,0,0,2,3,0	82.0	47.0	0.408	0,0,0,1,2,3,0,0,0	to_board	s585
460.734	0.399	0	PA_with_intermediate	0,0,0,1,0,0,2,0,0	test	ward_and_allport	0,0,0,1,0,0,2,3,0	89.0	47.0	0.399	0,0,0,1,2,3,0,0,0	to_hand	s585
461.135	0.422	0	PA_with_intermediate	0,0,0,1,0,0,2,3,0	test	ward_and_allport	0,0,0,1,0,0,2,3,0	82.0	47.0	0.422	0,0,0,1,2,3,0,0,0	to_board	s585
461.576	1.0	0	PA_with_intermediate	n/a	test	ward_and_allport	n/a	-1.0	47.0	n/a	n/a	feedback	s585
462.576	1.136	0	PA_with_intermediate	n/a	test	ward_and_allport	n/a	-1.0	47.0	n/a	n/a	ITI	s585
n/a	n/a	0	n/a	n/a	n/a	n/a	n/a	n/a	n/a	n/a	n/a	ITI	n/a
