onset	duration	planning	condition	current_position	exp_stage	experiment_exp_id	goal_state	key_press	problem_id	response_time	start_state	trial_id	worker_id
-113.318	0.0	0	n/a	n/a	n/a	ward_and_allport	n/a	32.0	n/a	12.756	n/a	instructions	s495
3.018	4.678	1	UA_with_intermediate	1,0,0,2,0,0,0,0,0	practice	ward_and_allport	1,2,3,0,0,0,0,0,0	71.0	0.0	4.678	1,0,0,2,3,0,0,0,0	to_hand	s495
7.7	1.577	0	UA_with_intermediate	1,0,0,2,0,0,3,0,0	practice	ward_and_allport	1,2,3,0,0,0,0,0,0	82.0	0.0	1.577	1,0,0,2,3,0,0,0,0	to_board	s495
9.281	0.678	0	UA_with_intermediate	1,0,0,0,0,0,3,0,0	practice	ward_and_allport	1,2,3,0,0,0,0,0,0	71.0	0.0	0.678	1,0,0,2,3,0,0,0,0	to_hand	s495
9.963	0.454	0	UA_with_intermediate	1,2,0,0,0,0,3,0,0	practice	ward_and_allport	1,2,3,0,0,0,0,0,0	89.0	0.0	0.454	1,0,0,2,3,0,0,0,0	to_board	s495
10.42	1.345	0	UA_with_intermediate	1,0,0,0,0,0,3,0,0	practice	ward_and_allport	1,2,3,0,0,0,0,0,0	89.0	0.0	1.345	1,0,0,2,3,0,0,0,0	to_hand	s495
11.768	1.559	0	UA_with_intermediate	1,2,0,0,0,0,3,0,0	practice	ward_and_allport	1,2,3,0,0,0,0,0,0	89.0	0.0	1.559	1,0,0,2,3,0,0,0,0	to_board	s495
13.331	0.628	0	UA_with_intermediate	1,2,0,0,0,0,0,0,0	practice	ward_and_allport	1,2,3,0,0,0,0,0,0	82.0	0.0	0.628	1,0,0,2,3,0,0,0,0	to_hand	s495
13.962	0.426	0	UA_with_intermediate	1,2,3,0,0,0,0,0,0	practice	ward_and_allport	1,2,3,0,0,0,0,0,0	89.0	0.0	0.426	1,0,0,2,3,0,0,0,0	to_board	s495
14.394	1.0	0	UA_with_intermediate	n/a	practice	ward_and_allport	n/a	-1.0	0.0	n/a	n/a	feedback	s495
16.899	4.234	1	UA_with_intermediate	1,0,0,3,0,0,0,0,0	practice	ward_and_allport	1,3,2,0,0,0,0,0,0	89.0	1.0	4.234	1,2,0,3,0,0,0,0,0	to_hand	s495
21.137	0.614	0	UA_with_intermediate	1,0,0,3,0,0,2,0,0	practice	ward_and_allport	1,3,2,0,0,0,0,0,0	82.0	1.0	0.614	1,2,0,3,0,0,0,0,0	to_board	s495
21.754	0.781	0	UA_with_intermediate	1,0,0,0,0,0,2,0,0	practice	ward_and_allport	1,3,2,0,0,0,0,0,0	71.0	1.0	0.781	1,2,0,3,0,0,0,0,0	to_hand	s495
22.537	0.435	0	UA_with_intermediate	1,3,0,0,0,0,2,0,0	practice	ward_and_allport	1,3,2,0,0,0,0,0,0	89.0	1.0	0.435	1,2,0,3,0,0,0,0,0	to_board	s495
22.975	0.561	0	UA_with_intermediate	1,3,0,0,0,0,0,0,0	practice	ward_and_allport	1,3,2,0,0,0,0,0,0	82.0	1.0	0.561	1,2,0,3,0,0,0,0,0	to_hand	s495
23.539	0.615	0	UA_with_intermediate	1,3,2,0,0,0,0,0,0	practice	ward_and_allport	1,3,2,0,0,0,0,0,0	89.0	1.0	0.615	1,2,0,3,0,0,0,0,0	to_board	s495
24.16	1.0	0	UA_with_intermediate	n/a	practice	ward_and_allport	n/a	-1.0	1.0	n/a	n/a	feedback	s495
25.16	1.1	0	UA_with_intermediate	n/a	practice	ward_and_allport	n/a	-1.0	1.0	n/a	n/a	ITI	s495
26.267	2.934	1	UA_without_intermediate	0,0,0,1,2,0,0,0,0	practice	ward_and_allport	3,2,1,0,0,0,0,0,0	82.0	2.0	2.934	0,0,0,1,2,0,3,0,0	to_hand	s495
29.204	0.687	0	UA_without_intermediate	3,0,0,1,2,0,0,0,0	practice	ward_and_allport	3,2,1,0,0,0,0,0,0	89.0	2.0	0.687	0,0,0,1,2,0,3,0,0	to_board	s495
29.895	0.933	0	UA_without_intermediate	3,0,0,1,0,0,0,0,0	practice	ward_and_allport	3,2,1,0,0,0,0,0,0	71.0	2.0	0.933	0,0,0,1,2,0,3,0,0	to_hand	s495
30.83	0.436	0	UA_without_intermediate	3,2,0,1,0,0,0,0,0	practice	ward_and_allport	3,2,1,0,0,0,0,0,0	89.0	2.0	0.436	0,0,0,1,2,0,3,0,0	to_board	s495
31.272	0.742	0	UA_without_intermediate	3,2,0,0,0,0,0,0,0	practice	ward_and_allport	3,2,1,0,0,0,0,0,0	71.0	2.0	0.742	0,0,0,1,2,0,3,0,0	to_hand	s495
32.017	0.422	0	UA_without_intermediate	3,2,1,0,0,0,0,0,0	practice	ward_and_allport	3,2,1,0,0,0,0,0,0	89.0	2.0	0.422	0,0,0,1,2,0,3,0,0	to_board	s495
32.444	1.0	0	UA_without_intermediate	n/a	practice	ward_and_allport	n/a	-1.0	2.0	n/a	n/a	feedback	s495
33.444	1.2	0	UA_without_intermediate	n/a	practice	ward_and_allport	n/a	-1.0	2.0	n/a	n/a	ITI	s495
34.648	2.346	1	UA_without_intermediate	0,0,0,1,0,0,3,0,0	practice	ward_and_allport	2,3,1,0,0,0,0,0,0	71.0	3.0	2.346	0,0,0,1,2,0,3,0,0	to_hand	s495
36.997	0.631	0	UA_without_intermediate	2,0,0,1,0,0,3,0,0	practice	ward_and_allport	2,3,1,0,0,0,0,0,0	89.0	3.0	0.631	0,0,0,1,2,0,3,0,0	to_board	s495
37.632	0.648	0	UA_without_intermediate	0,0,0,1,0,0,3,0,0	practice	ward_and_allport	2,3,1,0,0,0,0,0,0	89.0	3.0	0.648	0,0,0,1,2,0,3,0,0	to_hand	s495
38.282	0.779	0	UA_without_intermediate	2,0,0,1,0,0,3,0,0	practice	ward_and_allport	2,3,1,0,0,0,0,0,0	89.0	3.0	0.779	0,0,0,1,2,0,3,0,0	to_board	s495
39.065	0.474	0	UA_without_intermediate	0,0,0,1,0,0,3,0,0	practice	ward_and_allport	2,3,1,0,0,0,0,0,0	89.0	3.0	0.474	0,0,0,1,2,0,3,0,0	to_hand	s495
39.541	0.554	0	UA_without_intermediate	2,0,0,1,0,0,3,0,0	practice	ward_and_allport	2,3,1,0,0,0,0,0,0	89.0	3.0	0.554	0,0,0,1,2,0,3,0,0	to_board	s495
40.099	0.892	0	UA_without_intermediate	2,0,0,1,0,0,0,0,0	practice	ward_and_allport	2,3,1,0,0,0,0,0,0	82.0	3.0	0.892	0,0,0,1,2,0,3,0,0	to_hand	s495
40.994	0.491	0	UA_without_intermediate	2,3,0,1,0,0,0,0,0	practice	ward_and_allport	2,3,1,0,0,0,0,0,0	89.0	3.0	0.491	0,0,0,1,2,0,3,0,0	to_board	s495
41.49	0.472	0	UA_without_intermediate	2,3,0,0,0,0,0,0,0	practice	ward_and_allport	2,3,1,0,0,0,0,0,0	71.0	3.0	0.472	0,0,0,1,2,0,3,0,0	to_hand	s495
41.964	0.438	0	UA_without_intermediate	2,3,1,0,0,0,0,0,0	practice	ward_and_allport	2,3,1,0,0,0,0,0,0	89.0	3.0	0.438	0,0,0,1,2,0,3,0,0	to_board	s495
42.409	1.0	0	UA_without_intermediate	n/a	practice	ward_and_allport	n/a	-1.0	3.0	n/a	n/a	feedback	s495
43.409	1.0	0	UA_without_intermediate	n/a	practice	ward_and_allport	n/a	-1.0	3.0	n/a	n/a	ITI	s495
46.42	3.079	1	PA_without_intermediate	0,0,0,0,0,0,1,2,0	test	ward_and_allport	3,2,0,1,0,0,0,0,0	82.0	0.0	3.079	0,0,0,0,0,0,1,2,3	to_hand	s495
49.501	0.621	0	PA_without_intermediate	3,0,0,0,0,0,1,2,0	test	ward_and_allport	3,2,0,1,0,0,0,0,0	89.0	0.0	0.621	0,0,0,0,0,0,1,2,3	to_board	s495
50.128	0.926	0	PA_without_intermediate	3,0,0,0,0,0,1,0,0	test	ward_and_allport	3,2,0,1,0,0,0,0,0	82.0	0.0	0.926	0,0,0,0,0,0,1,2,3	to_hand	s495
51.056	0.581	0	PA_without_intermediate	3,2,0,0,0,0,1,0,0	test	ward_and_allport	3,2,0,1,0,0,0,0,0	89.0	0.0	0.581	0,0,0,0,0,0,1,2,3	to_board	s495
51.642	0.802	0	PA_without_intermediate	3,2,0,0,0,0,0,0,0	test	ward_and_allport	3,2,0,1,0,0,0,0,0	82.0	0.0	0.802	0,0,0,0,0,0,1,2,3	to_hand	s495
52.447	0.447	0	PA_without_intermediate	3,2,0,1,0,0,0,0,0	test	ward_and_allport	3,2,0,1,0,0,0,0,0	71.0	0.0	0.447	0,0,0,0,0,0,1,2,3	to_board	s495
52.899	1.0	0	PA_without_intermediate	n/a	test	ward_and_allport	n/a	-1.0	0.0	n/a	n/a	feedback	s495
53.899	2.088	0	PA_without_intermediate	n/a	test	ward_and_allport	n/a	-1.0	0.0	n/a	n/a	ITI	s495
55.993	4.803	1	PA_with_intermediate	0,0,0,0,0,0,1,2,0	test	ward_and_allport	0,0,0,2,0,0,1,3,0	82.0	1.0	4.803	0,0,0,0,0,0,1,2,3	to_hand	s495
60.799	0.926	0	PA_with_intermediate	3,0,0,0,0,0,1,2,0	test	ward_and_allport	0,0,0,2,0,0,1,3,0	89.0	1.0	0.926	0,0,0,0,0,0,1,2,3	to_board	s495
61.73	0.687	0	PA_with_intermediate	3,0,0,0,0,0,1,0,0	test	ward_and_allport	0,0,0,2,0,0,1,3,0	82.0	1.0	0.687	0,0,0,0,0,0,1,2,3	to_hand	s495
62.419	0.45	0	PA_with_intermediate	3,0,0,2,0,0,1,0,0	test	ward_and_allport	0,0,0,2,0,0,1,3,0	71.0	1.0	0.45	0,0,0,0,0,0,1,2,3	to_board	s495
62.876	0.423	0	PA_with_intermediate	0,0,0,2,0,0,1,0,0	test	ward_and_allport	0,0,0,2,0,0,1,3,0	89.0	1.0	0.423	0,0,0,0,0,0,1,2,3	to_hand	s495
63.302	0.394	0	PA_with_intermediate	0,0,0,2,0,0,1,3,0	test	ward_and_allport	0,0,0,2,0,0,1,3,0	82.0	1.0	0.394	0,0,0,0,0,0,1,2,3	to_board	s495
63.703	1.0	0	PA_with_intermediate	n/a	test	ward_and_allport	n/a	-1.0	1.0	n/a	n/a	feedback	s495
64.703	1.0	0	PA_with_intermediate	n/a	test	ward_and_allport	n/a	-1.0	1.0	n/a	n/a	ITI	s495
65.708	3.186	1	PA_without_intermediate	0,0,0,0,0,0,1,2,0	test	ward_and_allport	2,0,0,3,1,0,0,0,0	82.0	2.0	3.186	0,0,0,0,0,0,1,2,3	to_hand	s495
68.897	0.414	0	PA_without_intermediate	0,0,0,3,0,0,1,2,0	test	ward_and_allport	2,0,0,3,1,0,0,0,0	71.0	2.0	0.414	0,0,0,0,0,0,1,2,3	to_board	s495
69.319	0.659	0	PA_without_intermediate	0,0,0,3,0,0,1,0,0	test	ward_and_allport	2,0,0,3,1,0,0,0,0	82.0	2.0	0.659	0,0,0,0,0,0,1,2,3	to_hand	s495
69.979	0.495	0	PA_without_intermediate	2,0,0,3,0,0,1,0,0	test	ward_and_allport	2,0,0,3,1,0,0,0,0	89.0	2.0	0.495	0,0,0,0,0,0,1,2,3	to_board	s495
70.482	0.5	0	PA_without_intermediate	2,0,0,3,0,0,0,0,0	test	ward_and_allport	2,0,0,3,1,0,0,0,0	82.0	2.0	0.5	0,0,0,0,0,0,1,2,3	to_hand	s495
70.986	0.407	0	PA_without_intermediate	2,0,0,3,1,0,0,0,0	test	ward_and_allport	2,0,0,3,1,0,0,0,0	71.0	2.0	0.407	0,0,0,0,0,0,1,2,3	to_board	s495
71.4	1.0	0	PA_without_intermediate	n/a	test	ward_and_allport	n/a	-1.0	2.0	n/a	n/a	feedback	s495
72.4	1.0	0	PA_without_intermediate	n/a	test	ward_and_allport	n/a	-1.0	2.0	n/a	n/a	ITI	s495
73.406	2.557	1	PA_without_intermediate	0,0,0,0,0,0,1,2,0	test	ward_and_allport	3,2,0,1,0,0,0,0,0	82.0	3.0	2.557	0,0,0,0,0,0,1,2,3	to_hand	s495
75.965	0.358	0	PA_without_intermediate	3,0,0,0,0,0,1,2,0	test	ward_and_allport	3,2,0,1,0,0,0,0,0	89.0	3.0	0.358	0,0,0,0,0,0,1,2,3	to_board	s495
76.329	0.394	0	PA_without_intermediate	3,0,0,0,0,0,1,0,0	test	ward_and_allport	3,2,0,1,0,0,0,0,0	82.0	3.0	0.394	0,0,0,0,0,0,1,2,3	to_hand	s495
76.725	0.513	0	PA_without_intermediate	3,2,0,0,0,0,1,0,0	test	ward_and_allport	3,2,0,1,0,0,0,0,0	89.0	3.0	0.513	0,0,0,0,0,0,1,2,3	to_board	s495
77.245	0.481	0	PA_without_intermediate	3,2,0,0,0,0,0,0,0	test	ward_and_allport	3,2,0,1,0,0,0,0,0	82.0	3.0	0.481	0,0,0,0,0,0,1,2,3	to_hand	s495
77.727	0.355	0	PA_without_intermediate	3,2,0,1,0,0,0,0,0	test	ward_and_allport	3,2,0,1,0,0,0,0,0	71.0	3.0	0.355	0,0,0,0,0,0,1,2,3	to_board	s495
78.09	1.0	0	PA_without_intermediate	n/a	test	ward_and_allport	n/a	-1.0	3.0	n/a	n/a	feedback	s495
79.09	1.0	0	PA_without_intermediate	n/a	test	ward_and_allport	n/a	-1.0	3.0	n/a	n/a	ITI	s495
80.095	2.455	1	PA_with_intermediate	0,0,0,0,0,0,1,2,0	test	ward_and_allport	2,3,0,0,0,0,1,0,0	82.0	4.0	2.455	0,0,0,0,0,0,1,2,3	to_hand	s495
82.552	2.131	0	PA_with_intermediate	0,0,0,3,0,0,1,2,0	test	ward_and_allport	2,3,0,0,0,0,1,0,0	71.0	4.0	2.131	0,0,0,0,0,0,1,2,3	to_board	s495
84.692	1.668	0	PA_with_intermediate	0,0,0,3,0,0,1,0,0	test	ward_and_allport	2,3,0,0,0,0,1,0,0	82.0	4.0	1.668	0,0,0,0,0,0,1,2,3	to_hand	s495
86.363	0.461	0	PA_with_intermediate	2,0,0,3,0,0,1,0,0	test	ward_and_allport	2,3,0,0,0,0,1,0,0	89.0	4.0	0.461	0,0,0,0,0,0,1,2,3	to_board	s495
86.832	0.423	0	PA_with_intermediate	2,0,0,0,0,0,1,0,0	test	ward_and_allport	2,3,0,0,0,0,1,0,0	71.0	4.0	0.423	0,0,0,0,0,0,1,2,3	to_hand	s495
87.258	0.324	0	PA_with_intermediate	2,3,0,0,0,0,1,0,0	test	ward_and_allport	2,3,0,0,0,0,1,0,0	89.0	4.0	0.324	0,0,0,0,0,0,1,2,3	to_board	s495
87.591	1.0	0	PA_with_intermediate	n/a	test	ward_and_allport	n/a	-1.0	4.0	n/a	n/a	feedback	s495
88.591	1.544	0	PA_with_intermediate	n/a	test	ward_and_allport	n/a	-1.0	4.0	n/a	n/a	ITI	s495
90.142	3.021	1	PA_without_intermediate	1,2,0,0,0,0,0,0,0	test	ward_and_allport	0,0,0,3,1,0,2,0,0	89.0	5.0	3.021	1,2,3,0,0,0,0,0,0	to_hand	s495
93.165	0.61	0	PA_without_intermediate	1,2,3,0,0,0,0,0,0	test	ward_and_allport	0,0,0,3,1,0,2,0,0	89.0	5.0	0.61	1,2,3,0,0,0,0,0,0	to_board	s495
93.782	0.557	0	PA_without_intermediate	1,2,0,0,0,0,0,0,0	test	ward_and_allport	0,0,0,3,1,0,2,0,0	89.0	5.0	0.557	1,2,3,0,0,0,0,0,0	to_hand	s495
94.341	0.462	0	PA_without_intermediate	1,2,0,3,0,0,0,0,0	test	ward_and_allport	0,0,0,3,1,0,2,0,0	71.0	5.0	0.462	1,2,3,0,0,0,0,0,0	to_board	s495
94.81	0.544	0	PA_without_intermediate	1,0,0,3,0,0,0,0,0	test	ward_and_allport	0,0,0,3,1,0,2,0,0	89.0	5.0	0.544	1,2,3,0,0,0,0,0,0	to_hand	s495
95.357	0.49	0	PA_without_intermediate	1,0,0,3,0,0,2,0,0	test	ward_and_allport	0,0,0,3,1,0,2,0,0	82.0	5.0	0.49	1,2,3,0,0,0,0,0,0	to_board	s495
95.854	0.493	0	PA_without_intermediate	0,0,0,3,0,0,2,0,0	test	ward_and_allport	0,0,0,3,1,0,2,0,0	89.0	5.0	0.493	1,2,3,0,0,0,0,0,0	to_hand	s495
96.351	0.36	0	PA_without_intermediate	0,0,0,3,1,0,2,0,0	test	ward_and_allport	0,0,0,3,1,0,2,0,0	71.0	5.0	0.36	1,2,3,0,0,0,0,0,0	to_board	s495
96.721	1.0	0	PA_without_intermediate	n/a	test	ward_and_allport	n/a	-1.0	5.0	n/a	n/a	feedback	s495
97.721	1.272	0	PA_without_intermediate	n/a	test	ward_and_allport	n/a	-1.0	5.0	n/a	n/a	ITI	s495
99.002	4.716	1	PA_with_intermediate	0,0,0,1,2,0,0,0,0	test	ward_and_allport	2,3,0,1,0,0,0,0,0	71.0	6.0	4.716	0,0,0,1,2,3,0,0,0	to_hand	s495
103.72	0.42	0	PA_with_intermediate	0,0,0,1,2,0,3,0,0	test	ward_and_allport	2,3,0,1,0,0,0,0,0	82.0	6.0	0.42	0,0,0,1,2,3,0,0,0	to_board	s495
104.147	0.362	0	PA_with_intermediate	0,0,0,1,0,0,3,0,0	test	ward_and_allport	2,3,0,1,0,0,0,0,0	71.0	6.0	0.362	0,0,0,1,2,3,0,0,0	to_hand	s495
104.511	0.315	0	PA_with_intermediate	2,0,0,1,0,0,3,0,0	test	ward_and_allport	2,3,0,1,0,0,0,0,0	89.0	6.0	0.315	0,0,0,1,2,3,0,0,0	to_board	s495
104.834	0.354	0	PA_with_intermediate	2,0,0,1,0,0,0,0,0	test	ward_and_allport	2,3,0,1,0,0,0,0,0	82.0	6.0	0.354	0,0,0,1,2,3,0,0,0	to_hand	s495
105.19	0.25	0	PA_with_intermediate	2,3,0,1,0,0,0,0,0	test	ward_and_allport	2,3,0,1,0,0,0,0,0	89.0	6.0	0.25	0,0,0,1,2,3,0,0,0	to_board	s495
105.449	1.0	0	PA_with_intermediate	n/a	test	ward_and_allport	n/a	-1.0	6.0	n/a	n/a	feedback	s495
106.449	3.04	0	PA_with_intermediate	n/a	test	ward_and_allport	n/a	-1.0	6.0	n/a	n/a	ITI	s495
109.498	3.051	1	PA_with_intermediate	0,0,0,1,2,0,0,0,0	test	ward_and_allport	2,0,0,1,3,0,0,0,0	71.0	7.0	3.051	0,0,0,1,2,3,0,0,0	to_hand	s495
112.551	0.398	0	PA_with_intermediate	0,0,0,1,2,0,3,0,0	test	ward_and_allport	2,0,0,1,3,0,0,0,0	82.0	7.0	0.398	0,0,0,1,2,3,0,0,0	to_board	s495
112.96	0.351	0	PA_with_intermediate	0,0,0,1,0,0,3,0,0	test	ward_and_allport	2,0,0,1,3,0,0,0,0	71.0	7.0	0.351	0,0,0,1,2,3,0,0,0	to_hand	s495
113.314	0.309	0	PA_with_intermediate	2,0,0,1,0,0,3,0,0	test	ward_and_allport	2,0,0,1,3,0,0,0,0	89.0	7.0	0.309	0,0,0,1,2,3,0,0,0	to_board	s495
113.633	0.359	0	PA_with_intermediate	2,0,0,1,0,0,0,0,0	test	ward_and_allport	2,0,0,1,3,0,0,0,0	82.0	7.0	0.359	0,0,0,1,2,3,0,0,0	to_hand	s495
113.994	0.285	0	PA_with_intermediate	2,0,0,1,3,0,0,0,0	test	ward_and_allport	2,0,0,1,3,0,0,0,0	71.0	7.0	0.285	0,0,0,1,2,3,0,0,0	to_board	s495
114.291	1.0	0	PA_with_intermediate	n/a	test	ward_and_allport	n/a	-1.0	7.0	n/a	n/a	feedback	s495
115.291	1.272	0	PA_with_intermediate	n/a	test	ward_and_allport	n/a	-1.0	7.0	n/a	n/a	ITI	s495
116.572	3.465	1	PA_with_intermediate	0,0,0,1,2,0,0,0,0	test	ward_and_allport	0,0,0,1,0,0,2,3,0	71.0	8.0	3.465	0,0,0,1,2,3,0,0,0	to_hand	s495
120.038	0.259	0	PA_with_intermediate	3,0,0,1,2,0,0,0,0	test	ward_and_allport	0,0,0,1,0,0,2,3,0	89.0	8.0	0.259	0,0,0,1,2,3,0,0,0	to_board	s495
120.304	0.374	0	PA_with_intermediate	3,0,0,1,0,0,0,0,0	test	ward_and_allport	0,0,0,1,0,0,2,3,0	71.0	8.0	0.374	0,0,0,1,2,3,0,0,0	to_hand	s495
120.681	0.312	0	PA_with_intermediate	3,0,0,1,0,0,2,0,0	test	ward_and_allport	0,0,0,1,0,0,2,3,0	82.0	8.0	0.312	0,0,0,1,2,3,0,0,0	to_board	s495
121.001	0.288	0	PA_with_intermediate	0,0,0,1,0,0,2,0,0	test	ward_and_allport	0,0,0,1,0,0,2,3,0	89.0	8.0	0.288	0,0,0,1,2,3,0,0,0	to_hand	s495
121.292	0.24	0	PA_with_intermediate	0,0,0,1,0,0,2,3,0	test	ward_and_allport	0,0,0,1,0,0,2,3,0	82.0	8.0	0.24	0,0,0,1,2,3,0,0,0	to_board	s495
121.542	1.0	0	PA_with_intermediate	n/a	test	ward_and_allport	n/a	-1.0	8.0	n/a	n/a	feedback	s495
122.542	1.136	0	PA_with_intermediate	n/a	test	ward_and_allport	n/a	-1.0	8.0	n/a	n/a	ITI	s495
123.688	3.316	1	PA_with_intermediate	0,0,0,0,0,0,1,2,0	test	ward_and_allport	0,0,0,2,0,0,1,3,0	82.0	9.0	3.316	0,0,0,0,0,0,1,2,3	to_hand	s495
127.006	0.356	0	PA_with_intermediate	3,0,0,0,0,0,1,2,0	test	ward_and_allport	0,0,0,2,0,0,1,3,0	89.0	9.0	0.356	0,0,0,0,0,0,1,2,3	to_board	s495
127.369	0.766	0	PA_with_intermediate	3,0,0,0,0,0,1,0,0	test	ward_and_allport	0,0,0,2,0,0,1,3,0	82.0	9.0	0.766	0,0,0,0,0,0,1,2,3	to_hand	s495
128.138	0.302	0	PA_with_intermediate	3,0,0,2,0,0,1,0,0	test	ward_and_allport	0,0,0,2,0,0,1,3,0	71.0	9.0	0.302	0,0,0,0,0,0,1,2,3	to_board	s495
128.451	0.262	0	PA_with_intermediate	0,0,0,2,0,0,1,0,0	test	ward_and_allport	0,0,0,2,0,0,1,3,0	89.0	9.0	0.262	0,0,0,0,0,0,1,2,3	to_hand	s495
128.716	0.27	0	PA_with_intermediate	0,0,0,2,0,0,1,3,0	test	ward_and_allport	0,0,0,2,0,0,1,3,0	82.0	9.0	0.27	0,0,0,0,0,0,1,2,3	to_board	s495
128.996	1.0	0	PA_with_intermediate	n/a	test	ward_and_allport	n/a	-1.0	9.0	n/a	n/a	feedback	s495
129.996	1.0	0	PA_with_intermediate	n/a	test	ward_and_allport	n/a	-1.0	9.0	n/a	n/a	ITI	s495
131.007	4.05	1	PA_with_intermediate	0,0,0,0,0,0,1,2,0	test	ward_and_allport	0,0,0,2,3,0,1,0,0	82.0	10.0	4.05	0,0,0,0,0,0,1,2,3	to_hand	s495
135.059	0.339	0	PA_with_intermediate	3,0,0,0,0,0,1,2,0	test	ward_and_allport	0,0,0,2,3,0,1,0,0	89.0	10.0	0.339	0,0,0,0,0,0,1,2,3	to_board	s495
135.411	0.523	0	PA_with_intermediate	3,0,0,0,0,0,1,0,0	test	ward_and_allport	0,0,0,2,3,0,1,0,0	82.0	10.0	0.523	0,0,0,0,0,0,1,2,3	to_hand	s495
135.936	0.309	0	PA_with_intermediate	3,0,0,2,0,0,1,0,0	test	ward_and_allport	0,0,0,2,3,0,1,0,0	71.0	10.0	0.309	0,0,0,0,0,0,1,2,3	to_board	s495
136.254	0.257	0	PA_with_intermediate	0,0,0,2,0,0,1,0,0	test	ward_and_allport	0,0,0,2,3,0,1,0,0	89.0	10.0	0.257	0,0,0,0,0,0,1,2,3	to_hand	s495
136.514	0.278	0	PA_with_intermediate	0,0,0,2,3,0,1,0,0	test	ward_and_allport	0,0,0,2,3,0,1,0,0	71.0	10.0	0.278	0,0,0,0,0,0,1,2,3	to_board	s495
136.804	1.0	0	PA_with_intermediate	n/a	test	ward_and_allport	n/a	-1.0	10.0	n/a	n/a	feedback	s495
137.804	1.0	0	PA_with_intermediate	n/a	test	ward_and_allport	n/a	-1.0	10.0	n/a	n/a	ITI	s495
138.814	4.125	1	PA_without_intermediate	0,0,0,0,0,0,1,2,0	test	ward_and_allport	1,0,0,3,2,0,0,0,0	82.0	11.0	4.125	0,0,0,0,0,0,1,2,3	to_hand	s495
142.941	0.323	0	PA_without_intermediate	0,0,0,3,0,0,1,2,0	test	ward_and_allport	1,0,0,3,2,0,0,0,0	71.0	11.0	0.323	0,0,0,0,0,0,1,2,3	to_board	s495
143.275	0.401	0	PA_without_intermediate	0,0,0,3,0,0,1,0,0	test	ward_and_allport	1,0,0,3,2,0,0,0,0	82.0	11.0	0.401	0,0,0,0,0,0,1,2,3	to_hand	s495
143.678	0.35	0	PA_without_intermediate	0,0,0,3,2,0,1,0,0	test	ward_and_allport	1,0,0,3,2,0,0,0,0	71.0	11.0	0.35	0,0,0,0,0,0,1,2,3	to_board	s495
144.04	0.375	0	PA_without_intermediate	0,0,0,3,2,0,0,0,0	test	ward_and_allport	1,0,0,3,2,0,0,0,0	82.0	11.0	0.375	0,0,0,0,0,0,1,2,3	to_hand	s495
144.417	0.24	0	PA_without_intermediate	1,0,0,3,2,0,0,0,0	test	ward_and_allport	1,0,0,3,2,0,0,0,0	89.0	11.0	0.24	0,0,0,0,0,0,1,2,3	to_board	s495
144.67	1.0	0	PA_without_intermediate	n/a	test	ward_and_allport	n/a	-1.0	11.0	n/a	n/a	feedback	s495
145.67	1.408	0	PA_without_intermediate	n/a	test	ward_and_allport	n/a	-1.0	11.0	n/a	n/a	ITI	s495
147.089	3.059	1	PA_with_intermediate	0,0,0,1,2,0,0,0,0	test	ward_and_allport	0,0,0,1,3,0,2,0,0	71.0	12.0	3.059	0,0,0,1,2,3,0,0,0	to_hand	s495
150.15	0.272	0	PA_with_intermediate	3,0,0,1,2,0,0,0,0	test	ward_and_allport	0,0,0,1,3,0,2,0,0	89.0	12.0	0.272	0,0,0,1,2,3,0,0,0	to_board	s495
150.432	0.371	0	PA_with_intermediate	3,0,0,1,0,0,0,0,0	test	ward_and_allport	0,0,0,1,3,0,2,0,0	71.0	12.0	0.371	0,0,0,1,2,3,0,0,0	to_hand	s495
150.806	0.302	0	PA_with_intermediate	3,0,0,1,0,0,2,0,0	test	ward_and_allport	0,0,0,1,3,0,2,0,0	82.0	12.0	0.302	0,0,0,1,2,3,0,0,0	to_board	s495
151.118	0.294	0	PA_with_intermediate	0,0,0,1,0,0,2,0,0	test	ward_and_allport	0,0,0,1,3,0,2,0,0	89.0	12.0	0.294	0,0,0,1,2,3,0,0,0	to_hand	s495
151.414	0.23	0	PA_with_intermediate	0,0,0,1,3,0,2,0,0	test	ward_and_allport	0,0,0,1,3,0,2,0,0	71.0	12.0	0.23	0,0,0,1,2,3,0,0,0	to_board	s495
151.656	1.0	0	PA_with_intermediate	n/a	test	ward_and_allport	n/a	-1.0	12.0	n/a	n/a	feedback	s495
152.656	2.768	0	PA_with_intermediate	n/a	test	ward_and_allport	n/a	-1.0	12.0	n/a	n/a	ITI	s495
155.432	3.477	1	PA_with_intermediate	1,2,0,0,0,0,0,0,0	test	ward_and_allport	1,3,0,2,0,0,0,0,0	89.0	13.0	3.477	1,2,3,0,0,0,0,0,0	to_hand	s495
158.916	0.356	0	PA_with_intermediate	1,2,0,0,0,0,3,0,0	test	ward_and_allport	1,3,0,2,0,0,0,0,0	82.0	13.0	0.356	1,2,3,0,0,0,0,0,0	to_board	s495
159.283	0.948	0	PA_with_intermediate	1,0,0,0,0,0,3,0,0	test	ward_and_allport	1,3,0,2,0,0,0,0,0	89.0	13.0	0.948	1,2,3,0,0,0,0,0,0	to_hand	s495
160.233	0.404	0	PA_with_intermediate	1,0,0,2,0,0,3,0,0	test	ward_and_allport	1,3,0,2,0,0,0,0,0	71.0	13.0	0.404	1,2,3,0,0,0,0,0,0	to_board	s495
160.647	0.35	0	PA_with_intermediate	1,0,0,2,0,0,0,0,0	test	ward_and_allport	1,3,0,2,0,0,0,0,0	82.0	13.0	0.35	1,2,3,0,0,0,0,0,0	to_hand	s495
161.0	0.326	0	PA_with_intermediate	1,3,0,2,0,0,0,0,0	test	ward_and_allport	1,3,0,2,0,0,0,0,0	89.0	13.0	0.326	1,2,3,0,0,0,0,0,0	to_board	s495
161.342	1.0	0	PA_with_intermediate	n/a	test	ward_and_allport	n/a	-1.0	13.0	n/a	n/a	feedback	s495
162.342	1.68	0	PA_with_intermediate	n/a	test	ward_and_allport	n/a	-1.0	13.0	n/a	n/a	ITI	s495
164.032	3.214	1	PA_without_intermediate	0,0,0,1,2,0,0,0,0	test	ward_and_allport	3,2,0,0,0,0,1,0,0	71.0	14.0	3.214	0,0,0,1,2,3,0,0,0	to_hand	s495
167.248	0.453	0	PA_without_intermediate	3,0,0,1,2,0,0,0,0	test	ward_and_allport	3,2,0,0,0,0,1,0,0	89.0	14.0	0.453	0,0,0,1,2,3,0,0,0	to_board	s495
167.711	0.476	0	PA_without_intermediate	3,0,0,1,0,0,0,0,0	test	ward_and_allport	3,2,0,0,0,0,1,0,0	71.0	14.0	0.476	0,0,0,1,2,3,0,0,0	to_hand	s495
168.19	0.326	0	PA_without_intermediate	3,2,0,1,0,0,0,0,0	test	ward_and_allport	3,2,0,0,0,0,1,0,0	89.0	14.0	0.326	0,0,0,1,2,3,0,0,0	to_board	s495
168.528	0.29	0	PA_without_intermediate	3,2,0,0,0,0,0,0,0	test	ward_and_allport	3,2,0,0,0,0,1,0,0	71.0	14.0	0.29	0,0,0,1,2,3,0,0,0	to_hand	s495
168.82	0.382	0	PA_without_intermediate	3,2,0,0,0,0,1,0,0	test	ward_and_allport	3,2,0,0,0,0,1,0,0	82.0	14.0	0.382	0,0,0,1,2,3,0,0,0	to_board	s495
169.212	1.0	0	PA_without_intermediate	n/a	test	ward_and_allport	n/a	-1.0	14.0	n/a	n/a	feedback	s495
170.212	2.224	0	PA_without_intermediate	n/a	test	ward_and_allport	n/a	-1.0	14.0	n/a	n/a	ITI	s495
177.452	3.581	1	PA_without_intermediate	1,2,0,0,0,0,0,0,0	test	ward_and_allport	0,0,0,2,0,0,3,1,0	89.0	15.0	3.581	1,2,3,0,0,0,0,0,0	to_hand	s495
181.035	0.499	0	PA_without_intermediate	1,2,0,0,0,0,3,0,0	test	ward_and_allport	0,0,0,2,0,0,3,1,0	82.0	15.0	0.499	1,2,3,0,0,0,0,0,0	to_board	s495
181.546	0.627	0	PA_without_intermediate	1,0,0,0,0,0,3,0,0	test	ward_and_allport	0,0,0,2,0,0,3,1,0	89.0	15.0	0.627	1,2,3,0,0,0,0,0,0	to_hand	s495
182.175	0.349	0	PA_without_intermediate	1,0,0,2,0,0,3,0,0	test	ward_and_allport	0,0,0,2,0,0,3,1,0	71.0	15.0	0.349	1,2,3,0,0,0,0,0,0	to_board	s495
182.537	0.291	0	PA_without_intermediate	0,0,0,2,0,0,3,0,0	test	ward_and_allport	0,0,0,2,0,0,3,1,0	89.0	15.0	0.291	1,2,3,0,0,0,0,0,0	to_hand	s495
182.831	0.574	0	PA_without_intermediate	0,0,0,2,0,0,3,1,0	test	ward_and_allport	0,0,0,2,0,0,3,1,0	82.0	15.0	0.574	1,2,3,0,0,0,0,0,0	to_board	s495
183.419	1.0	0	PA_without_intermediate	n/a	test	ward_and_allport	n/a	-1.0	15.0	n/a	n/a	feedback	s495
184.419	2.36	0	PA_without_intermediate	n/a	test	ward_and_allport	n/a	-1.0	15.0	n/a	n/a	ITI	s495
186.792	3.951	1	PA_without_intermediate	0,0,0,0,0,0,1,2,0	test	ward_and_allport	3,1,0,2,0,0,0,0,0	82.0	16.0	3.951	0,0,0,0,0,0,1,2,3	to_hand	s495
190.744	0.38	0	PA_without_intermediate	3,0,0,0,0,0,1,2,0	test	ward_and_allport	3,1,0,2,0,0,0,0,0	89.0	16.0	0.38	0,0,0,0,0,0,1,2,3	to_board	s495
191.134	0.296	0	PA_without_intermediate	3,0,0,0,0,0,1,0,0	test	ward_and_allport	3,1,0,2,0,0,0,0,0	82.0	16.0	0.296	0,0,0,0,0,0,1,2,3	to_hand	s495
191.433	0.318	0	PA_without_intermediate	3,0,0,2,0,0,1,0,0	test	ward_and_allport	3,1,0,2,0,0,0,0,0	71.0	16.0	0.318	0,0,0,0,0,0,1,2,3	to_board	s495
191.766	0.285	0	PA_without_intermediate	3,0,0,2,0,0,0,0,0	test	ward_and_allport	3,1,0,2,0,0,0,0,0	82.0	16.0	0.285	0,0,0,0,0,0,1,2,3	to_hand	s495
192.054	0.211	0	PA_without_intermediate	3,1,0,2,0,0,0,0,0	test	ward_and_allport	3,1,0,2,0,0,0,0,0	89.0	16.0	0.211	0,0,0,0,0,0,1,2,3	to_board	s495
192.281	1.0	0	PA_without_intermediate	n/a	test	ward_and_allport	n/a	-1.0	16.0	n/a	n/a	feedback	s495
193.281	1.0	0	PA_without_intermediate	n/a	test	ward_and_allport	n/a	-1.0	16.0	n/a	n/a	ITI	s495
194.293	4.735	1	PA_without_intermediate	0,0,0,1,2,0,0,0,0	test	ward_and_allport	3,1,0,0,0,0,2,0,0	71.0	17.0	4.735	0,0,0,1,2,3,0,0,0	to_hand	s495
199.03	0.255	0	PA_without_intermediate	3,0,0,1,2,0,0,0,0	test	ward_and_allport	3,1,0,0,0,0,2,0,0	89.0	17.0	0.255	0,0,0,1,2,3,0,0,0	to_board	s495
199.298	0.275	0	PA_without_intermediate	3,0,0,1,0,0,0,0,0	test	ward_and_allport	3,1,0,0,0,0,2,0,0	71.0	17.0	0.275	0,0,0,1,2,3,0,0,0	to_hand	s495
199.575	0.291	0	PA_without_intermediate	3,0,0,1,0,0,2,0,0	test	ward_and_allport	3,1,0,0,0,0,2,0,0	82.0	17.0	0.291	0,0,0,1,2,3,0,0,0	to_board	s495
199.88	0.274	0	PA_without_intermediate	3,0,0,0,0,0,2,0,0	test	ward_and_allport	3,1,0,0,0,0,2,0,0	71.0	17.0	0.274	0,0,0,1,2,3,0,0,0	to_hand	s495
200.156	0.24	0	PA_without_intermediate	3,1,0,0,0,0,2,0,0	test	ward_and_allport	3,1,0,0,0,0,2,0,0	89.0	17.0	0.24	0,0,0,1,2,3,0,0,0	to_board	s495
200.409	1.0	0	PA_without_intermediate	n/a	test	ward_and_allport	n/a	-1.0	17.0	n/a	n/a	feedback	s495
201.409	1.408	0	PA_without_intermediate	n/a	test	ward_and_allport	n/a	-1.0	17.0	n/a	n/a	ITI	s495
202.831	3.362	1	PA_with_intermediate	1,2,0,0,0,0,0,0,0	test	ward_and_allport	1,0,0,0,0,0,2,3,0	89.0	18.0	3.362	1,2,3,0,0,0,0,0,0	to_hand	s495
206.196	0.245	0	PA_with_intermediate	1,2,0,3,0,0,0,0,0	test	ward_and_allport	1,0,0,0,0,0,2,3,0	71.0	18.0	0.245	1,2,3,0,0,0,0,0,0	to_board	s495
206.452	0.221	0	PA_with_intermediate	1,0,0,3,0,0,0,0,0	test	ward_and_allport	1,0,0,0,0,0,2,3,0	89.0	18.0	0.221	1,2,3,0,0,0,0,0,0	to_hand	s495
206.676	0.279	0	PA_with_intermediate	1,0,0,3,0,0,2,0,0	test	ward_and_allport	1,0,0,0,0,0,2,3,0	82.0	18.0	0.279	1,2,3,0,0,0,0,0,0	to_board	s495
206.968	0.316	0	PA_with_intermediate	1,0,0,0,0,0,2,0,0	test	ward_and_allport	1,0,0,0,0,0,2,3,0	71.0	18.0	0.316	1,2,3,0,0,0,0,0,0	to_hand	s495
207.286	0.241	0	PA_with_intermediate	1,0,0,0,0,0,2,3,0	test	ward_and_allport	1,0,0,0,0,0,2,3,0	82.0	18.0	0.241	1,2,3,0,0,0,0,0,0	to_board	s495
207.542	1.0	0	PA_with_intermediate	n/a	test	ward_and_allport	n/a	-1.0	18.0	n/a	n/a	feedback	s495
208.542	1.136	0	PA_with_intermediate	n/a	test	ward_and_allport	n/a	-1.0	18.0	n/a	n/a	ITI	s495
209.692	5.153	1	PA_without_intermediate	0,0,0,0,0,0,1,2,0	test	ward_and_allport	3,1,0,2,0,0,0,0,0	82.0	19.0	5.153	0,0,0,0,0,0,1,2,3	to_hand	s495
214.847	0.234	0	PA_without_intermediate	3,0,0,0,0,0,1,2,0	test	ward_and_allport	3,1,0,2,0,0,0,0,0	89.0	19.0	0.234	0,0,0,0,0,0,1,2,3	to_board	s495
215.092	0.498	0	PA_without_intermediate	3,0,0,0,0,0,1,0,0	test	ward_and_allport	3,1,0,2,0,0,0,0,0	82.0	19.0	0.498	0,0,0,0,0,0,1,2,3	to_hand	s495
215.593	0.237	0	PA_without_intermediate	3,0,0,2,0,0,1,0,0	test	ward_and_allport	3,1,0,2,0,0,0,0,0	71.0	19.0	0.237	0,0,0,0,0,0,1,2,3	to_board	s495
215.842	0.44	0	PA_without_intermediate	3,0,0,2,0,0,0,0,0	test	ward_and_allport	3,1,0,2,0,0,0,0,0	82.0	19.0	0.44	0,0,0,0,0,0,1,2,3	to_hand	s495
216.284	0.194	0	PA_without_intermediate	3,1,0,2,0,0,0,0,0	test	ward_and_allport	3,1,0,2,0,0,0,0,0	89.0	19.0	0.194	0,0,0,0,0,0,1,2,3	to_board	s495
216.495	1.0	0	PA_without_intermediate	n/a	test	ward_and_allport	n/a	-1.0	19.0	n/a	n/a	feedback	s495
217.495	4.128	0	PA_without_intermediate	n/a	test	ward_and_allport	n/a	-1.0	19.0	n/a	n/a	ITI	s495
221.636	2.956	1	PA_without_intermediate	0,0,0,1,2,0,0,0,0	test	ward_and_allport	1,0,0,0,0,0,3,2,0	71.0	20.0	2.956	0,0,0,1,2,3,0,0,0	to_hand	s495
224.595	0.276	0	PA_without_intermediate	0,0,0,1,2,0,3,0,0	test	ward_and_allport	1,0,0,0,0,0,3,2,0	82.0	20.0	0.276	0,0,0,1,2,3,0,0,0	to_board	s495
224.884	0.212	0	PA_without_intermediate	0,0,0,1,0,0,3,0,0	test	ward_and_allport	1,0,0,0,0,0,3,2,0	71.0	20.0	0.212	0,0,0,1,2,3,0,0,0	to_hand	s495
225.098	0.249	0	PA_without_intermediate	0,0,0,1,0,0,3,2,0	test	ward_and_allport	1,0,0,0,0,0,3,2,0	82.0	20.0	0.249	0,0,0,1,2,3,0,0,0	to_board	s495
225.36	0.5	0	PA_without_intermediate	0,0,0,0,0,0,3,2,0	test	ward_and_allport	1,0,0,0,0,0,3,2,0	71.0	20.0	0.5	0,0,0,1,2,3,0,0,0	to_hand	s495
225.862	0.194	0	PA_without_intermediate	1,0,0,0,0,0,3,2,0	test	ward_and_allport	1,0,0,0,0,0,3,2,0	89.0	20.0	0.194	0,0,0,1,2,3,0,0,0	to_board	s495
226.092	1.0	0	PA_without_intermediate	n/a	test	ward_and_allport	n/a	-1.0	20.0	n/a	n/a	feedback	s495
227.092	1.136	0	PA_without_intermediate	n/a	test	ward_and_allport	n/a	-1.0	20.0	n/a	n/a	ITI	s495
228.242	4.384	1	PA_without_intermediate	0,0,0,0,0,0,1,2,0	test	ward_and_allport	1,0,0,3,2,0,0,0,0	82.0	21.0	4.384	0,0,0,0,0,0,1,2,3	to_hand	s495
232.628	0.256	0	PA_without_intermediate	0,0,0,3,0,0,1,2,0	test	ward_and_allport	1,0,0,3,2,0,0,0,0	71.0	21.0	0.256	0,0,0,0,0,0,1,2,3	to_board	s495
232.899	0.218	0	PA_without_intermediate	0,0,0,3,0,0,1,0,0	test	ward_and_allport	1,0,0,3,2,0,0,0,0	82.0	21.0	0.218	0,0,0,0,0,0,1,2,3	to_hand	s495
233.118	0.283	0	PA_without_intermediate	0,0,0,3,2,0,1,0,0	test	ward_and_allport	1,0,0,3,2,0,0,0,0	71.0	21.0	0.283	0,0,0,0,0,0,1,2,3	to_board	s495
233.418	0.24	0	PA_without_intermediate	0,0,0,3,2,0,0,0,0	test	ward_and_allport	1,0,0,3,2,0,0,0,0	82.0	21.0	0.24	0,0,0,0,0,0,1,2,3	to_hand	s495
233.661	0.195	0	PA_without_intermediate	1,0,0,3,2,0,0,0,0	test	ward_and_allport	1,0,0,3,2,0,0,0,0	89.0	21.0	0.195	0,0,0,0,0,0,1,2,3	to_board	s495
233.874	1.0	0	PA_without_intermediate	n/a	test	ward_and_allport	n/a	-1.0	21.0	n/a	n/a	feedback	s495
234.874	4.264	0	PA_without_intermediate	n/a	test	ward_and_allport	n/a	-1.0	21.0	n/a	n/a	ITI	s495
239.153	2.885	1	PA_with_intermediate	1,2,0,0,0,0,0,0,0	test	ward_and_allport	1,3,0,0,0,0,2,0,0	89.0	22.0	2.885	1,2,3,0,0,0,0,0,0	to_hand	s495
242.04	0.216	0	PA_with_intermediate	1,2,0,3,0,0,0,0,0	test	ward_and_allport	1,3,0,0,0,0,2,0,0	71.0	22.0	0.216	1,2,3,0,0,0,0,0,0	to_board	s495
242.272	0.179	0	PA_with_intermediate	1,0,0,3,0,0,0,0,0	test	ward_and_allport	1,3,0,0,0,0,2,0,0	89.0	22.0	0.179	1,2,3,0,0,0,0,0,0	to_hand	s495
242.453	0.248	0	PA_with_intermediate	1,0,0,3,0,0,2,0,0	test	ward_and_allport	1,3,0,0,0,0,2,0,0	82.0	22.0	0.248	1,2,3,0,0,0,0,0,0	to_board	s495
242.724	0.449	0	PA_with_intermediate	1,0,0,0,0,0,2,0,0	test	ward_and_allport	1,3,0,0,0,0,2,0,0	71.0	22.0	0.449	1,2,3,0,0,0,0,0,0	to_hand	s495
243.176	0.145	0	PA_with_intermediate	1,3,0,0,0,0,2,0,0	test	ward_and_allport	1,3,0,0,0,0,2,0,0	89.0	22.0	0.145	1,2,3,0,0,0,0,0,0	to_board	s495
243.339	1.0	0	PA_with_intermediate	n/a	test	ward_and_allport	n/a	-1.0	22.0	n/a	n/a	feedback	s495
244.339	3.04	0	PA_with_intermediate	n/a	test	ward_and_allport	n/a	-1.0	22.0	n/a	n/a	ITI	s495
247.396	5.444	1	PA_with_intermediate	1,2,0,0,0,0,0,0,0	test	ward_and_allport	1,0,0,0,0,0,2,3,0	89.0	23.0	5.444	1,2,3,0,0,0,0,0,0	to_hand	s495
252.842	0.21	0	PA_with_intermediate	1,2,0,3,0,0,0,0,0	test	ward_and_allport	1,0,0,0,0,0,2,3,0	71.0	23.0	0.21	1,2,3,0,0,0,0,0,0	to_board	s495
253.072	0.207	0	PA_with_intermediate	1,0,0,3,0,0,0,0,0	test	ward_and_allport	1,0,0,0,0,0,2,3,0	89.0	23.0	0.207	1,2,3,0,0,0,0,0,0	to_hand	s495
253.282	0.339	0	PA_with_intermediate	1,0,0,3,0,0,2,0,0	test	ward_and_allport	1,0,0,0,0,0,2,3,0	82.0	23.0	0.339	1,2,3,0,0,0,0,0,0	to_board	s495
253.636	0.281	0	PA_with_intermediate	1,0,0,0,0,0,2,0,0	test	ward_and_allport	1,0,0,0,0,0,2,3,0	71.0	23.0	0.281	1,2,3,0,0,0,0,0,0	to_hand	s495
253.92	0.197	0	PA_with_intermediate	1,0,0,0,0,0,2,3,0	test	ward_and_allport	1,0,0,0,0,0,2,3,0	82.0	23.0	0.197	1,2,3,0,0,0,0,0,0	to_board	s495
254.133	1.0	0	PA_with_intermediate	n/a	test	ward_and_allport	n/a	-1.0	23.0	n/a	n/a	feedback	s495
255.133	1.136	0	PA_with_intermediate	n/a	test	ward_and_allport	n/a	-1.0	23.0	n/a	n/a	ITI	s495
256.287	4.452	1	PA_with_intermediate	0,0,0,0,0,0,1,2,0	test	ward_and_allport	0,0,0,2,3,0,1,0,0	82.0	24.0	4.452	0,0,0,0,0,0,1,2,3	to_hand	s495
260.741	0.235	0	PA_with_intermediate	3,0,0,0,0,0,1,2,0	test	ward_and_allport	0,0,0,2,3,0,1,0,0	89.0	24.0	0.235	0,0,0,0,0,0,1,2,3	to_board	s495
260.994	0.298	0	PA_with_intermediate	3,0,0,0,0,0,1,0,0	test	ward_and_allport	0,0,0,2,3,0,1,0,0	82.0	24.0	0.298	0,0,0,0,0,0,1,2,3	to_hand	s495
261.294	0.235	0	PA_with_intermediate	3,0,0,2,0,0,1,0,0	test	ward_and_allport	0,0,0,2,3,0,1,0,0	71.0	24.0	0.235	0,0,0,0,0,0,1,2,3	to_board	s495
261.545	0.252	0	PA_with_intermediate	0,0,0,2,0,0,1,0,0	test	ward_and_allport	0,0,0,2,3,0,1,0,0	89.0	24.0	0.252	0,0,0,0,0,0,1,2,3	to_hand	s495
261.799	0.255	0	PA_with_intermediate	0,0,0,2,3,0,1,0,0	test	ward_and_allport	0,0,0,2,3,0,1,0,0	71.0	24.0	0.255	0,0,0,0,0,0,1,2,3	to_board	s495
262.073	1.0	0	PA_with_intermediate	n/a	test	ward_and_allport	n/a	-1.0	24.0	n/a	n/a	feedback	s495
263.073	1.408	0	PA_with_intermediate	n/a	test	ward_and_allport	n/a	-1.0	24.0	n/a	n/a	ITI	s495
264.495	4.034	1	PA_without_intermediate	0,0,0,1,2,0,0,0,0	test	ward_and_allport	2,0,0,0,0,0,3,1,0	71.0	25.0	4.034	0,0,0,1,2,3,0,0,0	to_hand	s495
268.531	0.259	0	PA_without_intermediate	0,0,0,1,2,0,3,0,0	test	ward_and_allport	2,0,0,0,0,0,3,1,0	82.0	25.0	0.259	0,0,0,1,2,3,0,0,0	to_board	s495
268.81	0.204	0	PA_without_intermediate	0,0,0,1,0,0,3,0,0	test	ward_and_allport	2,0,0,0,0,0,3,1,0	71.0	25.0	0.204	0,0,0,1,2,3,0,0,0	to_hand	s495
269.017	0.205	0	PA_without_intermediate	2,0,0,1,0,0,3,0,0	test	ward_and_allport	2,0,0,0,0,0,3,1,0	89.0	25.0	0.205	0,0,0,1,2,3,0,0,0	to_board	s495
269.238	0.213	0	PA_without_intermediate	2,0,0,0,0,0,3,0,0	test	ward_and_allport	2,0,0,0,0,0,3,1,0	71.0	25.0	0.213	0,0,0,1,2,3,0,0,0	to_hand	s495
269.453	0.212	0	PA_without_intermediate	2,0,0,0,0,0,3,1,0	test	ward_and_allport	2,0,0,0,0,0,3,1,0	82.0	25.0	0.212	0,0,0,1,2,3,0,0,0	to_board	s495
269.685	1.0	0	PA_without_intermediate	n/a	test	ward_and_allport	n/a	-1.0	25.0	n/a	n/a	feedback	s495
270.685	1.68	0	PA_without_intermediate	n/a	test	ward_and_allport	n/a	-1.0	25.0	n/a	n/a	ITI	s495
272.383	2.86	1	PA_with_intermediate	0,0,0,1,2,0,0,0,0	test	ward_and_allport	0,0,0,1,3,0,2,0,0	71.0	26.0	2.86	0,0,0,1,2,3,0,0,0	to_hand	s495
275.246	0.215	0	PA_with_intermediate	3,0,0,1,2,0,0,0,0	test	ward_and_allport	0,0,0,1,3,0,2,0,0	89.0	26.0	0.215	0,0,0,1,2,3,0,0,0	to_board	s495
275.479	0.204	0	PA_with_intermediate	3,0,0,1,0,0,0,0,0	test	ward_and_allport	0,0,0,1,3,0,2,0,0	71.0	26.0	0.204	0,0,0,1,2,3,0,0,0	to_hand	s495
275.686	0.314	0	PA_with_intermediate	3,0,0,1,0,0,2,0,0	test	ward_and_allport	0,0,0,1,3,0,2,0,0	82.0	26.0	0.314	0,0,0,1,2,3,0,0,0	to_board	s495
276.018	0.387	0	PA_with_intermediate	0,0,0,1,0,0,2,0,0	test	ward_and_allport	0,0,0,1,3,0,2,0,0	89.0	26.0	0.387	0,0,0,1,2,3,0,0,0	to_hand	s495
276.408	0.187	0	PA_with_intermediate	0,0,0,1,3,0,2,0,0	test	ward_and_allport	0,0,0,1,3,0,2,0,0	71.0	26.0	0.187	0,0,0,1,2,3,0,0,0	to_board	s495
276.614	1.0	0	PA_with_intermediate	n/a	test	ward_and_allport	n/a	-1.0	26.0	n/a	n/a	feedback	s495
277.614	3.72	0	PA_with_intermediate	n/a	test	ward_and_allport	n/a	-1.0	26.0	n/a	n/a	ITI	s495
281.354	3.569	1	PA_without_intermediate	1,2,0,0,0,0,0,0,0	test	ward_and_allport	0,0,0,1,0,0,3,2,0	89.0	27.0	3.569	1,2,3,0,0,0,0,0,0	to_hand	s495
284.925	0.271	0	PA_without_intermediate	1,2,0,0,0,0,3,0,0	test	ward_and_allport	0,0,0,1,0,0,3,2,0	82.0	27.0	0.271	1,2,3,0,0,0,0,0,0	to_board	s495
285.215	0.259	0	PA_without_intermediate	1,0,0,0,0,0,3,0,0	test	ward_and_allport	0,0,0,1,0,0,3,2,0	89.0	27.0	0.259	1,2,3,0,0,0,0,0,0	to_hand	s495
285.476	0.304	0	PA_without_intermediate	1,0,0,0,0,0,3,2,0	test	ward_and_allport	0,0,0,1,0,0,3,2,0	82.0	27.0	0.304	1,2,3,0,0,0,0,0,0	to_board	s495
285.8	0.594	0	PA_without_intermediate	0,0,0,0,0,0,3,2,0	test	ward_and_allport	0,0,0,1,0,0,3,2,0	89.0	27.0	0.594	1,2,3,0,0,0,0,0,0	to_hand	s495
286.397	0.174	0	PA_without_intermediate	0,0,0,1,0,0,3,2,0	test	ward_and_allport	0,0,0,1,0,0,3,2,0	71.0	27.0	0.174	1,2,3,0,0,0,0,0,0	to_board	s495
286.592	1.0	0	PA_without_intermediate	n/a	test	ward_and_allport	n/a	-1.0	27.0	n/a	n/a	feedback	s495
287.592	2.224	0	PA_without_intermediate	n/a	test	ward_and_allport	n/a	-1.0	27.0	n/a	n/a	ITI	s495
289.836	2.937	1	PA_without_intermediate	0,0,0,1,2,0,0,0,0	test	ward_and_allport	3,2,0,0,0,0,1,0,0	71.0	28.0	2.937	0,0,0,1,2,3,0,0,0	to_hand	s495
292.775	0.264	0	PA_without_intermediate	3,0,0,1,2,0,0,0,0	test	ward_and_allport	3,2,0,0,0,0,1,0,0	89.0	28.0	0.264	0,0,0,1,2,3,0,0,0	to_board	s495
293.058	0.232	0	PA_without_intermediate	3,0,0,1,0,0,0,0,0	test	ward_and_allport	3,2,0,0,0,0,1,0,0	71.0	28.0	0.232	0,0,0,1,2,3,0,0,0	to_hand	s495
293.292	0.34	0	PA_without_intermediate	3,2,0,1,0,0,0,0,0	test	ward_and_allport	3,2,0,0,0,0,1,0,0	89.0	28.0	0.34	0,0,0,1,2,3,0,0,0	to_board	s495
293.649	0.225	0	PA_without_intermediate	3,2,0,0,0,0,0,0,0	test	ward_and_allport	3,2,0,0,0,0,1,0,0	71.0	28.0	0.225	0,0,0,1,2,3,0,0,0	to_hand	s495
293.876	0.239	0	PA_without_intermediate	3,2,0,0,0,0,1,0,0	test	ward_and_allport	3,2,0,0,0,0,1,0,0	82.0	28.0	0.239	0,0,0,1,2,3,0,0,0	to_board	s495
294.134	1.0	0	PA_without_intermediate	n/a	test	ward_and_allport	n/a	-1.0	28.0	n/a	n/a	feedback	s495
295.134	1.272	0	PA_without_intermediate	n/a	test	ward_and_allport	n/a	-1.0	28.0	n/a	n/a	ITI	s495
296.423	2.531	1	PA_with_intermediate	0,0,0,1,2,0,0,0,0	test	ward_and_allport	2,0,0,1,3,0,0,0,0	71.0	29.0	2.531	0,0,0,1,2,3,0,0,0	to_hand	s495
298.957	0.215	0	PA_with_intermediate	0,0,0,1,2,0,3,0,0	test	ward_and_allport	2,0,0,1,3,0,0,0,0	82.0	29.0	0.215	0,0,0,1,2,3,0,0,0	to_board	s495
299.191	0.215	0	PA_with_intermediate	0,0,0,1,0,0,3,0,0	test	ward_and_allport	2,0,0,1,3,0,0,0,0	71.0	29.0	0.215	0,0,0,1,2,3,0,0,0	to_hand	s495
299.408	0.205	0	PA_with_intermediate	2,0,0,1,0,0,3,0,0	test	ward_and_allport	2,0,0,1,3,0,0,0,0	89.0	29.0	0.205	0,0,0,1,2,3,0,0,0	to_board	s495
299.629	0.285	0	PA_with_intermediate	2,0,0,1,0,0,0,0,0	test	ward_and_allport	2,0,0,1,3,0,0,0,0	82.0	29.0	0.285	0,0,0,1,2,3,0,0,0	to_hand	s495
299.916	0.262	0	PA_with_intermediate	2,0,0,1,3,0,0,0,0	test	ward_and_allport	2,0,0,1,3,0,0,0,0	71.0	29.0	0.262	0,0,0,1,2,3,0,0,0	to_board	s495
300.196	1.0	0	PA_with_intermediate	n/a	test	ward_and_allport	n/a	-1.0	29.0	n/a	n/a	feedback	s495
301.196	2.632	0	PA_with_intermediate	n/a	test	ward_and_allport	n/a	-1.0	29.0	n/a	n/a	ITI	s495
308.852	4.476	1	PA_without_intermediate	0,0,0,1,2,0,0,0,0	test	ward_and_allport	2,0,0,0,0,0,3,1,0	71.0	30.0	4.476	0,0,0,1,2,3,0,0,0	to_hand	s495
313.33	0.252	0	PA_without_intermediate	0,0,0,1,2,0,3,0,0	test	ward_and_allport	2,0,0,0,0,0,3,1,0	82.0	30.0	0.252	0,0,0,1,2,3,0,0,0	to_board	s495
313.6	0.188	0	PA_without_intermediate	0,0,0,1,0,0,3,0,0	test	ward_and_allport	2,0,0,0,0,0,3,1,0	71.0	30.0	0.188	0,0,0,1,2,3,0,0,0	to_hand	s495
313.791	0.223	0	PA_without_intermediate	2,0,0,1,0,0,3,0,0	test	ward_and_allport	2,0,0,0,0,0,3,1,0	89.0	30.0	0.223	0,0,0,1,2,3,0,0,0	to_board	s495
314.032	0.207	0	PA_without_intermediate	2,0,0,0,0,0,3,0,0	test	ward_and_allport	2,0,0,0,0,0,3,1,0	71.0	30.0	0.207	0,0,0,1,2,3,0,0,0	to_hand	s495
314.241	0.191	0	PA_without_intermediate	2,0,0,0,0,0,3,1,0	test	ward_and_allport	2,0,0,0,0,0,3,1,0	82.0	30.0	0.191	0,0,0,1,2,3,0,0,0	to_board	s495
314.454	1.0	0	PA_without_intermediate	n/a	test	ward_and_allport	n/a	-1.0	30.0	n/a	n/a	feedback	s495
315.454	1.408	0	PA_without_intermediate	n/a	test	ward_and_allport	n/a	-1.0	30.0	n/a	n/a	ITI	s495
316.885	2.881	1	PA_without_intermediate	1,2,0,0,0,0,0,0,0	test	ward_and_allport	0,0,0,3,2,0,1,0,0	89.0	31.0	2.881	1,2,3,0,0,0,0,0,0	to_hand	s495
319.768	0.228	0	PA_without_intermediate	1,2,0,3,0,0,0,0,0	test	ward_and_allport	0,0,0,3,2,0,1,0,0	71.0	31.0	0.228	1,2,3,0,0,0,0,0,0	to_board	s495
320.016	0.188	0	PA_without_intermediate	1,0,0,3,0,0,0,0,0	test	ward_and_allport	0,0,0,3,2,0,1,0,0	89.0	31.0	0.188	1,2,3,0,0,0,0,0,0	to_hand	s495
320.206	0.216	0	PA_without_intermediate	1,0,0,3,2,0,0,0,0	test	ward_and_allport	0,0,0,3,2,0,1,0,0	71.0	31.0	0.216	1,2,3,0,0,0,0,0,0	to_board	s495
320.445	0.157	0	PA_without_intermediate	0,0,0,3,2,0,0,0,0	test	ward_and_allport	0,0,0,3,2,0,1,0,0	89.0	31.0	0.157	1,2,3,0,0,0,0,0,0	to_hand	s495
320.604	0.214	0	PA_without_intermediate	0,0,0,3,2,0,1,0,0	test	ward_and_allport	0,0,0,3,2,0,1,0,0	82.0	31.0	0.214	1,2,3,0,0,0,0,0,0	to_board	s495
320.835	1.0	0	PA_without_intermediate	n/a	test	ward_and_allport	n/a	-1.0	31.0	n/a	n/a	feedback	s495
321.835	1.0	0	PA_without_intermediate	n/a	test	ward_and_allport	n/a	-1.0	31.0	n/a	n/a	ITI	s495
322.849	3.24	1	PA_with_intermediate	0,0,0,1,2,0,0,0,0	test	ward_and_allport	2,3,0,1,0,0,0,0,0	71.0	32.0	3.24	0,0,0,1,2,3,0,0,0	to_hand	s495
326.091	0.252	0	PA_with_intermediate	0,0,0,1,2,0,3,0,0	test	ward_and_allport	2,3,0,1,0,0,0,0,0	82.0	32.0	0.252	0,0,0,1,2,3,0,0,0	to_board	s495
326.42	0.169	0	PA_with_intermediate	0,0,0,1,0,0,3,0,0	test	ward_and_allport	2,3,0,1,0,0,0,0,0	71.0	32.0	0.169	0,0,0,1,2,3,0,0,0	to_hand	s495
326.591	0.496	0	PA_with_intermediate	2,0,0,1,0,0,3,0,0	test	ward_and_allport	2,3,0,1,0,0,0,0,0	89.0	32.0	0.496	0,0,0,1,2,3,0,0,0	to_board	s495
327.107	0.221	0	PA_with_intermediate	2,0,0,1,0,0,0,0,0	test	ward_and_allport	2,3,0,1,0,0,0,0,0	82.0	32.0	0.221	0,0,0,1,2,3,0,0,0	to_hand	s495
327.329	0.214	0	PA_with_intermediate	2,3,0,1,0,0,0,0,0	test	ward_and_allport	2,3,0,1,0,0,0,0,0	89.0	32.0	0.214	0,0,0,1,2,3,0,0,0	to_board	s495
327.567	1.0	0	PA_with_intermediate	n/a	test	ward_and_allport	n/a	-1.0	32.0	n/a	n/a	feedback	s495
328.567	1.0	0	PA_with_intermediate	n/a	test	ward_and_allport	n/a	-1.0	32.0	n/a	n/a	ITI	s495
329.591	3.73	1	PA_with_intermediate	0,0,0,0,0,0,1,2,0	test	ward_and_allport	2,0,0,0,0,0,1,3,0	82.0	33.0	3.73	0,0,0,0,0,0,1,2,3	to_hand	s495
333.324	0.296	0	PA_with_intermediate	0,0,0,3,0,0,1,2,0	test	ward_and_allport	2,0,0,0,0,0,1,3,0	71.0	33.0	0.296	0,0,0,0,0,0,1,2,3	to_board	s495
333.642	0.204	0	PA_with_intermediate	0,0,0,3,0,0,1,0,0	test	ward_and_allport	2,0,0,0,0,0,1,3,0	82.0	33.0	0.204	0,0,0,0,0,0,1,2,3	to_hand	s495
333.848	0.193	0	PA_with_intermediate	2,0,0,3,0,0,1,0,0	test	ward_and_allport	2,0,0,0,0,0,1,3,0	89.0	33.0	0.193	0,0,0,0,0,0,1,2,3	to_board	s495
334.064	0.368	0	PA_with_intermediate	2,0,0,0,0,0,1,0,0	test	ward_and_allport	2,0,0,0,0,0,1,3,0	71.0	33.0	0.368	0,0,0,0,0,0,1,2,3	to_hand	s495
334.435	0.177	0	PA_with_intermediate	2,0,0,0,0,0,1,3,0	test	ward_and_allport	2,0,0,0,0,0,1,3,0	82.0	33.0	0.177	0,0,0,0,0,0,1,2,3	to_board	s495
334.633	1.0	0	PA_with_intermediate	n/a	test	ward_and_allport	n/a	-1.0	33.0	n/a	n/a	feedback	s495
335.633	1.0	0	PA_with_intermediate	n/a	test	ward_and_allport	n/a	-1.0	33.0	n/a	n/a	ITI	s495
336.651	3.761	1	PA_with_intermediate	0,0,0,0,0,0,1,2,0	test	ward_and_allport	2,0,0,0,0,0,1,3,0	82.0	34.0	3.761	0,0,0,0,0,0,1,2,3	to_hand	s495
340.415	0.281	0	PA_with_intermediate	0,0,0,3,0,0,1,2,0	test	ward_and_allport	2,0,0,0,0,0,1,3,0	71.0	34.0	0.281	0,0,0,0,0,0,1,2,3	to_board	s495
340.71	0.266	0	PA_with_intermediate	0,0,0,3,0,0,1,0,0	test	ward_and_allport	2,0,0,0,0,0,1,3,0	82.0	34.0	0.266	0,0,0,0,0,0,1,2,3	to_hand	s495
340.978	0.232	0	PA_with_intermediate	2,0,0,3,0,0,1,0,0	test	ward_and_allport	2,0,0,0,0,0,1,3,0	89.0	34.0	0.232	0,0,0,0,0,0,1,2,3	to_board	s495
341.228	0.295	0	PA_with_intermediate	2,0,0,0,0,0,1,0,0	test	ward_and_allport	2,0,0,0,0,0,1,3,0	71.0	34.0	0.295	0,0,0,0,0,0,1,2,3	to_hand	s495
341.526	0.213	0	PA_with_intermediate	2,0,0,0,0,0,1,3,0	test	ward_and_allport	2,0,0,0,0,0,1,3,0	82.0	34.0	0.213	0,0,0,0,0,0,1,2,3	to_board	s495
341.761	1.0	0	PA_with_intermediate	n/a	test	ward_and_allport	n/a	-1.0	34.0	n/a	n/a	feedback	s495
342.761	1.408	0	PA_with_intermediate	n/a	test	ward_and_allport	n/a	-1.0	34.0	n/a	n/a	ITI	s495
344.193	2.666	1	PA_without_intermediate	1,2,0,0,0,0,0,0,0	test	ward_and_allport	0,0,0,1,0,0,3,2,0	89.0	35.0	2.666	1,2,3,0,0,0,0,0,0	to_hand	s495
346.861	0.223	0	PA_without_intermediate	1,2,0,0,0,0,3,0,0	test	ward_and_allport	0,0,0,1,0,0,3,2,0	82.0	35.0	0.223	1,2,3,0,0,0,0,0,0	to_board	s495
347.108	0.233	0	PA_without_intermediate	1,0,0,0,0,0,3,0,0	test	ward_and_allport	0,0,0,1,0,0,3,2,0	89.0	35.0	0.233	1,2,3,0,0,0,0,0,0	to_hand	s495
347.343	0.25	0	PA_without_intermediate	1,0,0,0,0,0,3,2,0	test	ward_and_allport	0,0,0,1,0,0,3,2,0	82.0	35.0	0.25	1,2,3,0,0,0,0,0,0	to_board	s495
347.614	0.254	0	PA_without_intermediate	0,0,0,0,0,0,3,2,0	test	ward_and_allport	0,0,0,1,0,0,3,2,0	89.0	35.0	0.254	1,2,3,0,0,0,0,0,0	to_hand	s495
347.87	0.212	0	PA_without_intermediate	0,0,0,1,0,0,3,2,0	test	ward_and_allport	0,0,0,1,0,0,3,2,0	71.0	35.0	0.212	1,2,3,0,0,0,0,0,0	to_board	s495
348.104	1.0	0	PA_without_intermediate	n/a	test	ward_and_allport	n/a	-1.0	35.0	n/a	n/a	feedback	s495
349.104	1.816	0	PA_without_intermediate	n/a	test	ward_and_allport	n/a	-1.0	35.0	n/a	n/a	ITI	s495
350.938	2.697	1	PA_with_intermediate	0,0,0,1,2,0,0,0,0	test	ward_and_allport	0,0,0,1,0,0,2,3,0	71.0	36.0	2.697	0,0,0,1,2,3,0,0,0	to_hand	s495
353.637	0.26	0	PA_with_intermediate	3,0,0,1,2,0,0,0,0	test	ward_and_allport	0,0,0,1,0,0,2,3,0	89.0	36.0	0.26	0,0,0,1,2,3,0,0,0	to_board	s495
353.911	0.238	0	PA_with_intermediate	3,0,0,1,0,0,0,0,0	test	ward_and_allport	0,0,0,1,0,0,2,3,0	71.0	36.0	0.238	0,0,0,1,2,3,0,0,0	to_hand	s495
354.152	0.234	0	PA_with_intermediate	3,0,0,1,0,0,2,0,0	test	ward_and_allport	0,0,0,1,0,0,2,3,0	82.0	36.0	0.234	0,0,0,1,2,3,0,0,0	to_board	s495
354.407	0.198	0	PA_with_intermediate	0,0,0,1,0,0,2,0,0	test	ward_and_allport	0,0,0,1,0,0,2,3,0	89.0	36.0	0.198	0,0,0,1,2,3,0,0,0	to_hand	s495
354.607	0.187	0	PA_with_intermediate	0,0,0,1,0,0,2,3,0	test	ward_and_allport	0,0,0,1,0,0,2,3,0	82.0	36.0	0.187	0,0,0,1,2,3,0,0,0	to_board	s495
354.821	1.0	0	PA_with_intermediate	n/a	test	ward_and_allport	n/a	-1.0	36.0	n/a	n/a	feedback	s495
355.821	3.176	0	PA_with_intermediate	n/a	test	ward_and_allport	n/a	-1.0	36.0	n/a	n/a	ITI	s495
359.017	1.686	1	PA_with_intermediate	1,2,0,0,0,0,0,0,0	test	ward_and_allport	1,0,0,2,3,0,0,0,0	89.0	37.0	1.686	1,2,3,0,0,0,0,0,0	to_hand	s495
360.705	0.229	0	PA_with_intermediate	1,2,0,0,0,0,3,0,0	test	ward_and_allport	1,0,0,2,3,0,0,0,0	82.0	37.0	0.229	1,2,3,0,0,0,0,0,0	to_board	s495
360.951	0.196	0	PA_with_intermediate	1,0,0,0,0,0,3,0,0	test	ward_and_allport	1,0,0,2,3,0,0,0,0	89.0	37.0	0.196	1,2,3,0,0,0,0,0,0	to_hand	s495
361.149	0.246	0	PA_with_intermediate	1,0,0,2,0,0,3,0,0	test	ward_and_allport	1,0,0,2,3,0,0,0,0	71.0	37.0	0.246	1,2,3,0,0,0,0,0,0	to_board	s495
361.418	0.255	0	PA_with_intermediate	1,0,0,2,0,0,0,0,0	test	ward_and_allport	1,0,0,2,3,0,0,0,0	82.0	37.0	0.255	1,2,3,0,0,0,0,0,0	to_hand	s495
361.675	0.21	0	PA_with_intermediate	1,0,0,2,3,0,0,0,0	test	ward_and_allport	1,0,0,2,3,0,0,0,0	71.0	37.0	0.21	1,2,3,0,0,0,0,0,0	to_board	s495
361.912	1.0	0	PA_with_intermediate	n/a	test	ward_and_allport	n/a	-1.0	37.0	n/a	n/a	feedback	s495
362.912	2.36	0	PA_with_intermediate	n/a	test	ward_and_allport	n/a	-1.0	37.0	n/a	n/a	ITI	s495
365.296	2.396	1	PA_with_intermediate	0,0,0,0,0,0,1,2,0	test	ward_and_allport	2,3,0,0,0,0,1,0,0	82.0	38.0	2.396	0,0,0,0,0,0,1,2,3	to_hand	s495
367.693	0.214	0	PA_with_intermediate	0,0,0,3,0,0,1,2,0	test	ward_and_allport	2,3,0,0,0,0,1,0,0	71.0	38.0	0.214	0,0,0,0,0,0,1,2,3	to_board	s495
367.929	0.227	0	PA_with_intermediate	0,0,0,3,0,0,1,0,0	test	ward_and_allport	2,3,0,0,0,0,1,0,0	82.0	38.0	0.227	0,0,0,0,0,0,1,2,3	to_hand	s495
368.158	0.195	0	PA_with_intermediate	2,0,0,3,0,0,1,0,0	test	ward_and_allport	2,3,0,0,0,0,1,0,0	89.0	38.0	0.195	0,0,0,0,0,0,1,2,3	to_board	s495
368.375	0.32	0	PA_with_intermediate	2,0,0,0,0,0,1,0,0	test	ward_and_allport	2,3,0,0,0,0,1,0,0	71.0	38.0	0.32	0,0,0,0,0,0,1,2,3	to_hand	s495
368.697	0.151	0	PA_with_intermediate	2,3,0,0,0,0,1,0,0	test	ward_and_allport	2,3,0,0,0,0,1,0,0	89.0	38.0	0.151	0,0,0,0,0,0,1,2,3	to_board	s495
368.872	1.0	0	PA_with_intermediate	n/a	test	ward_and_allport	n/a	-1.0	38.0	n/a	n/a	feedback	s495
369.872	1.0	0	PA_with_intermediate	n/a	test	ward_and_allport	n/a	-1.0	38.0	n/a	n/a	ITI	s495
370.891	1.895	1	PA_without_intermediate	0,0,0,1,2,0,0,0,0	test	ward_and_allport	1,0,0,0,0,0,3,2,0	71.0	39.0	1.895	0,0,0,1,2,3,0,0,0	to_hand	s495
372.788	0.22	0	PA_without_intermediate	0,0,0,1,2,0,3,0,0	test	ward_and_allport	1,0,0,0,0,0,3,2,0	82.0	39.0	0.22	0,0,0,1,2,3,0,0,0	to_board	s495
373.026	0.223	0	PA_without_intermediate	0,0,0,1,0,0,3,0,0	test	ward_and_allport	1,0,0,0,0,0,3,2,0	71.0	39.0	0.223	0,0,0,1,2,3,0,0,0	to_hand	s495
373.251	0.154	0	PA_without_intermediate	0,0,0,1,0,0,3,2,0	test	ward_and_allport	1,0,0,0,0,0,3,2,0	82.0	39.0	0.154	0,0,0,1,2,3,0,0,0	to_board	s495
373.424	1.184	0	PA_without_intermediate	0,0,0,0,0,0,3,2,0	test	ward_and_allport	1,0,0,0,0,0,3,2,0	71.0	39.0	1.184	0,0,0,1,2,3,0,0,0	to_hand	s495
374.611	0.151	0	PA_without_intermediate	1,0,0,0,0,0,3,2,0	test	ward_and_allport	1,0,0,0,0,0,3,2,0	89.0	39.0	0.151	0,0,0,1,2,3,0,0,0	to_board	s495
374.783	1.0	0	PA_without_intermediate	n/a	test	ward_and_allport	n/a	-1.0	39.0	n/a	n/a	feedback	s495
375.783	1.408	0	PA_without_intermediate	n/a	test	ward_and_allport	n/a	-1.0	39.0	n/a	n/a	ITI	s495
377.21	2.591	1	PA_with_intermediate	1,2,0,0,0,0,0,0,0	test	ward_and_allport	1,0,0,2,3,0,0,0,0	89.0	40.0	2.591	1,2,3,0,0,0,0,0,0	to_hand	s495
379.803	0.221	0	PA_with_intermediate	1,2,0,0,0,0,3,0,0	test	ward_and_allport	1,0,0,2,3,0,0,0,0	82.0	40.0	0.221	1,2,3,0,0,0,0,0,0	to_board	s495
380.039	0.229	0	PA_with_intermediate	1,0,0,0,0,0,3,0,0	test	ward_and_allport	1,0,0,2,3,0,0,0,0	89.0	40.0	0.229	1,2,3,0,0,0,0,0,0	to_hand	s495
380.271	0.233	0	PA_with_intermediate	1,0,0,2,0,0,3,0,0	test	ward_and_allport	1,0,0,2,3,0,0,0,0	71.0	40.0	0.233	1,2,3,0,0,0,0,0,0	to_board	s495
380.527	0.271	0	PA_with_intermediate	1,0,0,2,0,0,0,0,0	test	ward_and_allport	1,0,0,2,3,0,0,0,0	82.0	40.0	0.271	1,2,3,0,0,0,0,0,0	to_hand	s495
380.801	0.391	0	PA_with_intermediate	1,0,0,2,3,0,0,0,0	test	ward_and_allport	1,0,0,2,3,0,0,0,0	71.0	40.0	0.391	1,2,3,0,0,0,0,0,0	to_board	s495
381.213	1.0	0	PA_with_intermediate	n/a	test	ward_and_allport	n/a	-1.0	40.0	n/a	n/a	feedback	s495
382.213	1.816	0	PA_with_intermediate	n/a	test	ward_and_allport	n/a	-1.0	40.0	n/a	n/a	ITI	s495
384.047	5.086	1	PA_without_intermediate	0,0,0,0,0,0,1,2,0	test	ward_and_allport	2,0,0,3,1,0,0,0,0	82.0	41.0	5.086	0,0,0,0,0,0,1,2,3	to_hand	s495
389.136	0.236	0	PA_without_intermediate	0,0,0,3,0,0,1,2,0	test	ward_and_allport	2,0,0,3,1,0,0,0,0	71.0	41.0	0.236	0,0,0,0,0,0,1,2,3	to_board	s495
389.389	0.222	0	PA_without_intermediate	0,0,0,3,0,0,1,0,0	test	ward_and_allport	2,0,0,3,1,0,0,0,0	82.0	41.0	0.222	0,0,0,0,0,0,1,2,3	to_hand	s495
389.613	0.234	0	PA_without_intermediate	2,0,0,3,0,0,1,0,0	test	ward_and_allport	2,0,0,3,1,0,0,0,0	89.0	41.0	0.234	0,0,0,0,0,0,1,2,3	to_board	s495
389.869	0.279	0	PA_without_intermediate	2,0,0,3,0,0,0,0,0	test	ward_and_allport	2,0,0,3,1,0,0,0,0	82.0	41.0	0.279	0,0,0,0,0,0,1,2,3	to_hand	s495
390.15	0.194	0	PA_without_intermediate	2,0,0,3,1,0,0,0,0	test	ward_and_allport	2,0,0,3,1,0,0,0,0	71.0	41.0	0.194	0,0,0,0,0,0,1,2,3	to_board	s495
390.371	1.0	0	PA_without_intermediate	n/a	test	ward_and_allport	n/a	-1.0	41.0	n/a	n/a	feedback	s495
391.371	2.088	0	PA_without_intermediate	n/a	test	ward_and_allport	n/a	-1.0	41.0	n/a	n/a	ITI	s495
393.486	2.419	1	PA_without_intermediate	1,2,0,0,0,0,0,0,0	test	ward_and_allport	0,0,0,3,1,0,2,0,0	89.0	42.0	2.419	1,2,3,0,0,0,0,0,0	to_hand	s495
395.908	0.197	0	PA_without_intermediate	1,2,0,3,0,0,0,0,0	test	ward_and_allport	0,0,0,3,1,0,2,0,0	71.0	42.0	0.197	1,2,3,0,0,0,0,0,0	to_board	s495
396.123	0.21	0	PA_without_intermediate	1,0,0,3,0,0,0,0,0	test	ward_and_allport	0,0,0,3,1,0,2,0,0	89.0	42.0	0.21	1,2,3,0,0,0,0,0,0	to_hand	s495
396.335	0.239	0	PA_without_intermediate	1,0,0,3,0,0,2,0,0	test	ward_and_allport	0,0,0,3,1,0,2,0,0	82.0	42.0	0.239	1,2,3,0,0,0,0,0,0	to_board	s495
396.597	0.215	0	PA_without_intermediate	0,0,0,3,0,0,2,0,0	test	ward_and_allport	0,0,0,3,1,0,2,0,0	89.0	42.0	0.215	1,2,3,0,0,0,0,0,0	to_hand	s495
396.815	0.237	0	PA_without_intermediate	0,0,0,3,1,0,2,0,0	test	ward_and_allport	0,0,0,3,1,0,2,0,0	71.0	42.0	0.237	1,2,3,0,0,0,0,0,0	to_board	s495
397.074	1.0	0	PA_without_intermediate	n/a	test	ward_and_allport	n/a	-1.0	42.0	n/a	n/a	feedback	s495
398.074	1.136	0	PA_without_intermediate	n/a	test	ward_and_allport	n/a	-1.0	42.0	n/a	n/a	ITI	s495
399.234	1.721	1	PA_without_intermediate	1,2,0,0,0,0,0,0,0	test	ward_and_allport	0,0,0,2,0,0,3,1,0	89.0	43.0	1.721	1,2,3,0,0,0,0,0,0	to_hand	s495
400.957	0.242	0	PA_without_intermediate	1,2,0,0,0,0,3,0,0	test	ward_and_allport	0,0,0,2,0,0,3,1,0	82.0	43.0	0.242	1,2,3,0,0,0,0,0,0	to_board	s495
401.257	0.227	0	PA_without_intermediate	1,0,0,0,0,0,3,0,0	test	ward_and_allport	0,0,0,2,0,0,3,1,0	89.0	43.0	0.227	1,2,3,0,0,0,0,0,0	to_hand	s495
401.486	0.249	0	PA_without_intermediate	1,0,0,2,0,0,3,0,0	test	ward_and_allport	0,0,0,2,0,0,3,1,0	71.0	43.0	0.249	1,2,3,0,0,0,0,0,0	to_board	s495
401.758	0.206	0	PA_without_intermediate	0,0,0,2,0,0,3,0,0	test	ward_and_allport	0,0,0,2,0,0,3,1,0	89.0	43.0	0.206	1,2,3,0,0,0,0,0,0	to_hand	s495
401.966	0.26	0	PA_without_intermediate	0,0,0,2,0,0,3,1,0	test	ward_and_allport	0,0,0,2,0,0,3,1,0	82.0	43.0	0.26	1,2,3,0,0,0,0,0,0	to_board	s495
402.259	1.0	0	PA_without_intermediate	n/a	test	ward_and_allport	n/a	-1.0	43.0	n/a	n/a	feedback	s495
403.259	6.168	0	PA_without_intermediate	n/a	test	ward_and_allport	n/a	-1.0	43.0	n/a	n/a	ITI	s495
409.451	2.815	1	PA_without_intermediate	0,0,0,1,2,0,0,0,0	test	ward_and_allport	3,1,0,0,0,0,2,0,0	71.0	44.0	2.815	0,0,0,1,2,3,0,0,0	to_hand	s495
412.268	0.258	0	PA_without_intermediate	3,0,0,1,2,0,0,0,0	test	ward_and_allport	3,1,0,0,0,0,2,0,0	89.0	44.0	0.258	0,0,0,1,2,3,0,0,0	to_board	s495
412.551	0.306	0	PA_without_intermediate	3,0,0,1,0,0,0,0,0	test	ward_and_allport	3,1,0,0,0,0,2,0,0	71.0	44.0	0.306	0,0,0,1,2,3,0,0,0	to_hand	s495
412.859	0.257	0	PA_without_intermediate	3,0,0,1,0,0,2,0,0	test	ward_and_allport	3,1,0,0,0,0,2,0,0	82.0	44.0	0.257	0,0,0,1,2,3,0,0,0	to_board	s495
413.143	0.218	0	PA_without_intermediate	3,0,0,0,0,0,2,0,0	test	ward_and_allport	3,1,0,0,0,0,2,0,0	71.0	44.0	0.218	0,0,0,1,2,3,0,0,0	to_hand	s495
413.364	0.176	0	PA_without_intermediate	3,1,0,0,0,0,2,0,0	test	ward_and_allport	3,1,0,0,0,0,2,0,0	89.0	44.0	0.176	0,0,0,1,2,3,0,0,0	to_board	s495
413.569	1.0	0	PA_without_intermediate	n/a	test	ward_and_allport	n/a	-1.0	44.0	n/a	n/a	feedback	s495
414.569	1.816	0	PA_without_intermediate	n/a	test	ward_and_allport	n/a	-1.0	44.0	n/a	n/a	ITI	s495
421.417	5.136	1	PA_with_intermediate	1,2,0,0,0,0,0,0,0	test	ward_and_allport	1,3,0,2,0,0,0,0,0	89.0	45.0	5.136	1,2,3,0,0,0,0,0,0	to_hand	s495
426.555	0.269	0	PA_with_intermediate	1,2,0,0,0,0,3,0,0	test	ward_and_allport	1,3,0,2,0,0,0,0,0	82.0	45.0	0.269	1,2,3,0,0,0,0,0,0	to_board	s495
426.851	0.338	0	PA_with_intermediate	1,0,0,0,0,0,3,0,0	test	ward_and_allport	1,3,0,2,0,0,0,0,0	89.0	45.0	0.338	1,2,3,0,0,0,0,0,0	to_hand	s495
427.191	0.269	0	PA_with_intermediate	1,0,0,2,0,0,3,0,0	test	ward_and_allport	1,3,0,2,0,0,0,0,0	71.0	45.0	0.269	1,2,3,0,0,0,0,0,0	to_board	s495
427.491	0.35	0	PA_with_intermediate	1,0,0,2,0,0,0,0,0	test	ward_and_allport	1,3,0,2,0,0,0,0,0	82.0	45.0	0.35	1,2,3,0,0,0,0,0,0	to_hand	s495
427.843	0.21	0	PA_with_intermediate	1,3,0,2,0,0,0,0,0	test	ward_and_allport	1,3,0,2,0,0,0,0,0	89.0	45.0	0.21	1,2,3,0,0,0,0,0,0	to_board	s495
428.075	1.0	0	PA_with_intermediate	n/a	test	ward_and_allport	n/a	-1.0	45.0	n/a	n/a	feedback	s495
429.075	1.952	0	PA_with_intermediate	n/a	test	ward_and_allport	n/a	-1.0	45.0	n/a	n/a	ITI	s495
431.049	2.6	1	PA_with_intermediate	1,2,0,0,0,0,0,0,0	test	ward_and_allport	1,3,0,0,0,0,2,0,0	89.0	46.0	2.6	1,2,3,0,0,0,0,0,0	to_hand	s495
433.651	0.27	0	PA_with_intermediate	1,2,0,3,0,0,0,0,0	test	ward_and_allport	1,3,0,0,0,0,2,0,0	71.0	46.0	0.27	1,2,3,0,0,0,0,0,0	to_board	s495
433.947	0.218	0	PA_with_intermediate	1,0,0,3,0,0,0,0,0	test	ward_and_allport	1,3,0,0,0,0,2,0,0	89.0	46.0	0.218	1,2,3,0,0,0,0,0,0	to_hand	s495
434.167	0.222	0	PA_with_intermediate	1,0,0,3,0,0,2,0,0	test	ward_and_allport	1,3,0,0,0,0,2,0,0	82.0	46.0	0.222	1,2,3,0,0,0,0,0,0	to_board	s495
434.423	0.286	0	PA_with_intermediate	1,0,0,0,0,0,2,0,0	test	ward_and_allport	1,3,0,0,0,0,2,0,0	71.0	46.0	0.286	1,2,3,0,0,0,0,0,0	to_hand	s495
434.711	0.167	0	PA_with_intermediate	1,3,0,0,0,0,2,0,0	test	ward_and_allport	1,3,0,0,0,0,2,0,0	89.0	46.0	0.167	1,2,3,0,0,0,0,0,0	to_board	s495
434.899	1.0	0	PA_with_intermediate	n/a	test	ward_and_allport	n/a	-1.0	46.0	n/a	n/a	feedback	s495
435.899	1.136	0	PA_with_intermediate	n/a	test	ward_and_allport	n/a	-1.0	46.0	n/a	n/a	ITI	s495
437.064	2.628	1	PA_without_intermediate	1,2,0,0,0,0,0,0,0	test	ward_and_allport	0,0,0,3,2,0,1,0,0	89.0	47.0	2.628	1,2,3,0,0,0,0,0,0	to_hand	s495
439.695	0.254	0	PA_without_intermediate	1,2,0,3,0,0,0,0,0	test	ward_and_allport	0,0,0,3,2,0,1,0,0	71.0	47.0	0.254	1,2,3,0,0,0,0,0,0	to_board	s495
439.975	0.228	0	PA_without_intermediate	1,0,0,3,0,0,0,0,0	test	ward_and_allport	0,0,0,3,2,0,1,0,0	89.0	47.0	0.228	1,2,3,0,0,0,0,0,0	to_hand	s495
440.205	0.261	0	PA_without_intermediate	1,0,0,3,2,0,0,0,0	test	ward_and_allport	0,0,0,3,2,0,1,0,0	71.0	47.0	0.261	1,2,3,0,0,0,0,0,0	to_board	s495
440.491	0.2	0	PA_without_intermediate	0,0,0,3,2,0,0,0,0	test	ward_and_allport	0,0,0,3,2,0,1,0,0	89.0	47.0	0.2	1,2,3,0,0,0,0,0,0	to_hand	s495
440.694	0.281	0	PA_without_intermediate	0,0,0,3,2,0,1,0,0	test	ward_and_allport	0,0,0,3,2,0,1,0,0	82.0	47.0	0.281	1,2,3,0,0,0,0,0,0	to_board	s495
441.001	1.0	0	PA_without_intermediate	n/a	test	ward_and_allport	n/a	-1.0	47.0	n/a	n/a	feedback	s495
442.001	1.68	0	PA_without_intermediate	n/a	test	ward_and_allport	n/a	-1.0	47.0	n/a	n/a	ITI	s495
n/a	n/a	0	n/a	n/a	n/a	n/a	n/a	n/a	n/a	n/a	n/a	ITI	n/a
