onset	duration	planning	condition	current_position	exp_stage	experiment_exp_id	goal_state	key_press	problem_id	response_time	start_state	trial_id	worker_id
-52.468	0.0	0	n/a	n/a	n/a	ward_and_allport	n/a	32.0	n/a	12.872	n/a	instructions	s633
3.014	2.984	1	UA_with_intermediate	1,0,0,2,0,0,0,0,0	practice	ward_and_allport	1,2,3,0,0,0,0,0,0	71.0	0.0	2.984	1,0,0,2,3,0,0,0,0	to_hand	s633
6.0	0.6	0	UA_with_intermediate	1,0,0,2,0,0,3,0,0	practice	ward_and_allport	1,2,3,0,0,0,0,0,0	82.0	0.0	0.6	1,0,0,2,3,0,0,0,0	to_board	s633
6.603	0.479	0	UA_with_intermediate	1,0,0,0,0,0,3,0,0	practice	ward_and_allport	1,2,3,0,0,0,0,0,0	71.0	0.0	0.479	1,0,0,2,3,0,0,0,0	to_hand	s633
7.084	0.37	0	UA_with_intermediate	1,2,0,0,0,0,3,0,0	practice	ward_and_allport	1,2,3,0,0,0,0,0,0	89.0	0.0	0.37	1,0,0,2,3,0,0,0,0	to_board	s633
7.456	0.448	0	UA_with_intermediate	1,2,0,0,0,0,0,0,0	practice	ward_and_allport	1,2,3,0,0,0,0,0,0	82.0	0.0	0.448	1,0,0,2,3,0,0,0,0	to_hand	s633
7.905	0.389	0	UA_with_intermediate	1,2,3,0,0,0,0,0,0	practice	ward_and_allport	1,2,3,0,0,0,0,0,0	89.0	0.0	0.389	1,0,0,2,3,0,0,0,0	to_board	s633
8.299	1.0	0	UA_with_intermediate	n/a	practice	ward_and_allport	n/a	-1.0	0.0	n/a	n/a	feedback	s633
10.802	2.799	1	UA_with_intermediate	1,2,0,0,0,0,0,0,0	practice	ward_and_allport	1,3,2,0,0,0,0,0,0	71.0	1.0	2.799	1,2,0,3,0,0,0,0,0	to_hand	s633
13.602	2.101	0	UA_with_intermediate	1,2,0,0,0,0,3,0,0	practice	ward_and_allport	1,3,2,0,0,0,0,0,0	82.0	1.0	2.101	1,2,0,3,0,0,0,0,0	to_board	s633
15.705	1.129	0	UA_with_intermediate	1,0,0,0,0,0,3,0,0	practice	ward_and_allport	1,3,2,0,0,0,0,0,0	89.0	1.0	1.129	1,2,0,3,0,0,0,0,0	to_hand	s633
16.835	0.405	0	UA_with_intermediate	1,0,0,2,0,0,3,0,0	practice	ward_and_allport	1,3,2,0,0,0,0,0,0	71.0	1.0	0.405	1,2,0,3,0,0,0,0,0	to_board	s633
17.242	0.453	0	UA_with_intermediate	1,0,0,2,0,0,0,0,0	practice	ward_and_allport	1,3,2,0,0,0,0,0,0	82.0	1.0	0.453	1,2,0,3,0,0,0,0,0	to_hand	s633
17.697	0.692	0	UA_with_intermediate	1,3,0,2,0,0,0,0,0	practice	ward_and_allport	1,3,2,0,0,0,0,0,0	89.0	1.0	0.692	1,2,0,3,0,0,0,0,0	to_board	s633
18.391	0.388	0	UA_with_intermediate	1,3,0,0,0,0,0,0,0	practice	ward_and_allport	1,3,2,0,0,0,0,0,0	71.0	1.0	0.388	1,2,0,3,0,0,0,0,0	to_hand	s633
18.78	0.426	0	UA_with_intermediate	1,3,2,0,0,0,0,0,0	practice	ward_and_allport	1,3,2,0,0,0,0,0,0	89.0	1.0	0.426	1,2,0,3,0,0,0,0,0	to_board	s633
19.21	1.0	0	UA_with_intermediate	n/a	practice	ward_and_allport	n/a	-1.0	1.0	n/a	n/a	feedback	s633
20.21	1.1	0	UA_with_intermediate	n/a	practice	ward_and_allport	n/a	-1.0	1.0	n/a	n/a	ITI	s633
21.311	2.047	1	UA_without_intermediate	0,0,0,1,2,0,0,0,0	practice	ward_and_allport	3,2,1,0,0,0,0,0,0	82.0	2.0	2.047	0,0,0,1,2,0,3,0,0	to_hand	s633
23.36	0.324	0	UA_without_intermediate	3,0,0,1,2,0,0,0,0	practice	ward_and_allport	3,2,1,0,0,0,0,0,0	89.0	2.0	0.324	0,0,0,1,2,0,3,0,0	to_board	s633
23.685	1.489	0	UA_without_intermediate	3,0,0,1,0,0,0,0,0	practice	ward_and_allport	3,2,1,0,0,0,0,0,0	71.0	2.0	1.489	0,0,0,1,2,0,3,0,0	to_hand	s633
25.176	0.885	0	UA_without_intermediate	3,2,0,1,0,0,0,0,0	practice	ward_and_allport	3,2,1,0,0,0,0,0,0	89.0	2.0	0.885	0,0,0,1,2,0,3,0,0	to_board	s633
26.064	0.486	0	UA_without_intermediate	3,2,0,0,0,0,0,0,0	practice	ward_and_allport	3,2,1,0,0,0,0,0,0	71.0	2.0	0.486	0,0,0,1,2,0,3,0,0	to_hand	s633
26.552	0.355	0	UA_without_intermediate	3,2,1,0,0,0,0,0,0	practice	ward_and_allport	3,2,1,0,0,0,0,0,0	89.0	2.0	0.355	0,0,0,1,2,0,3,0,0	to_board	s633
26.912	1.0	0	UA_without_intermediate	n/a	practice	ward_and_allport	n/a	-1.0	2.0	n/a	n/a	feedback	s633
27.912	1.2	0	UA_without_intermediate	n/a	practice	ward_and_allport	n/a	-1.0	2.0	n/a	n/a	ITI	s633
29.115	2.155	1	UA_without_intermediate	0,0,0,1,0,0,3,0,0	practice	ward_and_allport	2,3,1,0,0,0,0,0,0	71.0	3.0	2.155	0,0,0,1,2,0,3,0,0	to_hand	s633
31.27	0.352	0	UA_without_intermediate	2,0,0,1,0,0,3,0,0	practice	ward_and_allport	2,3,1,0,0,0,0,0,0	89.0	3.0	0.352	0,0,0,1,2,0,3,0,0	to_board	s633
31.625	1.266	0	UA_without_intermediate	2,0,0,1,0,0,0,0,0	practice	ward_and_allport	2,3,1,0,0,0,0,0,0	82.0	3.0	1.266	0,0,0,1,2,0,3,0,0	to_hand	s633
32.891	0.346	0	UA_without_intermediate	2,3,0,1,0,0,0,0,0	practice	ward_and_allport	2,3,1,0,0,0,0,0,0	89.0	3.0	0.346	0,0,0,1,2,0,3,0,0	to_board	s633
33.24	0.28	0	UA_without_intermediate	2,3,0,0,0,0,0,0,0	practice	ward_and_allport	2,3,1,0,0,0,0,0,0	71.0	3.0	0.28	0,0,0,1,2,0,3,0,0	to_hand	s633
33.521	0.273	0	UA_without_intermediate	2,3,1,0,0,0,0,0,0	practice	ward_and_allport	2,3,1,0,0,0,0,0,0	89.0	3.0	0.273	0,0,0,1,2,0,3,0,0	to_board	s633
33.801	1.0	0	UA_without_intermediate	n/a	practice	ward_and_allport	n/a	-1.0	3.0	n/a	n/a	feedback	s633
34.801	1.0	0	UA_without_intermediate	n/a	practice	ward_and_allport	n/a	-1.0	3.0	n/a	n/a	ITI	s633
37.809	6.614	1	PA_with_intermediate	0,0,0,0,0,0,1,2,0	test	ward_and_allport	0,0,0,2,0,0,1,3,0	82.0	0.0	6.614	0,0,0,0,0,0,1,2,3	to_hand	s633
44.425	0.343	0	PA_with_intermediate	3,0,0,0,0,0,1,2,0	test	ward_and_allport	0,0,0,2,0,0,1,3,0	89.0	0.0	0.343	0,0,0,0,0,0,1,2,3	to_board	s633
44.77	1.512	0	PA_with_intermediate	3,0,0,0,0,0,1,0,0	test	ward_and_allport	0,0,0,2,0,0,1,3,0	82.0	0.0	1.512	0,0,0,0,0,0,1,2,3	to_hand	s633
46.284	0.487	0	PA_with_intermediate	3,0,0,2,0,0,1,0,0	test	ward_and_allport	0,0,0,2,0,0,1,3,0	71.0	0.0	0.487	0,0,0,0,0,0,1,2,3	to_board	s633
46.772	0.578	0	PA_with_intermediate	0,0,0,2,0,0,1,0,0	test	ward_and_allport	0,0,0,2,0,0,1,3,0	89.0	0.0	0.578	0,0,0,0,0,0,1,2,3	to_hand	s633
47.352	0.917	0	PA_with_intermediate	0,0,0,2,0,0,1,3,0	test	ward_and_allport	0,0,0,2,0,0,1,3,0	82.0	0.0	0.917	0,0,0,0,0,0,1,2,3	to_board	s633
48.274	1.0	0	PA_with_intermediate	n/a	test	ward_and_allport	n/a	-1.0	0.0	n/a	n/a	feedback	s633
49.274	3.176	0	PA_with_intermediate	n/a	test	ward_and_allport	n/a	-1.0	0.0	n/a	n/a	ITI	s633
52.453	3.769	1	PA_with_intermediate	0,0,0,1,2,0,0,0,0	test	ward_and_allport	0,0,0,1,0,0,2,3,0	71.0	1.0	3.769	0,0,0,1,2,3,0,0,0	to_hand	s633
56.223	0.512	0	PA_with_intermediate	3,0,0,1,2,0,0,0,0	test	ward_and_allport	0,0,0,1,0,0,2,3,0	89.0	1.0	0.512	0,0,0,1,2,3,0,0,0	to_board	s633
56.738	0.565	0	PA_with_intermediate	3,0,0,1,0,0,0,0,0	test	ward_and_allport	0,0,0,1,0,0,2,3,0	71.0	1.0	0.565	0,0,0,1,2,3,0,0,0	to_hand	s633
57.305	0.566	0	PA_with_intermediate	3,0,0,1,0,0,2,0,0	test	ward_and_allport	0,0,0,1,0,0,2,3,0	82.0	1.0	0.566	0,0,0,1,2,3,0,0,0	to_board	s633
57.874	0.753	0	PA_with_intermediate	0,0,0,1,0,0,2,0,0	test	ward_and_allport	0,0,0,1,0,0,2,3,0	89.0	1.0	0.753	0,0,0,1,2,3,0,0,0	to_hand	s633
58.628	0.37	0	PA_with_intermediate	0,0,0,1,0,0,2,3,0	test	ward_and_allport	0,0,0,1,0,0,2,3,0	82.0	1.0	0.37	0,0,0,1,2,3,0,0,0	to_board	s633
59.005	1.0	0	PA_with_intermediate	n/a	test	ward_and_allport	n/a	-1.0	1.0	n/a	n/a	feedback	s633
60.005	2.36	0	PA_with_intermediate	n/a	test	ward_and_allport	n/a	-1.0	1.0	n/a	n/a	ITI	s633
62.367	3.056	1	PA_with_intermediate	1,2,0,0,0,0,0,0,0	test	ward_and_allport	1,0,0,0,0,0,2,3,0	89.0	2.0	3.056	1,2,3,0,0,0,0,0,0	to_hand	s633
65.425	0.352	0	PA_with_intermediate	1,2,0,3,0,0,0,0,0	test	ward_and_allport	1,0,0,0,0,0,2,3,0	71.0	2.0	0.352	1,2,3,0,0,0,0,0,0	to_board	s633
65.78	1.585	0	PA_with_intermediate	1,0,0,3,0,0,0,0,0	test	ward_and_allport	1,0,0,0,0,0,2,3,0	89.0	2.0	1.585	1,2,3,0,0,0,0,0,0	to_hand	s633
67.366	0.364	0	PA_with_intermediate	1,0,0,3,0,0,2,0,0	test	ward_and_allport	1,0,0,0,0,0,2,3,0	82.0	2.0	0.364	1,2,3,0,0,0,0,0,0	to_board	s633
67.732	1.403	0	PA_with_intermediate	1,0,0,0,0,0,2,0,0	test	ward_and_allport	1,0,0,0,0,0,2,3,0	71.0	2.0	1.403	1,2,3,0,0,0,0,0,0	to_hand	s633
69.137	0.422	0	PA_with_intermediate	1,0,0,0,0,0,2,3,0	test	ward_and_allport	1,0,0,0,0,0,2,3,0	82.0	2.0	0.422	1,2,3,0,0,0,0,0,0	to_board	s633
69.567	1.0	0	PA_with_intermediate	n/a	test	ward_and_allport	n/a	-1.0	2.0	n/a	n/a	feedback	s633
70.567	1.0	0	PA_with_intermediate	n/a	test	ward_and_allport	n/a	-1.0	2.0	n/a	n/a	ITI	s633
71.57	3.544	1	PA_without_intermediate	0,0,0,0,0,0,1,2,0	test	ward_and_allport	2,0,0,3,1,0,0,0,0	82.0	3.0	3.544	0,0,0,0,0,0,1,2,3	to_hand	s633
75.115	0.34	0	PA_without_intermediate	0,0,0,3,0,0,1,2,0	test	ward_and_allport	2,0,0,3,1,0,0,0,0	71.0	3.0	0.34	0,0,0,0,0,0,1,2,3	to_board	s633
75.459	0.759	0	PA_without_intermediate	0,0,0,3,0,0,1,0,0	test	ward_and_allport	2,0,0,3,1,0,0,0,0	82.0	3.0	0.759	0,0,0,0,0,0,1,2,3	to_hand	s633
76.219	0.398	0	PA_without_intermediate	2,0,0,3,0,0,1,0,0	test	ward_and_allport	2,0,0,3,1,0,0,0,0	89.0	3.0	0.398	0,0,0,0,0,0,1,2,3	to_board	s633
76.62	1.312	0	PA_without_intermediate	2,0,0,3,0,0,0,0,0	test	ward_and_allport	2,0,0,3,1,0,0,0,0	82.0	3.0	1.312	0,0,0,0,0,0,1,2,3	to_hand	s633
77.934	0.338	0	PA_without_intermediate	2,0,0,3,1,0,0,0,0	test	ward_and_allport	2,0,0,3,1,0,0,0,0	71.0	3.0	0.338	0,0,0,0,0,0,1,2,3	to_board	s633
78.278	1.0	0	PA_without_intermediate	n/a	test	ward_and_allport	n/a	-1.0	3.0	n/a	n/a	feedback	s633
79.278	1.408	0	PA_without_intermediate	n/a	test	ward_and_allport	n/a	-1.0	3.0	n/a	n/a	ITI	s633
80.689	4.386	1	PA_with_intermediate	1,2,0,0,0,0,0,0,0	test	ward_and_allport	1,3,0,2,0,0,0,0,0	89.0	4.0	4.386	1,2,3,0,0,0,0,0,0	to_hand	s633
85.077	0.347	0	PA_with_intermediate	1,2,0,0,0,0,3,0,0	test	ward_and_allport	1,3,0,2,0,0,0,0,0	82.0	4.0	0.347	1,2,3,0,0,0,0,0,0	to_board	s633
85.427	1.559	0	PA_with_intermediate	1,0,0,0,0,0,3,0,0	test	ward_and_allport	1,3,0,2,0,0,0,0,0	89.0	4.0	1.559	1,2,3,0,0,0,0,0,0	to_hand	s633
86.988	0.606	0	PA_with_intermediate	1,0,0,2,0,0,3,0,0	test	ward_and_allport	1,3,0,2,0,0,0,0,0	71.0	4.0	0.606	1,2,3,0,0,0,0,0,0	to_board	s633
87.597	1.31	0	PA_with_intermediate	1,0,0,2,0,0,0,0,0	test	ward_and_allport	1,3,0,2,0,0,0,0,0	82.0	4.0	1.31	1,2,3,0,0,0,0,0,0	to_hand	s633
88.908	0.346	0	PA_with_intermediate	1,3,0,2,0,0,0,0,0	test	ward_and_allport	1,3,0,2,0,0,0,0,0	89.0	4.0	0.346	1,2,3,0,0,0,0,0,0	to_board	s633
89.26	1.0	0	PA_with_intermediate	n/a	test	ward_and_allport	n/a	-1.0	4.0	n/a	n/a	feedback	s633
90.26	1.816	0	PA_with_intermediate	n/a	test	ward_and_allport	n/a	-1.0	4.0	n/a	n/a	ITI	s633
92.08	3.581	1	PA_without_intermediate	0,0,0,1,2,0,0,0,0	test	ward_and_allport	1,0,0,0,0,0,3,2,0	71.0	5.0	3.581	0,0,0,1,2,3,0,0,0	to_hand	s633
95.662	0.263	0	PA_without_intermediate	0,0,0,1,2,0,3,0,0	test	ward_and_allport	1,0,0,0,0,0,3,2,0	82.0	5.0	0.263	0,0,0,1,2,3,0,0,0	to_board	s633
95.929	0.561	0	PA_without_intermediate	0,0,0,1,0,0,3,0,0	test	ward_and_allport	1,0,0,0,0,0,3,2,0	71.0	5.0	0.561	0,0,0,1,2,3,0,0,0	to_hand	s633
96.491	0.41	0	PA_without_intermediate	0,0,0,1,0,0,3,2,0	test	ward_and_allport	1,0,0,0,0,0,3,2,0	82.0	5.0	0.41	0,0,0,1,2,3,0,0,0	to_board	s633
96.906	1.215	0	PA_without_intermediate	0,0,0,0,0,0,3,2,0	test	ward_and_allport	1,0,0,0,0,0,3,2,0	71.0	5.0	1.215	0,0,0,1,2,3,0,0,0	to_hand	s633
98.122	0.28	0	PA_without_intermediate	1,0,0,0,0,0,3,2,0	test	ward_and_allport	1,0,0,0,0,0,3,2,0	89.0	5.0	0.28	0,0,0,1,2,3,0,0,0	to_board	s633
98.407	1.0	0	PA_without_intermediate	n/a	test	ward_and_allport	n/a	-1.0	5.0	n/a	n/a	feedback	s633
99.407	2.088	0	PA_without_intermediate	n/a	test	ward_and_allport	n/a	-1.0	5.0	n/a	n/a	ITI	s633
101.499	2.101	1	PA_without_intermediate	0,0,0,1,2,0,0,0,0	test	ward_and_allport	3,1,0,0,0,0,2,0,0	71.0	6.0	2.101	0,0,0,1,2,3,0,0,0	to_hand	s633
103.601	0.316	0	PA_without_intermediate	3,0,0,1,2,0,0,0,0	test	ward_and_allport	3,1,0,0,0,0,2,0,0	89.0	6.0	0.316	0,0,0,1,2,3,0,0,0	to_board	s633
103.922	0.462	0	PA_without_intermediate	3,0,0,1,0,0,0,0,0	test	ward_and_allport	3,1,0,0,0,0,2,0,0	71.0	6.0	0.462	0,0,0,1,2,3,0,0,0	to_hand	s633
104.386	0.484	0	PA_without_intermediate	3,0,0,1,0,0,2,0,0	test	ward_and_allport	3,1,0,0,0,0,2,0,0	82.0	6.0	0.484	0,0,0,1,2,3,0,0,0	to_board	s633
104.873	0.341	0	PA_without_intermediate	3,0,0,0,0,0,2,0,0	test	ward_and_allport	3,1,0,0,0,0,2,0,0	71.0	6.0	0.341	0,0,0,1,2,3,0,0,0	to_hand	s633
105.216	0.307	0	PA_without_intermediate	3,1,0,0,0,0,2,0,0	test	ward_and_allport	3,1,0,0,0,0,2,0,0	89.0	6.0	0.307	0,0,0,1,2,3,0,0,0	to_board	s633
105.53	1.0	0	PA_without_intermediate	n/a	test	ward_and_allport	n/a	-1.0	6.0	n/a	n/a	feedback	s633
106.53	1.136	0	PA_without_intermediate	n/a	test	ward_and_allport	n/a	-1.0	6.0	n/a	n/a	ITI	s633
107.669	1.556	1	PA_without_intermediate	0,0,0,1,2,0,0,0,0	test	ward_and_allport	2,0,0,0,0,0,3,1,0	71.0	7.0	1.556	0,0,0,1,2,3,0,0,0	to_hand	s633
109.226	0.333	0	PA_without_intermediate	0,0,0,1,2,0,3,0,0	test	ward_and_allport	2,0,0,0,0,0,3,1,0	82.0	7.0	0.333	0,0,0,1,2,3,0,0,0	to_board	s633
109.564	1.048	0	PA_without_intermediate	0,0,0,1,0,0,3,0,0	test	ward_and_allport	2,0,0,0,0,0,3,1,0	71.0	7.0	1.048	0,0,0,1,2,3,0,0,0	to_hand	s633
110.614	0.337	0	PA_without_intermediate	2,0,0,1,0,0,3,0,0	test	ward_and_allport	2,0,0,0,0,0,3,1,0	89.0	7.0	0.337	0,0,0,1,2,3,0,0,0	to_board	s633
110.956	0.467	0	PA_without_intermediate	2,0,0,0,0,0,3,0,0	test	ward_and_allport	2,0,0,0,0,0,3,1,0	71.0	7.0	0.467	0,0,0,1,2,3,0,0,0	to_hand	s633
111.425	0.318	0	PA_without_intermediate	2,0,0,0,0,0,3,1,0	test	ward_and_allport	2,0,0,0,0,0,3,1,0	82.0	7.0	0.318	0,0,0,1,2,3,0,0,0	to_board	s633
111.752	1.0	0	PA_without_intermediate	n/a	test	ward_and_allport	n/a	-1.0	7.0	n/a	n/a	feedback	s633
112.752	6.168	0	PA_without_intermediate	n/a	test	ward_and_allport	n/a	-1.0	7.0	n/a	n/a	ITI	s633
118.923	2.269	1	PA_without_intermediate	0,0,0,1,2,0,0,0,0	test	ward_and_allport	3,2,0,0,0,0,1,0,0	71.0	8.0	2.269	0,0,0,1,2,3,0,0,0	to_hand	s633
121.193	0.373	0	PA_without_intermediate	3,0,0,1,2,0,0,0,0	test	ward_and_allport	3,2,0,0,0,0,1,0,0	89.0	8.0	0.373	0,0,0,1,2,3,0,0,0	to_board	s633
121.571	0.273	0	PA_without_intermediate	3,0,0,1,0,0,0,0,0	test	ward_and_allport	3,2,0,0,0,0,1,0,0	71.0	8.0	0.273	0,0,0,1,2,3,0,0,0	to_hand	s633
121.845	0.34	0	PA_without_intermediate	3,2,0,1,0,0,0,0,0	test	ward_and_allport	3,2,0,0,0,0,1,0,0	89.0	8.0	0.34	0,0,0,1,2,3,0,0,0	to_board	s633
122.189	0.325	0	PA_without_intermediate	3,2,0,0,0,0,0,0,0	test	ward_and_allport	3,2,0,0,0,0,1,0,0	71.0	8.0	0.325	0,0,0,1,2,3,0,0,0	to_hand	s633
122.515	0.565	0	PA_without_intermediate	3,2,0,0,0,0,1,0,0	test	ward_and_allport	3,2,0,0,0,0,1,0,0	82.0	8.0	0.565	0,0,0,1,2,3,0,0,0	to_board	s633
123.089	1.0	0	PA_without_intermediate	n/a	test	ward_and_allport	n/a	-1.0	8.0	n/a	n/a	feedback	s633
124.089	1.816	0	PA_without_intermediate	n/a	test	ward_and_allport	n/a	-1.0	8.0	n/a	n/a	ITI	s633
125.91	2.586	1	PA_with_intermediate	0,0,0,1,2,0,0,0,0	test	ward_and_allport	2,0,0,1,3,0,0,0,0	71.0	9.0	2.586	0,0,0,1,2,3,0,0,0	to_hand	s633
128.498	0.347	0	PA_with_intermediate	0,0,0,1,2,0,3,0,0	test	ward_and_allport	2,0,0,1,3,0,0,0,0	82.0	9.0	0.347	0,0,0,1,2,3,0,0,0	to_board	s633
128.849	0.423	0	PA_with_intermediate	0,0,0,1,0,0,3,0,0	test	ward_and_allport	2,0,0,1,3,0,0,0,0	71.0	9.0	0.423	0,0,0,1,2,3,0,0,0	to_hand	s633
129.274	0.416	0	PA_with_intermediate	2,0,0,1,0,0,3,0,0	test	ward_and_allport	2,0,0,1,3,0,0,0,0	89.0	9.0	0.416	0,0,0,1,2,3,0,0,0	to_board	s633
129.696	1.152	0	PA_with_intermediate	2,0,0,1,0,0,0,0,0	test	ward_and_allport	2,0,0,1,3,0,0,0,0	82.0	9.0	1.152	0,0,0,1,2,3,0,0,0	to_hand	s633
130.85	0.296	0	PA_with_intermediate	2,0,0,1,3,0,0,0,0	test	ward_and_allport	2,0,0,1,3,0,0,0,0	71.0	9.0	0.296	0,0,0,1,2,3,0,0,0	to_board	s633
131.155	1.0	0	PA_with_intermediate	n/a	test	ward_and_allport	n/a	-1.0	9.0	n/a	n/a	feedback	s633
132.155	1.952	0	PA_with_intermediate	n/a	test	ward_and_allport	n/a	-1.0	9.0	n/a	n/a	ITI	s633
134.112	3.22	1	PA_with_intermediate	1,2,0,0,0,0,0,0,0	test	ward_and_allport	1,3,0,0,0,0,2,0,0	89.0	10.0	3.22	1,2,3,0,0,0,0,0,0	to_hand	s633
137.333	0.233	0	PA_with_intermediate	1,2,0,3,0,0,0,0,0	test	ward_and_allport	1,3,0,0,0,0,2,0,0	71.0	10.0	0.233	1,2,3,0,0,0,0,0,0	to_board	s633
137.572	0.614	0	PA_with_intermediate	1,0,0,3,0,0,0,0,0	test	ward_and_allport	1,3,0,0,0,0,2,0,0	89.0	10.0	0.614	1,2,3,0,0,0,0,0,0	to_hand	s633
138.188	0.274	0	PA_with_intermediate	1,0,0,3,0,0,2,0,0	test	ward_and_allport	1,3,0,0,0,0,2,0,0	82.0	10.0	0.274	1,2,3,0,0,0,0,0,0	to_board	s633
138.467	0.433	0	PA_with_intermediate	1,0,0,0,0,0,2,0,0	test	ward_and_allport	1,3,0,0,0,0,2,0,0	71.0	10.0	0.433	1,2,3,0,0,0,0,0,0	to_hand	s633
138.901	0.344	0	PA_with_intermediate	1,3,0,0,0,0,2,0,0	test	ward_and_allport	1,3,0,0,0,0,2,0,0	89.0	10.0	0.344	1,2,3,0,0,0,0,0,0	to_board	s633
139.251	1.0	0	PA_with_intermediate	n/a	test	ward_and_allport	n/a	-1.0	10.0	n/a	n/a	feedback	s633
140.251	1.136	0	PA_with_intermediate	n/a	test	ward_and_allport	n/a	-1.0	10.0	n/a	n/a	ITI	s633
141.393	2.918	1	PA_without_intermediate	0,0,0,0,0,0,1,2,0	test	ward_and_allport	3,1,0,2,0,0,0,0,0	82.0	11.0	2.918	0,0,0,0,0,0,1,2,3	to_hand	s633
144.313	0.306	0	PA_without_intermediate	3,0,0,0,0,0,1,2,0	test	ward_and_allport	3,1,0,2,0,0,0,0,0	89.0	11.0	0.306	0,0,0,0,0,0,1,2,3	to_board	s633
144.625	1.605	0	PA_without_intermediate	3,0,0,0,0,0,1,0,0	test	ward_and_allport	3,1,0,2,0,0,0,0,0	82.0	11.0	1.605	0,0,0,0,0,0,1,2,3	to_hand	s633
146.232	0.302	0	PA_without_intermediate	3,0,0,2,0,0,1,0,0	test	ward_and_allport	3,1,0,2,0,0,0,0,0	71.0	11.0	0.302	0,0,0,0,0,0,1,2,3	to_board	s633
146.54	0.518	0	PA_without_intermediate	3,0,0,2,0,0,0,0,0	test	ward_and_allport	3,1,0,2,0,0,0,0,0	82.0	11.0	0.518	0,0,0,0,0,0,1,2,3	to_hand	s633
147.059	0.306	0	PA_without_intermediate	3,1,0,2,0,0,0,0,0	test	ward_and_allport	3,1,0,2,0,0,0,0,0	89.0	11.0	0.306	0,0,0,0,0,0,1,2,3	to_board	s633
147.374	1.0	0	PA_without_intermediate	n/a	test	ward_and_allport	n/a	-1.0	11.0	n/a	n/a	feedback	s633
148.374	1.68	0	PA_without_intermediate	n/a	test	ward_and_allport	n/a	-1.0	11.0	n/a	n/a	ITI	s633
150.058	2.134	1	PA_without_intermediate	0,0,0,0,0,0,1,2,0	test	ward_and_allport	3,2,0,1,0,0,0,0,0	82.0	12.0	2.134	0,0,0,0,0,0,1,2,3	to_hand	s633
152.194	0.304	0	PA_without_intermediate	3,0,0,0,0,0,1,2,0	test	ward_and_allport	3,2,0,1,0,0,0,0,0	89.0	12.0	0.304	0,0,0,0,0,0,1,2,3	to_board	s633
152.501	0.59	0	PA_without_intermediate	3,0,0,0,0,0,1,0,0	test	ward_and_allport	3,2,0,1,0,0,0,0,0	82.0	12.0	0.59	0,0,0,0,0,0,1,2,3	to_hand	s633
153.092	0.405	0	PA_without_intermediate	3,2,0,0,0,0,1,0,0	test	ward_and_allport	3,2,0,1,0,0,0,0,0	89.0	12.0	0.405	0,0,0,0,0,0,1,2,3	to_board	s633
153.502	1.175	0	PA_without_intermediate	3,2,0,0,0,0,0,0,0	test	ward_and_allport	3,2,0,1,0,0,0,0,0	82.0	12.0	1.175	0,0,0,0,0,0,1,2,3	to_hand	s633
154.679	0.273	0	PA_without_intermediate	3,2,0,1,0,0,0,0,0	test	ward_and_allport	3,2,0,1,0,0,0,0,0	71.0	12.0	0.273	0,0,0,0,0,0,1,2,3	to_board	s633
154.961	1.0	0	PA_without_intermediate	n/a	test	ward_and_allport	n/a	-1.0	12.0	n/a	n/a	feedback	s633
155.961	2.088	0	PA_without_intermediate	n/a	test	ward_and_allport	n/a	-1.0	12.0	n/a	n/a	ITI	s633
158.052	2.33	1	PA_with_intermediate	1,2,0,0,0,0,0,0,0	test	ward_and_allport	1,0,0,2,3,0,0,0,0	89.0	13.0	2.33	1,2,3,0,0,0,0,0,0	to_hand	s633
160.384	0.28	0	PA_with_intermediate	1,2,0,0,0,0,3,0,0	test	ward_and_allport	1,0,0,2,3,0,0,0,0	82.0	13.0	0.28	1,2,3,0,0,0,0,0,0	to_board	s633
160.669	0.825	0	PA_with_intermediate	1,0,0,0,0,0,3,0,0	test	ward_and_allport	1,0,0,2,3,0,0,0,0	89.0	13.0	0.825	1,2,3,0,0,0,0,0,0	to_hand	s633
161.494	0.368	0	PA_with_intermediate	1,0,0,2,0,0,3,0,0	test	ward_and_allport	1,0,0,2,3,0,0,0,0	71.0	13.0	0.368	1,2,3,0,0,0,0,0,0	to_board	s633
161.866	0.724	0	PA_with_intermediate	1,0,0,2,0,0,0,0,0	test	ward_and_allport	1,0,0,2,3,0,0,0,0	82.0	13.0	0.724	1,2,3,0,0,0,0,0,0	to_hand	s633
162.591	0.389	0	PA_with_intermediate	1,0,0,2,3,0,0,0,0	test	ward_and_allport	1,0,0,2,3,0,0,0,0	71.0	13.0	0.389	1,2,3,0,0,0,0,0,0	to_board	s633
162.988	1.0	0	PA_with_intermediate	n/a	test	ward_and_allport	n/a	-1.0	13.0	n/a	n/a	feedback	s633
163.988	1.0	0	PA_with_intermediate	n/a	test	ward_and_allport	n/a	-1.0	13.0	n/a	n/a	ITI	s633
164.994	2.444	1	PA_without_intermediate	0,0,0,1,2,0,0,0,0	test	ward_and_allport	2,0,0,0,0,0,3,1,0	71.0	14.0	2.444	0,0,0,1,2,3,0,0,0	to_hand	s633
167.44	0.376	0	PA_without_intermediate	0,0,0,1,2,0,3,0,0	test	ward_and_allport	2,0,0,0,0,0,3,1,0	82.0	14.0	0.376	0,0,0,1,2,3,0,0,0	to_board	s633
167.821	1.081	0	PA_without_intermediate	0,0,0,1,0,0,3,0,0	test	ward_and_allport	2,0,0,0,0,0,3,1,0	71.0	14.0	1.081	0,0,0,1,2,3,0,0,0	to_hand	s633
168.904	0.385	0	PA_without_intermediate	2,0,0,1,0,0,3,0,0	test	ward_and_allport	2,0,0,0,0,0,3,1,0	89.0	14.0	0.385	0,0,0,1,2,3,0,0,0	to_board	s633
169.296	0.59	0	PA_without_intermediate	2,0,0,0,0,0,3,0,0	test	ward_and_allport	2,0,0,0,0,0,3,1,0	71.0	14.0	0.59	0,0,0,1,2,3,0,0,0	to_hand	s633
169.888	0.358	0	PA_without_intermediate	2,0,0,0,0,0,3,1,0	test	ward_and_allport	2,0,0,0,0,0,3,1,0	82.0	14.0	0.358	0,0,0,1,2,3,0,0,0	to_board	s633
170.256	1.0	0	PA_without_intermediate	n/a	test	ward_and_allport	n/a	-1.0	14.0	n/a	n/a	feedback	s633
171.256	1.0	0	PA_without_intermediate	n/a	test	ward_and_allport	n/a	-1.0	14.0	n/a	n/a	ITI	s633
177.265	1.363	1	PA_without_intermediate	1,2,0,0,0,0,0,0,0	test	ward_and_allport	0,0,0,2,0,0,3,1,0	89.0	15.0	1.363	1,2,3,0,0,0,0,0,0	to_hand	s633
178.63	0.225	0	PA_without_intermediate	1,2,0,0,0,0,3,0,0	test	ward_and_allport	0,0,0,2,0,0,3,1,0	82.0	15.0	0.225	1,2,3,0,0,0,0,0,0	to_board	s633
178.862	0.857	0	PA_without_intermediate	1,0,0,0,0,0,3,0,0	test	ward_and_allport	0,0,0,2,0,0,3,1,0	89.0	15.0	0.857	1,2,3,0,0,0,0,0,0	to_hand	s633
179.72	0.314	0	PA_without_intermediate	1,0,0,2,0,0,3,0,0	test	ward_and_allport	0,0,0,2,0,0,3,1,0	71.0	15.0	0.314	1,2,3,0,0,0,0,0,0	to_board	s633
180.039	0.634	0	PA_without_intermediate	0,0,0,2,0,0,3,0,0	test	ward_and_allport	0,0,0,2,0,0,3,1,0	89.0	15.0	0.634	1,2,3,0,0,0,0,0,0	to_hand	s633
180.675	0.832	0	PA_without_intermediate	0,0,0,2,0,0,3,1,0	test	ward_and_allport	0,0,0,2,0,0,3,1,0	82.0	15.0	0.832	1,2,3,0,0,0,0,0,0	to_board	s633
181.514	1.0	0	PA_without_intermediate	n/a	test	ward_and_allport	n/a	-1.0	15.0	n/a	n/a	feedback	s633
182.514	1.0	0	PA_without_intermediate	n/a	test	ward_and_allport	n/a	-1.0	15.0	n/a	n/a	ITI	s633
183.519	1.827	1	PA_with_intermediate	1,2,0,0,0,0,0,0,0	test	ward_and_allport	1,3,0,0,0,0,2,0,0	89.0	16.0	1.827	1,2,3,0,0,0,0,0,0	to_hand	s633
185.349	0.442	0	PA_with_intermediate	1,2,0,3,0,0,0,0,0	test	ward_and_allport	1,3,0,0,0,0,2,0,0	71.0	16.0	0.442	1,2,3,0,0,0,0,0,0	to_board	s633
185.802	0.396	0	PA_with_intermediate	1,0,0,3,0,0,0,0,0	test	ward_and_allport	1,3,0,0,0,0,2,0,0	89.0	16.0	0.396	1,2,3,0,0,0,0,0,0	to_hand	s633
186.199	0.546	0	PA_with_intermediate	1,0,0,3,0,0,2,0,0	test	ward_and_allport	1,3,0,0,0,0,2,0,0	82.0	16.0	0.546	1,2,3,0,0,0,0,0,0	to_board	s633
186.752	0.468	0	PA_with_intermediate	1,0,0,0,0,0,2,0,0	test	ward_and_allport	1,3,0,0,0,0,2,0,0	71.0	16.0	0.468	1,2,3,0,0,0,0,0,0	to_hand	s633
187.222	0.365	0	PA_with_intermediate	1,3,0,0,0,0,2,0,0	test	ward_and_allport	1,3,0,0,0,0,2,0,0	89.0	16.0	0.365	1,2,3,0,0,0,0,0,0	to_board	s633
187.6	1.0	0	PA_with_intermediate	n/a	test	ward_and_allport	n/a	-1.0	16.0	n/a	n/a	feedback	s633
188.6	1.544	0	PA_with_intermediate	n/a	test	ward_and_allport	n/a	-1.0	16.0	n/a	n/a	ITI	s633
190.151	1.605	1	PA_without_intermediate	0,0,0,0,0,0,1,2,0	test	ward_and_allport	3,2,0,1,0,0,0,0,0	82.0	17.0	1.605	0,0,0,0,0,0,1,2,3	to_hand	s633
191.758	0.989	0	PA_without_intermediate	3,0,0,0,0,0,1,2,0	test	ward_and_allport	3,2,0,1,0,0,0,0,0	89.0	17.0	0.989	0,0,0,0,0,0,1,2,3	to_board	s633
192.751	1.615	0	PA_without_intermediate	3,0,0,0,0,0,1,0,0	test	ward_and_allport	3,2,0,1,0,0,0,0,0	82.0	17.0	1.615	0,0,0,0,0,0,1,2,3	to_hand	s633
194.368	1.007	0	PA_without_intermediate	3,2,0,0,0,0,1,0,0	test	ward_and_allport	3,2,0,1,0,0,0,0,0	89.0	17.0	1.007	0,0,0,0,0,0,1,2,3	to_board	s633
195.382	0.942	0	PA_without_intermediate	3,2,0,0,0,0,0,0,0	test	ward_and_allport	3,2,0,1,0,0,0,0,0	82.0	17.0	0.942	0,0,0,0,0,0,1,2,3	to_hand	s633
196.325	0.27	0	PA_without_intermediate	3,2,0,1,0,0,0,0,0	test	ward_and_allport	3,2,0,1,0,0,0,0,0	71.0	17.0	0.27	0,0,0,0,0,0,1,2,3	to_board	s633
196.608	1.0	0	PA_without_intermediate	n/a	test	ward_and_allport	n/a	-1.0	17.0	n/a	n/a	feedback	s633
197.608	1.272	0	PA_without_intermediate	n/a	test	ward_and_allport	n/a	-1.0	17.0	n/a	n/a	ITI	s633
198.885	1.426	1	PA_with_intermediate	0,0,0,0,0,0,1,2,0	test	ward_and_allport	2,3,0,0,0,0,1,0,0	82.0	18.0	1.426	0,0,0,0,0,0,1,2,3	to_hand	s633
200.312	0.856	0	PA_with_intermediate	0,0,0,3,0,0,1,2,0	test	ward_and_allport	2,3,0,0,0,0,1,0,0	71.0	18.0	0.856	0,0,0,0,0,0,1,2,3	to_board	s633
201.177	1.025	0	PA_with_intermediate	0,0,0,3,0,0,1,0,0	test	ward_and_allport	2,3,0,0,0,0,1,0,0	82.0	18.0	1.025	0,0,0,0,0,0,1,2,3	to_hand	s633
202.202	0.324	0	PA_with_intermediate	2,0,0,3,0,0,1,0,0	test	ward_and_allport	2,3,0,0,0,0,1,0,0	89.0	18.0	0.324	0,0,0,0,0,0,1,2,3	to_board	s633
202.534	0.353	0	PA_with_intermediate	2,0,0,0,0,0,1,0,0	test	ward_and_allport	2,3,0,0,0,0,1,0,0	71.0	18.0	0.353	0,0,0,0,0,0,1,2,3	to_hand	s633
202.889	0.345	0	PA_with_intermediate	2,3,0,0,0,0,1,0,0	test	ward_and_allport	2,3,0,0,0,0,1,0,0	89.0	18.0	0.345	0,0,0,0,0,0,1,2,3	to_board	s633
203.24	1.0	0	PA_with_intermediate	n/a	test	ward_and_allport	n/a	-1.0	18.0	n/a	n/a	feedback	s633
204.24	3.04	0	PA_with_intermediate	n/a	test	ward_and_allport	n/a	-1.0	18.0	n/a	n/a	ITI	s633
207.286	1.435	1	PA_with_intermediate	0,0,0,1,2,0,0,0,0	test	ward_and_allport	0,0,0,1,0,0,2,3,0	71.0	19.0	1.435	0,0,0,1,2,3,0,0,0	to_hand	s633
208.723	0.937	0	PA_with_intermediate	0,0,0,1,2,0,3,0,0	test	ward_and_allport	0,0,0,1,0,0,2,3,0	82.0	19.0	0.937	0,0,0,1,2,3,0,0,0	to_board	s633
209.669	0.495	0	PA_with_intermediate	0,0,0,1,0,0,3,0,0	test	ward_and_allport	0,0,0,1,0,0,2,3,0	71.0	19.0	0.495	0,0,0,1,2,3,0,0,0	to_hand	s633
210.165	0.579	0	PA_with_intermediate	2,0,0,1,0,0,3,0,0	test	ward_and_allport	0,0,0,1,0,0,2,3,0	89.0	19.0	0.579	0,0,0,1,2,3,0,0,0	to_board	s633
210.751	2.0	0	PA_with_intermediate	0,0,0,1,0,0,3,0,0	test	ward_and_allport	0,0,0,1,0,0,2,3,0	89.0	19.0	2.0	0,0,0,1,2,3,0,0,0	to_hand	s633
212.752	0.525	0	PA_with_intermediate	0,0,0,1,2,0,3,0,0	test	ward_and_allport	0,0,0,1,0,0,2,3,0	71.0	19.0	0.525	0,0,0,1,2,3,0,0,0	to_board	s633
213.284	0.457	0	PA_with_intermediate	0,0,0,1,2,0,0,0,0	test	ward_and_allport	0,0,0,1,0,0,2,3,0	82.0	19.0	0.457	0,0,0,1,2,3,0,0,0	to_hand	s633
213.743	0.313	0	PA_with_intermediate	0,0,0,1,2,3,0,0,0	test	ward_and_allport	0,0,0,1,0,0,2,3,0	71.0	19.0	0.313	0,0,0,1,2,3,0,0,0	to_board	s633
214.062	1.114	0	PA_with_intermediate	0,0,0,1,2,0,0,0,0	test	ward_and_allport	0,0,0,1,0,0,2,3,0	71.0	19.0	1.114	0,0,0,1,2,3,0,0,0	to_hand	s633
215.177	0.396	0	PA_with_intermediate	3,0,0,1,2,0,0,0,0	test	ward_and_allport	0,0,0,1,0,0,2,3,0	89.0	19.0	0.396	0,0,0,1,2,3,0,0,0	to_board	s633
215.58	0.34	0	PA_with_intermediate	3,0,0,1,0,0,0,0,0	test	ward_and_allport	0,0,0,1,0,0,2,3,0	71.0	19.0	0.34	0,0,0,1,2,3,0,0,0	to_hand	s633
215.92	0.379	0	PA_with_intermediate	3,0,0,1,0,0,2,0,0	test	ward_and_allport	0,0,0,1,0,0,2,3,0	82.0	19.0	0.379	0,0,0,1,2,3,0,0,0	to_board	s633
216.307	0.486	0	PA_with_intermediate	0,0,0,1,0,0,2,0,0	test	ward_and_allport	0,0,0,1,0,0,2,3,0	89.0	19.0	0.486	0,0,0,1,2,3,0,0,0	to_hand	s633
216.794	0.907	0	PA_with_intermediate	0,0,0,1,0,0,2,3,0	test	ward_and_allport	0,0,0,1,0,0,2,3,0	82.0	19.0	0.907	0,0,0,1,2,3,0,0,0	to_board	s633
217.712	1.0	0	PA_with_intermediate	n/a	test	ward_and_allport	n/a	-1.0	19.0	n/a	n/a	feedback	s633
218.712	1.272	0	PA_with_intermediate	n/a	test	ward_and_allport	n/a	-1.0	19.0	n/a	n/a	ITI	s633
219.991	2.617	1	PA_with_intermediate	0,0,0,0,0,0,1,2,0	test	ward_and_allport	0,0,0,2,3,0,1,0,0	82.0	20.0	2.617	0,0,0,0,0,0,1,2,3	to_hand	s633
222.609	0.324	0	PA_with_intermediate	3,0,0,0,0,0,1,2,0	test	ward_and_allport	0,0,0,2,3,0,1,0,0	89.0	20.0	0.324	0,0,0,0,0,0,1,2,3	to_board	s633
222.941	1.486	0	PA_with_intermediate	3,0,0,0,0,0,1,0,0	test	ward_and_allport	0,0,0,2,3,0,1,0,0	82.0	20.0	1.486	0,0,0,0,0,0,1,2,3	to_hand	s633
224.428	0.272	0	PA_with_intermediate	3,0,0,2,0,0,1,0,0	test	ward_and_allport	0,0,0,2,3,0,1,0,0	71.0	20.0	0.272	0,0,0,0,0,0,1,2,3	to_board	s633
224.708	0.656	0	PA_with_intermediate	0,0,0,2,0,0,1,0,0	test	ward_and_allport	0,0,0,2,3,0,1,0,0	89.0	20.0	0.656	0,0,0,0,0,0,1,2,3	to_hand	s633
225.365	0.412	0	PA_with_intermediate	0,0,0,2,3,0,1,0,0	test	ward_and_allport	0,0,0,2,3,0,1,0,0	71.0	20.0	0.412	0,0,0,0,0,0,1,2,3	to_board	s633
225.788	1.0	0	PA_with_intermediate	n/a	test	ward_and_allport	n/a	-1.0	20.0	n/a	n/a	feedback	s633
226.788	1.136	0	PA_with_intermediate	n/a	test	ward_and_allport	n/a	-1.0	20.0	n/a	n/a	ITI	s633
227.932	1.643	1	PA_with_intermediate	0,0,0,1,2,0,0,0,0	test	ward_and_allport	2,3,0,1,0,0,0,0,0	71.0	21.0	1.643	0,0,0,1,2,3,0,0,0	to_hand	s633
229.577	0.337	0	PA_with_intermediate	0,0,0,1,2,0,3,0,0	test	ward_and_allport	2,3,0,1,0,0,0,0,0	82.0	21.0	0.337	0,0,0,1,2,3,0,0,0	to_board	s633
229.92	0.326	0	PA_with_intermediate	0,0,0,1,0,0,3,0,0	test	ward_and_allport	2,3,0,1,0,0,0,0,0	71.0	21.0	0.326	0,0,0,1,2,3,0,0,0	to_hand	s633
230.248	0.32	0	PA_with_intermediate	2,0,0,1,0,0,3,0,0	test	ward_and_allport	2,3,0,1,0,0,0,0,0	89.0	21.0	0.32	0,0,0,1,2,3,0,0,0	to_board	s633
230.575	0.545	0	PA_with_intermediate	2,0,0,1,0,0,0,0,0	test	ward_and_allport	2,3,0,1,0,0,0,0,0	82.0	21.0	0.545	0,0,0,1,2,3,0,0,0	to_hand	s633
231.121	0.405	0	PA_with_intermediate	2,3,0,1,0,0,0,0,0	test	ward_and_allport	2,3,0,1,0,0,0,0,0	89.0	21.0	0.405	0,0,0,1,2,3,0,0,0	to_board	s633
231.535	1.0	0	PA_with_intermediate	n/a	test	ward_and_allport	n/a	-1.0	21.0	n/a	n/a	feedback	s633
232.535	1.0	0	PA_with_intermediate	n/a	test	ward_and_allport	n/a	-1.0	21.0	n/a	n/a	ITI	s633
233.542	1.734	1	PA_with_intermediate	1,2,0,0,0,0,0,0,0	test	ward_and_allport	1,0,0,2,3,0,0,0,0	89.0	22.0	1.734	1,2,3,0,0,0,0,0,0	to_hand	s633
235.278	0.436	0	PA_with_intermediate	1,2,0,0,0,0,3,0,0	test	ward_and_allport	1,0,0,2,3,0,0,0,0	82.0	22.0	0.436	1,2,3,0,0,0,0,0,0	to_board	s633
235.722	1.912	0	PA_with_intermediate	1,0,0,0,0,0,3,0,0	test	ward_and_allport	1,0,0,2,3,0,0,0,0	89.0	22.0	1.912	1,2,3,0,0,0,0,0,0	to_hand	s633
237.636	0.387	0	PA_with_intermediate	1,0,0,2,0,0,3,0,0	test	ward_and_allport	1,0,0,2,3,0,0,0,0	71.0	22.0	0.387	1,2,3,0,0,0,0,0,0	to_board	s633
238.032	0.382	0	PA_with_intermediate	1,0,0,2,0,0,0,0,0	test	ward_and_allport	1,0,0,2,3,0,0,0,0	82.0	22.0	0.382	1,2,3,0,0,0,0,0,0	to_hand	s633
238.416	0.418	0	PA_with_intermediate	1,0,0,2,3,0,0,0,0	test	ward_and_allport	1,0,0,2,3,0,0,0,0	71.0	22.0	0.418	1,2,3,0,0,0,0,0,0	to_board	s633
238.847	1.0	0	PA_with_intermediate	n/a	test	ward_and_allport	n/a	-1.0	22.0	n/a	n/a	feedback	s633
239.847	1.0	0	PA_with_intermediate	n/a	test	ward_and_allport	n/a	-1.0	22.0	n/a	n/a	ITI	s633
240.853	1.91	1	PA_without_intermediate	1,2,0,0,0,0,0,0,0	test	ward_and_allport	0,0,0,3,2,0,1,0,0	89.0	23.0	1.91	1,2,3,0,0,0,0,0,0	to_hand	s633
242.765	0.256	0	PA_without_intermediate	1,2,0,3,0,0,0,0,0	test	ward_and_allport	0,0,0,3,2,0,1,0,0	71.0	23.0	0.256	1,2,3,0,0,0,0,0,0	to_board	s633
243.03	0.69	0	PA_without_intermediate	1,0,0,3,0,0,0,0,0	test	ward_and_allport	0,0,0,3,2,0,1,0,0	89.0	23.0	0.69	1,2,3,0,0,0,0,0,0	to_hand	s633
243.721	0.307	0	PA_without_intermediate	1,0,0,3,2,0,0,0,0	test	ward_and_allport	0,0,0,3,2,0,1,0,0	71.0	23.0	0.307	1,2,3,0,0,0,0,0,0	to_board	s633
244.035	0.828	0	PA_without_intermediate	0,0,0,3,2,0,0,0,0	test	ward_and_allport	0,0,0,3,2,0,1,0,0	89.0	23.0	0.828	1,2,3,0,0,0,0,0,0	to_hand	s633
244.864	0.279	0	PA_without_intermediate	0,0,0,3,2,0,1,0,0	test	ward_and_allport	0,0,0,3,2,0,1,0,0	82.0	23.0	0.279	1,2,3,0,0,0,0,0,0	to_board	s633
245.15	1.0	0	PA_without_intermediate	n/a	test	ward_and_allport	n/a	-1.0	23.0	n/a	n/a	feedback	s633
246.15	1.408	0	PA_without_intermediate	n/a	test	ward_and_allport	n/a	-1.0	23.0	n/a	n/a	ITI	s633
247.567	2.209	1	PA_with_intermediate	0,0,0,0,0,0,1,2,0	test	ward_and_allport	2,0,0,0,0,0,1,3,0	82.0	24.0	2.209	0,0,0,0,0,0,1,2,3	to_hand	s633
249.778	0.37	0	PA_with_intermediate	3,0,0,0,0,0,1,2,0	test	ward_and_allport	2,0,0,0,0,0,1,3,0	89.0	24.0	0.37	0,0,0,0,0,0,1,2,3	to_board	s633
250.157	1.282	0	PA_with_intermediate	0,0,0,0,0,0,1,2,0	test	ward_and_allport	2,0,0,0,0,0,1,3,0	89.0	24.0	1.282	0,0,0,0,0,0,1,2,3	to_hand	s633
251.439	0.32	0	PA_with_intermediate	0,0,0,3,0,0,1,2,0	test	ward_and_allport	2,0,0,0,0,0,1,3,0	71.0	24.0	0.32	0,0,0,0,0,0,1,2,3	to_board	s633
251.77	0.429	0	PA_with_intermediate	0,0,0,3,0,0,1,0,0	test	ward_and_allport	2,0,0,0,0,0,1,3,0	82.0	24.0	0.429	0,0,0,0,0,0,1,2,3	to_hand	s633
252.2	0.401	0	PA_with_intermediate	2,0,0,3,0,0,1,0,0	test	ward_and_allport	2,0,0,0,0,0,1,3,0	89.0	24.0	0.401	0,0,0,0,0,0,1,2,3	to_board	s633
252.608	0.802	0	PA_with_intermediate	2,0,0,0,0,0,1,0,0	test	ward_and_allport	2,0,0,0,0,0,1,3,0	71.0	24.0	0.802	0,0,0,0,0,0,1,2,3	to_hand	s633
253.411	0.429	0	PA_with_intermediate	2,0,0,0,0,0,1,3,0	test	ward_and_allport	2,0,0,0,0,0,1,3,0	82.0	24.0	0.429	0,0,0,0,0,0,1,2,3	to_board	s633
253.847	1.0	0	PA_with_intermediate	n/a	test	ward_and_allport	n/a	-1.0	24.0	n/a	n/a	feedback	s633
254.847	2.768	0	PA_with_intermediate	n/a	test	ward_and_allport	n/a	-1.0	24.0	n/a	n/a	ITI	s633
257.625	2.112	1	PA_with_intermediate	0,0,0,0,0,0,1,2,0	test	ward_and_allport	2,3,0,0,0,0,1,0,0	82.0	25.0	2.112	0,0,0,0,0,0,1,2,3	to_hand	s633
259.738	0.259	0	PA_with_intermediate	0,0,0,3,0,0,1,2,0	test	ward_and_allport	2,3,0,0,0,0,1,0,0	71.0	25.0	0.259	0,0,0,0,0,0,1,2,3	to_board	s633
260.006	0.352	0	PA_with_intermediate	0,0,0,3,0,0,1,0,0	test	ward_and_allport	2,3,0,0,0,0,1,0,0	82.0	25.0	0.352	0,0,0,0,0,0,1,2,3	to_hand	s633
260.36	0.347	0	PA_with_intermediate	2,0,0,3,0,0,1,0,0	test	ward_and_allport	2,3,0,0,0,0,1,0,0	89.0	25.0	0.347	0,0,0,0,0,0,1,2,3	to_board	s633
260.721	0.341	0	PA_with_intermediate	2,0,0,0,0,0,1,0,0	test	ward_and_allport	2,3,0,0,0,0,1,0,0	71.0	25.0	0.341	0,0,0,0,0,0,1,2,3	to_hand	s633
261.064	0.334	0	PA_with_intermediate	2,3,0,0,0,0,1,0,0	test	ward_and_allport	2,3,0,0,0,0,1,0,0	89.0	25.0	0.334	0,0,0,0,0,0,1,2,3	to_board	s633
261.41	1.0	0	PA_with_intermediate	n/a	test	ward_and_allport	n/a	-1.0	25.0	n/a	n/a	feedback	s633
262.41	1.68	0	PA_with_intermediate	n/a	test	ward_and_allport	n/a	-1.0	25.0	n/a	n/a	ITI	s633
264.097	2.407	1	PA_without_intermediate	0,0,0,0,0,0,1,2,0	test	ward_and_allport	1,0,0,3,2,0,0,0,0	82.0	26.0	2.407	0,0,0,0,0,0,1,2,3	to_hand	s633
266.506	0.257	0	PA_without_intermediate	0,0,0,3,0,0,1,2,0	test	ward_and_allport	1,0,0,3,2,0,0,0,0	71.0	26.0	0.257	0,0,0,0,0,0,1,2,3	to_board	s633
266.771	1.886	0	PA_without_intermediate	0,0,0,3,0,0,1,0,0	test	ward_and_allport	1,0,0,3,2,0,0,0,0	82.0	26.0	1.886	0,0,0,0,0,0,1,2,3	to_hand	s633
268.658	0.312	0	PA_without_intermediate	0,0,0,3,2,0,1,0,0	test	ward_and_allport	1,0,0,3,2,0,0,0,0	71.0	26.0	0.312	0,0,0,0,0,0,1,2,3	to_board	s633
268.98	0.401	0	PA_without_intermediate	0,0,0,3,2,0,0,0,0	test	ward_and_allport	1,0,0,3,2,0,0,0,0	82.0	26.0	0.401	0,0,0,0,0,0,1,2,3	to_hand	s633
269.382	0.409	0	PA_without_intermediate	1,0,0,3,2,0,0,0,0	test	ward_and_allport	1,0,0,3,2,0,0,0,0	89.0	26.0	0.409	0,0,0,0,0,0,1,2,3	to_board	s633
269.804	1.0	0	PA_without_intermediate	n/a	test	ward_and_allport	n/a	-1.0	26.0	n/a	n/a	feedback	s633
270.804	2.224	0	PA_without_intermediate	n/a	test	ward_and_allport	n/a	-1.0	26.0	n/a	n/a	ITI	s633
273.037	2.543	1	PA_without_intermediate	1,2,0,0,0,0,0,0,0	test	ward_and_allport	0,0,0,3,1,0,2,0,0	89.0	27.0	2.543	1,2,3,0,0,0,0,0,0	to_hand	s633
275.581	0.339	0	PA_without_intermediate	1,2,0,3,0,0,0,0,0	test	ward_and_allport	0,0,0,3,1,0,2,0,0	71.0	27.0	0.339	1,2,3,0,0,0,0,0,0	to_board	s633
275.927	0.837	0	PA_without_intermediate	1,0,0,3,0,0,0,0,0	test	ward_and_allport	0,0,0,3,1,0,2,0,0	89.0	27.0	0.837	1,2,3,0,0,0,0,0,0	to_hand	s633
276.765	0.327	0	PA_without_intermediate	1,0,0,3,0,0,2,0,0	test	ward_and_allport	0,0,0,3,1,0,2,0,0	82.0	27.0	0.327	1,2,3,0,0,0,0,0,0	to_board	s633
277.1	0.386	0	PA_without_intermediate	0,0,0,3,0,0,2,0,0	test	ward_and_allport	0,0,0,3,1,0,2,0,0	89.0	27.0	0.386	1,2,3,0,0,0,0,0,0	to_hand	s633
277.487	0.511	0	PA_without_intermediate	0,0,0,3,1,0,2,0,0	test	ward_and_allport	0,0,0,3,1,0,2,0,0	71.0	27.0	0.511	1,2,3,0,0,0,0,0,0	to_board	s633
278.009	1.0	0	PA_without_intermediate	n/a	test	ward_and_allport	n/a	-1.0	27.0	n/a	n/a	feedback	s633
279.009	2.36	0	PA_without_intermediate	n/a	test	ward_and_allport	n/a	-1.0	27.0	n/a	n/a	ITI	s633
281.378	1.554	1	PA_without_intermediate	1,2,0,0,0,0,0,0,0	test	ward_and_allport	0,0,0,1,0,0,3,2,0	89.0	28.0	1.554	1,2,3,0,0,0,0,0,0	to_hand	s633
282.933	0.262	0	PA_without_intermediate	1,2,0,0,0,0,3,0,0	test	ward_and_allport	0,0,0,1,0,0,3,2,0	82.0	28.0	0.262	1,2,3,0,0,0,0,0,0	to_board	s633
283.201	0.517	0	PA_without_intermediate	1,0,0,0,0,0,3,0,0	test	ward_and_allport	0,0,0,1,0,0,3,2,0	89.0	28.0	0.517	1,2,3,0,0,0,0,0,0	to_hand	s633
283.719	0.279	0	PA_without_intermediate	1,0,0,0,0,0,3,2,0	test	ward_and_allport	0,0,0,1,0,0,3,2,0	82.0	28.0	0.279	1,2,3,0,0,0,0,0,0	to_board	s633
284.007	0.51	0	PA_without_intermediate	0,0,0,0,0,0,3,2,0	test	ward_and_allport	0,0,0,1,0,0,3,2,0	89.0	28.0	0.51	1,2,3,0,0,0,0,0,0	to_hand	s633
284.518	0.27	0	PA_without_intermediate	0,0,0,1,0,0,3,2,0	test	ward_and_allport	0,0,0,1,0,0,3,2,0	71.0	28.0	0.27	1,2,3,0,0,0,0,0,0	to_board	s633
284.799	1.0	0	PA_without_intermediate	n/a	test	ward_and_allport	n/a	-1.0	28.0	n/a	n/a	feedback	s633
285.799	1.0	0	PA_without_intermediate	n/a	test	ward_and_allport	n/a	-1.0	28.0	n/a	n/a	ITI	s633
286.807	1.45	1	PA_without_intermediate	1,2,0,0,0,0,0,0,0	test	ward_and_allport	0,0,0,2,0,0,3,1,0	89.0	29.0	1.45	1,2,3,0,0,0,0,0,0	to_hand	s633
288.258	0.416	0	PA_without_intermediate	1,2,0,0,0,0,3,0,0	test	ward_and_allport	0,0,0,2,0,0,3,1,0	82.0	29.0	0.416	1,2,3,0,0,0,0,0,0	to_board	s633
288.681	1.091	0	PA_without_intermediate	1,0,0,0,0,0,3,0,0	test	ward_and_allport	0,0,0,2,0,0,3,1,0	89.0	29.0	1.091	1,2,3,0,0,0,0,0,0	to_hand	s633
289.773	0.278	0	PA_without_intermediate	1,0,0,2,0,0,3,0,0	test	ward_and_allport	0,0,0,2,0,0,3,1,0	71.0	29.0	0.278	1,2,3,0,0,0,0,0,0	to_board	s633
290.057	0.337	0	PA_without_intermediate	0,0,0,2,0,0,3,0,0	test	ward_and_allport	0,0,0,2,0,0,3,1,0	89.0	29.0	0.337	1,2,3,0,0,0,0,0,0	to_hand	s633
290.395	0.297	0	PA_without_intermediate	0,0,0,2,0,0,3,1,0	test	ward_and_allport	0,0,0,2,0,0,3,1,0	82.0	29.0	0.297	1,2,3,0,0,0,0,0,0	to_board	s633
290.699	1.0	0	PA_without_intermediate	n/a	test	ward_and_allport	n/a	-1.0	29.0	n/a	n/a	feedback	s633
291.699	1.408	0	PA_without_intermediate	n/a	test	ward_and_allport	n/a	-1.0	29.0	n/a	n/a	ITI	s633
298.116	3.48	1	PA_with_intermediate	0,0,0,1,2,0,0,0,0	test	ward_and_allport	2,0,0,1,3,0,0,0,0	71.0	30.0	3.48	0,0,0,1,2,3,0,0,0	to_hand	s633
301.597	0.298	0	PA_with_intermediate	0,0,0,1,2,0,3,0,0	test	ward_and_allport	2,0,0,1,3,0,0,0,0	82.0	30.0	0.298	0,0,0,1,2,3,0,0,0	to_board	s633
301.903	0.672	0	PA_with_intermediate	0,0,0,1,0,0,3,0,0	test	ward_and_allport	2,0,0,1,3,0,0,0,0	71.0	30.0	0.672	0,0,0,1,2,3,0,0,0	to_hand	s633
302.577	0.289	0	PA_with_intermediate	2,0,0,1,0,0,3,0,0	test	ward_and_allport	2,0,0,1,3,0,0,0,0	89.0	30.0	0.289	0,0,0,1,2,3,0,0,0	to_board	s633
302.875	0.32	0	PA_with_intermediate	2,0,0,0,0,0,3,0,0	test	ward_and_allport	2,0,0,1,3,0,0,0,0	71.0	30.0	0.32	0,0,0,1,2,3,0,0,0	to_hand	s633
303.197	0.856	0	PA_with_intermediate	2,0,0,1,0,0,3,0,0	test	ward_and_allport	2,0,0,1,3,0,0,0,0	71.0	30.0	0.856	0,0,0,1,2,3,0,0,0	to_board	s633
304.061	0.483	0	PA_with_intermediate	2,0,0,1,0,0,0,0,0	test	ward_and_allport	2,0,0,1,3,0,0,0,0	82.0	30.0	0.483	0,0,0,1,2,3,0,0,0	to_hand	s633
304.546	0.461	0	PA_with_intermediate	2,0,0,1,3,0,0,0,0	test	ward_and_allport	2,0,0,1,3,0,0,0,0	71.0	30.0	0.461	0,0,0,1,2,3,0,0,0	to_board	s633
305.014	1.0	0	PA_with_intermediate	n/a	test	ward_and_allport	n/a	-1.0	30.0	n/a	n/a	feedback	s633
306.014	1.136	0	PA_with_intermediate	n/a	test	ward_and_allport	n/a	-1.0	30.0	n/a	n/a	ITI	s633
307.156	1.637	1	PA_without_intermediate	1,2,0,0,0,0,0,0,0	test	ward_and_allport	0,0,0,3,1,0,2,0,0	89.0	31.0	1.637	1,2,3,0,0,0,0,0,0	to_hand	s633
308.795	0.267	0	PA_without_intermediate	1,2,0,3,0,0,0,0,0	test	ward_and_allport	0,0,0,3,1,0,2,0,0	71.0	31.0	0.267	1,2,3,0,0,0,0,0,0	to_board	s633
309.07	0.465	0	PA_without_intermediate	1,0,0,3,0,0,0,0,0	test	ward_and_allport	0,0,0,3,1,0,2,0,0	89.0	31.0	0.465	1,2,3,0,0,0,0,0,0	to_hand	s633
309.536	0.246	0	PA_without_intermediate	1,0,0,3,0,0,2,0,0	test	ward_and_allport	0,0,0,3,1,0,2,0,0	82.0	31.0	0.246	1,2,3,0,0,0,0,0,0	to_board	s633
309.79	0.359	0	PA_without_intermediate	0,0,0,3,0,0,2,0,0	test	ward_and_allport	0,0,0,3,1,0,2,0,0	89.0	31.0	0.359	1,2,3,0,0,0,0,0,0	to_hand	s633
310.15	0.374	0	PA_without_intermediate	0,0,0,3,1,0,2,0,0	test	ward_and_allport	0,0,0,3,1,0,2,0,0	71.0	31.0	0.374	1,2,3,0,0,0,0,0,0	to_board	s633
310.534	1.0	0	PA_without_intermediate	n/a	test	ward_and_allport	n/a	-1.0	31.0	n/a	n/a	feedback	s633
311.534	4.128	0	PA_without_intermediate	n/a	test	ward_and_allport	n/a	-1.0	31.0	n/a	n/a	ITI	s633
315.668	1.541	1	PA_without_intermediate	0,0,0,1,2,0,0,0,0	test	ward_and_allport	3,1,0,0,0,0,2,0,0	71.0	32.0	1.541	0,0,0,1,2,3,0,0,0	to_hand	s633
317.209	0.254	0	PA_without_intermediate	3,0,0,1,2,0,0,0,0	test	ward_and_allport	3,1,0,0,0,0,2,0,0	89.0	32.0	0.254	0,0,0,1,2,3,0,0,0	to_board	s633
317.473	1.117	0	PA_without_intermediate	3,0,0,1,0,0,0,0,0	test	ward_and_allport	3,1,0,0,0,0,2,0,0	71.0	32.0	1.117	0,0,0,1,2,3,0,0,0	to_hand	s633
318.591	0.306	0	PA_without_intermediate	3,0,0,1,0,0,2,0,0	test	ward_and_allport	3,1,0,0,0,0,2,0,0	82.0	32.0	0.306	0,0,0,1,2,3,0,0,0	to_board	s633
318.909	0.368	0	PA_without_intermediate	3,0,0,0,0,0,2,0,0	test	ward_and_allport	3,1,0,0,0,0,2,0,0	71.0	32.0	0.368	0,0,0,1,2,3,0,0,0	to_hand	s633
319.278	0.256	0	PA_without_intermediate	3,1,0,0,0,0,2,0,0	test	ward_and_allport	3,1,0,0,0,0,2,0,0	89.0	32.0	0.256	0,0,0,1,2,3,0,0,0	to_board	s633
319.546	1.0	0	PA_without_intermediate	n/a	test	ward_and_allport	n/a	-1.0	32.0	n/a	n/a	feedback	s633
320.546	1.136	0	PA_without_intermediate	n/a	test	ward_and_allport	n/a	-1.0	32.0	n/a	n/a	ITI	s633
321.693	1.568	1	PA_without_intermediate	0,0,0,0,0,0,1,2,0	test	ward_and_allport	3,1,0,2,0,0,0,0,0	82.0	33.0	1.568	0,0,0,0,0,0,1,2,3	to_hand	s633
323.262	0.248	0	PA_without_intermediate	3,0,0,0,0,0,1,2,0	test	ward_and_allport	3,1,0,2,0,0,0,0,0	89.0	33.0	0.248	0,0,0,0,0,0,1,2,3	to_board	s633
323.518	1.152	0	PA_without_intermediate	3,0,0,0,0,0,1,0,0	test	ward_and_allport	3,1,0,2,0,0,0,0,0	82.0	33.0	1.152	0,0,0,0,0,0,1,2,3	to_hand	s633
324.671	0.282	0	PA_without_intermediate	3,0,0,2,0,0,1,0,0	test	ward_and_allport	3,1,0,2,0,0,0,0,0	71.0	33.0	0.282	0,0,0,0,0,0,1,2,3	to_board	s633
324.961	0.343	0	PA_without_intermediate	3,0,0,2,0,0,0,0,0	test	ward_and_allport	3,1,0,2,0,0,0,0,0	82.0	33.0	0.343	0,0,0,0,0,0,1,2,3	to_hand	s633
325.306	0.299	0	PA_without_intermediate	3,1,0,2,0,0,0,0,0	test	ward_and_allport	3,1,0,2,0,0,0,0,0	89.0	33.0	0.299	0,0,0,0,0,0,1,2,3	to_board	s633
325.618	1.0	0	PA_without_intermediate	n/a	test	ward_and_allport	n/a	-1.0	33.0	n/a	n/a	feedback	s633
326.618	4.264	0	PA_without_intermediate	n/a	test	ward_and_allport	n/a	-1.0	33.0	n/a	n/a	ITI	s633
330.889	2.15	1	PA_with_intermediate	0,0,0,0,0,0,1,2,0	test	ward_and_allport	0,0,0,2,0,0,1,3,0	82.0	34.0	2.15	0,0,0,0,0,0,1,2,3	to_hand	s633
333.041	0.235	0	PA_with_intermediate	3,0,0,0,0,0,1,2,0	test	ward_and_allport	0,0,0,2,0,0,1,3,0	89.0	34.0	0.235	0,0,0,0,0,0,1,2,3	to_board	s633
333.286	0.609	0	PA_with_intermediate	3,0,0,0,0,0,1,0,0	test	ward_and_allport	0,0,0,2,0,0,1,3,0	82.0	34.0	0.609	0,0,0,0,0,0,1,2,3	to_hand	s633
333.896	0.301	0	PA_with_intermediate	3,0,0,2,0,0,1,0,0	test	ward_and_allport	0,0,0,2,0,0,1,3,0	71.0	34.0	0.301	0,0,0,0,0,0,1,2,3	to_board	s633
334.21	0.33	0	PA_with_intermediate	0,0,0,2,0,0,1,0,0	test	ward_and_allport	0,0,0,2,0,0,1,3,0	89.0	34.0	0.33	0,0,0,0,0,0,1,2,3	to_hand	s633
334.542	0.284	0	PA_with_intermediate	0,0,0,2,0,0,1,3,0	test	ward_and_allport	0,0,0,2,0,0,1,3,0	82.0	34.0	0.284	0,0,0,0,0,0,1,2,3	to_board	s633
334.837	1.0	0	PA_with_intermediate	n/a	test	ward_and_allport	n/a	-1.0	34.0	n/a	n/a	feedback	s633
335.837	3.04	0	PA_with_intermediate	n/a	test	ward_and_allport	n/a	-1.0	34.0	n/a	n/a	ITI	s633
338.886	1.765	1	PA_with_intermediate	0,0,0,1,2,0,0,0,0	test	ward_and_allport	0,0,0,1,3,0,2,0,0	71.0	35.0	1.765	0,0,0,1,2,3,0,0,0	to_hand	s633
340.652	0.739	0	PA_with_intermediate	3,0,0,1,2,0,0,0,0	test	ward_and_allport	0,0,0,1,3,0,2,0,0	89.0	35.0	0.739	0,0,0,1,2,3,0,0,0	to_board	s633
341.401	0.326	0	PA_with_intermediate	3,0,0,1,0,0,0,0,0	test	ward_and_allport	0,0,0,1,3,0,2,0,0	71.0	35.0	0.326	0,0,0,1,2,3,0,0,0	to_hand	s633
341.728	0.349	0	PA_with_intermediate	3,0,0,1,0,0,2,0,0	test	ward_and_allport	0,0,0,1,3,0,2,0,0	82.0	35.0	0.349	0,0,0,1,2,3,0,0,0	to_board	s633
342.086	0.734	0	PA_with_intermediate	0,0,0,1,0,0,2,0,0	test	ward_and_allport	0,0,0,1,3,0,2,0,0	89.0	35.0	0.734	0,0,0,1,2,3,0,0,0	to_hand	s633
342.821	0.253	0	PA_with_intermediate	0,0,0,1,3,0,2,0,0	test	ward_and_allport	0,0,0,1,3,0,2,0,0	71.0	35.0	0.253	0,0,0,1,2,3,0,0,0	to_board	s633
343.088	1.0	0	PA_with_intermediate	n/a	test	ward_and_allport	n/a	-1.0	35.0	n/a	n/a	feedback	s633
344.088	1.136	0	PA_with_intermediate	n/a	test	ward_and_allport	n/a	-1.0	35.0	n/a	n/a	ITI	s633
345.235	1.469	1	PA_with_intermediate	0,0,0,0,0,0,1,2,0	test	ward_and_allport	2,0,0,0,0,0,1,3,0	82.0	36.0	1.469	0,0,0,0,0,0,1,2,3	to_hand	s633
346.705	0.291	0	PA_with_intermediate	3,0,0,0,0,0,1,2,0	test	ward_and_allport	2,0,0,0,0,0,1,3,0	89.0	36.0	0.291	0,0,0,0,0,0,1,2,3	to_board	s633
347.005	2.506	0	PA_with_intermediate	3,0,0,0,0,0,1,0,0	test	ward_and_allport	2,0,0,0,0,0,1,3,0	82.0	36.0	2.506	0,0,0,0,0,0,1,2,3	to_hand	s633
349.513	0.458	0	PA_with_intermediate	3,0,0,2,0,0,1,0,0	test	ward_and_allport	2,0,0,0,0,0,1,3,0	71.0	36.0	0.458	0,0,0,0,0,0,1,2,3	to_board	s633
349.979	0.8	0	PA_with_intermediate	0,0,0,2,0,0,1,0,0	test	ward_and_allport	2,0,0,0,0,0,1,3,0	89.0	36.0	0.8	0,0,0,0,0,0,1,2,3	to_hand	s633
350.781	0.526	0	PA_with_intermediate	0,0,0,2,0,0,1,3,0	test	ward_and_allport	2,0,0,0,0,0,1,3,0	82.0	36.0	0.526	0,0,0,0,0,0,1,2,3	to_board	s633
351.318	0.433	0	PA_with_intermediate	0,0,0,0,0,0,1,3,0	test	ward_and_allport	2,0,0,0,0,0,1,3,0	71.0	36.0	0.433	0,0,0,0,0,0,1,2,3	to_hand	s633
351.753	0.394	0	PA_with_intermediate	2,0,0,0,0,0,1,3,0	test	ward_and_allport	2,0,0,0,0,0,1,3,0	89.0	36.0	0.394	0,0,0,0,0,0,1,2,3	to_board	s633
352.159	1.0	0	PA_with_intermediate	n/a	test	ward_and_allport	n/a	-1.0	36.0	n/a	n/a	feedback	s633
353.159	1.408	0	PA_with_intermediate	n/a	test	ward_and_allport	n/a	-1.0	36.0	n/a	n/a	ITI	s633
354.577	2.569	1	PA_without_intermediate	1,2,0,0,0,0,0,0,0	test	ward_and_allport	0,0,0,3,2,0,1,0,0	89.0	37.0	2.569	1,2,3,0,0,0,0,0,0	to_hand	s633
357.147	0.211	0	PA_without_intermediate	1,2,0,3,0,0,0,0,0	test	ward_and_allport	0,0,0,3,2,0,1,0,0	71.0	37.0	0.211	1,2,3,0,0,0,0,0,0	to_board	s633
357.366	0.284	0	PA_without_intermediate	1,0,0,3,0,0,0,0,0	test	ward_and_allport	0,0,0,3,2,0,1,0,0	89.0	37.0	0.284	1,2,3,0,0,0,0,0,0	to_hand	s633
357.651	0.239	0	PA_without_intermediate	1,0,0,3,2,0,0,0,0	test	ward_and_allport	0,0,0,3,2,0,1,0,0	71.0	37.0	0.239	1,2,3,0,0,0,0,0,0	to_board	s633
357.902	0.272	0	PA_without_intermediate	0,0,0,3,2,0,0,0,0	test	ward_and_allport	0,0,0,3,2,0,1,0,0	89.0	37.0	0.272	1,2,3,0,0,0,0,0,0	to_hand	s633
358.176	0.424	0	PA_without_intermediate	0,0,0,3,2,0,1,0,0	test	ward_and_allport	0,0,0,3,2,0,1,0,0	82.0	37.0	0.424	1,2,3,0,0,0,0,0,0	to_board	s633
358.613	1.0	0	PA_without_intermediate	n/a	test	ward_and_allport	n/a	-1.0	37.0	n/a	n/a	feedback	s633
359.613	1.68	0	PA_without_intermediate	n/a	test	ward_and_allport	n/a	-1.0	37.0	n/a	n/a	ITI	s633
361.302	1.703	1	PA_with_intermediate	0,0,0,0,0,0,1,2,0	test	ward_and_allport	0,0,0,2,3,0,1,0,0	82.0	38.0	1.703	0,0,0,0,0,0,1,2,3	to_hand	s633
363.006	0.415	0	PA_with_intermediate	3,0,0,0,0,0,1,2,0	test	ward_and_allport	0,0,0,2,3,0,1,0,0	89.0	38.0	0.415	0,0,0,0,0,0,1,2,3	to_board	s633
363.429	0.97	0	PA_with_intermediate	3,0,0,0,0,0,1,0,0	test	ward_and_allport	0,0,0,2,3,0,1,0,0	82.0	38.0	0.97	0,0,0,0,0,0,1,2,3	to_hand	s633
364.4	0.325	0	PA_with_intermediate	3,0,0,2,0,0,1,0,0	test	ward_and_allport	0,0,0,2,3,0,1,0,0	71.0	38.0	0.325	0,0,0,0,0,0,1,2,3	to_board	s633
364.731	0.802	0	PA_with_intermediate	0,0,0,2,0,0,1,0,0	test	ward_and_allport	0,0,0,2,3,0,1,0,0	89.0	38.0	0.802	0,0,0,0,0,0,1,2,3	to_hand	s633
365.534	0.359	0	PA_with_intermediate	0,0,0,2,3,0,1,0,0	test	ward_and_allport	0,0,0,2,3,0,1,0,0	71.0	38.0	0.359	0,0,0,0,0,0,1,2,3	to_board	s633
365.901	1.0	0	PA_with_intermediate	n/a	test	ward_and_allport	n/a	-1.0	38.0	n/a	n/a	feedback	s633
366.901	3.72	0	PA_with_intermediate	n/a	test	ward_and_allport	n/a	-1.0	38.0	n/a	n/a	ITI	s633
370.63	1.328	1	PA_without_intermediate	1,2,0,0,0,0,0,0,0	test	ward_and_allport	0,0,0,1,0,0,3,2,0	89.0	39.0	1.328	1,2,3,0,0,0,0,0,0	to_hand	s633
371.96	0.244	0	PA_without_intermediate	1,2,0,0,0,0,3,0,0	test	ward_and_allport	0,0,0,1,0,0,3,2,0	82.0	39.0	0.244	1,2,3,0,0,0,0,0,0	to_board	s633
372.215	0.449	0	PA_without_intermediate	1,0,0,0,0,0,3,0,0	test	ward_and_allport	0,0,0,1,0,0,3,2,0	89.0	39.0	0.449	1,2,3,0,0,0,0,0,0	to_hand	s633
372.665	0.275	0	PA_without_intermediate	1,0,0,0,0,0,3,2,0	test	ward_and_allport	0,0,0,1,0,0,3,2,0	82.0	39.0	0.275	1,2,3,0,0,0,0,0,0	to_board	s633
372.949	0.343	0	PA_without_intermediate	0,0,0,0,0,0,3,2,0	test	ward_and_allport	0,0,0,1,0,0,3,2,0	89.0	39.0	0.343	1,2,3,0,0,0,0,0,0	to_hand	s633
373.294	0.246	0	PA_without_intermediate	0,0,0,1,0,0,3,2,0	test	ward_and_allport	0,0,0,1,0,0,3,2,0	71.0	39.0	0.246	1,2,3,0,0,0,0,0,0	to_board	s633
373.553	1.0	0	PA_without_intermediate	n/a	test	ward_and_allport	n/a	-1.0	39.0	n/a	n/a	feedback	s633
374.553	2.224	0	PA_without_intermediate	n/a	test	ward_and_allport	n/a	-1.0	39.0	n/a	n/a	ITI	s633
376.788	2.531	1	PA_without_intermediate	0,0,0,0,0,0,1,2,0	test	ward_and_allport	1,0,0,3,2,0,0,0,0	82.0	40.0	2.531	0,0,0,0,0,0,1,2,3	to_hand	s633
379.321	0.36	0	PA_without_intermediate	3,0,0,0,0,0,1,2,0	test	ward_and_allport	1,0,0,3,2,0,0,0,0	89.0	40.0	0.36	0,0,0,0,0,0,1,2,3	to_board	s633
379.695	0.962	0	PA_without_intermediate	0,0,0,0,0,0,1,2,0	test	ward_and_allport	1,0,0,3,2,0,0,0,0	89.0	40.0	0.962	0,0,0,0,0,0,1,2,3	to_hand	s633
380.659	0.284	0	PA_without_intermediate	0,0,0,3,0,0,1,2,0	test	ward_and_allport	1,0,0,3,2,0,0,0,0	71.0	40.0	0.284	0,0,0,0,0,0,1,2,3	to_board	s633
380.953	1.519	0	PA_without_intermediate	0,0,0,3,0,0,1,0,0	test	ward_and_allport	1,0,0,3,2,0,0,0,0	82.0	40.0	1.519	0,0,0,0,0,0,1,2,3	to_hand	s633
382.473	0.393	0	PA_without_intermediate	0,0,0,3,2,0,1,0,0	test	ward_and_allport	1,0,0,3,2,0,0,0,0	71.0	40.0	0.393	0,0,0,0,0,0,1,2,3	to_board	s633
382.877	0.939	0	PA_without_intermediate	0,0,0,3,2,0,0,0,0	test	ward_and_allport	1,0,0,3,2,0,0,0,0	82.0	40.0	0.939	0,0,0,0,0,0,1,2,3	to_hand	s633
383.816	0.258	0	PA_without_intermediate	1,0,0,3,2,0,0,0,0	test	ward_and_allport	1,0,0,3,2,0,0,0,0	89.0	40.0	0.258	0,0,0,0,0,0,1,2,3	to_board	s633
384.087	1.0	0	PA_without_intermediate	n/a	test	ward_and_allport	n/a	-1.0	40.0	n/a	n/a	feedback	s633
385.087	1.272	0	PA_without_intermediate	n/a	test	ward_and_allport	n/a	-1.0	40.0	n/a	n/a	ITI	s633
386.368	2.442	1	PA_with_intermediate	0,0,0,1,2,0,0,0,0	test	ward_and_allport	0,0,0,1,3,0,2,0,0	71.0	41.0	2.442	0,0,0,1,2,3,0,0,0	to_hand	s633
388.812	0.433	0	PA_with_intermediate	0,0,0,1,2,0,3,0,0	test	ward_and_allport	0,0,0,1,3,0,2,0,0	82.0	41.0	0.433	0,0,0,1,2,3,0,0,0	to_board	s633
389.253	1.516	0	PA_with_intermediate	0,0,0,1,0,0,3,0,0	test	ward_and_allport	0,0,0,1,3,0,2,0,0	71.0	41.0	1.516	0,0,0,1,2,3,0,0,0	to_hand	s633
390.77	2.706	0	PA_with_intermediate	2,0,0,1,0,0,3,0,0	test	ward_and_allport	0,0,0,1,3,0,2,0,0	89.0	41.0	2.706	0,0,0,1,2,3,0,0,0	to_board	s633
393.485	0.495	0	PA_with_intermediate	2,0,0,1,0,0,0,0,0	test	ward_and_allport	0,0,0,1,3,0,2,0,0	82.0	41.0	0.495	0,0,0,1,2,3,0,0,0	to_hand	s633
393.982	0.297	0	PA_with_intermediate	2,0,0,1,3,0,0,0,0	test	ward_and_allport	0,0,0,1,3,0,2,0,0	71.0	41.0	0.297	0,0,0,1,2,3,0,0,0	to_board	s633
394.291	0.272	0	PA_with_intermediate	0,0,0,1,3,0,0,0,0	test	ward_and_allport	0,0,0,1,3,0,2,0,0	89.0	41.0	0.272	0,0,0,1,2,3,0,0,0	to_hand	s633
394.564	0.268	0	PA_with_intermediate	0,0,0,1,3,0,2,0,0	test	ward_and_allport	0,0,0,1,3,0,2,0,0	82.0	41.0	0.268	0,0,0,1,2,3,0,0,0	to_board	s633
394.844	1.0	0	PA_with_intermediate	n/a	test	ward_and_allport	n/a	-1.0	41.0	n/a	n/a	feedback	s633
395.844	2.632	0	PA_with_intermediate	n/a	test	ward_and_allport	n/a	-1.0	41.0	n/a	n/a	ITI	s633
398.491	1.756	1	PA_without_intermediate	0,0,0,1,2,0,0,0,0	test	ward_and_allport	3,2,0,0,0,0,1,0,0	71.0	42.0	1.756	0,0,0,1,2,3,0,0,0	to_hand	s633
400.248	0.307	0	PA_without_intermediate	3,0,0,1,2,0,0,0,0	test	ward_and_allport	3,2,0,0,0,0,1,0,0	89.0	42.0	0.307	0,0,0,1,2,3,0,0,0	to_board	s633
400.563	0.279	0	PA_without_intermediate	3,0,0,1,0,0,0,0,0	test	ward_and_allport	3,2,0,0,0,0,1,0,0	71.0	42.0	0.279	0,0,0,1,2,3,0,0,0	to_hand	s633
400.844	0.22	0	PA_without_intermediate	3,2,0,1,0,0,0,0,0	test	ward_and_allport	3,2,0,0,0,0,1,0,0	89.0	42.0	0.22	0,0,0,1,2,3,0,0,0	to_board	s633
401.079	0.502	0	PA_without_intermediate	3,2,0,0,0,0,0,0,0	test	ward_and_allport	3,2,0,0,0,0,1,0,0	71.0	42.0	0.502	0,0,0,1,2,3,0,0,0	to_hand	s633
401.582	0.263	0	PA_without_intermediate	3,2,0,0,0,0,1,0,0	test	ward_and_allport	3,2,0,0,0,0,1,0,0	82.0	42.0	0.263	0,0,0,1,2,3,0,0,0	to_board	s633
401.859	1.0	0	PA_without_intermediate	n/a	test	ward_and_allport	n/a	-1.0	42.0	n/a	n/a	feedback	s633
402.859	1.408	0	PA_without_intermediate	n/a	test	ward_and_allport	n/a	-1.0	42.0	n/a	n/a	ITI	s633
404.276	1.252	1	PA_without_intermediate	0,0,0,0,0,0,1,2,0	test	ward_and_allport	2,0,0,3,1,0,0,0,0	82.0	43.0	1.252	0,0,0,0,0,0,1,2,3	to_hand	s633
405.53	0.327	0	PA_without_intermediate	0,0,0,3,0,0,1,2,0	test	ward_and_allport	2,0,0,3,1,0,0,0,0	71.0	43.0	0.327	0,0,0,0,0,0,1,2,3	to_board	s633
405.865	0.488	0	PA_without_intermediate	0,0,0,0,0,0,1,2,0	test	ward_and_allport	2,0,0,3,1,0,0,0,0	71.0	43.0	0.488	0,0,0,0,0,0,1,2,3	to_hand	s633
406.355	0.775	0	PA_without_intermediate	0,0,0,3,0,0,1,2,0	test	ward_and_allport	2,0,0,3,1,0,0,0,0	71.0	43.0	0.775	0,0,0,0,0,0,1,2,3	to_board	s633
407.139	0.717	0	PA_without_intermediate	0,0,0,3,0,0,1,0,0	test	ward_and_allport	2,0,0,3,1,0,0,0,0	82.0	43.0	0.717	0,0,0,0,0,0,1,2,3	to_hand	s633
407.858	0.333	0	PA_without_intermediate	2,0,0,3,0,0,1,0,0	test	ward_and_allport	2,0,0,3,1,0,0,0,0	89.0	43.0	0.333	0,0,0,0,0,0,1,2,3	to_board	s633
408.202	0.512	0	PA_without_intermediate	2,0,0,3,0,0,0,0,0	test	ward_and_allport	2,0,0,3,1,0,0,0,0	82.0	43.0	0.512	0,0,0,0,0,0,1,2,3	to_hand	s633
408.716	0.243	0	PA_without_intermediate	2,0,0,3,1,0,0,0,0	test	ward_and_allport	2,0,0,3,1,0,0,0,0	71.0	43.0	0.243	0,0,0,0,0,0,1,2,3	to_board	s633
408.972	1.0	0	PA_without_intermediate	n/a	test	ward_and_allport	n/a	-1.0	43.0	n/a	n/a	feedback	s633
409.972	1.0	0	PA_without_intermediate	n/a	test	ward_and_allport	n/a	-1.0	43.0	n/a	n/a	ITI	s633
410.978	1.23	1	PA_with_intermediate	0,0,0,1,2,0,0,0,0	test	ward_and_allport	2,3,0,1,0,0,0,0,0	71.0	44.0	1.23	0,0,0,1,2,3,0,0,0	to_hand	s633
412.21	0.194	0	PA_with_intermediate	3,0,0,1,2,0,0,0,0	test	ward_and_allport	2,3,0,1,0,0,0,0,0	89.0	44.0	0.194	0,0,0,1,2,3,0,0,0	to_board	s633
412.413	1.696	0	PA_with_intermediate	0,0,0,1,2,0,0,0,0	test	ward_and_allport	2,3,0,1,0,0,0,0,0	89.0	44.0	1.696	0,0,0,1,2,3,0,0,0	to_hand	s633
414.11	0.246	0	PA_with_intermediate	0,0,0,1,2,0,3,0,0	test	ward_and_allport	2,3,0,1,0,0,0,0,0	82.0	44.0	0.246	0,0,0,1,2,3,0,0,0	to_board	s633
414.366	0.431	0	PA_with_intermediate	0,0,0,1,0,0,3,0,0	test	ward_and_allport	2,3,0,1,0,0,0,0,0	71.0	44.0	0.431	0,0,0,1,2,3,0,0,0	to_hand	s633
414.798	0.35	0	PA_with_intermediate	2,0,0,1,0,0,3,0,0	test	ward_and_allport	2,3,0,1,0,0,0,0,0	89.0	44.0	0.35	0,0,0,1,2,3,0,0,0	to_board	s633
415.157	0.318	0	PA_with_intermediate	2,0,0,1,0,0,0,0,0	test	ward_and_allport	2,3,0,1,0,0,0,0,0	82.0	44.0	0.318	0,0,0,1,2,3,0,0,0	to_hand	s633
415.476	0.337	0	PA_with_intermediate	2,3,0,1,0,0,0,0,0	test	ward_and_allport	2,3,0,1,0,0,0,0,0	89.0	44.0	0.337	0,0,0,1,2,3,0,0,0	to_board	s633
415.825	1.0	0	PA_with_intermediate	n/a	test	ward_and_allport	n/a	-1.0	44.0	n/a	n/a	feedback	s633
416.825	1.0	0	PA_with_intermediate	n/a	test	ward_and_allport	n/a	-1.0	44.0	n/a	n/a	ITI	s633
422.841	1.67	1	PA_with_intermediate	1,2,0,0,0,0,0,0,0	test	ward_and_allport	1,3,0,2,0,0,0,0,0	89.0	45.0	1.67	1,2,3,0,0,0,0,0,0	to_hand	s633
424.513	0.337	0	PA_with_intermediate	1,2,0,0,0,0,3,0,0	test	ward_and_allport	1,3,0,2,0,0,0,0,0	82.0	45.0	0.337	1,2,3,0,0,0,0,0,0	to_board	s633
424.864	1.23	0	PA_with_intermediate	1,0,0,0,0,0,3,0,0	test	ward_and_allport	1,3,0,2,0,0,0,0,0	89.0	45.0	1.23	1,2,3,0,0,0,0,0,0	to_hand	s633
426.096	0.247	0	PA_with_intermediate	1,0,0,2,0,0,3,0,0	test	ward_and_allport	1,3,0,2,0,0,0,0,0	71.0	45.0	0.247	1,2,3,0,0,0,0,0,0	to_board	s633
426.357	0.891	0	PA_with_intermediate	1,0,0,2,0,0,0,0,0	test	ward_and_allport	1,3,0,2,0,0,0,0,0	82.0	45.0	0.891	1,2,3,0,0,0,0,0,0	to_hand	s633
427.249	0.26	0	PA_with_intermediate	1,3,0,2,0,0,0,0,0	test	ward_and_allport	1,3,0,2,0,0,0,0,0	89.0	45.0	0.26	1,2,3,0,0,0,0,0,0	to_board	s633
427.52	1.0	0	PA_with_intermediate	n/a	test	ward_and_allport	n/a	-1.0	45.0	n/a	n/a	feedback	s633
428.52	1.0	0	PA_with_intermediate	n/a	test	ward_and_allport	n/a	-1.0	45.0	n/a	n/a	ITI	s633
429.532	1.636	1	PA_with_intermediate	1,2,0,0,0,0,0,0,0	test	ward_and_allport	1,0,0,0,0,0,2,3,0	89.0	46.0	1.636	1,2,3,0,0,0,0,0,0	to_hand	s633
431.169	0.321	0	PA_with_intermediate	1,2,0,3,0,0,0,0,0	test	ward_and_allport	1,0,0,0,0,0,2,3,0	71.0	46.0	0.321	1,2,3,0,0,0,0,0,0	to_board	s633
431.497	0.277	0	PA_with_intermediate	1,0,0,3,0,0,0,0,0	test	ward_and_allport	1,0,0,0,0,0,2,3,0	89.0	46.0	0.277	1,2,3,0,0,0,0,0,0	to_hand	s633
431.776	0.253	0	PA_with_intermediate	1,0,0,3,0,0,2,0,0	test	ward_and_allport	1,0,0,0,0,0,2,3,0	82.0	46.0	0.253	1,2,3,0,0,0,0,0,0	to_board	s633
432.04	0.595	0	PA_with_intermediate	1,0,0,0,0,0,2,0,0	test	ward_and_allport	1,0,0,0,0,0,2,3,0	71.0	46.0	0.595	1,2,3,0,0,0,0,0,0	to_hand	s633
432.636	0.275	0	PA_with_intermediate	1,0,0,0,0,0,2,3,0	test	ward_and_allport	1,0,0,0,0,0,2,3,0	82.0	46.0	0.275	1,2,3,0,0,0,0,0,0	to_board	s633
432.926	1.0	0	PA_with_intermediate	n/a	test	ward_and_allport	n/a	-1.0	46.0	n/a	n/a	feedback	s633
433.926	1.408	0	PA_with_intermediate	n/a	test	ward_and_allport	n/a	-1.0	46.0	n/a	n/a	ITI	s633
435.347	1.461	1	PA_without_intermediate	0,0,0,1,2,0,0,0,0	test	ward_and_allport	1,0,0,0,0,0,3,2,0	71.0	47.0	1.461	0,0,0,1,2,3,0,0,0	to_hand	s633
436.809	0.472	0	PA_without_intermediate	0,0,0,1,2,0,3,0,0	test	ward_and_allport	1,0,0,0,0,0,3,2,0	82.0	47.0	0.472	0,0,0,1,2,3,0,0,0	to_board	s633
437.292	1.273	0	PA_without_intermediate	0,0,0,1,0,0,3,0,0	test	ward_and_allport	1,0,0,0,0,0,3,2,0	71.0	47.0	1.273	0,0,0,1,2,3,0,0,0	to_hand	s633
438.565	0.343	0	PA_without_intermediate	0,0,0,1,0,0,3,2,0	test	ward_and_allport	1,0,0,0,0,0,3,2,0	82.0	47.0	0.343	0,0,0,1,2,3,0,0,0	to_board	s633
438.919	0.458	0	PA_without_intermediate	0,0,0,0,0,0,3,2,0	test	ward_and_allport	1,0,0,0,0,0,3,2,0	71.0	47.0	0.458	0,0,0,1,2,3,0,0,0	to_hand	s633
439.379	0.332	0	PA_without_intermediate	1,0,0,0,0,0,3,2,0	test	ward_and_allport	1,0,0,0,0,0,3,2,0	89.0	47.0	0.332	0,0,0,1,2,3,0,0,0	to_board	s633
439.723	1.0	0	PA_without_intermediate	n/a	test	ward_and_allport	n/a	-1.0	47.0	n/a	n/a	feedback	s633
440.723	1.816	0	PA_without_intermediate	n/a	test	ward_and_allport	n/a	-1.0	47.0	n/a	n/a	ITI	s633
n/a	n/a	0	n/a	n/a	n/a	n/a	n/a	n/a	n/a	n/a	n/a	ITI	n/a
