onset	duration	planning	condition	current_position	exp_stage	experiment_exp_id	goal_state	key_press	problem_id	response_time	start_state	trial_id	worker_id
-77.127	0.0	0	n/a	n/a	n/a	ward_and_allport	n/a	32.0	n/a	38.265	n/a	instructions	s373
3.011	5.942	1	UA_with_intermediate	1,0,0,2,0,0,0,0,0	practice	ward_and_allport	1,2,3,0,0,0,0,0,0	71.0	0.0	5.942	1,0,0,2,3,0,0,0,0	to_hand	s373
8.954	0.883	0	UA_with_intermediate	1,0,0,2,0,0,3,0,0	practice	ward_and_allport	1,2,3,0,0,0,0,0,0	82.0	0.0	0.883	1,0,0,2,3,0,0,0,0	to_board	s373
9.84	1.486	0	UA_with_intermediate	1,0,0,0,0,0,3,0,0	practice	ward_and_allport	1,2,3,0,0,0,0,0,0	71.0	0.0	1.486	1,0,0,2,3,0,0,0,0	to_hand	s373
11.327	0.416	0	UA_with_intermediate	1,2,0,0,0,0,3,0,0	practice	ward_and_allport	1,2,3,0,0,0,0,0,0	89.0	0.0	0.416	1,0,0,2,3,0,0,0,0	to_board	s373
11.745	1.229	0	UA_with_intermediate	1,2,0,0,0,0,0,0,0	practice	ward_and_allport	1,2,3,0,0,0,0,0,0	82.0	0.0	1.229	1,0,0,2,3,0,0,0,0	to_hand	s373
12.974	0.597	0	UA_with_intermediate	1,2,3,0,0,0,0,0,0	practice	ward_and_allport	1,2,3,0,0,0,0,0,0	89.0	0.0	0.597	1,0,0,2,3,0,0,0,0	to_board	s373
13.577	1.0	0	UA_with_intermediate	n/a	practice	ward_and_allport	n/a	-1.0	0.0	n/a	n/a	feedback	s373
16.079	4.281	1	UA_with_intermediate	1,0,0,3,0,0,0,0,0	practice	ward_and_allport	1,3,2,0,0,0,0,0,0	89.0	1.0	4.281	1,2,0,3,0,0,0,0,0	to_hand	s373
20.36	0.529	0	UA_with_intermediate	1,0,0,3,0,0,2,0,0	practice	ward_and_allport	1,3,2,0,0,0,0,0,0	82.0	1.0	0.529	1,2,0,3,0,0,0,0,0	to_board	s373
20.891	0.637	0	UA_with_intermediate	1,0,0,0,0,0,2,0,0	practice	ward_and_allport	1,3,2,0,0,0,0,0,0	71.0	1.0	0.637	1,2,0,3,0,0,0,0,0	to_hand	s373
21.529	0.585	0	UA_with_intermediate	1,3,0,0,0,0,2,0,0	practice	ward_and_allport	1,3,2,0,0,0,0,0,0	89.0	1.0	0.585	1,2,0,3,0,0,0,0,0	to_board	s373
22.116	1.217	0	UA_with_intermediate	1,3,0,0,0,0,0,0,0	practice	ward_and_allport	1,3,2,0,0,0,0,0,0	82.0	1.0	1.217	1,2,0,3,0,0,0,0,0	to_hand	s373
23.334	0.388	0	UA_with_intermediate	1,3,2,0,0,0,0,0,0	practice	ward_and_allport	1,3,2,0,0,0,0,0,0	89.0	1.0	0.388	1,2,0,3,0,0,0,0,0	to_board	s373
23.727	1.0	0	UA_with_intermediate	n/a	practice	ward_and_allport	n/a	-1.0	1.0	n/a	n/a	feedback	s373
24.727	1.1	0	UA_with_intermediate	n/a	practice	ward_and_allport	n/a	-1.0	1.0	n/a	n/a	ITI	s373
25.829	3.261	1	UA_without_intermediate	0,0,0,1,2,0,0,0,0	practice	ward_and_allport	3,2,1,0,0,0,0,0,0	82.0	2.0	3.261	0,0,0,1,2,0,3,0,0	to_hand	s373
29.091	0.54	0	UA_without_intermediate	3,0,0,1,2,0,0,0,0	practice	ward_and_allport	3,2,1,0,0,0,0,0,0	89.0	2.0	0.54	0,0,0,1,2,0,3,0,0	to_board	s373
29.634	1.23	0	UA_without_intermediate	3,0,0,1,0,0,0,0,0	practice	ward_and_allport	3,2,1,0,0,0,0,0,0	71.0	2.0	1.23	0,0,0,1,2,0,3,0,0	to_hand	s373
30.865	0.308	0	UA_without_intermediate	3,2,0,1,0,0,0,0,0	practice	ward_and_allport	3,2,1,0,0,0,0,0,0	89.0	2.0	0.308	0,0,0,1,2,0,3,0,0	to_board	s373
31.175	0.562	0	UA_without_intermediate	3,2,0,0,0,0,0,0,0	practice	ward_and_allport	3,2,1,0,0,0,0,0,0	71.0	2.0	0.562	0,0,0,1,2,0,3,0,0	to_hand	s373
31.738	0.274	0	UA_without_intermediate	3,2,1,0,0,0,0,0,0	practice	ward_and_allport	3,2,1,0,0,0,0,0,0	89.0	2.0	0.274	0,0,0,1,2,0,3,0,0	to_board	s373
32.017	1.0	0	UA_without_intermediate	n/a	practice	ward_and_allport	n/a	-1.0	2.0	n/a	n/a	feedback	s373
33.017	1.2	0	UA_without_intermediate	n/a	practice	ward_and_allport	n/a	-1.0	2.0	n/a	n/a	ITI	s373
34.218	2.939	1	UA_without_intermediate	0,0,0,1,0,0,3,0,0	practice	ward_and_allport	2,3,1,0,0,0,0,0,0	71.0	3.0	2.939	0,0,0,1,2,0,3,0,0	to_hand	s373
37.158	0.573	0	UA_without_intermediate	2,0,0,1,0,0,3,0,0	practice	ward_and_allport	2,3,1,0,0,0,0,0,0	89.0	3.0	0.573	0,0,0,1,2,0,3,0,0	to_board	s373
37.733	0.897	0	UA_without_intermediate	2,0,0,1,0,0,0,0,0	practice	ward_and_allport	2,3,1,0,0,0,0,0,0	82.0	3.0	0.897	0,0,0,1,2,0,3,0,0	to_hand	s373
38.632	0.384	0	UA_without_intermediate	2,3,0,1,0,0,0,0,0	practice	ward_and_allport	2,3,1,0,0,0,0,0,0	89.0	3.0	0.384	0,0,0,1,2,0,3,0,0	to_board	s373
39.018	0.77	0	UA_without_intermediate	2,3,0,0,0,0,0,0,0	practice	ward_and_allport	2,3,1,0,0,0,0,0,0	71.0	3.0	0.77	0,0,0,1,2,0,3,0,0	to_hand	s373
39.79	0.363	0	UA_without_intermediate	2,3,1,0,0,0,0,0,0	practice	ward_and_allport	2,3,1,0,0,0,0,0,0	89.0	3.0	0.363	0,0,0,1,2,0,3,0,0	to_board	s373
40.158	1.0	0	UA_without_intermediate	n/a	practice	ward_and_allport	n/a	-1.0	3.0	n/a	n/a	feedback	s373
41.158	1.0	0	UA_without_intermediate	n/a	practice	ward_and_allport	n/a	-1.0	3.0	n/a	n/a	ITI	s373
44.165	5.803	1	PA_with_intermediate	0,0,0,0,0,0,1,2,0	test	ward_and_allport	2,3,0,0,0,0,1,0,0	82.0	0.0	5.803	0,0,0,0,0,0,1,2,3	to_hand	s373
49.969	0.545	0	PA_with_intermediate	0,0,0,3,0,0,1,2,0	test	ward_and_allport	2,3,0,0,0,0,1,0,0	71.0	0.0	0.545	0,0,0,0,0,0,1,2,3	to_board	s373
50.515	2.247	0	PA_with_intermediate	0,0,0,3,0,0,1,0,0	test	ward_and_allport	2,3,0,0,0,0,1,0,0	82.0	0.0	2.247	0,0,0,0,0,0,1,2,3	to_hand	s373
52.763	0.404	0	PA_with_intermediate	2,0,0,3,0,0,1,0,0	test	ward_and_allport	2,3,0,0,0,0,1,0,0	89.0	0.0	0.404	0,0,0,0,0,0,1,2,3	to_board	s373
53.169	0.753	0	PA_with_intermediate	2,0,0,0,0,0,1,0,0	test	ward_and_allport	2,3,0,0,0,0,1,0,0	71.0	0.0	0.753	0,0,0,0,0,0,1,2,3	to_hand	s373
53.924	0.309	0	PA_with_intermediate	2,3,0,0,0,0,1,0,0	test	ward_and_allport	2,3,0,0,0,0,1,0,0	89.0	0.0	0.309	0,0,0,0,0,0,1,2,3	to_board	s373
54.236	1.0	0	PA_with_intermediate	n/a	test	ward_and_allport	n/a	-1.0	0.0	n/a	n/a	feedback	s373
55.236	2.768	0	PA_with_intermediate	n/a	test	ward_and_allport	n/a	-1.0	0.0	n/a	n/a	ITI	s373
58.007	4.238	1	PA_with_intermediate	0,0,0,1,2,0,0,0,0	test	ward_and_allport	2,0,0,1,3,0,0,0,0	71.0	1.0	4.238	0,0,0,1,2,3,0,0,0	to_hand	s373
62.246	0.4	0	PA_with_intermediate	0,0,0,1,2,0,3,0,0	test	ward_and_allport	2,0,0,1,3,0,0,0,0	82.0	1.0	0.4	0,0,0,1,2,3,0,0,0	to_board	s373
62.648	0.631	0	PA_with_intermediate	0,0,0,1,0,0,3,0,0	test	ward_and_allport	2,0,0,1,3,0,0,0,0	71.0	1.0	0.631	0,0,0,1,2,3,0,0,0	to_hand	s373
63.28	0.428	0	PA_with_intermediate	2,0,0,1,0,0,3,0,0	test	ward_and_allport	2,0,0,1,3,0,0,0,0	89.0	1.0	0.428	0,0,0,1,2,3,0,0,0	to_board	s373
63.71	1.171	0	PA_with_intermediate	2,0,0,1,0,0,0,0,0	test	ward_and_allport	2,0,0,1,3,0,0,0,0	82.0	1.0	1.171	0,0,0,1,2,3,0,0,0	to_hand	s373
64.882	0.326	0	PA_with_intermediate	2,0,0,1,3,0,0,0,0	test	ward_and_allport	2,0,0,1,3,0,0,0,0	71.0	1.0	0.326	0,0,0,1,2,3,0,0,0	to_board	s373
65.213	1.0	0	PA_with_intermediate	n/a	test	ward_and_allport	n/a	-1.0	1.0	n/a	n/a	feedback	s373
66.213	1.68	0	PA_with_intermediate	n/a	test	ward_and_allport	n/a	-1.0	1.0	n/a	n/a	ITI	s373
67.895	4.259	1	PA_without_intermediate	0,0,0,0,0,0,1,2,0	test	ward_and_allport	3,1,0,2,0,0,0,0,0	82.0	2.0	4.259	0,0,0,0,0,0,1,2,3	to_hand	s373
72.156	0.768	0	PA_without_intermediate	3,0,0,0,0,0,1,2,0	test	ward_and_allport	3,1,0,2,0,0,0,0,0	89.0	2.0	0.768	0,0,0,0,0,0,1,2,3	to_board	s373
72.926	3.359	0	PA_without_intermediate	3,0,0,0,0,0,1,0,0	test	ward_and_allport	3,1,0,2,0,0,0,0,0	82.0	2.0	3.359	0,0,0,0,0,0,1,2,3	to_hand	s373
76.286	0.504	0	PA_without_intermediate	3,0,0,2,0,0,1,0,0	test	ward_and_allport	3,1,0,2,0,0,0,0,0	71.0	2.0	0.504	0,0,0,0,0,0,1,2,3	to_board	s373
76.793	2.269	0	PA_without_intermediate	3,0,0,2,0,0,0,0,0	test	ward_and_allport	3,1,0,2,0,0,0,0,0	82.0	2.0	2.269	0,0,0,0,0,0,1,2,3	to_hand	s373
79.063	0.283	0	PA_without_intermediate	3,1,0,2,0,0,0,0,0	test	ward_and_allport	3,1,0,2,0,0,0,0,0	89.0	2.0	0.283	0,0,0,0,0,0,1,2,3	to_board	s373
79.352	1.0	0	PA_without_intermediate	n/a	test	ward_and_allport	n/a	-1.0	2.0	n/a	n/a	feedback	s373
80.352	2.224	0	PA_without_intermediate	n/a	test	ward_and_allport	n/a	-1.0	2.0	n/a	n/a	ITI	s373
82.579	3.187	1	PA_without_intermediate	1,2,0,0,0,0,0,0,0	test	ward_and_allport	0,0,0,2,0,0,3,1,0	89.0	3.0	3.187	1,2,3,0,0,0,0,0,0	to_hand	s373
85.767	0.482	0	PA_without_intermediate	1,2,0,0,0,0,3,0,0	test	ward_and_allport	0,0,0,2,0,0,3,1,0	82.0	3.0	0.482	1,2,3,0,0,0,0,0,0	to_board	s373
86.252	2.294	0	PA_without_intermediate	1,0,0,0,0,0,3,0,0	test	ward_and_allport	0,0,0,2,0,0,3,1,0	89.0	3.0	2.294	1,2,3,0,0,0,0,0,0	to_hand	s373
88.547	0.336	0	PA_without_intermediate	1,0,0,2,0,0,3,0,0	test	ward_and_allport	0,0,0,2,0,0,3,1,0	71.0	3.0	0.336	1,2,3,0,0,0,0,0,0	to_board	s373
88.886	1.427	0	PA_without_intermediate	0,0,0,2,0,0,3,0,0	test	ward_and_allport	0,0,0,2,0,0,3,1,0	89.0	3.0	1.427	1,2,3,0,0,0,0,0,0	to_hand	s373
90.314	0.336	0	PA_without_intermediate	0,0,0,2,0,0,3,1,0	test	ward_and_allport	0,0,0,2,0,0,3,1,0	82.0	3.0	0.336	1,2,3,0,0,0,0,0,0	to_board	s373
90.657	1.0	0	PA_without_intermediate	n/a	test	ward_and_allport	n/a	-1.0	3.0	n/a	n/a	feedback	s373
91.657	2.36	0	PA_without_intermediate	n/a	test	ward_and_allport	n/a	-1.0	3.0	n/a	n/a	ITI	s373
94.02	4.753	1	PA_without_intermediate	1,2,0,0,0,0,0,0,0	test	ward_and_allport	0,0,0,3,2,0,1,0,0	89.0	4.0	4.753	1,2,3,0,0,0,0,0,0	to_hand	s373
98.774	0.635	0	PA_without_intermediate	1,2,0,3,0,0,0,0,0	test	ward_and_allport	0,0,0,3,2,0,1,0,0	71.0	4.0	0.635	1,2,3,0,0,0,0,0,0	to_board	s373
99.412	1.464	0	PA_without_intermediate	1,0,0,3,0,0,0,0,0	test	ward_and_allport	0,0,0,3,2,0,1,0,0	89.0	4.0	1.464	1,2,3,0,0,0,0,0,0	to_hand	s373
100.877	0.389	0	PA_without_intermediate	1,0,0,3,2,0,0,0,0	test	ward_and_allport	0,0,0,3,2,0,1,0,0	71.0	4.0	0.389	1,2,3,0,0,0,0,0,0	to_board	s373
101.268	0.782	0	PA_without_intermediate	0,0,0,3,2,0,0,0,0	test	ward_and_allport	0,0,0,3,2,0,1,0,0	89.0	4.0	0.782	1,2,3,0,0,0,0,0,0	to_hand	s373
102.052	0.329	0	PA_without_intermediate	0,0,0,3,2,0,1,0,0	test	ward_and_allport	0,0,0,3,2,0,1,0,0	82.0	4.0	0.329	1,2,3,0,0,0,0,0,0	to_board	s373
102.385	1.0	0	PA_without_intermediate	n/a	test	ward_and_allport	n/a	-1.0	4.0	n/a	n/a	feedback	s373
103.385	1.0	0	PA_without_intermediate	n/a	test	ward_and_allport	n/a	-1.0	4.0	n/a	n/a	ITI	s373
104.389	2.896	1	PA_without_intermediate	0,0,0,1,2,0,0,0,0	test	ward_and_allport	3,1,0,0,0,0,2,0,0	71.0	5.0	2.896	0,0,0,1,2,3,0,0,0	to_hand	s373
107.286	0.408	0	PA_without_intermediate	3,0,0,1,2,0,0,0,0	test	ward_and_allport	3,1,0,0,0,0,2,0,0	89.0	5.0	0.408	0,0,0,1,2,3,0,0,0	to_board	s373
107.697	1.106	0	PA_without_intermediate	3,0,0,1,0,0,0,0,0	test	ward_and_allport	3,1,0,0,0,0,2,0,0	71.0	5.0	1.106	0,0,0,1,2,3,0,0,0	to_hand	s373
108.803	0.375	0	PA_without_intermediate	3,0,0,1,0,0,2,0,0	test	ward_and_allport	3,1,0,0,0,0,2,0,0	82.0	5.0	0.375	0,0,0,1,2,3,0,0,0	to_board	s373
109.18	1.35	0	PA_without_intermediate	3,0,0,0,0,0,2,0,0	test	ward_and_allport	3,1,0,0,0,0,2,0,0	71.0	5.0	1.35	0,0,0,1,2,3,0,0,0	to_hand	s373
110.531	0.272	0	PA_without_intermediate	3,1,0,0,0,0,2,0,0	test	ward_and_allport	3,1,0,0,0,0,2,0,0	89.0	5.0	0.272	0,0,0,1,2,3,0,0,0	to_board	s373
110.808	1.0	0	PA_without_intermediate	n/a	test	ward_and_allport	n/a	-1.0	5.0	n/a	n/a	feedback	s373
111.808	1.408	0	PA_without_intermediate	n/a	test	ward_and_allport	n/a	-1.0	5.0	n/a	n/a	ITI	s373
113.218	3.843	1	PA_with_intermediate	0,0,0,1,2,0,0,0,0	test	ward_and_allport	2,0,0,1,3,0,0,0,0	71.0	6.0	3.843	0,0,0,1,2,3,0,0,0	to_hand	s373
117.063	0.402	0	PA_with_intermediate	0,0,0,1,2,0,3,0,0	test	ward_and_allport	2,0,0,1,3,0,0,0,0	82.0	6.0	0.402	0,0,0,1,2,3,0,0,0	to_board	s373
117.468	0.571	0	PA_with_intermediate	0,0,0,1,0,0,3,0,0	test	ward_and_allport	2,0,0,1,3,0,0,0,0	71.0	6.0	0.571	0,0,0,1,2,3,0,0,0	to_hand	s373
118.039	0.446	0	PA_with_intermediate	2,0,0,1,0,0,3,0,0	test	ward_and_allport	2,0,0,1,3,0,0,0,0	89.0	6.0	0.446	0,0,0,1,2,3,0,0,0	to_board	s373
118.489	0.89	0	PA_with_intermediate	2,0,0,1,0,0,0,0,0	test	ward_and_allport	2,0,0,1,3,0,0,0,0	82.0	6.0	0.89	0,0,0,1,2,3,0,0,0	to_hand	s373
119.38	0.396	0	PA_with_intermediate	2,0,0,1,3,0,0,0,0	test	ward_and_allport	2,0,0,1,3,0,0,0,0	71.0	6.0	0.396	0,0,0,1,2,3,0,0,0	to_board	s373
119.781	1.0	0	PA_with_intermediate	n/a	test	ward_and_allport	n/a	-1.0	6.0	n/a	n/a	feedback	s373
120.781	1.136	0	PA_with_intermediate	n/a	test	ward_and_allport	n/a	-1.0	6.0	n/a	n/a	ITI	s373
121.919	5.117	1	PA_without_intermediate	0,0,0,1,2,0,0,0,0	test	ward_and_allport	3,2,0,0,0,0,1,0,0	71.0	7.0	5.117	0,0,0,1,2,3,0,0,0	to_hand	s373
127.037	0.55	0	PA_without_intermediate	0,0,0,1,2,0,3,0,0	test	ward_and_allport	3,2,0,0,0,0,1,0,0	82.0	7.0	0.55	0,0,0,1,2,3,0,0,0	to_board	s373
127.59	0.947	0	PA_without_intermediate	0,0,0,1,0,0,3,0,0	test	ward_and_allport	3,2,0,0,0,0,1,0,0	71.0	7.0	0.947	0,0,0,1,2,3,0,0,0	to_hand	s373
128.539	5.383	0	PA_without_intermediate	0,0,0,1,2,0,3,0,0	test	ward_and_allport	3,2,0,0,0,0,1,0,0	71.0	7.0	5.383	0,0,0,1,2,3,0,0,0	to_board	s373
133.925	1.738	0	PA_without_intermediate	0,0,0,1,2,0,0,0,0	test	ward_and_allport	3,2,0,0,0,0,1,0,0	82.0	7.0	1.738	0,0,0,1,2,3,0,0,0	to_hand	s373
135.664	0.345	0	PA_without_intermediate	3,0,0,1,2,0,0,0,0	test	ward_and_allport	3,2,0,0,0,0,1,0,0	89.0	7.0	0.345	0,0,0,1,2,3,0,0,0	to_board	s373
136.013	1.895	0	PA_without_intermediate	3,0,0,1,0,0,0,0,0	test	ward_and_allport	3,2,0,0,0,0,1,0,0	71.0	7.0	1.895	0,0,0,1,2,3,0,0,0	to_hand	s373
137.909	0.576	0	PA_without_intermediate	3,2,0,1,0,0,0,0,0	test	ward_and_allport	3,2,0,0,0,0,1,0,0	89.0	7.0	0.576	0,0,0,1,2,3,0,0,0	to_board	s373
138.488	2.963	0	PA_without_intermediate	3,2,0,0,0,0,0,0,0	test	ward_and_allport	3,2,0,0,0,0,1,0,0	71.0	7.0	2.963	0,0,0,1,2,3,0,0,0	to_hand	s373
141.452	0.274	0	PA_without_intermediate	3,2,0,0,0,0,1,0,0	test	ward_and_allport	3,2,0,0,0,0,1,0,0	82.0	7.0	0.274	0,0,0,1,2,3,0,0,0	to_board	s373
141.733	1.0	0	PA_without_intermediate	n/a	test	ward_and_allport	n/a	-1.0	7.0	n/a	n/a	feedback	s373
142.733	4.128	0	PA_without_intermediate	n/a	test	ward_and_allport	n/a	-1.0	7.0	n/a	n/a	ITI	s373
146.865	2.808	1	PA_without_intermediate	0,0,0,1,2,0,0,0,0	test	ward_and_allport	3,1,0,0,0,0,2,0,0	71.0	8.0	2.808	0,0,0,1,2,3,0,0,0	to_hand	s373
149.673	0.814	0	PA_without_intermediate	3,0,0,1,2,0,0,0,0	test	ward_and_allport	3,1,0,0,0,0,2,0,0	89.0	8.0	0.814	0,0,0,1,2,3,0,0,0	to_board	s373
150.49	0.433	0	PA_without_intermediate	3,0,0,1,0,0,0,0,0	test	ward_and_allport	3,1,0,0,0,0,2,0,0	71.0	8.0	0.433	0,0,0,1,2,3,0,0,0	to_hand	s373
150.925	0.492	0	PA_without_intermediate	3,0,0,1,0,0,2,0,0	test	ward_and_allport	3,1,0,0,0,0,2,0,0	82.0	8.0	0.492	0,0,0,1,2,3,0,0,0	to_board	s373
151.42	0.813	0	PA_without_intermediate	3,0,0,0,0,0,2,0,0	test	ward_and_allport	3,1,0,0,0,0,2,0,0	71.0	8.0	0.813	0,0,0,1,2,3,0,0,0	to_hand	s373
152.234	0.314	0	PA_without_intermediate	3,1,0,0,0,0,2,0,0	test	ward_and_allport	3,1,0,0,0,0,2,0,0	89.0	8.0	0.314	0,0,0,1,2,3,0,0,0	to_board	s373
152.552	1.0	0	PA_without_intermediate	n/a	test	ward_and_allport	n/a	-1.0	8.0	n/a	n/a	feedback	s373
153.552	1.136	0	PA_without_intermediate	n/a	test	ward_and_allport	n/a	-1.0	8.0	n/a	n/a	ITI	s373
154.693	3.547	1	PA_without_intermediate	0,0,0,0,0,0,1,2,0	test	ward_and_allport	1,0,0,3,2,0,0,0,0	82.0	9.0	3.547	0,0,0,0,0,0,1,2,3	to_hand	s373
158.24	0.387	0	PA_without_intermediate	0,0,0,3,0,0,1,2,0	test	ward_and_allport	1,0,0,3,2,0,0,0,0	71.0	9.0	0.387	0,0,0,0,0,0,1,2,3	to_board	s373
158.632	2.388	0	PA_without_intermediate	0,0,0,3,0,0,1,0,0	test	ward_and_allport	1,0,0,3,2,0,0,0,0	82.0	9.0	2.388	0,0,0,0,0,0,1,2,3	to_hand	s373
161.021	0.389	0	PA_without_intermediate	0,0,0,3,2,0,1,0,0	test	ward_and_allport	1,0,0,3,2,0,0,0,0	71.0	9.0	0.389	0,0,0,0,0,0,1,2,3	to_board	s373
161.414	3.624	0	PA_without_intermediate	0,0,0,3,2,0,0,0,0	test	ward_and_allport	1,0,0,3,2,0,0,0,0	82.0	9.0	3.624	0,0,0,0,0,0,1,2,3	to_hand	s373
165.04	0.34	0	PA_without_intermediate	1,0,0,3,2,0,0,0,0	test	ward_and_allport	1,0,0,3,2,0,0,0,0	89.0	9.0	0.34	0,0,0,0,0,0,1,2,3	to_board	s373
165.387	1.0	0	PA_without_intermediate	n/a	test	ward_and_allport	n/a	-1.0	9.0	n/a	n/a	feedback	s373
166.387	4.264	0	PA_without_intermediate	n/a	test	ward_and_allport	n/a	-1.0	9.0	n/a	n/a	ITI	s373
170.654	4.28	1	PA_with_intermediate	1,2,0,0,0,0,0,0,0	test	ward_and_allport	1,3,0,0,0,0,2,0,0	89.0	10.0	4.28	1,2,3,0,0,0,0,0,0	to_hand	s373
174.935	1.489	0	PA_with_intermediate	1,2,0,3,0,0,0,0,0	test	ward_and_allport	1,3,0,0,0,0,2,0,0	71.0	10.0	1.489	1,2,3,0,0,0,0,0,0	to_board	s373
176.43	0.873	0	PA_with_intermediate	1,0,0,3,0,0,0,0,0	test	ward_and_allport	1,3,0,0,0,0,2,0,0	89.0	10.0	0.873	1,2,3,0,0,0,0,0,0	to_hand	s373
177.304	0.477	0	PA_with_intermediate	1,0,0,3,0,0,2,0,0	test	ward_and_allport	1,3,0,0,0,0,2,0,0	82.0	10.0	0.477	1,2,3,0,0,0,0,0,0	to_board	s373
177.785	1.975	0	PA_with_intermediate	1,0,0,0,0,0,2,0,0	test	ward_and_allport	1,3,0,0,0,0,2,0,0	71.0	10.0	1.975	1,2,3,0,0,0,0,0,0	to_hand	s373
179.762	0.236	0	PA_with_intermediate	1,3,0,0,0,0,2,0,0	test	ward_and_allport	1,3,0,0,0,0,2,0,0	89.0	10.0	0.236	1,2,3,0,0,0,0,0,0	to_board	s373
180.003	1.0	0	PA_with_intermediate	n/a	test	ward_and_allport	n/a	-1.0	10.0	n/a	n/a	feedback	s373
181.003	3.04	0	PA_with_intermediate	n/a	test	ward_and_allport	n/a	-1.0	10.0	n/a	n/a	ITI	s373
184.046	5.209	1	PA_with_intermediate	0,0,0,1,2,0,0,0,0	test	ward_and_allport	0,0,0,1,3,0,2,0,0	71.0	11.0	5.209	0,0,0,1,2,3,0,0,0	to_hand	s373
189.257	0.451	0	PA_with_intermediate	3,0,0,1,2,0,0,0,0	test	ward_and_allport	0,0,0,1,3,0,2,0,0	89.0	11.0	0.451	0,0,0,1,2,3,0,0,0	to_board	s373
189.711	0.93	0	PA_with_intermediate	3,0,0,1,0,0,0,0,0	test	ward_and_allport	0,0,0,1,3,0,2,0,0	71.0	11.0	0.93	0,0,0,1,2,3,0,0,0	to_hand	s373
190.642	0.552	0	PA_with_intermediate	3,0,0,1,0,0,2,0,0	test	ward_and_allport	0,0,0,1,3,0,2,0,0	82.0	11.0	0.552	0,0,0,1,2,3,0,0,0	to_board	s373
191.199	0.455	0	PA_with_intermediate	0,0,0,1,0,0,2,0,0	test	ward_and_allport	0,0,0,1,3,0,2,0,0	89.0	11.0	0.455	0,0,0,1,2,3,0,0,0	to_hand	s373
191.656	0.291	0	PA_with_intermediate	0,0,0,1,3,0,2,0,0	test	ward_and_allport	0,0,0,1,3,0,2,0,0	71.0	11.0	0.291	0,0,0,1,2,3,0,0,0	to_board	s373
191.951	1.0	0	PA_with_intermediate	n/a	test	ward_and_allport	n/a	-1.0	11.0	n/a	n/a	feedback	s373
192.951	1.136	0	PA_with_intermediate	n/a	test	ward_and_allport	n/a	-1.0	11.0	n/a	n/a	ITI	s373
194.09	5.197	1	PA_with_intermediate	0,0,0,1,2,0,0,0,0	test	ward_and_allport	0,0,0,1,0,0,2,3,0	71.0	12.0	5.197	0,0,0,1,2,3,0,0,0	to_hand	s373
199.289	0.965	0	PA_with_intermediate	3,0,0,1,2,0,0,0,0	test	ward_and_allport	0,0,0,1,0,0,2,3,0	89.0	12.0	0.965	0,0,0,1,2,3,0,0,0	to_board	s373
200.258	0.766	0	PA_with_intermediate	3,0,0,1,0,0,0,0,0	test	ward_and_allport	0,0,0,1,0,0,2,3,0	71.0	12.0	0.766	0,0,0,1,2,3,0,0,0	to_hand	s373
201.025	0.476	0	PA_with_intermediate	3,0,0,1,0,0,2,0,0	test	ward_and_allport	0,0,0,1,0,0,2,3,0	82.0	12.0	0.476	0,0,0,1,2,3,0,0,0	to_board	s373
201.505	0.544	0	PA_with_intermediate	0,0,0,1,0,0,2,0,0	test	ward_and_allport	0,0,0,1,0,0,2,3,0	89.0	12.0	0.544	0,0,0,1,2,3,0,0,0	to_hand	s373
202.05	0.416	0	PA_with_intermediate	0,0,0,1,0,0,2,3,0	test	ward_and_allport	0,0,0,1,0,0,2,3,0	82.0	12.0	0.416	0,0,0,1,2,3,0,0,0	to_board	s373
202.473	1.0	0	PA_with_intermediate	n/a	test	ward_and_allport	n/a	-1.0	12.0	n/a	n/a	feedback	s373
203.473	1.408	0	PA_with_intermediate	n/a	test	ward_and_allport	n/a	-1.0	12.0	n/a	n/a	ITI	s373
204.884	3.833	1	PA_without_intermediate	0,0,0,0,0,0,1,2,0	test	ward_and_allport	3,2,0,1,0,0,0,0,0	82.0	13.0	3.833	0,0,0,0,0,0,1,2,3	to_hand	s373
208.718	0.406	0	PA_without_intermediate	3,0,0,0,0,0,1,2,0	test	ward_and_allport	3,2,0,1,0,0,0,0,0	89.0	13.0	0.406	0,0,0,0,0,0,1,2,3	to_board	s373
209.129	1.464	0	PA_without_intermediate	3,0,0,0,0,0,1,0,0	test	ward_and_allport	3,2,0,1,0,0,0,0,0	82.0	13.0	1.464	0,0,0,0,0,0,1,2,3	to_hand	s373
210.594	0.365	0	PA_without_intermediate	3,2,0,0,0,0,1,0,0	test	ward_and_allport	3,2,0,1,0,0,0,0,0	89.0	13.0	0.365	0,0,0,0,0,0,1,2,3	to_board	s373
210.963	1.728	0	PA_without_intermediate	3,2,0,0,0,0,0,0,0	test	ward_and_allport	3,2,0,1,0,0,0,0,0	82.0	13.0	1.728	0,0,0,0,0,0,1,2,3	to_hand	s373
212.692	0.383	0	PA_without_intermediate	3,2,0,1,0,0,0,0,0	test	ward_and_allport	3,2,0,1,0,0,0,0,0	71.0	13.0	0.383	0,0,0,0,0,0,1,2,3	to_board	s373
213.082	1.0	0	PA_without_intermediate	n/a	test	ward_and_allport	n/a	-1.0	13.0	n/a	n/a	feedback	s373
214.082	1.68	0	PA_without_intermediate	n/a	test	ward_and_allport	n/a	-1.0	13.0	n/a	n/a	ITI	s373
215.766	3.876	1	PA_with_intermediate	0,0,0,0,0,0,1,2,0	test	ward_and_allport	2,0,0,0,0,0,1,3,0	82.0	14.0	3.876	0,0,0,0,0,0,1,2,3	to_hand	s373
219.643	0.388	0	PA_with_intermediate	0,0,0,3,0,0,1,2,0	test	ward_and_allport	2,0,0,0,0,0,1,3,0	71.0	14.0	0.388	0,0,0,0,0,0,1,2,3	to_board	s373
220.034	0.996	0	PA_with_intermediate	0,0,0,3,0,0,1,0,0	test	ward_and_allport	2,0,0,0,0,0,1,3,0	82.0	14.0	0.996	0,0,0,0,0,0,1,2,3	to_hand	s373
221.032	0.339	0	PA_with_intermediate	2,0,0,3,0,0,1,0,0	test	ward_and_allport	2,0,0,0,0,0,1,3,0	89.0	14.0	0.339	0,0,0,0,0,0,1,2,3	to_board	s373
221.374	1.264	0	PA_with_intermediate	2,0,0,0,0,0,1,0,0	test	ward_and_allport	2,0,0,0,0,0,1,3,0	71.0	14.0	1.264	0,0,0,0,0,0,1,2,3	to_hand	s373
222.64	0.3	0	PA_with_intermediate	2,0,0,0,0,0,1,3,0	test	ward_and_allport	2,0,0,0,0,0,1,3,0	82.0	14.0	0.3	0,0,0,0,0,0,1,2,3	to_board	s373
222.945	1.0	0	PA_with_intermediate	n/a	test	ward_and_allport	n/a	-1.0	14.0	n/a	n/a	feedback	s373
223.945	3.72	0	PA_with_intermediate	n/a	test	ward_and_allport	n/a	-1.0	14.0	n/a	n/a	ITI	s373
232.672	3.612	1	PA_without_intermediate	0,0,0,1,2,0,0,0,0	test	ward_and_allport	2,0,0,0,0,0,3,1,0	71.0	15.0	3.612	0,0,0,1,2,3,0,0,0	to_hand	s373
236.285	1.082	0	PA_without_intermediate	0,0,0,1,2,0,3,0,0	test	ward_and_allport	2,0,0,0,0,0,3,1,0	82.0	15.0	1.082	0,0,0,1,2,3,0,0,0	to_board	s373
237.372	0.742	0	PA_without_intermediate	0,0,0,1,0,0,3,0,0	test	ward_and_allport	2,0,0,0,0,0,3,1,0	71.0	15.0	0.742	0,0,0,1,2,3,0,0,0	to_hand	s373
238.115	0.41	0	PA_without_intermediate	2,0,0,1,0,0,3,0,0	test	ward_and_allport	2,0,0,0,0,0,3,1,0	89.0	15.0	0.41	0,0,0,1,2,3,0,0,0	to_board	s373
238.53	0.647	0	PA_without_intermediate	2,0,0,0,0,0,3,0,0	test	ward_and_allport	2,0,0,0,0,0,3,1,0	71.0	15.0	0.647	0,0,0,1,2,3,0,0,0	to_hand	s373
239.178	0.265	0	PA_without_intermediate	2,0,0,0,0,0,3,1,0	test	ward_and_allport	2,0,0,0,0,0,3,1,0	82.0	15.0	0.265	0,0,0,1,2,3,0,0,0	to_board	s373
239.451	1.0	0	PA_without_intermediate	n/a	test	ward_and_allport	n/a	-1.0	15.0	n/a	n/a	feedback	s373
240.451	2.224	0	PA_without_intermediate	n/a	test	ward_and_allport	n/a	-1.0	15.0	n/a	n/a	ITI	s373
242.679	4.116	1	PA_without_intermediate	1,2,0,0,0,0,0,0,0	test	ward_and_allport	0,0,0,1,0,0,3,2,0	89.0	16.0	4.116	1,2,3,0,0,0,0,0,0	to_hand	s373
246.796	0.598	0	PA_without_intermediate	1,2,0,0,0,0,3,0,0	test	ward_and_allport	0,0,0,1,0,0,3,2,0	82.0	16.0	0.598	1,2,3,0,0,0,0,0,0	to_board	s373
247.398	0.876	0	PA_without_intermediate	1,0,0,0,0,0,3,0,0	test	ward_and_allport	0,0,0,1,0,0,3,2,0	89.0	16.0	0.876	1,2,3,0,0,0,0,0,0	to_hand	s373
248.275	0.61	0	PA_without_intermediate	1,0,0,0,0,0,3,2,0	test	ward_and_allport	0,0,0,1,0,0,3,2,0	82.0	16.0	0.61	1,2,3,0,0,0,0,0,0	to_board	s373
248.889	0.87	0	PA_without_intermediate	0,0,0,0,0,0,3,2,0	test	ward_and_allport	0,0,0,1,0,0,3,2,0	89.0	16.0	0.87	1,2,3,0,0,0,0,0,0	to_hand	s373
249.761	0.317	0	PA_without_intermediate	0,0,0,1,0,0,3,2,0	test	ward_and_allport	0,0,0,1,0,0,3,2,0	71.0	16.0	0.317	1,2,3,0,0,0,0,0,0	to_board	s373
250.084	1.0	0	PA_without_intermediate	n/a	test	ward_and_allport	n/a	-1.0	16.0	n/a	n/a	feedback	s373
251.084	1.272	0	PA_without_intermediate	n/a	test	ward_and_allport	n/a	-1.0	16.0	n/a	n/a	ITI	s373
252.36	4.755	1	PA_with_intermediate	1,2,0,0,0,0,0,0,0	test	ward_and_allport	1,0,0,0,0,0,2,3,0	89.0	17.0	4.755	1,2,3,0,0,0,0,0,0	to_hand	s373
257.116	0.453	0	PA_with_intermediate	1,2,0,3,0,0,0,0,0	test	ward_and_allport	1,0,0,0,0,0,2,3,0	71.0	17.0	0.453	1,2,3,0,0,0,0,0,0	to_board	s373
257.574	0.71	0	PA_with_intermediate	1,0,0,3,0,0,0,0,0	test	ward_and_allport	1,0,0,0,0,0,2,3,0	89.0	17.0	0.71	1,2,3,0,0,0,0,0,0	to_hand	s373
258.285	1.031	0	PA_with_intermediate	1,0,0,3,0,0,2,0,0	test	ward_and_allport	1,0,0,0,0,0,2,3,0	82.0	17.0	1.031	1,2,3,0,0,0,0,0,0	to_board	s373
259.32	0.592	0	PA_with_intermediate	1,0,0,0,0,0,2,0,0	test	ward_and_allport	1,0,0,0,0,0,2,3,0	71.0	17.0	0.592	1,2,3,0,0,0,0,0,0	to_hand	s373
259.913	0.431	0	PA_with_intermediate	1,0,0,0,0,0,2,3,0	test	ward_and_allport	1,0,0,0,0,0,2,3,0	82.0	17.0	0.431	1,2,3,0,0,0,0,0,0	to_board	s373
260.351	1.0	0	PA_with_intermediate	n/a	test	ward_and_allport	n/a	-1.0	17.0	n/a	n/a	feedback	s373
261.351	2.632	0	PA_with_intermediate	n/a	test	ward_and_allport	n/a	-1.0	17.0	n/a	n/a	ITI	s373
263.988	3.358	1	PA_without_intermediate	0,0,0,1,2,0,0,0,0	test	ward_and_allport	1,0,0,0,0,0,3,2,0	71.0	18.0	3.358	0,0,0,1,2,3,0,0,0	to_hand	s373
267.347	0.368	0	PA_without_intermediate	0,0,0,1,2,0,3,0,0	test	ward_and_allport	1,0,0,0,0,0,3,2,0	82.0	18.0	0.368	0,0,0,1,2,3,0,0,0	to_board	s373
267.72	0.691	0	PA_without_intermediate	0,0,0,1,0,0,3,0,0	test	ward_and_allport	1,0,0,0,0,0,3,2,0	71.0	18.0	0.691	0,0,0,1,2,3,0,0,0	to_hand	s373
268.412	0.318	0	PA_without_intermediate	0,0,0,1,0,0,3,2,0	test	ward_and_allport	1,0,0,0,0,0,3,2,0	82.0	18.0	0.318	0,0,0,1,2,3,0,0,0	to_board	s373
268.735	0.906	0	PA_without_intermediate	0,0,0,0,0,0,3,2,0	test	ward_and_allport	1,0,0,0,0,0,3,2,0	71.0	18.0	0.906	0,0,0,1,2,3,0,0,0	to_hand	s373
269.642	0.256	0	PA_without_intermediate	1,0,0,0,0,0,3,2,0	test	ward_and_allport	1,0,0,0,0,0,3,2,0	89.0	18.0	0.256	0,0,0,1,2,3,0,0,0	to_board	s373
269.906	1.0	0	PA_without_intermediate	n/a	test	ward_and_allport	n/a	-1.0	18.0	n/a	n/a	feedback	s373
270.906	1.408	0	PA_without_intermediate	n/a	test	ward_and_allport	n/a	-1.0	18.0	n/a	n/a	ITI	s373
272.319	3.266	1	PA_without_intermediate	0,0,0,1,2,0,0,0,0	test	ward_and_allport	2,0,0,0,0,0,3,1,0	71.0	19.0	3.266	0,0,0,1,2,3,0,0,0	to_hand	s373
275.586	1.302	0	PA_without_intermediate	0,0,0,1,2,0,3,0,0	test	ward_and_allport	2,0,0,0,0,0,3,1,0	82.0	19.0	1.302	0,0,0,1,2,3,0,0,0	to_board	s373
276.893	0.493	0	PA_without_intermediate	0,0,0,1,0,0,3,0,0	test	ward_and_allport	2,0,0,0,0,0,3,1,0	71.0	19.0	0.493	0,0,0,1,2,3,0,0,0	to_hand	s373
277.386	0.448	0	PA_without_intermediate	2,0,0,1,0,0,3,0,0	test	ward_and_allport	2,0,0,0,0,0,3,1,0	89.0	19.0	0.448	0,0,0,1,2,3,0,0,0	to_board	s373
277.839	0.549	0	PA_without_intermediate	2,0,0,0,0,0,3,0,0	test	ward_and_allport	2,0,0,0,0,0,3,1,0	71.0	19.0	0.549	0,0,0,1,2,3,0,0,0	to_hand	s373
278.389	0.367	0	PA_without_intermediate	2,0,0,0,0,0,3,1,0	test	ward_and_allport	2,0,0,0,0,0,3,1,0	82.0	19.0	0.367	0,0,0,1,2,3,0,0,0	to_board	s373
278.766	1.0	0	PA_without_intermediate	n/a	test	ward_and_allport	n/a	-1.0	19.0	n/a	n/a	feedback	s373
279.766	1.0	0	PA_without_intermediate	n/a	test	ward_and_allport	n/a	-1.0	19.0	n/a	n/a	ITI	s373
280.771	5.424	1	PA_with_intermediate	0,0,0,0,0,0,1,2,0	test	ward_and_allport	0,0,0,2,3,0,1,0,0	82.0	20.0	5.424	0,0,0,0,0,0,1,2,3	to_hand	s373
286.196	0.441	0	PA_with_intermediate	3,0,0,0,0,0,1,2,0	test	ward_and_allport	0,0,0,2,3,0,1,0,0	89.0	20.0	0.441	0,0,0,0,0,0,1,2,3	to_board	s373
286.642	0.844	0	PA_with_intermediate	3,0,0,0,0,0,1,0,0	test	ward_and_allport	0,0,0,2,3,0,1,0,0	82.0	20.0	0.844	0,0,0,0,0,0,1,2,3	to_hand	s373
287.487	0.452	0	PA_with_intermediate	3,0,0,2,0,0,1,0,0	test	ward_and_allport	0,0,0,2,3,0,1,0,0	71.0	20.0	0.452	0,0,0,0,0,0,1,2,3	to_board	s373
287.943	0.632	0	PA_with_intermediate	0,0,0,2,0,0,1,0,0	test	ward_and_allport	0,0,0,2,3,0,1,0,0	89.0	20.0	0.632	0,0,0,0,0,0,1,2,3	to_hand	s373
288.576	0.297	0	PA_with_intermediate	0,0,0,2,3,0,1,0,0	test	ward_and_allport	0,0,0,2,3,0,1,0,0	71.0	20.0	0.297	0,0,0,0,0,0,1,2,3	to_board	s373
288.88	1.0	0	PA_with_intermediate	n/a	test	ward_and_allport	n/a	-1.0	20.0	n/a	n/a	feedback	s373
289.88	1.0	0	PA_with_intermediate	n/a	test	ward_and_allport	n/a	-1.0	20.0	n/a	n/a	ITI	s373
290.885	4.693	1	PA_with_intermediate	1,2,0,0,0,0,0,0,0	test	ward_and_allport	1,3,0,2,0,0,0,0,0	89.0	21.0	4.693	1,2,3,0,0,0,0,0,0	to_hand	s373
295.579	0.398	0	PA_with_intermediate	1,2,0,0,0,0,3,0,0	test	ward_and_allport	1,3,0,2,0,0,0,0,0	82.0	21.0	0.398	1,2,3,0,0,0,0,0,0	to_board	s373
295.982	1.069	0	PA_with_intermediate	1,0,0,0,0,0,3,0,0	test	ward_and_allport	1,3,0,2,0,0,0,0,0	89.0	21.0	1.069	1,2,3,0,0,0,0,0,0	to_hand	s373
297.052	0.455	0	PA_with_intermediate	1,0,0,2,0,0,3,0,0	test	ward_and_allport	1,3,0,2,0,0,0,0,0	71.0	21.0	0.455	1,2,3,0,0,0,0,0,0	to_board	s373
297.512	2.543	0	PA_with_intermediate	1,0,0,2,0,0,0,0,0	test	ward_and_allport	1,3,0,2,0,0,0,0,0	82.0	21.0	2.543	1,2,3,0,0,0,0,0,0	to_hand	s373
300.055	0.314	0	PA_with_intermediate	1,3,0,2,0,0,0,0,0	test	ward_and_allport	1,3,0,2,0,0,0,0,0	89.0	21.0	0.314	1,2,3,0,0,0,0,0,0	to_board	s373
300.378	1.0	0	PA_with_intermediate	n/a	test	ward_and_allport	n/a	-1.0	21.0	n/a	n/a	feedback	s373
301.378	1.0	0	PA_with_intermediate	n/a	test	ward_and_allport	n/a	-1.0	21.0	n/a	n/a	ITI	s373
302.383	5.316	1	PA_with_intermediate	1,2,0,0,0,0,0,0,0	test	ward_and_allport	1,3,0,2,0,0,0,0,0	89.0	22.0	5.316	1,2,3,0,0,0,0,0,0	to_hand	s373
307.7	0.351	0	PA_with_intermediate	1,2,0,0,0,0,3,0,0	test	ward_and_allport	1,3,0,2,0,0,0,0,0	82.0	22.0	0.351	1,2,3,0,0,0,0,0,0	to_board	s373
308.057	0.399	0	PA_with_intermediate	1,0,0,0,0,0,3,0,0	test	ward_and_allport	1,3,0,2,0,0,0,0,0	89.0	22.0	0.399	1,2,3,0,0,0,0,0,0	to_hand	s373
308.456	0.411	0	PA_with_intermediate	1,0,0,2,0,0,3,0,0	test	ward_and_allport	1,3,0,2,0,0,0,0,0	71.0	22.0	0.411	1,2,3,0,0,0,0,0,0	to_board	s373
308.873	0.844	0	PA_with_intermediate	1,0,0,2,0,0,0,0,0	test	ward_and_allport	1,3,0,2,0,0,0,0,0	82.0	22.0	0.844	1,2,3,0,0,0,0,0,0	to_hand	s373
309.718	0.279	0	PA_with_intermediate	1,3,0,2,0,0,0,0,0	test	ward_and_allport	1,3,0,2,0,0,0,0,0	89.0	22.0	0.279	1,2,3,0,0,0,0,0,0	to_board	s373
310.004	1.0	0	PA_with_intermediate	n/a	test	ward_and_allport	n/a	-1.0	22.0	n/a	n/a	feedback	s373
311.004	1.408	0	PA_with_intermediate	n/a	test	ward_and_allport	n/a	-1.0	22.0	n/a	n/a	ITI	s373
312.419	4.067	1	PA_without_intermediate	1,2,0,0,0,0,0,0,0	test	ward_and_allport	0,0,0,3,1,0,2,0,0	89.0	23.0	4.067	1,2,3,0,0,0,0,0,0	to_hand	s373
316.488	0.506	0	PA_without_intermediate	1,2,0,3,0,0,0,0,0	test	ward_and_allport	0,0,0,3,1,0,2,0,0	71.0	23.0	0.506	1,2,3,0,0,0,0,0,0	to_board	s373
317.0	0.994	0	PA_without_intermediate	1,0,0,3,0,0,0,0,0	test	ward_and_allport	0,0,0,3,1,0,2,0,0	89.0	23.0	0.994	1,2,3,0,0,0,0,0,0	to_hand	s373
317.995	0.357	0	PA_without_intermediate	1,0,0,3,0,0,2,0,0	test	ward_and_allport	0,0,0,3,1,0,2,0,0	82.0	23.0	0.357	1,2,3,0,0,0,0,0,0	to_board	s373
318.359	0.562	0	PA_without_intermediate	0,0,0,3,0,0,2,0,0	test	ward_and_allport	0,0,0,3,1,0,2,0,0	89.0	23.0	0.562	1,2,3,0,0,0,0,0,0	to_hand	s373
318.921	0.387	0	PA_without_intermediate	0,0,0,3,1,0,2,0,0	test	ward_and_allport	0,0,0,3,1,0,2,0,0	71.0	23.0	0.387	1,2,3,0,0,0,0,0,0	to_board	s373
319.319	1.0	0	PA_without_intermediate	n/a	test	ward_and_allport	n/a	-1.0	23.0	n/a	n/a	feedback	s373
320.319	1.816	0	PA_without_intermediate	n/a	test	ward_and_allport	n/a	-1.0	23.0	n/a	n/a	ITI	s373
322.141	4.354	1	PA_with_intermediate	0,0,0,0,0,0,1,2,0	test	ward_and_allport	0,0,0,2,0,0,1,3,0	82.0	24.0	4.354	0,0,0,0,0,0,1,2,3	to_hand	s373
326.496	0.601	0	PA_with_intermediate	3,0,0,0,0,0,1,2,0	test	ward_and_allport	0,0,0,2,0,0,1,3,0	89.0	24.0	0.601	0,0,0,0,0,0,1,2,3	to_board	s373
327.104	0.889	0	PA_with_intermediate	3,0,0,0,0,0,1,0,0	test	ward_and_allport	0,0,0,2,0,0,1,3,0	82.0	24.0	0.889	0,0,0,0,0,0,1,2,3	to_hand	s373
327.993	0.475	0	PA_with_intermediate	3,0,0,2,0,0,1,0,0	test	ward_and_allport	0,0,0,2,0,0,1,3,0	71.0	24.0	0.475	0,0,0,0,0,0,1,2,3	to_board	s373
328.474	1.111	0	PA_with_intermediate	0,0,0,2,0,0,1,0,0	test	ward_and_allport	0,0,0,2,0,0,1,3,0	89.0	24.0	1.111	0,0,0,0,0,0,1,2,3	to_hand	s373
329.586	0.337	0	PA_with_intermediate	0,0,0,2,0,0,1,3,0	test	ward_and_allport	0,0,0,2,0,0,1,3,0	82.0	24.0	0.337	0,0,0,0,0,0,1,2,3	to_board	s373
329.933	1.0	0	PA_with_intermediate	n/a	test	ward_and_allport	n/a	-1.0	24.0	n/a	n/a	feedback	s373
330.933	3.176	0	PA_with_intermediate	n/a	test	ward_and_allport	n/a	-1.0	24.0	n/a	n/a	ITI	s373
334.116	4.136	1	PA_with_intermediate	0,0,0,1,2,0,0,0,0	test	ward_and_allport	2,3,0,1,0,0,0,0,0	71.0	25.0	4.136	0,0,0,1,2,3,0,0,0	to_hand	s373
338.253	0.37	0	PA_with_intermediate	0,0,0,1,2,0,3,0,0	test	ward_and_allport	2,3,0,1,0,0,0,0,0	82.0	25.0	0.37	0,0,0,1,2,3,0,0,0	to_board	s373
338.629	0.649	0	PA_with_intermediate	0,0,0,1,0,0,3,0,0	test	ward_and_allport	2,3,0,1,0,0,0,0,0	71.0	25.0	0.649	0,0,0,1,2,3,0,0,0	to_hand	s373
339.28	0.418	0	PA_with_intermediate	2,0,0,1,0,0,3,0,0	test	ward_and_allport	2,3,0,1,0,0,0,0,0	89.0	25.0	0.418	0,0,0,1,2,3,0,0,0	to_board	s373
339.704	0.353	0	PA_with_intermediate	2,0,0,1,0,0,0,0,0	test	ward_and_allport	2,3,0,1,0,0,0,0,0	82.0	25.0	0.353	0,0,0,1,2,3,0,0,0	to_hand	s373
340.059	0.315	0	PA_with_intermediate	2,3,0,1,0,0,0,0,0	test	ward_and_allport	2,3,0,1,0,0,0,0,0	89.0	25.0	0.315	0,0,0,1,2,3,0,0,0	to_board	s373
340.382	1.0	0	PA_with_intermediate	n/a	test	ward_and_allport	n/a	-1.0	25.0	n/a	n/a	feedback	s373
341.382	2.36	0	PA_with_intermediate	n/a	test	ward_and_allport	n/a	-1.0	25.0	n/a	n/a	ITI	s373
343.748	4.657	1	PA_with_intermediate	1,2,0,0,0,0,0,0,0	test	ward_and_allport	1,3,0,0,0,0,2,0,0	89.0	26.0	4.657	1,2,3,0,0,0,0,0,0	to_hand	s373
348.406	0.646	0	PA_with_intermediate	1,2,0,3,0,0,0,0,0	test	ward_and_allport	1,3,0,0,0,0,2,0,0	71.0	26.0	0.646	1,2,3,0,0,0,0,0,0	to_board	s373
349.059	0.478	0	PA_with_intermediate	1,0,0,3,0,0,0,0,0	test	ward_and_allport	1,3,0,0,0,0,2,0,0	89.0	26.0	0.478	1,2,3,0,0,0,0,0,0	to_hand	s373
349.538	0.411	0	PA_with_intermediate	1,0,0,3,0,0,2,0,0	test	ward_and_allport	1,3,0,0,0,0,2,0,0	82.0	26.0	0.411	1,2,3,0,0,0,0,0,0	to_board	s373
349.956	0.516	0	PA_with_intermediate	1,0,0,0,0,0,2,0,0	test	ward_and_allport	1,3,0,0,0,0,2,0,0	71.0	26.0	0.516	1,2,3,0,0,0,0,0,0	to_hand	s373
350.473	0.335	0	PA_with_intermediate	1,3,0,0,0,0,2,0,0	test	ward_and_allport	1,3,0,0,0,0,2,0,0	89.0	26.0	0.335	1,2,3,0,0,0,0,0,0	to_board	s373
350.82	1.0	0	PA_with_intermediate	n/a	test	ward_and_allport	n/a	-1.0	26.0	n/a	n/a	feedback	s373
351.82	1.0	0	PA_with_intermediate	n/a	test	ward_and_allport	n/a	-1.0	26.0	n/a	n/a	ITI	s373
352.826	3.571	1	PA_without_intermediate	1,2,0,0,0,0,0,0,0	test	ward_and_allport	0,0,0,3,1,0,2,0,0	89.0	27.0	3.571	1,2,3,0,0,0,0,0,0	to_hand	s373
356.398	0.342	0	PA_without_intermediate	1,2,0,3,0,0,0,0,0	test	ward_and_allport	0,0,0,3,1,0,2,0,0	71.0	27.0	0.342	1,2,3,0,0,0,0,0,0	to_board	s373
356.747	0.5	0	PA_without_intermediate	1,0,0,3,0,0,0,0,0	test	ward_and_allport	0,0,0,3,1,0,2,0,0	89.0	27.0	0.5	1,2,3,0,0,0,0,0,0	to_hand	s373
357.248	0.4	0	PA_without_intermediate	1,0,0,3,0,0,2,0,0	test	ward_and_allport	0,0,0,3,1,0,2,0,0	82.0	27.0	0.4	1,2,3,0,0,0,0,0,0	to_board	s373
357.654	1.181	0	PA_without_intermediate	0,0,0,3,0,0,2,0,0	test	ward_and_allport	0,0,0,3,1,0,2,0,0	89.0	27.0	1.181	1,2,3,0,0,0,0,0,0	to_hand	s373
358.837	0.228	0	PA_without_intermediate	0,0,0,3,1,0,2,0,0	test	ward_and_allport	0,0,0,3,1,0,2,0,0	71.0	27.0	0.228	1,2,3,0,0,0,0,0,0	to_board	s373
359.073	1.0	0	PA_without_intermediate	n/a	test	ward_and_allport	n/a	-1.0	27.0	n/a	n/a	feedback	s373
360.073	1.408	0	PA_without_intermediate	n/a	test	ward_and_allport	n/a	-1.0	27.0	n/a	n/a	ITI	s373
361.488	5.48	1	PA_with_intermediate	1,2,0,0,0,0,0,0,0	test	ward_and_allport	1,0,0,2,3,0,0,0,0	89.0	28.0	5.48	1,2,3,0,0,0,0,0,0	to_hand	s373
366.969	0.465	0	PA_with_intermediate	1,2,0,0,0,0,3,0,0	test	ward_and_allport	1,0,0,2,3,0,0,0,0	82.0	28.0	0.465	1,2,3,0,0,0,0,0,0	to_board	s373
367.442	1.932	0	PA_with_intermediate	1,0,0,0,0,0,3,0,0	test	ward_and_allport	1,0,0,2,3,0,0,0,0	89.0	28.0	1.932	1,2,3,0,0,0,0,0,0	to_hand	s373
369.376	0.638	0	PA_with_intermediate	1,0,0,2,0,0,3,0,0	test	ward_and_allport	1,0,0,2,3,0,0,0,0	71.0	28.0	0.638	1,2,3,0,0,0,0,0,0	to_board	s373
370.022	0.702	0	PA_with_intermediate	1,0,0,2,0,0,0,0,0	test	ward_and_allport	1,0,0,2,3,0,0,0,0	82.0	28.0	0.702	1,2,3,0,0,0,0,0,0	to_hand	s373
370.725	0.335	0	PA_with_intermediate	1,0,0,2,3,0,0,0,0	test	ward_and_allport	1,0,0,2,3,0,0,0,0	71.0	28.0	0.335	1,2,3,0,0,0,0,0,0	to_board	s373
371.069	1.0	0	PA_with_intermediate	n/a	test	ward_and_allport	n/a	-1.0	28.0	n/a	n/a	feedback	s373
372.069	1.816	0	PA_with_intermediate	n/a	test	ward_and_allport	n/a	-1.0	28.0	n/a	n/a	ITI	s373
373.892	3.06	1	PA_without_intermediate	0,0,0,0,0,0,1,2,0	test	ward_and_allport	3,2,0,1,0,0,0,0,0	82.0	29.0	3.06	0,0,0,0,0,0,1,2,3	to_hand	s373
376.953	0.529	0	PA_without_intermediate	3,0,0,0,0,0,1,2,0	test	ward_and_allport	3,2,0,1,0,0,0,0,0	89.0	29.0	0.529	0,0,0,0,0,0,1,2,3	to_board	s373
377.49	3.384	0	PA_without_intermediate	3,0,0,0,0,0,1,0,0	test	ward_and_allport	3,2,0,1,0,0,0,0,0	82.0	29.0	3.384	0,0,0,0,0,0,1,2,3	to_hand	s373
380.875	0.942	0	PA_without_intermediate	3,2,0,0,0,0,1,0,0	test	ward_and_allport	3,2,0,1,0,0,0,0,0	89.0	29.0	0.942	0,0,0,0,0,0,1,2,3	to_board	s373
381.825	0.364	0	PA_without_intermediate	3,2,0,0,0,0,0,0,0	test	ward_and_allport	3,2,0,1,0,0,0,0,0	82.0	29.0	0.364	0,0,0,0,0,0,1,2,3	to_hand	s373
382.189	0.341	0	PA_without_intermediate	3,2,0,1,0,0,0,0,0	test	ward_and_allport	3,2,0,1,0,0,0,0,0	71.0	29.0	0.341	0,0,0,0,0,0,1,2,3	to_board	s373
382.542	1.0	0	PA_without_intermediate	n/a	test	ward_and_allport	n/a	-1.0	29.0	n/a	n/a	feedback	s373
383.542	2.088	0	PA_without_intermediate	n/a	test	ward_and_allport	n/a	-1.0	29.0	n/a	n/a	ITI	s373
390.642	3.484	1	PA_without_intermediate	0,0,0,0,0,0,1,2,0	test	ward_and_allport	1,0,0,3,2,0,0,0,0	82.0	30.0	3.484	0,0,0,0,0,0,1,2,3	to_hand	s373
394.127	0.489	0	PA_without_intermediate	0,0,0,3,0,0,1,2,0	test	ward_and_allport	1,0,0,3,2,0,0,0,0	71.0	30.0	0.489	0,0,0,0,0,0,1,2,3	to_board	s373
394.622	0.387	0	PA_without_intermediate	0,0,0,3,0,0,1,0,0	test	ward_and_allport	1,0,0,3,2,0,0,0,0	82.0	30.0	0.387	0,0,0,0,0,0,1,2,3	to_hand	s373
395.011	0.463	0	PA_without_intermediate	0,0,0,3,2,0,1,0,0	test	ward_and_allport	1,0,0,3,2,0,0,0,0	71.0	30.0	0.463	0,0,0,0,0,0,1,2,3	to_board	s373
395.482	1.653	0	PA_without_intermediate	0,0,0,3,2,0,0,0,0	test	ward_and_allport	1,0,0,3,2,0,0,0,0	82.0	30.0	1.653	0,0,0,0,0,0,1,2,3	to_hand	s373
397.137	0.254	0	PA_without_intermediate	1,0,0,3,2,0,0,0,0	test	ward_and_allport	1,0,0,3,2,0,0,0,0	89.0	30.0	0.254	0,0,0,0,0,0,1,2,3	to_board	s373
397.4	1.0	0	PA_without_intermediate	n/a	test	ward_and_allport	n/a	-1.0	30.0	n/a	n/a	feedback	s373
398.4	1.136	0	PA_without_intermediate	n/a	test	ward_and_allport	n/a	-1.0	30.0	n/a	n/a	ITI	s373
399.544	3.075	1	PA_without_intermediate	0,0,0,0,0,0,1,2,0	test	ward_and_allport	2,0,0,3,1,0,0,0,0	82.0	31.0	3.075	0,0,0,0,0,0,1,2,3	to_hand	s373
402.619	0.534	0	PA_without_intermediate	0,0,0,3,0,0,1,2,0	test	ward_and_allport	2,0,0,3,1,0,0,0,0	71.0	31.0	0.534	0,0,0,0,0,0,1,2,3	to_board	s373
403.16	1.135	0	PA_without_intermediate	0,0,0,3,0,0,1,0,0	test	ward_and_allport	2,0,0,3,1,0,0,0,0	82.0	31.0	1.135	0,0,0,0,0,0,1,2,3	to_hand	s373
404.296	0.418	0	PA_without_intermediate	2,0,0,3,0,0,1,0,0	test	ward_and_allport	2,0,0,3,1,0,0,0,0	89.0	31.0	0.418	0,0,0,0,0,0,1,2,3	to_board	s373
404.723	0.565	0	PA_without_intermediate	2,0,0,3,0,0,0,0,0	test	ward_and_allport	2,0,0,3,1,0,0,0,0	82.0	31.0	0.565	0,0,0,0,0,0,1,2,3	to_hand	s373
405.289	0.351	0	PA_without_intermediate	2,0,0,3,1,0,0,0,0	test	ward_and_allport	2,0,0,3,1,0,0,0,0	71.0	31.0	0.351	0,0,0,0,0,0,1,2,3	to_board	s373
405.655	1.0	0	PA_without_intermediate	n/a	test	ward_and_allport	n/a	-1.0	31.0	n/a	n/a	feedback	s373
406.655	6.168	0	PA_without_intermediate	n/a	test	ward_and_allport	n/a	-1.0	31.0	n/a	n/a	ITI	s373
412.832	2.937	1	PA_without_intermediate	0,0,0,0,0,0,1,2,0	test	ward_and_allport	3,1,0,2,0,0,0,0,0	82.0	32.0	2.937	0,0,0,0,0,0,1,2,3	to_hand	s373
415.77	0.672	0	PA_without_intermediate	3,0,0,0,0,0,1,2,0	test	ward_and_allport	3,1,0,2,0,0,0,0,0	89.0	32.0	0.672	0,0,0,0,0,0,1,2,3	to_board	s373
416.451	1.518	0	PA_without_intermediate	3,0,0,0,0,0,1,0,0	test	ward_and_allport	3,1,0,2,0,0,0,0,0	82.0	32.0	1.518	0,0,0,0,0,0,1,2,3	to_hand	s373
417.97	0.638	0	PA_without_intermediate	3,0,0,2,0,0,1,0,0	test	ward_and_allport	3,1,0,2,0,0,0,0,0	71.0	32.0	0.638	0,0,0,0,0,0,1,2,3	to_board	s373
418.619	0.585	0	PA_without_intermediate	3,0,0,2,0,0,0,0,0	test	ward_and_allport	3,1,0,2,0,0,0,0,0	82.0	32.0	0.585	0,0,0,0,0,0,1,2,3	to_hand	s373
419.205	0.253	0	PA_without_intermediate	3,1,0,2,0,0,0,0,0	test	ward_and_allport	3,1,0,2,0,0,0,0,0	89.0	32.0	0.253	0,0,0,0,0,0,1,2,3	to_board	s373
419.469	1.0	0	PA_without_intermediate	n/a	test	ward_and_allport	n/a	-1.0	32.0	n/a	n/a	feedback	s373
420.469	1.816	0	PA_without_intermediate	n/a	test	ward_and_allport	n/a	-1.0	32.0	n/a	n/a	ITI	s373
422.292	2.809	1	PA_with_intermediate	0,0,0,0,0,0,1,2,0	test	ward_and_allport	0,0,0,2,0,0,1,3,0	82.0	33.0	2.809	0,0,0,0,0,0,1,2,3	to_hand	s373
425.102	0.463	0	PA_with_intermediate	3,0,0,0,0,0,1,2,0	test	ward_and_allport	0,0,0,2,0,0,1,3,0	89.0	33.0	0.463	0,0,0,0,0,0,1,2,3	to_board	s373
425.572	1.257	0	PA_with_intermediate	3,0,0,0,0,0,1,0,0	test	ward_and_allport	0,0,0,2,0,0,1,3,0	82.0	33.0	1.257	0,0,0,0,0,0,1,2,3	to_hand	s373
426.829	0.625	0	PA_with_intermediate	3,0,0,2,0,0,1,0,0	test	ward_and_allport	0,0,0,2,0,0,1,3,0	71.0	33.0	0.625	0,0,0,0,0,0,1,2,3	to_board	s373
427.462	3.917	0	PA_with_intermediate	0,0,0,2,0,0,1,0,0	test	ward_and_allport	0,0,0,2,0,0,1,3,0	89.0	33.0	3.917	0,0,0,0,0,0,1,2,3	to_hand	s373
431.381	0.225	0	PA_with_intermediate	0,0,0,2,3,0,1,0,0	test	ward_and_allport	0,0,0,2,0,0,1,3,0	71.0	33.0	0.225	0,0,0,0,0,0,1,2,3	to_board	s373
431.615	2.098	0	PA_with_intermediate	0,0,0,2,0,0,1,0,0	test	ward_and_allport	0,0,0,2,0,0,1,3,0	71.0	33.0	2.098	0,0,0,0,0,0,1,2,3	to_hand	s373
433.714	0.308	0	PA_with_intermediate	0,0,0,2,0,0,1,3,0	test	ward_and_allport	0,0,0,2,0,0,1,3,0	82.0	33.0	0.308	0,0,0,0,0,0,1,2,3	to_board	s373
434.032	1.0	0	PA_with_intermediate	n/a	test	ward_and_allport	n/a	-1.0	33.0	n/a	n/a	feedback	s373
435.032	1.952	0	PA_with_intermediate	n/a	test	ward_and_allport	n/a	-1.0	33.0	n/a	n/a	ITI	s373
436.991	5.277	1	PA_with_intermediate	0,0,0,1,2,0,0,0,0	test	ward_and_allport	0,0,0,1,0,0,2,3,0	71.0	34.0	5.277	0,0,0,1,2,3,0,0,0	to_hand	s373
442.269	0.347	0	PA_with_intermediate	3,0,0,1,2,0,0,0,0	test	ward_and_allport	0,0,0,1,0,0,2,3,0	89.0	34.0	0.347	0,0,0,1,2,3,0,0,0	to_board	s373
442.625	0.463	0	PA_with_intermediate	3,0,0,1,0,0,0,0,0	test	ward_and_allport	0,0,0,1,0,0,2,3,0	71.0	34.0	0.463	0,0,0,1,2,3,0,0,0	to_hand	s373
443.09	0.427	0	PA_with_intermediate	3,0,0,1,0,0,2,0,0	test	ward_and_allport	0,0,0,1,0,0,2,3,0	82.0	34.0	0.427	0,0,0,1,2,3,0,0,0	to_board	s373
443.527	0.395	0	PA_with_intermediate	0,0,0,1,0,0,2,0,0	test	ward_and_allport	0,0,0,1,0,0,2,3,0	89.0	34.0	0.395	0,0,0,1,2,3,0,0,0	to_hand	s373
443.924	0.291	0	PA_with_intermediate	0,0,0,1,0,0,2,3,0	test	ward_and_allport	0,0,0,1,0,0,2,3,0	82.0	34.0	0.291	0,0,0,1,2,3,0,0,0	to_board	s373
444.224	1.0	0	PA_with_intermediate	n/a	test	ward_and_allport	n/a	-1.0	34.0	n/a	n/a	feedback	s373
445.224	1.136	0	PA_with_intermediate	n/a	test	ward_and_allport	n/a	-1.0	34.0	n/a	n/a	ITI	s373
446.369	3.575	1	PA_without_intermediate	1,2,0,0,0,0,0,0,0	test	ward_and_allport	0,0,0,1,0,0,3,2,0	89.0	35.0	3.575	1,2,3,0,0,0,0,0,0	to_hand	s373
449.945	0.384	0	PA_without_intermediate	1,2,0,0,0,0,3,0,0	test	ward_and_allport	0,0,0,1,0,0,3,2,0	82.0	35.0	0.384	1,2,3,0,0,0,0,0,0	to_board	s373
450.338	0.334	0	PA_without_intermediate	1,0,0,0,0,0,3,0,0	test	ward_and_allport	0,0,0,1,0,0,3,2,0	89.0	35.0	0.334	1,2,3,0,0,0,0,0,0	to_hand	s373
450.673	0.377	0	PA_without_intermediate	1,0,0,0,0,0,3,2,0	test	ward_and_allport	0,0,0,1,0,0,3,2,0	82.0	35.0	0.377	1,2,3,0,0,0,0,0,0	to_board	s373
451.058	0.785	0	PA_without_intermediate	0,0,0,0,0,0,3,2,0	test	ward_and_allport	0,0,0,1,0,0,3,2,0	89.0	35.0	0.785	1,2,3,0,0,0,0,0,0	to_hand	s373
451.844	0.213	0	PA_without_intermediate	0,0,0,1,0,0,3,2,0	test	ward_and_allport	0,0,0,1,0,0,3,2,0	71.0	35.0	0.213	1,2,3,0,0,0,0,0,0	to_board	s373
452.07	1.0	0	PA_without_intermediate	n/a	test	ward_and_allport	n/a	-1.0	35.0	n/a	n/a	feedback	s373
453.07	1.68	0	PA_without_intermediate	n/a	test	ward_and_allport	n/a	-1.0	35.0	n/a	n/a	ITI	s373
454.759	2.555	1	PA_without_intermediate	1,2,0,0,0,0,0,0,0	test	ward_and_allport	0,0,0,3,2,0,1,0,0	89.0	36.0	2.555	1,2,3,0,0,0,0,0,0	to_hand	s373
457.315	0.322	0	PA_without_intermediate	1,2,0,3,0,0,0,0,0	test	ward_and_allport	0,0,0,3,2,0,1,0,0	71.0	36.0	0.322	1,2,3,0,0,0,0,0,0	to_board	s373
457.645	0.36	0	PA_without_intermediate	1,0,0,3,0,0,0,0,0	test	ward_and_allport	0,0,0,3,2,0,1,0,0	89.0	36.0	0.36	1,2,3,0,0,0,0,0,0	to_hand	s373
458.005	0.397	0	PA_without_intermediate	1,0,0,3,2,0,0,0,0	test	ward_and_allport	0,0,0,3,2,0,1,0,0	71.0	36.0	0.397	1,2,3,0,0,0,0,0,0	to_board	s373
458.411	0.537	0	PA_without_intermediate	0,0,0,3,2,0,0,0,0	test	ward_and_allport	0,0,0,3,2,0,1,0,0	89.0	36.0	0.537	1,2,3,0,0,0,0,0,0	to_hand	s373
458.949	0.357	0	PA_without_intermediate	0,0,0,3,2,0,1,0,0	test	ward_and_allport	0,0,0,3,2,0,1,0,0	82.0	36.0	0.357	1,2,3,0,0,0,0,0,0	to_board	s373
459.319	1.0	0	PA_without_intermediate	n/a	test	ward_and_allport	n/a	-1.0	36.0	n/a	n/a	feedback	s373
460.319	2.088	0	PA_without_intermediate	n/a	test	ward_and_allport	n/a	-1.0	36.0	n/a	n/a	ITI	s373
462.415	3.637	1	PA_with_intermediate	0,0,0,0,0,0,1,2,0	test	ward_and_allport	0,0,0,2,3,0,1,0,0	82.0	37.0	3.637	0,0,0,0,0,0,1,2,3	to_hand	s373
466.053	0.635	0	PA_with_intermediate	3,0,0,0,0,0,1,2,0	test	ward_and_allport	0,0,0,2,3,0,1,0,0	89.0	37.0	0.635	0,0,0,0,0,0,1,2,3	to_board	s373
466.695	0.54	0	PA_with_intermediate	3,0,0,0,0,0,1,0,0	test	ward_and_allport	0,0,0,2,3,0,1,0,0	82.0	37.0	0.54	0,0,0,0,0,0,1,2,3	to_hand	s373
467.237	0.865	0	PA_with_intermediate	3,0,0,2,0,0,1,0,0	test	ward_and_allport	0,0,0,2,3,0,1,0,0	71.0	37.0	0.865	0,0,0,0,0,0,1,2,3	to_board	s373
468.11	0.662	0	PA_with_intermediate	0,0,0,2,0,0,1,0,0	test	ward_and_allport	0,0,0,2,3,0,1,0,0	89.0	37.0	0.662	0,0,0,0,0,0,1,2,3	to_hand	s373
468.772	0.192	0	PA_with_intermediate	0,0,0,2,3,0,1,0,0	test	ward_and_allport	0,0,0,2,3,0,1,0,0	71.0	37.0	0.192	0,0,0,0,0,0,1,2,3	to_board	s373
468.975	1.0	0	PA_with_intermediate	n/a	test	ward_and_allport	n/a	-1.0	37.0	n/a	n/a	feedback	s373
469.975	1.0	0	PA_with_intermediate	n/a	test	ward_and_allport	n/a	-1.0	37.0	n/a	n/a	ITI	s373
470.985	2.713	1	PA_without_intermediate	0,0,0,1,2,0,0,0,0	test	ward_and_allport	3,2,0,0,0,0,1,0,0	71.0	38.0	2.713	0,0,0,1,2,3,0,0,0	to_hand	s373
473.699	0.847	0	PA_without_intermediate	3,0,0,1,2,0,0,0,0	test	ward_and_allport	3,2,0,0,0,0,1,0,0	89.0	38.0	0.847	0,0,0,1,2,3,0,0,0	to_board	s373
474.556	0.858	0	PA_without_intermediate	3,0,0,1,0,0,0,0,0	test	ward_and_allport	3,2,0,0,0,0,1,0,0	71.0	38.0	0.858	0,0,0,1,2,3,0,0,0	to_hand	s373
475.415	0.367	0	PA_without_intermediate	3,2,0,1,0,0,0,0,0	test	ward_and_allport	3,2,0,0,0,0,1,0,0	89.0	38.0	0.367	0,0,0,1,2,3,0,0,0	to_board	s373
475.789	0.6	0	PA_without_intermediate	3,2,0,0,0,0,0,0,0	test	ward_and_allport	3,2,0,0,0,0,1,0,0	71.0	38.0	0.6	0,0,0,1,2,3,0,0,0	to_hand	s373
476.389	0.276	0	PA_without_intermediate	3,2,0,0,0,0,1,0,0	test	ward_and_allport	3,2,0,0,0,0,1,0,0	82.0	38.0	0.276	0,0,0,1,2,3,0,0,0	to_board	s373
476.677	1.0	0	PA_without_intermediate	n/a	test	ward_and_allport	n/a	-1.0	38.0	n/a	n/a	feedback	s373
477.677	1.0	0	PA_without_intermediate	n/a	test	ward_and_allport	n/a	-1.0	38.0	n/a	n/a	ITI	s373
478.682	2.62	1	PA_without_intermediate	1,2,0,0,0,0,0,0,0	test	ward_and_allport	0,0,0,2,0,0,3,1,0	89.0	39.0	2.62	1,2,3,0,0,0,0,0,0	to_hand	s373
481.303	0.469	0	PA_without_intermediate	1,2,0,0,0,0,3,0,0	test	ward_and_allport	0,0,0,2,0,0,3,1,0	82.0	39.0	0.469	1,2,3,0,0,0,0,0,0	to_board	s373
481.779	0.651	0	PA_without_intermediate	1,0,0,0,0,0,3,0,0	test	ward_and_allport	0,0,0,2,0,0,3,1,0	89.0	39.0	0.651	1,2,3,0,0,0,0,0,0	to_hand	s373
482.43	0.367	0	PA_without_intermediate	1,0,0,2,0,0,3,0,0	test	ward_and_allport	0,0,0,2,0,0,3,1,0	71.0	39.0	0.367	1,2,3,0,0,0,0,0,0	to_board	s373
482.807	0.342	0	PA_without_intermediate	0,0,0,2,0,0,3,0,0	test	ward_and_allport	0,0,0,2,0,0,3,1,0	89.0	39.0	0.342	1,2,3,0,0,0,0,0,0	to_hand	s373
483.15	0.253	0	PA_without_intermediate	0,0,0,2,0,0,3,1,0	test	ward_and_allport	0,0,0,2,0,0,3,1,0	82.0	39.0	0.253	1,2,3,0,0,0,0,0,0	to_board	s373
483.413	1.0	0	PA_without_intermediate	n/a	test	ward_and_allport	n/a	-1.0	39.0	n/a	n/a	feedback	s373
484.413	1.0	0	PA_without_intermediate	n/a	test	ward_and_allport	n/a	-1.0	39.0	n/a	n/a	ITI	s373
485.419	4.468	1	PA_with_intermediate	1,2,0,0,0,0,0,0,0	test	ward_and_allport	1,0,0,0,0,0,2,3,0	89.0	40.0	4.468	1,2,3,0,0,0,0,0,0	to_hand	s373
489.889	0.354	0	PA_with_intermediate	1,2,0,3,0,0,0,0,0	test	ward_and_allport	1,0,0,0,0,0,2,3,0	71.0	40.0	0.354	1,2,3,0,0,0,0,0,0	to_board	s373
490.25	0.386	0	PA_with_intermediate	1,0,0,3,0,0,0,0,0	test	ward_and_allport	1,0,0,0,0,0,2,3,0	89.0	40.0	0.386	1,2,3,0,0,0,0,0,0	to_hand	s373
490.637	0.368	0	PA_with_intermediate	1,0,0,3,0,0,2,0,0	test	ward_and_allport	1,0,0,0,0,0,2,3,0	82.0	40.0	0.368	1,2,3,0,0,0,0,0,0	to_board	s373
491.015	0.391	0	PA_with_intermediate	1,0,0,0,0,0,2,0,0	test	ward_and_allport	1,0,0,0,0,0,2,3,0	71.0	40.0	0.391	1,2,3,0,0,0,0,0,0	to_hand	s373
491.407	0.333	0	PA_with_intermediate	1,0,0,0,0,0,2,3,0	test	ward_and_allport	1,0,0,0,0,0,2,3,0	82.0	40.0	0.333	1,2,3,0,0,0,0,0,0	to_board	s373
491.75	1.0	0	PA_with_intermediate	n/a	test	ward_and_allport	n/a	-1.0	40.0	n/a	n/a	feedback	s373
492.75	1.544	0	PA_with_intermediate	n/a	test	ward_and_allport	n/a	-1.0	40.0	n/a	n/a	ITI	s373
494.302	2.551	1	PA_without_intermediate	0,0,0,0,0,0,1,2,0	test	ward_and_allport	2,0,0,3,1,0,0,0,0	82.0	41.0	2.551	0,0,0,0,0,0,1,2,3	to_hand	s373
496.854	0.467	0	PA_without_intermediate	0,0,0,3,0,0,1,2,0	test	ward_and_allport	2,0,0,3,1,0,0,0,0	71.0	41.0	0.467	0,0,0,0,0,0,1,2,3	to_board	s373
497.332	0.375	0	PA_without_intermediate	0,0,0,3,0,0,1,0,0	test	ward_and_allport	2,0,0,3,1,0,0,0,0	82.0	41.0	0.375	0,0,0,0,0,0,1,2,3	to_hand	s373
497.709	0.449	0	PA_without_intermediate	2,0,0,3,0,0,1,0,0	test	ward_and_allport	2,0,0,3,1,0,0,0,0	89.0	41.0	0.449	0,0,0,0,0,0,1,2,3	to_board	s373
498.167	0.834	0	PA_without_intermediate	2,0,0,3,0,0,0,0,0	test	ward_and_allport	2,0,0,3,1,0,0,0,0	82.0	41.0	0.834	0,0,0,0,0,0,1,2,3	to_hand	s373
499.003	0.3	0	PA_without_intermediate	2,0,0,3,1,0,0,0,0	test	ward_and_allport	2,0,0,3,1,0,0,0,0	71.0	41.0	0.3	0,0,0,0,0,0,1,2,3	to_board	s373
499.313	1.0	0	PA_without_intermediate	n/a	test	ward_and_allport	n/a	-1.0	41.0	n/a	n/a	feedback	s373
500.313	1.272	0	PA_without_intermediate	n/a	test	ward_and_allport	n/a	-1.0	41.0	n/a	n/a	ITI	s373
501.591	5.513	1	PA_with_intermediate	0,0,0,1,2,0,0,0,0	test	ward_and_allport	2,3,0,1,0,0,0,0,0	71.0	42.0	5.513	0,0,0,1,2,3,0,0,0	to_hand	s373
507.106	0.439	0	PA_with_intermediate	0,0,0,1,2,0,3,0,0	test	ward_and_allport	2,3,0,1,0,0,0,0,0	82.0	42.0	0.439	0,0,0,1,2,3,0,0,0	to_board	s373
507.552	0.429	0	PA_with_intermediate	0,0,0,1,0,0,3,0,0	test	ward_and_allport	2,3,0,1,0,0,0,0,0	71.0	42.0	0.429	0,0,0,1,2,3,0,0,0	to_hand	s373
507.982	0.426	0	PA_with_intermediate	2,0,0,1,0,0,3,0,0	test	ward_and_allport	2,3,0,1,0,0,0,0,0	89.0	42.0	0.426	0,0,0,1,2,3,0,0,0	to_board	s373
508.417	0.352	0	PA_with_intermediate	2,0,0,1,0,0,0,0,0	test	ward_and_allport	2,3,0,1,0,0,0,0,0	82.0	42.0	0.352	0,0,0,1,2,3,0,0,0	to_hand	s373
508.77	0.395	0	PA_with_intermediate	2,3,0,1,0,0,0,0,0	test	ward_and_allport	2,3,0,1,0,0,0,0,0	89.0	42.0	0.395	0,0,0,1,2,3,0,0,0	to_board	s373
509.177	1.0	0	PA_with_intermediate	n/a	test	ward_and_allport	n/a	-1.0	42.0	n/a	n/a	feedback	s373
510.177	3.04	0	PA_with_intermediate	n/a	test	ward_and_allport	n/a	-1.0	42.0	n/a	n/a	ITI	s373
513.228	4.096	1	PA_with_intermediate	1,2,0,0,0,0,0,0,0	test	ward_and_allport	1,0,0,2,3,0,0,0,0	89.0	43.0	4.096	1,2,3,0,0,0,0,0,0	to_hand	s373
517.325	0.368	0	PA_with_intermediate	1,2,0,0,0,0,3,0,0	test	ward_and_allport	1,0,0,2,3,0,0,0,0	82.0	43.0	0.368	1,2,3,0,0,0,0,0,0	to_board	s373
517.702	0.437	0	PA_with_intermediate	1,0,0,0,0,0,3,0,0	test	ward_and_allport	1,0,0,2,3,0,0,0,0	89.0	43.0	0.437	1,2,3,0,0,0,0,0,0	to_hand	s373
518.14	0.374	0	PA_with_intermediate	1,0,0,2,0,0,3,0,0	test	ward_and_allport	1,0,0,2,3,0,0,0,0	71.0	43.0	0.374	1,2,3,0,0,0,0,0,0	to_board	s373
518.524	0.316	0	PA_with_intermediate	1,0,0,2,0,0,0,0,0	test	ward_and_allport	1,0,0,2,3,0,0,0,0	82.0	43.0	0.316	1,2,3,0,0,0,0,0,0	to_hand	s373
518.841	0.326	0	PA_with_intermediate	1,0,0,2,3,0,0,0,0	test	ward_and_allport	1,0,0,2,3,0,0,0,0	71.0	43.0	0.326	1,2,3,0,0,0,0,0,0	to_board	s373
519.18	1.0	0	PA_with_intermediate	n/a	test	ward_and_allport	n/a	-1.0	43.0	n/a	n/a	feedback	s373
520.18	1.272	0	PA_with_intermediate	n/a	test	ward_and_allport	n/a	-1.0	43.0	n/a	n/a	ITI	s373
521.459	4.112	1	PA_with_intermediate	0,0,0,1,2,0,0,0,0	test	ward_and_allport	0,0,0,1,3,0,2,0,0	71.0	44.0	4.112	0,0,0,1,2,3,0,0,0	to_hand	s373
525.573	0.37	0	PA_with_intermediate	3,0,0,1,2,0,0,0,0	test	ward_and_allport	0,0,0,1,3,0,2,0,0	89.0	44.0	0.37	0,0,0,1,2,3,0,0,0	to_board	s373
525.951	0.577	0	PA_with_intermediate	3,0,0,1,0,0,0,0,0	test	ward_and_allport	0,0,0,1,3,0,2,0,0	71.0	44.0	0.577	0,0,0,1,2,3,0,0,0	to_hand	s373
526.528	0.391	0	PA_with_intermediate	3,0,0,1,0,0,2,0,0	test	ward_and_allport	0,0,0,1,3,0,2,0,0	82.0	44.0	0.391	0,0,0,1,2,3,0,0,0	to_board	s373
526.929	0.297	0	PA_with_intermediate	0,0,0,1,0,0,2,0,0	test	ward_and_allport	0,0,0,1,3,0,2,0,0	89.0	44.0	0.297	0,0,0,1,2,3,0,0,0	to_hand	s373
527.227	0.231	0	PA_with_intermediate	0,0,0,1,3,0,2,0,0	test	ward_and_allport	0,0,0,1,3,0,2,0,0	71.0	44.0	0.231	0,0,0,1,2,3,0,0,0	to_board	s373
527.469	1.0	0	PA_with_intermediate	n/a	test	ward_and_allport	n/a	-1.0	44.0	n/a	n/a	feedback	s373
528.469	1.136	0	PA_with_intermediate	n/a	test	ward_and_allport	n/a	-1.0	44.0	n/a	n/a	ITI	s373
534.617	4.392	1	PA_with_intermediate	0,0,0,0,0,0,1,2,0	test	ward_and_allport	2,0,0,0,0,0,1,3,0	82.0	45.0	4.392	0,0,0,0,0,0,1,2,3	to_hand	s373
539.01	0.579	0	PA_with_intermediate	0,0,0,3,0,0,1,2,0	test	ward_and_allport	2,0,0,0,0,0,1,3,0	71.0	45.0	0.579	0,0,0,0,0,0,1,2,3	to_board	s373
539.598	0.562	0	PA_with_intermediate	0,0,0,3,0,0,1,0,0	test	ward_and_allport	2,0,0,0,0,0,1,3,0	82.0	45.0	0.562	0,0,0,0,0,0,1,2,3	to_hand	s373
540.162	0.492	0	PA_with_intermediate	2,0,0,3,0,0,1,0,0	test	ward_and_allport	2,0,0,0,0,0,1,3,0	89.0	45.0	0.492	0,0,0,0,0,0,1,2,3	to_board	s373
540.665	0.514	0	PA_with_intermediate	2,0,0,0,0,0,1,0,0	test	ward_and_allport	2,0,0,0,0,0,1,3,0	71.0	45.0	0.514	0,0,0,0,0,0,1,2,3	to_hand	s373
541.179	0.367	0	PA_with_intermediate	2,0,0,0,0,0,1,3,0	test	ward_and_allport	2,0,0,0,0,0,1,3,0	82.0	45.0	0.367	0,0,0,0,0,0,1,2,3	to_board	s373
541.56	1.0	0	PA_with_intermediate	n/a	test	ward_and_allport	n/a	-1.0	45.0	n/a	n/a	feedback	s373
542.56	1.0	0	PA_with_intermediate	n/a	test	ward_and_allport	n/a	-1.0	45.0	n/a	n/a	ITI	s373
543.57	2.674	1	PA_with_intermediate	0,0,0,0,0,0,1,2,0	test	ward_and_allport	2,3,0,0,0,0,1,0,0	82.0	46.0	2.674	0,0,0,0,0,0,1,2,3	to_hand	s373
546.245	1.188	0	PA_with_intermediate	0,0,0,3,0,0,1,2,0	test	ward_and_allport	2,3,0,0,0,0,1,0,0	71.0	46.0	1.188	0,0,0,0,0,0,1,2,3	to_board	s373
547.44	1.328	0	PA_with_intermediate	0,0,0,3,0,0,1,0,0	test	ward_and_allport	2,3,0,0,0,0,1,0,0	82.0	46.0	1.328	0,0,0,0,0,0,1,2,3	to_hand	s373
548.768	0.745	0	PA_with_intermediate	2,0,0,3,0,0,1,0,0	test	ward_and_allport	2,3,0,0,0,0,1,0,0	89.0	46.0	0.745	0,0,0,0,0,0,1,2,3	to_board	s373
549.522	1.225	0	PA_with_intermediate	2,0,0,0,0,0,1,0,0	test	ward_and_allport	2,3,0,0,0,0,1,0,0	71.0	46.0	1.225	0,0,0,0,0,0,1,2,3	to_hand	s373
550.748	0.319	0	PA_with_intermediate	2,3,0,0,0,0,1,0,0	test	ward_and_allport	2,3,0,0,0,0,1,0,0	89.0	46.0	0.319	0,0,0,0,0,0,1,2,3	to_board	s373
551.081	1.0	0	PA_with_intermediate	n/a	test	ward_and_allport	n/a	-1.0	46.0	n/a	n/a	feedback	s373
552.081	1.0	0	PA_with_intermediate	n/a	test	ward_and_allport	n/a	-1.0	46.0	n/a	n/a	ITI	s373
553.091	3.667	1	PA_without_intermediate	0,0,0,1,2,0,0,0,0	test	ward_and_allport	1,0,0,0,0,0,3,2,0	71.0	47.0	3.667	0,0,0,1,2,3,0,0,0	to_hand	s373
556.759	0.411	0	PA_without_intermediate	0,0,0,1,2,0,3,0,0	test	ward_and_allport	1,0,0,0,0,0,3,2,0	82.0	47.0	0.411	0,0,0,1,2,3,0,0,0	to_board	s373
557.182	0.453	0	PA_without_intermediate	0,0,0,1,0,0,3,0,0	test	ward_and_allport	1,0,0,0,0,0,3,2,0	71.0	47.0	0.453	0,0,0,1,2,3,0,0,0	to_hand	s373
557.635	0.392	0	PA_without_intermediate	0,0,0,1,0,0,3,2,0	test	ward_and_allport	1,0,0,0,0,0,3,2,0	82.0	47.0	0.392	0,0,0,1,2,3,0,0,0	to_board	s373
558.036	0.44	0	PA_without_intermediate	0,0,0,0,0,0,3,2,0	test	ward_and_allport	1,0,0,0,0,0,3,2,0	71.0	47.0	0.44	0,0,0,1,2,3,0,0,0	to_hand	s373
558.478	0.31	0	PA_without_intermediate	1,0,0,0,0,0,3,2,0	test	ward_and_allport	1,0,0,0,0,0,3,2,0	89.0	47.0	0.31	0,0,0,1,2,3,0,0,0	to_board	s373
558.801	1.0	0	PA_without_intermediate	n/a	test	ward_and_allport	n/a	-1.0	47.0	n/a	n/a	feedback	s373
559.801	1.408	0	PA_without_intermediate	n/a	test	ward_and_allport	n/a	-1.0	47.0	n/a	n/a	ITI	s373
n/a	n/a	0	n/a	n/a	n/a	n/a	n/a	n/a	n/a	n/a	n/a	ITI	n/a
