onset	duration	SS_delay	correct_response	experiment_exp_id	key_press	response_time	stopped	trial_type	worker_id
3.017	0.85	0.1	89.0	stop_signal	89.0	0.479	False	go	s645
5.409	0.85	0.1	89.0	stop_signal	89.0	0.461	False	go	s645
7.936	0.85	0.1	89.0	stop_signal	89.0	0.442	False	stop_failure	s645
10.871	0.85	0.05	89.0	stop_signal	89.0	0.381	False	go	s645
13.399	0.85	0.05	89.0	stop_signal	89.0	0.348	False	go	s645
15.927	0.85	0.05	89.0	stop_signal	89.0	0.353	False	go	s645
18.182	0.85	0.05	71.0	stop_signal	71.0	0.452	False	stop_failure	s645
20.709	0.85	0.0	71.0	stop_signal	71.0	0.496	False	go	s645
23.1	0.85	0.0	71.0	stop_signal	71.0	0.383	False	go	s645
25.355	0.85	0.0	71.0	stop_signal	71.0	0.428	False	go	s645
27.747	0.85	0.0	89.0	stop_signal	89.0	0.424	False	go	s645
30.002	0.85	0.0	71.0	stop_signal	-1.0	n/a	True	stop_success	s645
32.395	0.85	0.05	71.0	stop_signal	71.0	0.494	False	go	s645
34.923	0.85	0.05	71.0	stop_signal	-1.0	n/a	True	stop_success	s645
37.179	0.85	0.1	89.0	stop_signal	89.0	0.373	False	stop_failure	s645
39.571	0.85	0.05	89.0	stop_signal	89.0	0.402	False	go	s645
42.234	0.85	0.05	71.0	stop_signal	-1.0	n/a	True	stop_success	s645
44.49	0.85	0.1	89.0	stop_signal	89.0	0.416	False	go	s645
47.698	0.85	0.1	89.0	stop_signal	89.0	0.439	False	go	s645
50.089	0.85	0.1	89.0	stop_signal	89.0	0.467	False	go	s645
52.479	0.85	0.1	71.0	stop_signal	-1.0	n/a	True	stop_success	s645
55.008	0.85	0.15	71.0	stop_signal	71.0	0.485	False	go	s645
57.264	0.85	0.15	89.0	stop_signal	-1.0	n/a	True	stop_success	s645
59.519	0.85	0.2	89.0	stop_signal	-1.0	n/a	True	stop_success	s645
61.775	0.85	0.25	89.0	stop_signal	89.0	0.571	False	go	s645
64.709	0.85	0.25	89.0	stop_signal	89.0	0.449	False	go	s645
67.237	0.85	0.25	71.0	stop_signal	71.0	0.506	False	go	s645
69.763	0.85	0.25	89.0	stop_signal	89.0	0.511	False	go	s645
72.019	0.85	0.25	71.0	stop_signal	71.0	0.517	False	stop_failure	s645
74.547	0.85	0.2	71.0	stop_signal	-1.0	n/a	True	stop_success	s645
76.802	0.85	0.25	71.0	stop_signal	71.0	0.347	False	go	s645
79.193	0.85	0.25	71.0	stop_signal	89.0	0.415	False	stop_failure	s645
81.449	0.85	0.2	89.0	stop_signal	89.0	0.631	False	go	s645
84.113	0.85	0.2	89.0	stop_signal	89.0	0.558	False	go	s645
86.776	0.85	0.2	71.0	stop_signal	71.0	0.574	False	go	s645
89.033	0.85	0.2	71.0	stop_signal	71.0	0.394	False	go	s645
91.288	0.85	0.2	89.0	stop_signal	89.0	0.447	False	go	s645
93.679	0.85	0.2	89.0	stop_signal	89.0	0.506	False	stop_failure	s645
96.481	0.85	0.15	89.0	stop_signal	-1.0	n/a	True	stop_success	s645
98.872	0.85	0.2	71.0	stop_signal	-1.0	n/a	True	stop_success	s645
101.125	0.85	0.25	89.0	stop_signal	89.0	0.422	False	stop_failure	s645
113.897	0.85	0.2	71.0	stop_signal	71.0	0.507	False	stop_failure	s645
116.153	0.85	0.15	89.0	stop_signal	89.0	0.437	False	go	s645
118.817	0.85	0.15	71.0	stop_signal	71.0	0.517	False	go	s645
121.48	0.85	0.15	71.0	stop_signal	71.0	0.471	False	go	s645
123.738	0.85	0.15	89.0	stop_signal	89.0	0.429	False	go	s645
126.267	0.85	0.15	71.0	stop_signal	89.0	0.379	False	go	s645
128.522	0.85	0.15	71.0	stop_signal	-1.0	n/a	True	stop_success	s645
131.049	0.85	0.2	71.0	stop_signal	71.0	0.505	False	go	s645
133.577	0.85	0.2	89.0	stop_signal	-1.0	n/a	True	stop_success	s645
136.105	0.85	0.25	89.0	stop_signal	-1.0	n/a	True	stop_success	s645
138.498	0.85	0.3	71.0	stop_signal	-1.0	n/a	True	stop_success	s645
141.024	0.85	0.35	71.0	stop_signal	71.0	0.503	False	go	s645
143.551	0.85	0.35	89.0	stop_signal	89.0	0.612	False	go	s645
145.943	0.85	0.35	89.0	stop_signal	89.0	0.457	False	go	s645
148.198	0.85	0.35	89.0	stop_signal	89.0	0.501	False	go	s645
150.723	0.85	0.35	71.0	stop_signal	71.0	0.463	False	go	s645
153.524	0.85	0.35	71.0	stop_signal	71.0	0.432	False	stop_failure	s645
156.053	0.85	0.3	71.0	stop_signal	71.0	0.494	False	stop_failure	s645
158.445	0.85	0.25	71.0	stop_signal	71.0	0.37	False	go	s645
160.7	0.85	0.25	71.0	stop_signal	71.0	0.352	False	stop_failure	s645
162.956	0.85	0.2	89.0	stop_signal	-1.0	n/a	True	stop_success	s645
165.21	0.85	0.25	89.0	stop_signal	-1.0	n/a	True	stop_success	s645
167.467	0.85	0.3	89.0	stop_signal	89.0	0.38	False	go	s645
169.995	0.85	0.3	89.0	stop_signal	89.0	0.494	False	go	s645
172.25	0.85	0.3	71.0	stop_signal	71.0	0.458	False	stop_failure	s645
174.505	0.85	0.25	71.0	stop_signal	71.0	0.435	False	go	s645
176.761	0.85	0.25	71.0	stop_signal	71.0	0.373	False	go	s645
179.016	0.85	0.25	89.0	stop_signal	71.0	0.401	False	go	s645
181.408	0.85	0.25	71.0	stop_signal	71.0	0.427	False	go	s645
183.664	0.85	0.25	89.0	stop_signal	-1.0	n/a	True	stop_success	s645
185.92	0.85	0.3	89.0	stop_signal	89.0	0.427	False	go	s645
188.172	0.85	0.3	71.0	stop_signal	71.0	0.527	False	stop_failure	s645
190.429	0.85	0.25	71.0	stop_signal	71.0	0.397	False	stop_failure	s645
192.956	0.85	0.2	89.0	stop_signal	89.0	0.925	False	go	s645
195.347	0.85	0.2	71.0	stop_signal	71.0	0.44	False	go	s645
197.875	0.85	0.2	89.0	stop_signal	-1.0	n/a	True	stop_success	s645
200.131	0.85	0.25	71.0	stop_signal	89.0	0.432	False	go	s645
202.523	0.85	0.25	71.0	stop_signal	71.0	0.462	False	go	s645
204.916	0.85	0.25	89.0	stop_signal	89.0	0.506	False	go	s645
207.172	0.85	0.25	71.0	stop_signal	71.0	0.407	False	go	s645
209.563	0.85	0.25	89.0	stop_signal	89.0	0.624	False	go	s645
211.955	0.85	0.25	89.0	stop_signal	89.0	0.411	False	stop_failure	s645
224.864	0.85	0.2	89.0	stop_signal	89.0	0.482	False	go	s645
227.528	0.85	0.2	89.0	stop_signal	89.0	0.421	False	go	s645
230.056	0.85	0.2	89.0	stop_signal	-1.0	n/a	True	stop_success	s645
232.311	0.85	0.25	71.0	stop_signal	71.0	0.477	False	stop_failure	s645
235.247	0.85	0.2	71.0	stop_signal	89.0	0.342	False	go	s645
237.503	0.85	0.2	71.0	stop_signal	71.0	0.484	False	go	s645
240.03	0.85	0.2	71.0	stop_signal	-1.0	n/a	True	stop_success	s645
242.285	0.85	0.25	89.0	stop_signal	89.0	0.424	False	go	s645
244.541	0.85	0.25	89.0	stop_signal	89.0	0.412	False	go	s645
246.798	0.85	0.25	71.0	stop_signal	71.0	0.485	False	go	s645
249.053	0.85	0.25	71.0	stop_signal	71.0	0.404	False	go	s645
251.58	0.85	0.25	89.0	stop_signal	89.0	0.393	False	stop_failure	s645
254.652	0.85	0.2	71.0	stop_signal	71.0	0.393	False	stop_failure	s645
256.907	0.85	0.15	71.0	stop_signal	71.0	0.475	False	go	s645
259.3	0.85	0.15	71.0	stop_signal	-1.0	n/a	True	stop_success	s645
261.692	0.85	0.2	71.0	stop_signal	89.0	0.394	False	go	s645
264.22	0.85	0.2	89.0	stop_signal	89.0	0.416	False	go	s645
266.611	0.85	0.2	71.0	stop_signal	71.0	0.484	False	go	s645
269.003	0.85	0.2	71.0	stop_signal	71.0	0.396	False	stop_failure	s645
271.803	0.85	0.15	89.0	stop_signal	89.0	0.598	False	go	s645
274.194	0.85	0.15	89.0	stop_signal	-1.0	n/a	True	stop_success	s645
276.45	0.85	0.2	89.0	stop_signal	89.0	0.353	False	stop_failure	s645
278.977	0.85	0.15	89.0	stop_signal	-1.0	n/a	True	stop_success	s645
281.368	0.85	0.2	71.0	stop_signal	71.0	0.44	False	go	s645
283.76	0.85	0.2	71.0	stop_signal	-1.0	n/a	True	stop_success	s645
286.017	0.85	0.25	71.0	stop_signal	71.0	0.383	False	go	s645
288.409	0.85	0.25	89.0	stop_signal	71.0	0.463	False	go	s645
290.664	0.85	0.25	89.0	stop_signal	89.0	0.46	False	stop_failure	s645
292.921	0.85	0.2	89.0	stop_signal	89.0	0.408	False	go	s645
295.176	0.85	0.2	71.0	stop_signal	71.0	0.465	False	go	s645
297.568	0.85	0.2	89.0	stop_signal	-1.0	n/a	True	stop_success	s645
299.824	0.85	0.25	89.0	stop_signal	89.0	0.45	False	stop_failure	s645
302.079	0.85	0.2	71.0	stop_signal	-1.0	n/a	True	stop_success	s645
304.47	0.85	0.25	89.0	stop_signal	89.0	0.381	False	stop_failure	s645
306.862	0.85	0.2	89.0	stop_signal	89.0	0.386	False	go	s645
309.117	0.85	0.2	89.0	stop_signal	71.0	0.402	False	stop_failure	s645
311.645	0.85	0.15	71.0	stop_signal	89.0	0.375	False	go	s645
313.9	0.85	0.15	71.0	stop_signal	71.0	0.356	False	go	s645
316.293	0.85	0.15	89.0	stop_signal	89.0	0.491	False	go	s645
318.548	0.85	0.15	71.0	stop_signal	-1.0	n/a	True	stop_success	s645
320.803	0.85	0.2	71.0	stop_signal	71.0	0.441	False	go	s645
323.195	0.85	0.2	71.0	stop_signal	71.0	0.397	False	go	s645
