onset	duration	planning	condition	current_position	exp_stage	experiment_exp_id	goal_state	key_press	problem_id	response_time	start_state	trial_id	worker_id
-50.637	0.0	0	n/a	n/a	n/a	ward_and_allport	n/a	32.0	n/a	15.533	n/a	instructions	s645
3.019	4.574	1	UA_with_intermediate	1,0,0,2,0,0,0,0,0	practice	ward_and_allport	1,2,3,0,0,0,0,0,0	71.0	0.0	4.574	1,0,0,2,3,0,0,0,0	to_hand	s645
7.595	1.013	0	UA_with_intermediate	1,0,0,2,0,0,3,0,0	practice	ward_and_allport	1,2,3,0,0,0,0,0,0	82.0	0.0	1.013	1,0,0,2,3,0,0,0,0	to_board	s645
8.609	0.832	0	UA_with_intermediate	1,0,0,0,0,0,3,0,0	practice	ward_and_allport	1,2,3,0,0,0,0,0,0	71.0	0.0	0.832	1,0,0,2,3,0,0,0,0	to_hand	s645
9.442	0.427	0	UA_with_intermediate	1,2,0,0,0,0,3,0,0	practice	ward_and_allport	1,2,3,0,0,0,0,0,0	89.0	0.0	0.427	1,0,0,2,3,0,0,0,0	to_board	s645
9.87	1.333	0	UA_with_intermediate	1,2,0,0,0,0,0,0,0	practice	ward_and_allport	1,2,3,0,0,0,0,0,0	82.0	0.0	1.333	1,0,0,2,3,0,0,0,0	to_hand	s645
11.204	0.384	0	UA_with_intermediate	1,2,3,0,0,0,0,0,0	practice	ward_and_allport	1,2,3,0,0,0,0,0,0	89.0	0.0	0.384	1,0,0,2,3,0,0,0,0	to_board	s645
11.598	1.0	0	UA_with_intermediate	n/a	practice	ward_and_allport	n/a	-1.0	0.0	n/a	n/a	feedback	s645
14.1	3.81	1	UA_with_intermediate	1,0,0,3,0,0,0,0,0	practice	ward_and_allport	1,3,2,0,0,0,0,0,0	89.0	1.0	3.81	1,2,0,3,0,0,0,0,0	to_hand	s645
17.911	0.753	0	UA_with_intermediate	1,0,0,3,0,0,2,0,0	practice	ward_and_allport	1,3,2,0,0,0,0,0,0	82.0	1.0	0.753	1,2,0,3,0,0,0,0,0	to_board	s645
18.666	0.46	0	UA_with_intermediate	1,0,0,0,0,0,2,0,0	practice	ward_and_allport	1,3,2,0,0,0,0,0,0	71.0	1.0	0.46	1,2,0,3,0,0,0,0,0	to_hand	s645
19.127	0.409	0	UA_with_intermediate	1,3,0,0,0,0,2,0,0	practice	ward_and_allport	1,3,2,0,0,0,0,0,0	89.0	1.0	0.409	1,2,0,3,0,0,0,0,0	to_board	s645
19.539	0.777	0	UA_with_intermediate	1,3,0,0,0,0,0,0,0	practice	ward_and_allport	1,3,2,0,0,0,0,0,0	82.0	1.0	0.777	1,2,0,3,0,0,0,0,0	to_hand	s645
20.317	0.345	0	UA_with_intermediate	1,3,2,0,0,0,0,0,0	practice	ward_and_allport	1,3,2,0,0,0,0,0,0	89.0	1.0	0.345	1,2,0,3,0,0,0,0,0	to_board	s645
20.668	1.0	0	UA_with_intermediate	n/a	practice	ward_and_allport	n/a	-1.0	1.0	n/a	n/a	feedback	s645
21.668	1.1	0	UA_with_intermediate	n/a	practice	ward_and_allport	n/a	-1.0	1.0	n/a	n/a	ITI	s645
22.77	3.983	1	UA_without_intermediate	0,0,0,1,2,0,0,0,0	practice	ward_and_allport	3,2,1,0,0,0,0,0,0	82.0	2.0	3.983	0,0,0,1,2,0,3,0,0	to_hand	s645
26.755	0.443	0	UA_without_intermediate	3,0,0,1,2,0,0,0,0	practice	ward_and_allport	3,2,1,0,0,0,0,0,0	89.0	2.0	0.443	0,0,0,1,2,0,3,0,0	to_board	s645
27.2	0.562	0	UA_without_intermediate	3,0,0,1,0,0,0,0,0	practice	ward_and_allport	3,2,1,0,0,0,0,0,0	71.0	2.0	0.562	0,0,0,1,2,0,3,0,0	to_hand	s645
27.762	0.511	0	UA_without_intermediate	3,2,0,1,0,0,0,0,0	practice	ward_and_allport	3,2,1,0,0,0,0,0,0	89.0	2.0	0.511	0,0,0,1,2,0,3,0,0	to_board	s645
28.274	1.005	0	UA_without_intermediate	3,2,0,0,0,0,0,0,0	practice	ward_and_allport	3,2,1,0,0,0,0,0,0	71.0	2.0	1.005	0,0,0,1,2,0,3,0,0	to_hand	s645
29.281	0.394	0	UA_without_intermediate	3,2,1,0,0,0,0,0,0	practice	ward_and_allport	3,2,1,0,0,0,0,0,0	89.0	2.0	0.394	0,0,0,1,2,0,3,0,0	to_board	s645
29.681	1.0	0	UA_without_intermediate	n/a	practice	ward_and_allport	n/a	-1.0	2.0	n/a	n/a	feedback	s645
30.681	1.2	0	UA_without_intermediate	n/a	practice	ward_and_allport	n/a	-1.0	2.0	n/a	n/a	ITI	s645
31.885	3.064	1	UA_without_intermediate	0,0,0,1,0,0,3,0,0	practice	ward_and_allport	2,3,1,0,0,0,0,0,0	71.0	3.0	3.064	0,0,0,1,2,0,3,0,0	to_hand	s645
34.949	0.421	0	UA_without_intermediate	2,0,0,1,0,0,3,0,0	practice	ward_and_allport	2,3,1,0,0,0,0,0,0	89.0	3.0	0.421	0,0,0,1,2,0,3,0,0	to_board	s645
35.372	0.432	0	UA_without_intermediate	2,0,0,1,0,0,0,0,0	practice	ward_and_allport	2,3,1,0,0,0,0,0,0	82.0	3.0	0.432	0,0,0,1,2,0,3,0,0	to_hand	s645
35.805	0.355	0	UA_without_intermediate	2,3,0,1,0,0,0,0,0	practice	ward_and_allport	2,3,1,0,0,0,0,0,0	89.0	3.0	0.355	0,0,0,1,2,0,3,0,0	to_board	s645
36.162	0.379	0	UA_without_intermediate	2,3,0,0,0,0,0,0,0	practice	ward_and_allport	2,3,1,0,0,0,0,0,0	71.0	3.0	0.379	0,0,0,1,2,0,3,0,0	to_hand	s645
36.542	0.351	0	UA_without_intermediate	2,3,1,0,0,0,0,0,0	practice	ward_and_allport	2,3,1,0,0,0,0,0,0	89.0	3.0	0.351	0,0,0,1,2,0,3,0,0	to_board	s645
36.9	1.0	0	UA_without_intermediate	n/a	practice	ward_and_allport	n/a	-1.0	3.0	n/a	n/a	feedback	s645
37.9	1.0	0	UA_without_intermediate	n/a	practice	ward_and_allport	n/a	-1.0	3.0	n/a	n/a	ITI	s645
40.913	4.895	1	PA_with_intermediate	0,0,0,0,0,0,1,2,0	test	ward_and_allport	2,3,0,0,0,0,1,0,0	82.0	0.0	4.895	0,0,0,0,0,0,1,2,3	to_hand	s645
45.809	0.385	0	PA_with_intermediate	0,0,0,3,0,0,1,2,0	test	ward_and_allport	2,3,0,0,0,0,1,0,0	71.0	0.0	0.385	0,0,0,0,0,0,1,2,3	to_board	s645
46.196	1.239	0	PA_with_intermediate	0,0,0,3,0,0,1,0,0	test	ward_and_allport	2,3,0,0,0,0,1,0,0	82.0	0.0	1.239	0,0,0,0,0,0,1,2,3	to_hand	s645
47.437	0.362	0	PA_with_intermediate	2,0,0,3,0,0,1,0,0	test	ward_and_allport	2,3,0,0,0,0,1,0,0	89.0	0.0	0.362	0,0,0,0,0,0,1,2,3	to_board	s645
47.8	0.383	0	PA_with_intermediate	2,0,0,0,0,0,1,0,0	test	ward_and_allport	2,3,0,0,0,0,1,0,0	71.0	0.0	0.383	0,0,0,0,0,0,1,2,3	to_hand	s645
48.184	0.371	0	PA_with_intermediate	2,3,0,0,0,0,1,0,0	test	ward_and_allport	2,3,0,0,0,0,1,0,0	89.0	0.0	0.371	0,0,0,0,0,0,1,2,3	to_board	s645
48.562	1.0	0	PA_with_intermediate	n/a	test	ward_and_allport	n/a	-1.0	0.0	n/a	n/a	feedback	s645
49.562	3.176	0	PA_with_intermediate	n/a	test	ward_and_allport	n/a	-1.0	0.0	n/a	n/a	ITI	s645
52.741	4.925	1	PA_with_intermediate	0,0,0,0,0,0,1,2,0	test	ward_and_allport	0,0,0,2,3,0,1,0,0	82.0	1.0	4.925	0,0,0,0,0,0,1,2,3	to_hand	s645
57.667	0.426	0	PA_with_intermediate	3,0,0,0,0,0,1,2,0	test	ward_and_allport	0,0,0,2,3,0,1,0,0	89.0	1.0	0.426	0,0,0,0,0,0,1,2,3	to_board	s645
58.095	2.128	0	PA_with_intermediate	3,0,0,0,0,0,1,0,0	test	ward_and_allport	0,0,0,2,3,0,1,0,0	82.0	1.0	2.128	0,0,0,0,0,0,1,2,3	to_hand	s645
60.224	0.561	0	PA_with_intermediate	3,0,0,2,0,0,1,0,0	test	ward_and_allport	0,0,0,2,3,0,1,0,0	71.0	1.0	0.561	0,0,0,0,0,0,1,2,3	to_board	s645
60.788	0.645	0	PA_with_intermediate	0,0,0,2,0,0,1,0,0	test	ward_and_allport	0,0,0,2,3,0,1,0,0	89.0	1.0	0.645	0,0,0,0,0,0,1,2,3	to_hand	s645
61.435	0.353	0	PA_with_intermediate	0,0,0,2,3,0,1,0,0	test	ward_and_allport	0,0,0,2,3,0,1,0,0	71.0	1.0	0.353	0,0,0,0,0,0,1,2,3	to_board	s645
61.794	1.0	0	PA_with_intermediate	n/a	test	ward_and_allport	n/a	-1.0	1.0	n/a	n/a	feedback	s645
62.794	2.36	0	PA_with_intermediate	n/a	test	ward_and_allport	n/a	-1.0	1.0	n/a	n/a	ITI	s645
65.158	3.661	1	PA_with_intermediate	0,0,0,1,2,0,0,0,0	test	ward_and_allport	0,0,0,1,3,0,2,0,0	71.0	2.0	3.661	0,0,0,1,2,3,0,0,0	to_hand	s645
68.82	0.439	0	PA_with_intermediate	3,0,0,1,2,0,0,0,0	test	ward_and_allport	0,0,0,1,3,0,2,0,0	89.0	2.0	0.439	0,0,0,1,2,3,0,0,0	to_board	s645
69.261	0.422	0	PA_with_intermediate	3,0,0,1,0,0,0,0,0	test	ward_and_allport	0,0,0,1,3,0,2,0,0	71.0	2.0	0.422	0,0,0,1,2,3,0,0,0	to_hand	s645
69.684	0.404	0	PA_with_intermediate	3,0,0,1,0,0,2,0,0	test	ward_and_allport	0,0,0,1,3,0,2,0,0	82.0	2.0	0.404	0,0,0,1,2,3,0,0,0	to_board	s645
70.091	0.506	0	PA_with_intermediate	0,0,0,1,0,0,2,0,0	test	ward_and_allport	0,0,0,1,3,0,2,0,0	89.0	2.0	0.506	0,0,0,1,2,3,0,0,0	to_hand	s645
70.598	0.173	0	PA_with_intermediate	3,0,0,1,0,0,2,0,0	test	ward_and_allport	0,0,0,1,3,0,2,0,0	89.0	2.0	0.173	0,0,0,1,2,3,0,0,0	to_board	s645
70.774	0.232	0	PA_with_intermediate	3,0,0,0,0,0,2,0,0	test	ward_and_allport	0,0,0,1,3,0,2,0,0	71.0	2.0	0.232	0,0,0,1,2,3,0,0,0	to_hand	s645
71.007	1.498	0	PA_with_intermediate	3,0,0,1,0,0,2,0,0	test	ward_and_allport	0,0,0,1,3,0,2,0,0	71.0	2.0	1.498	0,0,0,1,2,3,0,0,0	to_board	s645
72.507	0.796	0	PA_with_intermediate	0,0,0,1,0,0,2,0,0	test	ward_and_allport	0,0,0,1,3,0,2,0,0	89.0	2.0	0.796	0,0,0,1,2,3,0,0,0	to_hand	s645
73.304	0.427	0	PA_with_intermediate	0,0,0,1,3,0,2,0,0	test	ward_and_allport	0,0,0,1,3,0,2,0,0	71.0	2.0	0.427	0,0,0,1,2,3,0,0,0	to_board	s645
73.737	1.0	0	PA_with_intermediate	n/a	test	ward_and_allport	n/a	-1.0	2.0	n/a	n/a	feedback	s645
74.737	1.0	0	PA_with_intermediate	n/a	test	ward_and_allport	n/a	-1.0	2.0	n/a	n/a	ITI	s645
75.741	4.294	1	PA_without_intermediate	0,0,0,0,0,0,1,2,0	test	ward_and_allport	3,2,0,1,0,0,0,0,0	82.0	3.0	4.294	0,0,0,0,0,0,1,2,3	to_hand	s645
80.037	0.431	0	PA_without_intermediate	3,0,0,0,0,0,1,2,0	test	ward_and_allport	3,2,0,1,0,0,0,0,0	89.0	3.0	0.431	0,0,0,0,0,0,1,2,3	to_board	s645
80.471	2.713	0	PA_without_intermediate	3,0,0,0,0,0,1,0,0	test	ward_and_allport	3,2,0,1,0,0,0,0,0	82.0	3.0	2.713	0,0,0,0,0,0,1,2,3	to_hand	s645
83.186	0.396	0	PA_without_intermediate	3,2,0,0,0,0,1,0,0	test	ward_and_allport	3,2,0,1,0,0,0,0,0	89.0	3.0	0.396	0,0,0,0,0,0,1,2,3	to_board	s645
83.586	1.032	0	PA_without_intermediate	3,2,0,0,0,0,0,0,0	test	ward_and_allport	3,2,0,1,0,0,0,0,0	82.0	3.0	1.032	0,0,0,0,0,0,1,2,3	to_hand	s645
84.62	0.334	0	PA_without_intermediate	3,2,0,1,0,0,0,0,0	test	ward_and_allport	3,2,0,1,0,0,0,0,0	71.0	3.0	0.334	0,0,0,0,0,0,1,2,3	to_board	s645
84.96	1.0	0	PA_without_intermediate	n/a	test	ward_and_allport	n/a	-1.0	3.0	n/a	n/a	feedback	s645
85.96	1.408	0	PA_without_intermediate	n/a	test	ward_and_allport	n/a	-1.0	3.0	n/a	n/a	ITI	s645
87.372	4.142	1	PA_with_intermediate	0,0,0,1,2,0,0,0,0	test	ward_and_allport	0,0,0,1,0,0,2,3,0	71.0	4.0	4.142	0,0,0,1,2,3,0,0,0	to_hand	s645
91.515	0.426	0	PA_with_intermediate	3,0,0,1,2,0,0,0,0	test	ward_and_allport	0,0,0,1,0,0,2,3,0	89.0	4.0	0.426	0,0,0,1,2,3,0,0,0	to_board	s645
91.944	0.577	0	PA_with_intermediate	3,0,0,1,0,0,0,0,0	test	ward_and_allport	0,0,0,1,0,0,2,3,0	71.0	4.0	0.577	0,0,0,1,2,3,0,0,0	to_hand	s645
92.522	0.459	0	PA_with_intermediate	3,0,0,1,0,0,2,0,0	test	ward_and_allport	0,0,0,1,0,0,2,3,0	82.0	4.0	0.459	0,0,0,1,2,3,0,0,0	to_board	s645
92.984	0.501	0	PA_with_intermediate	0,0,0,1,0,0,2,0,0	test	ward_and_allport	0,0,0,1,0,0,2,3,0	89.0	4.0	0.501	0,0,0,1,2,3,0,0,0	to_hand	s645
93.486	0.208	0	PA_with_intermediate	3,0,0,1,0,0,2,0,0	test	ward_and_allport	0,0,0,1,0,0,2,3,0	89.0	4.0	0.208	0,0,0,1,2,3,0,0,0	to_board	s645
93.697	0.242	0	PA_with_intermediate	3,0,0,1,0,0,0,0,0	test	ward_and_allport	0,0,0,1,0,0,2,3,0	82.0	4.0	0.242	0,0,0,1,2,3,0,0,0	to_hand	s645
93.94	1.334	0	PA_with_intermediate	3,0,0,1,0,0,2,0,0	test	ward_and_allport	0,0,0,1,0,0,2,3,0	82.0	4.0	1.334	0,0,0,1,2,3,0,0,0	to_board	s645
95.277	0.653	0	PA_with_intermediate	0,0,0,1,0,0,2,0,0	test	ward_and_allport	0,0,0,1,0,0,2,3,0	89.0	4.0	0.653	0,0,0,1,2,3,0,0,0	to_hand	s645
95.931	0.95	0	PA_with_intermediate	0,0,0,1,0,0,2,3,0	test	ward_and_allport	0,0,0,1,0,0,2,3,0	82.0	4.0	0.95	0,0,0,1,2,3,0,0,0	to_board	s645
96.888	1.0	0	PA_with_intermediate	n/a	test	ward_and_allport	n/a	-1.0	4.0	n/a	n/a	feedback	s645
97.888	1.816	0	PA_with_intermediate	n/a	test	ward_and_allport	n/a	-1.0	4.0	n/a	n/a	ITI	s645
99.708	2.437	1	PA_without_intermediate	1,2,0,0,0,0,0,0,0	test	ward_and_allport	0,0,0,1,0,0,3,2,0	89.0	5.0	2.437	1,2,3,0,0,0,0,0,0	to_hand	s645
102.147	0.174	0	PA_without_intermediate	1,2,3,0,0,0,0,0,0	test	ward_and_allport	0,0,0,1,0,0,3,2,0	89.0	5.0	0.174	1,2,3,0,0,0,0,0,0	to_board	s645
102.324	1.359	0	PA_without_intermediate	1,2,0,0,0,0,0,0,0	test	ward_and_allport	0,0,0,1,0,0,3,2,0	89.0	5.0	1.359	1,2,3,0,0,0,0,0,0	to_hand	s645
103.684	1.721	0	PA_without_intermediate	1,2,0,0,0,0,3,0,0	test	ward_and_allport	0,0,0,1,0,0,3,2,0	82.0	5.0	1.721	1,2,3,0,0,0,0,0,0	to_board	s645
105.408	0.89	0	PA_without_intermediate	1,0,0,0,0,0,3,0,0	test	ward_and_allport	0,0,0,1,0,0,3,2,0	89.0	5.0	0.89	1,2,3,0,0,0,0,0,0	to_hand	s645
106.299	0.849	0	PA_without_intermediate	1,0,0,0,0,0,3,2,0	test	ward_and_allport	0,0,0,1,0,0,3,2,0	82.0	5.0	0.849	1,2,3,0,0,0,0,0,0	to_board	s645
107.15	0.887	0	PA_without_intermediate	0,0,0,0,0,0,3,2,0	test	ward_and_allport	0,0,0,1,0,0,3,2,0	89.0	5.0	0.887	1,2,3,0,0,0,0,0,0	to_hand	s645
108.039	0.523	0	PA_without_intermediate	0,0,0,1,0,0,3,2,0	test	ward_and_allport	0,0,0,1,0,0,3,2,0	71.0	5.0	0.523	1,2,3,0,0,0,0,0,0	to_board	s645
108.569	1.0	0	PA_without_intermediate	n/a	test	ward_and_allport	n/a	-1.0	5.0	n/a	n/a	feedback	s645
109.569	2.088	0	PA_without_intermediate	n/a	test	ward_and_allport	n/a	-1.0	5.0	n/a	n/a	ITI	s645
111.662	3.081	1	PA_without_intermediate	0,0,0,0,0,0,1,2,0	test	ward_and_allport	1,0,0,3,2,0,0,0,0	82.0	6.0	3.081	0,0,0,0,0,0,1,2,3	to_hand	s645
114.745	0.754	0	PA_without_intermediate	0,0,0,3,0,0,1,2,0	test	ward_and_allport	1,0,0,3,2,0,0,0,0	71.0	6.0	0.754	0,0,0,0,0,0,1,2,3	to_board	s645
115.503	2.288	0	PA_without_intermediate	0,0,0,3,0,0,1,0,0	test	ward_and_allport	1,0,0,3,2,0,0,0,0	82.0	6.0	2.288	0,0,0,0,0,0,1,2,3	to_hand	s645
117.793	0.65	0	PA_without_intermediate	0,0,0,3,2,0,1,0,0	test	ward_and_allport	1,0,0,3,2,0,0,0,0	71.0	6.0	0.65	0,0,0,0,0,0,1,2,3	to_board	s645
118.447	0.757	0	PA_without_intermediate	0,0,0,3,2,0,0,0,0	test	ward_and_allport	1,0,0,3,2,0,0,0,0	82.0	6.0	0.757	0,0,0,0,0,0,1,2,3	to_hand	s645
119.206	0.486	0	PA_without_intermediate	1,0,0,3,2,0,0,0,0	test	ward_and_allport	1,0,0,3,2,0,0,0,0	89.0	6.0	0.486	0,0,0,0,0,0,1,2,3	to_board	s645
119.697	1.0	0	PA_without_intermediate	n/a	test	ward_and_allport	n/a	-1.0	6.0	n/a	n/a	feedback	s645
120.697	1.136	0	PA_without_intermediate	n/a	test	ward_and_allport	n/a	-1.0	6.0	n/a	n/a	ITI	s645
121.837	2.973	1	PA_without_intermediate	0,0,0,1,2,0,0,0,0	test	ward_and_allport	3,1,0,0,0,0,2,0,0	71.0	7.0	2.973	0,0,0,1,2,3,0,0,0	to_hand	s645
124.811	0.643	0	PA_without_intermediate	3,0,0,1,2,0,0,0,0	test	ward_and_allport	3,1,0,0,0,0,2,0,0	89.0	7.0	0.643	0,0,0,1,2,3,0,0,0	to_board	s645
125.458	0.769	0	PA_without_intermediate	3,0,0,1,0,0,0,0,0	test	ward_and_allport	3,1,0,0,0,0,2,0,0	71.0	7.0	0.769	0,0,0,1,2,3,0,0,0	to_hand	s645
126.227	0.5	0	PA_without_intermediate	3,0,0,1,0,0,2,0,0	test	ward_and_allport	3,1,0,0,0,0,2,0,0	82.0	7.0	0.5	0,0,0,1,2,3,0,0,0	to_board	s645
126.732	1.121	0	PA_without_intermediate	3,0,0,0,0,0,2,0,0	test	ward_and_allport	3,1,0,0,0,0,2,0,0	71.0	7.0	1.121	0,0,0,1,2,3,0,0,0	to_hand	s645
127.854	0.498	0	PA_without_intermediate	3,1,0,0,0,0,2,0,0	test	ward_and_allport	3,1,0,0,0,0,2,0,0	89.0	7.0	0.498	0,0,0,1,2,3,0,0,0	to_board	s645
128.361	1.0	0	PA_without_intermediate	n/a	test	ward_and_allport	n/a	-1.0	7.0	n/a	n/a	feedback	s645
129.361	6.168	0	PA_without_intermediate	n/a	test	ward_and_allport	n/a	-1.0	7.0	n/a	n/a	ITI	s645
135.534	2.646	1	PA_without_intermediate	0,0,0,1,2,0,0,0,0	test	ward_and_allport	3,2,0,0,0,0,1,0,0	71.0	8.0	2.646	0,0,0,1,2,3,0,0,0	to_hand	s645
138.18	0.536	0	PA_without_intermediate	3,0,0,1,2,0,0,0,0	test	ward_and_allport	3,2,0,0,0,0,1,0,0	89.0	8.0	0.536	0,0,0,1,2,3,0,0,0	to_board	s645
138.721	0.966	0	PA_without_intermediate	3,0,0,1,0,0,0,0,0	test	ward_and_allport	3,2,0,0,0,0,1,0,0	71.0	8.0	0.966	0,0,0,1,2,3,0,0,0	to_hand	s645
139.688	0.639	0	PA_without_intermediate	3,2,0,1,0,0,0,0,0	test	ward_and_allport	3,2,0,0,0,0,1,0,0	89.0	8.0	0.639	0,0,0,1,2,3,0,0,0	to_board	s645
140.331	0.548	0	PA_without_intermediate	3,2,0,0,0,0,0,0,0	test	ward_and_allport	3,2,0,0,0,0,1,0,0	71.0	8.0	0.548	0,0,0,1,2,3,0,0,0	to_hand	s645
140.88	0.533	0	PA_without_intermediate	3,2,0,0,0,0,1,0,0	test	ward_and_allport	3,2,0,0,0,0,1,0,0	82.0	8.0	0.533	0,0,0,1,2,3,0,0,0	to_board	s645
141.421	1.0	0	PA_without_intermediate	n/a	test	ward_and_allport	n/a	-1.0	8.0	n/a	n/a	feedback	s645
142.421	1.816	0	PA_without_intermediate	n/a	test	ward_and_allport	n/a	-1.0	8.0	n/a	n/a	ITI	s645
144.241	3.448	1	PA_with_intermediate	1,2,0,0,0,0,0,0,0	test	ward_and_allport	1,3,0,0,0,0,2,0,0	89.0	9.0	3.448	1,2,3,0,0,0,0,0,0	to_hand	s645
147.69	0.447	0	PA_with_intermediate	1,2,0,3,0,0,0,0,0	test	ward_and_allport	1,3,0,0,0,0,2,0,0	71.0	9.0	0.447	1,2,3,0,0,0,0,0,0	to_board	s645
148.141	0.626	0	PA_with_intermediate	1,0,0,3,0,0,0,0,0	test	ward_and_allport	1,3,0,0,0,0,2,0,0	89.0	9.0	0.626	1,2,3,0,0,0,0,0,0	to_hand	s645
148.768	0.682	0	PA_with_intermediate	1,0,0,3,0,0,2,0,0	test	ward_and_allport	1,3,0,0,0,0,2,0,0	82.0	9.0	0.682	1,2,3,0,0,0,0,0,0	to_board	s645
149.454	1.145	0	PA_with_intermediate	1,0,0,0,0,0,2,0,0	test	ward_and_allport	1,3,0,0,0,0,2,0,0	71.0	9.0	1.145	1,2,3,0,0,0,0,0,0	to_hand	s645
150.6	0.48	0	PA_with_intermediate	1,3,0,0,0,0,2,0,0	test	ward_and_allport	1,3,0,0,0,0,2,0,0	89.0	9.0	0.48	1,2,3,0,0,0,0,0,0	to_board	s645
151.089	1.0	0	PA_with_intermediate	n/a	test	ward_and_allport	n/a	-1.0	9.0	n/a	n/a	feedback	s645
152.089	1.952	0	PA_with_intermediate	n/a	test	ward_and_allport	n/a	-1.0	9.0	n/a	n/a	ITI	s645
154.044	2.132	1	PA_with_intermediate	0,0,0,1,2,0,0,0,0	test	ward_and_allport	2,3,0,1,0,0,0,0,0	71.0	10.0	2.132	0,0,0,1,2,3,0,0,0	to_hand	s645
156.179	0.571	0	PA_with_intermediate	0,0,0,1,2,0,3,0,0	test	ward_and_allport	2,3,0,1,0,0,0,0,0	82.0	10.0	0.571	0,0,0,1,2,3,0,0,0	to_board	s645
156.754	0.592	0	PA_with_intermediate	0,0,0,1,0,0,3,0,0	test	ward_and_allport	2,3,0,1,0,0,0,0,0	71.0	10.0	0.592	0,0,0,1,2,3,0,0,0	to_hand	s645
157.348	0.654	0	PA_with_intermediate	2,0,0,1,0,0,3,0,0	test	ward_and_allport	2,3,0,1,0,0,0,0,0	89.0	10.0	0.654	0,0,0,1,2,3,0,0,0	to_board	s645
158.006	0.758	0	PA_with_intermediate	2,0,0,1,0,0,0,0,0	test	ward_and_allport	2,3,0,1,0,0,0,0,0	82.0	10.0	0.758	0,0,0,1,2,3,0,0,0	to_hand	s645
158.766	1.159	0	PA_with_intermediate	2,3,0,1,0,0,0,0,0	test	ward_and_allport	2,3,0,1,0,0,0,0,0	89.0	10.0	1.159	0,0,0,1,2,3,0,0,0	to_board	s645
159.933	1.0	0	PA_with_intermediate	n/a	test	ward_and_allport	n/a	-1.0	10.0	n/a	n/a	feedback	s645
160.933	1.136	0	PA_with_intermediate	n/a	test	ward_and_allport	n/a	-1.0	10.0	n/a	n/a	ITI	s645
162.073	3.16	1	PA_without_intermediate	0,0,0,0,0,0,1,2,0	test	ward_and_allport	3,1,0,2,0,0,0,0,0	82.0	11.0	3.16	0,0,0,0,0,0,1,2,3	to_hand	s645
165.235	0.616	0	PA_without_intermediate	3,0,0,0,0,0,1,2,0	test	ward_and_allport	3,1,0,2,0,0,0,0,0	89.0	11.0	0.616	0,0,0,0,0,0,1,2,3	to_board	s645
165.855	2.322	0	PA_without_intermediate	3,0,0,0,0,0,1,0,0	test	ward_and_allport	3,1,0,2,0,0,0,0,0	82.0	11.0	2.322	0,0,0,0,0,0,1,2,3	to_hand	s645
168.178	0.528	0	PA_without_intermediate	3,0,0,2,0,0,1,0,0	test	ward_and_allport	3,1,0,2,0,0,0,0,0	71.0	11.0	0.528	0,0,0,0,0,0,1,2,3	to_board	s645
168.71	1.909	0	PA_without_intermediate	3,0,0,2,0,0,0,0,0	test	ward_and_allport	3,1,0,2,0,0,0,0,0	82.0	11.0	1.909	0,0,0,0,0,0,1,2,3	to_hand	s645
170.62	0.346	0	PA_without_intermediate	3,1,0,2,0,0,0,0,0	test	ward_and_allport	3,1,0,2,0,0,0,0,0	89.0	11.0	0.346	0,0,0,0,0,0,1,2,3	to_board	s645
170.973	1.0	0	PA_without_intermediate	n/a	test	ward_and_allport	n/a	-1.0	11.0	n/a	n/a	feedback	s645
171.973	1.68	0	PA_without_intermediate	n/a	test	ward_and_allport	n/a	-1.0	11.0	n/a	n/a	ITI	s645
173.658	2.696	1	PA_without_intermediate	0,0,0,1,2,0,0,0,0	test	ward_and_allport	1,0,0,0,0,0,3,2,0	71.0	12.0	2.696	0,0,0,1,2,3,0,0,0	to_hand	s645
176.355	0.608	0	PA_without_intermediate	0,0,0,1,2,0,3,0,0	test	ward_and_allport	1,0,0,0,0,0,3,2,0	82.0	12.0	0.608	0,0,0,1,2,3,0,0,0	to_board	s645
176.967	0.598	0	PA_without_intermediate	0,0,0,1,0,0,3,0,0	test	ward_and_allport	1,0,0,0,0,0,3,2,0	71.0	12.0	0.598	0,0,0,1,2,3,0,0,0	to_hand	s645
177.567	0.895	0	PA_without_intermediate	0,0,0,1,0,0,3,2,0	test	ward_and_allport	1,0,0,0,0,0,3,2,0	82.0	12.0	0.895	0,0,0,1,2,3,0,0,0	to_board	s645
178.466	0.623	0	PA_without_intermediate	0,0,0,0,0,0,3,2,0	test	ward_and_allport	1,0,0,0,0,0,3,2,0	71.0	12.0	0.623	0,0,0,1,2,3,0,0,0	to_hand	s645
179.091	0.533	0	PA_without_intermediate	1,0,0,0,0,0,3,2,0	test	ward_and_allport	1,0,0,0,0,0,3,2,0	89.0	12.0	0.533	0,0,0,1,2,3,0,0,0	to_board	s645
179.633	1.0	0	PA_without_intermediate	n/a	test	ward_and_allport	n/a	-1.0	12.0	n/a	n/a	feedback	s645
180.633	2.088	0	PA_without_intermediate	n/a	test	ward_and_allport	n/a	-1.0	12.0	n/a	n/a	ITI	s645
182.726	2.867	1	PA_with_intermediate	0,0,0,1,2,0,0,0,0	test	ward_and_allport	0,0,0,1,3,0,2,0,0	71.0	13.0	2.867	0,0,0,1,2,3,0,0,0	to_hand	s645
185.594	0.521	0	PA_with_intermediate	3,0,0,1,2,0,0,0,0	test	ward_and_allport	0,0,0,1,3,0,2,0,0	89.0	13.0	0.521	0,0,0,1,2,3,0,0,0	to_board	s645
186.119	0.555	0	PA_with_intermediate	3,0,0,1,0,0,0,0,0	test	ward_and_allport	0,0,0,1,3,0,2,0,0	71.0	13.0	0.555	0,0,0,1,2,3,0,0,0	to_hand	s645
186.676	0.638	0	PA_with_intermediate	3,0,0,1,0,0,2,0,0	test	ward_and_allport	0,0,0,1,3,0,2,0,0	82.0	13.0	0.638	0,0,0,1,2,3,0,0,0	to_board	s645
187.319	0.522	0	PA_with_intermediate	0,0,0,1,0,0,2,0,0	test	ward_and_allport	0,0,0,1,3,0,2,0,0	89.0	13.0	0.522	0,0,0,1,2,3,0,0,0	to_hand	s645
187.842	0.423	0	PA_with_intermediate	0,0,0,1,3,0,2,0,0	test	ward_and_allport	0,0,0,1,3,0,2,0,0	71.0	13.0	0.423	0,0,0,1,2,3,0,0,0	to_board	s645
188.272	1.0	0	PA_with_intermediate	n/a	test	ward_and_allport	n/a	-1.0	13.0	n/a	n/a	feedback	s645
189.272	1.0	0	PA_with_intermediate	n/a	test	ward_and_allport	n/a	-1.0	13.0	n/a	n/a	ITI	s645
190.279	1.648	1	PA_without_intermediate	0,0,0,1,2,0,0,0,0	test	ward_and_allport	2,0,0,0,0,0,3,1,0	71.0	14.0	1.648	0,0,0,1,2,3,0,0,0	to_hand	s645
191.928	0.718	0	PA_without_intermediate	0,0,0,1,2,0,3,0,0	test	ward_and_allport	2,0,0,0,0,0,3,1,0	82.0	14.0	0.718	0,0,0,1,2,3,0,0,0	to_board	s645
192.653	0.608	0	PA_without_intermediate	0,0,0,1,0,0,3,0,0	test	ward_and_allport	2,0,0,0,0,0,3,1,0	71.0	14.0	0.608	0,0,0,1,2,3,0,0,0	to_hand	s645
193.263	0.607	0	PA_without_intermediate	2,0,0,1,0,0,3,0,0	test	ward_and_allport	2,0,0,0,0,0,3,1,0	89.0	14.0	0.607	0,0,0,1,2,3,0,0,0	to_board	s645
193.875	0.589	0	PA_without_intermediate	2,0,0,0,0,0,3,0,0	test	ward_and_allport	2,0,0,0,0,0,3,1,0	71.0	14.0	0.589	0,0,0,1,2,3,0,0,0	to_hand	s645
194.466	0.522	0	PA_without_intermediate	2,0,0,0,0,0,3,1,0	test	ward_and_allport	2,0,0,0,0,0,3,1,0	82.0	14.0	0.522	0,0,0,1,2,3,0,0,0	to_board	s645
194.998	1.0	0	PA_without_intermediate	n/a	test	ward_and_allport	n/a	-1.0	14.0	n/a	n/a	feedback	s645
195.998	1.0	0	PA_without_intermediate	n/a	test	ward_and_allport	n/a	-1.0	14.0	n/a	n/a	ITI	s645
202.008	3.834	1	PA_without_intermediate	1,2,0,0,0,0,0,0,0	test	ward_and_allport	0,0,0,2,0,0,3,1,0	89.0	15.0	3.834	1,2,3,0,0,0,0,0,0	to_hand	s645
205.843	0.535	0	PA_without_intermediate	1,2,0,0,0,0,3,0,0	test	ward_and_allport	0,0,0,2,0,0,3,1,0	82.0	15.0	0.535	1,2,3,0,0,0,0,0,0	to_board	s645
206.383	0.568	0	PA_without_intermediate	1,0,0,0,0,0,3,0,0	test	ward_and_allport	0,0,0,2,0,0,3,1,0	89.0	15.0	0.568	1,2,3,0,0,0,0,0,0	to_hand	s645
206.952	0.557	0	PA_without_intermediate	1,0,0,2,0,0,3,0,0	test	ward_and_allport	0,0,0,2,0,0,3,1,0	71.0	15.0	0.557	1,2,3,0,0,0,0,0,0	to_board	s645
207.513	0.586	0	PA_without_intermediate	0,0,0,2,0,0,3,0,0	test	ward_and_allport	0,0,0,2,0,0,3,1,0	89.0	15.0	0.586	1,2,3,0,0,0,0,0,0	to_hand	s645
208.101	0.604	0	PA_without_intermediate	0,0,0,2,0,0,3,1,0	test	ward_and_allport	0,0,0,2,0,0,3,1,0	82.0	15.0	0.604	1,2,3,0,0,0,0,0,0	to_board	s645
208.713	1.0	0	PA_without_intermediate	n/a	test	ward_and_allport	n/a	-1.0	15.0	n/a	n/a	feedback	s645
209.713	1.0	0	PA_without_intermediate	n/a	test	ward_and_allport	n/a	-1.0	15.0	n/a	n/a	ITI	s645
210.719	2.126	1	PA_with_intermediate	0,0,0,1,2,0,0,0,0	test	ward_and_allport	2,0,0,1,3,0,0,0,0	71.0	16.0	2.126	0,0,0,1,2,3,0,0,0	to_hand	s645
212.845	0.575	0	PA_with_intermediate	0,0,0,1,2,0,3,0,0	test	ward_and_allport	2,0,0,1,3,0,0,0,0	82.0	16.0	0.575	0,0,0,1,2,3,0,0,0	to_board	s645
213.425	0.5	0	PA_with_intermediate	0,0,0,1,0,0,3,0,0	test	ward_and_allport	2,0,0,1,3,0,0,0,0	71.0	16.0	0.5	0,0,0,1,2,3,0,0,0	to_hand	s645
213.926	0.475	0	PA_with_intermediate	2,0,0,1,0,0,3,0,0	test	ward_and_allport	2,0,0,1,3,0,0,0,0	89.0	16.0	0.475	0,0,0,1,2,3,0,0,0	to_board	s645
214.406	0.611	0	PA_with_intermediate	2,0,0,1,0,0,0,0,0	test	ward_and_allport	2,0,0,1,3,0,0,0,0	82.0	16.0	0.611	0,0,0,1,2,3,0,0,0	to_hand	s645
215.018	0.514	0	PA_with_intermediate	2,0,0,1,3,0,0,0,0	test	ward_and_allport	2,0,0,1,3,0,0,0,0	71.0	16.0	0.514	0,0,0,1,2,3,0,0,0	to_board	s645
215.541	1.0	0	PA_with_intermediate	n/a	test	ward_and_allport	n/a	-1.0	16.0	n/a	n/a	feedback	s645
216.541	1.544	0	PA_with_intermediate	n/a	test	ward_and_allport	n/a	-1.0	16.0	n/a	n/a	ITI	s645
218.091	2.527	1	PA_without_intermediate	1,2,0,0,0,0,0,0,0	test	ward_and_allport	0,0,0,1,0,0,3,2,0	89.0	17.0	2.527	1,2,3,0,0,0,0,0,0	to_hand	s645
220.618	0.615	0	PA_without_intermediate	1,2,0,0,0,0,3,0,0	test	ward_and_allport	0,0,0,1,0,0,3,2,0	82.0	17.0	0.615	1,2,3,0,0,0,0,0,0	to_board	s645
221.238	0.54	0	PA_without_intermediate	1,0,0,0,0,0,3,0,0	test	ward_and_allport	0,0,0,1,0,0,3,2,0	89.0	17.0	0.54	1,2,3,0,0,0,0,0,0	to_hand	s645
221.779	0.676	0	PA_without_intermediate	1,0,0,0,0,0,3,2,0	test	ward_and_allport	0,0,0,1,0,0,3,2,0	82.0	17.0	0.676	1,2,3,0,0,0,0,0,0	to_board	s645
222.46	0.465	0	PA_without_intermediate	0,0,0,0,0,0,3,2,0	test	ward_and_allport	0,0,0,1,0,0,3,2,0	89.0	17.0	0.465	1,2,3,0,0,0,0,0,0	to_hand	s645
222.927	0.424	0	PA_without_intermediate	0,0,0,1,0,0,3,2,0	test	ward_and_allport	0,0,0,1,0,0,3,2,0	71.0	17.0	0.424	1,2,3,0,0,0,0,0,0	to_board	s645
223.359	1.0	0	PA_without_intermediate	n/a	test	ward_and_allport	n/a	-1.0	17.0	n/a	n/a	feedback	s645
224.359	1.272	0	PA_without_intermediate	n/a	test	ward_and_allport	n/a	-1.0	17.0	n/a	n/a	ITI	s645
225.636	3.532	1	PA_with_intermediate	0,0,0,0,0,0,1,2,0	test	ward_and_allport	0,0,0,2,0,0,1,3,0	82.0	18.0	3.532	0,0,0,0,0,0,1,2,3	to_hand	s645
229.169	0.527	0	PA_with_intermediate	3,0,0,0,0,0,1,2,0	test	ward_and_allport	0,0,0,2,0,0,1,3,0	89.0	18.0	0.527	0,0,0,0,0,0,1,2,3	to_board	s645
229.701	0.518	0	PA_with_intermediate	3,0,0,0,0,0,1,0,0	test	ward_and_allport	0,0,0,2,0,0,1,3,0	82.0	18.0	0.518	0,0,0,0,0,0,1,2,3	to_hand	s645
230.221	0.529	0	PA_with_intermediate	3,0,0,2,0,0,1,0,0	test	ward_and_allport	0,0,0,2,0,0,1,3,0	71.0	18.0	0.529	0,0,0,0,0,0,1,2,3	to_board	s645
230.755	0.538	0	PA_with_intermediate	0,0,0,2,0,0,1,0,0	test	ward_and_allport	0,0,0,2,0,0,1,3,0	89.0	18.0	0.538	0,0,0,0,0,0,1,2,3	to_hand	s645
231.295	0.535	0	PA_with_intermediate	0,0,0,2,0,0,1,3,0	test	ward_and_allport	0,0,0,2,0,0,1,3,0	82.0	18.0	0.535	0,0,0,0,0,0,1,2,3	to_board	s645
231.84	1.0	0	PA_with_intermediate	n/a	test	ward_and_allport	n/a	-1.0	18.0	n/a	n/a	feedback	s645
232.84	3.04	0	PA_with_intermediate	n/a	test	ward_and_allport	n/a	-1.0	18.0	n/a	n/a	ITI	s645
235.885	2.109	1	PA_with_intermediate	0,0,0,1,2,0,0,0,0	test	ward_and_allport	2,0,0,1,3,0,0,0,0	71.0	19.0	2.109	0,0,0,1,2,3,0,0,0	to_hand	s645
237.996	0.527	0	PA_with_intermediate	0,0,0,1,2,0,3,0,0	test	ward_and_allport	2,0,0,1,3,0,0,0,0	82.0	19.0	0.527	0,0,0,1,2,3,0,0,0	to_board	s645
238.528	0.465	0	PA_with_intermediate	0,0,0,1,0,0,3,0,0	test	ward_and_allport	2,0,0,1,3,0,0,0,0	71.0	19.0	0.465	0,0,0,1,2,3,0,0,0	to_hand	s645
238.993	0.487	0	PA_with_intermediate	2,0,0,1,0,0,3,0,0	test	ward_and_allport	2,0,0,1,3,0,0,0,0	89.0	19.0	0.487	0,0,0,1,2,3,0,0,0	to_board	s645
239.487	0.535	0	PA_with_intermediate	2,0,0,1,0,0,0,0,0	test	ward_and_allport	2,0,0,1,3,0,0,0,0	82.0	19.0	0.535	0,0,0,1,2,3,0,0,0	to_hand	s645
240.023	0.407	0	PA_with_intermediate	2,0,0,1,3,0,0,0,0	test	ward_and_allport	2,0,0,1,3,0,0,0,0	71.0	19.0	0.407	0,0,0,1,2,3,0,0,0	to_board	s645
240.44	1.0	0	PA_with_intermediate	n/a	test	ward_and_allport	n/a	-1.0	19.0	n/a	n/a	feedback	s645
241.44	1.272	0	PA_with_intermediate	n/a	test	ward_and_allport	n/a	-1.0	19.0	n/a	n/a	ITI	s645
242.719	4.257	1	PA_with_intermediate	1,2,0,0,0,0,0,0,0	test	ward_and_allport	1,0,0,0,0,0,2,3,0	89.0	20.0	4.257	1,2,3,0,0,0,0,0,0	to_hand	s645
246.976	0.562	0	PA_with_intermediate	1,2,0,3,0,0,0,0,0	test	ward_and_allport	1,0,0,0,0,0,2,3,0	71.0	20.0	0.562	1,2,3,0,0,0,0,0,0	to_board	s645
247.545	0.584	0	PA_with_intermediate	1,0,0,3,0,0,0,0,0	test	ward_and_allport	1,0,0,0,0,0,2,3,0	89.0	20.0	0.584	1,2,3,0,0,0,0,0,0	to_hand	s645
248.13	0.708	0	PA_with_intermediate	1,0,0,3,0,0,2,0,0	test	ward_and_allport	1,0,0,0,0,0,2,3,0	82.0	20.0	0.708	1,2,3,0,0,0,0,0,0	to_board	s645
248.844	1.168	0	PA_with_intermediate	1,0,0,0,0,0,2,0,0	test	ward_and_allport	1,0,0,0,0,0,2,3,0	71.0	20.0	1.168	1,2,3,0,0,0,0,0,0	to_hand	s645
250.013	0.439	0	PA_with_intermediate	1,0,0,0,0,0,2,3,0	test	ward_and_allport	1,0,0,0,0,0,2,3,0	82.0	20.0	0.439	1,2,3,0,0,0,0,0,0	to_board	s645
250.463	1.0	0	PA_with_intermediate	n/a	test	ward_and_allport	n/a	-1.0	20.0	n/a	n/a	feedback	s645
251.463	1.136	0	PA_with_intermediate	n/a	test	ward_and_allport	n/a	-1.0	20.0	n/a	n/a	ITI	s645
252.606	2.833	1	PA_with_intermediate	0,0,0,1,2,0,0,0,0	test	ward_and_allport	2,3,0,1,0,0,0,0,0	71.0	21.0	2.833	0,0,0,1,2,3,0,0,0	to_hand	s645
255.44	0.587	0	PA_with_intermediate	0,0,0,1,2,0,3,0,0	test	ward_and_allport	2,3,0,1,0,0,0,0,0	82.0	21.0	0.587	0,0,0,1,2,3,0,0,0	to_board	s645
256.033	0.791	0	PA_with_intermediate	0,0,0,1,0,0,3,0,0	test	ward_and_allport	2,3,0,1,0,0,0,0,0	71.0	21.0	0.791	0,0,0,1,2,3,0,0,0	to_hand	s645
256.826	0.519	0	PA_with_intermediate	2,0,0,1,0,0,3,0,0	test	ward_and_allport	2,3,0,1,0,0,0,0,0	89.0	21.0	0.519	0,0,0,1,2,3,0,0,0	to_board	s645
257.352	2.554	0	PA_with_intermediate	2,0,0,1,0,0,0,0,0	test	ward_and_allport	2,3,0,1,0,0,0,0,0	82.0	21.0	2.554	0,0,0,1,2,3,0,0,0	to_hand	s645
259.907	0.356	0	PA_with_intermediate	2,3,0,1,0,0,0,0,0	test	ward_and_allport	2,3,0,1,0,0,0,0,0	89.0	21.0	0.356	0,0,0,1,2,3,0,0,0	to_board	s645
260.273	1.0	0	PA_with_intermediate	n/a	test	ward_and_allport	n/a	-1.0	21.0	n/a	n/a	feedback	s645
261.273	1.0	0	PA_with_intermediate	n/a	test	ward_and_allport	n/a	-1.0	21.0	n/a	n/a	ITI	s645
262.281	3.544	1	PA_with_intermediate	1,2,0,0,0,0,0,0,0	test	ward_and_allport	1,3,0,0,0,0,2,0,0	89.0	22.0	3.544	1,2,3,0,0,0,0,0,0	to_hand	s645
265.826	0.459	0	PA_with_intermediate	1,2,0,3,0,0,0,0,0	test	ward_and_allport	1,3,0,0,0,0,2,0,0	71.0	22.0	0.459	1,2,3,0,0,0,0,0,0	to_board	s645
266.292	0.55	0	PA_with_intermediate	1,0,0,3,0,0,0,0,0	test	ward_and_allport	1,3,0,0,0,0,2,0,0	89.0	22.0	0.55	1,2,3,0,0,0,0,0,0	to_hand	s645
266.844	0.557	0	PA_with_intermediate	1,0,0,3,0,0,2,0,0	test	ward_and_allport	1,3,0,0,0,0,2,0,0	82.0	22.0	0.557	1,2,3,0,0,0,0,0,0	to_board	s645
267.407	0.44	0	PA_with_intermediate	1,0,0,0,0,0,2,0,0	test	ward_and_allport	1,3,0,0,0,0,2,0,0	71.0	22.0	0.44	1,2,3,0,0,0,0,0,0	to_hand	s645
267.848	0.401	0	PA_with_intermediate	1,3,0,0,0,0,2,0,0	test	ward_and_allport	1,3,0,0,0,0,2,0,0	89.0	22.0	0.401	1,2,3,0,0,0,0,0,0	to_board	s645
268.26	1.0	0	PA_with_intermediate	n/a	test	ward_and_allport	n/a	-1.0	22.0	n/a	n/a	feedback	s645
269.26	1.0	0	PA_with_intermediate	n/a	test	ward_and_allport	n/a	-1.0	22.0	n/a	n/a	ITI	s645
270.267	3.171	1	PA_without_intermediate	1,2,0,0,0,0,0,0,0	test	ward_and_allport	0,0,0,3,2,0,1,0,0	89.0	23.0	3.171	1,2,3,0,0,0,0,0,0	to_hand	s645
273.439	0.47	0	PA_without_intermediate	1,2,0,3,0,0,0,0,0	test	ward_and_allport	0,0,0,3,2,0,1,0,0	71.0	23.0	0.47	1,2,3,0,0,0,0,0,0	to_board	s645
273.916	0.601	0	PA_without_intermediate	1,0,0,3,0,0,0,0,0	test	ward_and_allport	0,0,0,3,2,0,1,0,0	89.0	23.0	0.601	1,2,3,0,0,0,0,0,0	to_hand	s645
274.518	0.467	0	PA_without_intermediate	1,0,0,3,2,0,0,0,0	test	ward_and_allport	0,0,0,3,2,0,1,0,0	71.0	23.0	0.467	1,2,3,0,0,0,0,0,0	to_board	s645
274.992	0.394	0	PA_without_intermediate	0,0,0,3,2,0,0,0,0	test	ward_and_allport	0,0,0,3,2,0,1,0,0	89.0	23.0	0.394	1,2,3,0,0,0,0,0,0	to_hand	s645
275.386	0.42	0	PA_without_intermediate	0,0,0,3,2,0,1,0,0	test	ward_and_allport	0,0,0,3,2,0,1,0,0	82.0	23.0	0.42	1,2,3,0,0,0,0,0,0	to_board	s645
275.817	1.0	0	PA_without_intermediate	n/a	test	ward_and_allport	n/a	-1.0	23.0	n/a	n/a	feedback	s645
276.817	1.408	0	PA_without_intermediate	n/a	test	ward_and_allport	n/a	-1.0	23.0	n/a	n/a	ITI	s645
278.232	4.419	1	PA_with_intermediate	0,0,0,0,0,0,1,2,0	test	ward_and_allport	2,0,0,0,0,0,1,3,0	82.0	24.0	4.419	0,0,0,0,0,0,1,2,3	to_hand	s645
282.652	0.464	0	PA_with_intermediate	0,0,0,3,0,0,1,2,0	test	ward_and_allport	2,0,0,0,0,0,1,3,0	71.0	24.0	0.464	0,0,0,0,0,0,1,2,3	to_board	s645
283.123	0.603	0	PA_with_intermediate	0,0,0,3,0,0,1,0,0	test	ward_and_allport	2,0,0,0,0,0,1,3,0	82.0	24.0	0.603	0,0,0,0,0,0,1,2,3	to_hand	s645
283.726	0.519	0	PA_with_intermediate	2,0,0,3,0,0,1,0,0	test	ward_and_allport	2,0,0,0,0,0,1,3,0	89.0	24.0	0.519	0,0,0,0,0,0,1,2,3	to_board	s645
284.252	1.174	0	PA_with_intermediate	2,0,0,0,0,0,1,0,0	test	ward_and_allport	2,0,0,0,0,0,1,3,0	71.0	24.0	1.174	0,0,0,0,0,0,1,2,3	to_hand	s645
285.427	0.405	0	PA_with_intermediate	2,0,0,0,0,0,1,3,0	test	ward_and_allport	2,0,0,0,0,0,1,3,0	82.0	24.0	0.405	0,0,0,0,0,0,1,2,3	to_board	s645
285.843	1.0	0	PA_with_intermediate	n/a	test	ward_and_allport	n/a	-1.0	24.0	n/a	n/a	feedback	s645
286.843	2.768	0	PA_with_intermediate	n/a	test	ward_and_allport	n/a	-1.0	24.0	n/a	n/a	ITI	s645
289.618	3.282	1	PA_with_intermediate	1,2,0,0,0,0,0,0,0	test	ward_and_allport	1,0,0,0,0,0,2,3,0	89.0	25.0	3.282	1,2,3,0,0,0,0,0,0	to_hand	s645
292.901	0.479	0	PA_with_intermediate	1,2,0,3,0,0,0,0,0	test	ward_and_allport	1,0,0,0,0,0,2,3,0	71.0	25.0	0.479	1,2,3,0,0,0,0,0,0	to_board	s645
293.386	0.508	0	PA_with_intermediate	1,0,0,3,0,0,0,0,0	test	ward_and_allport	1,0,0,0,0,0,2,3,0	89.0	25.0	0.508	1,2,3,0,0,0,0,0,0	to_hand	s645
293.896	0.853	0	PA_with_intermediate	1,0,0,3,0,0,2,0,0	test	ward_and_allport	1,0,0,0,0,0,2,3,0	82.0	25.0	0.853	1,2,3,0,0,0,0,0,0	to_board	s645
294.756	0.463	0	PA_with_intermediate	1,0,0,0,0,0,2,0,0	test	ward_and_allport	1,0,0,0,0,0,2,3,0	71.0	25.0	0.463	1,2,3,0,0,0,0,0,0	to_hand	s645
295.22	0.396	0	PA_with_intermediate	1,0,0,0,0,0,2,3,0	test	ward_and_allport	1,0,0,0,0,0,2,3,0	82.0	25.0	0.396	1,2,3,0,0,0,0,0,0	to_board	s645
295.628	1.0	0	PA_with_intermediate	n/a	test	ward_and_allport	n/a	-1.0	25.0	n/a	n/a	feedback	s645
296.628	1.68	0	PA_with_intermediate	n/a	test	ward_and_allport	n/a	-1.0	25.0	n/a	n/a	ITI	s645
298.316	2.81	1	PA_without_intermediate	0,0,0,0,0,0,1,2,0	test	ward_and_allport	3,2,0,1,0,0,0,0,0	82.0	26.0	2.81	0,0,0,0,0,0,1,2,3	to_hand	s645
301.127	0.509	0	PA_without_intermediate	3,0,0,0,0,0,1,2,0	test	ward_and_allport	3,2,0,1,0,0,0,0,0	89.0	26.0	0.509	0,0,0,0,0,0,1,2,3	to_board	s645
301.643	1.41	0	PA_without_intermediate	3,0,0,0,0,0,1,0,0	test	ward_and_allport	3,2,0,1,0,0,0,0,0	82.0	26.0	1.41	0,0,0,0,0,0,1,2,3	to_hand	s645
303.054	0.488	0	PA_without_intermediate	3,2,0,0,0,0,1,0,0	test	ward_and_allport	3,2,0,1,0,0,0,0,0	89.0	26.0	0.488	0,0,0,0,0,0,1,2,3	to_board	s645
303.549	0.786	0	PA_without_intermediate	3,2,0,0,0,0,0,0,0	test	ward_and_allport	3,2,0,1,0,0,0,0,0	82.0	26.0	0.786	0,0,0,0,0,0,1,2,3	to_hand	s645
304.336	0.34	0	PA_without_intermediate	3,2,0,1,0,0,0,0,0	test	ward_and_allport	3,2,0,1,0,0,0,0,0	71.0	26.0	0.34	0,0,0,0,0,0,1,2,3	to_board	s645
304.688	1.0	0	PA_without_intermediate	n/a	test	ward_and_allport	n/a	-1.0	26.0	n/a	n/a	feedback	s645
305.688	2.224	0	PA_without_intermediate	n/a	test	ward_and_allport	n/a	-1.0	26.0	n/a	n/a	ITI	s645
307.92	1.896	1	PA_without_intermediate	0,0,0,1,2,0,0,0,0	test	ward_and_allport	2,0,0,0,0,0,3,1,0	71.0	27.0	1.896	0,0,0,1,2,3,0,0,0	to_hand	s645
309.818	0.709	0	PA_without_intermediate	0,0,0,1,2,0,3,0,0	test	ward_and_allport	2,0,0,0,0,0,3,1,0	82.0	27.0	0.709	0,0,0,1,2,3,0,0,0	to_board	s645
310.534	1.006	0	PA_without_intermediate	0,0,0,1,0,0,3,0,0	test	ward_and_allport	2,0,0,0,0,0,3,1,0	71.0	27.0	1.006	0,0,0,1,2,3,0,0,0	to_hand	s645
311.542	0.359	0	PA_without_intermediate	2,0,0,1,0,0,3,0,0	test	ward_and_allport	2,0,0,0,0,0,3,1,0	89.0	27.0	0.359	0,0,0,1,2,3,0,0,0	to_board	s645
311.907	0.182	0	PA_without_intermediate	0,0,0,1,0,0,3,0,0	test	ward_and_allport	2,0,0,0,0,0,3,1,0	89.0	27.0	0.182	0,0,0,1,2,3,0,0,0	to_hand	s645
312.09	0.913	0	PA_without_intermediate	2,0,0,1,0,0,3,0,0	test	ward_and_allport	2,0,0,0,0,0,3,1,0	89.0	27.0	0.913	0,0,0,1,2,3,0,0,0	to_board	s645
313.01	0.163	0	PA_without_intermediate	0,0,0,1,0,0,3,0,0	test	ward_and_allport	2,0,0,0,0,0,3,1,0	89.0	27.0	0.163	0,0,0,1,2,3,0,0,0	to_hand	s645
313.174	0.572	0	PA_without_intermediate	2,0,0,1,0,0,3,0,0	test	ward_and_allport	2,0,0,0,0,0,3,1,0	89.0	27.0	0.572	0,0,0,1,2,3,0,0,0	to_board	s645
313.753	1.725	0	PA_without_intermediate	0,0,0,1,0,0,3,0,0	test	ward_and_allport	2,0,0,0,0,0,3,1,0	89.0	27.0	1.725	0,0,0,1,2,3,0,0,0	to_hand	s645
315.48	0.566	0	PA_without_intermediate	2,0,0,1,0,0,3,0,0	test	ward_and_allport	2,0,0,0,0,0,3,1,0	89.0	27.0	0.566	0,0,0,1,2,3,0,0,0	to_board	s645
316.054	0.548	0	PA_without_intermediate	2,0,0,0,0,0,3,0,0	test	ward_and_allport	2,0,0,0,0,0,3,1,0	71.0	27.0	0.548	0,0,0,1,2,3,0,0,0	to_hand	s645
316.602	0.394	0	PA_without_intermediate	2,0,0,0,0,0,3,1,0	test	ward_and_allport	2,0,0,0,0,0,3,1,0	82.0	27.0	0.394	0,0,0,1,2,3,0,0,0	to_board	s645
317.007	1.0	0	PA_without_intermediate	n/a	test	ward_and_allport	n/a	-1.0	27.0	n/a	n/a	feedback	s645
318.007	2.36	0	PA_without_intermediate	n/a	test	ward_and_allport	n/a	-1.0	27.0	n/a	n/a	ITI	s645
320.374	1.76	1	PA_without_intermediate	0,0,0,0,0,0,1,2,0	test	ward_and_allport	1,0,0,3,2,0,0,0,0	82.0	28.0	1.76	0,0,0,0,0,0,1,2,3	to_hand	s645
322.135	0.471	0	PA_without_intermediate	0,0,0,3,0,0,1,2,0	test	ward_and_allport	1,0,0,3,2,0,0,0,0	71.0	28.0	0.471	0,0,0,0,0,0,1,2,3	to_board	s645
322.613	0.692	0	PA_without_intermediate	0,0,0,3,0,0,1,0,0	test	ward_and_allport	1,0,0,3,2,0,0,0,0	82.0	28.0	0.692	0,0,0,0,0,0,1,2,3	to_hand	s645
323.306	0.639	0	PA_without_intermediate	0,0,0,3,2,0,1,0,0	test	ward_and_allport	1,0,0,3,2,0,0,0,0	71.0	28.0	0.639	0,0,0,0,0,0,1,2,3	to_board	s645
323.953	1.091	0	PA_without_intermediate	0,0,0,3,2,0,0,0,0	test	ward_and_allport	1,0,0,3,2,0,0,0,0	82.0	28.0	1.091	0,0,0,0,0,0,1,2,3	to_hand	s645
325.046	0.387	0	PA_without_intermediate	1,0,0,3,2,0,0,0,0	test	ward_and_allport	1,0,0,3,2,0,0,0,0	89.0	28.0	0.387	0,0,0,0,0,0,1,2,3	to_board	s645
325.445	1.0	0	PA_without_intermediate	n/a	test	ward_and_allport	n/a	-1.0	28.0	n/a	n/a	feedback	s645
326.445	1.0	0	PA_without_intermediate	n/a	test	ward_and_allport	n/a	-1.0	28.0	n/a	n/a	ITI	s645
327.453	2.017	1	PA_without_intermediate	1,2,0,0,0,0,0,0,0	test	ward_and_allport	0,0,0,3,2,0,1,0,0	89.0	29.0	2.017	1,2,3,0,0,0,0,0,0	to_hand	s645
329.472	0.854	0	PA_without_intermediate	1,2,0,3,0,0,0,0,0	test	ward_and_allport	0,0,0,3,2,0,1,0,0	71.0	29.0	0.854	1,2,3,0,0,0,0,0,0	to_board	s645
330.334	0.43	0	PA_without_intermediate	1,0,0,3,0,0,0,0,0	test	ward_and_allport	0,0,0,3,2,0,1,0,0	89.0	29.0	0.43	1,2,3,0,0,0,0,0,0	to_hand	s645
330.765	0.494	0	PA_without_intermediate	1,0,0,3,2,0,0,0,0	test	ward_and_allport	0,0,0,3,2,0,1,0,0	71.0	29.0	0.494	1,2,3,0,0,0,0,0,0	to_board	s645
331.267	0.481	0	PA_without_intermediate	0,0,0,3,2,0,0,0,0	test	ward_and_allport	0,0,0,3,2,0,1,0,0	89.0	29.0	0.481	1,2,3,0,0,0,0,0,0	to_hand	s645
331.749	0.648	0	PA_without_intermediate	0,0,0,3,2,0,1,0,0	test	ward_and_allport	0,0,0,3,2,0,1,0,0	82.0	29.0	0.648	1,2,3,0,0,0,0,0,0	to_board	s645
332.409	1.0	0	PA_without_intermediate	n/a	test	ward_and_allport	n/a	-1.0	29.0	n/a	n/a	feedback	s645
333.409	1.408	0	PA_without_intermediate	n/a	test	ward_and_allport	n/a	-1.0	29.0	n/a	n/a	ITI	s645
339.832	2.005	1	PA_with_intermediate	1,2,0,0,0,0,0,0,0	test	ward_and_allport	1,0,0,2,3,0,0,0,0	89.0	30.0	2.005	1,2,3,0,0,0,0,0,0	to_hand	s645
341.838	0.542	0	PA_with_intermediate	1,2,0,0,0,0,3,0,0	test	ward_and_allport	1,0,0,2,3,0,0,0,0	82.0	30.0	0.542	1,2,3,0,0,0,0,0,0	to_board	s645
342.388	0.51	0	PA_with_intermediate	1,0,0,0,0,0,3,0,0	test	ward_and_allport	1,0,0,2,3,0,0,0,0	89.0	30.0	0.51	1,2,3,0,0,0,0,0,0	to_hand	s645
342.898	0.512	0	PA_with_intermediate	1,0,0,2,0,0,3,0,0	test	ward_and_allport	1,0,0,2,3,0,0,0,0	71.0	30.0	0.512	1,2,3,0,0,0,0,0,0	to_board	s645
343.418	0.566	0	PA_with_intermediate	1,0,0,2,0,0,0,0,0	test	ward_and_allport	1,0,0,2,3,0,0,0,0	82.0	30.0	0.566	1,2,3,0,0,0,0,0,0	to_hand	s645
343.985	0.426	0	PA_with_intermediate	1,0,0,2,3,0,0,0,0	test	ward_and_allport	1,0,0,2,3,0,0,0,0	71.0	30.0	0.426	1,2,3,0,0,0,0,0,0	to_board	s645
344.426	1.0	0	PA_with_intermediate	n/a	test	ward_and_allport	n/a	-1.0	30.0	n/a	n/a	feedback	s645
345.426	1.136	0	PA_with_intermediate	n/a	test	ward_and_allport	n/a	-1.0	30.0	n/a	n/a	ITI	s645
346.572	2.025	1	PA_without_intermediate	0,0,0,0,0,0,1,2,0	test	ward_and_allport	2,0,0,3,1,0,0,0,0	82.0	31.0	2.025	0,0,0,0,0,0,1,2,3	to_hand	s645
348.598	0.541	0	PA_without_intermediate	0,0,0,3,0,0,1,2,0	test	ward_and_allport	2,0,0,3,1,0,0,0,0	71.0	31.0	0.541	0,0,0,0,0,0,1,2,3	to_board	s645
349.148	1.212	0	PA_without_intermediate	0,0,0,3,0,0,1,0,0	test	ward_and_allport	2,0,0,3,1,0,0,0,0	82.0	31.0	1.212	0,0,0,0,0,0,1,2,3	to_hand	s645
350.361	0.459	0	PA_without_intermediate	2,0,0,3,0,0,1,0,0	test	ward_and_allport	2,0,0,3,1,0,0,0,0	89.0	31.0	0.459	0,0,0,0,0,0,1,2,3	to_board	s645
350.827	0.889	0	PA_without_intermediate	2,0,0,3,0,0,0,0,0	test	ward_and_allport	2,0,0,3,1,0,0,0,0	82.0	31.0	0.889	0,0,0,0,0,0,1,2,3	to_hand	s645
351.717	0.386	0	PA_without_intermediate	2,0,0,3,1,0,0,0,0	test	ward_and_allport	2,0,0,3,1,0,0,0,0	71.0	31.0	0.386	0,0,0,0,0,0,1,2,3	to_board	s645
352.113	1.0	0	PA_without_intermediate	n/a	test	ward_and_allport	n/a	-1.0	31.0	n/a	n/a	feedback	s645
353.113	4.128	0	PA_without_intermediate	n/a	test	ward_and_allport	n/a	-1.0	31.0	n/a	n/a	ITI	s645
357.248	2.499	1	PA_without_intermediate	0,0,0,0,0,0,1,2,0	test	ward_and_allport	3,1,0,2,0,0,0,0,0	82.0	32.0	2.499	0,0,0,0,0,0,1,2,3	to_hand	s645
359.749	0.519	0	PA_without_intermediate	3,0,0,0,0,0,1,2,0	test	ward_and_allport	3,1,0,2,0,0,0,0,0	89.0	32.0	0.519	0,0,0,0,0,0,1,2,3	to_board	s645
360.277	1.232	0	PA_without_intermediate	3,0,0,0,0,0,1,0,0	test	ward_and_allport	3,1,0,2,0,0,0,0,0	82.0	32.0	1.232	0,0,0,0,0,0,1,2,3	to_hand	s645
361.51	0.484	0	PA_without_intermediate	3,0,0,2,0,0,1,0,0	test	ward_and_allport	3,1,0,2,0,0,0,0,0	71.0	32.0	0.484	0,0,0,0,0,0,1,2,3	to_board	s645
362.003	0.58	0	PA_without_intermediate	3,0,0,2,0,0,0,0,0	test	ward_and_allport	3,1,0,2,0,0,0,0,0	82.0	32.0	0.58	0,0,0,0,0,0,1,2,3	to_hand	s645
362.585	0.384	0	PA_without_intermediate	3,1,0,2,0,0,0,0,0	test	ward_and_allport	3,1,0,2,0,0,0,0,0	89.0	32.0	0.384	0,0,0,0,0,0,1,2,3	to_board	s645
362.983	1.0	0	PA_without_intermediate	n/a	test	ward_and_allport	n/a	-1.0	32.0	n/a	n/a	feedback	s645
363.983	1.136	0	PA_without_intermediate	n/a	test	ward_and_allport	n/a	-1.0	32.0	n/a	n/a	ITI	s645
365.128	2.597	1	PA_without_intermediate	0,0,0,1,2,0,0,0,0	test	ward_and_allport	3,1,0,0,0,0,2,0,0	71.0	33.0	2.597	0,0,0,1,2,3,0,0,0	to_hand	s645
367.726	0.55	0	PA_without_intermediate	3,0,0,1,2,0,0,0,0	test	ward_and_allport	3,1,0,0,0,0,2,0,0	89.0	33.0	0.55	0,0,0,1,2,3,0,0,0	to_board	s645
368.283	0.488	0	PA_without_intermediate	3,0,0,1,0,0,0,0,0	test	ward_and_allport	3,1,0,0,0,0,2,0,0	71.0	33.0	0.488	0,0,0,1,2,3,0,0,0	to_hand	s645
368.773	0.533	0	PA_without_intermediate	3,0,0,1,0,0,2,0,0	test	ward_and_allport	3,1,0,0,0,0,2,0,0	82.0	33.0	0.533	0,0,0,1,2,3,0,0,0	to_board	s645
369.314	0.585	0	PA_without_intermediate	3,0,0,0,0,0,2,0,0	test	ward_and_allport	3,1,0,0,0,0,2,0,0	71.0	33.0	0.585	0,0,0,1,2,3,0,0,0	to_hand	s645
369.9	0.411	0	PA_without_intermediate	3,1,0,0,0,0,2,0,0	test	ward_and_allport	3,1,0,0,0,0,2,0,0	89.0	33.0	0.411	0,0,0,1,2,3,0,0,0	to_board	s645
370.322	1.0	0	PA_without_intermediate	n/a	test	ward_and_allport	n/a	-1.0	33.0	n/a	n/a	feedback	s645
371.322	4.264	0	PA_without_intermediate	n/a	test	ward_and_allport	n/a	-1.0	33.0	n/a	n/a	ITI	s645
375.594	3.309	1	PA_with_intermediate	1,2,0,0,0,0,0,0,0	test	ward_and_allport	1,3,0,2,0,0,0,0,0	89.0	34.0	3.309	1,2,3,0,0,0,0,0,0	to_hand	s645
378.903	0.567	0	PA_with_intermediate	1,2,0,0,0,0,3,0,0	test	ward_and_allport	1,3,0,2,0,0,0,0,0	82.0	34.0	0.567	1,2,3,0,0,0,0,0,0	to_board	s645
379.478	0.456	0	PA_with_intermediate	1,0,0,0,0,0,3,0,0	test	ward_and_allport	1,3,0,2,0,0,0,0,0	89.0	34.0	0.456	1,2,3,0,0,0,0,0,0	to_hand	s645
379.935	0.6	0	PA_with_intermediate	1,0,0,2,0,0,3,0,0	test	ward_and_allport	1,3,0,2,0,0,0,0,0	71.0	34.0	0.6	1,2,3,0,0,0,0,0,0	to_board	s645
380.545	0.573	0	PA_with_intermediate	1,0,0,2,0,0,0,0,0	test	ward_and_allport	1,3,0,2,0,0,0,0,0	82.0	34.0	0.573	1,2,3,0,0,0,0,0,0	to_hand	s645
381.118	0.368	0	PA_with_intermediate	1,3,0,2,0,0,0,0,0	test	ward_and_allport	1,3,0,2,0,0,0,0,0	89.0	34.0	0.368	1,2,3,0,0,0,0,0,0	to_board	s645
381.501	1.0	0	PA_with_intermediate	n/a	test	ward_and_allport	n/a	-1.0	34.0	n/a	n/a	feedback	s645
382.501	3.04	0	PA_with_intermediate	n/a	test	ward_and_allport	n/a	-1.0	34.0	n/a	n/a	ITI	s645
385.551	2.47	1	PA_with_intermediate	0,0,0,0,0,0,1,2,0	test	ward_and_allport	2,3,0,0,0,0,1,0,0	82.0	35.0	2.47	0,0,0,0,0,0,1,2,3	to_hand	s645
388.022	0.48	0	PA_with_intermediate	0,0,0,3,0,0,1,2,0	test	ward_and_allport	2,3,0,0,0,0,1,0,0	71.0	35.0	0.48	0,0,0,0,0,0,1,2,3	to_board	s645
388.509	0.546	0	PA_with_intermediate	0,0,0,3,0,0,1,0,0	test	ward_and_allport	2,3,0,0,0,0,1,0,0	82.0	35.0	0.546	0,0,0,0,0,0,1,2,3	to_hand	s645
389.057	0.495	0	PA_with_intermediate	2,0,0,3,0,0,1,0,0	test	ward_and_allport	2,3,0,0,0,0,1,0,0	89.0	35.0	0.495	0,0,0,0,0,0,1,2,3	to_board	s645
389.562	0.812	0	PA_with_intermediate	2,0,0,0,0,0,1,0,0	test	ward_and_allport	2,3,0,0,0,0,1,0,0	71.0	35.0	0.812	0,0,0,0,0,0,1,2,3	to_hand	s645
390.374	0.543	0	PA_with_intermediate	2,3,0,0,0,0,1,0,0	test	ward_and_allport	2,3,0,0,0,0,1,0,0	89.0	35.0	0.543	0,0,0,0,0,0,1,2,3	to_board	s645
390.929	1.0	0	PA_with_intermediate	n/a	test	ward_and_allport	n/a	-1.0	35.0	n/a	n/a	feedback	s645
391.929	1.136	0	PA_with_intermediate	n/a	test	ward_and_allport	n/a	-1.0	35.0	n/a	n/a	ITI	s645
393.072	3.505	1	PA_with_intermediate	0,0,0,0,0,0,1,2,0	test	ward_and_allport	0,0,0,2,0,0,1,3,0	82.0	36.0	3.505	0,0,0,0,0,0,1,2,3	to_hand	s645
396.578	0.527	0	PA_with_intermediate	3,0,0,0,0,0,1,2,0	test	ward_and_allport	0,0,0,2,0,0,1,3,0	89.0	36.0	0.527	0,0,0,0,0,0,1,2,3	to_board	s645
397.111	0.591	0	PA_with_intermediate	3,0,0,0,0,0,1,0,0	test	ward_and_allport	0,0,0,2,0,0,1,3,0	82.0	36.0	0.591	0,0,0,0,0,0,1,2,3	to_hand	s645
397.704	0.51	0	PA_with_intermediate	3,0,0,2,0,0,1,0,0	test	ward_and_allport	0,0,0,2,0,0,1,3,0	71.0	36.0	0.51	0,0,0,0,0,0,1,2,3	to_board	s645
398.223	0.617	0	PA_with_intermediate	0,0,0,2,0,0,1,0,0	test	ward_and_allport	0,0,0,2,0,0,1,3,0	89.0	36.0	0.617	0,0,0,0,0,0,1,2,3	to_hand	s645
398.841	0.604	0	PA_with_intermediate	0,0,0,2,0,0,1,3,0	test	ward_and_allport	0,0,0,2,0,0,1,3,0	82.0	36.0	0.604	0,0,0,0,0,0,1,2,3	to_board	s645
399.46	1.0	0	PA_with_intermediate	n/a	test	ward_and_allport	n/a	-1.0	36.0	n/a	n/a	feedback	s645
400.46	1.408	0	PA_with_intermediate	n/a	test	ward_and_allport	n/a	-1.0	36.0	n/a	n/a	ITI	s645
401.878	3.336	1	PA_without_intermediate	0,0,0,0,0,0,1,2,0	test	ward_and_allport	2,0,0,3,1,0,0,0,0	82.0	37.0	3.336	0,0,0,0,0,0,1,2,3	to_hand	s645
405.216	0.598	0	PA_without_intermediate	0,0,0,3,0,0,1,2,0	test	ward_and_allport	2,0,0,3,1,0,0,0,0	71.0	37.0	0.598	0,0,0,0,0,0,1,2,3	to_board	s645
405.821	0.636	0	PA_without_intermediate	0,0,0,3,0,0,1,0,0	test	ward_and_allport	2,0,0,3,1,0,0,0,0	82.0	37.0	0.636	0,0,0,0,0,0,1,2,3	to_hand	s645
406.458	0.541	0	PA_without_intermediate	2,0,0,3,0,0,1,0,0	test	ward_and_allport	2,0,0,3,1,0,0,0,0	89.0	37.0	0.541	0,0,0,0,0,0,1,2,3	to_board	s645
407.008	1.319	0	PA_without_intermediate	2,0,0,3,0,0,0,0,0	test	ward_and_allport	2,0,0,3,1,0,0,0,0	82.0	37.0	1.319	0,0,0,0,0,0,1,2,3	to_hand	s645
408.328	0.346	0	PA_without_intermediate	2,0,0,3,1,0,0,0,0	test	ward_and_allport	2,0,0,3,1,0,0,0,0	71.0	37.0	0.346	0,0,0,0,0,0,1,2,3	to_board	s645
408.69	1.0	0	PA_without_intermediate	n/a	test	ward_and_allport	n/a	-1.0	37.0	n/a	n/a	feedback	s645
409.69	1.68	0	PA_without_intermediate	n/a	test	ward_and_allport	n/a	-1.0	37.0	n/a	n/a	ITI	s645
411.379	2.921	1	PA_with_intermediate	1,2,0,0,0,0,0,0,0	test	ward_and_allport	1,3,0,2,0,0,0,0,0	89.0	38.0	2.921	1,2,3,0,0,0,0,0,0	to_hand	s645
414.301	0.551	0	PA_with_intermediate	1,2,0,0,0,0,3,0,0	test	ward_and_allport	1,3,0,2,0,0,0,0,0	82.0	38.0	0.551	1,2,3,0,0,0,0,0,0	to_board	s645
414.859	0.432	0	PA_with_intermediate	1,0,0,0,0,0,3,0,0	test	ward_and_allport	1,3,0,2,0,0,0,0,0	89.0	38.0	0.432	1,2,3,0,0,0,0,0,0	to_hand	s645
415.292	0.434	0	PA_with_intermediate	1,0,0,2,0,0,3,0,0	test	ward_and_allport	1,3,0,2,0,0,0,0,0	71.0	38.0	0.434	1,2,3,0,0,0,0,0,0	to_board	s645
415.735	0.527	0	PA_with_intermediate	1,0,0,2,0,0,0,0,0	test	ward_and_allport	1,3,0,2,0,0,0,0,0	82.0	38.0	0.527	1,2,3,0,0,0,0,0,0	to_hand	s645
416.264	0.371	0	PA_with_intermediate	1,3,0,2,0,0,0,0,0	test	ward_and_allport	1,3,0,2,0,0,0,0,0	89.0	38.0	0.371	1,2,3,0,0,0,0,0,0	to_board	s645
416.649	1.0	0	PA_with_intermediate	n/a	test	ward_and_allport	n/a	-1.0	38.0	n/a	n/a	feedback	s645
417.649	3.72	0	PA_with_intermediate	n/a	test	ward_and_allport	n/a	-1.0	38.0	n/a	n/a	ITI	s645
421.376	3.462	1	PA_without_intermediate	0,0,0,1,2,0,0,0,0	test	ward_and_allport	3,2,0,0,0,0,1,0,0	71.0	39.0	3.462	0,0,0,1,2,3,0,0,0	to_hand	s645
424.84	0.561	0	PA_without_intermediate	3,0,0,1,2,0,0,0,0	test	ward_and_allport	3,2,0,0,0,0,1,0,0	89.0	39.0	0.561	0,0,0,1,2,3,0,0,0	to_board	s645
425.411	1.186	0	PA_without_intermediate	3,0,0,1,0,0,0,0,0	test	ward_and_allport	3,2,0,0,0,0,1,0,0	71.0	39.0	1.186	0,0,0,1,2,3,0,0,0	to_hand	s645
426.598	0.43	0	PA_without_intermediate	3,2,0,1,0,0,0,0,0	test	ward_and_allport	3,2,0,0,0,0,1,0,0	89.0	39.0	0.43	0,0,0,1,2,3,0,0,0	to_board	s645
427.039	0.599	0	PA_without_intermediate	3,2,0,0,0,0,0,0,0	test	ward_and_allport	3,2,0,0,0,0,1,0,0	71.0	39.0	0.599	0,0,0,1,2,3,0,0,0	to_hand	s645
427.639	0.372	0	PA_without_intermediate	3,2,0,0,0,0,1,0,0	test	ward_and_allport	3,2,0,0,0,0,1,0,0	82.0	39.0	0.372	0,0,0,1,2,3,0,0,0	to_board	s645
428.025	1.0	0	PA_without_intermediate	n/a	test	ward_and_allport	n/a	-1.0	39.0	n/a	n/a	feedback	s645
429.025	2.224	0	PA_without_intermediate	n/a	test	ward_and_allport	n/a	-1.0	39.0	n/a	n/a	ITI	s645
431.258	1.721	1	PA_without_intermediate	1,2,0,0,0,0,0,0,0	test	ward_and_allport	0,0,0,3,1,0,2,0,0	89.0	40.0	1.721	1,2,3,0,0,0,0,0,0	to_hand	s645
432.98	0.57	0	PA_without_intermediate	1,2,0,3,0,0,0,0,0	test	ward_and_allport	0,0,0,3,1,0,2,0,0	71.0	40.0	0.57	1,2,3,0,0,0,0,0,0	to_board	s645
433.558	1.32	0	PA_without_intermediate	1,0,0,3,0,0,0,0,0	test	ward_and_allport	0,0,0,3,1,0,2,0,0	89.0	40.0	1.32	1,2,3,0,0,0,0,0,0	to_hand	s645
434.879	0.505	0	PA_without_intermediate	1,0,0,3,0,0,2,0,0	test	ward_and_allport	0,0,0,3,1,0,2,0,0	82.0	40.0	0.505	1,2,3,0,0,0,0,0,0	to_board	s645
435.394	0.446	0	PA_without_intermediate	0,0,0,3,0,0,2,0,0	test	ward_and_allport	0,0,0,3,1,0,2,0,0	89.0	40.0	0.446	1,2,3,0,0,0,0,0,0	to_hand	s645
435.841	0.365	0	PA_without_intermediate	0,0,0,3,1,0,2,0,0	test	ward_and_allport	0,0,0,3,1,0,2,0,0	71.0	40.0	0.365	1,2,3,0,0,0,0,0,0	to_board	s645
436.221	1.0	0	PA_without_intermediate	n/a	test	ward_and_allport	n/a	-1.0	40.0	n/a	n/a	feedback	s645
437.221	1.272	0	PA_without_intermediate	n/a	test	ward_and_allport	n/a	-1.0	40.0	n/a	n/a	ITI	s645
438.503	3.363	1	PA_with_intermediate	0,0,0,0,0,0,1,2,0	test	ward_and_allport	2,0,0,0,0,0,1,3,0	82.0	41.0	3.363	0,0,0,0,0,0,1,2,3	to_hand	s645
441.868	0.466	0	PA_with_intermediate	0,0,0,3,0,0,1,2,0	test	ward_and_allport	2,0,0,0,0,0,1,3,0	71.0	41.0	0.466	0,0,0,0,0,0,1,2,3	to_board	s645
442.343	0.921	0	PA_with_intermediate	0,0,0,3,0,0,1,0,0	test	ward_and_allport	2,0,0,0,0,0,1,3,0	82.0	41.0	0.921	0,0,0,0,0,0,1,2,3	to_hand	s645
443.265	0.499	0	PA_with_intermediate	2,0,0,3,0,0,1,0,0	test	ward_and_allport	2,0,0,0,0,0,1,3,0	89.0	41.0	0.499	0,0,0,0,0,0,1,2,3	to_board	s645
443.775	0.428	0	PA_with_intermediate	2,0,0,0,0,0,1,0,0	test	ward_and_allport	2,0,0,0,0,0,1,3,0	71.0	41.0	0.428	0,0,0,0,0,0,1,2,3	to_hand	s645
444.205	0.427	0	PA_with_intermediate	2,0,0,0,0,0,1,3,0	test	ward_and_allport	2,0,0,0,0,0,1,3,0	82.0	41.0	0.427	0,0,0,0,0,0,1,2,3	to_board	s645
444.647	1.0	0	PA_with_intermediate	n/a	test	ward_and_allport	n/a	-1.0	41.0	n/a	n/a	feedback	s645
445.647	2.632	0	PA_with_intermediate	n/a	test	ward_and_allport	n/a	-1.0	41.0	n/a	n/a	ITI	s645
448.29	2.566	1	PA_without_intermediate	0,0,0,1,2,0,0,0,0	test	ward_and_allport	1,0,0,0,0,0,3,2,0	71.0	42.0	2.566	0,0,0,1,2,3,0,0,0	to_hand	s645
450.858	0.416	0	PA_without_intermediate	0,0,0,1,2,0,3,0,0	test	ward_and_allport	1,0,0,0,0,0,3,2,0	82.0	42.0	0.416	0,0,0,1,2,3,0,0,0	to_board	s645
451.281	0.417	0	PA_without_intermediate	0,0,0,1,0,0,3,0,0	test	ward_and_allport	1,0,0,0,0,0,3,2,0	71.0	42.0	0.417	0,0,0,1,2,3,0,0,0	to_hand	s645
451.699	0.451	0	PA_without_intermediate	0,0,0,1,0,0,3,2,0	test	ward_and_allport	1,0,0,0,0,0,3,2,0	82.0	42.0	0.451	0,0,0,1,2,3,0,0,0	to_board	s645
452.16	0.433	0	PA_without_intermediate	0,0,0,0,0,0,3,2,0	test	ward_and_allport	1,0,0,0,0,0,3,2,0	71.0	42.0	0.433	0,0,0,1,2,3,0,0,0	to_hand	s645
452.594	0.367	0	PA_without_intermediate	1,0,0,0,0,0,3,2,0	test	ward_and_allport	1,0,0,0,0,0,3,2,0	89.0	42.0	0.367	0,0,0,1,2,3,0,0,0	to_board	s645
452.976	1.0	0	PA_without_intermediate	n/a	test	ward_and_allport	n/a	-1.0	42.0	n/a	n/a	feedback	s645
453.976	1.408	0	PA_without_intermediate	n/a	test	ward_and_allport	n/a	-1.0	42.0	n/a	n/a	ITI	s645
455.392	2.526	1	PA_without_intermediate	1,2,0,0,0,0,0,0,0	test	ward_and_allport	0,0,0,2,0,0,3,1,0	89.0	43.0	2.526	1,2,3,0,0,0,0,0,0	to_hand	s645
457.92	0.443	0	PA_without_intermediate	1,2,0,0,0,0,3,0,0	test	ward_and_allport	0,0,0,2,0,0,3,1,0	82.0	43.0	0.443	1,2,3,0,0,0,0,0,0	to_board	s645
458.371	0.353	0	PA_without_intermediate	1,0,0,0,0,0,3,0,0	test	ward_and_allport	0,0,0,2,0,0,3,1,0	89.0	43.0	0.353	1,2,3,0,0,0,0,0,0	to_hand	s645
458.726	0.397	0	PA_without_intermediate	1,0,0,2,0,0,3,0,0	test	ward_and_allport	0,0,0,2,0,0,3,1,0	71.0	43.0	0.397	1,2,3,0,0,0,0,0,0	to_board	s645
459.132	0.363	0	PA_without_intermediate	0,0,0,2,0,0,3,0,0	test	ward_and_allport	0,0,0,2,0,0,3,1,0	89.0	43.0	0.363	1,2,3,0,0,0,0,0,0	to_hand	s645
459.497	0.536	0	PA_without_intermediate	0,0,0,2,0,0,3,1,0	test	ward_and_allport	0,0,0,2,0,0,3,1,0	82.0	43.0	0.536	1,2,3,0,0,0,0,0,0	to_board	s645
460.047	1.0	0	PA_without_intermediate	n/a	test	ward_and_allport	n/a	-1.0	43.0	n/a	n/a	feedback	s645
461.047	1.0	0	PA_without_intermediate	n/a	test	ward_and_allport	n/a	-1.0	43.0	n/a	n/a	ITI	s645
462.057	1.803	1	PA_with_intermediate	0,0,0,1,2,0,0,0,0	test	ward_and_allport	0,0,0,1,0,0,2,3,0	71.0	44.0	1.803	0,0,0,1,2,3,0,0,0	to_hand	s645
463.861	0.374	0	PA_with_intermediate	3,0,0,1,2,0,0,0,0	test	ward_and_allport	0,0,0,1,0,0,2,3,0	89.0	44.0	0.374	0,0,0,1,2,3,0,0,0	to_board	s645
464.243	0.385	0	PA_with_intermediate	3,0,0,1,0,0,0,0,0	test	ward_and_allport	0,0,0,1,0,0,2,3,0	71.0	44.0	0.385	0,0,0,1,2,3,0,0,0	to_hand	s645
464.63	0.423	0	PA_with_intermediate	3,0,0,1,0,0,2,0,0	test	ward_and_allport	0,0,0,1,0,0,2,3,0	82.0	44.0	0.423	0,0,0,1,2,3,0,0,0	to_board	s645
465.061	0.376	0	PA_with_intermediate	0,0,0,1,0,0,2,0,0	test	ward_and_allport	0,0,0,1,0,0,2,3,0	89.0	44.0	0.376	0,0,0,1,2,3,0,0,0	to_hand	s645
465.438	0.394	0	PA_with_intermediate	0,0,0,1,0,0,2,3,0	test	ward_and_allport	0,0,0,1,0,0,2,3,0	82.0	44.0	0.394	0,0,0,1,2,3,0,0,0	to_board	s645
465.845	1.0	0	PA_with_intermediate	n/a	test	ward_and_allport	n/a	-1.0	44.0	n/a	n/a	feedback	s645
466.845	1.0	0	PA_with_intermediate	n/a	test	ward_and_allport	n/a	-1.0	44.0	n/a	n/a	ITI	s645
472.86	2.883	1	PA_with_intermediate	0,0,0,0,0,0,1,2,0	test	ward_and_allport	0,0,0,2,3,0,1,0,0	82.0	45.0	2.883	0,0,0,0,0,0,1,2,3	to_hand	s645
475.744	0.371	0	PA_with_intermediate	3,0,0,0,0,0,1,2,0	test	ward_and_allport	0,0,0,2,3,0,1,0,0	89.0	45.0	0.371	0,0,0,0,0,0,1,2,3	to_board	s645
476.125	0.366	0	PA_with_intermediate	3,0,0,0,0,0,1,0,0	test	ward_and_allport	0,0,0,2,3,0,1,0,0	82.0	45.0	0.366	0,0,0,0,0,0,1,2,3	to_hand	s645
476.492	0.358	0	PA_with_intermediate	3,0,0,2,0,0,1,0,0	test	ward_and_allport	0,0,0,2,3,0,1,0,0	71.0	45.0	0.358	0,0,0,0,0,0,1,2,3	to_board	s645
476.86	0.356	0	PA_with_intermediate	0,0,0,2,0,0,1,0,0	test	ward_and_allport	0,0,0,2,3,0,1,0,0	89.0	45.0	0.356	0,0,0,0,0,0,1,2,3	to_hand	s645
477.217	0.339	0	PA_with_intermediate	0,0,0,2,3,0,1,0,0	test	ward_and_allport	0,0,0,2,3,0,1,0,0	71.0	45.0	0.339	0,0,0,0,0,0,1,2,3	to_board	s645
477.57	1.0	0	PA_with_intermediate	n/a	test	ward_and_allport	n/a	-1.0	45.0	n/a	n/a	feedback	s645
478.57	1.0	0	PA_with_intermediate	n/a	test	ward_and_allport	n/a	-1.0	45.0	n/a	n/a	ITI	s645
479.582	2.341	1	PA_with_intermediate	1,2,0,0,0,0,0,0,0	test	ward_and_allport	1,0,0,2,3,0,0,0,0	89.0	46.0	2.341	1,2,3,0,0,0,0,0,0	to_hand	s645
481.925	0.358	0	PA_with_intermediate	1,2,0,0,0,0,3,0,0	test	ward_and_allport	1,0,0,2,3,0,0,0,0	82.0	46.0	0.358	1,2,3,0,0,0,0,0,0	to_board	s645
482.293	0.313	0	PA_with_intermediate	1,0,0,0,0,0,3,0,0	test	ward_and_allport	1,0,0,2,3,0,0,0,0	89.0	46.0	0.313	1,2,3,0,0,0,0,0,0	to_hand	s645
482.607	0.46	0	PA_with_intermediate	1,0,0,2,0,0,3,0,0	test	ward_and_allport	1,0,0,2,3,0,0,0,0	71.0	46.0	0.46	1,2,3,0,0,0,0,0,0	to_board	s645
483.076	0.343	0	PA_with_intermediate	1,0,0,2,0,0,0,0,0	test	ward_and_allport	1,0,0,2,3,0,0,0,0	82.0	46.0	0.343	1,2,3,0,0,0,0,0,0	to_hand	s645
483.42	0.337	0	PA_with_intermediate	1,0,0,2,3,0,0,0,0	test	ward_and_allport	1,0,0,2,3,0,0,0,0	71.0	46.0	0.337	1,2,3,0,0,0,0,0,0	to_board	s645
483.77	1.0	0	PA_with_intermediate	n/a	test	ward_and_allport	n/a	-1.0	46.0	n/a	n/a	feedback	s645
484.77	1.408	0	PA_with_intermediate	n/a	test	ward_and_allport	n/a	-1.0	46.0	n/a	n/a	ITI	s645
486.187	2.468	1	PA_without_intermediate	1,2,0,0,0,0,0,0,0	test	ward_and_allport	0,0,0,3,1,0,2,0,0	89.0	47.0	2.468	1,2,3,0,0,0,0,0,0	to_hand	s645
488.656	0.376	0	PA_without_intermediate	1,2,0,3,0,0,0,0,0	test	ward_and_allport	0,0,0,3,1,0,2,0,0	71.0	47.0	0.376	1,2,3,0,0,0,0,0,0	to_board	s645
489.042	0.374	0	PA_without_intermediate	1,0,0,3,0,0,0,0,0	test	ward_and_allport	0,0,0,3,1,0,2,0,0	89.0	47.0	0.374	1,2,3,0,0,0,0,0,0	to_hand	s645
489.418	0.44	0	PA_without_intermediate	1,0,0,3,0,0,2,0,0	test	ward_and_allport	0,0,0,3,1,0,2,0,0	82.0	47.0	0.44	1,2,3,0,0,0,0,0,0	to_board	s645
489.868	0.376	0	PA_without_intermediate	0,0,0,3,0,0,2,0,0	test	ward_and_allport	0,0,0,3,1,0,2,0,0	89.0	47.0	0.376	1,2,3,0,0,0,0,0,0	to_hand	s645
490.245	0.366	0	PA_without_intermediate	0,0,0,3,1,0,2,0,0	test	ward_and_allport	0,0,0,3,1,0,2,0,0	71.0	47.0	0.366	1,2,3,0,0,0,0,0,0	to_board	s645
490.625	1.0	0	PA_without_intermediate	n/a	test	ward_and_allport	n/a	-1.0	47.0	n/a	n/a	feedback	s645
491.625	1.816	0	PA_without_intermediate	n/a	test	ward_and_allport	n/a	-1.0	47.0	n/a	n/a	ITI	s645
n/a	n/a	0	n/a	n/a	n/a	n/a	n/a	n/a	n/a	n/a	n/a	ITI	n/a
