onset	duration	condition	correct	correct_response	experiment_exp_id	key_press	response_time	trial_id	trial_type	worker_id
3.009	0.5	AY	n/a	n/a	dot_pattern_expectancy	-1.0	n/a	cue	AY	s553
5.513	0.5	AY	1.0	71.0	dot_pattern_expectancy	71.0	0.735	probe	AY	s553
7.152	0.5	AX	n/a	n/a	dot_pattern_expectancy	-1.0	n/a	cue	AX	s553
9.655	0.5	AX	1.0	89.0	dot_pattern_expectancy	89.0	1.28	probe	AX	s553
11.292	0.5	AX	n/a	n/a	dot_pattern_expectancy	-1.0	n/a	cue	AX	s553
13.796	0.5	AX	0.0	89.0	dot_pattern_expectancy	-1.0	n/a	probe	AX	s553
15.298	0.5	AX	n/a	n/a	dot_pattern_expectancy	-1.0	n/a	cue	AX	s553
17.802	0.5	AX	1.0	89.0	dot_pattern_expectancy	89.0	0.78	probe	AX	s553
19.303	0.5	AX	n/a	n/a	dot_pattern_expectancy	-1.0	n/a	cue	AX	s553
21.808	0.5	AX	1.0	89.0	dot_pattern_expectancy	89.0	0.704	probe	AX	s553
23.718	0.5	BX	n/a	n/a	dot_pattern_expectancy	-1.0	n/a	cue	BX	s553
26.221	0.5	BX	1.0	71.0	dot_pattern_expectancy	71.0	0.564	probe	BX	s553
27.858	0.5	AX	n/a	n/a	dot_pattern_expectancy	-1.0	n/a	cue	AX	s553
30.362	0.5	AX	1.0	89.0	dot_pattern_expectancy	89.0	0.671	probe	AX	s553
32.408	0.5	AX	n/a	n/a	dot_pattern_expectancy	-1.0	n/a	cue	AX	s553
34.912	0.5	AX	1.0	89.0	dot_pattern_expectancy	89.0	0.46	probe	AX	s553
36.687	0.5	AX	n/a	n/a	dot_pattern_expectancy	-1.0	n/a	cue	AX	s553
39.191	0.5	AX	1.0	89.0	dot_pattern_expectancy	89.0	0.795	probe	AX	s553
40.693	0.5	AX	n/a	n/a	dot_pattern_expectancy	-1.0	n/a	cue	AX	s553
43.197	0.5	AX	1.0	89.0	dot_pattern_expectancy	89.0	0.721	probe	AX	s553
45.379	0.5	AX	n/a	n/a	dot_pattern_expectancy	-1.0	n/a	cue	AX	s553
47.884	0.5	AX	1.0	89.0	dot_pattern_expectancy	89.0	0.479	probe	AX	s553
49.387	0.5	BX	n/a	n/a	dot_pattern_expectancy	-1.0	n/a	cue	BX	s553
51.892	0.5	BX	1.0	71.0	dot_pattern_expectancy	71.0	0.855	probe	BX	s553
55.571	0.5	BY	n/a	n/a	dot_pattern_expectancy	-1.0	n/a	cue	BY	s553
58.076	0.5	BY	1.0	71.0	dot_pattern_expectancy	71.0	0.459	probe	BY	s553
59.715	0.5	BY	n/a	n/a	dot_pattern_expectancy	-1.0	n/a	cue	BY	s553
62.219	0.5	BY	1.0	71.0	dot_pattern_expectancy	71.0	0.343	probe	BY	s553
63.858	0.5	BX	n/a	n/a	dot_pattern_expectancy	-1.0	n/a	cue	BX	s553
66.362	0.5	BX	1.0	71.0	dot_pattern_expectancy	71.0	0.377	probe	BX	s553
67.864	0.5	AX	n/a	n/a	dot_pattern_expectancy	-1.0	n/a	cue	AX	s553
70.368	0.5	AX	1.0	89.0	dot_pattern_expectancy	89.0	0.421	probe	AX	s553
72.278	0.5	AX	n/a	n/a	dot_pattern_expectancy	-1.0	n/a	cue	AX	s553
74.783	0.5	AX	1.0	89.0	dot_pattern_expectancy	89.0	0.829	probe	AX	s553
76.42	0.5	BX	n/a	n/a	dot_pattern_expectancy	-1.0	n/a	cue	BX	s553
78.924	0.5	BX	1.0	71.0	dot_pattern_expectancy	71.0	0.485	probe	BX	s553
80.426	0.5	AX	n/a	n/a	dot_pattern_expectancy	-1.0	n/a	cue	AX	s553
82.929	0.5	AX	1.0	89.0	dot_pattern_expectancy	89.0	0.634	probe	AX	s553
84.84	0.5	BY	n/a	n/a	dot_pattern_expectancy	-1.0	n/a	cue	BY	s553
87.343	0.5	BY	1.0	71.0	dot_pattern_expectancy	71.0	0.28	probe	BY	s553
89.526	0.5	AX	n/a	n/a	dot_pattern_expectancy	-1.0	n/a	cue	AX	s553
92.03	0.5	AX	1.0	89.0	dot_pattern_expectancy	89.0	0.573	probe	AX	s553
93.805	0.5	AX	n/a	n/a	dot_pattern_expectancy	-1.0	n/a	cue	AX	s553
96.309	0.5	AX	1.0	89.0	dot_pattern_expectancy	89.0	0.493	probe	AX	s553
97.812	0.5	AX	n/a	n/a	dot_pattern_expectancy	-1.0	n/a	cue	AX	s553
100.317	0.5	AX	1.0	89.0	dot_pattern_expectancy	89.0	0.429	probe	AX	s553
101.818	0.5	AX	n/a	n/a	dot_pattern_expectancy	-1.0	n/a	cue	AX	s553
104.321	0.5	AX	1.0	89.0	dot_pattern_expectancy	89.0	0.448	probe	AX	s553
106.367	0.5	AX	n/a	n/a	dot_pattern_expectancy	-1.0	n/a	cue	AX	s553
108.87	0.5	AX	1.0	89.0	dot_pattern_expectancy	89.0	0.447	probe	AX	s553
111.733	0.5	BX	n/a	n/a	dot_pattern_expectancy	-1.0	n/a	cue	BX	s553
114.237	0.5	BX	1.0	71.0	dot_pattern_expectancy	71.0	0.537	probe	BX	s553
115.739	0.5	BY	n/a	n/a	dot_pattern_expectancy	-1.0	n/a	cue	BY	s553
118.243	0.5	BY	1.0	71.0	dot_pattern_expectancy	71.0	0.235	probe	BY	s553
120.016	0.5	AX	n/a	n/a	dot_pattern_expectancy	-1.0	n/a	cue	AX	s553
122.52	0.5	AX	1.0	89.0	dot_pattern_expectancy	89.0	0.431	probe	AX	s553
124.294	0.5	AX	n/a	n/a	dot_pattern_expectancy	-1.0	n/a	cue	AX	s553
126.798	0.5	AX	0.0	89.0	dot_pattern_expectancy	71.0	0.409	probe	AX	s553
129.659	0.5	AX	n/a	n/a	dot_pattern_expectancy	-1.0	n/a	cue	AX	s553
132.163	0.5	AX	1.0	89.0	dot_pattern_expectancy	89.0	0.573	probe	AX	s553
133.937	0.5	BX	n/a	n/a	dot_pattern_expectancy	-1.0	n/a	cue	BX	s553
136.44	0.5	BX	1.0	71.0	dot_pattern_expectancy	71.0	0.403	probe	BX	s553
138.079	0.5	BX	n/a	n/a	dot_pattern_expectancy	-1.0	n/a	cue	BX	s553
140.582	0.5	BX	1.0	71.0	dot_pattern_expectancy	71.0	0.394	probe	BX	s553
143.036	0.5	AX	n/a	n/a	dot_pattern_expectancy	-1.0	n/a	cue	AX	s553
145.54	0.5	AX	1.0	89.0	dot_pattern_expectancy	89.0	0.457	probe	AX	s553
147.179	0.5	BX	n/a	n/a	dot_pattern_expectancy	-1.0	n/a	cue	BX	s553
149.684	0.5	BX	1.0	71.0	dot_pattern_expectancy	71.0	0.344	probe	BX	s553
151.185	0.5	AX	n/a	n/a	dot_pattern_expectancy	-1.0	n/a	cue	AX	s553
153.689	0.5	AX	1.0	89.0	dot_pattern_expectancy	89.0	1.092	probe	AX	s553
155.328	0.5	AX	n/a	n/a	dot_pattern_expectancy	-1.0	n/a	cue	AX	s553
157.831	0.5	AX	1.0	89.0	dot_pattern_expectancy	89.0	0.415	probe	AX	s553
159.468	0.5	BY	n/a	n/a	dot_pattern_expectancy	-1.0	n/a	cue	BY	s553
161.972	0.5	BY	1.0	71.0	dot_pattern_expectancy	71.0	0.311	probe	BY	s553
164.154	0.5	AX	n/a	n/a	dot_pattern_expectancy	-1.0	n/a	cue	AX	s553
166.658	0.5	AX	1.0	89.0	dot_pattern_expectancy	89.0	0.434	probe	AX	s553
168.159	0.5	AY	n/a	n/a	dot_pattern_expectancy	-1.0	n/a	cue	AY	s553
170.663	0.5	AY	0.0	71.0	dot_pattern_expectancy	-1.0	n/a	probe	AY	s553
172.301	0.5	AX	n/a	n/a	dot_pattern_expectancy	-1.0	n/a	cue	AX	s553
174.805	0.5	AX	1.0	89.0	dot_pattern_expectancy	89.0	0.818	probe	AX	s553
186.951	0.5	AX	n/a	n/a	dot_pattern_expectancy	-1.0	n/a	cue	AX	s553
189.457	0.5	AX	1.0	89.0	dot_pattern_expectancy	89.0	0.733	probe	AX	s553
191.639	0.5	AY	n/a	n/a	dot_pattern_expectancy	-1.0	n/a	cue	AY	s553
194.143	0.5	AY	1.0	71.0	dot_pattern_expectancy	71.0	0.732	probe	AY	s553
196.462	0.5	AY	n/a	n/a	dot_pattern_expectancy	-1.0	n/a	cue	AY	s553
198.965	0.5	AY	1.0	71.0	dot_pattern_expectancy	71.0	0.633	probe	AY	s553
200.603	0.5	BX	n/a	n/a	dot_pattern_expectancy	-1.0	n/a	cue	BX	s553
203.107	0.5	BX	1.0	71.0	dot_pattern_expectancy	71.0	0.377	probe	BX	s553
205.017	0.5	AX	n/a	n/a	dot_pattern_expectancy	-1.0	n/a	cue	AX	s553
207.521	0.5	AX	1.0	89.0	dot_pattern_expectancy	89.0	0.489	probe	AX	s553
211.064	0.5	BX	n/a	n/a	dot_pattern_expectancy	-1.0	n/a	cue	BX	s553
213.566	0.5	BX	1.0	71.0	dot_pattern_expectancy	71.0	0.302	probe	BX	s553
215.204	0.5	BY	n/a	n/a	dot_pattern_expectancy	-1.0	n/a	cue	BY	s553
217.708	0.5	BY	1.0	71.0	dot_pattern_expectancy	71.0	0.281	probe	BY	s553
219.209	0.5	AX	n/a	n/a	dot_pattern_expectancy	-1.0	n/a	cue	AX	s553
221.713	0.5	AX	1.0	89.0	dot_pattern_expectancy	89.0	1.034	probe	AX	s553
223.215	0.5	AX	n/a	n/a	dot_pattern_expectancy	-1.0	n/a	cue	AX	s553
225.719	0.5	AX	1.0	89.0	dot_pattern_expectancy	89.0	0.494	probe	AX	s553
227.492	0.5	BY	n/a	n/a	dot_pattern_expectancy	-1.0	n/a	cue	BY	s553
229.996	0.5	BY	0.0	71.0	dot_pattern_expectancy	-1.0	n/a	probe	BY	s553
232.451	0.5	AX	n/a	n/a	dot_pattern_expectancy	-1.0	n/a	cue	AX	s553
234.954	0.5	AX	1.0	89.0	dot_pattern_expectancy	89.0	1.586	probe	AX	s553
236.863	0.5	BX	n/a	n/a	dot_pattern_expectancy	-1.0	n/a	cue	BX	s553
239.367	0.5	BX	1.0	71.0	dot_pattern_expectancy	71.0	0.433	probe	BX	s553
241.005	0.5	AX	n/a	n/a	dot_pattern_expectancy	-1.0	n/a	cue	AX	s553
243.509	0.5	AX	1.0	89.0	dot_pattern_expectancy	89.0	0.485	probe	AX	s553
245.012	0.5	AX	n/a	n/a	dot_pattern_expectancy	-1.0	n/a	cue	AX	s553
247.514	0.5	AX	1.0	89.0	dot_pattern_expectancy	89.0	0.828	probe	AX	s553
249.151	0.5	AX	n/a	n/a	dot_pattern_expectancy	-1.0	n/a	cue	AX	s553
251.656	0.5	AX	1.0	89.0	dot_pattern_expectancy	89.0	0.485	probe	AX	s553
253.294	0.5	BY	n/a	n/a	dot_pattern_expectancy	-1.0	n/a	cue	BY	s553
255.797	0.5	BY	1.0	71.0	dot_pattern_expectancy	71.0	0.375	probe	BY	s553
258.251	0.5	AX	n/a	n/a	dot_pattern_expectancy	-1.0	n/a	cue	AX	s553
260.755	0.5	AX	1.0	89.0	dot_pattern_expectancy	89.0	0.81	probe	AX	s553
262.256	0.5	BY	n/a	n/a	dot_pattern_expectancy	-1.0	n/a	cue	BY	s553
264.761	0.5	BY	0.0	71.0	dot_pattern_expectancy	-1.0	n/a	probe	BY	s553
266.264	0.5	AX	n/a	n/a	dot_pattern_expectancy	-1.0	n/a	cue	AX	s553
268.768	0.5	AX	1.0	89.0	dot_pattern_expectancy	89.0	0.572	probe	AX	s553
270.406	0.5	AX	n/a	n/a	dot_pattern_expectancy	-1.0	n/a	cue	AX	s553
272.91	0.5	AX	1.0	89.0	dot_pattern_expectancy	89.0	1.344	probe	AX	s553
274.549	0.5	AY	n/a	n/a	dot_pattern_expectancy	-1.0	n/a	cue	AY	s553
277.051	0.5	AY	1.0	71.0	dot_pattern_expectancy	71.0	0.726	probe	AY	s553
278.689	0.5	AX	n/a	n/a	dot_pattern_expectancy	-1.0	n/a	cue	AX	s553
281.193	0.5	AX	1.0	89.0	dot_pattern_expectancy	89.0	0.605	probe	AX	s553
282.695	0.5	AX	n/a	n/a	dot_pattern_expectancy	-1.0	n/a	cue	AX	s553
285.2	0.5	AX	1.0	89.0	dot_pattern_expectancy	89.0	1.027	probe	AX	s553
286.702	0.5	AX	n/a	n/a	dot_pattern_expectancy	-1.0	n/a	cue	AX	s553
289.207	0.5	AX	1.0	89.0	dot_pattern_expectancy	89.0	0.517	probe	AX	s553
290.981	0.5	AX	n/a	n/a	dot_pattern_expectancy	-1.0	n/a	cue	AX	s553
293.485	0.5	AX	1.0	89.0	dot_pattern_expectancy	89.0	0.497	probe	AX	s553
295.668	0.5	BX	n/a	n/a	dot_pattern_expectancy	-1.0	n/a	cue	BX	s553
298.171	0.5	BX	1.0	71.0	dot_pattern_expectancy	71.0	0.219	probe	BX	s553
299.945	0.5	BY	n/a	n/a	dot_pattern_expectancy	-1.0	n/a	cue	BY	s553
302.451	0.5	BY	1.0	71.0	dot_pattern_expectancy	71.0	0.338	probe	BY	s553
303.953	0.5	AX	n/a	n/a	dot_pattern_expectancy	-1.0	n/a	cue	AX	s553
306.458	0.5	AX	1.0	89.0	dot_pattern_expectancy	89.0	0.446	probe	AX	s553
307.959	0.5	AX	n/a	n/a	dot_pattern_expectancy	-1.0	n/a	cue	AX	s553
310.463	0.5	AX	1.0	89.0	dot_pattern_expectancy	89.0	0.705	probe	AX	s553
312.102	0.5	AY	n/a	n/a	dot_pattern_expectancy	-1.0	n/a	cue	AY	s553
314.605	0.5	AY	0.0	71.0	dot_pattern_expectancy	89.0	0.688	probe	AY	s553
316.786	0.5	AY	n/a	n/a	dot_pattern_expectancy	-1.0	n/a	cue	AY	s553
319.29	0.5	AY	1.0	71.0	dot_pattern_expectancy	71.0	0.873	probe	AY	s553
321.608	0.5	BX	n/a	n/a	dot_pattern_expectancy	-1.0	n/a	cue	BX	s553
324.112	0.5	BX	1.0	71.0	dot_pattern_expectancy	71.0	0.318	probe	BX	s553
325.75	0.5	BX	n/a	n/a	dot_pattern_expectancy	-1.0	n/a	cue	BX	s553
328.253	0.5	BX	1.0	71.0	dot_pattern_expectancy	71.0	0.31	probe	BX	s553
330.435	0.5	AY	n/a	n/a	dot_pattern_expectancy	-1.0	n/a	cue	AY	s553
332.939	0.5	AY	1.0	71.0	dot_pattern_expectancy	71.0	0.95	probe	AY	s553
334.984	0.5	AX	n/a	n/a	dot_pattern_expectancy	-1.0	n/a	cue	AX	s553
337.488	0.5	AX	1.0	89.0	dot_pattern_expectancy	89.0	1.012	probe	AX	s553
339.262	0.5	AX	n/a	n/a	dot_pattern_expectancy	-1.0	n/a	cue	AX	s553
341.766	0.5	AX	1.0	89.0	dot_pattern_expectancy	89.0	0.969	probe	AX	s553
343.267	0.5	AX	n/a	n/a	dot_pattern_expectancy	-1.0	n/a	cue	AX	s553
345.771	0.5	AX	1.0	89.0	dot_pattern_expectancy	89.0	1.173	probe	AX	s553
347.953	0.5	AY	n/a	n/a	dot_pattern_expectancy	-1.0	n/a	cue	AY	s553
350.456	0.5	AY	1.0	71.0	dot_pattern_expectancy	71.0	0.832	probe	AY	s553
352.91	0.5	AX	n/a	n/a	dot_pattern_expectancy	-1.0	n/a	cue	AX	s553
355.415	0.5	AX	1.0	89.0	dot_pattern_expectancy	89.0	0.52	probe	AX	s553
357.053	0.5	AX	n/a	n/a	dot_pattern_expectancy	-1.0	n/a	cue	AX	s553
359.558	0.5	AX	1.0	89.0	dot_pattern_expectancy	89.0	0.788	probe	AX	s553
371.976	0.5	AX	n/a	n/a	dot_pattern_expectancy	-1.0	n/a	cue	AX	s553
374.48	0.5	AX	1.0	89.0	dot_pattern_expectancy	89.0	1.058	probe	AX	s553
376.254	0.5	AX	n/a	n/a	dot_pattern_expectancy	-1.0	n/a	cue	AX	s553
378.759	0.5	AX	1.0	89.0	dot_pattern_expectancy	89.0	0.674	probe	AX	s553
380.26	0.5	AY	n/a	n/a	dot_pattern_expectancy	-1.0	n/a	cue	AY	s553
382.764	0.5	AY	1.0	71.0	dot_pattern_expectancy	71.0	0.54	probe	AY	s553
385.219	0.5	AY	n/a	n/a	dot_pattern_expectancy	-1.0	n/a	cue	AY	s553
387.723	0.5	AY	1.0	71.0	dot_pattern_expectancy	71.0	0.768	probe	AY	s553
389.497	0.5	AX	n/a	n/a	dot_pattern_expectancy	-1.0	n/a	cue	AX	s553
392.001	0.5	AX	1.0	89.0	dot_pattern_expectancy	89.0	0.997	probe	AX	s553
393.911	0.5	AX	n/a	n/a	dot_pattern_expectancy	-1.0	n/a	cue	AX	s553
396.415	0.5	AX	1.0	89.0	dot_pattern_expectancy	89.0	0.672	probe	AX	s553
398.325	0.5	AX	n/a	n/a	dot_pattern_expectancy	-1.0	n/a	cue	AX	s553
400.829	0.5	AX	1.0	89.0	dot_pattern_expectancy	89.0	0.804	probe	AX	s553
403.419	0.5	AY	n/a	n/a	dot_pattern_expectancy	-1.0	n/a	cue	AY	s553
405.923	0.5	AY	1.0	71.0	dot_pattern_expectancy	71.0	1.298	probe	AY	s553
407.424	0.5	BY	n/a	n/a	dot_pattern_expectancy	-1.0	n/a	cue	BY	s553
409.928	0.5	BY	1.0	71.0	dot_pattern_expectancy	71.0	0.324	probe	BY	s553
411.429	0.5	BY	n/a	n/a	dot_pattern_expectancy	-1.0	n/a	cue	BY	s553
413.934	0.5	BY	1.0	71.0	dot_pattern_expectancy	71.0	0.557	probe	BY	s553
415.435	0.5	AX	n/a	n/a	dot_pattern_expectancy	-1.0	n/a	cue	AX	s553
417.939	0.5	AX	0.0	89.0	dot_pattern_expectancy	71.0	0.803	probe	AX	s553
419.578	0.5	BX	n/a	n/a	dot_pattern_expectancy	-1.0	n/a	cue	BX	s553
422.081	0.5	BX	1.0	71.0	dot_pattern_expectancy	71.0	0.513	probe	BX	s553
424.128	0.5	AX	n/a	n/a	dot_pattern_expectancy	-1.0	n/a	cue	AX	s553
426.631	0.5	AX	1.0	89.0	dot_pattern_expectancy	89.0	1.256	probe	AX	s553
428.406	0.5	BX	n/a	n/a	dot_pattern_expectancy	-1.0	n/a	cue	BX	s553
430.91	0.5	BX	1.0	71.0	dot_pattern_expectancy	71.0	0.313	probe	BX	s553
433.499	0.5	AY	n/a	n/a	dot_pattern_expectancy	-1.0	n/a	cue	AY	s553
436.004	0.5	AY	0.0	71.0	dot_pattern_expectancy	-1.0	n/a	probe	AY	s553
437.505	0.5	AX	n/a	n/a	dot_pattern_expectancy	-1.0	n/a	cue	AX	s553
440.01	0.5	AX	1.0	89.0	dot_pattern_expectancy	89.0	0.66	probe	AX	s553
442.464	0.5	BY	n/a	n/a	dot_pattern_expectancy	-1.0	n/a	cue	BY	s553
444.967	0.5	BY	1.0	71.0	dot_pattern_expectancy	71.0	0.334	probe	BY	s553
446.604	0.5	AX	n/a	n/a	dot_pattern_expectancy	-1.0	n/a	cue	AX	s553
449.107	0.5	AX	1.0	89.0	dot_pattern_expectancy	89.0	0.598	probe	AX	s553
450.746	0.5	AX	n/a	n/a	dot_pattern_expectancy	-1.0	n/a	cue	AX	s553
453.25	0.5	AX	1.0	89.0	dot_pattern_expectancy	89.0	1.011	probe	AX	s553
454.752	0.5	BY	n/a	n/a	dot_pattern_expectancy	-1.0	n/a	cue	BY	s553
457.255	0.5	BY	1.0	71.0	dot_pattern_expectancy	71.0	0.297	probe	BY	s553
458.893	0.5	AX	n/a	n/a	dot_pattern_expectancy	-1.0	n/a	cue	AX	s553
461.396	0.5	AX	1.0	89.0	dot_pattern_expectancy	89.0	0.747	probe	AX	s553
462.898	0.5	AY	n/a	n/a	dot_pattern_expectancy	-1.0	n/a	cue	AY	s553
465.402	0.5	AY	1.0	71.0	dot_pattern_expectancy	71.0	1.351	probe	AY	s553
467.585	0.5	AX	n/a	n/a	dot_pattern_expectancy	-1.0	n/a	cue	AX	s553
470.088	0.5	AX	1.0	89.0	dot_pattern_expectancy	89.0	0.711	probe	AX	s553
471.591	0.5	AX	n/a	n/a	dot_pattern_expectancy	-1.0	n/a	cue	AX	s553
474.094	0.5	AX	1.0	89.0	dot_pattern_expectancy	89.0	0.833	probe	AX	s553
476.005	0.5	BY	n/a	n/a	dot_pattern_expectancy	-1.0	n/a	cue	BY	s553
478.509	0.5	BY	1.0	71.0	dot_pattern_expectancy	71.0	0.353	probe	BY	s553
480.147	0.5	BY	n/a	n/a	dot_pattern_expectancy	-1.0	n/a	cue	BY	s553
482.651	0.5	BY	1.0	71.0	dot_pattern_expectancy	71.0	0.405	probe	BY	s553
484.29	0.5	AX	n/a	n/a	dot_pattern_expectancy	-1.0	n/a	cue	AX	s553
486.794	0.5	AX	1.0	89.0	dot_pattern_expectancy	89.0	0.942	probe	AX	s553
488.432	0.5	AX	n/a	n/a	dot_pattern_expectancy	-1.0	n/a	cue	AX	s553
490.936	0.5	AX	1.0	89.0	dot_pattern_expectancy	89.0	0.972	probe	AX	s553
492.438	0.5	BY	n/a	n/a	dot_pattern_expectancy	-1.0	n/a	cue	BY	s553
494.943	0.5	BY	1.0	71.0	dot_pattern_expectancy	71.0	1.346	probe	BY	s553
496.989	0.5	AY	n/a	n/a	dot_pattern_expectancy	-1.0	n/a	cue	AY	s553
499.491	0.5	AY	1.0	71.0	dot_pattern_expectancy	71.0	1.648	probe	AY	s553
501.673	0.5	AY	n/a	n/a	dot_pattern_expectancy	-1.0	n/a	cue	AY	s553
504.176	0.5	AY	1.0	71.0	dot_pattern_expectancy	71.0	0.927	probe	AY	s553
505.814	0.5	AY	n/a	n/a	dot_pattern_expectancy	-1.0	n/a	cue	AY	s553
508.319	0.5	AY	1.0	71.0	dot_pattern_expectancy	71.0	0.983	probe	AY	s553
510.093	0.5	BY	n/a	n/a	dot_pattern_expectancy	-1.0	n/a	cue	BY	s553
512.597	0.5	BY	1.0	71.0	dot_pattern_expectancy	71.0	0.542	probe	BY	s553
514.099	0.5	BX	n/a	n/a	dot_pattern_expectancy	-1.0	n/a	cue	BX	s553
516.604	0.5	BX	1.0	71.0	dot_pattern_expectancy	71.0	1.169	probe	BX	s553
518.514	0.5	AX	n/a	n/a	dot_pattern_expectancy	-1.0	n/a	cue	AX	s553
521.018	0.5	AX	1.0	89.0	dot_pattern_expectancy	89.0	0.603	probe	AX	s553
523.064	0.5	AX	n/a	n/a	dot_pattern_expectancy	-1.0	n/a	cue	AX	s553
525.567	0.5	AX	1.0	89.0	dot_pattern_expectancy	89.0	0.743	probe	AX	s553
527.204	0.5	AX	n/a	n/a	dot_pattern_expectancy	-1.0	n/a	cue	AX	s553
529.708	0.5	AX	1.0	89.0	dot_pattern_expectancy	89.0	0.697	probe	AX	s553
531.482	0.5	AX	n/a	n/a	dot_pattern_expectancy	-1.0	n/a	cue	AX	s553
533.986	0.5	AX	1.0	89.0	dot_pattern_expectancy	89.0	0.721	probe	AX	s553
535.624	0.5	BX	n/a	n/a	dot_pattern_expectancy	-1.0	n/a	cue	BX	s553
538.128	0.5	BX	1.0	71.0	dot_pattern_expectancy	71.0	0.357	probe	BX	s553
539.902	0.5	AX	n/a	n/a	dot_pattern_expectancy	-1.0	n/a	cue	AX	s553
542.407	0.5	AX	1.0	89.0	dot_pattern_expectancy	89.0	0.475	probe	AX	s553
554.416	0.5	BY	n/a	n/a	dot_pattern_expectancy	-1.0	n/a	cue	BY	s553
556.919	0.5	BY	1.0	71.0	dot_pattern_expectancy	71.0	1.22	probe	BY	s553
558.557	0.5	AY	n/a	n/a	dot_pattern_expectancy	-1.0	n/a	cue	AY	s553
561.062	0.5	AY	1.0	71.0	dot_pattern_expectancy	71.0	0.545	probe	AY	s553
562.563	0.5	AX	n/a	n/a	dot_pattern_expectancy	-1.0	n/a	cue	AX	s553
565.068	0.5	AX	1.0	89.0	dot_pattern_expectancy	89.0	0.654	probe	AX	s553
567.115	0.5	BY	n/a	n/a	dot_pattern_expectancy	-1.0	n/a	cue	BY	s553
569.619	0.5	BY	1.0	71.0	dot_pattern_expectancy	71.0	0.33	probe	BY	s553
571.393	0.5	BX	n/a	n/a	dot_pattern_expectancy	-1.0	n/a	cue	BX	s553
573.896	0.5	BX	1.0	71.0	dot_pattern_expectancy	71.0	0.35	probe	BX	s553
575.535	0.5	AX	n/a	n/a	dot_pattern_expectancy	-1.0	n/a	cue	AX	s553
578.038	0.5	AX	1.0	89.0	dot_pattern_expectancy	89.0	0.92	probe	AX	s553
579.676	0.5	AX	n/a	n/a	dot_pattern_expectancy	-1.0	n/a	cue	AX	s553
582.18	0.5	AX	1.0	89.0	dot_pattern_expectancy	89.0	0.627	probe	AX	s553
583.681	0.5	AX	n/a	n/a	dot_pattern_expectancy	-1.0	n/a	cue	AX	s553
586.184	0.5	AX	1.0	89.0	dot_pattern_expectancy	89.0	0.565	probe	AX	s553
587.687	0.5	AY	n/a	n/a	dot_pattern_expectancy	-1.0	n/a	cue	AY	s553
590.19	0.5	AY	1.0	71.0	dot_pattern_expectancy	71.0	0.553	probe	AY	s553
592.236	0.5	AX	n/a	n/a	dot_pattern_expectancy	-1.0	n/a	cue	AX	s553
594.74	0.5	AX	1.0	89.0	dot_pattern_expectancy	89.0	0.921	probe	AX	s553
597.195	0.5	AX	n/a	n/a	dot_pattern_expectancy	-1.0	n/a	cue	AX	s553
599.697	0.5	AX	1.0	89.0	dot_pattern_expectancy	89.0	1.137	probe	AX	s553
601.607	0.5	AX	n/a	n/a	dot_pattern_expectancy	-1.0	n/a	cue	AX	s553
604.111	0.5	AX	1.0	89.0	dot_pattern_expectancy	89.0	0.762	probe	AX	s553
605.613	0.5	AX	n/a	n/a	dot_pattern_expectancy	-1.0	n/a	cue	AX	s553
608.117	0.5	AX	1.0	89.0	dot_pattern_expectancy	89.0	1.722	probe	AX	s553
610.026	0.5	BX	n/a	n/a	dot_pattern_expectancy	-1.0	n/a	cue	BX	s553
612.53	0.5	BX	1.0	71.0	dot_pattern_expectancy	71.0	0.524	probe	BX	s553
614.711	0.5	AX	n/a	n/a	dot_pattern_expectancy	-1.0	n/a	cue	AX	s553
617.215	0.5	AX	1.0	89.0	dot_pattern_expectancy	89.0	1.079	probe	AX	s553
618.717	0.5	BY	n/a	n/a	dot_pattern_expectancy	-1.0	n/a	cue	BY	s553
621.221	0.5	BY	0.0	71.0	dot_pattern_expectancy	-1.0	n/a	probe	BY	s553
623.132	0.5	BX	n/a	n/a	dot_pattern_expectancy	-1.0	n/a	cue	BX	s553
625.635	0.5	BX	0.0	71.0	dot_pattern_expectancy	-1.0	n/a	probe	BX	s553
627.954	0.5	AY	n/a	n/a	dot_pattern_expectancy	-1.0	n/a	cue	AY	s553
630.458	0.5	AY	1.0	71.0	dot_pattern_expectancy	71.0	0.764	probe	AY	s553
632.776	0.5	BX	n/a	n/a	dot_pattern_expectancy	-1.0	n/a	cue	BX	s553
635.281	0.5	BX	1.0	71.0	dot_pattern_expectancy	71.0	0.557	probe	BX	s553
636.92	0.5	AY	n/a	n/a	dot_pattern_expectancy	-1.0	n/a	cue	AY	s553
639.424	0.5	AY	0.0	71.0	dot_pattern_expectancy	-1.0	n/a	probe	AY	s553
640.926	0.5	BY	n/a	n/a	dot_pattern_expectancy	-1.0	n/a	cue	BY	s553
643.43	0.5	BY	0.0	71.0	dot_pattern_expectancy	-1.0	n/a	probe	BY	s553
645.34	0.5	AX	n/a	n/a	dot_pattern_expectancy	-1.0	n/a	cue	AX	s553
647.844	0.5	AX	1.0	89.0	dot_pattern_expectancy	89.0	0.977	probe	AX	s553
649.347	0.5	AY	n/a	n/a	dot_pattern_expectancy	-1.0	n/a	cue	AY	s553
651.851	0.5	AY	1.0	71.0	dot_pattern_expectancy	71.0	1.154	probe	AY	s553
654.169	0.5	AX	n/a	n/a	dot_pattern_expectancy	-1.0	n/a	cue	AX	s553
656.673	0.5	AX	0.0	89.0	dot_pattern_expectancy	71.0	0.943	probe	AX	s553
658.174	0.5	AY	n/a	n/a	dot_pattern_expectancy	-1.0	n/a	cue	AY	s553
660.678	0.5	AY	1.0	71.0	dot_pattern_expectancy	71.0	1.881	probe	AY	s553
663.405	0.5	AX	n/a	n/a	dot_pattern_expectancy	-1.0	n/a	cue	AX	s553
665.909	0.5	AX	1.0	89.0	dot_pattern_expectancy	89.0	0.954	probe	AX	s553
667.411	0.5	AX	n/a	n/a	dot_pattern_expectancy	-1.0	n/a	cue	AX	s553
669.916	0.5	AX	1.0	89.0	dot_pattern_expectancy	89.0	0.984	probe	AX	s553
671.554	0.5	AX	n/a	n/a	dot_pattern_expectancy	-1.0	n/a	cue	AX	s553
674.058	0.5	AX	1.0	89.0	dot_pattern_expectancy	89.0	0.968	probe	AX	s553
675.695	0.5	AX	n/a	n/a	dot_pattern_expectancy	-1.0	n/a	cue	AX	s553
678.199	0.5	AX	1.0	89.0	dot_pattern_expectancy	89.0	0.824	probe	AX	s553
679.973	0.5	BY	n/a	n/a	dot_pattern_expectancy	-1.0	n/a	cue	BY	s553
682.477	0.5	BY	1.0	71.0	dot_pattern_expectancy	71.0	0.661	probe	BY	s553
684.25	0.5	AX	n/a	n/a	dot_pattern_expectancy	-1.0	n/a	cue	AX	s553
686.754	0.5	AX	0.0	89.0	dot_pattern_expectancy	71.0	0.938	probe	AX	s553
688.255	0.5	BY	n/a	n/a	dot_pattern_expectancy	-1.0	n/a	cue	BY	s553
690.76	0.5	BY	1.0	71.0	dot_pattern_expectancy	71.0	0.552	probe	BY	s553
693.214	0.5	AX	n/a	n/a	dot_pattern_expectancy	-1.0	n/a	cue	AX	s553
695.717	0.5	AX	0.0	89.0	dot_pattern_expectancy	-1.0	n/a	probe	AX	s553
697.354	0.5	AX	n/a	n/a	dot_pattern_expectancy	-1.0	n/a	cue	AX	s553
699.859	0.5	AX	1.0	89.0	dot_pattern_expectancy	89.0	0.786	probe	AX	s553
701.497	0.5	BX	n/a	n/a	dot_pattern_expectancy	-1.0	n/a	cue	BX	s553
704.001	0.5	BX	1.0	71.0	dot_pattern_expectancy	71.0	0.429	probe	BX	s553
705.504	0.5	BX	n/a	n/a	dot_pattern_expectancy	-1.0	n/a	cue	BX	s553
708.008	0.5	BX	1.0	71.0	dot_pattern_expectancy	71.0	0.595	probe	BX	s553
709.51	0.5	AX	n/a	n/a	dot_pattern_expectancy	-1.0	n/a	cue	AX	s553
712.015	0.5	AX	0.0	89.0	dot_pattern_expectancy	71.0	1.093	probe	AX	s553
714.333	0.5	AY	n/a	n/a	dot_pattern_expectancy	-1.0	n/a	cue	AY	s553
716.837	0.5	AY	1.0	71.0	dot_pattern_expectancy	71.0	1.313	probe	AY	s553
718.883	0.5	AX	n/a	n/a	dot_pattern_expectancy	-1.0	n/a	cue	AX	s553
721.388	0.5	AX	1.0	89.0	dot_pattern_expectancy	89.0	0.875	probe	AX	s553
725.339	0.5	AX	n/a	n/a	dot_pattern_expectancy	-1.0	n/a	cue	AX	s553
727.843	0.5	AX	1.0	89.0	dot_pattern_expectancy	89.0	0.84	probe	AX	s553
