onset	duration	planning	condition	current_position	exp_stage	experiment_exp_id	goal_state	key_press	problem_id	response_time	start_state	trial_id	worker_id
-72.874	0.0	0	n/a	n/a	n/a	ward_and_allport	n/a	32.0	n/a	25.693	n/a	instructions	s549
3.007	6.332	1	UA_with_intermediate	1,0,0,2,0,0,0,0,0	practice	ward_and_allport	1,2,3,0,0,0,0,0,0	71.0	0.0	6.332	1,0,0,2,3,0,0,0,0	to_hand	s549
9.34	1.377	0	UA_with_intermediate	1,0,0,2,0,0,3,0,0	practice	ward_and_allport	1,2,3,0,0,0,0,0,0	82.0	0.0	1.377	1,0,0,2,3,0,0,0,0	to_board	s549
10.72	0.773	0	UA_with_intermediate	1,0,0,0,0,0,3,0,0	practice	ward_and_allport	1,2,3,0,0,0,0,0,0	71.0	0.0	0.773	1,0,0,2,3,0,0,0,0	to_hand	s549
11.494	0.726	0	UA_with_intermediate	1,2,0,0,0,0,3,0,0	practice	ward_and_allport	1,2,3,0,0,0,0,0,0	89.0	0.0	0.726	1,0,0,2,3,0,0,0,0	to_board	s549
12.221	1.336	0	UA_with_intermediate	1,2,0,0,0,0,0,0,0	practice	ward_and_allport	1,2,3,0,0,0,0,0,0	82.0	0.0	1.336	1,0,0,2,3,0,0,0,0	to_hand	s549
13.559	0.798	0	UA_with_intermediate	1,2,3,0,0,0,0,0,0	practice	ward_and_allport	1,2,3,0,0,0,0,0,0	89.0	0.0	0.798	1,0,0,2,3,0,0,0,0	to_board	s549
14.36	1.0	0	UA_with_intermediate	n/a	practice	ward_and_allport	n/a	-1.0	0.0	n/a	n/a	feedback	s549
16.862	2.663	1	UA_with_intermediate	1,0,0,3,0,0,0,0,0	practice	ward_and_allport	1,3,2,0,0,0,0,0,0	89.0	1.0	2.663	1,2,0,3,0,0,0,0,0	to_hand	s549
19.526	0.743	0	UA_with_intermediate	1,0,0,3,0,0,2,0,0	practice	ward_and_allport	1,3,2,0,0,0,0,0,0	82.0	1.0	0.743	1,2,0,3,0,0,0,0,0	to_board	s549
20.271	0.653	0	UA_with_intermediate	1,0,0,0,0,0,2,0,0	practice	ward_and_allport	1,3,2,0,0,0,0,0,0	71.0	1.0	0.653	1,2,0,3,0,0,0,0,0	to_hand	s549
20.924	0.601	0	UA_with_intermediate	1,3,0,0,0,0,2,0,0	practice	ward_and_allport	1,3,2,0,0,0,0,0,0	89.0	1.0	0.601	1,2,0,3,0,0,0,0,0	to_board	s549
21.527	1.141	0	UA_with_intermediate	1,3,0,0,0,0,0,0,0	practice	ward_and_allport	1,3,2,0,0,0,0,0,0	82.0	1.0	1.141	1,2,0,3,0,0,0,0,0	to_hand	s549
22.669	1.007	0	UA_with_intermediate	1,3,2,0,0,0,0,0,0	practice	ward_and_allport	1,3,2,0,0,0,0,0,0	89.0	1.0	1.007	1,2,0,3,0,0,0,0,0	to_board	s549
23.679	1.0	0	UA_with_intermediate	n/a	practice	ward_and_allport	n/a	-1.0	1.0	n/a	n/a	feedback	s549
24.679	1.1	0	UA_with_intermediate	n/a	practice	ward_and_allport	n/a	-1.0	1.0	n/a	n/a	ITI	s549
25.781	4.492	1	UA_without_intermediate	0,0,0,1,0,0,3,0,0	practice	ward_and_allport	3,2,1,0,0,0,0,0,0	71.0	2.0	4.492	0,0,0,1,2,0,3,0,0	to_hand	s549
30.273	1.342	0	UA_without_intermediate	0,0,0,1,2,0,3,0,0	practice	ward_and_allport	3,2,1,0,0,0,0,0,0	71.0	2.0	1.342	0,0,0,1,2,0,3,0,0	to_board	s549
31.616	1.047	0	UA_without_intermediate	0,0,0,1,2,0,0,0,0	practice	ward_and_allport	3,2,1,0,0,0,0,0,0	82.0	2.0	1.047	0,0,0,1,2,0,3,0,0	to_hand	s549
32.663	0.859	0	UA_without_intermediate	3,0,0,1,2,0,0,0,0	practice	ward_and_allport	3,2,1,0,0,0,0,0,0	89.0	2.0	0.859	0,0,0,1,2,0,3,0,0	to_board	s549
33.526	1.221	0	UA_without_intermediate	3,0,0,1,0,0,0,0,0	practice	ward_and_allport	3,2,1,0,0,0,0,0,0	71.0	2.0	1.221	0,0,0,1,2,0,3,0,0	to_hand	s549
34.747	0.626	0	UA_without_intermediate	3,2,0,1,0,0,0,0,0	practice	ward_and_allport	3,2,1,0,0,0,0,0,0	89.0	2.0	0.626	0,0,0,1,2,0,3,0,0	to_board	s549
35.376	0.976	0	UA_without_intermediate	3,2,0,0,0,0,0,0,0	practice	ward_and_allport	3,2,1,0,0,0,0,0,0	71.0	2.0	0.976	0,0,0,1,2,0,3,0,0	to_hand	s549
36.352	0.45	0	UA_without_intermediate	3,2,1,0,0,0,0,0,0	practice	ward_and_allport	3,2,1,0,0,0,0,0,0	89.0	2.0	0.45	0,0,0,1,2,0,3,0,0	to_board	s549
36.805	1.0	0	UA_without_intermediate	n/a	practice	ward_and_allport	n/a	-1.0	2.0	n/a	n/a	feedback	s549
37.805	1.2	0	UA_without_intermediate	n/a	practice	ward_and_allport	n/a	-1.0	2.0	n/a	n/a	ITI	s549
39.006	2.886	1	UA_without_intermediate	0,0,0,1,0,0,3,0,0	practice	ward_and_allport	2,3,1,0,0,0,0,0,0	71.0	3.0	2.886	0,0,0,1,2,0,3,0,0	to_hand	s549
41.893	0.435	0	UA_without_intermediate	2,0,0,1,0,0,3,0,0	practice	ward_and_allport	2,3,1,0,0,0,0,0,0	89.0	3.0	0.435	0,0,0,1,2,0,3,0,0	to_board	s549
42.331	1.553	0	UA_without_intermediate	2,0,0,1,0,0,0,0,0	practice	ward_and_allport	2,3,1,0,0,0,0,0,0	82.0	3.0	1.553	0,0,0,1,2,0,3,0,0	to_hand	s549
43.884	0.993	0	UA_without_intermediate	2,3,0,1,0,0,0,0,0	practice	ward_and_allport	2,3,1,0,0,0,0,0,0	89.0	3.0	0.993	0,0,0,1,2,0,3,0,0	to_board	s549
44.879	0.581	0	UA_without_intermediate	2,3,0,0,0,0,0,0,0	practice	ward_and_allport	2,3,1,0,0,0,0,0,0	71.0	3.0	0.581	0,0,0,1,2,0,3,0,0	to_hand	s549
45.462	0.651	0	UA_without_intermediate	2,3,1,0,0,0,0,0,0	practice	ward_and_allport	2,3,1,0,0,0,0,0,0	89.0	3.0	0.651	0,0,0,1,2,0,3,0,0	to_board	s549
46.117	1.0	0	UA_without_intermediate	n/a	practice	ward_and_allport	n/a	-1.0	3.0	n/a	n/a	feedback	s549
47.117	1.0	0	UA_without_intermediate	n/a	practice	ward_and_allport	n/a	-1.0	3.0	n/a	n/a	ITI	s549
50.121	2.936	1	PA_with_intermediate	1,2,0,0,0,0,0,0,0	test	ward_and_allport	1,0,0,2,3,0,0,0,0	89.0	0.0	2.936	1,2,3,0,0,0,0,0,0	to_hand	s549
53.058	4.3	0	PA_with_intermediate	1,2,0,3,0,0,0,0,0	test	ward_and_allport	1,0,0,2,3,0,0,0,0	71.0	0.0	4.3	1,2,3,0,0,0,0,0,0	to_board	s549
57.359	1.3	0	PA_with_intermediate	1,2,0,0,0,0,0,0,0	test	ward_and_allport	1,0,0,2,3,0,0,0,0	71.0	0.0	1.3	1,2,3,0,0,0,0,0,0	to_hand	s549
58.659	0.656	0	PA_with_intermediate	1,2,0,0,0,0,3,0,0	test	ward_and_allport	1,0,0,2,3,0,0,0,0	82.0	0.0	0.656	1,2,3,0,0,0,0,0,0	to_board	s549
59.316	0.663	0	PA_with_intermediate	1,0,0,0,0,0,3,0,0	test	ward_and_allport	1,0,0,2,3,0,0,0,0	89.0	0.0	0.663	1,2,3,0,0,0,0,0,0	to_hand	s549
59.98	0.47	0	PA_with_intermediate	1,0,0,2,0,0,3,0,0	test	ward_and_allport	1,0,0,2,3,0,0,0,0	71.0	0.0	0.47	1,2,3,0,0,0,0,0,0	to_board	s549
60.452	3.231	0	PA_with_intermediate	1,0,0,0,0,0,3,0,0	test	ward_and_allport	1,0,0,2,3,0,0,0,0	71.0	0.0	3.231	1,2,3,0,0,0,0,0,0	to_hand	s549
63.684	0.905	0	PA_with_intermediate	1,0,0,2,0,0,3,0,0	test	ward_and_allport	1,0,0,2,3,0,0,0,0	71.0	0.0	0.905	1,2,3,0,0,0,0,0,0	to_board	s549
64.59	0.654	0	PA_with_intermediate	1,0,0,2,0,0,0,0,0	test	ward_and_allport	1,0,0,2,3,0,0,0,0	82.0	0.0	0.654	1,2,3,0,0,0,0,0,0	to_hand	s549
65.245	0.484	0	PA_with_intermediate	1,0,0,2,3,0,0,0,0	test	ward_and_allport	1,0,0,2,3,0,0,0,0	71.0	0.0	0.484	1,2,3,0,0,0,0,0,0	to_board	s549
65.733	1.0	0	PA_with_intermediate	n/a	test	ward_and_allport	n/a	-1.0	0.0	n/a	n/a	feedback	s549
66.733	1.408	0	PA_with_intermediate	n/a	test	ward_and_allport	n/a	-1.0	0.0	n/a	n/a	ITI	s549
68.143	6.187	1	PA_without_intermediate	0,0,0,1,2,0,0,0,0	test	ward_and_allport	3,1,0,0,0,0,2,0,0	71.0	1.0	6.187	0,0,0,1,2,3,0,0,0	to_hand	s549
74.332	0.958	0	PA_without_intermediate	3,0,0,1,2,0,0,0,0	test	ward_and_allport	3,1,0,0,0,0,2,0,0	89.0	1.0	0.958	0,0,0,1,2,3,0,0,0	to_board	s549
75.291	0.759	0	PA_without_intermediate	3,0,0,1,0,0,0,0,0	test	ward_and_allport	3,1,0,0,0,0,2,0,0	71.0	1.0	0.759	0,0,0,1,2,3,0,0,0	to_hand	s549
76.051	0.83	0	PA_without_intermediate	3,0,0,1,0,0,2,0,0	test	ward_and_allport	3,1,0,0,0,0,2,0,0	82.0	1.0	0.83	0,0,0,1,2,3,0,0,0	to_board	s549
76.884	0.599	0	PA_without_intermediate	3,0,0,0,0,0,2,0,0	test	ward_and_allport	3,1,0,0,0,0,2,0,0	71.0	1.0	0.599	0,0,0,1,2,3,0,0,0	to_hand	s549
77.484	0.534	0	PA_without_intermediate	3,1,0,0,0,0,2,0,0	test	ward_and_allport	3,1,0,0,0,0,2,0,0	89.0	1.0	0.534	0,0,0,1,2,3,0,0,0	to_board	s549
78.022	1.0	0	PA_without_intermediate	n/a	test	ward_and_allport	n/a	-1.0	1.0	n/a	n/a	feedback	s549
79.022	1.68	0	PA_without_intermediate	n/a	test	ward_and_allport	n/a	-1.0	1.0	n/a	n/a	ITI	s549
80.705	6.264	1	PA_with_intermediate	0,0,0,0,0,0,1,2,0	test	ward_and_allport	0,0,0,2,0,0,1,3,0	82.0	2.0	6.264	0,0,0,0,0,0,1,2,3	to_hand	s549
86.97	1.648	0	PA_with_intermediate	3,0,0,0,0,0,1,2,0	test	ward_and_allport	0,0,0,2,0,0,1,3,0	89.0	2.0	1.648	0,0,0,0,0,0,1,2,3	to_board	s549
88.62	1.67	0	PA_with_intermediate	3,0,0,0,0,0,1,0,0	test	ward_and_allport	0,0,0,2,0,0,1,3,0	82.0	2.0	1.67	0,0,0,0,0,0,1,2,3	to_hand	s549
90.291	0.688	0	PA_with_intermediate	3,0,0,2,0,0,1,0,0	test	ward_and_allport	0,0,0,2,0,0,1,3,0	71.0	2.0	0.688	0,0,0,0,0,0,1,2,3	to_board	s549
90.981	1.575	0	PA_with_intermediate	0,0,0,2,0,0,1,0,0	test	ward_and_allport	0,0,0,2,0,0,1,3,0	89.0	2.0	1.575	0,0,0,0,0,0,1,2,3	to_hand	s549
92.557	0.996	0	PA_with_intermediate	0,0,0,2,0,0,1,3,0	test	ward_and_allport	0,0,0,2,0,0,1,3,0	82.0	2.0	0.996	0,0,0,0,0,0,1,2,3	to_board	s549
93.557	1.0	0	PA_with_intermediate	n/a	test	ward_and_allport	n/a	-1.0	2.0	n/a	n/a	feedback	s549
94.557	3.72	0	PA_with_intermediate	n/a	test	ward_and_allport	n/a	-1.0	2.0	n/a	n/a	ITI	s549
98.279	3.042	1	PA_without_intermediate	0,0,0,1,2,0,0,0,0	test	ward_and_allport	3,2,0,0,0,0,1,0,0	71.0	3.0	3.042	0,0,0,1,2,3,0,0,0	to_hand	s549
101.322	0.974	0	PA_without_intermediate	3,0,0,1,2,0,0,0,0	test	ward_and_allport	3,2,0,0,0,0,1,0,0	89.0	3.0	0.974	0,0,0,1,2,3,0,0,0	to_board	s549
102.298	0.528	0	PA_without_intermediate	3,0,0,1,0,0,0,0,0	test	ward_and_allport	3,2,0,0,0,0,1,0,0	71.0	3.0	0.528	0,0,0,1,2,3,0,0,0	to_hand	s549
102.827	0.674	0	PA_without_intermediate	3,2,0,1,0,0,0,0,0	test	ward_and_allport	3,2,0,0,0,0,1,0,0	89.0	3.0	0.674	0,0,0,1,2,3,0,0,0	to_board	s549
103.503	0.799	0	PA_without_intermediate	3,2,0,0,0,0,0,0,0	test	ward_and_allport	3,2,0,0,0,0,1,0,0	71.0	3.0	0.799	0,0,0,1,2,3,0,0,0	to_hand	s549
104.304	0.615	0	PA_without_intermediate	3,2,0,0,0,0,1,0,0	test	ward_and_allport	3,2,0,0,0,0,1,0,0	82.0	3.0	0.615	0,0,0,1,2,3,0,0,0	to_board	s549
104.922	1.0	0	PA_without_intermediate	n/a	test	ward_and_allport	n/a	-1.0	3.0	n/a	n/a	feedback	s549
105.922	2.224	0	PA_without_intermediate	n/a	test	ward_and_allport	n/a	-1.0	3.0	n/a	n/a	ITI	s549
108.149	4.279	1	PA_without_intermediate	0,0,0,1,2,0,0,0,0	test	ward_and_allport	2,0,0,0,0,0,3,1,0	71.0	4.0	4.279	0,0,0,1,2,3,0,0,0	to_hand	s549
112.429	0.497	0	PA_without_intermediate	0,0,0,1,2,0,3,0,0	test	ward_and_allport	2,0,0,0,0,0,3,1,0	82.0	4.0	0.497	0,0,0,1,2,3,0,0,0	to_board	s549
112.93	1.125	0	PA_without_intermediate	0,0,0,1,0,0,3,0,0	test	ward_and_allport	2,0,0,0,0,0,3,1,0	71.0	4.0	1.125	0,0,0,1,2,3,0,0,0	to_hand	s549
114.056	0.456	0	PA_without_intermediate	2,0,0,1,0,0,3,0,0	test	ward_and_allport	2,0,0,0,0,0,3,1,0	89.0	4.0	0.456	0,0,0,1,2,3,0,0,0	to_board	s549
114.516	0.415	0	PA_without_intermediate	2,0,0,0,0,0,3,0,0	test	ward_and_allport	2,0,0,0,0,0,3,1,0	71.0	4.0	0.415	0,0,0,1,2,3,0,0,0	to_hand	s549
114.932	0.5	0	PA_without_intermediate	2,0,0,0,0,0,3,1,0	test	ward_and_allport	2,0,0,0,0,0,3,1,0	82.0	4.0	0.5	0,0,0,1,2,3,0,0,0	to_board	s549
115.437	1.0	0	PA_without_intermediate	n/a	test	ward_and_allport	n/a	-1.0	4.0	n/a	n/a	feedback	s549
116.437	1.272	0	PA_without_intermediate	n/a	test	ward_and_allport	n/a	-1.0	4.0	n/a	n/a	ITI	s549
117.711	4.37	1	PA_with_intermediate	0,0,0,0,0,0,1,2,0	test	ward_and_allport	2,0,0,0,0,0,1,3,0	82.0	5.0	4.37	0,0,0,0,0,0,1,2,3	to_hand	s549
122.081	0.551	0	PA_with_intermediate	0,0,0,3,0,0,1,2,0	test	ward_and_allport	2,0,0,0,0,0,1,3,0	71.0	5.0	0.551	0,0,0,0,0,0,1,2,3	to_board	s549
122.635	1.419	0	PA_with_intermediate	0,0,0,3,0,0,1,0,0	test	ward_and_allport	2,0,0,0,0,0,1,3,0	82.0	5.0	1.419	0,0,0,0,0,0,1,2,3	to_hand	s549
124.055	0.693	0	PA_with_intermediate	2,0,0,3,0,0,1,0,0	test	ward_and_allport	2,0,0,0,0,0,1,3,0	89.0	5.0	0.693	0,0,0,0,0,0,1,2,3	to_board	s549
124.751	0.758	0	PA_with_intermediate	2,0,0,0,0,0,1,0,0	test	ward_and_allport	2,0,0,0,0,0,1,3,0	71.0	5.0	0.758	0,0,0,0,0,0,1,2,3	to_hand	s549
125.51	0.563	0	PA_with_intermediate	2,0,0,0,0,0,1,3,0	test	ward_and_allport	2,0,0,0,0,0,1,3,0	82.0	5.0	0.563	0,0,0,0,0,0,1,2,3	to_board	s549
126.077	1.0	0	PA_with_intermediate	n/a	test	ward_and_allport	n/a	-1.0	5.0	n/a	n/a	feedback	s549
127.077	2.632	0	PA_with_intermediate	n/a	test	ward_and_allport	n/a	-1.0	5.0	n/a	n/a	ITI	s549
129.711	3.186	1	PA_without_intermediate	1,2,0,0,0,0,0,0,0	test	ward_and_allport	0,0,0,1,0,0,3,2,0	89.0	6.0	3.186	1,2,3,0,0,0,0,0,0	to_hand	s549
132.898	0.717	0	PA_without_intermediate	1,2,0,0,0,0,3,0,0	test	ward_and_allport	0,0,0,1,0,0,3,2,0	82.0	6.0	0.717	1,2,3,0,0,0,0,0,0	to_board	s549
133.618	1.444	0	PA_without_intermediate	1,0,0,0,0,0,3,0,0	test	ward_and_allport	0,0,0,1,0,0,3,2,0	89.0	6.0	1.444	1,2,3,0,0,0,0,0,0	to_hand	s549
135.064	1.001	0	PA_without_intermediate	1,0,0,0,0,0,3,2,0	test	ward_and_allport	0,0,0,1,0,0,3,2,0	82.0	6.0	1.001	1,2,3,0,0,0,0,0,0	to_board	s549
136.067	1.024	0	PA_without_intermediate	0,0,0,0,0,0,3,2,0	test	ward_and_allport	0,0,0,1,0,0,3,2,0	89.0	6.0	1.024	1,2,3,0,0,0,0,0,0	to_hand	s549
137.091	0.621	0	PA_without_intermediate	0,0,0,1,0,0,3,2,0	test	ward_and_allport	0,0,0,1,0,0,3,2,0	71.0	6.0	0.621	1,2,3,0,0,0,0,0,0	to_board	s549
137.718	1.0	0	PA_without_intermediate	n/a	test	ward_and_allport	n/a	-1.0	6.0	n/a	n/a	feedback	s549
138.718	1.408	0	PA_without_intermediate	n/a	test	ward_and_allport	n/a	-1.0	6.0	n/a	n/a	ITI	s549
140.129	4.25	1	PA_without_intermediate	0,0,0,0,0,0,1,2,0	test	ward_and_allport	2,0,0,3,1,0,0,0,0	82.0	7.0	4.25	0,0,0,0,0,0,1,2,3	to_hand	s549
144.38	0.912	0	PA_without_intermediate	0,0,0,3,0,0,1,2,0	test	ward_and_allport	2,0,0,3,1,0,0,0,0	71.0	7.0	0.912	0,0,0,0,0,0,1,2,3	to_board	s549
145.295	1.375	0	PA_without_intermediate	0,0,0,3,0,0,1,0,0	test	ward_and_allport	2,0,0,3,1,0,0,0,0	82.0	7.0	1.375	0,0,0,0,0,0,1,2,3	to_hand	s549
146.671	1.214	0	PA_without_intermediate	2,0,0,3,0,0,1,0,0	test	ward_and_allport	2,0,0,3,1,0,0,0,0	89.0	7.0	1.214	0,0,0,0,0,0,1,2,3	to_board	s549
147.889	0.723	0	PA_without_intermediate	2,0,0,3,0,0,0,0,0	test	ward_and_allport	2,0,0,3,1,0,0,0,0	82.0	7.0	0.723	0,0,0,0,0,0,1,2,3	to_hand	s549
148.613	0.765	0	PA_without_intermediate	2,0,0,3,1,0,0,0,0	test	ward_and_allport	2,0,0,3,1,0,0,0,0	71.0	7.0	0.765	0,0,0,0,0,0,1,2,3	to_board	s549
149.383	1.0	0	PA_without_intermediate	n/a	test	ward_and_allport	n/a	-1.0	7.0	n/a	n/a	feedback	s549
150.383	1.0	0	PA_without_intermediate	n/a	test	ward_and_allport	n/a	-1.0	7.0	n/a	n/a	ITI	s549
151.386	3.218	1	PA_with_intermediate	0,0,0,1,2,0,0,0,0	test	ward_and_allport	2,0,0,1,3,0,0,0,0	71.0	8.0	3.218	0,0,0,1,2,3,0,0,0	to_hand	s549
154.605	0.498	0	PA_with_intermediate	0,0,0,1,2,0,3,0,0	test	ward_and_allport	2,0,0,1,3,0,0,0,0	82.0	8.0	0.498	0,0,0,1,2,3,0,0,0	to_board	s549
155.106	0.671	0	PA_with_intermediate	0,0,0,1,0,0,3,0,0	test	ward_and_allport	2,0,0,1,3,0,0,0,0	71.0	8.0	0.671	0,0,0,1,2,3,0,0,0	to_hand	s549
155.777	0.405	0	PA_with_intermediate	2,0,0,1,0,0,3,0,0	test	ward_and_allport	2,0,0,1,3,0,0,0,0	89.0	8.0	0.405	0,0,0,1,2,3,0,0,0	to_board	s549
156.185	0.935	0	PA_with_intermediate	2,0,0,1,0,0,0,0,0	test	ward_and_allport	2,0,0,1,3,0,0,0,0	82.0	8.0	0.935	0,0,0,1,2,3,0,0,0	to_hand	s549
157.121	0.539	0	PA_with_intermediate	2,0,0,1,3,0,0,0,0	test	ward_and_allport	2,0,0,1,3,0,0,0,0	71.0	8.0	0.539	0,0,0,1,2,3,0,0,0	to_board	s549
157.665	1.0	0	PA_with_intermediate	n/a	test	ward_and_allport	n/a	-1.0	8.0	n/a	n/a	feedback	s549
158.665	1.0	0	PA_with_intermediate	n/a	test	ward_and_allport	n/a	-1.0	8.0	n/a	n/a	ITI	s549
159.668	4.262	1	PA_with_intermediate	0,0,0,0,0,0,1,2,0	test	ward_and_allport	0,0,0,2,3,0,1,0,0	82.0	9.0	4.262	0,0,0,0,0,0,1,2,3	to_hand	s549
163.932	0.51	0	PA_with_intermediate	3,0,0,0,0,0,1,2,0	test	ward_and_allport	0,0,0,2,3,0,1,0,0	89.0	9.0	0.51	0,0,0,0,0,0,1,2,3	to_board	s549
164.445	1.13	0	PA_with_intermediate	3,0,0,0,0,0,1,0,0	test	ward_and_allport	0,0,0,2,3,0,1,0,0	82.0	9.0	1.13	0,0,0,0,0,0,1,2,3	to_hand	s549
165.577	0.713	0	PA_with_intermediate	3,0,0,2,0,0,1,0,0	test	ward_and_allport	0,0,0,2,3,0,1,0,0	71.0	9.0	0.713	0,0,0,0,0,0,1,2,3	to_board	s549
166.294	1.223	0	PA_with_intermediate	0,0,0,2,0,0,1,0,0	test	ward_and_allport	0,0,0,2,3,0,1,0,0	89.0	9.0	1.223	0,0,0,0,0,0,1,2,3	to_hand	s549
167.518	0.594	0	PA_with_intermediate	0,0,0,2,3,0,1,0,0	test	ward_and_allport	0,0,0,2,3,0,1,0,0	71.0	9.0	0.594	0,0,0,0,0,0,1,2,3	to_board	s549
168.116	1.0	0	PA_with_intermediate	n/a	test	ward_and_allport	n/a	-1.0	9.0	n/a	n/a	feedback	s549
169.116	1.0	0	PA_with_intermediate	n/a	test	ward_and_allport	n/a	-1.0	9.0	n/a	n/a	ITI	s549
170.121	5.253	1	PA_with_intermediate	0,0,0,0,0,0,1,2,0	test	ward_and_allport	0,0,0,2,3,0,1,0,0	82.0	10.0	5.253	0,0,0,0,0,0,1,2,3	to_hand	s549
175.375	0.564	0	PA_with_intermediate	3,0,0,0,0,0,1,2,0	test	ward_and_allport	0,0,0,2,3,0,1,0,0	89.0	10.0	0.564	0,0,0,0,0,0,1,2,3	to_board	s549
175.943	0.76	0	PA_with_intermediate	3,0,0,0,0,0,1,0,0	test	ward_and_allport	0,0,0,2,3,0,1,0,0	82.0	10.0	0.76	0,0,0,0,0,0,1,2,3	to_hand	s549
176.706	0.532	0	PA_with_intermediate	3,0,0,2,0,0,1,0,0	test	ward_and_allport	0,0,0,2,3,0,1,0,0	71.0	10.0	0.532	0,0,0,0,0,0,1,2,3	to_board	s549
177.242	0.831	0	PA_with_intermediate	0,0,0,2,0,0,1,0,0	test	ward_and_allport	0,0,0,2,3,0,1,0,0	89.0	10.0	0.831	0,0,0,0,0,0,1,2,3	to_hand	s549
178.075	0.485	0	PA_with_intermediate	0,0,0,2,3,0,1,0,0	test	ward_and_allport	0,0,0,2,3,0,1,0,0	71.0	10.0	0.485	0,0,0,0,0,0,1,2,3	to_board	s549
178.565	1.0	0	PA_with_intermediate	n/a	test	ward_and_allport	n/a	-1.0	10.0	n/a	n/a	feedback	s549
179.565	1.408	0	PA_with_intermediate	n/a	test	ward_and_allport	n/a	-1.0	10.0	n/a	n/a	ITI	s549
180.978	2.794	1	PA_without_intermediate	0,0,0,0,0,0,1,2,0	test	ward_and_allport	3,1,0,2,0,0,0,0,0	82.0	11.0	2.794	0,0,0,0,0,0,1,2,3	to_hand	s549
183.772	0.531	0	PA_without_intermediate	3,0,0,0,0,0,1,2,0	test	ward_and_allport	3,1,0,2,0,0,0,0,0	89.0	11.0	0.531	0,0,0,0,0,0,1,2,3	to_board	s549
184.306	1.285	0	PA_without_intermediate	3,0,0,0,0,0,1,0,0	test	ward_and_allport	3,1,0,2,0,0,0,0,0	82.0	11.0	1.285	0,0,0,0,0,0,1,2,3	to_hand	s549
185.591	0.467	0	PA_without_intermediate	3,0,0,2,0,0,1,0,0	test	ward_and_allport	3,1,0,2,0,0,0,0,0	71.0	11.0	0.467	0,0,0,0,0,0,1,2,3	to_board	s549
186.062	1.166	0	PA_without_intermediate	3,0,0,2,0,0,0,0,0	test	ward_and_allport	3,1,0,2,0,0,0,0,0	82.0	11.0	1.166	0,0,0,0,0,0,1,2,3	to_hand	s549
187.228	0.561	0	PA_without_intermediate	3,1,0,2,0,0,0,0,0	test	ward_and_allport	3,1,0,2,0,0,0,0,0	89.0	11.0	0.561	0,0,0,0,0,0,1,2,3	to_board	s549
187.795	1.0	0	PA_without_intermediate	n/a	test	ward_and_allport	n/a	-1.0	11.0	n/a	n/a	feedback	s549
188.795	1.816	0	PA_without_intermediate	n/a	test	ward_and_allport	n/a	-1.0	11.0	n/a	n/a	ITI	s549
190.615	5.481	1	PA_with_intermediate	0,0,0,1,2,0,0,0,0	test	ward_and_allport	2,3,0,1,0,0,0,0,0	71.0	12.0	5.481	0,0,0,1,2,3,0,0,0	to_hand	s549
196.098	0.578	0	PA_with_intermediate	0,0,0,1,2,0,3,0,0	test	ward_and_allport	2,3,0,1,0,0,0,0,0	82.0	12.0	0.578	0,0,0,1,2,3,0,0,0	to_board	s549
196.68	0.927	0	PA_with_intermediate	0,0,0,1,0,0,3,0,0	test	ward_and_allport	2,3,0,1,0,0,0,0,0	71.0	12.0	0.927	0,0,0,1,2,3,0,0,0	to_hand	s549
197.609	0.434	0	PA_with_intermediate	2,0,0,1,0,0,3,0,0	test	ward_and_allport	2,3,0,1,0,0,0,0,0	89.0	12.0	0.434	0,0,0,1,2,3,0,0,0	to_board	s549
198.048	0.476	0	PA_with_intermediate	2,0,0,1,0,0,0,0,0	test	ward_and_allport	2,3,0,1,0,0,0,0,0	82.0	12.0	0.476	0,0,0,1,2,3,0,0,0	to_hand	s549
198.524	0.688	0	PA_with_intermediate	2,3,0,1,0,0,0,0,0	test	ward_and_allport	2,3,0,1,0,0,0,0,0	89.0	12.0	0.688	0,0,0,1,2,3,0,0,0	to_board	s549
199.218	1.0	0	PA_with_intermediate	n/a	test	ward_and_allport	n/a	-1.0	12.0	n/a	n/a	feedback	s549
200.218	3.176	0	PA_with_intermediate	n/a	test	ward_and_allport	n/a	-1.0	12.0	n/a	n/a	ITI	s549
203.399	3.754	1	PA_with_intermediate	0,0,0,0,0,0,1,2,0	test	ward_and_allport	2,3,0,0,0,0,1,0,0	82.0	13.0	3.754	0,0,0,0,0,0,1,2,3	to_hand	s549
207.154	1.021	0	PA_with_intermediate	0,0,0,3,0,0,1,2,0	test	ward_and_allport	2,3,0,0,0,0,1,0,0	71.0	13.0	1.021	0,0,0,0,0,0,1,2,3	to_board	s549
208.178	0.418	0	PA_with_intermediate	0,0,0,3,0,0,1,0,0	test	ward_and_allport	2,3,0,0,0,0,1,0,0	82.0	13.0	0.418	0,0,0,0,0,0,1,2,3	to_hand	s549
208.597	0.646	0	PA_with_intermediate	2,0,0,3,0,0,1,0,0	test	ward_and_allport	2,3,0,0,0,0,1,0,0	89.0	13.0	0.646	0,0,0,0,0,0,1,2,3	to_board	s549
209.248	0.49	0	PA_with_intermediate	2,0,0,0,0,0,1,0,0	test	ward_and_allport	2,3,0,0,0,0,1,0,0	71.0	13.0	0.49	0,0,0,0,0,0,1,2,3	to_hand	s549
209.739	0.576	0	PA_with_intermediate	2,3,0,0,0,0,1,0,0	test	ward_and_allport	2,3,0,0,0,0,1,0,0	89.0	13.0	0.576	0,0,0,0,0,0,1,2,3	to_board	s549
210.32	1.0	0	PA_with_intermediate	n/a	test	ward_and_allport	n/a	-1.0	13.0	n/a	n/a	feedback	s549
211.32	2.36	0	PA_with_intermediate	n/a	test	ward_and_allport	n/a	-1.0	13.0	n/a	n/a	ITI	s549
213.683	6.41	1	PA_with_intermediate	1,2,0,0,0,0,0,0,0	test	ward_and_allport	1,0,0,0,0,0,2,3,0	89.0	14.0	6.41	1,2,3,0,0,0,0,0,0	to_hand	s549
220.094	2.014	0	PA_with_intermediate	1,2,0,3,0,0,0,0,0	test	ward_and_allport	1,0,0,0,0,0,2,3,0	71.0	14.0	2.014	1,2,3,0,0,0,0,0,0	to_board	s549
222.112	0.788	0	PA_with_intermediate	1,0,0,3,0,0,0,0,0	test	ward_and_allport	1,0,0,0,0,0,2,3,0	89.0	14.0	0.788	1,2,3,0,0,0,0,0,0	to_hand	s549
222.901	0.845	0	PA_with_intermediate	1,0,0,3,0,0,2,0,0	test	ward_and_allport	1,0,0,0,0,0,2,3,0	82.0	14.0	0.845	1,2,3,0,0,0,0,0,0	to_board	s549
223.75	0.556	0	PA_with_intermediate	1,0,0,0,0,0,2,0,0	test	ward_and_allport	1,0,0,0,0,0,2,3,0	71.0	14.0	0.556	1,2,3,0,0,0,0,0,0	to_hand	s549
224.306	0.45	0	PA_with_intermediate	1,0,0,0,0,0,2,3,0	test	ward_and_allport	1,0,0,0,0,0,2,3,0	82.0	14.0	0.45	1,2,3,0,0,0,0,0,0	to_board	s549
224.763	1.0	0	PA_with_intermediate	n/a	test	ward_and_allport	n/a	-1.0	14.0	n/a	n/a	feedback	s549
225.763	1.0	0	PA_with_intermediate	n/a	test	ward_and_allport	n/a	-1.0	14.0	n/a	n/a	ITI	s549
231.77	3.083	1	PA_without_intermediate	1,2,0,0,0,0,0,0,0	test	ward_and_allport	0,0,0,1,0,0,3,2,0	89.0	15.0	3.083	1,2,3,0,0,0,0,0,0	to_hand	s549
234.854	0.594	0	PA_without_intermediate	1,2,0,0,0,0,3,0,0	test	ward_and_allport	0,0,0,1,0,0,3,2,0	82.0	15.0	0.594	1,2,3,0,0,0,0,0,0	to_board	s549
235.453	0.921	0	PA_without_intermediate	1,0,0,0,0,0,3,0,0	test	ward_and_allport	0,0,0,1,0,0,3,2,0	89.0	15.0	0.921	1,2,3,0,0,0,0,0,0	to_hand	s549
236.375	0.688	0	PA_without_intermediate	1,0,0,0,0,0,3,2,0	test	ward_and_allport	0,0,0,1,0,0,3,2,0	82.0	15.0	0.688	1,2,3,0,0,0,0,0,0	to_board	s549
237.068	1.623	0	PA_without_intermediate	0,0,0,0,0,0,3,2,0	test	ward_and_allport	0,0,0,1,0,0,3,2,0	89.0	15.0	1.623	1,2,3,0,0,0,0,0,0	to_hand	s549
238.692	0.457	0	PA_without_intermediate	0,0,0,1,0,0,3,2,0	test	ward_and_allport	0,0,0,1,0,0,3,2,0	71.0	15.0	0.457	1,2,3,0,0,0,0,0,0	to_board	s549
239.155	1.0	0	PA_without_intermediate	n/a	test	ward_and_allport	n/a	-1.0	15.0	n/a	n/a	feedback	s549
240.155	1.408	0	PA_without_intermediate	n/a	test	ward_and_allport	n/a	-1.0	15.0	n/a	n/a	ITI	s549
241.568	3.987	1	PA_with_intermediate	1,2,0,0,0,0,0,0,0	test	ward_and_allport	1,3,0,0,0,0,2,0,0	89.0	16.0	3.987	1,2,3,0,0,0,0,0,0	to_hand	s549
245.555	0.576	0	PA_with_intermediate	1,2,0,3,0,0,0,0,0	test	ward_and_allport	1,3,0,0,0,0,2,0,0	71.0	16.0	0.576	1,2,3,0,0,0,0,0,0	to_board	s549
246.135	0.512	0	PA_with_intermediate	1,0,0,3,0,0,0,0,0	test	ward_and_allport	1,3,0,0,0,0,2,0,0	89.0	16.0	0.512	1,2,3,0,0,0,0,0,0	to_hand	s549
246.648	0.527	0	PA_with_intermediate	1,0,0,3,0,0,2,0,0	test	ward_and_allport	1,3,0,0,0,0,2,0,0	82.0	16.0	0.527	1,2,3,0,0,0,0,0,0	to_board	s549
247.18	1.488	0	PA_with_intermediate	1,0,0,0,0,0,2,0,0	test	ward_and_allport	1,3,0,0,0,0,2,0,0	71.0	16.0	1.488	1,2,3,0,0,0,0,0,0	to_hand	s549
248.669	0.453	0	PA_with_intermediate	1,3,0,0,0,0,2,0,0	test	ward_and_allport	1,3,0,0,0,0,2,0,0	89.0	16.0	0.453	1,2,3,0,0,0,0,0,0	to_board	s549
249.126	1.0	0	PA_with_intermediate	n/a	test	ward_and_allport	n/a	-1.0	16.0	n/a	n/a	feedback	s549
250.126	1.816	0	PA_with_intermediate	n/a	test	ward_and_allport	n/a	-1.0	16.0	n/a	n/a	ITI	s549
251.946	1.787	1	PA_without_intermediate	0,0,0,1,2,0,0,0,0	test	ward_and_allport	2,0,0,0,0,0,3,1,0	71.0	17.0	1.787	0,0,0,1,2,3,0,0,0	to_hand	s549
253.734	0.743	0	PA_without_intermediate	0,0,0,1,2,0,3,0,0	test	ward_and_allport	2,0,0,0,0,0,3,1,0	82.0	17.0	0.743	0,0,0,1,2,3,0,0,0	to_board	s549
254.481	0.865	0	PA_without_intermediate	0,0,0,1,0,0,3,0,0	test	ward_and_allport	2,0,0,0,0,0,3,1,0	71.0	17.0	0.865	0,0,0,1,2,3,0,0,0	to_hand	s549
255.348	0.441	0	PA_without_intermediate	2,0,0,1,0,0,3,0,0	test	ward_and_allport	2,0,0,0,0,0,3,1,0	89.0	17.0	0.441	0,0,0,1,2,3,0,0,0	to_board	s549
255.793	0.374	0	PA_without_intermediate	2,0,0,0,0,0,3,0,0	test	ward_and_allport	2,0,0,0,0,0,3,1,0	71.0	17.0	0.374	0,0,0,1,2,3,0,0,0	to_hand	s549
256.168	0.464	0	PA_without_intermediate	2,0,0,0,0,0,3,1,0	test	ward_and_allport	2,0,0,0,0,0,3,1,0	82.0	17.0	0.464	0,0,0,1,2,3,0,0,0	to_board	s549
256.638	1.0	0	PA_without_intermediate	n/a	test	ward_and_allport	n/a	-1.0	17.0	n/a	n/a	feedback	s549
257.638	2.088	0	PA_without_intermediate	n/a	test	ward_and_allport	n/a	-1.0	17.0	n/a	n/a	ITI	s549
259.731	2.529	1	PA_without_intermediate	1,2,0,0,0,0,0,0,0	test	ward_and_allport	0,0,0,3,1,0,2,0,0	89.0	18.0	2.529	1,2,3,0,0,0,0,0,0	to_hand	s549
262.261	0.592	0	PA_without_intermediate	1,2,0,3,0,0,0,0,0	test	ward_and_allport	0,0,0,3,1,0,2,0,0	71.0	18.0	0.592	1,2,3,0,0,0,0,0,0	to_board	s549
262.859	1.02	0	PA_without_intermediate	1,0,0,3,0,0,0,0,0	test	ward_and_allport	0,0,0,3,1,0,2,0,0	89.0	18.0	1.02	1,2,3,0,0,0,0,0,0	to_hand	s549
263.88	0.527	0	PA_without_intermediate	1,0,0,3,0,0,2,0,0	test	ward_and_allport	0,0,0,3,1,0,2,0,0	82.0	18.0	0.527	1,2,3,0,0,0,0,0,0	to_board	s549
264.412	0.667	0	PA_without_intermediate	0,0,0,3,0,0,2,0,0	test	ward_and_allport	0,0,0,3,1,0,2,0,0	89.0	18.0	0.667	1,2,3,0,0,0,0,0,0	to_hand	s549
265.08	0.378	0	PA_without_intermediate	0,0,0,3,1,0,2,0,0	test	ward_and_allport	0,0,0,3,1,0,2,0,0	71.0	18.0	0.378	1,2,3,0,0,0,0,0,0	to_board	s549
265.465	1.0	0	PA_without_intermediate	n/a	test	ward_and_allport	n/a	-1.0	18.0	n/a	n/a	feedback	s549
266.465	1.136	0	PA_without_intermediate	n/a	test	ward_and_allport	n/a	-1.0	18.0	n/a	n/a	ITI	s549
267.605	2.088	1	PA_without_intermediate	1,2,0,0,0,0,0,0,0	test	ward_and_allport	0,0,0,2,0,0,3,1,0	89.0	19.0	2.088	1,2,3,0,0,0,0,0,0	to_hand	s549
269.694	0.566	0	PA_without_intermediate	1,2,0,0,0,0,3,0,0	test	ward_and_allport	0,0,0,2,0,0,3,1,0	82.0	19.0	0.566	1,2,3,0,0,0,0,0,0	to_board	s549
270.265	1.612	0	PA_without_intermediate	1,0,0,0,0,0,3,0,0	test	ward_and_allport	0,0,0,2,0,0,3,1,0	89.0	19.0	1.612	1,2,3,0,0,0,0,0,0	to_hand	s549
271.878	0.349	0	PA_without_intermediate	1,0,0,2,0,0,3,0,0	test	ward_and_allport	0,0,0,2,0,0,3,1,0	71.0	19.0	0.349	1,2,3,0,0,0,0,0,0	to_board	s549
272.232	0.558	0	PA_without_intermediate	0,0,0,2,0,0,3,0,0	test	ward_and_allport	0,0,0,2,0,0,3,1,0	89.0	19.0	0.558	1,2,3,0,0,0,0,0,0	to_hand	s549
272.791	0.481	0	PA_without_intermediate	0,0,0,2,0,0,3,1,0	test	ward_and_allport	0,0,0,2,0,0,3,1,0	82.0	19.0	0.481	1,2,3,0,0,0,0,0,0	to_board	s549
273.278	1.0	0	PA_without_intermediate	n/a	test	ward_and_allport	n/a	-1.0	19.0	n/a	n/a	feedback	s549
274.278	6.168	0	PA_without_intermediate	n/a	test	ward_and_allport	n/a	-1.0	19.0	n/a	n/a	ITI	s549
280.451	2.775	1	PA_without_intermediate	0,0,0,0,0,0,1,2,0	test	ward_and_allport	3,1,0,2,0,0,0,0,0	82.0	20.0	2.775	0,0,0,0,0,0,1,2,3	to_hand	s549
283.226	0.476	0	PA_without_intermediate	3,0,0,0,0,0,1,2,0	test	ward_and_allport	3,1,0,2,0,0,0,0,0	89.0	20.0	0.476	0,0,0,0,0,0,1,2,3	to_board	s549
283.708	1.052	0	PA_without_intermediate	3,0,0,0,0,0,1,0,0	test	ward_and_allport	3,1,0,2,0,0,0,0,0	82.0	20.0	1.052	0,0,0,0,0,0,1,2,3	to_hand	s549
284.76	0.455	0	PA_without_intermediate	3,0,0,2,0,0,1,0,0	test	ward_and_allport	3,1,0,2,0,0,0,0,0	71.0	20.0	0.455	0,0,0,0,0,0,1,2,3	to_board	s549
285.22	0.507	0	PA_without_intermediate	3,0,0,2,0,0,0,0,0	test	ward_and_allport	3,1,0,2,0,0,0,0,0	82.0	20.0	0.507	0,0,0,0,0,0,1,2,3	to_hand	s549
285.728	0.536	0	PA_without_intermediate	3,1,0,2,0,0,0,0,0	test	ward_and_allport	3,1,0,2,0,0,0,0,0	89.0	20.0	0.536	0,0,0,0,0,0,1,2,3	to_board	s549
286.271	1.0	0	PA_without_intermediate	n/a	test	ward_and_allport	n/a	-1.0	20.0	n/a	n/a	feedback	s549
287.271	1.816	0	PA_without_intermediate	n/a	test	ward_and_allport	n/a	-1.0	20.0	n/a	n/a	ITI	s549
289.091	3.194	1	PA_with_intermediate	0,0,0,0,0,0,1,2,0	test	ward_and_allport	2,0,0,0,0,0,1,3,0	82.0	21.0	3.194	0,0,0,0,0,0,1,2,3	to_hand	s549
292.287	2.106	0	PA_with_intermediate	0,0,0,3,0,0,1,2,0	test	ward_and_allport	2,0,0,0,0,0,1,3,0	71.0	21.0	2.106	0,0,0,0,0,0,1,2,3	to_board	s549
294.397	0.465	0	PA_with_intermediate	0,0,0,3,0,0,1,0,0	test	ward_and_allport	2,0,0,0,0,0,1,3,0	82.0	21.0	0.465	0,0,0,0,0,0,1,2,3	to_hand	s549
294.863	0.427	0	PA_with_intermediate	2,0,0,3,0,0,1,0,0	test	ward_and_allport	2,0,0,0,0,0,1,3,0	89.0	21.0	0.427	0,0,0,0,0,0,1,2,3	to_board	s549
295.297	1.69	0	PA_with_intermediate	2,0,0,0,0,0,1,0,0	test	ward_and_allport	2,0,0,0,0,0,1,3,0	71.0	21.0	1.69	0,0,0,0,0,0,1,2,3	to_hand	s549
296.988	0.48	0	PA_with_intermediate	2,0,0,0,0,0,1,3,0	test	ward_and_allport	2,0,0,0,0,0,1,3,0	82.0	21.0	0.48	0,0,0,0,0,0,1,2,3	to_board	s549
297.475	1.0	0	PA_with_intermediate	n/a	test	ward_and_allport	n/a	-1.0	21.0	n/a	n/a	feedback	s549
298.475	1.952	0	PA_with_intermediate	n/a	test	ward_and_allport	n/a	-1.0	21.0	n/a	n/a	ITI	s549
300.432	2.59	1	PA_with_intermediate	0,0,0,1,2,0,0,0,0	test	ward_and_allport	0,0,0,1,0,0,2,3,0	71.0	22.0	2.59	0,0,0,1,2,3,0,0,0	to_hand	s549
303.023	0.298	0	PA_with_intermediate	3,0,0,1,2,0,0,0,0	test	ward_and_allport	0,0,0,1,0,0,2,3,0	89.0	22.0	0.298	0,0,0,1,2,3,0,0,0	to_board	s549
303.327	0.58	0	PA_with_intermediate	3,0,0,1,0,0,0,0,0	test	ward_and_allport	0,0,0,1,0,0,2,3,0	71.0	22.0	0.58	0,0,0,1,2,3,0,0,0	to_hand	s549
303.909	0.56	0	PA_with_intermediate	3,0,0,1,0,0,2,0,0	test	ward_and_allport	0,0,0,1,0,0,2,3,0	82.0	22.0	0.56	0,0,0,1,2,3,0,0,0	to_board	s549
304.476	1.182	0	PA_with_intermediate	0,0,0,1,0,0,2,0,0	test	ward_and_allport	0,0,0,1,0,0,2,3,0	89.0	22.0	1.182	0,0,0,1,2,3,0,0,0	to_hand	s549
305.658	0.638	0	PA_with_intermediate	0,0,0,1,0,0,2,3,0	test	ward_and_allport	0,0,0,1,0,0,2,3,0	82.0	22.0	0.638	0,0,0,1,2,3,0,0,0	to_board	s549
306.304	1.0	0	PA_with_intermediate	n/a	test	ward_and_allport	n/a	-1.0	22.0	n/a	n/a	feedback	s549
307.304	1.136	0	PA_with_intermediate	n/a	test	ward_and_allport	n/a	-1.0	22.0	n/a	n/a	ITI	s549
308.445	2.025	1	PA_without_intermediate	0,0,0,0,0,0,1,2,0	test	ward_and_allport	1,0,0,3,2,0,0,0,0	82.0	23.0	2.025	0,0,0,0,0,0,1,2,3	to_hand	s549
310.47	0.574	0	PA_without_intermediate	0,0,0,3,0,0,1,2,0	test	ward_and_allport	1,0,0,3,2,0,0,0,0	71.0	23.0	0.574	0,0,0,0,0,0,1,2,3	to_board	s549
311.05	0.576	0	PA_without_intermediate	0,0,0,3,0,0,1,0,0	test	ward_and_allport	1,0,0,3,2,0,0,0,0	82.0	23.0	0.576	0,0,0,0,0,0,1,2,3	to_hand	s549
311.627	0.459	0	PA_without_intermediate	0,0,0,3,2,0,1,0,0	test	ward_and_allport	1,0,0,3,2,0,0,0,0	71.0	23.0	0.459	0,0,0,0,0,0,1,2,3	to_board	s549
312.093	0.546	0	PA_without_intermediate	0,0,0,3,2,0,0,0,0	test	ward_and_allport	1,0,0,3,2,0,0,0,0	82.0	23.0	0.546	0,0,0,0,0,0,1,2,3	to_hand	s549
312.64	0.495	0	PA_without_intermediate	1,0,0,3,2,0,0,0,0	test	ward_and_allport	1,0,0,3,2,0,0,0,0	89.0	23.0	0.495	0,0,0,0,0,0,1,2,3	to_board	s549
313.142	1.0	0	PA_without_intermediate	n/a	test	ward_and_allport	n/a	-1.0	23.0	n/a	n/a	feedback	s549
314.142	1.68	0	PA_without_intermediate	n/a	test	ward_and_allport	n/a	-1.0	23.0	n/a	n/a	ITI	s549
315.829	2.985	1	PA_without_intermediate	0,0,0,1,2,0,0,0,0	test	ward_and_allport	3,1,0,0,0,0,2,0,0	71.0	24.0	2.985	0,0,0,1,2,3,0,0,0	to_hand	s549
318.815	0.391	0	PA_without_intermediate	3,0,0,1,2,0,0,0,0	test	ward_and_allport	3,1,0,0,0,0,2,0,0	89.0	24.0	0.391	0,0,0,1,2,3,0,0,0	to_board	s549
319.212	0.587	0	PA_without_intermediate	3,0,0,1,0,0,0,0,0	test	ward_and_allport	3,1,0,0,0,0,2,0,0	71.0	24.0	0.587	0,0,0,1,2,3,0,0,0	to_hand	s549
319.8	0.443	0	PA_without_intermediate	3,0,0,1,0,0,2,0,0	test	ward_and_allport	3,1,0,0,0,0,2,0,0	82.0	24.0	0.443	0,0,0,1,2,3,0,0,0	to_board	s549
320.249	0.504	0	PA_without_intermediate	3,0,0,0,0,0,2,0,0	test	ward_and_allport	3,1,0,0,0,0,2,0,0	71.0	24.0	0.504	0,0,0,1,2,3,0,0,0	to_hand	s549
320.754	0.506	0	PA_without_intermediate	3,1,0,0,0,0,2,0,0	test	ward_and_allport	3,1,0,0,0,0,2,0,0	89.0	24.0	0.506	0,0,0,1,2,3,0,0,0	to_board	s549
321.267	1.0	0	PA_without_intermediate	n/a	test	ward_and_allport	n/a	-1.0	24.0	n/a	n/a	feedback	s549
322.267	2.088	0	PA_without_intermediate	n/a	test	ward_and_allport	n/a	-1.0	24.0	n/a	n/a	ITI	s549
324.362	2.576	1	PA_with_intermediate	0,0,0,1,2,0,0,0,0	test	ward_and_allport	2,0,0,1,3,0,0,0,0	71.0	25.0	2.576	0,0,0,1,2,3,0,0,0	to_hand	s549
326.939	0.758	0	PA_with_intermediate	0,0,0,1,2,0,3,0,0	test	ward_and_allport	2,0,0,1,3,0,0,0,0	82.0	25.0	0.758	0,0,0,1,2,3,0,0,0	to_board	s549
327.704	0.38	0	PA_with_intermediate	0,0,0,1,0,0,3,0,0	test	ward_and_allport	2,0,0,1,3,0,0,0,0	71.0	25.0	0.38	0,0,0,1,2,3,0,0,0	to_hand	s549
328.084	0.6	0	PA_with_intermediate	2,0,0,1,0,0,3,0,0	test	ward_and_allport	2,0,0,1,3,0,0,0,0	89.0	25.0	0.6	0,0,0,1,2,3,0,0,0	to_board	s549
328.692	1.278	0	PA_with_intermediate	2,0,0,1,0,0,0,0,0	test	ward_and_allport	2,0,0,1,3,0,0,0,0	82.0	25.0	1.278	0,0,0,1,2,3,0,0,0	to_hand	s549
329.971	0.297	0	PA_with_intermediate	2,0,0,1,3,0,0,0,0	test	ward_and_allport	2,0,0,1,3,0,0,0,0	71.0	25.0	0.297	0,0,0,1,2,3,0,0,0	to_board	s549
330.276	1.0	0	PA_with_intermediate	n/a	test	ward_and_allport	n/a	-1.0	25.0	n/a	n/a	feedback	s549
331.276	1.0	0	PA_with_intermediate	n/a	test	ward_and_allport	n/a	-1.0	25.0	n/a	n/a	ITI	s549
332.282	5.331	1	PA_without_intermediate	0,0,0,0,0,0,1,2,0	test	ward_and_allport	3,2,0,1,0,0,0,0,0	82.0	26.0	5.331	0,0,0,0,0,0,1,2,3	to_hand	s549
337.614	0.479	0	PA_without_intermediate	3,0,0,0,0,0,1,2,0	test	ward_and_allport	3,2,0,1,0,0,0,0,0	89.0	26.0	0.479	0,0,0,0,0,0,1,2,3	to_board	s549
338.1	1.136	0	PA_without_intermediate	3,0,0,0,0,0,1,0,0	test	ward_and_allport	3,2,0,1,0,0,0,0,0	82.0	26.0	1.136	0,0,0,0,0,0,1,2,3	to_hand	s549
339.238	0.698	0	PA_without_intermediate	3,2,0,0,0,0,1,0,0	test	ward_and_allport	3,2,0,1,0,0,0,0,0	89.0	26.0	0.698	0,0,0,0,0,0,1,2,3	to_board	s549
339.942	1.075	0	PA_without_intermediate	3,2,0,0,0,0,0,0,0	test	ward_and_allport	3,2,0,1,0,0,0,0,0	82.0	26.0	1.075	0,0,0,0,0,0,1,2,3	to_hand	s549
341.018	0.391	0	PA_without_intermediate	3,2,0,1,0,0,0,0,0	test	ward_and_allport	3,2,0,1,0,0,0,0,0	71.0	26.0	0.391	0,0,0,0,0,0,1,2,3	to_board	s549
341.417	1.0	0	PA_without_intermediate	n/a	test	ward_and_allport	n/a	-1.0	26.0	n/a	n/a	feedback	s549
342.417	1.0	0	PA_without_intermediate	n/a	test	ward_and_allport	n/a	-1.0	26.0	n/a	n/a	ITI	s549
343.424	4.89	1	PA_without_intermediate	1,2,0,0,0,0,0,0,0	test	ward_and_allport	0,0,0,3,1,0,2,0,0	89.0	27.0	4.89	1,2,3,0,0,0,0,0,0	to_hand	s549
348.315	0.421	0	PA_without_intermediate	1,2,0,3,0,0,0,0,0	test	ward_and_allport	0,0,0,3,1,0,2,0,0	71.0	27.0	0.421	1,2,3,0,0,0,0,0,0	to_board	s549
348.743	0.754	0	PA_without_intermediate	1,0,0,3,0,0,0,0,0	test	ward_and_allport	0,0,0,3,1,0,2,0,0	89.0	27.0	0.754	1,2,3,0,0,0,0,0,0	to_hand	s549
349.498	0.392	0	PA_without_intermediate	1,0,0,3,0,0,2,0,0	test	ward_and_allport	0,0,0,3,1,0,2,0,0	82.0	27.0	0.392	1,2,3,0,0,0,0,0,0	to_board	s549
349.897	0.581	0	PA_without_intermediate	0,0,0,3,0,0,2,0,0	test	ward_and_allport	0,0,0,3,1,0,2,0,0	89.0	27.0	0.581	1,2,3,0,0,0,0,0,0	to_hand	s549
350.478	0.387	0	PA_without_intermediate	0,0,0,3,1,0,2,0,0	test	ward_and_allport	0,0,0,3,1,0,2,0,0	71.0	27.0	0.387	1,2,3,0,0,0,0,0,0	to_board	s549
350.874	1.0	0	PA_without_intermediate	n/a	test	ward_and_allport	n/a	-1.0	27.0	n/a	n/a	feedback	s549
351.874	1.0	0	PA_without_intermediate	n/a	test	ward_and_allport	n/a	-1.0	27.0	n/a	n/a	ITI	s549
352.88	2.882	1	PA_with_intermediate	1,2,0,0,0,0,0,0,0	test	ward_and_allport	1,0,0,0,0,0,2,3,0	89.0	28.0	2.882	1,2,3,0,0,0,0,0,0	to_hand	s549
355.763	0.52	0	PA_with_intermediate	1,2,0,3,0,0,0,0,0	test	ward_and_allport	1,0,0,0,0,0,2,3,0	71.0	28.0	0.52	1,2,3,0,0,0,0,0,0	to_board	s549
356.29	0.456	0	PA_with_intermediate	1,0,0,3,0,0,0,0,0	test	ward_and_allport	1,0,0,0,0,0,2,3,0	89.0	28.0	0.456	1,2,3,0,0,0,0,0,0	to_hand	s549
356.748	0.562	0	PA_with_intermediate	1,0,0,3,0,0,2,0,0	test	ward_and_allport	1,0,0,0,0,0,2,3,0	82.0	28.0	0.562	1,2,3,0,0,0,0,0,0	to_board	s549
357.318	0.563	0	PA_with_intermediate	1,0,0,0,0,0,2,0,0	test	ward_and_allport	1,0,0,0,0,0,2,3,0	71.0	28.0	0.563	1,2,3,0,0,0,0,0,0	to_hand	s549
357.882	0.5	0	PA_with_intermediate	1,0,0,0,0,0,2,3,0	test	ward_and_allport	1,0,0,0,0,0,2,3,0	82.0	28.0	0.5	1,2,3,0,0,0,0,0,0	to_board	s549
358.39	1.0	0	PA_with_intermediate	n/a	test	ward_and_allport	n/a	-1.0	28.0	n/a	n/a	feedback	s549
359.39	1.544	0	PA_with_intermediate	n/a	test	ward_and_allport	n/a	-1.0	28.0	n/a	n/a	ITI	s549
360.942	2.75	1	PA_without_intermediate	0,0,0,1,2,0,0,0,0	test	ward_and_allport	1,0,0,0,0,0,3,2,0	71.0	29.0	2.75	0,0,0,1,2,3,0,0,0	to_hand	s549
363.693	0.347	0	PA_without_intermediate	0,0,0,1,2,0,3,0,0	test	ward_and_allport	1,0,0,0,0,0,3,2,0	82.0	29.0	0.347	0,0,0,1,2,3,0,0,0	to_board	s549
364.047	0.684	0	PA_without_intermediate	0,0,0,1,0,0,3,0,0	test	ward_and_allport	1,0,0,0,0,0,3,2,0	71.0	29.0	0.684	0,0,0,1,2,3,0,0,0	to_hand	s549
364.732	0.448	0	PA_without_intermediate	0,0,0,1,0,0,3,2,0	test	ward_and_allport	1,0,0,0,0,0,3,2,0	82.0	29.0	0.448	0,0,0,1,2,3,0,0,0	to_board	s549
365.187	1.068	0	PA_without_intermediate	0,0,0,0,0,0,3,2,0	test	ward_and_allport	1,0,0,0,0,0,3,2,0	71.0	29.0	1.068	0,0,0,1,2,3,0,0,0	to_hand	s549
366.256	0.395	0	PA_without_intermediate	1,0,0,0,0,0,3,2,0	test	ward_and_allport	1,0,0,0,0,0,3,2,0	89.0	29.0	0.395	0,0,0,1,2,3,0,0,0	to_board	s549
366.659	1.0	0	PA_without_intermediate	n/a	test	ward_and_allport	n/a	-1.0	29.0	n/a	n/a	feedback	s549
367.659	1.272	0	PA_without_intermediate	n/a	test	ward_and_allport	n/a	-1.0	29.0	n/a	n/a	ITI	s549
373.941	1.745	1	PA_with_intermediate	0,0,0,1,2,0,0,0,0	test	ward_and_allport	0,0,0,1,0,0,2,3,0	71.0	30.0	1.745	0,0,0,1,2,3,0,0,0	to_hand	s549
375.686	0.269	0	PA_with_intermediate	3,0,0,1,2,0,0,0,0	test	ward_and_allport	0,0,0,1,0,0,2,3,0	89.0	30.0	0.269	0,0,0,1,2,3,0,0,0	to_board	s549
375.962	0.296	0	PA_with_intermediate	3,0,0,1,0,0,0,0,0	test	ward_and_allport	0,0,0,1,0,0,2,3,0	71.0	30.0	0.296	0,0,0,1,2,3,0,0,0	to_hand	s549
376.259	0.383	0	PA_with_intermediate	3,0,0,1,0,0,2,0,0	test	ward_and_allport	0,0,0,1,0,0,2,3,0	82.0	30.0	0.383	0,0,0,1,2,3,0,0,0	to_board	s549
376.649	0.899	0	PA_with_intermediate	0,0,0,1,0,0,2,0,0	test	ward_and_allport	0,0,0,1,0,0,2,3,0	89.0	30.0	0.899	0,0,0,1,2,3,0,0,0	to_hand	s549
377.55	0.472	0	PA_with_intermediate	0,0,0,1,0,0,2,3,0	test	ward_and_allport	0,0,0,1,0,0,2,3,0	82.0	30.0	0.472	0,0,0,1,2,3,0,0,0	to_board	s549
378.031	1.0	0	PA_with_intermediate	n/a	test	ward_and_allport	n/a	-1.0	30.0	n/a	n/a	feedback	s549
379.031	3.04	0	PA_with_intermediate	n/a	test	ward_and_allport	n/a	-1.0	30.0	n/a	n/a	ITI	s549
382.078	3.502	1	PA_with_intermediate	0,0,0,1,2,0,0,0,0	test	ward_and_allport	0,0,0,1,3,0,2,0,0	71.0	31.0	3.502	0,0,0,1,2,3,0,0,0	to_hand	s549
385.581	0.549	0	PA_with_intermediate	3,0,0,1,2,0,0,0,0	test	ward_and_allport	0,0,0,1,3,0,2,0,0	89.0	31.0	0.549	0,0,0,1,2,3,0,0,0	to_board	s549
386.139	0.257	0	PA_with_intermediate	3,0,0,1,0,0,0,0,0	test	ward_and_allport	0,0,0,1,3,0,2,0,0	71.0	31.0	0.257	0,0,0,1,2,3,0,0,0	to_hand	s549
386.396	0.439	0	PA_with_intermediate	3,0,0,1,0,0,2,0,0	test	ward_and_allport	0,0,0,1,3,0,2,0,0	82.0	31.0	0.439	0,0,0,1,2,3,0,0,0	to_board	s549
386.844	0.502	0	PA_with_intermediate	0,0,0,1,0,0,2,0,0	test	ward_and_allport	0,0,0,1,3,0,2,0,0	89.0	31.0	0.502	0,0,0,1,2,3,0,0,0	to_hand	s549
387.348	0.305	0	PA_with_intermediate	0,0,0,1,3,0,2,0,0	test	ward_and_allport	0,0,0,1,3,0,2,0,0	71.0	31.0	0.305	0,0,0,1,2,3,0,0,0	to_board	s549
387.664	1.0	0	PA_with_intermediate	n/a	test	ward_and_allport	n/a	-1.0	31.0	n/a	n/a	feedback	s549
388.664	1.272	0	PA_with_intermediate	n/a	test	ward_and_allport	n/a	-1.0	31.0	n/a	n/a	ITI	s549
389.944	1.739	1	PA_with_intermediate	0,0,0,1,2,0,0,0,0	test	ward_and_allport	0,0,0,1,3,0,2,0,0	71.0	32.0	1.739	0,0,0,1,2,3,0,0,0	to_hand	s549
391.684	0.403	0	PA_with_intermediate	3,0,0,1,2,0,0,0,0	test	ward_and_allport	0,0,0,1,3,0,2,0,0	89.0	32.0	0.403	0,0,0,1,2,3,0,0,0	to_board	s549
392.093	0.317	0	PA_with_intermediate	3,0,0,1,0,0,0,0,0	test	ward_and_allport	0,0,0,1,3,0,2,0,0	71.0	32.0	0.317	0,0,0,1,2,3,0,0,0	to_hand	s549
392.411	0.495	0	PA_with_intermediate	3,0,0,1,0,0,2,0,0	test	ward_and_allport	0,0,0,1,3,0,2,0,0	82.0	32.0	0.495	0,0,0,1,2,3,0,0,0	to_board	s549
392.912	1.057	0	PA_with_intermediate	0,0,0,1,0,0,2,0,0	test	ward_and_allport	0,0,0,1,3,0,2,0,0	89.0	32.0	1.057	0,0,0,1,2,3,0,0,0	to_hand	s549
393.97	0.273	0	PA_with_intermediate	0,0,0,1,3,0,2,0,0	test	ward_and_allport	0,0,0,1,3,0,2,0,0	71.0	32.0	0.273	0,0,0,1,2,3,0,0,0	to_board	s549
394.249	1.0	0	PA_with_intermediate	n/a	test	ward_and_allport	n/a	-1.0	32.0	n/a	n/a	feedback	s549
395.249	1.136	0	PA_with_intermediate	n/a	test	ward_and_allport	n/a	-1.0	32.0	n/a	n/a	ITI	s549
396.394	2.216	1	PA_with_intermediate	1,2,0,0,0,0,0,0,0	test	ward_and_allport	1,3,0,2,0,0,0,0,0	89.0	33.0	2.216	1,2,3,0,0,0,0,0,0	to_hand	s549
398.611	1.47	0	PA_with_intermediate	1,2,0,0,0,0,3,0,0	test	ward_and_allport	1,3,0,2,0,0,0,0,0	82.0	33.0	1.47	1,2,3,0,0,0,0,0,0	to_board	s549
400.089	0.674	0	PA_with_intermediate	1,0,0,0,0,0,3,0,0	test	ward_and_allport	1,3,0,2,0,0,0,0,0	89.0	33.0	0.674	1,2,3,0,0,0,0,0,0	to_hand	s549
400.765	0.339	0	PA_with_intermediate	1,0,0,2,0,0,3,0,0	test	ward_and_allport	1,3,0,2,0,0,0,0,0	71.0	33.0	0.339	1,2,3,0,0,0,0,0,0	to_board	s549
401.112	0.575	0	PA_with_intermediate	1,0,0,2,0,0,0,0,0	test	ward_and_allport	1,3,0,2,0,0,0,0,0	82.0	33.0	0.575	1,2,3,0,0,0,0,0,0	to_hand	s549
401.687	0.506	0	PA_with_intermediate	1,3,0,2,0,0,0,0,0	test	ward_and_allport	1,3,0,2,0,0,0,0,0	89.0	33.0	0.506	1,2,3,0,0,0,0,0,0	to_board	s549
402.201	1.0	0	PA_with_intermediate	n/a	test	ward_and_allport	n/a	-1.0	33.0	n/a	n/a	feedback	s549
403.201	1.0	0	PA_with_intermediate	n/a	test	ward_and_allport	n/a	-1.0	33.0	n/a	n/a	ITI	s549
404.207	6.225	1	PA_with_intermediate	0,0,0,0,0,0,1,2,0	test	ward_and_allport	2,3,0,0,0,0,1,0,0	82.0	34.0	6.225	0,0,0,0,0,0,1,2,3	to_hand	s549
410.433	0.327	0	PA_with_intermediate	0,0,0,3,0,0,1,2,0	test	ward_and_allport	2,3,0,0,0,0,1,0,0	71.0	34.0	0.327	0,0,0,0,0,0,1,2,3	to_board	s549
410.765	0.907	0	PA_with_intermediate	0,0,0,3,0,0,1,0,0	test	ward_and_allport	2,3,0,0,0,0,1,0,0	82.0	34.0	0.907	0,0,0,0,0,0,1,2,3	to_hand	s549
411.673	0.787	0	PA_with_intermediate	2,0,0,3,0,0,1,0,0	test	ward_and_allport	2,3,0,0,0,0,1,0,0	89.0	34.0	0.787	0,0,0,0,0,0,1,2,3	to_board	s549
412.467	0.564	0	PA_with_intermediate	2,0,0,0,0,0,1,0,0	test	ward_and_allport	2,3,0,0,0,0,1,0,0	71.0	34.0	0.564	0,0,0,0,0,0,1,2,3	to_hand	s549
413.033	0.435	0	PA_with_intermediate	2,3,0,0,0,0,1,0,0	test	ward_and_allport	2,3,0,0,0,0,1,0,0	89.0	34.0	0.435	0,0,0,0,0,0,1,2,3	to_board	s549
413.478	1.0	0	PA_with_intermediate	n/a	test	ward_and_allport	n/a	-1.0	34.0	n/a	n/a	feedback	s549
414.478	1.0	0	PA_with_intermediate	n/a	test	ward_and_allport	n/a	-1.0	34.0	n/a	n/a	ITI	s549
415.486	3.204	1	PA_without_intermediate	1,2,0,0,0,0,0,0,0	test	ward_and_allport	0,0,0,3,2,0,1,0,0	89.0	35.0	3.204	1,2,3,0,0,0,0,0,0	to_hand	s549
418.691	0.399	0	PA_without_intermediate	1,2,0,3,0,0,0,0,0	test	ward_and_allport	0,0,0,3,2,0,1,0,0	71.0	35.0	0.399	1,2,3,0,0,0,0,0,0	to_board	s549
419.1	0.688	0	PA_without_intermediate	1,0,0,3,0,0,0,0,0	test	ward_and_allport	0,0,0,3,2,0,1,0,0	89.0	35.0	0.688	1,2,3,0,0,0,0,0,0	to_hand	s549
419.788	0.305	0	PA_without_intermediate	1,0,0,3,2,0,0,0,0	test	ward_and_allport	0,0,0,3,2,0,1,0,0	71.0	35.0	0.305	1,2,3,0,0,0,0,0,0	to_board	s549
420.103	0.726	0	PA_without_intermediate	0,0,0,3,2,0,0,0,0	test	ward_and_allport	0,0,0,3,2,0,1,0,0	89.0	35.0	0.726	1,2,3,0,0,0,0,0,0	to_hand	s549
420.83	0.58	0	PA_without_intermediate	0,0,0,3,2,0,1,0,0	test	ward_and_allport	0,0,0,3,2,0,1,0,0	82.0	35.0	0.58	1,2,3,0,0,0,0,0,0	to_board	s549
421.419	1.0	0	PA_without_intermediate	n/a	test	ward_and_allport	n/a	-1.0	35.0	n/a	n/a	feedback	s549
422.419	1.408	0	PA_without_intermediate	n/a	test	ward_and_allport	n/a	-1.0	35.0	n/a	n/a	ITI	s549
423.833	4.025	1	PA_with_intermediate	0,0,0,0,0,0,1,2,0	test	ward_and_allport	0,0,0,2,0,0,1,3,0	82.0	36.0	4.025	0,0,0,0,0,0,1,2,3	to_hand	s549
427.86	0.375	0	PA_with_intermediate	0,0,0,3,0,0,1,2,0	test	ward_and_allport	0,0,0,2,0,0,1,3,0	71.0	36.0	0.375	0,0,0,0,0,0,1,2,3	to_board	s549
428.242	2.154	0	PA_with_intermediate	0,0,0,0,0,0,1,2,0	test	ward_and_allport	0,0,0,2,0,0,1,3,0	71.0	36.0	2.154	0,0,0,0,0,0,1,2,3	to_hand	s549
430.398	0.36	0	PA_with_intermediate	3,0,0,0,0,0,1,2,0	test	ward_and_allport	0,0,0,2,0,0,1,3,0	89.0	36.0	0.36	0,0,0,0,0,0,1,2,3	to_board	s549
430.766	0.403	0	PA_with_intermediate	3,0,0,0,0,0,1,0,0	test	ward_and_allport	0,0,0,2,0,0,1,3,0	82.0	36.0	0.403	0,0,0,0,0,0,1,2,3	to_hand	s549
431.171	0.441	0	PA_with_intermediate	3,0,0,2,0,0,1,0,0	test	ward_and_allport	0,0,0,2,0,0,1,3,0	71.0	36.0	0.441	0,0,0,0,0,0,1,2,3	to_board	s549
431.621	0.439	0	PA_with_intermediate	0,0,0,2,0,0,1,0,0	test	ward_and_allport	0,0,0,2,0,0,1,3,0	89.0	36.0	0.439	0,0,0,0,0,0,1,2,3	to_hand	s549
432.061	0.692	0	PA_with_intermediate	0,0,0,2,0,0,1,3,0	test	ward_and_allport	0,0,0,2,0,0,1,3,0	82.0	36.0	0.692	0,0,0,0,0,0,1,2,3	to_board	s549
432.763	1.0	0	PA_with_intermediate	n/a	test	ward_and_allport	n/a	-1.0	36.0	n/a	n/a	feedback	s549
433.763	2.768	0	PA_with_intermediate	n/a	test	ward_and_allport	n/a	-1.0	36.0	n/a	n/a	ITI	s549
436.539	2.491	1	PA_with_intermediate	1,2,0,0,0,0,0,0,0	test	ward_and_allport	1,0,0,2,3,0,0,0,0	89.0	37.0	2.491	1,2,3,0,0,0,0,0,0	to_hand	s549
439.031	0.495	0	PA_with_intermediate	1,2,0,0,0,0,3,0,0	test	ward_and_allport	1,0,0,2,3,0,0,0,0	82.0	37.0	0.495	1,2,3,0,0,0,0,0,0	to_board	s549
439.534	1.82	0	PA_with_intermediate	1,0,0,0,0,0,3,0,0	test	ward_and_allport	1,0,0,2,3,0,0,0,0	89.0	37.0	1.82	1,2,3,0,0,0,0,0,0	to_hand	s549
441.355	0.272	0	PA_with_intermediate	1,0,0,2,0,0,3,0,0	test	ward_and_allport	1,0,0,2,3,0,0,0,0	71.0	37.0	0.272	1,2,3,0,0,0,0,0,0	to_board	s549
441.636	0.393	0	PA_with_intermediate	1,0,0,2,0,0,0,0,0	test	ward_and_allport	1,0,0,2,3,0,0,0,0	82.0	37.0	0.393	1,2,3,0,0,0,0,0,0	to_hand	s549
442.03	0.273	0	PA_with_intermediate	1,0,0,2,3,0,0,0,0	test	ward_and_allport	1,0,0,2,3,0,0,0,0	71.0	37.0	0.273	1,2,3,0,0,0,0,0,0	to_board	s549
442.313	1.0	0	PA_with_intermediate	n/a	test	ward_and_allport	n/a	-1.0	37.0	n/a	n/a	feedback	s549
443.313	1.68	0	PA_with_intermediate	n/a	test	ward_and_allport	n/a	-1.0	37.0	n/a	n/a	ITI	s549
445.001	1.556	1	PA_without_intermediate	1,2,0,0,0,0,0,0,0	test	ward_and_allport	0,0,0,2,0,0,3,1,0	89.0	38.0	1.556	1,2,3,0,0,0,0,0,0	to_hand	s549
446.558	0.799	0	PA_without_intermediate	1,2,0,0,0,0,3,0,0	test	ward_and_allport	0,0,0,2,0,0,3,1,0	82.0	38.0	0.799	1,2,3,0,0,0,0,0,0	to_board	s549
447.362	1.154	0	PA_without_intermediate	1,0,0,0,0,0,3,0,0	test	ward_and_allport	0,0,0,2,0,0,3,1,0	89.0	38.0	1.154	1,2,3,0,0,0,0,0,0	to_hand	s549
448.517	0.362	0	PA_without_intermediate	1,0,0,2,0,0,3,0,0	test	ward_and_allport	0,0,0,2,0,0,3,1,0	71.0	38.0	0.362	1,2,3,0,0,0,0,0,0	to_board	s549
448.888	0.347	0	PA_without_intermediate	0,0,0,2,0,0,3,0,0	test	ward_and_allport	0,0,0,2,0,0,3,1,0	89.0	38.0	0.347	1,2,3,0,0,0,0,0,0	to_hand	s549
449.236	0.433	0	PA_without_intermediate	0,0,0,2,0,0,3,1,0	test	ward_and_allport	0,0,0,2,0,0,3,1,0	82.0	38.0	0.433	1,2,3,0,0,0,0,0,0	to_board	s549
449.679	1.0	0	PA_without_intermediate	n/a	test	ward_and_allport	n/a	-1.0	38.0	n/a	n/a	feedback	s549
450.679	2.224	0	PA_without_intermediate	n/a	test	ward_and_allport	n/a	-1.0	38.0	n/a	n/a	ITI	s549
452.912	2.19	1	PA_without_intermediate	0,0,0,1,2,0,0,0,0	test	ward_and_allport	3,2,0,0,0,0,1,0,0	71.0	39.0	2.19	0,0,0,1,2,3,0,0,0	to_hand	s549
455.103	0.3	0	PA_without_intermediate	3,0,0,1,2,0,0,0,0	test	ward_and_allport	3,2,0,0,0,0,1,0,0	89.0	39.0	0.3	0,0,0,1,2,3,0,0,0	to_board	s549
455.409	0.682	0	PA_without_intermediate	3,0,0,1,0,0,0,0,0	test	ward_and_allport	3,2,0,0,0,0,1,0,0	71.0	39.0	0.682	0,0,0,1,2,3,0,0,0	to_hand	s549
456.091	0.354	0	PA_without_intermediate	3,2,0,1,0,0,0,0,0	test	ward_and_allport	3,2,0,0,0,0,1,0,0	89.0	39.0	0.354	0,0,0,1,2,3,0,0,0	to_board	s549
456.454	0.357	0	PA_without_intermediate	3,2,0,0,0,0,0,0,0	test	ward_and_allport	3,2,0,0,0,0,1,0,0	71.0	39.0	0.357	0,0,0,1,2,3,0,0,0	to_hand	s549
456.811	0.546	0	PA_without_intermediate	3,2,0,0,0,0,1,0,0	test	ward_and_allport	3,2,0,0,0,0,1,0,0	82.0	39.0	0.546	0,0,0,1,2,3,0,0,0	to_board	s549
457.368	1.0	0	PA_without_intermediate	n/a	test	ward_and_allport	n/a	-1.0	39.0	n/a	n/a	feedback	s549
458.368	2.36	0	PA_without_intermediate	n/a	test	ward_and_allport	n/a	-1.0	39.0	n/a	n/a	ITI	s549
460.737	1.378	1	PA_without_intermediate	1,2,0,0,0,0,0,0,0	test	ward_and_allport	0,0,0,3,2,0,1,0,0	89.0	40.0	1.378	1,2,3,0,0,0,0,0,0	to_hand	s549
462.116	0.317	0	PA_without_intermediate	1,2,0,3,0,0,0,0,0	test	ward_and_allport	0,0,0,3,2,0,1,0,0	71.0	40.0	0.317	1,2,3,0,0,0,0,0,0	to_board	s549
462.442	0.342	0	PA_without_intermediate	1,0,0,3,0,0,0,0,0	test	ward_and_allport	0,0,0,3,2,0,1,0,0	89.0	40.0	0.342	1,2,3,0,0,0,0,0,0	to_hand	s549
462.785	0.265	0	PA_without_intermediate	1,0,0,3,2,0,0,0,0	test	ward_and_allport	0,0,0,3,2,0,1,0,0	71.0	40.0	0.265	1,2,3,0,0,0,0,0,0	to_board	s549
463.06	0.419	0	PA_without_intermediate	0,0,0,3,2,0,0,0,0	test	ward_and_allport	0,0,0,3,2,0,1,0,0	89.0	40.0	0.419	1,2,3,0,0,0,0,0,0	to_hand	s549
463.479	0.449	0	PA_without_intermediate	0,0,0,3,2,0,1,0,0	test	ward_and_allport	0,0,0,3,2,0,1,0,0	82.0	40.0	0.449	1,2,3,0,0,0,0,0,0	to_board	s549
463.938	1.0	0	PA_without_intermediate	n/a	test	ward_and_allport	n/a	-1.0	40.0	n/a	n/a	feedback	s549
464.938	1.0	0	PA_without_intermediate	n/a	test	ward_and_allport	n/a	-1.0	40.0	n/a	n/a	ITI	s549
465.946	1.637	1	PA_without_intermediate	0,0,0,0,0,0,1,2,0	test	ward_and_allport	2,0,0,3,1,0,0,0,0	82.0	41.0	1.637	0,0,0,0,0,0,1,2,3	to_hand	s549
467.583	0.946	0	PA_without_intermediate	0,0,0,3,0,0,1,2,0	test	ward_and_allport	2,0,0,3,1,0,0,0,0	71.0	41.0	0.946	0,0,0,0,0,0,1,2,3	to_board	s549
468.536	0.854	0	PA_without_intermediate	0,0,0,3,0,0,1,0,0	test	ward_and_allport	2,0,0,3,1,0,0,0,0	82.0	41.0	0.854	0,0,0,0,0,0,1,2,3	to_hand	s549
469.391	0.423	0	PA_without_intermediate	2,0,0,3,0,0,1,0,0	test	ward_and_allport	2,0,0,3,1,0,0,0,0	89.0	41.0	0.423	0,0,0,0,0,0,1,2,3	to_board	s549
469.82	0.514	0	PA_without_intermediate	2,0,0,3,0,0,0,0,0	test	ward_and_allport	2,0,0,3,1,0,0,0,0	82.0	41.0	0.514	0,0,0,0,0,0,1,2,3	to_hand	s549
470.335	0.371	0	PA_without_intermediate	2,0,0,3,1,0,0,0,0	test	ward_and_allport	2,0,0,3,1,0,0,0,0	71.0	41.0	0.371	0,0,0,0,0,0,1,2,3	to_board	s549
470.718	1.0	0	PA_without_intermediate	n/a	test	ward_and_allport	n/a	-1.0	41.0	n/a	n/a	feedback	s549
471.718	1.408	0	PA_without_intermediate	n/a	test	ward_and_allport	n/a	-1.0	41.0	n/a	n/a	ITI	s549
473.135	2.601	1	PA_with_intermediate	0,0,0,1,2,0,0,0,0	test	ward_and_allport	2,3,0,1,0,0,0,0,0	71.0	42.0	2.601	0,0,0,1,2,3,0,0,0	to_hand	s549
475.736	0.51	0	PA_with_intermediate	0,0,0,1,2,0,3,0,0	test	ward_and_allport	2,3,0,1,0,0,0,0,0	82.0	42.0	0.51	0,0,0,1,2,3,0,0,0	to_board	s549
476.253	0.518	0	PA_with_intermediate	0,0,0,1,0,0,3,0,0	test	ward_and_allport	2,3,0,1,0,0,0,0,0	71.0	42.0	0.518	0,0,0,1,2,3,0,0,0	to_hand	s549
476.771	0.312	0	PA_with_intermediate	2,0,0,1,0,0,3,0,0	test	ward_and_allport	2,3,0,1,0,0,0,0,0	89.0	42.0	0.312	0,0,0,1,2,3,0,0,0	to_board	s549
477.091	0.989	0	PA_with_intermediate	2,0,0,1,0,0,0,0,0	test	ward_and_allport	2,3,0,1,0,0,0,0,0	82.0	42.0	0.989	0,0,0,1,2,3,0,0,0	to_hand	s549
478.082	0.422	0	PA_with_intermediate	2,3,0,1,0,0,0,0,0	test	ward_and_allport	2,3,0,1,0,0,0,0,0	89.0	42.0	0.422	0,0,0,1,2,3,0,0,0	to_board	s549
478.512	1.0	0	PA_with_intermediate	n/a	test	ward_and_allport	n/a	-1.0	42.0	n/a	n/a	feedback	s549
479.512	1.136	0	PA_with_intermediate	n/a	test	ward_and_allport	n/a	-1.0	42.0	n/a	n/a	ITI	s549
480.656	2.716	1	PA_without_intermediate	0,0,0,0,0,0,1,2,0	test	ward_and_allport	1,0,0,3,2,0,0,0,0	82.0	43.0	2.716	0,0,0,0,0,0,1,2,3	to_hand	s549
483.373	0.369	0	PA_without_intermediate	0,0,0,3,0,0,1,2,0	test	ward_and_allport	1,0,0,3,2,0,0,0,0	71.0	43.0	0.369	0,0,0,0,0,0,1,2,3	to_board	s549
483.753	0.713	0	PA_without_intermediate	0,0,0,3,0,0,1,0,0	test	ward_and_allport	1,0,0,3,2,0,0,0,0	82.0	43.0	0.713	0,0,0,0,0,0,1,2,3	to_hand	s549
484.466	0.493	0	PA_without_intermediate	0,0,0,3,2,0,1,0,0	test	ward_and_allport	1,0,0,3,2,0,0,0,0	71.0	43.0	0.493	0,0,0,0,0,0,1,2,3	to_board	s549
484.969	0.496	0	PA_without_intermediate	0,0,0,3,2,0,0,0,0	test	ward_and_allport	1,0,0,3,2,0,0,0,0	82.0	43.0	0.496	0,0,0,0,0,0,1,2,3	to_hand	s549
485.466	0.387	0	PA_without_intermediate	1,0,0,3,2,0,0,0,0	test	ward_and_allport	1,0,0,3,2,0,0,0,0	89.0	43.0	0.387	0,0,0,0,0,0,1,2,3	to_board	s549
485.864	1.0	0	PA_without_intermediate	n/a	test	ward_and_allport	n/a	-1.0	43.0	n/a	n/a	feedback	s549
486.864	4.128	0	PA_without_intermediate	n/a	test	ward_and_allport	n/a	-1.0	43.0	n/a	n/a	ITI	s549
491.0	1.897	1	PA_without_intermediate	0,0,0,1,2,0,0,0,0	test	ward_and_allport	1,0,0,0,0,0,3,2,0	71.0	44.0	1.897	0,0,0,1,2,3,0,0,0	to_hand	s549
492.898	0.426	0	PA_without_intermediate	0,0,0,1,2,0,3,0,0	test	ward_and_allport	1,0,0,0,0,0,3,2,0	82.0	44.0	0.426	0,0,0,1,2,3,0,0,0	to_board	s549
493.333	1.11	0	PA_without_intermediate	0,0,0,1,0,0,3,0,0	test	ward_and_allport	1,0,0,0,0,0,3,2,0	71.0	44.0	1.11	0,0,0,1,2,3,0,0,0	to_hand	s549
494.443	0.46	0	PA_without_intermediate	0,0,0,1,0,0,3,2,0	test	ward_and_allport	1,0,0,0,0,0,3,2,0	82.0	44.0	0.46	0,0,0,1,2,3,0,0,0	to_board	s549
494.912	1.034	0	PA_without_intermediate	0,0,0,0,0,0,3,2,0	test	ward_and_allport	1,0,0,0,0,0,3,2,0	71.0	44.0	1.034	0,0,0,1,2,3,0,0,0	to_hand	s549
495.947	0.365	0	PA_without_intermediate	1,0,0,0,0,0,3,2,0	test	ward_and_allport	1,0,0,0,0,0,3,2,0	89.0	44.0	0.365	0,0,0,1,2,3,0,0,0	to_board	s549
496.325	1.0	0	PA_without_intermediate	n/a	test	ward_and_allport	n/a	-1.0	44.0	n/a	n/a	feedback	s549
497.325	1.136	0	PA_without_intermediate	n/a	test	ward_and_allport	n/a	-1.0	44.0	n/a	n/a	ITI	s549
503.474	2.428	1	PA_without_intermediate	0,0,0,0,0,0,1,2,0	test	ward_and_allport	3,2,0,1,0,0,0,0,0	82.0	45.0	2.428	0,0,0,0,0,0,1,2,3	to_hand	s549
505.903	1.225	0	PA_without_intermediate	3,0,0,0,0,0,1,2,0	test	ward_and_allport	3,2,0,1,0,0,0,0,0	89.0	45.0	1.225	0,0,0,0,0,0,1,2,3	to_board	s549
507.14	2.856	0	PA_without_intermediate	3,0,0,0,0,0,1,0,0	test	ward_and_allport	3,2,0,1,0,0,0,0,0	82.0	45.0	2.856	0,0,0,0,0,0,1,2,3	to_hand	s549
509.998	0.514	0	PA_without_intermediate	3,2,0,0,0,0,1,0,0	test	ward_and_allport	3,2,0,1,0,0,0,0,0	89.0	45.0	0.514	0,0,0,0,0,0,1,2,3	to_board	s549
510.523	1.011	0	PA_without_intermediate	3,2,0,0,0,0,0,0,0	test	ward_and_allport	3,2,0,1,0,0,0,0,0	82.0	45.0	1.011	0,0,0,0,0,0,1,2,3	to_hand	s549
511.535	0.338	0	PA_without_intermediate	3,2,0,1,0,0,0,0,0	test	ward_and_allport	3,2,0,1,0,0,0,0,0	71.0	45.0	0.338	0,0,0,0,0,0,1,2,3	to_board	s549
511.885	1.0	0	PA_without_intermediate	n/a	test	ward_and_allport	n/a	-1.0	45.0	n/a	n/a	feedback	s549
512.885	4.264	0	PA_without_intermediate	n/a	test	ward_and_allport	n/a	-1.0	45.0	n/a	n/a	ITI	s549
517.16	4.753	1	PA_with_intermediate	1,2,0,0,0,0,0,0,0	test	ward_and_allport	1,3,0,2,0,0,0,0,0	89.0	46.0	4.753	1,2,3,0,0,0,0,0,0	to_hand	s549
521.915	0.478	0	PA_with_intermediate	1,2,0,0,0,0,3,0,0	test	ward_and_allport	1,3,0,2,0,0,0,0,0	82.0	46.0	0.478	1,2,3,0,0,0,0,0,0	to_board	s549
522.405	1.07	0	PA_with_intermediate	1,0,0,0,0,0,3,0,0	test	ward_and_allport	1,3,0,2,0,0,0,0,0	89.0	46.0	1.07	1,2,3,0,0,0,0,0,0	to_hand	s549
523.476	0.366	0	PA_with_intermediate	1,0,0,2,0,0,3,0,0	test	ward_and_allport	1,3,0,2,0,0,0,0,0	71.0	46.0	0.366	1,2,3,0,0,0,0,0,0	to_board	s549
523.854	0.84	0	PA_with_intermediate	1,0,0,2,0,0,0,0,0	test	ward_and_allport	1,3,0,2,0,0,0,0,0	82.0	46.0	0.84	1,2,3,0,0,0,0,0,0	to_hand	s549
524.695	0.832	0	PA_with_intermediate	1,3,0,2,0,0,0,0,0	test	ward_and_allport	1,3,0,2,0,0,0,0,0	89.0	46.0	0.832	1,2,3,0,0,0,0,0,0	to_board	s549
525.537	1.0	0	PA_with_intermediate	n/a	test	ward_and_allport	n/a	-1.0	46.0	n/a	n/a	feedback	s549
526.537	3.04	0	PA_with_intermediate	n/a	test	ward_and_allport	n/a	-1.0	46.0	n/a	n/a	ITI	s549
529.586	3.236	1	PA_with_intermediate	1,2,0,0,0,0,0,0,0	test	ward_and_allport	1,3,0,0,0,0,2,0,0	89.0	47.0	3.236	1,2,3,0,0,0,0,0,0	to_hand	s549
532.823	0.597	0	PA_with_intermediate	1,2,0,3,0,0,0,0,0	test	ward_and_allport	1,3,0,0,0,0,2,0,0	71.0	47.0	0.597	1,2,3,0,0,0,0,0,0	to_board	s549
533.43	1.047	0	PA_with_intermediate	1,0,0,3,0,0,0,0,0	test	ward_and_allport	1,3,0,0,0,0,2,0,0	89.0	47.0	1.047	1,2,3,0,0,0,0,0,0	to_hand	s549
534.479	0.769	0	PA_with_intermediate	1,0,0,3,0,0,2,0,0	test	ward_and_allport	1,3,0,0,0,0,2,0,0	82.0	47.0	0.769	1,2,3,0,0,0,0,0,0	to_board	s549
535.259	0.643	0	PA_with_intermediate	1,0,0,0,0,0,2,0,0	test	ward_and_allport	1,3,0,0,0,0,2,0,0	71.0	47.0	0.643	1,2,3,0,0,0,0,0,0	to_hand	s549
535.903	0.472	0	PA_with_intermediate	1,3,0,0,0,0,2,0,0	test	ward_and_allport	1,3,0,0,0,0,2,0,0	89.0	47.0	0.472	1,2,3,0,0,0,0,0,0	to_board	s549
536.386	1.0	0	PA_with_intermediate	n/a	test	ward_and_allport	n/a	-1.0	47.0	n/a	n/a	feedback	s549
537.386	1.136	0	PA_with_intermediate	n/a	test	ward_and_allport	n/a	-1.0	47.0	n/a	n/a	ITI	s549
n/a	n/a	0	n/a	n/a	n/a	n/a	n/a	n/a	n/a	n/a	n/a	ITI	n/a
