onset	duration	planning	condition	current_position	exp_stage	experiment_exp_id	goal_state	key_press	problem_id	response_time	start_state	trial_id	worker_id
-61.382	0.0	0	n/a	n/a	n/a	ward_and_allport	n/a	32.0	n/a	24.874	n/a	instructions	s636
3.005	2.265	1	UA_with_intermediate	1,0,0,2,0,0,0,0,0	practice	ward_and_allport	1,2,3,0,0,0,0,0,0	71.0	0.0	2.265	1,0,0,2,3,0,0,0,0	to_hand	s636
5.272	3.173	0	UA_with_intermediate	1,0,0,2,0,0,3,0,0	practice	ward_and_allport	1,2,3,0,0,0,0,0,0	82.0	0.0	3.173	1,0,0,2,3,0,0,0,0	to_board	s636
8.448	1.941	0	UA_with_intermediate	1,0,0,0,0,0,3,0,0	practice	ward_and_allport	1,2,3,0,0,0,0,0,0	71.0	0.0	1.941	1,0,0,2,3,0,0,0,0	to_hand	s636
10.39	0.375	0	UA_with_intermediate	1,2,0,0,0,0,3,0,0	practice	ward_and_allport	1,2,3,0,0,0,0,0,0	89.0	0.0	0.375	1,0,0,2,3,0,0,0,0	to_board	s636
10.767	2.489	0	UA_with_intermediate	1,2,0,0,0,0,0,0,0	practice	ward_and_allport	1,2,3,0,0,0,0,0,0	82.0	0.0	2.489	1,0,0,2,3,0,0,0,0	to_hand	s636
13.258	0.933	0	UA_with_intermediate	1,2,3,0,0,0,0,0,0	practice	ward_and_allport	1,2,3,0,0,0,0,0,0	89.0	0.0	0.933	1,0,0,2,3,0,0,0,0	to_board	s636
14.196	1.0	0	UA_with_intermediate	n/a	practice	ward_and_allport	n/a	-1.0	0.0	n/a	n/a	feedback	s636
16.698	2.881	1	UA_with_intermediate	1,0,0,3,0,0,0,0,0	practice	ward_and_allport	1,3,2,0,0,0,0,0,0	89.0	1.0	2.881	1,2,0,3,0,0,0,0,0	to_hand	s636
19.58	3.013	0	UA_with_intermediate	1,0,0,3,0,0,2,0,0	practice	ward_and_allport	1,3,2,0,0,0,0,0,0	82.0	1.0	3.013	1,2,0,3,0,0,0,0,0	to_board	s636
22.594	0.492	0	UA_with_intermediate	1,0,0,0,0,0,2,0,0	practice	ward_and_allport	1,3,2,0,0,0,0,0,0	71.0	1.0	0.492	1,2,0,3,0,0,0,0,0	to_hand	s636
23.087	0.56	0	UA_with_intermediate	1,3,0,0,0,0,2,0,0	practice	ward_and_allport	1,3,2,0,0,0,0,0,0	89.0	1.0	0.56	1,2,0,3,0,0,0,0,0	to_board	s636
23.648	0.87	0	UA_with_intermediate	1,3,0,0,0,0,0,0,0	practice	ward_and_allport	1,3,2,0,0,0,0,0,0	82.0	1.0	0.87	1,2,0,3,0,0,0,0,0	to_hand	s636
24.519	0.494	0	UA_with_intermediate	1,3,2,0,0,0,0,0,0	practice	ward_and_allport	1,3,2,0,0,0,0,0,0	89.0	1.0	0.494	1,2,0,3,0,0,0,0,0	to_board	s636
25.015	1.0	0	UA_with_intermediate	n/a	practice	ward_and_allport	n/a	-1.0	1.0	n/a	n/a	feedback	s636
26.015	1.1	0	UA_with_intermediate	n/a	practice	ward_and_allport	n/a	-1.0	1.0	n/a	n/a	ITI	s636
27.118	1.952	1	UA_without_intermediate	0,0,0,1,0,0,3,0,0	practice	ward_and_allport	3,2,1,0,0,0,0,0,0	71.0	2.0	1.952	0,0,0,1,2,0,3,0,0	to_hand	s636
29.071	4.216	0	UA_without_intermediate	0,0,0,1,0,0,3,2,0	practice	ward_and_allport	3,2,1,0,0,0,0,0,0	82.0	2.0	4.216	0,0,0,1,2,0,3,0,0	to_board	s636
33.288	0.954	0	UA_without_intermediate	0,0,0,0,0,0,3,2,0	practice	ward_and_allport	3,2,1,0,0,0,0,0,0	71.0	2.0	0.954	0,0,0,1,2,0,3,0,0	to_hand	s636
34.243	0.409	0	UA_without_intermediate	1,0,0,0,0,0,3,2,0	practice	ward_and_allport	3,2,1,0,0,0,0,0,0	89.0	2.0	0.409	0,0,0,1,2,0,3,0,0	to_board	s636
34.654	3.687	0	UA_without_intermediate	0,0,0,0,0,0,3,2,0	practice	ward_and_allport	3,2,1,0,0,0,0,0,0	89.0	2.0	3.687	0,0,0,1,2,0,3,0,0	to_hand	s636
38.342	0.841	0	UA_without_intermediate	0,0,0,1,0,0,3,2,0	practice	ward_and_allport	3,2,1,0,0,0,0,0,0	71.0	2.0	0.841	0,0,0,1,2,0,3,0,0	to_board	s636
39.185	1.977	0	UA_without_intermediate	0,0,0,1,0,0,3,0,0	practice	ward_and_allport	3,2,1,0,0,0,0,0,0	82.0	2.0	1.977	0,0,0,1,2,0,3,0,0	to_hand	s636
41.163	0.889	0	UA_without_intermediate	0,0,0,1,2,0,3,0,0	practice	ward_and_allport	3,2,1,0,0,0,0,0,0	71.0	2.0	0.889	0,0,0,1,2,0,3,0,0	to_board	s636
42.054	1.166	0	UA_without_intermediate	0,0,0,1,2,0,0,0,0	practice	ward_and_allport	3,2,1,0,0,0,0,0,0	82.0	2.0	1.166	0,0,0,1,2,0,3,0,0	to_hand	s636
43.221	0.483	0	UA_without_intermediate	3,0,0,1,2,0,0,0,0	practice	ward_and_allport	3,2,1,0,0,0,0,0,0	89.0	2.0	0.483	0,0,0,1,2,0,3,0,0	to_board	s636
43.706	0.745	0	UA_without_intermediate	3,0,0,1,0,0,0,0,0	practice	ward_and_allport	3,2,1,0,0,0,0,0,0	71.0	2.0	0.745	0,0,0,1,2,0,3,0,0	to_hand	s636
44.452	0.411	0	UA_without_intermediate	3,2,0,1,0,0,0,0,0	practice	ward_and_allport	3,2,1,0,0,0,0,0,0	89.0	2.0	0.411	0,0,0,1,2,0,3,0,0	to_board	s636
44.865	0.284	0	UA_without_intermediate	3,2,0,0,0,0,0,0,0	practice	ward_and_allport	3,2,1,0,0,0,0,0,0	71.0	2.0	0.284	0,0,0,1,2,0,3,0,0	to_hand	s636
45.151	0.305	0	UA_without_intermediate	3,2,1,0,0,0,0,0,0	practice	ward_and_allport	3,2,1,0,0,0,0,0,0	89.0	2.0	0.305	0,0,0,1,2,0,3,0,0	to_board	s636
45.458	1.0	0	UA_without_intermediate	n/a	practice	ward_and_allport	n/a	-1.0	2.0	n/a	n/a	feedback	s636
46.458	1.2	0	UA_without_intermediate	n/a	practice	ward_and_allport	n/a	-1.0	2.0	n/a	n/a	ITI	s636
47.66	2.808	1	UA_without_intermediate	0,0,0,1,0,0,3,0,0	practice	ward_and_allport	2,3,1,0,0,0,0,0,0	71.0	3.0	2.808	0,0,0,1,2,0,3,0,0	to_hand	s636
50.469	0.326	0	UA_without_intermediate	2,0,0,1,0,0,3,0,0	practice	ward_and_allport	2,3,1,0,0,0,0,0,0	89.0	3.0	0.326	0,0,0,1,2,0,3,0,0	to_board	s636
50.797	2.123	0	UA_without_intermediate	2,0,0,1,0,0,0,0,0	practice	ward_and_allport	2,3,1,0,0,0,0,0,0	82.0	3.0	2.123	0,0,0,1,2,0,3,0,0	to_hand	s636
52.921	0.748	0	UA_without_intermediate	2,3,0,1,0,0,0,0,0	practice	ward_and_allport	2,3,1,0,0,0,0,0,0	89.0	3.0	0.748	0,0,0,1,2,0,3,0,0	to_board	s636
53.671	0.405	0	UA_without_intermediate	2,3,0,0,0,0,0,0,0	practice	ward_and_allport	2,3,1,0,0,0,0,0,0	71.0	3.0	0.405	0,0,0,1,2,0,3,0,0	to_hand	s636
54.077	0.241	0	UA_without_intermediate	2,3,1,0,0,0,0,0,0	practice	ward_and_allport	2,3,1,0,0,0,0,0,0	89.0	3.0	0.241	0,0,0,1,2,0,3,0,0	to_board	s636
54.321	1.0	0	UA_without_intermediate	n/a	practice	ward_and_allport	n/a	-1.0	3.0	n/a	n/a	feedback	s636
55.321	1.0	0	UA_without_intermediate	n/a	practice	ward_and_allport	n/a	-1.0	3.0	n/a	n/a	ITI	s636
58.325	2.4	1	PA_without_intermediate	0,0,0,1,2,0,0,0,0	test	ward_and_allport	3,1,0,0,0,0,2,0,0	71.0	0.0	2.4	0,0,0,1,2,3,0,0,0	to_hand	s636
60.726	1.105	0	PA_without_intermediate	3,0,0,1,2,0,0,0,0	test	ward_and_allport	3,1,0,0,0,0,2,0,0	89.0	0.0	1.105	0,0,0,1,2,3,0,0,0	to_board	s636
61.833	0.669	0	PA_without_intermediate	3,0,0,1,0,0,0,0,0	test	ward_and_allport	3,1,0,0,0,0,2,0,0	71.0	0.0	0.669	0,0,0,1,2,3,0,0,0	to_hand	s636
62.503	0.741	0	PA_without_intermediate	3,0,0,1,0,0,2,0,0	test	ward_and_allport	3,1,0,0,0,0,2,0,0	82.0	0.0	0.741	0,0,0,1,2,3,0,0,0	to_board	s636
63.246	0.411	0	PA_without_intermediate	3,0,0,0,0,0,2,0,0	test	ward_and_allport	3,1,0,0,0,0,2,0,0	71.0	0.0	0.411	0,0,0,1,2,3,0,0,0	to_hand	s636
63.657	0.262	0	PA_without_intermediate	3,1,0,0,0,0,2,0,0	test	ward_and_allport	3,1,0,0,0,0,2,0,0	89.0	0.0	0.262	0,0,0,1,2,3,0,0,0	to_board	s636
63.923	1.0	0	PA_without_intermediate	n/a	test	ward_and_allport	n/a	-1.0	0.0	n/a	n/a	feedback	s636
64.923	2.088	0	PA_without_intermediate	n/a	test	ward_and_allport	n/a	-1.0	0.0	n/a	n/a	ITI	s636
67.014	3.442	1	PA_with_intermediate	0,0,0,1,2,0,0,0,0	test	ward_and_allport	2,3,0,1,0,0,0,0,0	71.0	1.0	3.442	0,0,0,1,2,3,0,0,0	to_hand	s636
70.457	3.42	0	PA_with_intermediate	0,0,0,1,2,0,3,0,0	test	ward_and_allport	2,3,0,1,0,0,0,0,0	82.0	1.0	3.42	0,0,0,1,2,3,0,0,0	to_board	s636
73.88	1.192	0	PA_with_intermediate	0,0,0,1,0,0,3,0,0	test	ward_and_allport	2,3,0,1,0,0,0,0,0	71.0	1.0	1.192	0,0,0,1,2,3,0,0,0	to_hand	s636
75.073	0.224	0	PA_with_intermediate	2,0,0,1,0,0,3,0,0	test	ward_and_allport	2,3,0,1,0,0,0,0,0	89.0	1.0	0.224	0,0,0,1,2,3,0,0,0	to_board	s636
75.299	0.403	0	PA_with_intermediate	2,0,0,0,0,0,3,0,0	test	ward_and_allport	2,3,0,1,0,0,0,0,0	71.0	1.0	0.403	0,0,0,1,2,3,0,0,0	to_hand	s636
75.704	1.31	0	PA_with_intermediate	2,0,0,1,0,0,3,0,0	test	ward_and_allport	2,3,0,1,0,0,0,0,0	71.0	1.0	1.31	0,0,0,1,2,3,0,0,0	to_board	s636
77.016	1.2	0	PA_with_intermediate	2,0,0,1,0,0,0,0,0	test	ward_and_allport	2,3,0,1,0,0,0,0,0	82.0	1.0	1.2	0,0,0,1,2,3,0,0,0	to_hand	s636
78.217	0.371	0	PA_with_intermediate	2,3,0,1,0,0,0,0,0	test	ward_and_allport	2,3,0,1,0,0,0,0,0	89.0	1.0	0.371	0,0,0,1,2,3,0,0,0	to_board	s636
78.591	1.0	0	PA_with_intermediate	n/a	test	ward_and_allport	n/a	-1.0	1.0	n/a	n/a	feedback	s636
79.591	1.0	0	PA_with_intermediate	n/a	test	ward_and_allport	n/a	-1.0	1.0	n/a	n/a	ITI	s636
80.595	6.326	1	PA_without_intermediate	0,0,0,0,0,0,1,2,0	test	ward_and_allport	2,0,0,3,1,0,0,0,0	82.0	2.0	6.326	0,0,0,0,0,0,1,2,3	to_hand	s636
86.922	0.512	0	PA_without_intermediate	0,0,0,3,0,0,1,2,0	test	ward_and_allport	2,0,0,3,1,0,0,0,0	71.0	2.0	0.512	0,0,0,0,0,0,1,2,3	to_board	s636
87.435	1.217	0	PA_without_intermediate	0,0,0,3,0,0,1,0,0	test	ward_and_allport	2,0,0,3,1,0,0,0,0	82.0	2.0	1.217	0,0,0,0,0,0,1,2,3	to_hand	s636
88.653	0.598	0	PA_without_intermediate	2,0,0,3,0,0,1,0,0	test	ward_and_allport	2,0,0,3,1,0,0,0,0	89.0	2.0	0.598	0,0,0,0,0,0,1,2,3	to_board	s636
89.255	1.123	0	PA_without_intermediate	2,0,0,3,0,0,0,0,0	test	ward_and_allport	2,0,0,3,1,0,0,0,0	82.0	2.0	1.123	0,0,0,0,0,0,1,2,3	to_hand	s636
90.379	0.383	0	PA_without_intermediate	2,0,0,3,1,0,0,0,0	test	ward_and_allport	2,0,0,3,1,0,0,0,0	71.0	2.0	0.383	0,0,0,0,0,0,1,2,3	to_board	s636
90.764	1.0	0	PA_without_intermediate	n/a	test	ward_and_allport	n/a	-1.0	2.0	n/a	n/a	feedback	s636
91.764	1.0	0	PA_without_intermediate	n/a	test	ward_and_allport	n/a	-1.0	2.0	n/a	n/a	ITI	s636
92.768	1.489	1	PA_without_intermediate	0,0,0,0,0,0,1,2,0	test	ward_and_allport	3,2,0,1,0,0,0,0,0	82.0	3.0	1.489	0,0,0,0,0,0,1,2,3	to_hand	s636
94.258	2.001	0	PA_without_intermediate	3,0,0,0,0,0,1,2,0	test	ward_and_allport	3,2,0,1,0,0,0,0,0	89.0	3.0	2.001	0,0,0,0,0,0,1,2,3	to_board	s636
96.262	0.769	0	PA_without_intermediate	3,0,0,0,0,0,1,0,0	test	ward_and_allport	3,2,0,1,0,0,0,0,0	82.0	3.0	0.769	0,0,0,0,0,0,1,2,3	to_hand	s636
97.032	0.466	0	PA_without_intermediate	3,2,0,0,0,0,1,0,0	test	ward_and_allport	3,2,0,1,0,0,0,0,0	89.0	3.0	0.466	0,0,0,0,0,0,1,2,3	to_board	s636
97.501	0.585	0	PA_without_intermediate	3,2,0,0,0,0,0,0,0	test	ward_and_allport	3,2,0,1,0,0,0,0,0	82.0	3.0	0.585	0,0,0,0,0,0,1,2,3	to_hand	s636
98.087	0.495	0	PA_without_intermediate	3,2,0,1,0,0,0,0,0	test	ward_and_allport	3,2,0,1,0,0,0,0,0	71.0	3.0	0.495	0,0,0,0,0,0,1,2,3	to_board	s636
98.585	1.0	0	PA_without_intermediate	n/a	test	ward_and_allport	n/a	-1.0	3.0	n/a	n/a	feedback	s636
99.585	1.0	0	PA_without_intermediate	n/a	test	ward_and_allport	n/a	-1.0	3.0	n/a	n/a	ITI	s636
100.589	1.683	1	PA_with_intermediate	0,0,0,1,2,0,0,0,0	test	ward_and_allport	0,0,0,1,0,0,2,3,0	71.0	4.0	1.683	0,0,0,1,2,3,0,0,0	to_hand	s636
102.273	3.739	0	PA_with_intermediate	3,0,0,1,2,0,0,0,0	test	ward_and_allport	0,0,0,1,0,0,2,3,0	89.0	4.0	3.739	0,0,0,1,2,3,0,0,0	to_board	s636
106.016	0.679	0	PA_with_intermediate	3,0,0,1,0,0,0,0,0	test	ward_and_allport	0,0,0,1,0,0,2,3,0	71.0	4.0	0.679	0,0,0,1,2,3,0,0,0	to_hand	s636
106.697	0.459	0	PA_with_intermediate	3,0,0,1,0,0,2,0,0	test	ward_and_allport	0,0,0,1,0,0,2,3,0	82.0	4.0	0.459	0,0,0,1,2,3,0,0,0	to_board	s636
107.159	0.477	0	PA_with_intermediate	0,0,0,1,0,0,2,0,0	test	ward_and_allport	0,0,0,1,0,0,2,3,0	89.0	4.0	0.477	0,0,0,1,2,3,0,0,0	to_hand	s636
107.637	0.295	0	PA_with_intermediate	0,0,0,1,3,0,2,0,0	test	ward_and_allport	0,0,0,1,0,0,2,3,0	71.0	4.0	0.295	0,0,0,1,2,3,0,0,0	to_board	s636
107.935	1.053	0	PA_with_intermediate	0,0,0,1,0,0,2,0,0	test	ward_and_allport	0,0,0,1,0,0,2,3,0	71.0	4.0	1.053	0,0,0,1,2,3,0,0,0	to_hand	s636
108.99	0.351	0	PA_with_intermediate	0,0,0,1,0,0,2,3,0	test	ward_and_allport	0,0,0,1,0,0,2,3,0	82.0	4.0	0.351	0,0,0,1,2,3,0,0,0	to_board	s636
109.346	1.0	0	PA_with_intermediate	n/a	test	ward_and_allport	n/a	-1.0	4.0	n/a	n/a	feedback	s636
110.346	1.544	0	PA_with_intermediate	n/a	test	ward_and_allport	n/a	-1.0	4.0	n/a	n/a	ITI	s636
111.895	4.228	1	PA_without_intermediate	0,0,0,0,0,0,1,2,0	test	ward_and_allport	3,2,0,1,0,0,0,0,0	82.0	5.0	4.228	0,0,0,0,0,0,1,2,3	to_hand	s636
116.124	0.608	0	PA_without_intermediate	3,0,0,0,0,0,1,2,0	test	ward_and_allport	3,2,0,1,0,0,0,0,0	89.0	5.0	0.608	0,0,0,0,0,0,1,2,3	to_board	s636
116.735	0.992	0	PA_without_intermediate	3,0,0,0,0,0,1,0,0	test	ward_and_allport	3,2,0,1,0,0,0,0,0	82.0	5.0	0.992	0,0,0,0,0,0,1,2,3	to_hand	s636
117.728	0.576	0	PA_without_intermediate	3,2,0,0,0,0,1,0,0	test	ward_and_allport	3,2,0,1,0,0,0,0,0	89.0	5.0	0.576	0,0,0,0,0,0,1,2,3	to_board	s636
118.308	1.081	0	PA_without_intermediate	3,2,0,0,0,0,0,0,0	test	ward_and_allport	3,2,0,1,0,0,0,0,0	82.0	5.0	1.081	0,0,0,0,0,0,1,2,3	to_hand	s636
119.39	0.491	0	PA_without_intermediate	3,2,0,1,0,0,0,0,0	test	ward_and_allport	3,2,0,1,0,0,0,0,0	71.0	5.0	0.491	0,0,0,0,0,0,1,2,3	to_board	s636
119.884	1.0	0	PA_without_intermediate	n/a	test	ward_and_allport	n/a	-1.0	5.0	n/a	n/a	feedback	s636
120.884	1.272	0	PA_without_intermediate	n/a	test	ward_and_allport	n/a	-1.0	5.0	n/a	n/a	ITI	s636
122.159	3.906	1	PA_with_intermediate	0,0,0,0,0,0,1,2,0	test	ward_and_allport	2,0,0,0,0,0,1,3,0	82.0	6.0	3.906	0,0,0,0,0,0,1,2,3	to_hand	s636
126.066	0.369	0	PA_with_intermediate	0,0,0,3,0,0,1,2,0	test	ward_and_allport	2,0,0,0,0,0,1,3,0	71.0	6.0	0.369	0,0,0,0,0,0,1,2,3	to_board	s636
126.438	0.402	0	PA_with_intermediate	0,0,0,3,0,0,1,0,0	test	ward_and_allport	2,0,0,0,0,0,1,3,0	82.0	6.0	0.402	0,0,0,0,0,0,1,2,3	to_hand	s636
126.841	0.391	0	PA_with_intermediate	2,0,0,3,0,0,1,0,0	test	ward_and_allport	2,0,0,0,0,0,1,3,0	89.0	6.0	0.391	0,0,0,0,0,0,1,2,3	to_board	s636
127.235	0.562	0	PA_with_intermediate	2,0,0,0,0,0,1,0,0	test	ward_and_allport	2,0,0,0,0,0,1,3,0	71.0	6.0	0.562	0,0,0,0,0,0,1,2,3	to_hand	s636
127.798	0.361	0	PA_with_intermediate	2,0,0,0,0,0,1,3,0	test	ward_and_allport	2,0,0,0,0,0,1,3,0	82.0	6.0	0.361	0,0,0,0,0,0,1,2,3	to_board	s636
128.163	1.0	0	PA_with_intermediate	n/a	test	ward_and_allport	n/a	-1.0	6.0	n/a	n/a	feedback	s636
129.163	3.04	0	PA_with_intermediate	n/a	test	ward_and_allport	n/a	-1.0	6.0	n/a	n/a	ITI	s636
132.206	3.718	1	PA_with_intermediate	0,0,0,0,0,0,1,2,0	test	ward_and_allport	0,0,0,2,0,0,1,3,0	82.0	7.0	3.718	0,0,0,0,0,0,1,2,3	to_hand	s636
135.925	0.446	0	PA_with_intermediate	3,0,0,0,0,0,1,2,0	test	ward_and_allport	0,0,0,2,0,0,1,3,0	89.0	7.0	0.446	0,0,0,0,0,0,1,2,3	to_board	s636
136.374	0.372	0	PA_with_intermediate	3,0,0,0,0,0,1,0,0	test	ward_and_allport	0,0,0,2,0,0,1,3,0	82.0	7.0	0.372	0,0,0,0,0,0,1,2,3	to_hand	s636
136.747	0.632	0	PA_with_intermediate	3,0,0,2,0,0,1,0,0	test	ward_and_allport	0,0,0,2,0,0,1,3,0	71.0	7.0	0.632	0,0,0,0,0,0,1,2,3	to_board	s636
137.383	0.553	0	PA_with_intermediate	0,0,0,2,0,0,1,0,0	test	ward_and_allport	0,0,0,2,0,0,1,3,0	89.0	7.0	0.553	0,0,0,0,0,0,1,2,3	to_hand	s636
137.937	0.354	0	PA_with_intermediate	0,0,0,2,0,0,1,3,0	test	ward_and_allport	0,0,0,2,0,0,1,3,0	82.0	7.0	0.354	0,0,0,0,0,0,1,2,3	to_board	s636
138.295	1.0	0	PA_with_intermediate	n/a	test	ward_and_allport	n/a	-1.0	7.0	n/a	n/a	feedback	s636
139.295	1.272	0	PA_with_intermediate	n/a	test	ward_and_allport	n/a	-1.0	7.0	n/a	n/a	ITI	s636
140.57	3.204	1	PA_with_intermediate	1,2,0,0,0,0,0,0,0	test	ward_and_allport	1,3,0,2,0,0,0,0,0	89.0	8.0	3.204	1,2,3,0,0,0,0,0,0	to_hand	s636
143.775	0.487	0	PA_with_intermediate	1,2,0,0,0,0,3,0,0	test	ward_and_allport	1,3,0,2,0,0,0,0,0	82.0	8.0	0.487	1,2,3,0,0,0,0,0,0	to_board	s636
144.266	0.704	0	PA_with_intermediate	1,0,0,0,0,0,3,0,0	test	ward_and_allport	1,3,0,2,0,0,0,0,0	89.0	8.0	0.704	1,2,3,0,0,0,0,0,0	to_hand	s636
144.971	0.583	0	PA_with_intermediate	1,0,0,2,0,0,3,0,0	test	ward_and_allport	1,3,0,2,0,0,0,0,0	71.0	8.0	0.583	1,2,3,0,0,0,0,0,0	to_board	s636
145.559	1.071	0	PA_with_intermediate	1,0,0,2,0,0,0,0,0	test	ward_and_allport	1,3,0,2,0,0,0,0,0	82.0	8.0	1.071	1,2,3,0,0,0,0,0,0	to_hand	s636
146.63	0.445	0	PA_with_intermediate	1,3,0,2,0,0,0,0,0	test	ward_and_allport	1,3,0,2,0,0,0,0,0	89.0	8.0	0.445	1,2,3,0,0,0,0,0,0	to_board	s636
147.08	1.0	0	PA_with_intermediate	n/a	test	ward_and_allport	n/a	-1.0	8.0	n/a	n/a	feedback	s636
148.08	1.136	0	PA_with_intermediate	n/a	test	ward_and_allport	n/a	-1.0	8.0	n/a	n/a	ITI	s636
149.219	2.282	1	PA_with_intermediate	0,0,0,1,2,0,0,0,0	test	ward_and_allport	2,0,0,1,3,0,0,0,0	71.0	9.0	2.282	0,0,0,1,2,3,0,0,0	to_hand	s636
151.503	1.656	0	PA_with_intermediate	0,0,0,1,2,0,3,0,0	test	ward_and_allport	2,0,0,1,3,0,0,0,0	82.0	9.0	1.656	0,0,0,1,2,3,0,0,0	to_board	s636
153.163	0.351	0	PA_with_intermediate	0,0,0,1,0,0,3,0,0	test	ward_and_allport	2,0,0,1,3,0,0,0,0	71.0	9.0	0.351	0,0,0,1,2,3,0,0,0	to_hand	s636
153.515	0.251	0	PA_with_intermediate	2,0,0,1,0,0,3,0,0	test	ward_and_allport	2,0,0,1,3,0,0,0,0	89.0	9.0	0.251	0,0,0,1,2,3,0,0,0	to_board	s636
153.769	1.309	0	PA_with_intermediate	2,0,0,1,0,0,0,0,0	test	ward_and_allport	2,0,0,1,3,0,0,0,0	82.0	9.0	1.309	0,0,0,1,2,3,0,0,0	to_hand	s636
155.079	0.254	0	PA_with_intermediate	2,3,0,1,0,0,0,0,0	test	ward_and_allport	2,0,0,1,3,0,0,0,0	89.0	9.0	0.254	0,0,0,1,2,3,0,0,0	to_board	s636
155.338	1.172	0	PA_with_intermediate	2,0,0,1,0,0,0,0,0	test	ward_and_allport	2,0,0,1,3,0,0,0,0	89.0	9.0	1.172	0,0,0,1,2,3,0,0,0	to_hand	s636
156.511	0.241	0	PA_with_intermediate	2,0,0,1,0,0,3,0,0	test	ward_and_allport	2,0,0,1,3,0,0,0,0	82.0	9.0	0.241	0,0,0,1,2,3,0,0,0	to_board	s636
156.757	0.167	0	PA_with_intermediate	2,0,0,0,0,0,3,0,0	test	ward_and_allport	2,0,0,1,3,0,0,0,0	71.0	9.0	0.167	0,0,0,1,2,3,0,0,0	to_hand	s636
156.925	0.777	0	PA_with_intermediate	2,0,0,1,0,0,3,0,0	test	ward_and_allport	2,0,0,1,3,0,0,0,0	71.0	9.0	0.777	0,0,0,1,2,3,0,0,0	to_board	s636
157.707	1.213	0	PA_with_intermediate	2,0,0,1,0,0,0,0,0	test	ward_and_allport	2,0,0,1,3,0,0,0,0	82.0	9.0	1.213	0,0,0,1,2,3,0,0,0	to_hand	s636
158.921	0.404	0	PA_with_intermediate	2,0,0,1,3,0,0,0,0	test	ward_and_allport	2,0,0,1,3,0,0,0,0	71.0	9.0	0.404	0,0,0,1,2,3,0,0,0	to_board	s636
159.329	1.0	0	PA_with_intermediate	n/a	test	ward_and_allport	n/a	-1.0	9.0	n/a	n/a	feedback	s636
160.329	1.0	0	PA_with_intermediate	n/a	test	ward_and_allport	n/a	-1.0	9.0	n/a	n/a	ITI	s636
161.334	3.099	1	PA_with_intermediate	1,2,0,0,0,0,0,0,0	test	ward_and_allport	1,3,0,2,0,0,0,0,0	89.0	10.0	3.099	1,2,3,0,0,0,0,0,0	to_hand	s636
164.434	2.461	0	PA_with_intermediate	1,2,0,0,0,0,3,0,0	test	ward_and_allport	1,3,0,2,0,0,0,0,0	82.0	10.0	2.461	1,2,3,0,0,0,0,0,0	to_board	s636
166.9	0.526	0	PA_with_intermediate	1,0,0,0,0,0,3,0,0	test	ward_and_allport	1,3,0,2,0,0,0,0,0	89.0	10.0	0.526	1,2,3,0,0,0,0,0,0	to_hand	s636
167.427	0.301	0	PA_with_intermediate	1,0,0,2,0,0,3,0,0	test	ward_and_allport	1,3,0,2,0,0,0,0,0	71.0	10.0	0.301	1,2,3,0,0,0,0,0,0	to_board	s636
167.732	0.304	0	PA_with_intermediate	1,0,0,2,0,0,0,0,0	test	ward_and_allport	1,3,0,2,0,0,0,0,0	82.0	10.0	0.304	1,2,3,0,0,0,0,0,0	to_hand	s636
168.038	0.226	0	PA_with_intermediate	1,3,0,2,0,0,0,0,0	test	ward_and_allport	1,3,0,2,0,0,0,0,0	89.0	10.0	0.226	1,2,3,0,0,0,0,0,0	to_board	s636
168.269	1.0	0	PA_with_intermediate	n/a	test	ward_and_allport	n/a	-1.0	10.0	n/a	n/a	feedback	s636
169.269	1.0	0	PA_with_intermediate	n/a	test	ward_and_allport	n/a	-1.0	10.0	n/a	n/a	ITI	s636
170.273	2.876	1	PA_without_intermediate	1,2,0,0,0,0,0,0,0	test	ward_and_allport	0,0,0,3,1,0,2,0,0	89.0	11.0	2.876	1,2,3,0,0,0,0,0,0	to_hand	s636
173.15	0.888	0	PA_without_intermediate	1,2,0,3,0,0,0,0,0	test	ward_and_allport	0,0,0,3,1,0,2,0,0	71.0	11.0	0.888	1,2,3,0,0,0,0,0,0	to_board	s636
174.043	0.401	0	PA_without_intermediate	1,0,0,3,0,0,0,0,0	test	ward_and_allport	0,0,0,3,1,0,2,0,0	89.0	11.0	0.401	1,2,3,0,0,0,0,0,0	to_hand	s636
174.444	0.377	0	PA_without_intermediate	1,0,0,3,0,0,2,0,0	test	ward_and_allport	0,0,0,3,1,0,2,0,0	82.0	11.0	0.377	1,2,3,0,0,0,0,0,0	to_board	s636
174.826	0.341	0	PA_without_intermediate	0,0,0,3,0,0,2,0,0	test	ward_and_allport	0,0,0,3,1,0,2,0,0	89.0	11.0	0.341	1,2,3,0,0,0,0,0,0	to_hand	s636
175.169	0.46	0	PA_without_intermediate	0,0,0,3,1,0,2,0,0	test	ward_and_allport	0,0,0,3,1,0,2,0,0	71.0	11.0	0.46	1,2,3,0,0,0,0,0,0	to_board	s636
175.633	1.0	0	PA_without_intermediate	n/a	test	ward_and_allport	n/a	-1.0	11.0	n/a	n/a	feedback	s636
176.633	1.408	0	PA_without_intermediate	n/a	test	ward_and_allport	n/a	-1.0	11.0	n/a	n/a	ITI	s636
178.045	4.676	1	PA_with_intermediate	0,0,0,0,0,0,1,2,0	test	ward_and_allport	2,3,0,0,0,0,1,0,0	82.0	12.0	4.676	0,0,0,0,0,0,1,2,3	to_hand	s636
182.722	0.958	0	PA_with_intermediate	0,0,0,3,0,0,1,2,0	test	ward_and_allport	2,3,0,0,0,0,1,0,0	71.0	12.0	0.958	0,0,0,0,0,0,1,2,3	to_board	s636
183.685	0.363	0	PA_with_intermediate	0,0,0,3,0,0,1,0,0	test	ward_and_allport	2,3,0,0,0,0,1,0,0	82.0	12.0	0.363	0,0,0,0,0,0,1,2,3	to_hand	s636
184.05	0.36	0	PA_with_intermediate	2,0,0,3,0,0,1,0,0	test	ward_and_allport	2,3,0,0,0,0,1,0,0	89.0	12.0	0.36	0,0,0,0,0,0,1,2,3	to_board	s636
184.415	0.385	0	PA_with_intermediate	2,0,0,3,0,0,0,0,0	test	ward_and_allport	2,3,0,0,0,0,1,0,0	82.0	12.0	0.385	0,0,0,0,0,0,1,2,3	to_hand	s636
184.8	0.881	0	PA_with_intermediate	2,1,0,3,0,0,0,0,0	test	ward_and_allport	2,3,0,0,0,0,1,0,0	89.0	12.0	0.881	0,0,0,0,0,0,1,2,3	to_board	s636
185.688	0.854	0	PA_with_intermediate	2,0,0,3,0,0,0,0,0	test	ward_and_allport	2,3,0,0,0,0,1,0,0	89.0	12.0	0.854	0,0,0,0,0,0,1,2,3	to_hand	s636
186.544	0.359	0	PA_with_intermediate	2,0,0,3,0,0,1,0,0	test	ward_and_allport	2,3,0,0,0,0,1,0,0	82.0	12.0	0.359	0,0,0,0,0,0,1,2,3	to_board	s636
186.912	0.473	0	PA_with_intermediate	2,0,0,0,0,0,1,0,0	test	ward_and_allport	2,3,0,0,0,0,1,0,0	71.0	12.0	0.473	0,0,0,0,0,0,1,2,3	to_hand	s636
187.386	0.287	0	PA_with_intermediate	2,3,0,0,0,0,1,0,0	test	ward_and_allport	2,3,0,0,0,0,1,0,0	89.0	12.0	0.287	0,0,0,0,0,0,1,2,3	to_board	s636
187.678	1.0	0	PA_with_intermediate	n/a	test	ward_and_allport	n/a	-1.0	12.0	n/a	n/a	feedback	s636
188.678	2.768	0	PA_with_intermediate	n/a	test	ward_and_allport	n/a	-1.0	12.0	n/a	n/a	ITI	s636
191.45	2.862	1	PA_with_intermediate	0,0,0,1,2,0,0,0,0	test	ward_and_allport	0,0,0,1,3,0,2,0,0	71.0	13.0	2.862	0,0,0,1,2,3,0,0,0	to_hand	s636
194.314	1.219	0	PA_with_intermediate	3,0,0,1,2,0,0,0,0	test	ward_and_allport	0,0,0,1,3,0,2,0,0	89.0	13.0	1.219	0,0,0,1,2,3,0,0,0	to_board	s636
195.538	0.33	0	PA_with_intermediate	3,0,0,1,0,0,0,0,0	test	ward_and_allport	0,0,0,1,3,0,2,0,0	71.0	13.0	0.33	0,0,0,1,2,3,0,0,0	to_hand	s636
195.869	0.323	0	PA_with_intermediate	3,0,0,1,0,0,2,0,0	test	ward_and_allport	0,0,0,1,3,0,2,0,0	82.0	13.0	0.323	0,0,0,1,2,3,0,0,0	to_board	s636
196.196	0.253	0	PA_with_intermediate	0,0,0,1,0,0,2,0,0	test	ward_and_allport	0,0,0,1,3,0,2,0,0	89.0	13.0	0.253	0,0,0,1,2,3,0,0,0	to_hand	s636
196.451	0.369	0	PA_with_intermediate	0,0,0,1,3,0,2,0,0	test	ward_and_allport	0,0,0,1,3,0,2,0,0	71.0	13.0	0.369	0,0,0,1,2,3,0,0,0	to_board	s636
196.825	1.0	0	PA_with_intermediate	n/a	test	ward_and_allport	n/a	-1.0	13.0	n/a	n/a	feedback	s636
197.825	1.68	0	PA_with_intermediate	n/a	test	ward_and_allport	n/a	-1.0	13.0	n/a	n/a	ITI	s636
199.509	3.188	1	PA_without_intermediate	1,2,0,0,0,0,0,0,0	test	ward_and_allport	0,0,0,2,0,0,3,1,0	89.0	14.0	3.188	1,2,3,0,0,0,0,0,0	to_hand	s636
202.698	0.441	0	PA_without_intermediate	1,2,0,0,0,0,3,0,0	test	ward_and_allport	0,0,0,2,0,0,3,1,0	82.0	14.0	0.441	1,2,3,0,0,0,0,0,0	to_board	s636
203.143	1.03	0	PA_without_intermediate	1,0,0,0,0,0,3,0,0	test	ward_and_allport	0,0,0,2,0,0,3,1,0	89.0	14.0	1.03	1,2,3,0,0,0,0,0,0	to_hand	s636
204.174	0.43	0	PA_without_intermediate	1,0,0,2,0,0,3,0,0	test	ward_and_allport	0,0,0,2,0,0,3,1,0	71.0	14.0	0.43	1,2,3,0,0,0,0,0,0	to_board	s636
204.608	0.409	0	PA_without_intermediate	0,0,0,2,0,0,3,0,0	test	ward_and_allport	0,0,0,2,0,0,3,1,0	89.0	14.0	0.409	1,2,3,0,0,0,0,0,0	to_hand	s636
205.018	0.31	0	PA_without_intermediate	0,0,0,2,1,0,3,0,0	test	ward_and_allport	0,0,0,2,0,0,3,1,0	71.0	14.0	0.31	1,2,3,0,0,0,0,0,0	to_board	s636
205.333	0.878	0	PA_without_intermediate	0,0,0,2,0,0,3,0,0	test	ward_and_allport	0,0,0,2,0,0,3,1,0	71.0	14.0	0.878	1,2,3,0,0,0,0,0,0	to_hand	s636
206.213	0.301	0	PA_without_intermediate	0,0,0,2,0,0,3,1,0	test	ward_and_allport	0,0,0,2,0,0,3,1,0	82.0	14.0	0.301	1,2,3,0,0,0,0,0,0	to_board	s636
206.518	1.0	0	PA_without_intermediate	n/a	test	ward_and_allport	n/a	-1.0	14.0	n/a	n/a	feedback	s636
207.518	2.224	0	PA_without_intermediate	n/a	test	ward_and_allport	n/a	-1.0	14.0	n/a	n/a	ITI	s636
214.749	4.028	1	PA_without_intermediate	1,2,0,0,0,0,0,0,0	test	ward_and_allport	0,0,0,3,2,0,1,0,0	89.0	15.0	4.028	1,2,3,0,0,0,0,0,0	to_hand	s636
218.778	1.133	0	PA_without_intermediate	1,2,0,3,0,0,0,0,0	test	ward_and_allport	0,0,0,3,2,0,1,0,0	71.0	15.0	1.133	1,2,3,0,0,0,0,0,0	to_board	s636
219.916	0.29	0	PA_without_intermediate	1,0,0,3,0,0,0,0,0	test	ward_and_allport	0,0,0,3,2,0,1,0,0	89.0	15.0	0.29	1,2,3,0,0,0,0,0,0	to_hand	s636
220.207	0.637	0	PA_without_intermediate	1,0,0,3,2,0,0,0,0	test	ward_and_allport	0,0,0,3,2,0,1,0,0	71.0	15.0	0.637	1,2,3,0,0,0,0,0,0	to_board	s636
220.85	0.226	0	PA_without_intermediate	0,0,0,3,2,0,0,0,0	test	ward_and_allport	0,0,0,3,2,0,1,0,0	89.0	15.0	0.226	1,2,3,0,0,0,0,0,0	to_hand	s636
221.078	0.319	0	PA_without_intermediate	0,0,0,3,2,0,1,0,0	test	ward_and_allport	0,0,0,3,2,0,1,0,0	82.0	15.0	0.319	1,2,3,0,0,0,0,0,0	to_board	s636
221.402	1.0	0	PA_without_intermediate	n/a	test	ward_and_allport	n/a	-1.0	15.0	n/a	n/a	feedback	s636
222.402	2.36	0	PA_without_intermediate	n/a	test	ward_and_allport	n/a	-1.0	15.0	n/a	n/a	ITI	s636
224.767	3.677	1	PA_without_intermediate	0,0,0,0,0,0,1,2,0	test	ward_and_allport	3,1,0,2,0,0,0,0,0	82.0	16.0	3.677	0,0,0,0,0,0,1,2,3	to_hand	s636
228.445	0.531	0	PA_without_intermediate	3,0,0,0,0,0,1,2,0	test	ward_and_allport	3,1,0,2,0,0,0,0,0	89.0	16.0	0.531	0,0,0,0,0,0,1,2,3	to_board	s636
228.982	1.828	0	PA_without_intermediate	3,0,0,0,0,0,1,0,0	test	ward_and_allport	3,1,0,2,0,0,0,0,0	82.0	16.0	1.828	0,0,0,0,0,0,1,2,3	to_hand	s636
230.81	0.421	0	PA_without_intermediate	3,0,0,2,0,0,1,0,0	test	ward_and_allport	3,1,0,2,0,0,0,0,0	71.0	16.0	0.421	0,0,0,0,0,0,1,2,3	to_board	s636
231.235	0.474	0	PA_without_intermediate	3,0,0,2,0,0,0,0,0	test	ward_and_allport	3,1,0,2,0,0,0,0,0	82.0	16.0	0.474	0,0,0,0,0,0,1,2,3	to_hand	s636
231.71	0.399	0	PA_without_intermediate	3,1,0,2,0,0,0,0,0	test	ward_and_allport	3,1,0,2,0,0,0,0,0	89.0	16.0	0.399	0,0,0,0,0,0,1,2,3	to_board	s636
232.115	1.0	0	PA_without_intermediate	n/a	test	ward_and_allport	n/a	-1.0	16.0	n/a	n/a	feedback	s636
233.115	1.0	0	PA_without_intermediate	n/a	test	ward_and_allport	n/a	-1.0	16.0	n/a	n/a	ITI	s636
234.119	2.283	1	PA_without_intermediate	0,0,0,1,2,0,0,0,0	test	ward_and_allport	3,2,0,0,0,0,1,0,0	71.0	17.0	2.283	0,0,0,1,2,3,0,0,0	to_hand	s636
236.403	0.335	0	PA_without_intermediate	3,0,0,1,2,0,0,0,0	test	ward_and_allport	3,2,0,0,0,0,1,0,0	89.0	17.0	0.335	0,0,0,1,2,3,0,0,0	to_board	s636
236.744	0.372	0	PA_without_intermediate	3,0,0,1,0,0,0,0,0	test	ward_and_allport	3,2,0,0,0,0,1,0,0	71.0	17.0	0.372	0,0,0,1,2,3,0,0,0	to_hand	s636
237.117	0.308	0	PA_without_intermediate	3,2,0,1,0,0,0,0,0	test	ward_and_allport	3,2,0,0,0,0,1,0,0	89.0	17.0	0.308	0,0,0,1,2,3,0,0,0	to_board	s636
237.431	0.604	0	PA_without_intermediate	3,2,0,0,0,0,0,0,0	test	ward_and_allport	3,2,0,0,0,0,1,0,0	71.0	17.0	0.604	0,0,0,1,2,3,0,0,0	to_hand	s636
238.036	0.288	0	PA_without_intermediate	3,2,0,0,0,0,1,0,0	test	ward_and_allport	3,2,0,0,0,0,1,0,0	82.0	17.0	0.288	0,0,0,1,2,3,0,0,0	to_board	s636
238.331	1.0	0	PA_without_intermediate	n/a	test	ward_and_allport	n/a	-1.0	17.0	n/a	n/a	feedback	s636
239.331	1.408	0	PA_without_intermediate	n/a	test	ward_and_allport	n/a	-1.0	17.0	n/a	n/a	ITI	s636
240.745	4.134	1	PA_with_intermediate	1,2,0,0,0,0,0,0,0	test	ward_and_allport	1,0,0,0,0,0,2,3,0	89.0	18.0	4.134	1,2,3,0,0,0,0,0,0	to_hand	s636
244.88	0.736	0	PA_with_intermediate	1,2,0,3,0,0,0,0,0	test	ward_and_allport	1,0,0,0,0,0,2,3,0	71.0	18.0	0.736	1,2,3,0,0,0,0,0,0	to_board	s636
245.623	0.32	0	PA_with_intermediate	1,0,0,3,0,0,0,0,0	test	ward_and_allport	1,0,0,0,0,0,2,3,0	89.0	18.0	0.32	1,2,3,0,0,0,0,0,0	to_hand	s636
245.944	0.971	0	PA_with_intermediate	1,0,0,3,0,0,2,0,0	test	ward_and_allport	1,0,0,0,0,0,2,3,0	82.0	18.0	0.971	1,2,3,0,0,0,0,0,0	to_board	s636
246.921	0.483	0	PA_with_intermediate	1,0,0,0,0,0,2,0,0	test	ward_and_allport	1,0,0,0,0,0,2,3,0	71.0	18.0	0.483	1,2,3,0,0,0,0,0,0	to_hand	s636
247.405	0.41	0	PA_with_intermediate	1,0,0,0,0,0,2,3,0	test	ward_and_allport	1,0,0,0,0,0,2,3,0	82.0	18.0	0.41	1,2,3,0,0,0,0,0,0	to_board	s636
247.822	1.0	0	PA_with_intermediate	n/a	test	ward_and_allport	n/a	-1.0	18.0	n/a	n/a	feedback	s636
248.822	1.136	0	PA_with_intermediate	n/a	test	ward_and_allport	n/a	-1.0	18.0	n/a	n/a	ITI	s636
249.964	4.563	1	PA_without_intermediate	1,2,0,0,0,0,0,0,0	test	ward_and_allport	0,0,0,3,1,0,2,0,0	89.0	19.0	4.563	1,2,3,0,0,0,0,0,0	to_hand	s636
254.529	0.441	0	PA_without_intermediate	1,2,0,3,0,0,0,0,0	test	ward_and_allport	0,0,0,3,1,0,2,0,0	71.0	19.0	0.441	1,2,3,0,0,0,0,0,0	to_board	s636
254.978	1.266	0	PA_without_intermediate	1,0,0,3,0,0,0,0,0	test	ward_and_allport	0,0,0,3,1,0,2,0,0	89.0	19.0	1.266	1,2,3,0,0,0,0,0,0	to_hand	s636
256.246	0.395	0	PA_without_intermediate	1,0,0,3,0,0,2,0,0	test	ward_and_allport	0,0,0,3,1,0,2,0,0	82.0	19.0	0.395	1,2,3,0,0,0,0,0,0	to_board	s636
256.65	0.616	0	PA_without_intermediate	0,0,0,3,0,0,2,0,0	test	ward_and_allport	0,0,0,3,1,0,2,0,0	89.0	19.0	0.616	1,2,3,0,0,0,0,0,0	to_hand	s636
257.267	0.342	0	PA_without_intermediate	0,0,0,3,1,0,2,0,0	test	ward_and_allport	0,0,0,3,1,0,2,0,0	71.0	19.0	0.342	1,2,3,0,0,0,0,0,0	to_board	s636
257.616	1.0	0	PA_without_intermediate	n/a	test	ward_and_allport	n/a	-1.0	19.0	n/a	n/a	feedback	s636
258.616	4.128	0	PA_without_intermediate	n/a	test	ward_and_allport	n/a	-1.0	19.0	n/a	n/a	ITI	s636
262.751	2.222	1	PA_without_intermediate	0,0,0,1,2,0,0,0,0	test	ward_and_allport	1,0,0,0,0,0,3,2,0	71.0	20.0	2.222	0,0,0,1,2,3,0,0,0	to_hand	s636
264.973	0.43	0	PA_without_intermediate	0,0,0,1,2,0,3,0,0	test	ward_and_allport	1,0,0,0,0,0,3,2,0	82.0	20.0	0.43	0,0,0,1,2,3,0,0,0	to_board	s636
265.409	0.318	0	PA_without_intermediate	0,0,0,1,0,0,3,0,0	test	ward_and_allport	1,0,0,0,0,0,3,2,0	71.0	20.0	0.318	0,0,0,1,2,3,0,0,0	to_hand	s636
265.728	0.291	0	PA_without_intermediate	0,0,0,1,0,0,3,2,0	test	ward_and_allport	1,0,0,0,0,0,3,2,0	82.0	20.0	0.291	0,0,0,1,2,3,0,0,0	to_board	s636
266.025	0.489	0	PA_without_intermediate	0,0,0,0,0,0,3,2,0	test	ward_and_allport	1,0,0,0,0,0,3,2,0	71.0	20.0	0.489	0,0,0,1,2,3,0,0,0	to_hand	s636
266.515	0.245	0	PA_without_intermediate	1,0,0,0,0,0,3,2,0	test	ward_and_allport	1,0,0,0,0,0,3,2,0	89.0	20.0	0.245	0,0,0,1,2,3,0,0,0	to_board	s636
266.768	1.0	0	PA_without_intermediate	n/a	test	ward_and_allport	n/a	-1.0	20.0	n/a	n/a	feedback	s636
267.768	1.136	0	PA_without_intermediate	n/a	test	ward_and_allport	n/a	-1.0	20.0	n/a	n/a	ITI	s636
268.91	3.805	1	PA_without_intermediate	1,2,0,0,0,0,0,0,0	test	ward_and_allport	0,0,0,1,0,0,3,2,0	89.0	21.0	3.805	1,2,3,0,0,0,0,0,0	to_hand	s636
272.717	0.456	0	PA_without_intermediate	1,2,0,0,0,0,3,0,0	test	ward_and_allport	0,0,0,1,0,0,3,2,0	82.0	21.0	0.456	1,2,3,0,0,0,0,0,0	to_board	s636
273.179	1.154	0	PA_without_intermediate	1,0,0,0,0,0,3,0,0	test	ward_and_allport	0,0,0,1,0,0,3,2,0	89.0	21.0	1.154	1,2,3,0,0,0,0,0,0	to_hand	s636
274.335	0.351	0	PA_without_intermediate	1,0,0,0,0,0,3,2,0	test	ward_and_allport	0,0,0,1,0,0,3,2,0	82.0	21.0	0.351	1,2,3,0,0,0,0,0,0	to_board	s636
274.692	0.604	0	PA_without_intermediate	0,0,0,0,0,0,3,2,0	test	ward_and_allport	0,0,0,1,0,0,3,2,0	89.0	21.0	0.604	1,2,3,0,0,0,0,0,0	to_hand	s636
275.297	0.596	0	PA_without_intermediate	0,0,0,1,0,0,3,2,0	test	ward_and_allport	0,0,0,1,0,0,3,2,0	71.0	21.0	0.596	1,2,3,0,0,0,0,0,0	to_board	s636
275.9	1.0	0	PA_without_intermediate	n/a	test	ward_and_allport	n/a	-1.0	21.0	n/a	n/a	feedback	s636
276.9	4.264	0	PA_without_intermediate	n/a	test	ward_and_allport	n/a	-1.0	21.0	n/a	n/a	ITI	s636
281.171	2.137	1	PA_with_intermediate	0,0,0,0,0,0,1,2,0	test	ward_and_allport	2,3,0,0,0,0,1,0,0	82.0	22.0	2.137	0,0,0,0,0,0,1,2,3	to_hand	s636
283.309	0.468	0	PA_with_intermediate	0,0,0,3,0,0,1,2,0	test	ward_and_allport	2,3,0,0,0,0,1,0,0	71.0	22.0	0.468	0,0,0,0,0,0,1,2,3	to_board	s636
283.784	0.314	0	PA_with_intermediate	0,0,0,3,0,0,1,0,0	test	ward_and_allport	2,3,0,0,0,0,1,0,0	82.0	22.0	0.314	0,0,0,0,0,0,1,2,3	to_hand	s636
284.099	0.438	0	PA_with_intermediate	2,0,0,3,0,0,1,0,0	test	ward_and_allport	2,3,0,0,0,0,1,0,0	89.0	22.0	0.438	0,0,0,0,0,0,1,2,3	to_board	s636
284.545	0.6	0	PA_with_intermediate	2,0,0,0,0,0,1,0,0	test	ward_and_allport	2,3,0,0,0,0,1,0,0	71.0	22.0	0.6	0,0,0,0,0,0,1,2,3	to_hand	s636
285.147	0.3	0	PA_with_intermediate	2,3,0,0,0,0,1,0,0	test	ward_and_allport	2,3,0,0,0,0,1,0,0	89.0	22.0	0.3	0,0,0,0,0,0,1,2,3	to_board	s636
285.455	1.0	0	PA_with_intermediate	n/a	test	ward_and_allport	n/a	-1.0	22.0	n/a	n/a	feedback	s636
286.455	3.04	0	PA_with_intermediate	n/a	test	ward_and_allport	n/a	-1.0	22.0	n/a	n/a	ITI	s636
289.503	2.904	1	PA_with_intermediate	1,2,0,0,0,0,0,0,0	test	ward_and_allport	1,3,0,0,0,0,2,0,0	89.0	23.0	2.904	1,2,3,0,0,0,0,0,0	to_hand	s636
292.407	0.46	0	PA_with_intermediate	1,2,0,3,0,0,0,0,0	test	ward_and_allport	1,3,0,0,0,0,2,0,0	71.0	23.0	0.46	1,2,3,0,0,0,0,0,0	to_board	s636
292.874	0.628	0	PA_with_intermediate	1,0,0,3,0,0,0,0,0	test	ward_and_allport	1,3,0,0,0,0,2,0,0	89.0	23.0	0.628	1,2,3,0,0,0,0,0,0	to_hand	s636
293.503	0.423	0	PA_with_intermediate	1,0,0,3,0,0,2,0,0	test	ward_and_allport	1,3,0,0,0,0,2,0,0	82.0	23.0	0.423	1,2,3,0,0,0,0,0,0	to_board	s636
293.933	0.32	0	PA_with_intermediate	1,0,0,0,0,0,2,0,0	test	ward_and_allport	1,3,0,0,0,0,2,0,0	71.0	23.0	0.32	1,2,3,0,0,0,0,0,0	to_hand	s636
294.254	0.247	0	PA_with_intermediate	1,3,0,0,0,0,2,0,0	test	ward_and_allport	1,3,0,0,0,0,2,0,0	89.0	23.0	0.247	1,2,3,0,0,0,0,0,0	to_board	s636
294.509	1.0	0	PA_with_intermediate	n/a	test	ward_and_allport	n/a	-1.0	23.0	n/a	n/a	feedback	s636
295.509	1.136	0	PA_with_intermediate	n/a	test	ward_and_allport	n/a	-1.0	23.0	n/a	n/a	ITI	s636
296.651	1.427	1	PA_with_intermediate	0,0,0,0,0,0,1,2,0	test	ward_and_allport	2,0,0,0,0,0,1,3,0	82.0	24.0	1.427	0,0,0,0,0,0,1,2,3	to_hand	s636
298.08	1.827	0	PA_with_intermediate	0,0,0,3,0,0,1,2,0	test	ward_and_allport	2,0,0,0,0,0,1,3,0	71.0	24.0	1.827	0,0,0,0,0,0,1,2,3	to_board	s636
299.914	0.257	0	PA_with_intermediate	0,0,0,3,0,0,1,0,0	test	ward_and_allport	2,0,0,0,0,0,1,3,0	82.0	24.0	0.257	0,0,0,0,0,0,1,2,3	to_hand	s636
300.172	0.706	0	PA_with_intermediate	2,0,0,3,0,0,1,0,0	test	ward_and_allport	2,0,0,0,0,0,1,3,0	89.0	24.0	0.706	0,0,0,0,0,0,1,2,3	to_board	s636
300.884	0.67	0	PA_with_intermediate	2,0,0,0,0,0,1,0,0	test	ward_and_allport	2,0,0,0,0,0,1,3,0	71.0	24.0	0.67	0,0,0,0,0,0,1,2,3	to_hand	s636
301.556	0.26	0	PA_with_intermediate	2,0,0,0,0,0,1,3,0	test	ward_and_allport	2,0,0,0,0,0,1,3,0	82.0	24.0	0.26	0,0,0,0,0,0,1,2,3	to_board	s636
301.823	1.0	0	PA_with_intermediate	n/a	test	ward_and_allport	n/a	-1.0	24.0	n/a	n/a	feedback	s636
302.823	1.408	0	PA_with_intermediate	n/a	test	ward_and_allport	n/a	-1.0	24.0	n/a	n/a	ITI	s636
304.241	2.961	1	PA_without_intermediate	1,2,0,0,0,0,0,0,0	test	ward_and_allport	0,0,0,2,0,0,3,1,0	89.0	25.0	2.961	1,2,3,0,0,0,0,0,0	to_hand	s636
307.203	0.393	0	PA_without_intermediate	1,2,0,0,0,0,3,0,0	test	ward_and_allport	0,0,0,2,0,0,3,1,0	82.0	25.0	0.393	1,2,3,0,0,0,0,0,0	to_board	s636
307.603	1.111	0	PA_without_intermediate	1,0,0,0,0,0,3,0,0	test	ward_and_allport	0,0,0,2,0,0,3,1,0	89.0	25.0	1.111	1,2,3,0,0,0,0,0,0	to_hand	s636
308.715	0.409	0	PA_without_intermediate	1,0,0,2,0,0,3,0,0	test	ward_and_allport	0,0,0,2,0,0,3,1,0	71.0	25.0	0.409	1,2,3,0,0,0,0,0,0	to_board	s636
309.132	0.263	0	PA_without_intermediate	0,0,0,2,0,0,3,0,0	test	ward_and_allport	0,0,0,2,0,0,3,1,0	89.0	25.0	0.263	1,2,3,0,0,0,0,0,0	to_hand	s636
309.397	0.637	0	PA_without_intermediate	0,0,0,2,0,0,3,1,0	test	ward_and_allport	0,0,0,2,0,0,3,1,0	82.0	25.0	0.637	1,2,3,0,0,0,0,0,0	to_board	s636
310.042	1.0	0	PA_without_intermediate	n/a	test	ward_and_allport	n/a	-1.0	25.0	n/a	n/a	feedback	s636
311.042	1.68	0	PA_without_intermediate	n/a	test	ward_and_allport	n/a	-1.0	25.0	n/a	n/a	ITI	s636
312.73	1.379	1	PA_with_intermediate	1,2,0,0,0,0,0,0,0	test	ward_and_allport	1,3,0,0,0,0,2,0,0	89.0	26.0	1.379	1,2,3,0,0,0,0,0,0	to_hand	s636
314.111	0.768	0	PA_with_intermediate	1,2,0,3,0,0,0,0,0	test	ward_and_allport	1,3,0,0,0,0,2,0,0	71.0	26.0	0.768	1,2,3,0,0,0,0,0,0	to_board	s636
314.886	1.048	0	PA_with_intermediate	1,0,0,3,0,0,0,0,0	test	ward_and_allport	1,3,0,0,0,0,2,0,0	89.0	26.0	1.048	1,2,3,0,0,0,0,0,0	to_hand	s636
315.936	0.287	0	PA_with_intermediate	1,0,0,3,0,0,2,0,0	test	ward_and_allport	1,3,0,0,0,0,2,0,0	82.0	26.0	0.287	1,2,3,0,0,0,0,0,0	to_board	s636
316.23	0.372	0	PA_with_intermediate	1,0,0,0,0,0,2,0,0	test	ward_and_allport	1,3,0,0,0,0,2,0,0	71.0	26.0	0.372	1,2,3,0,0,0,0,0,0	to_hand	s636
316.603	0.257	0	PA_with_intermediate	1,3,0,0,0,0,2,0,0	test	ward_and_allport	1,3,0,0,0,0,2,0,0	89.0	26.0	0.257	1,2,3,0,0,0,0,0,0	to_board	s636
316.868	1.0	0	PA_with_intermediate	n/a	test	ward_and_allport	n/a	-1.0	26.0	n/a	n/a	feedback	s636
317.868	3.72	0	PA_with_intermediate	n/a	test	ward_and_allport	n/a	-1.0	26.0	n/a	n/a	ITI	s636
321.595	1.344	1	PA_without_intermediate	0,0,0,0,0,0,1,2,0	test	ward_and_allport	1,0,0,3,2,0,0,0,0	82.0	27.0	1.344	0,0,0,0,0,0,1,2,3	to_hand	s636
322.94	1.146	0	PA_without_intermediate	0,0,0,3,0,0,1,2,0	test	ward_and_allport	1,0,0,3,2,0,0,0,0	71.0	27.0	1.146	0,0,0,0,0,0,1,2,3	to_board	s636
324.094	0.268	0	PA_without_intermediate	0,0,0,3,0,0,1,0,0	test	ward_and_allport	1,0,0,3,2,0,0,0,0	82.0	27.0	0.268	0,0,0,0,0,0,1,2,3	to_hand	s636
324.362	0.951	0	PA_without_intermediate	0,0,0,3,2,0,1,0,0	test	ward_and_allport	1,0,0,3,2,0,0,0,0	71.0	27.0	0.951	0,0,0,0,0,0,1,2,3	to_board	s636
325.32	0.349	0	PA_without_intermediate	0,0,0,3,2,0,0,0,0	test	ward_and_allport	1,0,0,3,2,0,0,0,0	82.0	27.0	0.349	0,0,0,0,0,0,1,2,3	to_hand	s636
325.671	0.344	0	PA_without_intermediate	1,0,0,3,2,0,0,0,0	test	ward_and_allport	1,0,0,3,2,0,0,0,0	89.0	27.0	0.344	0,0,0,0,0,0,1,2,3	to_board	s636
326.025	1.0	0	PA_without_intermediate	n/a	test	ward_and_allport	n/a	-1.0	27.0	n/a	n/a	feedback	s636
327.025	2.224	0	PA_without_intermediate	n/a	test	ward_and_allport	n/a	-1.0	27.0	n/a	n/a	ITI	s636
329.257	1.532	1	PA_without_intermediate	0,0,0,0,0,0,1,2,0	test	ward_and_allport	1,0,0,3,2,0,0,0,0	82.0	28.0	1.532	0,0,0,0,0,0,1,2,3	to_hand	s636
330.79	0.384	0	PA_without_intermediate	0,0,0,3,0,0,1,2,0	test	ward_and_allport	1,0,0,3,2,0,0,0,0	71.0	28.0	0.384	0,0,0,0,0,0,1,2,3	to_board	s636
331.182	0.25	0	PA_without_intermediate	0,0,0,3,0,0,1,0,0	test	ward_and_allport	1,0,0,3,2,0,0,0,0	82.0	28.0	0.25	0,0,0,0,0,0,1,2,3	to_hand	s636
331.433	0.24	0	PA_without_intermediate	0,0,0,3,2,0,1,0,0	test	ward_and_allport	1,0,0,3,2,0,0,0,0	71.0	28.0	0.24	0,0,0,0,0,0,1,2,3	to_board	s636
331.682	0.416	0	PA_without_intermediate	0,0,0,3,2,0,0,0,0	test	ward_and_allport	1,0,0,3,2,0,0,0,0	82.0	28.0	0.416	0,0,0,0,0,0,1,2,3	to_hand	s636
332.1	0.319	0	PA_without_intermediate	1,0,0,3,2,0,0,0,0	test	ward_and_allport	1,0,0,3,2,0,0,0,0	89.0	28.0	0.319	0,0,0,0,0,0,1,2,3	to_board	s636
332.427	1.0	0	PA_without_intermediate	n/a	test	ward_and_allport	n/a	-1.0	28.0	n/a	n/a	feedback	s636
333.427	1.272	0	PA_without_intermediate	n/a	test	ward_and_allport	n/a	-1.0	28.0	n/a	n/a	ITI	s636
334.709	2.232	1	PA_with_intermediate	0,0,0,1,2,0,0,0,0	test	ward_and_allport	2,0,0,1,3,0,0,0,0	71.0	29.0	2.232	0,0,0,1,2,3,0,0,0	to_hand	s636
336.942	1.447	0	PA_with_intermediate	0,0,0,1,2,0,3,0,0	test	ward_and_allport	2,0,0,1,3,0,0,0,0	82.0	29.0	1.447	0,0,0,1,2,3,0,0,0	to_board	s636
338.396	0.273	0	PA_with_intermediate	0,0,0,1,0,0,3,0,0	test	ward_and_allport	2,0,0,1,3,0,0,0,0	71.0	29.0	0.273	0,0,0,1,2,3,0,0,0	to_hand	s636
338.67	0.819	0	PA_with_intermediate	2,0,0,1,0,0,3,0,0	test	ward_and_allport	2,0,0,1,3,0,0,0,0	89.0	29.0	0.819	0,0,0,1,2,3,0,0,0	to_board	s636
339.499	0.85	0	PA_with_intermediate	2,0,0,1,0,0,0,0,0	test	ward_and_allport	2,0,0,1,3,0,0,0,0	82.0	29.0	0.85	0,0,0,1,2,3,0,0,0	to_hand	s636
340.35	0.25	0	PA_with_intermediate	2,0,0,1,3,0,0,0,0	test	ward_and_allport	2,0,0,1,3,0,0,0,0	71.0	29.0	0.25	0,0,0,1,2,3,0,0,0	to_board	s636
340.609	1.0	0	PA_with_intermediate	n/a	test	ward_and_allport	n/a	-1.0	29.0	n/a	n/a	feedback	s636
341.609	2.632	0	PA_with_intermediate	n/a	test	ward_and_allport	n/a	-1.0	29.0	n/a	n/a	ITI	s636
349.252	1.711	1	PA_without_intermediate	0,0,0,0,0,0,1,2,0	test	ward_and_allport	2,0,0,3,1,0,0,0,0	82.0	30.0	1.711	0,0,0,0,0,0,1,2,3	to_hand	s636
350.964	0.308	0	PA_without_intermediate	0,0,0,3,0,0,1,2,0	test	ward_and_allport	2,0,0,3,1,0,0,0,0	71.0	30.0	0.308	0,0,0,0,0,0,1,2,3	to_board	s636
351.283	0.362	0	PA_without_intermediate	0,0,0,3,0,0,1,0,0	test	ward_and_allport	2,0,0,3,1,0,0,0,0	82.0	30.0	0.362	0,0,0,0,0,0,1,2,3	to_hand	s636
351.646	0.354	0	PA_without_intermediate	2,0,0,3,0,0,1,0,0	test	ward_and_allport	2,0,0,3,1,0,0,0,0	89.0	30.0	0.354	0,0,0,0,0,0,1,2,3	to_board	s636
352.009	0.352	0	PA_without_intermediate	2,0,0,3,0,0,0,0,0	test	ward_and_allport	2,0,0,3,1,0,0,0,0	82.0	30.0	0.352	0,0,0,0,0,0,1,2,3	to_hand	s636
352.362	0.255	0	PA_without_intermediate	2,0,0,3,1,0,0,0,0	test	ward_and_allport	2,0,0,3,1,0,0,0,0	71.0	30.0	0.255	0,0,0,0,0,0,1,2,3	to_board	s636
352.627	1.0	0	PA_without_intermediate	n/a	test	ward_and_allport	n/a	-1.0	30.0	n/a	n/a	feedback	s636
353.627	1.408	0	PA_without_intermediate	n/a	test	ward_and_allport	n/a	-1.0	30.0	n/a	n/a	ITI	s636
355.043	1.399	1	PA_without_intermediate	0,0,0,1,2,0,0,0,0	test	ward_and_allport	2,0,0,0,0,0,3,1,0	71.0	31.0	1.399	0,0,0,1,2,3,0,0,0	to_hand	s636
356.443	0.293	0	PA_without_intermediate	0,0,0,1,2,0,3,0,0	test	ward_and_allport	2,0,0,0,0,0,3,1,0	82.0	31.0	0.293	0,0,0,1,2,3,0,0,0	to_board	s636
356.742	0.274	0	PA_without_intermediate	0,0,0,1,0,0,3,0,0	test	ward_and_allport	2,0,0,0,0,0,3,1,0	71.0	31.0	0.274	0,0,0,1,2,3,0,0,0	to_hand	s636
357.017	0.332	0	PA_without_intermediate	2,0,0,1,0,0,3,0,0	test	ward_and_allport	2,0,0,0,0,0,3,1,0	89.0	31.0	0.332	0,0,0,1,2,3,0,0,0	to_board	s636
357.356	0.893	0	PA_without_intermediate	2,0,0,0,0,0,3,0,0	test	ward_and_allport	2,0,0,0,0,0,3,1,0	71.0	31.0	0.893	0,0,0,1,2,3,0,0,0	to_hand	s636
358.25	0.252	0	PA_without_intermediate	2,0,0,0,0,0,3,1,0	test	ward_and_allport	2,0,0,0,0,0,3,1,0	82.0	31.0	0.252	0,0,0,1,2,3,0,0,0	to_board	s636
358.509	1.0	0	PA_without_intermediate	n/a	test	ward_and_allport	n/a	-1.0	31.0	n/a	n/a	feedback	s636
359.509	1.0	0	PA_without_intermediate	n/a	test	ward_and_allport	n/a	-1.0	31.0	n/a	n/a	ITI	s636
360.515	1.638	1	PA_with_intermediate	0,0,0,0,0,0,1,2,0	test	ward_and_allport	0,0,0,2,0,0,1,3,0	82.0	32.0	1.638	0,0,0,0,0,0,1,2,3	to_hand	s636
362.155	2.304	0	PA_with_intermediate	0,0,0,3,0,0,1,2,0	test	ward_and_allport	0,0,0,2,0,0,1,3,0	71.0	32.0	2.304	0,0,0,0,0,0,1,2,3	to_board	s636
364.465	0.279	0	PA_with_intermediate	0,0,0,3,0,0,1,0,0	test	ward_and_allport	0,0,0,2,0,0,1,3,0	82.0	32.0	0.279	0,0,0,0,0,0,1,2,3	to_hand	s636
364.745	2.142	0	PA_with_intermediate	2,0,0,3,0,0,1,0,0	test	ward_and_allport	0,0,0,2,0,0,1,3,0	89.0	32.0	2.142	0,0,0,0,0,0,1,2,3	to_board	s636
366.896	0.487	0	PA_with_intermediate	2,0,0,0,0,0,1,0,0	test	ward_and_allport	0,0,0,2,0,0,1,3,0	71.0	32.0	0.487	0,0,0,0,0,0,1,2,3	to_hand	s636
367.384	0.317	0	PA_with_intermediate	2,0,0,0,0,0,1,3,0	test	ward_and_allport	0,0,0,2,0,0,1,3,0	82.0	32.0	0.317	0,0,0,0,0,0,1,2,3	to_board	s636
367.711	0.827	0	PA_with_intermediate	0,0,0,0,0,0,1,3,0	test	ward_and_allport	0,0,0,2,0,0,1,3,0	89.0	32.0	0.827	0,0,0,0,0,0,1,2,3	to_hand	s636
368.539	0.315	0	PA_with_intermediate	0,0,0,2,0,0,1,3,0	test	ward_and_allport	0,0,0,2,0,0,1,3,0	71.0	32.0	0.315	0,0,0,0,0,0,1,2,3	to_board	s636
368.868	1.0	0	PA_with_intermediate	n/a	test	ward_and_allport	n/a	-1.0	32.0	n/a	n/a	feedback	s636
369.868	1.0	0	PA_with_intermediate	n/a	test	ward_and_allport	n/a	-1.0	32.0	n/a	n/a	ITI	s636
370.876	2.91	1	PA_with_intermediate	0,0,0,1,2,0,0,0,0	test	ward_and_allport	2,3,0,1,0,0,0,0,0	71.0	33.0	2.91	0,0,0,1,2,3,0,0,0	to_hand	s636
373.788	0.437	0	PA_with_intermediate	0,0,0,1,2,0,3,0,0	test	ward_and_allport	2,3,0,1,0,0,0,0,0	82.0	33.0	0.437	0,0,0,1,2,3,0,0,0	to_board	s636
374.233	0.354	0	PA_with_intermediate	0,0,0,1,0,0,3,0,0	test	ward_and_allport	2,3,0,1,0,0,0,0,0	71.0	33.0	0.354	0,0,0,1,2,3,0,0,0	to_hand	s636
374.587	0.382	0	PA_with_intermediate	2,0,0,1,0,0,3,0,0	test	ward_and_allport	2,3,0,1,0,0,0,0,0	89.0	33.0	0.382	0,0,0,1,2,3,0,0,0	to_board	s636
374.979	0.533	0	PA_with_intermediate	2,0,0,1,0,0,0,0,0	test	ward_and_allport	2,3,0,1,0,0,0,0,0	82.0	33.0	0.533	0,0,0,1,2,3,0,0,0	to_hand	s636
375.513	0.577	0	PA_with_intermediate	2,3,0,1,0,0,0,0,0	test	ward_and_allport	2,3,0,1,0,0,0,0,0	89.0	33.0	0.577	0,0,0,1,2,3,0,0,0	to_board	s636
376.1	1.0	0	PA_with_intermediate	n/a	test	ward_and_allport	n/a	-1.0	33.0	n/a	n/a	feedback	s636
377.1	1.0	0	PA_with_intermediate	n/a	test	ward_and_allport	n/a	-1.0	33.0	n/a	n/a	ITI	s636
378.109	3.713	1	PA_with_intermediate	1,2,0,0,0,0,0,0,0	test	ward_and_allport	1,0,0,2,3,0,0,0,0	89.0	34.0	3.713	1,2,3,0,0,0,0,0,0	to_hand	s636
381.823	0.917	0	PA_with_intermediate	1,2,0,0,0,0,3,0,0	test	ward_and_allport	1,0,0,2,3,0,0,0,0	82.0	34.0	0.917	1,2,3,0,0,0,0,0,0	to_board	s636
382.747	1.021	0	PA_with_intermediate	1,0,0,0,0,0,3,0,0	test	ward_and_allport	1,0,0,2,3,0,0,0,0	89.0	34.0	1.021	1,2,3,0,0,0,0,0,0	to_hand	s636
383.77	0.558	0	PA_with_intermediate	1,0,0,2,0,0,3,0,0	test	ward_and_allport	1,0,0,2,3,0,0,0,0	71.0	34.0	0.558	1,2,3,0,0,0,0,0,0	to_board	s636
384.336	0.96	0	PA_with_intermediate	1,0,0,2,0,0,0,0,0	test	ward_and_allport	1,0,0,2,3,0,0,0,0	82.0	34.0	0.96	1,2,3,0,0,0,0,0,0	to_hand	s636
385.297	0.5	0	PA_with_intermediate	1,0,0,2,3,0,0,0,0	test	ward_and_allport	1,0,0,2,3,0,0,0,0	71.0	34.0	0.5	1,2,3,0,0,0,0,0,0	to_board	s636
385.808	1.0	0	PA_with_intermediate	n/a	test	ward_and_allport	n/a	-1.0	34.0	n/a	n/a	feedback	s636
386.808	1.408	0	PA_with_intermediate	n/a	test	ward_and_allport	n/a	-1.0	34.0	n/a	n/a	ITI	s636
388.226	1.698	1	PA_without_intermediate	1,2,0,0,0,0,0,0,0	test	ward_and_allport	0,0,0,3,2,0,1,0,0	89.0	35.0	1.698	1,2,3,0,0,0,0,0,0	to_hand	s636
389.925	1.316	0	PA_without_intermediate	1,2,0,3,0,0,0,0,0	test	ward_and_allport	0,0,0,3,2,0,1,0,0	71.0	35.0	1.316	1,2,3,0,0,0,0,0,0	to_board	s636
391.248	0.331	0	PA_without_intermediate	1,0,0,3,0,0,0,0,0	test	ward_and_allport	0,0,0,3,2,0,1,0,0	89.0	35.0	0.331	1,2,3,0,0,0,0,0,0	to_hand	s636
391.58	0.222	0	PA_without_intermediate	1,0,0,3,2,0,0,0,0	test	ward_and_allport	0,0,0,3,2,0,1,0,0	71.0	35.0	0.222	1,2,3,0,0,0,0,0,0	to_board	s636
391.811	0.32	0	PA_without_intermediate	0,0,0,3,2,0,0,0,0	test	ward_and_allport	0,0,0,3,2,0,1,0,0	89.0	35.0	0.32	1,2,3,0,0,0,0,0,0	to_hand	s636
392.132	0.454	0	PA_without_intermediate	0,0,0,3,2,0,1,0,0	test	ward_and_allport	0,0,0,3,2,0,1,0,0	82.0	35.0	0.454	1,2,3,0,0,0,0,0,0	to_board	s636
392.595	1.0	0	PA_without_intermediate	n/a	test	ward_and_allport	n/a	-1.0	35.0	n/a	n/a	feedback	s636
393.595	1.816	0	PA_without_intermediate	n/a	test	ward_and_allport	n/a	-1.0	35.0	n/a	n/a	ITI	s636
395.419	2.96	1	PA_with_intermediate	0,0,0,0,0,0,1,2,0	test	ward_and_allport	0,0,0,2,3,0,1,0,0	82.0	36.0	2.96	0,0,0,0,0,0,1,2,3	to_hand	s636
398.381	2.183	0	PA_with_intermediate	3,0,0,0,0,0,1,2,0	test	ward_and_allport	0,0,0,2,3,0,1,0,0	89.0	36.0	2.183	0,0,0,0,0,0,1,2,3	to_board	s636
400.574	0.973	0	PA_with_intermediate	3,0,0,0,0,0,1,0,0	test	ward_and_allport	0,0,0,2,3,0,1,0,0	82.0	36.0	0.973	0,0,0,0,0,0,1,2,3	to_hand	s636
401.549	0.402	0	PA_with_intermediate	3,0,0,2,0,0,1,0,0	test	ward_and_allport	0,0,0,2,3,0,1,0,0	71.0	36.0	0.402	0,0,0,0,0,0,1,2,3	to_board	s636
401.962	0.334	0	PA_with_intermediate	0,0,0,2,0,0,1,0,0	test	ward_and_allport	0,0,0,2,3,0,1,0,0	89.0	36.0	0.334	0,0,0,0,0,0,1,2,3	to_hand	s636
402.297	0.547	0	PA_with_intermediate	0,0,0,2,3,0,1,0,0	test	ward_and_allport	0,0,0,2,3,0,1,0,0	71.0	36.0	0.547	0,0,0,0,0,0,1,2,3	to_board	s636
402.853	1.0	0	PA_with_intermediate	n/a	test	ward_and_allport	n/a	-1.0	36.0	n/a	n/a	feedback	s636
403.853	3.176	0	PA_with_intermediate	n/a	test	ward_and_allport	n/a	-1.0	36.0	n/a	n/a	ITI	s636
407.036	2.623	1	PA_with_intermediate	0,0,0,1,2,0,0,0,0	test	ward_and_allport	0,0,0,1,0,0,2,3,0	71.0	37.0	2.623	0,0,0,1,2,3,0,0,0	to_hand	s636
409.66	0.657	0	PA_with_intermediate	3,0,0,1,2,0,0,0,0	test	ward_and_allport	0,0,0,1,0,0,2,3,0	89.0	37.0	0.657	0,0,0,1,2,3,0,0,0	to_board	s636
410.327	0.323	0	PA_with_intermediate	3,0,0,1,0,0,0,0,0	test	ward_and_allport	0,0,0,1,0,0,2,3,0	71.0	37.0	0.323	0,0,0,1,2,3,0,0,0	to_hand	s636
410.651	0.351	0	PA_with_intermediate	3,0,0,1,0,0,2,0,0	test	ward_and_allport	0,0,0,1,0,0,2,3,0	82.0	37.0	0.351	0,0,0,1,2,3,0,0,0	to_board	s636
411.013	0.26	0	PA_with_intermediate	0,0,0,1,0,0,2,0,0	test	ward_and_allport	0,0,0,1,0,0,2,3,0	89.0	37.0	0.26	0,0,0,1,2,3,0,0,0	to_hand	s636
411.274	0.694	0	PA_with_intermediate	0,0,0,1,0,0,2,3,0	test	ward_and_allport	0,0,0,1,0,0,2,3,0	82.0	37.0	0.694	0,0,0,1,2,3,0,0,0	to_board	s636
411.98	1.0	0	PA_with_intermediate	n/a	test	ward_and_allport	n/a	-1.0	37.0	n/a	n/a	feedback	s636
412.98	2.36	0	PA_with_intermediate	n/a	test	ward_and_allport	n/a	-1.0	37.0	n/a	n/a	ITI	s636
415.348	2.258	1	PA_with_intermediate	0,0,0,0,0,0,1,2,0	test	ward_and_allport	0,0,0,2,3,0,1,0,0	82.0	38.0	2.258	0,0,0,0,0,0,1,2,3	to_hand	s636
417.608	1.376	0	PA_with_intermediate	3,0,0,0,0,0,1,2,0	test	ward_and_allport	0,0,0,2,3,0,1,0,0	89.0	38.0	1.376	0,0,0,0,0,0,1,2,3	to_board	s636
418.992	0.265	0	PA_with_intermediate	3,0,0,0,0,0,1,0,0	test	ward_and_allport	0,0,0,2,3,0,1,0,0	82.0	38.0	0.265	0,0,0,0,0,0,1,2,3	to_hand	s636
419.258	0.234	0	PA_with_intermediate	3,0,0,2,0,0,1,0,0	test	ward_and_allport	0,0,0,2,3,0,1,0,0	71.0	38.0	0.234	0,0,0,0,0,0,1,2,3	to_board	s636
419.504	0.327	0	PA_with_intermediate	0,0,0,2,0,0,1,0,0	test	ward_and_allport	0,0,0,2,3,0,1,0,0	89.0	38.0	0.327	0,0,0,0,0,0,1,2,3	to_hand	s636
419.832	0.593	0	PA_with_intermediate	0,0,0,2,3,0,1,0,0	test	ward_and_allport	0,0,0,2,3,0,1,0,0	71.0	38.0	0.593	0,0,0,0,0,0,1,2,3	to_board	s636
420.435	1.0	0	PA_with_intermediate	n/a	test	ward_and_allport	n/a	-1.0	38.0	n/a	n/a	feedback	s636
421.435	1.0	0	PA_with_intermediate	n/a	test	ward_and_allport	n/a	-1.0	38.0	n/a	n/a	ITI	s636
422.443	1.633	1	PA_without_intermediate	0,0,0,0,0,0,1,2,0	test	ward_and_allport	3,1,0,2,0,0,0,0,0	82.0	39.0	1.633	0,0,0,0,0,0,1,2,3	to_hand	s636
424.077	0.544	0	PA_without_intermediate	3,0,0,0,0,0,1,2,0	test	ward_and_allport	3,1,0,2,0,0,0,0,0	89.0	39.0	0.544	0,0,0,0,0,0,1,2,3	to_board	s636
424.629	0.673	0	PA_without_intermediate	3,0,0,0,0,0,1,0,0	test	ward_and_allport	3,1,0,2,0,0,0,0,0	82.0	39.0	0.673	0,0,0,0,0,0,1,2,3	to_hand	s636
425.304	0.368	0	PA_without_intermediate	3,0,0,2,0,0,1,0,0	test	ward_and_allport	3,1,0,2,0,0,0,0,0	71.0	39.0	0.368	0,0,0,0,0,0,1,2,3	to_board	s636
425.68	0.292	0	PA_without_intermediate	3,0,0,2,0,0,0,0,0	test	ward_and_allport	3,1,0,2,0,0,0,0,0	82.0	39.0	0.292	0,0,0,0,0,0,1,2,3	to_hand	s636
425.973	0.23	0	PA_without_intermediate	3,1,0,2,0,0,0,0,0	test	ward_and_allport	3,1,0,2,0,0,0,0,0	89.0	39.0	0.23	0,0,0,0,0,0,1,2,3	to_board	s636
426.21	1.0	0	PA_without_intermediate	n/a	test	ward_and_allport	n/a	-1.0	39.0	n/a	n/a	feedback	s636
427.21	1.408	0	PA_without_intermediate	n/a	test	ward_and_allport	n/a	-1.0	39.0	n/a	n/a	ITI	s636
428.626	1.898	1	PA_with_intermediate	1,2,0,0,0,0,0,0,0	test	ward_and_allport	1,0,0,0,0,0,2,3,0	89.0	40.0	1.898	1,2,3,0,0,0,0,0,0	to_hand	s636
430.525	0.353	0	PA_with_intermediate	1,2,0,3,0,0,0,0,0	test	ward_and_allport	1,0,0,0,0,0,2,3,0	71.0	40.0	0.353	1,2,3,0,0,0,0,0,0	to_board	s636
430.886	0.313	0	PA_with_intermediate	1,0,0,3,0,0,0,0,0	test	ward_and_allport	1,0,0,0,0,0,2,3,0	89.0	40.0	0.313	1,2,3,0,0,0,0,0,0	to_hand	s636
431.2	0.263	0	PA_with_intermediate	1,0,0,3,2,0,0,0,0	test	ward_and_allport	1,0,0,0,0,0,2,3,0	71.0	40.0	0.263	1,2,3,0,0,0,0,0,0	to_board	s636
431.472	0.894	0	PA_with_intermediate	1,0,0,3,0,0,0,0,0	test	ward_and_allport	1,0,0,0,0,0,2,3,0	71.0	40.0	0.894	1,2,3,0,0,0,0,0,0	to_hand	s636
432.368	0.297	0	PA_with_intermediate	1,0,0,3,0,0,2,0,0	test	ward_and_allport	1,0,0,0,0,0,2,3,0	82.0	40.0	0.297	1,2,3,0,0,0,0,0,0	to_board	s636
432.673	0.401	0	PA_with_intermediate	1,0,0,0,0,0,2,0,0	test	ward_and_allport	1,0,0,0,0,0,2,3,0	71.0	40.0	0.401	1,2,3,0,0,0,0,0,0	to_hand	s636
433.075	0.363	0	PA_with_intermediate	1,0,0,0,0,0,2,3,0	test	ward_and_allport	1,0,0,0,0,0,2,3,0	82.0	40.0	0.363	1,2,3,0,0,0,0,0,0	to_board	s636
433.446	1.0	0	PA_with_intermediate	n/a	test	ward_and_allport	n/a	-1.0	40.0	n/a	n/a	feedback	s636
434.446	1.816	0	PA_with_intermediate	n/a	test	ward_and_allport	n/a	-1.0	40.0	n/a	n/a	ITI	s636
436.269	1.761	1	PA_without_intermediate	0,0,0,1,2,0,0,0,0	test	ward_and_allport	1,0,0,0,0,0,3,2,0	71.0	41.0	1.761	0,0,0,1,2,3,0,0,0	to_hand	s636
438.031	0.488	0	PA_without_intermediate	0,0,0,1,2,0,3,0,0	test	ward_and_allport	1,0,0,0,0,0,3,2,0	82.0	41.0	0.488	0,0,0,1,2,3,0,0,0	to_board	s636
438.526	0.316	0	PA_without_intermediate	0,0,0,1,0,0,3,0,0	test	ward_and_allport	1,0,0,0,0,0,3,2,0	71.0	41.0	0.316	0,0,0,1,2,3,0,0,0	to_hand	s636
438.843	0.282	0	PA_without_intermediate	0,0,0,1,0,0,3,2,0	test	ward_and_allport	1,0,0,0,0,0,3,2,0	82.0	41.0	0.282	0,0,0,1,2,3,0,0,0	to_board	s636
439.135	0.326	0	PA_without_intermediate	0,0,0,0,0,0,3,2,0	test	ward_and_allport	1,0,0,0,0,0,3,2,0	71.0	41.0	0.326	0,0,0,1,2,3,0,0,0	to_hand	s636
439.462	0.31	0	PA_without_intermediate	1,0,0,0,0,0,3,2,0	test	ward_and_allport	1,0,0,0,0,0,3,2,0	89.0	41.0	0.31	0,0,0,1,2,3,0,0,0	to_board	s636
439.782	1.0	0	PA_without_intermediate	n/a	test	ward_and_allport	n/a	-1.0	41.0	n/a	n/a	feedback	s636
440.782	2.088	0	PA_without_intermediate	n/a	test	ward_and_allport	n/a	-1.0	41.0	n/a	n/a	ITI	s636
442.877	1.415	1	PA_without_intermediate	0,0,0,1,2,0,0,0,0	test	ward_and_allport	3,2,0,0,0,0,1,0,0	71.0	42.0	1.415	0,0,0,1,2,3,0,0,0	to_hand	s636
444.294	0.439	0	PA_without_intermediate	3,0,0,1,2,0,0,0,0	test	ward_and_allport	3,2,0,0,0,0,1,0,0	89.0	42.0	0.439	0,0,0,1,2,3,0,0,0	to_board	s636
444.741	0.349	0	PA_without_intermediate	3,0,0,1,0,0,0,0,0	test	ward_and_allport	3,2,0,0,0,0,1,0,0	71.0	42.0	0.349	0,0,0,1,2,3,0,0,0	to_hand	s636
445.09	0.263	0	PA_without_intermediate	3,2,0,1,0,0,0,0,0	test	ward_and_allport	3,2,0,0,0,0,1,0,0	89.0	42.0	0.263	0,0,0,1,2,3,0,0,0	to_board	s636
445.36	0.586	0	PA_without_intermediate	3,2,0,0,0,0,0,0,0	test	ward_and_allport	3,2,0,0,0,0,1,0,0	71.0	42.0	0.586	0,0,0,1,2,3,0,0,0	to_hand	s636
445.948	0.274	0	PA_without_intermediate	3,2,0,0,0,0,1,0,0	test	ward_and_allport	3,2,0,0,0,0,1,0,0	82.0	42.0	0.274	0,0,0,1,2,3,0,0,0	to_board	s636
446.23	1.0	0	PA_without_intermediate	n/a	test	ward_and_allport	n/a	-1.0	42.0	n/a	n/a	feedback	s636
447.23	1.136	0	PA_without_intermediate	n/a	test	ward_and_allport	n/a	-1.0	42.0	n/a	n/a	ITI	s636
448.375	1.378	1	PA_without_intermediate	0,0,0,1,2,0,0,0,0	test	ward_and_allport	2,0,0,0,0,0,3,1,0	71.0	43.0	1.378	0,0,0,1,2,3,0,0,0	to_hand	s636
449.754	0.286	0	PA_without_intermediate	0,0,0,1,2,0,3,0,0	test	ward_and_allport	2,0,0,0,0,0,3,1,0	82.0	43.0	0.286	0,0,0,1,2,3,0,0,0	to_board	s636
450.048	0.436	0	PA_without_intermediate	0,0,0,1,0,0,3,0,0	test	ward_and_allport	2,0,0,0,0,0,3,1,0	71.0	43.0	0.436	0,0,0,1,2,3,0,0,0	to_hand	s636
450.485	0.24	0	PA_without_intermediate	2,0,0,1,0,0,3,0,0	test	ward_and_allport	2,0,0,0,0,0,3,1,0	89.0	43.0	0.24	0,0,0,1,2,3,0,0,0	to_board	s636
450.735	0.27	0	PA_without_intermediate	2,0,0,0,0,0,3,0,0	test	ward_and_allport	2,0,0,0,0,0,3,1,0	71.0	43.0	0.27	0,0,0,1,2,3,0,0,0	to_hand	s636
451.006	0.349	0	PA_without_intermediate	2,0,0,0,0,0,3,1,0	test	ward_and_allport	2,0,0,0,0,0,3,1,0	82.0	43.0	0.349	0,0,0,1,2,3,0,0,0	to_board	s636
451.364	1.0	0	PA_without_intermediate	n/a	test	ward_and_allport	n/a	-1.0	43.0	n/a	n/a	feedback	s636
452.364	6.168	0	PA_without_intermediate	n/a	test	ward_and_allport	n/a	-1.0	43.0	n/a	n/a	ITI	s636
458.54	1.291	1	PA_without_intermediate	1,2,0,0,0,0,0,0,0	test	ward_and_allport	0,0,0,1,0,0,3,2,0	89.0	44.0	1.291	1,2,3,0,0,0,0,0,0	to_hand	s636
459.832	0.277	0	PA_without_intermediate	1,2,0,0,0,0,3,0,0	test	ward_and_allport	0,0,0,1,0,0,3,2,0	82.0	44.0	0.277	1,2,3,0,0,0,0,0,0	to_board	s636
460.119	0.3	0	PA_without_intermediate	1,0,0,0,0,0,3,0,0	test	ward_and_allport	0,0,0,1,0,0,3,2,0	89.0	44.0	0.3	1,2,3,0,0,0,0,0,0	to_hand	s636
460.42	0.532	0	PA_without_intermediate	1,0,0,0,0,0,3,2,0	test	ward_and_allport	0,0,0,1,0,0,3,2,0	82.0	44.0	0.532	1,2,3,0,0,0,0,0,0	to_board	s636
460.962	0.294	0	PA_without_intermediate	0,0,0,0,0,0,3,2,0	test	ward_and_allport	0,0,0,1,0,0,3,2,0	89.0	44.0	0.294	1,2,3,0,0,0,0,0,0	to_hand	s636
461.258	0.271	0	PA_without_intermediate	0,0,0,1,0,0,3,2,0	test	ward_and_allport	0,0,0,1,0,0,3,2,0	71.0	44.0	0.271	1,2,3,0,0,0,0,0,0	to_board	s636
461.541	1.0	0	PA_without_intermediate	n/a	test	ward_and_allport	n/a	-1.0	44.0	n/a	n/a	feedback	s636
462.541	1.816	0	PA_without_intermediate	n/a	test	ward_and_allport	n/a	-1.0	44.0	n/a	n/a	ITI	s636
469.37	1.321	1	PA_with_intermediate	1,2,0,0,0,0,0,0,0	test	ward_and_allport	1,0,0,2,3,0,0,0,0	89.0	45.0	1.321	1,2,3,0,0,0,0,0,0	to_hand	s636
470.692	0.812	0	PA_with_intermediate	1,2,0,0,0,0,3,0,0	test	ward_and_allport	1,0,0,2,3,0,0,0,0	82.0	45.0	0.812	1,2,3,0,0,0,0,0,0	to_board	s636
471.516	0.332	0	PA_with_intermediate	1,0,0,0,0,0,3,0,0	test	ward_and_allport	1,0,0,2,3,0,0,0,0	89.0	45.0	0.332	1,2,3,0,0,0,0,0,0	to_hand	s636
471.849	0.297	0	PA_with_intermediate	1,0,0,2,0,0,3,0,0	test	ward_and_allport	1,0,0,2,3,0,0,0,0	71.0	45.0	0.297	1,2,3,0,0,0,0,0,0	to_board	s636
472.159	0.341	0	PA_with_intermediate	1,0,0,2,0,0,0,0,0	test	ward_and_allport	1,0,0,2,3,0,0,0,0	82.0	45.0	0.341	1,2,3,0,0,0,0,0,0	to_hand	s636
472.5	0.248	0	PA_with_intermediate	1,3,0,2,0,0,0,0,0	test	ward_and_allport	1,0,0,2,3,0,0,0,0	89.0	45.0	0.248	1,2,3,0,0,0,0,0,0	to_board	s636
472.761	0.773	0	PA_with_intermediate	1,0,0,2,0,0,0,0,0	test	ward_and_allport	1,0,0,2,3,0,0,0,0	89.0	45.0	0.773	1,2,3,0,0,0,0,0,0	to_hand	s636
473.535	0.223	0	PA_with_intermediate	1,0,0,2,3,0,0,0,0	test	ward_and_allport	1,0,0,2,3,0,0,0,0	71.0	45.0	0.223	1,2,3,0,0,0,0,0,0	to_board	s636
473.768	1.0	0	PA_with_intermediate	n/a	test	ward_and_allport	n/a	-1.0	45.0	n/a	n/a	feedback	s636
474.768	1.952	0	PA_with_intermediate	n/a	test	ward_and_allport	n/a	-1.0	45.0	n/a	n/a	ITI	s636
476.733	2.718	1	PA_with_intermediate	0,0,0,1,2,0,0,0,0	test	ward_and_allport	0,0,0,1,3,0,2,0,0	71.0	46.0	2.718	0,0,0,1,2,3,0,0,0	to_hand	s636
479.452	1.537	0	PA_with_intermediate	3,0,0,1,2,0,0,0,0	test	ward_and_allport	0,0,0,1,3,0,2,0,0	89.0	46.0	1.537	0,0,0,1,2,3,0,0,0	to_board	s636
481.005	0.267	0	PA_with_intermediate	3,0,0,1,0,0,0,0,0	test	ward_and_allport	0,0,0,1,3,0,2,0,0	71.0	46.0	0.267	0,0,0,1,2,3,0,0,0	to_hand	s636
481.273	0.266	0	PA_with_intermediate	3,0,0,1,0,0,2,0,0	test	ward_and_allport	0,0,0,1,3,0,2,0,0	82.0	46.0	0.266	0,0,0,1,2,3,0,0,0	to_board	s636
481.551	0.27	0	PA_with_intermediate	0,0,0,1,0,0,2,0,0	test	ward_and_allport	0,0,0,1,3,0,2,0,0	89.0	46.0	0.27	0,0,0,1,2,3,0,0,0	to_hand	s636
481.822	0.561	0	PA_with_intermediate	0,0,0,1,3,0,2,0,0	test	ward_and_allport	0,0,0,1,3,0,2,0,0	71.0	46.0	0.561	0,0,0,1,2,3,0,0,0	to_board	s636
482.395	1.0	0	PA_with_intermediate	n/a	test	ward_and_allport	n/a	-1.0	46.0	n/a	n/a	feedback	s636
483.395	1.136	0	PA_with_intermediate	n/a	test	ward_and_allport	n/a	-1.0	46.0	n/a	n/a	ITI	s636
484.545	1.573	1	PA_without_intermediate	0,0,0,1,2,0,0,0,0	test	ward_and_allport	3,1,0,0,0,0,2,0,0	71.0	47.0	1.573	0,0,0,1,2,3,0,0,0	to_hand	s636
486.119	1.653	0	PA_without_intermediate	3,0,0,1,2,0,0,0,0	test	ward_and_allport	3,1,0,0,0,0,2,0,0	89.0	47.0	1.653	0,0,0,1,2,3,0,0,0	to_board	s636
487.783	0.518	0	PA_without_intermediate	3,0,0,1,0,0,0,0,0	test	ward_and_allport	3,1,0,0,0,0,2,0,0	71.0	47.0	0.518	0,0,0,1,2,3,0,0,0	to_hand	s636
488.302	0.25	0	PA_without_intermediate	3,0,0,1,0,0,2,0,0	test	ward_and_allport	3,1,0,0,0,0,2,0,0	82.0	47.0	0.25	0,0,0,1,2,3,0,0,0	to_board	s636
488.561	0.304	0	PA_without_intermediate	3,0,0,0,0,0,2,0,0	test	ward_and_allport	3,1,0,0,0,0,2,0,0	71.0	47.0	0.304	0,0,0,1,2,3,0,0,0	to_hand	s636
488.867	0.302	0	PA_without_intermediate	3,1,0,0,0,0,2,0,0	test	ward_and_allport	3,1,0,0,0,0,2,0,0	89.0	47.0	0.302	0,0,0,1,2,3,0,0,0	to_board	s636
489.178	1.0	0	PA_without_intermediate	n/a	test	ward_and_allport	n/a	-1.0	47.0	n/a	n/a	feedback	s636
490.178	1.68	0	PA_without_intermediate	n/a	test	ward_and_allport	n/a	-1.0	47.0	n/a	n/a	ITI	s636
n/a	n/a	0	n/a	n/a	n/a	n/a	n/a	n/a	n/a	n/a	n/a	ITI	n/a
