onset	duration	planning	condition	current_position	exp_stage	experiment_exp_id	goal_state	key_press	problem_id	response_time	start_state	trial_id	worker_id
-42.42	0.0	0	n/a	n/a	n/a	ward_and_allport	n/a	32.0	n/a	5.802	n/a	instructions	s525
3.008	2.054	1	UA_with_intermediate	1,0,0,2,0,0,0,0,0	practice	ward_and_allport	1,2,3,0,0,0,0,0,0	71.0	0.0	2.054	1,0,0,2,3,0,0,0,0	to_hand	s525
5.064	0.863	0	UA_with_intermediate	1,3,0,2,0,0,0,0,0	practice	ward_and_allport	1,2,3,0,0,0,0,0,0	89.0	0.0	0.863	1,0,0,2,3,0,0,0,0	to_board	s525
5.928	3.209	0	UA_with_intermediate	1,3,0,0,0,0,0,0,0	practice	ward_and_allport	1,2,3,0,0,0,0,0,0	71.0	0.0	3.209	1,0,0,2,3,0,0,0,0	to_hand	s525
9.138	0.818	0	UA_with_intermediate	1,3,2,0,0,0,0,0,0	practice	ward_and_allport	1,2,3,0,0,0,0,0,0	89.0	0.0	0.818	1,0,0,2,3,0,0,0,0	to_board	s525
9.957	4.6	0	UA_with_intermediate	1,3,0,0,0,0,0,0,0	practice	ward_and_allport	1,2,3,0,0,0,0,0,0	89.0	0.0	4.6	1,0,0,2,3,0,0,0,0	to_hand	s525
14.557	0.042	0	UA_with_intermediate	1,3,0,2,0,0,0,0,0	practice	ward_and_allport	1,2,3,0,0,0,0,0,0	71.0	0.0	0.042	1,0,0,2,3,0,0,0,0	to_board	s525
14.6	0.868	0	UA_with_intermediate	1,0,0,2,0,0,0,0,0	practice	ward_and_allport	1,2,3,0,0,0,0,0,0	89.0	0.0	0.868	1,0,0,2,3,0,0,0,0	to_hand	s525
15.469	0.608	0	UA_with_intermediate	1,0,0,2,3,0,0,0,0	practice	ward_and_allport	1,2,3,0,0,0,0,0,0	71.0	0.0	0.608	1,0,0,2,3,0,0,0,0	to_board	s525
16.078	1.27	0	UA_with_intermediate	1,0,0,2,0,0,0,0,0	practice	ward_and_allport	1,2,3,0,0,0,0,0,0	71.0	0.0	1.27	1,0,0,2,3,0,0,0,0	to_hand	s525
17.349	0.536	0	UA_with_intermediate	1,0,0,2,0,0,3,0,0	practice	ward_and_allport	1,2,3,0,0,0,0,0,0	82.0	0.0	0.536	1,0,0,2,3,0,0,0,0	to_board	s525
17.888	0.629	0	UA_with_intermediate	1,0,0,0,0,0,3,0,0	practice	ward_and_allport	1,2,3,0,0,0,0,0,0	71.0	0.0	0.629	1,0,0,2,3,0,0,0,0	to_hand	s525
18.519	0.509	0	UA_with_intermediate	1,2,0,0,0,0,3,0,0	practice	ward_and_allport	1,2,3,0,0,0,0,0,0	89.0	0.0	0.509	1,0,0,2,3,0,0,0,0	to_board	s525
19.03	0.71	0	UA_with_intermediate	1,2,0,0,0,0,0,0,0	practice	ward_and_allport	1,2,3,0,0,0,0,0,0	82.0	0.0	0.71	1,0,0,2,3,0,0,0,0	to_hand	s525
19.74	0.861	0	UA_with_intermediate	1,2,3,0,0,0,0,0,0	practice	ward_and_allport	1,2,3,0,0,0,0,0,0	89.0	0.0	0.861	1,0,0,2,3,0,0,0,0	to_board	s525
20.605	1.0	0	UA_with_intermediate	n/a	practice	ward_and_allport	n/a	-1.0	0.0	n/a	n/a	feedback	s525
23.107	2.937	1	UA_with_intermediate	1,0,0,3,0,0,0,0,0	practice	ward_and_allport	1,3,2,0,0,0,0,0,0	89.0	1.0	2.937	1,2,0,3,0,0,0,0,0	to_hand	s525
26.045	1.339	0	UA_with_intermediate	1,0,0,3,0,0,2,0,0	practice	ward_and_allport	1,3,2,0,0,0,0,0,0	82.0	1.0	1.339	1,2,0,3,0,0,0,0,0	to_board	s525
27.387	0.593	0	UA_with_intermediate	1,0,0,0,0,0,2,0,0	practice	ward_and_allport	1,3,2,0,0,0,0,0,0	71.0	1.0	0.593	1,2,0,3,0,0,0,0,0	to_hand	s525
27.981	0.368	0	UA_with_intermediate	1,3,0,0,0,0,2,0,0	practice	ward_and_allport	1,3,2,0,0,0,0,0,0	89.0	1.0	0.368	1,2,0,3,0,0,0,0,0	to_board	s525
28.351	0.63	0	UA_with_intermediate	1,3,0,0,0,0,0,0,0	practice	ward_and_allport	1,3,2,0,0,0,0,0,0	82.0	1.0	0.63	1,2,0,3,0,0,0,0,0	to_hand	s525
28.982	0.66	0	UA_with_intermediate	1,3,2,0,0,0,0,0,0	practice	ward_and_allport	1,3,2,0,0,0,0,0,0	89.0	1.0	0.66	1,2,0,3,0,0,0,0,0	to_board	s525
29.645	1.0	0	UA_with_intermediate	n/a	practice	ward_and_allport	n/a	-1.0	1.0	n/a	n/a	feedback	s525
30.645	1.1	0	UA_with_intermediate	n/a	practice	ward_and_allport	n/a	-1.0	1.0	n/a	n/a	ITI	s525
31.748	1.996	1	UA_without_intermediate	0,0,0,1,2,0,0,0,0	practice	ward_and_allport	3,2,1,0,0,0,0,0,0	82.0	2.0	1.996	0,0,0,1,2,0,3,0,0	to_hand	s525
33.744	0.698	0	UA_without_intermediate	3,0,0,1,2,0,0,0,0	practice	ward_and_allport	3,2,1,0,0,0,0,0,0	89.0	2.0	0.698	0,0,0,1,2,0,3,0,0	to_board	s525
34.443	0.749	0	UA_without_intermediate	3,0,0,1,0,0,0,0,0	practice	ward_and_allport	3,2,1,0,0,0,0,0,0	71.0	2.0	0.749	0,0,0,1,2,0,3,0,0	to_hand	s525
35.193	0.53	0	UA_without_intermediate	3,2,0,1,0,0,0,0,0	practice	ward_and_allport	3,2,1,0,0,0,0,0,0	89.0	2.0	0.53	0,0,0,1,2,0,3,0,0	to_board	s525
35.725	0.444	0	UA_without_intermediate	3,2,0,0,0,0,0,0,0	practice	ward_and_allport	3,2,1,0,0,0,0,0,0	71.0	2.0	0.444	0,0,0,1,2,0,3,0,0	to_hand	s525
36.169	0.352	0	UA_without_intermediate	3,2,1,0,0,0,0,0,0	practice	ward_and_allport	3,2,1,0,0,0,0,0,0	89.0	2.0	0.352	0,0,0,1,2,0,3,0,0	to_board	s525
36.525	1.0	0	UA_without_intermediate	n/a	practice	ward_and_allport	n/a	-1.0	2.0	n/a	n/a	feedback	s525
37.525	1.2	0	UA_without_intermediate	n/a	practice	ward_and_allport	n/a	-1.0	2.0	n/a	n/a	ITI	s525
38.727	2.026	1	UA_without_intermediate	0,0,0,1,0,0,3,0,0	practice	ward_and_allport	2,3,1,0,0,0,0,0,0	71.0	3.0	2.026	0,0,0,1,2,0,3,0,0	to_hand	s525
40.755	0.43	0	UA_without_intermediate	2,0,0,1,0,0,3,0,0	practice	ward_and_allport	2,3,1,0,0,0,0,0,0	89.0	3.0	0.43	0,0,0,1,2,0,3,0,0	to_board	s525
41.188	0.984	0	UA_without_intermediate	2,0,0,1,0,0,0,0,0	practice	ward_and_allport	2,3,1,0,0,0,0,0,0	82.0	3.0	0.984	0,0,0,1,2,0,3,0,0	to_hand	s525
42.173	0.667	0	UA_without_intermediate	2,3,0,1,0,0,0,0,0	practice	ward_and_allport	2,3,1,0,0,0,0,0,0	89.0	3.0	0.667	0,0,0,1,2,0,3,0,0	to_board	s525
42.842	0.522	0	UA_without_intermediate	2,3,0,0,0,0,0,0,0	practice	ward_and_allport	2,3,1,0,0,0,0,0,0	71.0	3.0	0.522	0,0,0,1,2,0,3,0,0	to_hand	s525
43.365	0.307	0	UA_without_intermediate	2,3,1,0,0,0,0,0,0	practice	ward_and_allport	2,3,1,0,0,0,0,0,0	89.0	3.0	0.307	0,0,0,1,2,0,3,0,0	to_board	s525
43.676	1.0	0	UA_without_intermediate	n/a	practice	ward_and_allport	n/a	-1.0	3.0	n/a	n/a	feedback	s525
44.676	1.0	0	UA_without_intermediate	n/a	practice	ward_and_allport	n/a	-1.0	3.0	n/a	n/a	ITI	s525
47.683	2.575	1	PA_with_intermediate	0,0,0,1,2,0,0,0,0	test	ward_and_allport	0,0,0,1,3,0,2,0,0	71.0	0.0	2.575	0,0,0,1,2,3,0,0,0	to_hand	s525
50.259	1.393	0	PA_with_intermediate	3,0,0,1,2,0,0,0,0	test	ward_and_allport	0,0,0,1,3,0,2,0,0	89.0	0.0	1.393	0,0,0,1,2,3,0,0,0	to_board	s525
51.654	1.074	0	PA_with_intermediate	3,0,0,1,0,0,0,0,0	test	ward_and_allport	0,0,0,1,3,0,2,0,0	71.0	0.0	1.074	0,0,0,1,2,3,0,0,0	to_hand	s525
52.729	0.317	0	PA_with_intermediate	3,0,0,1,0,0,2,0,0	test	ward_and_allport	0,0,0,1,3,0,2,0,0	82.0	0.0	0.317	0,0,0,1,2,3,0,0,0	to_board	s525
53.049	2.359	0	PA_with_intermediate	0,0,0,1,0,0,2,0,0	test	ward_and_allport	0,0,0,1,3,0,2,0,0	89.0	0.0	2.359	0,0,0,1,2,3,0,0,0	to_hand	s525
55.408	0.408	0	PA_with_intermediate	0,0,0,1,3,0,2,0,0	test	ward_and_allport	0,0,0,1,3,0,2,0,0	71.0	0.0	0.408	0,0,0,1,2,3,0,0,0	to_board	s525
55.821	1.0	0	PA_with_intermediate	n/a	test	ward_and_allport	n/a	-1.0	0.0	n/a	n/a	feedback	s525
56.821	3.176	0	PA_with_intermediate	n/a	test	ward_and_allport	n/a	-1.0	0.0	n/a	n/a	ITI	s525
59.998	1.826	1	PA_with_intermediate	0,0,0,1,2,0,0,0,0	test	ward_and_allport	0,0,0,1,3,0,2,0,0	71.0	1.0	1.826	0,0,0,1,2,3,0,0,0	to_hand	s525
61.826	0.61	0	PA_with_intermediate	3,0,0,1,2,0,0,0,0	test	ward_and_allport	0,0,0,1,3,0,2,0,0	89.0	1.0	0.61	0,0,0,1,2,3,0,0,0	to_board	s525
62.438	0.631	0	PA_with_intermediate	3,0,0,1,0,0,0,0,0	test	ward_and_allport	0,0,0,1,3,0,2,0,0	71.0	1.0	0.631	0,0,0,1,2,3,0,0,0	to_hand	s525
63.069	0.333	0	PA_with_intermediate	3,0,0,1,0,0,2,0,0	test	ward_and_allport	0,0,0,1,3,0,2,0,0	82.0	1.0	0.333	0,0,0,1,2,3,0,0,0	to_board	s525
63.405	0.444	0	PA_with_intermediate	0,0,0,1,0,0,2,0,0	test	ward_and_allport	0,0,0,1,3,0,2,0,0	89.0	1.0	0.444	0,0,0,1,2,3,0,0,0	to_hand	s525
63.85	0.323	0	PA_with_intermediate	0,0,0,1,3,0,2,0,0	test	ward_and_allport	0,0,0,1,3,0,2,0,0	71.0	1.0	0.323	0,0,0,1,2,3,0,0,0	to_board	s525
64.176	1.0	0	PA_with_intermediate	n/a	test	ward_and_allport	n/a	-1.0	1.0	n/a	n/a	feedback	s525
65.176	2.36	0	PA_with_intermediate	n/a	test	ward_and_allport	n/a	-1.0	1.0	n/a	n/a	ITI	s525
67.538	4.303	1	PA_with_intermediate	0,0,0,0,0,0,1,2,0	test	ward_and_allport	0,0,0,2,0,0,1,3,0	82.0	2.0	4.303	0,0,0,0,0,0,1,2,3	to_hand	s525
71.843	0.84	0	PA_with_intermediate	3,0,0,0,0,0,1,2,0	test	ward_and_allport	0,0,0,2,0,0,1,3,0	89.0	2.0	0.84	0,0,0,0,0,0,1,2,3	to_board	s525
72.686	1.363	0	PA_with_intermediate	0,0,0,0,0,0,1,2,0	test	ward_and_allport	0,0,0,2,0,0,1,3,0	89.0	2.0	1.363	0,0,0,0,0,0,1,2,3	to_hand	s525
74.05	0.633	0	PA_with_intermediate	3,0,0,0,0,0,1,2,0	test	ward_and_allport	0,0,0,2,0,0,1,3,0	89.0	2.0	0.633	0,0,0,0,0,0,1,2,3	to_board	s525
74.685	1.161	0	PA_with_intermediate	3,0,0,0,0,0,1,0,0	test	ward_and_allport	0,0,0,2,0,0,1,3,0	82.0	2.0	1.161	0,0,0,0,0,0,1,2,3	to_hand	s525
75.847	0.582	0	PA_with_intermediate	3,0,0,2,0,0,1,0,0	test	ward_and_allport	0,0,0,2,0,0,1,3,0	71.0	2.0	0.582	0,0,0,0,0,0,1,2,3	to_board	s525
76.433	1.275	0	PA_with_intermediate	0,0,0,2,0,0,1,0,0	test	ward_and_allport	0,0,0,2,0,0,1,3,0	89.0	2.0	1.275	0,0,0,0,0,0,1,2,3	to_hand	s525
77.708	0.552	0	PA_with_intermediate	0,0,0,2,0,0,1,3,0	test	ward_and_allport	0,0,0,2,0,0,1,3,0	82.0	2.0	0.552	0,0,0,0,0,0,1,2,3	to_board	s525
78.263	1.0	0	PA_with_intermediate	n/a	test	ward_and_allport	n/a	-1.0	2.0	n/a	n/a	feedback	s525
79.263	1.0	0	PA_with_intermediate	n/a	test	ward_and_allport	n/a	-1.0	2.0	n/a	n/a	ITI	s525
80.266	1.992	1	PA_without_intermediate	0,0,0,1,2,0,0,0,0	test	ward_and_allport	2,0,0,0,0,0,3,1,0	71.0	3.0	1.992	0,0,0,1,2,3,0,0,0	to_hand	s525
82.26	0.552	0	PA_without_intermediate	0,0,0,1,2,0,3,0,0	test	ward_and_allport	2,0,0,0,0,0,3,1,0	82.0	3.0	0.552	0,0,0,1,2,3,0,0,0	to_board	s525
82.814	1.033	0	PA_without_intermediate	0,0,0,1,0,0,3,0,0	test	ward_and_allport	2,0,0,0,0,0,3,1,0	71.0	3.0	1.033	0,0,0,1,2,3,0,0,0	to_hand	s525
83.848	0.375	0	PA_without_intermediate	2,0,0,1,0,0,3,0,0	test	ward_and_allport	2,0,0,0,0,0,3,1,0	89.0	3.0	0.375	0,0,0,1,2,3,0,0,0	to_board	s525
84.225	2.019	0	PA_without_intermediate	2,0,0,0,0,0,3,0,0	test	ward_and_allport	2,0,0,0,0,0,3,1,0	71.0	3.0	2.019	0,0,0,1,2,3,0,0,0	to_hand	s525
86.246	0.386	0	PA_without_intermediate	2,0,0,0,0,0,3,1,0	test	ward_and_allport	2,0,0,0,0,0,3,1,0	82.0	3.0	0.386	0,0,0,1,2,3,0,0,0	to_board	s525
86.636	1.0	0	PA_without_intermediate	n/a	test	ward_and_allport	n/a	-1.0	3.0	n/a	n/a	feedback	s525
87.636	1.408	0	PA_without_intermediate	n/a	test	ward_and_allport	n/a	-1.0	3.0	n/a	n/a	ITI	s525
89.045	4.011	1	PA_with_intermediate	0,0,0,0,0,0,1,2,0	test	ward_and_allport	0,0,0,2,3,0,1,0,0	82.0	4.0	4.011	0,0,0,0,0,0,1,2,3	to_hand	s525
93.058	0.431	0	PA_with_intermediate	3,0,0,0,0,0,1,2,0	test	ward_and_allport	0,0,0,2,3,0,1,0,0	89.0	4.0	0.431	0,0,0,0,0,0,1,2,3	to_board	s525
93.492	0.772	0	PA_with_intermediate	3,0,0,0,0,0,1,0,0	test	ward_and_allport	0,0,0,2,3,0,1,0,0	82.0	4.0	0.772	0,0,0,0,0,0,1,2,3	to_hand	s525
94.265	0.7	0	PA_with_intermediate	3,2,0,0,0,0,1,0,0	test	ward_and_allport	0,0,0,2,3,0,1,0,0	89.0	4.0	0.7	0,0,0,0,0,0,1,2,3	to_board	s525
94.968	2.674	0	PA_with_intermediate	3,0,0,0,0,0,1,0,0	test	ward_and_allport	0,0,0,2,3,0,1,0,0	89.0	4.0	2.674	0,0,0,0,0,0,1,2,3	to_hand	s525
97.643	0.483	0	PA_with_intermediate	3,0,0,0,0,0,1,2,0	test	ward_and_allport	0,0,0,2,3,0,1,0,0	82.0	4.0	0.483	0,0,0,0,0,0,1,2,3	to_board	s525
98.129	0.946	0	PA_with_intermediate	0,0,0,0,0,0,1,2,0	test	ward_and_allport	0,0,0,2,3,0,1,0,0	89.0	4.0	0.946	0,0,0,0,0,0,1,2,3	to_hand	s525
99.076	0.948	0	PA_with_intermediate	3,0,0,0,0,0,1,2,0	test	ward_and_allport	0,0,0,2,3,0,1,0,0	89.0	4.0	0.948	0,0,0,0,0,0,1,2,3	to_board	s525
100.027	0.71	0	PA_with_intermediate	3,0,0,0,0,0,1,0,0	test	ward_and_allport	0,0,0,2,3,0,1,0,0	82.0	4.0	0.71	0,0,0,0,0,0,1,2,3	to_hand	s525
100.737	0.6	0	PA_with_intermediate	3,0,0,2,0,0,1,0,0	test	ward_and_allport	0,0,0,2,3,0,1,0,0	71.0	4.0	0.6	0,0,0,0,0,0,1,2,3	to_board	s525
101.341	0.681	0	PA_with_intermediate	0,0,0,2,0,0,1,0,0	test	ward_and_allport	0,0,0,2,3,0,1,0,0	89.0	4.0	0.681	0,0,0,0,0,0,1,2,3	to_hand	s525
102.023	0.335	0	PA_with_intermediate	0,0,0,2,3,0,1,0,0	test	ward_and_allport	0,0,0,2,3,0,1,0,0	71.0	4.0	0.335	0,0,0,0,0,0,1,2,3	to_board	s525
102.362	1.0	0	PA_with_intermediate	n/a	test	ward_and_allport	n/a	-1.0	4.0	n/a	n/a	feedback	s525
103.362	1.816	0	PA_with_intermediate	n/a	test	ward_and_allport	n/a	-1.0	4.0	n/a	n/a	ITI	s525
105.18	2.724	1	PA_without_intermediate	0,0,0,0,0,0,1,2,0	test	ward_and_allport	3,1,0,2,0,0,0,0,0	82.0	5.0	2.724	0,0,0,0,0,0,1,2,3	to_hand	s525
107.905	0.5	0	PA_without_intermediate	3,0,0,0,0,0,1,2,0	test	ward_and_allport	3,1,0,2,0,0,0,0,0	89.0	5.0	0.5	0,0,0,0,0,0,1,2,3	to_board	s525
108.407	2.287	0	PA_without_intermediate	3,0,0,0,0,0,1,0,0	test	ward_and_allport	3,1,0,2,0,0,0,0,0	82.0	5.0	2.287	0,0,0,0,0,0,1,2,3	to_hand	s525
110.695	0.575	0	PA_without_intermediate	3,0,0,2,0,0,1,0,0	test	ward_and_allport	3,1,0,2,0,0,0,0,0	71.0	5.0	0.575	0,0,0,0,0,0,1,2,3	to_board	s525
111.274	0.674	0	PA_without_intermediate	3,0,0,2,0,0,0,0,0	test	ward_and_allport	3,1,0,2,0,0,0,0,0	82.0	5.0	0.674	0,0,0,0,0,0,1,2,3	to_hand	s525
111.949	0.451	0	PA_without_intermediate	3,1,0,2,0,0,0,0,0	test	ward_and_allport	3,1,0,2,0,0,0,0,0	89.0	5.0	0.451	0,0,0,0,0,0,1,2,3	to_board	s525
112.405	1.0	0	PA_without_intermediate	n/a	test	ward_and_allport	n/a	-1.0	5.0	n/a	n/a	feedback	s525
113.405	2.088	0	PA_without_intermediate	n/a	test	ward_and_allport	n/a	-1.0	5.0	n/a	n/a	ITI	s525
115.496	1.962	1	PA_without_intermediate	0,0,0,0,0,0,1,2,0	test	ward_and_allport	2,0,0,3,1,0,0,0,0	82.0	6.0	1.962	0,0,0,0,0,0,1,2,3	to_hand	s525
117.459	1.755	0	PA_without_intermediate	0,0,0,3,0,0,1,2,0	test	ward_and_allport	2,0,0,3,1,0,0,0,0	71.0	6.0	1.755	0,0,0,0,0,0,1,2,3	to_board	s525
119.217	1.532	0	PA_without_intermediate	0,0,0,3,0,0,1,0,0	test	ward_and_allport	2,0,0,3,1,0,0,0,0	82.0	6.0	1.532	0,0,0,0,0,0,1,2,3	to_hand	s525
120.751	0.361	0	PA_without_intermediate	2,0,0,3,0,0,1,0,0	test	ward_and_allport	2,0,0,3,1,0,0,0,0	89.0	6.0	0.361	0,0,0,0,0,0,1,2,3	to_board	s525
121.115	0.47	0	PA_without_intermediate	2,0,0,3,0,0,0,0,0	test	ward_and_allport	2,0,0,3,1,0,0,0,0	82.0	6.0	0.47	0,0,0,0,0,0,1,2,3	to_hand	s525
121.586	0.388	0	PA_without_intermediate	2,0,0,3,1,0,0,0,0	test	ward_and_allport	2,0,0,3,1,0,0,0,0	71.0	6.0	0.388	0,0,0,0,0,0,1,2,3	to_board	s525
121.979	1.0	0	PA_without_intermediate	n/a	test	ward_and_allport	n/a	-1.0	6.0	n/a	n/a	feedback	s525
122.979	1.136	0	PA_without_intermediate	n/a	test	ward_and_allport	n/a	-1.0	6.0	n/a	n/a	ITI	s525
124.12	2.991	1	PA_without_intermediate	1,2,0,0,0,0,0,0,0	test	ward_and_allport	0,0,0,2,0,0,3,1,0	89.0	7.0	2.991	1,2,3,0,0,0,0,0,0	to_hand	s525
127.112	0.534	0	PA_without_intermediate	1,2,0,0,0,0,3,0,0	test	ward_and_allport	0,0,0,2,0,0,3,1,0	82.0	7.0	0.534	1,2,3,0,0,0,0,0,0	to_board	s525
127.65	2.072	0	PA_without_intermediate	1,0,0,0,0,0,3,0,0	test	ward_and_allport	0,0,0,2,0,0,3,1,0	89.0	7.0	2.072	1,2,3,0,0,0,0,0,0	to_hand	s525
129.722	0.636	0	PA_without_intermediate	1,0,0,2,0,0,3,0,0	test	ward_and_allport	0,0,0,2,0,0,3,1,0	71.0	7.0	0.636	1,2,3,0,0,0,0,0,0	to_board	s525
130.362	0.742	0	PA_without_intermediate	0,0,0,2,0,0,3,0,0	test	ward_and_allport	0,0,0,2,0,0,3,1,0	89.0	7.0	0.742	1,2,3,0,0,0,0,0,0	to_hand	s525
131.106	0.552	0	PA_without_intermediate	0,0,0,2,0,0,3,1,0	test	ward_and_allport	0,0,0,2,0,0,3,1,0	82.0	7.0	0.552	1,2,3,0,0,0,0,0,0	to_board	s525
131.663	1.0	0	PA_without_intermediate	n/a	test	ward_and_allport	n/a	-1.0	7.0	n/a	n/a	feedback	s525
132.663	6.168	0	PA_without_intermediate	n/a	test	ward_and_allport	n/a	-1.0	7.0	n/a	n/a	ITI	s525
138.836	2.927	1	PA_without_intermediate	1,2,0,0,0,0,0,0,0	test	ward_and_allport	0,0,0,3,2,0,1,0,0	89.0	8.0	2.927	1,2,3,0,0,0,0,0,0	to_hand	s525
141.764	0.427	0	PA_without_intermediate	1,2,0,3,0,0,0,0,0	test	ward_and_allport	0,0,0,3,2,0,1,0,0	71.0	8.0	0.427	1,2,3,0,0,0,0,0,0	to_board	s525
142.196	0.689	0	PA_without_intermediate	1,0,0,3,0,0,0,0,0	test	ward_and_allport	0,0,0,3,2,0,1,0,0	89.0	8.0	0.689	1,2,3,0,0,0,0,0,0	to_hand	s525
142.886	0.31	0	PA_without_intermediate	1,0,0,3,2,0,0,0,0	test	ward_and_allport	0,0,0,3,2,0,1,0,0	71.0	8.0	0.31	1,2,3,0,0,0,0,0,0	to_board	s525
143.2	0.462	0	PA_without_intermediate	0,0,0,3,2,0,0,0,0	test	ward_and_allport	0,0,0,3,2,0,1,0,0	89.0	8.0	0.462	1,2,3,0,0,0,0,0,0	to_hand	s525
143.663	0.298	0	PA_without_intermediate	0,0,0,3,2,0,1,0,0	test	ward_and_allport	0,0,0,3,2,0,1,0,0	82.0	8.0	0.298	1,2,3,0,0,0,0,0,0	to_board	s525
143.966	1.0	0	PA_without_intermediate	n/a	test	ward_and_allport	n/a	-1.0	8.0	n/a	n/a	feedback	s525
144.966	1.816	0	PA_without_intermediate	n/a	test	ward_and_allport	n/a	-1.0	8.0	n/a	n/a	ITI	s525
146.787	2.985	1	PA_with_intermediate	0,0,0,0,0,0,1,2,0	test	ward_and_allport	2,3,0,0,0,0,1,0,0	82.0	9.0	2.985	0,0,0,0,0,0,1,2,3	to_hand	s525
149.773	0.497	0	PA_with_intermediate	3,0,0,0,0,0,1,2,0	test	ward_and_allport	2,3,0,0,0,0,1,0,0	89.0	9.0	0.497	0,0,0,0,0,0,1,2,3	to_board	s525
150.273	2.412	0	PA_with_intermediate	0,0,0,0,0,0,1,2,0	test	ward_and_allport	2,3,0,0,0,0,1,0,0	89.0	9.0	2.412	0,0,0,0,0,0,1,2,3	to_hand	s525
152.685	0.446	0	PA_with_intermediate	0,0,0,3,0,0,1,2,0	test	ward_and_allport	2,3,0,0,0,0,1,0,0	71.0	9.0	0.446	0,0,0,0,0,0,1,2,3	to_board	s525
153.135	0.559	0	PA_with_intermediate	0,0,0,3,0,0,1,0,0	test	ward_and_allport	2,3,0,0,0,0,1,0,0	82.0	9.0	0.559	0,0,0,0,0,0,1,2,3	to_hand	s525
153.695	0.591	0	PA_with_intermediate	2,0,0,3,0,0,1,0,0	test	ward_and_allport	2,3,0,0,0,0,1,0,0	89.0	9.0	0.591	0,0,0,0,0,0,1,2,3	to_board	s525
154.29	0.45	0	PA_with_intermediate	2,0,0,0,0,0,1,0,0	test	ward_and_allport	2,3,0,0,0,0,1,0,0	71.0	9.0	0.45	0,0,0,0,0,0,1,2,3	to_hand	s525
154.74	0.442	0	PA_with_intermediate	2,3,0,0,0,0,1,0,0	test	ward_and_allport	2,3,0,0,0,0,1,0,0	89.0	9.0	0.442	0,0,0,0,0,0,1,2,3	to_board	s525
155.188	1.0	0	PA_with_intermediate	n/a	test	ward_and_allport	n/a	-1.0	9.0	n/a	n/a	feedback	s525
156.188	1.952	0	PA_with_intermediate	n/a	test	ward_and_allport	n/a	-1.0	9.0	n/a	n/a	ITI	s525
158.144	4.116	1	PA_with_intermediate	0,0,0,0,0,0,1,2,0	test	ward_and_allport	2,3,0,0,0,0,1,0,0	82.0	10.0	4.116	0,0,0,0,0,0,1,2,3	to_hand	s525
162.261	0.458	0	PA_with_intermediate	0,0,0,3,0,0,1,2,0	test	ward_and_allport	2,3,0,0,0,0,1,0,0	71.0	10.0	0.458	0,0,0,0,0,0,1,2,3	to_board	s525
162.724	0.792	0	PA_with_intermediate	0,0,0,3,0,0,1,0,0	test	ward_and_allport	2,3,0,0,0,0,1,0,0	82.0	10.0	0.792	0,0,0,0,0,0,1,2,3	to_hand	s525
163.517	0.811	0	PA_with_intermediate	2,0,0,3,0,0,1,0,0	test	ward_and_allport	2,3,0,0,0,0,1,0,0	89.0	10.0	0.811	0,0,0,0,0,0,1,2,3	to_board	s525
164.333	0.478	0	PA_with_intermediate	2,0,0,0,0,0,1,0,0	test	ward_and_allport	2,3,0,0,0,0,1,0,0	71.0	10.0	0.478	0,0,0,0,0,0,1,2,3	to_hand	s525
164.812	0.407	0	PA_with_intermediate	2,3,0,0,0,0,1,0,0	test	ward_and_allport	2,3,0,0,0,0,1,0,0	89.0	10.0	0.407	0,0,0,0,0,0,1,2,3	to_board	s525
165.224	1.0	0	PA_with_intermediate	n/a	test	ward_and_allport	n/a	-1.0	10.0	n/a	n/a	feedback	s525
166.224	1.136	0	PA_with_intermediate	n/a	test	ward_and_allport	n/a	-1.0	10.0	n/a	n/a	ITI	s525
167.365	1.364	1	PA_without_intermediate	0,0,0,1,2,0,0,0,0	test	ward_and_allport	3,2,0,0,0,0,1,0,0	71.0	11.0	1.364	0,0,0,1,2,3,0,0,0	to_hand	s525
168.731	1.343	0	PA_without_intermediate	3,0,0,1,2,0,0,0,0	test	ward_and_allport	3,2,0,0,0,0,1,0,0	89.0	11.0	1.343	0,0,0,1,2,3,0,0,0	to_board	s525
170.078	0.738	0	PA_without_intermediate	3,0,0,1,0,0,0,0,0	test	ward_and_allport	3,2,0,0,0,0,1,0,0	71.0	11.0	0.738	0,0,0,1,2,3,0,0,0	to_hand	s525
170.817	0.572	0	PA_without_intermediate	3,2,0,1,0,0,0,0,0	test	ward_and_allport	3,2,0,0,0,0,1,0,0	89.0	11.0	0.572	0,0,0,1,2,3,0,0,0	to_board	s525
171.393	1.33	0	PA_without_intermediate	3,2,0,0,0,0,0,0,0	test	ward_and_allport	3,2,0,0,0,0,1,0,0	71.0	11.0	1.33	0,0,0,1,2,3,0,0,0	to_hand	s525
172.724	0.366	0	PA_without_intermediate	3,2,0,0,0,0,1,0,0	test	ward_and_allport	3,2,0,0,0,0,1,0,0	82.0	11.0	0.366	0,0,0,1,2,3,0,0,0	to_board	s525
173.095	1.0	0	PA_without_intermediate	n/a	test	ward_and_allport	n/a	-1.0	11.0	n/a	n/a	feedback	s525
174.095	1.68	0	PA_without_intermediate	n/a	test	ward_and_allport	n/a	-1.0	11.0	n/a	n/a	ITI	s525
175.778	2.382	1	PA_without_intermediate	0,0,0,0,0,0,1,2,0	test	ward_and_allport	2,0,0,3,1,0,0,0,0	82.0	12.0	2.382	0,0,0,0,0,0,1,2,3	to_hand	s525
178.161	0.637	0	PA_without_intermediate	0,0,0,3,0,0,1,2,0	test	ward_and_allport	2,0,0,3,1,0,0,0,0	71.0	12.0	0.637	0,0,0,0,0,0,1,2,3	to_board	s525
178.803	0.832	0	PA_without_intermediate	0,0,0,3,0,0,1,0,0	test	ward_and_allport	2,0,0,3,1,0,0,0,0	82.0	12.0	0.832	0,0,0,0,0,0,1,2,3	to_hand	s525
179.635	0.572	0	PA_without_intermediate	2,0,0,3,0,0,1,0,0	test	ward_and_allport	2,0,0,3,1,0,0,0,0	89.0	12.0	0.572	0,0,0,0,0,0,1,2,3	to_board	s525
180.212	0.767	0	PA_without_intermediate	2,0,0,3,0,0,0,0,0	test	ward_and_allport	2,0,0,3,1,0,0,0,0	82.0	12.0	0.767	0,0,0,0,0,0,1,2,3	to_hand	s525
180.979	0.432	0	PA_without_intermediate	2,0,0,3,1,0,0,0,0	test	ward_and_allport	2,0,0,3,1,0,0,0,0	71.0	12.0	0.432	0,0,0,0,0,0,1,2,3	to_board	s525
181.417	1.0	0	PA_without_intermediate	n/a	test	ward_and_allport	n/a	-1.0	12.0	n/a	n/a	feedback	s525
182.417	2.088	0	PA_without_intermediate	n/a	test	ward_and_allport	n/a	-1.0	12.0	n/a	n/a	ITI	s525
184.509	1.782	1	PA_with_intermediate	1,2,0,0,0,0,0,0,0	test	ward_and_allport	1,3,0,0,0,0,2,0,0	89.0	13.0	1.782	1,2,3,0,0,0,0,0,0	to_hand	s525
186.292	0.761	0	PA_with_intermediate	1,2,0,3,0,0,0,0,0	test	ward_and_allport	1,3,0,0,0,0,2,0,0	71.0	13.0	0.761	1,2,3,0,0,0,0,0,0	to_board	s525
187.058	1.264	0	PA_with_intermediate	1,2,0,0,0,0,0,0,0	test	ward_and_allport	1,3,0,0,0,0,2,0,0	71.0	13.0	1.264	1,2,3,0,0,0,0,0,0	to_hand	s525
188.323	0.722	0	PA_with_intermediate	1,2,0,3,0,0,0,0,0	test	ward_and_allport	1,3,0,0,0,0,2,0,0	71.0	13.0	0.722	1,2,3,0,0,0,0,0,0	to_board	s525
189.049	0.447	0	PA_with_intermediate	1,0,0,3,0,0,0,0,0	test	ward_and_allport	1,3,0,0,0,0,2,0,0	89.0	13.0	0.447	1,2,3,0,0,0,0,0,0	to_hand	s525
189.497	0.566	0	PA_with_intermediate	1,0,0,3,0,0,2,0,0	test	ward_and_allport	1,3,0,0,0,0,2,0,0	82.0	13.0	0.566	1,2,3,0,0,0,0,0,0	to_board	s525
190.068	0.584	0	PA_with_intermediate	1,0,0,0,0,0,2,0,0	test	ward_and_allport	1,3,0,0,0,0,2,0,0	71.0	13.0	0.584	1,2,3,0,0,0,0,0,0	to_hand	s525
190.652	0.304	0	PA_with_intermediate	1,3,0,0,0,0,2,0,0	test	ward_and_allport	1,3,0,0,0,0,2,0,0	89.0	13.0	0.304	1,2,3,0,0,0,0,0,0	to_board	s525
190.962	1.0	0	PA_with_intermediate	n/a	test	ward_and_allport	n/a	-1.0	13.0	n/a	n/a	feedback	s525
191.962	1.0	0	PA_with_intermediate	n/a	test	ward_and_allport	n/a	-1.0	13.0	n/a	n/a	ITI	s525
192.967	1.2	1	PA_without_intermediate	0,0,0,0,0,0,1,2,0	test	ward_and_allport	3,2,0,1,0,0,0,0,0	82.0	14.0	1.2	0,0,0,0,0,0,1,2,3	to_hand	s525
194.168	2.009	0	PA_without_intermediate	3,0,0,0,0,0,1,2,0	test	ward_and_allport	3,2,0,1,0,0,0,0,0	89.0	14.0	2.009	0,0,0,0,0,0,1,2,3	to_board	s525
196.182	0.642	0	PA_without_intermediate	3,0,0,0,0,0,1,0,0	test	ward_and_allport	3,2,0,1,0,0,0,0,0	82.0	14.0	0.642	0,0,0,0,0,0,1,2,3	to_hand	s525
196.825	0.25	0	PA_without_intermediate	3,0,0,2,0,0,1,0,0	test	ward_and_allport	3,2,0,1,0,0,0,0,0	71.0	14.0	0.25	0,0,0,0,0,0,1,2,3	to_board	s525
197.081	0.662	0	PA_without_intermediate	3,0,0,0,0,0,1,0,0	test	ward_and_allport	3,2,0,1,0,0,0,0,0	71.0	14.0	0.662	0,0,0,0,0,0,1,2,3	to_hand	s525
197.744	0.272	0	PA_without_intermediate	3,2,0,0,0,0,1,0,0	test	ward_and_allport	3,2,0,1,0,0,0,0,0	89.0	14.0	0.272	0,0,0,0,0,0,1,2,3	to_board	s525
198.02	0.581	0	PA_without_intermediate	3,2,0,0,0,0,0,0,0	test	ward_and_allport	3,2,0,1,0,0,0,0,0	82.0	14.0	0.581	0,0,0,0,0,0,1,2,3	to_hand	s525
198.603	0.427	0	PA_without_intermediate	3,2,0,1,0,0,0,0,0	test	ward_and_allport	3,2,0,1,0,0,0,0,0	71.0	14.0	0.427	0,0,0,0,0,0,1,2,3	to_board	s525
199.037	1.0	0	PA_without_intermediate	n/a	test	ward_and_allport	n/a	-1.0	14.0	n/a	n/a	feedback	s525
200.037	1.0	0	PA_without_intermediate	n/a	test	ward_and_allport	n/a	-1.0	14.0	n/a	n/a	ITI	s525
206.045	2.097	1	PA_without_intermediate	1,2,0,0,0,0,0,0,0	test	ward_and_allport	0,0,0,3,1,0,2,0,0	89.0	15.0	2.097	1,2,3,0,0,0,0,0,0	to_hand	s525
208.143	0.534	0	PA_without_intermediate	1,2,0,3,0,0,0,0,0	test	ward_and_allport	0,0,0,3,1,0,2,0,0	71.0	15.0	0.534	1,2,3,0,0,0,0,0,0	to_board	s525
208.682	1.331	0	PA_without_intermediate	1,0,0,3,0,0,0,0,0	test	ward_and_allport	0,0,0,3,1,0,2,0,0	89.0	15.0	1.331	1,2,3,0,0,0,0,0,0	to_hand	s525
210.014	0.458	0	PA_without_intermediate	1,0,0,3,0,0,2,0,0	test	ward_and_allport	0,0,0,3,1,0,2,0,0	82.0	15.0	0.458	1,2,3,0,0,0,0,0,0	to_board	s525
210.477	0.605	0	PA_without_intermediate	0,0,0,3,0,0,2,0,0	test	ward_and_allport	0,0,0,3,1,0,2,0,0	89.0	15.0	0.605	1,2,3,0,0,0,0,0,0	to_hand	s525
211.083	0.276	0	PA_without_intermediate	0,0,0,3,1,0,2,0,0	test	ward_and_allport	0,0,0,3,1,0,2,0,0	71.0	15.0	0.276	1,2,3,0,0,0,0,0,0	to_board	s525
211.364	1.0	0	PA_without_intermediate	n/a	test	ward_and_allport	n/a	-1.0	15.0	n/a	n/a	feedback	s525
212.364	1.0	0	PA_without_intermediate	n/a	test	ward_and_allport	n/a	-1.0	15.0	n/a	n/a	ITI	s525
213.369	2.72	1	PA_with_intermediate	1,2,0,0,0,0,0,0,0	test	ward_and_allport	1,0,0,0,0,0,2,3,0	89.0	16.0	2.72	1,2,3,0,0,0,0,0,0	to_hand	s525
216.09	0.99	0	PA_with_intermediate	1,2,0,3,0,0,0,0,0	test	ward_and_allport	1,0,0,0,0,0,2,3,0	71.0	16.0	0.99	1,2,3,0,0,0,0,0,0	to_board	s525
217.084	0.429	0	PA_with_intermediate	1,0,0,3,0,0,0,0,0	test	ward_and_allport	1,0,0,0,0,0,2,3,0	89.0	16.0	0.429	1,2,3,0,0,0,0,0,0	to_hand	s525
217.515	0.317	0	PA_with_intermediate	1,0,0,3,0,0,2,0,0	test	ward_and_allport	1,0,0,0,0,0,2,3,0	82.0	16.0	0.317	1,2,3,0,0,0,0,0,0	to_board	s525
217.837	0.806	0	PA_with_intermediate	0,0,0,3,0,0,2,0,0	test	ward_and_allport	1,0,0,0,0,0,2,3,0	89.0	16.0	0.806	1,2,3,0,0,0,0,0,0	to_hand	s525
218.645	1.042	0	PA_with_intermediate	1,0,0,3,0,0,2,0,0	test	ward_and_allport	1,0,0,0,0,0,2,3,0	89.0	16.0	1.042	1,2,3,0,0,0,0,0,0	to_board	s525
219.692	0.923	0	PA_with_intermediate	1,0,0,0,0,0,2,0,0	test	ward_and_allport	1,0,0,0,0,0,2,3,0	71.0	16.0	0.923	1,2,3,0,0,0,0,0,0	to_hand	s525
220.616	0.332	0	PA_with_intermediate	1,0,0,0,0,0,2,3,0	test	ward_and_allport	1,0,0,0,0,0,2,3,0	82.0	16.0	0.332	1,2,3,0,0,0,0,0,0	to_board	s525
220.953	1.0	0	PA_with_intermediate	n/a	test	ward_and_allport	n/a	-1.0	16.0	n/a	n/a	feedback	s525
221.953	1.544	0	PA_with_intermediate	n/a	test	ward_and_allport	n/a	-1.0	16.0	n/a	n/a	ITI	s525
223.502	2.393	1	PA_without_intermediate	0,0,0,0,0,0,1,2,0	test	ward_and_allport	1,0,0,3,2,0,0,0,0	82.0	17.0	2.393	0,0,0,0,0,0,1,2,3	to_hand	s525
225.895	0.438	0	PA_without_intermediate	0,0,0,3,0,0,1,2,0	test	ward_and_allport	1,0,0,3,2,0,0,0,0	71.0	17.0	0.438	0,0,0,0,0,0,1,2,3	to_board	s525
226.337	0.794	0	PA_without_intermediate	0,0,0,3,0,0,1,0,0	test	ward_and_allport	1,0,0,3,2,0,0,0,0	82.0	17.0	0.794	0,0,0,0,0,0,1,2,3	to_hand	s525
227.132	0.396	0	PA_without_intermediate	0,0,0,3,2,0,1,0,0	test	ward_and_allport	1,0,0,3,2,0,0,0,0	71.0	17.0	0.396	0,0,0,0,0,0,1,2,3	to_board	s525
227.533	0.677	0	PA_without_intermediate	0,0,0,3,2,0,0,0,0	test	ward_and_allport	1,0,0,3,2,0,0,0,0	82.0	17.0	0.677	0,0,0,0,0,0,1,2,3	to_hand	s525
228.212	0.354	0	PA_without_intermediate	1,0,0,3,2,0,0,0,0	test	ward_and_allport	1,0,0,3,2,0,0,0,0	89.0	17.0	0.354	0,0,0,0,0,0,1,2,3	to_board	s525
228.572	1.0	0	PA_without_intermediate	n/a	test	ward_and_allport	n/a	-1.0	17.0	n/a	n/a	feedback	s525
229.572	1.272	0	PA_without_intermediate	n/a	test	ward_and_allport	n/a	-1.0	17.0	n/a	n/a	ITI	s525
230.85	3.535	1	PA_with_intermediate	1,2,0,0,0,0,0,0,0	test	ward_and_allport	1,0,0,2,3,0,0,0,0	89.0	18.0	3.535	1,2,3,0,0,0,0,0,0	to_hand	s525
234.386	0.853	0	PA_with_intermediate	1,2,0,0,0,0,3,0,0	test	ward_and_allport	1,0,0,2,3,0,0,0,0	82.0	18.0	0.853	1,2,3,0,0,0,0,0,0	to_board	s525
235.243	0.577	0	PA_with_intermediate	1,0,0,0,0,0,3,0,0	test	ward_and_allport	1,0,0,2,3,0,0,0,0	89.0	18.0	0.577	1,2,3,0,0,0,0,0,0	to_hand	s525
235.822	0.456	0	PA_with_intermediate	1,0,0,2,0,0,3,0,0	test	ward_and_allport	1,0,0,2,3,0,0,0,0	71.0	18.0	0.456	1,2,3,0,0,0,0,0,0	to_board	s525
236.283	0.487	0	PA_with_intermediate	1,0,0,2,0,0,0,0,0	test	ward_and_allport	1,0,0,2,3,0,0,0,0	82.0	18.0	0.487	1,2,3,0,0,0,0,0,0	to_hand	s525
236.771	0.366	0	PA_with_intermediate	1,3,0,2,0,0,0,0,0	test	ward_and_allport	1,0,0,2,3,0,0,0,0	89.0	18.0	0.366	1,2,3,0,0,0,0,0,0	to_board	s525
237.143	0.72	0	PA_with_intermediate	1,0,0,2,0,0,0,0,0	test	ward_and_allport	1,0,0,2,3,0,0,0,0	89.0	18.0	0.72	1,2,3,0,0,0,0,0,0	to_hand	s525
237.864	0.281	0	PA_with_intermediate	1,0,0,2,3,0,0,0,0	test	ward_and_allport	1,0,0,2,3,0,0,0,0	71.0	18.0	0.281	1,2,3,0,0,0,0,0,0	to_board	s525
238.152	1.0	0	PA_with_intermediate	n/a	test	ward_and_allport	n/a	-1.0	18.0	n/a	n/a	feedback	s525
239.152	3.04	0	PA_with_intermediate	n/a	test	ward_and_allport	n/a	-1.0	18.0	n/a	n/a	ITI	s525
242.197	2.086	1	PA_with_intermediate	0,0,0,0,0,0,1,2,0	test	ward_and_allport	0,0,0,2,0,0,1,3,0	82.0	19.0	2.086	0,0,0,0,0,0,1,2,3	to_hand	s525
244.284	1.019	0	PA_with_intermediate	3,0,0,0,0,0,1,2,0	test	ward_and_allport	0,0,0,2,0,0,1,3,0	89.0	19.0	1.019	0,0,0,0,0,0,1,2,3	to_board	s525
245.308	0.564	0	PA_with_intermediate	3,0,0,0,0,0,1,0,0	test	ward_and_allport	0,0,0,2,0,0,1,3,0	82.0	19.0	0.564	0,0,0,0,0,0,1,2,3	to_hand	s525
245.873	0.329	0	PA_with_intermediate	3,0,0,2,0,0,1,0,0	test	ward_and_allport	0,0,0,2,0,0,1,3,0	71.0	19.0	0.329	0,0,0,0,0,0,1,2,3	to_board	s525
246.208	0.382	0	PA_with_intermediate	0,0,0,2,0,0,1,0,0	test	ward_and_allport	0,0,0,2,0,0,1,3,0	89.0	19.0	0.382	0,0,0,0,0,0,1,2,3	to_hand	s525
246.592	0.383	0	PA_with_intermediate	0,0,0,2,0,0,1,3,0	test	ward_and_allport	0,0,0,2,0,0,1,3,0	82.0	19.0	0.383	0,0,0,0,0,0,1,2,3	to_board	s525
246.982	1.0	0	PA_with_intermediate	n/a	test	ward_and_allport	n/a	-1.0	19.0	n/a	n/a	feedback	s525
247.982	1.272	0	PA_with_intermediate	n/a	test	ward_and_allport	n/a	-1.0	19.0	n/a	n/a	ITI	s525
249.261	1.801	1	PA_with_intermediate	0,0,0,1,2,0,0,0,0	test	ward_and_allport	2,3,0,1,0,0,0,0,0	71.0	20.0	1.801	0,0,0,1,2,3,0,0,0	to_hand	s525
251.062	0.801	0	PA_with_intermediate	0,0,0,1,2,0,3,0,0	test	ward_and_allport	2,3,0,1,0,0,0,0,0	82.0	20.0	0.801	0,0,0,1,2,3,0,0,0	to_board	s525
251.87	0.517	0	PA_with_intermediate	0,0,0,1,0,0,3,0,0	test	ward_and_allport	2,3,0,1,0,0,0,0,0	71.0	20.0	0.517	0,0,0,1,2,3,0,0,0	to_hand	s525
252.388	0.348	0	PA_with_intermediate	2,0,0,1,0,0,3,0,0	test	ward_and_allport	2,3,0,1,0,0,0,0,0	89.0	20.0	0.348	0,0,0,1,2,3,0,0,0	to_board	s525
252.742	0.523	0	PA_with_intermediate	2,0,0,1,0,0,0,0,0	test	ward_and_allport	2,3,0,1,0,0,0,0,0	82.0	20.0	0.523	0,0,0,1,2,3,0,0,0	to_hand	s525
253.265	0.465	0	PA_with_intermediate	2,3,0,1,0,0,0,0,0	test	ward_and_allport	2,3,0,1,0,0,0,0,0	89.0	20.0	0.465	0,0,0,1,2,3,0,0,0	to_board	s525
253.738	1.0	0	PA_with_intermediate	n/a	test	ward_and_allport	n/a	-1.0	20.0	n/a	n/a	feedback	s525
254.738	1.136	0	PA_with_intermediate	n/a	test	ward_and_allport	n/a	-1.0	20.0	n/a	n/a	ITI	s525
255.881	2.856	1	PA_with_intermediate	1,2,0,0,0,0,0,0,0	test	ward_and_allport	1,3,0,2,0,0,0,0,0	89.0	21.0	2.856	1,2,3,0,0,0,0,0,0	to_hand	s525
258.737	0.518	0	PA_with_intermediate	1,2,0,0,0,0,3,0,0	test	ward_and_allport	1,3,0,2,0,0,0,0,0	82.0	21.0	0.518	1,2,3,0,0,0,0,0,0	to_board	s525
259.262	1.468	0	PA_with_intermediate	1,0,0,0,0,0,3,0,0	test	ward_and_allport	1,3,0,2,0,0,0,0,0	89.0	21.0	1.468	1,2,3,0,0,0,0,0,0	to_hand	s525
260.731	0.52	0	PA_with_intermediate	1,0,0,2,0,0,3,0,0	test	ward_and_allport	1,3,0,2,0,0,0,0,0	71.0	21.0	0.52	1,2,3,0,0,0,0,0,0	to_board	s525
261.256	0.424	0	PA_with_intermediate	1,0,0,2,0,0,0,0,0	test	ward_and_allport	1,3,0,2,0,0,0,0,0	82.0	21.0	0.424	1,2,3,0,0,0,0,0,0	to_hand	s525
261.682	0.39	0	PA_with_intermediate	1,3,0,2,0,0,0,0,0	test	ward_and_allport	1,3,0,2,0,0,0,0,0	89.0	21.0	0.39	1,2,3,0,0,0,0,0,0	to_board	s525
262.08	1.0	0	PA_with_intermediate	n/a	test	ward_and_allport	n/a	-1.0	21.0	n/a	n/a	feedback	s525
263.08	1.0	0	PA_with_intermediate	n/a	test	ward_and_allport	n/a	-1.0	21.0	n/a	n/a	ITI	s525
264.087	2.338	1	PA_with_intermediate	1,2,0,0,0,0,0,0,0	test	ward_and_allport	1,0,0,0,0,0,2,3,0	89.0	22.0	2.338	1,2,3,0,0,0,0,0,0	to_hand	s525
266.425	1.159	0	PA_with_intermediate	1,2,0,3,0,0,0,0,0	test	ward_and_allport	1,0,0,0,0,0,2,3,0	71.0	22.0	1.159	1,2,3,0,0,0,0,0,0	to_board	s525
267.59	1.113	0	PA_with_intermediate	1,2,0,0,0,0,0,0,0	test	ward_and_allport	1,0,0,0,0,0,2,3,0	71.0	22.0	1.113	1,2,3,0,0,0,0,0,0	to_hand	s525
268.704	0.552	0	PA_with_intermediate	1,2,0,3,0,0,0,0,0	test	ward_and_allport	1,0,0,0,0,0,2,3,0	71.0	22.0	0.552	1,2,3,0,0,0,0,0,0	to_board	s525
269.263	0.309	0	PA_with_intermediate	1,0,0,3,0,0,0,0,0	test	ward_and_allport	1,0,0,0,0,0,2,3,0	89.0	22.0	0.309	1,2,3,0,0,0,0,0,0	to_hand	s525
269.573	0.323	0	PA_with_intermediate	1,0,0,3,0,0,2,0,0	test	ward_and_allport	1,0,0,0,0,0,2,3,0	82.0	22.0	0.323	1,2,3,0,0,0,0,0,0	to_board	s525
269.902	0.609	0	PA_with_intermediate	1,0,0,0,0,0,2,0,0	test	ward_and_allport	1,0,0,0,0,0,2,3,0	71.0	22.0	0.609	1,2,3,0,0,0,0,0,0	to_hand	s525
270.513	0.386	0	PA_with_intermediate	1,0,0,0,0,0,2,3,0	test	ward_and_allport	1,0,0,0,0,0,2,3,0	82.0	22.0	0.386	1,2,3,0,0,0,0,0,0	to_board	s525
270.907	1.0	0	PA_with_intermediate	n/a	test	ward_and_allport	n/a	-1.0	22.0	n/a	n/a	feedback	s525
271.907	1.0	0	PA_with_intermediate	n/a	test	ward_and_allport	n/a	-1.0	22.0	n/a	n/a	ITI	s525
272.913	2.454	1	PA_without_intermediate	0,0,0,0,0,0,1,2,0	test	ward_and_allport	1,0,0,3,2,0,0,0,0	82.0	23.0	2.454	0,0,0,0,0,0,1,2,3	to_hand	s525
275.368	0.485	0	PA_without_intermediate	0,0,0,3,0,0,1,2,0	test	ward_and_allport	1,0,0,3,2,0,0,0,0	71.0	23.0	0.485	0,0,0,0,0,0,1,2,3	to_board	s525
275.86	0.761	0	PA_without_intermediate	0,0,0,3,0,0,1,0,0	test	ward_and_allport	1,0,0,3,2,0,0,0,0	82.0	23.0	0.761	0,0,0,0,0,0,1,2,3	to_hand	s525
276.622	0.5	0	PA_without_intermediate	0,0,0,3,2,0,1,0,0	test	ward_and_allport	1,0,0,3,2,0,0,0,0	71.0	23.0	0.5	0,0,0,0,0,0,1,2,3	to_board	s525
277.128	0.694	0	PA_without_intermediate	0,0,0,3,2,0,0,0,0	test	ward_and_allport	1,0,0,3,2,0,0,0,0	82.0	23.0	0.694	0,0,0,0,0,0,1,2,3	to_hand	s525
277.823	0.632	0	PA_without_intermediate	1,0,0,3,2,0,0,0,0	test	ward_and_allport	1,0,0,3,2,0,0,0,0	89.0	23.0	0.632	0,0,0,0,0,0,1,2,3	to_board	s525
278.463	1.0	0	PA_without_intermediate	n/a	test	ward_and_allport	n/a	-1.0	23.0	n/a	n/a	feedback	s525
279.463	1.408	0	PA_without_intermediate	n/a	test	ward_and_allport	n/a	-1.0	23.0	n/a	n/a	ITI	s525
280.878	1.146	1	PA_with_intermediate	0,0,0,1,2,0,0,0,0	test	ward_and_allport	2,0,0,1,3,0,0,0,0	71.0	24.0	1.146	0,0,0,1,2,3,0,0,0	to_hand	s525
282.025	1.182	0	PA_with_intermediate	0,0,0,1,2,0,3,0,0	test	ward_and_allport	2,0,0,1,3,0,0,0,0	82.0	24.0	1.182	0,0,0,1,2,3,0,0,0	to_board	s525
283.214	0.556	0	PA_with_intermediate	0,0,0,1,0,0,3,0,0	test	ward_and_allport	2,0,0,1,3,0,0,0,0	71.0	24.0	0.556	0,0,0,1,2,3,0,0,0	to_hand	s525
283.771	0.498	0	PA_with_intermediate	2,0,0,1,0,0,3,0,0	test	ward_and_allport	2,0,0,1,3,0,0,0,0	89.0	24.0	0.498	0,0,0,1,2,3,0,0,0	to_board	s525
284.276	0.487	0	PA_with_intermediate	2,0,0,1,0,0,0,0,0	test	ward_and_allport	2,0,0,1,3,0,0,0,0	82.0	24.0	0.487	0,0,0,1,2,3,0,0,0	to_hand	s525
284.764	0.425	0	PA_with_intermediate	2,0,0,1,3,0,0,0,0	test	ward_and_allport	2,0,0,1,3,0,0,0,0	71.0	24.0	0.425	0,0,0,1,2,3,0,0,0	to_board	s525
285.197	1.0	0	PA_with_intermediate	n/a	test	ward_and_allport	n/a	-1.0	24.0	n/a	n/a	feedback	s525
286.197	2.768	0	PA_with_intermediate	n/a	test	ward_and_allport	n/a	-1.0	24.0	n/a	n/a	ITI	s525
288.974	1.392	1	PA_with_intermediate	0,0,0,1,2,0,0,0,0	test	ward_and_allport	0,0,0,1,0,0,2,3,0	71.0	25.0	1.392	0,0,0,1,2,3,0,0,0	to_hand	s525
290.366	0.73	0	PA_with_intermediate	3,0,0,1,2,0,0,0,0	test	ward_and_allport	0,0,0,1,0,0,2,3,0	89.0	25.0	0.73	0,0,0,1,2,3,0,0,0	to_board	s525
291.103	0.357	0	PA_with_intermediate	3,0,0,1,0,0,0,0,0	test	ward_and_allport	0,0,0,1,0,0,2,3,0	71.0	25.0	0.357	0,0,0,1,2,3,0,0,0	to_hand	s525
291.46	0.472	0	PA_with_intermediate	3,0,0,1,0,0,2,0,0	test	ward_and_allport	0,0,0,1,0,0,2,3,0	82.0	25.0	0.472	0,0,0,1,2,3,0,0,0	to_board	s525
291.939	1.296	0	PA_with_intermediate	0,0,0,1,0,0,2,0,0	test	ward_and_allport	0,0,0,1,0,0,2,3,0	89.0	25.0	1.296	0,0,0,1,2,3,0,0,0	to_hand	s525
293.237	0.475	0	PA_with_intermediate	0,0,0,1,0,0,2,3,0	test	ward_and_allport	0,0,0,1,0,0,2,3,0	82.0	25.0	0.475	0,0,0,1,2,3,0,0,0	to_board	s525
293.727	1.0	0	PA_with_intermediate	n/a	test	ward_and_allport	n/a	-1.0	25.0	n/a	n/a	feedback	s525
294.727	1.68	0	PA_with_intermediate	n/a	test	ward_and_allport	n/a	-1.0	25.0	n/a	n/a	ITI	s525
296.414	2.444	1	PA_without_intermediate	1,2,0,0,0,0,0,0,0	test	ward_and_allport	0,0,0,1,0,0,3,2,0	89.0	26.0	2.444	1,2,3,0,0,0,0,0,0	to_hand	s525
298.86	0.614	0	PA_without_intermediate	1,2,0,0,0,0,3,0,0	test	ward_and_allport	0,0,0,1,0,0,3,2,0	82.0	26.0	0.614	1,2,3,0,0,0,0,0,0	to_board	s525
299.481	0.544	0	PA_without_intermediate	1,0,0,0,0,0,3,0,0	test	ward_and_allport	0,0,0,1,0,0,3,2,0	89.0	26.0	0.544	1,2,3,0,0,0,0,0,0	to_hand	s525
300.025	0.459	0	PA_without_intermediate	1,0,0,0,0,0,3,2,0	test	ward_and_allport	0,0,0,1,0,0,3,2,0	82.0	26.0	0.459	1,2,3,0,0,0,0,0,0	to_board	s525
300.492	0.594	0	PA_without_intermediate	0,0,0,0,0,0,3,2,0	test	ward_and_allport	0,0,0,1,0,0,3,2,0	89.0	26.0	0.594	1,2,3,0,0,0,0,0,0	to_hand	s525
301.086	0.364	0	PA_without_intermediate	0,0,0,1,0,0,3,2,0	test	ward_and_allport	0,0,0,1,0,0,3,2,0	71.0	26.0	0.364	1,2,3,0,0,0,0,0,0	to_board	s525
301.459	1.0	0	PA_without_intermediate	n/a	test	ward_and_allport	n/a	-1.0	26.0	n/a	n/a	feedback	s525
302.459	2.224	0	PA_without_intermediate	n/a	test	ward_and_allport	n/a	-1.0	26.0	n/a	n/a	ITI	s525
304.692	1.271	1	PA_without_intermediate	0,0,0,1,2,0,0,0,0	test	ward_and_allport	1,0,0,0,0,0,3,2,0	71.0	27.0	1.271	0,0,0,1,2,3,0,0,0	to_hand	s525
305.964	0.461	0	PA_without_intermediate	0,0,0,1,2,0,3,0,0	test	ward_and_allport	1,0,0,0,0,0,3,2,0	82.0	27.0	0.461	0,0,0,1,2,3,0,0,0	to_board	s525
306.432	0.659	0	PA_without_intermediate	0,0,0,1,0,0,3,0,0	test	ward_and_allport	1,0,0,0,0,0,3,2,0	71.0	27.0	0.659	0,0,0,1,2,3,0,0,0	to_hand	s525
307.092	0.387	0	PA_without_intermediate	0,0,0,1,0,0,3,2,0	test	ward_and_allport	1,0,0,0,0,0,3,2,0	82.0	27.0	0.387	0,0,0,1,2,3,0,0,0	to_board	s525
307.488	0.587	0	PA_without_intermediate	0,0,0,0,0,0,3,2,0	test	ward_and_allport	1,0,0,0,0,0,3,2,0	71.0	27.0	0.587	0,0,0,1,2,3,0,0,0	to_hand	s525
308.076	0.372	0	PA_without_intermediate	1,0,0,0,0,0,3,2,0	test	ward_and_allport	1,0,0,0,0,0,3,2,0	89.0	27.0	0.372	0,0,0,1,2,3,0,0,0	to_board	s525
308.456	1.0	0	PA_without_intermediate	n/a	test	ward_and_allport	n/a	-1.0	27.0	n/a	n/a	feedback	s525
309.456	2.36	0	PA_without_intermediate	n/a	test	ward_and_allport	n/a	-1.0	27.0	n/a	n/a	ITI	s525
311.821	0.901	1	PA_without_intermediate	0,0,0,1,2,0,0,0,0	test	ward_and_allport	3,1,0,0,0,0,2,0,0	71.0	28.0	0.901	0,0,0,1,2,3,0,0,0	to_hand	s525
312.724	0.99	0	PA_without_intermediate	3,0,0,1,2,0,0,0,0	test	ward_and_allport	3,1,0,0,0,0,2,0,0	89.0	28.0	0.99	0,0,0,1,2,3,0,0,0	to_board	s525
313.722	0.548	0	PA_without_intermediate	3,0,0,1,0,0,0,0,0	test	ward_and_allport	3,1,0,0,0,0,2,0,0	71.0	28.0	0.548	0,0,0,1,2,3,0,0,0	to_hand	s525
314.271	0.321	0	PA_without_intermediate	3,2,0,1,0,0,0,0,0	test	ward_and_allport	3,1,0,0,0,0,2,0,0	89.0	28.0	0.321	0,0,0,1,2,3,0,0,0	to_board	s525
314.6	0.786	0	PA_without_intermediate	3,2,0,0,0,0,0,0,0	test	ward_and_allport	3,1,0,0,0,0,2,0,0	71.0	28.0	0.786	0,0,0,1,2,3,0,0,0	to_hand	s525
315.387	0.67	0	PA_without_intermediate	3,2,0,1,0,0,0,0,0	test	ward_and_allport	3,1,0,0,0,0,2,0,0	71.0	28.0	0.67	0,0,0,1,2,3,0,0,0	to_board	s525
316.065	0.486	0	PA_without_intermediate	3,0,0,1,0,0,0,0,0	test	ward_and_allport	3,1,0,0,0,0,2,0,0	89.0	28.0	0.486	0,0,0,1,2,3,0,0,0	to_hand	s525
316.552	0.708	0	PA_without_intermediate	3,0,0,1,0,0,2,0,0	test	ward_and_allport	3,1,0,0,0,0,2,0,0	82.0	28.0	0.708	0,0,0,1,2,3,0,0,0	to_board	s525
317.269	0.448	0	PA_without_intermediate	3,0,0,0,0,0,2,0,0	test	ward_and_allport	3,1,0,0,0,0,2,0,0	71.0	28.0	0.448	0,0,0,1,2,3,0,0,0	to_hand	s525
317.717	0.472	0	PA_without_intermediate	3,1,0,0,0,0,2,0,0	test	ward_and_allport	3,1,0,0,0,0,2,0,0	89.0	28.0	0.472	0,0,0,1,2,3,0,0,0	to_board	s525
318.197	1.0	0	PA_without_intermediate	n/a	test	ward_and_allport	n/a	-1.0	28.0	n/a	n/a	feedback	s525
319.197	1.0	0	PA_without_intermediate	n/a	test	ward_and_allport	n/a	-1.0	28.0	n/a	n/a	ITI	s525
320.202	1.328	1	PA_without_intermediate	0,0,0,1,2,0,0,0,0	test	ward_and_allport	2,0,0,0,0,0,3,1,0	71.0	29.0	1.328	0,0,0,1,2,3,0,0,0	to_hand	s525
321.532	1.152	0	PA_without_intermediate	0,0,0,1,2,0,3,0,0	test	ward_and_allport	2,0,0,0,0,0,3,1,0	82.0	29.0	1.152	0,0,0,1,2,3,0,0,0	to_board	s525
322.69	0.826	0	PA_without_intermediate	0,0,0,1,0,0,3,0,0	test	ward_and_allport	2,0,0,0,0,0,3,1,0	71.0	29.0	0.826	0,0,0,1,2,3,0,0,0	to_hand	s525
323.518	0.523	0	PA_without_intermediate	2,0,0,1,0,0,3,0,0	test	ward_and_allport	2,0,0,0,0,0,3,1,0	89.0	29.0	0.523	0,0,0,1,2,3,0,0,0	to_board	s525
324.05	0.535	0	PA_without_intermediate	2,0,0,0,0,0,3,0,0	test	ward_and_allport	2,0,0,0,0,0,3,1,0	71.0	29.0	0.535	0,0,0,1,2,3,0,0,0	to_hand	s525
324.586	0.371	0	PA_without_intermediate	2,0,0,0,0,0,3,1,0	test	ward_and_allport	2,0,0,0,0,0,3,1,0	82.0	29.0	0.371	0,0,0,1,2,3,0,0,0	to_board	s525
324.968	1.0	0	PA_without_intermediate	n/a	test	ward_and_allport	n/a	-1.0	29.0	n/a	n/a	feedback	s525
325.968	1.408	0	PA_without_intermediate	n/a	test	ward_and_allport	n/a	-1.0	29.0	n/a	n/a	ITI	s525
332.386	2.328	1	PA_with_intermediate	1,2,0,0,0,0,0,0,0	test	ward_and_allport	1,0,0,2,3,0,0,0,0	89.0	30.0	2.328	1,2,3,0,0,0,0,0,0	to_hand	s525
334.715	0.538	0	PA_with_intermediate	1,2,0,0,0,0,3,0,0	test	ward_and_allport	1,0,0,2,3,0,0,0,0	82.0	30.0	0.538	1,2,3,0,0,0,0,0,0	to_board	s525
335.263	0.645	0	PA_with_intermediate	1,0,0,0,0,0,3,0,0	test	ward_and_allport	1,0,0,2,3,0,0,0,0	89.0	30.0	0.645	1,2,3,0,0,0,0,0,0	to_hand	s525
335.909	0.441	0	PA_with_intermediate	1,0,0,2,0,0,3,0,0	test	ward_and_allport	1,0,0,2,3,0,0,0,0	71.0	30.0	0.441	1,2,3,0,0,0,0,0,0	to_board	s525
336.359	1.382	0	PA_with_intermediate	1,0,0,2,0,0,0,0,0	test	ward_and_allport	1,0,0,2,3,0,0,0,0	82.0	30.0	1.382	1,2,3,0,0,0,0,0,0	to_hand	s525
337.743	0.232	0	PA_with_intermediate	1,0,0,2,3,0,0,0,0	test	ward_and_allport	1,0,0,2,3,0,0,0,0	71.0	30.0	0.232	1,2,3,0,0,0,0,0,0	to_board	s525
337.985	1.0	0	PA_with_intermediate	n/a	test	ward_and_allport	n/a	-1.0	30.0	n/a	n/a	feedback	s525
338.985	1.136	0	PA_with_intermediate	n/a	test	ward_and_allport	n/a	-1.0	30.0	n/a	n/a	ITI	s525
340.127	1.494	1	PA_without_intermediate	0,0,0,1,2,0,0,0,0	test	ward_and_allport	3,1,0,0,0,0,2,0,0	71.0	31.0	1.494	0,0,0,1,2,3,0,0,0	to_hand	s525
341.621	0.57	0	PA_without_intermediate	3,0,0,1,2,0,0,0,0	test	ward_and_allport	3,1,0,0,0,0,2,0,0	89.0	31.0	0.57	0,0,0,1,2,3,0,0,0	to_board	s525
342.198	0.683	0	PA_without_intermediate	3,0,0,1,0,0,0,0,0	test	ward_and_allport	3,1,0,0,0,0,2,0,0	71.0	31.0	0.683	0,0,0,1,2,3,0,0,0	to_hand	s525
342.881	0.346	0	PA_without_intermediate	3,0,0,1,0,0,2,0,0	test	ward_and_allport	3,1,0,0,0,0,2,0,0	82.0	31.0	0.346	0,0,0,1,2,3,0,0,0	to_board	s525
343.235	0.415	0	PA_without_intermediate	3,0,0,0,0,0,2,0,0	test	ward_and_allport	3,1,0,0,0,0,2,0,0	71.0	31.0	0.415	0,0,0,1,2,3,0,0,0	to_hand	s525
343.652	0.299	0	PA_without_intermediate	3,1,0,0,0,0,2,0,0	test	ward_and_allport	3,1,0,0,0,0,2,0,0	89.0	31.0	0.299	0,0,0,1,2,3,0,0,0	to_board	s525
343.96	1.0	0	PA_without_intermediate	n/a	test	ward_and_allport	n/a	-1.0	31.0	n/a	n/a	feedback	s525
344.96	4.128	0	PA_without_intermediate	n/a	test	ward_and_allport	n/a	-1.0	31.0	n/a	n/a	ITI	s525
349.098	0.865	1	PA_without_intermediate	0,0,0,1,2,0,0,0,0	test	ward_and_allport	1,0,0,0,0,0,3,2,0	71.0	32.0	0.865	0,0,0,1,2,3,0,0,0	to_hand	s525
349.964	0.379	0	PA_without_intermediate	0,0,0,1,2,0,3,0,0	test	ward_and_allport	1,0,0,0,0,0,3,2,0	82.0	32.0	0.379	0,0,0,1,2,3,0,0,0	to_board	s525
350.353	0.757	0	PA_without_intermediate	0,0,0,1,0,0,3,0,0	test	ward_and_allport	1,0,0,0,0,0,3,2,0	71.0	32.0	0.757	0,0,0,1,2,3,0,0,0	to_hand	s525
351.111	0.275	0	PA_without_intermediate	0,0,0,1,0,0,3,2,0	test	ward_and_allport	1,0,0,0,0,0,3,2,0	82.0	32.0	0.275	0,0,0,1,2,3,0,0,0	to_board	s525
351.395	1.009	0	PA_without_intermediate	0,0,0,0,0,0,3,2,0	test	ward_and_allport	1,0,0,0,0,0,3,2,0	71.0	32.0	1.009	0,0,0,1,2,3,0,0,0	to_hand	s525
352.404	0.253	0	PA_without_intermediate	1,0,0,0,0,0,3,2,0	test	ward_and_allport	1,0,0,0,0,0,3,2,0	89.0	32.0	0.253	0,0,0,1,2,3,0,0,0	to_board	s525
352.665	1.0	0	PA_without_intermediate	n/a	test	ward_and_allport	n/a	-1.0	32.0	n/a	n/a	feedback	s525
353.665	1.136	0	PA_without_intermediate	n/a	test	ward_and_allport	n/a	-1.0	32.0	n/a	n/a	ITI	s525
354.809	2.27	1	PA_without_intermediate	1,2,0,0,0,0,0,0,0	test	ward_and_allport	0,0,0,3,2,0,1,0,0	89.0	33.0	2.27	1,2,3,0,0,0,0,0,0	to_hand	s525
357.08	0.374	0	PA_without_intermediate	1,2,0,3,0,0,0,0,0	test	ward_and_allport	0,0,0,3,2,0,1,0,0	71.0	33.0	0.374	1,2,3,0,0,0,0,0,0	to_board	s525
357.459	0.877	0	PA_without_intermediate	1,0,0,3,0,0,0,0,0	test	ward_and_allport	0,0,0,3,2,0,1,0,0	89.0	33.0	0.877	1,2,3,0,0,0,0,0,0	to_hand	s525
358.337	0.34	0	PA_without_intermediate	1,0,0,3,2,0,0,0,0	test	ward_and_allport	0,0,0,3,2,0,1,0,0	71.0	33.0	0.34	1,2,3,0,0,0,0,0,0	to_board	s525
358.685	0.71	0	PA_without_intermediate	0,0,0,3,2,0,0,0,0	test	ward_and_allport	0,0,0,3,2,0,1,0,0	89.0	33.0	0.71	1,2,3,0,0,0,0,0,0	to_hand	s525
359.395	0.566	0	PA_without_intermediate	0,0,0,3,2,0,1,0,0	test	ward_and_allport	0,0,0,3,2,0,1,0,0	82.0	33.0	0.566	1,2,3,0,0,0,0,0,0	to_board	s525
359.972	1.0	0	PA_without_intermediate	n/a	test	ward_and_allport	n/a	-1.0	33.0	n/a	n/a	feedback	s525
360.972	4.264	0	PA_without_intermediate	n/a	test	ward_and_allport	n/a	-1.0	33.0	n/a	n/a	ITI	s525
365.246	1.943	1	PA_with_intermediate	0,0,0,0,0,0,1,2,0	test	ward_and_allport	2,0,0,0,0,0,1,3,0	82.0	34.0	1.943	0,0,0,0,0,0,1,2,3	to_hand	s525
367.189	1.1	0	PA_with_intermediate	0,0,0,3,0,0,1,2,0	test	ward_and_allport	2,0,0,0,0,0,1,3,0	71.0	34.0	1.1	0,0,0,0,0,0,1,2,3	to_board	s525
368.298	0.645	0	PA_with_intermediate	0,0,0,3,0,0,1,0,0	test	ward_and_allport	2,0,0,0,0,0,1,3,0	82.0	34.0	0.645	0,0,0,0,0,0,1,2,3	to_hand	s525
368.945	0.537	0	PA_with_intermediate	2,0,0,3,0,0,1,0,0	test	ward_and_allport	2,0,0,0,0,0,1,3,0	89.0	34.0	0.537	0,0,0,0,0,0,1,2,3	to_board	s525
369.49	0.528	0	PA_with_intermediate	2,0,0,0,0,0,1,0,0	test	ward_and_allport	2,0,0,0,0,0,1,3,0	71.0	34.0	0.528	0,0,0,0,0,0,1,2,3	to_hand	s525
370.02	0.37	0	PA_with_intermediate	2,0,0,0,0,0,1,3,0	test	ward_and_allport	2,0,0,0,0,0,1,3,0	82.0	34.0	0.37	0,0,0,0,0,0,1,2,3	to_board	s525
370.4	1.0	0	PA_with_intermediate	n/a	test	ward_and_allport	n/a	-1.0	34.0	n/a	n/a	feedback	s525
371.4	3.04	0	PA_with_intermediate	n/a	test	ward_and_allport	n/a	-1.0	34.0	n/a	n/a	ITI	s525
374.45	0.609	1	PA_with_intermediate	0,0,0,1,2,0,0,0,0	test	ward_and_allport	0,0,0,1,0,0,2,3,0	71.0	35.0	0.609	0,0,0,1,2,3,0,0,0	to_hand	s525
375.06	2.205	0	PA_with_intermediate	3,0,0,1,2,0,0,0,0	test	ward_and_allport	0,0,0,1,0,0,2,3,0	89.0	35.0	2.205	0,0,0,1,2,3,0,0,0	to_board	s525
377.272	0.929	0	PA_with_intermediate	3,0,0,1,0,0,0,0,0	test	ward_and_allport	0,0,0,1,0,0,2,3,0	71.0	35.0	0.929	0,0,0,1,2,3,0,0,0	to_hand	s525
378.202	0.345	0	PA_with_intermediate	3,0,0,1,0,0,2,0,0	test	ward_and_allport	0,0,0,1,0,0,2,3,0	82.0	35.0	0.345	0,0,0,1,2,3,0,0,0	to_board	s525
378.554	1.157	0	PA_with_intermediate	0,0,0,1,0,0,2,0,0	test	ward_and_allport	0,0,0,1,0,0,2,3,0	89.0	35.0	1.157	0,0,0,1,2,3,0,0,0	to_hand	s525
379.713	0.431	0	PA_with_intermediate	0,0,0,1,0,0,2,3,0	test	ward_and_allport	0,0,0,1,0,0,2,3,0	82.0	35.0	0.431	0,0,0,1,2,3,0,0,0	to_board	s525
380.154	1.0	0	PA_with_intermediate	n/a	test	ward_and_allport	n/a	-1.0	35.0	n/a	n/a	feedback	s525
381.154	1.136	0	PA_with_intermediate	n/a	test	ward_and_allport	n/a	-1.0	35.0	n/a	n/a	ITI	s525
382.298	0.977	1	PA_with_intermediate	0,0,0,1,2,0,0,0,0	test	ward_and_allport	2,3,0,1,0,0,0,0,0	71.0	36.0	0.977	0,0,0,1,2,3,0,0,0	to_hand	s525
383.277	0.539	0	PA_with_intermediate	0,0,0,1,2,0,3,0,0	test	ward_and_allport	2,3,0,1,0,0,0,0,0	82.0	36.0	0.539	0,0,0,1,2,3,0,0,0	to_board	s525
383.826	0.94	0	PA_with_intermediate	0,0,0,1,0,0,3,0,0	test	ward_and_allport	2,3,0,1,0,0,0,0,0	71.0	36.0	0.94	0,0,0,1,2,3,0,0,0	to_hand	s525
384.767	0.614	0	PA_with_intermediate	0,0,0,1,2,0,3,0,0	test	ward_and_allport	2,3,0,1,0,0,0,0,0	71.0	36.0	0.614	0,0,0,1,2,3,0,0,0	to_board	s525
385.389	0.447	0	PA_with_intermediate	0,0,0,1,2,0,0,0,0	test	ward_and_allport	2,3,0,1,0,0,0,0,0	82.0	36.0	0.447	0,0,0,1,2,3,0,0,0	to_hand	s525
385.837	0.508	0	PA_with_intermediate	3,0,0,1,2,0,0,0,0	test	ward_and_allport	2,3,0,1,0,0,0,0,0	89.0	36.0	0.508	0,0,0,1,2,3,0,0,0	to_board	s525
386.351	0.756	0	PA_with_intermediate	3,0,0,1,0,0,0,0,0	test	ward_and_allport	2,3,0,1,0,0,0,0,0	71.0	36.0	0.756	0,0,0,1,2,3,0,0,0	to_hand	s525
387.107	0.375	0	PA_with_intermediate	3,2,0,1,0,0,0,0,0	test	ward_and_allport	2,3,0,1,0,0,0,0,0	89.0	36.0	0.375	0,0,0,1,2,3,0,0,0	to_board	s525
387.49	0.743	0	PA_with_intermediate	3,2,0,0,0,0,0,0,0	test	ward_and_allport	2,3,0,1,0,0,0,0,0	71.0	36.0	0.743	0,0,0,1,2,3,0,0,0	to_hand	s525
388.233	0.554	0	PA_with_intermediate	3,2,0,1,0,0,0,0,0	test	ward_and_allport	2,3,0,1,0,0,0,0,0	71.0	36.0	0.554	0,0,0,1,2,3,0,0,0	to_board	s525
388.794	0.438	0	PA_with_intermediate	3,0,0,1,0,0,0,0,0	test	ward_and_allport	2,3,0,1,0,0,0,0,0	89.0	36.0	0.438	0,0,0,1,2,3,0,0,0	to_hand	s525
389.232	0.456	0	PA_with_intermediate	3,0,0,1,2,0,0,0,0	test	ward_and_allport	2,3,0,1,0,0,0,0,0	71.0	36.0	0.456	0,0,0,1,2,3,0,0,0	to_board	s525
389.695	0.5	0	PA_with_intermediate	0,0,0,1,2,0,0,0,0	test	ward_and_allport	2,3,0,1,0,0,0,0,0	89.0	36.0	0.5	0,0,0,1,2,3,0,0,0	to_hand	s525
390.195	0.428	0	PA_with_intermediate	0,0,0,1,2,3,0,0,0	test	ward_and_allport	2,3,0,1,0,0,0,0,0	71.0	36.0	0.428	0,0,0,1,2,3,0,0,0	to_board	s525
390.631	1.135	0	PA_with_intermediate	0,0,0,1,2,0,0,0,0	test	ward_and_allport	2,3,0,1,0,0,0,0,0	71.0	36.0	1.135	0,0,0,1,2,3,0,0,0	to_hand	s525
391.766	0.568	0	PA_with_intermediate	0,0,0,1,2,0,3,0,0	test	ward_and_allport	2,3,0,1,0,0,0,0,0	82.0	36.0	0.568	0,0,0,1,2,3,0,0,0	to_board	s525
392.341	0.493	0	PA_with_intermediate	0,0,0,1,0,0,3,0,0	test	ward_and_allport	2,3,0,1,0,0,0,0,0	71.0	36.0	0.493	0,0,0,1,2,3,0,0,0	to_hand	s525
392.835	0.441	0	PA_with_intermediate	2,0,0,1,0,0,3,0,0	test	ward_and_allport	2,3,0,1,0,0,0,0,0	89.0	36.0	0.441	0,0,0,1,2,3,0,0,0	to_board	s525
393.283	1.968	0	PA_with_intermediate	2,0,0,1,0,0,0,0,0	test	ward_and_allport	2,3,0,1,0,0,0,0,0	82.0	36.0	1.968	0,0,0,1,2,3,0,0,0	to_hand	s525
395.253	0.517	0	PA_with_intermediate	2,3,0,1,0,0,0,0,0	test	ward_and_allport	2,3,0,1,0,0,0,0,0	89.0	36.0	0.517	0,0,0,1,2,3,0,0,0	to_board	s525
395.778	1.0	0	PA_with_intermediate	n/a	test	ward_and_allport	n/a	-1.0	36.0	n/a	n/a	feedback	s525
396.778	1.408	0	PA_with_intermediate	n/a	test	ward_and_allport	n/a	-1.0	36.0	n/a	n/a	ITI	s525
398.193	3.035	1	PA_without_intermediate	0,0,0,0,0,0,1,2,0	test	ward_and_allport	3,1,0,2,0,0,0,0,0	82.0	37.0	3.035	0,0,0,0,0,0,1,2,3	to_hand	s525
401.229	0.381	0	PA_without_intermediate	3,0,0,0,0,0,1,2,0	test	ward_and_allport	3,1,0,2,0,0,0,0,0	89.0	37.0	0.381	0,0,0,0,0,0,1,2,3	to_board	s525
401.617	0.9	0	PA_without_intermediate	3,0,0,0,0,0,1,0,0	test	ward_and_allport	3,1,0,2,0,0,0,0,0	82.0	37.0	0.9	0,0,0,0,0,0,1,2,3	to_hand	s525
402.518	1.077	0	PA_without_intermediate	3,0,0,2,0,0,1,0,0	test	ward_and_allport	3,1,0,2,0,0,0,0,0	71.0	37.0	1.077	0,0,0,0,0,0,1,2,3	to_board	s525
403.606	0.539	0	PA_without_intermediate	3,0,0,2,0,0,0,0,0	test	ward_and_allport	3,1,0,2,0,0,0,0,0	82.0	37.0	0.539	0,0,0,0,0,0,1,2,3	to_hand	s525
404.145	0.518	0	PA_without_intermediate	3,1,0,2,0,0,0,0,0	test	ward_and_allport	3,1,0,2,0,0,0,0,0	89.0	37.0	0.518	0,0,0,0,0,0,1,2,3	to_board	s525
404.675	1.0	0	PA_without_intermediate	n/a	test	ward_and_allport	n/a	-1.0	37.0	n/a	n/a	feedback	s525
405.675	1.68	0	PA_without_intermediate	n/a	test	ward_and_allport	n/a	-1.0	37.0	n/a	n/a	ITI	s525
407.364	1.084	1	PA_with_intermediate	0,0,0,1,2,0,0,0,0	test	ward_and_allport	2,0,0,1,3,0,0,0,0	71.0	38.0	1.084	0,0,0,1,2,3,0,0,0	to_hand	s525
408.449	0.561	0	PA_with_intermediate	0,0,0,1,2,0,3,0,0	test	ward_and_allport	2,0,0,1,3,0,0,0,0	82.0	38.0	0.561	0,0,0,1,2,3,0,0,0	to_board	s525
409.017	0.676	0	PA_with_intermediate	0,0,0,1,0,0,3,0,0	test	ward_and_allport	2,0,0,1,3,0,0,0,0	71.0	38.0	0.676	0,0,0,1,2,3,0,0,0	to_hand	s525
409.693	0.377	0	PA_with_intermediate	2,0,0,1,0,0,3,0,0	test	ward_and_allport	2,0,0,1,3,0,0,0,0	89.0	38.0	0.377	0,0,0,1,2,3,0,0,0	to_board	s525
410.079	0.785	0	PA_with_intermediate	2,0,0,1,0,0,0,0,0	test	ward_and_allport	2,0,0,1,3,0,0,0,0	82.0	38.0	0.785	0,0,0,1,2,3,0,0,0	to_hand	s525
410.864	0.375	0	PA_with_intermediate	2,0,0,1,3,0,0,0,0	test	ward_and_allport	2,0,0,1,3,0,0,0,0	71.0	38.0	0.375	0,0,0,1,2,3,0,0,0	to_board	s525
411.248	1.0	0	PA_with_intermediate	n/a	test	ward_and_allport	n/a	-1.0	38.0	n/a	n/a	feedback	s525
412.248	3.72	0	PA_with_intermediate	n/a	test	ward_and_allport	n/a	-1.0	38.0	n/a	n/a	ITI	s525
415.977	2.783	1	PA_without_intermediate	0,0,0,0,0,0,1,2,0	test	ward_and_allport	3,2,0,1,0,0,0,0,0	82.0	39.0	2.783	0,0,0,0,0,0,1,2,3	to_hand	s525
418.761	0.5	0	PA_without_intermediate	3,0,0,0,0,0,1,2,0	test	ward_and_allport	3,2,0,1,0,0,0,0,0	89.0	39.0	0.5	0,0,0,0,0,0,1,2,3	to_board	s525
419.27	0.899	0	PA_without_intermediate	3,0,0,0,0,0,1,0,0	test	ward_and_allport	3,2,0,1,0,0,0,0,0	82.0	39.0	0.899	0,0,0,0,0,0,1,2,3	to_hand	s525
420.171	0.405	0	PA_without_intermediate	3,2,0,0,0,0,1,0,0	test	ward_and_allport	3,2,0,1,0,0,0,0,0	89.0	39.0	0.405	0,0,0,0,0,0,1,2,3	to_board	s525
420.587	1.059	0	PA_without_intermediate	3,2,0,0,0,0,0,0,0	test	ward_and_allport	3,2,0,1,0,0,0,0,0	82.0	39.0	1.059	0,0,0,0,0,0,1,2,3	to_hand	s525
421.648	0.433	0	PA_without_intermediate	3,2,0,1,0,0,0,0,0	test	ward_and_allport	3,2,0,1,0,0,0,0,0	71.0	39.0	0.433	0,0,0,0,0,0,1,2,3	to_board	s525
422.092	1.0	0	PA_without_intermediate	n/a	test	ward_and_allport	n/a	-1.0	39.0	n/a	n/a	feedback	s525
423.092	2.224	0	PA_without_intermediate	n/a	test	ward_and_allport	n/a	-1.0	39.0	n/a	n/a	ITI	s525
425.324	2.222	1	PA_without_intermediate	1,2,0,0,0,0,0,0,0	test	ward_and_allport	0,0,0,3,1,0,2,0,0	89.0	40.0	2.222	1,2,3,0,0,0,0,0,0	to_hand	s525
427.547	0.793	0	PA_without_intermediate	1,2,0,3,0,0,0,0,0	test	ward_and_allport	0,0,0,3,1,0,2,0,0	71.0	40.0	0.793	1,2,3,0,0,0,0,0,0	to_board	s525
428.348	0.546	0	PA_without_intermediate	1,0,0,3,0,0,0,0,0	test	ward_and_allport	0,0,0,3,1,0,2,0,0	89.0	40.0	0.546	1,2,3,0,0,0,0,0,0	to_hand	s525
428.895	0.559	0	PA_without_intermediate	1,0,0,3,0,0,2,0,0	test	ward_and_allport	0,0,0,3,1,0,2,0,0	82.0	40.0	0.559	1,2,3,0,0,0,0,0,0	to_board	s525
429.465	0.508	0	PA_without_intermediate	0,0,0,3,0,0,2,0,0	test	ward_and_allport	0,0,0,3,1,0,2,0,0	89.0	40.0	0.508	1,2,3,0,0,0,0,0,0	to_hand	s525
429.973	0.353	0	PA_without_intermediate	0,0,0,3,1,0,2,0,0	test	ward_and_allport	0,0,0,3,1,0,2,0,0	71.0	40.0	0.353	1,2,3,0,0,0,0,0,0	to_board	s525
430.34	1.0	0	PA_without_intermediate	n/a	test	ward_and_allport	n/a	-1.0	40.0	n/a	n/a	feedback	s525
431.34	1.272	0	PA_without_intermediate	n/a	test	ward_and_allport	n/a	-1.0	40.0	n/a	n/a	ITI	s525
432.62	2.246	1	PA_with_intermediate	0,0,0,0,0,0,1,2,0	test	ward_and_allport	2,0,0,0,0,0,1,3,0	82.0	41.0	2.246	0,0,0,0,0,0,1,2,3	to_hand	s525
434.867	0.661	0	PA_with_intermediate	0,0,0,3,0,0,1,2,0	test	ward_and_allport	2,0,0,0,0,0,1,3,0	71.0	41.0	0.661	0,0,0,0,0,0,1,2,3	to_board	s525
435.536	0.684	0	PA_with_intermediate	0,0,0,3,0,0,1,0,0	test	ward_and_allport	2,0,0,0,0,0,1,3,0	82.0	41.0	0.684	0,0,0,0,0,0,1,2,3	to_hand	s525
436.222	0.613	0	PA_with_intermediate	2,0,0,3,0,0,1,0,0	test	ward_and_allport	2,0,0,0,0,0,1,3,0	89.0	41.0	0.613	0,0,0,0,0,0,1,2,3	to_board	s525
436.85	0.444	0	PA_with_intermediate	2,0,0,0,0,0,1,0,0	test	ward_and_allport	2,0,0,0,0,0,1,3,0	71.0	41.0	0.444	0,0,0,0,0,0,1,2,3	to_hand	s525
437.296	0.297	0	PA_with_intermediate	2,0,0,0,0,0,1,3,0	test	ward_and_allport	2,0,0,0,0,0,1,3,0	82.0	41.0	0.297	0,0,0,0,0,0,1,2,3	to_board	s525
437.604	1.0	0	PA_with_intermediate	n/a	test	ward_and_allport	n/a	-1.0	41.0	n/a	n/a	feedback	s525
438.604	2.632	0	PA_with_intermediate	n/a	test	ward_and_allport	n/a	-1.0	41.0	n/a	n/a	ITI	s525
441.249	1.575	1	PA_without_intermediate	1,2,0,0,0,0,0,0,0	test	ward_and_allport	0,0,0,1,0,0,3,2,0	89.0	42.0	1.575	1,2,3,0,0,0,0,0,0	to_hand	s525
442.824	0.556	0	PA_without_intermediate	1,2,0,0,0,0,3,0,0	test	ward_and_allport	0,0,0,1,0,0,3,2,0	82.0	42.0	0.556	1,2,3,0,0,0,0,0,0	to_board	s525
443.391	0.766	0	PA_without_intermediate	1,0,0,0,0,0,3,0,0	test	ward_and_allport	0,0,0,1,0,0,3,2,0	89.0	42.0	0.766	1,2,3,0,0,0,0,0,0	to_hand	s525
444.158	0.362	0	PA_without_intermediate	1,0,0,0,0,0,3,2,0	test	ward_and_allport	0,0,0,1,0,0,3,2,0	82.0	42.0	0.362	1,2,3,0,0,0,0,0,0	to_board	s525
444.53	1.25	0	PA_without_intermediate	0,0,0,0,0,0,3,2,0	test	ward_and_allport	0,0,0,1,0,0,3,2,0	89.0	42.0	1.25	1,2,3,0,0,0,0,0,0	to_hand	s525
445.78	0.278	0	PA_without_intermediate	0,0,0,1,0,0,3,2,0	test	ward_and_allport	0,0,0,1,0,0,3,2,0	71.0	42.0	0.278	1,2,3,0,0,0,0,0,0	to_board	s525
446.072	1.0	0	PA_without_intermediate	n/a	test	ward_and_allport	n/a	-1.0	42.0	n/a	n/a	feedback	s525
447.072	1.408	0	PA_without_intermediate	n/a	test	ward_and_allport	n/a	-1.0	42.0	n/a	n/a	ITI	s525
448.49	1.949	1	PA_without_intermediate	1,2,0,0,0,0,0,0,0	test	ward_and_allport	0,0,0,2,0,0,3,1,0	89.0	43.0	1.949	1,2,3,0,0,0,0,0,0	to_hand	s525
450.44	0.349	0	PA_without_intermediate	1,2,0,0,0,0,3,0,0	test	ward_and_allport	0,0,0,2,0,0,3,1,0	82.0	43.0	0.349	1,2,3,0,0,0,0,0,0	to_board	s525
450.8	2.261	0	PA_without_intermediate	1,0,0,0,0,0,3,0,0	test	ward_and_allport	0,0,0,2,0,0,3,1,0	89.0	43.0	2.261	1,2,3,0,0,0,0,0,0	to_hand	s525
453.061	0.703	0	PA_without_intermediate	1,0,0,2,0,0,3,0,0	test	ward_and_allport	0,0,0,2,0,0,3,1,0	71.0	43.0	0.703	1,2,3,0,0,0,0,0,0	to_board	s525
453.773	0.441	0	PA_without_intermediate	0,0,0,2,0,0,3,0,0	test	ward_and_allport	0,0,0,2,0,0,3,1,0	89.0	43.0	0.441	1,2,3,0,0,0,0,0,0	to_hand	s525
454.215	0.473	0	PA_without_intermediate	0,0,0,2,0,0,3,1,0	test	ward_and_allport	0,0,0,2,0,0,3,1,0	82.0	43.0	0.473	1,2,3,0,0,0,0,0,0	to_board	s525
454.697	1.0	0	PA_without_intermediate	n/a	test	ward_and_allport	n/a	-1.0	43.0	n/a	n/a	feedback	s525
455.697	1.0	0	PA_without_intermediate	n/a	test	ward_and_allport	n/a	-1.0	43.0	n/a	n/a	ITI	s525
456.705	0.85	1	PA_with_intermediate	1,2,0,0,0,0,0,0,0	test	ward_and_allport	1,3,0,2,0,0,0,0,0	89.0	44.0	0.85	1,2,3,0,0,0,0,0,0	to_hand	s525
457.556	1.497	0	PA_with_intermediate	1,2,0,0,0,0,3,0,0	test	ward_and_allport	1,3,0,2,0,0,0,0,0	82.0	44.0	1.497	1,2,3,0,0,0,0,0,0	to_board	s525
459.062	0.553	0	PA_with_intermediate	1,0,0,0,0,0,3,0,0	test	ward_and_allport	1,3,0,2,0,0,0,0,0	89.0	44.0	0.553	1,2,3,0,0,0,0,0,0	to_hand	s525
459.615	0.361	0	PA_with_intermediate	1,0,0,2,0,0,3,0,0	test	ward_and_allport	1,3,0,2,0,0,0,0,0	71.0	44.0	0.361	1,2,3,0,0,0,0,0,0	to_board	s525
459.984	0.721	0	PA_with_intermediate	1,0,0,2,0,0,0,0,0	test	ward_and_allport	1,3,0,2,0,0,0,0,0	82.0	44.0	0.721	1,2,3,0,0,0,0,0,0	to_hand	s525
460.706	0.685	0	PA_with_intermediate	1,3,0,2,0,0,0,0,0	test	ward_and_allport	1,3,0,2,0,0,0,0,0	89.0	44.0	0.685	1,2,3,0,0,0,0,0,0	to_board	s525
461.401	1.0	0	PA_with_intermediate	n/a	test	ward_and_allport	n/a	-1.0	44.0	n/a	n/a	feedback	s525
462.401	1.0	0	PA_with_intermediate	n/a	test	ward_and_allport	n/a	-1.0	44.0	n/a	n/a	ITI	s525
468.416	0.98	1	PA_with_intermediate	0,0,0,0,0,0,1,2,0	test	ward_and_allport	0,0,0,2,3,0,1,0,0	82.0	45.0	0.98	0,0,0,0,0,0,1,2,3	to_hand	s525
469.397	1.497	0	PA_with_intermediate	3,0,0,0,0,0,1,2,0	test	ward_and_allport	0,0,0,2,3,0,1,0,0	89.0	45.0	1.497	0,0,0,0,0,0,1,2,3	to_board	s525
470.907	0.795	0	PA_with_intermediate	3,0,0,0,0,0,1,0,0	test	ward_and_allport	0,0,0,2,3,0,1,0,0	82.0	45.0	0.795	0,0,0,0,0,0,1,2,3	to_hand	s525
471.703	0.246	0	PA_with_intermediate	3,0,0,2,0,0,1,0,0	test	ward_and_allport	0,0,0,2,3,0,1,0,0	71.0	45.0	0.246	0,0,0,0,0,0,1,2,3	to_board	s525
471.961	0.416	0	PA_with_intermediate	0,0,0,2,0,0,1,0,0	test	ward_and_allport	0,0,0,2,3,0,1,0,0	89.0	45.0	0.416	0,0,0,0,0,0,1,2,3	to_hand	s525
472.378	0.3	0	PA_with_intermediate	0,0,0,2,3,0,1,0,0	test	ward_and_allport	0,0,0,2,3,0,1,0,0	71.0	45.0	0.3	0,0,0,0,0,0,1,2,3	to_board	s525
472.689	1.0	0	PA_with_intermediate	n/a	test	ward_and_allport	n/a	-1.0	45.0	n/a	n/a	feedback	s525
473.689	1.0	0	PA_with_intermediate	n/a	test	ward_and_allport	n/a	-1.0	45.0	n/a	n/a	ITI	s525
474.699	2.174	1	PA_with_intermediate	1,2,0,0,0,0,0,0,0	test	ward_and_allport	1,3,0,0,0,0,2,0,0	89.0	46.0	2.174	1,2,3,0,0,0,0,0,0	to_hand	s525
476.873	0.41	0	PA_with_intermediate	1,2,0,3,0,0,0,0,0	test	ward_and_allport	1,3,0,0,0,0,2,0,0	71.0	46.0	0.41	1,2,3,0,0,0,0,0,0	to_board	s525
477.292	0.356	0	PA_with_intermediate	1,0,0,3,0,0,0,0,0	test	ward_and_allport	1,3,0,0,0,0,2,0,0	89.0	46.0	0.356	1,2,3,0,0,0,0,0,0	to_hand	s525
477.649	0.437	0	PA_with_intermediate	1,0,0,3,0,0,2,0,0	test	ward_and_allport	1,3,0,0,0,0,2,0,0	82.0	46.0	0.437	1,2,3,0,0,0,0,0,0	to_board	s525
478.096	0.597	0	PA_with_intermediate	1,0,0,0,0,0,2,0,0	test	ward_and_allport	1,3,0,0,0,0,2,0,0	71.0	46.0	0.597	1,2,3,0,0,0,0,0,0	to_hand	s525
478.694	0.316	0	PA_with_intermediate	1,3,0,0,0,0,2,0,0	test	ward_and_allport	1,3,0,0,0,0,2,0,0	89.0	46.0	0.316	1,2,3,0,0,0,0,0,0	to_board	s525
479.022	1.0	0	PA_with_intermediate	n/a	test	ward_and_allport	n/a	-1.0	46.0	n/a	n/a	feedback	s525
480.022	1.408	0	PA_with_intermediate	n/a	test	ward_and_allport	n/a	-1.0	46.0	n/a	n/a	ITI	s525
481.438	1.2	1	PA_without_intermediate	0,0,0,1,2,0,0,0,0	test	ward_and_allport	3,2,0,0,0,0,1,0,0	71.0	47.0	1.2	0,0,0,1,2,3,0,0,0	to_hand	s525
482.639	0.885	0	PA_without_intermediate	3,0,0,1,2,0,0,0,0	test	ward_and_allport	3,2,0,0,0,0,1,0,0	89.0	47.0	0.885	0,0,0,1,2,3,0,0,0	to_board	s525
483.533	0.334	0	PA_without_intermediate	3,0,0,1,0,0,0,0,0	test	ward_and_allport	3,2,0,0,0,0,1,0,0	71.0	47.0	0.334	0,0,0,1,2,3,0,0,0	to_hand	s525
483.869	0.546	0	PA_without_intermediate	3,2,0,1,0,0,0,0,0	test	ward_and_allport	3,2,0,0,0,0,1,0,0	89.0	47.0	0.546	0,0,0,1,2,3,0,0,0	to_board	s525
484.422	0.424	0	PA_without_intermediate	3,2,0,0,0,0,0,0,0	test	ward_and_allport	3,2,0,0,0,0,1,0,0	71.0	47.0	0.424	0,0,0,1,2,3,0,0,0	to_hand	s525
484.847	0.311	0	PA_without_intermediate	3,2,0,0,0,0,1,0,0	test	ward_and_allport	3,2,0,0,0,0,1,0,0	82.0	47.0	0.311	0,0,0,1,2,3,0,0,0	to_board	s525
485.167	1.0	0	PA_without_intermediate	n/a	test	ward_and_allport	n/a	-1.0	47.0	n/a	n/a	feedback	s525
486.167	1.816	0	PA_without_intermediate	n/a	test	ward_and_allport	n/a	-1.0	47.0	n/a	n/a	ITI	s525
n/a	n/a	0	n/a	n/a	n/a	n/a	n/a	n/a	n/a	n/a	n/a	ITI	n/a
