onset	duration	EV	action	clicked_on_loss_card	experiment_exp_id	gain_amount	gain_probability	key_press	loss_amount	loss_probability	num_cards	num_click_in_round	num_loss_cards	risk	response_time	total_cards	trial_id	worker_id
3.008	1.466	-1.4967407712537582	draw_card	1.0	columbia_card_task_fmri	12.0	0.8333333333333334	89.0	-70.0	0.1666666666666666	6.0	1.0	1.0	-1.0026343068372157	1.466	1.0	stim	s525
4.477	2.25	n/a	-1.0	n/a	columbia_card_task_fmri	n/a	n/a	-1.0	n/a	n/a	n/a	n/a	n/a	n/a	n/a	n/a	feedback	s525
6.727	0.068	n/a	-1.0	n/a	columbia_card_task_fmri	n/a	n/a	-1.0	n/a	n/a	n/a	n/a	n/a	n/a	n/a	n/a	ITI	s525
6.798	1.454	-0.6634074379204242	draw_card	0.0	columbia_card_task_fmri	14.0	0.8333333333333334	89.0	-75.0	0.1666666666666666	6.0	1.0	1.0	1.6060745099445557	1.454	n/a	stim	s525
8.253	1.879	-3.630074104587091	draw_card	0.0	columbia_card_task_fmri	14.0	0.8	89.0	-75.0	0.2	6.0	2.0	1.0	4.037703112667543	1.879	n/a	stim	s525
10.134	1.924	-8.080074104587093	end_round	0.0	columbia_card_task_fmri	14.0	0.75	71.0	-75.0	0.25	6.0	3.0	1.0	6.975802662981636	1.924	2.0	stim	s525
12.06	2.25	n/a	-1.0	n/a	columbia_card_task_fmri	n/a	n/a	-1.0	n/a	n/a	n/a	n/a	n/a	n/a	n/a	n/a	feedback	s525
14.31	0.068	n/a	-1.0	n/a	columbia_card_task_fmri	n/a	n/a	-1.0	n/a	n/a	n/a	n/a	n/a	n/a	n/a	n/a	ITI	s525
14.379	2.095	1.0032592287462418	draw_card	0.0	columbia_card_task_fmri	15.0	0.8333333333333334	89.0	-70.0	0.1666666666666666	6.0	1.0	1.0	0.1153830081297329	2.095	n/a	stim	s525
16.475	1.936	-1.830074104587092	draw_card	0.0	columbia_card_task_fmri	15.0	0.8	89.0	-70.0	0.2	6.0	2.0	1.0	2.4377221968003653	1.936	n/a	stim	s525
18.413	2.148	-6.0800741045870925	draw_card	0.0	columbia_card_task_fmri	15.0	0.75	89.0	-70.0	0.25	6.0	3.0	1.0	5.243769484625815	2.148	n/a	stim	s525
20.562	0.801	-13.163407437920425	end_round	0.0	columbia_card_task_fmri	15.0	0.6666666666666667	71.0	-70.0	0.3333333333333333	6.0	4.0	1.0	8.507042145639652	0.801	3.0	stim	s525
21.367	2.25	n/a	-1.0	n/a	columbia_card_task_fmri	n/a	n/a	-1.0	n/a	n/a	n/a	n/a	n/a	n/a	n/a	n/a	feedback	s525
23.617	0.612	n/a	-1.0	n/a	columbia_card_task_fmri	n/a	n/a	-1.0	n/a	n/a	n/a	n/a	n/a	n/a	n/a	n/a	ITI	s525
24.231	1.452	1.836592562079576	draw_card	1.0	columbia_card_task_fmri	17.0	0.8333333333333334	89.0	-75.0	0.1666666666666666	6.0	1.0	1.0	2.724094305160719	1.452	1.0	stim	s525
25.684	2.25	n/a	-1.0	n/a	columbia_card_task_fmri	n/a	n/a	-1.0	n/a	n/a	n/a	n/a	n/a	n/a	n/a	n/a	feedback	s525
27.934	0.476	n/a	-1.0	n/a	columbia_card_task_fmri	n/a	n/a	-1.0	n/a	n/a	n/a	n/a	n/a	n/a	n/a	n/a	ITI	s525
28.413	1.98	3.169925895412908	draw_card	0.0	columbia_card_task_fmri	24.0	0.75	89.0	-60.0	0.25	8.0	1.0	2.0	4.810761452372141	1.98	n/a	stim	s525
30.395	1.398	0.1699258954129079	draw_card	0.0	columbia_card_task_fmri	24.0	0.7142857142857143	89.0	-60.0	0.2857142857142857	8.0	2.0	2.0	6.385009949034085	1.398	n/a	stim	s525
31.795	2.091	-3.830074104587092	draw_card	1.0	columbia_card_task_fmri	24.0	0.6666666666666667	89.0	-60.0	0.3333333333333333	8.0	3.0	2.0	8.035641914196361	2.091	3.0	stim	s525
33.889	2.25	n/a	-1.0	n/a	columbia_card_task_fmri	n/a	n/a	-1.0	n/a	n/a	n/a	n/a	n/a	n/a	n/a	n/a	feedback	s525
36.139	0.0	n/a	-1.0	n/a	columbia_card_task_fmri	n/a	n/a	-1.0	n/a	n/a	n/a	n/a	n/a	n/a	n/a	n/a	ITI	s525
36.14	1.959	3.169925895412908	draw_card	0.0	columbia_card_task_fmri	29.0	0.75	89.0	-75.0	0.25	8.0	1.0	2.0	13.470939159376227	1.959	n/a	stim	s525
38.101	1.42	-0.5443598188728038	draw_card	0.0	columbia_card_task_fmri	29.0	0.7142857142857143	89.0	-75.0	0.2857142857142857	8.0	2.0	2.0	15.420015813791451	1.42	n/a	stim	s525
39.522	0.783	-5.496740771253757	end_round	0.0	columbia_card_task_fmri	29.0	0.6666666666666667	71.0	-75.0	0.3333333333333333	8.0	3.0	2.0	17.46366221551606	0.783	2.0	stim	s525
40.308	2.25	n/a	-1.0	n/a	columbia_card_task_fmri	n/a	n/a	-1.0	n/a	n/a	n/a	n/a	n/a	n/a	n/a	n/a	feedback	s525
42.558	0.068	n/a	-1.0	n/a	columbia_card_task_fmri	n/a	n/a	-1.0	n/a	n/a	n/a	n/a	n/a	n/a	n/a	n/a	ITI	s525
42.628	0.663	-1.0522963268093115	draw_card	0.0	columbia_card_task_fmri	17.0	0.7777777777777778	89.0	-65.0	0.2222222222222222	9.0	1.0	2.0	2.528377258224701	0.663	n/a	stim	s525
43.293	1.797	-3.330074104587092	draw_card	0.0	columbia_card_task_fmri	17.0	0.75	89.0	-65.0	0.25	9.0	2.0	2.0	3.9447457295399104	1.797	n/a	stim	s525
45.092	1.999	-6.25864553315852	end_round	0.0	columbia_card_task_fmri	17.0	0.7142857142857143	71.0	-65.0	0.2857142857142857	9.0	3.0	2.0	5.481511325474308	1.999	2.0	stim	s525
47.093	2.25	n/a	-1.0	n/a	columbia_card_task_fmri	n/a	n/a	-1.0	n/a	n/a	n/a	n/a	n/a	n/a	n/a	n/a	feedback	s525
49.343	0.204	n/a	-1.0	n/a	columbia_card_task_fmri	n/a	n/a	-1.0	n/a	n/a	n/a	n/a	n/a	n/a	n/a	n/a	ITI	s525
49.549	0.661	3.269925895412908	draw_card	0.0	columbia_card_task_fmri	14.0	0.9	89.0	-95.0	0.1	10.0	1.0	1.0	1.137739077768792	0.661	n/a	stim	s525
50.211	1.715	2.0588147843017954	draw_card	0.0	columbia_card_task_fmri	14.0	0.8888888888888888	89.0	-95.0	0.1111111111111111	10.0	2.0	1.0	2.6931142084646424	1.715	n/a	stim	s525
51.928	1.814	0.5449258954129079	draw_card	0.0	columbia_card_task_fmri	14.0	0.875	89.0	-95.0	0.125	10.0	3.0	1.0	4.486059681926939	1.814	n/a	stim	s525
53.744	1.63	-1.4015026760156633	draw_card	0.0	columbia_card_task_fmri	14.0	0.8571428571428572	89.0	-95.0	0.1428571428571428	10.0	4.0	1.0	6.579730650920098	1.63	n/a	stim	s525
55.376	2.35	-3.996740771253757	draw_card	0.0	columbia_card_task_fmri	14.0	0.8333333333333334	89.0	-95.0	0.1666666666666666	10.0	5.0	1.0	9.059554568968188	2.35	n/a	stim	s525
57.728	2.915	-7.6300741045870915	end_round	0.0	columbia_card_task_fmri	14.0	0.8	71.0	-95.0	0.2	10.0	6.0	1.0	12.037628701778118	2.915	5.0	stim	s525
60.646	2.25	n/a	-1.0	n/a	columbia_card_task_fmri	n/a	n/a	-1.0	n/a	n/a	n/a	n/a	n/a	n/a	n/a	n/a	feedback	s525
62.896	0.272	n/a	-1.0	n/a	columbia_card_task_fmri	n/a	n/a	-1.0	n/a	n/a	n/a	n/a	n/a	n/a	n/a	n/a	ITI	s525
63.171	0.932	-0.8300741045870921	draw_card	0.0	columbia_card_task_fmri	15.0	0.8	89.0	-65.0	0.2	10.0	1.0	2.0	0.4377487356188396	0.932	n/a	stim	s525
64.104	1.312	-2.607851882364869	draw_card	0.0	columbia_card_task_fmri	15.0	0.7777777777777778	89.0	-65.0	0.2222222222222222	10.0	2.0	2.0	1.6969084262481928	1.312	n/a	stim	s525
65.418	1.272	-4.8300741045870925	draw_card	0.0	columbia_card_task_fmri	15.0	0.75	89.0	-65.0	0.25	10.0	3.0	2.0	3.078730490746757	1.272	n/a	stim	s525
66.691	1.659	-7.687216961729947	draw_card	1.0	columbia_card_task_fmri	15.0	0.7142857142857143	89.0	-65.0	0.2857142857142857	10.0	4.0	2.0	4.578013165874296	1.659	4.0	stim	s525
68.354	2.25	n/a	-1.0	n/a	columbia_card_task_fmri	n/a	n/a	-1.0	n/a	n/a	n/a	n/a	n/a	n/a	n/a	n/a	feedback	s525
70.604	0.068	n/a	-1.0	n/a	columbia_card_task_fmri	n/a	n/a	-1.0	n/a	n/a	n/a	n/a	n/a	n/a	n/a	n/a	ITI	s525
70.674	0.854	0.7699258954129093	draw_card	0.0	columbia_card_task_fmri	17.0	0.8	89.0	-65.0	0.2	10.0	1.0	2.0	1.2377377317262912	0.854	n/a	stim	s525
71.53	0.958	-1.0522963268093115	draw_card	1.0	columbia_card_task_fmri	17.0	0.7777777777777778	89.0	-65.0	0.2222222222222222	10.0	2.0	2.0	2.528377258224701	0.958	2.0	stim	s525
72.491	2.25	n/a	-1.0	n/a	columbia_card_task_fmri	n/a	n/a	-1.0	n/a	n/a	n/a	n/a	n/a	n/a	n/a	n/a	feedback	s525
74.741	0.272	n/a	-1.0	n/a	columbia_card_task_fmri	n/a	n/a	-1.0	n/a	n/a	n/a	n/a	n/a	n/a	n/a	n/a	ITI	s525
75.016	0.604	-0.6634074379204242	draw_card	1.0	columbia_card_task_fmri	13.0	0.8333333333333334	89.0	-70.0	0.1666666666666666	12.0	1.0	2.0	-0.6299620024378498	0.604	1.0	stim	s525
75.623	2.25	n/a	-1.0	n/a	columbia_card_task_fmri	n/a	n/a	-1.0	n/a	n/a	n/a	n/a	n/a	n/a	n/a	n/a	feedback	s525
77.873	0.748	n/a	-1.0	n/a	columbia_card_task_fmri	n/a	n/a	-1.0	n/a	n/a	n/a	n/a	n/a	n/a	n/a	n/a	ITI	s525
78.623	1.498	-0.6634074379204242	draw_card	0.0	columbia_card_task_fmri	15.0	0.8333333333333334	89.0	-80.0	0.1666666666666666	12.0	1.0	2.0	3.842114996794585	1.498	n/a	stim	s525
80.122	0.853	-2.1028013773143672	draw_card	0.0	columbia_card_task_fmri	15.0	0.8181818181818181	89.0	-80.0	0.1818181818181818	12.0	2.0	2.0	5.078679343525522	0.853	n/a	stim	s525
80.976	0.896	-3.830074104587092	end_round	0.0	columbia_card_task_fmri	15.0	0.8	71.0	-80.0	0.2	12.0	3.0	2.0	6.437677499704464	0.896	2.0	stim	s525
81.876	2.25	n/a	-1.0	n/a	columbia_card_task_fmri	n/a	n/a	-1.0	n/a	n/a	n/a	n/a	n/a	n/a	n/a	n/a	feedback	s525
84.126	0.068	n/a	-1.0	n/a	columbia_card_task_fmri	n/a	n/a	-1.0	n/a	n/a	n/a	n/a	n/a	n/a	n/a	n/a	ITI	s525
84.195	0.544	-1.630074104587091	draw_card	0.0	columbia_card_task_fmri	14.0	0.8	89.0	-65.0	0.2	15.0	1.0	3.0	0.0377544464953345	0.544	n/a	stim	s525
84.741	0.525	-2.758645533158519	draw_card	1.0	columbia_card_task_fmri	14.0	0.7857142857142857	89.0	-65.0	0.2142857142857142	15.0	2.0	3.0	0.8534893119052498	0.525	2.0	stim	s525
85.271	2.25	n/a	-1.0	n/a	columbia_card_task_fmri	n/a	n/a	-1.0	n/a	n/a	n/a	n/a	n/a	n/a	n/a	n/a	feedback	s525
87.521	0.0	n/a	-1.0	n/a	columbia_card_task_fmri	n/a	n/a	-1.0	n/a	n/a	n/a	n/a	n/a	n/a	n/a	n/a	ITI	s525
87.524	2.089	-1.705074104587092	draw_card	0.0	columbia_card_task_fmri	1.0	0.9375	89.0	-45.0	0.0625	16.0	1.0	1.0	-20.426578786308987	2.089	n/a	stim	s525
89.616	0.68	-1.8967407712537585	draw_card	0.0	columbia_card_task_fmri	1.0	0.9333333333333332	89.0	-45.0	0.0666666666666666	16.0	2.0	1.0	-20.087028287287325	0.68	n/a	stim	s525
90.298	0.601	-2.1157883903013777	draw_card	0.0	columbia_card_task_fmri	1.0	0.9285714285714286	89.0	-45.0	0.0714285714285714	16.0	3.0	1.0	-19.714672484775623	0.601	n/a	stim	s525
90.902	1.121	-2.3685356430486304	draw_card	0.0	columbia_card_task_fmri	1.0	0.9230769230769232	89.0	-45.0	0.0769230769230769	16.0	4.0	1.0	-19.303934322339448	1.121	n/a	stim	s525
92.024	0.816	-2.6634074379204256	draw_card	0.0	columbia_card_task_fmri	1.0	0.9166666666666666	89.0	-45.0	0.0833333333333333	16.0	5.0	1.0	-18.84783854177341	0.816	n/a	stim	s525
92.843	1.606	-3.0118922864052737	draw_card	0.0	columbia_card_task_fmri	1.0	0.9090909090909092	89.0	-45.0	0.0909090909090909	16.0	6.0	1.0	-18.33754050792952	1.606	n/a	stim	s525
94.45	1.126	-3.430074104587092	draw_card	1.0	columbia_card_task_fmri	1.0	0.9	89.0	-45.0	0.1	16.0	7.0	1.0	-17.761656280993407	1.126	7.0	stim	s525
95.581	2.25	n/a	-1.0	n/a	columbia_card_task_fmri	n/a	n/a	-1.0	n/a	n/a	n/a	n/a	n/a	n/a	n/a	n/a	feedback	s525
97.831	0.204	n/a	-1.0	n/a	columbia_card_task_fmri	n/a	n/a	-1.0	n/a	n/a	n/a	n/a	n/a	n/a	n/a	n/a	ITI	s525
98.037	0.597	-0.7675741045870921	draw_card	0.0	columbia_card_task_fmri	15.0	0.8125	89.0	-70.0	0.1875	16.0	1.0	3.0	1.61428460247339	0.597	n/a	stim	s525
98.636	0.481	-1.830074104587092	draw_card	0.0	columbia_card_task_fmri	15.0	0.8	89.0	-70.0	0.2	16.0	2.0	3.0	2.4377221968003653	0.481	n/a	stim	s525
99.118	0.539	-3.044359818872808	draw_card	0.0	columbia_card_task_fmri	15.0	0.7857142857142857	89.0	-70.0	0.2142857142857142	16.0	3.0	3.0	3.315413293691272	0.539	n/a	stim	s525
99.66	0.898	-4.445458719971709	draw_card	0.0	columbia_card_task_fmri	15.0	0.7692307692307692	89.0	-70.0	0.2307692307692307	16.0	4.0	3.0	4.250329464836469	0.898	n/a	stim	s525
100.559	1.593	-6.0800741045870925	end_round	0.0	columbia_card_task_fmri	15.0	0.75	71.0	-70.0	0.25	16.0	5.0	3.0	5.243769484625815	1.593	4.0	stim	s525
102.156	2.25	n/a	-1.0	n/a	columbia_card_task_fmri	n/a	n/a	-1.0	n/a	n/a	n/a	n/a	n/a	n/a	n/a	n/a	feedback	s525
104.406	0.068	n/a	-1.0	n/a	columbia_card_task_fmri	n/a	n/a	-1.0	n/a	n/a	n/a	n/a	n/a	n/a	n/a	n/a	ITI	s525
104.476	0.894	6.169925895412908	draw_card	0.0	columbia_card_task_fmri	30.0	0.7	89.0	-50.0	0.3	10.0	1.0	3.0	5.0982969399322045	0.894	n/a	stim	s525
105.371	2.052	3.503259228746247	draw_card	0.0	columbia_card_task_fmri	30.0	0.6666666666666667	89.0	-50.0	0.3333333333333333	10.0	2.0	3.0	6.1500420607443615	2.052	n/a	stim	s525
107.425	0.83	0.1699258954129079	draw_card	1.0	columbia_card_task_fmri	30.0	0.625	89.0	-50.0	0.375	10.0	3.0	3.0	7.167503802367669	0.83	3.0	stim	s525
108.259	2.25	n/a	-1.0	n/a	columbia_card_task_fmri	n/a	n/a	-1.0	n/a	n/a	n/a	n/a	n/a	n/a	n/a	n/a	feedback	s525
110.509	0.068	n/a	-1.0	n/a	columbia_card_task_fmri	n/a	n/a	-1.0	n/a	n/a	n/a	n/a	n/a	n/a	n/a	n/a	ITI	s525
110.579	0.58	5.569925895412908	draw_card	0.0	columbia_card_task_fmri	17.0	0.8666666666666667	89.0	-70.0	0.1333333333333333	15.0	1.0	2.0	-1.9879010814926872	0.58	n/a	stim	s525
111.161	0.534	4.74135446684148	draw_card	0.0	columbia_card_task_fmri	17.0	0.8571428571428572	89.0	-70.0	0.1428571428571428	15.0	2.0	2.0	-1.1185699684878436	0.534	n/a	stim	s525
111.696	0.47	3.785310510797523	draw_card	0.0	columbia_card_task_fmri	17.0	0.8461538461538461	89.0	-70.0	0.1538461538461538	15.0	3.0	2.0	-0.1725370231286724	0.47	n/a	stim	s525
112.169	0.569	2.6699258954129097	draw_card	0.0	columbia_card_task_fmri	17.0	0.8333333333333334	89.0	-70.0	0.1666666666666666	15.0	4.0	2.0	0.8607285236030933	0.569	n/a	stim	s525
112.741	1.194	1.3517440772310878	draw_card	0.0	columbia_card_task_fmri	17.0	0.8181818181818181	89.0	-70.0	0.1818181818181818	15.0	5.0	2.0	1.9931587115589764	1.194	n/a	stim	s525
113.936	0.875	-0.2300741045870906	end_round	0.0	columbia_card_task_fmri	17.0	0.8	71.0	-70.0	0.2	15.0	6.0	2.0	3.2377124353800326	0.875	5.0	stim	s525
114.816	2.25	n/a	-1.0	n/a	columbia_card_task_fmri	n/a	n/a	-1.0	n/a	n/a	n/a	n/a	n/a	n/a	n/a	n/a	feedback	s525
117.066	0.34	n/a	-1.0	n/a	columbia_card_task_fmri	n/a	n/a	-1.0	n/a	n/a	n/a	n/a	n/a	n/a	n/a	n/a	ITI	s525
117.408	1.437	0.7949258954129079	draw_card	0.0	columbia_card_task_fmri	7.0	0.9375	89.0	-95.0	0.0625	16.0	1.0	1.0	-6.871848864262262	1.437	n/a	stim	s525
118.848	0.389	0.3699258954129081	draw_card	0.0	columbia_card_task_fmri	7.0	0.9333333333333332	89.0	-95.0	0.0666666666666666	16.0	2.0	1.0	-6.118864771255502	0.389	n/a	stim	s525
119.24	0.57	-0.1157883903013776	draw_card	0.0	columbia_card_task_fmri	7.0	0.9285714285714286	89.0	-95.0	0.0714285714285714	16.0	3.0	1.0	-5.293136402100608	0.57	n/a	stim	s525
119.812	0.558	-0.6762279507409388	draw_card	1.0	columbia_card_task_fmri	7.0	0.9230769230769232	89.0	-95.0	0.0769230769230769	16.0	4.0	1.0	-4.382297044238101	0.558	4.0	stim	s525
120.374	2.25	n/a	-1.0	n/a	columbia_card_task_fmri	n/a	n/a	-1.0	n/a	n/a	n/a	n/a	n/a	n/a	n/a	n/a	feedback	s525
122.624	0.0	n/a	-1.0	n/a	columbia_card_task_fmri	n/a	n/a	-1.0	n/a	n/a	n/a	n/a	n/a	n/a	n/a	n/a	ITI	s525
122.626	0.779	2.357425895412908	draw_card	1.0	columbia_card_task_fmri	9.0	0.9375	89.0	-100.0	0.0625	16.0	1.0	1.0	-5.1774562012011245	0.779	1.0	stim	s525
123.41	2.25	n/a	-1.0	n/a	columbia_card_task_fmri	n/a	n/a	-1.0	n/a	n/a	n/a	n/a	n/a	n/a	n/a	n/a	feedback	s525
125.66	0.0	n/a	-1.0	n/a	columbia_card_task_fmri	n/a	n/a	-1.0	n/a	n/a	n/a	n/a	n/a	n/a	n/a	n/a	ITI	s525
125.662	1.127	3.294925895412908	draw_card	0.0	columbia_card_task_fmri	15.0	0.875	89.0	-80.0	0.125	16.0	1.0	2.0	-0.1439460923713653	1.127	n/a	stim	s525
126.792	0.748	2.503259228746242	draw_card	0.0	columbia_card_task_fmri	15.0	0.8666666666666667	89.0	-80.0	0.1333333333333333	16.0	2.0	2.0	0.7315348839850273	0.748	n/a	stim	s525
127.543	0.98	1.5984973239843383	draw_card	1.0	columbia_card_task_fmri	15.0	0.8571428571428572	89.0	-80.0	0.1428571428571428	16.0	3.0	2.0	1.6808069458047683	0.98	3.0	stim	s525
128.527	2.25	n/a	-1.0	n/a	columbia_card_task_fmri	n/a	n/a	-1.0	n/a	n/a	n/a	n/a	n/a	n/a	n/a	n/a	feedback	s525
130.777	0.272	n/a	-1.0	n/a	columbia_card_task_fmri	n/a	n/a	-1.0	n/a	n/a	n/a	n/a	n/a	n/a	n/a	n/a	ITI	s525
131.051	0.698	5.419925895412908	draw_card	0.0	columbia_card_task_fmri	16.0	0.875	89.0	-70.0	0.125	16.0	1.0	2.0	-3.1203682289554315	0.698	n/a	stim	s525
131.751	1.127	4.703259228746241	draw_card	0.0	columbia_card_task_fmri	16.0	0.8666666666666667	89.0	-70.0	0.1333333333333333	16.0	2.0	2.0	-2.327830039434808	1.127	n/a	stim	s525
132.88	0.62	3.8842116096986232	end_round	0.0	columbia_card_task_fmri	16.0	0.8571428571428572	71.0	-70.0	0.1428571428571428	16.0	3.0	2.0	-1.4684915603861484	0.62	2.0	stim	s525
133.503	2.25	n/a	-1.0	n/a	columbia_card_task_fmri	n/a	n/a	-1.0	n/a	n/a	n/a	n/a	n/a	n/a	n/a	n/a	feedback	s525
135.753	0.204	n/a	-1.0	n/a	columbia_card_task_fmri	n/a	n/a	-1.0	n/a	n/a	n/a	n/a	n/a	n/a	n/a	n/a	ITI	s525
135.961	0.452	6.732425895412908	draw_card	0.0	columbia_card_task_fmri	30.0	0.6875	89.0	-45.0	0.3125	16.0	1.0	5.0	3.201143280055888	0.452	n/a	stim	s525
136.416	0.42	5.169925895412911	draw_card	0.0	columbia_card_task_fmri	30.0	0.6666666666666667	89.0	-45.0	0.3333333333333333	16.0	2.0	5.0	3.793044978341492	0.42	n/a	stim	s525
136.838	0.826	3.38421160969862	draw_card	0.0	columbia_card_task_fmri	30.0	0.6428571428571428	89.0	-45.0	0.3571428571428571	16.0	3.0	5.0	4.37450609313067	0.826	n/a	stim	s525
137.667	0.534	1.3237720492590612	draw_card	0.0	columbia_card_task_fmri	30.0	0.6153846153846154	89.0	-45.0	0.3846153846153846	16.0	4.0	5.0	4.925512400925456	0.534	n/a	stim	s525
138.204	0.88	-1.0800741045870956	draw_card	0.0	columbia_card_task_fmri	30.0	0.5833333333333333	89.0	-45.0	0.4166666666666667	16.0	5.0	5.0	5.413186670900643	0.88	n/a	stim	s525
139.086	0.761	-3.920983195496182	end_round	0.0	columbia_card_task_fmri	30.0	0.5454545454545454	71.0	-45.0	0.4545454545454545	16.0	6.0	5.0	5.782403996084511	0.761	5.0	stim	s525
139.851	2.25	n/a	-1.0	n/a	columbia_card_task_fmri	n/a	n/a	-1.0	n/a	n/a	n/a	n/a	n/a	n/a	n/a	n/a	feedback	s525
142.101	0.0	n/a	-1.0	n/a	columbia_card_task_fmri	n/a	n/a	-1.0	n/a	n/a	n/a	n/a	n/a	n/a	n/a	n/a	ITI	s525
142.103	0.97	-1.4967407712537582	draw_card	0.0	columbia_card_task_fmri	13.0	0.8333333333333334	89.0	-75.0	0.1666666666666666	6.0	1.0	1.0	1.2334014599217935	0.97	n/a	stim	s525
143.075	1.828	-4.430074104587092	end_round	0.0	columbia_card_task_fmri	13.0	0.8	71.0	-75.0	0.2	6.0	2.0	1.0	3.63770772105476	1.828	1.0	stim	s525
144.907	2.25	n/a	-1.0	n/a	columbia_card_task_fmri	n/a	n/a	-1.0	n/a	n/a	n/a	n/a	n/a	n/a	n/a	n/a	feedback	s525
147.157	0.204	n/a	-1.0	n/a	columbia_card_task_fmri	n/a	n/a	-1.0	n/a	n/a	n/a	n/a	n/a	n/a	n/a	n/a	ITI	s525
147.363	0.623	0.1699258954129097	draw_card	0.0	columbia_card_task_fmri	14.0	0.8333333333333334	89.0	-70.0	0.1666666666666666	6.0	1.0	1.0	-0.2572895625212545	0.623	n/a	stim	s525
147.989	0.52	-2.630074104587091	draw_card	0.0	columbia_card_task_fmri	14.0	0.8	89.0	-70.0	0.2	6.0	2.0	1.0	2.0377272518183176	0.52	n/a	stim	s525
148.513	0.631	-6.8300741045870925	end_round	0.0	columbia_card_task_fmri	14.0	0.75	71.0	-70.0	0.25	6.0	3.0	1.0	4.810761452372141	0.631	2.0	stim	s525
149.148	2.25	n/a	-1.0	n/a	columbia_card_task_fmri	n/a	n/a	-1.0	n/a	n/a	n/a	n/a	n/a	n/a	n/a	n/a	feedback	s525
151.398	0.204	n/a	-1.0	n/a	columbia_card_task_fmri	n/a	n/a	-1.0	n/a	n/a	n/a	n/a	n/a	n/a	n/a	n/a	ITI	s525
151.605	0.507	0.1699258954129097	draw_card	1.0	columbia_card_task_fmri	16.0	0.8333333333333334	89.0	-80.0	0.1666666666666666	6.0	1.0	1.0	4.214788745351534	0.507	1.0	stim	s525
152.116	2.25	n/a	-1.0	n/a	columbia_card_task_fmri	n/a	n/a	-1.0	n/a	n/a	n/a	n/a	n/a	n/a	n/a	n/a	feedback	s525
154.366	0.272	n/a	-1.0	n/a	columbia_card_task_fmri	n/a	n/a	-1.0	n/a	n/a	n/a	n/a	n/a	n/a	n/a	n/a	ITI	s525
154.641	0.832	2.6699258954129097	draw_card	1.0	columbia_card_task_fmri	17.0	0.8333333333333334	89.0	-70.0	0.1666666666666666	6.0	1.0	1.0	0.8607285236030933	0.832	1.0	stim	s525
155.477	2.25	n/a	-1.0	n/a	columbia_card_task_fmri	n/a	n/a	-1.0	n/a	n/a	n/a	n/a	n/a	n/a	n/a	n/a	feedback	s525
157.727	0.204	n/a	-1.0	n/a	columbia_card_task_fmri	n/a	n/a	-1.0	n/a	n/a	n/a	n/a	n/a	n/a	n/a	n/a	ITI	s525
157.934	0.521	2.669925895412908	draw_card	0.0	columbia_card_task_fmri	25.0	0.75	89.0	-65.0	0.25	8.0	1.0	2.0	7.408811202417205	0.521	n/a	stim	s525
158.459	0.352	-0.5443598188728038	draw_card	1.0	columbia_card_task_fmri	25.0	0.7142857142857143	89.0	-65.0	0.2857142857142857	8.0	2.0	2.0	9.09550829417131	0.352	2.0	stim	s525
158.817	2.25	n/a	-1.0	n/a	columbia_card_task_fmri	n/a	n/a	-1.0	n/a	n/a	n/a	n/a	n/a	n/a	n/a	n/a	feedback	s525
161.067	0.408	n/a	-1.0	n/a	columbia_card_task_fmri	n/a	n/a	-1.0	n/a	n/a	n/a	n/a	n/a	n/a	n/a	n/a	ITI	s525
161.478	0.373	2.669925895412908	draw_card	0.0	columbia_card_task_fmri	30.0	0.75	89.0	-80.0	0.25	8.0	1.0	2.0	16.068997883969963	0.373	n/a	stim	s525
161.854	1.463	-1.2586455331585156	end_round	0.0	columbia_card_task_fmri	30.0	0.7142857142857143	71.0	-80.0	0.2857142857142857	8.0	2.0	2.0	18.13052276118125	1.463	1.0	stim	s525
163.321	2.25	n/a	-1.0	n/a	columbia_card_task_fmri	n/a	n/a	-1.0	n/a	n/a	n/a	n/a	n/a	n/a	n/a	n/a	feedback	s525
165.571	0.136	n/a	-1.0	n/a	columbia_card_task_fmri	n/a	n/a	-1.0	n/a	n/a	n/a	n/a	n/a	n/a	n/a	n/a	ITI	s525
165.71	0.42	2.369925895412909	draw_card	0.0	columbia_card_task_fmri	13.0	0.9	89.0	-95.0	0.1	10.0	1.0	1.0	0.8377431657487051	0.42	n/a	stim	s525
166.133	0.37	1.169925895412908	draw_card	1.0	columbia_card_task_fmri	13.0	0.8888888888888888	89.0	-95.0	0.1111111111111111	10.0	2.0	1.0	2.3788484303060926	0.37	2.0	stim	s525
166.507	2.25	n/a	-1.0	n/a	columbia_card_task_fmri	n/a	n/a	-1.0	n/a	n/a	n/a	n/a	n/a	n/a	n/a	n/a	feedback	s525
168.757	0.272	n/a	-1.0	n/a	columbia_card_task_fmri	n/a	n/a	-1.0	n/a	n/a	n/a	n/a	n/a	n/a	n/a	n/a	ITI	s525
169.032	0.648	3.769925895412908	draw_card	0.0	columbia_card_task_fmri	14.0	0.9	89.0	-90.0	0.1	10.0	1.0	1.0	-0.3622396961986638	0.648	n/a	stim	s525
169.682	0.527	2.614370339857351	draw_card	1.0	columbia_card_task_fmri	14.0	0.8888888888888888	89.0	-90.0	0.1111111111111111	10.0	2.0	1.0	1.1217860681126552	0.527	2.0	stim	s525
170.214	2.25	n/a	-1.0	n/a	columbia_card_task_fmri	n/a	n/a	-1.0	n/a	n/a	n/a	n/a	n/a	n/a	n/a	n/a	feedback	s525
172.464	0.34	n/a	-1.0	n/a	columbia_card_task_fmri	n/a	n/a	-1.0	n/a	n/a	n/a	n/a	n/a	n/a	n/a	n/a	ITI	s525
172.807	0.679	-1.0300741045870914	draw_card	1.0	columbia_card_task_fmri	16.0	0.8	89.0	-70.0	0.2	10.0	1.0	2.0	2.837717259338796	0.679	1.0	stim	s525
173.49	2.25	n/a	-1.0	n/a	columbia_card_task_fmri	n/a	n/a	-1.0	n/a	n/a	n/a	n/a	n/a	n/a	n/a	n/a	feedback	s525
175.74	0.136	n/a	-1.0	n/a	columbia_card_task_fmri	n/a	n/a	-1.0	n/a	n/a	n/a	n/a	n/a	n/a	n/a	n/a	ITI	s525
175.878	0.873	-1.7467407712537582	draw_card	0.0	columbia_card_task_fmri	7.0	0.9166666666666666	89.0	-100.0	0.0833333333333333	12.0	1.0	1.0	-1.9889765285759609	0.873	n/a	stim	s525
176.754	1.988	-2.5573468318598205	end_round	0.0	columbia_card_task_fmri	7.0	0.9090909090909092	71.0	-100.0	0.0909090909090909	12.0	2.0	1.0	-0.8018958425443152	1.988	1.0	stim	s525
178.747	2.25	n/a	-1.0	n/a	columbia_card_task_fmri	n/a	n/a	-1.0	n/a	n/a	n/a	n/a	n/a	n/a	n/a	n/a	feedback	s525
180.997	0.34	n/a	-1.0	n/a	columbia_card_task_fmri	n/a	n/a	-1.0	n/a	n/a	n/a	n/a	n/a	n/a	n/a	n/a	ITI	s525
181.34	0.898	-1.4967407712537564	draw_card	0.0	columbia_card_task_fmri	14.0	0.8333333333333334	89.0	-80.0	0.1666666666666666	12.0	1.0	2.0	3.469441338612519	0.898	n/a	stim	s525
182.242	0.81	-2.9209831954961856	end_round	0.0	columbia_card_task_fmri	14.0	0.8181818181818181	71.0	-80.0	0.1818181818181818	12.0	2.0	2.0	4.692988927275081	0.81	1.0	stim	s525
183.056	2.25	n/a	-1.0	n/a	columbia_card_task_fmri	n/a	n/a	-1.0	n/a	n/a	n/a	n/a	n/a	n/a	n/a	n/a	feedback	s525
185.306	0.068	n/a	-1.0	n/a	columbia_card_task_fmri	n/a	n/a	-1.0	n/a	n/a	n/a	n/a	n/a	n/a	n/a	n/a	ITI	s525
185.378	0.709	0.1699258954129079	draw_card	0.0	columbia_card_task_fmri	15.0	0.8333333333333334	89.0	-75.0	0.1666666666666666	12.0	1.0	2.0	1.9787476698813435	0.709	n/a	stim	s525
186.09	1.247	-1.1937104682234572	end_round	0.0	columbia_card_task_fmri	15.0	0.8181818181818181	71.0	-75.0	0.1818181818181818	12.0	2.0	2.0	3.150228193739224	1.247	1.0	stim	s525
187.341	2.25	n/a	-1.0	n/a	columbia_card_task_fmri	n/a	n/a	-1.0	n/a	n/a	n/a	n/a	n/a	n/a	n/a	n/a	feedback	s525
189.591	0.0	n/a	-1.0	n/a	columbia_card_task_fmri	n/a	n/a	-1.0	n/a	n/a	n/a	n/a	n/a	n/a	n/a	n/a	ITI	s525
189.593	0.484	-0.8300741045870921	draw_card	0.0	columbia_card_task_fmri	15.0	0.8	89.0	-65.0	0.2	15.0	1.0	3.0	0.4377487356188396	0.484	n/a	stim	s525
190.081	1.63	-1.9729312474442344	draw_card	0.0	columbia_card_task_fmri	15.0	0.7857142857142857	89.0	-65.0	0.2142857142857142	15.0	2.0	3.0	1.2638096480619154	1.63	n/a	stim	s525
191.715	0.555	-3.2916125661255555	end_round	0.0	columbia_card_task_fmri	15.0	0.7692307692307692	71.0	-65.0	0.2307692307692307	15.0	3.0	3.0	2.143729439288812	0.555	2.0	stim	s525
192.273	2.25	n/a	-1.0	n/a	columbia_card_task_fmri	n/a	n/a	-1.0	n/a	n/a	n/a	n/a	n/a	n/a	n/a	n/a	feedback	s525
194.523	0.204	n/a	-1.0	n/a	columbia_card_task_fmri	n/a	n/a	-1.0	n/a	n/a	n/a	n/a	n/a	n/a	n/a	n/a	ITI	s525
194.73	0.985	-1.580074104587092	draw_card	1.0	columbia_card_task_fmri	14.0	0.8125	89.0	-70.0	0.1875	16.0	1.0	3.0	1.2239774080529813	0.985	1.0	stim	s525
195.718	2.25	n/a	-1.0	n/a	columbia_card_task_fmri	n/a	n/a	-1.0	n/a	n/a	n/a	n/a	n/a	n/a	n/a	n/a	feedback	s525
197.968	1.02	n/a	-1.0	n/a	columbia_card_task_fmri	n/a	n/a	-1.0	n/a	n/a	n/a	n/a	n/a	n/a	n/a	n/a	ITI	s525
198.991	0.776	-1.642574104587092	draw_card	0.0	columbia_card_task_fmri	11.0	0.6875	89.0	-30.0	0.3125	16.0	1.0	5.0	-12.55793411897058	0.776	n/a	stim	s525
199.77	4.31	-2.496740771253758	end_round	0.0	columbia_card_task_fmri	11.0	0.6666666666666667	71.0	-30.0	0.3333333333333333	16.0	2.0	5.0	-12.234370107696687	4.31	1.0	stim	s525
204.085	2.25	n/a	-1.0	n/a	columbia_card_task_fmri	n/a	n/a	-1.0	n/a	n/a	n/a	n/a	n/a	n/a	n/a	n/a	feedback	s525
206.335	0.0	n/a	-1.0	n/a	columbia_card_task_fmri	n/a	n/a	-1.0	n/a	n/a	n/a	n/a	n/a	n/a	n/a	n/a	ITI	s525
206.339	0.824	3.169925895412908	draw_card	0.0	columbia_card_task_fmri	15.0	0.8666666666666667	89.0	-75.0	0.1333333333333333	15.0	1.0	2.0	-0.9681134508446512	0.824	n/a	stim	s525
207.166	2.324	2.312783038270052	end_round	0.0	columbia_card_task_fmri	15.0	0.8571428571428572	71.0	-75.0	0.1428571428571428	15.0	2.0	2.0	-0.0688044575809421	2.324	1.0	stim	s525
209.495	2.25	n/a	-1.0	n/a	columbia_card_task_fmri	n/a	n/a	-1.0	n/a	n/a	n/a	n/a	n/a	n/a	n/a	n/a	feedback	s525
211.745	0.0	n/a	-1.0	n/a	columbia_card_task_fmri	n/a	n/a	-1.0	n/a	n/a	n/a	n/a	n/a	n/a	n/a	n/a	ITI	s525
211.747	1.605	4.903259228746242	draw_card	0.0	columbia_card_task_fmri	17.0	0.8666666666666667	89.0	-75.0	0.1333333333333333	15.0	1.0	2.0	-0.2882544408582532	1.605	n/a	stim	s525
213.356	0.447	4.027068752555767	draw_card	0.0	columbia_card_task_fmri	17.0	0.8571428571428572	89.0	-75.0	0.1428571428571428	15.0	2.0	2.0	0.6310397890776258	0.447	n/a	stim	s525
213.806	0.851	3.016079741566754	draw_card	0.0	columbia_card_task_fmri	17.0	0.8461538461538461	89.0	-75.0	0.1538461538461538	15.0	3.0	2.0	1.6314440420815544	0.851	n/a	stim	s525
214.66	1.144	1.836592562079576	end_round	0.0	columbia_card_task_fmri	17.0	0.8333333333333334	71.0	-75.0	0.1666666666666666	15.0	4.0	2.0	2.724094305160719	1.144	3.0	stim	s525
215.809	2.25	n/a	-1.0	n/a	columbia_card_task_fmri	n/a	n/a	-1.0	n/a	n/a	n/a	n/a	n/a	n/a	n/a	n/a	feedback	s525
218.059	0.068	n/a	-1.0	n/a	columbia_card_task_fmri	n/a	n/a	-1.0	n/a	n/a	n/a	n/a	n/a	n/a	n/a	n/a	ITI	s525
218.129	2.604	0.4824258954129079	draw_card	1.0	columbia_card_task_fmri	2.0	0.9375	89.0	-25.0	0.0625	16.0	1.0	1.0	-25.02483438616892	2.604	1.0	stim	s525
220.738	2.25	n/a	-1.0	n/a	columbia_card_task_fmri	n/a	n/a	-1.0	n/a	n/a	n/a	n/a	n/a	n/a	n/a	n/a	feedback	s525
222.988	0.476	n/a	-1.0	n/a	columbia_card_task_fmri	n/a	n/a	-1.0	n/a	n/a	n/a	n/a	n/a	n/a	n/a	n/a	ITI	s525
223.468	3.703	2.669925895412908	draw_card	0.0	columbia_card_task_fmri	9.0	0.9375	89.0	-95.0	0.0625	16.0	1.0	1.0	-6.387737190607879	3.703	n/a	stim	s525
227.173	0.437	2.2365925620795752	end_round	0.0	columbia_card_task_fmri	9.0	0.9333333333333332	71.0	-95.0	0.0666666666666666	16.0	2.0	1.0	-5.619988031541336	0.437	1.0	stim	s525
227.615	2.25	n/a	-1.0	n/a	columbia_card_task_fmri	n/a	n/a	-1.0	n/a	n/a	n/a	n/a	n/a	n/a	n/a	n/a	feedback	s525
229.865	0.136	n/a	-1.0	n/a	columbia_card_task_fmri	n/a	n/a	-1.0	n/a	n/a	n/a	n/a	n/a	n/a	n/a	n/a	ITI	s525
230.005	2.195	4.232425895412908	draw_card	0.0	columbia_card_task_fmri	11.0	0.9375	89.0	-100.0	0.0625	16.0	1.0	1.0	-4.69334314187698	2.195	n/a	stim	s525
232.203	0.612	3.769925895412909	draw_card	0.0	columbia_card_task_fmri	11.0	0.9333333333333332	89.0	-100.0	0.0666666666666666	16.0	2.0	1.0	-3.8739163460260535	0.612	n/a	stim	s525
232.818	1.645	3.241354466841481	end_round	0.0	columbia_card_task_fmri	11.0	0.9285714285714286	71.0	-100.0	0.0714285714285714	16.0	3.0	1.0	-2.9753265714615225	1.645	2.0	stim	s525
234.468	2.25	n/a	-1.0	n/a	columbia_card_task_fmri	n/a	n/a	-1.0	n/a	n/a	n/a	n/a	n/a	n/a	n/a	n/a	feedback	s525
236.718	0.068	n/a	-1.0	n/a	columbia_card_task_fmri	n/a	n/a	-1.0	n/a	n/a	n/a	n/a	n/a	n/a	n/a	n/a	ITI	s525
236.79	2.039	4.794925895412908	draw_card	1.0	columbia_card_task_fmri	16.0	0.875	89.0	-75.0	0.125	16.0	1.0	2.0	-1.4668015495884037	2.039	1.0	stim	s525
238.833	2.25	n/a	-1.0	n/a	columbia_card_task_fmri	n/a	n/a	-1.0	n/a	n/a	n/a	n/a	n/a	n/a	n/a	n/a	feedback	s525
241.083	0.0	n/a	-1.0	n/a	columbia_card_task_fmri	n/a	n/a	-1.0	n/a	n/a	n/a	n/a	n/a	n/a	n/a	n/a	ITI	s525
241.087	1.201	5.044925895412908	draw_card	0.0	columbia_card_task_fmri	17.0	0.875	89.0	-80.0	0.125	16.0	1.0	2.0	0.5174822609137877	1.201	n/a	stim	s525
242.291	1.138	4.236592562079576	draw_card	0.0	columbia_card_task_fmri	17.0	0.8666666666666667	89.0	-80.0	0.1333333333333333	16.0	2.0	2.0	1.4113949348282375	1.138	n/a	stim	s525
243.432	1.396	3.312783038270054	end_round	0.0	columbia_card_task_fmri	17.0	0.8571428571428572	71.0	-80.0	0.1428571428571428	16.0	3.0	2.0	2.380652203600036	1.396	2.0	stim	s525
244.833	2.25	n/a	-1.0	n/a	columbia_card_task_fmri	n/a	n/a	-1.0	n/a	n/a	n/a	n/a	n/a	n/a	n/a	n/a	feedback	s525
247.083	0.0	n/a	-1.0	n/a	columbia_card_task_fmri	n/a	n/a	-1.0	n/a	n/a	n/a	n/a	n/a	n/a	n/a	n/a	ITI	s525
258.091	1.521	-0.6634074379204242	draw_card	1.0	columbia_card_task_fmri	13.0	0.8333333333333334	89.0	-70.0	0.1666666666666666	6.0	1.0	1.0	-0.6299620024378498	1.521	1.0	stim	s525
259.617	2.25	n/a	-1.0	n/a	columbia_card_task_fmri	n/a	n/a	-1.0	n/a	n/a	n/a	n/a	n/a	n/a	n/a	n/a	feedback	s525
261.867	0.204	n/a	-1.0	n/a	columbia_card_task_fmri	n/a	n/a	-1.0	n/a	n/a	n/a	n/a	n/a	n/a	n/a	n/a	ITI	s525
262.074	1.947	-0.6634074379204242	draw_card	0.0	columbia_card_task_fmri	15.0	0.8333333333333334	89.0	-80.0	0.1666666666666666	6.0	1.0	1.0	3.842114996794585	1.947	n/a	stim	s525
264.025	0.994	-3.830074104587092	end_round	0.0	columbia_card_task_fmri	15.0	0.8	71.0	-80.0	0.2	6.0	2.0	1.0	6.437677499704464	0.994	1.0	stim	s525
265.023	2.25	n/a	-1.0	n/a	columbia_card_task_fmri	n/a	n/a	-1.0	n/a	n/a	n/a	n/a	n/a	n/a	n/a	n/a	feedback	s525
267.273	0.204	n/a	-1.0	n/a	columbia_card_task_fmri	n/a	n/a	-1.0	n/a	n/a	n/a	n/a	n/a	n/a	n/a	n/a	ITI	s525
267.48	0.893	1.0032592287462418	draw_card	0.0	columbia_card_task_fmri	16.0	0.8333333333333334	89.0	-75.0	0.1666666666666666	6.0	1.0	1.0	2.3514209361087026	0.893	n/a	stim	s525
268.376	1.0	-2.030074104587092	end_round	0.0	columbia_card_task_fmri	16.0	0.8	71.0	-75.0	0.2	6.0	2.0	1.0	4.8376941997377685	1.0	1.0	stim	s525
269.381	2.25	n/a	-1.0	n/a	columbia_card_task_fmri	n/a	n/a	-1.0	n/a	n/a	n/a	n/a	n/a	n/a	n/a	n/a	feedback	s525
271.631	0.272	n/a	-1.0	n/a	columbia_card_task_fmri	n/a	n/a	-1.0	n/a	n/a	n/a	n/a	n/a	n/a	n/a	n/a	ITI	s525
271.906	0.731	2.169925895412908	draw_card	0.0	columbia_card_task_fmri	21.0	0.75	89.0	-55.0	0.25	8.0	1.0	2.0	1.3467016181283071	0.731	n/a	stim	s525
272.64	1.138	-0.5443598188728056	end_round	0.0	columbia_card_task_fmri	21.0	0.7142857142857143	71.0	-55.0	0.2857142857142857	8.0	2.0	2.0	2.7710183850637837	1.138	1.0	stim	s525
273.783	2.25	n/a	-1.0	n/a	columbia_card_task_fmri	n/a	n/a	-1.0	n/a	n/a	n/a	n/a	n/a	n/a	n/a	n/a	feedback	s525
276.033	0.136	n/a	-1.0	n/a	columbia_card_task_fmri	n/a	n/a	-1.0	n/a	n/a	n/a	n/a	n/a	n/a	n/a	n/a	ITI	s525
276.172	0.576	3.419925895412908	draw_card	0.0	columbia_card_task_fmri	26.0	0.75	89.0	-65.0	0.25	8.0	1.0	2.0	7.841819833334043	0.576	n/a	stim	s525
276.752	1.984	0.1699258954129114	end_round	0.0	columbia_card_task_fmri	26.0	0.7142857142857143	71.0	-65.0	0.2857142857142857	8.0	2.0	2.0	9.547258343530636	1.984	1.0	stim	s525
278.74	2.25	n/a	-1.0	n/a	columbia_card_task_fmri	n/a	n/a	-1.0	n/a	n/a	n/a	n/a	n/a	n/a	n/a	n/a	feedback	s525
280.99	0.204	n/a	-1.0	n/a	columbia_card_task_fmri	n/a	n/a	-1.0	n/a	n/a	n/a	n/a	n/a	n/a	n/a	n/a	ITI	s525
281.198	0.838	-1.4967407712537582	draw_card	0.0	columbia_card_task_fmri	15.0	0.7777777777777778	89.0	-60.0	0.2222222222222222	9.0	1.0	2.0	-0.3817611833738468	0.838	n/a	stim	s525
282.04	1.055	-3.580074104587092	end_round	0.0	columbia_card_task_fmri	15.0	0.75	71.0	-60.0	0.25	9.0	2.0	2.0	0.9136947655488896	1.055	1.0	stim	s525
283.099	2.25	n/a	-1.0	n/a	columbia_card_task_fmri	n/a	n/a	-1.0	n/a	n/a	n/a	n/a	n/a	n/a	n/a	n/a	feedback	s525
285.349	0.272	n/a	-1.0	n/a	columbia_card_task_fmri	n/a	n/a	-1.0	n/a	n/a	n/a	n/a	n/a	n/a	n/a	n/a	ITI	s525
285.625	0.603	2.869925895412909	draw_card	0.0	columbia_card_task_fmri	13.0	0.9	89.0	-90.0	0.1	10.0	1.0	1.0	-0.6622352037040642	0.603	n/a	stim	s525
286.232	0.771	1.7254814509684633	end_round	0.0	columbia_card_task_fmri	13.0	0.8888888888888888	71.0	-90.0	0.1111111111111111	10.0	2.0	1.0	0.8075206761029321	0.771	1.0	stim	s525
287.008	2.25	n/a	-1.0	n/a	columbia_card_task_fmri	n/a	n/a	-1.0	n/a	n/a	n/a	n/a	n/a	n/a	n/a	n/a	feedback	s525
289.258	0.272	n/a	-1.0	n/a	columbia_card_task_fmri	n/a	n/a	-1.0	n/a	n/a	n/a	n/a	n/a	n/a	n/a	n/a	ITI	s525
289.533	0.906	4.169925895412908	draw_card	0.0	columbia_card_task_fmri	15.0	0.9	89.0	-95.0	0.1	10.0	1.0	1.0	1.4377350641142996	0.906	n/a	stim	s525
290.442	1.669	2.9477036731906847	draw_card	0.0	columbia_card_task_fmri	15.0	0.8888888888888888	89.0	-95.0	0.1111111111111111	10.0	2.0	1.0	3.007380057574053	1.669	n/a	stim	s525
292.115	0.547	1.419925895412908	end_round	0.0	columbia_card_task_fmri	15.0	0.875	71.0	-95.0	0.125	10.0	3.0	1.0	4.816774954951931	0.547	2.0	stim	s525
292.667	2.25	n/a	-1.0	n/a	columbia_card_task_fmri	n/a	n/a	-1.0	n/a	n/a	n/a	n/a	n/a	n/a	n/a	n/a	feedback	s525
294.917	0.34	n/a	-1.0	n/a	columbia_card_task_fmri	n/a	n/a	-1.0	n/a	n/a	n/a	n/a	n/a	n/a	n/a	n/a	ITI	s525
295.262	0.445	-0.0300741045870913	draw_card	0.0	columbia_card_task_fmri	16.0	0.8	89.0	-65.0	0.2	10.0	1.0	2.0	0.8377431657487051	0.445	n/a	stim	s525
295.709	1.321	-1.8300741045870903	end_round	0.0	columbia_card_task_fmri	16.0	0.7777777777777778	71.0	-65.0	0.2222222222222222	10.0	2.0	2.0	2.112642776883952	1.321	1.0	stim	s525
297.035	2.25	n/a	-1.0	n/a	columbia_card_task_fmri	n/a	n/a	-1.0	n/a	n/a	n/a	n/a	n/a	n/a	n/a	n/a	feedback	s525
299.285	0.204	n/a	-1.0	n/a	columbia_card_task_fmri	n/a	n/a	-1.0	n/a	n/a	n/a	n/a	n/a	n/a	n/a	n/a	ITI	s525
299.492	0.674	-1.330074104587092	draw_card	0.0	columbia_card_task_fmri	7.0	0.9166666666666666	89.0	-95.0	0.0833333333333333	12.0	1.0	1.0	-3.370879594220778	0.674	n/a	stim	s525
300.17	1.914	-2.102801377314365	draw_card	0.0	columbia_card_task_fmri	7.0	0.9090909090909092	89.0	-95.0	0.0909090909090909	12.0	2.0	1.0	-2.239271772119519	1.914	n/a	stim	s525
302.087	0.632	-3.0300741045870923	end_round	0.0	columbia_card_task_fmri	7.0	0.9	71.0	-95.0	0.1	12.0	3.0	1.0	-0.9622306231233466	0.632	2.0	stim	s525
302.723	2.25	n/a	-1.0	n/a	columbia_card_task_fmri	n/a	n/a	-1.0	n/a	n/a	n/a	n/a	n/a	n/a	n/a	n/a	feedback	s525
304.973	0.068	n/a	-1.0	n/a	columbia_card_task_fmri	n/a	n/a	-1.0	n/a	n/a	n/a	n/a	n/a	n/a	n/a	n/a	ITI	s525
305.045	1.07	-0.6634074379204242	draw_card	1.0	columbia_card_task_fmri	14.0	0.8333333333333334	89.0	-75.0	0.1666666666666666	12.0	1.0	2.0	1.6060745099445557	1.07	1.0	stim	s525
306.119	2.25	n/a	-1.0	n/a	columbia_card_task_fmri	n/a	n/a	-1.0	n/a	n/a	n/a	n/a	n/a	n/a	n/a	n/a	feedback	s525
308.369	0.0	n/a	-1.0	n/a	columbia_card_task_fmri	n/a	n/a	-1.0	n/a	n/a	n/a	n/a	n/a	n/a	n/a	n/a	ITI	s525
308.372	0.894	1.0032592287462418	draw_card	0.0	columbia_card_task_fmri	15.0	0.8333333333333334	89.0	-70.0	0.1666666666666666	12.0	1.0	2.0	0.1153830081297329	0.894	n/a	stim	s525
309.27	1.64	-0.2846195591325489	end_round	0.0	columbia_card_task_fmri	15.0	0.8181818181818181	71.0	-70.0	0.1818181818181818	12.0	2.0	2.0	1.221779619175983	1.64	1.0	stim	s525
310.915	2.25	n/a	-1.0	n/a	columbia_card_task_fmri	n/a	n/a	-1.0	n/a	n/a	n/a	n/a	n/a	n/a	n/a	n/a	feedback	s525
313.165	0.408	n/a	-1.0	n/a	columbia_card_task_fmri	n/a	n/a	-1.0	n/a	n/a	n/a	n/a	n/a	n/a	n/a	n/a	ITI	s525
313.576	0.575	-1.0300741045870914	draw_card	0.0	columbia_card_task_fmri	16.0	0.8	89.0	-70.0	0.2	15.0	1.0	3.0	2.837717259338796	0.575	n/a	stim	s525
314.156	0.625	-2.258645533158521	draw_card	0.0	columbia_card_task_fmri	16.0	0.7857142857142857	89.0	-70.0	0.2142857142857142	15.0	2.0	3.0	3.72573438380126	0.625	n/a	stim	s525
314.784	0.498	-3.6762279507409383	draw_card	0.0	columbia_card_task_fmri	16.0	0.7692307692307692	89.0	-70.0	0.2307692307692307	15.0	3.0	3.0	4.671649821506904	0.498	n/a	stim	s525
315.287	0.655	-5.3300741045870925	draw_card	0.0	columbia_card_task_fmri	16.0	0.75	89.0	-70.0	0.25	15.0	4.0	3.0	5.676777625474017	0.655	n/a	stim	s525
315.946	0.807	-7.284619559132546	end_round	0.0	columbia_card_task_fmri	16.0	0.7272727272727273	71.0	-70.0	0.2727272727272727	15.0	5.0	3.0	6.738786854535562	0.807	4.0	stim	s525
316.758	2.25	n/a	-1.0	n/a	columbia_card_task_fmri	n/a	n/a	-1.0	n/a	n/a	n/a	n/a	n/a	n/a	n/a	n/a	feedback	s525
319.008	0.204	n/a	-1.0	n/a	columbia_card_task_fmri	n/a	n/a	-1.0	n/a	n/a	n/a	n/a	n/a	n/a	n/a	n/a	ITI	s525
319.216	0.892	-0.6425741045870921	draw_card	0.0	columbia_card_task_fmri	14.0	0.8125	89.0	-65.0	0.1875	16.0	1.0	3.0	-0.7275565968212163	0.892	n/a	stim	s525
320.111	0.453	-1.630074104587091	draw_card	0.0	columbia_card_task_fmri	14.0	0.8	89.0	-65.0	0.2	16.0	2.0	3.0	0.0377544464953345	0.453	n/a	stim	s525
320.569	0.804	-2.758645533158519	draw_card	0.0	columbia_card_task_fmri	14.0	0.7857142857142857	89.0	-65.0	0.2142857142857142	16.0	3.0	3.0	0.8534893119052498	0.804	n/a	stim	s525
321.377	0.855	-4.060843335356324	end_round	0.0	columbia_card_task_fmri	14.0	0.7692307692307692	71.0	-65.0	0.2307692307692307	16.0	4.0	3.0	1.7224098168903694	0.855	3.0	stim	s525
322.237	2.25	n/a	-1.0	n/a	columbia_card_task_fmri	n/a	n/a	-1.0	n/a	n/a	n/a	n/a	n/a	n/a	n/a	n/a	feedback	s525
324.487	0.136	n/a	-1.0	n/a	columbia_card_task_fmri	n/a	n/a	-1.0	n/a	n/a	n/a	n/a	n/a	n/a	n/a	n/a	ITI	s525
324.627	1.067	-0.8925741045870921	draw_card	0.0	columbia_card_task_fmri	16.0	0.8125	89.0	-75.0	0.1875	16.0	1.0	3.0	3.9561301599432	1.067	n/a	stim	s525
325.699	0.387	-2.030074104587092	draw_card	0.0	columbia_card_task_fmri	16.0	0.8	89.0	-75.0	0.2	16.0	2.0	3.0	4.8376941997377685	0.387	n/a	stim	s525
326.09	0.427	-3.3300741045870903	draw_card	0.0	columbia_card_task_fmri	16.0	0.7857142857142857	89.0	-75.0	0.2142857142857142	16.0	3.0	3.0	5.7773414210994005	0.427	n/a	stim	s525
326.521	0.623	-4.830074104587096	draw_card	0.0	columbia_card_task_fmri	16.0	0.7692307692307692	89.0	-75.0	0.2307692307692307	16.0	4.0	3.0	6.778253150186238	0.623	n/a	stim	s525
327.147	0.675	-6.5800741045870925	end_round	0.0	columbia_card_task_fmri	16.0	0.75	71.0	-75.0	0.25	16.0	5.0	3.0	7.841819833334043	0.675	4.0	stim	s525
327.828	2.25	n/a	-1.0	n/a	columbia_card_task_fmri	n/a	n/a	-1.0	n/a	n/a	n/a	n/a	n/a	n/a	n/a	n/a	feedback	s525
330.078	0.34	n/a	-1.0	n/a	columbia_card_task_fmri	n/a	n/a	-1.0	n/a	n/a	n/a	n/a	n/a	n/a	n/a	n/a	ITI	s525
330.422	0.978	3.369925895412909	draw_card	0.0	columbia_card_task_fmri	16.0	0.8666666666666667	89.0	-80.0	0.1333333333333333	15.0	1.0	2.0	1.071464861399086	0.978	n/a	stim	s525
331.403	0.381	2.455640181127196	draw_card	0.0	columbia_card_task_fmri	16.0	0.8571428571428572	89.0	-80.0	0.1428571428571428	15.0	2.0	2.0	2.030729528065649	0.381	n/a	stim	s525
331.787	0.461	1.400695126182138	draw_card	0.0	columbia_card_task_fmri	16.0	0.8461538461538461	89.0	-80.0	0.1538461538461538	15.0	3.0	2.0	3.074630768933765	0.461	n/a	stim	s525
332.252	1.082	0.1699258954129097	end_round	0.0	columbia_card_task_fmri	16.0	0.8333333333333334	71.0	-80.0	0.1666666666666666	15.0	4.0	2.0	4.214788745351534	1.082	3.0	stim	s525
333.339	2.25	n/a	-1.0	n/a	columbia_card_task_fmri	n/a	n/a	-1.0	n/a	n/a	n/a	n/a	n/a	n/a	n/a	n/a	feedback	s525
335.589	0.068	n/a	-1.0	n/a	columbia_card_task_fmri	n/a	n/a	-1.0	n/a	n/a	n/a	n/a	n/a	n/a	n/a	n/a	ITI	s525
335.662	0.69	4.236592562079576	draw_card	0.0	columbia_card_task_fmri	17.0	0.8666666666666667	89.0	-80.0	0.1333333333333333	15.0	1.0	2.0	1.4113949348282375	0.69	n/a	stim	s525
336.356	0.462	3.312783038270054	draw_card	0.0	columbia_card_task_fmri	17.0	0.8571428571428572	89.0	-80.0	0.1428571428571428	15.0	2.0	2.0	2.380652203600036	0.462	n/a	stim	s525
336.823	1.197	2.246848972335985	end_round	0.0	columbia_card_task_fmri	17.0	0.8461538461538461	71.0	-80.0	0.1538461538461538	15.0	3.0	2.0	3.435427684177704	1.197	2.0	stim	s525
338.026	2.25	n/a	-1.0	n/a	columbia_card_task_fmri	n/a	n/a	-1.0	n/a	n/a	n/a	n/a	n/a	n/a	n/a	n/a	feedback	s525
340.276	0.34	n/a	-1.0	n/a	columbia_card_task_fmri	n/a	n/a	-1.0	n/a	n/a	n/a	n/a	n/a	n/a	n/a	n/a	ITI	s525
340.619	0.649	0.1699258954129079	draw_card	0.0	columbia_card_task_fmri	1.0	0.9375	89.0	-15.0	0.0625	16.0	1.0	1.0	-27.685993154195188	0.649	n/a	stim	s525
341.272	0.417	0.1032592287462412	draw_card	0.0	columbia_card_task_fmri	1.0	0.9333333333333332	89.0	-15.0	0.0666666666666666	16.0	2.0	1.0	-27.56798545654932	0.417	n/a	stim	s525
341.693	0.456	0.0270687525557651	draw_card	0.0	columbia_card_task_fmri	1.0	0.9285714285714286	89.0	-15.0	0.0714285714285714	16.0	3.0	1.0	-27.438570200573626	0.456	n/a	stim	s525
342.154	1.523	-0.0608433353563229	end_round	0.0	columbia_card_task_fmri	1.0	0.9230769230769232	71.0	-15.0	0.0769230769230769	16.0	4.0	1.0	-27.295807821279524	1.523	3.0	stim	s525
343.683	2.25	n/a	-1.0	n/a	columbia_card_task_fmri	n/a	n/a	-1.0	n/a	n/a	n/a	n/a	n/a	n/a	n/a	n/a	feedback	s525
345.933	0.136	n/a	-1.0	n/a	columbia_card_task_fmri	n/a	n/a	-1.0	n/a	n/a	n/a	n/a	n/a	n/a	n/a	n/a	ITI	s525
346.074	0.64	3.294925895412908	draw_card	0.0	columbia_card_task_fmri	10.0	0.9375	89.0	-100.0	0.0625	16.0	1.0	1.0	-4.9353997163511	0.64	n/a	stim	s525
346.72	2.324	2.836592562079575	draw_card	0.0	columbia_card_task_fmri	10.0	0.9333333333333332	89.0	-100.0	0.0666666666666666	16.0	2.0	1.0	-4.123355431701899	2.324	n/a	stim	s525
349.049	0.445	2.312783038270052	draw_card	0.0	columbia_card_task_fmri	10.0	0.9285714285714286	89.0	-100.0	0.0714285714285714	16.0	3.0	1.0	-3.232861357164861	0.445	n/a	stim	s525
349.498	0.489	1.7083874338744471	draw_card	0.0	columbia_card_task_fmri	10.0	0.9230769230769232	89.0	-100.0	0.0769230769230769	16.0	4.0	1.0	-2.2505808343723324	0.489	n/a	stim	s525
349.991	2.246	1.0032592287462418	draw_card	0.0	columbia_card_task_fmri	10.0	0.9166666666666666	89.0	-100.0	0.0833333333333333	16.0	5.0	1.0	-1.159833644981532	2.246	n/a	stim	s525
352.242	0.863	0.1699258954129061	end_round	0.0	columbia_card_task_fmri	10.0	0.9090909090909092	71.0	-100.0	0.0909090909090909	16.0	6.0	1.0	0.0605307191142152	0.863	5.0	stim	s525
353.109	2.25	n/a	-1.0	n/a	columbia_card_task_fmri	n/a	n/a	-1.0	n/a	n/a	n/a	n/a	n/a	n/a	n/a	n/a	feedback	s525
355.359	0.068	n/a	-1.0	n/a	columbia_card_task_fmri	n/a	n/a	-1.0	n/a	n/a	n/a	n/a	n/a	n/a	n/a	n/a	ITI	s525
355.431	2.957	3.919925895412908	draw_card	0.0	columbia_card_task_fmri	15.0	0.875	89.0	-75.0	0.125	16.0	1.0	2.0	-1.7975151333672166	2.957	n/a	stim	s525
358.392	0.453	3.169925895412908	draw_card	0.0	columbia_card_task_fmri	15.0	0.8666666666666667	89.0	-75.0	0.1333333333333333	16.0	2.0	2.0	-0.9681134508446512	0.453	n/a	stim	s525
358.85	0.438	2.312783038270052	draw_card	1.0	columbia_card_task_fmri	15.0	0.8571428571428572	89.0	-75.0	0.1428571428571428	16.0	3.0	2.0	-0.0688044575809421	0.438	3.0	stim	s525
359.293	2.25	n/a	-1.0	n/a	columbia_card_task_fmri	n/a	n/a	-1.0	n/a	n/a	n/a	n/a	n/a	n/a	n/a	n/a	feedback	s525
361.543	0.068	n/a	-1.0	n/a	columbia_card_task_fmri	n/a	n/a	-1.0	n/a	n/a	n/a	n/a	n/a	n/a	n/a	n/a	ITI	s525
361.616	0.579	4.169925895412908	draw_card	0.0	columbia_card_task_fmri	16.0	0.875	89.0	-80.0	0.125	16.0	1.0	2.0	0.1867680349260148	0.579	n/a	stim	s525
362.199	0.421	3.369925895412909	draw_card	0.0	columbia_card_task_fmri	16.0	0.8666666666666667	89.0	-80.0	0.1333333333333333	16.0	2.0	2.0	1.071464861399086	0.421	n/a	stim	s525
362.625	0.729	2.455640181127196	draw_card	0.0	columbia_card_task_fmri	16.0	0.8571428571428572	89.0	-80.0	0.1428571428571428	16.0	3.0	2.0	2.030729528065649	0.729	n/a	stim	s525
363.359	0.656	1.400695126182138	end_round	0.0	columbia_card_task_fmri	16.0	0.8461538461538461	71.0	-80.0	0.1538461538461538	16.0	4.0	2.0	3.074630768933765	0.656	3.0	stim	s525
364.02	2.25	n/a	-1.0	n/a	columbia_card_task_fmri	n/a	n/a	-1.0	n/a	n/a	n/a	n/a	n/a	n/a	n/a	n/a	feedback	s525
366.27	0.068	n/a	-1.0	n/a	columbia_card_task_fmri	n/a	n/a	-1.0	n/a	n/a	n/a	n/a	n/a	n/a	n/a	n/a	ITI	s525
366.342	0.422	1.357425895412908	draw_card	0.0	columbia_card_task_fmri	4.0	0.6875	89.0	-5.0	0.3125	16.0	1.0	5.0	-27.387631345689236	0.422	n/a	stim	s525
366.769	0.378	1.1699258954129084	draw_card	0.0	columbia_card_task_fmri	4.0	0.6666666666666667	89.0	-5.0	0.3333333333333333	16.0	2.0	5.0	-27.316660177615685	0.378	n/a	stim	s525
367.151	0.795	0.9556401811271932	draw_card	0.0	columbia_card_task_fmri	4.0	0.6428571428571428	89.0	-5.0	0.3571428571428571	16.0	3.0	5.0	-27.24693904624872	0.795	n/a	stim	s525
367.95	0.734	0.7083874338744465	end_round	0.0	columbia_card_task_fmri	4.0	0.6153846153846154	71.0	-5.0	0.3846153846153846	16.0	4.0	5.0	-27.18086806045336	0.734	3.0	stim	s525
368.69	2.25	n/a	-1.0	n/a	columbia_card_task_fmri	n/a	n/a	-1.0	n/a	n/a	n/a	n/a	n/a	n/a	n/a	n/a	feedback	s525
370.94	0.136	n/a	-1.0	n/a	columbia_card_task_fmri	n/a	n/a	-1.0	n/a	n/a	n/a	n/a	n/a	n/a	n/a	n/a	ITI	s525
371.08	1.177	-1.4967407712537564	draw_card	0.0	columbia_card_task_fmri	14.0	0.8333333333333334	89.0	-80.0	0.1666666666666666	6.0	1.0	1.0	3.469441338612519	1.177	n/a	stim	s525
372.262	1.048	-4.630074104587092	end_round	0.0	columbia_card_task_fmri	14.0	0.8	71.0	-80.0	0.2	6.0	2.0	1.0	6.037681541469901	1.048	1.0	stim	s525
373.315	2.25	n/a	-1.0	n/a	columbia_card_task_fmri	n/a	n/a	-1.0	n/a	n/a	n/a	n/a	n/a	n/a	n/a	n/a	feedback	s525
375.565	0.0	n/a	-1.0	n/a	columbia_card_task_fmri	n/a	n/a	-1.0	n/a	n/a	n/a	n/a	n/a	n/a	n/a	n/a	ITI	s525
375.57	0.421	0.1699258954129079	draw_card	0.0	columbia_card_task_fmri	15.0	0.8333333333333334	89.0	-75.0	0.1666666666666666	6.0	1.0	1.0	1.9787476698813435	0.421	n/a	stim	s525
375.996	1.29	-2.830074104587092	end_round	0.0	columbia_card_task_fmri	15.0	0.8	71.0	-75.0	0.2	6.0	2.0	1.0	4.437698606687206	1.29	1.0	stim	s525
377.292	2.25	n/a	-1.0	n/a	columbia_card_task_fmri	n/a	n/a	-1.0	n/a	n/a	n/a	n/a	n/a	n/a	n/a	n/a	feedback	s525
379.542	0.136	n/a	-1.0	n/a	columbia_card_task_fmri	n/a	n/a	-1.0	n/a	n/a	n/a	n/a	n/a	n/a	n/a	n/a	ITI	s525
379.683	0.542	1.836592562079576	draw_card	1.0	columbia_card_task_fmri	16.0	0.8333333333333334	89.0	-70.0	0.1666666666666666	6.0	1.0	1.0	0.4880557049547462	0.542	1.0	stim	s525
380.23	2.25	n/a	-1.0	n/a	columbia_card_task_fmri	n/a	n/a	-1.0	n/a	n/a	n/a	n/a	n/a	n/a	n/a	n/a	feedback	s525
382.48	0.34	n/a	-1.0	n/a	columbia_card_task_fmri	n/a	n/a	-1.0	n/a	n/a	n/a	n/a	n/a	n/a	n/a	n/a	ITI	s525
382.825	2.079	2.419925895412908	draw_card	0.0	columbia_card_task_fmri	23.0	0.75	89.0	-60.0	0.25	8.0	1.0	2.0	4.37775353263801	2.079	n/a	stim	s525
384.908	1.835	-0.5443598188728038	draw_card	0.0	columbia_card_task_fmri	23.0	0.7142857142857143	89.0	-60.0	0.2857142857142857	8.0	2.0	2.0	5.933260581355391	1.835	n/a	stim	s525
386.748	0.675	-4.496740771253757	end_round	0.0	columbia_card_task_fmri	23.0	0.6666666666666667	71.0	-60.0	0.3333333333333333	8.0	3.0	2.0	7.564241786109392	0.675	2.0	stim	s525
387.429	2.25	n/a	-1.0	n/a	columbia_card_task_fmri	n/a	n/a	-1.0	n/a	n/a	n/a	n/a	n/a	n/a	n/a	n/a	feedback	s525
389.679	0.408	n/a	-1.0	n/a	columbia_card_task_fmri	n/a	n/a	-1.0	n/a	n/a	n/a	n/a	n/a	n/a	n/a	n/a	ITI	s525
390.092	1.148	2.919925895412908	draw_card	1.0	columbia_card_task_fmri	27.0	0.75	89.0	-70.0	0.25	8.0	1.0	2.0	10.439873381502778	1.148	1.0	stim	s525
391.245	2.25	n/a	-1.0	n/a	columbia_card_task_fmri	n/a	n/a	-1.0	n/a	n/a	n/a	n/a	n/a	n/a	n/a	n/a	feedback	s525
393.495	0.136	n/a	-1.0	n/a	columbia_card_task_fmri	n/a	n/a	-1.0	n/a	n/a	n/a	n/a	n/a	n/a	n/a	n/a	ITI	s525
393.636	0.579	-1.8300741045870903	draw_card	0.0	columbia_card_task_fmri	16.0	0.7777777777777778	89.0	-65.0	0.2222222222222222	9.0	1.0	2.0	2.112642776883952	0.579	n/a	stim	s525
394.221	0.718	-4.0800741045870925	draw_card	1.0	columbia_card_task_fmri	16.0	0.75	89.0	-65.0	0.25	9.0	2.0	2.0	3.5117380473975786	0.718	2.0	stim	s525
394.944	2.25	n/a	-1.0	n/a	columbia_card_task_fmri	n/a	n/a	-1.0	n/a	n/a	n/a	n/a	n/a	n/a	n/a	n/a	feedback	s525
397.194	0.136	n/a	-1.0	n/a	columbia_card_task_fmri	n/a	n/a	-1.0	n/a	n/a	n/a	n/a	n/a	n/a	n/a	n/a	ITI	s525
397.335	0.467	3.369925895412909	draw_card	1.0	columbia_card_task_fmri	13.0	0.9	89.0	-85.0	0.1	10.0	1.0	1.0	-2.1622113660108297	0.467	1.0	stim	s525
397.808	2.25	n/a	-1.0	n/a	columbia_card_task_fmri	n/a	n/a	-1.0	n/a	n/a	n/a	n/a	n/a	n/a	n/a	n/a	feedback	s525
400.058	0.0	n/a	-1.0	n/a	columbia_card_task_fmri	n/a	n/a	-1.0	n/a	n/a	n/a	n/a	n/a	n/a	n/a	n/a	ITI	s525
400.063	0.613	-1.630074104587091	draw_card	0.0	columbia_card_task_fmri	14.0	0.8	89.0	-65.0	0.2	10.0	1.0	2.0	0.0377544464953345	0.613	n/a	stim	s525
400.681	1.29	-3.3856296601426457	draw_card	0.0	columbia_card_task_fmri	14.0	0.7777777777777778	89.0	-65.0	0.2222222222222222	10.0	2.0	2.0	1.2811742112807778	1.29	n/a	stim	s525
401.975	1.188	-5.5800741045870925	end_round	0.0	columbia_card_task_fmri	14.0	0.75	71.0	-65.0	0.25	10.0	3.0	2.0	2.645723064352836	1.188	2.0	stim	s525
403.168	2.25	n/a	-1.0	n/a	columbia_card_task_fmri	n/a	n/a	-1.0	n/a	n/a	n/a	n/a	n/a	n/a	n/a	n/a	feedback	s525
405.418	0.068	n/a	-1.0	n/a	columbia_card_task_fmri	n/a	n/a	-1.0	n/a	n/a	n/a	n/a	n/a	n/a	n/a	n/a	ITI	s525
405.491	0.485	-0.2300741045870906	draw_card	0.0	columbia_card_task_fmri	17.0	0.8	89.0	-70.0	0.2	10.0	1.0	2.0	3.2377124353800326	0.485	n/a	stim	s525
405.98	0.865	-2.163407437920424	draw_card	0.0	columbia_card_task_fmri	17.0	0.7777777777777778	89.0	-70.0	0.2222222222222222	10.0	2.0	2.0	4.607051467759597	0.865	n/a	stim	s525
406.849	0.559	-4.5800741045870925	end_round	0.0	columbia_card_task_fmri	17.0	0.75	71.0	-70.0	0.25	10.0	3.0	2.0	6.1097858711721855	0.559	2.0	stim	s525
407.414	2.25	n/a	-1.0	n/a	columbia_card_task_fmri	n/a	n/a	-1.0	n/a	n/a	n/a	n/a	n/a	n/a	n/a	n/a	feedback	s525
409.664	0.0	n/a	-1.0	n/a	columbia_card_task_fmri	n/a	n/a	-1.0	n/a	n/a	n/a	n/a	n/a	n/a	n/a	n/a	ITI	s525
409.668	0.361	-1.4967407712537582	draw_card	0.0	columbia_card_task_fmri	13.0	0.8333333333333334	89.0	-75.0	0.1666666666666666	12.0	1.0	2.0	1.2334014599217935	0.361	n/a	stim	s525
410.034	0.582	-2.830074104587094	end_round	0.0	columbia_card_task_fmri	13.0	0.8181818181818181	71.0	-75.0	0.1818181818181818	12.0	2.0	2.0	2.3788484303060926	0.582	1.0	stim	s525
410.622	2.25	n/a	-1.0	n/a	columbia_card_task_fmri	n/a	n/a	-1.0	n/a	n/a	n/a	n/a	n/a	n/a	n/a	n/a	feedback	s525
412.872	0.0	n/a	-1.0	n/a	columbia_card_task_fmri	n/a	n/a	-1.0	n/a	n/a	n/a	n/a	n/a	n/a	n/a	n/a	ITI	s525
412.877	0.393	0.1699258954129097	draw_card	0.0	columbia_card_task_fmri	14.0	0.8333333333333334	89.0	-70.0	0.1666666666666666	12.0	1.0	2.0	-0.2572895625212545	0.393	n/a	stim	s525
413.275	0.445	-1.1028013773143672	end_round	0.0	columbia_card_task_fmri	14.0	0.8181818181818181	71.0	-70.0	0.1818181818181818	12.0	2.0	2.0	0.8360902537568364	0.445	1.0	stim	s525
413.726	2.25	n/a	-1.0	n/a	columbia_card_task_fmri	n/a	n/a	-1.0	n/a	n/a	n/a	n/a	n/a	n/a	n/a	n/a	feedback	s525
415.976	0.136	n/a	-1.0	n/a	columbia_card_task_fmri	n/a	n/a	-1.0	n/a	n/a	n/a	n/a	n/a	n/a	n/a	n/a	ITI	s525
416.118	0.527	0.1699258954129097	draw_card	0.0	columbia_card_task_fmri	16.0	0.8333333333333334	89.0	-80.0	0.1666666666666666	12.0	1.0	2.0	4.214788745351534	0.527	n/a	stim	s525
416.65	1.238	-1.2846195591325489	draw_card	1.0	columbia_card_task_fmri	16.0	0.8181818181818181	89.0	-80.0	0.1818181818181818	12.0	2.0	2.0	5.464369847101011	1.238	2.0	stim	s525
417.894	2.25	n/a	-1.0	n/a	columbia_card_task_fmri	n/a	n/a	-1.0	n/a	n/a	n/a	n/a	n/a	n/a	n/a	n/a	feedback	s525
420.144	0.136	n/a	-1.0	n/a	columbia_card_task_fmri	n/a	n/a	-1.0	n/a	n/a	n/a	n/a	n/a	n/a	n/a	n/a	ITI	s525
420.285	0.506	-0.0300741045870913	end_round	0.0	columbia_card_task_fmri	16.0	0.8	71.0	-65.0	0.2	15.0	1.0	3.0	0.8377431657487051	0.506	0.0	stim	s525
420.797	2.25	n/a	-1.0	n/a	columbia_card_task_fmri	n/a	n/a	-1.0	n/a	n/a	n/a	n/a	n/a	n/a	n/a	n/a	feedback	s525
423.047	0.476	n/a	-1.0	n/a	columbia_card_task_fmri	n/a	n/a	-1.0	n/a	n/a	n/a	n/a	n/a	n/a	n/a	n/a	ITI	s525
423.528	0.619	-1.705074104587092	draw_card	1.0	columbia_card_task_fmri	15.0	0.8125	89.0	-75.0	0.1875	16.0	1.0	3.0	3.565822301370289	0.619	1.0	stim	s525
424.153	2.25	n/a	-1.0	n/a	columbia_card_task_fmri	n/a	n/a	-1.0	n/a	n/a	n/a	n/a	n/a	n/a	n/a	n/a	feedback	s525
426.403	0.204	n/a	-1.0	n/a	columbia_card_task_fmri	n/a	n/a	-1.0	n/a	n/a	n/a	n/a	n/a	n/a	n/a	n/a	ITI	s525
426.612	1.894	-1.142574104587092	draw_card	0.0	columbia_card_task_fmri	14.0	0.6875	89.0	-35.0	0.3125	16.0	1.0	5.0	-8.849958902299015	1.894	n/a	stim	s525
428.511	1.263	-2.163407437920424	draw_card	0.0	columbia_card_task_fmri	14.0	0.6666666666666667	89.0	-35.0	0.3333333333333333	16.0	2.0	5.0	-8.463255892028652	1.263	n/a	stim	s525
429.778	1.072	-3.330074104587092	draw_card	1.0	columbia_card_task_fmri	14.0	0.6428571428571428	89.0	-35.0	0.3571428571428571	16.0	3.0	5.0	-8.083373759764122	1.072	3.0	stim	s525
430.856	2.25	n/a	-1.0	n/a	columbia_card_task_fmri	n/a	n/a	-1.0	n/a	n/a	n/a	n/a	n/a	n/a	n/a	n/a	feedback	s525
433.106	0.068	n/a	-1.0	n/a	columbia_card_task_fmri	n/a	n/a	-1.0	n/a	n/a	n/a	n/a	n/a	n/a	n/a	n/a	ITI	s525
433.179	0.483	4.036592562079575	draw_card	0.0	columbia_card_task_fmri	16.0	0.8666666666666667	89.0	-75.0	0.1333333333333333	15.0	1.0	2.0	-0.6281840022155194	0.483	n/a	stim	s525
433.667	0.827	3.1699258954129097	end_round	0.0	columbia_card_task_fmri	16.0	0.8571428571428572	71.0	-75.0	0.1428571428571428	15.0	2.0	2.0	0.281117610993661	0.827	1.0	stim	s525
434.499	2.25	n/a	-1.0	n/a	columbia_card_task_fmri	n/a	n/a	-1.0	n/a	n/a	n/a	n/a	n/a	n/a	n/a	n/a	feedback	s525
436.749	0.068	n/a	-1.0	n/a	columbia_card_task_fmri	n/a	n/a	-1.0	n/a	n/a	n/a	n/a	n/a	n/a	n/a	n/a	ITI	s525
436.823	0.376	4.703259228746241	draw_card	0.0	columbia_card_task_fmri	16.0	0.8666666666666667	89.0	-70.0	0.1333333333333333	15.0	1.0	2.0	-2.327830039434808	0.376	n/a	stim	s525
437.203	0.672	3.8842116096986232	draw_card	0.0	columbia_card_task_fmri	16.0	0.8571428571428572	89.0	-70.0	0.1428571428571428	15.0	2.0	2.0	-1.4684915603861484	0.672	n/a	stim	s525
437.879	0.618	2.939156664643676	end_round	0.0	columbia_card_task_fmri	16.0	0.8461538461538461	71.0	-70.0	0.1538461538461538	15.0	3.0	2.0	-0.5333328873933354	0.618	2.0	stim	s525
438.504	2.25	n/a	-1.0	n/a	columbia_card_task_fmri	n/a	n/a	-1.0	n/a	n/a	n/a	n/a	n/a	n/a	n/a	n/a	feedback	s525
440.754	0.34	n/a	-1.0	n/a	columbia_card_task_fmri	n/a	n/a	-1.0	n/a	n/a	n/a	n/a	n/a	n/a	n/a	n/a	ITI	s525
441.098	0.51	2.044925895412908	draw_card	0.0	columbia_card_task_fmri	8.0	0.9375	89.0	-90.0	0.0625	16.0	1.0	1.0	-7.840070834729861	0.51	n/a	stim	s525
441.614	0.415	1.6365925620795747	draw_card	0.0	columbia_card_task_fmri	8.0	0.9333333333333332	89.0	-90.0	0.0666666666666666	16.0	2.0	1.0	-7.1166169145851015	0.415	n/a	stim	s525
442.034	0.589	1.1699258954129088	end_round	0.0	columbia_card_task_fmri	8.0	0.9285714285714286	71.0	-90.0	0.0714285714285714	16.0	3.0	1.0	-6.323271477528277	0.589	2.0	stim	s525
442.629	2.25	n/a	-1.0	n/a	columbia_card_task_fmri	n/a	n/a	-1.0	n/a	n/a	n/a	n/a	n/a	n/a	n/a	n/a	feedback	s525
444.879	0.476	n/a	-1.0	n/a	columbia_card_task_fmri	n/a	n/a	-1.0	n/a	n/a	n/a	n/a	n/a	n/a	n/a	n/a	ITI	s525
445.36	0.754	3.607425895412908	draw_card	0.0	columbia_card_task_fmri	10.0	0.9375	89.0	-95.0	0.0625	16.0	1.0	1.0	-6.145681193148693	0.754	n/a	stim	s525
446.12	0.755	3.169925895412909	draw_card	0.0	columbia_card_task_fmri	10.0	0.9333333333333332	89.0	-95.0	0.0666666666666666	16.0	2.0	1.0	-5.3705495058055845	0.755	n/a	stim	s525
446.881	0.563	2.669925895412909	end_round	0.0	columbia_card_task_fmri	10.0	0.9285714285714286	71.0	-95.0	0.0714285714285714	16.0	3.0	1.0	-4.5205339739718085	0.563	2.0	stim	s525
447.451	2.25	n/a	-1.0	n/a	columbia_card_task_fmri	n/a	n/a	-1.0	n/a	n/a	n/a	n/a	n/a	n/a	n/a	n/a	feedback	s525
449.701	0.272	n/a	-1.0	n/a	columbia_card_task_fmri	n/a	n/a	-1.0	n/a	n/a	n/a	n/a	n/a	n/a	n/a	n/a	ITI	s525
449.977	0.495	4.544925895412908	draw_card	0.0	columbia_card_task_fmri	15.0	0.875	89.0	-70.0	0.125	16.0	1.0	2.0	-3.451081171097485	0.495	n/a	stim	s525
450.477	0.458	3.836592562079574	draw_card	0.0	columbia_card_task_fmri	15.0	0.8666666666666667	89.0	-70.0	0.1333333333333333	16.0	2.0	2.0	-2.667758863820417	0.458	n/a	stim	s525
450.94	0.483	3.0270687525557656	draw_card	0.0	columbia_card_task_fmri	15.0	0.8571428571428572	89.0	-70.0	0.1428571428571428	16.0	3.0	2.0	-1.8184130225413924	0.483	n/a	stim	s525
451.429	1.112	2.093002818489829	end_round	0.0	columbia_card_task_fmri	15.0	0.8461538461538461	71.0	-70.0	0.1538461538461538	16.0	4.0	2.0	-0.8941286258248731	1.112	3.0	stim	s525
452.547	2.25	n/a	-1.0	n/a	columbia_card_task_fmri	n/a	n/a	-1.0	n/a	n/a	n/a	n/a	n/a	n/a	n/a	n/a	feedback	s525
454.797	0.884	n/a	-1.0	n/a	columbia_card_task_fmri	n/a	n/a	-1.0	n/a	n/a	n/a	n/a	n/a	n/a	n/a	n/a	ITI	s525
455.687	0.556	3.544925895412908	draw_card	0.0	columbia_card_task_fmri	16.0	0.875	89.0	-85.0	0.125	16.0	1.0	2.0	1.8403400931424017	0.556	n/a	stim	s525
456.247	0.396	2.703259228746241	draw_card	0.0	columbia_card_task_fmri	16.0	0.8666666666666667	89.0	-85.0	0.1333333333333333	16.0	2.0	2.0	2.7711161316584807	0.396	n/a	stim	s525
456.648	2.331	1.7413544668414809	end_round	0.0	columbia_card_task_fmri	16.0	0.8571428571428572	71.0	-85.0	0.1428571428571428	16.0	3.0	2.0	3.7803437830639695	2.331	2.0	stim	s525
458.986	2.25	n/a	-1.0	n/a	columbia_card_task_fmri	n/a	n/a	-1.0	n/a	n/a	n/a	n/a	n/a	n/a	n/a	n/a	feedback	s525
461.236	0.136	n/a	-1.0	n/a	columbia_card_task_fmri	n/a	n/a	-1.0	n/a	n/a	n/a	n/a	n/a	n/a	n/a	n/a	ITI	s525
