onset	duration	planning	condition	current_position	exp_stage	experiment_exp_id	goal_state	key_press	problem_id	response_time	start_state	trial_id	worker_id
-66.42	0.0	0	n/a	n/a	n/a	ward_and_allport	n/a	32.0	n/a	22.086	n/a	instructions	s648
3.01	5.255	1	UA_with_intermediate	1,0,0,2,0,0,0,0,0	practice	ward_and_allport	1,2,3,0,0,0,0,0,0	71.0	0.0	5.255	1,0,0,2,3,0,0,0,0	to_hand	s648
8.267	1.282	0	UA_with_intermediate	1,0,0,2,0,0,3,0,0	practice	ward_and_allport	1,2,3,0,0,0,0,0,0	82.0	0.0	1.282	1,0,0,2,3,0,0,0,0	to_board	s648
9.552	1.091	0	UA_with_intermediate	1,0,0,0,0,0,3,0,0	practice	ward_and_allport	1,2,3,0,0,0,0,0,0	71.0	0.0	1.091	1,0,0,2,3,0,0,0,0	to_hand	s648
10.645	1.164	0	UA_with_intermediate	1,2,0,0,0,0,3,0,0	practice	ward_and_allport	1,2,3,0,0,0,0,0,0	89.0	0.0	1.164	1,0,0,2,3,0,0,0,0	to_board	s648
11.81	0.87	0	UA_with_intermediate	1,2,0,0,0,0,0,0,0	practice	ward_and_allport	1,2,3,0,0,0,0,0,0	82.0	0.0	0.87	1,0,0,2,3,0,0,0,0	to_hand	s648
12.682	0.868	0	UA_with_intermediate	1,2,3,0,0,0,0,0,0	practice	ward_and_allport	1,2,3,0,0,0,0,0,0	89.0	0.0	0.868	1,0,0,2,3,0,0,0,0	to_board	s648
13.556	1.0	0	UA_with_intermediate	n/a	practice	ward_and_allport	n/a	-1.0	0.0	n/a	n/a	feedback	s648
16.058	4.711	1	UA_with_intermediate	1,0,0,3,0,0,0,0,0	practice	ward_and_allport	1,3,2,0,0,0,0,0,0	89.0	1.0	4.711	1,2,0,3,0,0,0,0,0	to_hand	s648
20.771	2.946	0	UA_with_intermediate	1,0,0,3,0,0,2,0,0	practice	ward_and_allport	1,3,2,0,0,0,0,0,0	82.0	1.0	2.946	1,2,0,3,0,0,0,0,0	to_board	s648
23.718	1.386	0	UA_with_intermediate	1,0,0,0,0,0,2,0,0	practice	ward_and_allport	1,3,2,0,0,0,0,0,0	71.0	1.0	1.386	1,2,0,3,0,0,0,0,0	to_hand	s648
25.106	1.009	0	UA_with_intermediate	1,3,0,0,0,0,2,0,0	practice	ward_and_allport	1,3,2,0,0,0,0,0,0	89.0	1.0	1.009	1,2,0,3,0,0,0,0,0	to_board	s648
26.116	0.86	0	UA_with_intermediate	1,3,0,0,0,0,0,0,0	practice	ward_and_allport	1,3,2,0,0,0,0,0,0	82.0	1.0	0.86	1,2,0,3,0,0,0,0,0	to_hand	s648
26.977	0.485	0	UA_with_intermediate	1,3,2,0,0,0,0,0,0	practice	ward_and_allport	1,3,2,0,0,0,0,0,0	89.0	1.0	0.485	1,2,0,3,0,0,0,0,0	to_board	s648
27.466	1.0	0	UA_with_intermediate	n/a	practice	ward_and_allport	n/a	-1.0	1.0	n/a	n/a	feedback	s648
28.466	1.1	0	UA_with_intermediate	n/a	practice	ward_and_allport	n/a	-1.0	1.0	n/a	n/a	ITI	s648
29.568	6.526	1	UA_without_intermediate	0,0,0,1,2,0,0,0,0	practice	ward_and_allport	3,2,1,0,0,0,0,0,0	82.0	2.0	6.526	0,0,0,1,2,0,3,0,0	to_hand	s648
36.094	1.972	0	UA_without_intermediate	3,0,0,1,2,0,0,0,0	practice	ward_and_allport	3,2,1,0,0,0,0,0,0	89.0	2.0	1.972	0,0,0,1,2,0,3,0,0	to_board	s648
38.068	0.226	0	UA_without_intermediate	0,0,0,1,2,0,0,0,0	practice	ward_and_allport	3,2,1,0,0,0,0,0,0	89.0	2.0	0.226	0,0,0,1,2,0,3,0,0	to_hand	s648
38.295	1.493	0	UA_without_intermediate	3,0,0,1,2,0,0,0,0	practice	ward_and_allport	3,2,1,0,0,0,0,0,0	89.0	2.0	1.493	0,0,0,1,2,0,3,0,0	to_board	s648
39.789	1.42	0	UA_without_intermediate	3,0,0,1,0,0,0,0,0	practice	ward_and_allport	3,2,1,0,0,0,0,0,0	71.0	2.0	1.42	0,0,0,1,2,0,3,0,0	to_hand	s648
41.211	0.503	0	UA_without_intermediate	3,2,0,1,0,0,0,0,0	practice	ward_and_allport	3,2,1,0,0,0,0,0,0	89.0	2.0	0.503	0,0,0,1,2,0,3,0,0	to_board	s648
41.717	2.013	0	UA_without_intermediate	3,2,0,0,0,0,0,0,0	practice	ward_and_allport	3,2,1,0,0,0,0,0,0	71.0	2.0	2.013	0,0,0,1,2,0,3,0,0	to_hand	s648
43.732	0.365	0	UA_without_intermediate	3,2,1,0,0,0,0,0,0	practice	ward_and_allport	3,2,1,0,0,0,0,0,0	89.0	2.0	0.365	0,0,0,1,2,0,3,0,0	to_board	s648
44.101	1.0	0	UA_without_intermediate	n/a	practice	ward_and_allport	n/a	-1.0	2.0	n/a	n/a	feedback	s648
45.101	1.2	0	UA_without_intermediate	n/a	practice	ward_and_allport	n/a	-1.0	2.0	n/a	n/a	ITI	s648
46.302	5.588	1	UA_without_intermediate	0,0,0,1,0,0,3,0,0	practice	ward_and_allport	2,3,1,0,0,0,0,0,0	71.0	3.0	5.588	0,0,0,1,2,0,3,0,0	to_hand	s648
51.892	0.901	0	UA_without_intermediate	2,0,0,1,0,0,3,0,0	practice	ward_and_allport	2,3,1,0,0,0,0,0,0	89.0	3.0	0.901	0,0,0,1,2,0,3,0,0	to_board	s648
52.795	0.826	0	UA_without_intermediate	2,0,0,1,0,0,0,0,0	practice	ward_and_allport	2,3,1,0,0,0,0,0,0	82.0	3.0	0.826	0,0,0,1,2,0,3,0,0	to_hand	s648
53.623	0.659	0	UA_without_intermediate	2,3,0,1,0,0,0,0,0	practice	ward_and_allport	2,3,1,0,0,0,0,0,0	89.0	3.0	0.659	0,0,0,1,2,0,3,0,0	to_board	s648
54.284	0.578	0	UA_without_intermediate	2,3,0,0,0,0,0,0,0	practice	ward_and_allport	2,3,1,0,0,0,0,0,0	71.0	3.0	0.578	0,0,0,1,2,0,3,0,0	to_hand	s648
54.863	0.468	0	UA_without_intermediate	2,3,1,0,0,0,0,0,0	practice	ward_and_allport	2,3,1,0,0,0,0,0,0	89.0	3.0	0.468	0,0,0,1,2,0,3,0,0	to_board	s648
55.334	1.0	0	UA_without_intermediate	n/a	practice	ward_and_allport	n/a	-1.0	3.0	n/a	n/a	feedback	s648
56.334	1.0	0	UA_without_intermediate	n/a	practice	ward_and_allport	n/a	-1.0	3.0	n/a	n/a	ITI	s648
59.341	4.589	1	PA_without_intermediate	0,0,0,1,2,0,0,0,0	test	ward_and_allport	2,0,0,0,0,0,3,1,0	71.0	0.0	4.589	0,0,0,1,2,3,0,0,0	to_hand	s648
63.931	0.553	0	PA_without_intermediate	0,0,0,1,2,0,3,0,0	test	ward_and_allport	2,0,0,0,0,0,3,1,0	82.0	0.0	0.553	0,0,0,1,2,3,0,0,0	to_board	s648
64.486	0.438	0	PA_without_intermediate	0,0,0,1,0,0,3,0,0	test	ward_and_allport	2,0,0,0,0,0,3,1,0	71.0	0.0	0.438	0,0,0,1,2,3,0,0,0	to_hand	s648
64.925	0.481	0	PA_without_intermediate	2,0,0,1,0,0,3,0,0	test	ward_and_allport	2,0,0,0,0,0,3,1,0	89.0	0.0	0.481	0,0,0,1,2,3,0,0,0	to_board	s648
65.407	0.574	0	PA_without_intermediate	2,0,0,0,0,0,3,0,0	test	ward_and_allport	2,0,0,0,0,0,3,1,0	71.0	0.0	0.574	0,0,0,1,2,3,0,0,0	to_hand	s648
65.983	0.457	0	PA_without_intermediate	2,0,0,0,0,0,3,1,0	test	ward_and_allport	2,0,0,0,0,0,3,1,0	82.0	0.0	0.457	0,0,0,1,2,3,0,0,0	to_board	s648
66.444	1.0	0	PA_without_intermediate	n/a	test	ward_and_allport	n/a	-1.0	0.0	n/a	n/a	feedback	s648
67.444	2.088	0	PA_without_intermediate	n/a	test	ward_and_allport	n/a	-1.0	0.0	n/a	n/a	ITI	s648
69.535	4.107	1	PA_with_intermediate	0,0,0,1,2,0,0,0,0	test	ward_and_allport	0,0,0,1,0,0,2,3,0	71.0	1.0	4.107	0,0,0,1,2,3,0,0,0	to_hand	s648
73.644	0.417	0	PA_with_intermediate	3,0,0,1,2,0,0,0,0	test	ward_and_allport	0,0,0,1,0,0,2,3,0	89.0	1.0	0.417	0,0,0,1,2,3,0,0,0	to_board	s648
74.064	0.548	0	PA_with_intermediate	3,0,0,1,0,0,0,0,0	test	ward_and_allport	0,0,0,1,0,0,2,3,0	71.0	1.0	0.548	0,0,0,1,2,3,0,0,0	to_hand	s648
74.613	0.445	0	PA_with_intermediate	3,0,0,1,0,0,2,0,0	test	ward_and_allport	0,0,0,1,0,0,2,3,0	82.0	1.0	0.445	0,0,0,1,2,3,0,0,0	to_board	s648
75.061	0.508	0	PA_with_intermediate	0,0,0,1,0,0,2,0,0	test	ward_and_allport	0,0,0,1,0,0,2,3,0	89.0	1.0	0.508	0,0,0,1,2,3,0,0,0	to_hand	s648
75.571	0.86	0	PA_with_intermediate	0,0,0,1,0,0,2,3,0	test	ward_and_allport	0,0,0,1,0,0,2,3,0	82.0	1.0	0.86	0,0,0,1,2,3,0,0,0	to_board	s648
76.435	1.0	0	PA_with_intermediate	n/a	test	ward_and_allport	n/a	-1.0	1.0	n/a	n/a	feedback	s648
77.435	1.0	0	PA_with_intermediate	n/a	test	ward_and_allport	n/a	-1.0	1.0	n/a	n/a	ITI	s648
78.437	6.238	1	PA_without_intermediate	1,2,0,0,0,0,0,0,0	test	ward_and_allport	0,0,0,3,2,0,1,0,0	89.0	2.0	6.238	1,2,3,0,0,0,0,0,0	to_hand	s648
84.676	0.843	0	PA_without_intermediate	1,2,0,3,0,0,0,0,0	test	ward_and_allport	0,0,0,3,2,0,1,0,0	71.0	2.0	0.843	1,2,3,0,0,0,0,0,0	to_board	s648
85.523	0.83	0	PA_without_intermediate	1,0,0,3,0,0,0,0,0	test	ward_and_allport	0,0,0,3,2,0,1,0,0	89.0	2.0	0.83	1,2,3,0,0,0,0,0,0	to_hand	s648
86.355	0.491	0	PA_without_intermediate	1,0,0,3,2,0,0,0,0	test	ward_and_allport	0,0,0,3,2,0,1,0,0	71.0	2.0	0.491	1,2,3,0,0,0,0,0,0	to_board	s648
86.848	0.801	0	PA_without_intermediate	0,0,0,3,2,0,0,0,0	test	ward_and_allport	0,0,0,3,2,0,1,0,0	89.0	2.0	0.801	1,2,3,0,0,0,0,0,0	to_hand	s648
87.65	0.664	0	PA_without_intermediate	0,0,0,3,2,0,1,0,0	test	ward_and_allport	0,0,0,3,2,0,1,0,0	82.0	2.0	0.664	1,2,3,0,0,0,0,0,0	to_board	s648
88.318	1.0	0	PA_without_intermediate	n/a	test	ward_and_allport	n/a	-1.0	2.0	n/a	n/a	feedback	s648
89.318	1.0	0	PA_without_intermediate	n/a	test	ward_and_allport	n/a	-1.0	2.0	n/a	n/a	ITI	s648
90.322	5.388	1	PA_without_intermediate	0,0,0,0,0,0,1,2,0	test	ward_and_allport	3,2,0,1,0,0,0,0,0	82.0	3.0	5.388	0,0,0,0,0,0,1,2,3	to_hand	s648
95.711	0.785	0	PA_without_intermediate	3,0,0,0,0,0,1,2,0	test	ward_and_allport	3,2,0,1,0,0,0,0,0	89.0	3.0	0.785	0,0,0,0,0,0,1,2,3	to_board	s648
96.499	0.486	0	PA_without_intermediate	3,0,0,0,0,0,1,0,0	test	ward_and_allport	3,2,0,1,0,0,0,0,0	82.0	3.0	0.486	0,0,0,0,0,0,1,2,3	to_hand	s648
96.986	0.648	0	PA_without_intermediate	3,2,0,0,0,0,1,0,0	test	ward_and_allport	3,2,0,1,0,0,0,0,0	89.0	3.0	0.648	0,0,0,0,0,0,1,2,3	to_board	s648
97.637	0.319	0	PA_without_intermediate	3,0,0,0,0,0,1,0,0	test	ward_and_allport	3,2,0,1,0,0,0,0,0	89.0	3.0	0.319	0,0,0,0,0,0,1,2,3	to_hand	s648
97.957	0.811	0	PA_without_intermediate	3,2,0,0,0,0,1,0,0	test	ward_and_allport	3,2,0,1,0,0,0,0,0	89.0	3.0	0.811	0,0,0,0,0,0,1,2,3	to_board	s648
98.772	1.867	0	PA_without_intermediate	3,2,0,0,0,0,0,0,0	test	ward_and_allport	3,2,0,1,0,0,0,0,0	82.0	3.0	1.867	0,0,0,0,0,0,1,2,3	to_hand	s648
100.641	0.45	0	PA_without_intermediate	3,2,0,1,0,0,0,0,0	test	ward_and_allport	3,2,0,1,0,0,0,0,0	71.0	3.0	0.45	0,0,0,0,0,0,1,2,3	to_board	s648
101.095	1.0	0	PA_without_intermediate	n/a	test	ward_and_allport	n/a	-1.0	3.0	n/a	n/a	feedback	s648
102.095	1.0	0	PA_without_intermediate	n/a	test	ward_and_allport	n/a	-1.0	3.0	n/a	n/a	ITI	s648
103.099	6.097	1	PA_with_intermediate	0,0,0,0,0,0,1,2,0	test	ward_and_allport	0,0,0,2,3,0,1,0,0	82.0	4.0	6.097	0,0,0,0,0,0,1,2,3	to_hand	s648
109.198	0.635	0	PA_with_intermediate	3,0,0,0,0,0,1,2,0	test	ward_and_allport	0,0,0,2,3,0,1,0,0	89.0	4.0	0.635	0,0,0,0,0,0,1,2,3	to_board	s648
109.836	2.423	0	PA_with_intermediate	3,0,0,0,0,0,1,0,0	test	ward_and_allport	0,0,0,2,3,0,1,0,0	82.0	4.0	2.423	0,0,0,0,0,0,1,2,3	to_hand	s648
112.26	1.0	0	PA_with_intermediate	3,0,0,2,0,0,1,0,0	test	ward_and_allport	0,0,0,2,3,0,1,0,0	71.0	4.0	1.0	0,0,0,0,0,0,1,2,3	to_board	s648
113.264	1.495	0	PA_with_intermediate	0,0,0,2,0,0,1,0,0	test	ward_and_allport	0,0,0,2,3,0,1,0,0	89.0	4.0	1.495	0,0,0,0,0,0,1,2,3	to_hand	s648
114.761	0.429	0	PA_with_intermediate	0,0,0,2,3,0,1,0,0	test	ward_and_allport	0,0,0,2,3,0,1,0,0	71.0	4.0	0.429	0,0,0,0,0,0,1,2,3	to_board	s648
115.195	1.0	0	PA_with_intermediate	n/a	test	ward_and_allport	n/a	-1.0	4.0	n/a	n/a	feedback	s648
116.195	1.544	0	PA_with_intermediate	n/a	test	ward_and_allport	n/a	-1.0	4.0	n/a	n/a	ITI	s648
117.742	5.983	1	PA_without_intermediate	1,2,0,0,0,0,0,0,0	test	ward_and_allport	0,0,0,3,1,0,2,0,0	89.0	5.0	5.983	1,2,3,0,0,0,0,0,0	to_hand	s648
123.726	0.836	0	PA_without_intermediate	1,2,0,3,0,0,0,0,0	test	ward_and_allport	0,0,0,3,1,0,2,0,0	71.0	5.0	0.836	1,2,3,0,0,0,0,0,0	to_board	s648
124.565	0.526	0	PA_without_intermediate	1,0,0,3,0,0,0,0,0	test	ward_and_allport	0,0,0,3,1,0,2,0,0	89.0	5.0	0.526	1,2,3,0,0,0,0,0,0	to_hand	s648
125.092	0.554	0	PA_without_intermediate	1,0,0,3,0,0,2,0,0	test	ward_and_allport	0,0,0,3,1,0,2,0,0	82.0	5.0	0.554	1,2,3,0,0,0,0,0,0	to_board	s648
125.649	0.611	0	PA_without_intermediate	0,0,0,3,0,0,2,0,0	test	ward_and_allport	0,0,0,3,1,0,2,0,0	89.0	5.0	0.611	1,2,3,0,0,0,0,0,0	to_hand	s648
126.262	0.384	0	PA_without_intermediate	0,0,0,3,1,0,2,0,0	test	ward_and_allport	0,0,0,3,1,0,2,0,0	71.0	5.0	0.384	1,2,3,0,0,0,0,0,0	to_board	s648
126.65	1.0	0	PA_without_intermediate	n/a	test	ward_and_allport	n/a	-1.0	5.0	n/a	n/a	feedback	s648
127.65	1.272	0	PA_without_intermediate	n/a	test	ward_and_allport	n/a	-1.0	5.0	n/a	n/a	ITI	s648
128.927	4.142	1	PA_with_intermediate	1,2,0,0,0,0,0,0,0	test	ward_and_allport	1,0,0,0,0,0,2,3,0	89.0	6.0	4.142	1,2,3,0,0,0,0,0,0	to_hand	s648
133.071	0.494	0	PA_with_intermediate	1,2,0,3,0,0,0,0,0	test	ward_and_allport	1,0,0,0,0,0,2,3,0	71.0	6.0	0.494	1,2,3,0,0,0,0,0,0	to_board	s648
133.568	0.428	0	PA_with_intermediate	1,0,0,3,0,0,0,0,0	test	ward_and_allport	1,0,0,0,0,0,2,3,0	89.0	6.0	0.428	1,2,3,0,0,0,0,0,0	to_hand	s648
133.998	0.625	0	PA_with_intermediate	1,0,0,3,0,0,2,0,0	test	ward_and_allport	1,0,0,0,0,0,2,3,0	82.0	6.0	0.625	1,2,3,0,0,0,0,0,0	to_board	s648
134.626	0.485	0	PA_with_intermediate	1,0,0,0,0,0,2,0,0	test	ward_and_allport	1,0,0,0,0,0,2,3,0	71.0	6.0	0.485	1,2,3,0,0,0,0,0,0	to_hand	s648
135.113	0.467	0	PA_with_intermediate	1,0,0,0,0,0,2,3,0	test	ward_and_allport	1,0,0,0,0,0,2,3,0	82.0	6.0	0.467	1,2,3,0,0,0,0,0,0	to_board	s648
135.584	1.0	0	PA_with_intermediate	n/a	test	ward_and_allport	n/a	-1.0	6.0	n/a	n/a	feedback	s648
136.584	3.04	0	PA_with_intermediate	n/a	test	ward_and_allport	n/a	-1.0	6.0	n/a	n/a	ITI	s648
139.628	6.281	1	PA_with_intermediate	0,0,0,0,0,0,1,2,0	test	ward_and_allport	0,0,0,2,0,0,1,3,0	82.0	7.0	6.281	0,0,0,0,0,0,1,2,3	to_hand	s648
145.909	0.765	0	PA_with_intermediate	3,0,0,0,0,0,1,2,0	test	ward_and_allport	0,0,0,2,0,0,1,3,0	89.0	7.0	0.765	0,0,0,0,0,0,1,2,3	to_board	s648
146.678	1.015	0	PA_with_intermediate	3,0,0,0,0,0,1,0,0	test	ward_and_allport	0,0,0,2,0,0,1,3,0	82.0	7.0	1.015	0,0,0,0,0,0,1,2,3	to_hand	s648
147.695	0.517	0	PA_with_intermediate	3,0,0,2,0,0,1,0,0	test	ward_and_allport	0,0,0,2,0,0,1,3,0	71.0	7.0	0.517	0,0,0,0,0,0,1,2,3	to_board	s648
148.216	0.855	0	PA_with_intermediate	0,0,0,2,0,0,1,0,0	test	ward_and_allport	0,0,0,2,0,0,1,3,0	89.0	7.0	0.855	0,0,0,0,0,0,1,2,3	to_hand	s648
149.072	0.421	0	PA_with_intermediate	0,0,0,2,0,0,1,3,0	test	ward_and_allport	0,0,0,2,0,0,1,3,0	82.0	7.0	0.421	0,0,0,0,0,0,1,2,3	to_board	s648
149.498	1.0	0	PA_with_intermediate	n/a	test	ward_and_allport	n/a	-1.0	7.0	n/a	n/a	feedback	s648
150.498	1.272	0	PA_with_intermediate	n/a	test	ward_and_allport	n/a	-1.0	7.0	n/a	n/a	ITI	s648
151.775	4.423	1	PA_with_intermediate	0,0,0,1,2,0,0,0,0	test	ward_and_allport	2,3,0,1,0,0,0,0,0	71.0	8.0	4.423	0,0,0,1,2,3,0,0,0	to_hand	s648
156.198	0.695	0	PA_with_intermediate	0,0,0,1,2,0,3,0,0	test	ward_and_allport	2,3,0,1,0,0,0,0,0	82.0	8.0	0.695	0,0,0,1,2,3,0,0,0	to_board	s648
156.897	1.043	0	PA_with_intermediate	0,0,0,1,0,0,3,0,0	test	ward_and_allport	2,3,0,1,0,0,0,0,0	71.0	8.0	1.043	0,0,0,1,2,3,0,0,0	to_hand	s648
157.94	0.724	0	PA_with_intermediate	2,0,0,1,0,0,3,0,0	test	ward_and_allport	2,3,0,1,0,0,0,0,0	89.0	8.0	0.724	0,0,0,1,2,3,0,0,0	to_board	s648
158.668	0.182	0	PA_with_intermediate	0,0,0,1,0,0,3,0,0	test	ward_and_allport	2,3,0,1,0,0,0,0,0	89.0	8.0	0.182	0,0,0,1,2,3,0,0,0	to_hand	s648
158.851	0.696	0	PA_with_intermediate	2,0,0,1,0,0,3,0,0	test	ward_and_allport	2,3,0,1,0,0,0,0,0	89.0	8.0	0.696	0,0,0,1,2,3,0,0,0	to_board	s648
159.55	0.633	0	PA_with_intermediate	2,0,0,1,0,0,0,0,0	test	ward_and_allport	2,3,0,1,0,0,0,0,0	82.0	8.0	0.633	0,0,0,1,2,3,0,0,0	to_hand	s648
160.183	0.673	0	PA_with_intermediate	2,3,0,1,0,0,0,0,0	test	ward_and_allport	2,3,0,1,0,0,0,0,0	89.0	8.0	0.673	0,0,0,1,2,3,0,0,0	to_board	s648
160.862	1.0	0	PA_with_intermediate	n/a	test	ward_and_allport	n/a	-1.0	8.0	n/a	n/a	feedback	s648
161.862	1.136	0	PA_with_intermediate	n/a	test	ward_and_allport	n/a	-1.0	8.0	n/a	n/a	ITI	s648
163.003	7.325	1	PA_with_intermediate	0,0,0,1,2,0,0,0,0	test	ward_and_allport	0,0,0,1,3,0,2,0,0	71.0	9.0	7.325	0,0,0,1,2,3,0,0,0	to_hand	s648
170.329	0.987	0	PA_with_intermediate	3,0,0,1,2,0,0,0,0	test	ward_and_allport	0,0,0,1,3,0,2,0,0	89.0	9.0	0.987	0,0,0,1,2,3,0,0,0	to_board	s648
171.319	0.791	0	PA_with_intermediate	3,0,0,1,0,0,0,0,0	test	ward_and_allport	0,0,0,1,3,0,2,0,0	71.0	9.0	0.791	0,0,0,1,2,3,0,0,0	to_hand	s648
172.111	0.915	0	PA_with_intermediate	3,0,0,1,0,0,2,0,0	test	ward_and_allport	0,0,0,1,3,0,2,0,0	82.0	9.0	0.915	0,0,0,1,2,3,0,0,0	to_board	s648
173.03	0.525	0	PA_with_intermediate	0,0,0,1,0,0,2,0,0	test	ward_and_allport	0,0,0,1,3,0,2,0,0	89.0	9.0	0.525	0,0,0,1,2,3,0,0,0	to_hand	s648
173.557	0.369	0	PA_with_intermediate	0,0,0,1,3,0,2,0,0	test	ward_and_allport	0,0,0,1,3,0,2,0,0	71.0	9.0	0.369	0,0,0,1,2,3,0,0,0	to_board	s648
173.931	1.0	0	PA_with_intermediate	n/a	test	ward_and_allport	n/a	-1.0	9.0	n/a	n/a	feedback	s648
174.931	1.0	0	PA_with_intermediate	n/a	test	ward_and_allport	n/a	-1.0	9.0	n/a	n/a	ITI	s648
175.935	3.602	1	PA_with_intermediate	0,0,0,0,0,0,1,2,0	test	ward_and_allport	2,0,0,0,0,0,1,3,0	82.0	10.0	3.602	0,0,0,0,0,0,1,2,3	to_hand	s648
179.538	0.579	0	PA_with_intermediate	0,0,0,3,0,0,1,2,0	test	ward_and_allport	2,0,0,0,0,0,1,3,0	71.0	10.0	0.579	0,0,0,0,0,0,1,2,3	to_board	s648
180.12	0.505	0	PA_with_intermediate	0,0,0,3,0,0,1,0,0	test	ward_and_allport	2,0,0,0,0,0,1,3,0	82.0	10.0	0.505	0,0,0,0,0,0,1,2,3	to_hand	s648
180.627	0.52	0	PA_with_intermediate	2,0,0,3,0,0,1,0,0	test	ward_and_allport	2,0,0,0,0,0,1,3,0	89.0	10.0	0.52	0,0,0,0,0,0,1,2,3	to_board	s648
181.151	0.382	0	PA_with_intermediate	2,0,0,0,0,0,1,0,0	test	ward_and_allport	2,0,0,0,0,0,1,3,0	71.0	10.0	0.382	0,0,0,0,0,0,1,2,3	to_hand	s648
181.534	0.422	0	PA_with_intermediate	2,0,0,0,0,0,1,3,0	test	ward_and_allport	2,0,0,0,0,0,1,3,0	82.0	10.0	0.422	0,0,0,0,0,0,1,2,3	to_board	s648
181.962	1.0	0	PA_with_intermediate	n/a	test	ward_and_allport	n/a	-1.0	10.0	n/a	n/a	feedback	s648
182.962	1.0	0	PA_with_intermediate	n/a	test	ward_and_allport	n/a	-1.0	10.0	n/a	n/a	ITI	s648
183.967	5.205	1	PA_without_intermediate	1,2,0,0,0,0,0,0,0	test	ward_and_allport	0,0,0,3,2,0,1,0,0	89.0	11.0	5.205	1,2,3,0,0,0,0,0,0	to_hand	s648
189.174	0.564	0	PA_without_intermediate	1,2,0,3,0,0,0,0,0	test	ward_and_allport	0,0,0,3,2,0,1,0,0	71.0	11.0	0.564	1,2,3,0,0,0,0,0,0	to_board	s648
189.743	0.487	0	PA_without_intermediate	1,0,0,3,0,0,0,0,0	test	ward_and_allport	0,0,0,3,2,0,1,0,0	89.0	11.0	0.487	1,2,3,0,0,0,0,0,0	to_hand	s648
190.232	0.368	0	PA_without_intermediate	1,0,0,3,2,0,0,0,0	test	ward_and_allport	0,0,0,3,2,0,1,0,0	71.0	11.0	0.368	1,2,3,0,0,0,0,0,0	to_board	s648
190.605	0.699	0	PA_without_intermediate	0,0,0,3,2,0,0,0,0	test	ward_and_allport	0,0,0,3,2,0,1,0,0	89.0	11.0	0.699	1,2,3,0,0,0,0,0,0	to_hand	s648
191.304	0.379	0	PA_without_intermediate	0,0,0,3,2,0,1,0,0	test	ward_and_allport	0,0,0,3,2,0,1,0,0	82.0	11.0	0.379	1,2,3,0,0,0,0,0,0	to_board	s648
191.688	1.0	0	PA_without_intermediate	n/a	test	ward_and_allport	n/a	-1.0	11.0	n/a	n/a	feedback	s648
192.688	1.408	0	PA_without_intermediate	n/a	test	ward_and_allport	n/a	-1.0	11.0	n/a	n/a	ITI	s648
194.102	4.668	1	PA_with_intermediate	0,0,0,0,0,0,1,2,0	test	ward_and_allport	0,0,0,2,3,0,1,0,0	82.0	12.0	4.668	0,0,0,0,0,0,1,2,3	to_hand	s648
198.772	0.495	0	PA_with_intermediate	3,0,0,0,0,0,1,2,0	test	ward_and_allport	0,0,0,2,3,0,1,0,0	89.0	12.0	0.495	0,0,0,0,0,0,1,2,3	to_board	s648
199.272	0.43	0	PA_with_intermediate	3,0,0,0,0,0,1,0,0	test	ward_and_allport	0,0,0,2,3,0,1,0,0	82.0	12.0	0.43	0,0,0,0,0,0,1,2,3	to_hand	s648
199.703	0.567	0	PA_with_intermediate	3,0,0,2,0,0,1,0,0	test	ward_and_allport	0,0,0,2,3,0,1,0,0	71.0	12.0	0.567	0,0,0,0,0,0,1,2,3	to_board	s648
200.275	0.481	0	PA_with_intermediate	0,0,0,2,0,0,1,0,0	test	ward_and_allport	0,0,0,2,3,0,1,0,0	89.0	12.0	0.481	0,0,0,0,0,0,1,2,3	to_hand	s648
200.757	0.358	0	PA_with_intermediate	0,0,0,2,3,0,1,0,0	test	ward_and_allport	0,0,0,2,3,0,1,0,0	71.0	12.0	0.358	0,0,0,0,0,0,1,2,3	to_board	s648
201.121	1.0	0	PA_with_intermediate	n/a	test	ward_and_allport	n/a	-1.0	12.0	n/a	n/a	feedback	s648
202.121	2.768	0	PA_with_intermediate	n/a	test	ward_and_allport	n/a	-1.0	12.0	n/a	n/a	ITI	s648
204.895	7.271	1	PA_with_intermediate	0,0,0,0,0,0,1,2,0	test	ward_and_allport	0,0,0,2,0,0,1,3,0	82.0	13.0	7.271	0,0,0,0,0,0,1,2,3	to_hand	s648
212.167	0.523	0	PA_with_intermediate	3,0,0,0,0,0,1,2,0	test	ward_and_allport	0,0,0,2,0,0,1,3,0	89.0	13.0	0.523	0,0,0,0,0,0,1,2,3	to_board	s648
212.696	0.427	0	PA_with_intermediate	3,0,0,0,0,0,1,0,0	test	ward_and_allport	0,0,0,2,0,0,1,3,0	82.0	13.0	0.427	0,0,0,0,0,0,1,2,3	to_hand	s648
213.125	0.393	0	PA_with_intermediate	3,0,0,2,0,0,1,0,0	test	ward_and_allport	0,0,0,2,0,0,1,3,0	71.0	13.0	0.393	0,0,0,0,0,0,1,2,3	to_board	s648
213.522	0.421	0	PA_with_intermediate	0,0,0,2,0,0,1,0,0	test	ward_and_allport	0,0,0,2,0,0,1,3,0	89.0	13.0	0.421	0,0,0,0,0,0,1,2,3	to_hand	s648
213.945	0.464	0	PA_with_intermediate	0,0,0,2,0,0,1,3,0	test	ward_and_allport	0,0,0,2,0,0,1,3,0	82.0	13.0	0.464	0,0,0,0,0,0,1,2,3	to_board	s648
214.415	1.0	0	PA_with_intermediate	n/a	test	ward_and_allport	n/a	-1.0	13.0	n/a	n/a	feedback	s648
215.415	1.68	0	PA_with_intermediate	n/a	test	ward_and_allport	n/a	-1.0	13.0	n/a	n/a	ITI	s648
217.1	3.803	1	PA_without_intermediate	1,2,0,0,0,0,0,0,0	test	ward_and_allport	0,0,0,1,0,0,3,2,0	89.0	14.0	3.803	1,2,3,0,0,0,0,0,0	to_hand	s648
220.904	0.447	0	PA_without_intermediate	1,2,0,0,0,0,3,0,0	test	ward_and_allport	0,0,0,1,0,0,3,2,0	82.0	14.0	0.447	1,2,3,0,0,0,0,0,0	to_board	s648
221.355	0.962	0	PA_without_intermediate	1,0,0,0,0,0,3,0,0	test	ward_and_allport	0,0,0,1,0,0,3,2,0	89.0	14.0	0.962	1,2,3,0,0,0,0,0,0	to_hand	s648
222.319	0.424	0	PA_without_intermediate	1,0,0,0,0,0,3,2,0	test	ward_and_allport	0,0,0,1,0,0,3,2,0	82.0	14.0	0.424	1,2,3,0,0,0,0,0,0	to_board	s648
222.748	0.465	0	PA_without_intermediate	0,0,0,0,0,0,3,2,0	test	ward_and_allport	0,0,0,1,0,0,3,2,0	89.0	14.0	0.465	1,2,3,0,0,0,0,0,0	to_hand	s648
223.214	0.354	0	PA_without_intermediate	0,0,0,1,0,0,3,2,0	test	ward_and_allport	0,0,0,1,0,0,3,2,0	71.0	14.0	0.354	1,2,3,0,0,0,0,0,0	to_board	s648
223.575	1.0	0	PA_without_intermediate	n/a	test	ward_and_allport	n/a	-1.0	14.0	n/a	n/a	feedback	s648
224.575	2.224	0	PA_without_intermediate	n/a	test	ward_and_allport	n/a	-1.0	14.0	n/a	n/a	ITI	s648
231.807	7.691	1	PA_without_intermediate	0,0,0,1,2,0,0,0,0	test	ward_and_allport	2,0,0,0,0,0,3,1,0	71.0	15.0	7.691	0,0,0,1,2,3,0,0,0	to_hand	s648
239.499	0.818	0	PA_without_intermediate	0,0,0,1,2,0,3,0,0	test	ward_and_allport	2,0,0,0,0,0,3,1,0	82.0	15.0	0.818	0,0,0,1,2,3,0,0,0	to_board	s648
240.322	0.795	0	PA_without_intermediate	0,0,0,1,0,0,3,0,0	test	ward_and_allport	2,0,0,0,0,0,3,1,0	71.0	15.0	0.795	0,0,0,1,2,3,0,0,0	to_hand	s648
241.118	0.709	0	PA_without_intermediate	2,0,0,1,0,0,3,0,0	test	ward_and_allport	2,0,0,0,0,0,3,1,0	89.0	15.0	0.709	0,0,0,1,2,3,0,0,0	to_board	s648
241.832	0.716	0	PA_without_intermediate	2,0,0,0,0,0,3,0,0	test	ward_and_allport	2,0,0,0,0,0,3,1,0	71.0	15.0	0.716	0,0,0,1,2,3,0,0,0	to_hand	s648
242.55	0.68	0	PA_without_intermediate	2,0,0,0,0,0,3,1,0	test	ward_and_allport	2,0,0,0,0,0,3,1,0	82.0	15.0	0.68	0,0,0,1,2,3,0,0,0	to_board	s648
243.236	1.0	0	PA_without_intermediate	n/a	test	ward_and_allport	n/a	-1.0	15.0	n/a	n/a	feedback	s648
244.236	2.36	0	PA_without_intermediate	n/a	test	ward_and_allport	n/a	-1.0	15.0	n/a	n/a	ITI	s648
246.601	4.52	1	PA_without_intermediate	0,0,0,0,0,0,1,2,0	test	ward_and_allport	3,2,0,1,0,0,0,0,0	82.0	16.0	4.52	0,0,0,0,0,0,1,2,3	to_hand	s648
251.123	0.576	0	PA_without_intermediate	3,0,0,0,0,0,1,2,0	test	ward_and_allport	3,2,0,1,0,0,0,0,0	89.0	16.0	0.576	0,0,0,0,0,0,1,2,3	to_board	s648
251.703	0.49	0	PA_without_intermediate	3,0,0,0,0,0,1,0,0	test	ward_and_allport	3,2,0,1,0,0,0,0,0	82.0	16.0	0.49	0,0,0,0,0,0,1,2,3	to_hand	s648
252.194	0.507	0	PA_without_intermediate	3,2,0,0,0,0,1,0,0	test	ward_and_allport	3,2,0,1,0,0,0,0,0	89.0	16.0	0.507	0,0,0,0,0,0,1,2,3	to_board	s648
252.706	0.43	0	PA_without_intermediate	3,2,0,0,0,0,0,0,0	test	ward_and_allport	3,2,0,1,0,0,0,0,0	82.0	16.0	0.43	0,0,0,0,0,0,1,2,3	to_hand	s648
253.137	0.322	0	PA_without_intermediate	3,2,0,1,0,0,0,0,0	test	ward_and_allport	3,2,0,1,0,0,0,0,0	71.0	16.0	0.322	0,0,0,0,0,0,1,2,3	to_board	s648
253.465	1.0	0	PA_without_intermediate	n/a	test	ward_and_allport	n/a	-1.0	16.0	n/a	n/a	feedback	s648
254.465	1.0	0	PA_without_intermediate	n/a	test	ward_and_allport	n/a	-1.0	16.0	n/a	n/a	ITI	s648
255.469	3.463	1	PA_without_intermediate	1,2,0,0,0,0,0,0,0	test	ward_and_allport	0,0,0,3,1,0,2,0,0	89.0	17.0	3.463	1,2,3,0,0,0,0,0,0	to_hand	s648
258.934	0.161	0	PA_without_intermediate	1,2,3,0,0,0,0,0,0	test	ward_and_allport	0,0,0,3,1,0,2,0,0	89.0	17.0	0.161	1,2,3,0,0,0,0,0,0	to_board	s648
259.099	0.906	0	PA_without_intermediate	1,2,0,0,0,0,0,0,0	test	ward_and_allport	0,0,0,3,1,0,2,0,0	89.0	17.0	0.906	1,2,3,0,0,0,0,0,0	to_hand	s648
260.007	0.54	0	PA_without_intermediate	1,2,0,3,0,0,0,0,0	test	ward_and_allport	0,0,0,3,1,0,2,0,0	71.0	17.0	0.54	1,2,3,0,0,0,0,0,0	to_board	s648
260.552	0.697	0	PA_without_intermediate	1,0,0,3,0,0,0,0,0	test	ward_and_allport	0,0,0,3,1,0,2,0,0	89.0	17.0	0.697	1,2,3,0,0,0,0,0,0	to_hand	s648
261.25	0.587	0	PA_without_intermediate	1,0,0,3,0,0,2,0,0	test	ward_and_allport	0,0,0,3,1,0,2,0,0	82.0	17.0	0.587	1,2,3,0,0,0,0,0,0	to_board	s648
261.842	0.491	0	PA_without_intermediate	0,0,0,3,0,0,2,0,0	test	ward_and_allport	0,0,0,3,1,0,2,0,0	89.0	17.0	0.491	1,2,3,0,0,0,0,0,0	to_hand	s648
262.334	0.363	0	PA_without_intermediate	0,0,0,3,1,0,2,0,0	test	ward_and_allport	0,0,0,3,1,0,2,0,0	71.0	17.0	0.363	1,2,3,0,0,0,0,0,0	to_board	s648
262.703	1.0	0	PA_without_intermediate	n/a	test	ward_and_allport	n/a	-1.0	17.0	n/a	n/a	feedback	s648
263.703	1.408	0	PA_without_intermediate	n/a	test	ward_and_allport	n/a	-1.0	17.0	n/a	n/a	ITI	s648
265.118	2.966	1	PA_with_intermediate	1,2,0,0,0,0,0,0,0	test	ward_and_allport	1,0,0,2,3,0,0,0,0	89.0	18.0	2.966	1,2,3,0,0,0,0,0,0	to_hand	s648
268.085	0.464	0	PA_with_intermediate	1,2,0,0,0,0,3,0,0	test	ward_and_allport	1,0,0,2,3,0,0,0,0	82.0	18.0	0.464	1,2,3,0,0,0,0,0,0	to_board	s648
268.555	0.47	0	PA_with_intermediate	1,0,0,0,0,0,3,0,0	test	ward_and_allport	1,0,0,2,3,0,0,0,0	89.0	18.0	0.47	1,2,3,0,0,0,0,0,0	to_hand	s648
269.026	0.419	0	PA_with_intermediate	1,0,0,2,0,0,3,0,0	test	ward_and_allport	1,0,0,2,3,0,0,0,0	71.0	18.0	0.419	1,2,3,0,0,0,0,0,0	to_board	s648
269.45	0.586	0	PA_with_intermediate	1,0,0,2,0,0,0,0,0	test	ward_and_allport	1,0,0,2,3,0,0,0,0	82.0	18.0	0.586	1,2,3,0,0,0,0,0,0	to_hand	s648
270.037	0.399	0	PA_with_intermediate	1,0,0,2,3,0,0,0,0	test	ward_and_allport	1,0,0,2,3,0,0,0,0	71.0	18.0	0.399	1,2,3,0,0,0,0,0,0	to_board	s648
270.442	1.0	0	PA_with_intermediate	n/a	test	ward_and_allport	n/a	-1.0	18.0	n/a	n/a	feedback	s648
271.442	1.136	0	PA_with_intermediate	n/a	test	ward_and_allport	n/a	-1.0	18.0	n/a	n/a	ITI	s648
272.585	4.207	1	PA_without_intermediate	0,0,0,1,2,0,0,0,0	test	ward_and_allport	3,1,0,0,0,0,2,0,0	71.0	19.0	4.207	0,0,0,1,2,3,0,0,0	to_hand	s648
276.794	0.486	0	PA_without_intermediate	3,0,0,1,2,0,0,0,0	test	ward_and_allport	3,1,0,0,0,0,2,0,0	89.0	19.0	0.486	0,0,0,1,2,3,0,0,0	to_board	s648
277.285	0.381	0	PA_without_intermediate	3,0,0,1,0,0,0,0,0	test	ward_and_allport	3,1,0,0,0,0,2,0,0	71.0	19.0	0.381	0,0,0,1,2,3,0,0,0	to_hand	s648
277.667	1.081	0	PA_without_intermediate	3,0,0,1,0,0,2,0,0	test	ward_and_allport	3,1,0,0,0,0,2,0,0	82.0	19.0	1.081	0,0,0,1,2,3,0,0,0	to_board	s648
278.754	0.585	0	PA_without_intermediate	3,0,0,0,0,0,2,0,0	test	ward_and_allport	3,1,0,0,0,0,2,0,0	71.0	19.0	0.585	0,0,0,1,2,3,0,0,0	to_hand	s648
279.341	0.396	0	PA_without_intermediate	3,1,0,0,0,0,2,0,0	test	ward_and_allport	3,1,0,0,0,0,2,0,0	89.0	19.0	0.396	0,0,0,1,2,3,0,0,0	to_board	s648
279.744	1.0	0	PA_without_intermediate	n/a	test	ward_and_allport	n/a	-1.0	19.0	n/a	n/a	feedback	s648
280.744	4.128	0	PA_without_intermediate	n/a	test	ward_and_allport	n/a	-1.0	19.0	n/a	n/a	ITI	s648
284.877	6.802	1	PA_without_intermediate	0,0,0,0,0,0,1,2,0	test	ward_and_allport	3,1,0,2,0,0,0,0,0	82.0	20.0	6.802	0,0,0,0,0,0,1,2,3	to_hand	s648
291.681	0.532	0	PA_without_intermediate	3,0,0,0,0,0,1,2,0	test	ward_and_allport	3,1,0,2,0,0,0,0,0	89.0	20.0	0.532	0,0,0,0,0,0,1,2,3	to_board	s648
292.218	0.633	0	PA_without_intermediate	3,0,0,0,0,0,1,0,0	test	ward_and_allport	3,1,0,2,0,0,0,0,0	82.0	20.0	0.633	0,0,0,0,0,0,1,2,3	to_hand	s648
292.853	0.741	0	PA_without_intermediate	3,0,0,2,0,0,1,0,0	test	ward_and_allport	3,1,0,2,0,0,0,0,0	71.0	20.0	0.741	0,0,0,0,0,0,1,2,3	to_board	s648
293.599	0.562	0	PA_without_intermediate	3,0,0,2,0,0,0,0,0	test	ward_and_allport	3,1,0,2,0,0,0,0,0	82.0	20.0	0.562	0,0,0,0,0,0,1,2,3	to_hand	s648
294.162	0.37	0	PA_without_intermediate	3,1,0,2,0,0,0,0,0	test	ward_and_allport	3,1,0,2,0,0,0,0,0	89.0	20.0	0.37	0,0,0,0,0,0,1,2,3	to_board	s648
294.541	1.0	0	PA_without_intermediate	n/a	test	ward_and_allport	n/a	-1.0	20.0	n/a	n/a	feedback	s648
295.541	1.136	0	PA_without_intermediate	n/a	test	ward_and_allport	n/a	-1.0	20.0	n/a	n/a	ITI	s648
296.684	5.299	1	PA_without_intermediate	0,0,0,0,0,0,1,2,0	test	ward_and_allport	1,0,0,3,2,0,0,0,0	82.0	21.0	5.299	0,0,0,0,0,0,1,2,3	to_hand	s648
301.985	0.367	0	PA_without_intermediate	0,0,0,3,0,0,1,2,0	test	ward_and_allport	1,0,0,3,2,0,0,0,0	71.0	21.0	0.367	0,0,0,0,0,0,1,2,3	to_board	s648
302.358	0.43	0	PA_without_intermediate	0,0,0,3,0,0,1,0,0	test	ward_and_allport	1,0,0,3,2,0,0,0,0	82.0	21.0	0.43	0,0,0,0,0,0,1,2,3	to_hand	s648
302.79	0.398	0	PA_without_intermediate	0,0,0,3,2,0,1,0,0	test	ward_and_allport	1,0,0,3,2,0,0,0,0	71.0	21.0	0.398	0,0,0,0,0,0,1,2,3	to_board	s648
303.194	0.391	0	PA_without_intermediate	0,0,0,3,2,0,0,0,0	test	ward_and_allport	1,0,0,3,2,0,0,0,0	82.0	21.0	0.391	0,0,0,0,0,0,1,2,3	to_hand	s648
303.587	0.391	0	PA_without_intermediate	1,0,0,3,2,0,0,0,0	test	ward_and_allport	1,0,0,3,2,0,0,0,0	89.0	21.0	0.391	0,0,0,0,0,0,1,2,3	to_board	s648
303.985	1.0	0	PA_without_intermediate	n/a	test	ward_and_allport	n/a	-1.0	21.0	n/a	n/a	feedback	s648
304.985	4.264	0	PA_without_intermediate	n/a	test	ward_and_allport	n/a	-1.0	21.0	n/a	n/a	ITI	s648
309.257	4.556	1	PA_with_intermediate	1,2,0,0,0,0,0,0,0	test	ward_and_allport	1,3,0,2,0,0,0,0,0	89.0	22.0	4.556	1,2,3,0,0,0,0,0,0	to_hand	s648
313.813	0.198	0	PA_with_intermediate	1,2,3,0,0,0,0,0,0	test	ward_and_allport	1,3,0,2,0,0,0,0,0	89.0	22.0	0.198	1,2,3,0,0,0,0,0,0	to_board	s648
314.018	1.042	0	PA_with_intermediate	1,2,0,0,0,0,0,0,0	test	ward_and_allport	1,3,0,2,0,0,0,0,0	89.0	22.0	1.042	1,2,3,0,0,0,0,0,0	to_hand	s648
315.062	0.561	0	PA_with_intermediate	1,2,0,0,0,0,3,0,0	test	ward_and_allport	1,3,0,2,0,0,0,0,0	82.0	22.0	0.561	1,2,3,0,0,0,0,0,0	to_board	s648
315.629	0.726	0	PA_with_intermediate	1,0,0,0,0,0,3,0,0	test	ward_and_allport	1,3,0,2,0,0,0,0,0	89.0	22.0	0.726	1,2,3,0,0,0,0,0,0	to_hand	s648
316.357	0.201	0	PA_with_intermediate	1,2,0,0,0,0,3,0,0	test	ward_and_allport	1,3,0,2,0,0,0,0,0	89.0	22.0	0.201	1,2,3,0,0,0,0,0,0	to_board	s648
316.564	0.863	0	PA_with_intermediate	1,0,0,0,0,0,3,0,0	test	ward_and_allport	1,3,0,2,0,0,0,0,0	89.0	22.0	0.863	1,2,3,0,0,0,0,0,0	to_hand	s648
317.429	0.54	0	PA_with_intermediate	1,0,0,2,0,0,3,0,0	test	ward_and_allport	1,3,0,2,0,0,0,0,0	71.0	22.0	0.54	1,2,3,0,0,0,0,0,0	to_board	s648
317.975	0.872	0	PA_with_intermediate	1,0,0,2,0,0,0,0,0	test	ward_and_allport	1,3,0,2,0,0,0,0,0	82.0	22.0	0.872	1,2,3,0,0,0,0,0,0	to_hand	s648
318.849	0.479	0	PA_with_intermediate	1,3,0,2,0,0,0,0,0	test	ward_and_allport	1,3,0,2,0,0,0,0,0	89.0	22.0	0.479	1,2,3,0,0,0,0,0,0	to_board	s648
319.336	1.0	0	PA_with_intermediate	n/a	test	ward_and_allport	n/a	-1.0	22.0	n/a	n/a	feedback	s648
320.336	3.04	0	PA_with_intermediate	n/a	test	ward_and_allport	n/a	-1.0	22.0	n/a	n/a	ITI	s648
323.383	3.095	1	PA_with_intermediate	1,2,0,0,0,0,0,0,0	test	ward_and_allport	1,0,0,0,0,0,2,3,0	89.0	23.0	3.095	1,2,3,0,0,0,0,0,0	to_hand	s648
326.48	0.522	0	PA_with_intermediate	1,2,0,3,0,0,0,0,0	test	ward_and_allport	1,0,0,0,0,0,2,3,0	71.0	23.0	0.522	1,2,3,0,0,0,0,0,0	to_board	s648
327.008	0.432	0	PA_with_intermediate	1,0,0,3,0,0,0,0,0	test	ward_and_allport	1,0,0,0,0,0,2,3,0	89.0	23.0	0.432	1,2,3,0,0,0,0,0,0	to_hand	s648
327.44	0.527	0	PA_with_intermediate	1,0,0,3,0,0,2,0,0	test	ward_and_allport	1,0,0,0,0,0,2,3,0	82.0	23.0	0.527	1,2,3,0,0,0,0,0,0	to_board	s648
327.974	1.308	0	PA_with_intermediate	1,0,0,0,0,0,2,0,0	test	ward_and_allport	1,0,0,0,0,0,2,3,0	71.0	23.0	1.308	1,2,3,0,0,0,0,0,0	to_hand	s648
329.283	0.446	0	PA_with_intermediate	1,0,0,0,0,0,2,3,0	test	ward_and_allport	1,0,0,0,0,0,2,3,0	82.0	23.0	0.446	1,2,3,0,0,0,0,0,0	to_board	s648
329.737	1.0	0	PA_with_intermediate	n/a	test	ward_and_allport	n/a	-1.0	23.0	n/a	n/a	feedback	s648
330.737	1.136	0	PA_with_intermediate	n/a	test	ward_and_allport	n/a	-1.0	23.0	n/a	n/a	ITI	s648
331.881	4.075	1	PA_with_intermediate	1,2,0,0,0,0,0,0,0	test	ward_and_allport	1,3,0,2,0,0,0,0,0	89.0	24.0	4.075	1,2,3,0,0,0,0,0,0	to_hand	s648
335.957	0.625	0	PA_with_intermediate	1,2,0,0,0,0,3,0,0	test	ward_and_allport	1,3,0,2,0,0,0,0,0	82.0	24.0	0.625	1,2,3,0,0,0,0,0,0	to_board	s648
336.589	0.429	0	PA_with_intermediate	1,0,0,0,0,0,3,0,0	test	ward_and_allport	1,3,0,2,0,0,0,0,0	89.0	24.0	0.429	1,2,3,0,0,0,0,0,0	to_hand	s648
337.019	0.454	0	PA_with_intermediate	1,0,0,2,0,0,3,0,0	test	ward_and_allport	1,3,0,2,0,0,0,0,0	71.0	24.0	0.454	1,2,3,0,0,0,0,0,0	to_board	s648
337.48	0.398	0	PA_with_intermediate	1,0,0,2,0,0,0,0,0	test	ward_and_allport	1,3,0,2,0,0,0,0,0	82.0	24.0	0.398	1,2,3,0,0,0,0,0,0	to_hand	s648
337.879	0.378	0	PA_with_intermediate	1,3,0,2,0,0,0,0,0	test	ward_and_allport	1,3,0,2,0,0,0,0,0	89.0	24.0	0.378	1,2,3,0,0,0,0,0,0	to_board	s648
338.264	1.0	0	PA_with_intermediate	n/a	test	ward_and_allport	n/a	-1.0	24.0	n/a	n/a	feedback	s648
339.264	1.408	0	PA_with_intermediate	n/a	test	ward_and_allport	n/a	-1.0	24.0	n/a	n/a	ITI	s648
340.68	6.703	1	PA_without_intermediate	0,0,0,1,2,0,0,0,0	test	ward_and_allport	3,1,0,0,0,0,2,0,0	71.0	25.0	6.703	0,0,0,1,2,3,0,0,0	to_hand	s648
347.385	0.508	0	PA_without_intermediate	3,0,0,1,2,0,0,0,0	test	ward_and_allport	3,1,0,0,0,0,2,0,0	89.0	25.0	0.508	0,0,0,1,2,3,0,0,0	to_board	s648
347.9	0.147	0	PA_without_intermediate	0,0,0,1,2,0,0,0,0	test	ward_and_allport	3,1,0,0,0,0,2,0,0	89.0	25.0	0.147	0,0,0,1,2,3,0,0,0	to_hand	s648
348.049	0.181	0	PA_without_intermediate	0,0,0,1,2,3,0,0,0	test	ward_and_allport	3,1,0,0,0,0,2,0,0	71.0	25.0	0.181	0,0,0,1,2,3,0,0,0	to_board	s648
348.236	0.972	0	PA_without_intermediate	0,0,0,1,2,0,0,0,0	test	ward_and_allport	3,1,0,0,0,0,2,0,0	71.0	25.0	0.972	0,0,0,1,2,3,0,0,0	to_hand	s648
349.21	0.554	0	PA_without_intermediate	3,0,0,1,2,0,0,0,0	test	ward_and_allport	3,1,0,0,0,0,2,0,0	89.0	25.0	0.554	0,0,0,1,2,3,0,0,0	to_board	s648
349.771	0.81	0	PA_without_intermediate	3,0,0,1,0,0,0,0,0	test	ward_and_allport	3,1,0,0,0,0,2,0,0	71.0	25.0	0.81	0,0,0,1,2,3,0,0,0	to_hand	s648
350.583	0.442	0	PA_without_intermediate	3,0,0,1,0,0,2,0,0	test	ward_and_allport	3,1,0,0,0,0,2,0,0	82.0	25.0	0.442	0,0,0,1,2,3,0,0,0	to_board	s648
351.031	0.592	0	PA_without_intermediate	3,0,0,0,0,0,2,0,0	test	ward_and_allport	3,1,0,0,0,0,2,0,0	71.0	25.0	0.592	0,0,0,1,2,3,0,0,0	to_hand	s648
351.624	0.421	0	PA_without_intermediate	3,1,0,0,0,0,2,0,0	test	ward_and_allport	3,1,0,0,0,0,2,0,0	89.0	25.0	0.421	0,0,0,1,2,3,0,0,0	to_board	s648
352.054	1.0	0	PA_without_intermediate	n/a	test	ward_and_allport	n/a	-1.0	25.0	n/a	n/a	feedback	s648
353.054	1.68	0	PA_without_intermediate	n/a	test	ward_and_allport	n/a	-1.0	25.0	n/a	n/a	ITI	s648
354.742	6.633	1	PA_with_intermediate	0,0,0,1,2,0,0,0,0	test	ward_and_allport	0,0,0,1,3,0,2,0,0	71.0	26.0	6.633	0,0,0,1,2,3,0,0,0	to_hand	s648
361.376	0.506	0	PA_with_intermediate	3,0,0,1,2,0,0,0,0	test	ward_and_allport	0,0,0,1,3,0,2,0,0	89.0	26.0	0.506	0,0,0,1,2,3,0,0,0	to_board	s648
361.888	0.195	0	PA_with_intermediate	0,0,0,1,2,0,0,0,0	test	ward_and_allport	0,0,0,1,3,0,2,0,0	89.0	26.0	0.195	0,0,0,1,2,3,0,0,0	to_hand	s648
362.084	0.207	0	PA_with_intermediate	0,0,0,1,2,3,0,0,0	test	ward_and_allport	0,0,0,1,3,0,2,0,0	71.0	26.0	0.207	0,0,0,1,2,3,0,0,0	to_board	s648
362.299	0.877	0	PA_with_intermediate	0,0,0,1,2,0,0,0,0	test	ward_and_allport	0,0,0,1,3,0,2,0,0	71.0	26.0	0.877	0,0,0,1,2,3,0,0,0	to_hand	s648
363.178	0.479	0	PA_with_intermediate	3,0,0,1,2,0,0,0,0	test	ward_and_allport	0,0,0,1,3,0,2,0,0	89.0	26.0	0.479	0,0,0,1,2,3,0,0,0	to_board	s648
363.665	1.31	0	PA_with_intermediate	3,0,0,1,0,0,0,0,0	test	ward_and_allport	0,0,0,1,3,0,2,0,0	71.0	26.0	1.31	0,0,0,1,2,3,0,0,0	to_hand	s648
364.977	0.496	0	PA_with_intermediate	3,0,0,1,0,0,2,0,0	test	ward_and_allport	0,0,0,1,3,0,2,0,0	82.0	26.0	0.496	0,0,0,1,2,3,0,0,0	to_board	s648
365.48	0.664	0	PA_with_intermediate	0,0,0,1,0,0,2,0,0	test	ward_and_allport	0,0,0,1,3,0,2,0,0	89.0	26.0	0.664	0,0,0,1,2,3,0,0,0	to_hand	s648
366.146	0.542	0	PA_with_intermediate	0,0,0,1,3,0,2,0,0	test	ward_and_allport	0,0,0,1,3,0,2,0,0	71.0	26.0	0.542	0,0,0,1,2,3,0,0,0	to_board	s648
366.698	1.0	0	PA_with_intermediate	n/a	test	ward_and_allport	n/a	-1.0	26.0	n/a	n/a	feedback	s648
367.698	3.72	0	PA_with_intermediate	n/a	test	ward_and_allport	n/a	-1.0	26.0	n/a	n/a	ITI	s648
371.427	3.052	1	PA_without_intermediate	0,0,0,1,2,0,0,0,0	test	ward_and_allport	3,2,0,0,0,0,1,0,0	71.0	27.0	3.052	0,0,0,1,2,3,0,0,0	to_hand	s648
374.48	0.593	0	PA_without_intermediate	3,0,0,1,2,0,0,0,0	test	ward_and_allport	3,2,0,0,0,0,1,0,0	89.0	27.0	0.593	0,0,0,1,2,3,0,0,0	to_board	s648
375.08	0.713	0	PA_without_intermediate	3,0,0,1,0,0,0,0,0	test	ward_and_allport	3,2,0,0,0,0,1,0,0	71.0	27.0	0.713	0,0,0,1,2,3,0,0,0	to_hand	s648
375.795	0.521	0	PA_without_intermediate	3,2,0,1,0,0,0,0,0	test	ward_and_allport	3,2,0,0,0,0,1,0,0	89.0	27.0	0.521	0,0,0,1,2,3,0,0,0	to_board	s648
376.324	0.909	0	PA_without_intermediate	3,2,0,0,0,0,0,0,0	test	ward_and_allport	3,2,0,0,0,0,1,0,0	71.0	27.0	0.909	0,0,0,1,2,3,0,0,0	to_hand	s648
377.235	0.473	0	PA_without_intermediate	3,2,0,0,0,0,1,0,0	test	ward_and_allport	3,2,0,0,0,0,1,0,0	82.0	27.0	0.473	0,0,0,1,2,3,0,0,0	to_board	s648
377.717	1.0	0	PA_without_intermediate	n/a	test	ward_and_allport	n/a	-1.0	27.0	n/a	n/a	feedback	s648
378.717	2.224	0	PA_without_intermediate	n/a	test	ward_and_allport	n/a	-1.0	27.0	n/a	n/a	ITI	s648
380.95	3.794	1	PA_without_intermediate	0,0,0,0,0,0,1,2,0	test	ward_and_allport	1,0,0,3,2,0,0,0,0	82.0	28.0	3.794	0,0,0,0,0,0,1,2,3	to_hand	s648
384.746	0.73	0	PA_without_intermediate	0,0,0,3,0,0,1,2,0	test	ward_and_allport	1,0,0,3,2,0,0,0,0	71.0	28.0	0.73	0,0,0,0,0,0,1,2,3	to_board	s648
385.482	0.727	0	PA_without_intermediate	0,0,0,3,0,0,1,0,0	test	ward_and_allport	1,0,0,3,2,0,0,0,0	82.0	28.0	0.727	0,0,0,0,0,0,1,2,3	to_hand	s648
386.21	0.699	0	PA_without_intermediate	0,0,0,3,2,0,1,0,0	test	ward_and_allport	1,0,0,3,2,0,0,0,0	71.0	28.0	0.699	0,0,0,0,0,0,1,2,3	to_board	s648
386.917	0.75	0	PA_without_intermediate	0,0,0,3,2,0,0,0,0	test	ward_and_allport	1,0,0,3,2,0,0,0,0	82.0	28.0	0.75	0,0,0,0,0,0,1,2,3	to_hand	s648
387.668	0.653	0	PA_without_intermediate	1,0,0,3,2,0,0,0,0	test	ward_and_allport	1,0,0,3,2,0,0,0,0	89.0	28.0	0.653	0,0,0,0,0,0,1,2,3	to_board	s648
388.329	1.0	0	PA_without_intermediate	n/a	test	ward_and_allport	n/a	-1.0	28.0	n/a	n/a	feedback	s648
389.329	1.272	0	PA_without_intermediate	n/a	test	ward_and_allport	n/a	-1.0	28.0	n/a	n/a	ITI	s648
390.609	3.442	1	PA_with_intermediate	0,0,0,1,2,0,0,0,0	test	ward_and_allport	2,3,0,1,0,0,0,0,0	71.0	29.0	3.442	0,0,0,1,2,3,0,0,0	to_hand	s648
394.052	0.575	0	PA_with_intermediate	0,0,0,1,2,0,3,0,0	test	ward_and_allport	2,3,0,1,0,0,0,0,0	82.0	29.0	0.575	0,0,0,1,2,3,0,0,0	to_board	s648
394.633	0.449	0	PA_with_intermediate	0,0,0,1,0,0,3,0,0	test	ward_and_allport	2,3,0,1,0,0,0,0,0	71.0	29.0	0.449	0,0,0,1,2,3,0,0,0	to_hand	s648
395.084	0.455	0	PA_with_intermediate	2,0,0,1,0,0,3,0,0	test	ward_and_allport	2,3,0,1,0,0,0,0,0	89.0	29.0	0.455	0,0,0,1,2,3,0,0,0	to_board	s648
395.547	0.413	0	PA_with_intermediate	2,0,0,1,0,0,0,0,0	test	ward_and_allport	2,3,0,1,0,0,0,0,0	82.0	29.0	0.413	0,0,0,1,2,3,0,0,0	to_hand	s648
395.96	0.465	0	PA_with_intermediate	2,3,0,1,0,0,0,0,0	test	ward_and_allport	2,3,0,1,0,0,0,0,0	89.0	29.0	0.465	0,0,0,1,2,3,0,0,0	to_board	s648
396.434	1.0	0	PA_with_intermediate	n/a	test	ward_and_allport	n/a	-1.0	29.0	n/a	n/a	feedback	s648
397.434	2.632	0	PA_with_intermediate	n/a	test	ward_and_allport	n/a	-1.0	29.0	n/a	n/a	ITI	s648
405.078	2.456	1	PA_without_intermediate	0,0,0,1,2,0,0,0,0	test	ward_and_allport	1,0,0,0,0,0,3,2,0	71.0	30.0	2.456	0,0,0,1,2,3,0,0,0	to_hand	s648
407.535	0.512	0	PA_without_intermediate	0,0,0,1,2,0,3,0,0	test	ward_and_allport	1,0,0,0,0,0,3,2,0	82.0	30.0	0.512	0,0,0,1,2,3,0,0,0	to_board	s648
408.056	0.432	0	PA_without_intermediate	0,0,0,1,0,0,3,0,0	test	ward_and_allport	1,0,0,0,0,0,3,2,0	71.0	30.0	0.432	0,0,0,1,2,3,0,0,0	to_hand	s648
408.49	0.406	0	PA_without_intermediate	0,0,0,1,0,0,3,2,0	test	ward_and_allport	1,0,0,0,0,0,3,2,0	82.0	30.0	0.406	0,0,0,1,2,3,0,0,0	to_board	s648
408.906	0.452	0	PA_without_intermediate	0,0,0,0,0,0,3,2,0	test	ward_and_allport	1,0,0,0,0,0,3,2,0	71.0	30.0	0.452	0,0,0,1,2,3,0,0,0	to_hand	s648
409.36	0.378	0	PA_without_intermediate	1,0,0,0,0,0,3,2,0	test	ward_and_allport	1,0,0,0,0,0,3,2,0	89.0	30.0	0.378	0,0,0,1,2,3,0,0,0	to_board	s648
409.75	1.0	0	PA_without_intermediate	n/a	test	ward_and_allport	n/a	-1.0	30.0	n/a	n/a	feedback	s648
410.75	1.408	0	PA_without_intermediate	n/a	test	ward_and_allport	n/a	-1.0	30.0	n/a	n/a	ITI	s648
412.167	4.591	1	PA_without_intermediate	0,0,0,0,0,0,1,2,0	test	ward_and_allport	2,0,0,3,1,0,0,0,0	82.0	31.0	4.591	0,0,0,0,0,0,1,2,3	to_hand	s648
416.759	0.912	0	PA_without_intermediate	0,0,0,3,0,0,1,2,0	test	ward_and_allport	2,0,0,3,1,0,0,0,0	71.0	31.0	0.912	0,0,0,0,0,0,1,2,3	to_board	s648
417.68	1.4	0	PA_without_intermediate	0,0,0,3,0,0,1,0,0	test	ward_and_allport	2,0,0,3,1,0,0,0,0	82.0	31.0	1.4	0,0,0,0,0,0,1,2,3	to_hand	s648
419.081	0.859	0	PA_without_intermediate	2,0,0,3,0,0,1,0,0	test	ward_and_allport	2,0,0,3,1,0,0,0,0	89.0	31.0	0.859	0,0,0,0,0,0,1,2,3	to_board	s648
419.949	0.778	0	PA_without_intermediate	2,0,0,3,0,0,0,0,0	test	ward_and_allport	2,0,0,3,1,0,0,0,0	82.0	31.0	0.778	0,0,0,0,0,0,1,2,3	to_hand	s648
420.729	0.631	0	PA_without_intermediate	2,0,0,3,1,0,0,0,0	test	ward_and_allport	2,0,0,3,1,0,0,0,0	71.0	31.0	0.631	0,0,0,0,0,0,1,2,3	to_board	s648
421.371	1.0	0	PA_without_intermediate	n/a	test	ward_and_allport	n/a	-1.0	31.0	n/a	n/a	feedback	s648
422.371	1.0	0	PA_without_intermediate	n/a	test	ward_and_allport	n/a	-1.0	31.0	n/a	n/a	ITI	s648
423.38	5.732	1	PA_with_intermediate	0,0,0,0,0,0,1,2,0	test	ward_and_allport	2,0,0,0,0,0,1,3,0	82.0	32.0	5.732	0,0,0,0,0,0,1,2,3	to_hand	s648
429.113	0.542	0	PA_with_intermediate	0,0,0,3,0,0,1,2,0	test	ward_and_allport	2,0,0,0,0,0,1,3,0	71.0	32.0	0.542	0,0,0,0,0,0,1,2,3	to_board	s648
429.66	0.493	0	PA_with_intermediate	0,0,0,3,0,0,1,0,0	test	ward_and_allport	2,0,0,0,0,0,1,3,0	82.0	32.0	0.493	0,0,0,0,0,0,1,2,3	to_hand	s648
430.155	0.567	0	PA_with_intermediate	2,0,0,3,0,0,1,0,0	test	ward_and_allport	2,0,0,0,0,0,1,3,0	89.0	32.0	0.567	0,0,0,0,0,0,1,2,3	to_board	s648
430.73	0.395	0	PA_with_intermediate	2,0,0,0,0,0,1,0,0	test	ward_and_allport	2,0,0,0,0,0,1,3,0	71.0	32.0	0.395	0,0,0,0,0,0,1,2,3	to_hand	s648
431.127	0.482	0	PA_with_intermediate	2,0,0,0,0,0,1,3,0	test	ward_and_allport	2,0,0,0,0,0,1,3,0	82.0	32.0	0.482	0,0,0,0,0,0,1,2,3	to_board	s648
431.619	1.0	0	PA_with_intermediate	n/a	test	ward_and_allport	n/a	-1.0	32.0	n/a	n/a	feedback	s648
432.619	1.0	0	PA_with_intermediate	n/a	test	ward_and_allport	n/a	-1.0	32.0	n/a	n/a	ITI	s648
433.629	4.685	1	PA_with_intermediate	1,2,0,0,0,0,0,0,0	test	ward_and_allport	1,3,0,0,0,0,2,0,0	89.0	33.0	4.685	1,2,3,0,0,0,0,0,0	to_hand	s648
438.316	0.468	0	PA_with_intermediate	1,2,0,3,0,0,0,0,0	test	ward_and_allport	1,3,0,0,0,0,2,0,0	71.0	33.0	0.468	1,2,3,0,0,0,0,0,0	to_board	s648
438.794	0.433	0	PA_with_intermediate	1,0,0,3,0,0,0,0,0	test	ward_and_allport	1,3,0,0,0,0,2,0,0	89.0	33.0	0.433	1,2,3,0,0,0,0,0,0	to_hand	s648
439.228	0.47	0	PA_with_intermediate	1,0,0,3,0,0,2,0,0	test	ward_and_allport	1,3,0,0,0,0,2,0,0	82.0	33.0	0.47	1,2,3,0,0,0,0,0,0	to_board	s648
439.707	0.426	0	PA_with_intermediate	1,0,0,0,0,0,2,0,0	test	ward_and_allport	1,3,0,0,0,0,2,0,0	71.0	33.0	0.426	1,2,3,0,0,0,0,0,0	to_hand	s648
440.134	0.415	0	PA_with_intermediate	1,3,0,0,0,0,2,0,0	test	ward_and_allport	1,3,0,0,0,0,2,0,0	89.0	33.0	0.415	1,2,3,0,0,0,0,0,0	to_board	s648
440.56	1.0	0	PA_with_intermediate	n/a	test	ward_and_allport	n/a	-1.0	33.0	n/a	n/a	feedback	s648
441.56	1.0	0	PA_with_intermediate	n/a	test	ward_and_allport	n/a	-1.0	33.0	n/a	n/a	ITI	s648
442.57	4.078	1	PA_with_intermediate	1,2,0,0,0,0,0,0,0	test	ward_and_allport	1,3,0,0,0,0,2,0,0	89.0	34.0	4.078	1,2,3,0,0,0,0,0,0	to_hand	s648
446.649	0.573	0	PA_with_intermediate	1,2,0,3,0,0,0,0,0	test	ward_and_allport	1,3,0,0,0,0,2,0,0	71.0	34.0	0.573	1,2,3,0,0,0,0,0,0	to_board	s648
447.23	0.422	0	PA_with_intermediate	1,0,0,3,0,0,0,0,0	test	ward_and_allport	1,3,0,0,0,0,2,0,0	89.0	34.0	0.422	1,2,3,0,0,0,0,0,0	to_hand	s648
447.654	0.424	0	PA_with_intermediate	1,0,0,3,0,0,2,0,0	test	ward_and_allport	1,3,0,0,0,0,2,0,0	82.0	34.0	0.424	1,2,3,0,0,0,0,0,0	to_board	s648
448.086	0.604	0	PA_with_intermediate	1,0,0,0,0,0,2,0,0	test	ward_and_allport	1,3,0,0,0,0,2,0,0	71.0	34.0	0.604	1,2,3,0,0,0,0,0,0	to_hand	s648
448.691	0.456	0	PA_with_intermediate	1,3,0,0,0,0,2,0,0	test	ward_and_allport	1,3,0,0,0,0,2,0,0	89.0	34.0	0.456	1,2,3,0,0,0,0,0,0	to_board	s648
449.158	1.0	0	PA_with_intermediate	n/a	test	ward_and_allport	n/a	-1.0	34.0	n/a	n/a	feedback	s648
450.158	1.408	0	PA_with_intermediate	n/a	test	ward_and_allport	n/a	-1.0	34.0	n/a	n/a	ITI	s648
451.575	3.028	1	PA_without_intermediate	0,0,0,1,2,0,0,0,0	test	ward_and_allport	1,0,0,0,0,0,3,2,0	71.0	35.0	3.028	0,0,0,1,2,3,0,0,0	to_hand	s648
454.604	0.486	0	PA_without_intermediate	0,0,0,1,2,0,3,0,0	test	ward_and_allport	1,0,0,0,0,0,3,2,0	82.0	35.0	0.486	0,0,0,1,2,3,0,0,0	to_board	s648
455.1	0.424	0	PA_without_intermediate	0,0,0,1,0,0,3,0,0	test	ward_and_allport	1,0,0,0,0,0,3,2,0	71.0	35.0	0.424	0,0,0,1,2,3,0,0,0	to_hand	s648
455.524	0.456	0	PA_without_intermediate	0,0,0,1,0,0,3,2,0	test	ward_and_allport	1,0,0,0,0,0,3,2,0	82.0	35.0	0.456	0,0,0,1,2,3,0,0,0	to_board	s648
455.99	0.398	0	PA_without_intermediate	0,0,0,0,0,0,3,2,0	test	ward_and_allport	1,0,0,0,0,0,3,2,0	71.0	35.0	0.398	0,0,0,1,2,3,0,0,0	to_hand	s648
456.39	0.406	0	PA_without_intermediate	1,0,0,0,0,0,3,2,0	test	ward_and_allport	1,0,0,0,0,0,3,2,0	89.0	35.0	0.406	0,0,0,1,2,3,0,0,0	to_board	s648
456.804	1.0	0	PA_without_intermediate	n/a	test	ward_and_allport	n/a	-1.0	35.0	n/a	n/a	feedback	s648
457.804	1.816	0	PA_without_intermediate	n/a	test	ward_and_allport	n/a	-1.0	35.0	n/a	n/a	ITI	s648
459.627	3.639	1	PA_with_intermediate	0,0,0,1,2,0,0,0,0	test	ward_and_allport	2,0,0,1,3,0,0,0,0	71.0	36.0	3.639	0,0,0,1,2,3,0,0,0	to_hand	s648
463.268	0.634	0	PA_with_intermediate	0,0,0,1,2,0,3,0,0	test	ward_and_allport	2,0,0,1,3,0,0,0,0	82.0	36.0	0.634	0,0,0,1,2,3,0,0,0	to_board	s648
463.909	0.418	0	PA_with_intermediate	0,0,0,1,0,0,3,0,0	test	ward_and_allport	2,0,0,1,3,0,0,0,0	71.0	36.0	0.418	0,0,0,1,2,3,0,0,0	to_hand	s648
464.328	0.483	0	PA_with_intermediate	2,0,0,1,0,0,3,0,0	test	ward_and_allport	2,0,0,1,3,0,0,0,0	89.0	36.0	0.483	0,0,0,1,2,3,0,0,0	to_board	s648
464.821	0.412	0	PA_with_intermediate	2,0,0,1,0,0,0,0,0	test	ward_and_allport	2,0,0,1,3,0,0,0,0	82.0	36.0	0.412	0,0,0,1,2,3,0,0,0	to_hand	s648
465.234	0.372	0	PA_with_intermediate	2,0,0,1,3,0,0,0,0	test	ward_and_allport	2,0,0,1,3,0,0,0,0	71.0	36.0	0.372	0,0,0,1,2,3,0,0,0	to_board	s648
465.617	1.0	0	PA_with_intermediate	n/a	test	ward_and_allport	n/a	-1.0	36.0	n/a	n/a	feedback	s648
466.617	3.176	0	PA_with_intermediate	n/a	test	ward_and_allport	n/a	-1.0	36.0	n/a	n/a	ITI	s648
469.803	5.678	1	PA_with_intermediate	1,2,0,0,0,0,0,0,0	test	ward_and_allport	1,0,0,2,3,0,0,0,0	89.0	37.0	5.678	1,2,3,0,0,0,0,0,0	to_hand	s648
475.482	0.422	0	PA_with_intermediate	1,2,0,0,0,0,3,0,0	test	ward_and_allport	1,0,0,2,3,0,0,0,0	82.0	37.0	0.422	1,2,3,0,0,0,0,0,0	to_board	s648
475.912	0.395	0	PA_with_intermediate	1,0,0,0,0,0,3,0,0	test	ward_and_allport	1,0,0,2,3,0,0,0,0	89.0	37.0	0.395	1,2,3,0,0,0,0,0,0	to_hand	s648
476.309	0.362	0	PA_with_intermediate	1,0,0,2,0,0,3,0,0	test	ward_and_allport	1,0,0,2,3,0,0,0,0	71.0	37.0	0.362	1,2,3,0,0,0,0,0,0	to_board	s648
476.681	0.343	0	PA_with_intermediate	1,0,0,2,0,0,0,0,0	test	ward_and_allport	1,0,0,2,3,0,0,0,0	82.0	37.0	0.343	1,2,3,0,0,0,0,0,0	to_hand	s648
477.026	0.391	0	PA_with_intermediate	1,0,0,2,3,0,0,0,0	test	ward_and_allport	1,0,0,2,3,0,0,0,0	71.0	37.0	0.391	1,2,3,0,0,0,0,0,0	to_board	s648
477.429	1.0	0	PA_with_intermediate	n/a	test	ward_and_allport	n/a	-1.0	37.0	n/a	n/a	feedback	s648
478.429	2.36	0	PA_with_intermediate	n/a	test	ward_and_allport	n/a	-1.0	37.0	n/a	n/a	ITI	s648
480.798	4.088	1	PA_with_intermediate	0,0,0,1,2,0,0,0,0	test	ward_and_allport	2,0,0,1,3,0,0,0,0	71.0	38.0	4.088	0,0,0,1,2,3,0,0,0	to_hand	s648
484.887	0.365	0	PA_with_intermediate	0,0,0,1,2,0,3,0,0	test	ward_and_allport	2,0,0,1,3,0,0,0,0	82.0	38.0	0.365	0,0,0,1,2,3,0,0,0	to_board	s648
485.261	0.358	0	PA_with_intermediate	0,0,0,1,0,0,3,0,0	test	ward_and_allport	2,0,0,1,3,0,0,0,0	71.0	38.0	0.358	0,0,0,1,2,3,0,0,0	to_hand	s648
485.62	0.418	0	PA_with_intermediate	2,0,0,1,0,0,3,0,0	test	ward_and_allport	2,0,0,1,3,0,0,0,0	89.0	38.0	0.418	0,0,0,1,2,3,0,0,0	to_board	s648
486.048	0.519	0	PA_with_intermediate	2,0,0,1,0,0,0,0,0	test	ward_and_allport	2,0,0,1,3,0,0,0,0	82.0	38.0	0.519	0,0,0,1,2,3,0,0,0	to_hand	s648
486.568	0.377	0	PA_with_intermediate	2,0,0,1,3,0,0,0,0	test	ward_and_allport	2,0,0,1,3,0,0,0,0	71.0	38.0	0.377	0,0,0,1,2,3,0,0,0	to_board	s648
486.956	1.0	0	PA_with_intermediate	n/a	test	ward_and_allport	n/a	-1.0	38.0	n/a	n/a	feedback	s648
487.956	1.0	0	PA_with_intermediate	n/a	test	ward_and_allport	n/a	-1.0	38.0	n/a	n/a	ITI	s648
488.963	3.593	1	PA_without_intermediate	1,2,0,0,0,0,0,0,0	test	ward_and_allport	0,0,0,2,0,0,3,1,0	89.0	39.0	3.593	1,2,3,0,0,0,0,0,0	to_hand	s648
492.557	0.532	0	PA_without_intermediate	1,2,0,0,0,0,3,0,0	test	ward_and_allport	0,0,0,2,0,0,3,1,0	82.0	39.0	0.532	1,2,3,0,0,0,0,0,0	to_board	s648
493.096	0.554	0	PA_without_intermediate	1,0,0,0,0,0,3,0,0	test	ward_and_allport	0,0,0,2,0,0,3,1,0	89.0	39.0	0.554	1,2,3,0,0,0,0,0,0	to_hand	s648
493.651	0.393	0	PA_without_intermediate	1,0,0,2,0,0,3,0,0	test	ward_and_allport	0,0,0,2,0,0,3,1,0	71.0	39.0	0.393	1,2,3,0,0,0,0,0,0	to_board	s648
494.054	0.371	0	PA_without_intermediate	0,0,0,2,0,0,3,0,0	test	ward_and_allport	0,0,0,2,0,0,3,1,0	89.0	39.0	0.371	1,2,3,0,0,0,0,0,0	to_hand	s648
494.426	0.363	0	PA_without_intermediate	0,0,0,2,0,0,3,1,0	test	ward_and_allport	0,0,0,2,0,0,3,1,0	82.0	39.0	0.363	1,2,3,0,0,0,0,0,0	to_board	s648
494.801	1.0	0	PA_without_intermediate	n/a	test	ward_and_allport	n/a	-1.0	39.0	n/a	n/a	feedback	s648
495.801	1.408	0	PA_without_intermediate	n/a	test	ward_and_allport	n/a	-1.0	39.0	n/a	n/a	ITI	s648
497.218	3.674	1	PA_with_intermediate	0,0,0,1,2,0,0,0,0	test	ward_and_allport	0,0,0,1,0,0,2,3,0	71.0	40.0	3.674	0,0,0,1,2,3,0,0,0	to_hand	s648
500.894	0.601	0	PA_with_intermediate	3,0,0,1,2,0,0,0,0	test	ward_and_allport	0,0,0,1,0,0,2,3,0	89.0	40.0	0.601	0,0,0,1,2,3,0,0,0	to_board	s648
501.503	0.536	0	PA_with_intermediate	3,0,0,1,0,0,0,0,0	test	ward_and_allport	0,0,0,1,0,0,2,3,0	71.0	40.0	0.536	0,0,0,1,2,3,0,0,0	to_hand	s648
502.04	0.439	0	PA_with_intermediate	3,0,0,1,0,0,2,0,0	test	ward_and_allport	0,0,0,1,0,0,2,3,0	82.0	40.0	0.439	0,0,0,1,2,3,0,0,0	to_board	s648
502.49	0.423	0	PA_with_intermediate	0,0,0,1,0,0,2,0,0	test	ward_and_allport	0,0,0,1,0,0,2,3,0	89.0	40.0	0.423	0,0,0,1,2,3,0,0,0	to_hand	s648
502.914	0.401	0	PA_with_intermediate	0,0,0,1,0,0,2,3,0	test	ward_and_allport	0,0,0,1,0,0,2,3,0	82.0	40.0	0.401	0,0,0,1,2,3,0,0,0	to_board	s648
503.327	1.0	0	PA_with_intermediate	n/a	test	ward_and_allport	n/a	-1.0	40.0	n/a	n/a	feedback	s648
504.327	1.816	0	PA_with_intermediate	n/a	test	ward_and_allport	n/a	-1.0	40.0	n/a	n/a	ITI	s648
506.153	4.541	1	PA_without_intermediate	0,0,0,0,0,0,1,2,0	test	ward_and_allport	3,1,0,2,0,0,0,0,0	82.0	41.0	4.541	0,0,0,0,0,0,1,2,3	to_hand	s648
510.696	0.97	0	PA_without_intermediate	3,0,0,0,0,0,1,2,0	test	ward_and_allport	3,1,0,2,0,0,0,0,0	89.0	41.0	0.97	0,0,0,0,0,0,1,2,3	to_board	s648
511.675	0.556	0	PA_without_intermediate	3,0,0,0,0,0,1,0,0	test	ward_and_allport	3,1,0,2,0,0,0,0,0	82.0	41.0	0.556	0,0,0,0,0,0,1,2,3	to_hand	s648
512.232	0.466	0	PA_without_intermediate	3,0,0,2,0,0,1,0,0	test	ward_and_allport	3,1,0,2,0,0,0,0,0	71.0	41.0	0.466	0,0,0,0,0,0,1,2,3	to_board	s648
512.708	0.465	0	PA_without_intermediate	3,0,0,2,0,0,0,0,0	test	ward_and_allport	3,1,0,2,0,0,0,0,0	82.0	41.0	0.465	0,0,0,0,0,0,1,2,3	to_hand	s648
513.174	0.45	0	PA_without_intermediate	3,1,0,2,0,0,0,0,0	test	ward_and_allport	3,1,0,2,0,0,0,0,0	89.0	41.0	0.45	0,0,0,0,0,0,1,2,3	to_board	s648
513.635	1.0	0	PA_without_intermediate	n/a	test	ward_and_allport	n/a	-1.0	41.0	n/a	n/a	feedback	s648
514.635	2.088	0	PA_without_intermediate	n/a	test	ward_and_allport	n/a	-1.0	41.0	n/a	n/a	ITI	s648
516.732	2.941	1	PA_without_intermediate	0,0,0,0,0,0,1,2,0	test	ward_and_allport	2,0,0,3,1,0,0,0,0	82.0	42.0	2.941	0,0,0,0,0,0,1,2,3	to_hand	s648
519.674	0.504	0	PA_without_intermediate	0,0,0,3,0,0,1,2,0	test	ward_and_allport	2,0,0,3,1,0,0,0,0	71.0	42.0	0.504	0,0,0,0,0,0,1,2,3	to_board	s648
520.187	0.532	0	PA_without_intermediate	0,0,0,3,0,0,1,0,0	test	ward_and_allport	2,0,0,3,1,0,0,0,0	82.0	42.0	0.532	0,0,0,0,0,0,1,2,3	to_hand	s648
520.72	0.544	0	PA_without_intermediate	2,0,0,3,0,0,1,0,0	test	ward_and_allport	2,0,0,3,1,0,0,0,0	89.0	42.0	0.544	0,0,0,0,0,0,1,2,3	to_board	s648
521.273	0.629	0	PA_without_intermediate	2,0,0,3,0,0,0,0,0	test	ward_and_allport	2,0,0,3,1,0,0,0,0	82.0	42.0	0.629	0,0,0,0,0,0,1,2,3	to_hand	s648
521.903	0.427	0	PA_without_intermediate	2,0,0,3,1,0,0,0,0	test	ward_and_allport	2,0,0,3,1,0,0,0,0	71.0	42.0	0.427	0,0,0,0,0,0,1,2,3	to_board	s648
522.343	1.0	0	PA_without_intermediate	n/a	test	ward_and_allport	n/a	-1.0	42.0	n/a	n/a	feedback	s648
523.343	1.136	0	PA_without_intermediate	n/a	test	ward_and_allport	n/a	-1.0	42.0	n/a	n/a	ITI	s648
524.489	1.97	1	PA_without_intermediate	1,2,0,0,0,0,0,0,0	test	ward_and_allport	0,0,0,1,0,0,3,2,0	89.0	43.0	1.97	1,2,3,0,0,0,0,0,0	to_hand	s648
526.46	0.783	0	PA_without_intermediate	1,2,0,0,0,0,3,0,0	test	ward_and_allport	0,0,0,1,0,0,3,2,0	82.0	43.0	0.783	1,2,3,0,0,0,0,0,0	to_board	s648
527.251	0.581	0	PA_without_intermediate	1,0,0,0,0,0,3,0,0	test	ward_and_allport	0,0,0,1,0,0,3,2,0	89.0	43.0	0.581	1,2,3,0,0,0,0,0,0	to_hand	s648
527.832	0.448	0	PA_without_intermediate	1,0,0,0,0,0,3,2,0	test	ward_and_allport	0,0,0,1,0,0,3,2,0	82.0	43.0	0.448	1,2,3,0,0,0,0,0,0	to_board	s648
528.288	0.405	0	PA_without_intermediate	0,0,0,0,0,0,3,2,0	test	ward_and_allport	0,0,0,1,0,0,3,2,0	89.0	43.0	0.405	1,2,3,0,0,0,0,0,0	to_hand	s648
528.695	0.334	0	PA_without_intermediate	0,0,0,1,0,0,3,2,0	test	ward_and_allport	0,0,0,1,0,0,3,2,0	71.0	43.0	0.334	1,2,3,0,0,0,0,0,0	to_board	s648
529.039	1.0	0	PA_without_intermediate	n/a	test	ward_and_allport	n/a	-1.0	43.0	n/a	n/a	feedback	s648
530.039	6.168	0	PA_without_intermediate	n/a	test	ward_and_allport	n/a	-1.0	43.0	n/a	n/a	ITI	s648
536.216	3.708	1	PA_without_intermediate	0,0,0,1,2,0,0,0,0	test	ward_and_allport	3,2,0,0,0,0,1,0,0	71.0	44.0	3.708	0,0,0,1,2,3,0,0,0	to_hand	s648
539.925	0.374	0	PA_without_intermediate	3,0,0,1,2,0,0,0,0	test	ward_and_allport	3,2,0,0,0,0,1,0,0	89.0	44.0	0.374	0,0,0,1,2,3,0,0,0	to_board	s648
540.309	0.843	0	PA_without_intermediate	3,0,0,1,0,0,0,0,0	test	ward_and_allport	3,2,0,0,0,0,1,0,0	71.0	44.0	0.843	0,0,0,1,2,3,0,0,0	to_hand	s648
541.153	0.329	0	PA_without_intermediate	3,2,0,1,0,0,0,0,0	test	ward_and_allport	3,2,0,0,0,0,1,0,0	89.0	44.0	0.329	0,0,0,1,2,3,0,0,0	to_board	s648
541.492	0.267	0	PA_without_intermediate	3,2,0,0,0,0,0,0,0	test	ward_and_allport	3,2,0,0,0,0,1,0,0	71.0	44.0	0.267	0,0,0,1,2,3,0,0,0	to_hand	s648
541.761	0.353	0	PA_without_intermediate	3,2,0,0,0,0,1,0,0	test	ward_and_allport	3,2,0,0,0,0,1,0,0	82.0	44.0	0.353	0,0,0,1,2,3,0,0,0	to_board	s648
542.125	1.0	0	PA_without_intermediate	n/a	test	ward_and_allport	n/a	-1.0	44.0	n/a	n/a	feedback	s648
543.125	1.816	0	PA_without_intermediate	n/a	test	ward_and_allport	n/a	-1.0	44.0	n/a	n/a	ITI	s648
549.956	6.954	1	PA_with_intermediate	0,0,0,0,0,0,1,2,0	test	ward_and_allport	2,3,0,0,0,0,1,0,0	82.0	45.0	6.954	0,0,0,0,0,0,1,2,3	to_hand	s648
556.911	0.419	0	PA_with_intermediate	0,0,0,3,0,0,1,2,0	test	ward_and_allport	2,3,0,0,0,0,1,0,0	71.0	45.0	0.419	0,0,0,0,0,0,1,2,3	to_board	s648
557.342	0.469	0	PA_with_intermediate	0,0,0,3,0,0,1,0,0	test	ward_and_allport	2,3,0,0,0,0,1,0,0	82.0	45.0	0.469	0,0,0,0,0,0,1,2,3	to_hand	s648
557.812	0.433	0	PA_with_intermediate	2,0,0,3,0,0,1,0,0	test	ward_and_allport	2,3,0,0,0,0,1,0,0	89.0	45.0	0.433	0,0,0,0,0,0,1,2,3	to_board	s648
558.257	0.34	0	PA_with_intermediate	2,0,0,0,0,0,1,0,0	test	ward_and_allport	2,3,0,0,0,0,1,0,0	71.0	45.0	0.34	0,0,0,0,0,0,1,2,3	to_hand	s648
558.597	0.367	0	PA_with_intermediate	2,3,0,0,0,0,1,0,0	test	ward_and_allport	2,3,0,0,0,0,1,0,0	89.0	45.0	0.367	0,0,0,0,0,0,1,2,3	to_board	s648
558.976	1.0	0	PA_with_intermediate	n/a	test	ward_and_allport	n/a	-1.0	45.0	n/a	n/a	feedback	s648
559.976	1.952	0	PA_with_intermediate	n/a	test	ward_and_allport	n/a	-1.0	45.0	n/a	n/a	ITI	s648
n/a	n/a	0	n/a	n/a	n/a	n/a	n/a	n/a	n/a	n/a	n/a	ITI	n/a
