onset	duration	choice	experiment_exp_id	key_press	large_amount	later_delay	response_time	small_amount	trial_type	worker_id
3.015	4.0	larger_later	discount_fixed	89	74.0	121.0	1.85	20.0	larger_later	s624
7.585	4.0	larger_later	discount_fixed	89	45.0	107.0	1.706	20.0	larger_later	s624
12.361	4.0	larger_later	discount_fixed	89	77.0	24.0	2.294	20.0	larger_later	s624
16.999	4.0	smaller_sooner	discount_fixed	71	39.0	161.0	2.933	20.0	smaller_sooner	s624
21.572	4.0	larger_later	discount_fixed	89	62.0	180.0	1.968	20.0	larger_later	s624
27.027	4.0	smaller_sooner	discount_fixed	71	24.0	139.0	1.841	20.0	smaller_sooner	s624
32.414	4.0	larger_later	discount_fixed	89	58.0	72.0	1.689	20.0	larger_later	s624
36.986	4.0	larger_later	discount_fixed	89	56.0	93.0	1.983	20.0	larger_later	s624
43.26	4.0	larger_later	discount_fixed	89	45.0	26.0	2.147	20.0	larger_later	s624
48.782	4.0	smaller_sooner	discount_fixed	71	23.0	42.0	1.942	20.0	smaller_sooner	s624
53.354	4.0	larger_later	discount_fixed	89	50.0	41.0	1.233	20.0	larger_later	s624
57.995	4.0	smaller_sooner	discount_fixed	71	25.0	176.0	1.366	20.0	smaller_sooner	s624
62.633	4.0	larger_later	discount_fixed	89	54.0	22.0	1.693	20.0	larger_later	s624
67.747	4.0	smaller_sooner	discount_fixed	71	29.0	44.0	1.105	20.0	smaller_sooner	s624
73.066	4.0	smaller_sooner	discount_fixed	71	24.0	89.0	1.328	20.0	smaller_sooner	s624
77.637	4.0	smaller_sooner	discount_fixed	71	23.0	77.0	1.345	20.0	smaller_sooner	s624
82.208	4.0	smaller_sooner	discount_fixed	71	27.0	130.0	1.479	20.0	smaller_sooner	s624
86.778	4.0	smaller_sooner	discount_fixed	71	23.0	134.0	0.885	20.0	smaller_sooner	s624
91.62	4.0	larger_later	discount_fixed	89	55.0	107.0	1.275	20.0	larger_later	s624
96.123	4.0	smaller_sooner	discount_fixed	71	44.0	143.0	2.584	20.0	smaller_sooner	s624
101.783	4.0	smaller_sooner	discount_fixed	71	23.0	110.0	1.447	20.0	smaller_sooner	s624
106.695	4.0	larger_later	discount_fixed	89	65.0	156.0	1.548	20.0	larger_later	s624
111.333	4.0	smaller_sooner	discount_fixed	71	22.0	27.0	1.962	20.0	smaller_sooner	s624
115.834	4.0	larger_later	discount_fixed	89	50.0	59.0	1.499	20.0	larger_later	s624
120.337	4.0	larger_later	discount_fixed	89	85.0	129.0	2.016	20.0	larger_later	s624
125.45	4.0	larger_later	discount_fixed	89	66.0	58.0	2.222	20.0	larger_later	s624
131.585	4.0	smaller_sooner	discount_fixed	71	49.0	172.0	2.337	20.0	smaller_sooner	s624
136.428	4.0	larger_later	discount_fixed	89	73.0	44.0	1.271	20.0	larger_later	s624
141.002	4.0	larger_later	discount_fixed	89	58.0	73.0	1.217	20.0	larger_later	s624
145.707	4.0	larger_later	discount_fixed	89	71.0	76.0	1.377	20.0	larger_later	s624
151.571	4.0	larger_later	discount_fixed	89	67.0	74.0	1.651	20.0	larger_later	s624
156.213	4.0	larger_later	discount_fixed	89	29.0	58.0	2.032	20.0	larger_later	s624
161.53	4.0	larger_later	discount_fixed	89	39.0	104.0	2.781	20.0	larger_later	s624
166.509	4.0	larger_later	discount_fixed	89	33.0	103.0	2.657	20.0	larger_later	s624
171.083	4.0	larger_later	discount_fixed	89	33.0	78.0	1.497	20.0	larger_later	s624
176.604	4.0	larger_later	discount_fixed	89	74.0	52.0	1.295	20.0	larger_later	s624
182.198	4.0	smaller_sooner	discount_fixed	71	28.0	132.0	1.808	20.0	smaller_sooner	s624
187.993	4.0	larger_later	discount_fixed	89	28.0	59.0	2.546	20.0	larger_later	s624
192.563	4.0	smaller_sooner	discount_fixed	71	28.0	163.0	3.102	20.0	smaller_sooner	s624
197.677	4.0	larger_later	discount_fixed	89	32.0	74.0	2.23	20.0	larger_later	s624
202.18	4.0	larger_later	discount_fixed	89	57.0	89.0	2.386	20.0	larger_later	s624
207.023	4.0	larger_later	discount_fixed	89	70.0	108.0	2.236	20.0	larger_later	s624
211.594	4.0	larger_later	discount_fixed	89	72.0	95.0	2.577	20.0	larger_later	s624
216.979	4.0	smaller_sooner	discount_fixed	71	30.0	36.0	1.52	20.0	smaller_sooner	s624
222.029	4.0	smaller_sooner	discount_fixed	71	41.0	129.0	2.633	20.0	smaller_sooner	s624
226.737	4.0	larger_later	discount_fixed	89	78.0	129.0	1.777	20.0	larger_later	s624
231.649	4.0	larger_later	discount_fixed	89	71.0	88.0	1.447	20.0	larger_later	s624
236.558	4.0	larger_later	discount_fixed	89	65.0	159.0	2.529	20.0	larger_later	s624
241.403	4.0	smaller_sooner	discount_fixed	71	24.0	125.0	3.577	20.0	smaller_sooner	s624
246.518	4.0	larger_later	discount_fixed	89	58.0	36.0	1.35	20.0	larger_later	s624
251.631	4.0	larger_later	discount_fixed	89	63.0	37.0	1.708	20.0	larger_later	s624
256.336	4.0	larger_later	discount_fixed	89	75.0	41.0	0.961	20.0	larger_later	s624
261.179	4.0	larger_later	discount_fixed	89	45.0	72.0	1.614	20.0	larger_later	s624
266.025	4.0	smaller_sooner	discount_fixed	71	25.0	74.0	1.632	20.0	smaller_sooner	s624
272.908	4.0	larger_later	discount_fixed	89	65.0	137.0	0.958	20.0	larger_later	s624
277.477	4.0	smaller_sooner	discount_fixed	71	49.0	140.0	1.615	20.0	smaller_sooner	s624
282.252	4.0	larger_later	discount_fixed	89	67.0	103.0	1.589	20.0	larger_later	s624
289.274	4.0	smaller_sooner	discount_fixed	71	69.0	172.0	1.747	20.0	smaller_sooner	s624
293.982	4.0	larger_later	discount_fixed	89	66.0	71.0	2.07	20.0	larger_later	s624
299.164	4.0	smaller_sooner	discount_fixed	71	71.0	176.0	2.194	20.0	smaller_sooner	s624
304.211	4.0	smaller_sooner	discount_fixed	71	31.0	76.0	3.515	20.0	smaller_sooner	s624
318.04	4.0	larger_later	discount_fixed	89	43.0	19.0	1.644	20.0	larger_later	s624
322.612	4.0	larger_later	discount_fixed	89	60.0	124.0	2.995	20.0	larger_later	s624
327.253	4.0	smaller_sooner	discount_fixed	71	27.0	142.0	1.765	20.0	smaller_sooner	s624
332.162	4.0	smaller_sooner	discount_fixed	71	25.0	70.0	2.488	20.0	smaller_sooner	s624
336.668	4.0	smaller_sooner	discount_fixed	71	44.0	92.0	3.36	20.0	smaller_sooner	s624
341.648	4.0	larger_later	discount_fixed	89	41.0	27.0	1.898	20.0	larger_later	s624
346.559	4.0	larger_later	discount_fixed	89	64.0	89.0	2.802	20.0	larger_later	s624
351.128	4.0	larger_later	discount_fixed	89	78.0	108.0	3.084	20.0	larger_later	s624
355.631	4.0	larger_later	discount_fixed	89	80.0	145.0	3.205	20.0	larger_later	s624
361.835	4.0	smaller_sooner	discount_fixed	71	41.0	174.0	3.291	20.0	smaller_sooner	s624
366.542	4.0	smaller_sooner	discount_fixed	71	42.0	145.0	2.737	20.0	smaller_sooner	s624
371.588	4.0	smaller_sooner	discount_fixed	71	36.0	114.0	2.425	20.0	smaller_sooner	s624
376.636	4.0	larger_later	discount_fixed	89	58.0	55.0	0.995	20.0	larger_later	s624
381.821	4.0	larger_later	discount_fixed	89	81.0	58.0	2.202	20.0	larger_later	s624
386.799	4.0	smaller_sooner	discount_fixed	71	32.0	111.0	2.0	20.0	smaller_sooner	s624
391.572	4.0	smaller_sooner	discount_fixed	71	25.0	141.0	2.099	20.0	smaller_sooner	s624
396.349	4.0	smaller_sooner	discount_fixed	71	67.0	23.0	0.759	20.0	smaller_sooner	s624
401.533	4.0	larger_later	discount_fixed	89	77.0	161.0	3.995	20.0	larger_later	s624
406.717	4.0	smaller_sooner	discount_fixed	71	55.0	163.0	3.86	20.0	smaller_sooner	s624
411.969	4.0	smaller_sooner	discount_fixed	71	40.0	159.0	1.765	20.0	smaller_sooner	s624
416.541	4.0	smaller_sooner	discount_fixed	71	76.0	161.0	1.348	20.0	smaller_sooner	s624
421.043	4.0	smaller_sooner	discount_fixed	71	48.0	128.0	3.377	20.0	smaller_sooner	s624
425.954	4.0	larger_later	discount_fixed	89	39.0	95.0	2.257	20.0	larger_later	s624
430.525	4.0	larger_later	discount_fixed	89	83.0	105.0	1.558	20.0	larger_later	s624
436.729	4.0	larger_later	discount_fixed	89	67.0	41.0	1.648	20.0	larger_later	s624
441.642	4.0	smaller_sooner	discount_fixed	71	56.0	172.0	1.933	20.0	smaller_sooner	s624
446.896	4.0	smaller_sooner	discount_fixed	71	28.0	123.0	2.299	20.0	smaller_sooner	s624
451.945	4.0	larger_later	discount_fixed	89	50.0	129.0	0.986	20.0	larger_later	s624
456.587	4.0	smaller_sooner	discount_fixed	71	23.0	61.0	2.803	20.0	smaller_sooner	s624
461.295	4.0	larger_later	discount_fixed	89	79.0	92.0	1.272	20.0	larger_later	s624
465.934	4.0	larger_later	discount_fixed	89	61.0	141.0	3.784	20.0	larger_later	s624
470.505	4.0	smaller_sooner	discount_fixed	71	43.0	38.0	4.261	20.0	smaller_sooner	s624
475.077	4.0	smaller_sooner	discount_fixed	71	66.0	145.0	2.353	20.0	smaller_sooner	s624
479.988	4.0	larger_later	discount_fixed	89	30.0	23.0	2.465	20.0	larger_later	s624
484.833	4.0	larger_later	discount_fixed	89	32.0	57.0	2.285	20.0	larger_later	s624
490.083	4.0	smaller_sooner	discount_fixed	71	27.0	91.0	1.628	20.0	smaller_sooner	s624
494.859	4.0	smaller_sooner	discount_fixed	71	43.0	120.0	2.004	20.0	smaller_sooner	s624
500.857	4.0	larger_later	discount_fixed	89	75.0	60.0	3.67	20.0	larger_later	s624
506.45	4.0	smaller_sooner	discount_fixed	71	34.0	176.0	2.163	20.0	smaller_sooner	s624
511.022	4.0	smaller_sooner	discount_fixed	71	24.0	38.0	1.254	20.0	smaller_sooner	s624
516.139	4.0	larger_later	discount_fixed	89	82.0	74.0	1.047	20.0	larger_later	s624
521.797	4.0	larger_later	discount_fixed	89	58.0	53.0	1.433	20.0	larger_later	s624
526.367	4.0	larger_later	discount_fixed	89	54.0	23.0	1.923	20.0	larger_later	s624
531.14	4.0	smaller_sooner	discount_fixed	71	41.0	55.0	3.051	20.0	smaller_sooner	s624
536.187	4.0	smaller_sooner	discount_fixed	71	77.0	142.0	2.219	20.0	smaller_sooner	s624
541.032	4.0	smaller_sooner	discount_fixed	71	25.0	108.0	3.062	20.0	smaller_sooner	s624
546.217	4.0	smaller_sooner	discount_fixed	71	33.0	163.0	2.042	20.0	smaller_sooner	s624
551.263	4.0	larger_later	discount_fixed	89	29.0	75.0	2.465	20.0	larger_later	s624
556.244	4.0	larger_later	discount_fixed	89	45.0	157.0	2.15	20.0	larger_later	s624
561.222	4.0	larger_later	discount_fixed	89	31.0	74.0	1.587	20.0	larger_later	s624
566.543	4.0	larger_later	discount_fixed	89	80.0	39.0	1.879	20.0	larger_later	s624
571.049	4.0	smaller_sooner	discount_fixed	71	22.0	21.0	2.494	20.0	smaller_sooner	s624
576.096	4.0	smaller_sooner	discount_fixed	71	52.0	139.0	4.079	20.0	smaller_sooner	s624
580.802	4.0	larger_later	discount_fixed	89	54.0	126.0	2.199	20.0	larger_later	s624
585.645	4.0	larger_later	discount_fixed	89	23.0	176.0	2.978	20.0	larger_later	s624
592.391	4.0	smaller_sooner	discount_fixed	71	24.0	87.0	2.909	20.0	smaller_sooner	s624
596.894	4.0	smaller_sooner	discount_fixed	71	36.0	140.0	2.029	20.0	smaller_sooner	s624
601.467	4.0	smaller_sooner	discount_fixed	71	35.0	171.0	1.172	20.0	smaller_sooner	s624
606.175	4.0	larger_later	discount_fixed	89	34.0	43.0	2.147	20.0	larger_later	s624
