onset	duration	planning	condition	current_position	exp_stage	experiment_exp_id	goal_state	key_press	problem_id	response_time	start_state	trial_id	worker_id
-53.597	0.0	0	n/a	n/a	n/a	ward_and_allport	n/a	32.0	n/a	16.988	n/a	instructions	s605
3.011	3.297	1	UA_with_intermediate	1,0,0,2,0,0,0,0,0	practice	ward_and_allport	1,2,3,0,0,0,0,0,0	71.0	0.0	3.297	1,0,0,2,3,0,0,0,0	to_hand	s605
6.31	0.663	0	UA_with_intermediate	1,0,0,2,0,0,3,0,0	practice	ward_and_allport	1,2,3,0,0,0,0,0,0	82.0	0.0	0.663	1,0,0,2,3,0,0,0,0	to_board	s605
6.976	0.739	0	UA_with_intermediate	1,0,0,0,0,0,3,0,0	practice	ward_and_allport	1,2,3,0,0,0,0,0,0	71.0	0.0	0.739	1,0,0,2,3,0,0,0,0	to_hand	s605
7.717	0.445	0	UA_with_intermediate	1,2,0,0,0,0,3,0,0	practice	ward_and_allport	1,2,3,0,0,0,0,0,0	89.0	0.0	0.445	1,0,0,2,3,0,0,0,0	to_board	s605
8.164	0.995	0	UA_with_intermediate	1,2,0,0,0,0,0,0,0	practice	ward_and_allport	1,2,3,0,0,0,0,0,0	82.0	0.0	0.995	1,0,0,2,3,0,0,0,0	to_hand	s605
9.161	0.501	0	UA_with_intermediate	1,2,3,0,0,0,0,0,0	practice	ward_and_allport	1,2,3,0,0,0,0,0,0	89.0	0.0	0.501	1,0,0,2,3,0,0,0,0	to_board	s605
9.668	1.0	0	UA_with_intermediate	n/a	practice	ward_and_allport	n/a	-1.0	0.0	n/a	n/a	feedback	s605
12.17	3.767	1	UA_with_intermediate	1,0,0,3,0,0,0,0,0	practice	ward_and_allport	1,3,2,0,0,0,0,0,0	89.0	1.0	3.767	1,2,0,3,0,0,0,0,0	to_hand	s605
15.938	1.578	0	UA_with_intermediate	1,0,0,3,0,0,2,0,0	practice	ward_and_allport	1,3,2,0,0,0,0,0,0	82.0	1.0	1.578	1,2,0,3,0,0,0,0,0	to_board	s605
17.518	0.854	0	UA_with_intermediate	1,0,0,0,0,0,2,0,0	practice	ward_and_allport	1,3,2,0,0,0,0,0,0	71.0	1.0	0.854	1,2,0,3,0,0,0,0,0	to_hand	s605
18.373	0.59	0	UA_with_intermediate	1,3,0,0,0,0,2,0,0	practice	ward_and_allport	1,3,2,0,0,0,0,0,0	89.0	1.0	0.59	1,2,0,3,0,0,0,0,0	to_board	s605
18.964	0.941	0	UA_with_intermediate	1,3,0,0,0,0,0,0,0	practice	ward_and_allport	1,3,2,0,0,0,0,0,0	82.0	1.0	0.941	1,2,0,3,0,0,0,0,0	to_hand	s605
19.906	0.391	0	UA_with_intermediate	1,3,2,0,0,0,0,0,0	practice	ward_and_allport	1,3,2,0,0,0,0,0,0	89.0	1.0	0.391	1,2,0,3,0,0,0,0,0	to_board	s605
20.303	1.0	0	UA_with_intermediate	n/a	practice	ward_and_allport	n/a	-1.0	1.0	n/a	n/a	feedback	s605
21.303	1.1	0	UA_with_intermediate	n/a	practice	ward_and_allport	n/a	-1.0	1.0	n/a	n/a	ITI	s605
22.404	2.338	1	UA_without_intermediate	0,0,0,1,2,0,0,0,0	practice	ward_and_allport	3,2,1,0,0,0,0,0,0	82.0	2.0	2.338	0,0,0,1,2,0,3,0,0	to_hand	s605
24.743	0.718	0	UA_without_intermediate	3,0,0,1,2,0,0,0,0	practice	ward_and_allport	3,2,1,0,0,0,0,0,0	89.0	2.0	0.718	0,0,0,1,2,0,3,0,0	to_board	s605
25.464	1.537	0	UA_without_intermediate	3,0,0,1,0,0,0,0,0	practice	ward_and_allport	3,2,1,0,0,0,0,0,0	71.0	2.0	1.537	0,0,0,1,2,0,3,0,0	to_hand	s605
27.002	0.815	0	UA_without_intermediate	3,2,0,1,0,0,0,0,0	practice	ward_and_allport	3,2,1,0,0,0,0,0,0	89.0	2.0	0.815	0,0,0,1,2,0,3,0,0	to_board	s605
27.82	0.552	0	UA_without_intermediate	3,2,0,0,0,0,0,0,0	practice	ward_and_allport	3,2,1,0,0,0,0,0,0	71.0	2.0	0.552	0,0,0,1,2,0,3,0,0	to_hand	s605
28.373	0.347	0	UA_without_intermediate	3,2,1,0,0,0,0,0,0	practice	ward_and_allport	3,2,1,0,0,0,0,0,0	89.0	2.0	0.347	0,0,0,1,2,0,3,0,0	to_board	s605
28.726	1.0	0	UA_without_intermediate	n/a	practice	ward_and_allport	n/a	-1.0	2.0	n/a	n/a	feedback	s605
29.726	1.2	0	UA_without_intermediate	n/a	practice	ward_and_allport	n/a	-1.0	2.0	n/a	n/a	ITI	s605
30.928	2.778	1	UA_without_intermediate	0,0,0,1,0,0,3,0,0	practice	ward_and_allport	2,3,1,0,0,0,0,0,0	71.0	3.0	2.778	0,0,0,1,2,0,3,0,0	to_hand	s605
33.708	0.404	0	UA_without_intermediate	2,0,0,1,0,0,3,0,0	practice	ward_and_allport	2,3,1,0,0,0,0,0,0	89.0	3.0	0.404	0,0,0,1,2,0,3,0,0	to_board	s605
34.114	0.949	0	UA_without_intermediate	2,0,0,1,0,0,0,0,0	practice	ward_and_allport	2,3,1,0,0,0,0,0,0	82.0	3.0	0.949	0,0,0,1,2,0,3,0,0	to_hand	s605
35.064	0.294	0	UA_without_intermediate	2,3,0,1,0,0,0,0,0	practice	ward_and_allport	2,3,1,0,0,0,0,0,0	89.0	3.0	0.294	0,0,0,1,2,0,3,0,0	to_board	s605
35.361	0.645	0	UA_without_intermediate	2,3,0,0,0,0,0,0,0	practice	ward_and_allport	2,3,1,0,0,0,0,0,0	71.0	3.0	0.645	0,0,0,1,2,0,3,0,0	to_hand	s605
36.007	0.237	0	UA_without_intermediate	2,3,1,0,0,0,0,0,0	practice	ward_and_allport	2,3,1,0,0,0,0,0,0	89.0	3.0	0.237	0,0,0,1,2,0,3,0,0	to_board	s605
36.248	1.0	0	UA_without_intermediate	n/a	practice	ward_and_allport	n/a	-1.0	3.0	n/a	n/a	feedback	s605
37.248	1.0	0	UA_without_intermediate	n/a	practice	ward_and_allport	n/a	-1.0	3.0	n/a	n/a	ITI	s605
40.255	5.18	1	PA_with_intermediate	0,0,0,0,0,0,1,2,0	test	ward_and_allport	0,0,0,2,3,0,1,0,0	82.0	0.0	5.18	0,0,0,0,0,0,1,2,3	to_hand	s605
45.437	0.491	0	PA_with_intermediate	3,0,0,0,0,0,1,2,0	test	ward_and_allport	0,0,0,2,3,0,1,0,0	89.0	0.0	0.491	0,0,0,0,0,0,1,2,3	to_board	s605
45.93	0.909	0	PA_with_intermediate	3,0,0,0,0,0,1,0,0	test	ward_and_allport	0,0,0,2,3,0,1,0,0	82.0	0.0	0.909	0,0,0,0,0,0,1,2,3	to_hand	s605
46.841	0.429	0	PA_with_intermediate	3,0,0,2,0,0,1,0,0	test	ward_and_allport	0,0,0,2,3,0,1,0,0	71.0	0.0	0.429	0,0,0,0,0,0,1,2,3	to_board	s605
47.272	0.977	0	PA_with_intermediate	0,0,0,2,0,0,1,0,0	test	ward_and_allport	0,0,0,2,3,0,1,0,0	89.0	0.0	0.977	0,0,0,0,0,0,1,2,3	to_hand	s605
48.25	0.815	0	PA_with_intermediate	0,0,0,2,3,0,1,0,0	test	ward_and_allport	0,0,0,2,3,0,1,0,0	71.0	0.0	0.815	0,0,0,0,0,0,1,2,3	to_board	s605
49.069	1.0	0	PA_with_intermediate	n/a	test	ward_and_allport	n/a	-1.0	0.0	n/a	n/a	feedback	s605
50.069	1.408	0	PA_with_intermediate	n/a	test	ward_and_allport	n/a	-1.0	0.0	n/a	n/a	ITI	s605
51.48	3.682	1	PA_without_intermediate	1,2,0,0,0,0,0,0,0	test	ward_and_allport	0,0,0,2,0,0,3,1,0	89.0	1.0	3.682	1,2,3,0,0,0,0,0,0	to_hand	s605
55.164	0.633	0	PA_without_intermediate	1,2,0,0,0,0,3,0,0	test	ward_and_allport	0,0,0,2,0,0,3,1,0	82.0	1.0	0.633	1,2,3,0,0,0,0,0,0	to_board	s605
55.799	1.738	0	PA_without_intermediate	1,0,0,0,0,0,3,0,0	test	ward_and_allport	0,0,0,2,0,0,3,1,0	89.0	1.0	1.738	1,2,3,0,0,0,0,0,0	to_hand	s605
57.538	0.776	0	PA_without_intermediate	1,0,0,2,0,0,3,0,0	test	ward_and_allport	0,0,0,2,0,0,3,1,0	71.0	1.0	0.776	1,2,3,0,0,0,0,0,0	to_board	s605
58.317	0.633	0	PA_without_intermediate	0,0,0,2,0,0,3,0,0	test	ward_and_allport	0,0,0,2,0,0,3,1,0	89.0	1.0	0.633	1,2,3,0,0,0,0,0,0	to_hand	s605
58.951	0.319	0	PA_without_intermediate	0,0,0,2,0,0,3,1,0	test	ward_and_allport	0,0,0,2,0,0,3,1,0	82.0	1.0	0.319	1,2,3,0,0,0,0,0,0	to_board	s605
59.276	1.0	0	PA_without_intermediate	n/a	test	ward_and_allport	n/a	-1.0	1.0	n/a	n/a	feedback	s605
60.276	1.68	0	PA_without_intermediate	n/a	test	ward_and_allport	n/a	-1.0	1.0	n/a	n/a	ITI	s605
61.959	2.937	1	PA_with_intermediate	0,0,0,0,0,0,1,2,0	test	ward_and_allport	2,0,0,0,0,0,1,3,0	82.0	2.0	2.937	0,0,0,0,0,0,1,2,3	to_hand	s605
64.897	1.323	0	PA_with_intermediate	0,0,0,3,0,0,1,2,0	test	ward_and_allport	2,0,0,0,0,0,1,3,0	71.0	2.0	1.323	0,0,0,0,0,0,1,2,3	to_board	s605
66.223	0.635	0	PA_with_intermediate	0,0,0,3,0,0,1,0,0	test	ward_and_allport	2,0,0,0,0,0,1,3,0	82.0	2.0	0.635	0,0,0,0,0,0,1,2,3	to_hand	s605
66.859	0.442	0	PA_with_intermediate	2,0,0,3,0,0,1,0,0	test	ward_and_allport	2,0,0,0,0,0,1,3,0	89.0	2.0	0.442	0,0,0,0,0,0,1,2,3	to_board	s605
67.304	1.445	0	PA_with_intermediate	2,0,0,0,0,0,1,0,0	test	ward_and_allport	2,0,0,0,0,0,1,3,0	71.0	2.0	1.445	0,0,0,0,0,0,1,2,3	to_hand	s605
68.75	0.58	0	PA_with_intermediate	2,0,0,0,0,0,1,3,0	test	ward_and_allport	2,0,0,0,0,0,1,3,0	82.0	2.0	0.58	0,0,0,0,0,0,1,2,3	to_board	s605
69.338	1.0	0	PA_with_intermediate	n/a	test	ward_and_allport	n/a	-1.0	2.0	n/a	n/a	feedback	s605
70.338	3.72	0	PA_with_intermediate	n/a	test	ward_and_allport	n/a	-1.0	2.0	n/a	n/a	ITI	s605
74.061	3.472	1	PA_without_intermediate	1,2,0,0,0,0,0,0,0	test	ward_and_allport	0,0,0,3,1,0,2,0,0	89.0	3.0	3.472	1,2,3,0,0,0,0,0,0	to_hand	s605
77.535	1.074	0	PA_without_intermediate	1,2,0,3,0,0,0,0,0	test	ward_and_allport	0,0,0,3,1,0,2,0,0	71.0	3.0	1.074	1,2,3,0,0,0,0,0,0	to_board	s605
78.612	1.102	0	PA_without_intermediate	1,0,0,3,0,0,0,0,0	test	ward_and_allport	0,0,0,3,1,0,2,0,0	89.0	3.0	1.102	1,2,3,0,0,0,0,0,0	to_hand	s605
79.715	0.479	0	PA_without_intermediate	1,0,0,3,0,0,2,0,0	test	ward_and_allport	0,0,0,3,1,0,2,0,0	82.0	3.0	0.479	1,2,3,0,0,0,0,0,0	to_board	s605
80.198	0.456	0	PA_without_intermediate	0,0,0,3,0,0,2,0,0	test	ward_and_allport	0,0,0,3,1,0,2,0,0	89.0	3.0	0.456	1,2,3,0,0,0,0,0,0	to_hand	s605
80.657	0.514	0	PA_without_intermediate	0,0,0,3,1,0,2,0,0	test	ward_and_allport	0,0,0,3,1,0,2,0,0	71.0	3.0	0.514	1,2,3,0,0,0,0,0,0	to_board	s605
81.175	1.0	0	PA_without_intermediate	n/a	test	ward_and_allport	n/a	-1.0	3.0	n/a	n/a	feedback	s605
82.175	2.224	0	PA_without_intermediate	n/a	test	ward_and_allport	n/a	-1.0	3.0	n/a	n/a	ITI	s605
84.402	2.476	1	PA_without_intermediate	1,2,0,0,0,0,0,0,0	test	ward_and_allport	0,0,0,3,2,0,1,0,0	89.0	4.0	2.476	1,2,3,0,0,0,0,0,0	to_hand	s605
86.878	0.653	0	PA_without_intermediate	1,2,0,3,0,0,0,0,0	test	ward_and_allport	0,0,0,3,2,0,1,0,0	71.0	4.0	0.653	1,2,3,0,0,0,0,0,0	to_board	s605
87.533	0.453	0	PA_without_intermediate	1,0,0,3,0,0,0,0,0	test	ward_and_allport	0,0,0,3,2,0,1,0,0	89.0	4.0	0.453	1,2,3,0,0,0,0,0,0	to_hand	s605
87.987	0.479	0	PA_without_intermediate	1,0,0,3,2,0,0,0,0	test	ward_and_allport	0,0,0,3,2,0,1,0,0	71.0	4.0	0.479	1,2,3,0,0,0,0,0,0	to_board	s605
88.469	0.291	0	PA_without_intermediate	0,0,0,3,2,0,0,0,0	test	ward_and_allport	0,0,0,3,2,0,1,0,0	89.0	4.0	0.291	1,2,3,0,0,0,0,0,0	to_hand	s605
88.762	0.334	0	PA_without_intermediate	0,0,0,3,2,0,1,0,0	test	ward_and_allport	0,0,0,3,2,0,1,0,0	82.0	4.0	0.334	1,2,3,0,0,0,0,0,0	to_board	s605
89.103	1.0	0	PA_without_intermediate	n/a	test	ward_and_allport	n/a	-1.0	4.0	n/a	n/a	feedback	s605
90.103	1.272	0	PA_without_intermediate	n/a	test	ward_and_allport	n/a	-1.0	4.0	n/a	n/a	ITI	s605
91.378	3.035	1	PA_with_intermediate	1,2,0,0,0,0,0,0,0	test	ward_and_allport	1,3,0,2,0,0,0,0,0	89.0	5.0	3.035	1,2,3,0,0,0,0,0,0	to_hand	s605
94.414	0.668	0	PA_with_intermediate	1,2,0,0,0,0,3,0,0	test	ward_and_allport	1,3,0,2,0,0,0,0,0	82.0	5.0	0.668	1,2,3,0,0,0,0,0,0	to_board	s605
95.085	0.576	0	PA_with_intermediate	1,0,0,0,0,0,3,0,0	test	ward_and_allport	1,3,0,2,0,0,0,0,0	89.0	5.0	0.576	1,2,3,0,0,0,0,0,0	to_hand	s605
95.663	0.677	0	PA_with_intermediate	1,0,0,2,0,0,3,0,0	test	ward_and_allport	1,3,0,2,0,0,0,0,0	71.0	5.0	0.677	1,2,3,0,0,0,0,0,0	to_board	s605
96.344	0.605	0	PA_with_intermediate	1,0,0,2,0,0,0,0,0	test	ward_and_allport	1,3,0,2,0,0,0,0,0	82.0	5.0	0.605	1,2,3,0,0,0,0,0,0	to_hand	s605
96.951	0.32	0	PA_with_intermediate	1,3,0,2,0,0,0,0,0	test	ward_and_allport	1,3,0,2,0,0,0,0,0	89.0	5.0	0.32	1,2,3,0,0,0,0,0,0	to_board	s605
97.276	1.0	0	PA_with_intermediate	n/a	test	ward_and_allport	n/a	-1.0	5.0	n/a	n/a	feedback	s605
98.276	2.632	0	PA_with_intermediate	n/a	test	ward_and_allport	n/a	-1.0	5.0	n/a	n/a	ITI	s605
100.912	2.314	1	PA_without_intermediate	0,0,0,0,0,0,1,2,0	test	ward_and_allport	3,1,0,2,0,0,0,0,0	82.0	6.0	2.314	0,0,0,0,0,0,1,2,3	to_hand	s605
103.227	0.309	0	PA_without_intermediate	3,0,0,0,0,0,1,2,0	test	ward_and_allport	3,1,0,2,0,0,0,0,0	89.0	6.0	0.309	0,0,0,0,0,0,1,2,3	to_board	s605
103.54	0.633	0	PA_without_intermediate	3,0,0,0,0,0,1,0,0	test	ward_and_allport	3,1,0,2,0,0,0,0,0	82.0	6.0	0.633	0,0,0,0,0,0,1,2,3	to_hand	s605
104.174	0.512	0	PA_without_intermediate	3,0,0,2,0,0,1,0,0	test	ward_and_allport	3,1,0,2,0,0,0,0,0	71.0	6.0	0.512	0,0,0,0,0,0,1,2,3	to_board	s605
104.689	0.433	0	PA_without_intermediate	3,0,0,2,0,0,0,0,0	test	ward_and_allport	3,1,0,2,0,0,0,0,0	82.0	6.0	0.433	0,0,0,0,0,0,1,2,3	to_hand	s605
105.123	0.258	0	PA_without_intermediate	3,1,0,2,0,0,0,0,0	test	ward_and_allport	3,1,0,2,0,0,0,0,0	89.0	6.0	0.258	0,0,0,0,0,0,1,2,3	to_board	s605
105.388	1.0	0	PA_without_intermediate	n/a	test	ward_and_allport	n/a	-1.0	6.0	n/a	n/a	feedback	s605
106.388	1.408	0	PA_without_intermediate	n/a	test	ward_and_allport	n/a	-1.0	6.0	n/a	n/a	ITI	s605
107.8	1.934	1	PA_without_intermediate	1,2,0,0,0,0,0,0,0	test	ward_and_allport	0,0,0,3,1,0,2,0,0	89.0	7.0	1.934	1,2,3,0,0,0,0,0,0	to_hand	s605
109.735	0.454	0	PA_without_intermediate	1,2,0,0,0,0,3,0,0	test	ward_and_allport	0,0,0,3,1,0,2,0,0	82.0	7.0	0.454	1,2,3,0,0,0,0,0,0	to_board	s605
110.193	1.0	0	PA_without_intermediate	1,0,0,0,0,0,3,0,0	test	ward_and_allport	0,0,0,3,1,0,2,0,0	89.0	7.0	1.0	1,2,3,0,0,0,0,0,0	to_hand	s605
111.193	1.752	0	PA_without_intermediate	1,2,0,0,0,0,3,0,0	test	ward_and_allport	0,0,0,3,1,0,2,0,0	89.0	7.0	1.752	1,2,3,0,0,0,0,0,0	to_board	s605
112.949	1.582	0	PA_without_intermediate	1,2,0,0,0,0,0,0,0	test	ward_and_allport	0,0,0,3,1,0,2,0,0	82.0	7.0	1.582	1,2,3,0,0,0,0,0,0	to_hand	s605
114.531	0.443	0	PA_without_intermediate	1,2,0,3,0,0,0,0,0	test	ward_and_allport	0,0,0,3,1,0,2,0,0	71.0	7.0	0.443	1,2,3,0,0,0,0,0,0	to_board	s605
114.978	1.21	0	PA_without_intermediate	1,0,0,3,0,0,0,0,0	test	ward_and_allport	0,0,0,3,1,0,2,0,0	89.0	7.0	1.21	1,2,3,0,0,0,0,0,0	to_hand	s605
116.19	0.601	0	PA_without_intermediate	1,0,0,3,0,0,2,0,0	test	ward_and_allport	0,0,0,3,1,0,2,0,0	82.0	7.0	0.601	1,2,3,0,0,0,0,0,0	to_board	s605
116.794	0.519	0	PA_without_intermediate	0,0,0,3,0,0,2,0,0	test	ward_and_allport	0,0,0,3,1,0,2,0,0	89.0	7.0	0.519	1,2,3,0,0,0,0,0,0	to_hand	s605
117.315	0.412	0	PA_without_intermediate	0,0,0,3,1,0,2,0,0	test	ward_and_allport	0,0,0,3,1,0,2,0,0	71.0	7.0	0.412	1,2,3,0,0,0,0,0,0	to_board	s605
117.733	1.0	0	PA_without_intermediate	n/a	test	ward_and_allport	n/a	-1.0	7.0	n/a	n/a	feedback	s605
118.733	1.0	0	PA_without_intermediate	n/a	test	ward_and_allport	n/a	-1.0	7.0	n/a	n/a	ITI	s605
119.736	2.761	1	PA_with_intermediate	1,2,0,0,0,0,0,0,0	test	ward_and_allport	1,0,0,2,3,0,0,0,0	89.0	8.0	2.761	1,2,3,0,0,0,0,0,0	to_hand	s605
122.498	0.508	0	PA_with_intermediate	1,2,0,0,0,0,3,0,0	test	ward_and_allport	1,0,0,2,3,0,0,0,0	82.0	8.0	0.508	1,2,3,0,0,0,0,0,0	to_board	s605
123.01	0.564	0	PA_with_intermediate	1,0,0,0,0,0,3,0,0	test	ward_and_allport	1,0,0,2,3,0,0,0,0	89.0	8.0	0.564	1,2,3,0,0,0,0,0,0	to_hand	s605
123.574	0.548	0	PA_with_intermediate	1,0,0,2,0,0,3,0,0	test	ward_and_allport	1,0,0,2,3,0,0,0,0	71.0	8.0	0.548	1,2,3,0,0,0,0,0,0	to_board	s605
124.127	0.839	0	PA_with_intermediate	1,0,0,2,0,0,0,0,0	test	ward_and_allport	1,0,0,2,3,0,0,0,0	82.0	8.0	0.839	1,2,3,0,0,0,0,0,0	to_hand	s605
124.966	0.504	0	PA_with_intermediate	1,0,0,2,3,0,0,0,0	test	ward_and_allport	1,0,0,2,3,0,0,0,0	71.0	8.0	0.504	1,2,3,0,0,0,0,0,0	to_board	s605
125.478	1.0	0	PA_with_intermediate	n/a	test	ward_and_allport	n/a	-1.0	8.0	n/a	n/a	feedback	s605
126.478	1.0	0	PA_with_intermediate	n/a	test	ward_and_allport	n/a	-1.0	8.0	n/a	n/a	ITI	s605
127.482	2.773	1	PA_with_intermediate	0,0,0,0,0,0,1,2,0	test	ward_and_allport	0,0,0,2,3,0,1,0,0	82.0	9.0	2.773	0,0,0,0,0,0,1,2,3	to_hand	s605
130.256	0.448	0	PA_with_intermediate	3,0,0,0,0,0,1,2,0	test	ward_and_allport	0,0,0,2,3,0,1,0,0	89.0	9.0	0.448	0,0,0,0,0,0,1,2,3	to_board	s605
130.709	1.06	0	PA_with_intermediate	3,0,0,0,0,0,1,0,0	test	ward_and_allport	0,0,0,2,3,0,1,0,0	82.0	9.0	1.06	0,0,0,0,0,0,1,2,3	to_hand	s605
131.77	0.524	0	PA_with_intermediate	3,0,0,2,0,0,1,0,0	test	ward_and_allport	0,0,0,2,3,0,1,0,0	71.0	9.0	0.524	0,0,0,0,0,0,1,2,3	to_board	s605
132.298	0.419	0	PA_with_intermediate	0,0,0,2,0,0,1,0,0	test	ward_and_allport	0,0,0,2,3,0,1,0,0	89.0	9.0	0.419	0,0,0,0,0,0,1,2,3	to_hand	s605
132.718	0.754	0	PA_with_intermediate	0,0,0,2,3,0,1,0,0	test	ward_and_allport	0,0,0,2,3,0,1,0,0	71.0	9.0	0.754	0,0,0,0,0,0,1,2,3	to_board	s605
133.476	1.0	0	PA_with_intermediate	n/a	test	ward_and_allport	n/a	-1.0	9.0	n/a	n/a	feedback	s605
134.476	1.0	0	PA_with_intermediate	n/a	test	ward_and_allport	n/a	-1.0	9.0	n/a	n/a	ITI	s605
135.482	4.45	1	PA_with_intermediate	0,0,0,1,2,0,0,0,0	test	ward_and_allport	0,0,0,1,3,0,2,0,0	71.0	10.0	4.45	0,0,0,1,2,3,0,0,0	to_hand	s605
139.933	0.391	0	PA_with_intermediate	3,0,0,1,2,0,0,0,0	test	ward_and_allport	0,0,0,1,3,0,2,0,0	89.0	10.0	0.391	0,0,0,1,2,3,0,0,0	to_board	s605
140.33	1.236	0	PA_with_intermediate	3,0,0,1,0,0,0,0,0	test	ward_and_allport	0,0,0,1,3,0,2,0,0	71.0	10.0	1.236	0,0,0,1,2,3,0,0,0	to_hand	s605
141.567	0.344	0	PA_with_intermediate	3,0,0,1,0,0,2,0,0	test	ward_and_allport	0,0,0,1,3,0,2,0,0	82.0	10.0	0.344	0,0,0,1,2,3,0,0,0	to_board	s605
141.919	1.093	0	PA_with_intermediate	0,0,0,1,0,0,2,0,0	test	ward_and_allport	0,0,0,1,3,0,2,0,0	89.0	10.0	1.093	0,0,0,1,2,3,0,0,0	to_hand	s605
143.015	0.315	0	PA_with_intermediate	0,0,0,1,3,0,2,0,0	test	ward_and_allport	0,0,0,1,3,0,2,0,0	71.0	10.0	0.315	0,0,0,1,2,3,0,0,0	to_board	s605
143.336	1.0	0	PA_with_intermediate	n/a	test	ward_and_allport	n/a	-1.0	10.0	n/a	n/a	feedback	s605
144.336	1.408	0	PA_with_intermediate	n/a	test	ward_and_allport	n/a	-1.0	10.0	n/a	n/a	ITI	s605
145.749	4.381	1	PA_without_intermediate	1,2,0,0,0,0,0,0,0	test	ward_and_allport	0,0,0,3,2,0,1,0,0	89.0	11.0	4.381	1,2,3,0,0,0,0,0,0	to_hand	s605
150.131	0.843	0	PA_without_intermediate	1,2,0,3,0,0,0,0,0	test	ward_and_allport	0,0,0,3,2,0,1,0,0	71.0	11.0	0.843	1,2,3,0,0,0,0,0,0	to_board	s605
150.979	1.237	0	PA_without_intermediate	1,0,0,3,0,0,0,0,0	test	ward_and_allport	0,0,0,3,2,0,1,0,0	89.0	11.0	1.237	1,2,3,0,0,0,0,0,0	to_hand	s605
152.218	0.56	0	PA_without_intermediate	1,0,0,3,2,0,0,0,0	test	ward_and_allport	0,0,0,3,2,0,1,0,0	71.0	11.0	0.56	1,2,3,0,0,0,0,0,0	to_board	s605
152.784	0.495	0	PA_without_intermediate	0,0,0,3,2,0,0,0,0	test	ward_and_allport	0,0,0,3,2,0,1,0,0	89.0	11.0	0.495	1,2,3,0,0,0,0,0,0	to_hand	s605
153.281	0.61	0	PA_without_intermediate	0,0,0,3,2,0,1,0,0	test	ward_and_allport	0,0,0,3,2,0,1,0,0	82.0	11.0	0.61	1,2,3,0,0,0,0,0,0	to_board	s605
153.899	1.0	0	PA_without_intermediate	n/a	test	ward_and_allport	n/a	-1.0	11.0	n/a	n/a	feedback	s605
154.899	1.816	0	PA_without_intermediate	n/a	test	ward_and_allport	n/a	-1.0	11.0	n/a	n/a	ITI	s605
156.72	2.868	1	PA_with_intermediate	0,0,0,1,2,0,0,0,0	test	ward_and_allport	2,0,0,1,3,0,0,0,0	71.0	12.0	2.868	0,0,0,1,2,3,0,0,0	to_hand	s605
159.589	0.475	0	PA_with_intermediate	0,0,0,1,2,0,3,0,0	test	ward_and_allport	2,0,0,1,3,0,0,0,0	82.0	12.0	0.475	0,0,0,1,2,3,0,0,0	to_board	s605
160.068	0.641	0	PA_with_intermediate	0,0,0,1,0,0,3,0,0	test	ward_and_allport	2,0,0,1,3,0,0,0,0	71.0	12.0	0.641	0,0,0,1,2,3,0,0,0	to_hand	s605
160.71	0.376	0	PA_with_intermediate	2,0,0,1,0,0,3,0,0	test	ward_and_allport	2,0,0,1,3,0,0,0,0	89.0	12.0	0.376	0,0,0,1,2,3,0,0,0	to_board	s605
161.09	0.817	0	PA_with_intermediate	2,0,0,1,0,0,0,0,0	test	ward_and_allport	2,0,0,1,3,0,0,0,0	82.0	12.0	0.817	0,0,0,1,2,3,0,0,0	to_hand	s605
161.909	0.455	0	PA_with_intermediate	2,0,0,1,3,0,0,0,0	test	ward_and_allport	2,0,0,1,3,0,0,0,0	71.0	12.0	0.455	0,0,0,1,2,3,0,0,0	to_board	s605
162.37	1.0	0	PA_with_intermediate	n/a	test	ward_and_allport	n/a	-1.0	12.0	n/a	n/a	feedback	s605
163.37	3.176	0	PA_with_intermediate	n/a	test	ward_and_allport	n/a	-1.0	12.0	n/a	n/a	ITI	s605
166.55	2.173	1	PA_with_intermediate	0,0,0,0,0,0,1,2,0	test	ward_and_allport	2,3,0,0,0,0,1,0,0	82.0	13.0	2.173	0,0,0,0,0,0,1,2,3	to_hand	s605
168.725	1.142	0	PA_with_intermediate	0,0,0,3,0,0,1,2,0	test	ward_and_allport	2,3,0,0,0,0,1,0,0	71.0	13.0	1.142	0,0,0,0,0,0,1,2,3	to_board	s605
169.872	0.605	0	PA_with_intermediate	0,0,0,3,0,0,1,0,0	test	ward_and_allport	2,3,0,0,0,0,1,0,0	82.0	13.0	0.605	0,0,0,0,0,0,1,2,3	to_hand	s605
170.479	0.464	0	PA_with_intermediate	2,0,0,3,0,0,1,0,0	test	ward_and_allport	2,3,0,0,0,0,1,0,0	89.0	13.0	0.464	0,0,0,0,0,0,1,2,3	to_board	s605
170.948	0.567	0	PA_with_intermediate	2,0,0,0,0,0,1,0,0	test	ward_and_allport	2,3,0,0,0,0,1,0,0	71.0	13.0	0.567	0,0,0,0,0,0,1,2,3	to_hand	s605
171.516	0.36	0	PA_with_intermediate	2,3,0,0,0,0,1,0,0	test	ward_and_allport	2,3,0,0,0,0,1,0,0	89.0	13.0	0.36	0,0,0,0,0,0,1,2,3	to_board	s605
171.885	1.0	0	PA_with_intermediate	n/a	test	ward_and_allport	n/a	-1.0	13.0	n/a	n/a	feedback	s605
172.885	2.36	0	PA_with_intermediate	n/a	test	ward_and_allport	n/a	-1.0	13.0	n/a	n/a	ITI	s605
175.25	2.735	1	PA_with_intermediate	1,2,0,0,0,0,0,0,0	test	ward_and_allport	1,3,0,2,0,0,0,0,0	89.0	14.0	2.735	1,2,3,0,0,0,0,0,0	to_hand	s605
177.987	0.423	0	PA_with_intermediate	1,2,0,0,0,0,3,0,0	test	ward_and_allport	1,3,0,2,0,0,0,0,0	82.0	14.0	0.423	1,2,3,0,0,0,0,0,0	to_board	s605
178.415	0.404	0	PA_with_intermediate	1,0,0,0,0,0,3,0,0	test	ward_and_allport	1,3,0,2,0,0,0,0,0	89.0	14.0	0.404	1,2,3,0,0,0,0,0,0	to_hand	s605
178.821	0.432	0	PA_with_intermediate	1,0,0,2,0,0,3,0,0	test	ward_and_allport	1,3,0,2,0,0,0,0,0	71.0	14.0	0.432	1,2,3,0,0,0,0,0,0	to_board	s605
179.258	0.531	0	PA_with_intermediate	1,0,0,2,0,0,0,0,0	test	ward_and_allport	1,3,0,2,0,0,0,0,0	82.0	14.0	0.531	1,2,3,0,0,0,0,0,0	to_hand	s605
179.791	0.264	0	PA_with_intermediate	1,3,0,2,0,0,0,0,0	test	ward_and_allport	1,3,0,2,0,0,0,0,0	89.0	14.0	0.264	1,2,3,0,0,0,0,0,0	to_board	s605
180.062	1.0	0	PA_with_intermediate	n/a	test	ward_and_allport	n/a	-1.0	14.0	n/a	n/a	feedback	s605
181.062	1.0	0	PA_with_intermediate	n/a	test	ward_and_allport	n/a	-1.0	14.0	n/a	n/a	ITI	s605
187.068	6.639	1	PA_without_intermediate	0,0,0,1,2,0,0,0,0	test	ward_and_allport	1,0,0,0,0,0,3,2,0	71.0	15.0	6.639	0,0,0,1,2,3,0,0,0	to_hand	s605
193.708	0.425	0	PA_without_intermediate	0,0,0,1,2,0,3,0,0	test	ward_and_allport	1,0,0,0,0,0,3,2,0	82.0	15.0	0.425	0,0,0,1,2,3,0,0,0	to_board	s605
194.138	0.439	0	PA_without_intermediate	0,0,0,1,0,0,3,0,0	test	ward_and_allport	1,0,0,0,0,0,3,2,0	71.0	15.0	0.439	0,0,0,1,2,3,0,0,0	to_hand	s605
194.579	0.441	0	PA_without_intermediate	0,0,0,1,0,0,3,2,0	test	ward_and_allport	1,0,0,0,0,0,3,2,0	82.0	15.0	0.441	0,0,0,1,2,3,0,0,0	to_board	s605
195.025	1.647	0	PA_without_intermediate	0,0,0,0,0,0,3,2,0	test	ward_and_allport	1,0,0,0,0,0,3,2,0	71.0	15.0	1.647	0,0,0,1,2,3,0,0,0	to_hand	s605
196.673	0.373	0	PA_without_intermediate	1,0,0,0,0,0,3,2,0	test	ward_and_allport	1,0,0,0,0,0,3,2,0	89.0	15.0	0.373	0,0,0,1,2,3,0,0,0	to_board	s605
197.056	1.0	0	PA_without_intermediate	n/a	test	ward_and_allport	n/a	-1.0	15.0	n/a	n/a	feedback	s605
198.056	1.408	0	PA_without_intermediate	n/a	test	ward_and_allport	n/a	-1.0	15.0	n/a	n/a	ITI	s605
199.469	2.972	1	PA_with_intermediate	1,2,0,0,0,0,0,0,0	test	ward_and_allport	1,0,0,0,0,0,2,3,0	89.0	16.0	2.972	1,2,3,0,0,0,0,0,0	to_hand	s605
202.442	0.977	0	PA_with_intermediate	1,2,0,3,0,0,0,0,0	test	ward_and_allport	1,0,0,0,0,0,2,3,0	71.0	16.0	0.977	1,2,3,0,0,0,0,0,0	to_board	s605
203.424	0.514	0	PA_with_intermediate	1,0,0,3,0,0,0,0,0	test	ward_and_allport	1,0,0,0,0,0,2,3,0	89.0	16.0	0.514	1,2,3,0,0,0,0,0,0	to_hand	s605
203.939	0.493	0	PA_with_intermediate	1,0,0,3,0,0,2,0,0	test	ward_and_allport	1,0,0,0,0,0,2,3,0	82.0	16.0	0.493	1,2,3,0,0,0,0,0,0	to_board	s605
204.437	0.427	0	PA_with_intermediate	1,0,0,0,0,0,2,0,0	test	ward_and_allport	1,0,0,0,0,0,2,3,0	71.0	16.0	0.427	1,2,3,0,0,0,0,0,0	to_hand	s605
204.865	0.354	0	PA_with_intermediate	1,0,0,0,0,0,2,3,0	test	ward_and_allport	1,0,0,0,0,0,2,3,0	82.0	16.0	0.354	1,2,3,0,0,0,0,0,0	to_board	s605
205.229	1.0	0	PA_with_intermediate	n/a	test	ward_and_allport	n/a	-1.0	16.0	n/a	n/a	feedback	s605
206.229	1.816	0	PA_with_intermediate	n/a	test	ward_and_allport	n/a	-1.0	16.0	n/a	n/a	ITI	s605
208.052	2.56	1	PA_without_intermediate	0,0,0,1,2,0,0,0,0	test	ward_and_allport	3,2,0,0,0,0,1,0,0	71.0	17.0	2.56	0,0,0,1,2,3,0,0,0	to_hand	s605
210.614	0.511	0	PA_without_intermediate	3,0,0,1,2,0,0,0,0	test	ward_and_allport	3,2,0,0,0,0,1,0,0	89.0	17.0	0.511	0,0,0,1,2,3,0,0,0	to_board	s605
211.131	0.472	0	PA_without_intermediate	3,0,0,1,0,0,0,0,0	test	ward_and_allport	3,2,0,0,0,0,1,0,0	71.0	17.0	0.472	0,0,0,1,2,3,0,0,0	to_hand	s605
211.604	0.384	0	PA_without_intermediate	3,2,0,1,0,0,0,0,0	test	ward_and_allport	3,2,0,0,0,0,1,0,0	89.0	17.0	0.384	0,0,0,1,2,3,0,0,0	to_board	s605
211.994	0.371	0	PA_without_intermediate	3,2,0,0,0,0,0,0,0	test	ward_and_allport	3,2,0,0,0,0,1,0,0	71.0	17.0	0.371	0,0,0,1,2,3,0,0,0	to_hand	s605
212.367	0.427	0	PA_without_intermediate	3,2,0,0,0,0,1,0,0	test	ward_and_allport	3,2,0,0,0,0,1,0,0	82.0	17.0	0.427	0,0,0,1,2,3,0,0,0	to_board	s605
212.803	1.0	0	PA_without_intermediate	n/a	test	ward_and_allport	n/a	-1.0	17.0	n/a	n/a	feedback	s605
213.803	2.088	0	PA_without_intermediate	n/a	test	ward_and_allport	n/a	-1.0	17.0	n/a	n/a	ITI	s605
215.896	2.656	1	PA_without_intermediate	1,2,0,0,0,0,0,0,0	test	ward_and_allport	0,0,0,2,0,0,3,1,0	89.0	18.0	2.656	1,2,3,0,0,0,0,0,0	to_hand	s605
218.554	0.398	0	PA_without_intermediate	1,2,0,0,0,0,3,0,0	test	ward_and_allport	0,0,0,2,0,0,3,1,0	82.0	18.0	0.398	1,2,3,0,0,0,0,0,0	to_board	s605
218.958	1.706	0	PA_without_intermediate	1,0,0,0,0,0,3,0,0	test	ward_and_allport	0,0,0,2,0,0,3,1,0	89.0	18.0	1.706	1,2,3,0,0,0,0,0,0	to_hand	s605
220.666	0.334	0	PA_without_intermediate	1,0,0,2,0,0,3,0,0	test	ward_and_allport	0,0,0,2,0,0,3,1,0	71.0	18.0	0.334	1,2,3,0,0,0,0,0,0	to_board	s605
221.004	0.385	0	PA_without_intermediate	0,0,0,2,0,0,3,0,0	test	ward_and_allport	0,0,0,2,0,0,3,1,0	89.0	18.0	0.385	1,2,3,0,0,0,0,0,0	to_hand	s605
221.39	0.317	0	PA_without_intermediate	0,0,0,2,0,0,3,1,0	test	ward_and_allport	0,0,0,2,0,0,3,1,0	82.0	18.0	0.317	1,2,3,0,0,0,0,0,0	to_board	s605
221.713	1.0	0	PA_without_intermediate	n/a	test	ward_and_allport	n/a	-1.0	18.0	n/a	n/a	feedback	s605
222.713	1.136	0	PA_without_intermediate	n/a	test	ward_and_allport	n/a	-1.0	18.0	n/a	n/a	ITI	s605
223.854	4.038	1	PA_without_intermediate	0,0,0,0,0,0,1,2,0	test	ward_and_allport	1,0,0,3,2,0,0,0,0	82.0	19.0	4.038	0,0,0,0,0,0,1,2,3	to_hand	s605
227.893	0.571	0	PA_without_intermediate	0,0,0,3,0,0,1,2,0	test	ward_and_allport	1,0,0,3,2,0,0,0,0	71.0	19.0	0.571	0,0,0,0,0,0,1,2,3	to_board	s605
228.471	1.243	0	PA_without_intermediate	0,0,0,3,0,0,1,0,0	test	ward_and_allport	1,0,0,3,2,0,0,0,0	82.0	19.0	1.243	0,0,0,0,0,0,1,2,3	to_hand	s605
229.715	0.306	0	PA_without_intermediate	0,0,0,3,2,0,1,0,0	test	ward_and_allport	1,0,0,3,2,0,0,0,0	71.0	19.0	0.306	0,0,0,0,0,0,1,2,3	to_board	s605
230.028	0.963	0	PA_without_intermediate	0,0,0,3,2,0,0,0,0	test	ward_and_allport	1,0,0,3,2,0,0,0,0	82.0	19.0	0.963	0,0,0,0,0,0,1,2,3	to_hand	s605
230.992	0.247	0	PA_without_intermediate	1,0,0,3,2,0,0,0,0	test	ward_and_allport	1,0,0,3,2,0,0,0,0	89.0	19.0	0.247	0,0,0,0,0,0,1,2,3	to_board	s605
231.246	1.0	0	PA_without_intermediate	n/a	test	ward_and_allport	n/a	-1.0	19.0	n/a	n/a	feedback	s605
232.246	6.168	0	PA_without_intermediate	n/a	test	ward_and_allport	n/a	-1.0	19.0	n/a	n/a	ITI	s605
238.42	2.403	1	PA_without_intermediate	0,0,0,1,2,0,0,0,0	test	ward_and_allport	2,0,0,0,0,0,3,1,0	71.0	20.0	2.403	0,0,0,1,2,3,0,0,0	to_hand	s605
240.824	0.448	0	PA_without_intermediate	0,0,0,1,2,0,3,0,0	test	ward_and_allport	2,0,0,0,0,0,3,1,0	82.0	20.0	0.448	0,0,0,1,2,3,0,0,0	to_board	s605
241.279	0.943	0	PA_without_intermediate	0,0,0,1,0,0,3,0,0	test	ward_and_allport	2,0,0,0,0,0,3,1,0	71.0	20.0	0.943	0,0,0,1,2,3,0,0,0	to_hand	s605
242.223	0.361	0	PA_without_intermediate	2,0,0,1,0,0,3,0,0	test	ward_and_allport	2,0,0,0,0,0,3,1,0	89.0	20.0	0.361	0,0,0,1,2,3,0,0,0	to_board	s605
242.59	0.343	0	PA_without_intermediate	2,0,0,0,0,0,3,0,0	test	ward_and_allport	2,0,0,0,0,0,3,1,0	71.0	20.0	0.343	0,0,0,1,2,3,0,0,0	to_hand	s605
242.934	0.347	0	PA_without_intermediate	2,0,0,0,0,0,3,1,0	test	ward_and_allport	2,0,0,0,0,0,3,1,0	82.0	20.0	0.347	0,0,0,1,2,3,0,0,0	to_board	s605
243.291	1.0	0	PA_without_intermediate	n/a	test	ward_and_allport	n/a	-1.0	20.0	n/a	n/a	feedback	s605
244.291	1.816	0	PA_without_intermediate	n/a	test	ward_and_allport	n/a	-1.0	20.0	n/a	n/a	ITI	s605
246.113	2.957	1	PA_with_intermediate	0,0,0,0,0,0,1,2,0	test	ward_and_allport	2,3,0,0,0,0,1,0,0	82.0	21.0	2.957	0,0,0,0,0,0,1,2,3	to_hand	s605
249.072	1.269	0	PA_with_intermediate	0,0,0,3,0,0,1,2,0	test	ward_and_allport	2,3,0,0,0,0,1,0,0	71.0	21.0	1.269	0,0,0,0,0,0,1,2,3	to_board	s605
250.347	0.341	0	PA_with_intermediate	0,0,0,3,0,0,1,0,0	test	ward_and_allport	2,3,0,0,0,0,1,0,0	82.0	21.0	0.341	0,0,0,0,0,0,1,2,3	to_hand	s605
250.69	0.352	0	PA_with_intermediate	2,0,0,3,0,0,1,0,0	test	ward_and_allport	2,3,0,0,0,0,1,0,0	89.0	21.0	0.352	0,0,0,0,0,0,1,2,3	to_board	s605
251.048	0.703	0	PA_with_intermediate	2,0,0,0,0,0,1,0,0	test	ward_and_allport	2,3,0,0,0,0,1,0,0	71.0	21.0	0.703	0,0,0,0,0,0,1,2,3	to_hand	s605
251.753	0.271	0	PA_with_intermediate	2,3,0,0,0,0,1,0,0	test	ward_and_allport	2,3,0,0,0,0,1,0,0	89.0	21.0	0.271	0,0,0,0,0,0,1,2,3	to_board	s605
252.034	1.0	0	PA_with_intermediate	n/a	test	ward_and_allport	n/a	-1.0	21.0	n/a	n/a	feedback	s605
253.034	1.952	0	PA_with_intermediate	n/a	test	ward_and_allport	n/a	-1.0	21.0	n/a	n/a	ITI	s605
254.991	3.585	1	PA_with_intermediate	0,0,0,0,0,0,1,2,0	test	ward_and_allport	0,0,0,2,0,0,1,3,0	82.0	22.0	3.585	0,0,0,0,0,0,1,2,3	to_hand	s605
258.577	1.553	0	PA_with_intermediate	3,0,0,0,0,0,1,2,0	test	ward_and_allport	0,0,0,2,0,0,1,3,0	89.0	22.0	1.553	0,0,0,0,0,0,1,2,3	to_board	s605
260.137	0.728	0	PA_with_intermediate	3,0,0,0,0,0,1,0,0	test	ward_and_allport	0,0,0,2,0,0,1,3,0	82.0	22.0	0.728	0,0,0,0,0,0,1,2,3	to_hand	s605
260.866	0.854	0	PA_with_intermediate	3,0,0,2,0,0,1,0,0	test	ward_and_allport	0,0,0,2,0,0,1,3,0	71.0	22.0	0.854	0,0,0,0,0,0,1,2,3	to_board	s605
261.727	0.641	0	PA_with_intermediate	0,0,0,2,0,0,1,0,0	test	ward_and_allport	0,0,0,2,0,0,1,3,0	89.0	22.0	0.641	0,0,0,0,0,0,1,2,3	to_hand	s605
262.37	0.346	0	PA_with_intermediate	0,0,0,2,0,0,1,3,0	test	ward_and_allport	0,0,0,2,0,0,1,3,0	82.0	22.0	0.346	0,0,0,0,0,0,1,2,3	to_board	s605
262.727	1.0	0	PA_with_intermediate	n/a	test	ward_and_allport	n/a	-1.0	22.0	n/a	n/a	feedback	s605
263.727	1.136	0	PA_with_intermediate	n/a	test	ward_and_allport	n/a	-1.0	22.0	n/a	n/a	ITI	s605
264.871	11.606	1	PA_without_intermediate	0,0,0,0,0,0,1,2,0	test	ward_and_allport	2,0,0,3,1,0,0,0,0	82.0	23.0	11.606	0,0,0,0,0,0,1,2,3	to_hand	s605
276.478	0.697	0	PA_without_intermediate	3,0,0,0,0,0,1,2,0	test	ward_and_allport	2,0,0,3,1,0,0,0,0	89.0	23.0	0.697	0,0,0,0,0,0,1,2,3	to_board	s605
277.183	1.221	0	PA_without_intermediate	0,0,0,0,0,0,1,2,0	test	ward_and_allport	2,0,0,3,1,0,0,0,0	89.0	23.0	1.221	0,0,0,0,0,0,1,2,3	to_hand	s605
278.405	0.678	0	PA_without_intermediate	0,0,0,3,0,0,1,2,0	test	ward_and_allport	2,0,0,3,1,0,0,0,0	71.0	23.0	0.678	0,0,0,0,0,0,1,2,3	to_board	s605
279.09	0.907	0	PA_without_intermediate	0,0,0,3,0,0,1,0,0	test	ward_and_allport	2,0,0,3,1,0,0,0,0	82.0	23.0	0.907	0,0,0,0,0,0,1,2,3	to_hand	s605
279.998	0.334	0	PA_without_intermediate	2,0,0,3,0,0,1,0,0	test	ward_and_allport	2,0,0,3,1,0,0,0,0	89.0	23.0	0.334	0,0,0,0,0,0,1,2,3	to_board	s605
280.339	1.363	0	PA_without_intermediate	2,0,0,3,0,0,0,0,0	test	ward_and_allport	2,0,0,3,1,0,0,0,0	82.0	23.0	1.363	0,0,0,0,0,0,1,2,3	to_hand	s605
281.704	0.705	0	PA_without_intermediate	2,0,0,3,1,0,0,0,0	test	ward_and_allport	2,0,0,3,1,0,0,0,0	71.0	23.0	0.705	0,0,0,0,0,0,1,2,3	to_board	s605
282.418	1.0	0	PA_without_intermediate	n/a	test	ward_and_allport	n/a	-1.0	23.0	n/a	n/a	feedback	s605
283.418	1.68	0	PA_without_intermediate	n/a	test	ward_and_allport	n/a	-1.0	23.0	n/a	n/a	ITI	s605
285.106	3.052	1	PA_without_intermediate	0,0,0,1,2,0,0,0,0	test	ward_and_allport	1,0,0,0,0,0,3,2,0	71.0	24.0	3.052	0,0,0,1,2,3,0,0,0	to_hand	s605
288.16	0.355	0	PA_without_intermediate	0,0,0,1,2,0,3,0,0	test	ward_and_allport	1,0,0,0,0,0,3,2,0	82.0	24.0	0.355	0,0,0,1,2,3,0,0,0	to_board	s605
288.523	1.349	0	PA_without_intermediate	0,0,0,1,0,0,3,0,0	test	ward_and_allport	1,0,0,0,0,0,3,2,0	71.0	24.0	1.349	0,0,0,1,2,3,0,0,0	to_hand	s605
289.874	0.329	0	PA_without_intermediate	0,0,0,1,0,0,3,2,0	test	ward_and_allport	1,0,0,0,0,0,3,2,0	82.0	24.0	0.329	0,0,0,1,2,3,0,0,0	to_board	s605
290.211	0.778	0	PA_without_intermediate	0,0,0,0,0,0,3,2,0	test	ward_and_allport	1,0,0,0,0,0,3,2,0	71.0	24.0	0.778	0,0,0,1,2,3,0,0,0	to_hand	s605
290.99	0.275	0	PA_without_intermediate	1,0,0,0,0,0,3,2,0	test	ward_and_allport	1,0,0,0,0,0,3,2,0	89.0	24.0	0.275	0,0,0,1,2,3,0,0,0	to_board	s605
291.275	1.0	0	PA_without_intermediate	n/a	test	ward_and_allport	n/a	-1.0	24.0	n/a	n/a	feedback	s605
292.275	2.088	0	PA_without_intermediate	n/a	test	ward_and_allport	n/a	-1.0	24.0	n/a	n/a	ITI	s605
294.369	5.848	1	PA_with_intermediate	0,0,0,1,2,0,0,0,0	test	ward_and_allport	0,0,0,1,0,0,2,3,0	71.0	25.0	5.848	0,0,0,1,2,3,0,0,0	to_hand	s605
300.219	2.22	0	PA_with_intermediate	3,0,0,1,2,0,0,0,0	test	ward_and_allport	0,0,0,1,0,0,2,3,0	89.0	25.0	2.22	0,0,0,1,2,3,0,0,0	to_board	s605
302.447	0.452	0	PA_with_intermediate	3,0,0,1,0,0,0,0,0	test	ward_and_allport	0,0,0,1,0,0,2,3,0	71.0	25.0	0.452	0,0,0,1,2,3,0,0,0	to_hand	s605
302.899	0.471	0	PA_with_intermediate	3,0,0,1,0,0,2,0,0	test	ward_and_allport	0,0,0,1,0,0,2,3,0	82.0	25.0	0.471	0,0,0,1,2,3,0,0,0	to_board	s605
303.379	0.505	0	PA_with_intermediate	0,0,0,1,0,0,2,0,0	test	ward_and_allport	0,0,0,1,0,0,2,3,0	89.0	25.0	0.505	0,0,0,1,2,3,0,0,0	to_hand	s605
303.885	0.527	0	PA_with_intermediate	0,0,0,1,0,0,2,3,0	test	ward_and_allport	0,0,0,1,0,0,2,3,0	82.0	25.0	0.527	0,0,0,1,2,3,0,0,0	to_board	s605
304.42	1.0	0	PA_with_intermediate	n/a	test	ward_and_allport	n/a	-1.0	25.0	n/a	n/a	feedback	s605
305.42	1.0	0	PA_with_intermediate	n/a	test	ward_and_allport	n/a	-1.0	25.0	n/a	n/a	ITI	s605
306.428	2.919	1	PA_without_intermediate	0,0,0,0,0,0,1,2,0	test	ward_and_allport	1,0,0,3,2,0,0,0,0	82.0	26.0	2.919	0,0,0,0,0,0,1,2,3	to_hand	s605
309.348	0.428	0	PA_without_intermediate	0,0,0,3,0,0,1,2,0	test	ward_and_allport	1,0,0,3,2,0,0,0,0	71.0	26.0	0.428	0,0,0,0,0,0,1,2,3	to_board	s605
309.784	0.76	0	PA_without_intermediate	0,0,0,3,0,0,1,0,0	test	ward_and_allport	1,0,0,3,2,0,0,0,0	82.0	26.0	0.76	0,0,0,0,0,0,1,2,3	to_hand	s605
310.546	0.483	0	PA_without_intermediate	0,0,0,3,2,0,1,0,0	test	ward_and_allport	1,0,0,3,2,0,0,0,0	71.0	26.0	0.483	0,0,0,0,0,0,1,2,3	to_board	s605
311.037	0.664	0	PA_without_intermediate	0,0,0,3,2,0,0,0,0	test	ward_and_allport	1,0,0,3,2,0,0,0,0	82.0	26.0	0.664	0,0,0,0,0,0,1,2,3	to_hand	s605
311.703	0.29	0	PA_without_intermediate	1,0,0,3,2,0,0,0,0	test	ward_and_allport	1,0,0,3,2,0,0,0,0	89.0	26.0	0.29	0,0,0,0,0,0,1,2,3	to_board	s605
312.005	1.0	0	PA_without_intermediate	n/a	test	ward_and_allport	n/a	-1.0	26.0	n/a	n/a	feedback	s605
313.005	1.0	0	PA_without_intermediate	n/a	test	ward_and_allport	n/a	-1.0	26.0	n/a	n/a	ITI	s605
314.016	2.68	1	PA_without_intermediate	1,2,0,0,0,0,0,0,0	test	ward_and_allport	0,0,0,1,0,0,3,2,0	89.0	27.0	2.68	1,2,3,0,0,0,0,0,0	to_hand	s605
316.697	0.275	0	PA_without_intermediate	1,2,0,0,0,0,3,0,0	test	ward_and_allport	0,0,0,1,0,0,3,2,0	82.0	27.0	0.275	1,2,3,0,0,0,0,0,0	to_board	s605
316.984	0.669	0	PA_without_intermediate	1,0,0,0,0,0,3,0,0	test	ward_and_allport	0,0,0,1,0,0,3,2,0	89.0	27.0	0.669	1,2,3,0,0,0,0,0,0	to_hand	s605
317.655	0.325	0	PA_without_intermediate	1,0,0,0,0,0,3,2,0	test	ward_and_allport	0,0,0,1,0,0,3,2,0	82.0	27.0	0.325	1,2,3,0,0,0,0,0,0	to_board	s605
317.99	0.666	0	PA_without_intermediate	0,0,0,0,0,0,3,2,0	test	ward_and_allport	0,0,0,1,0,0,3,2,0	89.0	27.0	0.666	1,2,3,0,0,0,0,0,0	to_hand	s605
318.658	0.41	0	PA_without_intermediate	0,0,0,1,0,0,3,2,0	test	ward_and_allport	0,0,0,1,0,0,3,2,0	71.0	27.0	0.41	1,2,3,0,0,0,0,0,0	to_board	s605
319.078	1.0	0	PA_without_intermediate	n/a	test	ward_and_allport	n/a	-1.0	27.0	n/a	n/a	feedback	s605
320.078	1.0	0	PA_without_intermediate	n/a	test	ward_and_allport	n/a	-1.0	27.0	n/a	n/a	ITI	s605
321.088	1.644	1	PA_with_intermediate	0,0,0,1,2,0,0,0,0	test	ward_and_allport	0,0,0,1,0,0,2,3,0	71.0	28.0	1.644	0,0,0,1,2,3,0,0,0	to_hand	s605
322.734	0.303	0	PA_with_intermediate	0,0,0,1,2,0,3,0,0	test	ward_and_allport	0,0,0,1,0,0,2,3,0	82.0	28.0	0.303	0,0,0,1,2,3,0,0,0	to_board	s605
323.045	1.252	0	PA_with_intermediate	0,0,0,1,0,0,3,0,0	test	ward_and_allport	0,0,0,1,0,0,2,3,0	71.0	28.0	1.252	0,0,0,1,2,3,0,0,0	to_hand	s605
324.298	6.358	0	PA_with_intermediate	0,0,0,1,2,0,3,0,0	test	ward_and_allport	0,0,0,1,0,0,2,3,0	71.0	28.0	6.358	0,0,0,1,2,3,0,0,0	to_board	s605
330.666	0.993	0	PA_with_intermediate	0,0,0,1,2,0,0,0,0	test	ward_and_allport	0,0,0,1,0,0,2,3,0	82.0	28.0	0.993	0,0,0,1,2,3,0,0,0	to_hand	s605
331.659	0.77	0	PA_with_intermediate	3,0,0,1,2,0,0,0,0	test	ward_and_allport	0,0,0,1,0,0,2,3,0	89.0	28.0	0.77	0,0,0,1,2,3,0,0,0	to_board	s605
332.438	0.499	0	PA_with_intermediate	3,0,0,1,0,0,0,0,0	test	ward_and_allport	0,0,0,1,0,0,2,3,0	71.0	28.0	0.499	0,0,0,1,2,3,0,0,0	to_hand	s605
332.938	0.574	0	PA_with_intermediate	3,0,0,1,0,0,2,0,0	test	ward_and_allport	0,0,0,1,0,0,2,3,0	82.0	28.0	0.574	0,0,0,1,2,3,0,0,0	to_board	s605
333.521	1.82	0	PA_with_intermediate	0,0,0,1,0,0,2,0,0	test	ward_and_allport	0,0,0,1,0,0,2,3,0	89.0	28.0	1.82	0,0,0,1,2,3,0,0,0	to_hand	s605
335.343	0.469	0	PA_with_intermediate	0,0,0,1,0,0,2,3,0	test	ward_and_allport	0,0,0,1,0,0,2,3,0	82.0	28.0	0.469	0,0,0,1,2,3,0,0,0	to_board	s605
335.825	1.0	0	PA_with_intermediate	n/a	test	ward_and_allport	n/a	-1.0	28.0	n/a	n/a	feedback	s605
336.825	1.544	0	PA_with_intermediate	n/a	test	ward_and_allport	n/a	-1.0	28.0	n/a	n/a	ITI	s605
338.38	2.343	1	PA_without_intermediate	0,0,0,0,0,0,1,2,0	test	ward_and_allport	3,1,0,2,0,0,0,0,0	82.0	29.0	2.343	0,0,0,0,0,0,1,2,3	to_hand	s605
340.724	0.328	0	PA_without_intermediate	3,0,0,0,0,0,1,2,0	test	ward_and_allport	3,1,0,2,0,0,0,0,0	89.0	29.0	0.328	0,0,0,0,0,0,1,2,3	to_board	s605
341.06	2.046	0	PA_without_intermediate	3,0,0,0,0,0,1,0,0	test	ward_and_allport	3,1,0,2,0,0,0,0,0	82.0	29.0	2.046	0,0,0,0,0,0,1,2,3	to_hand	s605
343.107	0.484	0	PA_without_intermediate	3,0,0,2,0,0,1,0,0	test	ward_and_allport	3,1,0,2,0,0,0,0,0	71.0	29.0	0.484	0,0,0,0,0,0,1,2,3	to_board	s605
343.6	0.517	0	PA_without_intermediate	3,0,0,2,0,0,0,0,0	test	ward_and_allport	3,1,0,2,0,0,0,0,0	82.0	29.0	0.517	0,0,0,0,0,0,1,2,3	to_hand	s605
344.118	0.301	0	PA_without_intermediate	3,1,0,2,0,0,0,0,0	test	ward_and_allport	3,1,0,2,0,0,0,0,0	89.0	29.0	0.301	0,0,0,0,0,0,1,2,3	to_board	s605
344.428	1.0	0	PA_without_intermediate	n/a	test	ward_and_allport	n/a	-1.0	29.0	n/a	n/a	feedback	s605
345.428	1.272	0	PA_without_intermediate	n/a	test	ward_and_allport	n/a	-1.0	29.0	n/a	n/a	ITI	s605
351.71	4.19	1	PA_with_intermediate	1,2,0,0,0,0,0,0,0	test	ward_and_allport	1,3,0,0,0,0,2,0,0	89.0	30.0	4.19	1,2,3,0,0,0,0,0,0	to_hand	s605
355.902	0.464	0	PA_with_intermediate	1,2,0,3,0,0,0,0,0	test	ward_and_allport	1,3,0,0,0,0,2,0,0	71.0	30.0	0.464	1,2,3,0,0,0,0,0,0	to_board	s605
356.376	0.423	0	PA_with_intermediate	1,0,0,3,0,0,0,0,0	test	ward_and_allport	1,3,0,0,0,0,2,0,0	89.0	30.0	0.423	1,2,3,0,0,0,0,0,0	to_hand	s605
356.801	0.427	0	PA_with_intermediate	1,0,0,3,0,0,2,0,0	test	ward_and_allport	1,3,0,0,0,0,2,0,0	82.0	30.0	0.427	1,2,3,0,0,0,0,0,0	to_board	s605
357.242	0.649	0	PA_with_intermediate	1,0,0,0,0,0,2,0,0	test	ward_and_allport	1,3,0,0,0,0,2,0,0	71.0	30.0	0.649	1,2,3,0,0,0,0,0,0	to_hand	s605
357.893	0.303	0	PA_with_intermediate	1,3,0,0,0,0,2,0,0	test	ward_and_allport	1,3,0,0,0,0,2,0,0	89.0	30.0	0.303	1,2,3,0,0,0,0,0,0	to_board	s605
358.207	1.0	0	PA_with_intermediate	n/a	test	ward_and_allport	n/a	-1.0	30.0	n/a	n/a	feedback	s605
359.207	3.04	0	PA_with_intermediate	n/a	test	ward_and_allport	n/a	-1.0	30.0	n/a	n/a	ITI	s605
362.257	2.906	1	PA_with_intermediate	0,0,0,1,2,0,0,0,0	test	ward_and_allport	0,0,0,1,3,0,2,0,0	71.0	31.0	2.906	0,0,0,1,2,3,0,0,0	to_hand	s605
365.164	0.387	0	PA_with_intermediate	3,0,0,1,2,0,0,0,0	test	ward_and_allport	0,0,0,1,3,0,2,0,0	89.0	31.0	0.387	0,0,0,1,2,3,0,0,0	to_board	s605
365.562	0.305	0	PA_with_intermediate	3,0,0,1,0,0,0,0,0	test	ward_and_allport	0,0,0,1,3,0,2,0,0	71.0	31.0	0.305	0,0,0,1,2,3,0,0,0	to_hand	s605
365.867	0.591	0	PA_with_intermediate	3,0,0,1,0,0,2,0,0	test	ward_and_allport	0,0,0,1,3,0,2,0,0	82.0	31.0	0.591	0,0,0,1,2,3,0,0,0	to_board	s605
366.47	0.474	0	PA_with_intermediate	0,0,0,1,0,0,2,0,0	test	ward_and_allport	0,0,0,1,3,0,2,0,0	89.0	31.0	0.474	0,0,0,1,2,3,0,0,0	to_hand	s605
366.945	0.325	0	PA_with_intermediate	0,0,0,1,3,0,2,0,0	test	ward_and_allport	0,0,0,1,3,0,2,0,0	71.0	31.0	0.325	0,0,0,1,2,3,0,0,0	to_board	s605
367.282	1.0	0	PA_with_intermediate	n/a	test	ward_and_allport	n/a	-1.0	31.0	n/a	n/a	feedback	s605
368.282	1.272	0	PA_with_intermediate	n/a	test	ward_and_allport	n/a	-1.0	31.0	n/a	n/a	ITI	s605
369.562	5.107	1	PA_with_intermediate	1,2,0,0,0,0,0,0,0	test	ward_and_allport	1,0,0,0,0,0,2,3,0	89.0	32.0	5.107	1,2,3,0,0,0,0,0,0	to_hand	s605
374.67	0.321	0	PA_with_intermediate	1,2,0,3,0,0,0,0,0	test	ward_and_allport	1,0,0,0,0,0,2,3,0	71.0	32.0	0.321	1,2,3,0,0,0,0,0,0	to_board	s605
374.998	0.479	0	PA_with_intermediate	1,0,0,3,0,0,0,0,0	test	ward_and_allport	1,0,0,0,0,0,2,3,0	89.0	32.0	0.479	1,2,3,0,0,0,0,0,0	to_hand	s605
375.478	0.609	0	PA_with_intermediate	1,0,0,3,0,0,2,0,0	test	ward_and_allport	1,0,0,0,0,0,2,3,0	82.0	32.0	0.609	1,2,3,0,0,0,0,0,0	to_board	s605
376.095	0.391	0	PA_with_intermediate	1,0,0,0,0,0,2,0,0	test	ward_and_allport	1,0,0,0,0,0,2,3,0	71.0	32.0	0.391	1,2,3,0,0,0,0,0,0	to_hand	s605
376.488	0.388	0	PA_with_intermediate	1,0,0,0,0,0,2,3,0	test	ward_and_allport	1,0,0,0,0,0,2,3,0	82.0	32.0	0.388	1,2,3,0,0,0,0,0,0	to_board	s605
376.89	1.0	0	PA_with_intermediate	n/a	test	ward_and_allport	n/a	-1.0	32.0	n/a	n/a	feedback	s605
377.89	1.136	0	PA_with_intermediate	n/a	test	ward_and_allport	n/a	-1.0	32.0	n/a	n/a	ITI	s605
379.037	2.472	1	PA_with_intermediate	0,0,0,1,2,0,0,0,0	test	ward_and_allport	2,0,0,1,3,0,0,0,0	71.0	33.0	2.472	0,0,0,1,2,3,0,0,0	to_hand	s605
381.51	0.986	0	PA_with_intermediate	0,0,0,1,2,0,3,0,0	test	ward_and_allport	2,0,0,1,3,0,0,0,0	82.0	33.0	0.986	0,0,0,1,2,3,0,0,0	to_board	s605
382.506	0.601	0	PA_with_intermediate	0,0,0,1,0,0,3,0,0	test	ward_and_allport	2,0,0,1,3,0,0,0,0	71.0	33.0	0.601	0,0,0,1,2,3,0,0,0	to_hand	s605
383.109	0.312	0	PA_with_intermediate	2,0,0,1,0,0,3,0,0	test	ward_and_allport	2,0,0,1,3,0,0,0,0	89.0	33.0	0.312	0,0,0,1,2,3,0,0,0	to_board	s605
383.434	0.682	0	PA_with_intermediate	2,0,0,1,0,0,0,0,0	test	ward_and_allport	2,0,0,1,3,0,0,0,0	82.0	33.0	0.682	0,0,0,1,2,3,0,0,0	to_hand	s605
384.117	0.275	0	PA_with_intermediate	2,0,0,1,3,0,0,0,0	test	ward_and_allport	2,0,0,1,3,0,0,0,0	71.0	33.0	0.275	0,0,0,1,2,3,0,0,0	to_board	s605
384.404	1.0	0	PA_with_intermediate	n/a	test	ward_and_allport	n/a	-1.0	33.0	n/a	n/a	feedback	s605
385.404	1.0	0	PA_with_intermediate	n/a	test	ward_and_allport	n/a	-1.0	33.0	n/a	n/a	ITI	s605
386.412	3.38	1	PA_with_intermediate	1,2,0,0,0,0,0,0,0	test	ward_and_allport	1,3,0,0,0,0,2,0,0	89.0	34.0	3.38	1,2,3,0,0,0,0,0,0	to_hand	s605
389.794	0.504	0	PA_with_intermediate	1,2,0,3,0,0,0,0,0	test	ward_and_allport	1,3,0,0,0,0,2,0,0	71.0	34.0	0.504	1,2,3,0,0,0,0,0,0	to_board	s605
390.305	0.57	0	PA_with_intermediate	1,0,0,3,0,0,0,0,0	test	ward_and_allport	1,3,0,0,0,0,2,0,0	89.0	34.0	0.57	1,2,3,0,0,0,0,0,0	to_hand	s605
390.877	0.388	0	PA_with_intermediate	1,0,0,3,0,0,2,0,0	test	ward_and_allport	1,3,0,0,0,0,2,0,0	82.0	34.0	0.388	1,2,3,0,0,0,0,0,0	to_board	s605
391.276	0.395	0	PA_with_intermediate	1,0,0,0,0,0,2,0,0	test	ward_and_allport	1,3,0,0,0,0,2,0,0	71.0	34.0	0.395	1,2,3,0,0,0,0,0,0	to_hand	s605
391.673	0.4	0	PA_with_intermediate	1,3,0,0,0,0,2,0,0	test	ward_and_allport	1,3,0,0,0,0,2,0,0	89.0	34.0	0.4	1,2,3,0,0,0,0,0,0	to_board	s605
392.088	1.0	0	PA_with_intermediate	n/a	test	ward_and_allport	n/a	-1.0	34.0	n/a	n/a	feedback	s605
393.088	1.0	0	PA_with_intermediate	n/a	test	ward_and_allport	n/a	-1.0	34.0	n/a	n/a	ITI	s605
394.096	2.587	1	PA_without_intermediate	0,0,0,0,0,0,1,2,0	test	ward_and_allport	2,0,0,3,1,0,0,0,0	82.0	35.0	2.587	0,0,0,0,0,0,1,2,3	to_hand	s605
396.684	0.454	0	PA_without_intermediate	0,0,0,3,0,0,1,2,0	test	ward_and_allport	2,0,0,3,1,0,0,0,0	71.0	35.0	0.454	0,0,0,0,0,0,1,2,3	to_board	s605
397.149	1.252	0	PA_without_intermediate	0,0,0,3,0,0,1,0,0	test	ward_and_allport	2,0,0,3,1,0,0,0,0	82.0	35.0	1.252	0,0,0,0,0,0,1,2,3	to_hand	s605
398.403	0.246	0	PA_without_intermediate	2,0,0,3,0,0,1,0,0	test	ward_and_allport	2,0,0,3,1,0,0,0,0	89.0	35.0	0.246	0,0,0,0,0,0,1,2,3	to_board	s605
398.659	0.581	0	PA_without_intermediate	2,0,0,3,0,0,0,0,0	test	ward_and_allport	2,0,0,3,1,0,0,0,0	82.0	35.0	0.581	0,0,0,0,0,0,1,2,3	to_hand	s605
399.242	0.31	0	PA_without_intermediate	2,0,0,3,1,0,0,0,0	test	ward_and_allport	2,0,0,3,1,0,0,0,0	71.0	35.0	0.31	0,0,0,0,0,0,1,2,3	to_board	s605
399.566	1.0	0	PA_without_intermediate	n/a	test	ward_and_allport	n/a	-1.0	35.0	n/a	n/a	feedback	s605
400.566	1.408	0	PA_without_intermediate	n/a	test	ward_and_allport	n/a	-1.0	35.0	n/a	n/a	ITI	s605
401.982	4.574	1	PA_with_intermediate	1,2,0,0,0,0,0,0,0	test	ward_and_allport	1,0,0,2,3,0,0,0,0	89.0	36.0	4.574	1,2,3,0,0,0,0,0,0	to_hand	s605
406.557	0.349	0	PA_with_intermediate	1,2,0,0,0,0,3,0,0	test	ward_and_allport	1,0,0,2,3,0,0,0,0	82.0	36.0	0.349	1,2,3,0,0,0,0,0,0	to_board	s605
406.914	0.653	0	PA_with_intermediate	1,0,0,0,0,0,3,0,0	test	ward_and_allport	1,0,0,2,3,0,0,0,0	89.0	36.0	0.653	1,2,3,0,0,0,0,0,0	to_hand	s605
407.568	0.3	0	PA_with_intermediate	1,0,0,2,0,0,3,0,0	test	ward_and_allport	1,0,0,2,3,0,0,0,0	71.0	36.0	0.3	1,2,3,0,0,0,0,0,0	to_board	s605
407.879	0.422	0	PA_with_intermediate	1,0,0,2,0,0,0,0,0	test	ward_and_allport	1,0,0,2,3,0,0,0,0	82.0	36.0	0.422	1,2,3,0,0,0,0,0,0	to_hand	s605
408.302	0.324	0	PA_with_intermediate	1,0,0,2,3,0,0,0,0	test	ward_and_allport	1,0,0,2,3,0,0,0,0	71.0	36.0	0.324	1,2,3,0,0,0,0,0,0	to_board	s605
408.64	1.0	0	PA_with_intermediate	n/a	test	ward_and_allport	n/a	-1.0	36.0	n/a	n/a	feedback	s605
409.64	2.768	0	PA_with_intermediate	n/a	test	ward_and_allport	n/a	-1.0	36.0	n/a	n/a	ITI	s605
412.419	2.237	1	PA_with_intermediate	0,0,0,1,2,0,0,0,0	test	ward_and_allport	2,3,0,1,0,0,0,0,0	71.0	37.0	2.237	0,0,0,1,2,3,0,0,0	to_hand	s605
414.657	0.339	0	PA_with_intermediate	0,0,0,1,2,0,3,0,0	test	ward_and_allport	2,3,0,1,0,0,0,0,0	82.0	37.0	0.339	0,0,0,1,2,3,0,0,0	to_board	s605
415.004	0.362	0	PA_with_intermediate	0,0,0,1,0,0,3,0,0	test	ward_and_allport	2,3,0,1,0,0,0,0,0	71.0	37.0	0.362	0,0,0,1,2,3,0,0,0	to_hand	s605
415.367	0.514	0	PA_with_intermediate	2,0,0,1,0,0,3,0,0	test	ward_and_allport	2,3,0,1,0,0,0,0,0	89.0	37.0	0.514	0,0,0,1,2,3,0,0,0	to_board	s605
415.894	0.407	0	PA_with_intermediate	2,0,0,1,0,0,0,0,0	test	ward_and_allport	2,3,0,1,0,0,0,0,0	82.0	37.0	0.407	0,0,0,1,2,3,0,0,0	to_hand	s605
416.303	0.352	0	PA_with_intermediate	2,3,0,1,0,0,0,0,0	test	ward_and_allport	2,3,0,1,0,0,0,0,0	89.0	37.0	0.352	0,0,0,1,2,3,0,0,0	to_board	s605
416.668	1.0	0	PA_with_intermediate	n/a	test	ward_and_allport	n/a	-1.0	37.0	n/a	n/a	feedback	s605
417.668	1.68	0	PA_with_intermediate	n/a	test	ward_and_allport	n/a	-1.0	37.0	n/a	n/a	ITI	s605
419.357	1.633	1	PA_without_intermediate	0,0,0,1,2,0,0,0,0	test	ward_and_allport	3,2,0,0,0,0,1,0,0	71.0	38.0	1.633	0,0,0,1,2,3,0,0,0	to_hand	s605
420.992	0.33	0	PA_without_intermediate	3,0,0,1,2,0,0,0,0	test	ward_and_allport	3,2,0,0,0,0,1,0,0	89.0	38.0	0.33	0,0,0,1,2,3,0,0,0	to_board	s605
421.331	0.415	0	PA_without_intermediate	3,0,0,1,0,0,0,0,0	test	ward_and_allport	3,2,0,0,0,0,1,0,0	71.0	38.0	0.415	0,0,0,1,2,3,0,0,0	to_hand	s605
421.747	0.406	0	PA_without_intermediate	3,2,0,1,0,0,0,0,0	test	ward_and_allport	3,2,0,0,0,0,1,0,0	89.0	38.0	0.406	0,0,0,1,2,3,0,0,0	to_board	s605
422.161	0.942	0	PA_without_intermediate	3,2,0,0,0,0,0,0,0	test	ward_and_allport	3,2,0,0,0,0,1,0,0	71.0	38.0	0.942	0,0,0,1,2,3,0,0,0	to_hand	s605
423.104	0.494	0	PA_without_intermediate	3,2,0,0,0,0,1,0,0	test	ward_and_allport	3,2,0,0,0,0,1,0,0	82.0	38.0	0.494	0,0,0,1,2,3,0,0,0	to_board	s605
423.606	1.0	0	PA_without_intermediate	n/a	test	ward_and_allport	n/a	-1.0	38.0	n/a	n/a	feedback	s605
424.606	2.224	0	PA_without_intermediate	n/a	test	ward_and_allport	n/a	-1.0	38.0	n/a	n/a	ITI	s605
426.837	1.306	1	PA_without_intermediate	0,0,0,0,0,0,1,2,0	test	ward_and_allport	3,2,0,1,0,0,0,0,0	82.0	39.0	1.306	0,0,0,0,0,0,1,2,3	to_hand	s605
428.144	0.314	0	PA_without_intermediate	3,0,0,0,0,0,1,2,0	test	ward_and_allport	3,2,0,1,0,0,0,0,0	89.0	39.0	0.314	0,0,0,0,0,0,1,2,3	to_board	s605
428.469	0.642	0	PA_without_intermediate	3,0,0,0,0,0,1,0,0	test	ward_and_allport	3,2,0,1,0,0,0,0,0	82.0	39.0	0.642	0,0,0,0,0,0,1,2,3	to_hand	s605
429.112	0.685	0	PA_without_intermediate	3,2,0,0,0,0,1,0,0	test	ward_and_allport	3,2,0,1,0,0,0,0,0	89.0	39.0	0.685	0,0,0,0,0,0,1,2,3	to_board	s605
429.809	0.998	0	PA_without_intermediate	3,2,0,0,0,0,0,0,0	test	ward_and_allport	3,2,0,1,0,0,0,0,0	82.0	39.0	0.998	0,0,0,0,0,0,1,2,3	to_hand	s605
430.808	0.424	0	PA_without_intermediate	3,2,0,1,0,0,0,0,0	test	ward_and_allport	3,2,0,1,0,0,0,0,0	71.0	39.0	0.424	0,0,0,0,0,0,1,2,3	to_board	s605
431.247	1.0	0	PA_without_intermediate	n/a	test	ward_and_allport	n/a	-1.0	39.0	n/a	n/a	feedback	s605
432.247	2.36	0	PA_without_intermediate	n/a	test	ward_and_allport	n/a	-1.0	39.0	n/a	n/a	ITI	s605
434.616	1.151	1	PA_without_intermediate	0,0,0,1,2,0,0,0,0	test	ward_and_allport	3,1,0,0,0,0,2,0,0	71.0	40.0	1.151	0,0,0,1,2,3,0,0,0	to_hand	s605
435.767	0.358	0	PA_without_intermediate	3,0,0,1,2,0,0,0,0	test	ward_and_allport	3,1,0,0,0,0,2,0,0	89.0	40.0	0.358	0,0,0,1,2,3,0,0,0	to_board	s605
436.135	0.473	0	PA_without_intermediate	3,0,0,1,0,0,0,0,0	test	ward_and_allport	3,1,0,0,0,0,2,0,0	71.0	40.0	0.473	0,0,0,1,2,3,0,0,0	to_hand	s605
436.609	0.333	0	PA_without_intermediate	3,0,0,1,0,0,2,0,0	test	ward_and_allport	3,1,0,0,0,0,2,0,0	82.0	40.0	0.333	0,0,0,1,2,3,0,0,0	to_board	s605
436.955	0.369	0	PA_without_intermediate	3,0,0,0,0,0,2,0,0	test	ward_and_allport	3,1,0,0,0,0,2,0,0	71.0	40.0	0.369	0,0,0,1,2,3,0,0,0	to_hand	s605
437.325	0.304	0	PA_without_intermediate	3,1,0,0,0,0,2,0,0	test	ward_and_allport	3,1,0,0,0,0,2,0,0	89.0	40.0	0.304	0,0,0,1,2,3,0,0,0	to_board	s605
437.639	1.0	0	PA_without_intermediate	n/a	test	ward_and_allport	n/a	-1.0	40.0	n/a	n/a	feedback	s605
438.639	1.0	0	PA_without_intermediate	n/a	test	ward_and_allport	n/a	-1.0	40.0	n/a	n/a	ITI	s605
439.648	1.053	1	PA_without_intermediate	0,0,0,1,2,0,0,0,0	test	ward_and_allport	2,0,0,0,0,0,3,1,0	71.0	41.0	1.053	0,0,0,1,2,3,0,0,0	to_hand	s605
440.703	0.284	0	PA_without_intermediate	0,0,0,1,2,0,3,0,0	test	ward_and_allport	2,0,0,0,0,0,3,1,0	82.0	41.0	0.284	0,0,0,1,2,3,0,0,0	to_board	s605
440.996	0.451	0	PA_without_intermediate	0,0,0,1,0,0,3,0,0	test	ward_and_allport	2,0,0,0,0,0,3,1,0	71.0	41.0	0.451	0,0,0,1,2,3,0,0,0	to_hand	s605
441.448	0.317	0	PA_without_intermediate	2,0,0,1,0,0,3,0,0	test	ward_and_allport	2,0,0,0,0,0,3,1,0	89.0	41.0	0.317	0,0,0,1,2,3,0,0,0	to_board	s605
441.773	0.265	0	PA_without_intermediate	2,0,0,0,0,0,3,0,0	test	ward_and_allport	2,0,0,0,0,0,3,1,0	71.0	41.0	0.265	0,0,0,1,2,3,0,0,0	to_hand	s605
442.039	0.312	0	PA_without_intermediate	2,0,0,0,0,0,3,1,0	test	ward_and_allport	2,0,0,0,0,0,3,1,0	82.0	41.0	0.312	0,0,0,1,2,3,0,0,0	to_board	s605
442.359	1.0	0	PA_without_intermediate	n/a	test	ward_and_allport	n/a	-1.0	41.0	n/a	n/a	feedback	s605
443.359	1.408	0	PA_without_intermediate	n/a	test	ward_and_allport	n/a	-1.0	41.0	n/a	n/a	ITI	s605
444.776	2.952	1	PA_with_intermediate	0,0,0,1,2,0,0,0,0	test	ward_and_allport	2,3,0,1,0,0,0,0,0	71.0	42.0	2.952	0,0,0,1,2,3,0,0,0	to_hand	s605
447.729	2.063	0	PA_with_intermediate	0,0,0,1,2,0,3,0,0	test	ward_and_allport	2,3,0,1,0,0,0,0,0	82.0	42.0	2.063	0,0,0,1,2,3,0,0,0	to_board	s605
449.8	0.534	0	PA_with_intermediate	0,0,0,1,0,0,3,0,0	test	ward_and_allport	2,3,0,1,0,0,0,0,0	71.0	42.0	0.534	0,0,0,1,2,3,0,0,0	to_hand	s605
450.335	0.323	0	PA_with_intermediate	2,0,0,1,0,0,3,0,0	test	ward_and_allport	2,3,0,1,0,0,0,0,0	89.0	42.0	0.323	0,0,0,1,2,3,0,0,0	to_board	s605
450.67	0.581	0	PA_with_intermediate	2,0,0,1,0,0,0,0,0	test	ward_and_allport	2,3,0,1,0,0,0,0,0	82.0	42.0	0.581	0,0,0,1,2,3,0,0,0	to_hand	s605
451.252	0.323	0	PA_with_intermediate	2,3,0,1,0,0,0,0,0	test	ward_and_allport	2,3,0,1,0,0,0,0,0	89.0	42.0	0.323	0,0,0,1,2,3,0,0,0	to_board	s605
451.591	1.0	0	PA_with_intermediate	n/a	test	ward_and_allport	n/a	-1.0	42.0	n/a	n/a	feedback	s605
452.591	1.136	0	PA_with_intermediate	n/a	test	ward_and_allport	n/a	-1.0	42.0	n/a	n/a	ITI	s605
453.738	1.096	1	PA_without_intermediate	1,2,0,0,0,0,0,0,0	test	ward_and_allport	0,0,0,1,0,0,3,2,0	89.0	43.0	1.096	1,2,3,0,0,0,0,0,0	to_hand	s605
454.835	0.312	0	PA_without_intermediate	1,2,0,0,0,0,3,0,0	test	ward_and_allport	0,0,0,1,0,0,3,2,0	82.0	43.0	0.312	1,2,3,0,0,0,0,0,0	to_board	s605
455.156	0.478	0	PA_without_intermediate	1,0,0,0,0,0,3,0,0	test	ward_and_allport	0,0,0,1,0,0,3,2,0	89.0	43.0	0.478	1,2,3,0,0,0,0,0,0	to_hand	s605
455.635	0.256	0	PA_without_intermediate	1,0,0,0,0,0,3,2,0	test	ward_and_allport	0,0,0,1,0,0,3,2,0	82.0	43.0	0.256	1,2,3,0,0,0,0,0,0	to_board	s605
455.901	0.781	0	PA_without_intermediate	0,0,0,0,0,0,3,2,0	test	ward_and_allport	0,0,0,1,0,0,3,2,0	89.0	43.0	0.781	1,2,3,0,0,0,0,0,0	to_hand	s605
456.684	0.229	0	PA_without_intermediate	0,0,0,1,0,0,3,2,0	test	ward_and_allport	0,0,0,1,0,0,3,2,0	71.0	43.0	0.229	1,2,3,0,0,0,0,0,0	to_board	s605
456.926	1.0	0	PA_without_intermediate	n/a	test	ward_and_allport	n/a	-1.0	43.0	n/a	n/a	feedback	s605
457.926	4.128	0	PA_without_intermediate	n/a	test	ward_and_allport	n/a	-1.0	43.0	n/a	n/a	ITI	s605
462.065	1.086	1	PA_without_intermediate	0,0,0,1,2,0,0,0,0	test	ward_and_allport	3,1,0,0,0,0,2,0,0	71.0	44.0	1.086	0,0,0,1,2,3,0,0,0	to_hand	s605
463.152	0.502	0	PA_without_intermediate	3,0,0,1,2,0,0,0,0	test	ward_and_allport	3,1,0,0,0,0,2,0,0	89.0	44.0	0.502	0,0,0,1,2,3,0,0,0	to_board	s605
463.666	0.616	0	PA_without_intermediate	3,0,0,1,0,0,0,0,0	test	ward_and_allport	3,1,0,0,0,0,2,0,0	71.0	44.0	0.616	0,0,0,1,2,3,0,0,0	to_hand	s605
464.284	0.305	0	PA_without_intermediate	3,0,0,1,0,0,2,0,0	test	ward_and_allport	3,1,0,0,0,0,2,0,0	82.0	44.0	0.305	0,0,0,1,2,3,0,0,0	to_board	s605
464.603	0.307	0	PA_without_intermediate	3,0,0,0,0,0,2,0,0	test	ward_and_allport	3,1,0,0,0,0,2,0,0	71.0	44.0	0.307	0,0,0,1,2,3,0,0,0	to_hand	s605
464.912	0.307	0	PA_without_intermediate	3,1,0,0,0,0,2,0,0	test	ward_and_allport	3,1,0,0,0,0,2,0,0	89.0	44.0	0.307	0,0,0,1,2,3,0,0,0	to_board	s605
465.234	1.0	0	PA_without_intermediate	n/a	test	ward_and_allport	n/a	-1.0	44.0	n/a	n/a	feedback	s605
466.234	1.136	0	PA_without_intermediate	n/a	test	ward_and_allport	n/a	-1.0	44.0	n/a	n/a	ITI	s605
472.382	1.224	1	PA_without_intermediate	0,0,0,0,0,0,1,2,0	test	ward_and_allport	3,2,0,1,0,0,0,0,0	82.0	45.0	1.224	0,0,0,0,0,0,1,2,3	to_hand	s605
473.607	0.42	0	PA_without_intermediate	3,0,0,0,0,0,1,2,0	test	ward_and_allport	3,2,0,1,0,0,0,0,0	89.0	45.0	0.42	0,0,0,0,0,0,1,2,3	to_board	s605
474.041	1.27	0	PA_without_intermediate	3,0,0,0,0,0,1,0,0	test	ward_and_allport	3,2,0,1,0,0,0,0,0	82.0	45.0	1.27	0,0,0,0,0,0,1,2,3	to_hand	s605
475.311	0.396	0	PA_without_intermediate	3,2,0,0,0,0,1,0,0	test	ward_and_allport	3,2,0,1,0,0,0,0,0	89.0	45.0	0.396	0,0,0,0,0,0,1,2,3	to_board	s605
475.723	0.789	0	PA_without_intermediate	3,2,0,0,0,0,0,0,0	test	ward_and_allport	3,2,0,1,0,0,0,0,0	82.0	45.0	0.789	0,0,0,0,0,0,1,2,3	to_hand	s605
476.513	0.362	0	PA_without_intermediate	3,2,0,1,0,0,0,0,0	test	ward_and_allport	3,2,0,1,0,0,0,0,0	71.0	45.0	0.362	0,0,0,0,0,0,1,2,3	to_board	s605
476.89	1.0	0	PA_without_intermediate	n/a	test	ward_and_allport	n/a	-1.0	45.0	n/a	n/a	feedback	s605
477.89	4.264	0	PA_without_intermediate	n/a	test	ward_and_allport	n/a	-1.0	45.0	n/a	n/a	ITI	s605
482.167	2.715	1	PA_with_intermediate	0,0,0,0,0,0,1,2,0	test	ward_and_allport	2,0,0,0,0,0,1,3,0	82.0	46.0	2.715	0,0,0,0,0,0,1,2,3	to_hand	s605
484.883	0.409	0	PA_with_intermediate	0,0,0,3,0,0,1,2,0	test	ward_and_allport	2,0,0,0,0,0,1,3,0	71.0	46.0	0.409	0,0,0,0,0,0,1,2,3	to_board	s605
485.307	0.546	0	PA_with_intermediate	0,0,0,3,0,0,1,0,0	test	ward_and_allport	2,0,0,0,0,0,1,3,0	82.0	46.0	0.546	0,0,0,0,0,0,1,2,3	to_hand	s605
485.854	0.339	0	PA_with_intermediate	2,0,0,3,0,0,1,0,0	test	ward_and_allport	2,0,0,0,0,0,1,3,0	89.0	46.0	0.339	0,0,0,0,0,0,1,2,3	to_board	s605
486.208	0.299	0	PA_with_intermediate	2,0,0,0,0,0,1,0,0	test	ward_and_allport	2,0,0,0,0,0,1,3,0	71.0	46.0	0.299	0,0,0,0,0,0,1,2,3	to_hand	s605
486.509	0.306	0	PA_with_intermediate	2,0,0,0,0,0,1,3,0	test	ward_and_allport	2,0,0,0,0,0,1,3,0	82.0	46.0	0.306	0,0,0,0,0,0,1,2,3	to_board	s605
486.83	1.0	0	PA_with_intermediate	n/a	test	ward_and_allport	n/a	-1.0	46.0	n/a	n/a	feedback	s605
487.83	3.04	0	PA_with_intermediate	n/a	test	ward_and_allport	n/a	-1.0	46.0	n/a	n/a	ITI	s605
490.882	2.679	1	PA_with_intermediate	0,0,0,0,0,0,1,2,0	test	ward_and_allport	0,0,0,2,0,0,1,3,0	82.0	47.0	2.679	0,0,0,0,0,0,1,2,3	to_hand	s605
493.563	0.381	0	PA_with_intermediate	3,0,0,0,0,0,1,2,0	test	ward_and_allport	0,0,0,2,0,0,1,3,0	89.0	47.0	0.381	0,0,0,0,0,0,1,2,3	to_board	s605
493.954	1.061	0	PA_with_intermediate	3,0,0,0,0,0,1,0,0	test	ward_and_allport	0,0,0,2,0,0,1,3,0	82.0	47.0	1.061	0,0,0,0,0,0,1,2,3	to_hand	s605
495.017	0.328	0	PA_with_intermediate	3,0,0,2,0,0,1,0,0	test	ward_and_allport	0,0,0,2,0,0,1,3,0	71.0	47.0	0.328	0,0,0,0,0,0,1,2,3	to_board	s605
495.358	0.443	0	PA_with_intermediate	0,0,0,2,0,0,1,0,0	test	ward_and_allport	0,0,0,2,0,0,1,3,0	89.0	47.0	0.443	0,0,0,0,0,0,1,2,3	to_hand	s605
495.803	0.295	0	PA_with_intermediate	0,0,0,2,0,0,1,3,0	test	ward_and_allport	0,0,0,2,0,0,1,3,0	82.0	47.0	0.295	0,0,0,0,0,0,1,2,3	to_board	s605
496.115	1.0	0	PA_with_intermediate	n/a	test	ward_and_allport	n/a	-1.0	47.0	n/a	n/a	feedback	s605
497.115	1.136	0	PA_with_intermediate	n/a	test	ward_and_allport	n/a	-1.0	47.0	n/a	n/a	ITI	s605
n/a	n/a	0	n/a	n/a	n/a	n/a	n/a	n/a	n/a	n/a	n/a	ITI	n/a
