onset	duration	planning	condition	current_position	exp_stage	experiment_exp_id	goal_state	key_press	problem_id	response_time	start_state	trial_id	worker_id
-52.866	0.0	0	n/a	n/a	n/a	ward_and_allport	n/a	32.0	n/a	5.927	n/a	instructions	s612
3.013	6.008	1	UA_with_intermediate	1,0,0,2,0,0,0,0,0	practice	ward_and_allport	1,2,3,0,0,0,0,0,0	71.0	0.0	6.008	1,0,0,2,3,0,0,0,0	to_hand	s612
9.024	1.235	0	UA_with_intermediate	1,0,0,2,0,0,3,0,0	practice	ward_and_allport	1,2,3,0,0,0,0,0,0	82.0	0.0	1.235	1,0,0,2,3,0,0,0,0	to_board	s612
10.262	1.488	0	UA_with_intermediate	1,0,0,0,0,0,3,0,0	practice	ward_and_allport	1,2,3,0,0,0,0,0,0	71.0	0.0	1.488	1,0,0,2,3,0,0,0,0	to_hand	s612
11.752	0.59	0	UA_with_intermediate	1,2,0,0,0,0,3,0,0	practice	ward_and_allport	1,2,3,0,0,0,0,0,0	89.0	0.0	0.59	1,0,0,2,3,0,0,0,0	to_board	s612
12.343	3.608	0	UA_with_intermediate	1,2,0,0,0,0,0,0,0	practice	ward_and_allport	1,2,3,0,0,0,0,0,0	82.0	0.0	3.608	1,0,0,2,3,0,0,0,0	to_hand	s612
15.952	1.469	0	UA_with_intermediate	1,2,3,0,0,0,0,0,0	practice	ward_and_allport	1,2,3,0,0,0,0,0,0	89.0	0.0	1.469	1,0,0,2,3,0,0,0,0	to_board	s612
17.426	1.0	0	UA_with_intermediate	n/a	practice	ward_and_allport	n/a	-1.0	0.0	n/a	n/a	feedback	s612
19.928	6.89	1	UA_with_intermediate	1,0,0,3,0,0,0,0,0	practice	ward_and_allport	1,3,2,0,0,0,0,0,0	89.0	1.0	6.89	1,2,0,3,0,0,0,0,0	to_hand	s612
26.819	1.849	0	UA_with_intermediate	1,0,0,3,0,0,2,0,0	practice	ward_and_allport	1,3,2,0,0,0,0,0,0	82.0	1.0	1.849	1,2,0,3,0,0,0,0,0	to_board	s612
28.67	2.021	0	UA_with_intermediate	1,0,0,0,0,0,2,0,0	practice	ward_and_allport	1,3,2,0,0,0,0,0,0	71.0	1.0	2.021	1,2,0,3,0,0,0,0,0	to_hand	s612
30.692	0.83	0	UA_with_intermediate	1,3,0,0,0,0,2,0,0	practice	ward_and_allport	1,3,2,0,0,0,0,0,0	89.0	1.0	0.83	1,2,0,3,0,0,0,0,0	to_board	s612
31.524	1.452	0	UA_with_intermediate	1,3,0,0,0,0,0,0,0	practice	ward_and_allport	1,3,2,0,0,0,0,0,0	82.0	1.0	1.452	1,2,0,3,0,0,0,0,0	to_hand	s612
32.978	0.608	0	UA_with_intermediate	1,3,2,0,0,0,0,0,0	practice	ward_and_allport	1,3,2,0,0,0,0,0,0	89.0	1.0	0.608	1,2,0,3,0,0,0,0,0	to_board	s612
33.59	1.0	0	UA_with_intermediate	n/a	practice	ward_and_allport	n/a	-1.0	1.0	n/a	n/a	feedback	s612
34.59	1.1	0	UA_with_intermediate	n/a	practice	ward_and_allport	n/a	-1.0	1.0	n/a	n/a	ITI	s612
35.691	5.685	1	UA_without_intermediate	0,0,0,1,2,0,0,0,0	practice	ward_and_allport	3,2,1,0,0,0,0,0,0	82.0	2.0	5.685	0,0,0,1,2,0,3,0,0	to_hand	s612
41.377	0.802	0	UA_without_intermediate	3,0,0,1,2,0,0,0,0	practice	ward_and_allport	3,2,1,0,0,0,0,0,0	89.0	2.0	0.802	0,0,0,1,2,0,3,0,0	to_board	s612
42.181	2.164	0	UA_without_intermediate	3,0,0,1,0,0,0,0,0	practice	ward_and_allport	3,2,1,0,0,0,0,0,0	71.0	2.0	2.164	0,0,0,1,2,0,3,0,0	to_hand	s612
44.346	1.011	0	UA_without_intermediate	3,2,0,1,0,0,0,0,0	practice	ward_and_allport	3,2,1,0,0,0,0,0,0	89.0	2.0	1.011	0,0,0,1,2,0,3,0,0	to_board	s612
45.36	0.826	0	UA_without_intermediate	3,2,0,0,0,0,0,0,0	practice	ward_and_allport	3,2,1,0,0,0,0,0,0	71.0	2.0	0.826	0,0,0,1,2,0,3,0,0	to_hand	s612
46.188	0.517	0	UA_without_intermediate	3,2,1,0,0,0,0,0,0	practice	ward_and_allport	3,2,1,0,0,0,0,0,0	89.0	2.0	0.517	0,0,0,1,2,0,3,0,0	to_board	s612
46.707	1.0	0	UA_without_intermediate	n/a	practice	ward_and_allport	n/a	-1.0	2.0	n/a	n/a	feedback	s612
47.707	1.2	0	UA_without_intermediate	n/a	practice	ward_and_allport	n/a	-1.0	2.0	n/a	n/a	ITI	s612
48.909	4.452	1	UA_without_intermediate	0,0,0,1,0,0,3,0,0	practice	ward_and_allport	2,3,1,0,0,0,0,0,0	71.0	3.0	4.452	0,0,0,1,2,0,3,0,0	to_hand	s612
53.363	0.653	0	UA_without_intermediate	2,0,0,1,0,0,3,0,0	practice	ward_and_allport	2,3,1,0,0,0,0,0,0	89.0	3.0	0.653	0,0,0,1,2,0,3,0,0	to_board	s612
54.018	1.374	0	UA_without_intermediate	2,0,0,1,0,0,0,0,0	practice	ward_and_allport	2,3,1,0,0,0,0,0,0	82.0	3.0	1.374	0,0,0,1,2,0,3,0,0	to_hand	s612
55.393	1.06	0	UA_without_intermediate	2,3,0,1,0,0,0,0,0	practice	ward_and_allport	2,3,1,0,0,0,0,0,0	89.0	3.0	1.06	0,0,0,1,2,0,3,0,0	to_board	s612
56.456	2.241	0	UA_without_intermediate	2,3,0,0,0,0,0,0,0	practice	ward_and_allport	2,3,1,0,0,0,0,0,0	71.0	3.0	2.241	0,0,0,1,2,0,3,0,0	to_hand	s612
58.699	0.747	0	UA_without_intermediate	2,3,1,0,0,0,0,0,0	practice	ward_and_allport	2,3,1,0,0,0,0,0,0	89.0	3.0	0.747	0,0,0,1,2,0,3,0,0	to_board	s612
59.452	1.0	0	UA_without_intermediate	n/a	practice	ward_and_allport	n/a	-1.0	3.0	n/a	n/a	feedback	s612
60.452	1.0	0	UA_without_intermediate	n/a	practice	ward_and_allport	n/a	-1.0	3.0	n/a	n/a	ITI	s612
63.456	6.571	1	PA_with_intermediate	0,0,0,1,2,0,0,0,0	test	ward_and_allport	2,3,0,1,0,0,0,0,0	71.0	0.0	6.571	0,0,0,1,2,3,0,0,0	to_hand	s612
70.029	0.548	0	PA_with_intermediate	3,0,0,1,2,0,0,0,0	test	ward_and_allport	2,3,0,1,0,0,0,0,0	89.0	0.0	0.548	0,0,0,1,2,3,0,0,0	to_board	s612
70.58	7.638	0	PA_with_intermediate	0,0,0,1,2,0,0,0,0	test	ward_and_allport	2,3,0,1,0,0,0,0,0	89.0	0.0	7.638	0,0,0,1,2,3,0,0,0	to_hand	s612
78.219	1.01	0	PA_with_intermediate	0,0,0,1,2,0,3,0,0	test	ward_and_allport	2,3,0,1,0,0,0,0,0	82.0	0.0	1.01	0,0,0,1,2,3,0,0,0	to_board	s612
79.231	1.064	0	PA_with_intermediate	0,0,0,1,0,0,3,0,0	test	ward_and_allport	2,3,0,1,0,0,0,0,0	71.0	0.0	1.064	0,0,0,1,2,3,0,0,0	to_hand	s612
80.296	0.58	0	PA_with_intermediate	2,0,0,1,0,0,3,0,0	test	ward_and_allport	2,3,0,1,0,0,0,0,0	89.0	0.0	0.58	0,0,0,1,2,3,0,0,0	to_board	s612
80.879	3.019	0	PA_with_intermediate	2,0,0,1,0,0,0,0,0	test	ward_and_allport	2,3,0,1,0,0,0,0,0	82.0	0.0	3.019	0,0,0,1,2,3,0,0,0	to_hand	s612
83.899	0.584	0	PA_with_intermediate	2,3,0,1,0,0,0,0,0	test	ward_and_allport	2,3,0,1,0,0,0,0,0	89.0	0.0	0.584	0,0,0,1,2,3,0,0,0	to_board	s612
84.487	1.0	0	PA_with_intermediate	n/a	test	ward_and_allport	n/a	-1.0	0.0	n/a	n/a	feedback	s612
85.487	3.176	0	PA_with_intermediate	n/a	test	ward_and_allport	n/a	-1.0	0.0	n/a	n/a	ITI	s612
88.664	7.465	1	PA_with_intermediate	0,0,0,0,0,0,1,2,0	test	ward_and_allport	0,0,0,2,3,0,1,0,0	82.0	1.0	7.465	0,0,0,0,0,0,1,2,3	to_hand	s612
96.13	0.683	0	PA_with_intermediate	3,0,0,0,0,0,1,2,0	test	ward_and_allport	0,0,0,2,3,0,1,0,0	89.0	1.0	0.683	0,0,0,0,0,0,1,2,3	to_board	s612
96.816	3.646	0	PA_with_intermediate	3,0,0,0,0,0,1,0,0	test	ward_and_allport	0,0,0,2,3,0,1,0,0	82.0	1.0	3.646	0,0,0,0,0,0,1,2,3	to_hand	s612
100.463	0.709	0	PA_with_intermediate	3,0,0,2,0,0,1,0,0	test	ward_and_allport	0,0,0,2,3,0,1,0,0	71.0	1.0	0.709	0,0,0,0,0,0,1,2,3	to_board	s612
101.175	3.164	0	PA_with_intermediate	0,0,0,2,0,0,1,0,0	test	ward_and_allport	0,0,0,2,3,0,1,0,0	89.0	1.0	3.164	0,0,0,0,0,0,1,2,3	to_hand	s612
104.34	0.979	0	PA_with_intermediate	0,0,0,2,3,0,1,0,0	test	ward_and_allport	0,0,0,2,3,0,1,0,0	71.0	1.0	0.979	0,0,0,0,0,0,1,2,3	to_board	s612
105.323	1.0	0	PA_with_intermediate	n/a	test	ward_and_allport	n/a	-1.0	1.0	n/a	n/a	feedback	s612
106.323	2.36	0	PA_with_intermediate	n/a	test	ward_and_allport	n/a	-1.0	1.0	n/a	n/a	ITI	s612
108.686	7.948	1	PA_with_intermediate	0,0,0,1,2,0,0,0,0	test	ward_and_allport	0,0,0,1,3,0,2,0,0	71.0	2.0	7.948	0,0,0,1,2,3,0,0,0	to_hand	s612
116.636	0.621	0	PA_with_intermediate	3,0,0,1,2,0,0,0,0	test	ward_and_allport	0,0,0,1,3,0,2,0,0	89.0	2.0	0.621	0,0,0,1,2,3,0,0,0	to_board	s612
117.26	1.818	0	PA_with_intermediate	3,0,0,1,0,0,0,0,0	test	ward_and_allport	0,0,0,1,3,0,2,0,0	71.0	2.0	1.818	0,0,0,1,2,3,0,0,0	to_hand	s612
119.08	1.035	0	PA_with_intermediate	3,0,0,1,0,0,2,0,0	test	ward_and_allport	0,0,0,1,3,0,2,0,0	82.0	2.0	1.035	0,0,0,1,2,3,0,0,0	to_board	s612
120.118	1.726	0	PA_with_intermediate	0,0,0,1,0,0,2,0,0	test	ward_and_allport	0,0,0,1,3,0,2,0,0	89.0	2.0	1.726	0,0,0,1,2,3,0,0,0	to_hand	s612
121.846	1.435	0	PA_with_intermediate	0,0,0,1,3,0,2,0,0	test	ward_and_allport	0,0,0,1,3,0,2,0,0	71.0	2.0	1.435	0,0,0,1,2,3,0,0,0	to_board	s612
123.288	1.0	0	PA_with_intermediate	n/a	test	ward_and_allport	n/a	-1.0	2.0	n/a	n/a	feedback	s612
124.288	1.0	0	PA_with_intermediate	n/a	test	ward_and_allport	n/a	-1.0	2.0	n/a	n/a	ITI	s612
125.291	5.814	1	PA_without_intermediate	1,2,0,0,0,0,0,0,0	test	ward_and_allport	0,0,0,3,1,0,2,0,0	89.0	3.0	5.814	1,2,3,0,0,0,0,0,0	to_hand	s612
131.107	1.239	0	PA_without_intermediate	1,2,0,3,0,0,0,0,0	test	ward_and_allport	0,0,0,3,1,0,2,0,0	71.0	3.0	1.239	1,2,3,0,0,0,0,0,0	to_board	s612
132.348	4.069	0	PA_without_intermediate	1,0,0,3,0,0,0,0,0	test	ward_and_allport	0,0,0,3,1,0,2,0,0	89.0	3.0	4.069	1,2,3,0,0,0,0,0,0	to_hand	s612
136.419	1.172	0	PA_without_intermediate	1,0,0,3,0,0,2,0,0	test	ward_and_allport	0,0,0,3,1,0,2,0,0	82.0	3.0	1.172	1,2,3,0,0,0,0,0,0	to_board	s612
137.595	1.484	0	PA_without_intermediate	0,0,0,3,0,0,2,0,0	test	ward_and_allport	0,0,0,3,1,0,2,0,0	89.0	3.0	1.484	1,2,3,0,0,0,0,0,0	to_hand	s612
139.08	0.977	0	PA_without_intermediate	0,0,0,3,1,0,2,0,0	test	ward_and_allport	0,0,0,3,1,0,2,0,0	71.0	3.0	0.977	1,2,3,0,0,0,0,0,0	to_board	s612
140.06	1.0	0	PA_without_intermediate	n/a	test	ward_and_allport	n/a	-1.0	3.0	n/a	n/a	feedback	s612
141.06	1.408	0	PA_without_intermediate	n/a	test	ward_and_allport	n/a	-1.0	3.0	n/a	n/a	ITI	s612
142.471	5.729	1	PA_with_intermediate	0,0,0,1,2,0,0,0,0	test	ward_and_allport	2,3,0,1,0,0,0,0,0	71.0	4.0	5.729	0,0,0,1,2,3,0,0,0	to_hand	s612
148.202	1.716	0	PA_with_intermediate	0,0,0,1,2,0,3,0,0	test	ward_and_allport	2,3,0,1,0,0,0,0,0	82.0	4.0	1.716	0,0,0,1,2,3,0,0,0	to_board	s612
149.92	1.336	0	PA_with_intermediate	0,0,0,1,0,0,3,0,0	test	ward_and_allport	2,3,0,1,0,0,0,0,0	71.0	4.0	1.336	0,0,0,1,2,3,0,0,0	to_hand	s612
151.258	0.695	0	PA_with_intermediate	2,0,0,1,0,0,3,0,0	test	ward_and_allport	2,3,0,1,0,0,0,0,0	89.0	4.0	0.695	0,0,0,1,2,3,0,0,0	to_board	s612
151.955	1.057	0	PA_with_intermediate	2,0,0,1,0,0,0,0,0	test	ward_and_allport	2,3,0,1,0,0,0,0,0	82.0	4.0	1.057	0,0,0,1,2,3,0,0,0	to_hand	s612
153.014	1.134	0	PA_with_intermediate	2,3,0,1,0,0,0,0,0	test	ward_and_allport	2,3,0,1,0,0,0,0,0	89.0	4.0	1.134	0,0,0,1,2,3,0,0,0	to_board	s612
154.153	1.0	0	PA_with_intermediate	n/a	test	ward_and_allport	n/a	-1.0	4.0	n/a	n/a	feedback	s612
155.153	1.816	0	PA_with_intermediate	n/a	test	ward_and_allport	n/a	-1.0	4.0	n/a	n/a	ITI	s612
156.972	6.827	1	PA_without_intermediate	1,2,0,0,0,0,0,0,0	test	ward_and_allport	0,0,0,1,0,0,3,2,0	89.0	5.0	6.827	1,2,3,0,0,0,0,0,0	to_hand	s612
163.8	1.458	0	PA_without_intermediate	1,2,0,0,0,0,3,0,0	test	ward_and_allport	0,0,0,1,0,0,3,2,0	82.0	5.0	1.458	1,2,3,0,0,0,0,0,0	to_board	s612
165.262	1.358	0	PA_without_intermediate	1,0,0,0,0,0,3,0,0	test	ward_and_allport	0,0,0,1,0,0,3,2,0	89.0	5.0	1.358	1,2,3,0,0,0,0,0,0	to_hand	s612
166.622	0.626	0	PA_without_intermediate	1,0,0,0,0,0,3,2,0	test	ward_and_allport	0,0,0,1,0,0,3,2,0	82.0	5.0	0.626	1,2,3,0,0,0,0,0,0	to_board	s612
167.251	3.648	0	PA_without_intermediate	0,0,0,0,0,0,3,2,0	test	ward_and_allport	0,0,0,1,0,0,3,2,0	89.0	5.0	3.648	1,2,3,0,0,0,0,0,0	to_hand	s612
170.901	0.918	0	PA_without_intermediate	0,0,0,1,0,0,3,2,0	test	ward_and_allport	0,0,0,1,0,0,3,2,0	71.0	5.0	0.918	1,2,3,0,0,0,0,0,0	to_board	s612
171.825	1.0	0	PA_without_intermediate	n/a	test	ward_and_allport	n/a	-1.0	5.0	n/a	n/a	feedback	s612
172.825	2.088	0	PA_without_intermediate	n/a	test	ward_and_allport	n/a	-1.0	5.0	n/a	n/a	ITI	s612
174.917	4.873	1	PA_without_intermediate	0,0,0,0,0,0,1,2,0	test	ward_and_allport	3,1,0,2,0,0,0,0,0	82.0	6.0	4.873	0,0,0,0,0,0,1,2,3	to_hand	s612
179.791	0.569	0	PA_without_intermediate	3,0,0,0,0,0,1,2,0	test	ward_and_allport	3,1,0,2,0,0,0,0,0	89.0	6.0	0.569	0,0,0,0,0,0,1,2,3	to_board	s612
180.364	2.564	0	PA_without_intermediate	3,0,0,0,0,0,1,0,0	test	ward_and_allport	3,1,0,2,0,0,0,0,0	82.0	6.0	2.564	0,0,0,0,0,0,1,2,3	to_hand	s612
182.929	0.939	0	PA_without_intermediate	3,0,0,2,0,0,1,0,0	test	ward_and_allport	3,1,0,2,0,0,0,0,0	71.0	6.0	0.939	0,0,0,0,0,0,1,2,3	to_board	s612
183.871	1.195	0	PA_without_intermediate	3,0,0,2,0,0,0,0,0	test	ward_and_allport	3,1,0,2,0,0,0,0,0	82.0	6.0	1.195	0,0,0,0,0,0,1,2,3	to_hand	s612
185.068	0.518	0	PA_without_intermediate	3,1,0,2,0,0,0,0,0	test	ward_and_allport	3,1,0,2,0,0,0,0,0	89.0	6.0	0.518	0,0,0,0,0,0,1,2,3	to_board	s612
185.592	1.0	0	PA_without_intermediate	n/a	test	ward_and_allport	n/a	-1.0	6.0	n/a	n/a	feedback	s612
186.592	1.136	0	PA_without_intermediate	n/a	test	ward_and_allport	n/a	-1.0	6.0	n/a	n/a	ITI	s612
187.731	5.589	1	PA_without_intermediate	0,0,0,0,0,0,1,2,0	test	ward_and_allport	1,0,0,3,2,0,0,0,0	82.0	7.0	5.589	0,0,0,0,0,0,1,2,3	to_hand	s612
193.321	0.564	0	PA_without_intermediate	0,0,0,3,0,0,1,2,0	test	ward_and_allport	1,0,0,3,2,0,0,0,0	71.0	7.0	0.564	0,0,0,0,0,0,1,2,3	to_board	s612
193.89	3.214	0	PA_without_intermediate	0,0,0,3,0,0,1,0,0	test	ward_and_allport	1,0,0,3,2,0,0,0,0	82.0	7.0	3.214	0,0,0,0,0,0,1,2,3	to_hand	s612
197.105	0.716	0	PA_without_intermediate	0,0,0,3,2,0,1,0,0	test	ward_and_allport	1,0,0,3,2,0,0,0,0	71.0	7.0	0.716	0,0,0,0,0,0,1,2,3	to_board	s612
197.825	0.931	0	PA_without_intermediate	0,0,0,3,2,0,0,0,0	test	ward_and_allport	1,0,0,3,2,0,0,0,0	82.0	7.0	0.931	0,0,0,0,0,0,1,2,3	to_hand	s612
198.757	0.583	0	PA_without_intermediate	1,0,0,3,2,0,0,0,0	test	ward_and_allport	1,0,0,3,2,0,0,0,0	89.0	7.0	0.583	0,0,0,0,0,0,1,2,3	to_board	s612
199.345	1.0	0	PA_without_intermediate	n/a	test	ward_and_allport	n/a	-1.0	7.0	n/a	n/a	feedback	s612
200.345	6.168	0	PA_without_intermediate	n/a	test	ward_and_allport	n/a	-1.0	7.0	n/a	n/a	ITI	s612
206.515	3.812	1	PA_without_intermediate	0,0,0,0,0,0,1,2,0	test	ward_and_allport	2,0,0,3,1,0,0,0,0	82.0	8.0	3.812	0,0,0,0,0,0,1,2,3	to_hand	s612
210.328	0.617	0	PA_without_intermediate	0,0,0,3,0,0,1,2,0	test	ward_and_allport	2,0,0,3,1,0,0,0,0	71.0	8.0	0.617	0,0,0,0,0,0,1,2,3	to_board	s612
210.949	2.61	0	PA_without_intermediate	0,0,0,3,0,0,1,0,0	test	ward_and_allport	2,0,0,3,1,0,0,0,0	82.0	8.0	2.61	0,0,0,0,0,0,1,2,3	to_hand	s612
213.56	1.138	0	PA_without_intermediate	2,0,0,3,0,0,1,0,0	test	ward_and_allport	2,0,0,3,1,0,0,0,0	89.0	8.0	1.138	0,0,0,0,0,0,1,2,3	to_board	s612
214.703	1.753	0	PA_without_intermediate	2,0,0,3,0,0,0,0,0	test	ward_and_allport	2,0,0,3,1,0,0,0,0	82.0	8.0	1.753	0,0,0,0,0,0,1,2,3	to_hand	s612
216.456	0.54	0	PA_without_intermediate	2,0,0,3,1,0,0,0,0	test	ward_and_allport	2,0,0,3,1,0,0,0,0	71.0	8.0	0.54	0,0,0,0,0,0,1,2,3	to_board	s612
217.004	1.0	0	PA_without_intermediate	n/a	test	ward_and_allport	n/a	-1.0	8.0	n/a	n/a	feedback	s612
218.004	1.816	0	PA_without_intermediate	n/a	test	ward_and_allport	n/a	-1.0	8.0	n/a	n/a	ITI	s612
219.824	6.267	1	PA_with_intermediate	1,2,0,0,0,0,0,0,0	test	ward_and_allport	1,0,0,2,3,0,0,0,0	89.0	9.0	6.267	1,2,3,0,0,0,0,0,0	to_hand	s612
226.092	0.743	0	PA_with_intermediate	1,2,0,0,0,0,3,0,0	test	ward_and_allport	1,0,0,2,3,0,0,0,0	82.0	9.0	0.743	1,2,3,0,0,0,0,0,0	to_board	s612
226.84	3.72	0	PA_with_intermediate	1,0,0,0,0,0,3,0,0	test	ward_and_allport	1,0,0,2,3,0,0,0,0	89.0	9.0	3.72	1,2,3,0,0,0,0,0,0	to_hand	s612
230.561	0.978	0	PA_with_intermediate	1,0,0,2,0,0,3,0,0	test	ward_and_allport	1,0,0,2,3,0,0,0,0	71.0	9.0	0.978	1,2,3,0,0,0,0,0,0	to_board	s612
231.543	5.172	0	PA_with_intermediate	1,0,0,2,0,0,0,0,0	test	ward_and_allport	1,0,0,2,3,0,0,0,0	82.0	9.0	5.172	1,2,3,0,0,0,0,0,0	to_hand	s612
236.716	1.161	0	PA_with_intermediate	1,0,0,2,3,0,0,0,0	test	ward_and_allport	1,0,0,2,3,0,0,0,0	71.0	9.0	1.161	1,2,3,0,0,0,0,0,0	to_board	s612
237.882	1.0	0	PA_with_intermediate	n/a	test	ward_and_allport	n/a	-1.0	9.0	n/a	n/a	feedback	s612
238.882	1.952	0	PA_with_intermediate	n/a	test	ward_and_allport	n/a	-1.0	9.0	n/a	n/a	ITI	s612
240.839	6.327	1	PA_with_intermediate	1,2,0,0,0,0,0,0,0	test	ward_and_allport	1,3,0,0,0,0,2,0,0	89.0	10.0	6.327	1,2,3,0,0,0,0,0,0	to_hand	s612
247.168	0.87	0	PA_with_intermediate	1,2,0,3,0,0,0,0,0	test	ward_and_allport	1,3,0,0,0,0,2,0,0	71.0	10.0	0.87	1,2,3,0,0,0,0,0,0	to_board	s612
248.048	1.032	0	PA_with_intermediate	1,0,0,3,0,0,0,0,0	test	ward_and_allport	1,3,0,0,0,0,2,0,0	89.0	10.0	1.032	1,2,3,0,0,0,0,0,0	to_hand	s612
249.081	0.695	0	PA_with_intermediate	1,0,0,3,0,0,2,0,0	test	ward_and_allport	1,3,0,0,0,0,2,0,0	82.0	10.0	0.695	1,2,3,0,0,0,0,0,0	to_board	s612
249.781	1.429	0	PA_with_intermediate	1,0,0,0,0,0,2,0,0	test	ward_and_allport	1,3,0,0,0,0,2,0,0	71.0	10.0	1.429	1,2,3,0,0,0,0,0,0	to_hand	s612
251.211	0.593	0	PA_with_intermediate	1,3,0,0,0,0,2,0,0	test	ward_and_allport	1,3,0,0,0,0,2,0,0	89.0	10.0	0.593	1,2,3,0,0,0,0,0,0	to_board	s612
251.814	1.0	0	PA_with_intermediate	n/a	test	ward_and_allport	n/a	-1.0	10.0	n/a	n/a	feedback	s612
252.814	1.136	0	PA_with_intermediate	n/a	test	ward_and_allport	n/a	-1.0	10.0	n/a	n/a	ITI	s612
253.958	9.726	1	PA_without_intermediate	0,0,0,1,2,0,0,0,0	test	ward_and_allport	3,2,0,0,0,0,1,0,0	71.0	11.0	9.726	0,0,0,1,2,3,0,0,0	to_hand	s612
263.686	0.603	0	PA_without_intermediate	3,0,0,1,2,0,0,0,0	test	ward_and_allport	3,2,0,0,0,0,1,0,0	89.0	11.0	0.603	0,0,0,1,2,3,0,0,0	to_board	s612
264.293	2.273	0	PA_without_intermediate	3,0,0,1,0,0,0,0,0	test	ward_and_allport	3,2,0,0,0,0,1,0,0	71.0	11.0	2.273	0,0,0,1,2,3,0,0,0	to_hand	s612
266.567	0.7	0	PA_without_intermediate	3,2,0,1,0,0,0,0,0	test	ward_and_allport	3,2,0,0,0,0,1,0,0	89.0	11.0	0.7	0,0,0,1,2,3,0,0,0	to_board	s612
267.272	1.048	0	PA_without_intermediate	3,2,0,0,0,0,0,0,0	test	ward_and_allport	3,2,0,0,0,0,1,0,0	71.0	11.0	1.048	0,0,0,1,2,3,0,0,0	to_hand	s612
268.322	0.69	0	PA_without_intermediate	3,2,0,0,0,0,1,0,0	test	ward_and_allport	3,2,0,0,0,0,1,0,0	82.0	11.0	0.69	0,0,0,1,2,3,0,0,0	to_board	s612
269.017	1.0	0	PA_without_intermediate	n/a	test	ward_and_allport	n/a	-1.0	11.0	n/a	n/a	feedback	s612
270.017	1.68	0	PA_without_intermediate	n/a	test	ward_and_allport	n/a	-1.0	11.0	n/a	n/a	ITI	s612
271.703	5.319	1	PA_without_intermediate	0,0,0,1,2,0,0,0,0	test	ward_and_allport	1,0,0,0,0,0,3,2,0	71.0	12.0	5.319	0,0,0,1,2,3,0,0,0	to_hand	s612
277.023	0.827	0	PA_without_intermediate	0,0,0,1,2,0,3,0,0	test	ward_and_allport	1,0,0,0,0,0,3,2,0	82.0	12.0	0.827	0,0,0,1,2,3,0,0,0	to_board	s612
277.856	2.466	0	PA_without_intermediate	0,0,0,1,0,0,3,0,0	test	ward_and_allport	1,0,0,0,0,0,3,2,0	71.0	12.0	2.466	0,0,0,1,2,3,0,0,0	to_hand	s612
280.323	0.567	0	PA_without_intermediate	0,0,0,1,0,0,3,2,0	test	ward_and_allport	1,0,0,0,0,0,3,2,0	82.0	12.0	0.567	0,0,0,1,2,3,0,0,0	to_board	s612
280.895	1.301	0	PA_without_intermediate	0,0,0,0,0,0,3,2,0	test	ward_and_allport	1,0,0,0,0,0,3,2,0	71.0	12.0	1.301	0,0,0,1,2,3,0,0,0	to_hand	s612
282.197	0.49	0	PA_without_intermediate	1,0,0,0,0,0,3,2,0	test	ward_and_allport	1,0,0,0,0,0,3,2,0	89.0	12.0	0.49	0,0,0,1,2,3,0,0,0	to_board	s612
282.696	1.0	0	PA_without_intermediate	n/a	test	ward_and_allport	n/a	-1.0	12.0	n/a	n/a	feedback	s612
283.696	2.088	0	PA_without_intermediate	n/a	test	ward_and_allport	n/a	-1.0	12.0	n/a	n/a	ITI	s612
285.788	8.583	1	PA_with_intermediate	0,0,0,0,0,0,1,2,0	test	ward_and_allport	2,3,0,0,0,0,1,0,0	82.0	13.0	8.583	0,0,0,0,0,0,1,2,3	to_hand	s612
294.373	1.557	0	PA_with_intermediate	0,0,0,3,0,0,1,2,0	test	ward_and_allport	2,3,0,0,0,0,1,0,0	71.0	13.0	1.557	0,0,0,0,0,0,1,2,3	to_board	s612
295.933	1.436	0	PA_with_intermediate	0,0,0,3,0,0,1,0,0	test	ward_and_allport	2,3,0,0,0,0,1,0,0	82.0	13.0	1.436	0,0,0,0,0,0,1,2,3	to_hand	s612
297.372	0.896	0	PA_with_intermediate	2,0,0,3,0,0,1,0,0	test	ward_and_allport	2,3,0,0,0,0,1,0,0	89.0	13.0	0.896	0,0,0,0,0,0,1,2,3	to_board	s612
298.273	0.799	0	PA_with_intermediate	2,0,0,0,0,0,1,0,0	test	ward_and_allport	2,3,0,0,0,0,1,0,0	71.0	13.0	0.799	0,0,0,0,0,0,1,2,3	to_hand	s612
299.072	0.507	0	PA_with_intermediate	2,3,0,0,0,0,1,0,0	test	ward_and_allport	2,3,0,0,0,0,1,0,0	89.0	13.0	0.507	0,0,0,0,0,0,1,2,3	to_board	s612
299.587	1.0	0	PA_with_intermediate	n/a	test	ward_and_allport	n/a	-1.0	13.0	n/a	n/a	feedback	s612
300.587	1.0	0	PA_with_intermediate	n/a	test	ward_and_allport	n/a	-1.0	13.0	n/a	n/a	ITI	s612
301.592	4.083	1	PA_without_intermediate	0,0,0,0,0,0,1,2,0	test	ward_and_allport	3,1,0,2,0,0,0,0,0	82.0	14.0	4.083	0,0,0,0,0,0,1,2,3	to_hand	s612
305.676	3.225	0	PA_without_intermediate	3,0,0,0,0,0,1,2,0	test	ward_and_allport	3,1,0,2,0,0,0,0,0	89.0	14.0	3.225	0,0,0,0,0,0,1,2,3	to_board	s612
308.905	2.787	0	PA_without_intermediate	3,0,0,0,0,0,1,0,0	test	ward_and_allport	3,1,0,2,0,0,0,0,0	82.0	14.0	2.787	0,0,0,0,0,0,1,2,3	to_hand	s612
311.694	0.643	0	PA_without_intermediate	3,0,0,2,0,0,1,0,0	test	ward_and_allport	3,1,0,2,0,0,0,0,0	71.0	14.0	0.643	0,0,0,0,0,0,1,2,3	to_board	s612
312.343	1.302	0	PA_without_intermediate	3,0,0,2,0,0,0,0,0	test	ward_and_allport	3,1,0,2,0,0,0,0,0	82.0	14.0	1.302	0,0,0,0,0,0,1,2,3	to_hand	s612
313.646	0.635	0	PA_without_intermediate	3,1,0,2,0,0,0,0,0	test	ward_and_allport	3,1,0,2,0,0,0,0,0	89.0	14.0	0.635	0,0,0,0,0,0,1,2,3	to_board	s612
314.287	1.0	0	PA_without_intermediate	n/a	test	ward_and_allport	n/a	-1.0	14.0	n/a	n/a	feedback	s612
315.287	1.0	0	PA_without_intermediate	n/a	test	ward_and_allport	n/a	-1.0	14.0	n/a	n/a	ITI	s612
321.294	3.815	1	PA_without_intermediate	1,2,0,0,0,0,0,0,0	test	ward_and_allport	0,0,0,2,0,0,3,1,0	89.0	15.0	3.815	1,2,3,0,0,0,0,0,0	to_hand	s612
325.109	0.509	0	PA_without_intermediate	1,2,0,0,0,0,3,0,0	test	ward_and_allport	0,0,0,2,0,0,3,1,0	82.0	15.0	0.509	1,2,3,0,0,0,0,0,0	to_board	s612
325.623	1.659	0	PA_without_intermediate	1,0,0,0,0,0,3,0,0	test	ward_and_allport	0,0,0,2,0,0,3,1,0	89.0	15.0	1.659	1,2,3,0,0,0,0,0,0	to_hand	s612
327.283	1.031	0	PA_without_intermediate	1,0,0,2,0,0,3,0,0	test	ward_and_allport	0,0,0,2,0,0,3,1,0	71.0	15.0	1.031	1,2,3,0,0,0,0,0,0	to_board	s612
328.319	0.88	0	PA_without_intermediate	0,0,0,2,0,0,3,0,0	test	ward_and_allport	0,0,0,2,0,0,3,1,0	89.0	15.0	0.88	1,2,3,0,0,0,0,0,0	to_hand	s612
329.2	0.622	0	PA_without_intermediate	0,0,0,2,0,0,3,1,0	test	ward_and_allport	0,0,0,2,0,0,3,1,0	82.0	15.0	0.622	1,2,3,0,0,0,0,0,0	to_board	s612
329.829	1.0	0	PA_without_intermediate	n/a	test	ward_and_allport	n/a	-1.0	15.0	n/a	n/a	feedback	s612
330.829	1.0	0	PA_without_intermediate	n/a	test	ward_and_allport	n/a	-1.0	15.0	n/a	n/a	ITI	s612
331.835	5.135	1	PA_with_intermediate	1,2,0,0,0,0,0,0,0	test	ward_and_allport	1,3,0,2,0,0,0,0,0	89.0	16.0	5.135	1,2,3,0,0,0,0,0,0	to_hand	s612
336.971	1.27	0	PA_with_intermediate	1,2,0,0,0,0,3,0,0	test	ward_and_allport	1,3,0,2,0,0,0,0,0	82.0	16.0	1.27	1,2,3,0,0,0,0,0,0	to_board	s612
338.246	1.578	0	PA_with_intermediate	1,0,0,0,0,0,3,0,0	test	ward_and_allport	1,3,0,2,0,0,0,0,0	89.0	16.0	1.578	1,2,3,0,0,0,0,0,0	to_hand	s612
339.826	0.566	0	PA_with_intermediate	1,0,0,2,0,0,3,0,0	test	ward_and_allport	1,3,0,2,0,0,0,0,0	71.0	16.0	0.566	1,2,3,0,0,0,0,0,0	to_board	s612
340.398	2.091	0	PA_with_intermediate	1,0,0,2,0,0,0,0,0	test	ward_and_allport	1,3,0,2,0,0,0,0,0	82.0	16.0	2.091	1,2,3,0,0,0,0,0,0	to_hand	s612
342.491	0.608	0	PA_with_intermediate	1,3,0,2,0,0,0,0,0	test	ward_and_allport	1,3,0,2,0,0,0,0,0	89.0	16.0	0.608	1,2,3,0,0,0,0,0,0	to_board	s612
343.104	1.0	0	PA_with_intermediate	n/a	test	ward_and_allport	n/a	-1.0	16.0	n/a	n/a	feedback	s612
344.104	1.544	0	PA_with_intermediate	n/a	test	ward_and_allport	n/a	-1.0	16.0	n/a	n/a	ITI	s612
345.653	8.703	1	PA_without_intermediate	0,0,0,1,2,0,0,0,0	test	ward_and_allport	3,2,0,0,0,0,1,0,0	71.0	17.0	8.703	0,0,0,1,2,3,0,0,0	to_hand	s612
354.358	0.661	0	PA_without_intermediate	3,0,0,1,2,0,0,0,0	test	ward_and_allport	3,2,0,0,0,0,1,0,0	89.0	17.0	0.661	0,0,0,1,2,3,0,0,0	to_board	s612
355.025	1.766	0	PA_without_intermediate	3,0,0,1,0,0,0,0,0	test	ward_and_allport	3,2,0,0,0,0,1,0,0	71.0	17.0	1.766	0,0,0,1,2,3,0,0,0	to_hand	s612
356.792	0.868	0	PA_without_intermediate	3,2,0,1,0,0,0,0,0	test	ward_and_allport	3,2,0,0,0,0,1,0,0	89.0	17.0	0.868	0,0,0,1,2,3,0,0,0	to_board	s612
357.666	1.665	0	PA_without_intermediate	3,2,0,0,0,0,0,0,0	test	ward_and_allport	3,2,0,0,0,0,1,0,0	71.0	17.0	1.665	0,0,0,1,2,3,0,0,0	to_hand	s612
359.332	0.858	0	PA_without_intermediate	3,2,0,0,0,0,1,0,0	test	ward_and_allport	3,2,0,0,0,0,1,0,0	82.0	17.0	0.858	0,0,0,1,2,3,0,0,0	to_board	s612
360.195	1.0	0	PA_without_intermediate	n/a	test	ward_and_allport	n/a	-1.0	17.0	n/a	n/a	feedback	s612
361.195	1.272	0	PA_without_intermediate	n/a	test	ward_and_allport	n/a	-1.0	17.0	n/a	n/a	ITI	s612
362.475	3.893	1	PA_with_intermediate	1,2,0,0,0,0,0,0,0	test	ward_and_allport	1,0,0,0,0,0,2,3,0	89.0	18.0	3.893	1,2,3,0,0,0,0,0,0	to_hand	s612
366.369	0.677	0	PA_with_intermediate	1,2,0,3,0,0,0,0,0	test	ward_and_allport	1,0,0,0,0,0,2,3,0	71.0	18.0	0.677	1,2,3,0,0,0,0,0,0	to_board	s612
367.052	0.976	0	PA_with_intermediate	1,0,0,3,0,0,0,0,0	test	ward_and_allport	1,0,0,0,0,0,2,3,0	89.0	18.0	0.976	1,2,3,0,0,0,0,0,0	to_hand	s612
368.03	0.673	0	PA_with_intermediate	1,0,0,3,0,0,2,0,0	test	ward_and_allport	1,0,0,0,0,0,2,3,0	82.0	18.0	0.673	1,2,3,0,0,0,0,0,0	to_board	s612
368.709	2.209	0	PA_with_intermediate	1,0,0,0,0,0,2,0,0	test	ward_and_allport	1,0,0,0,0,0,2,3,0	71.0	18.0	2.209	1,2,3,0,0,0,0,0,0	to_hand	s612
370.92	0.599	0	PA_with_intermediate	1,0,0,0,0,0,2,3,0	test	ward_and_allport	1,0,0,0,0,0,2,3,0	82.0	18.0	0.599	1,2,3,0,0,0,0,0,0	to_board	s612
371.529	1.0	0	PA_with_intermediate	n/a	test	ward_and_allport	n/a	-1.0	18.0	n/a	n/a	feedback	s612
372.529	3.04	0	PA_with_intermediate	n/a	test	ward_and_allport	n/a	-1.0	18.0	n/a	n/a	ITI	s612
375.574	3.649	1	PA_with_intermediate	0,0,0,1,2,0,0,0,0	test	ward_and_allport	2,0,0,1,3,0,0,0,0	71.0	19.0	3.649	0,0,0,1,2,3,0,0,0	to_hand	s612
379.224	0.95	0	PA_with_intermediate	0,0,0,1,2,0,3,0,0	test	ward_and_allport	2,0,0,1,3,0,0,0,0	82.0	19.0	0.95	0,0,0,1,2,3,0,0,0	to_board	s612
380.179	1.108	0	PA_with_intermediate	0,0,0,1,0,0,3,0,0	test	ward_and_allport	2,0,0,1,3,0,0,0,0	71.0	19.0	1.108	0,0,0,1,2,3,0,0,0	to_hand	s612
381.288	0.626	0	PA_with_intermediate	2,0,0,1,0,0,3,0,0	test	ward_and_allport	2,0,0,1,3,0,0,0,0	89.0	19.0	0.626	0,0,0,1,2,3,0,0,0	to_board	s612
381.921	1.982	0	PA_with_intermediate	2,0,0,1,0,0,0,0,0	test	ward_and_allport	2,0,0,1,3,0,0,0,0	82.0	19.0	1.982	0,0,0,1,2,3,0,0,0	to_hand	s612
383.904	0.591	0	PA_with_intermediate	2,0,0,1,3,0,0,0,0	test	ward_and_allport	2,0,0,1,3,0,0,0,0	71.0	19.0	0.591	0,0,0,1,2,3,0,0,0	to_board	s612
384.503	1.0	0	PA_with_intermediate	n/a	test	ward_and_allport	n/a	-1.0	19.0	n/a	n/a	feedback	s612
385.503	1.272	0	PA_with_intermediate	n/a	test	ward_and_allport	n/a	-1.0	19.0	n/a	n/a	ITI	s612
386.781	9.917	1	PA_with_intermediate	0,0,0,0,0,0,1,2,0	test	ward_and_allport	2,0,0,0,0,0,1,3,0	82.0	20.0	9.917	0,0,0,0,0,0,1,2,3	to_hand	s612
396.7	0.543	0	PA_with_intermediate	0,0,0,3,0,0,1,2,0	test	ward_and_allport	2,0,0,0,0,0,1,3,0	71.0	20.0	0.543	0,0,0,0,0,0,1,2,3	to_board	s612
397.249	2.63	0	PA_with_intermediate	0,0,0,3,0,0,1,0,0	test	ward_and_allport	2,0,0,0,0,0,1,3,0	82.0	20.0	2.63	0,0,0,0,0,0,1,2,3	to_hand	s612
399.88	0.601	0	PA_with_intermediate	2,0,0,3,0,0,1,0,0	test	ward_and_allport	2,0,0,0,0,0,1,3,0	89.0	20.0	0.601	0,0,0,0,0,0,1,2,3	to_board	s612
400.488	1.176	0	PA_with_intermediate	2,0,0,0,0,0,1,0,0	test	ward_and_allport	2,0,0,0,0,0,1,3,0	71.0	20.0	1.176	0,0,0,0,0,0,1,2,3	to_hand	s612
401.666	0.673	0	PA_with_intermediate	2,0,0,0,0,0,1,3,0	test	ward_and_allport	2,0,0,0,0,0,1,3,0	82.0	20.0	0.673	0,0,0,0,0,0,1,2,3	to_board	s612
402.346	1.0	0	PA_with_intermediate	n/a	test	ward_and_allport	n/a	-1.0	20.0	n/a	n/a	feedback	s612
403.346	1.136	0	PA_with_intermediate	n/a	test	ward_and_allport	n/a	-1.0	20.0	n/a	n/a	ITI	s612
404.489	5.512	1	PA_with_intermediate	0,0,0,0,0,0,1,2,0	test	ward_and_allport	2,0,0,0,0,0,1,3,0	82.0	21.0	5.512	0,0,0,0,0,0,1,2,3	to_hand	s612
410.001	0.562	0	PA_with_intermediate	0,0,0,3,0,0,1,2,0	test	ward_and_allport	2,0,0,0,0,0,1,3,0	71.0	21.0	0.562	0,0,0,0,0,0,1,2,3	to_board	s612
410.57	1.157	0	PA_with_intermediate	0,0,0,3,0,0,1,0,0	test	ward_and_allport	2,0,0,0,0,0,1,3,0	82.0	21.0	1.157	0,0,0,0,0,0,1,2,3	to_hand	s612
411.728	0.569	0	PA_with_intermediate	2,0,0,3,0,0,1,0,0	test	ward_and_allport	2,0,0,0,0,0,1,3,0	89.0	21.0	0.569	0,0,0,0,0,0,1,2,3	to_board	s612
412.303	1.003	0	PA_with_intermediate	2,0,0,0,0,0,1,0,0	test	ward_and_allport	2,0,0,0,0,0,1,3,0	71.0	21.0	1.003	0,0,0,0,0,0,1,2,3	to_hand	s612
413.308	0.606	0	PA_with_intermediate	2,0,0,0,0,0,1,3,0	test	ward_and_allport	2,0,0,0,0,0,1,3,0	82.0	21.0	0.606	0,0,0,0,0,0,1,2,3	to_board	s612
413.92	1.0	0	PA_with_intermediate	n/a	test	ward_and_allport	n/a	-1.0	21.0	n/a	n/a	feedback	s612
414.92	1.0	0	PA_with_intermediate	n/a	test	ward_and_allport	n/a	-1.0	21.0	n/a	n/a	ITI	s612
415.927	4.956	1	PA_with_intermediate	0,0,0,1,2,0,0,0,0	test	ward_and_allport	0,0,0,1,3,0,2,0,0	71.0	22.0	4.956	0,0,0,1,2,3,0,0,0	to_hand	s612
420.885	0.993	0	PA_with_intermediate	3,0,0,1,2,0,0,0,0	test	ward_and_allport	0,0,0,1,3,0,2,0,0	89.0	22.0	0.993	0,0,0,1,2,3,0,0,0	to_board	s612
421.886	0.808	0	PA_with_intermediate	3,0,0,1,0,0,0,0,0	test	ward_and_allport	0,0,0,1,3,0,2,0,0	71.0	22.0	0.808	0,0,0,1,2,3,0,0,0	to_hand	s612
422.696	0.835	0	PA_with_intermediate	3,0,0,1,0,0,2,0,0	test	ward_and_allport	0,0,0,1,3,0,2,0,0	82.0	22.0	0.835	0,0,0,1,2,3,0,0,0	to_board	s612
423.538	0.757	0	PA_with_intermediate	3,0,0,0,0,0,2,0,0	test	ward_and_allport	0,0,0,1,3,0,2,0,0	71.0	22.0	0.757	0,0,0,1,2,3,0,0,0	to_hand	s612
424.297	2.188	0	PA_with_intermediate	3,0,0,1,0,0,2,0,0	test	ward_and_allport	0,0,0,1,3,0,2,0,0	71.0	22.0	2.188	0,0,0,1,2,3,0,0,0	to_board	s612
426.493	1.156	0	PA_with_intermediate	0,0,0,1,0,0,2,0,0	test	ward_and_allport	0,0,0,1,3,0,2,0,0	89.0	22.0	1.156	0,0,0,1,2,3,0,0,0	to_hand	s612
427.651	0.628	0	PA_with_intermediate	0,0,0,1,3,0,2,0,0	test	ward_and_allport	0,0,0,1,3,0,2,0,0	71.0	22.0	0.628	0,0,0,1,2,3,0,0,0	to_board	s612
428.291	1.0	0	PA_with_intermediate	n/a	test	ward_and_allport	n/a	-1.0	22.0	n/a	n/a	feedback	s612
429.291	1.0	0	PA_with_intermediate	n/a	test	ward_and_allport	n/a	-1.0	22.0	n/a	n/a	ITI	s612
430.298	4.112	1	PA_without_intermediate	0,0,0,1,2,0,0,0,0	test	ward_and_allport	3,1,0,0,0,0,2,0,0	71.0	23.0	4.112	0,0,0,1,2,3,0,0,0	to_hand	s612
434.411	0.55	0	PA_without_intermediate	3,0,0,1,2,0,0,0,0	test	ward_and_allport	3,1,0,0,0,0,2,0,0	89.0	23.0	0.55	0,0,0,1,2,3,0,0,0	to_board	s612
434.969	1.314	0	PA_without_intermediate	3,0,0,1,0,0,0,0,0	test	ward_and_allport	3,1,0,0,0,0,2,0,0	71.0	23.0	1.314	0,0,0,1,2,3,0,0,0	to_hand	s612
436.284	0.698	0	PA_without_intermediate	3,0,0,1,0,0,2,0,0	test	ward_and_allport	3,1,0,0,0,0,2,0,0	82.0	23.0	0.698	0,0,0,1,2,3,0,0,0	to_board	s612
436.99	0.605	0	PA_without_intermediate	3,0,0,0,0,0,2,0,0	test	ward_and_allport	3,1,0,0,0,0,2,0,0	71.0	23.0	0.605	0,0,0,1,2,3,0,0,0	to_hand	s612
437.596	0.494	0	PA_without_intermediate	3,1,0,0,0,0,2,0,0	test	ward_and_allport	3,1,0,0,0,0,2,0,0	89.0	23.0	0.494	0,0,0,1,2,3,0,0,0	to_board	s612
438.102	1.0	0	PA_without_intermediate	n/a	test	ward_and_allport	n/a	-1.0	23.0	n/a	n/a	feedback	s612
439.102	1.408	0	PA_without_intermediate	n/a	test	ward_and_allport	n/a	-1.0	23.0	n/a	n/a	ITI	s612
440.519	3.789	1	PA_with_intermediate	0,0,0,1,2,0,0,0,0	test	ward_and_allport	0,0,0,1,0,0,2,3,0	71.0	24.0	3.789	0,0,0,1,2,3,0,0,0	to_hand	s612
444.31	0.717	0	PA_with_intermediate	3,0,0,1,2,0,0,0,0	test	ward_and_allport	0,0,0,1,0,0,2,3,0	89.0	24.0	0.717	0,0,0,1,2,3,0,0,0	to_board	s612
445.035	0.914	0	PA_with_intermediate	3,0,0,1,0,0,0,0,0	test	ward_and_allport	0,0,0,1,0,0,2,3,0	71.0	24.0	0.914	0,0,0,1,2,3,0,0,0	to_hand	s612
445.949	0.696	0	PA_with_intermediate	3,0,0,1,0,0,2,0,0	test	ward_and_allport	0,0,0,1,0,0,2,3,0	82.0	24.0	0.696	0,0,0,1,2,3,0,0,0	to_board	s612
446.653	1.672	0	PA_with_intermediate	3,0,0,0,0,0,2,0,0	test	ward_and_allport	0,0,0,1,0,0,2,3,0	71.0	24.0	1.672	0,0,0,1,2,3,0,0,0	to_hand	s612
448.326	1.281	0	PA_with_intermediate	3,0,0,1,0,0,2,0,0	test	ward_and_allport	0,0,0,1,0,0,2,3,0	71.0	24.0	1.281	0,0,0,1,2,3,0,0,0	to_board	s612
449.615	0.496	0	PA_with_intermediate	0,0,0,1,0,0,2,0,0	test	ward_and_allport	0,0,0,1,0,0,2,3,0	89.0	24.0	0.496	0,0,0,1,2,3,0,0,0	to_hand	s612
450.113	0.589	0	PA_with_intermediate	0,0,0,1,0,0,2,3,0	test	ward_and_allport	0,0,0,1,0,0,2,3,0	82.0	24.0	0.589	0,0,0,1,2,3,0,0,0	to_board	s612
450.711	1.0	0	PA_with_intermediate	n/a	test	ward_and_allport	n/a	-1.0	24.0	n/a	n/a	feedback	s612
451.711	2.768	0	PA_with_intermediate	n/a	test	ward_and_allport	n/a	-1.0	24.0	n/a	n/a	ITI	s612
454.488	5.311	1	PA_with_intermediate	1,2,0,0,0,0,0,0,0	test	ward_and_allport	1,0,0,2,3,0,0,0,0	89.0	25.0	5.311	1,2,3,0,0,0,0,0,0	to_hand	s612
459.8	0.718	0	PA_with_intermediate	1,2,0,0,0,0,3,0,0	test	ward_and_allport	1,0,0,2,3,0,0,0,0	82.0	25.0	0.718	1,2,3,0,0,0,0,0,0	to_board	s612
460.525	0.955	0	PA_with_intermediate	1,0,0,0,0,0,3,0,0	test	ward_and_allport	1,0,0,2,3,0,0,0,0	89.0	25.0	0.955	1,2,3,0,0,0,0,0,0	to_hand	s612
461.482	0.651	0	PA_with_intermediate	1,0,0,2,0,0,3,0,0	test	ward_and_allport	1,0,0,2,3,0,0,0,0	71.0	25.0	0.651	1,2,3,0,0,0,0,0,0	to_board	s612
462.14	0.951	0	PA_with_intermediate	1,0,0,2,0,0,0,0,0	test	ward_and_allport	1,0,0,2,3,0,0,0,0	82.0	25.0	0.951	1,2,3,0,0,0,0,0,0	to_hand	s612
463.092	0.545	0	PA_with_intermediate	1,0,0,2,3,0,0,0,0	test	ward_and_allport	1,0,0,2,3,0,0,0,0	71.0	25.0	0.545	1,2,3,0,0,0,0,0,0	to_board	s612
463.65	1.0	0	PA_with_intermediate	n/a	test	ward_and_allport	n/a	-1.0	25.0	n/a	n/a	feedback	s612
464.65	1.68	0	PA_with_intermediate	n/a	test	ward_and_allport	n/a	-1.0	25.0	n/a	n/a	ITI	s612
466.339	4.097	1	PA_without_intermediate	0,0,0,1,2,0,0,0,0	test	ward_and_allport	2,0,0,0,0,0,3,1,0	71.0	26.0	4.097	0,0,0,1,2,3,0,0,0	to_hand	s612
470.437	1.025	0	PA_without_intermediate	0,0,0,1,2,0,3,0,0	test	ward_and_allport	2,0,0,0,0,0,3,1,0	82.0	26.0	1.025	0,0,0,1,2,3,0,0,0	to_board	s612
471.471	1.918	0	PA_without_intermediate	0,0,0,1,0,0,3,0,0	test	ward_and_allport	2,0,0,0,0,0,3,1,0	71.0	26.0	1.918	0,0,0,1,2,3,0,0,0	to_hand	s612
473.39	0.492	0	PA_without_intermediate	2,0,0,1,0,0,3,0,0	test	ward_and_allport	2,0,0,0,0,0,3,1,0	89.0	26.0	0.492	0,0,0,1,2,3,0,0,0	to_board	s612
473.89	1.252	0	PA_without_intermediate	2,0,0,0,0,0,3,0,0	test	ward_and_allport	2,0,0,0,0,0,3,1,0	71.0	26.0	1.252	0,0,0,1,2,3,0,0,0	to_hand	s612
475.143	0.6	0	PA_without_intermediate	2,0,0,0,0,0,3,1,0	test	ward_and_allport	2,0,0,0,0,0,3,1,0	82.0	26.0	0.6	0,0,0,1,2,3,0,0,0	to_board	s612
475.752	1.0	0	PA_without_intermediate	n/a	test	ward_and_allport	n/a	-1.0	26.0	n/a	n/a	feedback	s612
476.752	2.224	0	PA_without_intermediate	n/a	test	ward_and_allport	n/a	-1.0	26.0	n/a	n/a	ITI	s612
478.983	3.345	1	PA_without_intermediate	0,0,0,0,0,0,1,2,0	test	ward_and_allport	1,0,0,3,2,0,0,0,0	82.0	27.0	3.345	0,0,0,0,0,0,1,2,3	to_hand	s612
482.33	0.561	0	PA_without_intermediate	0,0,0,3,0,0,1,2,0	test	ward_and_allport	1,0,0,3,2,0,0,0,0	71.0	27.0	0.561	0,0,0,0,0,0,1,2,3	to_board	s612
482.899	1.146	0	PA_without_intermediate	0,0,0,3,0,0,1,0,0	test	ward_and_allport	1,0,0,3,2,0,0,0,0	82.0	27.0	1.146	0,0,0,0,0,0,1,2,3	to_hand	s612
484.047	1.438	0	PA_without_intermediate	0,0,0,3,2,0,1,0,0	test	ward_and_allport	1,0,0,3,2,0,0,0,0	71.0	27.0	1.438	0,0,0,0,0,0,1,2,3	to_board	s612
485.494	1.878	0	PA_without_intermediate	0,0,0,3,2,0,0,0,0	test	ward_and_allport	1,0,0,3,2,0,0,0,0	82.0	27.0	1.878	0,0,0,0,0,0,1,2,3	to_hand	s612
487.374	0.594	0	PA_without_intermediate	1,0,0,3,2,0,0,0,0	test	ward_and_allport	1,0,0,3,2,0,0,0,0	89.0	27.0	0.594	0,0,0,0,0,0,1,2,3	to_board	s612
487.981	1.0	0	PA_without_intermediate	n/a	test	ward_and_allport	n/a	-1.0	27.0	n/a	n/a	feedback	s612
488.981	2.36	0	PA_without_intermediate	n/a	test	ward_and_allport	n/a	-1.0	27.0	n/a	n/a	ITI	s612
491.35	4.273	1	PA_without_intermediate	0,0,0,1,2,0,0,0,0	test	ward_and_allport	2,0,0,0,0,0,3,1,0	71.0	28.0	4.273	0,0,0,1,2,3,0,0,0	to_hand	s612
495.624	0.811	0	PA_without_intermediate	0,0,0,1,2,0,3,0,0	test	ward_and_allport	2,0,0,0,0,0,3,1,0	82.0	28.0	0.811	0,0,0,1,2,3,0,0,0	to_board	s612
496.444	1.34	0	PA_without_intermediate	0,0,0,1,0,0,3,0,0	test	ward_and_allport	2,0,0,0,0,0,3,1,0	71.0	28.0	1.34	0,0,0,1,2,3,0,0,0	to_hand	s612
497.785	0.504	0	PA_without_intermediate	2,0,0,1,0,0,3,0,0	test	ward_and_allport	2,0,0,0,0,0,3,1,0	89.0	28.0	0.504	0,0,0,1,2,3,0,0,0	to_board	s612
498.298	0.929	0	PA_without_intermediate	2,0,0,0,0,0,3,0,0	test	ward_and_allport	2,0,0,0,0,0,3,1,0	71.0	28.0	0.929	0,0,0,1,2,3,0,0,0	to_hand	s612
499.228	0.563	0	PA_without_intermediate	2,0,0,0,0,0,3,1,0	test	ward_and_allport	2,0,0,0,0,0,3,1,0	82.0	28.0	0.563	0,0,0,1,2,3,0,0,0	to_board	s612
499.803	1.0	0	PA_without_intermediate	n/a	test	ward_and_allport	n/a	-1.0	28.0	n/a	n/a	feedback	s612
500.803	1.0	0	PA_without_intermediate	n/a	test	ward_and_allport	n/a	-1.0	28.0	n/a	n/a	ITI	s612
501.813	3.418	1	PA_without_intermediate	1,2,0,0,0,0,0,0,0	test	ward_and_allport	0,0,0,1,0,0,3,2,0	89.0	29.0	3.418	1,2,3,0,0,0,0,0,0	to_hand	s612
505.232	1.18	0	PA_without_intermediate	1,2,0,0,0,0,3,0,0	test	ward_and_allport	0,0,0,1,0,0,3,2,0	82.0	29.0	1.18	1,2,3,0,0,0,0,0,0	to_board	s612
506.423	0.604	0	PA_without_intermediate	1,0,0,0,0,0,3,0,0	test	ward_and_allport	0,0,0,1,0,0,3,2,0	89.0	29.0	0.604	1,2,3,0,0,0,0,0,0	to_hand	s612
507.028	1.569	0	PA_without_intermediate	1,0,0,0,0,0,3,2,0	test	ward_and_allport	0,0,0,1,0,0,3,2,0	82.0	29.0	1.569	1,2,3,0,0,0,0,0,0	to_board	s612
508.607	0.794	0	PA_without_intermediate	0,0,0,0,0,0,3,2,0	test	ward_and_allport	0,0,0,1,0,0,3,2,0	89.0	29.0	0.794	1,2,3,0,0,0,0,0,0	to_hand	s612
509.403	0.595	0	PA_without_intermediate	0,0,0,1,0,0,3,2,0	test	ward_and_allport	0,0,0,1,0,0,3,2,0	71.0	29.0	0.595	1,2,3,0,0,0,0,0,0	to_board	s612
510.009	1.0	0	PA_without_intermediate	n/a	test	ward_and_allport	n/a	-1.0	29.0	n/a	n/a	feedback	s612
511.009	1.408	0	PA_without_intermediate	n/a	test	ward_and_allport	n/a	-1.0	29.0	n/a	n/a	ITI	s612
517.428	3.293	1	PA_with_intermediate	0,0,0,1,2,0,0,0,0	test	ward_and_allport	0,0,0,1,0,0,2,3,0	71.0	30.0	3.293	0,0,0,1,2,3,0,0,0	to_hand	s612
520.721	0.696	0	PA_with_intermediate	3,0,0,1,2,0,0,0,0	test	ward_and_allport	0,0,0,1,0,0,2,3,0	89.0	30.0	0.696	0,0,0,1,2,3,0,0,0	to_board	s612
521.425	0.524	0	PA_with_intermediate	3,0,0,1,0,0,0,0,0	test	ward_and_allport	0,0,0,1,0,0,2,3,0	71.0	30.0	0.524	0,0,0,1,2,3,0,0,0	to_hand	s612
521.951	0.606	0	PA_with_intermediate	3,0,0,1,0,0,2,0,0	test	ward_and_allport	0,0,0,1,0,0,2,3,0	82.0	30.0	0.606	0,0,0,1,2,3,0,0,0	to_board	s612
522.566	2.361	0	PA_with_intermediate	0,0,0,1,0,0,2,0,0	test	ward_and_allport	0,0,0,1,0,0,2,3,0	89.0	30.0	2.361	0,0,0,1,2,3,0,0,0	to_hand	s612
524.928	1.181	0	PA_with_intermediate	0,0,0,1,0,0,2,3,0	test	ward_and_allport	0,0,0,1,0,0,2,3,0	82.0	30.0	1.181	0,0,0,1,2,3,0,0,0	to_board	s612
526.121	1.0	0	PA_with_intermediate	n/a	test	ward_and_allport	n/a	-1.0	30.0	n/a	n/a	feedback	s612
527.121	1.136	0	PA_with_intermediate	n/a	test	ward_and_allport	n/a	-1.0	30.0	n/a	n/a	ITI	s612
528.267	5.642	1	PA_without_intermediate	0,0,0,0,0,0,1,2,0	test	ward_and_allport	3,2,0,1,0,0,0,0,0	82.0	31.0	5.642	0,0,0,0,0,0,1,2,3	to_hand	s612
533.911	0.838	0	PA_without_intermediate	3,0,0,0,0,0,1,2,0	test	ward_and_allport	3,2,0,1,0,0,0,0,0	89.0	31.0	0.838	0,0,0,0,0,0,1,2,3	to_board	s612
534.761	2.733	0	PA_without_intermediate	3,0,0,0,0,0,1,0,0	test	ward_and_allport	3,2,0,1,0,0,0,0,0	82.0	31.0	2.733	0,0,0,0,0,0,1,2,3	to_hand	s612
537.496	0.565	0	PA_without_intermediate	3,2,0,0,0,0,1,0,0	test	ward_and_allport	3,2,0,1,0,0,0,0,0	89.0	31.0	0.565	0,0,0,0,0,0,1,2,3	to_board	s612
538.072	1.244	0	PA_without_intermediate	3,2,0,0,0,0,0,0,0	test	ward_and_allport	3,2,0,1,0,0,0,0,0	82.0	31.0	1.244	0,0,0,0,0,0,1,2,3	to_hand	s612
539.318	0.549	0	PA_without_intermediate	3,2,0,1,0,0,0,0,0	test	ward_and_allport	3,2,0,1,0,0,0,0,0	71.0	31.0	0.549	0,0,0,0,0,0,1,2,3	to_board	s612
539.882	1.0	0	PA_without_intermediate	n/a	test	ward_and_allport	n/a	-1.0	31.0	n/a	n/a	feedback	s612
540.882	4.128	0	PA_without_intermediate	n/a	test	ward_and_allport	n/a	-1.0	31.0	n/a	n/a	ITI	s612
545.02	3.403	1	PA_without_intermediate	0,0,0,0,0,0,1,2,0	test	ward_and_allport	3,2,0,1,0,0,0,0,0	82.0	32.0	3.403	0,0,0,0,0,0,1,2,3	to_hand	s612
548.425	0.612	0	PA_without_intermediate	3,0,0,0,0,0,1,2,0	test	ward_and_allport	3,2,0,1,0,0,0,0,0	89.0	32.0	0.612	0,0,0,0,0,0,1,2,3	to_board	s612
549.048	1.426	0	PA_without_intermediate	3,0,0,0,0,0,1,0,0	test	ward_and_allport	3,2,0,1,0,0,0,0,0	82.0	32.0	1.426	0,0,0,0,0,0,1,2,3	to_hand	s612
550.475	2.617	0	PA_without_intermediate	3,2,0,0,0,0,1,0,0	test	ward_and_allport	3,2,0,1,0,0,0,0,0	89.0	32.0	2.617	0,0,0,0,0,0,1,2,3	to_board	s612
553.103	2.614	0	PA_without_intermediate	3,2,0,0,0,0,0,0,0	test	ward_and_allport	3,2,0,1,0,0,0,0,0	82.0	32.0	2.614	0,0,0,0,0,0,1,2,3	to_hand	s612
555.718	0.922	0	PA_without_intermediate	3,2,0,1,0,0,0,0,0	test	ward_and_allport	3,2,0,1,0,0,0,0,0	71.0	32.0	0.922	0,0,0,0,0,0,1,2,3	to_board	s612
556.65	1.0	0	PA_without_intermediate	n/a	test	ward_and_allport	n/a	-1.0	32.0	n/a	n/a	feedback	s612
557.65	1.136	0	PA_without_intermediate	n/a	test	ward_and_allport	n/a	-1.0	32.0	n/a	n/a	ITI	s612
n/a	n/a	0	n/a	n/a	n/a	n/a	n/a	n/a	n/a	n/a	n/a	ITI	n/a
