onset	duration	EV	action	clicked_on_loss_card	experiment_exp_id	gain_amount	gain_probability	key_press	loss_amount	loss_probability	num_cards	num_click_in_round	num_loss_cards	risk	response_time	total_cards	trial_id	worker_id
3.015	2.855	0.1878950350724544	draw_card	0.0	columbia_card_task_fmri	12.0	0.8333333333333334	89.0	-70.0	0.1666666666666666	6.0	1.0	1.0	-2.570128111998333	2.855	n/a	stim	s612
5.874	0.642	-2.545438298260878	draw_card	1.0	columbia_card_task_fmri	12.0	0.8	89.0	-70.0	0.2	6.0	2.0	1.0	-0.3335576956295227	0.642	2.0	stim	s612
6.52	2.25	n/a	-1.0	n/a	columbia_card_task_fmri	n/a	n/a	-1.0	n/a	n/a	n/a	n/a	n/a	n/a	n/a	n/a	feedback	s612
8.77	0.068	n/a	-1.0	n/a	columbia_card_task_fmri	n/a	n/a	-1.0	n/a	n/a	n/a	n/a	n/a	n/a	n/a	n/a	ITI	s612
8.841	0.958	1.0212283684057883	draw_card	0.0	columbia_card_task_fmri	14.0	0.8333333333333334	89.0	-75.0	0.1666666666666666	6.0	1.0	1.0	0.0342031025208129	0.958	n/a	stim	s612
9.8	0.439	-1.9454382982608784	draw_card	0.0	columbia_card_task_fmri	14.0	0.8	89.0	-75.0	0.2	6.0	2.0	1.0	2.462327714861189	0.439	n/a	stim	s612
10.241	0.384	-6.39543829826088	draw_card	0.0	columbia_card_task_fmri	14.0	0.75	89.0	-75.0	0.25	6.0	3.0	1.0	5.396782266349128	0.384	n/a	stim	s612
10.627	0.864	-13.812104964927546	draw_card	0.0	columbia_card_task_fmri	14.0	0.6666666666666667	89.0	-75.0	0.3333333333333333	6.0	4.0	1.0	8.81002576620174	0.864	n/a	stim	s612
11.491	0.592	-28.64543829826088	end_round	0.0	columbia_card_task_fmri	14.0	0.5	71.0	-75.0	0.5	6.0	5.0	1.0	11.352682445133595	0.592	4.0	stim	s612
12.088	2.25	n/a	-1.0	n/a	columbia_card_task_fmri	n/a	n/a	-1.0	n/a	n/a	n/a	n/a	n/a	n/a	n/a	n/a	feedback	s612
14.338	0.068	n/a	-1.0	n/a	columbia_card_task_fmri	n/a	n/a	-1.0	n/a	n/a	n/a	n/a	n/a	n/a	n/a	n/a	ITI	s612
14.408	0.866	2.6878950350724544	draw_card	1.0	columbia_card_task_fmri	15.0	0.8333333333333334	89.0	-70.0	0.1666666666666666	6.0	1.0	1.0	-1.454074972549506	0.866	1.0	stim	s612
15.278	2.25	n/a	-1.0	n/a	columbia_card_task_fmri	n/a	n/a	-1.0	n/a	n/a	n/a	n/a	n/a	n/a	n/a	n/a	feedback	s612
17.528	0.612	n/a	-1.0	n/a	columbia_card_task_fmri	n/a	n/a	-1.0	n/a	n/a	n/a	n/a	n/a	n/a	n/a	n/a	ITI	s612
18.141	0.698	3.5212283684057883	draw_card	0.0	columbia_card_task_fmri	17.0	0.8333333333333334	89.0	-75.0	0.1666666666666666	6.0	1.0	1.0	1.1505502347453174	0.698	n/a	stim	s612
18.842	0.387	0.4545617017391219	draw_card	1.0	columbia_card_task_fmri	17.0	0.8	89.0	-75.0	0.2	6.0	2.0	1.0	3.660755609688529	0.387	2.0	stim	s612
19.233	2.25	n/a	-1.0	n/a	columbia_card_task_fmri	n/a	n/a	-1.0	n/a	n/a	n/a	n/a	n/a	n/a	n/a	n/a	feedback	s612
21.483	0.476	n/a	-1.0	n/a	columbia_card_task_fmri	n/a	n/a	-1.0	n/a	n/a	n/a	n/a	n/a	n/a	n/a	n/a	ITI	s612
21.962	1.08	4.8545617017391205	draw_card	0.0	columbia_card_task_fmri	24.0	0.75	89.0	-60.0	0.25	8.0	1.0	2.0	3.2343700238522004	1.08	n/a	stim	s612
23.044	0.382	1.8545617017391205	draw_card	0.0	columbia_card_task_fmri	24.0	0.7142857142857143	89.0	-60.0	0.2857142857142857	8.0	2.0	2.0	4.806677233308086	0.382	n/a	stim	s612
23.428	0.333	-2.1454382982608795	draw_card	0.0	columbia_card_task_fmri	24.0	0.6666666666666667	89.0	-60.0	0.3333333333333333	8.0	3.0	2.0	6.455439206136312	0.333	n/a	stim	s612
23.762	0.347	-7.745438298260881	draw_card	1.0	columbia_card_task_fmri	24.0	0.6	89.0	-60.0	0.4	8.0	4.0	2.0	8.007250306195601	0.347	4.0	stim	s612
24.114	2.25	n/a	-1.0	n/a	columbia_card_task_fmri	n/a	n/a	-1.0	n/a	n/a	n/a	n/a	n/a	n/a	n/a	n/a	feedback	s612
26.364	0.0	n/a	-1.0	n/a	columbia_card_task_fmri	n/a	n/a	-1.0	n/a	n/a	n/a	n/a	n/a	n/a	n/a	n/a	ITI	s612
26.366	0.936	4.8545617017391205	draw_card	1.0	columbia_card_task_fmri	29.0	0.75	89.0	-75.0	0.25	8.0	1.0	2.0	11.885546365671615	0.936	1.0	stim	s612
27.308	2.25	n/a	-1.0	n/a	columbia_card_task_fmri	n/a	n/a	-1.0	n/a	n/a	n/a	n/a	n/a	n/a	n/a	n/a	feedback	s612
29.558	0.068	n/a	-1.0	n/a	columbia_card_task_fmri	n/a	n/a	-1.0	n/a	n/a	n/a	n/a	n/a	n/a	n/a	n/a	ITI	s612
29.627	0.701	0.6323394795169008	draw_card	0.0	columbia_card_task_fmri	17.0	0.7777777777777778	89.0	-65.0	0.2222222222222222	9.0	1.0	2.0	0.9551180947386868	0.701	n/a	stim	s612
30.331	0.361	-1.6454382982608795	draw_card	1.0	columbia_card_task_fmri	17.0	0.75	89.0	-65.0	0.25	9.0	2.0	2.0	2.369495479445135	0.361	2.0	stim	s612
30.698	2.25	n/a	-1.0	n/a	columbia_card_task_fmri	n/a	n/a	-1.0	n/a	n/a	n/a	n/a	n/a	n/a	n/a	n/a	feedback	s612
32.948	0.204	n/a	-1.0	n/a	columbia_card_task_fmri	n/a	n/a	-1.0	n/a	n/a	n/a	n/a	n/a	n/a	n/a	n/a	ITI	s612
33.153	0.718	4.95456170173912	draw_card	0.0	columbia_card_task_fmri	14.0	0.9	89.0	-95.0	0.1	10.0	1.0	1.0	-0.4333977442407146	0.718	n/a	stim	s612
33.872	0.506	3.743450590628008	draw_card	0.0	columbia_card_task_fmri	14.0	0.8888888888888888	89.0	-95.0	0.1111111111111111	10.0	2.0	1.0	1.1196150196280357	0.506	n/a	stim	s612
34.381	0.447	2.2295617017391205	draw_card	0.0	columbia_card_task_fmri	14.0	0.875	89.0	-95.0	0.125	10.0	3.0	1.0	2.910089711663133	0.447	n/a	stim	s612
34.829	0.413	0.2831331303105493	draw_card	0.0	columbia_card_task_fmri	14.0	0.8571428571428572	89.0	-95.0	0.1428571428571428	10.0	4.0	1.0	5.001168931432495	0.413	n/a	stim	s612
35.244	0.451	-2.312104964927544	draw_card	1.0	columbia_card_task_fmri	14.0	0.8333333333333334	89.0	-95.0	0.1666666666666666	10.0	5.0	1.0	7.47826812638727	0.451	5.0	stim	s612
35.699	2.25	n/a	-1.0	n/a	columbia_card_task_fmri	n/a	n/a	-1.0	n/a	n/a	n/a	n/a	n/a	n/a	n/a	n/a	feedback	s612
37.949	0.272	n/a	-1.0	n/a	columbia_card_task_fmri	n/a	n/a	-1.0	n/a	n/a	n/a	n/a	n/a	n/a	n/a	n/a	ITI	s612
38.223	0.532	0.8545617017391205	draw_card	0.0	columbia_card_task_fmri	15.0	0.8	89.0	-65.0	0.2	10.0	1.0	2.0	-1.1322501622533778	0.532	n/a	stim	s612
38.757	0.361	-0.9232160760386564	draw_card	0.0	columbia_card_task_fmri	15.0	0.7777777777777778	89.0	-65.0	0.2222222222222222	10.0	2.0	2.0	0.1248969353150712	0.361	n/a	stim	s612
39.12	0.317	-3.1454382982608795	draw_card	0.0	columbia_card_task_fmri	15.0	0.75	89.0	-65.0	0.25	10.0	3.0	2.0	1.504678357587757	0.317	n/a	stim	s612
39.439	0.366	-6.002581155403734	draw_card	1.0	columbia_card_task_fmri	15.0	0.7142857142857143	89.0	-65.0	0.2857142857142857	10.0	4.0	2.0	3.0019230741540426	0.366	4.0	stim	s612
39.81	2.25	n/a	-1.0	n/a	columbia_card_task_fmri	n/a	n/a	-1.0	n/a	n/a	n/a	n/a	n/a	n/a	n/a	n/a	feedback	s612
42.06	0.068	n/a	-1.0	n/a	columbia_card_task_fmri	n/a	n/a	-1.0	n/a	n/a	n/a	n/a	n/a	n/a	n/a	n/a	ITI	s612
42.13	0.689	2.454561701739122	draw_card	0.0	columbia_card_task_fmri	17.0	0.8	89.0	-65.0	0.2	10.0	1.0	2.0	-0.3335576956295227	0.689	n/a	stim	s612
42.821	0.377	0.6323394795169008	draw_card	0.0	columbia_card_task_fmri	17.0	0.7777777777777778	89.0	-65.0	0.2222222222222222	10.0	2.0	2.0	0.9551180947386868	0.377	n/a	stim	s612
43.201	0.343	-1.6454382982608795	draw_card	0.0	columbia_card_task_fmri	17.0	0.75	89.0	-65.0	0.25	10.0	3.0	2.0	2.369495479445135	0.343	n/a	stim	s612
43.546	0.41	-4.5740097268323066	draw_card	1.0	columbia_card_task_fmri	17.0	0.7142857142857143	89.0	-65.0	0.2857142857142857	10.0	4.0	2.0	3.904272624422809	0.41	4.0	stim	s612
43.96	2.25	n/a	-1.0	n/a	columbia_card_task_fmri	n/a	n/a	-1.0	n/a	n/a	n/a	n/a	n/a	n/a	n/a	n/a	feedback	s612
46.21	0.272	n/a	-1.0	n/a	columbia_card_task_fmri	n/a	n/a	-1.0	n/a	n/a	n/a	n/a	n/a	n/a	n/a	n/a	ITI	s612
46.484	0.585	1.0212283684057883	draw_card	1.0	columbia_card_task_fmri	13.0	0.8333333333333334	89.0	-70.0	0.1666666666666666	12.0	1.0	2.0	-2.1981262666921104	0.585	1.0	stim	s612
47.073	2.25	n/a	-1.0	n/a	columbia_card_task_fmri	n/a	n/a	-1.0	n/a	n/a	n/a	n/a	n/a	n/a	n/a	n/a	feedback	s612
49.323	0.748	n/a	-1.0	n/a	columbia_card_task_fmri	n/a	n/a	-1.0	n/a	n/a	n/a	n/a	n/a	n/a	n/a	n/a	ITI	s612
50.074	0.574	1.0212283684057883	draw_card	0.0	columbia_card_task_fmri	15.0	0.8333333333333334	89.0	-80.0	0.1666666666666666	12.0	1.0	2.0	2.2670036793102284	0.574	n/a	stim	s612
50.65	0.368	-0.4181655709881546	draw_card	0.0	columbia_card_task_fmri	15.0	0.8181818181818181	89.0	-80.0	0.1818181818181818	12.0	2.0	2.0	3.501945775033072	0.368	n/a	stim	s612
51.021	0.3	-2.1454382982608795	draw_card	0.0	columbia_card_task_fmri	15.0	0.8	89.0	-80.0	0.2	12.0	3.0	2.0	4.8592826124980135	0.3	n/a	stim	s612
51.323	0.291	-4.256549409371992	draw_card	0.0	columbia_card_task_fmri	15.0	0.7777777777777778	89.0	-80.0	0.2222222222222222	12.0	4.0	2.0	6.352844626602838	0.291	n/a	stim	s612
51.617	0.447	-6.89543829826088	draw_card	0.0	columbia_card_task_fmri	15.0	0.75	89.0	-80.0	0.25	12.0	5.0	2.0	7.992044746421136	0.447	n/a	stim	s612
52.067	0.611	-10.288295441118018	end_round	0.0	columbia_card_task_fmri	15.0	0.7142857142857143	71.0	-80.0	0.2857142857142857	12.0	6.0	2.0	9.77073168335167	0.611	5.0	stim	s612
52.682	2.25	n/a	-1.0	n/a	columbia_card_task_fmri	n/a	n/a	-1.0	n/a	n/a	n/a	n/a	n/a	n/a	n/a	n/a	feedback	s612
54.932	0.068	n/a	-1.0	n/a	columbia_card_task_fmri	n/a	n/a	-1.0	n/a	n/a	n/a	n/a	n/a	n/a	n/a	n/a	ITI	s612
55.003	0.479	0.0545617017391215	draw_card	0.0	columbia_card_task_fmri	14.0	0.8	89.0	-65.0	0.2	15.0	1.0	3.0	-1.5315716318718664	0.479	n/a	stim	s612
55.483	0.304	-1.0740097268323066	draw_card	0.0	columbia_card_task_fmri	14.0	0.7857142857142857	89.0	-65.0	0.2142857142857142	15.0	2.0	3.0	-0.7171913375008998	0.304	n/a	stim	s612
55.79	0.3	-2.3762075290301112	draw_card	0.0	columbia_card_task_fmri	14.0	0.7692307692307692	89.0	-65.0	0.2307692307692307	15.0	3.0	3.0	0.1503591350080881	0.3	n/a	stim	s612
56.093	0.3	-3.89543829826088	draw_card	0.0	columbia_card_task_fmri	14.0	0.75	89.0	-65.0	0.25	15.0	4.0	3.0	1.0722926891063125	0.3	n/a	stim	s612
56.395	0.579	-5.6908928437154245	draw_card	0.0	columbia_card_task_fmri	14.0	0.7272727272727273	89.0	-65.0	0.2727272727272727	15.0	5.0	3.0	2.0464782160542043	0.579	n/a	stim	s612
56.976	0.365	-7.845438298260881	draw_card	0.0	columbia_card_task_fmri	14.0	0.7	89.0	-65.0	0.3	15.0	6.0	3.0	3.063873574486635	0.365	n/a	stim	s612
57.344	0.466	-10.47877163159421	draw_card	0.0	columbia_card_task_fmri	14.0	0.6666666666666667	89.0	-65.0	0.3333333333333333	15.0	7.0	3.0	4.101160466528526	0.466	n/a	stim	s612
57.811	1.505	-13.77043829826088	end_round	0.0	columbia_card_task_fmri	14.0	0.625	71.0	-65.0	0.375	15.0	8.0	3.0	5.104702927814813	1.505	7.0	stim	s612
59.322	2.25	n/a	-1.0	n/a	columbia_card_task_fmri	n/a	n/a	-1.0	n/a	n/a	n/a	n/a	n/a	n/a	n/a	n/a	feedback	s612
61.572	0.0	n/a	-1.0	n/a	columbia_card_task_fmri	n/a	n/a	-1.0	n/a	n/a	n/a	n/a	n/a	n/a	n/a	n/a	ITI	s612
61.574	0.653	-0.0204382982608795	draw_card	1.0	columbia_card_task_fmri	1.0	0.9375	89.0	-45.0	0.0625	16.0	1.0	1.0	-21.897731776411185	0.653	1.0	stim	s612
62.231	2.25	n/a	-1.0	n/a	columbia_card_task_fmri	n/a	n/a	-1.0	n/a	n/a	n/a	n/a	n/a	n/a	n/a	n/a	feedback	s612
64.481	0.204	n/a	-1.0	n/a	columbia_card_task_fmri	n/a	n/a	-1.0	n/a	n/a	n/a	n/a	n/a	n/a	n/a	n/a	ITI	s612
64.688	0.43	0.9170617017391204	draw_card	0.0	columbia_card_task_fmri	15.0	0.8125	89.0	-70.0	0.1875	16.0	1.0	3.0	0.0424005020359601	0.43	n/a	stim	s612
65.121	0.348	-0.1454382982608795	draw_card	0.0	columbia_card_task_fmri	15.0	0.8	89.0	-70.0	0.2	16.0	2.0	3.0	0.8645961097043013	0.348	n/a	stim	s612
65.471	0.295	-1.3597240125465948	draw_card	0.0	columbia_card_task_fmri	15.0	0.7857142857142857	89.0	-70.0	0.2142857142857142	16.0	3.0	3.0	1.7410278179937109	0.295	n/a	stim	s612
65.768	0.287	-2.7608229136454963	draw_card	0.0	columbia_card_task_fmri	15.0	0.7692307692307692	89.0	-70.0	0.2307692307692307	16.0	4.0	3.0	2.674670247709628	0.287	n/a	stim	s612
66.058	0.324	-4.39543829826088	draw_card	0.0	columbia_card_task_fmri	15.0	0.75	89.0	-70.0	0.25	16.0	5.0	3.0	3.6668275661345504	0.324	n/a	stim	s612
66.385	1.077	-6.327256480079059	draw_card	0.0	columbia_card_task_fmri	15.0	0.7272727272727273	89.0	-70.0	0.2727272727272727	16.0	6.0	3.0	4.715205319413876	1.077	n/a	stim	s612
67.466	0.484	-8.64543829826088	draw_card	0.0	columbia_card_task_fmri	15.0	0.7	89.0	-70.0	0.3	16.0	7.0	3.0	5.810072010866705	0.484	n/a	stim	s612
67.952	0.722	-11.47877163159421	end_round	0.0	columbia_card_task_fmri	15.0	0.6666666666666667	71.0	-70.0	0.3333333333333333	16.0	8.0	3.0	6.926333627037494	0.722	7.0	stim	s612
68.677	2.25	n/a	-1.0	n/a	columbia_card_task_fmri	n/a	n/a	-1.0	n/a	n/a	n/a	n/a	n/a	n/a	n/a	n/a	feedback	s612
70.927	0.068	n/a	-1.0	n/a	columbia_card_task_fmri	n/a	n/a	-1.0	n/a	n/a	n/a	n/a	n/a	n/a	n/a	n/a	ITI	s612
70.998	0.562	7.85456170173912	draw_card	0.0	columbia_card_task_fmri	30.0	0.7	89.0	-50.0	0.3	10.0	1.0	3.0	3.521538515236351	0.562	n/a	stim	s612
71.563	0.294	5.18789503507246	draw_card	0.0	columbia_card_task_fmri	30.0	0.6666666666666667	89.0	-50.0	0.3333333333333333	10.0	2.0	3.0	4.571988824886013	0.294	n/a	stim	s612
71.86	0.279	1.8545617017391205	draw_card	0.0	columbia_card_task_fmri	30.0	0.625	89.0	-50.0	0.375	10.0	3.0	3.0	5.588264766706665	0.279	n/a	stim	s612
72.142	0.268	-2.431152583975164	draw_card	0.0	columbia_card_task_fmri	30.0	0.5714285714285714	89.0	-50.0	0.4285714285714285	10.0	4.0	3.0	6.447201236022401	0.268	n/a	stim	s612
72.413	0.373	-8.14543829826088	draw_card	0.0	columbia_card_task_fmri	30.0	0.5	89.0	-50.0	0.5	10.0	5.0	3.0	6.857023686122233	0.373	n/a	stim	s612
72.788	0.727	-16.145438298260878	end_round	0.0	columbia_card_task_fmri	30.0	0.4	71.0	-50.0	0.6	10.0	6.0	3.0	6.04974465068927	0.727	5.0	stim	s612
73.52	2.25	n/a	-1.0	n/a	columbia_card_task_fmri	n/a	n/a	-1.0	n/a	n/a	n/a	n/a	n/a	n/a	n/a	n/a	feedback	s612
75.77	0.068	n/a	-1.0	n/a	columbia_card_task_fmri	n/a	n/a	-1.0	n/a	n/a	n/a	n/a	n/a	n/a	n/a	n/a	ITI	s612
75.841	0.477	7.254561701739121	draw_card	0.0	columbia_card_task_fmri	17.0	0.8666666666666667	89.0	-70.0	0.1333333333333333	15.0	1.0	2.0	-3.5535411782896595	0.477	n/a	stim	s612
76.321	0.258	6.425990273167693	draw_card	1.0	columbia_card_task_fmri	17.0	0.8571428571428572	89.0	-70.0	0.1428571428571428	15.0	2.0	2.0	-2.685851860327059	0.258	2.0	stim	s612
76.587	2.25	n/a	-1.0	n/a	columbia_card_task_fmri	n/a	n/a	-1.0	n/a	n/a	n/a	n/a	n/a	n/a	n/a	n/a	feedback	s612
78.837	0.34	n/a	-1.0	n/a	columbia_card_task_fmri	n/a	n/a	-1.0	n/a	n/a	n/a	n/a	n/a	n/a	n/a	n/a	ITI	s612
79.178	0.656	2.4795617017391205	draw_card	1.0	columbia_card_task_fmri	7.0	0.9375	89.0	-95.0	0.0625	16.0	1.0	1.0	-8.426123952598292	0.656	1.0	stim	s612
79.839	2.25	n/a	-1.0	n/a	columbia_card_task_fmri	n/a	n/a	-1.0	n/a	n/a	n/a	n/a	n/a	n/a	n/a	n/a	feedback	s612
82.089	0.0	n/a	-1.0	n/a	columbia_card_task_fmri	n/a	n/a	-1.0	n/a	n/a	n/a	n/a	n/a	n/a	n/a	n/a	ITI	s612
82.092	0.62	4.0420617017391205	draw_card	0.0	columbia_card_task_fmri	9.0	0.9375	89.0	-100.0	0.0625	16.0	1.0	1.0	-6.73614907251855	0.62	n/a	stim	s612
82.714	0.38	3.587895035072454	draw_card	0.0	columbia_card_task_fmri	9.0	0.9333333333333332	89.0	-100.0	0.0666666666666666	16.0	2.0	1.0	-5.933393157709382	0.38	n/a	stim	s612
83.096	0.378	3.068847416024836	draw_card	0.0	columbia_card_task_fmri	9.0	0.9285714285714286	89.0	-100.0	0.0714285714285714	16.0	3.0	1.0	-5.052959580294434	0.378	n/a	stim	s612
83.477	0.407	2.4699463171237364	draw_card	0.0	columbia_card_task_fmri	9.0	0.9230769230769232	89.0	-100.0	0.0769230769230769	16.0	4.0	1.0	-4.081638466571569	0.407	n/a	stim	s612
83.886	0.498	1.7712283684057883	draw_card	0.0	columbia_card_task_fmri	9.0	0.9166666666666666	89.0	-100.0	0.0833333333333333	16.0	5.0	1.0	-3.002907638834568	0.498	n/a	stim	s612
84.386	0.457	0.9454707926482104	draw_card	0.0	columbia_card_task_fmri	9.0	0.9090909090909092	89.0	-100.0	0.0909090909090909	16.0	6.0	1.0	-1.7958162943499405	0.457	n/a	stim	s612
84.846	0.636	-0.0454382982608798	end_round	0.0	columbia_card_task_fmri	9.0	0.9	71.0	-100.0	0.1	16.0	7.0	1.0	-0.4333977442407146	0.636	6.0	stim	s612
85.487	2.25	n/a	-1.0	n/a	columbia_card_task_fmri	n/a	n/a	-1.0	n/a	n/a	n/a	n/a	n/a	n/a	n/a	n/a	feedback	s612
87.737	0.0	n/a	-1.0	n/a	columbia_card_task_fmri	n/a	n/a	-1.0	n/a	n/a	n/a	n/a	n/a	n/a	n/a	n/a	ITI	s612
87.739	0.612	4.9795617017391205	draw_card	0.0	columbia_card_task_fmri	15.0	0.875	89.0	-80.0	0.125	16.0	1.0	2.0	-1.7129608931318678	0.612	n/a	stim	s612
88.354	0.328	4.187895035072454	draw_card	0.0	columbia_card_task_fmri	15.0	0.8666666666666667	89.0	-80.0	0.1333333333333333	16.0	2.0	2.0	-0.8389475935000235	0.328	n/a	stim	s612
88.686	0.253	3.283133130310551	draw_card	0.0	columbia_card_task_fmri	15.0	0.8571428571428572	89.0	-80.0	0.1428571428571428	16.0	3.0	2.0	0.1088202307828609	0.253	n/a	stim	s612
88.941	0.322	2.239177086354504	draw_card	0.0	columbia_card_task_fmri	15.0	0.8461538461538461	89.0	-80.0	0.1538461538461538	16.0	4.0	2.0	1.1403047291921808	0.322	n/a	stim	s612
89.266	0.33	1.0212283684057883	draw_card	0.0	columbia_card_task_fmri	15.0	0.8333333333333334	89.0	-80.0	0.1666666666666666	16.0	5.0	2.0	2.2670036793102284	0.33	n/a	stim	s612
89.598	0.37	-0.4181655709881546	draw_card	0.0	columbia_card_task_fmri	15.0	0.8181818181818181	89.0	-80.0	0.1818181818181818	16.0	6.0	2.0	3.501945775033072	0.37	n/a	stim	s612
89.971	0.989	-2.1454382982608795	end_round	0.0	columbia_card_task_fmri	15.0	0.8	71.0	-80.0	0.2	16.0	7.0	2.0	4.8592826124980135	0.989	6.0	stim	s612
90.964	2.25	n/a	-1.0	n/a	columbia_card_task_fmri	n/a	n/a	-1.0	n/a	n/a	n/a	n/a	n/a	n/a	n/a	n/a	feedback	s612
93.214	0.272	n/a	-1.0	n/a	columbia_card_task_fmri	n/a	n/a	-1.0	n/a	n/a	n/a	n/a	n/a	n/a	n/a	n/a	ITI	s612
93.489	0.529	7.1045617017391205	draw_card	0.0	columbia_card_task_fmri	16.0	0.875	89.0	-70.0	0.125	16.0	1.0	2.0	-4.683719509920969	0.529	n/a	stim	s612
94.02	0.283	6.387895035072454	draw_card	0.0	columbia_card_task_fmri	16.0	0.8666666666666667	89.0	-70.0	0.1333333333333333	16.0	2.0	2.0	-3.892801678867304	0.283	n/a	stim	s612
94.306	0.318	5.568847416024836	draw_card	1.0	columbia_card_task_fmri	16.0	0.8571428571428572	89.0	-70.0	0.1428571428571428	16.0	3.0	2.0	-3.035123973626053	0.318	3.0	stim	s612
94.627	2.25	n/a	-1.0	n/a	columbia_card_task_fmri	n/a	n/a	-1.0	n/a	n/a	n/a	n/a	n/a	n/a	n/a	n/a	feedback	s612
96.877	0.204	n/a	-1.0	n/a	columbia_card_task_fmri	n/a	n/a	-1.0	n/a	n/a	n/a	n/a	n/a	n/a	n/a	n/a	ITI	s612
97.084	0.494	8.41706170173912	draw_card	0.0	columbia_card_task_fmri	30.0	0.6875	89.0	-45.0	0.3125	16.0	1.0	5.0	1.6269181760048923	0.494	n/a	stim	s612
97.581	0.3	6.854561701739124	draw_card	0.0	columbia_card_task_fmri	30.0	0.6666666666666667	89.0	-45.0	0.3333333333333333	16.0	2.0	5.0	2.218000372040791	0.3	n/a	stim	s612
97.885	0.311	5.068847416024832	draw_card	0.0	columbia_card_task_fmri	30.0	0.6428571428571428	89.0	-45.0	0.3571428571428571	16.0	3.0	5.0	2.7986826720956657	0.311	n/a	stim	s612
98.199	0.303	3.008407855585274	draw_card	0.0	columbia_card_task_fmri	30.0	0.6153846153846154	89.0	-45.0	0.3846153846153846	16.0	4.0	5.0	3.3489738177073107	0.303	n/a	stim	s612
98.506	0.315	0.6045617017391169	draw_card	1.0	columbia_card_task_fmri	30.0	0.5833333333333333	89.0	-45.0	0.4166666666666667	16.0	5.0	5.0	3.836032872157844	0.315	5.0	stim	s612
98.826	2.25	n/a	-1.0	n/a	columbia_card_task_fmri	n/a	n/a	-1.0	n/a	n/a	n/a	n/a	n/a	n/a	n/a	n/a	feedback	s612
101.076	0.0	n/a	-1.0	n/a	columbia_card_task_fmri	n/a	n/a	-1.0	n/a	n/a	n/a	n/a	n/a	n/a	n/a	n/a	ITI	s612
101.08	0.67	0.1878950350724544	draw_card	0.0	columbia_card_task_fmri	13.0	0.8333333333333334	89.0	-75.0	0.1666666666666666	6.0	1.0	1.0	-0.3378871097962204	0.67	n/a	stim	s612
101.753	0.409	-2.745438298260879	draw_card	1.0	columbia_card_task_fmri	13.0	0.8	89.0	-75.0	0.2	6.0	2.0	1.0	2.0628755211292287	0.409	2.0	stim	s612
102.17	2.25	n/a	-1.0	n/a	columbia_card_task_fmri	n/a	n/a	-1.0	n/a	n/a	n/a	n/a	n/a	n/a	n/a	n/a	feedback	s612
104.42	0.204	n/a	-1.0	n/a	columbia_card_task_fmri	n/a	n/a	-1.0	n/a	n/a	n/a	n/a	n/a	n/a	n/a	n/a	ITI	s612
104.628	0.601	1.8545617017391225	draw_card	0.0	columbia_card_task_fmri	14.0	0.8333333333333334	89.0	-70.0	0.1666666666666666	6.0	1.0	1.0	-1.8261083653043144	0.601	n/a	stim	s612
105.231	0.456	-0.9454382982608784	draw_card	1.0	columbia_card_task_fmri	14.0	0.8	89.0	-70.0	0.2	6.0	2.0	1.0	0.4651968891135141	0.456	2.0	stim	s612
105.69	2.25	n/a	-1.0	n/a	columbia_card_task_fmri	n/a	n/a	-1.0	n/a	n/a	n/a	n/a	n/a	n/a	n/a	n/a	feedback	s612
107.94	0.204	n/a	-1.0	n/a	columbia_card_task_fmri	n/a	n/a	-1.0	n/a	n/a	n/a	n/a	n/a	n/a	n/a	n/a	ITI	s612
108.147	0.549	1.8545617017391225	draw_card	0.0	columbia_card_task_fmri	16.0	0.8333333333333334	89.0	-80.0	0.1666666666666666	6.0	1.0	1.0	2.639176734578492	0.549	n/a	stim	s612
108.699	0.328	-1.3454382982608788	draw_card	0.0	columbia_card_task_fmri	16.0	0.8	89.0	-80.0	0.2	6.0	2.0	1.0	5.2588120353748735	0.328	n/a	stim	s612
109.029	0.621	-6.14543829826088	end_round	0.0	columbia_card_task_fmri	16.0	0.75	71.0	-80.0	0.25	6.0	3.0	1.0	8.424622635287015	0.621	2.0	stim	s612
109.654	2.25	n/a	-1.0	n/a	columbia_card_task_fmri	n/a	n/a	-1.0	n/a	n/a	n/a	n/a	n/a	n/a	n/a	n/a	feedback	s612
111.904	0.272	n/a	-1.0	n/a	columbia_card_task_fmri	n/a	n/a	-1.0	n/a	n/a	n/a	n/a	n/a	n/a	n/a	n/a	ITI	s612
112.178	0.475	4.354561701739122	draw_card	0.0	columbia_card_task_fmri	17.0	0.8333333333333334	89.0	-70.0	0.1666666666666666	6.0	1.0	1.0	-0.7099638425245729	0.475	n/a	stim	s612
112.656	0.295	1.454561701739122	draw_card	0.0	columbia_card_task_fmri	17.0	0.8	89.0	-70.0	0.2	6.0	2.0	1.0	1.6634358941913234	0.295	n/a	stim	s612
112.953	0.656	-2.8954382982608795	end_round	0.0	columbia_card_task_fmri	17.0	0.75	71.0	-70.0	0.25	6.0	3.0	1.0	4.531780866764485	0.656	2.0	stim	s612
113.615	2.25	n/a	-1.0	n/a	columbia_card_task_fmri	n/a	n/a	-1.0	n/a	n/a	n/a	n/a	n/a	n/a	n/a	n/a	feedback	s612
115.865	0.204	n/a	-1.0	n/a	columbia_card_task_fmri	n/a	n/a	-1.0	n/a	n/a	n/a	n/a	n/a	n/a	n/a	n/a	ITI	s612
116.071	0.547	4.3545617017391205	draw_card	0.0	columbia_card_task_fmri	25.0	0.75	89.0	-65.0	0.25	8.0	1.0	2.0	5.829300003511115	0.547	n/a	stim	s612
116.621	0.348	1.1402759874534087	draw_card	0.0	columbia_card_task_fmri	25.0	0.7142857142857143	89.0	-65.0	0.2857142857142857	8.0	2.0	2.0	7.514184787719515	0.348	n/a	stim	s612
116.972	0.288	-3.145438298260876	draw_card	1.0	columbia_card_task_fmri	25.0	0.6666666666666667	89.0	-65.0	0.3333333333333333	8.0	3.0	2.0	9.280975511056468	0.288	3.0	stim	s612
117.267	2.25	n/a	-1.0	n/a	columbia_card_task_fmri	n/a	n/a	-1.0	n/a	n/a	n/a	n/a	n/a	n/a	n/a	n/a	feedback	s612
119.517	0.408	n/a	-1.0	n/a	columbia_card_task_fmri	n/a	n/a	-1.0	n/a	n/a	n/a	n/a	n/a	n/a	n/a	n/a	ITI	s612
119.929	0.542	4.3545617017391205	draw_card	0.0	columbia_card_task_fmri	30.0	0.75	89.0	-80.0	0.25	8.0	1.0	2.0	14.481542139261222	0.542	n/a	stim	s612
120.475	0.3	0.425990273167697	draw_card	0.0	columbia_card_task_fmri	30.0	0.7142857142857143	89.0	-80.0	0.2857142857142857	8.0	2.0	2.0	16.541583415300956	0.3	n/a	stim	s612
120.778	0.282	-4.81210496492754	draw_card	0.0	columbia_card_task_fmri	30.0	0.6666666666666667	89.0	-80.0	0.3333333333333333	8.0	3.0	2.0	18.70170490783039	0.282	n/a	stim	s612
121.064	0.364	-12.14543829826088	draw_card	1.0	columbia_card_task_fmri	30.0	0.6	89.0	-80.0	0.4	8.0	4.0	2.0	20.734731193169523	0.364	4.0	stim	s612
121.432	2.25	n/a	-1.0	n/a	columbia_card_task_fmri	n/a	n/a	-1.0	n/a	n/a	n/a	n/a	n/a	n/a	n/a	n/a	feedback	s612
123.682	0.136	n/a	-1.0	n/a	columbia_card_task_fmri	n/a	n/a	-1.0	n/a	n/a	n/a	n/a	n/a	n/a	n/a	n/a	ITI	s612
123.822	0.573	4.054561701739122	draw_card	0.0	columbia_card_task_fmri	13.0	0.9	89.0	-95.0	0.1	10.0	1.0	1.0	-0.7329119803593684	0.573	n/a	stim	s612
124.398	0.285	2.8545617017391205	draw_card	0.0	columbia_card_task_fmri	13.0	0.8888888888888888	89.0	-95.0	0.1111111111111111	10.0	2.0	1.0	0.805809146390807	0.285	n/a	stim	s612
124.688	0.295	1.3545617017391205	draw_card	1.0	columbia_card_task_fmri	13.0	0.875	89.0	-95.0	0.125	10.0	3.0	1.0	2.579811630934266	0.295	3.0	stim	s612
124.987	2.25	n/a	-1.0	n/a	columbia_card_task_fmri	n/a	n/a	-1.0	n/a	n/a	n/a	n/a	n/a	n/a	n/a	n/a	feedback	s612
127.237	0.272	n/a	-1.0	n/a	columbia_card_task_fmri	n/a	n/a	-1.0	n/a	n/a	n/a	n/a	n/a	n/a	n/a	n/a	ITI	s612
127.513	0.491	5.45456170173912	draw_card	0.0	columbia_card_task_fmri	14.0	0.9	89.0	-90.0	0.1	10.0	1.0	1.0	-1.930875748655985	0.491	n/a	stim	s612
128.008	0.28	4.299006146183563	draw_card	0.0	columbia_card_task_fmri	14.0	0.8888888888888888	89.0	-90.0	0.1111111111111111	10.0	2.0	1.0	-0.4493253616802022	0.28	n/a	stim	s612
128.291	0.314	2.8545617017391205	draw_card	0.0	columbia_card_task_fmri	14.0	0.875	89.0	-90.0	0.125	10.0	3.0	1.0	1.2587839043419675	0.314	n/a	stim	s612
128.609	1.084	0.9974188445962646	end_round	0.0	columbia_card_task_fmri	14.0	0.8571428571428572	71.0	-90.0	0.1428571428571428	10.0	4.0	1.0	3.2536970080383227	1.084	3.0	stim	s612
129.698	2.25	n/a	-1.0	n/a	columbia_card_task_fmri	n/a	n/a	-1.0	n/a	n/a	n/a	n/a	n/a	n/a	n/a	n/a	feedback	s612
131.948	0.34	n/a	-1.0	n/a	columbia_card_task_fmri	n/a	n/a	-1.0	n/a	n/a	n/a	n/a	n/a	n/a	n/a	n/a	ITI	s612
132.292	0.441	0.6545617017391212	draw_card	0.0	columbia_card_task_fmri	16.0	0.8	89.0	-70.0	0.2	10.0	1.0	2.0	1.264009271175091	0.441	n/a	stim	s612
132.737	0.319	-1.2565494093719902	draw_card	0.0	columbia_card_task_fmri	16.0	0.7777777777777778	89.0	-70.0	0.2222222222222222	10.0	2.0	2.0	2.6157356167753605	0.319	n/a	stim	s612
133.06	0.275	-3.64543829826088	draw_card	0.0	columbia_card_task_fmri	16.0	0.75	89.0	-70.0	0.25	10.0	3.0	2.0	4.099297994860933	0.275	n/a	stim	s612
133.339	1.059	-6.716866869689451	end_round	0.0	columbia_card_task_fmri	16.0	0.7142857142857143	71.0	-70.0	0.2857142857142857	10.0	4.0	2.0	5.70913306856567	1.059	3.0	stim	s612
134.403	2.25	n/a	-1.0	n/a	columbia_card_task_fmri	n/a	n/a	-1.0	n/a	n/a	n/a	n/a	n/a	n/a	n/a	n/a	feedback	s612
136.653	0.136	n/a	-1.0	n/a	columbia_card_task_fmri	n/a	n/a	-1.0	n/a	n/a	n/a	n/a	n/a	n/a	n/a	n/a	ITI	s612
136.791	0.581	-0.0621049649275455	draw_card	0.0	columbia_card_task_fmri	7.0	0.9166666666666666	89.0	-100.0	0.0833333333333333	12.0	1.0	1.0	-3.5546145347077847	0.581	n/a	stim	s612
137.376	0.307	-0.8727110255336079	draw_card	1.0	columbia_card_task_fmri	7.0	0.9090909090909092	89.0	-100.0	0.0909090909090909	12.0	2.0	1.0	-2.3697528009559043	0.307	2.0	stim	s612
137.687	2.25	n/a	-1.0	n/a	columbia_card_task_fmri	n/a	n/a	-1.0	n/a	n/a	n/a	n/a	n/a	n/a	n/a	n/a	feedback	s612
139.937	0.34	n/a	-1.0	n/a	columbia_card_task_fmri	n/a	n/a	-1.0	n/a	n/a	n/a	n/a	n/a	n/a	n/a	n/a	ITI	s612
140.281	0.746	0.1878950350724562	draw_card	0.0	columbia_card_task_fmri	14.0	0.8333333333333334	89.0	-80.0	0.1666666666666666	12.0	1.0	2.0	1.8948413451776744	0.746	n/a	stim	s612
141.03	0.577	-1.236347389169973	draw_card	0.0	columbia_card_task_fmri	14.0	0.8181818181818181	89.0	-80.0	0.1818181818181818	12.0	2.0	2.0	3.116749495016009	0.577	n/a	stim	s612
141.61	0.492	-2.9454382982608784	draw_card	0.0	columbia_card_task_fmri	14.0	0.8	89.0	-80.0	0.2	12.0	3.0	2.0	4.459763183862641	0.492	n/a	stim	s612
142.105	0.49	-5.034327187149769	draw_card	0.0	columbia_card_task_fmri	14.0	0.7777777777777778	89.0	-80.0	0.2222222222222222	12.0	4.0	2.0	5.937567356007087	0.49	n/a	stim	s612
142.599	1.035	-7.645438298260879	draw_card	0.0	columbia_card_task_fmri	14.0	0.75	89.0	-80.0	0.25	12.0	5.0	2.0	7.559476094669272	1.035	n/a	stim	s612
143.637	0.708	-11.002581155403734	end_round	0.0	columbia_card_task_fmri	14.0	0.7142857142857143	71.0	-80.0	0.2857142857142857	12.0	6.0	2.0	9.319403413573385	0.708	5.0	stim	s612
144.349	2.25	n/a	-1.0	n/a	columbia_card_task_fmri	n/a	n/a	-1.0	n/a	n/a	n/a	n/a	n/a	n/a	n/a	n/a	feedback	s612
146.599	0.068	n/a	-1.0	n/a	columbia_card_task_fmri	n/a	n/a	-1.0	n/a	n/a	n/a	n/a	n/a	n/a	n/a	n/a	ITI	s612
146.671	0.512	1.8545617017391205	draw_card	0.0	columbia_card_task_fmri	15.0	0.8333333333333334	89.0	-75.0	0.1666666666666666	12.0	1.0	2.0	0.4063063464997469	0.512	n/a	stim	s612
147.187	0.441	0.4909253381027554	draw_card	1.0	columbia_card_task_fmri	15.0	0.8181818181818181	89.0	-75.0	0.1818181818181818	12.0	2.0	2.0	1.576074885511744	0.441	2.0	stim	s612
147.633	2.25	n/a	-1.0	n/a	columbia_card_task_fmri	n/a	n/a	-1.0	n/a	n/a	n/a	n/a	n/a	n/a	n/a	n/a	feedback	s612
149.883	0.0	n/a	-1.0	n/a	columbia_card_task_fmri	n/a	n/a	-1.0	n/a	n/a	n/a	n/a	n/a	n/a	n/a	n/a	ITI	s612
149.887	0.55	0.8545617017391205	draw_card	0.0	columbia_card_task_fmri	15.0	0.8	89.0	-65.0	0.2	15.0	1.0	3.0	-1.1322501622533778	0.55	n/a	stim	s612
150.44	0.38	-0.2882954411180218	draw_card	0.0	columbia_card_task_fmri	15.0	0.7857142857142857	89.0	-65.0	0.2142857142857142	15.0	2.0	3.0	-0.3075269728673433	0.38	n/a	stim	s612
150.824	0.37	-1.606976759799343	draw_card	0.0	columbia_card_task_fmri	15.0	0.7692307692307692	89.0	-65.0	0.2307692307692307	15.0	3.0	3.0	0.5710398304672992	0.37	n/a	stim	s612
151.197	0.375	-3.1454382982608795	draw_card	1.0	columbia_card_task_fmri	15.0	0.75	89.0	-65.0	0.25	15.0	4.0	3.0	1.504678357587757	0.375	4.0	stim	s612
151.579	2.25	n/a	-1.0	n/a	columbia_card_task_fmri	n/a	n/a	-1.0	n/a	n/a	n/a	n/a	n/a	n/a	n/a	n/a	feedback	s612
153.829	0.204	n/a	-1.0	n/a	columbia_card_task_fmri	n/a	n/a	-1.0	n/a	n/a	n/a	n/a	n/a	n/a	n/a	n/a	ITI	s612
154.037	0.513	0.1045617017391205	draw_card	0.0	columbia_card_task_fmri	14.0	0.8125	89.0	-70.0	0.1875	16.0	1.0	3.0	-0.3472962516694764	0.513	n/a	stim	s612
154.554	0.38	-0.9454382982608784	draw_card	0.0	columbia_card_task_fmri	14.0	0.8	89.0	-70.0	0.2	16.0	2.0	3.0	0.4651968891135141	0.38	n/a	stim	s612
154.938	0.354	-2.1454382982608795	draw_card	0.0	columbia_card_task_fmri	14.0	0.7857142857142857	89.0	-70.0	0.2142857142857142	16.0	3.0	3.0	1.3312876409398058	0.354	n/a	stim	s612
155.297	0.423	-3.5300536828762645	draw_card	0.0	columbia_card_task_fmri	14.0	0.7692307692307692	89.0	-70.0	0.2307692307692307	16.0	4.0	3.0	2.253915701655352	0.423	n/a	stim	s612
155.724	1.299	-5.14543829826088	end_round	0.0	columbia_card_task_fmri	14.0	0.75	71.0	-70.0	0.25	16.0	5.0	3.0	3.2343700238522004	1.299	4.0	stim	s612
157.028	2.25	n/a	-1.0	n/a	columbia_card_task_fmri	n/a	n/a	-1.0	n/a	n/a	n/a	n/a	n/a	n/a	n/a	n/a	feedback	s612
159.278	1.02	n/a	-1.0	n/a	columbia_card_task_fmri	n/a	n/a	-1.0	n/a	n/a	n/a	n/a	n/a	n/a	n/a	n/a	ITI	s612
160.3	0.587	0.0420617017391204	draw_card	0.0	columbia_card_task_fmri	11.0	0.6875	89.0	-30.0	0.3125	16.0	1.0	5.0	-14.091660115707455	0.587	n/a	stim	s612
160.891	0.343	-0.8121049649275456	draw_card	0.0	columbia_card_task_fmri	11.0	0.6666666666666667	89.0	-30.0	0.3333333333333333	16.0	2.0	5.0	-13.769587808644149	0.343	n/a	stim	s612
161.237	0.334	-1.7882954411180236	draw_card	0.0	columbia_card_task_fmri	11.0	0.6428571428571428	89.0	-30.0	0.3571428571428571	16.0	3.0	5.0	-13.453148743002732	0.334	n/a	stim	s612
161.575	0.354	-2.914669067491648	draw_card	0.0	columbia_card_task_fmri	11.0	0.6153846153846154	89.0	-30.0	0.3846153846153846	16.0	4.0	5.0	-13.153241921767036	0.354	n/a	stim	s612
161.934	1.482	-4.228771631594213	end_round	0.0	columbia_card_task_fmri	11.0	0.5833333333333333	71.0	-30.0	0.4166666666666667	16.0	5.0	5.0	-12.88777368728265	1.482	4.0	stim	s612
163.42	2.25	n/a	-1.0	n/a	columbia_card_task_fmri	n/a	n/a	-1.0	n/a	n/a	n/a	n/a	n/a	n/a	n/a	n/a	feedback	s612
165.67	0.0	n/a	-1.0	n/a	columbia_card_task_fmri	n/a	n/a	-1.0	n/a	n/a	n/a	n/a	n/a	n/a	n/a	n/a	ITI	s612
165.674	0.495	4.8545617017391205	draw_card	0.0	columbia_card_task_fmri	15.0	0.8666666666666667	89.0	-75.0	0.1333333333333333	15.0	1.0	2.0	-2.535670045590084	0.495	n/a	stim	s612
166.173	0.328	3.9974188445962646	draw_card	0.0	columbia_card_task_fmri	15.0	0.8571428571428572	89.0	-75.0	0.1428571428571428	15.0	2.0	2.0	-1.6379484205565866	0.328	n/a	stim	s612
166.505	0.283	3.008407855585274	draw_card	0.0	columbia_card_task_fmri	15.0	0.8461538461538461	89.0	-75.0	0.1538461538461538	15.0	3.0	2.0	-0.6609204513196332	0.283	n/a	stim	s612
166.793	0.332	1.8545617017391205	draw_card	0.0	columbia_card_task_fmri	15.0	0.8333333333333334	89.0	-75.0	0.1666666666666666	15.0	4.0	2.0	0.4063063464997469	0.332	n/a	stim	s612
167.128	0.877	0.4909253381027554	end_round	0.0	columbia_card_task_fmri	15.0	0.8181818181818181	71.0	-75.0	0.1818181818181818	15.0	5.0	2.0	1.576074885511744	0.877	4.0	stim	s612
168.013	2.25	n/a	-1.0	n/a	columbia_card_task_fmri	n/a	n/a	-1.0	n/a	n/a	n/a	n/a	n/a	n/a	n/a	n/a	feedback	s612
170.263	0.0	n/a	-1.0	n/a	columbia_card_task_fmri	n/a	n/a	-1.0	n/a	n/a	n/a	n/a	n/a	n/a	n/a	n/a	ITI	s612
170.267	0.701	6.587895035072455	draw_card	0.0	columbia_card_task_fmri	17.0	0.8666666666666667	89.0	-75.0	0.1333333333333333	15.0	1.0	2.0	-1.85701945152762	0.701	n/a	stim	s612
170.971	0.298	5.71170455888198	draw_card	0.0	columbia_card_task_fmri	17.0	0.8571428571428572	89.0	-75.0	0.1428571428571428	15.0	2.0	2.0	-0.9392782615970034	0.298	n/a	stim	s612
171.272	0.306	4.700715547892967	draw_card	0.0	columbia_card_task_fmri	17.0	0.8461538461538461	89.0	-75.0	0.1538461538461538	15.0	3.0	2.0	0.0595334329387782	0.306	n/a	stim	s612
171.582	0.286	3.5212283684057883	draw_card	0.0	columbia_card_task_fmri	17.0	0.8333333333333334	89.0	-75.0	0.1666666666666666	15.0	4.0	2.0	1.1505502347453174	0.286	n/a	stim	s612
171.872	2.451	2.127288974466392	draw_card	0.0	columbia_card_task_fmri	17.0	0.8181818181818181	89.0	-75.0	0.1818181818181818	15.0	5.0	2.0	2.346389369378393	2.451	n/a	stim	s612
174.327	0.245	0.4545617017391219	draw_card	0.0	columbia_card_task_fmri	17.0	0.8	89.0	-75.0	0.2	15.0	6.0	2.0	3.660755609688529	0.245	n/a	stim	s612
174.576	1.256	-1.5898827427053206	draw_card	0.0	columbia_card_task_fmri	17.0	0.7777777777777778	89.0	-75.0	0.2222222222222222	15.0	7.0	2.0	5.107042921751393	1.256	n/a	stim	s612
175.835	0.511	-4.14543829826088	draw_card	0.0	columbia_card_task_fmri	17.0	0.75	89.0	-75.0	0.25	15.0	8.0	2.0	6.694367704804471	0.511	n/a	stim	s612
176.351	1.133	-7.431152583975164	end_round	0.0	columbia_card_task_fmri	17.0	0.7142857142857143	71.0	-75.0	0.2857142857142857	15.0	9.0	2.0	8.416774595209823	1.133	8.0	stim	s612
177.491	2.25	n/a	-1.0	n/a	columbia_card_task_fmri	n/a	n/a	-1.0	n/a	n/a	n/a	n/a	n/a	n/a	n/a	n/a	feedback	s612
179.741	0.068	n/a	-1.0	n/a	columbia_card_task_fmri	n/a	n/a	-1.0	n/a	n/a	n/a	n/a	n/a	n/a	n/a	n/a	ITI	s612
179.813	0.429	2.1670617017391205	draw_card	0.0	columbia_card_task_fmri	2.0	0.9375	89.0	-25.0	0.0625	16.0	1.0	1.0	-26.392254321810405	0.429	n/a	stim	s612
180.246	0.317	2.0545617017391207	draw_card	0.0	columbia_card_task_fmri	2.0	0.9333333333333332	89.0	-25.0	0.0666666666666666	16.0	2.0	1.0	-26.200289053468477	0.317	n/a	stim	s612
180.567	0.305	1.925990273167692	draw_card	0.0	columbia_card_task_fmri	2.0	0.9285714285714286	89.0	-25.0	0.0714285714285714	16.0	3.0	1.0	-25.98931874080431	0.305	n/a	stim	s612
180.877	0.33	1.7776386248160436	draw_card	0.0	columbia_card_task_fmri	2.0	0.9230769230769232	89.0	-25.0	0.0769230769230769	16.0	4.0	1.0	-25.75609291732646	0.33	n/a	stim	s612
181.211	1.014	1.6045617017391207	draw_card	0.0	columbia_card_task_fmri	2.0	0.9166666666666666	89.0	-25.0	0.0833333333333333	16.0	5.0	1.0	-25.496543983952236	1.014	n/a	stim	s612
182.229	0.37	1.4000162471936657	draw_card	0.0	columbia_card_task_fmri	2.0	0.9090909090909092	89.0	-25.0	0.0909090909090909	16.0	6.0	1.0	-25.205511337032828	0.37	n/a	stim	s612
182.603	0.828	1.1545617017391203	draw_card	1.0	columbia_card_task_fmri	2.0	0.9	89.0	-25.0	0.1	16.0	7.0	1.0	-24.87634891542966	0.828	7.0	stim	s612
183.439	2.25	n/a	-1.0	n/a	columbia_card_task_fmri	n/a	n/a	-1.0	n/a	n/a	n/a	n/a	n/a	n/a	n/a	n/a	feedback	s612
185.689	0.476	n/a	-1.0	n/a	columbia_card_task_fmri	n/a	n/a	-1.0	n/a	n/a	n/a	n/a	n/a	n/a	n/a	n/a	ITI	s612
186.17	0.718	4.3545617017391205	draw_card	0.0	columbia_card_task_fmri	9.0	0.9375	89.0	-95.0	0.0625	16.0	1.0	1.0	-7.943334940793058	0.718	n/a	stim	s612
186.892	0.34	3.921228368405788	draw_card	0.0	columbia_card_task_fmri	9.0	0.9333333333333332	89.0	-95.0	0.0666666666666666	16.0	2.0	1.0	-7.177582555406435	0.34	n/a	stim	s612
187.237	0.265	3.425990273167693	draw_card	0.0	columbia_card_task_fmri	9.0	0.9285714285714286	89.0	-95.0	0.0714285714285714	16.0	3.0	1.0	-6.3377213086406	0.265	n/a	stim	s612
187.507	0.289	2.8545617017391205	draw_card	0.0	columbia_card_task_fmri	9.0	0.9230769230769232	89.0	-95.0	0.0769230769230769	16.0	4.0	1.0	-5.411147810114432	0.289	n/a	stim	s612
187.8	0.75	2.1878950350724544	end_round	0.0	columbia_card_task_fmri	9.0	0.9166666666666666	71.0	-95.0	0.0833333333333333	16.0	5.0	1.0	-4.382098387553487	0.75	4.0	stim	s612
188.558	2.25	n/a	-1.0	n/a	columbia_card_task_fmri	n/a	n/a	-1.0	n/a	n/a	n/a	n/a	n/a	n/a	n/a	n/a	feedback	s612
190.808	0.136	n/a	-1.0	n/a	columbia_card_task_fmri	n/a	n/a	-1.0	n/a	n/a	n/a	n/a	n/a	n/a	n/a	n/a	ITI	s612
190.949	0.458	5.9170617017391205	draw_card	0.0	columbia_card_task_fmri	11.0	0.9375	89.0	-100.0	0.0625	16.0	1.0	1.0	-6.253196274572879	0.458	n/a	stim	s612
191.412	0.266	5.454561701739121	draw_card	0.0	columbia_card_task_fmri	11.0	0.9333333333333332	89.0	-100.0	0.0666666666666666	16.0	2.0	1.0	-5.435641236352723	0.266	n/a	stim	s612
191.683	0.279	4.925990273167693	draw_card	0.0	columbia_card_task_fmri	11.0	0.9285714285714286	89.0	-100.0	0.0714285714285714	16.0	3.0	1.0	-4.538981088418232	0.279	n/a	stim	s612
191.966	0.284	4.316100163277583	draw_card	0.0	columbia_card_task_fmri	11.0	0.9230769230769232	89.0	-100.0	0.0769230769230769	16.0	4.0	1.0	-3.5497633705644382	0.284	n/a	stim	s612
192.255	0.893	3.604561701739121	end_round	0.0	columbia_card_task_fmri	11.0	0.9166666666666666	71.0	-100.0	0.0833333333333333	16.0	5.0	1.0	-2.451162510795396	0.893	4.0	stim	s612
193.154	2.25	n/a	-1.0	n/a	columbia_card_task_fmri	n/a	n/a	-1.0	n/a	n/a	n/a	n/a	n/a	n/a	n/a	n/a	feedback	s612
195.404	0.068	n/a	-1.0	n/a	columbia_card_task_fmri	n/a	n/a	-1.0	n/a	n/a	n/a	n/a	n/a	n/a	n/a	n/a	ITI	s612
195.476	0.467	6.4795617017391205	draw_card	0.0	columbia_card_task_fmri	16.0	0.875	89.0	-75.0	0.125	16.0	1.0	2.0	-3.0334371357979	0.467	n/a	stim	s612
195.947	0.297	5.721228368405788	draw_card	0.0	columbia_card_task_fmri	16.0	0.8666666666666667	89.0	-75.0	0.1333333333333333	16.0	2.0	2.0	-2.196351426579568	0.297	n/a	stim	s612
196.248	0.255	4.854561701739122	draw_card	0.0	columbia_card_task_fmri	16.0	0.8571428571428572	89.0	-75.0	0.1428571428571428	16.0	3.0	2.0	-1.2886198303636398	0.255	n/a	stim	s612
196.507	0.275	3.854561701739121	draw_card	0.0	columbia_card_task_fmri	16.0	0.8461538461538461	89.0	-75.0	0.1538461538461538	16.0	4.0	2.0	-0.3006998047936093	0.275	n/a	stim	s612
196.786	1.03	2.6878950350724544	end_round	0.0	columbia_card_task_fmri	16.0	0.8333333333333334	71.0	-75.0	0.1666666666666666	16.0	5.0	2.0	0.7784221938278719	1.03	4.0	stim	s612
197.822	2.25	n/a	-1.0	n/a	columbia_card_task_fmri	n/a	n/a	-1.0	n/a	n/a	n/a	n/a	n/a	n/a	n/a	n/a	feedback	s612
200.072	0.0	n/a	-1.0	n/a	columbia_card_task_fmri	n/a	n/a	-1.0	n/a	n/a	n/a	n/a	n/a	n/a	n/a	n/a	ITI	s612
200.075	0.57	6.7295617017391205	draw_card	1.0	columbia_card_task_fmri	17.0	0.875	89.0	-80.0	0.125	16.0	1.0	2.0	-1.0526487539522051	0.57	1.0	stim	s612
200.653	2.25	n/a	-1.0	n/a	columbia_card_task_fmri	n/a	n/a	-1.0	n/a	n/a	n/a	n/a	n/a	n/a	n/a	n/a	feedback	s612
202.903	0.0	n/a	-1.0	n/a	columbia_card_task_fmri	n/a	n/a	-1.0	n/a	n/a	n/a	n/a	n/a	n/a	n/a	n/a	ITI	s612
213.919	1.514	1.0212283684057883	draw_card	1.0	columbia_card_task_fmri	13.0	0.8333333333333334	89.0	-70.0	0.1666666666666666	6.0	1.0	1.0	-2.1981262666921104	1.514	1.0	stim	s612
215.44	2.25	n/a	-1.0	n/a	columbia_card_task_fmri	n/a	n/a	-1.0	n/a	n/a	n/a	n/a	n/a	n/a	n/a	n/a	feedback	s612
217.69	0.204	n/a	-1.0	n/a	columbia_card_task_fmri	n/a	n/a	-1.0	n/a	n/a	n/a	n/a	n/a	n/a	n/a	n/a	ITI	s612
217.9	0.7	1.0212283684057883	draw_card	0.0	columbia_card_task_fmri	15.0	0.8333333333333334	89.0	-80.0	0.1666666666666666	6.0	1.0	1.0	2.2670036793102284	0.7	n/a	stim	s612
218.605	0.341	-2.1454382982608795	draw_card	1.0	columbia_card_task_fmri	15.0	0.8	89.0	-80.0	0.2	6.0	2.0	1.0	4.8592826124980135	0.341	2.0	stim	s612
218.951	2.25	n/a	-1.0	n/a	columbia_card_task_fmri	n/a	n/a	-1.0	n/a	n/a	n/a	n/a	n/a	n/a	n/a	n/a	feedback	s612
221.201	0.204	n/a	-1.0	n/a	columbia_card_task_fmri	n/a	n/a	-1.0	n/a	n/a	n/a	n/a	n/a	n/a	n/a	n/a	ITI	s612
221.411	0.659	2.6878950350724544	draw_card	0.0	columbia_card_task_fmri	16.0	0.8333333333333334	89.0	-75.0	0.1666666666666666	6.0	1.0	1.0	0.7784221938278719	0.659	n/a	stim	s612
222.075	0.309	-0.3454382982608788	draw_card	1.0	columbia_card_task_fmri	16.0	0.8	89.0	-75.0	0.2	6.0	2.0	1.0	3.2612681499479166	0.309	2.0	stim	s612
222.392	2.25	n/a	-1.0	n/a	columbia_card_task_fmri	n/a	n/a	-1.0	n/a	n/a	n/a	n/a	n/a	n/a	n/a	n/a	feedback	s612
224.642	0.272	n/a	-1.0	n/a	columbia_card_task_fmri	n/a	n/a	-1.0	n/a	n/a	n/a	n/a	n/a	n/a	n/a	n/a	ITI	s612
224.919	0.652	3.854561701739121	draw_card	0.0	columbia_card_task_fmri	21.0	0.75	89.0	-55.0	0.25	8.0	1.0	2.0	-0.2247655393218153	0.652	n/a	stim	s612
225.575	0.367	1.140275987453407	draw_card	0.0	columbia_card_task_fmri	21.0	0.7142857142857143	89.0	-55.0	0.2857142857142857	8.0	2.0	2.0	1.1974064885686104	0.367	n/a	stim	s612
225.946	2.078	-2.47877163159421	end_round	0.0	columbia_card_task_fmri	21.0	0.6666666666666667	71.0	-55.0	0.3333333333333333	8.0	3.0	2.0	2.688766187425749	2.078	2.0	stim	s612
228.033	2.25	n/a	-1.0	n/a	columbia_card_task_fmri	n/a	n/a	-1.0	n/a	n/a	n/a	n/a	n/a	n/a	n/a	n/a	feedback	s612
230.283	0.136	n/a	-1.0	n/a	columbia_card_task_fmri	n/a	n/a	-1.0	n/a	n/a	n/a	n/a	n/a	n/a	n/a	n/a	ITI	s612
230.424	0.558	5.1045617017391205	draw_card	0.0	columbia_card_task_fmri	26.0	0.75	89.0	-65.0	0.25	8.0	1.0	2.0	6.261828600781342	0.558	n/a	stim	s612
230.987	0.314	1.854561701739124	draw_card	0.0	columbia_card_task_fmri	26.0	0.7142857142857143	89.0	-65.0	0.2857142857142857	8.0	2.0	2.0	7.965474654670345	0.314	n/a	stim	s612
231.305	1.622	-2.478771631594208	end_round	0.0	columbia_card_task_fmri	26.0	0.6666666666666667	71.0	-65.0	0.3333333333333333	8.0	3.0	2.0	9.751935236843742	1.622	2.0	stim	s612
232.937	2.25	n/a	-1.0	n/a	columbia_card_task_fmri	n/a	n/a	-1.0	n/a	n/a	n/a	n/a	n/a	n/a	n/a	n/a	feedback	s612
235.187	0.204	n/a	-1.0	n/a	columbia_card_task_fmri	n/a	n/a	-1.0	n/a	n/a	n/a	n/a	n/a	n/a	n/a	n/a	ITI	s612
235.396	0.478	0.1878950350724544	draw_card	0.0	columbia_card_task_fmri	15.0	0.7777777777777778	89.0	-60.0	0.2222222222222222	9.0	1.0	2.0	-1.950363107601813	0.478	n/a	stim	s612
235.878	0.33	-1.8954382982608795	draw_card	1.0	columbia_card_task_fmri	15.0	0.75	89.0	-60.0	0.25	9.0	2.0	2.0	-0.6570831683246467	0.33	2.0	stim	s612
236.214	2.25	n/a	-1.0	n/a	columbia_card_task_fmri	n/a	n/a	-1.0	n/a	n/a	n/a	n/a	n/a	n/a	n/a	n/a	feedback	s612
238.464	0.272	n/a	-1.0	n/a	columbia_card_task_fmri	n/a	n/a	-1.0	n/a	n/a	n/a	n/a	n/a	n/a	n/a	n/a	ITI	s612
238.742	0.457	4.554561701739122	draw_card	0.0	columbia_card_task_fmri	13.0	0.9	89.0	-90.0	0.1	10.0	1.0	1.0	-2.230342044486754	0.457	n/a	stim	s612
239.204	0.314	3.410117257294676	draw_card	0.0	columbia_card_task_fmri	13.0	0.8888888888888888	89.0	-90.0	0.1111111111111111	10.0	2.0	1.0	-0.763085450704807	0.314	n/a	stim	s612
239.522	0.273	1.9795617017391205	draw_card	0.0	columbia_card_task_fmri	13.0	0.875	89.0	-90.0	0.125	10.0	3.0	1.0	0.9285493502197752	0.273	n/a	stim	s612
239.8	0.464	0.1402759874534087	draw_card	0.0	columbia_card_task_fmri	13.0	0.8571428571428572	89.0	-90.0	0.1428571428571428	10.0	4.0	1.0	2.9042277815739723	0.464	n/a	stim	s612
240.269	1.063	-2.3121049649275456	end_round	0.0	columbia_card_task_fmri	13.0	0.8333333333333334	71.0	-90.0	0.1666666666666666	10.0	5.0	1.0	5.244662147841034	1.063	4.0	stim	s612
241.338	2.25	n/a	-1.0	n/a	columbia_card_task_fmri	n/a	n/a	-1.0	n/a	n/a	n/a	n/a	n/a	n/a	n/a	n/a	feedback	s612
243.588	0.272	n/a	-1.0	n/a	columbia_card_task_fmri	n/a	n/a	-1.0	n/a	n/a	n/a	n/a	n/a	n/a	n/a	n/a	ITI	s612
243.865	0.413	5.8545617017391205	draw_card	0.0	columbia_card_task_fmri	15.0	0.9	89.0	-95.0	0.1	10.0	1.0	1.0	-0.1338746971038062	0.413	n/a	stim	s612
244.282	0.291	4.632339479516897	draw_card	0.0	columbia_card_task_fmri	15.0	0.8888888888888888	89.0	-95.0	0.1111111111111111	10.0	2.0	1.0	1.4334293074035216	0.291	n/a	stim	s612
244.577	0.254	3.1045617017391205	draw_card	0.0	columbia_card_task_fmri	15.0	0.875	89.0	-95.0	0.125	10.0	3.0	1.0	3.240375791811367	0.254	n/a	stim	s612
244.836	0.281	1.140275987453407	draw_card	0.0	columbia_card_task_fmri	15.0	0.8571428571428572	89.0	-95.0	0.1428571428571428	10.0	4.0	1.0	5.35068687718104	0.281	n/a	stim	s612
245.122	1.017	-1.4787716315942117	end_round	0.0	columbia_card_task_fmri	15.0	0.8333333333333334	71.0	-95.0	0.1666666666666666	10.0	5.0	1.0	7.8505618605567875	1.017	4.0	stim	s612
246.148	2.25	n/a	-1.0	n/a	columbia_card_task_fmri	n/a	n/a	-1.0	n/a	n/a	n/a	n/a	n/a	n/a	n/a	n/a	feedback	s612
248.398	0.34	n/a	-1.0	n/a	columbia_card_task_fmri	n/a	n/a	-1.0	n/a	n/a	n/a	n/a	n/a	n/a	n/a	n/a	ITI	s612
248.742	0.717	1.6545617017391212	draw_card	0.0	columbia_card_task_fmri	16.0	0.8	89.0	-65.0	0.2	10.0	1.0	2.0	-0.7329119803593684	0.717	n/a	stim	s612
249.463	0.301	-0.1454382982608777	draw_card	0.0	columbia_card_task_fmri	16.0	0.7777777777777778	89.0	-65.0	0.2222222222222222	10.0	2.0	2.0	0.539999765611455	0.301	n/a	stim	s612
249.768	0.283	-2.3954382982608795	draw_card	0.0	columbia_card_task_fmri	16.0	0.75	89.0	-65.0	0.25	10.0	3.0	2.0	1.93707947558724	0.283	n/a	stim	s612
250.056	0.293	-5.28829544111802	draw_card	0.0	columbia_card_task_fmri	16.0	0.7142857142857143	89.0	-65.0	0.2857142857142857	10.0	4.0	2.0	3.45309071270767	0.293	n/a	stim	s612
250.354	1.16	-9.145438298260876	end_round	0.0	columbia_card_task_fmri	16.0	0.6666666666666667	71.0	-65.0	0.3333333333333333	10.0	5.0	2.0	5.042831384045357	1.16	4.0	stim	s612
251.522	2.25	n/a	-1.0	n/a	columbia_card_task_fmri	n/a	n/a	-1.0	n/a	n/a	n/a	n/a	n/a	n/a	n/a	n/a	feedback	s612
253.772	0.204	n/a	-1.0	n/a	columbia_card_task_fmri	n/a	n/a	-1.0	n/a	n/a	n/a	n/a	n/a	n/a	n/a	n/a	ITI	s612
253.981	0.664	0.3545617017391205	draw_card	0.0	columbia_card_task_fmri	7.0	0.9166666666666666	89.0	-95.0	0.0833333333333333	12.0	1.0	1.0	-4.93369981047891	0.664	n/a	stim	s612
254.65	0.307	-0.4181655709881529	draw_card	0.0	columbia_card_task_fmri	7.0	0.9090909090909092	89.0	-95.0	0.0909090909090909	12.0	2.0	1.0	-3.804419046443403	0.307	n/a	stim	s612
254.961	0.279	-1.3454382982608797	draw_card	0.0	columbia_card_task_fmri	7.0	0.9	89.0	-95.0	0.1	12.0	3.0	1.0	-2.5297979039861858	0.279	n/a	stim	s612
255.246	0.332	-2.478771631594213	draw_card	0.0	columbia_card_task_fmri	7.0	0.8888888888888888	89.0	-95.0	0.1111111111111111	12.0	4.0	1.0	-1.0768355725057075	0.332	n/a	stim	s612
255.581	1.253	-3.89543829826088	draw_card	0.0	columbia_card_task_fmri	7.0	0.875	89.0	-95.0	0.125	12.0	5.0	1.0	0.5983242720847386	1.253	n/a	stim	s612
256.838	1.072	-5.716866869689451	end_round	0.0	columbia_card_task_fmri	7.0	0.8571428571428572	71.0	-95.0	0.1428571428571428	12.0	6.0	1.0	2.554767515182249	1.072	5.0	stim	s612
257.919	2.25	n/a	-1.0	n/a	columbia_card_task_fmri	n/a	n/a	-1.0	n/a	n/a	n/a	n/a	n/a	n/a	n/a	n/a	feedback	s612
260.169	0.068	n/a	-1.0	n/a	columbia_card_task_fmri	n/a	n/a	-1.0	n/a	n/a	n/a	n/a	n/a	n/a	n/a	n/a	ITI	s612
260.241	0.722	1.0212283684057883	draw_card	0.0	columbia_card_task_fmri	14.0	0.8333333333333334	89.0	-75.0	0.1666666666666666	12.0	1.0	2.0	0.0342031025208129	0.722	n/a	stim	s612
260.968	0.393	-0.3272564800790629	draw_card	0.0	columbia_card_task_fmri	14.0	0.8181818181818181	89.0	-75.0	0.1818181818181818	12.0	2.0	2.0	1.1909357180658304	0.393	n/a	stim	s612
261.366	0.44	-1.9454382982608784	draw_card	0.0	columbia_card_task_fmri	14.0	0.8	89.0	-75.0	0.2	12.0	3.0	2.0	2.462327714861189	0.44	n/a	stim	s612
261.812	0.419	-3.9232160760386554	draw_card	0.0	columbia_card_task_fmri	14.0	0.7777777777777778	89.0	-75.0	0.2222222222222222	12.0	4.0	2.0	3.861336599666849	0.419	n/a	stim	s612
262.236	0.383	-6.39543829826088	draw_card	0.0	columbia_card_task_fmri	14.0	0.75	89.0	-75.0	0.25	12.0	5.0	2.0	5.396782266349128	0.383	n/a	stim	s612
262.624	1.105	-9.574009726832308	draw_card	0.0	columbia_card_task_fmri	14.0	0.7142857142857143	89.0	-75.0	0.2857142857142857	12.0	6.0	2.0	7.062905333207404	1.105	n/a	stim	s612
263.735	1.032	-13.812104964927546	end_round	0.0	columbia_card_task_fmri	14.0	0.6666666666666667	71.0	-75.0	0.3333333333333333	12.0	7.0	2.0	8.81002576620174	1.032	6.0	stim	s612
264.774	2.25	n/a	-1.0	n/a	columbia_card_task_fmri	n/a	n/a	-1.0	n/a	n/a	n/a	n/a	n/a	n/a	n/a	n/a	feedback	s612
267.024	0.0	n/a	-1.0	n/a	columbia_card_task_fmri	n/a	n/a	-1.0	n/a	n/a	n/a	n/a	n/a	n/a	n/a	n/a	ITI	s612
267.029	0.636	2.6878950350724544	draw_card	0.0	columbia_card_task_fmri	15.0	0.8333333333333334	89.0	-70.0	0.1666666666666666	12.0	1.0	2.0	-1.454074972549506	0.636	n/a	stim	s612
267.67	0.35	1.4000162471936637	draw_card	0.0	columbia_card_task_fmri	15.0	0.8181818181818181	89.0	-70.0	0.1818181818181818	12.0	2.0	2.0	-0.349490562147615	0.35	n/a	stim	s612
268.025	0.323	-0.1454382982608795	draw_card	0.0	columbia_card_task_fmri	15.0	0.8	89.0	-70.0	0.2	12.0	3.0	2.0	0.8645961097043013	0.323	n/a	stim	s612
268.353	0.337	-2.034327187149769	draw_card	0.0	columbia_card_task_fmri	15.0	0.7777777777777778	89.0	-70.0	0.2222222222222222	12.0	4.0	2.0	2.200560620510686	0.337	n/a	stim	s612
268.696	0.358	-4.39543829826088	draw_card	1.0	columbia_card_task_fmri	15.0	0.75	89.0	-70.0	0.25	12.0	5.0	2.0	3.6668275661345504	0.358	5.0	stim	s612
269.06	2.25	n/a	-1.0	n/a	columbia_card_task_fmri	n/a	n/a	-1.0	n/a	n/a	n/a	n/a	n/a	n/a	n/a	n/a	feedback	s612
271.31	0.408	n/a	-1.0	n/a	columbia_card_task_fmri	n/a	n/a	-1.0	n/a	n/a	n/a	n/a	n/a	n/a	n/a	n/a	ITI	s612
271.724	0.813	0.6545617017391212	draw_card	1.0	columbia_card_task_fmri	16.0	0.8	89.0	-70.0	0.2	15.0	1.0	3.0	1.264009271175091	0.813	1.0	stim	s612
272.542	2.25	n/a	-1.0	n/a	columbia_card_task_fmri	n/a	n/a	-1.0	n/a	n/a	n/a	n/a	n/a	n/a	n/a	n/a	feedback	s612
274.792	0.204	n/a	-1.0	n/a	columbia_card_task_fmri	n/a	n/a	-1.0	n/a	n/a	n/a	n/a	n/a	n/a	n/a	n/a	ITI	s612
275.002	0.445	1.0420617017391205	draw_card	0.0	columbia_card_task_fmri	14.0	0.8125	89.0	-65.0	0.1875	16.0	1.0	3.0	-2.295546844850304	0.445	n/a	stim	s612
275.452	0.466	0.0545617017391215	draw_card	0.0	columbia_card_task_fmri	14.0	0.8	89.0	-65.0	0.2	16.0	2.0	3.0	-1.5315716318718664	0.466	n/a	stim	s612
275.924	0.399	-1.0740097268323066	draw_card	0.0	columbia_card_task_fmri	14.0	0.7857142857142857	89.0	-65.0	0.2142857142857142	16.0	3.0	3.0	-0.7171913375008998	0.399	n/a	stim	s612
276.328	0.348	-2.3762075290301112	draw_card	0.0	columbia_card_task_fmri	14.0	0.7692307692307692	89.0	-65.0	0.2307692307692307	16.0	4.0	3.0	0.1503591350080881	0.348	n/a	stim	s612
276.682	0.376	-3.89543829826088	draw_card	0.0	columbia_card_task_fmri	14.0	0.75	89.0	-65.0	0.25	16.0	5.0	3.0	1.0722926891063125	0.376	n/a	stim	s612
277.064	0.95	-5.6908928437154245	end_round	0.0	columbia_card_task_fmri	14.0	0.7272727272727273	71.0	-65.0	0.2727272727272727	16.0	6.0	3.0	2.0464782160542043	0.95	5.0	stim	s612
278.02	2.25	n/a	-1.0	n/a	columbia_card_task_fmri	n/a	n/a	-1.0	n/a	n/a	n/a	n/a	n/a	n/a	n/a	n/a	feedback	s612
280.27	0.136	n/a	-1.0	n/a	columbia_card_task_fmri	n/a	n/a	-1.0	n/a	n/a	n/a	n/a	n/a	n/a	n/a	n/a	ITI	s612
280.41	0.603	0.7920617017391205	draw_card	0.0	columbia_card_task_fmri	16.0	0.8125	89.0	-75.0	0.1875	16.0	1.0	3.0	2.3808645479609183	0.603	n/a	stim	s612
281.018	0.355	-0.3454382982608788	draw_card	0.0	columbia_card_task_fmri	16.0	0.8	89.0	-75.0	0.2	16.0	2.0	3.0	3.2612681499479166	0.355	n/a	stim	s612
281.378	0.343	-1.6454382982608775	draw_card	0.0	columbia_card_task_fmri	16.0	0.7857142857142857	89.0	-75.0	0.2142857142857142	16.0	3.0	3.0	4.199738690960835	0.343	n/a	stim	s612
281.726	0.379	-3.145438298260883	draw_card	0.0	columbia_card_task_fmri	16.0	0.7692307692307692	89.0	-75.0	0.2307692307692307	16.0	4.0	3.0	5.1994603462359095	0.379	n/a	stim	s612
282.11	0.445	-4.89543829826088	draw_card	0.0	columbia_card_task_fmri	16.0	0.75	89.0	-75.0	0.25	16.0	5.0	3.0	6.261828600781342	0.445	n/a	stim	s612
282.561	0.88	-6.963620116442696	draw_card	1.0	columbia_card_task_fmri	16.0	0.7272727272727273	89.0	-75.0	0.2727272727272727	16.0	6.0	3.0	7.384385749567969	0.88	6.0	stim	s612
283.447	2.25	n/a	-1.0	n/a	columbia_card_task_fmri	n/a	n/a	-1.0	n/a	n/a	n/a	n/a	n/a	n/a	n/a	n/a	feedback	s612
285.697	0.34	n/a	-1.0	n/a	columbia_card_task_fmri	n/a	n/a	-1.0	n/a	n/a	n/a	n/a	n/a	n/a	n/a	n/a	ITI	s612
286.043	0.589	5.054561701739122	draw_card	0.0	columbia_card_task_fmri	16.0	0.8666666666666667	89.0	-80.0	0.1333333333333333	15.0	1.0	2.0	-0.4995663104535808	0.589	n/a	stim	s612
286.636	0.517	4.140275987453409	draw_card	1.0	columbia_card_task_fmri	16.0	0.8571428571428572	89.0	-80.0	0.1428571428571428	15.0	2.0	2.0	0.4582097132592082	0.517	2.0	stim	s612
287.16	2.25	n/a	-1.0	n/a	columbia_card_task_fmri	n/a	n/a	-1.0	n/a	n/a	n/a	n/a	n/a	n/a	n/a	n/a	feedback	s612
289.41	0.068	n/a	-1.0	n/a	columbia_card_task_fmri	n/a	n/a	-1.0	n/a	n/a	n/a	n/a	n/a	n/a	n/a	n/a	ITI	s612
289.482	0.426	5.921228368405789	draw_card	0.0	columbia_card_task_fmri	17.0	0.8666666666666667	89.0	-80.0	0.1333333333333333	15.0	1.0	2.0	-0.160173645376858	0.426	n/a	stim	s612
289.913	0.316	4.997418844596266	draw_card	1.0	columbia_card_task_fmri	17.0	0.8571428571428572	89.0	-80.0	0.1428571428571428	15.0	2.0	2.0	0.8076102557490543	0.316	2.0	stim	s612
290.237	2.25	n/a	-1.0	n/a	columbia_card_task_fmri	n/a	n/a	-1.0	n/a	n/a	n/a	n/a	n/a	n/a	n/a	n/a	feedback	s612
292.487	0.34	n/a	-1.0	n/a	columbia_card_task_fmri	n/a	n/a	-1.0	n/a	n/a	n/a	n/a	n/a	n/a	n/a	n/a	ITI	s612
292.833	0.402	1.8545617017391205	draw_card	1.0	columbia_card_task_fmri	1.0	0.9375	89.0	-15.0	0.0625	16.0	1.0	1.0	-28.891833579034653	0.402	1.0	stim	s612
293.241	2.25	n/a	-1.0	n/a	columbia_card_task_fmri	n/a	n/a	-1.0	n/a	n/a	n/a	n/a	n/a	n/a	n/a	n/a	feedback	s612
295.491	0.136	n/a	-1.0	n/a	columbia_card_task_fmri	n/a	n/a	-1.0	n/a	n/a	n/a	n/a	n/a	n/a	n/a	n/a	ITI	s612
295.632	0.499	4.9795617017391205	draw_card	0.0	columbia_card_task_fmri	10.0	0.9375	89.0	-100.0	0.0625	16.0	1.0	1.0	-6.494677973007576	0.499	n/a	stim	s612
296.136	0.327	4.521228368405788	draw_card	0.0	columbia_card_task_fmri	10.0	0.9333333333333332	89.0	-100.0	0.0666666666666666	16.0	2.0	1.0	-5.684522341826437	0.327	n/a	stim	s612
296.469	0.295	3.9974188445962646	draw_card	1.0	columbia_card_task_fmri	10.0	0.9285714285714286	89.0	-100.0	0.0714285714285714	16.0	3.0	1.0	-4.795975319533415	0.295	3.0	stim	s612
296.771	2.25	n/a	-1.0	n/a	columbia_card_task_fmri	n/a	n/a	-1.0	n/a	n/a	n/a	n/a	n/a	n/a	n/a	n/a	feedback	s612
299.021	0.068	n/a	-1.0	n/a	columbia_card_task_fmri	n/a	n/a	-1.0	n/a	n/a	n/a	n/a	n/a	n/a	n/a	n/a	ITI	s612
299.095	0.496	5.6045617017391205	draw_card	0.0	columbia_card_task_fmri	15.0	0.875	89.0	-75.0	0.125	16.0	1.0	2.0	-3.363522965931068	0.496	n/a	stim	s612
299.596	0.32	4.8545617017391205	draw_card	1.0	columbia_card_task_fmri	15.0	0.8666666666666667	89.0	-75.0	0.1333333333333333	16.0	2.0	2.0	-2.535670045590084	0.32	2.0	stim	s612
299.923	2.25	n/a	-1.0	n/a	columbia_card_task_fmri	n/a	n/a	-1.0	n/a	n/a	n/a	n/a	n/a	n/a	n/a	n/a	feedback	s612
302.173	0.068	n/a	-1.0	n/a	columbia_card_task_fmri	n/a	n/a	-1.0	n/a	n/a	n/a	n/a	n/a	n/a	n/a	n/a	ITI	s612
302.246	0.686	5.8545617017391205	draw_card	0.0	columbia_card_task_fmri	16.0	0.875	89.0	-80.0	0.125	16.0	1.0	2.0	-1.3828106715453536	0.686	n/a	stim	s612
302.936	0.34	5.054561701739122	draw_card	0.0	columbia_card_task_fmri	16.0	0.8666666666666667	89.0	-80.0	0.1333333333333333	16.0	2.0	2.0	-0.4995663104535808	0.34	n/a	stim	s612
303.283	0.338	4.140275987453409	draw_card	0.0	columbia_card_task_fmri	16.0	0.8571428571428572	89.0	-80.0	0.1428571428571428	16.0	3.0	2.0	0.4582097132592082	0.338	n/a	stim	s612
303.626	0.339	3.0853309325083504	draw_card	0.0	columbia_card_task_fmri	16.0	0.8461538461538461	89.0	-80.0	0.1538461538461538	16.0	4.0	2.0	1.500584449849761	0.339	n/a	stim	s612
303.97	0.38	1.8545617017391225	draw_card	0.0	columbia_card_task_fmri	16.0	0.8333333333333334	89.0	-80.0	0.1666666666666666	16.0	5.0	2.0	2.639176734578492	0.38	n/a	stim	s612
304.355	0.953	0.4000162471936637	end_round	0.0	columbia_card_task_fmri	16.0	0.8181818181818181	71.0	-80.0	0.1818181818181818	16.0	6.0	2.0	3.88715241718635	0.953	5.0	stim	s612
305.315	2.25	n/a	-1.0	n/a	columbia_card_task_fmri	n/a	n/a	-1.0	n/a	n/a	n/a	n/a	n/a	n/a	n/a	n/a	feedback	s612
307.565	0.068	n/a	-1.0	n/a	columbia_card_task_fmri	n/a	n/a	-1.0	n/a	n/a	n/a	n/a	n/a	n/a	n/a	n/a	ITI	s612
307.637	0.445	3.0420617017391205	draw_card	0.0	columbia_card_task_fmri	4.0	0.6875	89.0	-5.0	0.3125	16.0	1.0	5.0	-28.62066995313545	0.445	n/a	stim	s612
308.087	0.592	2.854561701739121	draw_card	0.0	columbia_card_task_fmri	4.0	0.6666666666666667	89.0	-5.0	0.3333333333333333	16.0	2.0	5.0	-28.555675849126217	0.592	n/a	stim	s612
308.685	0.314	2.640275987453406	draw_card	0.0	columbia_card_task_fmri	4.0	0.6428571428571428	89.0	-5.0	0.3571428571428571	16.0	3.0	5.0	-28.491657930330668	0.314	n/a	stim	s612
309.004	0.335	2.393023240200659	draw_card	0.0	columbia_card_task_fmri	4.0	0.6153846153846154	89.0	-5.0	0.3846153846153846	16.0	4.0	5.0	-28.430843543443643	0.335	n/a	stim	s612
309.344	0.852	2.10456170173912	end_round	0.0	columbia_card_task_fmri	4.0	0.5833333333333333	71.0	-5.0	0.4166666666666667	16.0	5.0	5.0	-28.37690225211331	0.852	4.0	stim	s612
310.203	2.25	n/a	-1.0	n/a	columbia_card_task_fmri	n/a	n/a	-1.0	n/a	n/a	n/a	n/a	n/a	n/a	n/a	n/a	feedback	s612
312.453	0.136	n/a	-1.0	n/a	columbia_card_task_fmri	n/a	n/a	-1.0	n/a	n/a	n/a	n/a	n/a	n/a	n/a	n/a	ITI	s612
312.593	1.249	0.1878950350724562	draw_card	0.0	columbia_card_task_fmri	14.0	0.8333333333333334	89.0	-80.0	0.1666666666666666	6.0	1.0	1.0	1.8948413451776744	1.249	n/a	stim	s612
313.848	0.331	-2.9454382982608784	draw_card	1.0	columbia_card_task_fmri	14.0	0.8	89.0	-80.0	0.2	6.0	2.0	1.0	4.459763183862641	0.331	2.0	stim	s612
314.188	2.25	n/a	-1.0	n/a	columbia_card_task_fmri	n/a	n/a	-1.0	n/a	n/a	n/a	n/a	n/a	n/a	n/a	n/a	feedback	s612
316.438	0.0	n/a	-1.0	n/a	columbia_card_task_fmri	n/a	n/a	-1.0	n/a	n/a	n/a	n/a	n/a	n/a	n/a	n/a	ITI	s612
316.443	0.612	1.8545617017391205	draw_card	0.0	columbia_card_task_fmri	15.0	0.8333333333333334	89.0	-75.0	0.1666666666666666	6.0	1.0	1.0	0.4063063464997469	0.612	n/a	stim	s612
317.059	0.294	-1.1454382982608795	draw_card	0.0	columbia_card_task_fmri	15.0	0.8	89.0	-75.0	0.2	6.0	2.0	1.0	2.8617920576217277	0.294	n/a	stim	s612
317.358	0.665	-5.64543829826088	draw_card	0.0	columbia_card_task_fmri	15.0	0.75	89.0	-75.0	0.25	6.0	3.0	1.0	5.829300003511115	0.665	n/a	stim	s612
318.028	0.814	-13.145438298260878	end_round	0.0	columbia_card_task_fmri	15.0	0.6666666666666667	71.0	-75.0	0.3333333333333333	6.0	4.0	1.0	9.280975511056468	0.814	3.0	stim	s612
318.852	2.25	n/a	-1.0	n/a	columbia_card_task_fmri	n/a	n/a	-1.0	n/a	n/a	n/a	n/a	n/a	n/a	n/a	n/a	feedback	s612
321.102	0.136	n/a	-1.0	n/a	columbia_card_task_fmri	n/a	n/a	-1.0	n/a	n/a	n/a	n/a	n/a	n/a	n/a	n/a	ITI	s612
321.243	0.753	3.5212283684057883	draw_card	0.0	columbia_card_task_fmri	16.0	0.8333333333333334	89.0	-70.0	0.1666666666666666	6.0	1.0	1.0	-1.0820266269886432	0.753	n/a	stim	s612
322.001	0.313	0.6545617017391212	draw_card	0.0	columbia_card_task_fmri	16.0	0.8	89.0	-70.0	0.2	6.0	2.0	1.0	1.264009271175091	0.313	n/a	stim	s612
322.321	0.282	-3.64543829826088	draw_card	1.0	columbia_card_task_fmri	16.0	0.75	89.0	-70.0	0.25	6.0	3.0	1.0	4.099297994860933	0.282	3.0	stim	s612
322.608	2.25	n/a	-1.0	n/a	columbia_card_task_fmri	n/a	n/a	-1.0	n/a	n/a	n/a	n/a	n/a	n/a	n/a	n/a	feedback	s612
324.858	0.34	n/a	-1.0	n/a	columbia_card_task_fmri	n/a	n/a	-1.0	n/a	n/a	n/a	n/a	n/a	n/a	n/a	n/a	ITI	s612
325.203	0.621	4.1045617017391205	draw_card	0.0	columbia_card_task_fmri	23.0	0.75	89.0	-60.0	0.25	8.0	1.0	2.0	2.8019258325737084	0.621	n/a	stim	s612
325.83	0.488	1.1402759874534087	draw_card	1.0	columbia_card_task_fmri	23.0	0.7142857142857143	89.0	-60.0	0.2857142857142857	8.0	2.0	2.0	4.3554682946844	0.488	2.0	stim	s612
326.324	2.25	n/a	-1.0	n/a	columbia_card_task_fmri	n/a	n/a	-1.0	n/a	n/a	n/a	n/a	n/a	n/a	n/a	n/a	feedback	s612
328.574	0.408	n/a	-1.0	n/a	columbia_card_task_fmri	n/a	n/a	-1.0	n/a	n/a	n/a	n/a	n/a	n/a	n/a	n/a	ITI	s612
328.987	0.768	4.6045617017391205	draw_card	0.0	columbia_card_task_fmri	27.0	0.75	89.0	-70.0	0.25	8.0	1.0	2.0	8.857209476147645	0.768	n/a	stim	s612
329.76	0.321	1.1402759874534052	draw_card	0.0	columbia_card_task_fmri	27.0	0.7142857142857143	89.0	-70.0	0.2857142857142857	8.0	2.0	2.0	10.673414517797084	0.321	n/a	stim	s612
330.086	0.309	-3.478771631594208	draw_card	0.0	columbia_card_task_fmri	27.0	0.6666666666666667	89.0	-70.0	0.3333333333333333	8.0	3.0	2.0	12.577885934630883	0.309	n/a	stim	s612
330.402	0.752	-9.94543829826088	end_round	0.0	columbia_card_task_fmri	27.0	0.6	71.0	-70.0	0.4	8.0	4.0	2.0	14.370330404329785	0.752	3.0	stim	s612
331.163	2.25	n/a	-1.0	n/a	columbia_card_task_fmri	n/a	n/a	-1.0	n/a	n/a	n/a	n/a	n/a	n/a	n/a	n/a	feedback	s612
333.413	0.136	n/a	-1.0	n/a	columbia_card_task_fmri	n/a	n/a	-1.0	n/a	n/a	n/a	n/a	n/a	n/a	n/a	n/a	ITI	s612
333.554	0.606	-0.1454382982608777	draw_card	0.0	columbia_card_task_fmri	16.0	0.7777777777777778	89.0	-65.0	0.2222222222222222	9.0	1.0	2.0	0.539999765611455	0.606	n/a	stim	s612
334.165	0.287	-2.3954382982608795	draw_card	0.0	columbia_card_task_fmri	16.0	0.75	89.0	-65.0	0.25	9.0	2.0	2.0	1.93707947558724	0.287	n/a	stim	s612
334.458	0.283	-5.28829544111802	draw_card	0.0	columbia_card_task_fmri	16.0	0.7142857142857143	89.0	-65.0	0.2857142857142857	9.0	3.0	2.0	3.45309071270767	0.283	n/a	stim	s612
334.746	0.782	-9.145438298260876	end_round	0.0	columbia_card_task_fmri	16.0	0.6666666666666667	71.0	-65.0	0.3333333333333333	9.0	4.0	2.0	5.042831384045357	0.782	3.0	stim	s612
335.538	2.25	n/a	-1.0	n/a	columbia_card_task_fmri	n/a	n/a	-1.0	n/a	n/a	n/a	n/a	n/a	n/a	n/a	n/a	feedback	s612
337.788	0.136	n/a	-1.0	n/a	columbia_card_task_fmri	n/a	n/a	-1.0	n/a	n/a	n/a	n/a	n/a	n/a	n/a	n/a	ITI	s612
337.929	0.511	5.054561701739122	draw_card	0.0	columbia_card_task_fmri	13.0	0.9	89.0	-85.0	0.1	10.0	1.0	1.0	-3.727510613486896	0.511	n/a	stim	s612
338.445	0.311	3.965672812850231	draw_card	0.0	columbia_card_task_fmri	13.0	0.8888888888888888	89.0	-85.0	0.1111111111111111	10.0	2.0	1.0	-2.331730306338692	0.311	n/a	stim	s612
338.761	0.245	2.6045617017391205	draw_card	0.0	columbia_card_task_fmri	13.0	0.875	89.0	-85.0	0.125	10.0	3.0	1.0	-0.7224754972066734	0.245	n/a	stim	s612
339.012	0.477	0.8545617017391223	draw_card	0.0	columbia_card_task_fmri	13.0	0.8571428571428572	89.0	-85.0	0.1428571428571428	10.0	4.0	1.0	1.1570215206833083	0.477	n/a	stim	s612
339.494	0.945	-1.4787716315942117	end_round	0.0	columbia_card_task_fmri	13.0	0.8333333333333334	71.0	-85.0	0.1666666666666666	10.0	5.0	1.0	3.3835536991862227	0.945	4.0	stim	s612
340.448	2.25	n/a	-1.0	n/a	columbia_card_task_fmri	n/a	n/a	-1.0	n/a	n/a	n/a	n/a	n/a	n/a	n/a	n/a	feedback	s612
342.698	0.0	n/a	-1.0	n/a	columbia_card_task_fmri	n/a	n/a	-1.0	n/a	n/a	n/a	n/a	n/a	n/a	n/a	n/a	ITI	s612
342.704	0.789	0.0545617017391215	draw_card	0.0	columbia_card_task_fmri	14.0	0.8	89.0	-65.0	0.2	10.0	1.0	2.0	-1.5315716318718664	0.789	n/a	stim	s612
343.498	0.282	-1.700993853816433	draw_card	0.0	columbia_card_task_fmri	14.0	0.7777777777777778	89.0	-65.0	0.2222222222222222	10.0	2.0	2.0	-0.290189809423552	0.282	n/a	stim	s612
343.786	0.239	-3.89543829826088	draw_card	0.0	columbia_card_task_fmri	14.0	0.75	89.0	-65.0	0.25	10.0	3.0	2.0	1.0722926891063125	0.239	n/a	stim	s612
344.028	0.44	-6.716866869689449	draw_card	1.0	columbia_card_task_fmri	14.0	0.7142857142857143	89.0	-65.0	0.2857142857142857	10.0	4.0	2.0	2.550770249347856	0.44	4.0	stim	s612
344.474	2.25	n/a	-1.0	n/a	columbia_card_task_fmri	n/a	n/a	-1.0	n/a	n/a	n/a	n/a	n/a	n/a	n/a	n/a	feedback	s612
346.724	0.068	n/a	-1.0	n/a	columbia_card_task_fmri	n/a	n/a	-1.0	n/a	n/a	n/a	n/a	n/a	n/a	n/a	n/a	ITI	s612
346.796	0.418	1.454561701739122	draw_card	0.0	columbia_card_task_fmri	17.0	0.8	89.0	-70.0	0.2	10.0	1.0	2.0	1.6634358941913234	0.418	n/a	stim	s612
347.219	0.257	-0.4787716315942116	draw_card	1.0	columbia_card_task_fmri	17.0	0.7777777777777778	89.0	-70.0	0.2222222222222222	10.0	2.0	2.0	3.030923569122166	0.257	2.0	stim	s612
347.486	2.25	n/a	-1.0	n/a	columbia_card_task_fmri	n/a	n/a	-1.0	n/a	n/a	n/a	n/a	n/a	n/a	n/a	n/a	feedback	s612
349.736	0.0	n/a	-1.0	n/a	columbia_card_task_fmri	n/a	n/a	-1.0	n/a	n/a	n/a	n/a	n/a	n/a	n/a	n/a	ITI	s612
349.741	0.567	0.1878950350724544	draw_card	0.0	columbia_card_task_fmri	13.0	0.8333333333333334	89.0	-75.0	0.1666666666666666	12.0	1.0	2.0	-0.3378871097962204	0.567	n/a	stim	s612
350.313	0.28	-1.1454382982608813	draw_card	0.0	columbia_card_task_fmri	13.0	0.8181818181818181	89.0	-75.0	0.1818181818181818	12.0	2.0	2.0	0.805809146390807	0.28	n/a	stim	s612
350.599	0.262	-2.745438298260879	draw_card	0.0	columbia_card_task_fmri	13.0	0.8	89.0	-75.0	0.2	12.0	3.0	2.0	2.0628755211292287	0.262	n/a	stim	s612
350.867	1.189	-4.700993853816433	draw_card	0.0	columbia_card_task_fmri	13.0	0.7777777777777778	89.0	-75.0	0.2222222222222222	12.0	4.0	2.0	3.446124037018336	1.189	n/a	stim	s612
352.062	0.551	-7.14543829826088	end_round	0.0	columbia_card_task_fmri	13.0	0.75	71.0	-75.0	0.25	12.0	5.0	2.0	4.9642757586659485	0.551	4.0	stim	s612
352.622	2.25	n/a	-1.0	n/a	columbia_card_task_fmri	n/a	n/a	-1.0	n/a	n/a	n/a	n/a	n/a	n/a	n/a	n/a	feedback	s612
354.872	0.0	n/a	-1.0	n/a	columbia_card_task_fmri	n/a	n/a	-1.0	n/a	n/a	n/a	n/a	n/a	n/a	n/a	n/a	ITI	s612
354.878	0.758	1.8545617017391225	draw_card	0.0	columbia_card_task_fmri	14.0	0.8333333333333334	89.0	-70.0	0.1666666666666666	12.0	1.0	2.0	-1.8261083653043144	0.758	n/a	stim	s612
355.642	0.316	0.5818344290118453	draw_card	1.0	columbia_card_task_fmri	14.0	0.8181818181818181	89.0	-70.0	0.1818181818181818	12.0	2.0	2.0	-0.7345622137726124	0.316	2.0	stim	s612
355.969	2.25	n/a	-1.0	n/a	columbia_card_task_fmri	n/a	n/a	-1.0	n/a	n/a	n/a	n/a	n/a	n/a	n/a	n/a	feedback	s612
358.219	0.136	n/a	-1.0	n/a	columbia_card_task_fmri	n/a	n/a	-1.0	n/a	n/a	n/a	n/a	n/a	n/a	n/a	n/a	ITI	s612
358.36	0.625	1.8545617017391225	draw_card	1.0	columbia_card_task_fmri	16.0	0.8333333333333334	89.0	-80.0	0.1666666666666666	12.0	1.0	2.0	2.639176734578492	0.625	1.0	stim	s612
358.993	2.25	n/a	-1.0	n/a	columbia_card_task_fmri	n/a	n/a	-1.0	n/a	n/a	n/a	n/a	n/a	n/a	n/a	n/a	feedback	s612
361.243	0.136	n/a	-1.0	n/a	columbia_card_task_fmri	n/a	n/a	-1.0	n/a	n/a	n/a	n/a	n/a	n/a	n/a	n/a	ITI	s612
361.386	0.481	1.6545617017391212	draw_card	0.0	columbia_card_task_fmri	16.0	0.8	89.0	-65.0	0.2	15.0	1.0	3.0	-0.7329119803593684	0.481	n/a	stim	s612
361.873	0.407	0.4974188445962646	draw_card	0.0	columbia_card_task_fmri	16.0	0.7857142857142857	89.0	-65.0	0.2142857142857142	15.0	2.0	3.0	0.1021536875424899	0.407	n/a	stim	s612
362.287	0.356	-0.8377459905685729	draw_card	0.0	columbia_card_task_fmri	16.0	0.7692307692307692	89.0	-65.0	0.2307692307692307	15.0	3.0	3.0	0.9917364001888842	0.356	n/a	stim	s612
362.651	0.37	-2.3954382982608795	draw_card	0.0	columbia_card_task_fmri	16.0	0.75	89.0	-65.0	0.25	15.0	4.0	3.0	1.93707947558724	0.37	n/a	stim	s612
363.028	0.419	-4.2363473891699694	draw_card	0.0	columbia_card_task_fmri	16.0	0.7272727272727273	89.0	-65.0	0.2727272727272727	15.0	5.0	3.0	2.935997344909282	0.419	n/a	stim	s612
363.452	0.477	-6.44543829826088	draw_card	0.0	columbia_card_task_fmri	16.0	0.7	89.0	-65.0	0.3	15.0	6.0	3.0	3.979218061117855	0.477	n/a	stim	s612
363.934	0.71	-9.145438298260876	end_round	0.0	columbia_card_task_fmri	16.0	0.6666666666666667	71.0	-65.0	0.3333333333333333	15.0	7.0	3.0	5.042831384045357	0.71	6.0	stim	s612
364.653	2.25	n/a	-1.0	n/a	columbia_card_task_fmri	n/a	n/a	-1.0	n/a	n/a	n/a	n/a	n/a	n/a	n/a	n/a	feedback	s612
366.903	0.476	n/a	-1.0	n/a	columbia_card_task_fmri	n/a	n/a	-1.0	n/a	n/a	n/a	n/a	n/a	n/a	n/a	n/a	ITI	s612
367.385	0.641	-0.0204382982608795	draw_card	0.0	columbia_card_task_fmri	15.0	0.8125	89.0	-75.0	0.1875	16.0	1.0	3.0	1.9910890312339904	0.641	n/a	stim	s612
368.032	0.34	-1.1454382982608795	draw_card	0.0	columbia_card_task_fmri	15.0	0.8	89.0	-75.0	0.2	16.0	2.0	3.0	2.8617920576217277	0.34	n/a	stim	s612
368.376	0.349	-2.431152583975164	draw_card	0.0	columbia_card_task_fmri	15.0	0.7857142857142857	89.0	-75.0	0.2142857142857142	16.0	3.0	3.0	3.789923560958876	0.349	n/a	stim	s612
368.731	0.391	-3.914669067491653	draw_card	0.0	columbia_card_task_fmri	15.0	0.7692307692307692	89.0	-75.0	0.2307692307692307	16.0	4.0	3.0	4.778632788889205	0.391	n/a	stim	s612
369.127	0.419	-5.64543829826088	draw_card	0.0	columbia_card_task_fmri	15.0	0.75	89.0	-75.0	0.25	16.0	5.0	3.0	5.829300003511115	0.419	n/a	stim	s612
369.552	0.365	-7.690892843715423	draw_card	0.0	columbia_card_task_fmri	15.0	0.7272727272727273	89.0	-75.0	0.2727272727272727	16.0	6.0	3.0	6.939494702593102	0.365	n/a	stim	s612
369.923	1.227	-10.14543829826088	end_round	0.0	columbia_card_task_fmri	15.0	0.7	71.0	-75.0	0.3	16.0	7.0	3.0	8.098911054028093	1.227	6.0	stim	s612
371.159	2.25	n/a	-1.0	n/a	columbia_card_task_fmri	n/a	n/a	-1.0	n/a	n/a	n/a	n/a	n/a	n/a	n/a	n/a	feedback	s612
373.409	0.204	n/a	-1.0	n/a	columbia_card_task_fmri	n/a	n/a	-1.0	n/a	n/a	n/a	n/a	n/a	n/a	n/a	n/a	ITI	s612
373.619	0.567	0.5420617017391205	draw_card	0.0	columbia_card_task_fmri	14.0	0.6875	89.0	-35.0	0.3125	16.0	1.0	5.0	-10.39824634696958	0.567	n/a	stim	s612
374.191	0.33	-0.4787716315942116	draw_card	1.0	columbia_card_task_fmri	14.0	0.6666666666666667	89.0	-35.0	0.3333333333333333	16.0	2.0	5.0	-10.012794132035118	0.33	2.0	stim	s612
374.53	2.25	n/a	-1.0	n/a	columbia_card_task_fmri	n/a	n/a	-1.0	n/a	n/a	n/a	n/a	n/a	n/a	n/a	n/a	feedback	s612
376.78	0.068	n/a	-1.0	n/a	columbia_card_task_fmri	n/a	n/a	-1.0	n/a	n/a	n/a	n/a	n/a	n/a	n/a	n/a	ITI	s612
376.855	0.437	5.721228368405788	draw_card	0.0	columbia_card_task_fmri	16.0	0.8666666666666667	89.0	-75.0	0.1333333333333333	15.0	1.0	2.0	-2.196351426579568	0.437	n/a	stim	s612
377.297	0.32	4.854561701739122	draw_card	0.0	columbia_card_task_fmri	16.0	0.8571428571428572	89.0	-75.0	0.1428571428571428	15.0	2.0	2.0	-1.2886198303636398	0.32	n/a	stim	s612
377.624	0.297	3.854561701739121	draw_card	0.0	columbia_card_task_fmri	16.0	0.8461538461538461	89.0	-75.0	0.1538461538461538	15.0	3.0	2.0	-0.3006998047936093	0.297	n/a	stim	s612
377.926	0.324	2.6878950350724544	draw_card	0.0	columbia_card_task_fmri	16.0	0.8333333333333334	89.0	-75.0	0.1666666666666666	15.0	4.0	2.0	0.7784221938278719	0.324	n/a	stim	s612
378.256	0.353	1.3091071562845735	draw_card	0.0	columbia_card_task_fmri	16.0	0.8181818181818181	89.0	-75.0	0.1818181818181818	15.0	5.0	2.0	1.9612262346590013	0.353	n/a	stim	s612
378.615	0.387	-0.3454382982608788	draw_card	0.0	columbia_card_task_fmri	16.0	0.8	89.0	-75.0	0.2	15.0	6.0	2.0	3.2612681499479166	0.387	n/a	stim	s612
379.008	0.864	-2.367660520483099	end_round	0.0	columbia_card_task_fmri	16.0	0.7777777777777778	71.0	-75.0	0.2222222222222222	15.0	7.0	2.0	4.6917964182297	0.864	6.0	stim	s612
379.879	2.25	n/a	-1.0	n/a	columbia_card_task_fmri	n/a	n/a	-1.0	n/a	n/a	n/a	n/a	n/a	n/a	n/a	n/a	feedback	s612
382.129	0.068	n/a	-1.0	n/a	columbia_card_task_fmri	n/a	n/a	-1.0	n/a	n/a	n/a	n/a	n/a	n/a	n/a	n/a	ITI	s612
382.202	0.684	6.387895035072454	draw_card	0.0	columbia_card_task_fmri	16.0	0.8666666666666667	89.0	-70.0	0.1333333333333333	15.0	1.0	2.0	-3.892801678867304	0.684	n/a	stim	s612
382.891	0.323	5.568847416024836	draw_card	0.0	columbia_card_task_fmri	16.0	0.8571428571428572	89.0	-70.0	0.1428571428571428	15.0	2.0	2.0	-3.035123973626053	0.323	n/a	stim	s612
383.22	0.289	4.623792470969889	draw_card	0.0	columbia_card_task_fmri	16.0	0.8461538461538461	89.0	-70.0	0.1538461538461538	15.0	3.0	2.0	-2.1016683707846404	0.289	n/a	stim	s612
383.515	0.363	3.5212283684057883	draw_card	1.0	columbia_card_task_fmri	16.0	0.8333333333333334	89.0	-70.0	0.1666666666666666	15.0	4.0	2.0	-1.0820266269886432	0.363	4.0	stim	s612
383.887	2.25	n/a	-1.0	n/a	columbia_card_task_fmri	n/a	n/a	-1.0	n/a	n/a	n/a	n/a	n/a	n/a	n/a	n/a	feedback	s612
386.137	0.34	n/a	-1.0	n/a	columbia_card_task_fmri	n/a	n/a	-1.0	n/a	n/a	n/a	n/a	n/a	n/a	n/a	n/a	ITI	s612
386.483	0.522	3.729561701739121	draw_card	0.0	columbia_card_task_fmri	8.0	0.9375	89.0	-90.0	0.0625	16.0	1.0	1.0	-9.391539361373855	0.522	n/a	stim	s612
387.01	0.3	3.3212283684057877	draw_card	0.0	columbia_card_task_fmri	8.0	0.9333333333333332	89.0	-90.0	0.0666666666666666	16.0	2.0	1.0	-8.670203406596134	0.3	n/a	stim	s612
387.316	0.281	2.8545617017391214	draw_card	0.0	columbia_card_task_fmri	8.0	0.9285714285714286	89.0	-90.0	0.0714285714285714	16.0	3.0	1.0	-7.879041544456527	0.281	n/a	stim	s612
387.603	0.277	2.316100163277582	draw_card	0.0	columbia_card_task_fmri	8.0	0.9230769230769232	89.0	-90.0	0.0769230769230769	16.0	4.0	1.0	-7.006178201033258	0.277	n/a	stim	s612
387.886	0.29	1.6878950350724535	draw_card	0.0	columbia_card_task_fmri	8.0	0.9166666666666666	89.0	-90.0	0.0833333333333333	16.0	5.0	1.0	-6.036759952693558	0.29	n/a	stim	s612
388.181	0.307	0.9454707926482112	draw_card	0.0	columbia_card_task_fmri	8.0	0.9090909090909092	89.0	-90.0	0.0909090909090909	16.0	6.0	1.0	-4.951951897010197	0.307	n/a	stim	s612
388.494	0.937	0.0545617017391206	end_round	0.0	columbia_card_task_fmri	8.0	0.9	71.0	-90.0	0.1	16.0	7.0	1.0	-3.727510613486896	0.937	6.0	stim	s612
389.438	2.25	n/a	-1.0	n/a	columbia_card_task_fmri	n/a	n/a	-1.0	n/a	n/a	n/a	n/a	n/a	n/a	n/a	n/a	feedback	s612
391.688	0.476	n/a	-1.0	n/a	columbia_card_task_fmri	n/a	n/a	-1.0	n/a	n/a	n/a	n/a	n/a	n/a	n/a	n/a	ITI	s612
392.168	0.443	5.2920617017391205	draw_card	0.0	columbia_card_task_fmri	10.0	0.9375	89.0	-95.0	0.0625	16.0	1.0	1.0	-7.7019214557859215	0.443	n/a	stim	s612
392.616	0.273	4.854561701739121	draw_card	0.0	columbia_card_task_fmri	10.0	0.9333333333333332	89.0	-95.0	0.0666666666666666	16.0	2.0	1.0	-6.928767673905565	0.273	n/a	stim	s612
392.894	0.275	4.354561701739121	draw_card	0.0	columbia_card_task_fmri	10.0	0.9285714285714286	89.0	-95.0	0.0714285714285714	16.0	3.0	1.0	-6.080791248219249	0.275	n/a	stim	s612
393.174	0.276	3.777638624816044	draw_card	0.0	columbia_card_task_fmri	10.0	0.9230769230769232	89.0	-95.0	0.0769230769230769	16.0	4.0	1.0	-5.145267489619382	0.276	n/a	stim	s612
393.455	0.286	3.1045617017391205	draw_card	0.0	columbia_card_task_fmri	10.0	0.9166666666666666	89.0	-95.0	0.0833333333333333	16.0	5.0	1.0	-4.106281022363444	0.286	n/a	stim	s612
393.747	0.633	2.3091071562845737	draw_card	0.0	columbia_card_task_fmri	10.0	0.9090909090909092	89.0	-95.0	0.0909090909090909	16.0	6.0	1.0	-2.9436504414795834	0.633	n/a	stim	s612
394.384	3.521	1.3545617017391205	end_round	0.0	columbia_card_task_fmri	10.0	0.9	71.0	-95.0	0.1	16.0	7.0	1.0	-1.6313993136297924	3.521	6.0	stim	s612
397.914	2.25	n/a	-1.0	n/a	columbia_card_task_fmri	n/a	n/a	-1.0	n/a	n/a	n/a	n/a	n/a	n/a	n/a	n/a	feedback	s612
400.164	0.272	n/a	-1.0	n/a	columbia_card_task_fmri	n/a	n/a	-1.0	n/a	n/a	n/a	n/a	n/a	n/a	n/a	n/a	ITI	s612
400.442	0.449	6.2295617017391205	draw_card	0.0	columbia_card_task_fmri	15.0	0.875	89.0	-70.0	0.125	16.0	1.0	2.0	-5.013729372461015	0.449	n/a	stim	s612
400.898	0.31	5.521228368405787	draw_card	0.0	columbia_card_task_fmri	15.0	0.8666666666666667	89.0	-70.0	0.1333333333333333	16.0	2.0	2.0	-4.232046365739766	0.31	n/a	stim	s612
401.216	0.36	4.711704558881978	draw_card	0.0	columbia_card_task_fmri	15.0	0.8571428571428572	89.0	-70.0	0.1428571428571428	16.0	3.0	2.0	-3.384380719591768	0.36	n/a	stim	s612
401.584	0.422	3.777638624816042	draw_card	0.0	columbia_card_task_fmri	15.0	0.8461538461538461	89.0	-70.0	0.1538461538461538	16.0	4.0	2.0	-2.4618193158926083	0.422	n/a	stim	s612
402.014	0.352	2.6878950350724544	draw_card	0.0	columbia_card_task_fmri	15.0	0.8333333333333334	89.0	-70.0	0.1666666666666666	16.0	5.0	2.0	-1.454074972549506	0.352	n/a	stim	s612
402.372	0.459	1.4000162471936637	draw_card	1.0	columbia_card_task_fmri	15.0	0.8181818181818181	89.0	-70.0	0.1818181818181818	16.0	6.0	2.0	-0.349490562147615	0.459	6.0	stim	s612
402.838	2.25	n/a	-1.0	n/a	columbia_card_task_fmri	n/a	n/a	-1.0	n/a	n/a	n/a	n/a	n/a	n/a	n/a	n/a	feedback	s612
405.088	0.884	n/a	-1.0	n/a	columbia_card_task_fmri	n/a	n/a	-1.0	n/a	n/a	n/a	n/a	n/a	n/a	n/a	n/a	ITI	s612
405.978	0.565	5.2295617017391205	draw_card	0.0	columbia_card_task_fmri	16.0	0.875	89.0	-85.0	0.125	16.0	1.0	2.0	0.2681089505493617	0.565	n/a	stim	s612
406.549	0.302	4.387895035072454	draw_card	1.0	columbia_card_task_fmri	16.0	0.8666666666666667	89.0	-85.0	0.1333333333333333	16.0	2.0	2.0	1.1975040940692736	0.302	2.0	stim	s612
406.861	2.25	n/a	-1.0	n/a	columbia_card_task_fmri	n/a	n/a	-1.0	n/a	n/a	n/a	n/a	n/a	n/a	n/a	n/a	feedback	s612
409.111	0.136	n/a	-1.0	n/a	columbia_card_task_fmri	n/a	n/a	-1.0	n/a	n/a	n/a	n/a	n/a	n/a	n/a	n/a	ITI	s612
