onset	duration	planning	condition	current_position	exp_stage	experiment_exp_id	goal_state	key_press	problem_id	response_time	start_state	trial_id	worker_id
-89.699	0.0	0	n/a	n/a	n/a	ward_and_allport	n/a	32.0	n/a	53.809	n/a	instructions	s609
3.01	4.018	1	UA_with_intermediate	1,0,0,2,0,0,0,0,0	practice	ward_and_allport	1,2,3,0,0,0,0,0,0	71.0	0.0	4.018	1,0,0,2,3,0,0,0,0	to_hand	s609
7.03	0.367	0	UA_with_intermediate	1,0,0,2,0,0,3,0,0	practice	ward_and_allport	1,2,3,0,0,0,0,0,0	82.0	0.0	0.367	1,0,0,2,3,0,0,0,0	to_board	s609
7.398	0.311	0	UA_with_intermediate	1,0,0,0,0,0,3,0,0	practice	ward_and_allport	1,2,3,0,0,0,0,0,0	71.0	0.0	0.311	1,0,0,2,3,0,0,0,0	to_hand	s609
7.71	0.308	0	UA_with_intermediate	1,2,0,0,0,0,3,0,0	practice	ward_and_allport	1,2,3,0,0,0,0,0,0	89.0	0.0	0.308	1,0,0,2,3,0,0,0,0	to_board	s609
8.019	0.413	0	UA_with_intermediate	1,2,0,0,0,0,0,0,0	practice	ward_and_allport	1,2,3,0,0,0,0,0,0	82.0	0.0	0.413	1,0,0,2,3,0,0,0,0	to_hand	s609
8.434	0.262	0	UA_with_intermediate	1,2,3,0,0,0,0,0,0	practice	ward_and_allport	1,2,3,0,0,0,0,0,0	89.0	0.0	0.262	1,0,0,2,3,0,0,0,0	to_board	s609
8.701	1.0	0	UA_with_intermediate	n/a	practice	ward_and_allport	n/a	-1.0	0.0	n/a	n/a	feedback	s609
11.203	2.873	1	UA_with_intermediate	1,0,0,3,0,0,0,0,0	practice	ward_and_allport	1,3,2,0,0,0,0,0,0	89.0	1.0	2.873	1,2,0,3,0,0,0,0,0	to_hand	s609
14.077	0.464	0	UA_with_intermediate	1,0,0,3,0,0,2,0,0	practice	ward_and_allport	1,3,2,0,0,0,0,0,0	82.0	1.0	0.464	1,2,0,3,0,0,0,0,0	to_board	s609
14.542	0.355	0	UA_with_intermediate	1,0,0,0,0,0,2,0,0	practice	ward_and_allport	1,3,2,0,0,0,0,0,0	71.0	1.0	0.355	1,2,0,3,0,0,0,0,0	to_hand	s609
14.898	0.286	0	UA_with_intermediate	1,3,0,0,0,0,2,0,0	practice	ward_and_allport	1,3,2,0,0,0,0,0,0	89.0	1.0	0.286	1,2,0,3,0,0,0,0,0	to_board	s609
15.185	0.306	0	UA_with_intermediate	1,3,0,0,0,0,0,0,0	practice	ward_and_allport	1,3,2,0,0,0,0,0,0	82.0	1.0	0.306	1,2,0,3,0,0,0,0,0	to_hand	s609
15.492	0.272	0	UA_with_intermediate	1,3,2,0,0,0,0,0,0	practice	ward_and_allport	1,3,2,0,0,0,0,0,0	89.0	1.0	0.272	1,2,0,3,0,0,0,0,0	to_board	s609
15.768	1.0	0	UA_with_intermediate	n/a	practice	ward_and_allport	n/a	-1.0	1.0	n/a	n/a	feedback	s609
16.768	1.1	0	UA_with_intermediate	n/a	practice	ward_and_allport	n/a	-1.0	1.0	n/a	n/a	ITI	s609
17.869	2.065	1	UA_without_intermediate	0,0,0,1,2,0,0,0,0	practice	ward_and_allport	3,2,1,0,0,0,0,0,0	82.0	2.0	2.065	0,0,0,1,2,0,3,0,0	to_hand	s609
19.935	0.294	0	UA_without_intermediate	3,0,0,1,2,0,0,0,0	practice	ward_and_allport	3,2,1,0,0,0,0,0,0	89.0	2.0	0.294	0,0,0,1,2,0,3,0,0	to_board	s609
20.231	0.651	0	UA_without_intermediate	3,0,0,1,0,0,0,0,0	practice	ward_and_allport	3,2,1,0,0,0,0,0,0	71.0	2.0	0.651	0,0,0,1,2,0,3,0,0	to_hand	s609
20.883	0.262	0	UA_without_intermediate	3,2,0,1,0,0,0,0,0	practice	ward_and_allport	3,2,1,0,0,0,0,0,0	89.0	2.0	0.262	0,0,0,1,2,0,3,0,0	to_board	s609
21.147	0.704	0	UA_without_intermediate	3,2,0,0,0,0,0,0,0	practice	ward_and_allport	3,2,1,0,0,0,0,0,0	71.0	2.0	0.704	0,0,0,1,2,0,3,0,0	to_hand	s609
21.853	0.278	0	UA_without_intermediate	3,2,1,0,0,0,0,0,0	practice	ward_and_allport	3,2,1,0,0,0,0,0,0	89.0	2.0	0.278	0,0,0,1,2,0,3,0,0	to_board	s609
22.137	1.0	0	UA_without_intermediate	n/a	practice	ward_and_allport	n/a	-1.0	2.0	n/a	n/a	feedback	s609
23.137	1.2	0	UA_without_intermediate	n/a	practice	ward_and_allport	n/a	-1.0	2.0	n/a	n/a	ITI	s609
24.338	2.5	1	UA_without_intermediate	0,0,0,1,0,0,3,0,0	practice	ward_and_allport	2,3,1,0,0,0,0,0,0	71.0	3.0	2.5	0,0,0,1,2,0,3,0,0	to_hand	s609
26.839	0.308	0	UA_without_intermediate	2,0,0,1,0,0,3,0,0	practice	ward_and_allport	2,3,1,0,0,0,0,0,0	89.0	3.0	0.308	0,0,0,1,2,0,3,0,0	to_board	s609
27.149	0.636	0	UA_without_intermediate	2,0,0,1,0,0,0,0,0	practice	ward_and_allport	2,3,1,0,0,0,0,0,0	82.0	3.0	0.636	0,0,0,1,2,0,3,0,0	to_hand	s609
27.786	0.351	0	UA_without_intermediate	2,3,0,1,0,0,0,0,0	practice	ward_and_allport	2,3,1,0,0,0,0,0,0	89.0	3.0	0.351	0,0,0,1,2,0,3,0,0	to_board	s609
28.138	0.321	0	UA_without_intermediate	2,3,0,0,0,0,0,0,0	practice	ward_and_allport	2,3,1,0,0,0,0,0,0	71.0	3.0	0.321	0,0,0,1,2,0,3,0,0	to_hand	s609
28.46	0.262	0	UA_without_intermediate	2,3,1,0,0,0,0,0,0	practice	ward_and_allport	2,3,1,0,0,0,0,0,0	89.0	3.0	0.262	0,0,0,1,2,0,3,0,0	to_board	s609
28.727	1.0	0	UA_without_intermediate	n/a	practice	ward_and_allport	n/a	-1.0	3.0	n/a	n/a	feedback	s609
29.727	1.0	0	UA_without_intermediate	n/a	practice	ward_and_allport	n/a	-1.0	3.0	n/a	n/a	ITI	s609
32.736	10.129	1	PA_with_intermediate	0,0,0,0,0,0,1,2,0	test	ward_and_allport	0,0,0,2,3,0,1,0,0	82.0	0.0	10.129	0,0,0,0,0,0,1,2,3	to_hand	s609
42.866	0.289	0	PA_with_intermediate	3,0,0,0,0,0,1,2,0	test	ward_and_allport	0,0,0,2,3,0,1,0,0	89.0	0.0	0.289	0,0,0,0,0,0,1,2,3	to_board	s609
43.156	0.939	0	PA_with_intermediate	3,0,0,0,0,0,1,0,0	test	ward_and_allport	0,0,0,2,3,0,1,0,0	82.0	0.0	0.939	0,0,0,0,0,0,1,2,3	to_hand	s609
44.096	0.382	0	PA_with_intermediate	3,0,0,2,0,0,1,0,0	test	ward_and_allport	0,0,0,2,3,0,1,0,0	71.0	0.0	0.382	0,0,0,0,0,0,1,2,3	to_board	s609
44.481	0.776	0	PA_with_intermediate	0,0,0,2,0,0,1,0,0	test	ward_and_allport	0,0,0,2,3,0,1,0,0	89.0	0.0	0.776	0,0,0,0,0,0,1,2,3	to_hand	s609
45.259	0.374	0	PA_with_intermediate	0,0,0,2,3,0,1,0,0	test	ward_and_allport	0,0,0,2,3,0,1,0,0	71.0	0.0	0.374	0,0,0,0,0,0,1,2,3	to_board	s609
45.636	1.0	0	PA_with_intermediate	n/a	test	ward_and_allport	n/a	-1.0	0.0	n/a	n/a	feedback	s609
46.636	1.408	0	PA_with_intermediate	n/a	test	ward_and_allport	n/a	-1.0	0.0	n/a	n/a	ITI	s609
48.045	2.561	1	PA_without_intermediate	0,0,0,1,2,0,0,0,0	test	ward_and_allport	1,0,0,0,0,0,3,2,0	71.0	1.0	2.561	0,0,0,1,2,3,0,0,0	to_hand	s609
50.607	0.363	0	PA_without_intermediate	0,0,0,1,2,0,3,0,0	test	ward_and_allport	1,0,0,0,0,0,3,2,0	82.0	1.0	0.363	0,0,0,1,2,3,0,0,0	to_board	s609
50.971	1.268	0	PA_without_intermediate	0,0,0,1,0,0,3,0,0	test	ward_and_allport	1,0,0,0,0,0,3,2,0	71.0	1.0	1.268	0,0,0,1,2,3,0,0,0	to_hand	s609
52.24	0.252	0	PA_without_intermediate	0,0,0,1,0,0,3,2,0	test	ward_and_allport	1,0,0,0,0,0,3,2,0	82.0	1.0	0.252	0,0,0,1,2,3,0,0,0	to_board	s609
52.494	0.604	0	PA_without_intermediate	0,0,0,0,0,0,3,2,0	test	ward_and_allport	1,0,0,0,0,0,3,2,0	71.0	1.0	0.604	0,0,0,1,2,3,0,0,0	to_hand	s609
53.099	0.33	0	PA_without_intermediate	1,0,0,0,0,0,3,2,0	test	ward_and_allport	1,0,0,0,0,0,3,2,0	89.0	1.0	0.33	0,0,0,1,2,3,0,0,0	to_board	s609
53.433	1.0	0	PA_without_intermediate	n/a	test	ward_and_allport	n/a	-1.0	1.0	n/a	n/a	feedback	s609
54.433	1.68	0	PA_without_intermediate	n/a	test	ward_and_allport	n/a	-1.0	1.0	n/a	n/a	ITI	s609
56.114	2.51	1	PA_with_intermediate	1,2,0,0,0,0,0,0,0	test	ward_and_allport	1,3,0,2,0,0,0,0,0	89.0	2.0	2.51	1,2,3,0,0,0,0,0,0	to_hand	s609
58.625	0.751	0	PA_with_intermediate	1,2,0,0,0,0,3,0,0	test	ward_and_allport	1,3,0,2,0,0,0,0,0	82.0	2.0	0.751	1,2,3,0,0,0,0,0,0	to_board	s609
59.379	0.492	0	PA_with_intermediate	1,0,0,0,0,0,3,0,0	test	ward_and_allport	1,3,0,2,0,0,0,0,0	89.0	2.0	0.492	1,2,3,0,0,0,0,0,0	to_hand	s609
59.872	0.295	0	PA_with_intermediate	1,0,0,2,0,0,3,0,0	test	ward_and_allport	1,3,0,2,0,0,0,0,0	71.0	2.0	0.295	1,2,3,0,0,0,0,0,0	to_board	s609
60.168	0.61	0	PA_with_intermediate	1,0,0,2,0,0,0,0,0	test	ward_and_allport	1,3,0,2,0,0,0,0,0	82.0	2.0	0.61	1,2,3,0,0,0,0,0,0	to_hand	s609
60.779	0.341	0	PA_with_intermediate	1,3,0,2,0,0,0,0,0	test	ward_and_allport	1,3,0,2,0,0,0,0,0	89.0	2.0	0.341	1,2,3,0,0,0,0,0,0	to_board	s609
61.127	1.0	0	PA_with_intermediate	n/a	test	ward_and_allport	n/a	-1.0	2.0	n/a	n/a	feedback	s609
62.127	3.72	0	PA_with_intermediate	n/a	test	ward_and_allport	n/a	-1.0	2.0	n/a	n/a	ITI	s609
65.849	1.709	1	PA_without_intermediate	0,0,0,0,0,0,1,2,0	test	ward_and_allport	1,0,0,3,2,0,0,0,0	82.0	3.0	1.709	0,0,0,0,0,0,1,2,3	to_hand	s609
67.56	0.373	0	PA_without_intermediate	0,0,0,3,0,0,1,2,0	test	ward_and_allport	1,0,0,3,2,0,0,0,0	71.0	3.0	0.373	0,0,0,0,0,0,1,2,3	to_board	s609
67.935	0.703	0	PA_without_intermediate	0,0,0,3,0,0,1,0,0	test	ward_and_allport	1,0,0,3,2,0,0,0,0	82.0	3.0	0.703	0,0,0,0,0,0,1,2,3	to_hand	s609
68.639	0.263	0	PA_without_intermediate	0,0,0,3,2,0,1,0,0	test	ward_and_allport	1,0,0,3,2,0,0,0,0	71.0	3.0	0.263	0,0,0,0,0,0,1,2,3	to_board	s609
68.905	1.178	0	PA_without_intermediate	0,0,0,3,2,0,0,0,0	test	ward_and_allport	1,0,0,3,2,0,0,0,0	82.0	3.0	1.178	0,0,0,0,0,0,1,2,3	to_hand	s609
70.084	0.219	0	PA_without_intermediate	1,0,0,3,2,0,0,0,0	test	ward_and_allport	1,0,0,3,2,0,0,0,0	89.0	3.0	0.219	0,0,0,0,0,0,1,2,3	to_board	s609
70.309	1.0	0	PA_without_intermediate	n/a	test	ward_and_allport	n/a	-1.0	3.0	n/a	n/a	feedback	s609
71.309	2.224	0	PA_without_intermediate	n/a	test	ward_and_allport	n/a	-1.0	3.0	n/a	n/a	ITI	s609
73.536	3.201	1	PA_without_intermediate	1,2,0,0,0,0,0,0,0	test	ward_and_allport	0,0,0,2,0,0,3,1,0	89.0	4.0	3.201	1,2,3,0,0,0,0,0,0	to_hand	s609
76.738	0.348	0	PA_without_intermediate	1,2,0,0,0,0,3,0,0	test	ward_and_allport	0,0,0,2,0,0,3,1,0	82.0	4.0	0.348	1,2,3,0,0,0,0,0,0	to_board	s609
77.089	1.315	0	PA_without_intermediate	1,0,0,0,0,0,3,0,0	test	ward_and_allport	0,0,0,2,0,0,3,1,0	89.0	4.0	1.315	1,2,3,0,0,0,0,0,0	to_hand	s609
78.405	0.257	0	PA_without_intermediate	1,0,0,2,0,0,3,0,0	test	ward_and_allport	0,0,0,2,0,0,3,1,0	71.0	4.0	0.257	1,2,3,0,0,0,0,0,0	to_board	s609
78.664	0.4	0	PA_without_intermediate	0,0,0,2,0,0,3,0,0	test	ward_and_allport	0,0,0,2,0,0,3,1,0	89.0	4.0	0.4	1,2,3,0,0,0,0,0,0	to_hand	s609
79.065	0.252	0	PA_without_intermediate	0,0,0,2,0,0,3,1,0	test	ward_and_allport	0,0,0,2,0,0,3,1,0	82.0	4.0	0.252	1,2,3,0,0,0,0,0,0	to_board	s609
79.324	1.0	0	PA_without_intermediate	n/a	test	ward_and_allport	n/a	-1.0	4.0	n/a	n/a	feedback	s609
80.324	1.272	0	PA_without_intermediate	n/a	test	ward_and_allport	n/a	-1.0	4.0	n/a	n/a	ITI	s609
81.598	2.667	1	PA_with_intermediate	0,0,0,0,0,0,1,2,0	test	ward_and_allport	2,0,0,0,0,0,1,3,0	82.0	5.0	2.667	0,0,0,0,0,0,1,2,3	to_hand	s609
84.266	0.477	0	PA_with_intermediate	0,0,0,3,0,0,1,2,0	test	ward_and_allport	2,0,0,0,0,0,1,3,0	71.0	5.0	0.477	0,0,0,0,0,0,1,2,3	to_board	s609
84.746	1.146	0	PA_with_intermediate	0,0,0,3,0,0,1,0,0	test	ward_and_allport	2,0,0,0,0,0,1,3,0	82.0	5.0	1.146	0,0,0,0,0,0,1,2,3	to_hand	s609
85.894	0.226	0	PA_with_intermediate	2,0,0,3,0,0,1,0,0	test	ward_and_allport	2,0,0,0,0,0,1,3,0	89.0	5.0	0.226	0,0,0,0,0,0,1,2,3	to_board	s609
86.122	0.617	0	PA_with_intermediate	2,0,0,0,0,0,1,0,0	test	ward_and_allport	2,0,0,0,0,0,1,3,0	71.0	5.0	0.617	0,0,0,0,0,0,1,2,3	to_hand	s609
86.739	0.256	0	PA_with_intermediate	2,0,0,0,0,0,1,3,0	test	ward_and_allport	2,0,0,0,0,0,1,3,0	82.0	5.0	0.256	0,0,0,0,0,0,1,2,3	to_board	s609
86.999	1.0	0	PA_with_intermediate	n/a	test	ward_and_allport	n/a	-1.0	5.0	n/a	n/a	feedback	s609
87.999	2.632	0	PA_with_intermediate	n/a	test	ward_and_allport	n/a	-1.0	5.0	n/a	n/a	ITI	s609
90.632	2.034	1	PA_without_intermediate	0,0,0,0,0,0,1,2,0	test	ward_and_allport	3,1,0,2,0,0,0,0,0	82.0	6.0	2.034	0,0,0,0,0,0,1,2,3	to_hand	s609
92.668	1.075	0	PA_without_intermediate	0,0,0,3,0,0,1,2,0	test	ward_and_allport	3,1,0,2,0,0,0,0,0	71.0	6.0	1.075	0,0,0,0,0,0,1,2,3	to_board	s609
93.745	2.977	0	PA_without_intermediate	0,0,0,3,0,0,1,0,0	test	ward_and_allport	3,1,0,2,0,0,0,0,0	82.0	6.0	2.977	0,0,0,0,0,0,1,2,3	to_hand	s609
96.723	4.369	0	PA_without_intermediate	0,0,0,3,2,0,1,0,0	test	ward_and_allport	3,1,0,2,0,0,0,0,0	71.0	6.0	4.369	0,0,0,0,0,0,1,2,3	to_board	s609
101.094	0.321	0	PA_without_intermediate	0,0,0,3,2,0,0,0,0	test	ward_and_allport	3,1,0,2,0,0,0,0,0	82.0	6.0	0.321	0,0,0,0,0,0,1,2,3	to_hand	s609
101.416	0.439	0	PA_without_intermediate	1,0,0,3,2,0,0,0,0	test	ward_and_allport	3,1,0,2,0,0,0,0,0	89.0	6.0	0.439	0,0,0,0,0,0,1,2,3	to_board	s609
101.858	0.855	0	PA_without_intermediate	1,0,0,3,0,0,0,0,0	test	ward_and_allport	3,1,0,2,0,0,0,0,0	71.0	6.0	0.855	0,0,0,0,0,0,1,2,3	to_hand	s609
102.714	1.073	0	PA_without_intermediate	1,0,0,3,0,0,2,0,0	test	ward_and_allport	3,1,0,2,0,0,0,0,0	82.0	6.0	1.073	0,0,0,0,0,0,1,2,3	to_board	s609
103.79	0.415	0	PA_without_intermediate	1,0,0,0,0,0,2,0,0	test	ward_and_allport	3,1,0,2,0,0,0,0,0	71.0	6.0	0.415	0,0,0,0,0,0,1,2,3	to_hand	s609
104.205	0.374	0	PA_without_intermediate	1,3,0,0,0,0,2,0,0	test	ward_and_allport	3,1,0,2,0,0,0,0,0	89.0	6.0	0.374	0,0,0,0,0,0,1,2,3	to_board	s609
104.582	0.306	0	PA_without_intermediate	1,3,0,0,0,0,0,0,0	test	ward_and_allport	3,1,0,2,0,0,0,0,0	82.0	6.0	0.306	0,0,0,0,0,0,1,2,3	to_hand	s609
104.889	0.358	0	PA_without_intermediate	1,3,0,2,0,0,0,0,0	test	ward_and_allport	3,1,0,2,0,0,0,0,0	71.0	6.0	0.358	0,0,0,0,0,0,1,2,3	to_board	s609
105.25	2.042	0	PA_without_intermediate	1,0,0,2,0,0,0,0,0	test	ward_and_allport	3,1,0,2,0,0,0,0,0	89.0	6.0	2.042	0,0,0,0,0,0,1,2,3	to_hand	s609
107.293	0.459	0	PA_without_intermediate	1,0,0,2,0,0,3,0,0	test	ward_and_allport	3,1,0,2,0,0,0,0,0	82.0	6.0	0.459	0,0,0,0,0,0,1,2,3	to_board	s609
107.755	1.324	0	PA_without_intermediate	0,0,0,2,0,0,3,0,0	test	ward_and_allport	3,1,0,2,0,0,0,0,0	89.0	6.0	1.324	0,0,0,0,0,0,1,2,3	to_hand	s609
109.08	0.309	0	PA_without_intermediate	0,0,0,2,1,0,3,0,0	test	ward_and_allport	3,1,0,2,0,0,0,0,0	71.0	6.0	0.309	0,0,0,0,0,0,1,2,3	to_board	s609
109.392	0.313	0	PA_without_intermediate	0,0,0,2,1,0,0,0,0	test	ward_and_allport	3,1,0,2,0,0,0,0,0	82.0	6.0	0.313	0,0,0,0,0,0,1,2,3	to_hand	s609
109.705	0.269	0	PA_without_intermediate	3,0,0,2,1,0,0,0,0	test	ward_and_allport	3,1,0,2,0,0,0,0,0	89.0	6.0	0.269	0,0,0,0,0,0,1,2,3	to_board	s609
109.977	0.498	0	PA_without_intermediate	3,0,0,2,0,0,0,0,0	test	ward_and_allport	3,1,0,2,0,0,0,0,0	71.0	6.0	0.498	0,0,0,0,0,0,1,2,3	to_hand	s609
110.476	0.362	0	PA_without_intermediate	3,1,0,2,0,0,0,0,0	test	ward_and_allport	3,1,0,2,0,0,0,0,0	89.0	6.0	0.362	0,0,0,0,0,0,1,2,3	to_board	s609
110.847	1.0	0	PA_without_intermediate	n/a	test	ward_and_allport	n/a	-1.0	6.0	n/a	n/a	feedback	s609
111.847	1.408	0	PA_without_intermediate	n/a	test	ward_and_allport	n/a	-1.0	6.0	n/a	n/a	ITI	s609
113.258	3.699	1	PA_without_intermediate	1,2,0,0,0,0,0,0,0	test	ward_and_allport	0,0,0,3,2,0,1,0,0	89.0	7.0	3.699	1,2,3,0,0,0,0,0,0	to_hand	s609
116.957	0.316	0	PA_without_intermediate	1,2,0,3,0,0,0,0,0	test	ward_and_allport	0,0,0,3,2,0,1,0,0	71.0	7.0	0.316	1,2,3,0,0,0,0,0,0	to_board	s609
117.276	0.459	0	PA_without_intermediate	1,0,0,3,0,0,0,0,0	test	ward_and_allport	0,0,0,3,2,0,1,0,0	89.0	7.0	0.459	1,2,3,0,0,0,0,0,0	to_hand	s609
117.736	0.274	0	PA_without_intermediate	1,0,0,3,2,0,0,0,0	test	ward_and_allport	0,0,0,3,2,0,1,0,0	71.0	7.0	0.274	1,2,3,0,0,0,0,0,0	to_board	s609
118.012	0.605	0	PA_without_intermediate	0,0,0,3,2,0,0,0,0	test	ward_and_allport	0,0,0,3,2,0,1,0,0	89.0	7.0	0.605	1,2,3,0,0,0,0,0,0	to_hand	s609
118.618	0.244	0	PA_without_intermediate	0,0,0,3,2,0,1,0,0	test	ward_and_allport	0,0,0,3,2,0,1,0,0	82.0	7.0	0.244	1,2,3,0,0,0,0,0,0	to_board	s609
118.865	1.0	0	PA_without_intermediate	n/a	test	ward_and_allport	n/a	-1.0	7.0	n/a	n/a	feedback	s609
119.865	1.0	0	PA_without_intermediate	n/a	test	ward_and_allport	n/a	-1.0	7.0	n/a	n/a	ITI	s609
120.868	4.291	1	PA_with_intermediate	0,0,0,1,2,0,0,0,0	test	ward_and_allport	2,0,0,1,3,0,0,0,0	71.0	8.0	4.291	0,0,0,1,2,3,0,0,0	to_hand	s609
125.16	0.905	0	PA_with_intermediate	0,0,0,1,2,0,3,0,0	test	ward_and_allport	2,0,0,1,3,0,0,0,0	82.0	8.0	0.905	0,0,0,1,2,3,0,0,0	to_board	s609
126.068	0.464	0	PA_with_intermediate	0,0,0,1,0,0,3,0,0	test	ward_and_allport	2,0,0,1,3,0,0,0,0	71.0	8.0	0.464	0,0,0,1,2,3,0,0,0	to_hand	s609
126.534	0.229	0	PA_with_intermediate	2,0,0,1,0,0,3,0,0	test	ward_and_allport	2,0,0,1,3,0,0,0,0	89.0	8.0	0.229	0,0,0,1,2,3,0,0,0	to_board	s609
126.767	1.657	0	PA_with_intermediate	2,0,0,1,0,0,0,0,0	test	ward_and_allport	2,0,0,1,3,0,0,0,0	82.0	8.0	1.657	0,0,0,1,2,3,0,0,0	to_hand	s609
128.424	0.202	0	PA_with_intermediate	2,0,0,1,3,0,0,0,0	test	ward_and_allport	2,0,0,1,3,0,0,0,0	71.0	8.0	0.202	0,0,0,1,2,3,0,0,0	to_board	s609
128.636	1.0	0	PA_with_intermediate	n/a	test	ward_and_allport	n/a	-1.0	8.0	n/a	n/a	feedback	s609
129.636	1.0	0	PA_with_intermediate	n/a	test	ward_and_allport	n/a	-1.0	8.0	n/a	n/a	ITI	s609
130.639	5.27	1	PA_with_intermediate	1,2,0,0,0,0,0,0,0	test	ward_and_allport	1,0,0,2,3,0,0,0,0	89.0	9.0	5.27	1,2,3,0,0,0,0,0,0	to_hand	s609
135.911	0.278	0	PA_with_intermediate	1,2,0,0,0,0,3,0,0	test	ward_and_allport	1,0,0,2,3,0,0,0,0	82.0	9.0	0.278	1,2,3,0,0,0,0,0,0	to_board	s609
136.192	0.869	0	PA_with_intermediate	1,0,0,0,0,0,3,0,0	test	ward_and_allport	1,0,0,2,3,0,0,0,0	89.0	9.0	0.869	1,2,3,0,0,0,0,0,0	to_hand	s609
137.062	0.467	0	PA_with_intermediate	1,0,0,2,0,0,3,0,0	test	ward_and_allport	1,0,0,2,3,0,0,0,0	71.0	9.0	0.467	1,2,3,0,0,0,0,0,0	to_board	s609
137.533	0.373	0	PA_with_intermediate	1,0,0,2,0,0,0,0,0	test	ward_and_allport	1,0,0,2,3,0,0,0,0	82.0	9.0	0.373	1,2,3,0,0,0,0,0,0	to_hand	s609
137.907	0.321	0	PA_with_intermediate	1,0,0,2,3,0,0,0,0	test	ward_and_allport	1,0,0,2,3,0,0,0,0	71.0	9.0	0.321	1,2,3,0,0,0,0,0,0	to_board	s609
138.236	1.0	0	PA_with_intermediate	n/a	test	ward_and_allport	n/a	-1.0	9.0	n/a	n/a	feedback	s609
139.236	1.0	0	PA_with_intermediate	n/a	test	ward_and_allport	n/a	-1.0	9.0	n/a	n/a	ITI	s609
140.239	2.538	1	PA_with_intermediate	1,2,0,0,0,0,0,0,0	test	ward_and_allport	1,3,0,0,0,0,2,0,0	89.0	10.0	2.538	1,2,3,0,0,0,0,0,0	to_hand	s609
142.778	0.341	0	PA_with_intermediate	1,2,0,3,0,0,0,0,0	test	ward_and_allport	1,3,0,0,0,0,2,0,0	71.0	10.0	0.341	1,2,3,0,0,0,0,0,0	to_board	s609
143.123	0.324	0	PA_with_intermediate	1,0,0,3,0,0,0,0,0	test	ward_and_allport	1,3,0,0,0,0,2,0,0	89.0	10.0	0.324	1,2,3,0,0,0,0,0,0	to_hand	s609
143.448	0.242	0	PA_with_intermediate	1,0,0,3,0,0,2,0,0	test	ward_and_allport	1,3,0,0,0,0,2,0,0	82.0	10.0	0.242	1,2,3,0,0,0,0,0,0	to_board	s609
143.694	0.349	0	PA_with_intermediate	1,0,0,0,0,0,2,0,0	test	ward_and_allport	1,3,0,0,0,0,2,0,0	71.0	10.0	0.349	1,2,3,0,0,0,0,0,0	to_hand	s609
144.044	0.277	0	PA_with_intermediate	1,3,0,0,0,0,2,0,0	test	ward_and_allport	1,3,0,0,0,0,2,0,0	89.0	10.0	0.277	1,2,3,0,0,0,0,0,0	to_board	s609
144.329	1.0	0	PA_with_intermediate	n/a	test	ward_and_allport	n/a	-1.0	10.0	n/a	n/a	feedback	s609
145.329	1.408	0	PA_with_intermediate	n/a	test	ward_and_allport	n/a	-1.0	10.0	n/a	n/a	ITI	s609
146.74	5.685	1	PA_without_intermediate	0,0,0,1,2,0,0,0,0	test	ward_and_allport	1,0,0,0,0,0,3,2,0	71.0	11.0	5.685	0,0,0,1,2,3,0,0,0	to_hand	s609
152.426	0.442	0	PA_without_intermediate	0,0,0,1,2,0,3,0,0	test	ward_and_allport	1,0,0,0,0,0,3,2,0	82.0	11.0	0.442	0,0,0,1,2,3,0,0,0	to_board	s609
152.872	0.368	0	PA_without_intermediate	0,0,0,1,0,0,3,0,0	test	ward_and_allport	1,0,0,0,0,0,3,2,0	71.0	11.0	0.368	0,0,0,1,2,3,0,0,0	to_hand	s609
153.242	0.382	0	PA_without_intermediate	0,0,0,1,0,0,3,2,0	test	ward_and_allport	1,0,0,0,0,0,3,2,0	82.0	11.0	0.382	0,0,0,1,2,3,0,0,0	to_board	s609
153.628	0.705	0	PA_without_intermediate	0,0,0,0,0,0,3,2,0	test	ward_and_allport	1,0,0,0,0,0,3,2,0	71.0	11.0	0.705	0,0,0,1,2,3,0,0,0	to_hand	s609
154.335	0.225	0	PA_without_intermediate	1,0,0,0,0,0,3,2,0	test	ward_and_allport	1,0,0,0,0,0,3,2,0	89.0	11.0	0.225	0,0,0,1,2,3,0,0,0	to_board	s609
154.567	1.0	0	PA_without_intermediate	n/a	test	ward_and_allport	n/a	-1.0	11.0	n/a	n/a	feedback	s609
155.567	1.816	0	PA_without_intermediate	n/a	test	ward_and_allport	n/a	-1.0	11.0	n/a	n/a	ITI	s609
157.385	4.465	1	PA_with_intermediate	0,0,0,0,0,0,1,2,0	test	ward_and_allport	2,3,0,0,0,0,1,0,0	82.0	12.0	4.465	0,0,0,0,0,0,1,2,3	to_hand	s609
161.851	0.467	0	PA_with_intermediate	0,0,0,3,0,0,1,2,0	test	ward_and_allport	2,3,0,0,0,0,1,0,0	71.0	12.0	0.467	0,0,0,0,0,0,1,2,3	to_board	s609
162.322	0.703	0	PA_with_intermediate	0,0,0,3,0,0,1,0,0	test	ward_and_allport	2,3,0,0,0,0,1,0,0	82.0	12.0	0.703	0,0,0,0,0,0,1,2,3	to_hand	s609
163.026	0.27	0	PA_with_intermediate	2,0,0,3,0,0,1,0,0	test	ward_and_allport	2,3,0,0,0,0,1,0,0	89.0	12.0	0.27	0,0,0,0,0,0,1,2,3	to_board	s609
163.299	0.373	0	PA_with_intermediate	2,0,0,0,0,0,1,0,0	test	ward_and_allport	2,3,0,0,0,0,1,0,0	71.0	12.0	0.373	0,0,0,0,0,0,1,2,3	to_hand	s609
163.673	0.244	0	PA_with_intermediate	2,3,0,0,0,0,1,0,0	test	ward_and_allport	2,3,0,0,0,0,1,0,0	89.0	12.0	0.244	0,0,0,0,0,0,1,2,3	to_board	s609
163.921	1.0	0	PA_with_intermediate	n/a	test	ward_and_allport	n/a	-1.0	12.0	n/a	n/a	feedback	s609
164.921	3.176	0	PA_with_intermediate	n/a	test	ward_and_allport	n/a	-1.0	12.0	n/a	n/a	ITI	s609
168.101	3.813	1	PA_with_intermediate	0,0,0,1,2,0,0,0,0	test	ward_and_allport	2,0,0,1,3,0,0,0,0	71.0	13.0	3.813	0,0,0,1,2,3,0,0,0	to_hand	s609
171.915	0.35	0	PA_with_intermediate	0,0,0,1,2,0,3,0,0	test	ward_and_allport	2,0,0,1,3,0,0,0,0	82.0	13.0	0.35	0,0,0,1,2,3,0,0,0	to_board	s609
172.269	0.477	0	PA_with_intermediate	0,0,0,1,0,0,3,0,0	test	ward_and_allport	2,0,0,1,3,0,0,0,0	71.0	13.0	0.477	0,0,0,1,2,3,0,0,0	to_hand	s609
172.747	0.294	0	PA_with_intermediate	2,0,0,1,0,0,3,0,0	test	ward_and_allport	2,0,0,1,3,0,0,0,0	89.0	13.0	0.294	0,0,0,1,2,3,0,0,0	to_board	s609
173.045	1.253	0	PA_with_intermediate	2,0,0,1,0,0,0,0,0	test	ward_and_allport	2,0,0,1,3,0,0,0,0	82.0	13.0	1.253	0,0,0,1,2,3,0,0,0	to_hand	s609
174.299	0.257	0	PA_with_intermediate	2,0,0,1,3,0,0,0,0	test	ward_and_allport	2,0,0,1,3,0,0,0,0	71.0	13.0	0.257	0,0,0,1,2,3,0,0,0	to_board	s609
174.561	1.0	0	PA_with_intermediate	n/a	test	ward_and_allport	n/a	-1.0	13.0	n/a	n/a	feedback	s609
175.561	2.36	0	PA_with_intermediate	n/a	test	ward_and_allport	n/a	-1.0	13.0	n/a	n/a	ITI	s609
177.924	5.2	1	PA_with_intermediate	0,0,0,0,0,0,1,2,0	test	ward_and_allport	2,0,0,0,0,0,1,3,0	82.0	14.0	5.2	0,0,0,0,0,0,1,2,3	to_hand	s609
183.126	0.4	0	PA_with_intermediate	0,0,0,3,0,0,1,2,0	test	ward_and_allport	2,0,0,0,0,0,1,3,0	71.0	14.0	0.4	0,0,0,0,0,0,1,2,3	to_board	s609
183.529	1.554	0	PA_with_intermediate	0,0,0,3,0,0,1,0,0	test	ward_and_allport	2,0,0,0,0,0,1,3,0	82.0	14.0	1.554	0,0,0,0,0,0,1,2,3	to_hand	s609
185.084	0.401	0	PA_with_intermediate	2,0,0,3,0,0,1,0,0	test	ward_and_allport	2,0,0,0,0,0,1,3,0	89.0	14.0	0.401	0,0,0,0,0,0,1,2,3	to_board	s609
185.489	0.742	0	PA_with_intermediate	2,0,0,0,0,0,1,0,0	test	ward_and_allport	2,0,0,0,0,0,1,3,0	71.0	14.0	0.742	0,0,0,0,0,0,1,2,3	to_hand	s609
186.232	0.269	0	PA_with_intermediate	2,0,0,0,0,0,1,3,0	test	ward_and_allport	2,0,0,0,0,0,1,3,0	82.0	14.0	0.269	0,0,0,0,0,0,1,2,3	to_board	s609
186.508	1.0	0	PA_with_intermediate	n/a	test	ward_and_allport	n/a	-1.0	14.0	n/a	n/a	feedback	s609
187.508	1.0	0	PA_with_intermediate	n/a	test	ward_and_allport	n/a	-1.0	14.0	n/a	n/a	ITI	s609
193.514	5.854	1	PA_without_intermediate	0,0,0,1,2,0,0,0,0	test	ward_and_allport	3,2,0,0,0,0,1,0,0	71.0	15.0	5.854	0,0,0,1,2,3,0,0,0	to_hand	s609
199.369	0.353	0	PA_without_intermediate	3,0,0,1,2,0,0,0,0	test	ward_and_allport	3,2,0,0,0,0,1,0,0	89.0	15.0	0.353	0,0,0,1,2,3,0,0,0	to_board	s609
199.727	0.315	0	PA_without_intermediate	3,0,0,1,0,0,0,0,0	test	ward_and_allport	3,2,0,0,0,0,1,0,0	71.0	15.0	0.315	0,0,0,1,2,3,0,0,0	to_hand	s609
200.043	0.333	0	PA_without_intermediate	3,2,0,1,0,0,0,0,0	test	ward_and_allport	3,2,0,0,0,0,1,0,0	89.0	15.0	0.333	0,0,0,1,2,3,0,0,0	to_board	s609
200.38	0.301	0	PA_without_intermediate	3,2,0,0,0,0,0,0,0	test	ward_and_allport	3,2,0,0,0,0,1,0,0	71.0	15.0	0.301	0,0,0,1,2,3,0,0,0	to_hand	s609
200.682	0.587	0	PA_without_intermediate	3,2,0,0,0,0,1,0,0	test	ward_and_allport	3,2,0,0,0,0,1,0,0	82.0	15.0	0.587	0,0,0,1,2,3,0,0,0	to_board	s609
201.279	1.0	0	PA_without_intermediate	n/a	test	ward_and_allport	n/a	-1.0	15.0	n/a	n/a	feedback	s609
202.279	1.408	0	PA_without_intermediate	n/a	test	ward_and_allport	n/a	-1.0	15.0	n/a	n/a	ITI	s609
203.69	4.979	1	PA_with_intermediate	0,0,0,0,0,0,1,2,0	test	ward_and_allport	0,0,0,2,0,0,1,3,0	82.0	16.0	4.979	0,0,0,0,0,0,1,2,3	to_hand	s609
208.67	0.318	0	PA_with_intermediate	0,0,0,3,0,0,1,2,0	test	ward_and_allport	0,0,0,2,0,0,1,3,0	71.0	16.0	0.318	0,0,0,0,0,0,1,2,3	to_board	s609
208.992	0.296	0	PA_with_intermediate	0,0,0,3,0,0,1,0,0	test	ward_and_allport	0,0,0,2,0,0,1,3,0	82.0	16.0	0.296	0,0,0,0,0,0,1,2,3	to_hand	s609
209.289	0.311	0	PA_with_intermediate	2,0,0,3,0,0,1,0,0	test	ward_and_allport	0,0,0,2,0,0,1,3,0	89.0	16.0	0.311	0,0,0,0,0,0,1,2,3	to_board	s609
209.605	0.315	0	PA_with_intermediate	2,0,0,0,0,0,1,0,0	test	ward_and_allport	0,0,0,2,0,0,1,3,0	71.0	16.0	0.315	0,0,0,0,0,0,1,2,3	to_hand	s609
209.922	0.442	0	PA_with_intermediate	2,0,0,0,0,0,1,3,0	test	ward_and_allport	0,0,0,2,0,0,1,3,0	82.0	16.0	0.442	0,0,0,0,0,0,1,2,3	to_board	s609
210.367	1.476	0	PA_with_intermediate	0,0,0,0,0,0,1,3,0	test	ward_and_allport	0,0,0,2,0,0,1,3,0	89.0	16.0	1.476	0,0,0,0,0,0,1,2,3	to_hand	s609
211.844	0.197	0	PA_with_intermediate	0,0,0,2,0,0,1,3,0	test	ward_and_allport	0,0,0,2,0,0,1,3,0	71.0	16.0	0.197	0,0,0,0,0,0,1,2,3	to_board	s609
212.047	1.0	0	PA_with_intermediate	n/a	test	ward_and_allport	n/a	-1.0	16.0	n/a	n/a	feedback	s609
213.047	1.816	0	PA_with_intermediate	n/a	test	ward_and_allport	n/a	-1.0	16.0	n/a	n/a	ITI	s609
214.868	5.237	1	PA_without_intermediate	0,0,0,1,2,0,0,0,0	test	ward_and_allport	3,1,0,0,0,0,2,0,0	71.0	17.0	5.237	0,0,0,1,2,3,0,0,0	to_hand	s609
220.106	0.349	0	PA_without_intermediate	3,0,0,1,2,0,0,0,0	test	ward_and_allport	3,1,0,0,0,0,2,0,0	89.0	17.0	0.349	0,0,0,1,2,3,0,0,0	to_board	s609
220.459	0.395	0	PA_without_intermediate	3,0,0,1,0,0,0,0,0	test	ward_and_allport	3,1,0,0,0,0,2,0,0	71.0	17.0	0.395	0,0,0,1,2,3,0,0,0	to_hand	s609
220.855	0.386	0	PA_without_intermediate	3,0,0,1,0,0,2,0,0	test	ward_and_allport	3,1,0,0,0,0,2,0,0	82.0	17.0	0.386	0,0,0,1,2,3,0,0,0	to_board	s609
221.246	0.436	0	PA_without_intermediate	3,0,0,0,0,0,2,0,0	test	ward_and_allport	3,1,0,0,0,0,2,0,0	71.0	17.0	0.436	0,0,0,1,2,3,0,0,0	to_hand	s609
221.682	0.329	0	PA_without_intermediate	3,1,0,0,0,0,2,0,0	test	ward_and_allport	3,1,0,0,0,0,2,0,0	89.0	17.0	0.329	0,0,0,1,2,3,0,0,0	to_board	s609
222.017	1.0	0	PA_without_intermediate	n/a	test	ward_and_allport	n/a	-1.0	17.0	n/a	n/a	feedback	s609
223.017	2.088	0	PA_without_intermediate	n/a	test	ward_and_allport	n/a	-1.0	17.0	n/a	n/a	ITI	s609
225.109	3.149	1	PA_without_intermediate	0,0,0,0,0,0,1,2,0	test	ward_and_allport	1,0,0,3,2,0,0,0,0	82.0	18.0	3.149	0,0,0,0,0,0,1,2,3	to_hand	s609
228.259	0.453	0	PA_without_intermediate	0,0,0,3,0,0,1,2,0	test	ward_and_allport	1,0,0,3,2,0,0,0,0	71.0	18.0	0.453	0,0,0,0,0,0,1,2,3	to_board	s609
228.717	0.393	0	PA_without_intermediate	0,0,0,3,0,0,1,0,0	test	ward_and_allport	1,0,0,3,2,0,0,0,0	82.0	18.0	0.393	0,0,0,0,0,0,1,2,3	to_hand	s609
229.111	0.293	0	PA_without_intermediate	0,0,0,3,2,0,1,0,0	test	ward_and_allport	1,0,0,3,2,0,0,0,0	71.0	18.0	0.293	0,0,0,0,0,0,1,2,3	to_board	s609
229.408	0.344	0	PA_without_intermediate	0,0,0,3,2,0,0,0,0	test	ward_and_allport	1,0,0,3,2,0,0,0,0	82.0	18.0	0.344	0,0,0,0,0,0,1,2,3	to_hand	s609
229.753	0.233	0	PA_without_intermediate	1,0,0,3,2,0,0,0,0	test	ward_and_allport	1,0,0,3,2,0,0,0,0	89.0	18.0	0.233	0,0,0,0,0,0,1,2,3	to_board	s609
229.993	1.0	0	PA_without_intermediate	n/a	test	ward_and_allport	n/a	-1.0	18.0	n/a	n/a	feedback	s609
230.993	1.136	0	PA_without_intermediate	n/a	test	ward_and_allport	n/a	-1.0	18.0	n/a	n/a	ITI	s609
232.133	3.518	1	PA_without_intermediate	1,2,0,0,0,0,0,0,0	test	ward_and_allport	0,0,0,2,0,0,3,1,0	89.0	19.0	3.518	1,2,3,0,0,0,0,0,0	to_hand	s609
235.652	0.252	0	PA_without_intermediate	1,2,0,0,0,0,3,0,0	test	ward_and_allport	0,0,0,2,0,0,3,1,0	82.0	19.0	0.252	1,2,3,0,0,0,0,0,0	to_board	s609
235.908	1.026	0	PA_without_intermediate	1,0,0,0,0,0,3,0,0	test	ward_and_allport	0,0,0,2,0,0,3,1,0	89.0	19.0	1.026	1,2,3,0,0,0,0,0,0	to_hand	s609
236.935	0.238	0	PA_without_intermediate	1,0,0,2,0,0,3,0,0	test	ward_and_allport	0,0,0,2,0,0,3,1,0	71.0	19.0	0.238	1,2,3,0,0,0,0,0,0	to_board	s609
237.177	0.332	0	PA_without_intermediate	0,0,0,2,0,0,3,0,0	test	ward_and_allport	0,0,0,2,0,0,3,1,0	89.0	19.0	0.332	1,2,3,0,0,0,0,0,0	to_hand	s609
237.51	0.233	0	PA_without_intermediate	0,0,0,2,0,0,3,1,0	test	ward_and_allport	0,0,0,2,0,0,3,1,0	82.0	19.0	0.233	1,2,3,0,0,0,0,0,0	to_board	s609
237.751	1.0	0	PA_without_intermediate	n/a	test	ward_and_allport	n/a	-1.0	19.0	n/a	n/a	feedback	s609
238.751	6.168	0	PA_without_intermediate	n/a	test	ward_and_allport	n/a	-1.0	19.0	n/a	n/a	ITI	s609
244.922	3.373	1	PA_without_intermediate	0,0,0,0,0,0,1,2,0	test	ward_and_allport	2,0,0,3,1,0,0,0,0	82.0	20.0	3.373	0,0,0,0,0,0,1,2,3	to_hand	s609
248.296	0.363	0	PA_without_intermediate	0,0,0,3,0,0,1,2,0	test	ward_and_allport	2,0,0,3,1,0,0,0,0	71.0	20.0	0.363	0,0,0,0,0,0,1,2,3	to_board	s609
248.664	0.738	0	PA_without_intermediate	0,0,0,3,0,0,1,0,0	test	ward_and_allport	2,0,0,3,1,0,0,0,0	82.0	20.0	0.738	0,0,0,0,0,0,1,2,3	to_hand	s609
249.403	0.291	0	PA_without_intermediate	2,0,0,3,0,0,1,0,0	test	ward_and_allport	2,0,0,3,1,0,0,0,0	89.0	20.0	0.291	0,0,0,0,0,0,1,2,3	to_board	s609
249.703	0.327	0	PA_without_intermediate	2,0,0,3,0,0,0,0,0	test	ward_and_allport	2,0,0,3,1,0,0,0,0	82.0	20.0	0.327	0,0,0,0,0,0,1,2,3	to_hand	s609
250.031	0.266	0	PA_without_intermediate	2,0,0,3,1,0,0,0,0	test	ward_and_allport	2,0,0,3,1,0,0,0,0	71.0	20.0	0.266	0,0,0,0,0,0,1,2,3	to_board	s609
250.305	1.0	0	PA_without_intermediate	n/a	test	ward_and_allport	n/a	-1.0	20.0	n/a	n/a	feedback	s609
251.305	1.816	0	PA_without_intermediate	n/a	test	ward_and_allport	n/a	-1.0	20.0	n/a	n/a	ITI	s609
253.127	3.579	1	PA_with_intermediate	1,2,0,0,0,0,0,0,0	test	ward_and_allport	1,0,0,0,0,0,2,3,0	89.0	21.0	3.579	1,2,3,0,0,0,0,0,0	to_hand	s609
256.706	1.693	0	PA_with_intermediate	1,2,0,3,0,0,0,0,0	test	ward_and_allport	1,0,0,0,0,0,2,3,0	71.0	21.0	1.693	1,2,3,0,0,0,0,0,0	to_board	s609
258.405	0.333	0	PA_with_intermediate	1,0,0,3,0,0,0,0,0	test	ward_and_allport	1,0,0,0,0,0,2,3,0	89.0	21.0	0.333	1,2,3,0,0,0,0,0,0	to_hand	s609
258.739	0.27	0	PA_with_intermediate	1,0,0,3,0,0,2,0,0	test	ward_and_allport	1,0,0,0,0,0,2,3,0	82.0	21.0	0.27	1,2,3,0,0,0,0,0,0	to_board	s609
259.014	0.57	0	PA_with_intermediate	1,0,0,0,0,0,2,0,0	test	ward_and_allport	1,0,0,0,0,0,2,3,0	71.0	21.0	0.57	1,2,3,0,0,0,0,0,0	to_hand	s609
259.585	0.208	0	PA_with_intermediate	1,0,0,0,0,0,2,3,0	test	ward_and_allport	1,0,0,0,0,0,2,3,0	82.0	21.0	0.208	1,2,3,0,0,0,0,0,0	to_board	s609
259.801	1.0	0	PA_with_intermediate	n/a	test	ward_and_allport	n/a	-1.0	21.0	n/a	n/a	feedback	s609
260.801	1.952	0	PA_with_intermediate	n/a	test	ward_and_allport	n/a	-1.0	21.0	n/a	n/a	ITI	s609
262.758	4.407	1	PA_with_intermediate	0,0,0,0,0,0,1,2,0	test	ward_and_allport	0,0,0,2,0,0,1,3,0	82.0	22.0	4.407	0,0,0,0,0,0,1,2,3	to_hand	s609
267.166	0.276	0	PA_with_intermediate	3,0,0,0,0,0,1,2,0	test	ward_and_allport	0,0,0,2,0,0,1,3,0	89.0	22.0	0.276	0,0,0,0,0,0,1,2,3	to_board	s609
267.447	0.521	0	PA_with_intermediate	3,0,0,0,0,0,1,0,0	test	ward_and_allport	0,0,0,2,0,0,1,3,0	82.0	22.0	0.521	0,0,0,0,0,0,1,2,3	to_hand	s609
267.969	0.257	0	PA_with_intermediate	3,0,0,2,0,0,1,0,0	test	ward_and_allport	0,0,0,2,0,0,1,3,0	71.0	22.0	0.257	0,0,0,0,0,0,1,2,3	to_board	s609
268.231	0.333	0	PA_with_intermediate	0,0,0,2,0,0,1,0,0	test	ward_and_allport	0,0,0,2,0,0,1,3,0	89.0	22.0	0.333	0,0,0,0,0,0,1,2,3	to_hand	s609
268.565	0.69	0	PA_with_intermediate	0,0,0,2,0,0,1,3,0	test	ward_and_allport	0,0,0,2,0,0,1,3,0	82.0	22.0	0.69	0,0,0,0,0,0,1,2,3	to_board	s609
269.263	1.0	0	PA_with_intermediate	n/a	test	ward_and_allport	n/a	-1.0	22.0	n/a	n/a	feedback	s609
270.263	1.136	0	PA_with_intermediate	n/a	test	ward_and_allport	n/a	-1.0	22.0	n/a	n/a	ITI	s609
271.404	4.078	1	PA_without_intermediate	1,2,0,0,0,0,0,0,0	test	ward_and_allport	0,0,0,1,0,0,3,2,0	89.0	23.0	4.078	1,2,3,0,0,0,0,0,0	to_hand	s609
275.483	0.261	0	PA_without_intermediate	1,2,0,0,0,0,3,0,0	test	ward_and_allport	0,0,0,1,0,0,3,2,0	82.0	23.0	0.261	1,2,3,0,0,0,0,0,0	to_board	s609
275.75	0.337	0	PA_without_intermediate	1,0,0,0,0,0,3,0,0	test	ward_and_allport	0,0,0,1,0,0,3,2,0	89.0	23.0	0.337	1,2,3,0,0,0,0,0,0	to_hand	s609
276.087	0.276	0	PA_without_intermediate	1,0,0,0,0,0,3,2,0	test	ward_and_allport	0,0,0,1,0,0,3,2,0	82.0	23.0	0.276	1,2,3,0,0,0,0,0,0	to_board	s609
276.369	0.436	0	PA_without_intermediate	0,0,0,0,0,0,3,2,0	test	ward_and_allport	0,0,0,1,0,0,3,2,0	89.0	23.0	0.436	1,2,3,0,0,0,0,0,0	to_hand	s609
276.806	0.245	0	PA_without_intermediate	0,0,0,1,0,0,3,2,0	test	ward_and_allport	0,0,0,1,0,0,3,2,0	71.0	23.0	0.245	1,2,3,0,0,0,0,0,0	to_board	s609
277.059	1.0	0	PA_without_intermediate	n/a	test	ward_and_allport	n/a	-1.0	23.0	n/a	n/a	feedback	s609
278.059	1.68	0	PA_without_intermediate	n/a	test	ward_and_allport	n/a	-1.0	23.0	n/a	n/a	ITI	s609
279.745	4.919	1	PA_without_intermediate	1,2,0,0,0,0,0,0,0	test	ward_and_allport	0,0,0,1,0,0,3,2,0	89.0	24.0	4.919	1,2,3,0,0,0,0,0,0	to_hand	s609
284.665	0.257	0	PA_without_intermediate	1,2,0,0,0,0,3,0,0	test	ward_and_allport	0,0,0,1,0,0,3,2,0	82.0	24.0	0.257	1,2,3,0,0,0,0,0,0	to_board	s609
284.928	0.216	0	PA_without_intermediate	1,0,0,0,0,0,3,0,0	test	ward_and_allport	0,0,0,1,0,0,3,2,0	89.0	24.0	0.216	1,2,3,0,0,0,0,0,0	to_hand	s609
285.145	0.24	0	PA_without_intermediate	1,0,0,0,0,0,3,2,0	test	ward_and_allport	0,0,0,1,0,0,3,2,0	82.0	24.0	0.24	1,2,3,0,0,0,0,0,0	to_board	s609
285.391	0.283	0	PA_without_intermediate	0,0,0,0,0,0,3,2,0	test	ward_and_allport	0,0,0,1,0,0,3,2,0	89.0	24.0	0.283	1,2,3,0,0,0,0,0,0	to_hand	s609
285.675	0.213	0	PA_without_intermediate	0,0,0,1,0,0,3,2,0	test	ward_and_allport	0,0,0,1,0,0,3,2,0	71.0	24.0	0.213	1,2,3,0,0,0,0,0,0	to_board	s609
285.895	1.0	0	PA_without_intermediate	n/a	test	ward_and_allport	n/a	-1.0	24.0	n/a	n/a	feedback	s609
286.895	2.088	0	PA_without_intermediate	n/a	test	ward_and_allport	n/a	-1.0	24.0	n/a	n/a	ITI	s609
288.989	3.215	1	PA_with_intermediate	1,2,0,0,0,0,0,0,0	test	ward_and_allport	1,0,0,2,3,0,0,0,0	89.0	25.0	3.215	1,2,3,0,0,0,0,0,0	to_hand	s609
292.206	0.284	0	PA_with_intermediate	1,2,0,0,0,0,3,0,0	test	ward_and_allport	1,0,0,2,3,0,0,0,0	82.0	25.0	0.284	1,2,3,0,0,0,0,0,0	to_board	s609
292.498	0.254	0	PA_with_intermediate	1,0,0,0,0,0,3,0,0	test	ward_and_allport	1,0,0,2,3,0,0,0,0	89.0	25.0	0.254	1,2,3,0,0,0,0,0,0	to_hand	s609
292.753	0.242	0	PA_with_intermediate	1,0,0,2,0,0,3,0,0	test	ward_and_allport	1,0,0,2,3,0,0,0,0	71.0	25.0	0.242	1,2,3,0,0,0,0,0,0	to_board	s609
293.002	0.261	0	PA_with_intermediate	1,0,0,2,0,0,0,0,0	test	ward_and_allport	1,0,0,2,3,0,0,0,0	82.0	25.0	0.261	1,2,3,0,0,0,0,0,0	to_hand	s609
293.263	0.27	0	PA_with_intermediate	1,0,0,2,3,0,0,0,0	test	ward_and_allport	1,0,0,2,3,0,0,0,0	71.0	25.0	0.27	1,2,3,0,0,0,0,0,0	to_board	s609
293.543	1.0	0	PA_with_intermediate	n/a	test	ward_and_allport	n/a	-1.0	25.0	n/a	n/a	feedback	s609
294.543	1.0	0	PA_with_intermediate	n/a	test	ward_and_allport	n/a	-1.0	25.0	n/a	n/a	ITI	s609
295.549	2.574	1	PA_without_intermediate	1,2,0,0,0,0,0,0,0	test	ward_and_allport	0,0,0,3,1,0,2,0,0	89.0	26.0	2.574	1,2,3,0,0,0,0,0,0	to_hand	s609
298.123	0.218	0	PA_without_intermediate	1,2,0,3,0,0,0,0,0	test	ward_and_allport	0,0,0,3,1,0,2,0,0	71.0	26.0	0.218	1,2,3,0,0,0,0,0,0	to_board	s609
298.347	0.51	0	PA_without_intermediate	1,0,0,3,0,0,0,0,0	test	ward_and_allport	0,0,0,3,1,0,2,0,0	89.0	26.0	0.51	1,2,3,0,0,0,0,0,0	to_hand	s609
298.858	0.451	0	PA_without_intermediate	1,0,0,3,0,0,2,0,0	test	ward_and_allport	0,0,0,3,1,0,2,0,0	82.0	26.0	0.451	1,2,3,0,0,0,0,0,0	to_board	s609
299.315	0.247	0	PA_without_intermediate	0,0,0,3,0,0,2,0,0	test	ward_and_allport	0,0,0,3,1,0,2,0,0	89.0	26.0	0.247	1,2,3,0,0,0,0,0,0	to_hand	s609
299.564	0.222	0	PA_without_intermediate	0,0,0,3,1,0,2,0,0	test	ward_and_allport	0,0,0,3,1,0,2,0,0	71.0	26.0	0.222	1,2,3,0,0,0,0,0,0	to_board	s609
299.794	1.0	0	PA_without_intermediate	n/a	test	ward_and_allport	n/a	-1.0	26.0	n/a	n/a	feedback	s609
300.794	1.0	0	PA_without_intermediate	n/a	test	ward_and_allport	n/a	-1.0	26.0	n/a	n/a	ITI	s609
301.8	2.707	1	PA_without_intermediate	0,0,0,1,2,0,0,0,0	test	ward_and_allport	3,2,0,0,0,0,1,0,0	71.0	27.0	2.707	0,0,0,1,2,3,0,0,0	to_hand	s609
304.509	0.213	0	PA_without_intermediate	3,0,0,1,2,0,0,0,0	test	ward_and_allport	3,2,0,0,0,0,1,0,0	89.0	27.0	0.213	0,0,0,1,2,3,0,0,0	to_board	s609
304.728	0.252	0	PA_without_intermediate	3,0,0,1,0,0,0,0,0	test	ward_and_allport	3,2,0,0,0,0,1,0,0	71.0	27.0	0.252	0,0,0,1,2,3,0,0,0	to_hand	s609
304.981	0.226	0	PA_without_intermediate	3,2,0,1,0,0,0,0,0	test	ward_and_allport	3,2,0,0,0,0,1,0,0	89.0	27.0	0.226	0,0,0,1,2,3,0,0,0	to_board	s609
305.213	0.405	0	PA_without_intermediate	3,2,0,0,0,0,0,0,0	test	ward_and_allport	3,2,0,0,0,0,1,0,0	71.0	27.0	0.405	0,0,0,1,2,3,0,0,0	to_hand	s609
305.619	0.215	0	PA_without_intermediate	3,2,0,0,0,0,1,0,0	test	ward_and_allport	3,2,0,0,0,0,1,0,0	82.0	27.0	0.215	0,0,0,1,2,3,0,0,0	to_board	s609
305.843	1.0	0	PA_without_intermediate	n/a	test	ward_and_allport	n/a	-1.0	27.0	n/a	n/a	feedback	s609
306.843	1.0	0	PA_without_intermediate	n/a	test	ward_and_allport	n/a	-1.0	27.0	n/a	n/a	ITI	s609
307.849	7.209	1	PA_with_intermediate	0,0,0,0,0,0,1,2,0	test	ward_and_allport	0,0,0,2,3,0,1,0,0	82.0	28.0	7.209	0,0,0,0,0,0,1,2,3	to_hand	s609
315.059	0.43	0	PA_with_intermediate	3,0,0,0,0,0,1,2,0	test	ward_and_allport	0,0,0,2,3,0,1,0,0	89.0	28.0	0.43	0,0,0,0,0,0,1,2,3	to_board	s609
315.498	0.617	0	PA_with_intermediate	3,0,0,0,0,0,1,0,0	test	ward_and_allport	0,0,0,2,3,0,1,0,0	82.0	28.0	0.617	0,0,0,0,0,0,1,2,3	to_hand	s609
316.116	0.945	0	PA_with_intermediate	3,0,0,2,0,0,1,0,0	test	ward_and_allport	0,0,0,2,3,0,1,0,0	71.0	28.0	0.945	0,0,0,0,0,0,1,2,3	to_board	s609
317.067	0.312	0	PA_with_intermediate	0,0,0,2,0,0,1,0,0	test	ward_and_allport	0,0,0,2,3,0,1,0,0	89.0	28.0	0.312	0,0,0,0,0,0,1,2,3	to_hand	s609
317.38	0.234	0	PA_with_intermediate	0,0,0,2,3,0,1,0,0	test	ward_and_allport	0,0,0,2,3,0,1,0,0	71.0	28.0	0.234	0,0,0,0,0,0,1,2,3	to_board	s609
317.623	1.0	0	PA_with_intermediate	n/a	test	ward_and_allport	n/a	-1.0	28.0	n/a	n/a	feedback	s609
318.623	1.544	0	PA_with_intermediate	n/a	test	ward_and_allport	n/a	-1.0	28.0	n/a	n/a	ITI	s609
320.172	2.573	1	PA_without_intermediate	1,2,0,0,0,0,0,0,0	test	ward_and_allport	0,0,0,3,1,0,2,0,0	89.0	29.0	2.573	1,2,3,0,0,0,0,0,0	to_hand	s609
322.746	0.218	0	PA_without_intermediate	1,2,0,3,0,0,0,0,0	test	ward_and_allport	0,0,0,3,1,0,2,0,0	71.0	29.0	0.218	1,2,3,0,0,0,0,0,0	to_board	s609
322.971	0.421	0	PA_without_intermediate	1,0,0,3,0,0,0,0,0	test	ward_and_allport	0,0,0,3,1,0,2,0,0	89.0	29.0	0.421	1,2,3,0,0,0,0,0,0	to_hand	s609
323.393	0.227	0	PA_without_intermediate	1,0,0,3,0,0,2,0,0	test	ward_and_allport	0,0,0,3,1,0,2,0,0	82.0	29.0	0.227	1,2,3,0,0,0,0,0,0	to_board	s609
323.63	0.285	0	PA_without_intermediate	0,0,0,3,0,0,2,0,0	test	ward_and_allport	0,0,0,3,1,0,2,0,0	89.0	29.0	0.285	1,2,3,0,0,0,0,0,0	to_hand	s609
323.916	0.196	0	PA_without_intermediate	0,0,0,3,1,0,2,0,0	test	ward_and_allport	0,0,0,3,1,0,2,0,0	71.0	29.0	0.196	1,2,3,0,0,0,0,0,0	to_board	s609
324.122	1.0	0	PA_without_intermediate	n/a	test	ward_and_allport	n/a	-1.0	29.0	n/a	n/a	feedback	s609
325.122	1.272	0	PA_without_intermediate	n/a	test	ward_and_allport	n/a	-1.0	29.0	n/a	n/a	ITI	s609
331.406	2.655	1	PA_with_intermediate	0,0,0,1,2,0,0,0,0	test	ward_and_allport	2,3,0,1,0,0,0,0,0	71.0	30.0	2.655	0,0,0,1,2,3,0,0,0	to_hand	s609
334.063	0.355	0	PA_with_intermediate	0,0,0,1,2,0,3,0,0	test	ward_and_allport	2,3,0,1,0,0,0,0,0	82.0	30.0	0.355	0,0,0,1,2,3,0,0,0	to_board	s609
334.425	0.637	0	PA_with_intermediate	0,0,0,1,0,0,3,0,0	test	ward_and_allport	2,3,0,1,0,0,0,0,0	71.0	30.0	0.637	0,0,0,1,2,3,0,0,0	to_hand	s609
335.063	0.344	0	PA_with_intermediate	2,0,0,1,0,0,3,0,0	test	ward_and_allport	2,3,0,1,0,0,0,0,0	89.0	30.0	0.344	0,0,0,1,2,3,0,0,0	to_board	s609
335.414	0.347	0	PA_with_intermediate	2,0,0,1,0,0,0,0,0	test	ward_and_allport	2,3,0,1,0,0,0,0,0	82.0	30.0	0.347	0,0,0,1,2,3,0,0,0	to_hand	s609
335.762	0.329	0	PA_with_intermediate	2,3,0,1,0,0,0,0,0	test	ward_and_allport	2,3,0,1,0,0,0,0,0	89.0	30.0	0.329	0,0,0,1,2,3,0,0,0	to_board	s609
336.1	1.0	0	PA_with_intermediate	n/a	test	ward_and_allport	n/a	-1.0	30.0	n/a	n/a	feedback	s609
337.1	3.04	0	PA_with_intermediate	n/a	test	ward_and_allport	n/a	-1.0	30.0	n/a	n/a	ITI	s609
340.147	2.3	1	PA_with_intermediate	0,0,0,1,2,0,0,0,0	test	ward_and_allport	0,0,0,1,3,0,2,0,0	71.0	31.0	2.3	0,0,0,1,2,3,0,0,0	to_hand	s609
342.448	0.299	0	PA_with_intermediate	3,0,0,1,2,0,0,0,0	test	ward_and_allport	0,0,0,1,3,0,2,0,0	89.0	31.0	0.299	0,0,0,1,2,3,0,0,0	to_board	s609
342.754	0.296	0	PA_with_intermediate	3,0,0,1,0,0,0,0,0	test	ward_and_allport	0,0,0,1,3,0,2,0,0	71.0	31.0	0.296	0,0,0,1,2,3,0,0,0	to_hand	s609
343.051	0.421	0	PA_with_intermediate	3,0,0,1,0,0,2,0,0	test	ward_and_allport	0,0,0,1,3,0,2,0,0	82.0	31.0	0.421	0,0,0,1,2,3,0,0,0	to_board	s609
343.48	0.36	0	PA_with_intermediate	0,0,0,1,0,0,2,0,0	test	ward_and_allport	0,0,0,1,3,0,2,0,0	89.0	31.0	0.36	0,0,0,1,2,3,0,0,0	to_hand	s609
343.841	0.266	0	PA_with_intermediate	0,0,0,1,3,0,2,0,0	test	ward_and_allport	0,0,0,1,3,0,2,0,0	71.0	31.0	0.266	0,0,0,1,2,3,0,0,0	to_board	s609
344.119	1.0	0	PA_with_intermediate	n/a	test	ward_and_allport	n/a	-1.0	31.0	n/a	n/a	feedback	s609
345.119	1.272	0	PA_with_intermediate	n/a	test	ward_and_allport	n/a	-1.0	31.0	n/a	n/a	ITI	s609
346.396	1.959	1	PA_with_intermediate	1,2,0,0,0,0,0,0,0	test	ward_and_allport	1,3,0,2,0,0,0,0,0	89.0	32.0	1.959	1,2,3,0,0,0,0,0,0	to_hand	s609
348.356	0.272	0	PA_with_intermediate	1,2,0,0,0,0,3,0,0	test	ward_and_allport	1,3,0,2,0,0,0,0,0	82.0	32.0	0.272	1,2,3,0,0,0,0,0,0	to_board	s609
348.633	0.302	0	PA_with_intermediate	1,0,0,0,0,0,3,0,0	test	ward_and_allport	1,3,0,2,0,0,0,0,0	89.0	32.0	0.302	1,2,3,0,0,0,0,0,0	to_hand	s609
348.936	0.261	0	PA_with_intermediate	1,0,0,2,0,0,3,0,0	test	ward_and_allport	1,3,0,2,0,0,0,0,0	71.0	32.0	0.261	1,2,3,0,0,0,0,0,0	to_board	s609
349.202	0.464	0	PA_with_intermediate	1,0,0,2,0,0,0,0,0	test	ward_and_allport	1,3,0,2,0,0,0,0,0	82.0	32.0	0.464	1,2,3,0,0,0,0,0,0	to_hand	s609
349.667	0.287	0	PA_with_intermediate	1,3,0,2,0,0,0,0,0	test	ward_and_allport	1,3,0,2,0,0,0,0,0	89.0	32.0	0.287	1,2,3,0,0,0,0,0,0	to_board	s609
349.961	1.0	0	PA_with_intermediate	n/a	test	ward_and_allport	n/a	-1.0	32.0	n/a	n/a	feedback	s609
350.961	1.136	0	PA_with_intermediate	n/a	test	ward_and_allport	n/a	-1.0	32.0	n/a	n/a	ITI	s609
352.103	3.014	1	PA_with_intermediate	1,2,0,0,0,0,0,0,0	test	ward_and_allport	1,0,0,0,0,0,2,3,0	89.0	33.0	3.014	1,2,3,0,0,0,0,0,0	to_hand	s609
355.118	0.464	0	PA_with_intermediate	1,2,0,3,0,0,0,0,0	test	ward_and_allport	1,0,0,0,0,0,2,3,0	71.0	33.0	0.464	1,2,3,0,0,0,0,0,0	to_board	s609
355.587	0.416	0	PA_with_intermediate	1,0,0,3,0,0,0,0,0	test	ward_and_allport	1,0,0,0,0,0,2,3,0	89.0	33.0	0.416	1,2,3,0,0,0,0,0,0	to_hand	s609
356.005	0.297	0	PA_with_intermediate	1,0,0,3,0,0,2,0,0	test	ward_and_allport	1,0,0,0,0,0,2,3,0	82.0	33.0	0.297	1,2,3,0,0,0,0,0,0	to_board	s609
356.308	0.52	0	PA_with_intermediate	1,0,0,0,0,0,2,0,0	test	ward_and_allport	1,0,0,0,0,0,2,3,0	71.0	33.0	0.52	1,2,3,0,0,0,0,0,0	to_hand	s609
356.829	0.325	0	PA_with_intermediate	1,0,0,0,0,0,2,3,0	test	ward_and_allport	1,0,0,0,0,0,2,3,0	82.0	33.0	0.325	1,2,3,0,0,0,0,0,0	to_board	s609
357.164	1.0	0	PA_with_intermediate	n/a	test	ward_and_allport	n/a	-1.0	33.0	n/a	n/a	feedback	s609
358.164	1.0	0	PA_with_intermediate	n/a	test	ward_and_allport	n/a	-1.0	33.0	n/a	n/a	ITI	s609
359.172	2.676	1	PA_with_intermediate	0,0,0,1,2,0,0,0,0	test	ward_and_allport	2,3,0,1,0,0,0,0,0	71.0	34.0	2.676	0,0,0,1,2,3,0,0,0	to_hand	s609
361.849	0.327	0	PA_with_intermediate	0,0,0,1,2,0,3,0,0	test	ward_and_allport	2,3,0,1,0,0,0,0,0	82.0	34.0	0.327	0,0,0,1,2,3,0,0,0	to_board	s609
362.181	0.36	0	PA_with_intermediate	0,0,0,1,0,0,3,0,0	test	ward_and_allport	2,3,0,1,0,0,0,0,0	71.0	34.0	0.36	0,0,0,1,2,3,0,0,0	to_hand	s609
362.542	0.347	0	PA_with_intermediate	2,0,0,1,0,0,3,0,0	test	ward_and_allport	2,3,0,1,0,0,0,0,0	89.0	34.0	0.347	0,0,0,1,2,3,0,0,0	to_board	s609
362.895	0.278	0	PA_with_intermediate	2,0,0,1,0,0,0,0,0	test	ward_and_allport	2,3,0,1,0,0,0,0,0	82.0	34.0	0.278	0,0,0,1,2,3,0,0,0	to_hand	s609
363.174	0.312	0	PA_with_intermediate	2,3,0,1,0,0,0,0,0	test	ward_and_allport	2,3,0,1,0,0,0,0,0	89.0	34.0	0.312	0,0,0,1,2,3,0,0,0	to_board	s609
363.495	1.0	0	PA_with_intermediate	n/a	test	ward_and_allport	n/a	-1.0	34.0	n/a	n/a	feedback	s609
364.495	1.0	0	PA_with_intermediate	n/a	test	ward_and_allport	n/a	-1.0	34.0	n/a	n/a	ITI	s609
365.501	2.614	1	PA_without_intermediate	0,0,0,0,0,0,1,2,0	test	ward_and_allport	3,1,0,2,0,0,0,0,0	82.0	35.0	2.614	0,0,0,0,0,0,1,2,3	to_hand	s609
368.115	2.245	0	PA_without_intermediate	3,0,0,0,0,0,1,2,0	test	ward_and_allport	3,1,0,2,0,0,0,0,0	89.0	35.0	2.245	0,0,0,0,0,0,1,2,3	to_board	s609
370.374	0.447	0	PA_without_intermediate	3,0,0,0,0,0,1,0,0	test	ward_and_allport	3,1,0,2,0,0,0,0,0	82.0	35.0	0.447	0,0,0,0,0,0,1,2,3	to_hand	s609
370.823	0.576	0	PA_without_intermediate	3,0,0,2,0,0,1,0,0	test	ward_and_allport	3,1,0,2,0,0,0,0,0	71.0	35.0	0.576	0,0,0,0,0,0,1,2,3	to_board	s609
371.407	0.672	0	PA_without_intermediate	3,0,0,2,0,0,0,0,0	test	ward_and_allport	3,1,0,2,0,0,0,0,0	82.0	35.0	0.672	0,0,0,0,0,0,1,2,3	to_hand	s609
372.08	0.354	0	PA_without_intermediate	3,1,0,2,0,0,0,0,0	test	ward_and_allport	3,1,0,2,0,0,0,0,0	89.0	35.0	0.354	0,0,0,0,0,0,1,2,3	to_board	s609
372.445	1.0	0	PA_without_intermediate	n/a	test	ward_and_allport	n/a	-1.0	35.0	n/a	n/a	feedback	s609
373.445	1.408	0	PA_without_intermediate	n/a	test	ward_and_allport	n/a	-1.0	35.0	n/a	n/a	ITI	s609
374.861	2.495	1	PA_with_intermediate	0,0,0,1,2,0,0,0,0	test	ward_and_allport	0,0,0,1,0,0,2,3,0	71.0	36.0	2.495	0,0,0,1,2,3,0,0,0	to_hand	s609
377.358	0.277	0	PA_with_intermediate	3,0,0,1,2,0,0,0,0	test	ward_and_allport	0,0,0,1,0,0,2,3,0	89.0	36.0	0.277	0,0,0,1,2,3,0,0,0	to_board	s609
377.64	0.238	0	PA_with_intermediate	3,0,0,1,0,0,0,0,0	test	ward_and_allport	0,0,0,1,0,0,2,3,0	71.0	36.0	0.238	0,0,0,1,2,3,0,0,0	to_hand	s609
377.879	0.196	0	PA_with_intermediate	3,0,0,1,0,0,2,0,0	test	ward_and_allport	0,0,0,1,0,0,2,3,0	82.0	36.0	0.196	0,0,0,1,2,3,0,0,0	to_board	s609
378.081	0.267	0	PA_with_intermediate	0,0,0,1,0,0,2,0,0	test	ward_and_allport	0,0,0,1,0,0,2,3,0	89.0	36.0	0.267	0,0,0,1,2,3,0,0,0	to_hand	s609
378.349	0.233	0	PA_with_intermediate	0,0,0,1,0,0,2,3,0	test	ward_and_allport	0,0,0,1,0,0,2,3,0	82.0	36.0	0.233	0,0,0,1,2,3,0,0,0	to_board	s609
378.591	1.0	0	PA_with_intermediate	n/a	test	ward_and_allport	n/a	-1.0	36.0	n/a	n/a	feedback	s609
379.591	2.768	0	PA_with_intermediate	n/a	test	ward_and_allport	n/a	-1.0	36.0	n/a	n/a	ITI	s609
382.365	4.84	1	PA_with_intermediate	0,0,0,1,2,0,0,0,0	test	ward_and_allport	0,0,0,1,0,0,2,3,0	71.0	37.0	4.84	0,0,0,1,2,3,0,0,0	to_hand	s609
387.206	0.358	0	PA_with_intermediate	3,0,0,1,2,0,0,0,0	test	ward_and_allport	0,0,0,1,0,0,2,3,0	89.0	37.0	0.358	0,0,0,1,2,3,0,0,0	to_board	s609
387.573	0.489	0	PA_with_intermediate	3,0,0,1,0,0,0,0,0	test	ward_and_allport	0,0,0,1,0,0,2,3,0	71.0	37.0	0.489	0,0,0,1,2,3,0,0,0	to_hand	s609
388.062	0.26	0	PA_with_intermediate	3,0,0,1,0,0,2,0,0	test	ward_and_allport	0,0,0,1,0,0,2,3,0	82.0	37.0	0.26	0,0,0,1,2,3,0,0,0	to_board	s609
388.331	0.3	0	PA_with_intermediate	0,0,0,1,0,0,2,0,0	test	ward_and_allport	0,0,0,1,0,0,2,3,0	89.0	37.0	0.3	0,0,0,1,2,3,0,0,0	to_hand	s609
388.632	0.294	0	PA_with_intermediate	0,0,0,1,0,0,2,3,0	test	ward_and_allport	0,0,0,1,0,0,2,3,0	82.0	37.0	0.294	0,0,0,1,2,3,0,0,0	to_board	s609
388.937	1.0	0	PA_with_intermediate	n/a	test	ward_and_allport	n/a	-1.0	37.0	n/a	n/a	feedback	s609
389.937	1.68	0	PA_with_intermediate	n/a	test	ward_and_allport	n/a	-1.0	37.0	n/a	n/a	ITI	s609
391.624	4.273	1	PA_without_intermediate	0,0,0,0,0,0,1,2,0	test	ward_and_allport	3,2,0,1,0,0,0,0,0	82.0	38.0	4.273	0,0,0,0,0,0,1,2,3	to_hand	s609
395.898	0.353	0	PA_without_intermediate	0,0,0,3,0,0,1,2,0	test	ward_and_allport	3,2,0,1,0,0,0,0,0	71.0	38.0	0.353	0,0,0,0,0,0,1,2,3	to_board	s609
396.26	0.305	0	PA_without_intermediate	0,0,0,3,0,0,1,0,0	test	ward_and_allport	3,2,0,1,0,0,0,0,0	82.0	38.0	0.305	0,0,0,0,0,0,1,2,3	to_hand	s609
396.566	0.263	0	PA_without_intermediate	2,0,0,3,0,0,1,0,0	test	ward_and_allport	3,2,0,1,0,0,0,0,0	89.0	38.0	0.263	0,0,0,0,0,0,1,2,3	to_board	s609
396.838	0.356	0	PA_without_intermediate	2,0,0,0,0,0,1,0,0	test	ward_and_allport	3,2,0,1,0,0,0,0,0	71.0	38.0	0.356	0,0,0,0,0,0,1,2,3	to_hand	s609
397.195	0.297	0	PA_without_intermediate	2,3,0,0,0,0,1,0,0	test	ward_and_allport	3,2,0,1,0,0,0,0,0	89.0	38.0	0.297	0,0,0,0,0,0,1,2,3	to_board	s609
397.499	0.295	0	PA_without_intermediate	2,3,0,0,0,0,0,0,0	test	ward_and_allport	3,2,0,1,0,0,0,0,0	82.0	38.0	0.295	0,0,0,0,0,0,1,2,3	to_hand	s609
397.795	0.324	0	PA_without_intermediate	2,3,0,1,0,0,0,0,0	test	ward_and_allport	3,2,0,1,0,0,0,0,0	71.0	38.0	0.324	0,0,0,0,0,0,1,2,3	to_board	s609
398.125	2.174	0	PA_without_intermediate	2,0,0,1,0,0,0,0,0	test	ward_and_allport	3,2,0,1,0,0,0,0,0	89.0	38.0	2.174	0,0,0,0,0,0,1,2,3	to_hand	s609
400.3	0.32	0	PA_without_intermediate	2,0,0,1,0,0,3,0,0	test	ward_and_allport	3,2,0,1,0,0,0,0,0	82.0	38.0	0.32	0,0,0,0,0,0,1,2,3	to_board	s609
400.626	1.161	0	PA_without_intermediate	0,0,0,1,0,0,3,0,0	test	ward_and_allport	3,2,0,1,0,0,0,0,0	89.0	38.0	1.161	0,0,0,0,0,0,1,2,3	to_hand	s609
401.788	0.2	0	PA_without_intermediate	0,0,0,1,2,0,3,0,0	test	ward_and_allport	3,2,0,1,0,0,0,0,0	71.0	38.0	0.2	0,0,0,0,0,0,1,2,3	to_board	s609
401.993	0.293	0	PA_without_intermediate	0,0,0,1,2,0,0,0,0	test	ward_and_allport	3,2,0,1,0,0,0,0,0	82.0	38.0	0.293	0,0,0,0,0,0,1,2,3	to_hand	s609
402.287	0.281	0	PA_without_intermediate	3,0,0,1,2,0,0,0,0	test	ward_and_allport	3,2,0,1,0,0,0,0,0	89.0	38.0	0.281	0,0,0,0,0,0,1,2,3	to_board	s609
402.573	0.395	0	PA_without_intermediate	3,0,0,1,0,0,0,0,0	test	ward_and_allport	3,2,0,1,0,0,0,0,0	71.0	38.0	0.395	0,0,0,0,0,0,1,2,3	to_hand	s609
402.969	0.2	0	PA_without_intermediate	3,2,0,1,0,0,0,0,0	test	ward_and_allport	3,2,0,1,0,0,0,0,0	89.0	38.0	0.2	0,0,0,0,0,0,1,2,3	to_board	s609
403.177	1.0	0	PA_without_intermediate	n/a	test	ward_and_allport	n/a	-1.0	38.0	n/a	n/a	feedback	s609
404.177	2.224	0	PA_without_intermediate	n/a	test	ward_and_allport	n/a	-1.0	38.0	n/a	n/a	ITI	s609
406.408	2.526	1	PA_without_intermediate	0,0,0,1,2,0,0,0,0	test	ward_and_allport	2,0,0,0,0,0,3,1,0	71.0	39.0	2.526	0,0,0,1,2,3,0,0,0	to_hand	s609
408.934	0.317	0	PA_without_intermediate	0,0,0,1,2,0,3,0,0	test	ward_and_allport	2,0,0,0,0,0,3,1,0	82.0	39.0	0.317	0,0,0,1,2,3,0,0,0	to_board	s609
409.257	1.003	0	PA_without_intermediate	0,0,0,1,0,0,3,0,0	test	ward_and_allport	2,0,0,0,0,0,3,1,0	71.0	39.0	1.003	0,0,0,1,2,3,0,0,0	to_hand	s609
410.261	0.212	0	PA_without_intermediate	2,0,0,1,0,0,3,0,0	test	ward_and_allport	2,0,0,0,0,0,3,1,0	89.0	39.0	0.212	0,0,0,1,2,3,0,0,0	to_board	s609
410.482	0.3	0	PA_without_intermediate	2,0,0,0,0,0,3,0,0	test	ward_and_allport	2,0,0,0,0,0,3,1,0	71.0	39.0	0.3	0,0,0,1,2,3,0,0,0	to_hand	s609
410.783	0.212	0	PA_without_intermediate	2,0,0,0,0,0,3,1,0	test	ward_and_allport	2,0,0,0,0,0,3,1,0	82.0	39.0	0.212	0,0,0,1,2,3,0,0,0	to_board	s609
411.009	1.0	0	PA_without_intermediate	n/a	test	ward_and_allport	n/a	-1.0	39.0	n/a	n/a	feedback	s609
412.009	2.36	0	PA_without_intermediate	n/a	test	ward_and_allport	n/a	-1.0	39.0	n/a	n/a	ITI	s609
414.377	2.676	1	PA_without_intermediate	0,0,0,1,2,0,0,0,0	test	ward_and_allport	3,1,0,0,0,0,2,0,0	71.0	40.0	2.676	0,0,0,1,2,3,0,0,0	to_hand	s609
417.055	0.428	0	PA_without_intermediate	3,0,0,1,2,0,0,0,0	test	ward_and_allport	3,1,0,0,0,0,2,0,0	89.0	40.0	0.428	0,0,0,1,2,3,0,0,0	to_board	s609
417.489	0.4	0	PA_without_intermediate	3,0,0,1,0,0,0,0,0	test	ward_and_allport	3,1,0,0,0,0,2,0,0	71.0	40.0	0.4	0,0,0,1,2,3,0,0,0	to_hand	s609
417.89	0.393	0	PA_without_intermediate	3,0,0,1,0,0,2,0,0	test	ward_and_allport	3,1,0,0,0,0,2,0,0	82.0	40.0	0.393	0,0,0,1,2,3,0,0,0	to_board	s609
418.29	0.311	0	PA_without_intermediate	3,0,0,0,0,0,2,0,0	test	ward_and_allport	3,1,0,0,0,0,2,0,0	71.0	40.0	0.311	0,0,0,1,2,3,0,0,0	to_hand	s609
418.602	0.27	0	PA_without_intermediate	3,1,0,0,0,0,2,0,0	test	ward_and_allport	3,1,0,0,0,0,2,0,0	89.0	40.0	0.27	0,0,0,1,2,3,0,0,0	to_board	s609
418.881	1.0	0	PA_without_intermediate	n/a	test	ward_and_allport	n/a	-1.0	40.0	n/a	n/a	feedback	s609
419.881	1.0	0	PA_without_intermediate	n/a	test	ward_and_allport	n/a	-1.0	40.0	n/a	n/a	ITI	s609
420.89	2.911	1	PA_without_intermediate	0,0,0,0,0,0,1,2,0	test	ward_and_allport	3,2,0,1,0,0,0,0,0	82.0	41.0	2.911	0,0,0,0,0,0,1,2,3	to_hand	s609
423.802	0.358	0	PA_without_intermediate	3,0,0,0,0,0,1,2,0	test	ward_and_allport	3,2,0,1,0,0,0,0,0	89.0	41.0	0.358	0,0,0,0,0,0,1,2,3	to_board	s609
424.166	2.595	0	PA_without_intermediate	3,0,0,0,0,0,1,0,0	test	ward_and_allport	3,2,0,1,0,0,0,0,0	82.0	41.0	2.595	0,0,0,0,0,0,1,2,3	to_hand	s609
426.762	0.338	0	PA_without_intermediate	3,2,0,0,0,0,1,0,0	test	ward_and_allport	3,2,0,1,0,0,0,0,0	89.0	41.0	0.338	0,0,0,0,0,0,1,2,3	to_board	s609
427.108	0.855	0	PA_without_intermediate	3,2,0,0,0,0,0,0,0	test	ward_and_allport	3,2,0,1,0,0,0,0,0	82.0	41.0	0.855	0,0,0,0,0,0,1,2,3	to_hand	s609
427.964	0.269	0	PA_without_intermediate	3,2,0,1,0,0,0,0,0	test	ward_and_allport	3,2,0,1,0,0,0,0,0	71.0	41.0	0.269	0,0,0,0,0,0,1,2,3	to_board	s609
428.243	1.0	0	PA_without_intermediate	n/a	test	ward_and_allport	n/a	-1.0	41.0	n/a	n/a	feedback	s609
429.243	1.408	0	PA_without_intermediate	n/a	test	ward_and_allport	n/a	-1.0	41.0	n/a	n/a	ITI	s609
430.66	2.785	1	PA_with_intermediate	0,0,0,0,0,0,1,2,0	test	ward_and_allport	2,3,0,0,0,0,1,0,0	82.0	42.0	2.785	0,0,0,0,0,0,1,2,3	to_hand	s609
433.446	0.322	0	PA_with_intermediate	0,0,0,3,0,0,1,2,0	test	ward_and_allport	2,3,0,0,0,0,1,0,0	71.0	42.0	0.322	0,0,0,0,0,0,1,2,3	to_board	s609
433.776	0.27	0	PA_with_intermediate	0,0,0,3,0,0,1,0,0	test	ward_and_allport	2,3,0,0,0,0,1,0,0	82.0	42.0	0.27	0,0,0,0,0,0,1,2,3	to_hand	s609
434.047	0.259	0	PA_with_intermediate	2,0,0,3,0,0,1,0,0	test	ward_and_allport	2,3,0,0,0,0,1,0,0	89.0	42.0	0.259	0,0,0,0,0,0,1,2,3	to_board	s609
434.314	0.248	0	PA_with_intermediate	2,0,0,0,0,0,1,0,0	test	ward_and_allport	2,3,0,0,0,0,1,0,0	71.0	42.0	0.248	0,0,0,0,0,0,1,2,3	to_hand	s609
434.562	0.301	0	PA_with_intermediate	2,3,0,0,0,0,1,0,0	test	ward_and_allport	2,3,0,0,0,0,1,0,0	89.0	42.0	0.301	0,0,0,0,0,0,1,2,3	to_board	s609
434.873	1.0	0	PA_with_intermediate	n/a	test	ward_and_allport	n/a	-1.0	42.0	n/a	n/a	feedback	s609
435.873	1.136	0	PA_with_intermediate	n/a	test	ward_and_allport	n/a	-1.0	42.0	n/a	n/a	ITI	s609
437.016	3.261	1	PA_without_intermediate	1,2,0,0,0,0,0,0,0	test	ward_and_allport	0,0,0,3,2,0,1,0,0	89.0	43.0	3.261	1,2,3,0,0,0,0,0,0	to_hand	s609
440.278	0.297	0	PA_without_intermediate	1,2,0,3,0,0,0,0,0	test	ward_and_allport	0,0,0,3,2,0,1,0,0	71.0	43.0	0.297	1,2,3,0,0,0,0,0,0	to_board	s609
440.582	0.712	0	PA_without_intermediate	1,0,0,3,0,0,0,0,0	test	ward_and_allport	0,0,0,3,2,0,1,0,0	89.0	43.0	0.712	1,2,3,0,0,0,0,0,0	to_hand	s609
441.295	0.239	0	PA_without_intermediate	1,0,0,3,2,0,0,0,0	test	ward_and_allport	0,0,0,3,2,0,1,0,0	71.0	43.0	0.239	1,2,3,0,0,0,0,0,0	to_board	s609
441.544	0.261	0	PA_without_intermediate	0,0,0,3,2,0,0,0,0	test	ward_and_allport	0,0,0,3,2,0,1,0,0	89.0	43.0	0.261	1,2,3,0,0,0,0,0,0	to_hand	s609
441.805	0.23	0	PA_without_intermediate	0,0,0,3,2,0,1,0,0	test	ward_and_allport	0,0,0,3,2,0,1,0,0	82.0	43.0	0.23	1,2,3,0,0,0,0,0,0	to_board	s609
442.052	1.0	0	PA_without_intermediate	n/a	test	ward_and_allport	n/a	-1.0	43.0	n/a	n/a	feedback	s609
443.052	4.128	0	PA_without_intermediate	n/a	test	ward_and_allport	n/a	-1.0	43.0	n/a	n/a	ITI	s609
447.189	3.214	1	PA_without_intermediate	0,0,0,1,2,0,0,0,0	test	ward_and_allport	2,0,0,0,0,0,3,1,0	71.0	44.0	3.214	0,0,0,1,2,3,0,0,0	to_hand	s609
450.404	0.314	0	PA_without_intermediate	0,0,0,1,2,0,3,0,0	test	ward_and_allport	2,0,0,0,0,0,3,1,0	82.0	44.0	0.314	0,0,0,1,2,3,0,0,0	to_board	s609
450.727	0.254	0	PA_without_intermediate	0,0,0,1,0,0,3,0,0	test	ward_and_allport	2,0,0,0,0,0,3,1,0	71.0	44.0	0.254	0,0,0,1,2,3,0,0,0	to_hand	s609
450.982	0.208	0	PA_without_intermediate	2,0,0,1,0,0,3,0,0	test	ward_and_allport	2,0,0,0,0,0,3,1,0	89.0	44.0	0.208	0,0,0,1,2,3,0,0,0	to_board	s609
451.202	0.283	0	PA_without_intermediate	2,0,0,0,0,0,3,0,0	test	ward_and_allport	2,0,0,0,0,0,3,1,0	71.0	44.0	0.283	0,0,0,1,2,3,0,0,0	to_hand	s609
451.485	0.24	0	PA_without_intermediate	2,0,0,0,0,0,3,1,0	test	ward_and_allport	2,0,0,0,0,0,3,1,0	82.0	44.0	0.24	0,0,0,1,2,3,0,0,0	to_board	s609
451.737	1.0	0	PA_without_intermediate	n/a	test	ward_and_allport	n/a	-1.0	44.0	n/a	n/a	feedback	s609
452.737	1.136	0	PA_without_intermediate	n/a	test	ward_and_allport	n/a	-1.0	44.0	n/a	n/a	ITI	s609
458.887	2.896	1	PA_without_intermediate	0,0,0,0,0,0,1,2,0	test	ward_and_allport	2,0,0,3,1,0,0,0,0	82.0	45.0	2.896	0,0,0,0,0,0,1,2,3	to_hand	s609
461.785	0.282	0	PA_without_intermediate	0,0,0,3,0,0,1,2,0	test	ward_and_allport	2,0,0,3,1,0,0,0,0	71.0	45.0	0.282	0,0,0,0,0,0,1,2,3	to_board	s609
462.08	0.48	0	PA_without_intermediate	0,0,0,3,0,0,1,0,0	test	ward_and_allport	2,0,0,3,1,0,0,0,0	82.0	45.0	0.48	0,0,0,0,0,0,1,2,3	to_hand	s609
462.561	0.339	0	PA_without_intermediate	2,0,0,3,0,0,1,0,0	test	ward_and_allport	2,0,0,3,1,0,0,0,0	89.0	45.0	0.339	0,0,0,0,0,0,1,2,3	to_board	s609
462.911	0.599	0	PA_without_intermediate	2,0,0,3,0,0,0,0,0	test	ward_and_allport	2,0,0,3,1,0,0,0,0	82.0	45.0	0.599	0,0,0,0,0,0,1,2,3	to_hand	s609
463.511	0.225	0	PA_without_intermediate	2,0,0,3,1,0,0,0,0	test	ward_and_allport	2,0,0,3,1,0,0,0,0	71.0	45.0	0.225	0,0,0,0,0,0,1,2,3	to_board	s609
463.751	1.0	0	PA_without_intermediate	n/a	test	ward_and_allport	n/a	-1.0	45.0	n/a	n/a	feedback	s609
464.751	4.264	0	PA_without_intermediate	n/a	test	ward_and_allport	n/a	-1.0	45.0	n/a	n/a	ITI	s609
469.025	4.05	1	PA_with_intermediate	0,0,0,1,2,0,0,0,0	test	ward_and_allport	0,0,0,1,3,0,2,0,0	71.0	46.0	4.05	0,0,0,1,2,3,0,0,0	to_hand	s609
473.076	0.249	0	PA_with_intermediate	3,0,0,1,2,0,0,0,0	test	ward_and_allport	0,0,0,1,3,0,2,0,0	89.0	46.0	0.249	0,0,0,1,2,3,0,0,0	to_board	s609
473.335	0.238	0	PA_with_intermediate	3,0,0,1,0,0,0,0,0	test	ward_and_allport	0,0,0,1,3,0,2,0,0	71.0	46.0	0.238	0,0,0,1,2,3,0,0,0	to_hand	s609
473.574	0.348	0	PA_with_intermediate	3,0,0,1,0,0,2,0,0	test	ward_and_allport	0,0,0,1,3,0,2,0,0	82.0	46.0	0.348	0,0,0,1,2,3,0,0,0	to_board	s609
473.933	0.618	0	PA_with_intermediate	0,0,0,1,0,0,2,0,0	test	ward_and_allport	0,0,0,1,3,0,2,0,0	89.0	46.0	0.618	0,0,0,1,2,3,0,0,0	to_hand	s609
474.553	0.2	0	PA_with_intermediate	0,0,0,1,3,0,2,0,0	test	ward_and_allport	0,0,0,1,3,0,2,0,0	71.0	46.0	0.2	0,0,0,1,2,3,0,0,0	to_board	s609
474.763	1.0	0	PA_with_intermediate	n/a	test	ward_and_allport	n/a	-1.0	46.0	n/a	n/a	feedback	s609
475.763	3.04	0	PA_with_intermediate	n/a	test	ward_and_allport	n/a	-1.0	46.0	n/a	n/a	ITI	s609
478.81	1.842	1	PA_with_intermediate	1,2,0,0,0,0,0,0,0	test	ward_and_allport	1,3,0,0,0,0,2,0,0	89.0	47.0	1.842	1,2,3,0,0,0,0,0,0	to_hand	s609
480.653	0.289	0	PA_with_intermediate	1,2,0,3,0,0,0,0,0	test	ward_and_allport	1,3,0,0,0,0,2,0,0	71.0	47.0	0.289	1,2,3,0,0,0,0,0,0	to_board	s609
480.952	0.197	0	PA_with_intermediate	1,0,0,3,0,0,0,0,0	test	ward_and_allport	1,3,0,0,0,0,2,0,0	89.0	47.0	0.197	1,2,3,0,0,0,0,0,0	to_hand	s609
481.152	0.257	0	PA_with_intermediate	1,0,0,3,0,0,2,0,0	test	ward_and_allport	1,3,0,0,0,0,2,0,0	82.0	47.0	0.257	1,2,3,0,0,0,0,0,0	to_board	s609
481.424	0.336	0	PA_with_intermediate	1,0,0,0,0,0,2,0,0	test	ward_and_allport	1,3,0,0,0,0,2,0,0	71.0	47.0	0.336	1,2,3,0,0,0,0,0,0	to_hand	s609
481.761	0.262	0	PA_with_intermediate	1,3,0,0,0,0,2,0,0	test	ward_and_allport	1,3,0,0,0,0,2,0,0	89.0	47.0	0.262	1,2,3,0,0,0,0,0,0	to_board	s609
482.033	1.0	0	PA_with_intermediate	n/a	test	ward_and_allport	n/a	-1.0	47.0	n/a	n/a	feedback	s609
483.033	1.136	0	PA_with_intermediate	n/a	test	ward_and_allport	n/a	-1.0	47.0	n/a	n/a	ITI	s609
n/a	n/a	0	n/a	n/a	n/a	n/a	n/a	n/a	n/a	n/a	n/a	ITI	n/a
