onset	duration	EV	action	clicked_on_loss_card	experiment_exp_id	gain_amount	gain_probability	key_press	loss_amount	loss_probability	num_cards	num_click_in_round	num_loss_cards	risk	response_time	total_cards	trial_id	worker_id
3.011	3.959	-1.617456696742411	draw_card	0.0	columbia_card_task_fmri	12.0	0.8333333333333334	89.0	-70.0	0.1666666666666666	6.0	1.0	1.0	-2.763882536563983	3.959	n/a	stim	s609
6.972	8.584	-4.350790030075744	draw_card	0.0	columbia_card_task_fmri	12.0	0.8	89.0	-70.0	0.2	6.0	2.0	1.0	-0.5234809353887044	8.584	n/a	stim	s609
15.557	5.43	-8.450790030075744	draw_card	0.0	columbia_card_task_fmri	12.0	0.75	89.0	-70.0	0.25	6.0	3.0	1.0	2.1835578053972995	5.43	n/a	stim	s609
20.988	0.692	-15.284123363409076	end_round	0.0	columbia_card_task_fmri	12.0	0.6666666666666667	71.0	-70.0	0.3333333333333333	6.0	4.0	1.0	5.331684177906766	0.692	3.0	stim	s609
21.684	2.25	n/a	-1.0	n/a	columbia_card_task_fmri	n/a	n/a	-1.0	n/a	n/a	n/a	n/a	n/a	n/a	n/a	n/a	feedback	s609
23.934	0.0	n/a	-1.0	n/a	columbia_card_task_fmri	n/a	n/a	-1.0	n/a	n/a	n/a	n/a	n/a	n/a	n/a	n/a	ITI	s609
23.935	5.691	-0.7841233634090772	draw_card	0.0	columbia_card_task_fmri	14.0	0.8333333333333334	89.0	-75.0	0.1666666666666666	6.0	1.0	1.0	-0.1551396790897854	5.691	n/a	stim	s609
29.628	1.035	-3.750790030075744	draw_card	0.0	columbia_card_task_fmri	14.0	0.8	89.0	-75.0	0.2	6.0	2.0	1.0	2.2765161611922835	1.035	n/a	stim	s609
30.664	2.784	-8.200790030075744	draw_card	0.0	columbia_card_task_fmri	14.0	0.75	89.0	-75.0	0.25	6.0	3.0	1.0	5.214644036578619	2.784	n/a	stim	s609
33.45	0.486	-15.61745669674241	end_round	0.0	columbia_card_task_fmri	14.0	0.6666666666666667	71.0	-75.0	0.3333333333333333	6.0	4.0	1.0	8.631513359810192	0.486	3.0	stim	s609
33.942	2.25	n/a	-1.0	n/a	columbia_card_task_fmri	n/a	n/a	-1.0	n/a	n/a	n/a	n/a	n/a	n/a	n/a	n/a	feedback	s609
36.192	0.136	n/a	-1.0	n/a	columbia_card_task_fmri	n/a	n/a	-1.0	n/a	n/a	n/a	n/a	n/a	n/a	n/a	n/a	ITI	s609
36.329	5.635	0.8825433032575889	draw_card	0.0	columbia_card_task_fmri	15.0	0.8333333333333334	89.0	-70.0	0.1666666666666666	6.0	1.0	1.0	-1.6458499462098963	5.635	n/a	stim	s609
41.965	1.011	-1.950790030075745	draw_card	0.0	columbia_card_task_fmri	15.0	0.8	89.0	-70.0	0.2	6.0	2.0	1.0	0.6765177617325975	1.011	n/a	stim	s609
42.978	4.448	-6.200790030075745	draw_card	0.0	columbia_card_task_fmri	15.0	0.75	89.0	-70.0	0.25	6.0	3.0	1.0	3.482594707525891	4.448	n/a	stim	s609
47.428	0.673	-13.284123363409076	end_round	0.0	columbia_card_task_fmri	15.0	0.6666666666666667	71.0	-70.0	0.3333333333333333	6.0	4.0	1.0	6.745896634750132	0.673	3.0	stim	s609
48.106	2.25	n/a	-1.0	n/a	columbia_card_task_fmri	n/a	n/a	-1.0	n/a	n/a	n/a	n/a	n/a	n/a	n/a	n/a	feedback	s609
50.356	0.34	n/a	-1.0	n/a	columbia_card_task_fmri	n/a	n/a	-1.0	n/a	n/a	n/a	n/a	n/a	n/a	n/a	n/a	ITI	s609
50.697	4.092	1.7158766365909228	draw_card	0.0	columbia_card_task_fmri	17.0	0.8333333333333334	89.0	-75.0	0.1666666666666666	6.0	1.0	1.0	0.9628931192813256	4.092	n/a	stim	s609
54.79	0.538	-1.3507900300757436	draw_card	1.0	columbia_card_task_fmri	17.0	0.8	89.0	-75.0	0.2	6.0	2.0	1.0	3.476515052122096	0.538	2.0	stim	s609
55.334	2.25	n/a	-1.0	n/a	columbia_card_task_fmri	n/a	n/a	-1.0	n/a	n/a	n/a	n/a	n/a	n/a	n/a	n/a	feedback	s609
57.584	0.408	n/a	-1.0	n/a	columbia_card_task_fmri	n/a	n/a	-1.0	n/a	n/a	n/a	n/a	n/a	n/a	n/a	n/a	ITI	s609
57.993	8.877	3.049209969924255	draw_card	1.0	columbia_card_task_fmri	24.0	0.75	89.0	-60.0	0.25	8.0	1.0	2.0	3.049582397264402	8.877	1.0	stim	s609
66.876	2.25	n/a	-1.0	n/a	columbia_card_task_fmri	n/a	n/a	-1.0	n/a	n/a	n/a	n/a	n/a	n/a	n/a	n/a	feedback	s609
69.126	0.136	n/a	-1.0	n/a	columbia_card_task_fmri	n/a	n/a	-1.0	n/a	n/a	n/a	n/a	n/a	n/a	n/a	n/a	ITI	s609
69.263	14.079	3.049209969924255	draw_card	0.0	columbia_card_task_fmri	29.0	0.75	89.0	-75.0	0.25	8.0	1.0	2.0	11.709830033451077	14.079	n/a	stim	s609
83.343	1.343	-0.6650757443614568	end_round	0.0	columbia_card_task_fmri	29.0	0.7142857142857143	71.0	-75.0	0.2857142857142857	8.0	2.0	2.0	13.658918872313308	1.343	1.0	stim	s609
84.689	2.25	n/a	-1.0	n/a	columbia_card_task_fmri	n/a	n/a	-1.0	n/a	n/a	n/a	n/a	n/a	n/a	n/a	n/a	feedback	s609
86.939	0.136	n/a	-1.0	n/a	columbia_card_task_fmri	n/a	n/a	-1.0	n/a	n/a	n/a	n/a	n/a	n/a	n/a	n/a	ITI	s609
87.076	6.297	-1.173012252297965	draw_card	0.0	columbia_card_task_fmri	17.0	0.7777777777777778	89.0	-65.0	0.2222222222222222	9.0	1.0	2.0	0.7671738576377152	6.297	n/a	stim	s609
93.375	14.962	-3.450790030075745	draw_card	0.0	columbia_card_task_fmri	17.0	0.75	89.0	-65.0	0.25	9.0	2.0	2.0	2.1835578053972995	14.962	n/a	stim	s609
108.338	0.762	-6.379361458647172	end_round	0.0	columbia_card_task_fmri	17.0	0.7142857142857143	71.0	-65.0	0.2857142857142857	9.0	3.0	2.0	3.720338854672292	0.762	2.0	stim	s609
109.103	2.25	n/a	-1.0	n/a	columbia_card_task_fmri	n/a	n/a	-1.0	n/a	n/a	n/a	n/a	n/a	n/a	n/a	n/a	feedback	s609
111.353	0.0	n/a	-1.0	n/a	columbia_card_task_fmri	n/a	n/a	-1.0	n/a	n/a	n/a	n/a	n/a	n/a	n/a	n/a	ITI	s609
111.354	4.501	3.1492099699242546	draw_card	0.0	columbia_card_task_fmri	14.0	0.9	89.0	-95.0	0.1	10.0	1.0	1.0	-0.6234808224991255	4.501	n/a	stim	s609
115.856	0.932	1.9380988588131425	end_round	0.0	columbia_card_task_fmri	14.0	0.8888888888888888	71.0	-95.0	0.1111111111111111	10.0	2.0	1.0	0.9319126737045806	0.932	1.0	stim	s609
116.794	2.25	n/a	-1.0	n/a	columbia_card_task_fmri	n/a	n/a	-1.0	n/a	n/a	n/a	n/a	n/a	n/a	n/a	n/a	feedback	s609
119.044	0.068	n/a	-1.0	n/a	columbia_card_task_fmri	n/a	n/a	-1.0	n/a	n/a	n/a	n/a	n/a	n/a	n/a	n/a	ITI	s609
119.113	6.525	-0.950790030075745	end_round	0.0	columbia_card_task_fmri	15.0	0.8	71.0	-65.0	0.2	10.0	1.0	2.0	-1.3234800125163986	6.525	0.0	stim	s609
125.641	2.25	n/a	-1.0	n/a	columbia_card_task_fmri	n/a	n/a	-1.0	n/a	n/a	n/a	n/a	n/a	n/a	n/a	n/a	feedback	s609
127.891	0.0	n/a	-1.0	n/a	columbia_card_task_fmri	n/a	n/a	-1.0	n/a	n/a	n/a	n/a	n/a	n/a	n/a	n/a	ITI	s609
127.893	4.624	0.6492099699242564	draw_card	0.0	columbia_card_task_fmri	17.0	0.8	89.0	-65.0	0.2	10.0	1.0	2.0	-0.5234809353887044	4.624	n/a	stim	s609
132.519	0.537	-1.173012252297965	end_round	0.0	columbia_card_task_fmri	17.0	0.7777777777777778	71.0	-65.0	0.2222222222222222	10.0	2.0	2.0	0.7671738576377152	0.537	1.0	stim	s609
133.06	2.25	n/a	-1.0	n/a	columbia_card_task_fmri	n/a	n/a	-1.0	n/a	n/a	n/a	n/a	n/a	n/a	n/a	n/a	feedback	s609
135.31	0.0	n/a	-1.0	n/a	columbia_card_task_fmri	n/a	n/a	-1.0	n/a	n/a	n/a	n/a	n/a	n/a	n/a	n/a	ITI	s609
135.312	3.817	-0.7841233634090772	draw_card	1.0	columbia_card_task_fmri	13.0	0.8333333333333334	89.0	-70.0	0.1666666666666666	12.0	1.0	2.0	-2.391205017678029	3.817	1.0	stim	s609
139.132	2.25	n/a	-1.0	n/a	columbia_card_task_fmri	n/a	n/a	-1.0	n/a	n/a	n/a	n/a	n/a	n/a	n/a	n/a	feedback	s609
141.382	0.136	n/a	-1.0	n/a	columbia_card_task_fmri	n/a	n/a	-1.0	n/a	n/a	n/a	n/a	n/a	n/a	n/a	n/a	ITI	s609
141.519	4.451	-0.7841233634090772	end_round	0.0	columbia_card_task_fmri	15.0	0.8333333333333334	71.0	-80.0	0.1666666666666666	12.0	1.0	2.0	2.080925992834139	4.451	0.0	stim	s609
145.973	2.25	n/a	-1.0	n/a	columbia_card_task_fmri	n/a	n/a	-1.0	n/a	n/a	n/a	n/a	n/a	n/a	n/a	n/a	feedback	s609
148.223	0.136	n/a	-1.0	n/a	columbia_card_task_fmri	n/a	n/a	-1.0	n/a	n/a	n/a	n/a	n/a	n/a	n/a	n/a	ITI	s609
148.36	3.154	-1.750790030075744	end_round	0.0	columbia_card_task_fmri	14.0	0.8	71.0	-65.0	0.2	15.0	1.0	3.0	-1.7234795335573736	3.154	0.0	stim	s609
151.517	2.25	n/a	-1.0	n/a	columbia_card_task_fmri	n/a	n/a	-1.0	n/a	n/a	n/a	n/a	n/a	n/a	n/a	n/a	feedback	s609
153.767	0.476	n/a	-1.0	n/a	columbia_card_task_fmri	n/a	n/a	-1.0	n/a	n/a	n/a	n/a	n/a	n/a	n/a	n/a	ITI	s609
154.244	1.695	-1.825790030075745	end_round	0.0	columbia_card_task_fmri	1.0	0.9375	71.0	-45.0	0.0625	16.0	1.0	1.0	-22.188581989658594	1.695	0.0	stim	s609
155.945	2.25	n/a	-1.0	n/a	columbia_card_task_fmri	n/a	n/a	-1.0	n/a	n/a	n/a	n/a	n/a	n/a	n/a	n/a	feedback	s609
158.195	0.204	n/a	-1.0	n/a	columbia_card_task_fmri	n/a	n/a	-1.0	n/a	n/a	n/a	n/a	n/a	n/a	n/a	n/a	ITI	s609
158.4	4.166	-0.888290030075745	draw_card	0.0	columbia_card_task_fmri	15.0	0.8125	89.0	-70.0	0.1875	16.0	1.0	3.0	-0.1469294878790563	4.166	n/a	stim	s609
162.568	17.547	-1.950790030075745	draw_card	0.0	columbia_card_task_fmri	15.0	0.8	89.0	-70.0	0.2	16.0	2.0	3.0	0.6765177617325975	17.547	n/a	stim	s609
180.116	1.207	-3.1650757443614603	end_round	0.0	columbia_card_task_fmri	15.0	0.7857142857142857	71.0	-70.0	0.2142857142857142	16.0	3.0	3.0	1.5542186481038982	1.207	2.0	stim	s609
181.328	2.25	n/a	-1.0	n/a	columbia_card_task_fmri	n/a	n/a	-1.0	n/a	n/a	n/a	n/a	n/a	n/a	n/a	n/a	feedback	s609
183.578	0.068	n/a	-1.0	n/a	columbia_card_task_fmri	n/a	n/a	-1.0	n/a	n/a	n/a	n/a	n/a	n/a	n/a	n/a	ITI	s609
183.647	4.849	6.049209969924255	draw_card	0.0	columbia_card_task_fmri	30.0	0.7	89.0	-50.0	0.3	10.0	1.0	3.0	3.337120736873516	4.849	n/a	stim	s609
188.497	7.962	3.3825433032575942	draw_card	0.0	columbia_card_task_fmri	30.0	0.6666666666666667	89.0	-50.0	0.3333333333333333	10.0	2.0	3.0	4.388875919408207	7.962	n/a	stim	s609
196.46	0.691	0.0492099699242549	end_round	0.0	columbia_card_task_fmri	30.0	0.625	71.0	-50.0	0.375	10.0	3.0	3.0	5.406346874731703	0.691	2.0	stim	s609
197.158	2.25	n/a	-1.0	n/a	columbia_card_task_fmri	n/a	n/a	-1.0	n/a	n/a	n/a	n/a	n/a	n/a	n/a	n/a	feedback	s609
199.408	0.068	n/a	-1.0	n/a	columbia_card_task_fmri	n/a	n/a	-1.0	n/a	n/a	n/a	n/a	n/a	n/a	n/a	n/a	ITI	s609
199.478	2.667	5.449209969924255	draw_card	0.0	columbia_card_task_fmri	17.0	0.8666666666666667	89.0	-70.0	0.1333333333333333	15.0	1.0	2.0	-3.749163730223252	2.667	n/a	stim	s609
202.146	0.683	4.620638541352828	draw_card	0.0	columbia_card_task_fmri	17.0	0.8571428571428572	89.0	-70.0	0.1428571428571428	15.0	2.0	2.0	-2.879819846439325	0.683	n/a	stim	s609
202.831	4.868	3.66459458530887	draw_card	1.0	columbia_card_task_fmri	17.0	0.8461538461538461	89.0	-70.0	0.1538461538461538	15.0	3.0	2.0	-1.9337738072679187	4.868	3.0	stim	s609
207.701	2.25	n/a	-1.0	n/a	columbia_card_task_fmri	n/a	n/a	-1.0	n/a	n/a	n/a	n/a	n/a	n/a	n/a	n/a	feedback	s609
209.951	0.34	n/a	-1.0	n/a	columbia_card_task_fmri	n/a	n/a	-1.0	n/a	n/a	n/a	n/a	n/a	n/a	n/a	n/a	ITI	s609
210.292	1.85	0.674209969924255	end_round	0.0	columbia_card_task_fmri	7.0	0.9375	71.0	-95.0	0.0625	16.0	1.0	1.0	-8.633199978309406	1.85	0.0	stim	s609
212.145	2.25	n/a	-1.0	n/a	columbia_card_task_fmri	n/a	n/a	-1.0	n/a	n/a	n/a	n/a	n/a	n/a	n/a	n/a	feedback	s609
214.395	0.476	n/a	-1.0	n/a	columbia_card_task_fmri	n/a	n/a	-1.0	n/a	n/a	n/a	n/a	n/a	n/a	n/a	n/a	ITI	s609
214.873	3.512	2.236709969924255	end_round	0.0	columbia_card_task_fmri	9.0	0.9375	71.0	-100.0	0.0625	16.0	1.0	1.0	-6.938772913692109	3.512	0.0	stim	s609
218.388	2.25	n/a	-1.0	n/a	columbia_card_task_fmri	n/a	n/a	-1.0	n/a	n/a	n/a	n/a	n/a	n/a	n/a	n/a	feedback	s609
220.638	0.272	n/a	-1.0	n/a	columbia_card_task_fmri	n/a	n/a	-1.0	n/a	n/a	n/a	n/a	n/a	n/a	n/a	n/a	ITI	s609
220.911	8.769	3.174209969924255	draw_card	0.0	columbia_card_task_fmri	15.0	0.875	89.0	-80.0	0.125	16.0	1.0	2.0	-1.9051824930661527	8.769	n/a	stim	s609
229.681	0.687	2.382543303257589	end_round	0.0	columbia_card_task_fmri	15.0	0.8666666666666667	71.0	-80.0	0.1333333333333333	16.0	2.0	2.0	-1.0296901039882087	0.687	1.0	stim	s609
230.372	2.25	n/a	-1.0	n/a	columbia_card_task_fmri	n/a	n/a	-1.0	n/a	n/a	n/a	n/a	n/a	n/a	n/a	n/a	feedback	s609
232.622	0.884	n/a	-1.0	n/a	columbia_card_task_fmri	n/a	n/a	-1.0	n/a	n/a	n/a	n/a	n/a	n/a	n/a	n/a	ITI	s609
233.507	3.027	5.299209969924255	draw_card	0.0	columbia_card_task_fmri	16.0	0.875	89.0	-70.0	0.125	16.0	1.0	2.0	-4.881648684934735	3.027	n/a	stim	s609
236.535	1.666	4.582543303257588	draw_card	0.0	columbia_card_task_fmri	16.0	0.8666666666666667	89.0	-70.0	0.1333333333333333	16.0	2.0	2.0	-4.089097888402243	1.666	n/a	stim	s609
238.202	0.901	3.7634956842099694	end_round	0.0	columbia_card_task_fmri	16.0	0.8571428571428572	71.0	-70.0	0.1428571428571428	16.0	3.0	2.0	-3.229746490084949	0.901	2.0	stim	s609
239.11	2.25	n/a	-1.0	n/a	columbia_card_task_fmri	n/a	n/a	-1.0	n/a	n/a	n/a	n/a	n/a	n/a	n/a	n/a	feedback	s609
241.36	0.136	n/a	-1.0	n/a	columbia_card_task_fmri	n/a	n/a	-1.0	n/a	n/a	n/a	n/a	n/a	n/a	n/a	n/a	ITI	s609
241.498	11.04	6.611709969924255	draw_card	0.0	columbia_card_task_fmri	30.0	0.6875	89.0	-45.0	0.3125	16.0	1.0	5.0	1.4399473879274467	11.04	n/a	stim	s609
252.539	2.368	5.0492099699242585	end_round	0.0	columbia_card_task_fmri	30.0	0.6666666666666667	71.0	-45.0	0.3333333333333333	16.0	2.0	5.0	2.0318554558810438	2.368	1.0	stim	s609
254.913	2.25	n/a	-1.0	n/a	columbia_card_task_fmri	n/a	n/a	-1.0	n/a	n/a	n/a	n/a	n/a	n/a	n/a	n/a	feedback	s609
257.163	0.136	n/a	-1.0	n/a	columbia_card_task_fmri	n/a	n/a	-1.0	n/a	n/a	n/a	n/a	n/a	n/a	n/a	n/a	ITI	s609
257.3	7.826	-1.617456696742411	end_round	0.0	columbia_card_task_fmri	13.0	0.8333333333333334	71.0	-75.0	0.1666666666666666	6.0	1.0	1.0	-0.5278172605108011	7.826	0.0	stim	s609
265.131	2.25	n/a	-1.0	n/a	columbia_card_task_fmri	n/a	n/a	-1.0	n/a	n/a	n/a	n/a	n/a	n/a	n/a	n/a	feedback	s609
267.381	0.068	n/a	-1.0	n/a	columbia_card_task_fmri	n/a	n/a	-1.0	n/a	n/a	n/a	n/a	n/a	n/a	n/a	n/a	ITI	s609
267.45	9.318	0.0492099699242567	draw_card	0.0	columbia_card_task_fmri	14.0	0.8333333333333334	89.0	-70.0	0.1666666666666666	6.0	1.0	1.0	-2.018527487426283	9.318	n/a	stim	s609
276.77	0.88	-2.750790030075744	end_round	0.0	columbia_card_task_fmri	14.0	0.8	71.0	-70.0	0.2	6.0	2.0	1.0	0.2765181856852123	0.88	1.0	stim	s609
277.653	2.25	n/a	-1.0	n/a	columbia_card_task_fmri	n/a	n/a	-1.0	n/a	n/a	n/a	n/a	n/a	n/a	n/a	n/a	feedback	s609
279.903	0.068	n/a	-1.0	n/a	columbia_card_task_fmri	n/a	n/a	-1.0	n/a	n/a	n/a	n/a	n/a	n/a	n/a	n/a	ITI	s609
279.973	4.649	0.0492099699242567	draw_card	0.0	columbia_card_task_fmri	16.0	0.8333333333333334	89.0	-80.0	0.1666666666666666	6.0	1.0	1.0	2.4536036328405686	4.649	n/a	stim	s609
284.623	0.509	-3.1507900300757443	end_round	0.0	columbia_card_task_fmri	16.0	0.8	71.0	-80.0	0.2	6.0	2.0	1.0	5.076513681187983	0.509	1.0	stim	s609
285.135	2.25	n/a	-1.0	n/a	columbia_card_task_fmri	n/a	n/a	-1.0	n/a	n/a	n/a	n/a	n/a	n/a	n/a	n/a	feedback	s609
287.385	0.612	n/a	-1.0	n/a	columbia_card_task_fmri	n/a	n/a	-1.0	n/a	n/a	n/a	n/a	n/a	n/a	n/a	n/a	ITI	s609
287.998	4.262	2.5492099699242567	draw_card	1.0	columbia_card_task_fmri	17.0	0.8333333333333334	89.0	-70.0	0.1666666666666666	6.0	1.0	1.0	-0.9004948323955517	4.262	1.0	stim	s609
292.264	2.25	n/a	-1.0	n/a	columbia_card_task_fmri	n/a	n/a	-1.0	n/a	n/a	n/a	n/a	n/a	n/a	n/a	n/a	feedback	s609
294.514	0.476	n/a	-1.0	n/a	columbia_card_task_fmri	n/a	n/a	-1.0	n/a	n/a	n/a	n/a	n/a	n/a	n/a	n/a	ITI	s609
294.991	4.537	2.549209969924255	draw_card	0.0	columbia_card_task_fmri	25.0	0.75	89.0	-65.0	0.25	8.0	1.0	2.0	5.647656389376728	4.537	n/a	stim	s609
299.529	1.062	-0.6650757443614568	end_round	0.0	columbia_card_task_fmri	25.0	0.7142857142857143	71.0	-65.0	0.2857142857142857	8.0	2.0	2.0	7.334367560883855	1.062	1.0	stim	s609
300.596	2.25	n/a	-1.0	n/a	columbia_card_task_fmri	n/a	n/a	-1.0	n/a	n/a	n/a	n/a	n/a	n/a	n/a	n/a	feedback	s609
302.846	0.0	n/a	-1.0	n/a	columbia_card_task_fmri	n/a	n/a	-1.0	n/a	n/a	n/a	n/a	n/a	n/a	n/a	n/a	ITI	s609
302.847	5.923	2.549209969924255	draw_card	0.0	columbia_card_task_fmri	30.0	0.75	89.0	-80.0	0.25	8.0	1.0	2.0	14.307904778242404	5.923	n/a	stim	s609
308.772	0.618	-1.3793614586471683	end_round	0.0	columbia_card_task_fmri	30.0	0.7142857142857143	71.0	-80.0	0.2857142857142857	8.0	2.0	2.0	16.36944117530806	0.618	1.0	stim	s609
309.392	2.25	n/a	-1.0	n/a	columbia_card_task_fmri	n/a	n/a	-1.0	n/a	n/a	n/a	n/a	n/a	n/a	n/a	n/a	feedback	s609
311.642	0.068	n/a	-1.0	n/a	columbia_card_task_fmri	n/a	n/a	-1.0	n/a	n/a	n/a	n/a	n/a	n/a	n/a	n/a	ITI	s609
311.711	12.934	2.249209969924256	draw_card	0.0	columbia_card_task_fmri	13.0	0.9	89.0	-95.0	0.1	10.0	1.0	1.0	-0.9234804796492851	12.934	n/a	stim	s609
324.647	0.636	1.049209969924255	end_round	0.0	columbia_card_task_fmri	13.0	0.8888888888888888	71.0	-95.0	0.1111111111111111	10.0	2.0	1.0	0.6176433204597274	0.636	1.0	stim	s609
325.286	2.25	n/a	-1.0	n/a	columbia_card_task_fmri	n/a	n/a	-1.0	n/a	n/a	n/a	n/a	n/a	n/a	n/a	n/a	feedback	s609
327.536	0.204	n/a	-1.0	n/a	columbia_card_task_fmri	n/a	n/a	-1.0	n/a	n/a	n/a	n/a	n/a	n/a	n/a	n/a	ITI	s609
327.741	4.201	3.649209969924255	draw_card	0.0	columbia_card_task_fmri	14.0	0.9	89.0	-90.0	0.1	10.0	1.0	1.0	-2.1234790423173813	4.201	n/a	stim	s609
331.944	0.5	2.493654414368698	end_round	0.0	columbia_card_task_fmri	14.0	0.8888888888888888	71.0	-90.0	0.1111111111111111	10.0	2.0	1.0	-0.6394340295808405	0.5	1.0	stim	s609
332.449	2.25	n/a	-1.0	n/a	columbia_card_task_fmri	n/a	n/a	-1.0	n/a	n/a	n/a	n/a	n/a	n/a	n/a	n/a	feedback	s609
334.699	0.272	n/a	-1.0	n/a	columbia_card_task_fmri	n/a	n/a	-1.0	n/a	n/a	n/a	n/a	n/a	n/a	n/a	n/a	ITI	s609
334.973	9.803	-1.1507900300757443	end_round	0.0	columbia_card_task_fmri	16.0	0.8	71.0	-70.0	0.2	10.0	1.0	2.0	1.0765173476393457	9.803	0.0	stim	s609
344.781	2.25	n/a	-1.0	n/a	columbia_card_task_fmri	n/a	n/a	-1.0	n/a	n/a	n/a	n/a	n/a	n/a	n/a	n/a	feedback	s609
347.031	0.068	n/a	-1.0	n/a	columbia_card_task_fmri	n/a	n/a	-1.0	n/a	n/a	n/a	n/a	n/a	n/a	n/a	n/a	ITI	s609
347.101	12.091	-1.867456696742411	draw_card	0.0	columbia_card_task_fmri	7.0	0.9166666666666666	89.0	-100.0	0.0833333333333333	12.0	1.0	1.0	-3.750239193570216	12.091	n/a	stim	s609
359.194	0.668	-2.678062757348473	end_round	0.0	columbia_card_task_fmri	7.0	0.9090909090909092	71.0	-100.0	0.0909090909090909	12.0	2.0	1.0	-2.563141247808918	0.668	1.0	stim	s609
359.865	2.25	n/a	-1.0	n/a	columbia_card_task_fmri	n/a	n/a	-1.0	n/a	n/a	n/a	n/a	n/a	n/a	n/a	n/a	feedback	s609
362.115	0.272	n/a	-1.0	n/a	columbia_card_task_fmri	n/a	n/a	-1.0	n/a	n/a	n/a	n/a	n/a	n/a	n/a	n/a	ITI	s609
362.388	13.493	-1.617456696742409	draw_card	1.0	columbia_card_task_fmri	14.0	0.8333333333333334	89.0	-80.0	0.1666666666666666	12.0	1.0	2.0	1.708248360407346	13.493	1.0	stim	s609
375.885	2.25	n/a	-1.0	n/a	columbia_card_task_fmri	n/a	n/a	-1.0	n/a	n/a	n/a	n/a	n/a	n/a	n/a	n/a	feedback	s609
378.135	0.748	n/a	-1.0	n/a	columbia_card_task_fmri	n/a	n/a	-1.0	n/a	n/a	n/a	n/a	n/a	n/a	n/a	n/a	ITI	s609
378.884	3.129	0.0492099699242549	draw_card	1.0	columbia_card_task_fmri	15.0	0.8333333333333334	89.0	-75.0	0.1666666666666666	12.0	1.0	2.0	0.2175379115496412	3.129	1.0	stim	s609
382.016	2.25	n/a	-1.0	n/a	columbia_card_task_fmri	n/a	n/a	-1.0	n/a	n/a	n/a	n/a	n/a	n/a	n/a	n/a	feedback	s609
384.266	0.068	n/a	-1.0	n/a	columbia_card_task_fmri	n/a	n/a	-1.0	n/a	n/a	n/a	n/a	n/a	n/a	n/a	n/a	ITI	s609
384.335	23.87	-0.950790030075745	draw_card	1.0	columbia_card_task_fmri	15.0	0.8	89.0	-65.0	0.2	15.0	1.0	3.0	-1.3234800125163986	23.87	1.0	stim	s609
408.208	2.25	n/a	-1.0	n/a	columbia_card_task_fmri	n/a	n/a	-1.0	n/a	n/a	n/a	n/a	n/a	n/a	n/a	n/a	feedback	s609
410.458	0.0	n/a	-1.0	n/a	columbia_card_task_fmri	n/a	n/a	-1.0	n/a	n/a	n/a	n/a	n/a	n/a	n/a	n/a	ITI	s609
410.46	3.301	-1.700790030075745	end_round	0.0	columbia_card_task_fmri	14.0	0.8125	71.0	-70.0	0.1875	16.0	1.0	3.0	-0.5372414283038012	3.301	0.0	stim	s609
413.768	2.25	n/a	-1.0	n/a	columbia_card_task_fmri	n/a	n/a	-1.0	n/a	n/a	n/a	n/a	n/a	n/a	n/a	n/a	feedback	s609
416.018	0.204	n/a	-1.0	n/a	columbia_card_task_fmri	n/a	n/a	-1.0	n/a	n/a	n/a	n/a	n/a	n/a	n/a	n/a	ITI	s609
416.224	1.209	-1.763290030075745	end_round	0.0	columbia_card_task_fmri	11.0	0.6875	71.0	-30.0	0.3125	16.0	1.0	5.0	-14.319445513818671	1.209	0.0	stim	s609
417.44	2.25	n/a	-1.0	n/a	columbia_card_task_fmri	n/a	n/a	-1.0	n/a	n/a	n/a	n/a	n/a	n/a	n/a	n/a	feedback	s609
419.69	0.068	n/a	-1.0	n/a	columbia_card_task_fmri	n/a	n/a	-1.0	n/a	n/a	n/a	n/a	n/a	n/a	n/a	n/a	ITI	s609
419.759	14.648	3.049209969924255	draw_card	0.0	columbia_card_task_fmri	15.0	0.8666666666666667	89.0	-75.0	0.1333333333333333	15.0	1.0	2.0	-2.729361192211666	14.648	n/a	stim	s609
434.409	6.393	2.192067112781399	draw_card	0.0	columbia_card_task_fmri	15.0	0.8571428571428572	89.0	-75.0	0.1428571428571428	15.0	2.0	2.0	-1.8300398538404077	6.393	n/a	stim	s609
440.806	0.755	1.2030561237704085	end_round	0.0	columbia_card_task_fmri	15.0	0.8461538461538461	71.0	-75.0	0.1538461538461538	15.0	3.0	2.0	-0.8513714561663832	0.755	2.0	stim	s609
441.568	2.25	n/a	-1.0	n/a	columbia_card_task_fmri	n/a	n/a	-1.0	n/a	n/a	n/a	n/a	n/a	n/a	n/a	n/a	feedback	s609
443.818	0.068	n/a	-1.0	n/a	columbia_card_task_fmri	n/a	n/a	-1.0	n/a	n/a	n/a	n/a	n/a	n/a	n/a	n/a	ITI	s609
443.887	14.503	4.782543303257589	draw_card	0.0	columbia_card_task_fmri	17.0	0.8666666666666667	89.0	-75.0	0.1333333333333333	15.0	1.0	2.0	-2.0494927840914627	14.503	n/a	stim	s609
458.392	3.241	3.9063528270671135	draw_card	0.0	columbia_card_task_fmri	17.0	0.8571428571428572	89.0	-75.0	0.1428571428571428	15.0	2.0	2.0	-1.1301864774072712	3.241	n/a	stim	s609
461.635	0.485	2.8953638160781017	end_round	0.0	columbia_card_task_fmri	17.0	0.8461538461538461	71.0	-75.0	0.1538461538461538	15.0	3.0	2.0	-0.1297698421791793	0.485	2.0	stim	s609
462.128	2.25	n/a	-1.0	n/a	columbia_card_task_fmri	n/a	n/a	-1.0	n/a	n/a	n/a	n/a	n/a	n/a	n/a	n/a	feedback	s609
464.378	0.34	n/a	-1.0	n/a	columbia_card_task_fmri	n/a	n/a	-1.0	n/a	n/a	n/a	n/a	n/a	n/a	n/a	n/a	ITI	s609
464.72	3.704	0.3617099699242549	end_round	0.0	columbia_card_task_fmri	2.0	0.9375	71.0	-25.0	0.0625	16.0	1.0	1.0	-26.78767319403545	3.704	0.0	stim	s609
468.43	2.25	n/a	-1.0	n/a	columbia_card_task_fmri	n/a	n/a	-1.0	n/a	n/a	n/a	n/a	n/a	n/a	n/a	n/a	feedback	s609
470.68	0.0	n/a	-1.0	n/a	columbia_card_task_fmri	n/a	n/a	-1.0	n/a	n/a	n/a	n/a	n/a	n/a	n/a	n/a	ITI	s609
470.683	11.107	2.549209969924255	draw_card	0.0	columbia_card_task_fmri	9.0	0.9375	89.0	-95.0	0.0625	16.0	1.0	1.0	-8.14907800310748	11.107	n/a	stim	s609
481.791	3.82	2.1158766365909223	draw_card	0.0	columbia_card_task_fmri	9.0	0.9333333333333332	89.0	-95.0	0.0666666666666666	16.0	2.0	1.0	-7.381313295262029	3.82	n/a	stim	s609
485.614	2.123	1.620638541352827	end_round	0.0	columbia_card_task_fmri	9.0	0.9285714285714286	71.0	-95.0	0.0714285714285714	16.0	3.0	1.0	-6.539377454874256	2.123	2.0	stim	s609
487.742	2.25	n/a	-1.0	n/a	columbia_card_task_fmri	n/a	n/a	-1.0	n/a	n/a	n/a	n/a	n/a	n/a	n/a	n/a	feedback	s609
489.992	0.0	n/a	-1.0	n/a	columbia_card_task_fmri	n/a	n/a	-1.0	n/a	n/a	n/a	n/a	n/a	n/a	n/a	n/a	ITI	s609
489.994	3.768	4.111709969924255	draw_card	0.0	columbia_card_task_fmri	11.0	0.9375	89.0	-100.0	0.0625	16.0	1.0	1.0	-6.454650822272338	3.768	n/a	stim	s609
493.764	1.238	3.649209969924256	draw_card	0.0	columbia_card_task_fmri	11.0	0.9333333333333332	89.0	-100.0	0.0666666666666666	16.0	2.0	1.0	-5.635209458132156	1.238	n/a	stim	s609
495.004	0.643	3.120638541352828	end_round	0.0	columbia_card_task_fmri	11.0	0.9285714285714286	71.0	-100.0	0.0714285714285714	16.0	3.0	1.0	-4.7366046679849525	0.643	2.0	stim	s609
495.652	2.25	n/a	-1.0	n/a	columbia_card_task_fmri	n/a	n/a	-1.0	n/a	n/a	n/a	n/a	n/a	n/a	n/a	n/a	feedback	s609
497.902	0.272	n/a	-1.0	n/a	columbia_card_task_fmri	n/a	n/a	-1.0	n/a	n/a	n/a	n/a	n/a	n/a	n/a	n/a	ITI	s609
498.176	5.569	4.674209969924255	draw_card	0.0	columbia_card_task_fmri	16.0	0.875	89.0	-75.0	0.125	16.0	1.0	2.0	-3.228056454606545	5.569	n/a	stim	s609
503.748	0.385	3.915876636590922	end_round	0.0	columbia_card_task_fmri	16.0	0.8666666666666667	71.0	-75.0	0.1333333333333333	16.0	2.0	2.0	-2.3894269928788	0.385	1.0	stim	s609
504.138	2.25	n/a	-1.0	n/a	columbia_card_task_fmri	n/a	n/a	-1.0	n/a	n/a	n/a	n/a	n/a	n/a	n/a	n/a	feedback	s609
506.388	0.204	n/a	-1.0	n/a	columbia_card_task_fmri	n/a	n/a	-1.0	n/a	n/a	n/a	n/a	n/a	n/a	n/a	n/a	ITI	s609
506.593	10.251	4.924209969924255	draw_card	1.0	columbia_card_task_fmri	17.0	0.875	89.0	-80.0	0.125	16.0	1.0	2.0	-1.2437454599045452	10.251	1.0	stim	s609
516.852	2.25	n/a	-1.0	n/a	columbia_card_task_fmri	n/a	n/a	-1.0	n/a	n/a	n/a	n/a	n/a	n/a	n/a	n/a	feedback	s609
519.102	0.0	n/a	-1.0	n/a	columbia_card_task_fmri	n/a	n/a	-1.0	n/a	n/a	n/a	n/a	n/a	n/a	n/a	n/a	ITI	s609
530.11	6.83	-0.7841233634090772	draw_card	0.0	columbia_card_task_fmri	13.0	0.8333333333333334	89.0	-70.0	0.1666666666666666	6.0	1.0	1.0	-2.391205017678029	6.83	n/a	stim	s609
536.942	0.552	-3.5507900300757447	end_round	0.0	columbia_card_task_fmri	13.0	0.8	71.0	-70.0	0.2	6.0	2.0	1.0	-0.1234813801464724	0.552	1.0	stim	s609
537.5	2.25	n/a	-1.0	n/a	columbia_card_task_fmri	n/a	n/a	-1.0	n/a	n/a	n/a	n/a	n/a	n/a	n/a	n/a	feedback	s609
539.75	0.204	n/a	-1.0	n/a	columbia_card_task_fmri	n/a	n/a	-1.0	n/a	n/a	n/a	n/a	n/a	n/a	n/a	n/a	ITI	s609
539.955	7.624	-0.7841233634090772	draw_card	0.0	columbia_card_task_fmri	15.0	0.8333333333333334	89.0	-80.0	0.1666666666666666	6.0	1.0	1.0	2.080925992834139	7.624	n/a	stim	s609
547.582	11.356	-3.950790030075745	end_round	0.0	columbia_card_task_fmri	15.0	0.8	71.0	-80.0	0.2	6.0	2.0	1.0	4.676514013098355	11.356	1.0	stim	s609
558.946	2.25	n/a	-1.0	n/a	columbia_card_task_fmri	n/a	n/a	-1.0	n/a	n/a	n/a	n/a	n/a	n/a	n/a	n/a	feedback	s609
561.196	0.204	n/a	-1.0	n/a	columbia_card_task_fmri	n/a	n/a	-1.0	n/a	n/a	n/a	n/a	n/a	n/a	n/a	n/a	ITI	s609
561.404	11.278	0.8825433032575889	draw_card	0.0	columbia_card_task_fmri	16.0	0.8333333333333334	89.0	-75.0	0.1666666666666666	6.0	1.0	1.0	0.5902155111035796	11.278	n/a	stim	s609
572.684	13.575	-2.1507900300757443	draw_card	0.0	columbia_card_task_fmri	16.0	0.8	89.0	-75.0	0.2	6.0	2.0	1.0	3.076515413687112	13.575	n/a	stim	s609
586.261	0.639	-6.700790030075745	end_round	0.0	columbia_card_task_fmri	16.0	0.75	71.0	-75.0	0.25	6.0	3.0	1.0	6.08066874984722	0.639	2.0	stim	s609
586.905	2.25	n/a	-1.0	n/a	columbia_card_task_fmri	n/a	n/a	-1.0	n/a	n/a	n/a	n/a	n/a	n/a	n/a	n/a	feedback	s609
589.155	0.272	n/a	-1.0	n/a	columbia_card_task_fmri	n/a	n/a	-1.0	n/a	n/a	n/a	n/a	n/a	n/a	n/a	n/a	ITI	s609
589.428	8.58	2.049209969924255	draw_card	0.0	columbia_card_task_fmri	21.0	0.75	89.0	-55.0	0.25	8.0	1.0	2.0	-0.4145157138094717	8.58	n/a	stim	s609
598.01	0.43	-0.6650757443614586	end_round	0.0	columbia_card_task_fmri	21.0	0.7142857142857143	71.0	-55.0	0.2857142857142857	8.0	2.0	2.0	1.009817726418298	0.43	1.0	stim	s609
598.445	2.25	n/a	-1.0	n/a	columbia_card_task_fmri	n/a	n/a	-1.0	n/a	n/a	n/a	n/a	n/a	n/a	n/a	n/a	feedback	s609
600.695	0.204	n/a	-1.0	n/a	columbia_card_task_fmri	n/a	n/a	-1.0	n/a	n/a	n/a	n/a	n/a	n/a	n/a	n/a	ITI	s609
600.901	7.078	3.299209969924255	draw_card	0.0	columbia_card_task_fmri	26.0	0.75	89.0	-65.0	0.25	8.0	1.0	2.0	6.08066874984722	7.078	n/a	stim	s609
607.981	5.353	0.0492099699242585	draw_card	0.0	columbia_card_task_fmri	26.0	0.7142857142857143	89.0	-65.0	0.2857142857142857	8.0	2.0	2.0	7.786121185078784	5.353	n/a	stim	s609
613.336	0.535	-4.284123363409074	end_round	0.0	columbia_card_task_fmri	26.0	0.6666666666666667	71.0	-65.0	0.3333333333333333	8.0	3.0	2.0	9.574321767112837	0.535	2.0	stim	s609
613.877	2.25	n/a	-1.0	n/a	columbia_card_task_fmri	n/a	n/a	-1.0	n/a	n/a	n/a	n/a	n/a	n/a	n/a	n/a	feedback	s609
616.127	0.408	n/a	-1.0	n/a	columbia_card_task_fmri	n/a	n/a	-1.0	n/a	n/a	n/a	n/a	n/a	n/a	n/a	n/a	ITI	s609
616.537	14.702	-1.617456696742411	draw_card	0.0	columbia_card_task_fmri	15.0	0.7777777777777778	89.0	-60.0	0.2222222222222222	9.0	1.0	2.0	-2.143000794903937	14.702	n/a	stim	s609
631.241	0.536	-3.700790030075745	end_round	0.0	columbia_card_task_fmri	15.0	0.75	71.0	-60.0	0.25	9.0	2.0	2.0	-0.8475279251328303	0.536	1.0	stim	s609
631.782	2.25	n/a	-1.0	n/a	columbia_card_task_fmri	n/a	n/a	-1.0	n/a	n/a	n/a	n/a	n/a	n/a	n/a	n/a	feedback	s609
634.032	0.136	n/a	-1.0	n/a	columbia_card_task_fmri	n/a	n/a	-1.0	n/a	n/a	n/a	n/a	n/a	n/a	n/a	n/a	ITI	s609
634.17	11.19	2.749209969924256	draw_card	0.0	columbia_card_task_fmri	13.0	0.9	89.0	-90.0	0.1	10.0	1.0	1.0	-2.42347866554109	11.19	n/a	stim	s609
645.362	6.664	1.6047655254798103	draw_card	0.0	columbia_card_task_fmri	13.0	0.8888888888888888	89.0	-90.0	0.1111111111111111	10.0	2.0	1.0	-0.9537033504396888	6.664	n/a	stim	s609
652.028	0.511	0.1742099699242549	end_round	0.0	columbia_card_task_fmri	13.0	0.875	71.0	-90.0	0.125	10.0	3.0	1.0	0.7405658247305382	0.511	2.0	stim	s609
652.543	2.25	n/a	-1.0	n/a	columbia_card_task_fmri	n/a	n/a	-1.0	n/a	n/a	n/a	n/a	n/a	n/a	n/a	n/a	feedback	s609
654.793	0.272	n/a	-1.0	n/a	columbia_card_task_fmri	n/a	n/a	-1.0	n/a	n/a	n/a	n/a	n/a	n/a	n/a	n/a	ITI	s609
655.066	10.422	4.049209969924255	draw_card	0.0	columbia_card_task_fmri	15.0	0.9	89.0	-95.0	0.1	10.0	1.0	1.0	-0.3234811591153459	10.422	n/a	stim	s609
665.49	1.453	2.826987747702032	end_round	0.0	columbia_card_task_fmri	15.0	0.8888888888888888	71.0	-95.0	0.1111111111111111	10.0	2.0	1.0	1.2461820329000162	1.453	1.0	stim	s609
666.949	2.25	n/a	-1.0	n/a	columbia_card_task_fmri	n/a	n/a	-1.0	n/a	n/a	n/a	n/a	n/a	n/a	n/a	n/a	feedback	s609
669.199	0.34	n/a	-1.0	n/a	columbia_card_task_fmri	n/a	n/a	-1.0	n/a	n/a	n/a	n/a	n/a	n/a	n/a	n/a	ITI	s609
669.541	10.204	-0.1507900300757443	draw_card	1.0	columbia_card_task_fmri	16.0	0.8	89.0	-65.0	0.2	10.0	1.0	2.0	-0.9234804796492782	10.204	1.0	stim	s609
679.751	2.25	n/a	-1.0	n/a	columbia_card_task_fmri	n/a	n/a	-1.0	n/a	n/a	n/a	n/a	n/a	n/a	n/a	n/a	feedback	s609
682.001	0.136	n/a	-1.0	n/a	columbia_card_task_fmri	n/a	n/a	-1.0	n/a	n/a	n/a	n/a	n/a	n/a	n/a	n/a	ITI	s609
