onset	duration	planning	condition	current_position	exp_stage	experiment_exp_id	goal_state	key_press	problem_id	response_time	start_state	trial_id	worker_id
-60.1	0.0	0	n/a	n/a	n/a	ward_and_allport	n/a	32.0	n/a	19.575	n/a	instructions	s650
3.009	13.084	1	UA_with_intermediate	1,0,0,2,0,0,0,0,0	practice	ward_and_allport	1,2,3,0,0,0,0,0,0	71.0	0.0	13.084	1,0,0,2,3,0,0,0,0	to_hand	s650
16.094	4.406	0	UA_with_intermediate	1,0,0,2,3,0,0,0,0	practice	ward_and_allport	1,2,3,0,0,0,0,0,0	71.0	0.0	4.406	1,0,0,2,3,0,0,0,0	to_board	s650
20.502	2.856	0	UA_with_intermediate	1,0,0,2,0,0,0,0,0	practice	ward_and_allport	1,2,3,0,0,0,0,0,0	71.0	0.0	2.856	1,0,0,2,3,0,0,0,0	to_hand	s650
23.36	0.569	0	UA_with_intermediate	1,0,0,2,0,0,3,0,0	practice	ward_and_allport	1,2,3,0,0,0,0,0,0	82.0	0.0	0.569	1,0,0,2,3,0,0,0,0	to_board	s650
23.93	1.068	0	UA_with_intermediate	1,0,0,0,0,0,3,0,0	practice	ward_and_allport	1,2,3,0,0,0,0,0,0	71.0	0.0	1.068	1,0,0,2,3,0,0,0,0	to_hand	s650
24.999	0.388	0	UA_with_intermediate	1,2,0,0,0,0,3,0,0	practice	ward_and_allport	1,2,3,0,0,0,0,0,0	89.0	0.0	0.388	1,0,0,2,3,0,0,0,0	to_board	s650
25.391	1.846	0	UA_with_intermediate	1,2,0,0,0,0,0,0,0	practice	ward_and_allport	1,2,3,0,0,0,0,0,0	82.0	0.0	1.846	1,0,0,2,3,0,0,0,0	to_hand	s650
27.239	0.278	0	UA_with_intermediate	1,2,3,0,0,0,0,0,0	practice	ward_and_allport	1,2,3,0,0,0,0,0,0	89.0	0.0	0.278	1,0,0,2,3,0,0,0,0	to_board	s650
27.521	1.0	0	UA_with_intermediate	n/a	practice	ward_and_allport	n/a	-1.0	0.0	n/a	n/a	feedback	s650
30.024	5.057	1	UA_with_intermediate	1,2,0,0,0,0,0,0,0	practice	ward_and_allport	1,3,2,0,0,0,0,0,0	71.0	1.0	5.057	1,2,0,3,0,0,0,0,0	to_hand	s650
35.082	3.346	0	UA_with_intermediate	1,2,0,0,0,0,3,0,0	practice	ward_and_allport	1,3,2,0,0,0,0,0,0	82.0	1.0	3.346	1,2,0,3,0,0,0,0,0	to_board	s650
38.43	1.359	0	UA_with_intermediate	1,0,0,0,0,0,3,0,0	practice	ward_and_allport	1,3,2,0,0,0,0,0,0	89.0	1.0	1.359	1,2,0,3,0,0,0,0,0	to_hand	s650
39.791	0.321	0	UA_with_intermediate	1,0,0,2,0,0,3,0,0	practice	ward_and_allport	1,3,2,0,0,0,0,0,0	71.0	1.0	0.321	1,2,0,3,0,0,0,0,0	to_board	s650
40.113	1.502	0	UA_with_intermediate	1,0,0,2,0,0,0,0,0	practice	ward_and_allport	1,3,2,0,0,0,0,0,0	82.0	1.0	1.502	1,2,0,3,0,0,0,0,0	to_hand	s650
41.617	0.534	0	UA_with_intermediate	1,3,0,2,0,0,0,0,0	practice	ward_and_allport	1,3,2,0,0,0,0,0,0	89.0	1.0	0.534	1,2,0,3,0,0,0,0,0	to_board	s650
42.153	0.638	0	UA_with_intermediate	1,3,0,0,0,0,0,0,0	practice	ward_and_allport	1,3,2,0,0,0,0,0,0	71.0	1.0	0.638	1,2,0,3,0,0,0,0,0	to_hand	s650
42.793	2.401	0	UA_with_intermediate	1,3,2,0,0,0,0,0,0	practice	ward_and_allport	1,3,2,0,0,0,0,0,0	89.0	1.0	2.401	1,2,0,3,0,0,0,0,0	to_board	s650
45.198	1.0	0	UA_with_intermediate	n/a	practice	ward_and_allport	n/a	-1.0	1.0	n/a	n/a	feedback	s650
46.198	1.1	0	UA_with_intermediate	n/a	practice	ward_and_allport	n/a	-1.0	1.0	n/a	n/a	ITI	s650
47.301	3.395	1	UA_without_intermediate	0,0,0,1,2,0,0,0,0	practice	ward_and_allport	3,2,1,0,0,0,0,0,0	82.0	2.0	3.395	0,0,0,1,2,0,3,0,0	to_hand	s650
50.697	0.492	0	UA_without_intermediate	3,0,0,1,2,0,0,0,0	practice	ward_and_allport	3,2,1,0,0,0,0,0,0	89.0	2.0	0.492	0,0,0,1,2,0,3,0,0	to_board	s650
51.191	1.55	0	UA_without_intermediate	3,0,0,1,0,0,0,0,0	practice	ward_and_allport	3,2,1,0,0,0,0,0,0	71.0	2.0	1.55	0,0,0,1,2,0,3,0,0	to_hand	s650
52.742	0.437	0	UA_without_intermediate	3,2,0,1,0,0,0,0,0	practice	ward_and_allport	3,2,1,0,0,0,0,0,0	89.0	2.0	0.437	0,0,0,1,2,0,3,0,0	to_board	s650
53.182	1.622	0	UA_without_intermediate	3,2,0,0,0,0,0,0,0	practice	ward_and_allport	3,2,1,0,0,0,0,0,0	71.0	2.0	1.622	0,0,0,1,2,0,3,0,0	to_hand	s650
54.805	0.314	0	UA_without_intermediate	3,2,1,0,0,0,0,0,0	practice	ward_and_allport	3,2,1,0,0,0,0,0,0	89.0	2.0	0.314	0,0,0,1,2,0,3,0,0	to_board	s650
55.122	1.0	0	UA_without_intermediate	n/a	practice	ward_and_allport	n/a	-1.0	2.0	n/a	n/a	feedback	s650
56.122	1.2	0	UA_without_intermediate	n/a	practice	ward_and_allport	n/a	-1.0	2.0	n/a	n/a	ITI	s650
57.325	8.016	1	UA_without_intermediate	0,0,0,1,0,0,3,0,0	practice	ward_and_allport	2,3,1,0,0,0,0,0,0	71.0	3.0	8.016	0,0,0,1,2,0,3,0,0	to_hand	s650
65.342	0.451	0	UA_without_intermediate	2,0,0,1,0,0,3,0,0	practice	ward_and_allport	2,3,1,0,0,0,0,0,0	89.0	3.0	0.451	0,0,0,1,2,0,3,0,0	to_board	s650
65.796	2.315	0	UA_without_intermediate	2,0,0,0,0,0,3,0,0	practice	ward_and_allport	2,3,1,0,0,0,0,0,0	71.0	3.0	2.315	0,0,0,1,2,0,3,0,0	to_hand	s650
68.112	1.546	0	UA_without_intermediate	2,0,0,0,0,0,3,1,0	practice	ward_and_allport	2,3,1,0,0,0,0,0,0	82.0	3.0	1.546	0,0,0,1,2,0,3,0,0	to_board	s650
69.661	2.181	0	UA_without_intermediate	2,0,0,0,0,0,3,0,0	practice	ward_and_allport	2,3,1,0,0,0,0,0,0	82.0	3.0	2.181	0,0,0,1,2,0,3,0,0	to_hand	s650
71.844	0.452	0	UA_without_intermediate	2,0,0,1,0,0,3,0,0	practice	ward_and_allport	2,3,1,0,0,0,0,0,0	71.0	3.0	0.452	0,0,0,1,2,0,3,0,0	to_board	s650
72.298	1.33	0	UA_without_intermediate	2,0,0,1,0,0,0,0,0	practice	ward_and_allport	2,3,1,0,0,0,0,0,0	82.0	3.0	1.33	0,0,0,1,2,0,3,0,0	to_hand	s650
73.629	0.725	0	UA_without_intermediate	2,3,0,1,0,0,0,0,0	practice	ward_and_allport	2,3,1,0,0,0,0,0,0	89.0	3.0	0.725	0,0,0,1,2,0,3,0,0	to_board	s650
74.356	0.544	0	UA_without_intermediate	2,3,0,0,0,0,0,0,0	practice	ward_and_allport	2,3,1,0,0,0,0,0,0	71.0	3.0	0.544	0,0,0,1,2,0,3,0,0	to_hand	s650
74.901	0.533	0	UA_without_intermediate	2,3,1,0,0,0,0,0,0	practice	ward_and_allport	2,3,1,0,0,0,0,0,0	89.0	3.0	0.533	0,0,0,1,2,0,3,0,0	to_board	s650
75.438	1.0	0	UA_without_intermediate	n/a	practice	ward_and_allport	n/a	-1.0	3.0	n/a	n/a	feedback	s650
76.438	1.0	0	UA_without_intermediate	n/a	practice	ward_and_allport	n/a	-1.0	3.0	n/a	n/a	ITI	s650
79.444	8.0	1	PA_with_intermediate	0,0,0,0,0,0,1,2,0	test	ward_and_allport	2,0,0,0,0,0,1,3,0	82.0	0.0	8.0	0,0,0,0,0,0,1,2,3	to_hand	s650
87.445	0.578	0	PA_with_intermediate	0,0,0,3,0,0,1,2,0	test	ward_and_allport	2,0,0,0,0,0,1,3,0	71.0	0.0	0.578	0,0,0,0,0,0,1,2,3	to_board	s650
88.026	2.986	0	PA_with_intermediate	0,0,0,3,0,0,1,0,0	test	ward_and_allport	2,0,0,0,0,0,1,3,0	82.0	0.0	2.986	0,0,0,0,0,0,1,2,3	to_hand	s650
91.013	0.525	0	PA_with_intermediate	2,0,0,3,0,0,1,0,0	test	ward_and_allport	2,0,0,0,0,0,1,3,0	89.0	0.0	0.525	0,0,0,0,0,0,1,2,3	to_board	s650
91.541	0.244	0	PA_with_intermediate	0,0,0,3,0,0,1,0,0	test	ward_and_allport	2,0,0,0,0,0,1,3,0	89.0	0.0	0.244	0,0,0,0,0,0,1,2,3	to_hand	s650
91.787	0.877	0	PA_with_intermediate	2,0,0,3,0,0,1,0,0	test	ward_and_allport	2,0,0,0,0,0,1,3,0	89.0	0.0	0.877	0,0,0,0,0,0,1,2,3	to_board	s650
92.666	0.548	0	PA_with_intermediate	2,0,0,0,0,0,1,0,0	test	ward_and_allport	2,0,0,0,0,0,1,3,0	71.0	0.0	0.548	0,0,0,0,0,0,1,2,3	to_hand	s650
93.216	0.517	0	PA_with_intermediate	2,0,0,0,0,0,1,3,0	test	ward_and_allport	2,0,0,0,0,0,1,3,0	82.0	0.0	0.517	0,0,0,0,0,0,1,2,3	to_board	s650
93.737	1.0	0	PA_with_intermediate	n/a	test	ward_and_allport	n/a	-1.0	0.0	n/a	n/a	feedback	s650
94.737	3.176	0	PA_with_intermediate	n/a	test	ward_and_allport	n/a	-1.0	0.0	n/a	n/a	ITI	s650
97.917	5.733	1	PA_with_intermediate	1,2,0,0,0,0,0,0,0	test	ward_and_allport	1,0,0,2,3,0,0,0,0	89.0	1.0	5.733	1,2,3,0,0,0,0,0,0	to_hand	s650
103.651	3.965	0	PA_with_intermediate	1,2,0,0,0,0,3,0,0	test	ward_and_allport	1,0,0,2,3,0,0,0,0	82.0	1.0	3.965	1,2,3,0,0,0,0,0,0	to_board	s650
107.618	2.159	0	PA_with_intermediate	1,0,0,0,0,0,3,0,0	test	ward_and_allport	1,0,0,2,3,0,0,0,0	89.0	1.0	2.159	1,2,3,0,0,0,0,0,0	to_hand	s650
109.779	0.493	0	PA_with_intermediate	1,0,0,2,0,0,3,0,0	test	ward_and_allport	1,0,0,2,3,0,0,0,0	71.0	1.0	0.493	1,2,3,0,0,0,0,0,0	to_board	s650
110.275	1.494	0	PA_with_intermediate	1,0,0,2,0,0,0,0,0	test	ward_and_allport	1,0,0,2,3,0,0,0,0	82.0	1.0	1.494	1,2,3,0,0,0,0,0,0	to_hand	s650
111.771	0.537	0	PA_with_intermediate	1,0,0,2,3,0,0,0,0	test	ward_and_allport	1,0,0,2,3,0,0,0,0	71.0	1.0	0.537	1,2,3,0,0,0,0,0,0	to_board	s650
112.313	1.0	0	PA_with_intermediate	n/a	test	ward_and_allport	n/a	-1.0	1.0	n/a	n/a	feedback	s650
113.313	2.36	0	PA_with_intermediate	n/a	test	ward_and_allport	n/a	-1.0	1.0	n/a	n/a	ITI	s650
115.675	5.779	1	PA_with_intermediate	0,0,0,1,2,0,0,0,0	test	ward_and_allport	0,0,0,1,3,0,2,0,0	71.0	2.0	5.779	0,0,0,1,2,3,0,0,0	to_hand	s650
121.455	1.181	0	PA_with_intermediate	3,0,0,1,2,0,0,0,0	test	ward_and_allport	0,0,0,1,3,0,2,0,0	89.0	2.0	1.181	0,0,0,1,2,3,0,0,0	to_board	s650
122.639	1.041	0	PA_with_intermediate	3,0,0,1,0,0,0,0,0	test	ward_and_allport	0,0,0,1,3,0,2,0,0	71.0	2.0	1.041	0,0,0,1,2,3,0,0,0	to_hand	s650
123.682	0.466	0	PA_with_intermediate	3,0,0,1,0,0,2,0,0	test	ward_and_allport	0,0,0,1,3,0,2,0,0	82.0	2.0	0.466	0,0,0,1,2,3,0,0,0	to_board	s650
124.15	2.023	0	PA_with_intermediate	0,0,0,1,0,0,2,0,0	test	ward_and_allport	0,0,0,1,3,0,2,0,0	89.0	2.0	2.023	0,0,0,1,2,3,0,0,0	to_hand	s650
126.174	0.405	0	PA_with_intermediate	0,0,0,1,3,0,2,0,0	test	ward_and_allport	0,0,0,1,3,0,2,0,0	71.0	2.0	0.405	0,0,0,1,2,3,0,0,0	to_board	s650
126.583	1.0	0	PA_with_intermediate	n/a	test	ward_and_allport	n/a	-1.0	2.0	n/a	n/a	feedback	s650
127.583	1.0	0	PA_with_intermediate	n/a	test	ward_and_allport	n/a	-1.0	2.0	n/a	n/a	ITI	s650
128.588	5.006	1	PA_without_intermediate	0,0,0,1,2,0,0,0,0	test	ward_and_allport	3,1,0,0,0,0,2,0,0	71.0	3.0	5.006	0,0,0,1,2,3,0,0,0	to_hand	s650
133.595	3.847	0	PA_without_intermediate	3,0,0,1,2,0,0,0,0	test	ward_and_allport	3,1,0,0,0,0,2,0,0	89.0	3.0	3.847	0,0,0,1,2,3,0,0,0	to_board	s650
137.445	0.979	0	PA_without_intermediate	3,0,0,1,0,0,0,0,0	test	ward_and_allport	3,1,0,0,0,0,2,0,0	71.0	3.0	0.979	0,0,0,1,2,3,0,0,0	to_hand	s650
138.425	0.448	0	PA_without_intermediate	3,0,0,1,0,0,2,0,0	test	ward_and_allport	3,1,0,0,0,0,2,0,0	82.0	3.0	0.448	0,0,0,1,2,3,0,0,0	to_board	s650
138.877	0.412	0	PA_without_intermediate	3,0,0,0,0,0,2,0,0	test	ward_and_allport	3,1,0,0,0,0,2,0,0	71.0	3.0	0.412	0,0,0,1,2,3,0,0,0	to_hand	s650
139.29	0.4	0	PA_without_intermediate	3,1,0,0,0,0,2,0,0	test	ward_and_allport	3,1,0,0,0,0,2,0,0	89.0	3.0	0.4	0,0,0,1,2,3,0,0,0	to_board	s650
139.693	1.0	0	PA_without_intermediate	n/a	test	ward_and_allport	n/a	-1.0	3.0	n/a	n/a	feedback	s650
140.693	1.408	0	PA_without_intermediate	n/a	test	ward_and_allport	n/a	-1.0	3.0	n/a	n/a	ITI	s650
142.105	7.748	1	PA_with_intermediate	0,0,0,0,0,0,1,2,0	test	ward_and_allport	0,0,0,2,0,0,1,3,0	82.0	4.0	7.748	0,0,0,0,0,0,1,2,3	to_hand	s650
149.855	0.52	0	PA_with_intermediate	3,0,0,0,0,0,1,2,0	test	ward_and_allport	0,0,0,2,0,0,1,3,0	89.0	4.0	0.52	0,0,0,0,0,0,1,2,3	to_board	s650
150.378	1.264	0	PA_with_intermediate	3,0,0,0,0,0,1,0,0	test	ward_and_allport	0,0,0,2,0,0,1,3,0	82.0	4.0	1.264	0,0,0,0,0,0,1,2,3	to_hand	s650
151.643	0.632	0	PA_with_intermediate	3,0,0,2,0,0,1,0,0	test	ward_and_allport	0,0,0,2,0,0,1,3,0	71.0	4.0	0.632	0,0,0,0,0,0,1,2,3	to_board	s650
152.277	1.898	0	PA_with_intermediate	0,0,0,2,0,0,1,0,0	test	ward_and_allport	0,0,0,2,0,0,1,3,0	89.0	4.0	1.898	0,0,0,0,0,0,1,2,3	to_hand	s650
154.177	0.199	0	PA_with_intermediate	3,0,0,2,0,0,1,0,0	test	ward_and_allport	0,0,0,2,0,0,1,3,0	89.0	4.0	0.199	0,0,0,0,0,0,1,2,3	to_board	s650
154.379	0.586	0	PA_with_intermediate	0,0,0,2,0,0,1,0,0	test	ward_and_allport	0,0,0,2,0,0,1,3,0	89.0	4.0	0.586	0,0,0,0,0,0,1,2,3	to_hand	s650
154.966	0.441	0	PA_with_intermediate	0,0,0,2,0,0,1,3,0	test	ward_and_allport	0,0,0,2,0,0,1,3,0	82.0	4.0	0.441	0,0,0,0,0,0,1,2,3	to_board	s650
155.413	1.0	0	PA_with_intermediate	n/a	test	ward_and_allport	n/a	-1.0	4.0	n/a	n/a	feedback	s650
156.413	1.816	0	PA_with_intermediate	n/a	test	ward_and_allport	n/a	-1.0	4.0	n/a	n/a	ITI	s650
158.233	3.479	1	PA_without_intermediate	1,2,0,0,0,0,0,0,0	test	ward_and_allport	0,0,0,2,0,0,3,1,0	89.0	5.0	3.479	1,2,3,0,0,0,0,0,0	to_hand	s650
161.713	0.37	0	PA_without_intermediate	1,2,0,0,0,0,3,0,0	test	ward_and_allport	0,0,0,2,0,0,3,1,0	82.0	5.0	0.37	1,2,3,0,0,0,0,0,0	to_board	s650
162.086	2.008	0	PA_without_intermediate	1,0,0,0,0,0,3,0,0	test	ward_and_allport	0,0,0,2,0,0,3,1,0	89.0	5.0	2.008	1,2,3,0,0,0,0,0,0	to_hand	s650
164.096	0.27	0	PA_without_intermediate	1,0,0,2,0,0,3,0,0	test	ward_and_allport	0,0,0,2,0,0,3,1,0	71.0	5.0	0.27	1,2,3,0,0,0,0,0,0	to_board	s650
164.37	0.925	0	PA_without_intermediate	0,0,0,2,0,0,3,0,0	test	ward_and_allport	0,0,0,2,0,0,3,1,0	89.0	5.0	0.925	1,2,3,0,0,0,0,0,0	to_hand	s650
165.296	0.27	0	PA_without_intermediate	0,0,0,2,0,0,3,1,0	test	ward_and_allport	0,0,0,2,0,0,3,1,0	82.0	5.0	0.27	1,2,3,0,0,0,0,0,0	to_board	s650
165.57	1.0	0	PA_without_intermediate	n/a	test	ward_and_allport	n/a	-1.0	5.0	n/a	n/a	feedback	s650
166.57	2.088	0	PA_without_intermediate	n/a	test	ward_and_allport	n/a	-1.0	5.0	n/a	n/a	ITI	s650
168.663	2.819	1	PA_without_intermediate	0,0,0,0,0,0,1,2,0	test	ward_and_allport	1,0,0,3,2,0,0,0,0	82.0	6.0	2.819	0,0,0,0,0,0,1,2,3	to_hand	s650
171.483	0.72	0	PA_without_intermediate	0,0,0,3,0,0,1,2,0	test	ward_and_allport	1,0,0,3,2,0,0,0,0	71.0	6.0	0.72	0,0,0,0,0,0,1,2,3	to_board	s650
172.207	1.308	0	PA_without_intermediate	0,0,0,3,0,0,1,0,0	test	ward_and_allport	1,0,0,3,2,0,0,0,0	82.0	6.0	1.308	0,0,0,0,0,0,1,2,3	to_hand	s650
173.516	0.732	0	PA_without_intermediate	0,0,0,3,2,0,1,0,0	test	ward_and_allport	1,0,0,3,2,0,0,0,0	71.0	6.0	0.732	0,0,0,0,0,0,1,2,3	to_board	s650
174.253	1.065	0	PA_without_intermediate	0,0,0,3,2,0,0,0,0	test	ward_and_allport	1,0,0,3,2,0,0,0,0	82.0	6.0	1.065	0,0,0,0,0,0,1,2,3	to_hand	s650
175.32	0.489	0	PA_without_intermediate	1,0,0,3,2,0,0,0,0	test	ward_and_allport	1,0,0,3,2,0,0,0,0	89.0	6.0	0.489	0,0,0,0,0,0,1,2,3	to_board	s650
175.814	1.0	0	PA_without_intermediate	n/a	test	ward_and_allport	n/a	-1.0	6.0	n/a	n/a	feedback	s650
176.814	1.136	0	PA_without_intermediate	n/a	test	ward_and_allport	n/a	-1.0	6.0	n/a	n/a	ITI	s650
177.955	2.635	1	PA_without_intermediate	0,0,0,0,0,0,1,2,0	test	ward_and_allport	2,0,0,3,1,0,0,0,0	82.0	7.0	2.635	0,0,0,0,0,0,1,2,3	to_hand	s650
180.592	0.521	0	PA_without_intermediate	0,0,0,3,0,0,1,2,0	test	ward_and_allport	2,0,0,3,1,0,0,0,0	71.0	7.0	0.521	0,0,0,0,0,0,1,2,3	to_board	s650
181.117	1.355	0	PA_without_intermediate	0,0,0,3,0,0,1,0,0	test	ward_and_allport	2,0,0,3,1,0,0,0,0	82.0	7.0	1.355	0,0,0,0,0,0,1,2,3	to_hand	s650
182.474	0.723	0	PA_without_intermediate	2,0,0,3,0,0,1,0,0	test	ward_and_allport	2,0,0,3,1,0,0,0,0	89.0	7.0	0.723	0,0,0,0,0,0,1,2,3	to_board	s650
183.201	0.537	0	PA_without_intermediate	2,0,0,3,0,0,0,0,0	test	ward_and_allport	2,0,0,3,1,0,0,0,0	82.0	7.0	0.537	0,0,0,0,0,0,1,2,3	to_hand	s650
183.74	0.322	0	PA_without_intermediate	2,0,0,3,1,0,0,0,0	test	ward_and_allport	2,0,0,3,1,0,0,0,0	71.0	7.0	0.322	0,0,0,0,0,0,1,2,3	to_board	s650
184.068	1.0	0	PA_without_intermediate	n/a	test	ward_and_allport	n/a	-1.0	7.0	n/a	n/a	feedback	s650
185.068	6.168	0	PA_without_intermediate	n/a	test	ward_and_allport	n/a	-1.0	7.0	n/a	n/a	ITI	s650
191.241	4.298	1	PA_without_intermediate	0,0,0,1,2,0,0,0,0	test	ward_and_allport	2,0,0,0,0,0,3,1,0	71.0	8.0	4.298	0,0,0,1,2,3,0,0,0	to_hand	s650
195.54	0.429	0	PA_without_intermediate	0,0,0,1,2,0,3,0,0	test	ward_and_allport	2,0,0,0,0,0,3,1,0	82.0	8.0	0.429	0,0,0,1,2,3,0,0,0	to_board	s650
195.973	1.236	0	PA_without_intermediate	0,0,0,1,0,0,3,0,0	test	ward_and_allport	2,0,0,0,0,0,3,1,0	71.0	8.0	1.236	0,0,0,1,2,3,0,0,0	to_hand	s650
197.209	0.357	0	PA_without_intermediate	2,0,0,1,0,0,3,0,0	test	ward_and_allport	2,0,0,0,0,0,3,1,0	89.0	8.0	0.357	0,0,0,1,2,3,0,0,0	to_board	s650
197.57	0.395	0	PA_without_intermediate	2,0,0,0,0,0,3,0,0	test	ward_and_allport	2,0,0,0,0,0,3,1,0	71.0	8.0	0.395	0,0,0,1,2,3,0,0,0	to_hand	s650
197.966	0.316	0	PA_without_intermediate	2,0,0,0,0,0,3,1,0	test	ward_and_allport	2,0,0,0,0,0,3,1,0	82.0	8.0	0.316	0,0,0,1,2,3,0,0,0	to_board	s650
198.287	1.0	0	PA_without_intermediate	n/a	test	ward_and_allport	n/a	-1.0	8.0	n/a	n/a	feedback	s650
199.287	1.816	0	PA_without_intermediate	n/a	test	ward_and_allport	n/a	-1.0	8.0	n/a	n/a	ITI	s650
201.108	4.165	1	PA_with_intermediate	1,2,0,0,0,0,0,0,0	test	ward_and_allport	1,3,0,2,0,0,0,0,0	89.0	9.0	4.165	1,2,3,0,0,0,0,0,0	to_hand	s650
205.274	0.488	0	PA_with_intermediate	1,2,0,0,0,0,3,0,0	test	ward_and_allport	1,3,0,2,0,0,0,0,0	82.0	9.0	0.488	1,2,3,0,0,0,0,0,0	to_board	s650
205.766	1.097	0	PA_with_intermediate	1,0,0,0,0,0,3,0,0	test	ward_and_allport	1,3,0,2,0,0,0,0,0	89.0	9.0	1.097	1,2,3,0,0,0,0,0,0	to_hand	s650
206.864	0.217	0	PA_with_intermediate	1,2,0,0,0,0,3,0,0	test	ward_and_allport	1,3,0,2,0,0,0,0,0	89.0	9.0	0.217	1,2,3,0,0,0,0,0,0	to_board	s650
207.085	0.972	0	PA_with_intermediate	1,0,0,0,0,0,3,0,0	test	ward_and_allport	1,3,0,2,0,0,0,0,0	89.0	9.0	0.972	1,2,3,0,0,0,0,0,0	to_hand	s650
208.058	0.352	0	PA_with_intermediate	1,0,0,2,0,0,3,0,0	test	ward_and_allport	1,3,0,2,0,0,0,0,0	71.0	9.0	0.352	1,2,3,0,0,0,0,0,0	to_board	s650
208.415	1.723	0	PA_with_intermediate	1,0,0,2,0,0,0,0,0	test	ward_and_allport	1,3,0,2,0,0,0,0,0	82.0	9.0	1.723	1,2,3,0,0,0,0,0,0	to_hand	s650
210.14	0.418	0	PA_with_intermediate	1,3,0,2,0,0,0,0,0	test	ward_and_allport	1,3,0,2,0,0,0,0,0	89.0	9.0	0.418	1,2,3,0,0,0,0,0,0	to_board	s650
210.564	1.0	0	PA_with_intermediate	n/a	test	ward_and_allport	n/a	-1.0	9.0	n/a	n/a	feedback	s650
211.564	1.952	0	PA_with_intermediate	n/a	test	ward_and_allport	n/a	-1.0	9.0	n/a	n/a	ITI	s650
213.522	4.659	1	PA_with_intermediate	0,0,0,0,0,0,1,2,0	test	ward_and_allport	0,0,0,2,3,0,1,0,0	82.0	10.0	4.659	0,0,0,0,0,0,1,2,3	to_hand	s650
218.183	2.835	0	PA_with_intermediate	3,0,0,0,0,0,1,2,0	test	ward_and_allport	0,0,0,2,3,0,1,0,0	89.0	10.0	2.835	0,0,0,0,0,0,1,2,3	to_board	s650
221.021	1.078	0	PA_with_intermediate	3,0,0,0,0,0,1,0,0	test	ward_and_allport	0,0,0,2,3,0,1,0,0	82.0	10.0	1.078	0,0,0,0,0,0,1,2,3	to_hand	s650
222.101	0.371	0	PA_with_intermediate	3,0,0,2,0,0,1,0,0	test	ward_and_allport	0,0,0,2,3,0,1,0,0	71.0	10.0	0.371	0,0,0,0,0,0,1,2,3	to_board	s650
222.476	0.876	0	PA_with_intermediate	0,0,0,2,0,0,1,0,0	test	ward_and_allport	0,0,0,2,3,0,1,0,0	89.0	10.0	0.876	0,0,0,0,0,0,1,2,3	to_hand	s650
223.353	0.406	0	PA_with_intermediate	0,0,0,2,0,0,1,3,0	test	ward_and_allport	0,0,0,2,3,0,1,0,0	82.0	10.0	0.406	0,0,0,0,0,0,1,2,3	to_board	s650
223.762	3.741	0	PA_with_intermediate	0,0,0,2,0,0,1,0,0	test	ward_and_allport	0,0,0,2,3,0,1,0,0	82.0	10.0	3.741	0,0,0,0,0,0,1,2,3	to_hand	s650
227.505	0.994	0	PA_with_intermediate	0,0,0,2,3,0,1,0,0	test	ward_and_allport	0,0,0,2,3,0,1,0,0	71.0	10.0	0.994	0,0,0,0,0,0,1,2,3	to_board	s650
228.506	1.0	0	PA_with_intermediate	n/a	test	ward_and_allport	n/a	-1.0	10.0	n/a	n/a	feedback	s650
229.506	1.136	0	PA_with_intermediate	n/a	test	ward_and_allport	n/a	-1.0	10.0	n/a	n/a	ITI	s650
230.648	3.756	1	PA_without_intermediate	1,2,0,0,0,0,0,0,0	test	ward_and_allport	0,0,0,2,0,0,3,1,0	89.0	11.0	3.756	1,2,3,0,0,0,0,0,0	to_hand	s650
234.405	0.525	0	PA_without_intermediate	1,2,0,0,0,0,3,0,0	test	ward_and_allport	0,0,0,2,0,0,3,1,0	82.0	11.0	0.525	1,2,3,0,0,0,0,0,0	to_board	s650
234.935	3.764	0	PA_without_intermediate	1,0,0,0,0,0,3,0,0	test	ward_and_allport	0,0,0,2,0,0,3,1,0	89.0	11.0	3.764	1,2,3,0,0,0,0,0,0	to_hand	s650
238.701	0.734	0	PA_without_intermediate	1,0,0,2,0,0,3,0,0	test	ward_and_allport	0,0,0,2,0,0,3,1,0	71.0	11.0	0.734	1,2,3,0,0,0,0,0,0	to_board	s650
239.441	2.151	0	PA_without_intermediate	0,0,0,2,0,0,3,0,0	test	ward_and_allport	0,0,0,2,0,0,3,1,0	89.0	11.0	2.151	1,2,3,0,0,0,0,0,0	to_hand	s650
241.594	1.438	0	PA_without_intermediate	0,0,0,2,0,0,3,1,0	test	ward_and_allport	0,0,0,2,0,0,3,1,0	82.0	11.0	1.438	1,2,3,0,0,0,0,0,0	to_board	s650
243.037	1.0	0	PA_without_intermediate	n/a	test	ward_and_allport	n/a	-1.0	11.0	n/a	n/a	feedback	s650
244.037	1.68	0	PA_without_intermediate	n/a	test	ward_and_allport	n/a	-1.0	11.0	n/a	n/a	ITI	s650
245.723	3.45	1	PA_without_intermediate	1,2,0,0,0,0,0,0,0	test	ward_and_allport	0,0,0,3,2,0,1,0,0	89.0	12.0	3.45	1,2,3,0,0,0,0,0,0	to_hand	s650
249.175	0.398	0	PA_without_intermediate	1,2,0,3,0,0,0,0,0	test	ward_and_allport	0,0,0,3,2,0,1,0,0	71.0	12.0	0.398	1,2,3,0,0,0,0,0,0	to_board	s650
249.578	1.252	0	PA_without_intermediate	1,0,0,3,0,0,0,0,0	test	ward_and_allport	0,0,0,3,2,0,1,0,0	89.0	12.0	1.252	1,2,3,0,0,0,0,0,0	to_hand	s650
250.832	0.797	0	PA_without_intermediate	1,0,0,3,2,0,0,0,0	test	ward_and_allport	0,0,0,3,2,0,1,0,0	71.0	12.0	0.797	1,2,3,0,0,0,0,0,0	to_board	s650
251.634	1.699	0	PA_without_intermediate	0,0,0,3,2,0,0,0,0	test	ward_and_allport	0,0,0,3,2,0,1,0,0	89.0	12.0	1.699	1,2,3,0,0,0,0,0,0	to_hand	s650
253.335	0.751	0	PA_without_intermediate	0,0,0,3,2,0,1,0,0	test	ward_and_allport	0,0,0,3,2,0,1,0,0	82.0	12.0	0.751	1,2,3,0,0,0,0,0,0	to_board	s650
254.092	1.0	0	PA_without_intermediate	n/a	test	ward_and_allport	n/a	-1.0	12.0	n/a	n/a	feedback	s650
255.092	2.088	0	PA_without_intermediate	n/a	test	ward_and_allport	n/a	-1.0	12.0	n/a	n/a	ITI	s650
257.185	6.002	1	PA_with_intermediate	0,0,0,0,0,0,1,2,0	test	ward_and_allport	0,0,0,2,3,0,1,0,0	82.0	13.0	6.002	0,0,0,0,0,0,1,2,3	to_hand	s650
263.188	1.346	0	PA_with_intermediate	3,0,0,0,0,0,1,2,0	test	ward_and_allport	0,0,0,2,3,0,1,0,0	89.0	13.0	1.346	0,0,0,0,0,0,1,2,3	to_board	s650
264.54	2.161	0	PA_with_intermediate	3,0,0,0,0,0,1,0,0	test	ward_and_allport	0,0,0,2,3,0,1,0,0	82.0	13.0	2.161	0,0,0,0,0,0,1,2,3	to_hand	s650
266.702	0.436	0	PA_with_intermediate	3,0,0,2,0,0,1,0,0	test	ward_and_allport	0,0,0,2,3,0,1,0,0	71.0	13.0	0.436	0,0,0,0,0,0,1,2,3	to_board	s650
267.142	1.096	0	PA_with_intermediate	0,0,0,2,0,0,1,0,0	test	ward_and_allport	0,0,0,2,3,0,1,0,0	89.0	13.0	1.096	0,0,0,0,0,0,1,2,3	to_hand	s650
268.24	1.539	0	PA_with_intermediate	0,0,0,2,3,0,1,0,0	test	ward_and_allport	0,0,0,2,3,0,1,0,0	71.0	13.0	1.539	0,0,0,0,0,0,1,2,3	to_board	s650
269.785	1.0	0	PA_with_intermediate	n/a	test	ward_and_allport	n/a	-1.0	13.0	n/a	n/a	feedback	s650
270.785	1.0	0	PA_with_intermediate	n/a	test	ward_and_allport	n/a	-1.0	13.0	n/a	n/a	ITI	s650
271.79	3.143	1	PA_without_intermediate	0,0,0,0,0,0,1,2,0	test	ward_and_allport	2,0,0,3,1,0,0,0,0	82.0	14.0	3.143	0,0,0,0,0,0,1,2,3	to_hand	s650
274.934	0.428	0	PA_without_intermediate	0,0,0,3,0,0,1,2,0	test	ward_and_allport	2,0,0,3,1,0,0,0,0	71.0	14.0	0.428	0,0,0,0,0,0,1,2,3	to_board	s650
275.367	2.386	0	PA_without_intermediate	0,0,0,3,0,0,1,0,0	test	ward_and_allport	2,0,0,3,1,0,0,0,0	82.0	14.0	2.386	0,0,0,0,0,0,1,2,3	to_hand	s650
277.754	0.821	0	PA_without_intermediate	2,0,0,3,0,0,1,0,0	test	ward_and_allport	2,0,0,3,1,0,0,0,0	89.0	14.0	0.821	0,0,0,0,0,0,1,2,3	to_board	s650
278.58	1.887	0	PA_without_intermediate	2,0,0,3,0,0,0,0,0	test	ward_and_allport	2,0,0,3,1,0,0,0,0	82.0	14.0	1.887	0,0,0,0,0,0,1,2,3	to_hand	s650
280.469	0.465	0	PA_without_intermediate	2,0,0,3,1,0,0,0,0	test	ward_and_allport	2,0,0,3,1,0,0,0,0	71.0	14.0	0.465	0,0,0,0,0,0,1,2,3	to_board	s650
280.939	1.0	0	PA_without_intermediate	n/a	test	ward_and_allport	n/a	-1.0	14.0	n/a	n/a	feedback	s650
281.939	1.0	0	PA_without_intermediate	n/a	test	ward_and_allport	n/a	-1.0	14.0	n/a	n/a	ITI	s650
287.947	3.951	1	PA_without_intermediate	1,2,0,0,0,0,0,0,0	test	ward_and_allport	0,0,0,3,2,0,1,0,0	89.0	15.0	3.951	1,2,3,0,0,0,0,0,0	to_hand	s650
291.899	0.65	0	PA_without_intermediate	1,2,0,3,0,0,0,0,0	test	ward_and_allport	0,0,0,3,2,0,1,0,0	71.0	15.0	0.65	1,2,3,0,0,0,0,0,0	to_board	s650
292.553	1.491	0	PA_without_intermediate	1,0,0,3,0,0,0,0,0	test	ward_and_allport	0,0,0,3,2,0,1,0,0	89.0	15.0	1.491	1,2,3,0,0,0,0,0,0	to_hand	s650
294.045	0.362	0	PA_without_intermediate	1,0,0,3,2,0,0,0,0	test	ward_and_allport	0,0,0,3,2,0,1,0,0	71.0	15.0	0.362	1,2,3,0,0,0,0,0,0	to_board	s650
294.413	0.64	0	PA_without_intermediate	0,0,0,3,2,0,0,0,0	test	ward_and_allport	0,0,0,3,2,0,1,0,0	89.0	15.0	0.64	1,2,3,0,0,0,0,0,0	to_hand	s650
295.054	0.584	0	PA_without_intermediate	0,0,0,3,2,0,1,0,0	test	ward_and_allport	0,0,0,3,2,0,1,0,0	82.0	15.0	0.584	1,2,3,0,0,0,0,0,0	to_board	s650
295.644	1.0	0	PA_without_intermediate	n/a	test	ward_and_allport	n/a	-1.0	15.0	n/a	n/a	feedback	s650
296.644	1.0	0	PA_without_intermediate	n/a	test	ward_and_allport	n/a	-1.0	15.0	n/a	n/a	ITI	s650
297.649	5.023	1	PA_with_intermediate	1,2,0,0,0,0,0,0,0	test	ward_and_allport	1,0,0,0,0,0,2,3,0	89.0	16.0	5.023	1,2,3,0,0,0,0,0,0	to_hand	s650
302.674	0.49	0	PA_with_intermediate	1,2,0,3,0,0,0,0,0	test	ward_and_allport	1,0,0,0,0,0,2,3,0	71.0	16.0	0.49	1,2,3,0,0,0,0,0,0	to_board	s650
303.169	0.959	0	PA_with_intermediate	1,0,0,3,0,0,0,0,0	test	ward_and_allport	1,0,0,0,0,0,2,3,0	89.0	16.0	0.959	1,2,3,0,0,0,0,0,0	to_hand	s650
304.129	0.72	0	PA_with_intermediate	1,0,0,3,0,0,2,0,0	test	ward_and_allport	1,0,0,0,0,0,2,3,0	82.0	16.0	0.72	1,2,3,0,0,0,0,0,0	to_board	s650
304.855	1.804	0	PA_with_intermediate	1,0,0,0,0,0,2,0,0	test	ward_and_allport	1,0,0,0,0,0,2,3,0	71.0	16.0	1.804	1,2,3,0,0,0,0,0,0	to_hand	s650
306.66	0.443	0	PA_with_intermediate	1,0,0,0,0,0,2,3,0	test	ward_and_allport	1,0,0,0,0,0,2,3,0	82.0	16.0	0.443	1,2,3,0,0,0,0,0,0	to_board	s650
307.109	1.0	0	PA_with_intermediate	n/a	test	ward_and_allport	n/a	-1.0	16.0	n/a	n/a	feedback	s650
308.109	1.544	0	PA_with_intermediate	n/a	test	ward_and_allport	n/a	-1.0	16.0	n/a	n/a	ITI	s650
309.659	3.485	1	PA_without_intermediate	0,0,0,0,0,0,1,2,0	test	ward_and_allport	3,1,0,2,0,0,0,0,0	82.0	17.0	3.485	0,0,0,0,0,0,1,2,3	to_hand	s650
313.145	1.292	0	PA_without_intermediate	3,0,0,0,0,0,1,2,0	test	ward_and_allport	3,1,0,2,0,0,0,0,0	89.0	17.0	1.292	0,0,0,0,0,0,1,2,3	to_board	s650
314.443	1.766	0	PA_without_intermediate	3,0,0,0,0,0,1,0,0	test	ward_and_allport	3,1,0,2,0,0,0,0,0	82.0	17.0	1.766	0,0,0,0,0,0,1,2,3	to_hand	s650
316.21	0.459	0	PA_without_intermediate	3,0,0,2,0,0,1,0,0	test	ward_and_allport	3,1,0,2,0,0,0,0,0	71.0	17.0	0.459	0,0,0,0,0,0,1,2,3	to_board	s650
316.675	1.765	0	PA_without_intermediate	3,0,0,2,0,0,0,0,0	test	ward_and_allport	3,1,0,2,0,0,0,0,0	82.0	17.0	1.765	0,0,0,0,0,0,1,2,3	to_hand	s650
318.441	1.578	0	PA_without_intermediate	3,1,0,2,0,0,0,0,0	test	ward_and_allport	3,1,0,2,0,0,0,0,0	89.0	17.0	1.578	0,0,0,0,0,0,1,2,3	to_board	s650
320.025	1.0	0	PA_without_intermediate	n/a	test	ward_and_allport	n/a	-1.0	17.0	n/a	n/a	feedback	s650
321.025	1.272	0	PA_without_intermediate	n/a	test	ward_and_allport	n/a	-1.0	17.0	n/a	n/a	ITI	s650
322.304	10.172	1	PA_with_intermediate	0,0,0,1,2,0,0,0,0	test	ward_and_allport	0,0,0,1,0,0,2,3,0	71.0	18.0	10.172	0,0,0,1,2,3,0,0,0	to_hand	s650
332.477	1.693	0	PA_with_intermediate	3,0,0,1,2,0,0,0,0	test	ward_and_allport	0,0,0,1,0,0,2,3,0	89.0	18.0	1.693	0,0,0,1,2,3,0,0,0	to_board	s650
334.176	0.923	0	PA_with_intermediate	3,0,0,1,0,0,0,0,0	test	ward_and_allport	0,0,0,1,0,0,2,3,0	71.0	18.0	0.923	0,0,0,1,2,3,0,0,0	to_hand	s650
335.1	0.426	0	PA_with_intermediate	3,0,0,1,0,0,2,0,0	test	ward_and_allport	0,0,0,1,0,0,2,3,0	82.0	18.0	0.426	0,0,0,1,2,3,0,0,0	to_board	s650
335.532	1.206	0	PA_with_intermediate	0,0,0,1,0,0,2,0,0	test	ward_and_allport	0,0,0,1,0,0,2,3,0	89.0	18.0	1.206	0,0,0,1,2,3,0,0,0	to_hand	s650
336.739	1.108	0	PA_with_intermediate	0,0,0,1,0,0,2,3,0	test	ward_and_allport	0,0,0,1,0,0,2,3,0	82.0	18.0	1.108	0,0,0,1,2,3,0,0,0	to_board	s650
337.855	1.0	0	PA_with_intermediate	n/a	test	ward_and_allport	n/a	-1.0	18.0	n/a	n/a	feedback	s650
338.855	3.04	0	PA_with_intermediate	n/a	test	ward_and_allport	n/a	-1.0	18.0	n/a	n/a	ITI	s650
341.901	3.733	1	PA_with_intermediate	0,0,0,0,0,0,1,2,0	test	ward_and_allport	2,0,0,0,0,0,1,3,0	82.0	19.0	3.733	0,0,0,0,0,0,1,2,3	to_hand	s650
345.634	3.213	0	PA_with_intermediate	0,0,0,3,0,0,1,2,0	test	ward_and_allport	2,0,0,0,0,0,1,3,0	71.0	19.0	3.213	0,0,0,0,0,0,1,2,3	to_board	s650
348.854	0.578	0	PA_with_intermediate	0,0,0,3,0,0,1,0,0	test	ward_and_allport	2,0,0,0,0,0,1,3,0	82.0	19.0	0.578	0,0,0,0,0,0,1,2,3	to_hand	s650
349.434	0.504	0	PA_with_intermediate	2,0,0,3,0,0,1,0,0	test	ward_and_allport	2,0,0,0,0,0,1,3,0	89.0	19.0	0.504	0,0,0,0,0,0,1,2,3	to_board	s650
349.945	2.926	0	PA_with_intermediate	2,0,0,0,0,0,1,0,0	test	ward_and_allport	2,0,0,0,0,0,1,3,0	71.0	19.0	2.926	0,0,0,0,0,0,1,2,3	to_hand	s650
352.873	0.452	0	PA_with_intermediate	2,0,0,0,0,0,1,3,0	test	ward_and_allport	2,0,0,0,0,0,1,3,0	82.0	19.0	0.452	0,0,0,0,0,0,1,2,3	to_board	s650
353.333	1.0	0	PA_with_intermediate	n/a	test	ward_and_allport	n/a	-1.0	19.0	n/a	n/a	feedback	s650
354.333	1.272	0	PA_with_intermediate	n/a	test	ward_and_allport	n/a	-1.0	19.0	n/a	n/a	ITI	s650
355.611	6.292	1	PA_with_intermediate	0,0,0,0,0,0,1,2,0	test	ward_and_allport	0,0,0,2,0,0,1,3,0	82.0	20.0	6.292	0,0,0,0,0,0,1,2,3	to_hand	s650
361.905	1.123	0	PA_with_intermediate	3,0,0,0,0,0,1,2,0	test	ward_and_allport	0,0,0,2,0,0,1,3,0	89.0	20.0	1.123	0,0,0,0,0,0,1,2,3	to_board	s650
363.033	0.885	0	PA_with_intermediate	3,0,0,0,0,0,1,0,0	test	ward_and_allport	0,0,0,2,0,0,1,3,0	82.0	20.0	0.885	0,0,0,0,0,0,1,2,3	to_hand	s650
363.919	0.473	0	PA_with_intermediate	3,0,0,2,0,0,1,0,0	test	ward_and_allport	0,0,0,2,0,0,1,3,0	71.0	20.0	0.473	0,0,0,0,0,0,1,2,3	to_board	s650
364.399	1.009	0	PA_with_intermediate	0,0,0,2,0,0,1,0,0	test	ward_and_allport	0,0,0,2,0,0,1,3,0	89.0	20.0	1.009	0,0,0,0,0,0,1,2,3	to_hand	s650
365.408	0.506	0	PA_with_intermediate	0,0,0,2,0,0,1,3,0	test	ward_and_allport	0,0,0,2,0,0,1,3,0	82.0	20.0	0.506	0,0,0,0,0,0,1,2,3	to_board	s650
365.922	1.0	0	PA_with_intermediate	n/a	test	ward_and_allport	n/a	-1.0	20.0	n/a	n/a	feedback	s650
366.922	1.136	0	PA_with_intermediate	n/a	test	ward_and_allport	n/a	-1.0	20.0	n/a	n/a	ITI	s650
368.065	5.284	1	PA_with_intermediate	0,0,0,1,2,0,0,0,0	test	ward_and_allport	2,3,0,1,0,0,0,0,0	71.0	21.0	5.284	0,0,0,1,2,3,0,0,0	to_hand	s650
373.35	0.453	0	PA_with_intermediate	0,0,0,1,2,0,3,0,0	test	ward_and_allport	2,3,0,1,0,0,0,0,0	82.0	21.0	0.453	0,0,0,1,2,3,0,0,0	to_board	s650
373.81	1.203	0	PA_with_intermediate	0,0,0,1,0,0,3,0,0	test	ward_and_allport	2,3,0,1,0,0,0,0,0	71.0	21.0	1.203	0,0,0,1,2,3,0,0,0	to_hand	s650
375.014	1.683	0	PA_with_intermediate	2,0,0,1,0,0,3,0,0	test	ward_and_allport	2,3,0,1,0,0,0,0,0	89.0	21.0	1.683	0,0,0,1,2,3,0,0,0	to_board	s650
376.703	1.103	0	PA_with_intermediate	2,0,0,1,0,0,0,0,0	test	ward_and_allport	2,3,0,1,0,0,0,0,0	82.0	21.0	1.103	0,0,0,1,2,3,0,0,0	to_hand	s650
377.807	0.961	0	PA_with_intermediate	2,3,0,1,0,0,0,0,0	test	ward_and_allport	2,3,0,1,0,0,0,0,0	89.0	21.0	0.961	0,0,0,1,2,3,0,0,0	to_board	s650
378.776	1.0	0	PA_with_intermediate	n/a	test	ward_and_allport	n/a	-1.0	21.0	n/a	n/a	feedback	s650
379.776	1.0	0	PA_with_intermediate	n/a	test	ward_and_allport	n/a	-1.0	21.0	n/a	n/a	ITI	s650
380.783	3.459	1	PA_with_intermediate	1,2,0,0,0,0,0,0,0	test	ward_and_allport	1,3,0,0,0,0,2,0,0	89.0	22.0	3.459	1,2,3,0,0,0,0,0,0	to_hand	s650
384.242	4.023	0	PA_with_intermediate	1,2,0,3,0,0,0,0,0	test	ward_and_allport	1,3,0,0,0,0,2,0,0	71.0	22.0	4.023	1,2,3,0,0,0,0,0,0	to_board	s650
388.271	0.85	0	PA_with_intermediate	1,0,0,3,0,0,0,0,0	test	ward_and_allport	1,3,0,0,0,0,2,0,0	89.0	22.0	0.85	1,2,3,0,0,0,0,0,0	to_hand	s650
389.123	0.471	0	PA_with_intermediate	1,0,0,3,0,0,2,0,0	test	ward_and_allport	1,3,0,0,0,0,2,0,0	82.0	22.0	0.471	1,2,3,0,0,0,0,0,0	to_board	s650
389.601	0.817	0	PA_with_intermediate	1,0,0,0,0,0,2,0,0	test	ward_and_allport	1,3,0,0,0,0,2,0,0	71.0	22.0	0.817	1,2,3,0,0,0,0,0,0	to_hand	s650
390.419	0.929	0	PA_with_intermediate	1,3,0,0,0,0,2,0,0	test	ward_and_allport	1,3,0,0,0,0,2,0,0	89.0	22.0	0.929	1,2,3,0,0,0,0,0,0	to_board	s650
391.357	1.0	0	PA_with_intermediate	n/a	test	ward_and_allport	n/a	-1.0	22.0	n/a	n/a	feedback	s650
392.357	1.0	0	PA_with_intermediate	n/a	test	ward_and_allport	n/a	-1.0	22.0	n/a	n/a	ITI	s650
393.364	3.156	1	PA_without_intermediate	0,0,0,1,2,0,0,0,0	test	ward_and_allport	3,2,0,0,0,0,1,0,0	71.0	23.0	3.156	0,0,0,1,2,3,0,0,0	to_hand	s650
396.521	0.377	0	PA_without_intermediate	3,0,0,1,2,0,0,0,0	test	ward_and_allport	3,2,0,0,0,0,1,0,0	89.0	23.0	0.377	0,0,0,1,2,3,0,0,0	to_board	s650
396.905	2.18	0	PA_without_intermediate	3,0,0,1,0,0,0,0,0	test	ward_and_allport	3,2,0,0,0,0,1,0,0	71.0	23.0	2.18	0,0,0,1,2,3,0,0,0	to_hand	s650
399.086	0.351	0	PA_without_intermediate	3,2,0,1,0,0,0,0,0	test	ward_and_allport	3,2,0,0,0,0,1,0,0	89.0	23.0	0.351	0,0,0,1,2,3,0,0,0	to_board	s650
399.444	1.309	0	PA_without_intermediate	3,2,0,0,0,0,0,0,0	test	ward_and_allport	3,2,0,0,0,0,1,0,0	71.0	23.0	1.309	0,0,0,1,2,3,0,0,0	to_hand	s650
400.754	0.612	0	PA_without_intermediate	3,2,0,0,0,0,1,0,0	test	ward_and_allport	3,2,0,0,0,0,1,0,0	82.0	23.0	0.612	0,0,0,1,2,3,0,0,0	to_board	s650
401.374	1.0	0	PA_without_intermediate	n/a	test	ward_and_allport	n/a	-1.0	23.0	n/a	n/a	feedback	s650
402.374	1.408	0	PA_without_intermediate	n/a	test	ward_and_allport	n/a	-1.0	23.0	n/a	n/a	ITI	s650
403.79	5.341	1	PA_with_intermediate	0,0,0,1,2,0,0,0,0	test	ward_and_allport	2,0,0,1,3,0,0,0,0	71.0	24.0	5.341	0,0,0,1,2,3,0,0,0	to_hand	s650
409.132	0.624	0	PA_with_intermediate	0,0,0,1,2,0,3,0,0	test	ward_and_allport	2,0,0,1,3,0,0,0,0	82.0	24.0	0.624	0,0,0,1,2,3,0,0,0	to_board	s650
409.763	0.926	0	PA_with_intermediate	0,0,0,1,0,0,3,0,0	test	ward_and_allport	2,0,0,1,3,0,0,0,0	71.0	24.0	0.926	0,0,0,1,2,3,0,0,0	to_hand	s650
410.691	0.695	0	PA_with_intermediate	2,0,0,1,0,0,3,0,0	test	ward_and_allport	2,0,0,1,3,0,0,0,0	89.0	24.0	0.695	0,0,0,1,2,3,0,0,0	to_board	s650
411.393	1.026	0	PA_with_intermediate	2,0,0,0,0,0,3,0,0	test	ward_and_allport	2,0,0,1,3,0,0,0,0	71.0	24.0	1.026	0,0,0,1,2,3,0,0,0	to_hand	s650
412.42	2.241	0	PA_with_intermediate	2,0,0,1,0,0,3,0,0	test	ward_and_allport	2,0,0,1,3,0,0,0,0	71.0	24.0	2.241	0,0,0,1,2,3,0,0,0	to_board	s650
414.668	0.782	0	PA_with_intermediate	2,0,0,1,0,0,0,0,0	test	ward_and_allport	2,0,0,1,3,0,0,0,0	82.0	24.0	0.782	0,0,0,1,2,3,0,0,0	to_hand	s650
415.452	0.433	0	PA_with_intermediate	2,0,0,1,3,0,0,0,0	test	ward_and_allport	2,0,0,1,3,0,0,0,0	71.0	24.0	0.433	0,0,0,1,2,3,0,0,0	to_board	s650
415.894	1.0	0	PA_with_intermediate	n/a	test	ward_and_allport	n/a	-1.0	24.0	n/a	n/a	feedback	s650
416.894	2.768	0	PA_with_intermediate	n/a	test	ward_and_allport	n/a	-1.0	24.0	n/a	n/a	ITI	s650
419.67	3.72	1	PA_with_intermediate	0,0,0,1,2,0,0,0,0	test	ward_and_allport	0,0,0,1,3,0,2,0,0	71.0	25.0	3.72	0,0,0,1,2,3,0,0,0	to_hand	s650
423.391	2.991	0	PA_with_intermediate	3,0,0,1,2,0,0,0,0	test	ward_and_allport	0,0,0,1,3,0,2,0,0	89.0	25.0	2.991	0,0,0,1,2,3,0,0,0	to_board	s650
426.39	0.978	0	PA_with_intermediate	3,0,0,1,0,0,0,0,0	test	ward_and_allport	0,0,0,1,3,0,2,0,0	71.0	25.0	0.978	0,0,0,1,2,3,0,0,0	to_hand	s650
427.369	0.462	0	PA_with_intermediate	3,0,0,1,0,0,2,0,0	test	ward_and_allport	0,0,0,1,3,0,2,0,0	82.0	25.0	0.462	0,0,0,1,2,3,0,0,0	to_board	s650
427.838	1.284	0	PA_with_intermediate	0,0,0,1,0,0,2,0,0	test	ward_and_allport	0,0,0,1,3,0,2,0,0	89.0	25.0	1.284	0,0,0,1,2,3,0,0,0	to_hand	s650
429.123	0.508	0	PA_with_intermediate	0,0,0,1,3,0,2,0,0	test	ward_and_allport	0,0,0,1,3,0,2,0,0	71.0	25.0	0.508	0,0,0,1,2,3,0,0,0	to_board	s650
429.64	1.0	0	PA_with_intermediate	n/a	test	ward_and_allport	n/a	-1.0	25.0	n/a	n/a	feedback	s650
430.64	1.68	0	PA_with_intermediate	n/a	test	ward_and_allport	n/a	-1.0	25.0	n/a	n/a	ITI	s650
432.328	12.187	1	PA_without_intermediate	0,0,0,0,0,0,1,2,0	test	ward_and_allport	3,2,0,1,0,0,0,0,0	82.0	26.0	12.187	0,0,0,0,0,0,1,2,3	to_hand	s650
444.516	0.58	0	PA_without_intermediate	3,0,0,0,0,0,1,2,0	test	ward_and_allport	3,2,0,1,0,0,0,0,0	89.0	26.0	0.58	0,0,0,0,0,0,1,2,3	to_board	s650
445.104	1.101	0	PA_without_intermediate	3,0,0,0,0,0,1,0,0	test	ward_and_allport	3,2,0,1,0,0,0,0,0	82.0	26.0	1.101	0,0,0,0,0,0,1,2,3	to_hand	s650
446.207	1.975	0	PA_without_intermediate	3,2,0,0,0,0,1,0,0	test	ward_and_allport	3,2,0,1,0,0,0,0,0	89.0	26.0	1.975	0,0,0,0,0,0,1,2,3	to_board	s650
448.19	0.438	0	PA_without_intermediate	3,2,0,0,0,0,0,0,0	test	ward_and_allport	3,2,0,1,0,0,0,0,0	82.0	26.0	0.438	0,0,0,0,0,0,1,2,3	to_hand	s650
448.63	0.351	0	PA_without_intermediate	3,2,0,1,0,0,0,0,0	test	ward_and_allport	3,2,0,1,0,0,0,0,0	71.0	26.0	0.351	0,0,0,0,0,0,1,2,3	to_board	s650
448.99	1.0	0	PA_without_intermediate	n/a	test	ward_and_allport	n/a	-1.0	26.0	n/a	n/a	feedback	s650
449.99	2.224	0	PA_without_intermediate	n/a	test	ward_and_allport	n/a	-1.0	26.0	n/a	n/a	ITI	s650
452.222	3.759	1	PA_without_intermediate	0,0,0,1,2,0,0,0,0	test	ward_and_allport	1,0,0,0,0,0,3,2,0	71.0	27.0	3.759	0,0,0,1,2,3,0,0,0	to_hand	s650
455.983	0.957	0	PA_without_intermediate	0,0,0,1,2,0,3,0,0	test	ward_and_allport	1,0,0,0,0,0,3,2,0	82.0	27.0	0.957	0,0,0,1,2,3,0,0,0	to_board	s650
456.947	0.431	0	PA_without_intermediate	0,0,0,1,0,0,3,0,0	test	ward_and_allport	1,0,0,0,0,0,3,2,0	71.0	27.0	0.431	0,0,0,1,2,3,0,0,0	to_hand	s650
457.38	0.411	0	PA_without_intermediate	0,0,0,1,0,0,3,2,0	test	ward_and_allport	1,0,0,0,0,0,3,2,0	82.0	27.0	0.411	0,0,0,1,2,3,0,0,0	to_board	s650
457.798	1.261	0	PA_without_intermediate	0,0,0,0,0,0,3,2,0	test	ward_and_allport	1,0,0,0,0,0,3,2,0	71.0	27.0	1.261	0,0,0,1,2,3,0,0,0	to_hand	s650
459.06	0.467	0	PA_without_intermediate	1,0,0,0,0,0,3,2,0	test	ward_and_allport	1,0,0,0,0,0,3,2,0	89.0	27.0	0.467	0,0,0,1,2,3,0,0,0	to_board	s650
459.536	1.0	0	PA_without_intermediate	n/a	test	ward_and_allport	n/a	-1.0	27.0	n/a	n/a	feedback	s650
460.536	2.36	0	PA_without_intermediate	n/a	test	ward_and_allport	n/a	-1.0	27.0	n/a	n/a	ITI	s650
462.904	4.454	1	PA_without_intermediate	1,2,0,0,0,0,0,0,0	test	ward_and_allport	0,0,0,3,1,0,2,0,0	89.0	28.0	4.454	1,2,3,0,0,0,0,0,0	to_hand	s650
467.36	0.46	0	PA_without_intermediate	1,2,0,3,0,0,0,0,0	test	ward_and_allport	0,0,0,3,1,0,2,0,0	71.0	28.0	0.46	1,2,3,0,0,0,0,0,0	to_board	s650
467.827	1.804	0	PA_without_intermediate	1,2,0,0,0,0,0,0,0	test	ward_and_allport	0,0,0,3,1,0,2,0,0	71.0	28.0	1.804	1,2,3,0,0,0,0,0,0	to_hand	s650
469.632	1.937	0	PA_without_intermediate	1,2,0,3,0,0,0,0,0	test	ward_and_allport	0,0,0,3,1,0,2,0,0	71.0	28.0	1.937	1,2,3,0,0,0,0,0,0	to_board	s650
471.577	2.133	0	PA_without_intermediate	1,0,0,3,0,0,0,0,0	test	ward_and_allport	0,0,0,3,1,0,2,0,0	89.0	28.0	2.133	1,2,3,0,0,0,0,0,0	to_hand	s650
473.711	0.985	0	PA_without_intermediate	1,0,0,3,0,0,2,0,0	test	ward_and_allport	0,0,0,3,1,0,2,0,0	82.0	28.0	0.985	1,2,3,0,0,0,0,0,0	to_board	s650
474.704	0.948	0	PA_without_intermediate	0,0,0,3,0,0,2,0,0	test	ward_and_allport	0,0,0,3,1,0,2,0,0	89.0	28.0	0.948	1,2,3,0,0,0,0,0,0	to_hand	s650
475.654	0.565	0	PA_without_intermediate	0,0,0,3,1,0,2,0,0	test	ward_and_allport	0,0,0,3,1,0,2,0,0	71.0	28.0	0.565	1,2,3,0,0,0,0,0,0	to_board	s650
476.228	1.0	0	PA_without_intermediate	n/a	test	ward_and_allport	n/a	-1.0	28.0	n/a	n/a	feedback	s650
477.228	1.0	0	PA_without_intermediate	n/a	test	ward_and_allport	n/a	-1.0	28.0	n/a	n/a	ITI	s650
478.237	4.113	1	PA_without_intermediate	0,0,0,0,0,0,1,2,0	test	ward_and_allport	3,2,0,1,0,0,0,0,0	82.0	29.0	4.113	0,0,0,0,0,0,1,2,3	to_hand	s650
482.351	1.223	0	PA_without_intermediate	3,0,0,0,0,0,1,2,0	test	ward_and_allport	3,2,0,1,0,0,0,0,0	89.0	29.0	1.223	0,0,0,0,0,0,1,2,3	to_board	s650
483.582	0.995	0	PA_without_intermediate	3,0,0,0,0,0,1,0,0	test	ward_and_allport	3,2,0,1,0,0,0,0,0	82.0	29.0	0.995	0,0,0,0,0,0,1,2,3	to_hand	s650
484.579	0.898	0	PA_without_intermediate	3,2,0,0,0,0,1,0,0	test	ward_and_allport	3,2,0,1,0,0,0,0,0	89.0	29.0	0.898	0,0,0,0,0,0,1,2,3	to_board	s650
485.485	0.91	0	PA_without_intermediate	3,2,0,0,0,0,0,0,0	test	ward_and_allport	3,2,0,1,0,0,0,0,0	82.0	29.0	0.91	0,0,0,0,0,0,1,2,3	to_hand	s650
486.396	1.011	0	PA_without_intermediate	3,2,0,1,0,0,0,0,0	test	ward_and_allport	3,2,0,1,0,0,0,0,0	71.0	29.0	1.011	0,0,0,0,0,0,1,2,3	to_board	s650
487.417	1.0	0	PA_without_intermediate	n/a	test	ward_and_allport	n/a	-1.0	29.0	n/a	n/a	feedback	s650
488.417	1.408	0	PA_without_intermediate	n/a	test	ward_and_allport	n/a	-1.0	29.0	n/a	n/a	ITI	s650
494.835	3.564	1	PA_with_intermediate	0,0,0,1,2,0,0,0,0	test	ward_and_allport	2,3,0,1,0,0,0,0,0	71.0	30.0	3.564	0,0,0,1,2,3,0,0,0	to_hand	s650
498.4	0.398	0	PA_with_intermediate	0,0,0,1,2,0,3,0,0	test	ward_and_allport	2,3,0,1,0,0,0,0,0	82.0	30.0	0.398	0,0,0,1,2,3,0,0,0	to_board	s650
498.806	0.82	0	PA_with_intermediate	0,0,0,1,0,0,3,0,0	test	ward_and_allport	2,3,0,1,0,0,0,0,0	71.0	30.0	0.82	0,0,0,1,2,3,0,0,0	to_hand	s650
499.627	0.628	0	PA_with_intermediate	2,0,0,1,0,0,3,0,0	test	ward_and_allport	2,3,0,1,0,0,0,0,0	89.0	30.0	0.628	0,0,0,1,2,3,0,0,0	to_board	s650
500.263	2.698	0	PA_with_intermediate	2,0,0,1,0,0,0,0,0	test	ward_and_allport	2,3,0,1,0,0,0,0,0	82.0	30.0	2.698	0,0,0,1,2,3,0,0,0	to_hand	s650
502.963	0.365	0	PA_with_intermediate	2,3,0,1,0,0,0,0,0	test	ward_and_allport	2,3,0,1,0,0,0,0,0	89.0	30.0	0.365	0,0,0,1,2,3,0,0,0	to_board	s650
503.339	1.0	0	PA_with_intermediate	n/a	test	ward_and_allport	n/a	-1.0	30.0	n/a	n/a	feedback	s650
504.339	1.136	0	PA_with_intermediate	n/a	test	ward_and_allport	n/a	-1.0	30.0	n/a	n/a	ITI	s650
505.485	3.54	1	PA_without_intermediate	0,0,0,0,0,0,1,2,0	test	ward_and_allport	1,0,0,3,2,0,0,0,0	82.0	31.0	3.54	0,0,0,0,0,0,1,2,3	to_hand	s650
509.026	0.554	0	PA_without_intermediate	0,0,0,3,0,0,1,2,0	test	ward_and_allport	1,0,0,3,2,0,0,0,0	71.0	31.0	0.554	0,0,0,0,0,0,1,2,3	to_board	s650
509.589	2.121	0	PA_without_intermediate	0,0,0,3,0,0,1,0,0	test	ward_and_allport	1,0,0,3,2,0,0,0,0	82.0	31.0	2.121	0,0,0,0,0,0,1,2,3	to_hand	s650
511.712	0.69	0	PA_without_intermediate	0,0,0,3,2,0,1,0,0	test	ward_and_allport	1,0,0,3,2,0,0,0,0	71.0	31.0	0.69	0,0,0,0,0,0,1,2,3	to_board	s650
512.411	0.778	0	PA_without_intermediate	0,0,0,3,2,0,0,0,0	test	ward_and_allport	1,0,0,3,2,0,0,0,0	82.0	31.0	0.778	0,0,0,0,0,0,1,2,3	to_hand	s650
513.191	0.61	0	PA_without_intermediate	1,0,0,3,2,0,0,0,0	test	ward_and_allport	1,0,0,3,2,0,0,0,0	89.0	31.0	0.61	0,0,0,0,0,0,1,2,3	to_board	s650
513.811	1.0	0	PA_without_intermediate	n/a	test	ward_and_allport	n/a	-1.0	31.0	n/a	n/a	feedback	s650
514.811	4.128	0	PA_without_intermediate	n/a	test	ward_and_allport	n/a	-1.0	31.0	n/a	n/a	ITI	s650
518.95	3.194	1	PA_without_intermediate	0,0,0,1,2,0,0,0,0	test	ward_and_allport	1,0,0,0,0,0,3,2,0	71.0	32.0	3.194	0,0,0,1,2,3,0,0,0	to_hand	s650
522.146	0.337	0	PA_without_intermediate	0,0,0,1,2,0,3,0,0	test	ward_and_allport	1,0,0,0,0,0,3,2,0	82.0	32.0	0.337	0,0,0,1,2,3,0,0,0	to_board	s650
522.492	0.453	0	PA_without_intermediate	0,0,0,1,0,0,3,0,0	test	ward_and_allport	1,0,0,0,0,0,3,2,0	71.0	32.0	0.453	0,0,0,1,2,3,0,0,0	to_hand	s650
522.945	0.504	0	PA_without_intermediate	0,0,0,1,0,0,3,2,0	test	ward_and_allport	1,0,0,0,0,0,3,2,0	82.0	32.0	0.504	0,0,0,1,2,3,0,0,0	to_board	s650
523.457	1.742	0	PA_without_intermediate	0,0,0,0,0,0,3,2,0	test	ward_and_allport	1,0,0,0,0,0,3,2,0	71.0	32.0	1.742	0,0,0,1,2,3,0,0,0	to_hand	s650
525.201	0.315	0	PA_without_intermediate	1,0,0,0,0,0,3,2,0	test	ward_and_allport	1,0,0,0,0,0,3,2,0	89.0	32.0	0.315	0,0,0,1,2,3,0,0,0	to_board	s650
525.527	1.0	0	PA_without_intermediate	n/a	test	ward_and_allport	n/a	-1.0	32.0	n/a	n/a	feedback	s650
526.527	1.136	0	PA_without_intermediate	n/a	test	ward_and_allport	n/a	-1.0	32.0	n/a	n/a	ITI	s650
527.672	3.603	1	PA_without_intermediate	1,2,0,0,0,0,0,0,0	test	ward_and_allport	0,0,0,3,1,0,2,0,0	89.0	33.0	3.603	1,2,3,0,0,0,0,0,0	to_hand	s650
531.276	0.478	0	PA_without_intermediate	1,2,0,3,0,0,0,0,0	test	ward_and_allport	0,0,0,3,1,0,2,0,0	71.0	33.0	0.478	1,2,3,0,0,0,0,0,0	to_board	s650
531.761	3.567	0	PA_without_intermediate	1,0,0,3,0,0,0,0,0	test	ward_and_allport	0,0,0,3,1,0,2,0,0	89.0	33.0	3.567	1,2,3,0,0,0,0,0,0	to_hand	s650
535.329	0.323	0	PA_without_intermediate	1,0,0,3,0,0,2,0,0	test	ward_and_allport	0,0,0,3,1,0,2,0,0	82.0	33.0	0.323	1,2,3,0,0,0,0,0,0	to_board	s650
535.661	0.331	0	PA_without_intermediate	1,0,0,0,0,0,2,0,0	test	ward_and_allport	0,0,0,3,1,0,2,0,0	71.0	33.0	0.331	1,2,3,0,0,0,0,0,0	to_hand	s650
535.993	1.317	0	PA_without_intermediate	1,0,0,3,0,0,2,0,0	test	ward_and_allport	0,0,0,3,1,0,2,0,0	71.0	33.0	1.317	1,2,3,0,0,0,0,0,0	to_board	s650
537.32	0.696	0	PA_without_intermediate	0,0,0,3,0,0,2,0,0	test	ward_and_allport	0,0,0,3,1,0,2,0,0	89.0	33.0	0.696	1,2,3,0,0,0,0,0,0	to_hand	s650
538.016	0.315	0	PA_without_intermediate	0,0,0,3,1,0,2,0,0	test	ward_and_allport	0,0,0,3,1,0,2,0,0	71.0	33.0	0.315	1,2,3,0,0,0,0,0,0	to_board	s650
538.343	1.0	0	PA_without_intermediate	n/a	test	ward_and_allport	n/a	-1.0	33.0	n/a	n/a	feedback	s650
539.343	4.264	0	PA_without_intermediate	n/a	test	ward_and_allport	n/a	-1.0	33.0	n/a	n/a	ITI	s650
543.617	3.58	1	PA_with_intermediate	0,0,0,1,2,0,0,0,0	test	ward_and_allport	0,0,0,1,0,0,2,3,0	71.0	34.0	3.58	0,0,0,1,2,3,0,0,0	to_hand	s650
547.199	0.356	0	PA_with_intermediate	3,0,0,1,2,0,0,0,0	test	ward_and_allport	0,0,0,1,0,0,2,3,0	89.0	34.0	0.356	0,0,0,1,2,3,0,0,0	to_board	s650
547.565	0.588	0	PA_with_intermediate	3,0,0,1,0,0,0,0,0	test	ward_and_allport	0,0,0,1,0,0,2,3,0	71.0	34.0	0.588	0,0,0,1,2,3,0,0,0	to_hand	s650
548.154	0.484	0	PA_with_intermediate	3,0,0,1,0,0,2,0,0	test	ward_and_allport	0,0,0,1,0,0,2,3,0	82.0	34.0	0.484	0,0,0,1,2,3,0,0,0	to_board	s650
548.648	1.703	0	PA_with_intermediate	0,0,0,1,0,0,2,0,0	test	ward_and_allport	0,0,0,1,0,0,2,3,0	89.0	34.0	1.703	0,0,0,1,2,3,0,0,0	to_hand	s650
550.353	0.399	0	PA_with_intermediate	0,0,0,1,0,0,2,3,0	test	ward_and_allport	0,0,0,1,0,0,2,3,0	82.0	34.0	0.399	0,0,0,1,2,3,0,0,0	to_board	s650
550.761	1.0	0	PA_with_intermediate	n/a	test	ward_and_allport	n/a	-1.0	34.0	n/a	n/a	feedback	s650
551.761	3.04	0	PA_with_intermediate	n/a	test	ward_and_allport	n/a	-1.0	34.0	n/a	n/a	ITI	s650
554.808	5.564	1	PA_with_intermediate	1,2,0,0,0,0,0,0,0	test	ward_and_allport	1,3,0,2,0,0,0,0,0	89.0	35.0	5.564	1,2,3,0,0,0,0,0,0	to_hand	s650
560.373	1.497	0	PA_with_intermediate	1,2,0,0,0,0,3,0,0	test	ward_and_allport	1,3,0,2,0,0,0,0,0	82.0	35.0	1.497	1,2,3,0,0,0,0,0,0	to_board	s650
561.879	1.253	0	PA_with_intermediate	1,0,0,0,0,0,3,0,0	test	ward_and_allport	1,3,0,2,0,0,0,0,0	89.0	35.0	1.253	1,2,3,0,0,0,0,0,0	to_hand	s650
563.133	0.561	0	PA_with_intermediate	1,0,0,2,0,0,3,0,0	test	ward_and_allport	1,3,0,2,0,0,0,0,0	71.0	35.0	0.561	1,2,3,0,0,0,0,0,0	to_board	s650
563.705	4.299	0	PA_with_intermediate	1,0,0,2,0,0,0,0,0	test	ward_and_allport	1,3,0,2,0,0,0,0,0	82.0	35.0	4.299	1,2,3,0,0,0,0,0,0	to_hand	s650
568.004	0.382	0	PA_with_intermediate	1,3,0,2,0,0,0,0,0	test	ward_and_allport	1,3,0,2,0,0,0,0,0	89.0	35.0	0.382	1,2,3,0,0,0,0,0,0	to_board	s650
568.397	1.0	0	PA_with_intermediate	n/a	test	ward_and_allport	n/a	-1.0	35.0	n/a	n/a	feedback	s650
569.397	1.136	0	PA_with_intermediate	n/a	test	ward_and_allport	n/a	-1.0	35.0	n/a	n/a	ITI	s650
n/a	n/a	0	n/a	n/a	n/a	n/a	n/a	n/a	n/a	n/a	n/a	ITI	n/a
