onset	duration	planning	condition	current_position	exp_stage	experiment_exp_id	goal_state	key_press	problem_id	response_time	start_state	trial_id	worker_id
-153.445	0.0	0	n/a	n/a	n/a	ward_and_allport	n/a	32.0	n/a	7.287	n/a	instructions	s499
3.014	4.972	1	UA_with_intermediate	1,0,0,2,0,0,0,0,0	practice	ward_and_allport	1,2,3,0,0,0,0,0,0	71.0	0.0	4.972	1,0,0,2,3,0,0,0,0	to_hand	s499
7.991	0.509	0	UA_with_intermediate	1,0,0,2,0,0,3,0,0	practice	ward_and_allport	1,2,3,0,0,0,0,0,0	82.0	0.0	0.509	1,0,0,2,3,0,0,0,0	to_board	s499
8.504	0.647	0	UA_with_intermediate	1,0,0,0,0,0,3,0,0	practice	ward_and_allport	1,2,3,0,0,0,0,0,0	71.0	0.0	0.647	1,0,0,2,3,0,0,0,0	to_hand	s499
9.154	0.454	0	UA_with_intermediate	1,2,0,0,0,0,3,0,0	practice	ward_and_allport	1,2,3,0,0,0,0,0,0	89.0	0.0	0.454	1,0,0,2,3,0,0,0,0	to_board	s499
9.61	0.623	0	UA_with_intermediate	1,2,0,0,0,0,0,0,0	practice	ward_and_allport	1,2,3,0,0,0,0,0,0	82.0	0.0	0.623	1,0,0,2,3,0,0,0,0	to_hand	s499
10.236	0.358	0	UA_with_intermediate	1,2,3,0,0,0,0,0,0	practice	ward_and_allport	1,2,3,0,0,0,0,0,0	89.0	0.0	0.358	1,0,0,2,3,0,0,0,0	to_board	s499
10.605	1.0	0	UA_with_intermediate	n/a	practice	ward_and_allport	n/a	-1.0	0.0	n/a	n/a	feedback	s499
13.109	4.253	1	UA_with_intermediate	1,2,0,0,0,0,0,0,0	practice	ward_and_allport	1,3,2,0,0,0,0,0,0	71.0	1.0	4.253	1,2,0,3,0,0,0,0,0	to_hand	s499
17.365	0.782	0	UA_with_intermediate	1,2,0,3,0,0,0,0,0	practice	ward_and_allport	1,3,2,0,0,0,0,0,0	71.0	1.0	0.782	1,2,0,3,0,0,0,0,0	to_board	s499
18.15	1.055	0	UA_with_intermediate	1,0,0,3,0,0,0,0,0	practice	ward_and_allport	1,3,2,0,0,0,0,0,0	89.0	1.0	1.055	1,2,0,3,0,0,0,0,0	to_hand	s499
19.207	0.498	0	UA_with_intermediate	1,0,0,3,0,0,2,0,0	practice	ward_and_allport	1,3,2,0,0,0,0,0,0	82.0	1.0	0.498	1,2,0,3,0,0,0,0,0	to_board	s499
19.708	0.473	0	UA_with_intermediate	1,0,0,0,0,0,2,0,0	practice	ward_and_allport	1,3,2,0,0,0,0,0,0	71.0	1.0	0.473	1,2,0,3,0,0,0,0,0	to_hand	s499
20.184	0.369	0	UA_with_intermediate	1,3,0,0,0,0,2,0,0	practice	ward_and_allport	1,3,2,0,0,0,0,0,0	89.0	1.0	0.369	1,2,0,3,0,0,0,0,0	to_board	s499
20.556	0.612	0	UA_with_intermediate	1,3,0,0,0,0,0,0,0	practice	ward_and_allport	1,3,2,0,0,0,0,0,0	82.0	1.0	0.612	1,2,0,3,0,0,0,0,0	to_hand	s499
21.17	0.39	0	UA_with_intermediate	1,3,2,0,0,0,0,0,0	practice	ward_and_allport	1,3,2,0,0,0,0,0,0	89.0	1.0	0.39	1,2,0,3,0,0,0,0,0	to_board	s499
21.565	1.0	0	UA_with_intermediate	n/a	practice	ward_and_allport	n/a	-1.0	1.0	n/a	n/a	feedback	s499
22.565	1.1	0	UA_with_intermediate	n/a	practice	ward_and_allport	n/a	-1.0	1.0	n/a	n/a	ITI	s499
23.67	2.443	1	UA_without_intermediate	0,0,0,1,0,0,3,0,0	practice	ward_and_allport	3,2,1,0,0,0,0,0,0	71.0	2.0	2.443	0,0,0,1,2,0,3,0,0	to_hand	s499
26.115	0.424	0	UA_without_intermediate	0,0,0,1,0,0,3,2,0	practice	ward_and_allport	3,2,1,0,0,0,0,0,0	82.0	2.0	0.424	0,0,0,1,2,0,3,0,0	to_board	s499
26.546	1.233	0	UA_without_intermediate	0,0,0,0,0,0,3,2,0	practice	ward_and_allport	3,2,1,0,0,0,0,0,0	71.0	2.0	1.233	0,0,0,1,2,0,3,0,0	to_hand	s499
27.781	0.425	0	UA_without_intermediate	0,0,0,0,0,0,3,2,1	practice	ward_and_allport	3,2,1,0,0,0,0,0,0	82.0	2.0	0.425	0,0,0,1,2,0,3,0,0	to_board	s499
28.209	2.948	0	UA_without_intermediate	0,0,0,0,0,0,3,2,0	practice	ward_and_allport	3,2,1,0,0,0,0,0,0	82.0	2.0	2.948	0,0,0,1,2,0,3,0,0	to_hand	s499
31.159	0.418	0	UA_without_intermediate	0,0,0,1,0,0,3,2,0	practice	ward_and_allport	3,2,1,0,0,0,0,0,0	71.0	2.0	0.418	0,0,0,1,2,0,3,0,0	to_board	s499
31.581	1.182	0	UA_without_intermediate	0,0,0,0,0,0,3,2,0	practice	ward_and_allport	3,2,1,0,0,0,0,0,0	71.0	2.0	1.182	0,0,0,1,2,0,3,0,0	to_hand	s499
32.765	0.966	0	UA_without_intermediate	0,0,0,1,0,0,3,2,0	practice	ward_and_allport	3,2,1,0,0,0,0,0,0	71.0	2.0	0.966	0,0,0,1,2,0,3,0,0	to_board	s499
33.736	0.604	0	UA_without_intermediate	0,0,0,1,0,0,3,0,0	practice	ward_and_allport	3,2,1,0,0,0,0,0,0	82.0	2.0	0.604	0,0,0,1,2,0,3,0,0	to_hand	s499
34.343	0.382	0	UA_without_intermediate	0,0,0,1,2,0,3,0,0	practice	ward_and_allport	3,2,1,0,0,0,0,0,0	71.0	2.0	0.382	0,0,0,1,2,0,3,0,0	to_board	s499
34.729	0.653	0	UA_without_intermediate	0,0,0,1,2,0,0,0,0	practice	ward_and_allport	3,2,1,0,0,0,0,0,0	82.0	2.0	0.653	0,0,0,1,2,0,3,0,0	to_hand	s499
35.384	0.497	0	UA_without_intermediate	3,0,0,1,2,0,0,0,0	practice	ward_and_allport	3,2,1,0,0,0,0,0,0	89.0	2.0	0.497	0,0,0,1,2,0,3,0,0	to_board	s499
35.887	0.651	0	UA_without_intermediate	3,0,0,1,0,0,0,0,0	practice	ward_and_allport	3,2,1,0,0,0,0,0,0	71.0	2.0	0.651	0,0,0,1,2,0,3,0,0	to_hand	s499
36.54	0.695	0	UA_without_intermediate	3,2,0,1,0,0,0,0,0	practice	ward_and_allport	3,2,1,0,0,0,0,0,0	89.0	2.0	0.695	0,0,0,1,2,0,3,0,0	to_board	s499
37.24	1.182	0	UA_without_intermediate	3,2,0,0,0,0,0,0,0	practice	ward_and_allport	3,2,1,0,0,0,0,0,0	71.0	2.0	1.182	0,0,0,1,2,0,3,0,0	to_hand	s499
38.424	0.535	0	UA_without_intermediate	3,2,1,0,0,0,0,0,0	practice	ward_and_allport	3,2,1,0,0,0,0,0,0	89.0	2.0	0.535	0,0,0,1,2,0,3,0,0	to_board	s499
38.964	1.0	0	UA_without_intermediate	n/a	practice	ward_and_allport	n/a	-1.0	2.0	n/a	n/a	feedback	s499
39.964	1.2	0	UA_without_intermediate	n/a	practice	ward_and_allport	n/a	-1.0	2.0	n/a	n/a	ITI	s499
41.168	2.306	1	UA_without_intermediate	0,0,0,1,0,0,3,0,0	practice	ward_and_allport	2,3,1,0,0,0,0,0,0	71.0	3.0	2.306	0,0,0,1,2,0,3,0,0	to_hand	s499
43.476	0.612	0	UA_without_intermediate	2,0,0,1,0,0,3,0,0	practice	ward_and_allport	2,3,1,0,0,0,0,0,0	89.0	3.0	0.612	0,0,0,1,2,0,3,0,0	to_board	s499
44.093	0.703	0	UA_without_intermediate	2,0,0,1,0,0,0,0,0	practice	ward_and_allport	2,3,1,0,0,0,0,0,0	82.0	3.0	0.703	0,0,0,1,2,0,3,0,0	to_hand	s499
44.799	1.123	0	UA_without_intermediate	2,3,0,1,0,0,0,0,0	practice	ward_and_allport	2,3,1,0,0,0,0,0,0	89.0	3.0	1.123	0,0,0,1,2,0,3,0,0	to_board	s499
45.926	0.487	0	UA_without_intermediate	2,3,0,0,0,0,0,0,0	practice	ward_and_allport	2,3,1,0,0,0,0,0,0	71.0	3.0	0.487	0,0,0,1,2,0,3,0,0	to_hand	s499
46.416	0.456	0	UA_without_intermediate	2,3,1,0,0,0,0,0,0	practice	ward_and_allport	2,3,1,0,0,0,0,0,0	89.0	3.0	0.456	0,0,0,1,2,0,3,0,0	to_board	s499
46.878	1.0	0	UA_without_intermediate	n/a	practice	ward_and_allport	n/a	-1.0	3.0	n/a	n/a	feedback	s499
47.878	1.0	0	UA_without_intermediate	n/a	practice	ward_and_allport	n/a	-1.0	3.0	n/a	n/a	ITI	s499
50.891	4.421	1	PA_without_intermediate	1,2,0,0,0,0,0,0,0	test	ward_and_allport	0,0,0,3,2,0,1,0,0	89.0	0.0	4.421	1,2,3,0,0,0,0,0,0	to_hand	s499
55.315	0.577	0	PA_without_intermediate	1,2,0,3,0,0,0,0,0	test	ward_and_allport	0,0,0,3,2,0,1,0,0	71.0	0.0	0.577	1,2,3,0,0,0,0,0,0	to_board	s499
55.898	1.147	0	PA_without_intermediate	1,0,0,3,0,0,0,0,0	test	ward_and_allport	0,0,0,3,2,0,1,0,0	89.0	0.0	1.147	1,2,3,0,0,0,0,0,0	to_hand	s499
57.047	0.425	0	PA_without_intermediate	1,0,0,3,2,0,0,0,0	test	ward_and_allport	0,0,0,3,2,0,1,0,0	71.0	0.0	0.425	1,2,3,0,0,0,0,0,0	to_board	s499
57.478	1.223	0	PA_without_intermediate	0,0,0,3,2,0,0,0,0	test	ward_and_allport	0,0,0,3,2,0,1,0,0	89.0	0.0	1.223	1,2,3,0,0,0,0,0,0	to_hand	s499
58.703	0.335	0	PA_without_intermediate	0,0,0,3,2,0,1,0,0	test	ward_and_allport	0,0,0,3,2,0,1,0,0	82.0	0.0	0.335	1,2,3,0,0,0,0,0,0	to_board	s499
59.047	1.0	0	PA_without_intermediate	n/a	test	ward_and_allport	n/a	-1.0	0.0	n/a	n/a	feedback	s499
60.047	2.088	0	PA_without_intermediate	n/a	test	ward_and_allport	n/a	-1.0	0.0	n/a	n/a	ITI	s499
62.139	3.418	1	PA_with_intermediate	1,2,0,0,0,0,0,0,0	test	ward_and_allport	1,3,0,0,0,0,2,0,0	89.0	1.0	3.418	1,2,3,0,0,0,0,0,0	to_hand	s499
65.559	0.66	0	PA_with_intermediate	1,2,0,3,0,0,0,0,0	test	ward_and_allport	1,3,0,0,0,0,2,0,0	71.0	1.0	0.66	1,2,3,0,0,0,0,0,0	to_board	s499
66.224	3.699	0	PA_with_intermediate	1,0,0,3,0,0,0,0,0	test	ward_and_allport	1,3,0,0,0,0,2,0,0	89.0	1.0	3.699	1,2,3,0,0,0,0,0,0	to_hand	s499
69.925	0.374	0	PA_with_intermediate	1,0,0,3,0,0,2,0,0	test	ward_and_allport	1,3,0,0,0,0,2,0,0	82.0	1.0	0.374	1,2,3,0,0,0,0,0,0	to_board	s499
70.307	0.45	0	PA_with_intermediate	1,0,0,0,0,0,2,0,0	test	ward_and_allport	1,3,0,0,0,0,2,0,0	71.0	1.0	0.45	1,2,3,0,0,0,0,0,0	to_hand	s499
70.759	0.298	0	PA_with_intermediate	1,3,0,0,0,0,2,0,0	test	ward_and_allport	1,3,0,0,0,0,2,0,0	89.0	1.0	0.298	1,2,3,0,0,0,0,0,0	to_board	s499
71.064	1.0	0	PA_with_intermediate	n/a	test	ward_and_allport	n/a	-1.0	1.0	n/a	n/a	feedback	s499
72.064	1.0	0	PA_with_intermediate	n/a	test	ward_and_allport	n/a	-1.0	1.0	n/a	n/a	ITI	s499
73.069	3.638	1	PA_without_intermediate	1,2,0,0,0,0,0,0,0	test	ward_and_allport	0,0,0,1,0,0,3,2,0	89.0	2.0	3.638	1,2,3,0,0,0,0,0,0	to_hand	s499
76.71	0.294	0	PA_without_intermediate	1,2,0,0,0,0,3,0,0	test	ward_and_allport	0,0,0,1,0,0,3,2,0	82.0	2.0	0.294	1,2,3,0,0,0,0,0,0	to_board	s499
77.01	1.835	0	PA_without_intermediate	1,0,0,0,0,0,3,0,0	test	ward_and_allport	0,0,0,1,0,0,3,2,0	89.0	2.0	1.835	1,2,3,0,0,0,0,0,0	to_hand	s499
78.847	0.468	0	PA_without_intermediate	1,0,0,0,0,0,3,2,0	test	ward_and_allport	0,0,0,1,0,0,3,2,0	82.0	2.0	0.468	1,2,3,0,0,0,0,0,0	to_board	s499
79.321	0.741	0	PA_without_intermediate	0,0,0,0,0,0,3,2,0	test	ward_and_allport	0,0,0,1,0,0,3,2,0	89.0	2.0	0.741	1,2,3,0,0,0,0,0,0	to_hand	s499
80.064	0.234	0	PA_without_intermediate	0,0,0,1,0,0,3,2,0	test	ward_and_allport	0,0,0,1,0,0,3,2,0	71.0	2.0	0.234	1,2,3,0,0,0,0,0,0	to_board	s499
80.307	1.0	0	PA_without_intermediate	n/a	test	ward_and_allport	n/a	-1.0	2.0	n/a	n/a	feedback	s499
81.307	1.0	0	PA_without_intermediate	n/a	test	ward_and_allport	n/a	-1.0	2.0	n/a	n/a	ITI	s499
82.313	4.788	1	PA_without_intermediate	1,2,0,0,0,0,0,0,0	test	ward_and_allport	0,0,0,3,1,0,2,0,0	89.0	3.0	4.788	1,2,3,0,0,0,0,0,0	to_hand	s499
87.103	0.51	0	PA_without_intermediate	1,2,0,0,0,0,3,0,0	test	ward_and_allport	0,0,0,3,1,0,2,0,0	82.0	3.0	0.51	1,2,3,0,0,0,0,0,0	to_board	s499
87.62	3.014	0	PA_without_intermediate	1,2,0,0,0,0,0,0,0	test	ward_and_allport	0,0,0,3,1,0,2,0,0	82.0	3.0	3.014	1,2,3,0,0,0,0,0,0	to_hand	s499
90.636	0.476	0	PA_without_intermediate	1,2,0,3,0,0,0,0,0	test	ward_and_allport	0,0,0,3,1,0,2,0,0	71.0	3.0	0.476	1,2,3,0,0,0,0,0,0	to_board	s499
91.119	0.979	0	PA_without_intermediate	1,0,0,3,0,0,0,0,0	test	ward_and_allport	0,0,0,3,1,0,2,0,0	89.0	3.0	0.979	1,2,3,0,0,0,0,0,0	to_hand	s499
92.101	0.34	0	PA_without_intermediate	1,0,0,3,0,0,2,0,0	test	ward_and_allport	0,0,0,3,1,0,2,0,0	82.0	3.0	0.34	1,2,3,0,0,0,0,0,0	to_board	s499
92.448	3.616	0	PA_without_intermediate	0,0,0,3,0,0,2,0,0	test	ward_and_allport	0,0,0,3,1,0,2,0,0	89.0	3.0	3.616	1,2,3,0,0,0,0,0,0	to_hand	s499
96.067	0.616	0	PA_without_intermediate	0,0,0,3,0,0,2,1,0	test	ward_and_allport	0,0,0,3,1,0,2,0,0	82.0	3.0	0.616	1,2,3,0,0,0,0,0,0	to_board	s499
96.69	4.033	0	PA_without_intermediate	0,0,0,3,0,0,2,0,0	test	ward_and_allport	0,0,0,3,1,0,2,0,0	82.0	3.0	4.033	1,2,3,0,0,0,0,0,0	to_hand	s499
100.725	0.402	0	PA_without_intermediate	0,0,0,3,1,0,2,0,0	test	ward_and_allport	0,0,0,3,1,0,2,0,0	71.0	3.0	0.402	1,2,3,0,0,0,0,0,0	to_board	s499
101.135	1.0	0	PA_without_intermediate	n/a	test	ward_and_allport	n/a	-1.0	3.0	n/a	n/a	feedback	s499
102.135	1.0	0	PA_without_intermediate	n/a	test	ward_and_allport	n/a	-1.0	3.0	n/a	n/a	ITI	s499
103.142	4.351	1	PA_with_intermediate	0,0,0,1,2,0,0,0,0	test	ward_and_allport	2,3,0,1,0,0,0,0,0	71.0	4.0	4.351	0,0,0,1,2,3,0,0,0	to_hand	s499
107.495	0.427	0	PA_with_intermediate	0,0,0,1,2,0,3,0,0	test	ward_and_allport	2,3,0,1,0,0,0,0,0	82.0	4.0	0.427	0,0,0,1,2,3,0,0,0	to_board	s499
107.93	0.784	0	PA_with_intermediate	0,0,0,1,0,0,3,0,0	test	ward_and_allport	2,3,0,1,0,0,0,0,0	71.0	4.0	0.784	0,0,0,1,2,3,0,0,0	to_hand	s499
108.715	0.481	0	PA_with_intermediate	2,0,0,1,0,0,3,0,0	test	ward_and_allport	2,3,0,1,0,0,0,0,0	89.0	4.0	0.481	0,0,0,1,2,3,0,0,0	to_board	s499
109.203	0.511	0	PA_with_intermediate	2,0,0,1,0,0,0,0,0	test	ward_and_allport	2,3,0,1,0,0,0,0,0	82.0	4.0	0.511	0,0,0,1,2,3,0,0,0	to_hand	s499
109.716	0.38	0	PA_with_intermediate	2,0,0,1,3,0,0,0,0	test	ward_and_allport	2,3,0,1,0,0,0,0,0	71.0	4.0	0.38	0,0,0,1,2,3,0,0,0	to_board	s499
110.106	1.525	0	PA_with_intermediate	2,0,0,1,0,0,0,0,0	test	ward_and_allport	2,3,0,1,0,0,0,0,0	71.0	4.0	1.525	0,0,0,1,2,3,0,0,0	to_hand	s499
111.633	0.476	0	PA_with_intermediate	2,3,0,1,0,0,0,0,0	test	ward_and_allport	2,3,0,1,0,0,0,0,0	89.0	4.0	0.476	0,0,0,1,2,3,0,0,0	to_board	s499
112.117	1.0	0	PA_with_intermediate	n/a	test	ward_and_allport	n/a	-1.0	4.0	n/a	n/a	feedback	s499
113.117	1.544	0	PA_with_intermediate	n/a	test	ward_and_allport	n/a	-1.0	4.0	n/a	n/a	ITI	s499
114.668	3.825	1	PA_without_intermediate	0,0,0,0,0,0,1,2,0	test	ward_and_allport	1,0,0,3,2,0,0,0,0	82.0	5.0	3.825	0,0,0,0,0,0,1,2,3	to_hand	s499
118.496	0.396	0	PA_without_intermediate	0,0,0,3,0,0,1,2,0	test	ward_and_allport	1,0,0,3,2,0,0,0,0	71.0	5.0	0.396	0,0,0,0,0,0,1,2,3	to_board	s499
118.9	1.119	0	PA_without_intermediate	0,0,0,3,0,0,1,0,0	test	ward_and_allport	1,0,0,3,2,0,0,0,0	82.0	5.0	1.119	0,0,0,0,0,0,1,2,3	to_hand	s499
120.022	0.369	0	PA_without_intermediate	0,0,0,3,2,0,1,0,0	test	ward_and_allport	1,0,0,3,2,0,0,0,0	71.0	5.0	0.369	0,0,0,0,0,0,1,2,3	to_board	s499
120.398	0.873	0	PA_without_intermediate	0,0,0,3,2,0,0,0,0	test	ward_and_allport	1,0,0,3,2,0,0,0,0	82.0	5.0	0.873	0,0,0,0,0,0,1,2,3	to_hand	s499
121.273	0.274	0	PA_without_intermediate	1,0,0,3,2,0,0,0,0	test	ward_and_allport	1,0,0,3,2,0,0,0,0	89.0	5.0	0.274	0,0,0,0,0,0,1,2,3	to_board	s499
121.559	1.0	0	PA_without_intermediate	n/a	test	ward_and_allport	n/a	-1.0	5.0	n/a	n/a	feedback	s499
122.559	1.272	0	PA_without_intermediate	n/a	test	ward_and_allport	n/a	-1.0	5.0	n/a	n/a	ITI	s499
123.839	3.72	1	PA_with_intermediate	1,2,0,0,0,0,0,0,0	test	ward_and_allport	1,0,0,0,0,0,2,3,0	89.0	6.0	3.72	1,2,3,0,0,0,0,0,0	to_hand	s499
127.562	0.378	0	PA_with_intermediate	1,2,0,3,0,0,0,0,0	test	ward_and_allport	1,0,0,0,0,0,2,3,0	71.0	6.0	0.378	1,2,3,0,0,0,0,0,0	to_board	s499
127.947	0.996	0	PA_with_intermediate	1,0,0,3,0,0,0,0,0	test	ward_and_allport	1,0,0,0,0,0,2,3,0	89.0	6.0	0.996	1,2,3,0,0,0,0,0,0	to_hand	s499
128.945	0.332	0	PA_with_intermediate	1,0,0,3,0,0,2,0,0	test	ward_and_allport	1,0,0,0,0,0,2,3,0	82.0	6.0	0.332	1,2,3,0,0,0,0,0,0	to_board	s499
129.286	0.643	0	PA_with_intermediate	1,0,0,0,0,0,2,0,0	test	ward_and_allport	1,0,0,0,0,0,2,3,0	71.0	6.0	0.643	1,2,3,0,0,0,0,0,0	to_hand	s499
129.931	0.34	0	PA_with_intermediate	1,0,0,0,0,0,2,3,0	test	ward_and_allport	1,0,0,0,0,0,2,3,0	82.0	6.0	0.34	1,2,3,0,0,0,0,0,0	to_board	s499
130.28	1.0	0	PA_with_intermediate	n/a	test	ward_and_allport	n/a	-1.0	6.0	n/a	n/a	feedback	s499
131.28	3.04	0	PA_with_intermediate	n/a	test	ward_and_allport	n/a	-1.0	6.0	n/a	n/a	ITI	s499
134.33	3.313	1	PA_with_intermediate	1,2,0,0,0,0,0,0,0	test	ward_and_allport	1,3,0,0,0,0,2,0,0	89.0	7.0	3.313	1,2,3,0,0,0,0,0,0	to_hand	s499
137.644	2.341	0	PA_with_intermediate	1,2,0,3,0,0,0,0,0	test	ward_and_allport	1,3,0,0,0,0,2,0,0	71.0	7.0	2.341	1,2,3,0,0,0,0,0,0	to_board	s499
139.993	1.699	0	PA_with_intermediate	1,0,0,3,0,0,0,0,0	test	ward_and_allport	1,3,0,0,0,0,2,0,0	89.0	7.0	1.699	1,2,3,0,0,0,0,0,0	to_hand	s499
141.694	0.392	0	PA_with_intermediate	1,0,0,3,0,0,2,0,0	test	ward_and_allport	1,3,0,0,0,0,2,0,0	82.0	7.0	0.392	1,2,3,0,0,0,0,0,0	to_board	s499
142.095	0.585	0	PA_with_intermediate	1,0,0,0,0,0,2,0,0	test	ward_and_allport	1,3,0,0,0,0,2,0,0	71.0	7.0	0.585	1,2,3,0,0,0,0,0,0	to_hand	s499
142.682	0.298	0	PA_with_intermediate	1,3,0,0,0,0,2,0,0	test	ward_and_allport	1,3,0,0,0,0,2,0,0	89.0	7.0	0.298	1,2,3,0,0,0,0,0,0	to_board	s499
142.993	1.0	0	PA_with_intermediate	n/a	test	ward_and_allport	n/a	-1.0	7.0	n/a	n/a	feedback	s499
143.993	1.272	0	PA_with_intermediate	n/a	test	ward_and_allport	n/a	-1.0	7.0	n/a	n/a	ITI	s499
145.274	3.94	1	PA_with_intermediate	0,0,0,1,2,0,0,0,0	test	ward_and_allport	2,0,0,1,3,0,0,0,0	71.0	8.0	3.94	0,0,0,1,2,3,0,0,0	to_hand	s499
149.216	0.352	0	PA_with_intermediate	0,0,0,1,2,0,3,0,0	test	ward_and_allport	2,0,0,1,3,0,0,0,0	82.0	8.0	0.352	0,0,0,1,2,3,0,0,0	to_board	s499
149.579	0.917	0	PA_with_intermediate	0,0,0,1,0,0,3,0,0	test	ward_and_allport	2,0,0,1,3,0,0,0,0	71.0	8.0	0.917	0,0,0,1,2,3,0,0,0	to_hand	s499
150.497	0.268	0	PA_with_intermediate	2,0,0,1,0,0,3,0,0	test	ward_and_allport	2,0,0,1,3,0,0,0,0	89.0	8.0	0.268	0,0,0,1,2,3,0,0,0	to_board	s499
150.776	0.974	0	PA_with_intermediate	2,0,0,1,0,0,0,0,0	test	ward_and_allport	2,0,0,1,3,0,0,0,0	82.0	8.0	0.974	0,0,0,1,2,3,0,0,0	to_hand	s499
151.753	0.258	0	PA_with_intermediate	2,0,0,1,3,0,0,0,0	test	ward_and_allport	2,0,0,1,3,0,0,0,0	71.0	8.0	0.258	0,0,0,1,2,3,0,0,0	to_board	s499
152.022	1.0	0	PA_with_intermediate	n/a	test	ward_and_allport	n/a	-1.0	8.0	n/a	n/a	feedback	s499
153.022	1.136	0	PA_with_intermediate	n/a	test	ward_and_allport	n/a	-1.0	8.0	n/a	n/a	ITI	s499
154.167	7.643	1	PA_with_intermediate	0,0,0,0,0,0,1,2,0	test	ward_and_allport	0,0,0,2,0,0,1,3,0	82.0	9.0	7.643	0,0,0,0,0,0,1,2,3	to_hand	s499
161.812	0.26	0	PA_with_intermediate	3,0,0,0,0,0,1,2,0	test	ward_and_allport	0,0,0,2,0,0,1,3,0	89.0	9.0	0.26	0,0,0,0,0,0,1,2,3	to_board	s499
162.083	1.237	0	PA_with_intermediate	3,0,0,0,0,0,1,0,0	test	ward_and_allport	0,0,0,2,0,0,1,3,0	82.0	9.0	1.237	0,0,0,0,0,0,1,2,3	to_hand	s499
163.322	0.299	0	PA_with_intermediate	3,0,0,2,0,0,1,0,0	test	ward_and_allport	0,0,0,2,0,0,1,3,0	71.0	9.0	0.299	0,0,0,0,0,0,1,2,3	to_board	s499
163.633	0.659	0	PA_with_intermediate	0,0,0,2,0,0,1,0,0	test	ward_and_allport	0,0,0,2,0,0,1,3,0	89.0	9.0	0.659	0,0,0,0,0,0,1,2,3	to_hand	s499
164.295	0.212	0	PA_with_intermediate	0,0,0,2,0,0,1,3,0	test	ward_and_allport	0,0,0,2,0,0,1,3,0	82.0	9.0	0.212	0,0,0,0,0,0,1,2,3	to_board	s499
164.521	1.0	0	PA_with_intermediate	n/a	test	ward_and_allport	n/a	-1.0	9.0	n/a	n/a	feedback	s499
165.521	1.0	0	PA_with_intermediate	n/a	test	ward_and_allport	n/a	-1.0	9.0	n/a	n/a	ITI	s499
166.533	3.21	1	PA_with_intermediate	0,0,0,0,0,0,1,2,0	test	ward_and_allport	2,3,0,0,0,0,1,0,0	82.0	10.0	3.21	0,0,0,0,0,0,1,2,3	to_hand	s499
169.745	0.209	0	PA_with_intermediate	0,0,0,3,0,0,1,2,0	test	ward_and_allport	2,3,0,0,0,0,1,0,0	71.0	10.0	0.209	0,0,0,0,0,0,1,2,3	to_board	s499
169.965	0.836	0	PA_with_intermediate	0,0,0,3,0,0,1,0,0	test	ward_and_allport	2,3,0,0,0,0,1,0,0	82.0	10.0	0.836	0,0,0,0,0,0,1,2,3	to_hand	s499
170.803	0.214	0	PA_with_intermediate	2,0,0,3,0,0,1,0,0	test	ward_and_allport	2,3,0,0,0,0,1,0,0	89.0	10.0	0.214	0,0,0,0,0,0,1,2,3	to_board	s499
171.028	0.75	0	PA_with_intermediate	2,0,0,0,0,0,1,0,0	test	ward_and_allport	2,3,0,0,0,0,1,0,0	71.0	10.0	0.75	0,0,0,0,0,0,1,2,3	to_hand	s499
171.78	0.205	0	PA_with_intermediate	2,3,0,0,0,0,1,0,0	test	ward_and_allport	2,3,0,0,0,0,1,0,0	89.0	10.0	0.205	0,0,0,0,0,0,1,2,3	to_board	s499
171.998	1.0	0	PA_with_intermediate	n/a	test	ward_and_allport	n/a	-1.0	10.0	n/a	n/a	feedback	s499
172.998	1.0	0	PA_with_intermediate	n/a	test	ward_and_allport	n/a	-1.0	10.0	n/a	n/a	ITI	s499
174.008	2.823	1	PA_without_intermediate	0,0,0,1,2,0,0,0,0	test	ward_and_allport	1,0,0,0,0,0,3,2,0	71.0	11.0	2.823	0,0,0,1,2,3,0,0,0	to_hand	s499
176.833	0.208	0	PA_without_intermediate	0,0,0,1,2,0,3,0,0	test	ward_and_allport	1,0,0,0,0,0,3,2,0	82.0	11.0	0.208	0,0,0,1,2,3,0,0,0	to_board	s499
177.049	1.053	0	PA_without_intermediate	0,0,0,1,0,0,3,0,0	test	ward_and_allport	1,0,0,0,0,0,3,2,0	71.0	11.0	1.053	0,0,0,1,2,3,0,0,0	to_hand	s499
178.104	0.198	0	PA_without_intermediate	0,0,0,1,0,0,3,2,0	test	ward_and_allport	1,0,0,0,0,0,3,2,0	82.0	11.0	0.198	0,0,0,1,2,3,0,0,0	to_board	s499
178.314	1.101	0	PA_without_intermediate	0,0,0,0,0,0,3,2,0	test	ward_and_allport	1,0,0,0,0,0,3,2,0	71.0	11.0	1.101	0,0,0,1,2,3,0,0,0	to_hand	s499
179.416	0.203	0	PA_without_intermediate	1,0,0,0,0,0,3,2,0	test	ward_and_allport	1,0,0,0,0,0,3,2,0	89.0	11.0	0.203	0,0,0,1,2,3,0,0,0	to_board	s499
179.632	1.0	0	PA_without_intermediate	n/a	test	ward_and_allport	n/a	-1.0	11.0	n/a	n/a	feedback	s499
180.632	1.408	0	PA_without_intermediate	n/a	test	ward_and_allport	n/a	-1.0	11.0	n/a	n/a	ITI	s499
182.051	2.207	1	PA_with_intermediate	0,0,0,0,0,0,1,2,0	test	ward_and_allport	2,0,0,0,0,0,1,3,0	82.0	12.0	2.207	0,0,0,0,0,0,1,2,3	to_hand	s499
184.261	0.553	0	PA_with_intermediate	0,0,0,3,0,0,1,2,0	test	ward_and_allport	2,0,0,0,0,0,1,3,0	71.0	12.0	0.553	0,0,0,0,0,0,1,2,3	to_board	s499
184.827	1.716	0	PA_with_intermediate	0,0,0,3,0,0,1,0,0	test	ward_and_allport	2,0,0,0,0,0,1,3,0	82.0	12.0	1.716	0,0,0,0,0,0,1,2,3	to_hand	s499
186.545	0.33	0	PA_with_intermediate	2,0,0,3,0,0,1,0,0	test	ward_and_allport	2,0,0,0,0,0,1,3,0	89.0	12.0	0.33	0,0,0,0,0,0,1,2,3	to_board	s499
186.886	1.046	0	PA_with_intermediate	2,0,0,0,0,0,1,0,0	test	ward_and_allport	2,0,0,0,0,0,1,3,0	71.0	12.0	1.046	0,0,0,0,0,0,1,2,3	to_hand	s499
187.934	0.329	0	PA_with_intermediate	2,0,0,0,0,0,1,3,0	test	ward_and_allport	2,0,0,0,0,0,1,3,0	82.0	12.0	0.329	0,0,0,0,0,0,1,2,3	to_board	s499
188.274	1.0	0	PA_with_intermediate	n/a	test	ward_and_allport	n/a	-1.0	12.0	n/a	n/a	feedback	s499
189.274	2.768	0	PA_with_intermediate	n/a	test	ward_and_allport	n/a	-1.0	12.0	n/a	n/a	ITI	s499
192.053	3.059	1	PA_with_intermediate	1,2,0,0,0,0,0,0,0	test	ward_and_allport	1,0,0,2,3,0,0,0,0	89.0	13.0	3.059	1,2,3,0,0,0,0,0,0	to_hand	s499
195.114	1.056	0	PA_with_intermediate	1,2,0,0,0,0,3,0,0	test	ward_and_allport	1,0,0,2,3,0,0,0,0	82.0	13.0	1.056	1,2,3,0,0,0,0,0,0	to_board	s499
196.183	1.36	0	PA_with_intermediate	1,0,0,0,0,0,3,0,0	test	ward_and_allport	1,0,0,2,3,0,0,0,0	89.0	13.0	1.36	1,2,3,0,0,0,0,0,0	to_hand	s499
197.546	0.339	0	PA_with_intermediate	1,0,0,2,0,0,3,0,0	test	ward_and_allport	1,0,0,2,3,0,0,0,0	71.0	13.0	0.339	1,2,3,0,0,0,0,0,0	to_board	s499
197.895	0.935	0	PA_with_intermediate	1,0,0,2,0,0,0,0,0	test	ward_and_allport	1,0,0,2,3,0,0,0,0	82.0	13.0	0.935	1,2,3,0,0,0,0,0,0	to_hand	s499
198.832	0.345	0	PA_with_intermediate	1,0,0,2,3,0,0,0,0	test	ward_and_allport	1,0,0,2,3,0,0,0,0	71.0	13.0	0.345	1,2,3,0,0,0,0,0,0	to_board	s499
199.191	1.0	0	PA_with_intermediate	n/a	test	ward_and_allport	n/a	-1.0	13.0	n/a	n/a	feedback	s499
200.191	1.68	0	PA_with_intermediate	n/a	test	ward_and_allport	n/a	-1.0	13.0	n/a	n/a	ITI	s499
201.881	3.029	1	PA_without_intermediate	0,0,0,0,0,0,1,2,0	test	ward_and_allport	2,0,0,3,1,0,0,0,0	82.0	14.0	3.029	0,0,0,0,0,0,1,2,3	to_hand	s499
204.911	0.242	0	PA_without_intermediate	0,0,0,3,0,0,1,2,0	test	ward_and_allport	2,0,0,3,1,0,0,0,0	71.0	14.0	0.242	0,0,0,0,0,0,1,2,3	to_board	s499
205.165	2.124	0	PA_without_intermediate	0,0,0,3,0,0,1,0,0	test	ward_and_allport	2,0,0,3,1,0,0,0,0	82.0	14.0	2.124	0,0,0,0,0,0,1,2,3	to_hand	s499
207.291	0.614	0	PA_without_intermediate	2,0,0,3,0,0,1,0,0	test	ward_and_allport	2,0,0,3,1,0,0,0,0	89.0	14.0	0.614	0,0,0,0,0,0,1,2,3	to_board	s499
207.918	0.7	0	PA_without_intermediate	2,0,0,3,0,0,0,0,0	test	ward_and_allport	2,0,0,3,1,0,0,0,0	82.0	14.0	0.7	0,0,0,0,0,0,1,2,3	to_hand	s499
208.621	0.37	0	PA_without_intermediate	2,0,0,3,1,0,0,0,0	test	ward_and_allport	2,0,0,3,1,0,0,0,0	71.0	14.0	0.37	0,0,0,0,0,0,1,2,3	to_board	s499
209.006	1.0	0	PA_without_intermediate	n/a	test	ward_and_allport	n/a	-1.0	14.0	n/a	n/a	feedback	s499
210.006	2.224	0	PA_without_intermediate	n/a	test	ward_and_allport	n/a	-1.0	14.0	n/a	n/a	ITI	s499
217.245	3.18	1	PA_without_intermediate	0,0,0,0,0,0,1,2,0	test	ward_and_allport	2,0,0,3,1,0,0,0,0	82.0	15.0	3.18	0,0,0,0,0,0,1,2,3	to_hand	s499
220.427	0.321	0	PA_without_intermediate	0,0,0,3,0,0,1,2,0	test	ward_and_allport	2,0,0,3,1,0,0,0,0	71.0	15.0	0.321	0,0,0,0,0,0,1,2,3	to_board	s499
220.761	1.556	0	PA_without_intermediate	0,0,0,3,0,0,1,0,0	test	ward_and_allport	2,0,0,3,1,0,0,0,0	82.0	15.0	1.556	0,0,0,0,0,0,1,2,3	to_hand	s499
222.319	0.199	0	PA_without_intermediate	2,0,0,3,0,0,1,0,0	test	ward_and_allport	2,0,0,3,1,0,0,0,0	89.0	15.0	0.199	0,0,0,0,0,0,1,2,3	to_board	s499
222.53	0.814	0	PA_without_intermediate	2,0,0,3,0,0,0,0,0	test	ward_and_allport	2,0,0,3,1,0,0,0,0	82.0	15.0	0.814	0,0,0,0,0,0,1,2,3	to_hand	s499
223.347	0.384	0	PA_without_intermediate	2,0,0,3,1,0,0,0,0	test	ward_and_allport	2,0,0,3,1,0,0,0,0	71.0	15.0	0.384	0,0,0,0,0,0,1,2,3	to_board	s499
223.743	1.0	0	PA_without_intermediate	n/a	test	ward_and_allport	n/a	-1.0	15.0	n/a	n/a	feedback	s499
224.743	2.36	0	PA_without_intermediate	n/a	test	ward_and_allport	n/a	-1.0	15.0	n/a	n/a	ITI	s499
227.117	2.507	1	PA_without_intermediate	1,2,0,0,0,0,0,0,0	test	ward_and_allport	0,0,0,2,0,0,3,1,0	89.0	16.0	2.507	1,2,3,0,0,0,0,0,0	to_hand	s499
229.625	0.243	0	PA_without_intermediate	1,2,0,0,0,0,3,0,0	test	ward_and_allport	0,0,0,2,0,0,3,1,0	82.0	16.0	0.243	1,2,3,0,0,0,0,0,0	to_board	s499
229.882	1.946	0	PA_without_intermediate	1,0,0,0,0,0,3,0,0	test	ward_and_allport	0,0,0,2,0,0,3,1,0	89.0	16.0	1.946	1,2,3,0,0,0,0,0,0	to_hand	s499
231.83	0.182	0	PA_without_intermediate	1,0,0,2,0,0,3,0,0	test	ward_and_allport	0,0,0,2,0,0,3,1,0	71.0	16.0	0.182	1,2,3,0,0,0,0,0,0	to_board	s499
232.024	0.704	0	PA_without_intermediate	0,0,0,2,0,0,3,0,0	test	ward_and_allport	0,0,0,2,0,0,3,1,0	89.0	16.0	0.704	1,2,3,0,0,0,0,0,0	to_hand	s499
232.73	0.412	0	PA_without_intermediate	0,0,0,2,0,0,3,1,0	test	ward_and_allport	0,0,0,2,0,0,3,1,0	82.0	16.0	0.412	1,2,3,0,0,0,0,0,0	to_board	s499
233.156	1.0	0	PA_without_intermediate	n/a	test	ward_and_allport	n/a	-1.0	16.0	n/a	n/a	feedback	s499
234.156	1.0	0	PA_without_intermediate	n/a	test	ward_and_allport	n/a	-1.0	16.0	n/a	n/a	ITI	s499
235.169	2.627	1	PA_without_intermediate	0,0,0,1,2,0,0,0,0	test	ward_and_allport	2,0,0,0,0,0,3,1,0	71.0	17.0	2.627	0,0,0,1,2,3,0,0,0	to_hand	s499
237.798	0.217	0	PA_without_intermediate	0,0,0,1,2,0,3,0,0	test	ward_and_allport	2,0,0,0,0,0,3,1,0	82.0	17.0	0.217	0,0,0,1,2,3,0,0,0	to_board	s499
238.027	1.43	0	PA_without_intermediate	0,0,0,1,0,0,3,0,0	test	ward_and_allport	2,0,0,0,0,0,3,1,0	71.0	17.0	1.43	0,0,0,1,2,3,0,0,0	to_hand	s499
239.459	0.216	0	PA_without_intermediate	2,0,0,1,0,0,3,0,0	test	ward_and_allport	2,0,0,0,0,0,3,1,0	89.0	17.0	0.216	0,0,0,1,2,3,0,0,0	to_board	s499
239.686	0.485	0	PA_without_intermediate	2,0,0,0,0,0,3,0,0	test	ward_and_allport	2,0,0,0,0,0,3,1,0	71.0	17.0	0.485	0,0,0,1,2,3,0,0,0	to_hand	s499
240.173	0.318	0	PA_without_intermediate	2,0,0,0,0,0,3,1,0	test	ward_and_allport	2,0,0,0,0,0,3,1,0	82.0	17.0	0.318	0,0,0,1,2,3,0,0,0	to_board	s499
240.503	1.0	0	PA_without_intermediate	n/a	test	ward_and_allport	n/a	-1.0	17.0	n/a	n/a	feedback	s499
241.503	1.408	0	PA_without_intermediate	n/a	test	ward_and_allport	n/a	-1.0	17.0	n/a	n/a	ITI	s499
242.924	3.662	1	PA_with_intermediate	0,0,0,0,0,0,1,2,0	test	ward_and_allport	0,0,0,2,3,0,1,0,0	82.0	18.0	3.662	0,0,0,0,0,0,1,2,3	to_hand	s499
246.589	0.207	0	PA_with_intermediate	0,0,0,3,0,0,1,2,0	test	ward_and_allport	0,0,0,2,3,0,1,0,0	71.0	18.0	0.207	0,0,0,0,0,0,1,2,3	to_board	s499
246.809	0.549	0	PA_with_intermediate	0,0,0,3,0,0,1,0,0	test	ward_and_allport	0,0,0,2,3,0,1,0,0	82.0	18.0	0.549	0,0,0,0,0,0,1,2,3	to_hand	s499
247.36	0.261	0	PA_with_intermediate	2,0,0,3,0,0,1,0,0	test	ward_and_allport	0,0,0,2,3,0,1,0,0	89.0	18.0	0.261	0,0,0,0,0,0,1,2,3	to_board	s499
247.634	0.466	0	PA_with_intermediate	2,0,0,0,0,0,1,0,0	test	ward_and_allport	0,0,0,2,3,0,1,0,0	71.0	18.0	0.466	0,0,0,0,0,0,1,2,3	to_hand	s499
248.102	0.192	0	PA_with_intermediate	2,3,0,0,0,0,1,0,0	test	ward_and_allport	0,0,0,2,3,0,1,0,0	89.0	18.0	0.192	0,0,0,0,0,0,1,2,3	to_board	s499
248.308	4.315	0	PA_with_intermediate	2,0,0,0,0,0,1,0,0	test	ward_and_allport	0,0,0,2,3,0,1,0,0	89.0	18.0	4.315	0,0,0,0,0,0,1,2,3	to_hand	s499
252.625	0.263	0	PA_with_intermediate	2,0,0,3,0,0,1,0,0	test	ward_and_allport	0,0,0,2,3,0,1,0,0	71.0	18.0	0.263	0,0,0,0,0,0,1,2,3	to_board	s499
252.902	2.381	0	PA_with_intermediate	2,0,0,0,0,0,1,0,0	test	ward_and_allport	0,0,0,2,3,0,1,0,0	71.0	18.0	2.381	0,0,0,0,0,0,1,2,3	to_hand	s499
255.285	0.589	0	PA_with_intermediate	2,0,0,0,0,0,1,3,0	test	ward_and_allport	0,0,0,2,3,0,1,0,0	82.0	18.0	0.589	0,0,0,0,0,0,1,2,3	to_board	s499
255.89	0.868	0	PA_with_intermediate	0,0,0,0,0,0,1,3,0	test	ward_and_allport	0,0,0,2,3,0,1,0,0	89.0	18.0	0.868	0,0,0,0,0,0,1,2,3	to_hand	s499
256.76	0.41	0	PA_with_intermediate	0,0,0,2,0,0,1,3,0	test	ward_and_allport	0,0,0,2,3,0,1,0,0	71.0	18.0	0.41	0,0,0,0,0,0,1,2,3	to_board	s499
257.186	0.53	0	PA_with_intermediate	0,0,0,2,0,0,1,0,0	test	ward_and_allport	0,0,0,2,3,0,1,0,0	82.0	18.0	0.53	0,0,0,0,0,0,1,2,3	to_hand	s499
257.719	0.28	0	PA_with_intermediate	0,0,0,2,3,0,1,0,0	test	ward_and_allport	0,0,0,2,3,0,1,0,0	71.0	18.0	0.28	0,0,0,0,0,0,1,2,3	to_board	s499
258.014	1.0	0	PA_with_intermediate	n/a	test	ward_and_allport	n/a	-1.0	18.0	n/a	n/a	feedback	s499
259.014	1.136	0	PA_with_intermediate	n/a	test	ward_and_allport	n/a	-1.0	18.0	n/a	n/a	ITI	s499
260.163	2.801	1	PA_without_intermediate	1,2,0,0,0,0,0,0,0	test	ward_and_allport	0,0,0,3,1,0,2,0,0	89.0	19.0	2.801	1,2,3,0,0,0,0,0,0	to_hand	s499
262.966	0.201	0	PA_without_intermediate	1,2,0,3,0,0,0,0,0	test	ward_and_allport	0,0,0,3,1,0,2,0,0	71.0	19.0	0.201	1,2,3,0,0,0,0,0,0	to_board	s499
263.181	1.209	0	PA_without_intermediate	1,0,0,3,0,0,0,0,0	test	ward_and_allport	0,0,0,3,1,0,2,0,0	89.0	19.0	1.209	1,2,3,0,0,0,0,0,0	to_hand	s499
264.392	0.191	0	PA_without_intermediate	1,0,0,3,0,0,2,0,0	test	ward_and_allport	0,0,0,3,1,0,2,0,0	82.0	19.0	0.191	1,2,3,0,0,0,0,0,0	to_board	s499
264.596	1.203	0	PA_without_intermediate	0,0,0,3,0,0,2,0,0	test	ward_and_allport	0,0,0,3,1,0,2,0,0	89.0	19.0	1.203	1,2,3,0,0,0,0,0,0	to_hand	s499
265.801	0.319	0	PA_without_intermediate	0,0,0,3,1,0,2,0,0	test	ward_and_allport	0,0,0,3,1,0,2,0,0	71.0	19.0	0.319	1,2,3,0,0,0,0,0,0	to_board	s499
266.135	1.0	0	PA_without_intermediate	n/a	test	ward_and_allport	n/a	-1.0	19.0	n/a	n/a	feedback	s499
267.135	4.128	0	PA_without_intermediate	n/a	test	ward_and_allport	n/a	-1.0	19.0	n/a	n/a	ITI	s499
271.281	2.899	1	PA_without_intermediate	0,0,0,1,2,0,0,0,0	test	ward_and_allport	3,1,0,0,0,0,2,0,0	71.0	20.0	2.899	0,0,0,1,2,3,0,0,0	to_hand	s499
274.182	0.219	0	PA_without_intermediate	3,0,0,1,2,0,0,0,0	test	ward_and_allport	3,1,0,0,0,0,2,0,0	89.0	20.0	0.219	0,0,0,1,2,3,0,0,0	to_board	s499
274.415	1.803	0	PA_without_intermediate	3,0,0,1,0,0,0,0,0	test	ward_and_allport	3,1,0,0,0,0,2,0,0	71.0	20.0	1.803	0,0,0,1,2,3,0,0,0	to_hand	s499
276.22	0.264	0	PA_without_intermediate	3,0,0,1,0,0,2,0,0	test	ward_and_allport	3,1,0,0,0,0,2,0,0	82.0	20.0	0.264	0,0,0,1,2,3,0,0,0	to_board	s499
276.499	0.747	0	PA_without_intermediate	3,0,0,0,0,0,2,0,0	test	ward_and_allport	3,1,0,0,0,0,2,0,0	71.0	20.0	0.747	0,0,0,1,2,3,0,0,0	to_hand	s499
277.246	0.234	0	PA_without_intermediate	3,1,0,0,0,0,2,0,0	test	ward_and_allport	3,1,0,0,0,0,2,0,0	89.0	20.0	0.234	0,0,0,1,2,3,0,0,0	to_board	s499
277.496	1.0	0	PA_without_intermediate	n/a	test	ward_and_allport	n/a	-1.0	20.0	n/a	n/a	feedback	s499
278.496	1.136	0	PA_without_intermediate	n/a	test	ward_and_allport	n/a	-1.0	20.0	n/a	n/a	ITI	s499
279.65	3.871	1	PA_without_intermediate	0,0,0,0,0,0,1,2,0	test	ward_and_allport	3,2,0,1,0,0,0,0,0	82.0	21.0	3.871	0,0,0,0,0,0,1,2,3	to_hand	s499
283.523	0.23	0	PA_without_intermediate	3,0,0,0,0,0,1,2,0	test	ward_and_allport	3,2,0,1,0,0,0,0,0	89.0	21.0	0.23	0,0,0,0,0,0,1,2,3	to_board	s499
283.77	0.85	0	PA_without_intermediate	3,0,0,0,0,0,1,0,0	test	ward_and_allport	3,2,0,1,0,0,0,0,0	82.0	21.0	0.85	0,0,0,0,0,0,1,2,3	to_hand	s499
284.622	1.002	0	PA_without_intermediate	3,2,0,0,0,0,1,0,0	test	ward_and_allport	3,2,0,1,0,0,0,0,0	89.0	21.0	1.002	0,0,0,0,0,0,1,2,3	to_board	s499
285.64	0.395	0	PA_without_intermediate	3,2,0,0,0,0,0,0,0	test	ward_and_allport	3,2,0,1,0,0,0,0,0	82.0	21.0	0.395	0,0,0,0,0,0,1,2,3	to_hand	s499
286.038	0.581	0	PA_without_intermediate	3,2,0,1,0,0,0,0,0	test	ward_and_allport	3,2,0,1,0,0,0,0,0	71.0	21.0	0.581	0,0,0,0,0,0,1,2,3	to_board	s499
286.637	1.0	0	PA_without_intermediate	n/a	test	ward_and_allport	n/a	-1.0	21.0	n/a	n/a	feedback	s499
287.637	4.264	0	PA_without_intermediate	n/a	test	ward_and_allport	n/a	-1.0	21.0	n/a	n/a	ITI	s499
291.919	2.889	1	PA_with_intermediate	0,0,0,1,2,0,0,0,0	test	ward_and_allport	0,0,0,1,3,0,2,0,0	71.0	22.0	2.889	0,0,0,1,2,3,0,0,0	to_hand	s499
294.81	0.273	0	PA_with_intermediate	3,0,0,1,2,0,0,0,0	test	ward_and_allport	0,0,0,1,3,0,2,0,0	89.0	22.0	0.273	0,0,0,1,2,3,0,0,0	to_board	s499
295.1	1.129	0	PA_with_intermediate	3,0,0,1,0,0,0,0,0	test	ward_and_allport	0,0,0,1,3,0,2,0,0	71.0	22.0	1.129	0,0,0,1,2,3,0,0,0	to_hand	s499
296.231	0.289	0	PA_with_intermediate	3,0,0,1,0,0,2,0,0	test	ward_and_allport	0,0,0,1,3,0,2,0,0	82.0	22.0	0.289	0,0,0,1,2,3,0,0,0	to_board	s499
296.54	0.824	0	PA_with_intermediate	0,0,0,1,0,0,2,0,0	test	ward_and_allport	0,0,0,1,3,0,2,0,0	89.0	22.0	0.824	0,0,0,1,2,3,0,0,0	to_hand	s499
297.366	0.354	0	PA_with_intermediate	0,0,0,1,3,0,2,0,0	test	ward_and_allport	0,0,0,1,3,0,2,0,0	71.0	22.0	0.354	0,0,0,1,2,3,0,0,0	to_board	s499
297.737	1.0	0	PA_with_intermediate	n/a	test	ward_and_allport	n/a	-1.0	22.0	n/a	n/a	feedback	s499
298.737	3.04	0	PA_with_intermediate	n/a	test	ward_and_allport	n/a	-1.0	22.0	n/a	n/a	ITI	s499
301.794	2.335	1	PA_with_intermediate	0,0,0,0,0,0,1,2,0	test	ward_and_allport	2,0,0,0,0,0,1,3,0	82.0	23.0	2.335	0,0,0,0,0,0,1,2,3	to_hand	s499
304.131	1.925	0	PA_with_intermediate	0,0,0,3,0,0,1,2,0	test	ward_and_allport	2,0,0,0,0,0,1,3,0	71.0	23.0	1.925	0,0,0,0,0,0,1,2,3	to_board	s499
306.076	0.954	0	PA_with_intermediate	0,0,0,3,0,0,1,0,0	test	ward_and_allport	2,0,0,0,0,0,1,3,0	82.0	23.0	0.954	0,0,0,0,0,0,1,2,3	to_hand	s499
307.032	0.288	0	PA_with_intermediate	2,0,0,3,0,0,1,0,0	test	ward_and_allport	2,0,0,0,0,0,1,3,0	89.0	23.0	0.288	0,0,0,0,0,0,1,2,3	to_board	s499
307.339	0.425	0	PA_with_intermediate	2,0,0,0,0,0,1,0,0	test	ward_and_allport	2,0,0,0,0,0,1,3,0	71.0	23.0	0.425	0,0,0,0,0,0,1,2,3	to_hand	s499
307.766	0.236	0	PA_with_intermediate	2,0,0,0,0,0,1,3,0	test	ward_and_allport	2,0,0,0,0,0,1,3,0	82.0	23.0	0.236	0,0,0,0,0,0,1,2,3	to_board	s499
308.022	1.0	0	PA_with_intermediate	n/a	test	ward_and_allport	n/a	-1.0	23.0	n/a	n/a	feedback	s499
309.022	1.136	0	PA_with_intermediate	n/a	test	ward_and_allport	n/a	-1.0	23.0	n/a	n/a	ITI	s499
310.176	4.239	1	PA_with_intermediate	1,2,0,0,0,0,0,0,0	test	ward_and_allport	1,3,0,2,0,0,0,0,0	89.0	24.0	4.239	1,2,3,0,0,0,0,0,0	to_hand	s499
314.415	0.241	0	PA_with_intermediate	1,2,0,0,0,0,3,0,0	test	ward_and_allport	1,3,0,2,0,0,0,0,0	82.0	24.0	0.241	1,2,3,0,0,0,0,0,0	to_board	s499
314.671	1.454	0	PA_with_intermediate	1,0,0,0,0,0,3,0,0	test	ward_and_allport	1,3,0,2,0,0,0,0,0	89.0	24.0	1.454	1,2,3,0,0,0,0,0,0	to_hand	s499
316.127	0.32	0	PA_with_intermediate	1,0,0,2,0,0,3,0,0	test	ward_and_allport	1,3,0,2,0,0,0,0,0	71.0	24.0	0.32	1,2,3,0,0,0,0,0,0	to_board	s499
316.463	1.514	0	PA_with_intermediate	1,0,0,2,0,0,0,0,0	test	ward_and_allport	1,3,0,2,0,0,0,0,0	82.0	24.0	1.514	1,2,3,0,0,0,0,0,0	to_hand	s499
317.979	0.315	0	PA_with_intermediate	1,3,0,2,0,0,0,0,0	test	ward_and_allport	1,3,0,2,0,0,0,0,0	89.0	24.0	0.315	1,2,3,0,0,0,0,0,0	to_board	s499
318.313	1.0	0	PA_with_intermediate	n/a	test	ward_and_allport	n/a	-1.0	24.0	n/a	n/a	feedback	s499
319.313	1.408	0	PA_with_intermediate	n/a	test	ward_and_allport	n/a	-1.0	24.0	n/a	n/a	ITI	s499
320.74	2.905	1	PA_without_intermediate	1,2,0,0,0,0,0,0,0	test	ward_and_allport	0,0,0,2,0,0,3,1,0	89.0	25.0	2.905	1,2,3,0,0,0,0,0,0	to_hand	s499
323.647	0.178	0	PA_without_intermediate	1,2,0,0,0,0,3,0,0	test	ward_and_allport	0,0,0,2,0,0,3,1,0	82.0	25.0	0.178	1,2,3,0,0,0,0,0,0	to_board	s499
323.843	1.416	0	PA_without_intermediate	1,0,0,0,0,0,3,0,0	test	ward_and_allport	0,0,0,2,0,0,3,1,0	89.0	25.0	1.416	1,2,3,0,0,0,0,0,0	to_hand	s499
325.261	0.181	0	PA_without_intermediate	1,0,0,2,0,0,3,0,0	test	ward_and_allport	0,0,0,2,0,0,3,1,0	71.0	25.0	0.181	1,2,3,0,0,0,0,0,0	to_board	s499
325.467	0.618	0	PA_without_intermediate	0,0,0,2,0,0,3,0,0	test	ward_and_allport	0,0,0,2,0,0,3,1,0	89.0	25.0	0.618	1,2,3,0,0,0,0,0,0	to_hand	s499
326.086	0.157	0	PA_without_intermediate	0,0,0,2,0,0,3,1,0	test	ward_and_allport	0,0,0,2,0,0,3,1,0	82.0	25.0	0.157	1,2,3,0,0,0,0,0,0	to_board	s499
326.262	1.0	0	PA_without_intermediate	n/a	test	ward_and_allport	n/a	-1.0	25.0	n/a	n/a	feedback	s499
327.262	1.68	0	PA_without_intermediate	n/a	test	ward_and_allport	n/a	-1.0	25.0	n/a	n/a	ITI	s499
328.959	5.239	1	PA_with_intermediate	0,0,0,0,0,0,1,2,0	test	ward_and_allport	2,3,0,0,0,0,1,0,0	82.0	26.0	5.239	0,0,0,0,0,0,1,2,3	to_hand	s499
334.199	0.456	0	PA_with_intermediate	3,0,0,0,0,0,1,2,0	test	ward_and_allport	2,3,0,0,0,0,1,0,0	89.0	26.0	0.456	0,0,0,0,0,0,1,2,3	to_board	s499
334.671	1.481	0	PA_with_intermediate	0,0,0,0,0,0,1,2,0	test	ward_and_allport	2,3,0,0,0,0,1,0,0	89.0	26.0	1.481	0,0,0,0,0,0,1,2,3	to_hand	s499
336.155	0.5	0	PA_with_intermediate	0,0,0,3,0,0,1,2,0	test	ward_and_allport	2,3,0,0,0,0,1,0,0	71.0	26.0	0.5	0,0,0,0,0,0,1,2,3	to_board	s499
336.674	0.604	0	PA_with_intermediate	0,0,0,3,0,0,1,0,0	test	ward_and_allport	2,3,0,0,0,0,1,0,0	82.0	26.0	0.604	0,0,0,0,0,0,1,2,3	to_hand	s499
337.281	0.518	0	PA_with_intermediate	2,0,0,3,0,0,1,0,0	test	ward_and_allport	2,3,0,0,0,0,1,0,0	89.0	26.0	0.518	0,0,0,0,0,0,1,2,3	to_board	s499
337.82	0.811	0	PA_with_intermediate	2,0,0,0,0,0,1,0,0	test	ward_and_allport	2,3,0,0,0,0,1,0,0	71.0	26.0	0.811	0,0,0,0,0,0,1,2,3	to_hand	s499
338.633	0.211	0	PA_with_intermediate	2,3,0,0,0,0,1,0,0	test	ward_and_allport	2,3,0,0,0,0,1,0,0	89.0	26.0	0.211	0,0,0,0,0,0,1,2,3	to_board	s499
338.865	1.0	0	PA_with_intermediate	n/a	test	ward_and_allport	n/a	-1.0	26.0	n/a	n/a	feedback	s499
339.865	3.72	0	PA_with_intermediate	n/a	test	ward_and_allport	n/a	-1.0	26.0	n/a	n/a	ITI	s499
343.605	4.668	1	PA_without_intermediate	0,0,0,1,2,0,0,0,0	test	ward_and_allport	3,1,0,0,0,0,2,0,0	71.0	27.0	4.668	0,0,0,1,2,3,0,0,0	to_hand	s499
348.276	0.149	0	PA_without_intermediate	3,0,0,1,2,0,0,0,0	test	ward_and_allport	3,1,0,0,0,0,2,0,0	89.0	27.0	0.149	0,0,0,1,2,3,0,0,0	to_board	s499
348.443	1.502	0	PA_without_intermediate	3,0,0,1,0,0,0,0,0	test	ward_and_allport	3,1,0,0,0,0,2,0,0	71.0	27.0	1.502	0,0,0,1,2,3,0,0,0	to_hand	s499
349.948	0.251	0	PA_without_intermediate	3,0,0,1,0,0,2,0,0	test	ward_and_allport	3,1,0,0,0,0,2,0,0	82.0	27.0	0.251	0,0,0,1,2,3,0,0,0	to_board	s499
350.22	1.423	0	PA_without_intermediate	3,0,0,0,0,0,2,0,0	test	ward_and_allport	3,1,0,0,0,0,2,0,0	71.0	27.0	1.423	0,0,0,1,2,3,0,0,0	to_hand	s499
351.645	0.168	0	PA_without_intermediate	3,1,0,0,0,0,2,0,0	test	ward_and_allport	3,1,0,0,0,0,2,0,0	89.0	27.0	0.168	0,0,0,1,2,3,0,0,0	to_board	s499
351.834	1.0	0	PA_without_intermediate	n/a	test	ward_and_allport	n/a	-1.0	27.0	n/a	n/a	feedback	s499
352.834	2.224	0	PA_without_intermediate	n/a	test	ward_and_allport	n/a	-1.0	27.0	n/a	n/a	ITI	s499
355.08	3.66	1	PA_without_intermediate	0,0,0,1,2,0,0,0,0	test	ward_and_allport	1,0,0,0,0,0,3,2,0	71.0	28.0	3.66	0,0,0,1,2,3,0,0,0	to_hand	s499
358.742	0.262	0	PA_without_intermediate	0,0,0,1,2,0,3,0,0	test	ward_and_allport	1,0,0,0,0,0,3,2,0	82.0	28.0	0.262	0,0,0,1,2,3,0,0,0	to_board	s499
359.025	1.864	0	PA_without_intermediate	0,0,0,1,0,0,3,0,0	test	ward_and_allport	1,0,0,0,0,0,3,2,0	71.0	28.0	1.864	0,0,0,1,2,3,0,0,0	to_hand	s499
360.891	0.194	0	PA_without_intermediate	0,0,0,1,0,0,3,2,0	test	ward_and_allport	1,0,0,0,0,0,3,2,0	82.0	28.0	0.194	0,0,0,1,2,3,0,0,0	to_board	s499
361.106	0.829	0	PA_without_intermediate	0,0,0,0,0,0,3,2,0	test	ward_and_allport	1,0,0,0,0,0,3,2,0	71.0	28.0	0.829	0,0,0,1,2,3,0,0,0	to_hand	s499
361.936	0.175	0	PA_without_intermediate	1,0,0,0,0,0,3,2,0	test	ward_and_allport	1,0,0,0,0,0,3,2,0	89.0	28.0	0.175	0,0,0,1,2,3,0,0,0	to_board	s499
362.133	1.0	0	PA_without_intermediate	n/a	test	ward_and_allport	n/a	-1.0	28.0	n/a	n/a	feedback	s499
363.133	1.272	0	PA_without_intermediate	n/a	test	ward_and_allport	n/a	-1.0	28.0	n/a	n/a	ITI	s499
364.423	3.837	1	PA_with_intermediate	1,2,0,0,0,0,0,0,0	test	ward_and_allport	1,0,0,2,3,0,0,0,0	89.0	29.0	3.837	1,2,3,0,0,0,0,0,0	to_hand	s499
368.262	0.26	0	PA_with_intermediate	1,2,0,0,0,0,3,0,0	test	ward_and_allport	1,0,0,2,3,0,0,0,0	82.0	29.0	0.26	1,2,3,0,0,0,0,0,0	to_board	s499
368.544	1.078	0	PA_with_intermediate	1,0,0,0,0,0,3,0,0	test	ward_and_allport	1,0,0,2,3,0,0,0,0	89.0	29.0	1.078	1,2,3,0,0,0,0,0,0	to_hand	s499
369.624	0.199	0	PA_with_intermediate	1,0,0,2,0,0,3,0,0	test	ward_and_allport	1,0,0,2,3,0,0,0,0	71.0	29.0	0.199	1,2,3,0,0,0,0,0,0	to_board	s499
369.844	0.785	0	PA_with_intermediate	1,0,0,2,0,0,0,0,0	test	ward_and_allport	1,0,0,2,3,0,0,0,0	82.0	29.0	0.785	1,2,3,0,0,0,0,0,0	to_hand	s499
370.63	0.292	0	PA_with_intermediate	1,0,0,2,3,0,0,0,0	test	ward_and_allport	1,0,0,2,3,0,0,0,0	71.0	29.0	0.292	1,2,3,0,0,0,0,0,0	to_board	s499
370.945	1.0	0	PA_with_intermediate	n/a	test	ward_and_allport	n/a	-1.0	29.0	n/a	n/a	feedback	s499
371.945	2.632	0	PA_with_intermediate	n/a	test	ward_and_allport	n/a	-1.0	29.0	n/a	n/a	ITI	s499
379.599	2.503	1	PA_without_intermediate	0,0,0,0,0,0,1,2,0	test	ward_and_allport	1,0,0,3,2,0,0,0,0	82.0	30.0	2.503	0,0,0,0,0,0,1,2,3	to_hand	s499
382.105	0.907	0	PA_without_intermediate	0,0,0,3,0,0,1,2,0	test	ward_and_allport	1,0,0,3,2,0,0,0,0	71.0	30.0	0.907	0,0,0,0,0,0,1,2,3	to_board	s499
383.032	0.737	0	PA_without_intermediate	0,0,0,3,0,0,1,0,0	test	ward_and_allport	1,0,0,3,2,0,0,0,0	82.0	30.0	0.737	0,0,0,0,0,0,1,2,3	to_hand	s499
383.771	0.226	0	PA_without_intermediate	0,0,0,3,2,0,1,0,0	test	ward_and_allport	1,0,0,3,2,0,0,0,0	71.0	30.0	0.226	0,0,0,0,0,0,1,2,3	to_board	s499
384.02	0.683	0	PA_without_intermediate	0,0,0,3,2,0,0,0,0	test	ward_and_allport	1,0,0,3,2,0,0,0,0	82.0	30.0	0.683	0,0,0,0,0,0,1,2,3	to_hand	s499
384.705	0.189	0	PA_without_intermediate	1,0,0,3,2,0,0,0,0	test	ward_and_allport	1,0,0,3,2,0,0,0,0	89.0	30.0	0.189	0,0,0,0,0,0,1,2,3	to_board	s499
384.914	1.0	0	PA_without_intermediate	n/a	test	ward_and_allport	n/a	-1.0	30.0	n/a	n/a	feedback	s499
385.914	1.408	0	PA_without_intermediate	n/a	test	ward_and_allport	n/a	-1.0	30.0	n/a	n/a	ITI	s499
387.336	3.023	1	PA_without_intermediate	0,0,0,1,2,0,0,0,0	test	ward_and_allport	2,0,0,0,0,0,3,1,0	71.0	31.0	3.023	0,0,0,1,2,3,0,0,0	to_hand	s499
390.36	0.439	0	PA_without_intermediate	0,0,0,1,2,0,3,0,0	test	ward_and_allport	2,0,0,0,0,0,3,1,0	82.0	31.0	0.439	0,0,0,1,2,3,0,0,0	to_board	s499
390.812	1.006	0	PA_without_intermediate	0,0,0,1,0,0,3,0,0	test	ward_and_allport	2,0,0,0,0,0,3,1,0	71.0	31.0	1.006	0,0,0,1,2,3,0,0,0	to_hand	s499
391.82	0.169	0	PA_without_intermediate	2,0,0,1,0,0,3,0,0	test	ward_and_allport	2,0,0,0,0,0,3,1,0	89.0	31.0	0.169	0,0,0,1,2,3,0,0,0	to_board	s499
392.008	0.793	0	PA_without_intermediate	2,0,0,0,0,0,3,0,0	test	ward_and_allport	2,0,0,0,0,0,3,1,0	71.0	31.0	0.793	0,0,0,1,2,3,0,0,0	to_hand	s499
392.803	0.217	0	PA_without_intermediate	2,0,0,0,0,0,3,1,0	test	ward_and_allport	2,0,0,0,0,0,3,1,0	82.0	31.0	0.217	0,0,0,1,2,3,0,0,0	to_board	s499
393.046	1.0	0	PA_without_intermediate	n/a	test	ward_and_allport	n/a	-1.0	31.0	n/a	n/a	feedback	s499
394.046	1.0	0	PA_without_intermediate	n/a	test	ward_and_allport	n/a	-1.0	31.0	n/a	n/a	ITI	s499
395.065	3.0	1	PA_with_intermediate	0,0,0,1,2,0,0,0,0	test	ward_and_allport	0,0,0,1,0,0,2,3,0	71.0	32.0	3.0	0,0,0,1,2,3,0,0,0	to_hand	s499
398.067	0.227	0	PA_with_intermediate	3,0,0,1,2,0,0,0,0	test	ward_and_allport	0,0,0,1,0,0,2,3,0	89.0	32.0	0.227	0,0,0,1,2,3,0,0,0	to_board	s499
398.314	0.736	0	PA_with_intermediate	3,0,0,1,0,0,0,0,0	test	ward_and_allport	0,0,0,1,0,0,2,3,0	71.0	32.0	0.736	0,0,0,1,2,3,0,0,0	to_hand	s499
399.052	0.199	0	PA_with_intermediate	3,0,0,1,0,0,2,0,0	test	ward_and_allport	0,0,0,1,0,0,2,3,0	82.0	32.0	0.199	0,0,0,1,2,3,0,0,0	to_board	s499
399.273	0.722	0	PA_with_intermediate	0,0,0,1,0,0,2,0,0	test	ward_and_allport	0,0,0,1,0,0,2,3,0	89.0	32.0	0.722	0,0,0,1,2,3,0,0,0	to_hand	s499
399.998	0.205	0	PA_with_intermediate	0,0,0,1,0,0,2,3,0	test	ward_and_allport	0,0,0,1,0,0,2,3,0	82.0	32.0	0.205	0,0,0,1,2,3,0,0,0	to_board	s499
400.226	1.0	0	PA_with_intermediate	n/a	test	ward_and_allport	n/a	-1.0	32.0	n/a	n/a	feedback	s499
401.226	1.0	0	PA_with_intermediate	n/a	test	ward_and_allport	n/a	-1.0	32.0	n/a	n/a	ITI	s499
402.241	1.699	1	PA_with_intermediate	0,0,0,1,2,0,0,0,0	test	ward_and_allport	2,0,0,1,3,0,0,0,0	71.0	33.0	1.699	0,0,0,1,2,3,0,0,0	to_hand	s499
403.942	0.438	0	PA_with_intermediate	3,0,0,1,2,0,0,0,0	test	ward_and_allport	2,0,0,1,3,0,0,0,0	89.0	33.0	0.438	0,0,0,1,2,3,0,0,0	to_board	s499
404.396	3.867	0	PA_with_intermediate	0,0,0,1,2,0,0,0,0	test	ward_and_allport	2,0,0,1,3,0,0,0,0	89.0	33.0	3.867	0,0,0,1,2,3,0,0,0	to_hand	s499
408.265	0.234	0	PA_with_intermediate	0,0,0,1,2,0,3,0,0	test	ward_and_allport	2,0,0,1,3,0,0,0,0	82.0	33.0	0.234	0,0,0,1,2,3,0,0,0	to_board	s499
408.522	0.922	0	PA_with_intermediate	0,0,0,1,0,0,3,0,0	test	ward_and_allport	2,0,0,1,3,0,0,0,0	71.0	33.0	0.922	0,0,0,1,2,3,0,0,0	to_hand	s499
409.446	0.173	0	PA_with_intermediate	2,0,0,1,0,0,3,0,0	test	ward_and_allport	2,0,0,1,3,0,0,0,0	89.0	33.0	0.173	0,0,0,1,2,3,0,0,0	to_board	s499
409.644	1.209	0	PA_with_intermediate	2,0,0,1,0,0,0,0,0	test	ward_and_allport	2,0,0,1,3,0,0,0,0	82.0	33.0	1.209	0,0,0,1,2,3,0,0,0	to_hand	s499
410.855	0.268	0	PA_with_intermediate	2,0,0,1,3,0,0,0,0	test	ward_and_allport	2,0,0,1,3,0,0,0,0	71.0	33.0	0.268	0,0,0,1,2,3,0,0,0	to_board	s499
411.147	1.0	0	PA_with_intermediate	n/a	test	ward_and_allport	n/a	-1.0	33.0	n/a	n/a	feedback	s499
412.147	1.0	0	PA_with_intermediate	n/a	test	ward_and_allport	n/a	-1.0	33.0	n/a	n/a	ITI	s499
413.172	3.733	1	PA_with_intermediate	0,0,0,1,2,0,0,0,0	test	ward_and_allport	0,0,0,1,3,0,2,0,0	71.0	34.0	3.733	0,0,0,1,2,3,0,0,0	to_hand	s499
416.908	0.274	0	PA_with_intermediate	3,0,0,1,2,0,0,0,0	test	ward_and_allport	0,0,0,1,3,0,2,0,0	89.0	34.0	0.274	0,0,0,1,2,3,0,0,0	to_board	s499
417.198	0.365	0	PA_with_intermediate	3,0,0,1,0,0,0,0,0	test	ward_and_allport	0,0,0,1,3,0,2,0,0	71.0	34.0	0.365	0,0,0,1,2,3,0,0,0	to_hand	s499
417.563	0.232	0	PA_with_intermediate	3,0,0,1,0,0,2,0,0	test	ward_and_allport	0,0,0,1,3,0,2,0,0	82.0	34.0	0.232	0,0,0,1,2,3,0,0,0	to_board	s499
417.819	0.385	0	PA_with_intermediate	0,0,0,1,0,0,2,0,0	test	ward_and_allport	0,0,0,1,3,0,2,0,0	89.0	34.0	0.385	0,0,0,1,2,3,0,0,0	to_hand	s499
418.206	0.252	0	PA_with_intermediate	0,0,0,1,3,0,2,0,0	test	ward_and_allport	0,0,0,1,3,0,2,0,0	71.0	34.0	0.252	0,0,0,1,2,3,0,0,0	to_board	s499
418.481	1.0	0	PA_with_intermediate	n/a	test	ward_and_allport	n/a	-1.0	34.0	n/a	n/a	feedback	s499
419.481	1.408	0	PA_with_intermediate	n/a	test	ward_and_allport	n/a	-1.0	34.0	n/a	n/a	ITI	s499
420.909	3.416	1	PA_without_intermediate	0,0,0,1,2,0,0,0,0	test	ward_and_allport	3,2,0,0,0,0,1,0,0	71.0	35.0	3.416	0,0,0,1,2,3,0,0,0	to_hand	s499
424.327	0.194	0	PA_without_intermediate	3,0,0,1,2,0,0,0,0	test	ward_and_allport	3,2,0,0,0,0,1,0,0	89.0	35.0	0.194	0,0,0,1,2,3,0,0,0	to_board	s499
424.538	0.755	0	PA_without_intermediate	3,0,0,1,0,0,0,0,0	test	ward_and_allport	3,2,0,0,0,0,1,0,0	71.0	35.0	0.755	0,0,0,1,2,3,0,0,0	to_hand	s499
425.295	0.14	0	PA_without_intermediate	3,2,0,1,0,0,0,0,0	test	ward_and_allport	3,2,0,0,0,0,1,0,0	89.0	35.0	0.14	0,0,0,1,2,3,0,0,0	to_board	s499
425.459	0.806	0	PA_without_intermediate	3,2,0,0,0,0,0,0,0	test	ward_and_allport	3,2,0,0,0,0,1,0,0	71.0	35.0	0.806	0,0,0,1,2,3,0,0,0	to_hand	s499
426.268	0.197	0	PA_without_intermediate	3,2,0,0,0,0,1,0,0	test	ward_and_allport	3,2,0,0,0,0,1,0,0	82.0	35.0	0.197	0,0,0,1,2,3,0,0,0	to_board	s499
426.489	1.0	0	PA_without_intermediate	n/a	test	ward_and_allport	n/a	-1.0	35.0	n/a	n/a	feedback	s499
427.489	1.816	0	PA_without_intermediate	n/a	test	ward_and_allport	n/a	-1.0	35.0	n/a	n/a	ITI	s499
429.323	4.074	1	PA_with_intermediate	0,0,0,1,2,0,0,0,0	test	ward_and_allport	2,3,0,1,0,0,0,0,0	71.0	36.0	4.074	0,0,0,1,2,3,0,0,0	to_hand	s499
433.399	0.384	0	PA_with_intermediate	0,0,0,1,2,0,3,0,0	test	ward_and_allport	2,3,0,1,0,0,0,0,0	82.0	36.0	0.384	0,0,0,1,2,3,0,0,0	to_board	s499
433.807	0.464	0	PA_with_intermediate	0,0,0,1,0,0,3,0,0	test	ward_and_allport	2,3,0,1,0,0,0,0,0	71.0	36.0	0.464	0,0,0,1,2,3,0,0,0	to_hand	s499
434.273	0.24	0	PA_with_intermediate	0,0,0,1,0,0,3,2,0	test	ward_and_allport	2,3,0,1,0,0,0,0,0	82.0	36.0	0.24	0,0,0,1,2,3,0,0,0	to_board	s499
434.538	3.161	0	PA_with_intermediate	0,0,0,0,0,0,3,2,0	test	ward_and_allport	2,3,0,1,0,0,0,0,0	71.0	36.0	3.161	0,0,0,1,2,3,0,0,0	to_hand	s499
437.701	0.272	0	PA_with_intermediate	1,0,0,0,0,0,3,2,0	test	ward_and_allport	2,3,0,1,0,0,0,0,0	89.0	36.0	0.272	0,0,0,1,2,3,0,0,0	to_board	s499
437.999	0.857	0	PA_with_intermediate	0,0,0,0,0,0,3,2,0	test	ward_and_allport	2,3,0,1,0,0,0,0,0	89.0	36.0	0.857	0,0,0,1,2,3,0,0,0	to_hand	s499
438.858	0.386	0	PA_with_intermediate	0,0,0,1,0,0,3,2,0	test	ward_and_allport	2,3,0,1,0,0,0,0,0	71.0	36.0	0.386	0,0,0,1,2,3,0,0,0	to_board	s499
439.269	0.504	0	PA_with_intermediate	0,0,0,1,0,0,3,0,0	test	ward_and_allport	2,3,0,1,0,0,0,0,0	82.0	36.0	0.504	0,0,0,1,2,3,0,0,0	to_hand	s499
439.776	0.245	0	PA_with_intermediate	0,0,0,1,2,0,3,0,0	test	ward_and_allport	2,3,0,1,0,0,0,0,0	71.0	36.0	0.245	0,0,0,1,2,3,0,0,0	to_board	s499
440.039	0.972	0	PA_with_intermediate	0,0,0,1,0,0,3,0,0	test	ward_and_allport	2,3,0,1,0,0,0,0,0	71.0	36.0	0.972	0,0,0,1,2,3,0,0,0	to_hand	s499
441.013	0.669	0	PA_with_intermediate	0,0,0,1,0,0,3,2,0	test	ward_and_allport	2,3,0,1,0,0,0,0,0	82.0	36.0	0.669	0,0,0,1,2,3,0,0,0	to_board	s499
441.699	0.775	0	PA_with_intermediate	0,0,0,1,0,0,3,0,0	test	ward_and_allport	2,3,0,1,0,0,0,0,0	82.0	36.0	0.775	0,0,0,1,2,3,0,0,0	to_hand	s499
442.477	0.713	0	PA_with_intermediate	2,0,0,1,0,0,3,0,0	test	ward_and_allport	2,3,0,1,0,0,0,0,0	89.0	36.0	0.713	0,0,0,1,2,3,0,0,0	to_board	s499
443.208	0.93	0	PA_with_intermediate	2,0,0,1,0,0,0,0,0	test	ward_and_allport	2,3,0,1,0,0,0,0,0	82.0	36.0	0.93	0,0,0,1,2,3,0,0,0	to_hand	s499
444.141	0.202	0	PA_with_intermediate	2,3,0,1,0,0,0,0,0	test	ward_and_allport	2,3,0,1,0,0,0,0,0	89.0	36.0	0.202	0,0,0,1,2,3,0,0,0	to_board	s499
444.363	1.0	0	PA_with_intermediate	n/a	test	ward_and_allport	n/a	-1.0	36.0	n/a	n/a	feedback	s499
445.363	3.176	0	PA_with_intermediate	n/a	test	ward_and_allport	n/a	-1.0	36.0	n/a	n/a	ITI	s499
448.568	7.656	1	PA_with_intermediate	0,0,0,0,0,0,1,2,0	test	ward_and_allport	0,0,0,2,3,0,1,0,0	82.0	37.0	7.656	0,0,0,0,0,0,1,2,3	to_hand	s499
456.226	0.302	0	PA_with_intermediate	3,0,0,0,0,0,1,2,0	test	ward_and_allport	0,0,0,2,3,0,1,0,0	89.0	37.0	0.302	0,0,0,0,0,0,1,2,3	to_board	s499
456.555	0.618	0	PA_with_intermediate	3,0,0,0,0,0,1,0,0	test	ward_and_allport	0,0,0,2,3,0,1,0,0	82.0	37.0	0.618	0,0,0,0,0,0,1,2,3	to_hand	s499
457.175	0.242	0	PA_with_intermediate	3,2,0,0,0,0,1,0,0	test	ward_and_allport	0,0,0,2,3,0,1,0,0	89.0	37.0	0.242	0,0,0,0,0,0,1,2,3	to_board	s499
457.444	1.328	0	PA_with_intermediate	3,0,0,0,0,0,1,0,0	test	ward_and_allport	0,0,0,2,3,0,1,0,0	89.0	37.0	1.328	0,0,0,0,0,0,1,2,3	to_hand	s499
458.774	0.555	0	PA_with_intermediate	3,0,0,2,0,0,1,0,0	test	ward_and_allport	0,0,0,2,3,0,1,0,0	71.0	37.0	0.555	0,0,0,0,0,0,1,2,3	to_board	s499
459.357	1.038	0	PA_with_intermediate	0,0,0,2,0,0,1,0,0	test	ward_and_allport	0,0,0,2,3,0,1,0,0	89.0	37.0	1.038	0,0,0,0,0,0,1,2,3	to_hand	s499
460.397	0.395	0	PA_with_intermediate	0,0,0,2,0,0,1,3,0	test	ward_and_allport	0,0,0,2,3,0,1,0,0	82.0	37.0	0.395	0,0,0,0,0,0,1,2,3	to_board	s499
460.817	1.996	0	PA_with_intermediate	0,0,0,2,0,0,1,0,0	test	ward_and_allport	0,0,0,2,3,0,1,0,0	82.0	37.0	1.996	0,0,0,0,0,0,1,2,3	to_hand	s499
462.814	0.474	0	PA_with_intermediate	0,0,0,2,3,0,1,0,0	test	ward_and_allport	0,0,0,2,3,0,1,0,0	71.0	37.0	0.474	0,0,0,0,0,0,1,2,3	to_board	s499
463.31	1.0	0	PA_with_intermediate	n/a	test	ward_and_allport	n/a	-1.0	37.0	n/a	n/a	feedback	s499
464.31	2.36	0	PA_with_intermediate	n/a	test	ward_and_allport	n/a	-1.0	37.0	n/a	n/a	ITI	s499
n/a	n/a	0	n/a	n/a	n/a	n/a	n/a	n/a	n/a	n/a	n/a	ITI	n/a
