onset	duration	EV	action	clicked_on_loss_card	experiment_exp_id	gain_amount	gain_probability	key_press	loss_amount	loss_probability	num_cards	num_click_in_round	num_loss_cards	risk	response_time	total_cards	trial_id	worker_id
3.015	23.066	1.2510140840123358	draw_card	0.0	columbia_card_task_fmri	12.0	0.8333333333333334	89.0	-70.0	0.1666666666666666	6.0	1.0	1.0	-4.026207242294213	23.066	n/a	stim	s499
26.087	10.43	-1.482319249320997	end_round	0.0	columbia_card_task_fmri	12.0	0.8	71.0	-70.0	0.2	6.0	2.0	1.0	-1.7952563852758487	10.43	1.0	stim	s499
36.521	2.25	n/a	-1.0	n/a	columbia_card_task_fmri	n/a	n/a	-1.0	n/a	n/a	n/a	n/a	n/a	n/a	n/a	n/a	feedback	s499
38.771	0.204	n/a	-1.0	n/a	columbia_card_task_fmri	n/a	n/a	-1.0	n/a	n/a	n/a	n/a	n/a	n/a	n/a	n/a	ITI	s499
38.979	4.356	2.0843474173456698	draw_card	0.0	columbia_card_task_fmri	14.0	0.8333333333333334	89.0	-75.0	0.1666666666666666	6.0	1.0	1.0	-1.4283474315412263	4.356	n/a	stim	s499
43.338	2.389	-0.882319249320997	draw_card	0.0	columbia_card_task_fmri	14.0	0.8	89.0	-75.0	0.2	6.0	2.0	1.0	0.9945926399674434	2.389	n/a	stim	s499
45.73	1.695	-5.332319249320998	end_round	0.0	columbia_card_task_fmri	14.0	0.75	71.0	-75.0	0.25	6.0	3.0	1.0	3.9236499927216855	1.695	2.0	stim	s499
47.43	2.25	n/a	-1.0	n/a	columbia_card_task_fmri	n/a	n/a	-1.0	n/a	n/a	n/a	n/a	n/a	n/a	n/a	n/a	feedback	s499
49.68	0.204	n/a	-1.0	n/a	columbia_card_task_fmri	n/a	n/a	-1.0	n/a	n/a	n/a	n/a	n/a	n/a	n/a	n/a	ITI	s499
49.887	4.25	3.751014084012336	draw_card	0.0	columbia_card_task_fmri	15.0	0.8333333333333334	89.0	-70.0	0.1666666666666666	6.0	1.0	1.0	-2.9130569225357448	4.25	n/a	stim	s499
54.14	0.519	0.917680750679002	draw_card	1.0	columbia_card_task_fmri	15.0	0.8	89.0	-70.0	0.2	6.0	2.0	1.0	-0.5998104085525284	0.519	2.0	stim	s499
54.662	2.25	n/a	-1.0	n/a	columbia_card_task_fmri	n/a	n/a	-1.0	n/a	n/a	n/a	n/a	n/a	n/a	n/a	n/a	feedback	s499
56.912	0.272	n/a	-1.0	n/a	columbia_card_task_fmri	n/a	n/a	-1.0	n/a	n/a	n/a	n/a	n/a	n/a	n/a	n/a	ITI	s499
57.187	2.573	4.58434741734567	draw_card	0.0	columbia_card_task_fmri	17.0	0.8333333333333334	89.0	-75.0	0.1666666666666666	6.0	1.0	1.0	-0.3144746986669418	2.573	n/a	stim	s499
59.762	1.039	1.517680750679003	end_round	0.0	columbia_card_task_fmri	17.0	0.8	71.0	-75.0	0.2	6.0	2.0	1.0	2.190712762944379	1.039	1.0	stim	s499
60.805	2.25	n/a	-1.0	n/a	columbia_card_task_fmri	n/a	n/a	-1.0	n/a	n/a	n/a	n/a	n/a	n/a	n/a	n/a	feedback	s499
63.055	0.204	n/a	-1.0	n/a	columbia_card_task_fmri	n/a	n/a	-1.0	n/a	n/a	n/a	n/a	n/a	n/a	n/a	n/a	ITI	s499
63.262	2.547	5.917680750679002	draw_card	0.0	columbia_card_task_fmri	24.0	0.75	89.0	-60.0	0.25	8.0	1.0	2.0	1.765130897981102	2.547	n/a	stim	s499
65.81	0.691	2.917680750679002	draw_card	0.0	columbia_card_task_fmri	24.0	0.7142857142857143	89.0	-60.0	0.2857142857142857	8.0	2.0	2.0	3.3345635179106523	0.691	n/a	stim	s499
66.505	2.969	-1.082319249320998	draw_card	0.0	columbia_card_task_fmri	24.0	0.6666666666666667	89.0	-60.0	0.3333333333333333	8.0	3.0	2.0	4.980555437835676	2.969	n/a	stim	s499
69.478	5.611	-6.682319249320999	draw_card	0.0	columbia_card_task_fmri	24.0	0.6	89.0	-60.0	0.4	8.0	4.0	2.0	6.529961466874241	5.611	n/a	stim	s499
75.092	4.623	-15.082319249320998	draw_card	0.0	columbia_card_task_fmri	24.0	0.5	89.0	-60.0	0.5	8.0	5.0	2.0	7.376451699097792	4.623	n/a	stim	s499
79.718	2.08	-29.082319249321	end_round	0.0	columbia_card_task_fmri	24.0	0.3333333333333333	71.0	-60.0	0.6666666666666666	8.0	6.0	2.0	4.980555437835676	2.08	5.0	stim	s499
81.803	2.25	n/a	-1.0	n/a	columbia_card_task_fmri	n/a	n/a	-1.0	n/a	n/a	n/a	n/a	n/a	n/a	n/a	n/a	feedback	s499
84.053	0.408	n/a	-1.0	n/a	columbia_card_task_fmri	n/a	n/a	-1.0	n/a	n/a	n/a	n/a	n/a	n/a	n/a	n/a	ITI	s499
84.468	2.327	5.917680750679002	draw_card	0.0	columbia_card_task_fmri	29.0	0.75	89.0	-75.0	0.25	8.0	1.0	2.0	10.40296946368762	2.327	n/a	stim	s499
86.798	0.813	2.20339503639329	draw_card	0.0	columbia_card_task_fmri	29.0	0.7142857142857143	89.0	-75.0	0.2857142857142857	8.0	2.0	2.0	12.348150115803598	0.813	n/a	stim	s499
87.615	0.796	-2.7489859159876624	draw_card	1.0	columbia_card_task_fmri	29.0	0.6666666666666667	89.0	-75.0	0.3333333333333333	8.0	3.0	2.0	14.388043250482845	0.796	3.0	stim	s499
88.416	2.25	n/a	-1.0	n/a	columbia_card_task_fmri	n/a	n/a	-1.0	n/a	n/a	n/a	n/a	n/a	n/a	n/a	n/a	feedback	s499
90.666	0.136	n/a	-1.0	n/a	columbia_card_task_fmri	n/a	n/a	-1.0	n/a	n/a	n/a	n/a	n/a	n/a	n/a	n/a	ITI	s499
90.806	0.711	1.6954585284567822	draw_card	0.0	columbia_card_task_fmri	17.0	0.7777777777777778	89.0	-65.0	0.2222222222222222	9.0	1.0	2.0	-0.5094853067464982	0.711	n/a	stim	s499
91.52	0.422	-0.5823192493209981	draw_card	0.0	columbia_card_task_fmri	17.0	0.75	89.0	-65.0	0.25	9.0	2.0	2.0	0.9019456413384715	0.422	n/a	stim	s499
91.945	2.522	-3.510890677892425	draw_card	0.0	columbia_card_task_fmri	17.0	0.7142857142857143	89.0	-65.0	0.2857142857142857	9.0	3.0	2.0	2.4337790247435294	2.522	n/a	stim	s499
94.471	0.505	-7.415652582654328	draw_card	0.0	columbia_card_task_fmri	17.0	0.6666666666666667	89.0	-65.0	0.3333333333333333	9.0	4.0	2.0	4.040357243143177	0.505	n/a	stim	s499
94.979	2.226	-12.882319249320998	draw_card	0.0	columbia_card_task_fmri	17.0	0.6	89.0	-65.0	0.4	9.0	5.0	2.0	5.552678631059457	2.226	n/a	stim	s499
97.21	4.161	-21.082319249321	draw_card	1.0	columbia_card_task_fmri	17.0	0.5	89.0	-65.0	0.5	9.0	6.0	2.0	6.378914364989221	4.161	6.0	stim	s499
101.377	2.25	n/a	-1.0	n/a	columbia_card_task_fmri	n/a	n/a	-1.0	n/a	n/a	n/a	n/a	n/a	n/a	n/a	n/a	feedback	s499
103.627	0.272	n/a	-1.0	n/a	columbia_card_task_fmri	n/a	n/a	-1.0	n/a	n/a	n/a	n/a	n/a	n/a	n/a	n/a	ITI	s499
103.903	0.888	6.017680750679002	draw_card	0.0	columbia_card_task_fmri	14.0	0.9	89.0	-95.0	0.1	10.0	1.0	1.0	-1.894861884314729	0.888	n/a	stim	s499
104.796	0.457	4.80656963956789	draw_card	1.0	columbia_card_task_fmri	14.0	0.8888888888888888	89.0	-95.0	0.1111111111111111	10.0	2.0	1.0	-0.3453435078484332	0.457	2.0	stim	s499
105.259	2.25	n/a	-1.0	n/a	columbia_card_task_fmri	n/a	n/a	-1.0	n/a	n/a	n/a	n/a	n/a	n/a	n/a	n/a	feedback	s499
107.509	0.34	n/a	-1.0	n/a	columbia_card_task_fmri	n/a	n/a	-1.0	n/a	n/a	n/a	n/a	n/a	n/a	n/a	n/a	ITI	s499
107.852	0.695	1.917680750679002	draw_card	0.0	columbia_card_task_fmri	15.0	0.8	89.0	-65.0	0.2	10.0	1.0	2.0	-2.592031760649924	0.695	n/a	stim	s499
108.551	0.747	0.1399029729012251	draw_card	0.0	columbia_card_task_fmri	15.0	0.7777777777777778	89.0	-65.0	0.2222222222222222	10.0	2.0	2.0	-1.3378607915845675	0.747	n/a	stim	s499
109.302	1.946	-2.082319249320998	draw_card	0.0	columbia_card_task_fmri	15.0	0.75	89.0	-65.0	0.25	10.0	3.0	2.0	0.0389016592641624	1.946	n/a	stim	s499
111.252	2.367	-4.939462106463852	draw_card	0.0	columbia_card_task_fmri	15.0	0.7142857142857143	89.0	-65.0	0.2857142857142857	10.0	4.0	2.0	1.5331300561564305	2.367	n/a	stim	s499
113.624	2.356	-8.74898591598766	draw_card	1.0	columbia_card_task_fmri	15.0	0.6666666666666667	89.0	-65.0	0.3333333333333333	10.0	5.0	2.0	3.100289021864377	2.356	5.0	stim	s499
115.984	2.25	n/a	-1.0	n/a	columbia_card_task_fmri	n/a	n/a	-1.0	n/a	n/a	n/a	n/a	n/a	n/a	n/a	n/a	feedback	s499
118.234	0.136	n/a	-1.0	n/a	columbia_card_task_fmri	n/a	n/a	-1.0	n/a	n/a	n/a	n/a	n/a	n/a	n/a	n/a	ITI	s499
118.375	0.635	3.5176807506790038	draw_card	0.0	columbia_card_task_fmri	17.0	0.8	89.0	-65.0	0.2	10.0	1.0	2.0	-1.7952563852758487	0.635	n/a	stim	s499
119.015	0.358	1.6954585284567822	draw_card	0.0	columbia_card_task_fmri	17.0	0.7777777777777778	89.0	-65.0	0.2222222222222222	10.0	2.0	2.0	-0.5094853067464982	0.358	n/a	stim	s499
119.378	1.426	-0.5823192493209981	draw_card	1.0	columbia_card_task_fmri	17.0	0.75	89.0	-65.0	0.25	10.0	3.0	2.0	0.9019456413384715	1.426	3.0	stim	s499
120.81	2.25	n/a	-1.0	n/a	columbia_card_task_fmri	n/a	n/a	-1.0	n/a	n/a	n/a	n/a	n/a	n/a	n/a	n/a	feedback	s499
123.06	0.34	n/a	-1.0	n/a	columbia_card_task_fmri	n/a	n/a	-1.0	n/a	n/a	n/a	n/a	n/a	n/a	n/a	n/a	ITI	s499
123.404	0.612	2.0843474173456698	draw_card	1.0	columbia_card_task_fmri	13.0	0.8333333333333334	89.0	-70.0	0.1666666666666666	12.0	1.0	2.0	-3.655196103301876	0.612	1.0	stim	s499
124.022	2.25	n/a	-1.0	n/a	columbia_card_task_fmri	n/a	n/a	-1.0	n/a	n/a	n/a	n/a	n/a	n/a	n/a	n/a	feedback	s499
126.272	0.068	n/a	-1.0	n/a	columbia_card_task_fmri	n/a	n/a	-1.0	n/a	n/a	n/a	n/a	n/a	n/a	n/a	n/a	ITI	s499
126.345	0.522	2.0843474173456698	draw_card	0.0	columbia_card_task_fmri	15.0	0.8333333333333334	89.0	-80.0	0.1666666666666666	12.0	1.0	2.0	0.7996594759615263	0.522	n/a	stim	s499
126.871	2.506	0.6449534779517268	draw_card	0.0	columbia_card_task_fmri	15.0	0.8181818181818181	89.0	-80.0	0.1818181818181818	12.0	2.0	2.0	2.032200101787872	2.506	n/a	stim	s499
129.382	0.35	-1.082319249320998	draw_card	0.0	columbia_card_task_fmri	15.0	0.8	89.0	-80.0	0.2	12.0	3.0	2.0	3.387076817453341	0.35	n/a	stim	s499
129.737	1.528	-3.1934303604321106	draw_card	0.0	columbia_card_task_fmri	15.0	0.7777777777777778	89.0	-80.0	0.2222222222222222	12.0	4.0	2.0	4.878126501592433	1.528	n/a	stim	s499
131.27	0.767	-5.832319249320998	draw_card	1.0	columbia_card_task_fmri	15.0	0.75	89.0	-80.0	0.25	12.0	5.0	2.0	6.51477859599175	0.767	5.0	stim	s499
132.043	2.25	n/a	-1.0	n/a	columbia_card_task_fmri	n/a	n/a	-1.0	n/a	n/a	n/a	n/a	n/a	n/a	n/a	n/a	feedback	s499
134.293	0.0	n/a	-1.0	n/a	columbia_card_task_fmri	n/a	n/a	-1.0	n/a	n/a	n/a	n/a	n/a	n/a	n/a	n/a	ITI	s499
134.298	0.658	1.117680750679003	draw_card	0.0	columbia_card_task_fmri	14.0	0.8	89.0	-65.0	0.2	15.0	1.0	3.0	-2.990358603430103	0.658	n/a	stim	s499
134.961	0.431	-0.0108906778924251	draw_card	0.0	columbia_card_task_fmri	14.0	0.7857142857142857	89.0	-65.0	0.2142857142857142	15.0	2.0	3.0	-2.1779809252207443	0.431	n/a	stim	s499
135.396	0.725	-1.3130884800902298	draw_card	0.0	columbia_card_task_fmri	14.0	0.7692307692307692	89.0	-65.0	0.2307692307692307	15.0	3.0	3.0	-1.312456559075386	0.725	n/a	stim	s499
136.127	0.773	-2.832319249320998	draw_card	0.0	columbia_card_task_fmri	14.0	0.75	89.0	-65.0	0.25	15.0	4.0	3.0	-0.3925640243376804	0.773	n/a	stim	s499
136.905	1.314	-4.627773794775543	draw_card	1.0	columbia_card_task_fmri	14.0	0.7272727272727273	89.0	-65.0	0.2727272727272727	15.0	5.0	3.0	0.5795805088439252	1.314	5.0	stim	s499
138.225	2.25	n/a	-1.0	n/a	columbia_card_task_fmri	n/a	n/a	-1.0	n/a	n/a	n/a	n/a	n/a	n/a	n/a	n/a	feedback	s499
140.475	0.204	n/a	-1.0	n/a	columbia_card_task_fmri	n/a	n/a	-1.0	n/a	n/a	n/a	n/a	n/a	n/a	n/a	n/a	ITI	s499
140.684	0.574	1.042680750679002	draw_card	0.0	columbia_card_task_fmri	1.0	0.9375	89.0	-45.0	0.0625	16.0	1.0	1.0	-23.21402553932113	0.574	n/a	stim	s499
141.264	2.217	0.8510140840123355	end_round	0.0	columbia_card_task_fmri	1.0	0.9333333333333332	71.0	-45.0	0.0666666666666666	16.0	2.0	1.0	-22.885214040396683	2.217	1.0	stim	s499
143.487	2.25	n/a	-1.0	n/a	columbia_card_task_fmri	n/a	n/a	-1.0	n/a	n/a	n/a	n/a	n/a	n/a	n/a	n/a	feedback	s499
145.737	1.02	n/a	-1.0	n/a	columbia_card_task_fmri	n/a	n/a	-1.0	n/a	n/a	n/a	n/a	n/a	n/a	n/a	n/a	ITI	s499
146.761	1.59	1.980180750679002	draw_card	0.0	columbia_card_task_fmri	15.0	0.8125	89.0	-70.0	0.1875	16.0	1.0	3.0	-1.4201688055710733	1.59	n/a	stim	s499
148.357	0.691	0.917680750679002	draw_card	0.0	columbia_card_task_fmri	15.0	0.8	89.0	-70.0	0.2	16.0	2.0	3.0	-0.5998104085525284	0.691	n/a	stim	s499
149.054	0.792	-0.2966049636067134	draw_card	1.0	columbia_card_task_fmri	15.0	0.7857142857142857	89.0	-70.0	0.2142857142857142	16.0	3.0	3.0	0.2747578383626177	0.792	3.0	stim	s499
149.852	2.25	n/a	-1.0	n/a	columbia_card_task_fmri	n/a	n/a	-1.0	n/a	n/a	n/a	n/a	n/a	n/a	n/a	n/a	feedback	s499
152.102	0.0	n/a	-1.0	n/a	columbia_card_task_fmri	n/a	n/a	-1.0	n/a	n/a	n/a	n/a	n/a	n/a	n/a	n/a	ITI	s499
152.107	1.61	8.917680750679002	draw_card	0.0	columbia_card_task_fmri	30.0	0.7	89.0	-50.0	0.3	10.0	1.0	3.0	2.051756040345076	1.61	n/a	stim	s499
153.722	0.575	6.251014084012342	draw_card	0.0	columbia_card_task_fmri	30.0	0.6666666666666667	89.0	-50.0	0.3333333333333333	10.0	2.0	3.0	3.100289021864377	0.575	n/a	stim	s499
154.302	2.45	2.917680750679002	draw_card	0.0	columbia_card_task_fmri	30.0	0.625	89.0	-50.0	0.375	10.0	3.0	3.0	4.114808627584111	2.45	n/a	stim	s499
156.757	0.705	-1.3680335350352828	end_round	0.0	columbia_card_task_fmri	30.0	0.5714285714285714	71.0	-50.0	0.4285714285714285	10.0	4.0	3.0	4.972330736684384	0.705	3.0	stim	s499
157.469	2.25	n/a	-1.0	n/a	columbia_card_task_fmri	n/a	n/a	-1.0	n/a	n/a	n/a	n/a	n/a	n/a	n/a	n/a	feedback	s499
159.719	0.0	n/a	-1.0	n/a	columbia_card_task_fmri	n/a	n/a	-1.0	n/a	n/a	n/a	n/a	n/a	n/a	n/a	n/a	ITI	s499
159.725	1.409	8.317680750679003	draw_card	1.0	columbia_card_task_fmri	17.0	0.8666666666666667	89.0	-70.0	0.1333333333333333	15.0	1.0	2.0	-5.006882014427578	1.409	1.0	stim	s499
161.141	2.25	n/a	-1.0	n/a	columbia_card_task_fmri	n/a	n/a	-1.0	n/a	n/a	n/a	n/a	n/a	n/a	n/a	n/a	feedback	s499
163.391	0.068	n/a	-1.0	n/a	columbia_card_task_fmri	n/a	n/a	-1.0	n/a	n/a	n/a	n/a	n/a	n/a	n/a	n/a	ITI	s499
163.463	1.165	3.542680750679002	end_round	0.0	columbia_card_task_fmri	7.0	0.9375	71.0	-95.0	0.0625	16.0	1.0	1.0	-9.862705716292666	1.165	0.0	stim	s499
164.635	2.25	n/a	-1.0	n/a	columbia_card_task_fmri	n/a	n/a	-1.0	n/a	n/a	n/a	n/a	n/a	n/a	n/a	n/a	feedback	s499
166.885	0.476	n/a	-1.0	n/a	columbia_card_task_fmri	n/a	n/a	-1.0	n/a	n/a	n/a	n/a	n/a	n/a	n/a	n/a	ITI	s499
167.366	4.66	5.105180750679002	draw_card	1.0	columbia_card_task_fmri	9.0	0.9375	89.0	-100.0	0.0625	16.0	1.0	1.0	-8.179239123770781	4.66	1.0	stim	s499
172.033	2.25	n/a	-1.0	n/a	columbia_card_task_fmri	n/a	n/a	-1.0	n/a	n/a	n/a	n/a	n/a	n/a	n/a	n/a	feedback	s499
174.283	0.136	n/a	-1.0	n/a	columbia_card_task_fmri	n/a	n/a	-1.0	n/a	n/a	n/a	n/a	n/a	n/a	n/a	n/a	ITI	s499
174.423	1.628	6.042680750679002	draw_card	0.0	columbia_card_task_fmri	15.0	0.875	89.0	-80.0	0.125	16.0	1.0	2.0	-3.1712877570824745	1.628	n/a	stim	s499
176.058	0.495	5.251014084012336	draw_card	0.0	columbia_card_task_fmri	15.0	0.8666666666666667	89.0	-80.0	0.1333333333333333	16.0	2.0	2.0	-2.299444162003354	0.495	n/a	stim	s499
176.559	0.532	4.346252179250433	draw_card	1.0	columbia_card_task_fmri	15.0	0.8571428571428572	89.0	-80.0	0.1428571428571428	16.0	3.0	2.0	-1.3539008504223131	0.532	3.0	stim	s499
177.098	2.25	n/a	-1.0	n/a	columbia_card_task_fmri	n/a	n/a	-1.0	n/a	n/a	n/a	n/a	n/a	n/a	n/a	n/a	feedback	s499
179.348	0.068	n/a	-1.0	n/a	columbia_card_task_fmri	n/a	n/a	-1.0	n/a	n/a	n/a	n/a	n/a	n/a	n/a	n/a	ITI	s499
179.421	1.637	8.167680750679002	draw_card	1.0	columbia_card_task_fmri	16.0	0.875	89.0	-70.0	0.125	16.0	1.0	2.0	-6.133681071458096	1.637	1.0	stim	s499
181.065	2.25	n/a	-1.0	n/a	columbia_card_task_fmri	n/a	n/a	-1.0	n/a	n/a	n/a	n/a	n/a	n/a	n/a	n/a	feedback	s499
183.315	0.0	n/a	-1.0	n/a	columbia_card_task_fmri	n/a	n/a	-1.0	n/a	n/a	n/a	n/a	n/a	n/a	n/a	n/a	ITI	s499
183.319	4.192	9.480180750679002	draw_card	0.0	columbia_card_task_fmri	30.0	0.6875	89.0	-45.0	0.3125	16.0	1.0	5.0	0.160885519212016	4.192	n/a	stim	s499
187.517	0.872	7.917680750679006	draw_card	0.0	columbia_card_task_fmri	30.0	0.6666666666666667	89.0	-45.0	0.3333333333333333	16.0	2.0	5.0	0.7507549060746328	0.872	n/a	stim	s499
188.396	1.042	6.131966464964714	draw_card	1.0	columbia_card_task_fmri	30.0	0.6428571428571428	89.0	-45.0	0.3571428571428571	16.0	3.0	5.0	1.3302844181908426	1.042	3.0	stim	s499
189.446	2.25	n/a	-1.0	n/a	columbia_card_task_fmri	n/a	n/a	-1.0	n/a	n/a	n/a	n/a	n/a	n/a	n/a	n/a	feedback	s499
191.696	0.0	n/a	-1.0	n/a	columbia_card_task_fmri	n/a	n/a	-1.0	n/a	n/a	n/a	n/a	n/a	n/a	n/a	n/a	ITI	s499
191.701	0.932	1.2510140840123358	draw_card	0.0	columbia_card_task_fmri	13.0	0.8333333333333334	89.0	-75.0	0.1666666666666666	6.0	1.0	1.0	-1.7995756580210909	0.932	n/a	stim	s499
192.639	1.779	-1.6823192493209975	end_round	0.0	columbia_card_task_fmri	13.0	0.8	71.0	-75.0	0.2	6.0	2.0	1.0	0.5959444227519626	1.779	1.0	stim	s499
194.424	2.25	n/a	-1.0	n/a	columbia_card_task_fmri	n/a	n/a	-1.0	n/a	n/a	n/a	n/a	n/a	n/a	n/a	n/a	feedback	s499
196.674	0.204	n/a	-1.0	n/a	columbia_card_task_fmri	n/a	n/a	-1.0	n/a	n/a	n/a	n/a	n/a	n/a	n/a	n/a	ITI	s499
196.882	2.834	2.917680750679004	draw_card	0.0	columbia_card_task_fmri	14.0	0.8333333333333334	89.0	-70.0	0.1666666666666666	6.0	1.0	1.0	-3.284145536835222	2.834	n/a	stim	s499
199.721	0.934	0.1176807506790029	draw_card	0.0	columbia_card_task_fmri	14.0	0.8	89.0	-70.0	0.2	6.0	2.0	1.0	-0.9983283399902164	0.934	n/a	stim	s499
200.66	3.105	-4.082319249320998	end_round	0.0	columbia_card_task_fmri	14.0	0.75	71.0	-70.0	0.25	6.0	3.0	1.0	1.765130897981102	3.105	2.0	stim	s499
203.77	2.25	n/a	-1.0	n/a	columbia_card_task_fmri	n/a	n/a	-1.0	n/a	n/a	n/a	n/a	n/a	n/a	n/a	n/a	feedback	s499
206.02	0.204	n/a	-1.0	n/a	columbia_card_task_fmri	n/a	n/a	-1.0	n/a	n/a	n/a	n/a	n/a	n/a	n/a	n/a	ITI	s499
206.231	1.501	2.917680750679004	draw_card	0.0	columbia_card_task_fmri	16.0	0.8333333333333334	89.0	-80.0	0.1666666666666666	6.0	1.0	1.0	1.171091424923851	1.501	n/a	stim	s499
207.738	2.005	-0.2823192493209974	draw_card	0.0	columbia_card_task_fmri	16.0	0.8	89.0	-80.0	0.2	6.0	2.0	1.0	3.7859151134716456	2.005	n/a	stim	s499
209.748	0.848	-5.082319249320998	end_round	0.0	columbia_card_task_fmri	16.0	0.75	71.0	-80.0	0.25	6.0	3.0	1.0	6.946717476199744	0.848	2.0	stim	s499
210.611	2.25	n/a	-1.0	n/a	columbia_card_task_fmri	n/a	n/a	-1.0	n/a	n/a	n/a	n/a	n/a	n/a	n/a	n/a	feedback	s499
212.861	0.272	n/a	-1.0	n/a	columbia_card_task_fmri	n/a	n/a	-1.0	n/a	n/a	n/a	n/a	n/a	n/a	n/a	n/a	ITI	s499
213.139	1.959	5.417680750679004	draw_card	0.0	columbia_card_task_fmri	17.0	0.8333333333333334	89.0	-70.0	0.1666666666666666	6.0	1.0	1.0	-2.170770755136509	1.959	n/a	stim	s499
215.102	1.771	2.5176807506790038	draw_card	0.0	columbia_card_task_fmri	17.0	0.8	89.0	-70.0	0.2	6.0	2.0	1.0	0.1973271200427859	1.771	n/a	stim	s499
216.878	1.677	-1.832319249320998	end_round	0.0	columbia_card_task_fmri	17.0	0.75	71.0	-70.0	0.25	6.0	3.0	1.0	3.0601524926830024	1.677	2.0	stim	s499
218.563	2.25	n/a	-1.0	n/a	columbia_card_task_fmri	n/a	n/a	-1.0	n/a	n/a	n/a	n/a	n/a	n/a	n/a	n/a	feedback	s499
220.813	0.136	n/a	-1.0	n/a	columbia_card_task_fmri	n/a	n/a	-1.0	n/a	n/a	n/a	n/a	n/a	n/a	n/a	n/a	ITI	s499
220.954	1.669	5.417680750679002	draw_card	0.0	columbia_card_task_fmri	25.0	0.75	89.0	-65.0	0.25	8.0	1.0	2.0	4.355440695589785	1.669	n/a	stim	s499
222.63	1.695	2.20339503639329	draw_card	0.0	columbia_card_task_fmri	25.0	0.7142857142857143	89.0	-65.0	0.2857142857142857	8.0	2.0	2.0	6.037640291896388	1.695	n/a	stim	s499
224.333	0.773	-2.0823192493209945	draw_card	0.0	columbia_card_task_fmri	25.0	0.6666666666666667	89.0	-65.0	0.3333333333333333	8.0	3.0	2.0	7.801843651139798	0.773	n/a	stim	s499
225.111	1.302	-8.082319249320998	end_round	0.0	columbia_card_task_fmri	25.0	0.6	71.0	-65.0	0.4	8.0	4.0	2.0	9.462477808987096	1.302	3.0	stim	s499
226.42	2.25	n/a	-1.0	n/a	columbia_card_task_fmri	n/a	n/a	-1.0	n/a	n/a	n/a	n/a	n/a	n/a	n/a	n/a	feedback	s499
228.67	0.204	n/a	-1.0	n/a	columbia_card_task_fmri	n/a	n/a	-1.0	n/a	n/a	n/a	n/a	n/a	n/a	n/a	n/a	ITI	s499
228.88	5.237	5.417680750679002	draw_card	1.0	columbia_card_task_fmri	30.0	0.75	89.0	-80.0	0.25	8.0	1.0	2.0	12.995905493648984	5.237	1.0	stim	s499
234.124	2.25	n/a	-1.0	n/a	columbia_card_task_fmri	n/a	n/a	-1.0	n/a	n/a	n/a	n/a	n/a	n/a	n/a	n/a	feedback	s499
236.374	0.272	n/a	-1.0	n/a	columbia_card_task_fmri	n/a	n/a	-1.0	n/a	n/a	n/a	n/a	n/a	n/a	n/a	n/a	ITI	s499
236.655	1.649	5.117680750679003	end_round	0.0	columbia_card_task_fmri	13.0	0.9	71.0	-95.0	0.1	10.0	1.0	1.0	-2.1936638578713072	1.649	0.0	stim	s499
238.314	2.25	n/a	-1.0	n/a	columbia_card_task_fmri	n/a	n/a	-1.0	n/a	n/a	n/a	n/a	n/a	n/a	n/a	n/a	feedback	s499
240.564	0.272	n/a	-1.0	n/a	columbia_card_task_fmri	n/a	n/a	-1.0	n/a	n/a	n/a	n/a	n/a	n/a	n/a	n/a	ITI	s499
240.842	2.091	6.517680750679002	draw_card	0.0	columbia_card_task_fmri	14.0	0.9	89.0	-90.0	0.1	10.0	1.0	1.0	-3.388642820418479	2.091	n/a	stim	s499
242.939	0.825	5.362125195123445	draw_card	1.0	columbia_card_task_fmri	14.0	0.8888888888888888	89.0	-90.0	0.1111111111111111	10.0	2.0	1.0	-1.9107519518895515	0.825	2.0	stim	s499
243.773	2.25	n/a	-1.0	n/a	columbia_card_task_fmri	n/a	n/a	-1.0	n/a	n/a	n/a	n/a	n/a	n/a	n/a	n/a	feedback	s499
246.023	0.34	n/a	-1.0	n/a	columbia_card_task_fmri	n/a	n/a	-1.0	n/a	n/a	n/a	n/a	n/a	n/a	n/a	n/a	ITI	s499
246.37	1.413	1.7176807506790026	end_round	0.0	columbia_card_task_fmri	16.0	0.8	71.0	-70.0	0.2	10.0	1.0	2.0	-0.2012581973196532	1.413	0.0	stim	s499
247.79	2.25	n/a	-1.0	n/a	columbia_card_task_fmri	n/a	n/a	-1.0	n/a	n/a	n/a	n/a	n/a	n/a	n/a	n/a	feedback	s499
250.04	0.204	n/a	-1.0	n/a	columbia_card_task_fmri	n/a	n/a	-1.0	n/a	n/a	n/a	n/a	n/a	n/a	n/a	n/a	ITI	s499
250.251	1.953	1.0010140840123358	end_round	0.0	columbia_card_task_fmri	7.0	0.9166666666666666	71.0	-100.0	0.0833333333333333	12.0	1.0	1.0	-5.007952283230164	1.953	0.0	stim	s499
252.212	2.25	n/a	-1.0	n/a	columbia_card_task_fmri	n/a	n/a	-1.0	n/a	n/a	n/a	n/a	n/a	n/a	n/a	n/a	feedback	s499
254.462	0.068	n/a	-1.0	n/a	columbia_card_task_fmri	n/a	n/a	-1.0	n/a	n/a	n/a	n/a	n/a	n/a	n/a	n/a	ITI	s499
254.535	1.147	1.2510140840123376	draw_card	0.0	columbia_card_task_fmri	14.0	0.8333333333333334	89.0	-80.0	0.1666666666666666	12.0	1.0	2.0	0.4282539030097538	1.147	n/a	stim	s499
255.689	0.528	-0.1732283402300916	draw_card	0.0	columbia_card_task_fmri	14.0	0.8181818181818181	89.0	-80.0	0.1818181818181818	12.0	2.0	2.0	1.6477353923295652	0.528	n/a	stim	s499
256.223	0.586	-1.882319249320997	draw_card	0.0	columbia_card_task_fmri	14.0	0.8	89.0	-80.0	0.2	12.0	3.0	2.0	2.988263128682391	0.586	n/a	stim	s499
256.816	0.672	-3.971208138209888	end_round	0.0	columbia_card_task_fmri	14.0	0.7777777777777778	71.0	-80.0	0.2222222222222222	12.0	4.0	2.0	4.463528566975263	0.672	3.0	stim	s499
257.499	2.25	n/a	-1.0	n/a	columbia_card_task_fmri	n/a	n/a	-1.0	n/a	n/a	n/a	n/a	n/a	n/a	n/a	n/a	feedback	s499
259.749	0.0	n/a	-1.0	n/a	columbia_card_task_fmri	n/a	n/a	-1.0	n/a	n/a	n/a	n/a	n/a	n/a	n/a	n/a	ITI	s499
259.757	3.068	2.917680750679002	draw_card	0.0	columbia_card_task_fmri	15.0	0.8333333333333334	89.0	-75.0	0.1666666666666666	12.0	1.0	2.0	-1.057087171574686	3.068	n/a	stim	s499
262.833	0.499	1.5540443870426368	draw_card	0.0	columbia_card_task_fmri	15.0	0.8181818181818181	89.0	-75.0	0.1818181818181818	12.0	2.0	2.0	0.110148471727868	0.499	n/a	stim	s499
263.34	0.465	-0.0823192493209981	draw_card	0.0	columbia_card_task_fmri	15.0	0.8	89.0	-75.0	0.2	12.0	3.0	2.0	1.3932707480445998	0.465	n/a	stim	s499
263.814	0.487	-2.0823192493209963	draw_card	1.0	columbia_card_task_fmri	15.0	0.7777777777777778	89.0	-75.0	0.2222222222222222	12.0	4.0	2.0	2.805389441869025	0.487	4.0	stim	s499
264.31	2.25	n/a	-1.0	n/a	columbia_card_task_fmri	n/a	n/a	-1.0	n/a	n/a	n/a	n/a	n/a	n/a	n/a	n/a	feedback	s499
266.56	0.408	n/a	-1.0	n/a	columbia_card_task_fmri	n/a	n/a	-1.0	n/a	n/a	n/a	n/a	n/a	n/a	n/a	n/a	ITI	s499
266.974	0.984	1.917680750679002	draw_card	1.0	columbia_card_task_fmri	15.0	0.8	89.0	-65.0	0.2	15.0	1.0	3.0	-2.592031760649924	0.984	1.0	stim	s499
267.967	2.25	n/a	-1.0	n/a	columbia_card_task_fmri	n/a	n/a	-1.0	n/a	n/a	n/a	n/a	n/a	n/a	n/a	n/a	feedback	s499
270.217	0.204	n/a	-1.0	n/a	columbia_card_task_fmri	n/a	n/a	-1.0	n/a	n/a	n/a	n/a	n/a	n/a	n/a	n/a	ITI	s499
270.429	2.531	1.167680750679002	draw_card	0.0	columbia_card_task_fmri	14.0	0.8125	89.0	-70.0	0.1875	16.0	1.0	3.0	-1.808962750293503	2.531	n/a	stim	s499
272.968	0.77	0.1176807506790029	draw_card	1.0	columbia_card_task_fmri	14.0	0.8	89.0	-70.0	0.2	16.0	2.0	3.0	-0.9983283399902164	0.77	2.0	stim	s499
273.747	2.25	n/a	-1.0	n/a	columbia_card_task_fmri	n/a	n/a	-1.0	n/a	n/a	n/a	n/a	n/a	n/a	n/a	n/a	feedback	s499
275.997	0.136	n/a	-1.0	n/a	columbia_card_task_fmri	n/a	n/a	-1.0	n/a	n/a	n/a	n/a	n/a	n/a	n/a	n/a	ITI	s499
276.14	1.63	1.105180750679002	draw_card	1.0	columbia_card_task_fmri	11.0	0.6875	89.0	-30.0	0.3125	16.0	1.0	5.0	-15.49809040676928	1.63	1.0	stim	s499
277.781	2.25	n/a	-1.0	n/a	columbia_card_task_fmri	n/a	n/a	-1.0	n/a	n/a	n/a	n/a	n/a	n/a	n/a	n/a	feedback	s499
280.031	0.34	n/a	-1.0	n/a	columbia_card_task_fmri	n/a	n/a	-1.0	n/a	n/a	n/a	n/a	n/a	n/a	n/a	n/a	ITI	s499
280.38	1.901	5.917680750679002	draw_card	0.0	columbia_card_task_fmri	15.0	0.8666666666666667	89.0	-75.0	0.1333333333333333	15.0	1.0	2.0	-3.991841950331352	1.901	n/a	stim	s499
282.287	0.508	5.0605378935361465	draw_card	0.0	columbia_card_task_fmri	15.0	0.8571428571428572	89.0	-75.0	0.1428571428571428	15.0	2.0	2.0	-3.096466198476204	0.508	n/a	stim	s499
282.803	0.533	4.071526904525156	draw_card	0.0	columbia_card_task_fmri	15.0	0.8461538461538461	89.0	-75.0	0.1538461538461538	15.0	3.0	2.0	-2.121844722260235	0.533	n/a	stim	s499
283.343	0.494	2.917680750679002	draw_card	1.0	columbia_card_task_fmri	15.0	0.8333333333333334	89.0	-75.0	0.1666666666666666	15.0	4.0	2.0	-1.057087171574686	0.494	4.0	stim	s499
283.847	2.25	n/a	-1.0	n/a	columbia_card_task_fmri	n/a	n/a	-1.0	n/a	n/a	n/a	n/a	n/a	n/a	n/a	n/a	feedback	s499
286.097	0.068	n/a	-1.0	n/a	columbia_card_task_fmri	n/a	n/a	-1.0	n/a	n/a	n/a	n/a	n/a	n/a	n/a	n/a	ITI	s499
286.173	0.566	7.651014084012337	draw_card	0.0	columbia_card_task_fmri	17.0	0.8666666666666667	89.0	-75.0	0.1333333333333333	15.0	1.0	2.0	-3.3149771186323065	0.566	n/a	stim	s499
286.747	0.703	6.774823607821862	draw_card	0.0	columbia_card_task_fmri	17.0	0.8571428571428572	89.0	-75.0	0.1428571428571428	15.0	2.0	2.0	-2.3995317169089176	0.703	n/a	stim	s499
287.459	0.485	5.763834596832849	draw_card	0.0	columbia_card_task_fmri	17.0	0.8461538461538461	89.0	-75.0	0.1538461538461538	15.0	3.0	2.0	-1.403075082422042	0.485	n/a	stim	s499
287.952	0.487	4.58434741734567	draw_card	0.0	columbia_card_task_fmri	17.0	0.8333333333333334	89.0	-75.0	0.1666666666666666	15.0	4.0	2.0	-0.3144746986669418	0.487	n/a	stim	s499
288.445	0.473	3.190408023406273	draw_card	0.0	columbia_card_task_fmri	17.0	0.8181818181818181	89.0	-75.0	0.1818181818181818	15.0	5.0	2.0	0.8788857870278406	0.473	n/a	stim	s499
288.927	1.05	1.517680750679003	draw_card	1.0	columbia_card_task_fmri	17.0	0.8	89.0	-75.0	0.2	15.0	6.0	2.0	2.190712762944379	1.05	6.0	stim	s499
289.985	2.25	n/a	-1.0	n/a	columbia_card_task_fmri	n/a	n/a	-1.0	n/a	n/a	n/a	n/a	n/a	n/a	n/a	n/a	feedback	s499
292.235	0.34	n/a	-1.0	n/a	columbia_card_task_fmri	n/a	n/a	-1.0	n/a	n/a	n/a	n/a	n/a	n/a	n/a	n/a	ITI	s499
292.583	1.266	3.230180750679002	end_round	0.0	columbia_card_task_fmri	2.0	0.9375	71.0	-25.0	0.0625	16.0	1.0	1.0	-27.56741671796633	1.266	0.0	stim	s499
293.859	2.25	n/a	-1.0	n/a	columbia_card_task_fmri	n/a	n/a	-1.0	n/a	n/a	n/a	n/a	n/a	n/a	n/a	n/a	feedback	s499
296.109	0.136	n/a	-1.0	n/a	columbia_card_task_fmri	n/a	n/a	-1.0	n/a	n/a	n/a	n/a	n/a	n/a	n/a	n/a	ITI	s499
296.256	2.062	5.417680750679002	draw_card	0.0	columbia_card_task_fmri	9.0	0.9375	89.0	-95.0	0.0625	16.0	1.0	1.0	-9.381864374679054	2.062	n/a	stim	s499
298.327	0.553	4.984347417345669	draw_card	0.0	columbia_card_task_fmri	9.0	0.9333333333333332	89.0	-95.0	0.0666666666666666	16.0	2.0	1.0	-8.619053744224402	0.553	n/a	stim	s499
298.89	1.04	4.4891093221075735	draw_card	0.0	columbia_card_task_fmri	9.0	0.9285714285714286	89.0	-95.0	0.0714285714285714	16.0	3.0	1.0	-7.782227044211883	1.04	n/a	stim	s499
299.938	0.508	3.917680750679002	draw_card	0.0	columbia_card_task_fmri	9.0	0.9230769230769232	89.0	-95.0	0.0769230769230769	16.0	4.0	1.0	-6.858789558088301	0.508	n/a	stim	s499
300.454	1.038	3.251014084012336	draw_card	0.0	columbia_card_task_fmri	9.0	0.9166666666666666	89.0	-95.0	0.0833333333333333	16.0	5.0	1.0	-5.8329876320627605	1.038	n/a	stim	s499
301.499	0.958	2.463135296133547	draw_card	0.0	columbia_card_task_fmri	9.0	0.9090909090909092	89.0	-95.0	0.0909090909090909	16.0	6.0	1.0	-4.684843836612448	0.958	n/a	stim	s499
302.465	0.949	1.5176807506790015	end_round	0.0	columbia_card_task_fmri	9.0	0.9	71.0	-95.0	0.1	16.0	7.0	1.0	-3.388642820418479	0.949	6.0	stim	s499
303.424	2.25	n/a	-1.0	n/a	columbia_card_task_fmri	n/a	n/a	-1.0	n/a	n/a	n/a	n/a	n/a	n/a	n/a	n/a	feedback	s499
305.674	0.068	n/a	-1.0	n/a	columbia_card_task_fmri	n/a	n/a	-1.0	n/a	n/a	n/a	n/a	n/a	n/a	n/a	n/a	ITI	s499
305.751	4.562	6.980180750679002	draw_card	0.0	columbia_card_task_fmri	11.0	0.9375	89.0	-100.0	0.0625	16.0	1.0	1.0	-7.697996985308819	4.562	n/a	stim	s499
310.321	0.504	6.517680750679002	draw_card	0.0	columbia_card_task_fmri	11.0	0.9333333333333332	89.0	-100.0	0.0666666666666666	16.0	2.0	1.0	-6.883202767090822	0.504	n/a	stim	s499
310.835	0.56	5.989109322107575	draw_card	0.0	columbia_card_task_fmri	11.0	0.9285714285714286	89.0	-100.0	0.0714285714285714	16.0	3.0	1.0	-5.989390242299102	0.56	n/a	stim	s499
311.403	0.678	5.379219212217464	draw_card	0.0	columbia_card_task_fmri	11.0	0.9230769230769232	89.0	-100.0	0.0769230769230769	16.0	4.0	1.0	-5.00311507216745	0.678	n/a	stim	s499
312.091	0.571	4.667680750679002	draw_card	0.0	columbia_card_task_fmri	11.0	0.9166666666666666	89.0	-100.0	0.0833333333333333	16.0	5.0	1.0	-3.90756106535909	0.571	n/a	stim	s499
312.67	0.885	3.82677165976991	draw_card	0.0	columbia_card_task_fmri	11.0	0.9090909090909092	89.0	-100.0	0.0909090909090909	16.0	6.0	1.0	-2.681403610801937	0.885	n/a	stim	s499
313.564	1.158	2.8176807506790023	draw_card	0.0	columbia_card_task_fmri	11.0	0.9	89.0	-100.0	0.1	16.0	7.0	1.0	-1.2971935549129654	1.158	n/a	stim	s499
314.731	1.551	1.584347417345668	draw_card	0.0	columbia_card_task_fmri	11.0	0.8888888888888888	89.0	-100.0	0.1111111111111111	16.0	8.0	1.0	0.2809689032952178	1.551	n/a	stim	s499
316.291	1.208	0.0426807506790019	draw_card	0.0	columbia_card_task_fmri	11.0	0.875	89.0	-100.0	0.125	16.0	9.0	1.0	2.1007950683737	1.208	n/a	stim	s499
317.508	4.809	-1.939462106463854	draw_card	0.0	columbia_card_task_fmri	11.0	0.8571428571428572	89.0	-100.0	0.1428571428571428	16.0	10.0	1.0	4.226568173924996	4.809	n/a	stim	s499
322.326	1.182	-4.582319249320994	end_round	0.0	columbia_card_task_fmri	11.0	0.8333333333333334	71.0	-100.0	0.1666666666666666	16.0	11.0	1.0	6.745253733327367	1.182	10.0	stim	s499
323.522	2.25	n/a	-1.0	n/a	columbia_card_task_fmri	n/a	n/a	-1.0	n/a	n/a	n/a	n/a	n/a	n/a	n/a	n/a	feedback	s499
325.772	0.068	n/a	-1.0	n/a	columbia_card_task_fmri	n/a	n/a	-1.0	n/a	n/a	n/a	n/a	n/a	n/a	n/a	n/a	ITI	s499
325.848	2.126	7.542680750679002	draw_card	0.0	columbia_card_task_fmri	16.0	0.875	89.0	-75.0	0.125	16.0	1.0	2.0	-4.48824835122938	2.126	n/a	stim	s499
327.981	0.487	6.7843474173456695	draw_card	0.0	columbia_card_task_fmri	16.0	0.8666666666666667	89.0	-75.0	0.1333333333333333	16.0	2.0	2.0	-3.6534259331157166	0.487	n/a	stim	s499
328.477	0.912	5.917680750679004	draw_card	0.0	columbia_card_task_fmri	16.0	0.8571428571428572	89.0	-75.0	0.1428571428571428	16.0	3.0	2.0	-2.748014899920559	0.912	n/a	stim	s499
329.396	1.142	4.917680750679002	draw_card	0.0	columbia_card_task_fmri	16.0	0.8461538461538461	89.0	-75.0	0.1538461538461538	16.0	4.0	2.0	-1.7624753755625804	1.142	n/a	stim	s499
330.547	0.866	3.751014084012336	draw_card	0.0	columbia_card_task_fmri	16.0	0.8333333333333334	89.0	-75.0	0.1666666666666666	16.0	5.0	2.0	-0.6857959262811661	0.866	n/a	stim	s499
331.422	1.397	2.372226205224455	draw_card	0.0	columbia_card_task_fmri	16.0	0.8181818181818181	89.0	-75.0	0.1818181818181818	16.0	6.0	2.0	0.4945026335448688	1.397	n/a	stim	s499
332.829	0.769	0.7176807506790026	end_round	0.0	columbia_card_task_fmri	16.0	0.8	71.0	-75.0	0.2	16.0	7.0	2.0	1.791977767967026	0.769	6.0	stim	s499
333.61	2.25	n/a	-1.0	n/a	columbia_card_task_fmri	n/a	n/a	-1.0	n/a	n/a	n/a	n/a	n/a	n/a	n/a	n/a	feedback	s499
335.86	0.068	n/a	-1.0	n/a	columbia_card_task_fmri	n/a	n/a	-1.0	n/a	n/a	n/a	n/a	n/a	n/a	n/a	n/a	ITI	s499
335.937	3.35	7.792680750679002	draw_card	0.0	columbia_card_task_fmri	17.0	0.875	89.0	-80.0	0.125	16.0	1.0	2.0	-2.5126256787519523	3.35	n/a	stim	s499
339.296	0.488	6.984347417345671	draw_card	0.0	columbia_card_task_fmri	17.0	0.8666666666666667	89.0	-80.0	0.1333333333333333	16.0	2.0	2.0	-1.6222763000425076	0.488	n/a	stim	s499
339.792	0.407	6.060537893536148	draw_card	0.0	columbia_card_task_fmri	17.0	0.8571428571428572	89.0	-80.0	0.1428571428571428	16.0	3.0	2.0	-0.6566717835268818	0.407	n/a	stim	s499
340.208	0.473	4.994603827602079	draw_card	1.0	columbia_card_task_fmri	17.0	0.8461538461538461	89.0	-80.0	0.1538461538461538	16.0	4.0	2.0	0.3943573237765605	0.473	4.0	stim	s499
340.692	2.25	n/a	-1.0	n/a	columbia_card_task_fmri	n/a	n/a	-1.0	n/a	n/a	n/a	n/a	n/a	n/a	n/a	n/a	feedback	s499
342.942	0.136	n/a	-1.0	n/a	columbia_card_task_fmri	n/a	n/a	-1.0	n/a	n/a	n/a	n/a	n/a	n/a	n/a	n/a	ITI	s499
354.092	2.54	2.0843474173456698	draw_card	0.0	columbia_card_task_fmri	13.0	0.8333333333333334	89.0	-70.0	0.1666666666666666	6.0	1.0	1.0	-3.655196103301876	2.54	n/a	stim	s499
356.642	1.041	-0.6823192493209977	end_round	0.0	columbia_card_task_fmri	13.0	0.8	71.0	-70.0	0.2	6.0	2.0	1.0	-1.396810761934283	1.041	1.0	stim	s499
357.693	2.25	n/a	-1.0	n/a	columbia_card_task_fmri	n/a	n/a	-1.0	n/a	n/a	n/a	n/a	n/a	n/a	n/a	n/a	feedback	s499
359.943	0.0	n/a	-1.0	n/a	columbia_card_task_fmri	n/a	n/a	-1.0	n/a	n/a	n/a	n/a	n/a	n/a	n/a	n/a	ITI	s499
359.95	1.623	2.0843474173456698	draw_card	0.0	columbia_card_task_fmri	15.0	0.8333333333333334	89.0	-80.0	0.1666666666666666	6.0	1.0	1.0	0.7996594759615263	1.623	n/a	stim	s499
361.582	3.213	-1.082319249320998	draw_card	0.0	columbia_card_task_fmri	15.0	0.8	89.0	-80.0	0.2	6.0	2.0	1.0	3.387076817453341	3.213	n/a	stim	s499
364.804	0.553	-5.832319249320998	end_round	0.0	columbia_card_task_fmri	15.0	0.75	71.0	-80.0	0.25	6.0	3.0	1.0	6.51477859599175	0.553	2.0	stim	s499
365.368	2.25	n/a	-1.0	n/a	columbia_card_task_fmri	n/a	n/a	-1.0	n/a	n/a	n/a	n/a	n/a	n/a	n/a	n/a	feedback	s499
367.618	0.136	n/a	-1.0	n/a	columbia_card_task_fmri	n/a	n/a	-1.0	n/a	n/a	n/a	n/a	n/a	n/a	n/a	n/a	ITI	s499
367.762	1.289	3.751014084012336	draw_card	1.0	columbia_card_task_fmri	16.0	0.8333333333333334	89.0	-75.0	0.1666666666666666	6.0	1.0	1.0	-0.6857959262811661	1.289	1.0	stim	s499
369.063	2.25	n/a	-1.0	n/a	columbia_card_task_fmri	n/a	n/a	-1.0	n/a	n/a	n/a	n/a	n/a	n/a	n/a	n/a	feedback	s499
371.313	0.34	n/a	-1.0	n/a	columbia_card_task_fmri	n/a	n/a	-1.0	n/a	n/a	n/a	n/a	n/a	n/a	n/a	n/a	ITI	s499
371.663	1.259	4.917680750679002	draw_card	1.0	columbia_card_task_fmri	21.0	0.75	89.0	-55.0	0.25	8.0	1.0	2.0	-1.6867181972395997	1.259	1.0	stim	s499
372.931	2.25	n/a	-1.0	n/a	columbia_card_task_fmri	n/a	n/a	-1.0	n/a	n/a	n/a	n/a	n/a	n/a	n/a	n/a	feedback	s499
375.181	0.408	n/a	-1.0	n/a	columbia_card_task_fmri	n/a	n/a	-1.0	n/a	n/a	n/a	n/a	n/a	n/a	n/a	n/a	ITI	s499
375.597	1.191	6.167680750679002	draw_card	0.0	columbia_card_task_fmri	26.0	0.75	89.0	-65.0	0.25	8.0	1.0	2.0	4.787258144472361	1.191	n/a	stim	s499
376.796	0.504	2.917680750679005	draw_card	0.0	columbia_card_task_fmri	26.0	0.7142857142857143	89.0	-65.0	0.2857142857142857	8.0	2.0	2.0	6.488248190814176	0.504	n/a	stim	s499
377.309	1.005	-1.4156525826543267	draw_card	1.0	columbia_card_task_fmri	26.0	0.6666666666666667	89.0	-65.0	0.3333333333333333	8.0	3.0	2.0	8.272149551758126	1.005	3.0	stim	s499
378.324	2.25	n/a	-1.0	n/a	columbia_card_task_fmri	n/a	n/a	-1.0	n/a	n/a	n/a	n/a	n/a	n/a	n/a	n/a	feedback	s499
380.574	0.136	n/a	-1.0	n/a	columbia_card_task_fmri	n/a	n/a	-1.0	n/a	n/a	n/a	n/a	n/a	n/a	n/a	n/a	ITI	s499
380.721	1.042	1.2510140840123358	draw_card	0.0	columbia_card_task_fmri	15.0	0.7777777777777778	89.0	-60.0	0.2222222222222222	9.0	1.0	2.0	-3.4080797401142355	1.042	n/a	stim	s499
381.773	0.294	-0.8323192493209981	draw_card	0.0	columbia_card_task_fmri	15.0	0.75	89.0	-60.0	0.25	9.0	2.0	2.0	-2.11801660681337	0.294	n/a	stim	s499
382.079	0.446	-3.510890677892425	draw_card	0.0	columbia_card_task_fmri	15.0	0.7142857142857143	89.0	-60.0	0.2857142857142857	9.0	3.0	2.0	-0.717828785446379	0.446	n/a	stim	s499
382.534	0.538	-7.082319249320996	draw_card	0.0	columbia_card_task_fmri	15.0	0.6666666666666667	89.0	-60.0	0.3333333333333333	9.0	4.0	2.0	0.7507549060746328	0.538	n/a	stim	s499
383.083	0.732	-12.082319249320998	draw_card	1.0	columbia_card_task_fmri	15.0	0.6	89.0	-60.0	0.4	9.0	5.0	2.0	2.1332395448855834	0.732	5.0	stim	s499
383.826	2.25	n/a	-1.0	n/a	columbia_card_task_fmri	n/a	n/a	-1.0	n/a	n/a	n/a	n/a	n/a	n/a	n/a	n/a	feedback	s499
386.076	0.136	n/a	-1.0	n/a	columbia_card_task_fmri	n/a	n/a	-1.0	n/a	n/a	n/a	n/a	n/a	n/a	n/a	n/a	ITI	s499
386.223	0.562	5.617680750679003	draw_card	0.0	columbia_card_task_fmri	13.0	0.9	89.0	-90.0	0.1	10.0	1.0	1.0	-3.6873270228307184	0.562	n/a	stim	s499
386.795	1.118	4.473236306234558	draw_card	0.0	columbia_card_task_fmri	13.0	0.8888888888888888	89.0	-90.0	0.1111111111111111	10.0	2.0	1.0	-2.2237648469156355	1.118	n/a	stim	s499
387.922	0.97	3.042680750679002	draw_card	0.0	columbia_card_task_fmri	13.0	0.875	89.0	-90.0	0.125	10.0	3.0	1.0	-0.5359963728364647	0.97	n/a	stim	s499
388.901	0.902	1.2033950363932902	draw_card	0.0	columbia_card_task_fmri	13.0	0.8571428571428572	89.0	-90.0	0.1428571428571428	10.0	4.0	1.0	1.4356239687449417	0.902	n/a	stim	s499
389.814	3.78	-1.2489859159876642	draw_card	0.0	columbia_card_task_fmri	13.0	0.8333333333333334	89.0	-90.0	0.1666666666666666	10.0	5.0	1.0	3.771789458328748	3.78	n/a	stim	s499
393.603	2.478	-4.682319249320997	draw_card	0.0	columbia_card_task_fmri	13.0	0.8	89.0	-90.0	0.2	10.0	6.0	1.0	6.5784123036995865	2.478	n/a	stim	s499
396.092	3.704	-9.832319249320998	end_round	0.0	columbia_card_task_fmri	13.0	0.75	71.0	-90.0	0.25	10.0	7.0	1.0	9.970871499194663	3.704	6.0	stim	s499
399.807	2.25	n/a	-1.0	n/a	columbia_card_task_fmri	n/a	n/a	-1.0	n/a	n/a	n/a	n/a	n/a	n/a	n/a	n/a	feedback	s499
402.057	0.0	n/a	-1.0	n/a	columbia_card_task_fmri	n/a	n/a	-1.0	n/a	n/a	n/a	n/a	n/a	n/a	n/a	n/a	ITI	s499
402.065	2.08	6.917680750679002	draw_card	0.0	columbia_card_task_fmri	15.0	0.9	89.0	-95.0	0.1	10.0	1.0	1.0	-1.596038256417728	2.08	n/a	stim	s499
404.156	2.925	5.695458528456779	draw_card	0.0	columbia_card_task_fmri	15.0	0.8888888888888888	89.0	-95.0	0.1111111111111111	10.0	2.0	1.0	-0.032197371044333	2.925	n/a	stim	s499
407.092	0.498	4.167680750679002	draw_card	0.0	columbia_card_task_fmri	15.0	0.875	89.0	-95.0	0.125	10.0	3.0	1.0	1.7711252150178538	0.498	n/a	stim	s499
407.601	3.24	2.2033950363932884	draw_card	0.0	columbia_card_task_fmri	15.0	0.8571428571428572	89.0	-95.0	0.1428571428571428	10.0	4.0	1.0	3.8776330467888585	3.24	n/a	stim	s499
410.852	0.326	-0.4156525826543302	draw_card	0.0	columbia_card_task_fmri	15.0	0.8333333333333334	89.0	-95.0	0.1666666666666666	10.0	5.0	1.0	6.373507627307447	0.326	n/a	stim	s499
411.189	1.381	-4.082319249320998	draw_card	0.0	columbia_card_task_fmri	15.0	0.8	89.0	-95.0	0.2	10.0	6.0	1.0	9.37186103816991	1.381	n/a	stim	s499
412.58	0.831	-9.582319249320998	draw_card	1.0	columbia_card_task_fmri	15.0	0.75	89.0	-95.0	0.25	10.0	7.0	1.0	12.995905493648984	0.831	7.0	stim	s499
413.42	2.25	n/a	-1.0	n/a	columbia_card_task_fmri	n/a	n/a	-1.0	n/a	n/a	n/a	n/a	n/a	n/a	n/a	n/a	feedback	s499
415.67	0.068	n/a	-1.0	n/a	columbia_card_task_fmri	n/a	n/a	-1.0	n/a	n/a	n/a	n/a	n/a	n/a	n/a	n/a	ITI	s499
415.748	0.888	2.7176807506790026	draw_card	0.0	columbia_card_task_fmri	16.0	0.8	89.0	-65.0	0.2	10.0	1.0	2.0	-2.1936638578713	0.888	n/a	stim	s499
416.645	0.495	0.9176807506790036	draw_card	0.0	columbia_card_task_fmri	16.0	0.7777777777777778	89.0	-65.0	0.2222222222222222	10.0	2.0	2.0	-0.9236921021059032	0.495	n/a	stim	s499
417.148	0.547	-1.332319249320998	draw_card	1.0	columbia_card_task_fmri	16.0	0.75	89.0	-65.0	0.25	10.0	3.0	2.0	0.4704053413867157	0.547	3.0	stim	s499
417.705	2.25	n/a	-1.0	n/a	columbia_card_task_fmri	n/a	n/a	-1.0	n/a	n/a	n/a	n/a	n/a	n/a	n/a	n/a	feedback	s499
419.955	0.0	n/a	-1.0	n/a	columbia_card_task_fmri	n/a	n/a	-1.0	n/a	n/a	n/a	n/a	n/a	n/a	n/a	n/a	ITI	s499
419.967	0.583	1.417680750679002	draw_card	0.0	columbia_card_task_fmri	7.0	0.9166666666666666	89.0	-95.0	0.0833333333333333	12.0	1.0	1.0	-6.382877577742018	0.583	n/a	stim	s499
420.561	0.342	0.6449534779517285	draw_card	0.0	columbia_card_task_fmri	7.0	0.9090909090909092	89.0	-95.0	0.0909090909090909	12.0	2.0	1.0	-5.257032098666066	0.342	n/a	stim	s499
420.914	0.321	-0.2823192493209983	draw_card	0.0	columbia_card_task_fmri	7.0	0.9	89.0	-95.0	0.1	12.0	3.0	1.0	-3.985985598089005	0.321	n/a	stim	s499
421.245	0.467	-1.415652582654332	draw_card	0.0	columbia_card_task_fmri	7.0	0.8888888888888888	89.0	-95.0	0.1111111111111111	12.0	4.0	1.0	-2.536753249598668	0.467	n/a	stim	s499
421.724	0.457	-2.832319249320998	draw_card	0.0	columbia_card_task_fmri	7.0	0.875	89.0	-95.0	0.125	12.0	5.0	1.0	-0.8654970150405958	0.457	n/a	stim	s499
422.193	3.054	-4.653747820749569	draw_card	0.0	columbia_card_task_fmri	7.0	0.8571428571428572	89.0	-95.0	0.1428571428571428	12.0	6.0	1.0	1.0868489398861314	3.054	n/a	stim	s499
425.259	1.557	-7.082319249320996	draw_card	0.0	columbia_card_task_fmri	7.0	0.8333333333333334	89.0	-95.0	0.1666666666666666	12.0	7.0	1.0	3.4001938404995045	1.557	n/a	stim	s499
426.827	0.852	-10.482319249320996	end_round	0.0	columbia_card_task_fmri	7.0	0.8	71.0	-95.0	0.2	12.0	8.0	1.0	6.179421329748564	0.852	7.0	stim	s499
427.691	2.25	n/a	-1.0	n/a	columbia_card_task_fmri	n/a	n/a	-1.0	n/a	n/a	n/a	n/a	n/a	n/a	n/a	n/a	feedback	s499
429.941	0.0	n/a	-1.0	n/a	columbia_card_task_fmri	n/a	n/a	-1.0	n/a	n/a	n/a	n/a	n/a	n/a	n/a	n/a	ITI	s499
429.953	1.661	2.0843474173456698	draw_card	0.0	columbia_card_task_fmri	14.0	0.8333333333333334	89.0	-75.0	0.1666666666666666	12.0	1.0	2.0	-1.4283474315412263	1.661	n/a	stim	s499
431.625	0.46	0.7358625688608185	draw_card	0.0	columbia_card_task_fmri	14.0	0.8181818181818181	89.0	-75.0	0.1818181818181818	12.0	2.0	2.0	-0.2741757280711923	0.46	n/a	stim	s499
432.097	0.456	-0.882319249320997	draw_card	0.0	columbia_card_task_fmri	14.0	0.8	89.0	-75.0	0.2	12.0	3.0	2.0	0.9945926399674434	0.456	n/a	stim	s499
432.563	0.434	-2.860097027098773	draw_card	0.0	columbia_card_task_fmri	14.0	0.7777777777777778	89.0	-75.0	0.2222222222222222	12.0	4.0	2.0	2.390922045985299	0.434	n/a	stim	s499
433.009	0.461	-5.332319249320998	draw_card	0.0	columbia_card_task_fmri	14.0	0.75	89.0	-75.0	0.25	12.0	5.0	2.0	3.9236499927216855	0.461	n/a	stim	s499
433.481	0.502	-8.510890677892425	draw_card	0.0	columbia_card_task_fmri	14.0	0.7142857142857143	89.0	-75.0	0.2857142857142857	12.0	6.0	2.0	5.587058046849137	0.502	n/a	stim	s499
433.993	0.459	-12.748985915987664	draw_card	1.0	columbia_card_task_fmri	14.0	0.6666666666666667	89.0	-75.0	0.3333333333333333	12.0	7.0	2.0	7.331562350440507	0.459	7.0	stim	s499
434.466	2.25	n/a	-1.0	n/a	columbia_card_task_fmri	n/a	n/a	-1.0	n/a	n/a	n/a	n/a	n/a	n/a	n/a	n/a	feedback	s499
436.716	0.136	n/a	-1.0	n/a	columbia_card_task_fmri	n/a	n/a	-1.0	n/a	n/a	n/a	n/a	n/a	n/a	n/a	n/a	ITI	s499
436.865	1.275	3.751014084012336	draw_card	0.0	columbia_card_task_fmri	15.0	0.8333333333333334	89.0	-70.0	0.1666666666666666	12.0	1.0	2.0	-2.9130569225357448	1.275	n/a	stim	s499
438.149	0.456	2.463135296133545	draw_card	0.0	columbia_card_task_fmri	15.0	0.8181818181818181	89.0	-70.0	0.1818181818181818	12.0	2.0	2.0	-1.8111519167629595	0.456	n/a	stim	s499
438.616	0.306	0.917680750679002	draw_card	0.0	columbia_card_task_fmri	15.0	0.8	89.0	-70.0	0.2	12.0	3.0	2.0	-0.5998104085525284	0.306	n/a	stim	s499
438.935	0.441	-0.9712081382098874	draw_card	0.0	columbia_card_task_fmri	15.0	0.7777777777777778	89.0	-70.0	0.2222222222222222	12.0	4.0	2.0	0.7333503598998945	0.441	n/a	stim	s499
439.388	0.389	-3.332319249320998	draw_card	0.0	columbia_card_task_fmri	15.0	0.75	89.0	-70.0	0.25	12.0	5.0	2.0	2.196773407912083	0.389	n/a	stim	s499
439.789	0.982	-6.368033535035282	draw_card	1.0	columbia_card_task_fmri	15.0	0.7142857142857143	89.0	-70.0	0.2857142857142857	12.0	6.0	2.0	3.78500361433288	0.982	6.0	stim	s499
440.783	2.25	n/a	-1.0	n/a	columbia_card_task_fmri	n/a	n/a	-1.0	n/a	n/a	n/a	n/a	n/a	n/a	n/a	n/a	feedback	s499
443.033	0.136	n/a	-1.0	n/a	columbia_card_task_fmri	n/a	n/a	-1.0	n/a	n/a	n/a	n/a	n/a	n/a	n/a	n/a	ITI	s499
443.178	1.214	1.7176807506790026	draw_card	0.0	columbia_card_task_fmri	16.0	0.8	89.0	-70.0	0.2	15.0	1.0	3.0	-0.2012581973196532	1.214	n/a	stim	s499
444.402	0.396	0.4891093221075731	draw_card	0.0	columbia_card_task_fmri	16.0	0.7857142857142857	89.0	-70.0	0.2142857142857142	15.0	2.0	3.0	0.6836720062307364	0.396	n/a	stim	s499
444.807	0.671	-0.9284730954748448	draw_card	0.0	columbia_card_task_fmri	16.0	0.7692307692307692	89.0	-70.0	0.2307692307692307	15.0	3.0	3.0	1.6264648594032636	0.671	n/a	stim	s499
445.488	1.259	-2.582319249320998	draw_card	0.0	columbia_card_task_fmri	16.0	0.75	89.0	-70.0	0.25	15.0	4.0	3.0	2.6284476351676105	1.259	n/a	stim	s499
446.758	1.999	-4.536864703866451	draw_card	0.0	columbia_card_task_fmri	16.0	0.7272727272727273	89.0	-70.0	0.2727272727272727	15.0	5.0	3.0	3.687312402582016	1.999	n/a	stim	s499
448.769	0.852	-6.882319249320998	draw_card	0.0	columbia_card_task_fmri	16.0	0.7	89.0	-70.0	0.3	15.0	6.0	3.0	4.793236884085822	0.852	n/a	stim	s499
449.63	1.604	-9.748985915987662	draw_card	0.0	columbia_card_task_fmri	16.0	0.6666666666666667	89.0	-70.0	0.3333333333333333	15.0	7.0	3.0	5.92087458646953	1.604	n/a	stim	s499
451.246	2.392	-13.332319249320998	end_round	0.0	columbia_card_task_fmri	16.0	0.625	71.0	-70.0	0.375	15.0	8.0	3.0	7.0119089346113554	2.392	7.0	stim	s499
453.651	2.25	n/a	-1.0	n/a	columbia_card_task_fmri	n/a	n/a	-1.0	n/a	n/a	n/a	n/a	n/a	n/a	n/a	n/a	feedback	s499
455.901	0.476	n/a	-1.0	n/a	columbia_card_task_fmri	n/a	n/a	-1.0	n/a	n/a	n/a	n/a	n/a	n/a	n/a	n/a	ITI	s499
456.389	1.68	2.105180750679002	draw_card	0.0	columbia_card_task_fmri	14.0	0.8125	89.0	-65.0	0.1875	16.0	1.0	3.0	-3.752359530369049	1.68	n/a	stim	s499
458.082	0.493	1.117680750679003	draw_card	0.0	columbia_card_task_fmri	14.0	0.8	89.0	-65.0	0.2	16.0	2.0	3.0	-2.990358603430103	0.493	n/a	stim	s499
458.588	0.589	-0.0108906778924251	draw_card	0.0	columbia_card_task_fmri	14.0	0.7857142857142857	89.0	-65.0	0.2142857142857142	16.0	3.0	3.0	-2.1779809252207443	0.589	n/a	stim	s499
459.187	1.707	-1.3130884800902298	draw_card	0.0	columbia_card_task_fmri	14.0	0.7692307692307692	89.0	-65.0	0.2307692307692307	16.0	4.0	3.0	-1.312456559075386	1.707	n/a	stim	s499
460.908	0.648	-2.832319249320998	draw_card	1.0	columbia_card_task_fmri	14.0	0.75	89.0	-65.0	0.25	16.0	5.0	3.0	-0.3925640243376804	0.648	5.0	stim	s499
461.565	2.25	n/a	-1.0	n/a	columbia_card_task_fmri	n/a	n/a	-1.0	n/a	n/a	n/a	n/a	n/a	n/a	n/a	n/a	feedback	s499
463.815	0.204	n/a	-1.0	n/a	columbia_card_task_fmri	n/a	n/a	-1.0	n/a	n/a	n/a	n/a	n/a	n/a	n/a	n/a	ITI	s499
464.029	0.76	1.855180750679002	draw_card	0.0	columbia_card_task_fmri	16.0	0.8125	89.0	-75.0	0.1875	16.0	1.0	3.0	0.9132919722907716	0.76	n/a	stim	s499
464.801	0.432	0.7176807506790026	draw_card	0.0	columbia_card_task_fmri	16.0	0.8	89.0	-75.0	0.2	16.0	2.0	3.0	1.791977767967026	0.432	n/a	stim	s499
465.245	0.302	-0.5823192493209963	draw_card	0.0	columbia_card_task_fmri	16.0	0.7857142857142857	89.0	-75.0	0.2142857142857142	16.0	3.0	3.0	2.728706043196304	0.302	n/a	stim	s499
465.557	0.708	-2.0823192493210017	draw_card	0.0	columbia_card_task_fmri	16.0	0.7692307692307692	89.0	-75.0	0.2307692307692307	16.0	4.0	3.0	3.726665186456685	0.708	n/a	stim	s499
466.275	0.489	-3.832319249320998	draw_card	1.0	columbia_card_task_fmri	16.0	0.75	89.0	-75.0	0.25	16.0	5.0	3.0	4.787258144472361	0.489	5.0	stim	s499
466.776	2.25	n/a	-1.0	n/a	columbia_card_task_fmri	n/a	n/a	-1.0	n/a	n/a	n/a	n/a	n/a	n/a	n/a	n/a	feedback	s499
469.026	0.068	n/a	-1.0	n/a	columbia_card_task_fmri	n/a	n/a	-1.0	n/a	n/a	n/a	n/a	n/a	n/a	n/a	n/a	ITI	s499
469.104	0.799	6.117680750679003	draw_card	0.0	columbia_card_task_fmri	16.0	0.8666666666666667	89.0	-80.0	0.1333333333333333	15.0	1.0	2.0	-1.9608742171046032	0.799	n/a	stim	s499
469.916	0.425	5.203395036393291	draw_card	0.0	columbia_card_task_fmri	16.0	0.8571428571428572	89.0	-80.0	0.1428571428571428	15.0	2.0	2.0	-1.0052999127766071	0.425	n/a	stim	s499
470.354	0.343	4.148449981448232	draw_card	0.0	columbia_card_task_fmri	16.0	0.8461538461538461	89.0	-80.0	0.1538461538461538	15.0	3.0	2.0	0.034816354900002	0.343	n/a	stim	s499
470.71	0.368	2.917680750679004	draw_card	0.0	columbia_card_task_fmri	16.0	0.8333333333333334	89.0	-80.0	0.1666666666666666	15.0	4.0	2.0	1.171091424923851	0.368	n/a	stim	s499
471.09	1.101	1.463135296133545	draw_card	0.0	columbia_card_task_fmri	16.0	0.8181818181818181	89.0	-80.0	0.1818181818181818	15.0	5.0	2.0	2.416690314230678	1.101	n/a	stim	s499
472.203	0.509	-0.2823192493209974	draw_card	0.0	columbia_card_task_fmri	16.0	0.8	89.0	-80.0	0.2	15.0	6.0	2.0	3.7859151134716456	0.509	n/a	stim	s499
472.725	0.647	-2.415652582654332	draw_card	0.0	columbia_card_task_fmri	16.0	0.7777777777777778	89.0	-80.0	0.2222222222222222	15.0	7.0	2.0	5.292748127310681	0.647	n/a	stim	s499
473.384	2.572	-5.082319249320998	draw_card	0.0	columbia_card_task_fmri	16.0	0.75	89.0	-80.0	0.25	15.0	8.0	2.0	6.946717476199744	2.572	n/a	stim	s499
475.97	1.07	-8.510890677892423	end_round	0.0	columbia_card_task_fmri	16.0	0.7142857142857143	71.0	-80.0	0.2857142857142857	15.0	9.0	2.0	8.741644567265979	1.07	8.0	stim	s499
477.052	2.25	n/a	-1.0	n/a	columbia_card_task_fmri	n/a	n/a	-1.0	n/a	n/a	n/a	n/a	n/a	n/a	n/a	n/a	feedback	s499
479.302	0.068	n/a	-1.0	n/a	columbia_card_task_fmri	n/a	n/a	-1.0	n/a	n/a	n/a	n/a	n/a	n/a	n/a	n/a	ITI	s499
479.382	1.413	6.984347417345671	draw_card	0.0	columbia_card_task_fmri	17.0	0.8666666666666667	89.0	-80.0	0.1333333333333333	15.0	1.0	2.0	-1.6222763000425076	1.413	n/a	stim	s499
480.806	0.355	6.060537893536148	draw_card	0.0	columbia_card_task_fmri	17.0	0.8571428571428572	89.0	-80.0	0.1428571428571428	15.0	2.0	2.0	-0.6566717835268818	0.355	n/a	stim	s499
481.175	0.298	4.994603827602079	draw_card	0.0	columbia_card_task_fmri	17.0	0.8461538461538461	89.0	-80.0	0.1538461538461538	15.0	3.0	2.0	0.3943573237765605	0.298	n/a	stim	s499
481.484	0.411	3.7510140840123376	draw_card	0.0	columbia_card_task_fmri	17.0	0.8333333333333334	89.0	-80.0	0.1666666666666666	15.0	4.0	2.0	1.5425489395065597	0.411	n/a	stim	s499
481.909	0.875	2.2813171143153634	draw_card	0.0	columbia_card_task_fmri	17.0	0.8181818181818181	89.0	-80.0	0.1818181818181818	15.0	5.0	2.0	2.8012052457491663	0.875	n/a	stim	s499
482.797	1.076	0.5176807506790033	draw_card	0.0	columbia_card_task_fmri	17.0	0.8	89.0	-80.0	0.2	15.0	6.0	2.0	4.1847772600351405	1.076	n/a	stim	s499
483.886	0.669	-1.6378748048765537	draw_card	0.0	columbia_card_task_fmri	17.0	0.7777777777777778	89.0	-80.0	0.2222222222222222	15.0	7.0	2.0	5.7073927152912205	0.669	n/a	stim	s499
484.566	0.947	-4.332319249320998	draw_card	0.0	columbia_card_task_fmri	17.0	0.75	89.0	-80.0	0.25	15.0	8.0	2.0	7.378678416453781	0.947	n/a	stim	s499
485.526	1.703	-7.796604963606709	draw_card	1.0	columbia_card_task_fmri	17.0	0.7142857142857143	89.0	-80.0	0.2857142857142857	15.0	9.0	2.0	9.192390091663178	1.703	9.0	stim	s499
487.24	2.25	n/a	-1.0	n/a	columbia_card_task_fmri	n/a	n/a	-1.0	n/a	n/a	n/a	n/a	n/a	n/a	n/a	n/a	feedback	s499
489.49	0.34	n/a	-1.0	n/a	columbia_card_task_fmri	n/a	n/a	-1.0	n/a	n/a	n/a	n/a	n/a	n/a	n/a	n/a	ITI	s499
489.84	1.511	2.917680750679002	end_round	0.0	columbia_card_task_fmri	1.0	0.9375	71.0	-15.0	0.0625	16.0	1.0	1.0	-29.875763726804752	1.511	0.0	stim	s499
491.363	2.25	n/a	-1.0	n/a	columbia_card_task_fmri	n/a	n/a	-1.0	n/a	n/a	n/a	n/a	n/a	n/a	n/a	n/a	feedback	s499
493.613	0.476	n/a	-1.0	n/a	columbia_card_task_fmri	n/a	n/a	-1.0	n/a	n/a	n/a	n/a	n/a	n/a	n/a	n/a	ITI	s499
494.126	1.491	6.042680750679002	draw_card	0.0	columbia_card_task_fmri	10.0	0.9375	89.0	-100.0	0.0625	16.0	1.0	1.0	-7.93863103235039	1.491	n/a	stim	s499
495.631	0.222	5.584347417345668	draw_card	0.0	columbia_card_task_fmri	10.0	0.9333333333333332	89.0	-100.0	0.0666666666666666	16.0	2.0	1.0	-7.131260711967258	0.222	n/a	stim	s499
495.866	1.946	5.0605378935361465	draw_card	0.0	columbia_card_task_fmri	10.0	0.9285714285714286	89.0	-100.0	0.0714285714285714	16.0	3.0	1.0	-6.24558661093895	1.946	n/a	stim	s499
497.825	0.247	4.456142289140541	draw_card	0.0	columbia_card_task_fmri	10.0	0.9230769230769232	89.0	-100.0	0.0769230769230769	16.0	4.0	1.0	-5.268285757833269	0.247	n/a	stim	s499
498.085	0.355	3.751014084012336	draw_card	0.0	columbia_card_task_fmri	10.0	0.9166666666666666	89.0	-100.0	0.0833333333333333	16.0	5.0	1.0	-4.182693744001256	0.355	n/a	stim	s499
498.453	0.517	2.917680750679	draw_card	0.0	columbia_card_task_fmri	10.0	0.9090909090909092	89.0	-100.0	0.0909090909090909	16.0	6.0	1.0	-2.9676784031481844	0.517	n/a	stim	s499
498.983	0.453	1.917680750679002	draw_card	0.0	columbia_card_task_fmri	10.0	0.9	89.0	-100.0	0.1	16.0	7.0	1.0	-1.596038256417728	0.453	n/a	stim	s499
499.45	0.655	0.6954585284567805	draw_card	0.0	columbia_card_task_fmri	10.0	0.8888888888888888	89.0	-100.0	0.1111111111111111	16.0	8.0	1.0	-0.032197371044333	0.655	n/a	stim	s499
500.119	2.041	-0.8323192493209981	draw_card	0.0	columbia_card_task_fmri	10.0	0.875	89.0	-100.0	0.125	16.0	9.0	1.0	1.7711252150178538	2.041	n/a	stim	s499
502.171	3.386	-2.79660496360671	draw_card	0.0	columbia_card_task_fmri	10.0	0.8571428571428572	89.0	-100.0	0.1428571428571428	16.0	10.0	1.0	3.8776330467888585	3.386	n/a	stim	s499
505.569	2.435	-5.415652582654328	draw_card	0.0	columbia_card_task_fmri	10.0	0.8333333333333334	89.0	-100.0	0.1666666666666666	16.0	11.0	1.0	6.373507627307447	2.435	n/a	stim	s499
508.017	1.084	-9.082319249320998	end_round	0.0	columbia_card_task_fmri	10.0	0.8	71.0	-100.0	0.2	16.0	12.0	1.0	9.37186103816991	1.084	11.0	stim	s499
509.115	2.25	n/a	-1.0	n/a	columbia_card_task_fmri	n/a	n/a	-1.0	n/a	n/a	n/a	n/a	n/a	n/a	n/a	n/a	feedback	s499
511.365	0.272	n/a	-1.0	n/a	columbia_card_task_fmri	n/a	n/a	-1.0	n/a	n/a	n/a	n/a	n/a	n/a	n/a	n/a	ITI	s499
511.65	2.751	6.667680750679002	draw_card	0.0	columbia_card_task_fmri	15.0	0.875	89.0	-75.0	0.125	16.0	1.0	2.0	-4.817406920697859	2.751	n/a	stim	s499
514.413	0.24	5.917680750679002	draw_card	0.0	columbia_card_task_fmri	15.0	0.8666666666666667	89.0	-75.0	0.1333333333333333	16.0	2.0	2.0	-3.991841950331352	0.24	n/a	stim	s499
514.665	0.193	5.0605378935361465	draw_card	0.0	columbia_card_task_fmri	15.0	0.8571428571428572	89.0	-75.0	0.1428571428571428	16.0	3.0	2.0	-3.096466198476204	0.193	n/a	stim	s499
514.869	0.211	4.071526904525156	draw_card	0.0	columbia_card_task_fmri	15.0	0.8461538461538461	89.0	-75.0	0.1538461538461538	16.0	4.0	2.0	-2.121844722260235	0.211	n/a	stim	s499
515.092	0.386	2.917680750679002	draw_card	0.0	columbia_card_task_fmri	15.0	0.8333333333333334	89.0	-75.0	0.1666666666666666	16.0	5.0	2.0	-1.057087171574686	0.386	n/a	stim	s499
515.491	0.521	1.5540443870426368	draw_card	0.0	columbia_card_task_fmri	15.0	0.8181818181818181	89.0	-75.0	0.1818181818181818	16.0	6.0	2.0	0.110148471727868	0.521	n/a	stim	s499
516.023	0.47	-0.0823192493209981	draw_card	1.0	columbia_card_task_fmri	15.0	0.8	89.0	-75.0	0.2	16.0	7.0	2.0	1.3932707480445998	0.47	7.0	stim	s499
516.508	2.25	n/a	-1.0	n/a	columbia_card_task_fmri	n/a	n/a	-1.0	n/a	n/a	n/a	n/a	n/a	n/a	n/a	n/a	feedback	s499
518.758	0.884	n/a	-1.0	n/a	columbia_card_task_fmri	n/a	n/a	-1.0	n/a	n/a	n/a	n/a	n/a	n/a	n/a	n/a	ITI	s499
519.655	0.904	6.917680750679002	draw_card	0.0	columbia_card_task_fmri	16.0	0.875	89.0	-80.0	0.125	16.0	1.0	2.0	-2.841971084071844	0.904	n/a	stim	s499
520.573	0.288	6.117680750679003	draw_card	0.0	columbia_card_task_fmri	16.0	0.8666666666666667	89.0	-80.0	0.1333333333333333	16.0	2.0	2.0	-1.9608742171046032	0.288	n/a	stim	s499
520.876	0.291	5.203395036393291	draw_card	1.0	columbia_card_task_fmri	16.0	0.8571428571428572	89.0	-80.0	0.1428571428571428	16.0	3.0	2.0	-1.0052999127766071	0.291	3.0	stim	s499
521.182	2.25	n/a	-1.0	n/a	columbia_card_task_fmri	n/a	n/a	-1.0	n/a	n/a	n/a	n/a	n/a	n/a	n/a	n/a	feedback	s499
523.432	0.136	n/a	-1.0	n/a	columbia_card_task_fmri	n/a	n/a	-1.0	n/a	n/a	n/a	n/a	n/a	n/a	n/a	n/a	ITI	s499
523.581	1.716	4.105180750679002	draw_card	0.0	columbia_card_task_fmri	4.0	0.6875	89.0	-5.0	0.3125	16.0	1.0	5.0	-29.634072048728463	1.716	n/a	stim	s499
525.312	0.22	3.9176807506790015	draw_card	1.0	columbia_card_task_fmri	4.0	0.6666666666666667	89.0	-5.0	0.3333333333333333	16.0	2.0	5.0	-29.5757058237047	0.22	2.0	stim	s499
525.547	2.25	n/a	-1.0	n/a	columbia_card_task_fmri	n/a	n/a	-1.0	n/a	n/a	n/a	n/a	n/a	n/a	n/a	n/a	feedback	s499
527.797	0.136	n/a	-1.0	n/a	columbia_card_task_fmri	n/a	n/a	-1.0	n/a	n/a	n/a	n/a	n/a	n/a	n/a	n/a	ITI	s499
527.944	1.722	1.2510140840123376	end_round	0.0	columbia_card_task_fmri	14.0	0.8333333333333334	71.0	-80.0	0.1666666666666666	6.0	1.0	1.0	0.4282539030097538	1.722	0.0	stim	s499
529.677	2.25	n/a	-1.0	n/a	columbia_card_task_fmri	n/a	n/a	-1.0	n/a	n/a	n/a	n/a	n/a	n/a	n/a	n/a	feedback	s499
531.927	0.068	n/a	-1.0	n/a	columbia_card_task_fmri	n/a	n/a	-1.0	n/a	n/a	n/a	n/a	n/a	n/a	n/a	n/a	ITI	s499
532.009	0.934	2.917680750679002	draw_card	0.0	columbia_card_task_fmri	15.0	0.8333333333333334	89.0	-75.0	0.1666666666666666	6.0	1.0	1.0	-1.057087171574686	0.934	n/a	stim	s499
532.956	0.249	-0.0823192493209981	draw_card	1.0	columbia_card_task_fmri	15.0	0.8	89.0	-75.0	0.2	6.0	2.0	1.0	1.3932707480445998	0.249	2.0	stim	s499
533.222	2.25	n/a	-1.0	n/a	columbia_card_task_fmri	n/a	n/a	-1.0	n/a	n/a	n/a	n/a	n/a	n/a	n/a	n/a	feedback	s499
535.472	0.068	n/a	-1.0	n/a	columbia_card_task_fmri	n/a	n/a	-1.0	n/a	n/a	n/a	n/a	n/a	n/a	n/a	n/a	ITI	s499
535.554	0.869	4.58434741734567	draw_card	0.0	columbia_card_task_fmri	16.0	0.8333333333333334	89.0	-70.0	0.1666666666666666	6.0	1.0	1.0	-2.541931576550631	0.869	n/a	stim	s499
536.435	0.254	1.7176807506790026	draw_card	0.0	columbia_card_task_fmri	16.0	0.8	89.0	-70.0	0.2	6.0	2.0	1.0	-0.2012581973196532	0.254	n/a	stim	s499
536.703	0.472	-2.582319249320998	draw_card	0.0	columbia_card_task_fmri	16.0	0.75	89.0	-70.0	0.25	6.0	3.0	1.0	2.6284476351676105	0.472	n/a	stim	s499
537.189	1.633	-9.748985915987662	end_round	0.0	columbia_card_task_fmri	16.0	0.6666666666666667	71.0	-70.0	0.3333333333333333	6.0	4.0	1.0	5.92087458646953	1.633	3.0	stim	s499
538.835	2.25	n/a	-1.0	n/a	columbia_card_task_fmri	n/a	n/a	-1.0	n/a	n/a	n/a	n/a	n/a	n/a	n/a	n/a	feedback	s499
541.085	0.612	n/a	-1.0	n/a	columbia_card_task_fmri	n/a	n/a	-1.0	n/a	n/a	n/a	n/a	n/a	n/a	n/a	n/a	ITI	s499
541.709	1.147	5.167680750679002	draw_card	0.0	columbia_card_task_fmri	23.0	0.75	89.0	-60.0	0.25	8.0	1.0	2.0	1.3335212444091482	1.147	n/a	stim	s499
542.87	0.971	2.20339503639329	draw_card	0.0	columbia_card_task_fmri	23.0	0.7142857142857143	89.0	-60.0	0.2857142857142857	8.0	2.0	2.0	2.8841549393446044	0.971	n/a	stim	s499
543.855	0.672	-1.7489859159876624	draw_card	0.0	columbia_card_task_fmri	23.0	0.6666666666666667	89.0	-60.0	0.3333333333333333	8.0	3.0	2.0	4.51044067776413	0.672	n/a	stim	s499
544.539	2.954	-7.282319249320999	draw_card	0.0	columbia_card_task_fmri	23.0	0.6	89.0	-60.0	0.4	8.0	4.0	2.0	6.041304968235117	2.954	n/a	stim	s499
547.505	4.001	-15.582319249320998	draw_card	0.0	columbia_card_task_fmri	23.0	0.5	89.0	-60.0	0.5	8.0	5.0	2.0	6.877668251460918	4.001	n/a	stim	s499
551.518	2.7	-29.415652582654328	draw_card	0.0	columbia_card_task_fmri	23.0	0.3333333333333333	89.0	-60.0	0.6666666666666666	8.0	6.0	2.0	4.51044067776413	2.7	n/a	stim	s499
554.23	1.497	-57.082319249321	end_round	0.0	columbia_card_task_fmri	23.0	0.0	71.0	-60.0	1.0	8.0	7.0	2.0	-31.80708915913715	1.497	6.0	stim	s499
555.743	2.25	n/a	-1.0	n/a	columbia_card_task_fmri	n/a	n/a	-1.0	n/a	n/a	n/a	n/a	n/a	n/a	n/a	n/a	feedback	s499
557.993	0.476	n/a	-1.0	n/a	columbia_card_task_fmri	n/a	n/a	-1.0	n/a	n/a	n/a	n/a	n/a	n/a	n/a	n/a	ITI	s499
558.484	1.062	5.667680750679002	draw_card	0.0	columbia_card_task_fmri	27.0	0.75	89.0	-70.0	0.25	8.0	1.0	2.0	7.378678416453781	1.062	n/a	stim	s499
559.561	0.529	2.2033950363932866	draw_card	1.0	columbia_card_task_fmri	27.0	0.7142857142857143	89.0	-70.0	0.2857142857142857	8.0	2.0	2.0	9.192390091663178	0.529	2.0	stim	s499
560.107	2.25	n/a	-1.0	n/a	columbia_card_task_fmri	n/a	n/a	-1.0	n/a	n/a	n/a	n/a	n/a	n/a	n/a	n/a	feedback	s499
562.357	0.0	n/a	-1.0	n/a	columbia_card_task_fmri	n/a	n/a	-1.0	n/a	n/a	n/a	n/a	n/a	n/a	n/a	n/a	ITI	s499
562.369	0.791	0.9176807506790036	draw_card	0.0	columbia_card_task_fmri	16.0	0.7777777777777778	89.0	-65.0	0.2222222222222222	9.0	1.0	2.0	-0.9236921021059032	0.791	n/a	stim	s499
563.174	0.548	-1.332319249320998	draw_card	0.0	columbia_card_task_fmri	16.0	0.75	89.0	-65.0	0.25	9.0	2.0	2.0	0.4704053413867157	0.548	n/a	stim	s499
563.734	0.45	-4.225176392178138	draw_card	0.0	columbia_card_task_fmri	16.0	0.7142857142857143	89.0	-65.0	0.2857142857142857	9.0	3.0	2.0	1.9834369763778028	0.45	n/a	stim	s499
564.197	0.942	-8.082319249320994	draw_card	0.0	columbia_card_task_fmri	16.0	0.6666666666666667	89.0	-65.0	0.3333333333333333	9.0	4.0	2.0	3.5703062875604843	0.942	n/a	stim	s499
565.152	1.119	-13.482319249320996	draw_card	0.0	columbia_card_task_fmri	16.0	0.6	89.0	-65.0	0.4	9.0	5.0	2.0	5.064083566539296	1.119	n/a	stim	s499
566.283	0.694	-21.582319249321	end_round	0.0	columbia_card_task_fmri	16.0	0.5	71.0	-65.0	0.5	9.0	6.0	2.0	5.880191128988976	0.694	5.0	stim	s499
566.989	2.25	n/a	-1.0	n/a	columbia_card_task_fmri	n/a	n/a	-1.0	n/a	n/a	n/a	n/a	n/a	n/a	n/a	n/a	feedback	s499
569.239	0.068	n/a	-1.0	n/a	columbia_card_task_fmri	n/a	n/a	-1.0	n/a	n/a	n/a	n/a	n/a	n/a	n/a	n/a	ITI	s499
569.322	0.885	6.117680750679003	draw_card	0.0	columbia_card_task_fmri	13.0	0.9	89.0	-85.0	0.1	10.0	1.0	1.0	-5.180348084996449	0.885	n/a	stim	s499
570.223	0.587	5.028791861790113	draw_card	0.0	columbia_card_task_fmri	13.0	0.8888888888888888	89.0	-85.0	0.1111111111111111	10.0	2.0	1.0	-3.788447070160082	0.587	n/a	stim	s499
570.826	3.785	3.667680750679002	draw_card	0.0	columbia_card_task_fmri	13.0	0.875	89.0	-85.0	0.125	10.0	3.0	1.0	-2.183252413502572	3.785	n/a	stim	s499
574.624	0.473	1.917680750679004	draw_card	0.0	columbia_card_task_fmri	13.0	0.8571428571428572	89.0	-85.0	0.1428571428571428	10.0	4.0	1.0	-0.3080172889937955	0.473	n/a	stim	s499
575.11	0.817	-0.4156525826543302	draw_card	0.0	columbia_card_task_fmri	13.0	0.8333333333333334	89.0	-85.0	0.1666666666666666	10.0	5.0	1.0	1.914031242128921	0.817	n/a	stim	s499
575.94	2.503	-3.6823192493209977	draw_card	0.0	columbia_card_task_fmri	13.0	0.8	89.0	-85.0	0.2	10.0	6.0	1.0	4.583662531110349	2.503	n/a	stim	s499
578.456	2.293	-8.582319249320998	end_round	0.0	columbia_card_task_fmri	13.0	0.75	71.0	-85.0	0.25	10.0	7.0	1.0	7.810660744673321	2.293	6.0	stim	s499
580.765	2.25	n/a	-1.0	n/a	columbia_card_task_fmri	n/a	n/a	-1.0	n/a	n/a	n/a	n/a	n/a	n/a	n/a	n/a	feedback	s499
583.015	0.204	n/a	-1.0	n/a	columbia_card_task_fmri	n/a	n/a	-1.0	n/a	n/a	n/a	n/a	n/a	n/a	n/a	n/a	ITI	s499
583.234	0.791	1.117680750679003	draw_card	0.0	columbia_card_task_fmri	14.0	0.8	89.0	-65.0	0.2	10.0	1.0	2.0	-2.990358603430103	0.791	n/a	stim	s499
584.039	0.357	-0.6378748048765517	draw_card	0.0	columbia_card_task_fmri	14.0	0.7777777777777778	89.0	-65.0	0.2222222222222222	10.0	2.0	2.0	-1.751989939246883	0.357	n/a	stim	s499
584.412	0.282	-2.832319249320998	draw_card	0.0	columbia_card_task_fmri	14.0	0.75	89.0	-65.0	0.25	10.0	3.0	2.0	-0.3925640243376804	0.282	n/a	stim	s499
584.709	0.428	-5.653747820749567	draw_card	0.0	columbia_card_task_fmri	14.0	0.7142857142857143	89.0	-65.0	0.2857142857142857	10.0	4.0	2.0	1.0828595893651354	0.428	n/a	stim	s499
585.152	0.489	-9.415652582654328	draw_card	0.0	columbia_card_task_fmri	14.0	0.6666666666666667	89.0	-65.0	0.3333333333333333	10.0	5.0	2.0	2.6303067177557864	0.489	n/a	stim	s499
585.655	0.519	-14.682319249321	draw_card	1.0	columbia_card_task_fmri	14.0	0.6	89.0	-65.0	0.4	10.0	6.0	2.0	4.086991979627655	0.519	6.0	stim	s499
586.189	2.25	n/a	-1.0	n/a	columbia_card_task_fmri	n/a	n/a	-1.0	n/a	n/a	n/a	n/a	n/a	n/a	n/a	n/a	feedback	s499
588.439	0.272	n/a	-1.0	n/a	columbia_card_task_fmri	n/a	n/a	-1.0	n/a	n/a	n/a	n/a	n/a	n/a	n/a	n/a	ITI	s499
