onset	duration	planning	condition	current_position	exp_stage	experiment_exp_id	goal_state	key_press	problem_id	response_time	start_state	trial_id	worker_id
-57.851	0.0	0	n/a	n/a	n/a	ward_and_allport	n/a	32.0	n/a	11.542	n/a	instructions	s518
3.008	7.923	1	UA_with_intermediate	1,0,0,2,0,0,0,0,0	practice	ward_and_allport	1,2,3,0,0,0,0,0,0	71.0	0.0	7.923	1,0,0,2,3,0,0,0,0	to_hand	s518
10.932	0.84	0	UA_with_intermediate	1,0,0,2,0,0,3,0,0	practice	ward_and_allport	1,2,3,0,0,0,0,0,0	82.0	0.0	0.84	1,0,0,2,3,0,0,0,0	to_board	s518
11.774	1.524	0	UA_with_intermediate	1,0,0,0,0,0,3,0,0	practice	ward_and_allport	1,2,3,0,0,0,0,0,0	71.0	0.0	1.524	1,0,0,2,3,0,0,0,0	to_hand	s518
13.298	1.775	0	UA_with_intermediate	1,2,0,0,0,0,3,0,0	practice	ward_and_allport	1,2,3,0,0,0,0,0,0	89.0	0.0	1.775	1,0,0,2,3,0,0,0,0	to_board	s518
15.074	1.249	0	UA_with_intermediate	1,2,0,0,0,0,0,0,0	practice	ward_and_allport	1,2,3,0,0,0,0,0,0	82.0	0.0	1.249	1,0,0,2,3,0,0,0,0	to_hand	s518
16.324	0.979	0	UA_with_intermediate	1,2,3,0,0,0,0,0,0	practice	ward_and_allport	1,2,3,0,0,0,0,0,0	89.0	0.0	0.979	1,0,0,2,3,0,0,0,0	to_board	s518
17.307	1.0	0	UA_with_intermediate	n/a	practice	ward_and_allport	n/a	-1.0	0.0	n/a	n/a	feedback	s518
19.808	5.66	1	UA_with_intermediate	1,0,0,3,0,0,0,0,0	practice	ward_and_allport	1,3,2,0,0,0,0,0,0	89.0	1.0	5.66	1,2,0,3,0,0,0,0,0	to_hand	s518
25.47	1.336	0	UA_with_intermediate	1,0,0,3,0,0,2,0,0	practice	ward_and_allport	1,3,2,0,0,0,0,0,0	82.0	1.0	1.336	1,2,0,3,0,0,0,0,0	to_board	s518
26.809	0.928	0	UA_with_intermediate	1,0,0,0,0,0,2,0,0	practice	ward_and_allport	1,3,2,0,0,0,0,0,0	71.0	1.0	0.928	1,2,0,3,0,0,0,0,0	to_hand	s518
27.738	0.773	0	UA_with_intermediate	1,3,0,0,0,0,2,0,0	practice	ward_and_allport	1,3,2,0,0,0,0,0,0	89.0	1.0	0.773	1,2,0,3,0,0,0,0,0	to_board	s518
28.512	1.205	0	UA_with_intermediate	1,3,0,0,0,0,0,0,0	practice	ward_and_allport	1,3,2,0,0,0,0,0,0	82.0	1.0	1.205	1,2,0,3,0,0,0,0,0	to_hand	s518
29.717	0.555	0	UA_with_intermediate	1,3,2,0,0,0,0,0,0	practice	ward_and_allport	1,3,2,0,0,0,0,0,0	89.0	1.0	0.555	1,2,0,3,0,0,0,0,0	to_board	s518
30.275	1.0	0	UA_with_intermediate	n/a	practice	ward_and_allport	n/a	-1.0	1.0	n/a	n/a	feedback	s518
31.275	1.1	0	UA_with_intermediate	n/a	practice	ward_and_allport	n/a	-1.0	1.0	n/a	n/a	ITI	s518
32.377	2.789	1	UA_without_intermediate	0,0,0,1,2,0,0,0,0	practice	ward_and_allport	3,2,1,0,0,0,0,0,0	82.0	2.0	2.789	0,0,0,1,2,0,3,0,0	to_hand	s518
35.166	0.653	0	UA_without_intermediate	3,0,0,1,2,0,0,0,0	practice	ward_and_allport	3,2,1,0,0,0,0,0,0	89.0	2.0	0.653	0,0,0,1,2,0,3,0,0	to_board	s518
35.821	1.449	0	UA_without_intermediate	3,0,0,1,0,0,0,0,0	practice	ward_and_allport	3,2,1,0,0,0,0,0,0	71.0	2.0	1.449	0,0,0,1,2,0,3,0,0	to_hand	s518
37.271	0.709	0	UA_without_intermediate	3,2,0,1,0,0,0,0,0	practice	ward_and_allport	3,2,1,0,0,0,0,0,0	89.0	2.0	0.709	0,0,0,1,2,0,3,0,0	to_board	s518
37.984	0.93	0	UA_without_intermediate	3,2,0,0,0,0,0,0,0	practice	ward_and_allport	3,2,1,0,0,0,0,0,0	71.0	2.0	0.93	0,0,0,1,2,0,3,0,0	to_hand	s518
38.915	0.451	0	UA_without_intermediate	3,2,1,0,0,0,0,0,0	practice	ward_and_allport	3,2,1,0,0,0,0,0,0	89.0	2.0	0.451	0,0,0,1,2,0,3,0,0	to_board	s518
39.368	1.0	0	UA_without_intermediate	n/a	practice	ward_and_allport	n/a	-1.0	2.0	n/a	n/a	feedback	s518
40.368	1.2	0	UA_without_intermediate	n/a	practice	ward_and_allport	n/a	-1.0	2.0	n/a	n/a	ITI	s518
41.57	2.877	1	UA_without_intermediate	0,0,0,1,0,0,3,0,0	practice	ward_and_allport	2,3,1,0,0,0,0,0,0	71.0	3.0	2.877	0,0,0,1,2,0,3,0,0	to_hand	s518
44.448	1.307	0	UA_without_intermediate	2,0,0,1,0,0,3,0,0	practice	ward_and_allport	2,3,1,0,0,0,0,0,0	89.0	3.0	1.307	0,0,0,1,2,0,3,0,0	to_board	s518
45.758	1.276	0	UA_without_intermediate	2,0,0,1,0,0,0,0,0	practice	ward_and_allport	2,3,1,0,0,0,0,0,0	82.0	3.0	1.276	0,0,0,1,2,0,3,0,0	to_hand	s518
47.035	0.581	0	UA_without_intermediate	2,3,0,1,0,0,0,0,0	practice	ward_and_allport	2,3,1,0,0,0,0,0,0	89.0	3.0	0.581	0,0,0,1,2,0,3,0,0	to_board	s518
47.618	0.577	0	UA_without_intermediate	2,3,0,0,0,0,0,0,0	practice	ward_and_allport	2,3,1,0,0,0,0,0,0	71.0	3.0	0.577	0,0,0,1,2,0,3,0,0	to_hand	s518
48.196	0.392	0	UA_without_intermediate	2,3,1,0,0,0,0,0,0	practice	ward_and_allport	2,3,1,0,0,0,0,0,0	89.0	3.0	0.392	0,0,0,1,2,0,3,0,0	to_board	s518
48.591	1.0	0	UA_without_intermediate	n/a	practice	ward_and_allport	n/a	-1.0	3.0	n/a	n/a	feedback	s518
49.591	1.0	0	UA_without_intermediate	n/a	practice	ward_and_allport	n/a	-1.0	3.0	n/a	n/a	ITI	s518
52.597	7.666	1	PA_with_intermediate	0,0,0,0,0,0,1,2,0	test	ward_and_allport	0,0,0,2,3,0,1,0,0	82.0	0.0	7.666	0,0,0,0,0,0,1,2,3	to_hand	s518
60.265	1.046	0	PA_with_intermediate	3,0,0,0,0,0,1,2,0	test	ward_and_allport	0,0,0,2,3,0,1,0,0	89.0	0.0	1.046	0,0,0,0,0,0,1,2,3	to_board	s518
61.313	2.695	0	PA_with_intermediate	3,0,0,0,0,0,1,0,0	test	ward_and_allport	0,0,0,2,3,0,1,0,0	82.0	0.0	2.695	0,0,0,0,0,0,1,2,3	to_hand	s518
64.008	0.63	0	PA_with_intermediate	3,0,0,2,0,0,1,0,0	test	ward_and_allport	0,0,0,2,3,0,1,0,0	71.0	0.0	0.63	0,0,0,0,0,0,1,2,3	to_board	s518
64.641	2.669	0	PA_with_intermediate	0,0,0,2,0,0,1,0,0	test	ward_and_allport	0,0,0,2,3,0,1,0,0	89.0	0.0	2.669	0,0,0,0,0,0,1,2,3	to_hand	s518
67.31	0.508	0	PA_with_intermediate	0,0,0,2,3,0,1,0,0	test	ward_and_allport	0,0,0,2,3,0,1,0,0	71.0	0.0	0.508	0,0,0,0,0,0,1,2,3	to_board	s518
67.822	1.0	0	PA_with_intermediate	n/a	test	ward_and_allport	n/a	-1.0	0.0	n/a	n/a	feedback	s518
68.822	3.176	0	PA_with_intermediate	n/a	test	ward_and_allport	n/a	-1.0	0.0	n/a	n/a	ITI	s518
72.0	4.441	1	PA_with_intermediate	1,2,0,0,0,0,0,0,0	test	ward_and_allport	1,0,0,0,0,0,2,3,0	89.0	1.0	4.441	1,2,3,0,0,0,0,0,0	to_hand	s518
76.442	1.653	0	PA_with_intermediate	1,2,0,3,0,0,0,0,0	test	ward_and_allport	1,0,0,0,0,0,2,3,0	71.0	1.0	1.653	1,2,3,0,0,0,0,0,0	to_board	s518
78.096	1.016	0	PA_with_intermediate	1,0,0,3,0,0,0,0,0	test	ward_and_allport	1,0,0,0,0,0,2,3,0	89.0	1.0	1.016	1,2,3,0,0,0,0,0,0	to_hand	s518
79.114	0.637	0	PA_with_intermediate	1,0,0,3,0,0,2,0,0	test	ward_and_allport	1,0,0,0,0,0,2,3,0	82.0	1.0	0.637	1,2,3,0,0,0,0,0,0	to_board	s518
79.754	0.84	0	PA_with_intermediate	1,0,0,0,0,0,2,0,0	test	ward_and_allport	1,0,0,0,0,0,2,3,0	71.0	1.0	0.84	1,2,3,0,0,0,0,0,0	to_hand	s518
80.595	1.197	0	PA_with_intermediate	1,0,0,0,0,0,2,3,0	test	ward_and_allport	1,0,0,0,0,0,2,3,0	82.0	1.0	1.197	1,2,3,0,0,0,0,0,0	to_board	s518
81.796	1.0	0	PA_with_intermediate	n/a	test	ward_and_allport	n/a	-1.0	1.0	n/a	n/a	feedback	s518
82.796	2.36	0	PA_with_intermediate	n/a	test	ward_and_allport	n/a	-1.0	1.0	n/a	n/a	ITI	s518
85.158	3.903	1	PA_with_intermediate	1,2,0,0,0,0,0,0,0	test	ward_and_allport	1,3,0,0,0,0,2,0,0	89.0	2.0	3.903	1,2,3,0,0,0,0,0,0	to_hand	s518
89.062	0.549	0	PA_with_intermediate	1,2,0,3,0,0,0,0,0	test	ward_and_allport	1,3,0,0,0,0,2,0,0	71.0	2.0	0.549	1,2,3,0,0,0,0,0,0	to_board	s518
89.613	0.977	0	PA_with_intermediate	1,0,0,3,0,0,0,0,0	test	ward_and_allport	1,3,0,0,0,0,2,0,0	89.0	2.0	0.977	1,2,3,0,0,0,0,0,0	to_hand	s518
90.592	0.671	0	PA_with_intermediate	1,0,0,3,0,0,2,0,0	test	ward_and_allport	1,3,0,0,0,0,2,0,0	82.0	2.0	0.671	1,2,3,0,0,0,0,0,0	to_board	s518
91.266	1.025	0	PA_with_intermediate	1,0,0,0,0,0,2,0,0	test	ward_and_allport	1,3,0,0,0,0,2,0,0	71.0	2.0	1.025	1,2,3,0,0,0,0,0,0	to_hand	s518
92.292	0.572	0	PA_with_intermediate	1,3,0,0,0,0,2,0,0	test	ward_and_allport	1,3,0,0,0,0,2,0,0	89.0	2.0	0.572	1,2,3,0,0,0,0,0,0	to_board	s518
92.867	1.0	0	PA_with_intermediate	n/a	test	ward_and_allport	n/a	-1.0	2.0	n/a	n/a	feedback	s518
93.867	1.0	0	PA_with_intermediate	n/a	test	ward_and_allport	n/a	-1.0	2.0	n/a	n/a	ITI	s518
94.87	3.976	1	PA_without_intermediate	0,0,0,0,0,0,1,2,0	test	ward_and_allport	2,0,0,3,1,0,0,0,0	82.0	3.0	3.976	0,0,0,0,0,0,1,2,3	to_hand	s518
98.847	1.759	0	PA_without_intermediate	0,0,0,3,0,0,1,2,0	test	ward_and_allport	2,0,0,3,1,0,0,0,0	71.0	3.0	1.759	0,0,0,0,0,0,1,2,3	to_board	s518
100.609	1.808	0	PA_without_intermediate	0,0,0,3,0,0,1,0,0	test	ward_and_allport	2,0,0,3,1,0,0,0,0	82.0	3.0	1.808	0,0,0,0,0,0,1,2,3	to_hand	s518
102.418	0.838	0	PA_without_intermediate	2,0,0,3,0,0,1,0,0	test	ward_and_allport	2,0,0,3,1,0,0,0,0	89.0	3.0	0.838	0,0,0,0,0,0,1,2,3	to_board	s518
103.259	1.417	0	PA_without_intermediate	2,0,0,3,0,0,0,0,0	test	ward_and_allport	2,0,0,3,1,0,0,0,0	82.0	3.0	1.417	0,0,0,0,0,0,1,2,3	to_hand	s518
104.677	0.583	0	PA_without_intermediate	2,0,0,3,1,0,0,0,0	test	ward_and_allport	2,0,0,3,1,0,0,0,0	71.0	3.0	0.583	0,0,0,0,0,0,1,2,3	to_board	s518
105.264	1.0	0	PA_without_intermediate	n/a	test	ward_and_allport	n/a	-1.0	3.0	n/a	n/a	feedback	s518
106.264	1.408	0	PA_without_intermediate	n/a	test	ward_and_allport	n/a	-1.0	3.0	n/a	n/a	ITI	s518
107.675	3.72	1	PA_with_intermediate	0,0,0,0,0,0,1,2,0	test	ward_and_allport	2,3,0,0,0,0,1,0,0	82.0	4.0	3.72	0,0,0,0,0,0,1,2,3	to_hand	s518
111.396	0.86	0	PA_with_intermediate	0,0,0,3,0,0,1,2,0	test	ward_and_allport	2,3,0,0,0,0,1,0,0	71.0	4.0	0.86	0,0,0,0,0,0,1,2,3	to_board	s518
112.259	2.175	0	PA_with_intermediate	0,0,0,3,0,0,1,0,0	test	ward_and_allport	2,3,0,0,0,0,1,0,0	82.0	4.0	2.175	0,0,0,0,0,0,1,2,3	to_hand	s518
114.435	0.798	0	PA_with_intermediate	2,0,0,3,0,0,1,0,0	test	ward_and_allport	2,3,0,0,0,0,1,0,0	89.0	4.0	0.798	0,0,0,0,0,0,1,2,3	to_board	s518
115.236	1.058	0	PA_with_intermediate	2,0,0,0,0,0,1,0,0	test	ward_and_allport	2,3,0,0,0,0,1,0,0	71.0	4.0	1.058	0,0,0,0,0,0,1,2,3	to_hand	s518
116.294	0.529	0	PA_with_intermediate	2,3,0,0,0,0,1,0,0	test	ward_and_allport	2,3,0,0,0,0,1,0,0	89.0	4.0	0.529	0,0,0,0,0,0,1,2,3	to_board	s518
116.827	1.0	0	PA_with_intermediate	n/a	test	ward_and_allport	n/a	-1.0	4.0	n/a	n/a	feedback	s518
117.827	1.816	0	PA_with_intermediate	n/a	test	ward_and_allport	n/a	-1.0	4.0	n/a	n/a	ITI	s518
119.646	3.314	1	PA_without_intermediate	0,0,0,1,2,0,0,0,0	test	ward_and_allport	3,2,0,0,0,0,1,0,0	71.0	5.0	3.314	0,0,0,1,2,3,0,0,0	to_hand	s518
122.961	0.804	0	PA_without_intermediate	3,0,0,1,2,0,0,0,0	test	ward_and_allport	3,2,0,0,0,0,1,0,0	89.0	5.0	0.804	0,0,0,1,2,3,0,0,0	to_board	s518
123.767	0.61	0	PA_without_intermediate	3,0,0,1,0,0,0,0,0	test	ward_and_allport	3,2,0,0,0,0,1,0,0	71.0	5.0	0.61	0,0,0,1,2,3,0,0,0	to_hand	s518
124.379	0.732	0	PA_without_intermediate	3,2,0,1,0,0,0,0,0	test	ward_and_allport	3,2,0,0,0,0,1,0,0	89.0	5.0	0.732	0,0,0,1,2,3,0,0,0	to_board	s518
125.114	0.89	0	PA_without_intermediate	3,2,0,0,0,0,0,0,0	test	ward_and_allport	3,2,0,0,0,0,1,0,0	71.0	5.0	0.89	0,0,0,1,2,3,0,0,0	to_hand	s518
126.005	0.534	0	PA_without_intermediate	3,2,0,0,0,0,1,0,0	test	ward_and_allport	3,2,0,0,0,0,1,0,0	82.0	5.0	0.534	0,0,0,1,2,3,0,0,0	to_board	s518
126.543	1.0	0	PA_without_intermediate	n/a	test	ward_and_allport	n/a	-1.0	5.0	n/a	n/a	feedback	s518
127.543	2.088	0	PA_without_intermediate	n/a	test	ward_and_allport	n/a	-1.0	5.0	n/a	n/a	ITI	s518
129.634	2.516	1	PA_without_intermediate	1,2,0,0,0,0,0,0,0	test	ward_and_allport	0,0,0,1,0,0,3,2,0	89.0	6.0	2.516	1,2,3,0,0,0,0,0,0	to_hand	s518
132.15	0.759	0	PA_without_intermediate	1,2,0,0,0,0,3,0,0	test	ward_and_allport	0,0,0,1,0,0,3,2,0	82.0	6.0	0.759	1,2,3,0,0,0,0,0,0	to_board	s518
132.911	1.219	0	PA_without_intermediate	1,0,0,0,0,0,3,0,0	test	ward_and_allport	0,0,0,1,0,0,3,2,0	89.0	6.0	1.219	1,2,3,0,0,0,0,0,0	to_hand	s518
134.132	0.861	0	PA_without_intermediate	1,0,0,0,0,0,3,2,0	test	ward_and_allport	0,0,0,1,0,0,3,2,0	82.0	6.0	0.861	1,2,3,0,0,0,0,0,0	to_board	s518
134.995	1.146	0	PA_without_intermediate	0,0,0,0,0,0,3,2,0	test	ward_and_allport	0,0,0,1,0,0,3,2,0	89.0	6.0	1.146	1,2,3,0,0,0,0,0,0	to_hand	s518
136.142	0.516	0	PA_without_intermediate	0,0,0,1,0,0,3,2,0	test	ward_and_allport	0,0,0,1,0,0,3,2,0	71.0	6.0	0.516	1,2,3,0,0,0,0,0,0	to_board	s518
136.663	1.0	0	PA_without_intermediate	n/a	test	ward_and_allport	n/a	-1.0	6.0	n/a	n/a	feedback	s518
137.663	1.136	0	PA_without_intermediate	n/a	test	ward_and_allport	n/a	-1.0	6.0	n/a	n/a	ITI	s518
138.802	3.291	1	PA_without_intermediate	0,0,0,0,0,0,1,2,0	test	ward_and_allport	3,2,0,1,0,0,0,0,0	82.0	7.0	3.291	0,0,0,0,0,0,1,2,3	to_hand	s518
142.094	0.825	0	PA_without_intermediate	3,0,0,0,0,0,1,2,0	test	ward_and_allport	3,2,0,1,0,0,0,0,0	89.0	7.0	0.825	0,0,0,0,0,0,1,2,3	to_board	s518
142.922	1.001	0	PA_without_intermediate	3,0,0,0,0,0,1,0,0	test	ward_and_allport	3,2,0,1,0,0,0,0,0	82.0	7.0	1.001	0,0,0,0,0,0,1,2,3	to_hand	s518
143.923	0.616	0	PA_without_intermediate	3,2,0,0,0,0,1,0,0	test	ward_and_allport	3,2,0,1,0,0,0,0,0	89.0	7.0	0.616	0,0,0,0,0,0,1,2,3	to_board	s518
144.543	2.337	0	PA_without_intermediate	3,2,0,0,0,0,0,0,0	test	ward_and_allport	3,2,0,1,0,0,0,0,0	82.0	7.0	2.337	0,0,0,0,0,0,1,2,3	to_hand	s518
146.882	0.737	0	PA_without_intermediate	3,2,0,1,0,0,0,0,0	test	ward_and_allport	3,2,0,1,0,0,0,0,0	71.0	7.0	0.737	0,0,0,0,0,0,1,2,3	to_board	s518
147.623	1.0	0	PA_without_intermediate	n/a	test	ward_and_allport	n/a	-1.0	7.0	n/a	n/a	feedback	s518
148.623	6.168	0	PA_without_intermediate	n/a	test	ward_and_allport	n/a	-1.0	7.0	n/a	n/a	ITI	s518
154.793	3.124	1	PA_without_intermediate	0,0,0,0,0,0,1,2,0	test	ward_and_allport	1,0,0,3,2,0,0,0,0	82.0	8.0	3.124	0,0,0,0,0,0,1,2,3	to_hand	s518
157.919	1.322	0	PA_without_intermediate	0,0,0,3,0,0,1,2,0	test	ward_and_allport	1,0,0,3,2,0,0,0,0	71.0	8.0	1.322	0,0,0,0,0,0,1,2,3	to_board	s518
159.243	0.717	0	PA_without_intermediate	0,0,0,3,0,0,1,0,0	test	ward_and_allport	1,0,0,3,2,0,0,0,0	82.0	8.0	0.717	0,0,0,0,0,0,1,2,3	to_hand	s518
159.962	0.988	0	PA_without_intermediate	0,0,0,3,2,0,1,0,0	test	ward_and_allport	1,0,0,3,2,0,0,0,0	71.0	8.0	0.988	0,0,0,0,0,0,1,2,3	to_board	s518
160.953	0.861	0	PA_without_intermediate	0,0,0,3,2,0,0,0,0	test	ward_and_allport	1,0,0,3,2,0,0,0,0	82.0	8.0	0.861	0,0,0,0,0,0,1,2,3	to_hand	s518
161.814	0.565	0	PA_without_intermediate	1,0,0,3,2,0,0,0,0	test	ward_and_allport	1,0,0,3,2,0,0,0,0	89.0	8.0	0.565	0,0,0,0,0,0,1,2,3	to_board	s518
162.385	1.0	0	PA_without_intermediate	n/a	test	ward_and_allport	n/a	-1.0	8.0	n/a	n/a	feedback	s518
163.385	1.816	0	PA_without_intermediate	n/a	test	ward_and_allport	n/a	-1.0	8.0	n/a	n/a	ITI	s518
165.204	5.195	1	PA_with_intermediate	1,2,0,0,0,0,0,0,0	test	ward_and_allport	1,3,0,0,0,0,2,0,0	89.0	9.0	5.195	1,2,3,0,0,0,0,0,0	to_hand	s518
170.4	0.457	0	PA_with_intermediate	1,2,0,3,0,0,0,0,0	test	ward_and_allport	1,3,0,0,0,0,2,0,0	71.0	9.0	0.457	1,2,3,0,0,0,0,0,0	to_board	s518
170.861	0.771	0	PA_with_intermediate	1,0,0,3,0,0,0,0,0	test	ward_and_allport	1,3,0,0,0,0,2,0,0	89.0	9.0	0.771	1,2,3,0,0,0,0,0,0	to_hand	s518
171.632	0.85	0	PA_with_intermediate	1,0,0,3,0,0,2,0,0	test	ward_and_allport	1,3,0,0,0,0,2,0,0	82.0	9.0	0.85	1,2,3,0,0,0,0,0,0	to_board	s518
172.487	1.475	0	PA_with_intermediate	1,0,0,0,0,0,2,0,0	test	ward_and_allport	1,3,0,0,0,0,2,0,0	71.0	9.0	1.475	1,2,3,0,0,0,0,0,0	to_hand	s518
173.963	0.517	0	PA_with_intermediate	1,3,0,0,0,0,2,0,0	test	ward_and_allport	1,3,0,0,0,0,2,0,0	89.0	9.0	0.517	1,2,3,0,0,0,0,0,0	to_board	s518
174.485	1.0	0	PA_with_intermediate	n/a	test	ward_and_allport	n/a	-1.0	9.0	n/a	n/a	feedback	s518
175.485	1.952	0	PA_with_intermediate	n/a	test	ward_and_allport	n/a	-1.0	9.0	n/a	n/a	ITI	s518
177.44	2.746	1	PA_with_intermediate	1,2,0,0,0,0,0,0,0	test	ward_and_allport	1,0,0,2,3,0,0,0,0	89.0	10.0	2.746	1,2,3,0,0,0,0,0,0	to_hand	s518
180.187	1.735	0	PA_with_intermediate	1,2,0,0,0,0,3,0,0	test	ward_and_allport	1,0,0,2,3,0,0,0,0	82.0	10.0	1.735	1,2,3,0,0,0,0,0,0	to_board	s518
181.926	0.707	0	PA_with_intermediate	1,0,0,0,0,0,3,0,0	test	ward_and_allport	1,0,0,2,3,0,0,0,0	89.0	10.0	0.707	1,2,3,0,0,0,0,0,0	to_hand	s518
182.634	0.583	0	PA_with_intermediate	1,0,0,2,0,0,3,0,0	test	ward_and_allport	1,0,0,2,3,0,0,0,0	71.0	10.0	0.583	1,2,3,0,0,0,0,0,0	to_board	s518
183.221	1.447	0	PA_with_intermediate	1,0,0,2,0,0,0,0,0	test	ward_and_allport	1,0,0,2,3,0,0,0,0	82.0	10.0	1.447	1,2,3,0,0,0,0,0,0	to_hand	s518
184.669	0.908	0	PA_with_intermediate	1,0,0,2,3,0,0,0,0	test	ward_and_allport	1,0,0,2,3,0,0,0,0	71.0	10.0	0.908	1,2,3,0,0,0,0,0,0	to_board	s518
185.583	1.0	0	PA_with_intermediate	n/a	test	ward_and_allport	n/a	-1.0	10.0	n/a	n/a	feedback	s518
186.583	1.136	0	PA_with_intermediate	n/a	test	ward_and_allport	n/a	-1.0	10.0	n/a	n/a	ITI	s518
187.723	2.476	1	PA_without_intermediate	0,0,0,1,2,0,0,0,0	test	ward_and_allport	1,0,0,0,0,0,3,2,0	71.0	11.0	2.476	0,0,0,1,2,3,0,0,0	to_hand	s518
190.201	1.317	0	PA_without_intermediate	0,0,0,1,2,0,3,0,0	test	ward_and_allport	1,0,0,0,0,0,3,2,0	82.0	11.0	1.317	0,0,0,1,2,3,0,0,0	to_board	s518
191.523	0.758	0	PA_without_intermediate	0,0,0,1,0,0,3,0,0	test	ward_and_allport	1,0,0,0,0,0,3,2,0	71.0	11.0	0.758	0,0,0,1,2,3,0,0,0	to_hand	s518
192.283	0.505	0	PA_without_intermediate	0,0,0,1,0,0,3,2,0	test	ward_and_allport	1,0,0,0,0,0,3,2,0	82.0	11.0	0.505	0,0,0,1,2,3,0,0,0	to_board	s518
192.792	0.573	0	PA_without_intermediate	0,0,0,0,0,0,3,2,0	test	ward_and_allport	1,0,0,0,0,0,3,2,0	71.0	11.0	0.573	0,0,0,1,2,3,0,0,0	to_hand	s518
193.366	0.457	0	PA_without_intermediate	1,0,0,0,0,0,3,2,0	test	ward_and_allport	1,0,0,0,0,0,3,2,0	89.0	11.0	0.457	0,0,0,1,2,3,0,0,0	to_board	s518
193.828	1.0	0	PA_without_intermediate	n/a	test	ward_and_allport	n/a	-1.0	11.0	n/a	n/a	feedback	s518
194.828	1.68	0	PA_without_intermediate	n/a	test	ward_and_allport	n/a	-1.0	11.0	n/a	n/a	ITI	s518
196.512	2.347	1	PA_without_intermediate	1,2,0,0,0,0,0,0,0	test	ward_and_allport	0,0,0,3,2,0,1,0,0	89.0	12.0	2.347	1,2,3,0,0,0,0,0,0	to_hand	s518
198.859	0.701	0	PA_without_intermediate	1,2,0,3,0,0,0,0,0	test	ward_and_allport	0,0,0,3,2,0,1,0,0	71.0	12.0	0.701	1,2,3,0,0,0,0,0,0	to_board	s518
199.565	0.719	0	PA_without_intermediate	1,0,0,3,0,0,0,0,0	test	ward_and_allport	0,0,0,3,2,0,1,0,0	89.0	12.0	0.719	1,2,3,0,0,0,0,0,0	to_hand	s518
200.284	0.461	0	PA_without_intermediate	1,0,0,3,2,0,0,0,0	test	ward_and_allport	0,0,0,3,2,0,1,0,0	71.0	12.0	0.461	1,2,3,0,0,0,0,0,0	to_board	s518
200.749	0.648	0	PA_without_intermediate	0,0,0,3,2,0,0,0,0	test	ward_and_allport	0,0,0,3,2,0,1,0,0	89.0	12.0	0.648	1,2,3,0,0,0,0,0,0	to_hand	s518
201.398	0.573	0	PA_without_intermediate	0,0,0,3,2,0,1,0,0	test	ward_and_allport	0,0,0,3,2,0,1,0,0	82.0	12.0	0.573	1,2,3,0,0,0,0,0,0	to_board	s518
201.977	1.0	0	PA_without_intermediate	n/a	test	ward_and_allport	n/a	-1.0	12.0	n/a	n/a	feedback	s518
202.977	2.088	0	PA_without_intermediate	n/a	test	ward_and_allport	n/a	-1.0	12.0	n/a	n/a	ITI	s518
205.07	5.083	1	PA_with_intermediate	0,0,0,0,0,0,1,2,0	test	ward_and_allport	0,0,0,2,0,0,1,3,0	82.0	13.0	5.083	0,0,0,0,0,0,1,2,3	to_hand	s518
210.154	0.613	0	PA_with_intermediate	3,0,0,0,0,0,1,2,0	test	ward_and_allport	0,0,0,2,0,0,1,3,0	89.0	13.0	0.613	0,0,0,0,0,0,1,2,3	to_board	s518
210.771	1.345	0	PA_with_intermediate	3,0,0,0,0,0,1,0,0	test	ward_and_allport	0,0,0,2,0,0,1,3,0	82.0	13.0	1.345	0,0,0,0,0,0,1,2,3	to_hand	s518
212.117	0.58	0	PA_with_intermediate	3,0,0,2,0,0,1,0,0	test	ward_and_allport	0,0,0,2,0,0,1,3,0	71.0	13.0	0.58	0,0,0,0,0,0,1,2,3	to_board	s518
212.702	0.954	0	PA_with_intermediate	0,0,0,2,0,0,1,0,0	test	ward_and_allport	0,0,0,2,0,0,1,3,0	89.0	13.0	0.954	0,0,0,0,0,0,1,2,3	to_hand	s518
213.657	0.618	0	PA_with_intermediate	0,0,0,2,0,0,1,3,0	test	ward_and_allport	0,0,0,2,0,0,1,3,0	82.0	13.0	0.618	0,0,0,0,0,0,1,2,3	to_board	s518
214.281	1.0	0	PA_with_intermediate	n/a	test	ward_and_allport	n/a	-1.0	13.0	n/a	n/a	feedback	s518
215.281	1.0	0	PA_with_intermediate	n/a	test	ward_and_allport	n/a	-1.0	13.0	n/a	n/a	ITI	s518
216.284	3.945	1	PA_without_intermediate	0,0,0,0,0,0,1,2,0	test	ward_and_allport	1,0,0,3,2,0,0,0,0	82.0	14.0	3.945	0,0,0,0,0,0,1,2,3	to_hand	s518
220.231	0.863	0	PA_without_intermediate	0,0,0,3,0,0,1,2,0	test	ward_and_allport	1,0,0,3,2,0,0,0,0	71.0	14.0	0.863	0,0,0,0,0,0,1,2,3	to_board	s518
221.098	0.687	0	PA_without_intermediate	0,0,0,3,0,0,1,0,0	test	ward_and_allport	1,0,0,3,2,0,0,0,0	82.0	14.0	0.687	0,0,0,0,0,0,1,2,3	to_hand	s518
221.785	0.971	0	PA_without_intermediate	0,0,0,3,2,0,1,0,0	test	ward_and_allport	1,0,0,3,2,0,0,0,0	71.0	14.0	0.971	0,0,0,0,0,0,1,2,3	to_board	s518
222.76	0.72	0	PA_without_intermediate	0,0,0,3,2,0,0,0,0	test	ward_and_allport	1,0,0,3,2,0,0,0,0	82.0	14.0	0.72	0,0,0,0,0,0,1,2,3	to_hand	s518
223.481	0.721	0	PA_without_intermediate	1,0,0,3,2,0,0,0,0	test	ward_and_allport	1,0,0,3,2,0,0,0,0	89.0	14.0	0.721	0,0,0,0,0,0,1,2,3	to_board	s518
224.207	1.0	0	PA_without_intermediate	n/a	test	ward_and_allport	n/a	-1.0	14.0	n/a	n/a	feedback	s518
225.207	1.0	0	PA_without_intermediate	n/a	test	ward_and_allport	n/a	-1.0	14.0	n/a	n/a	ITI	s518
231.214	3.119	1	PA_without_intermediate	0,0,0,0,0,0,1,2,0	test	ward_and_allport	3,1,0,2,0,0,0,0,0	82.0	15.0	3.119	0,0,0,0,0,0,1,2,3	to_hand	s518
234.333	1.278	0	PA_without_intermediate	3,0,0,0,0,0,1,2,0	test	ward_and_allport	3,1,0,2,0,0,0,0,0	89.0	15.0	1.278	0,0,0,0,0,0,1,2,3	to_board	s518
235.616	2.919	0	PA_without_intermediate	3,0,0,0,0,0,1,0,0	test	ward_and_allport	3,1,0,2,0,0,0,0,0	82.0	15.0	2.919	0,0,0,0,0,0,1,2,3	to_hand	s518
238.536	0.511	0	PA_without_intermediate	3,0,0,2,0,0,1,0,0	test	ward_and_allport	3,1,0,2,0,0,0,0,0	71.0	15.0	0.511	0,0,0,0,0,0,1,2,3	to_board	s518
239.052	1.441	0	PA_without_intermediate	3,0,0,2,0,0,0,0,0	test	ward_and_allport	3,1,0,2,0,0,0,0,0	82.0	15.0	1.441	0,0,0,0,0,0,1,2,3	to_hand	s518
240.494	1.125	0	PA_without_intermediate	3,1,0,2,0,0,0,0,0	test	ward_and_allport	3,1,0,2,0,0,0,0,0	89.0	15.0	1.125	0,0,0,0,0,0,1,2,3	to_board	s518
241.625	1.0	0	PA_without_intermediate	n/a	test	ward_and_allport	n/a	-1.0	15.0	n/a	n/a	feedback	s518
242.625	1.0	0	PA_without_intermediate	n/a	test	ward_and_allport	n/a	-1.0	15.0	n/a	n/a	ITI	s518
243.629	3.76	1	PA_with_intermediate	1,2,0,0,0,0,0,0,0	test	ward_and_allport	1,3,0,2,0,0,0,0,0	89.0	16.0	3.76	1,2,3,0,0,0,0,0,0	to_hand	s518
247.389	1.156	0	PA_with_intermediate	1,2,0,0,0,0,3,0,0	test	ward_and_allport	1,3,0,2,0,0,0,0,0	82.0	16.0	1.156	1,2,3,0,0,0,0,0,0	to_board	s518
248.549	0.702	0	PA_with_intermediate	1,0,0,0,0,0,3,0,0	test	ward_and_allport	1,3,0,2,0,0,0,0,0	89.0	16.0	0.702	1,2,3,0,0,0,0,0,0	to_hand	s518
249.251	0.516	0	PA_with_intermediate	1,0,0,2,0,0,3,0,0	test	ward_and_allport	1,3,0,2,0,0,0,0,0	71.0	16.0	0.516	1,2,3,0,0,0,0,0,0	to_board	s518
249.772	1.097	0	PA_with_intermediate	1,0,0,2,0,0,0,0,0	test	ward_and_allport	1,3,0,2,0,0,0,0,0	82.0	16.0	1.097	1,2,3,0,0,0,0,0,0	to_hand	s518
250.869	0.562	0	PA_with_intermediate	1,3,0,2,0,0,0,0,0	test	ward_and_allport	1,3,0,2,0,0,0,0,0	89.0	16.0	0.562	1,2,3,0,0,0,0,0,0	to_board	s518
251.437	1.0	0	PA_with_intermediate	n/a	test	ward_and_allport	n/a	-1.0	16.0	n/a	n/a	feedback	s518
252.437	1.544	0	PA_with_intermediate	n/a	test	ward_and_allport	n/a	-1.0	16.0	n/a	n/a	ITI	s518
253.985	1.811	1	PA_without_intermediate	1,2,0,0,0,0,0,0,0	test	ward_and_allport	0,0,0,1,0,0,3,2,0	89.0	17.0	1.811	1,2,3,0,0,0,0,0,0	to_hand	s518
255.798	0.863	0	PA_without_intermediate	1,2,0,0,0,0,3,0,0	test	ward_and_allport	0,0,0,1,0,0,3,2,0	82.0	17.0	0.863	1,2,3,0,0,0,0,0,0	to_board	s518
256.666	0.777	0	PA_without_intermediate	1,0,0,0,0,0,3,0,0	test	ward_and_allport	0,0,0,1,0,0,3,2,0	89.0	17.0	0.777	1,2,3,0,0,0,0,0,0	to_hand	s518
257.444	0.961	0	PA_without_intermediate	1,0,0,0,0,0,3,2,0	test	ward_and_allport	0,0,0,1,0,0,3,2,0	82.0	17.0	0.961	1,2,3,0,0,0,0,0,0	to_board	s518
258.411	0.765	0	PA_without_intermediate	0,0,0,0,0,0,3,2,0	test	ward_and_allport	0,0,0,1,0,0,3,2,0	89.0	17.0	0.765	1,2,3,0,0,0,0,0,0	to_hand	s518
259.177	0.541	0	PA_without_intermediate	0,0,0,1,0,0,3,2,0	test	ward_and_allport	0,0,0,1,0,0,3,2,0	71.0	17.0	0.541	1,2,3,0,0,0,0,0,0	to_board	s518
259.723	1.0	0	PA_without_intermediate	n/a	test	ward_and_allport	n/a	-1.0	17.0	n/a	n/a	feedback	s518
260.723	1.272	0	PA_without_intermediate	n/a	test	ward_and_allport	n/a	-1.0	17.0	n/a	n/a	ITI	s518
262.0	4.002	1	PA_with_intermediate	0,0,0,0,0,0,1,2,0	test	ward_and_allport	2,3,0,0,0,0,1,0,0	82.0	18.0	4.002	0,0,0,0,0,0,1,2,3	to_hand	s518
266.003	0.73	0	PA_with_intermediate	0,0,0,3,0,0,1,2,0	test	ward_and_allport	2,3,0,0,0,0,1,0,0	71.0	18.0	0.73	0,0,0,0,0,0,1,2,3	to_board	s518
266.739	2.058	0	PA_with_intermediate	0,0,0,3,0,0,1,0,0	test	ward_and_allport	2,3,0,0,0,0,1,0,0	82.0	18.0	2.058	0,0,0,0,0,0,1,2,3	to_hand	s518
268.799	0.754	0	PA_with_intermediate	2,0,0,3,0,0,1,0,0	test	ward_and_allport	2,3,0,0,0,0,1,0,0	89.0	18.0	0.754	0,0,0,0,0,0,1,2,3	to_board	s518
269.556	1.127	0	PA_with_intermediate	2,0,0,0,0,0,1,0,0	test	ward_and_allport	2,3,0,0,0,0,1,0,0	71.0	18.0	1.127	0,0,0,0,0,0,1,2,3	to_hand	s518
270.684	0.459	0	PA_with_intermediate	2,3,0,0,0,0,1,0,0	test	ward_and_allport	2,3,0,0,0,0,1,0,0	89.0	18.0	0.459	0,0,0,0,0,0,1,2,3	to_board	s518
271.149	1.0	0	PA_with_intermediate	n/a	test	ward_and_allport	n/a	-1.0	18.0	n/a	n/a	feedback	s518
272.149	3.04	0	PA_with_intermediate	n/a	test	ward_and_allport	n/a	-1.0	18.0	n/a	n/a	ITI	s518
275.194	4.62	1	PA_with_intermediate	0,0,0,1,2,0,0,0,0	test	ward_and_allport	0,0,0,1,0,0,2,3,0	71.0	19.0	4.62	0,0,0,1,2,3,0,0,0	to_hand	s518
279.815	0.576	0	PA_with_intermediate	3,0,0,1,2,0,0,0,0	test	ward_and_allport	0,0,0,1,0,0,2,3,0	89.0	19.0	0.576	0,0,0,1,2,3,0,0,0	to_board	s518
280.395	0.695	0	PA_with_intermediate	3,0,0,1,0,0,0,0,0	test	ward_and_allport	0,0,0,1,0,0,2,3,0	71.0	19.0	0.695	0,0,0,1,2,3,0,0,0	to_hand	s518
281.091	0.581	0	PA_with_intermediate	3,0,0,1,0,0,2,0,0	test	ward_and_allport	0,0,0,1,0,0,2,3,0	82.0	19.0	0.581	0,0,0,1,2,3,0,0,0	to_board	s518
281.677	1.33	0	PA_with_intermediate	0,0,0,1,0,0,2,0,0	test	ward_and_allport	0,0,0,1,0,0,2,3,0	89.0	19.0	1.33	0,0,0,1,2,3,0,0,0	to_hand	s518
283.008	0.757	0	PA_with_intermediate	0,0,0,1,0,0,2,3,0	test	ward_and_allport	0,0,0,1,0,0,2,3,0	82.0	19.0	0.757	0,0,0,1,2,3,0,0,0	to_board	s518
283.772	1.0	0	PA_with_intermediate	n/a	test	ward_and_allport	n/a	-1.0	19.0	n/a	n/a	feedback	s518
284.772	1.272	0	PA_with_intermediate	n/a	test	ward_and_allport	n/a	-1.0	19.0	n/a	n/a	ITI	s518
286.049	3.352	1	PA_with_intermediate	0,0,0,0,0,0,1,2,0	test	ward_and_allport	2,0,0,0,0,0,1,3,0	82.0	20.0	3.352	0,0,0,0,0,0,1,2,3	to_hand	s518
289.402	1.359	0	PA_with_intermediate	0,0,0,3,0,0,1,2,0	test	ward_and_allport	2,0,0,0,0,0,1,3,0	71.0	20.0	1.359	0,0,0,0,0,0,1,2,3	to_board	s518
290.766	0.957	0	PA_with_intermediate	0,0,0,3,0,0,1,0,0	test	ward_and_allport	2,0,0,0,0,0,1,3,0	82.0	20.0	0.957	0,0,0,0,0,0,1,2,3	to_hand	s518
291.724	0.643	0	PA_with_intermediate	2,0,0,3,0,0,1,0,0	test	ward_and_allport	2,0,0,0,0,0,1,3,0	89.0	20.0	0.643	0,0,0,0,0,0,1,2,3	to_board	s518
292.371	0.783	0	PA_with_intermediate	2,0,0,0,0,0,1,0,0	test	ward_and_allport	2,0,0,0,0,0,1,3,0	71.0	20.0	0.783	0,0,0,0,0,0,1,2,3	to_hand	s518
293.155	0.535	0	PA_with_intermediate	2,3,0,0,0,0,1,0,0	test	ward_and_allport	2,0,0,0,0,0,1,3,0	89.0	20.0	0.535	0,0,0,0,0,0,1,2,3	to_board	s518
293.696	3.693	0	PA_with_intermediate	2,0,0,0,0,0,1,0,0	test	ward_and_allport	2,0,0,0,0,0,1,3,0	89.0	20.0	3.693	0,0,0,0,0,0,1,2,3	to_hand	s518
297.389	0.658	0	PA_with_intermediate	2,0,0,0,0,0,1,3,0	test	ward_and_allport	2,0,0,0,0,0,1,3,0	82.0	20.0	0.658	0,0,0,0,0,0,1,2,3	to_board	s518
298.053	1.0	0	PA_with_intermediate	n/a	test	ward_and_allport	n/a	-1.0	20.0	n/a	n/a	feedback	s518
299.053	1.136	0	PA_with_intermediate	n/a	test	ward_and_allport	n/a	-1.0	20.0	n/a	n/a	ITI	s518
300.195	3.374	1	PA_with_intermediate	1,2,0,0,0,0,0,0,0	test	ward_and_allport	1,3,0,2,0,0,0,0,0	89.0	21.0	3.374	1,2,3,0,0,0,0,0,0	to_hand	s518
303.569	0.744	0	PA_with_intermediate	1,2,0,0,0,0,3,0,0	test	ward_and_allport	1,3,0,2,0,0,0,0,0	82.0	21.0	0.744	1,2,3,0,0,0,0,0,0	to_board	s518
304.319	0.862	0	PA_with_intermediate	1,0,0,0,0,0,3,0,0	test	ward_and_allport	1,3,0,2,0,0,0,0,0	89.0	21.0	0.862	1,2,3,0,0,0,0,0,0	to_hand	s518
305.182	0.53	0	PA_with_intermediate	1,0,0,2,0,0,3,0,0	test	ward_and_allport	1,3,0,2,0,0,0,0,0	71.0	21.0	0.53	1,2,3,0,0,0,0,0,0	to_board	s518
305.717	1.202	0	PA_with_intermediate	1,0,0,2,0,0,0,0,0	test	ward_and_allport	1,3,0,2,0,0,0,0,0	82.0	21.0	1.202	1,2,3,0,0,0,0,0,0	to_hand	s518
306.921	0.487	0	PA_with_intermediate	1,3,0,2,0,0,0,0,0	test	ward_and_allport	1,3,0,2,0,0,0,0,0	89.0	21.0	0.487	1,2,3,0,0,0,0,0,0	to_board	s518
307.415	1.0	0	PA_with_intermediate	n/a	test	ward_and_allport	n/a	-1.0	21.0	n/a	n/a	feedback	s518
308.415	1.0	0	PA_with_intermediate	n/a	test	ward_and_allport	n/a	-1.0	21.0	n/a	n/a	ITI	s518
309.42	3.935	1	PA_with_intermediate	0,0,0,1,2,0,0,0,0	test	ward_and_allport	2,3,0,1,0,0,0,0,0	71.0	22.0	3.935	0,0,0,1,2,3,0,0,0	to_hand	s518
313.357	1.049	0	PA_with_intermediate	0,0,0,1,2,0,3,0,0	test	ward_and_allport	2,3,0,1,0,0,0,0,0	82.0	22.0	1.049	0,0,0,1,2,3,0,0,0	to_board	s518
314.411	0.558	0	PA_with_intermediate	0,0,0,1,0,0,3,0,0	test	ward_and_allport	2,3,0,1,0,0,0,0,0	71.0	22.0	0.558	0,0,0,1,2,3,0,0,0	to_hand	s518
314.97	0.973	0	PA_with_intermediate	2,0,0,1,0,0,3,0,0	test	ward_and_allport	2,3,0,1,0,0,0,0,0	89.0	22.0	0.973	0,0,0,1,2,3,0,0,0	to_board	s518
315.949	1.278	0	PA_with_intermediate	2,0,0,1,0,0,0,0,0	test	ward_and_allport	2,3,0,1,0,0,0,0,0	82.0	22.0	1.278	0,0,0,1,2,3,0,0,0	to_hand	s518
317.228	1.112	0	PA_with_intermediate	2,3,0,1,0,0,0,0,0	test	ward_and_allport	2,3,0,1,0,0,0,0,0	89.0	22.0	1.112	0,0,0,1,2,3,0,0,0	to_board	s518
318.347	1.0	0	PA_with_intermediate	n/a	test	ward_and_allport	n/a	-1.0	22.0	n/a	n/a	feedback	s518
319.347	1.0	0	PA_with_intermediate	n/a	test	ward_and_allport	n/a	-1.0	22.0	n/a	n/a	ITI	s518
320.352	2.767	1	PA_without_intermediate	0,0,0,1,2,0,0,0,0	test	ward_and_allport	2,0,0,0,0,0,3,1,0	71.0	23.0	2.767	0,0,0,1,2,3,0,0,0	to_hand	s518
323.12	0.602	0	PA_without_intermediate	0,0,0,1,2,0,3,0,0	test	ward_and_allport	2,0,0,0,0,0,3,1,0	82.0	23.0	0.602	0,0,0,1,2,3,0,0,0	to_board	s518
323.728	0.947	0	PA_without_intermediate	0,0,0,1,0,0,3,0,0	test	ward_and_allport	2,0,0,0,0,0,3,1,0	71.0	23.0	0.947	0,0,0,1,2,3,0,0,0	to_hand	s518
324.676	0.592	0	PA_without_intermediate	2,0,0,1,0,0,3,0,0	test	ward_and_allport	2,0,0,0,0,0,3,1,0	89.0	23.0	0.592	0,0,0,1,2,3,0,0,0	to_board	s518
325.273	1.008	0	PA_without_intermediate	2,0,0,0,0,0,3,0,0	test	ward_and_allport	2,0,0,0,0,0,3,1,0	71.0	23.0	1.008	0,0,0,1,2,3,0,0,0	to_hand	s518
326.283	0.511	0	PA_without_intermediate	2,0,0,0,0,0,3,1,0	test	ward_and_allport	2,0,0,0,0,0,3,1,0	82.0	23.0	0.511	0,0,0,1,2,3,0,0,0	to_board	s518
326.801	1.0	0	PA_without_intermediate	n/a	test	ward_and_allport	n/a	-1.0	23.0	n/a	n/a	feedback	s518
327.801	1.408	0	PA_without_intermediate	n/a	test	ward_and_allport	n/a	-1.0	23.0	n/a	n/a	ITI	s518
329.215	2.246	1	PA_with_intermediate	0,0,0,1,2,0,0,0,0	test	ward_and_allport	0,0,0,1,3,0,2,0,0	71.0	24.0	2.246	0,0,0,1,2,3,0,0,0	to_hand	s518
331.462	2.014	0	PA_with_intermediate	3,0,0,1,2,0,0,0,0	test	ward_and_allport	0,0,0,1,3,0,2,0,0	89.0	24.0	2.014	0,0,0,1,2,3,0,0,0	to_board	s518
333.482	0.534	0	PA_with_intermediate	3,0,0,1,0,0,0,0,0	test	ward_and_allport	0,0,0,1,3,0,2,0,0	71.0	24.0	0.534	0,0,0,1,2,3,0,0,0	to_hand	s518
334.017	0.496	0	PA_with_intermediate	3,0,0,1,0,0,2,0,0	test	ward_and_allport	0,0,0,1,3,0,2,0,0	82.0	24.0	0.496	0,0,0,1,2,3,0,0,0	to_board	s518
334.519	0.92	0	PA_with_intermediate	0,0,0,1,0,0,2,0,0	test	ward_and_allport	0,0,0,1,3,0,2,0,0	89.0	24.0	0.92	0,0,0,1,2,3,0,0,0	to_hand	s518
335.44	0.467	0	PA_with_intermediate	0,0,0,1,3,0,2,0,0	test	ward_and_allport	0,0,0,1,3,0,2,0,0	71.0	24.0	0.467	0,0,0,1,2,3,0,0,0	to_board	s518
335.915	1.0	0	PA_with_intermediate	n/a	test	ward_and_allport	n/a	-1.0	24.0	n/a	n/a	feedback	s518
336.915	2.768	0	PA_with_intermediate	n/a	test	ward_and_allport	n/a	-1.0	24.0	n/a	n/a	ITI	s518
339.69	2.651	1	PA_with_intermediate	0,0,0,1,2,0,0,0,0	test	ward_and_allport	0,0,0,1,0,0,2,3,0	71.0	25.0	2.651	0,0,0,1,2,3,0,0,0	to_hand	s518
342.341	1.044	0	PA_with_intermediate	3,0,0,1,2,0,0,0,0	test	ward_and_allport	0,0,0,1,0,0,2,3,0	89.0	25.0	1.044	0,0,0,1,2,3,0,0,0	to_board	s518
343.391	0.416	0	PA_with_intermediate	3,0,0,1,0,0,0,0,0	test	ward_and_allport	0,0,0,1,0,0,2,3,0	71.0	25.0	0.416	0,0,0,1,2,3,0,0,0	to_hand	s518
343.808	0.456	0	PA_with_intermediate	3,0,0,1,0,0,2,0,0	test	ward_and_allport	0,0,0,1,0,0,2,3,0	82.0	25.0	0.456	0,0,0,1,2,3,0,0,0	to_board	s518
344.27	1.529	0	PA_with_intermediate	0,0,0,1,0,0,2,0,0	test	ward_and_allport	0,0,0,1,0,0,2,3,0	89.0	25.0	1.529	0,0,0,1,2,3,0,0,0	to_hand	s518
345.8	0.856	0	PA_with_intermediate	0,0,0,1,0,0,2,3,0	test	ward_and_allport	0,0,0,1,0,0,2,3,0	82.0	25.0	0.856	0,0,0,1,2,3,0,0,0	to_board	s518
346.663	1.0	0	PA_with_intermediate	n/a	test	ward_and_allport	n/a	-1.0	25.0	n/a	n/a	feedback	s518
347.663	1.68	0	PA_with_intermediate	n/a	test	ward_and_allport	n/a	-1.0	25.0	n/a	n/a	ITI	s518
349.35	3.929	1	PA_without_intermediate	0,0,0,0,0,0,1,2,0	test	ward_and_allport	2,0,0,3,1,0,0,0,0	82.0	26.0	3.929	0,0,0,0,0,0,1,2,3	to_hand	s518
353.28	0.481	0	PA_without_intermediate	0,0,0,3,0,0,1,2,0	test	ward_and_allport	2,0,0,3,1,0,0,0,0	71.0	26.0	0.481	0,0,0,0,0,0,1,2,3	to_board	s518
353.767	3.733	0	PA_without_intermediate	0,0,0,3,0,0,1,0,0	test	ward_and_allport	2,0,0,3,1,0,0,0,0	82.0	26.0	3.733	0,0,0,0,0,0,1,2,3	to_hand	s518
357.501	0.818	0	PA_without_intermediate	2,0,0,3,0,0,1,0,0	test	ward_and_allport	2,0,0,3,1,0,0,0,0	89.0	26.0	0.818	0,0,0,0,0,0,1,2,3	to_board	s518
358.326	1.523	0	PA_without_intermediate	2,0,0,3,0,0,0,0,0	test	ward_and_allport	2,0,0,3,1,0,0,0,0	82.0	26.0	1.523	0,0,0,0,0,0,1,2,3	to_hand	s518
359.849	0.578	0	PA_without_intermediate	2,0,0,3,1,0,0,0,0	test	ward_and_allport	2,0,0,3,1,0,0,0,0	71.0	26.0	0.578	0,0,0,0,0,0,1,2,3	to_board	s518
360.434	1.0	0	PA_without_intermediate	n/a	test	ward_and_allport	n/a	-1.0	26.0	n/a	n/a	feedback	s518
361.434	2.224	0	PA_without_intermediate	n/a	test	ward_and_allport	n/a	-1.0	26.0	n/a	n/a	ITI	s518
363.664	3.251	1	PA_without_intermediate	0,0,0,0,0,0,1,2,0	test	ward_and_allport	3,2,0,1,0,0,0,0,0	82.0	27.0	3.251	0,0,0,0,0,0,1,2,3	to_hand	s518
366.916	0.471	0	PA_without_intermediate	3,0,0,0,0,0,1,2,0	test	ward_and_allport	3,2,0,1,0,0,0,0,0	89.0	27.0	0.471	0,0,0,0,0,0,1,2,3	to_board	s518
367.393	0.651	0	PA_without_intermediate	3,0,0,0,0,0,1,0,0	test	ward_and_allport	3,2,0,1,0,0,0,0,0	82.0	27.0	0.651	0,0,0,0,0,0,1,2,3	to_hand	s518
368.044	0.585	0	PA_without_intermediate	3,2,0,0,0,0,1,0,0	test	ward_and_allport	3,2,0,1,0,0,0,0,0	89.0	27.0	0.585	0,0,0,0,0,0,1,2,3	to_board	s518
368.635	1.14	0	PA_without_intermediate	3,2,0,0,0,0,0,0,0	test	ward_and_allport	3,2,0,1,0,0,0,0,0	82.0	27.0	1.14	0,0,0,0,0,0,1,2,3	to_hand	s518
369.777	0.555	0	PA_without_intermediate	3,2,0,1,0,0,0,0,0	test	ward_and_allport	3,2,0,1,0,0,0,0,0	71.0	27.0	0.555	0,0,0,0,0,0,1,2,3	to_board	s518
370.34	1.0	0	PA_without_intermediate	n/a	test	ward_and_allport	n/a	-1.0	27.0	n/a	n/a	feedback	s518
371.34	2.36	0	PA_without_intermediate	n/a	test	ward_and_allport	n/a	-1.0	27.0	n/a	n/a	ITI	s518
373.706	2.034	1	PA_without_intermediate	1,2,0,0,0,0,0,0,0	test	ward_and_allport	0,0,0,3,1,0,2,0,0	89.0	28.0	2.034	1,2,3,0,0,0,0,0,0	to_hand	s518
375.741	0.599	0	PA_without_intermediate	1,2,0,3,0,0,0,0,0	test	ward_and_allport	0,0,0,3,1,0,2,0,0	71.0	28.0	0.599	1,2,3,0,0,0,0,0,0	to_board	s518
376.347	1.259	0	PA_without_intermediate	1,0,0,3,0,0,0,0,0	test	ward_and_allport	0,0,0,3,1,0,2,0,0	89.0	28.0	1.259	1,2,3,0,0,0,0,0,0	to_hand	s518
377.607	0.541	0	PA_without_intermediate	1,0,0,3,0,0,2,0,0	test	ward_and_allport	0,0,0,3,1,0,2,0,0	82.0	28.0	0.541	1,2,3,0,0,0,0,0,0	to_board	s518
378.154	0.685	0	PA_without_intermediate	0,0,0,3,0,0,2,0,0	test	ward_and_allport	0,0,0,3,1,0,2,0,0	89.0	28.0	0.685	1,2,3,0,0,0,0,0,0	to_hand	s518
378.84	0.65	0	PA_without_intermediate	0,0,0,3,1,0,2,0,0	test	ward_and_allport	0,0,0,3,1,0,2,0,0	71.0	28.0	0.65	1,2,3,0,0,0,0,0,0	to_board	s518
379.499	1.0	0	PA_without_intermediate	n/a	test	ward_and_allport	n/a	-1.0	28.0	n/a	n/a	feedback	s518
380.499	1.0	0	PA_without_intermediate	n/a	test	ward_and_allport	n/a	-1.0	28.0	n/a	n/a	ITI	s518
381.505	1.323	1	PA_without_intermediate	1,2,0,0,0,0,0,0,0	test	ward_and_allport	0,0,0,3,1,0,2,0,0	89.0	29.0	1.323	1,2,3,0,0,0,0,0,0	to_hand	s518
382.829	0.498	0	PA_without_intermediate	1,2,0,3,0,0,0,0,0	test	ward_and_allport	0,0,0,3,1,0,2,0,0	71.0	29.0	0.498	1,2,3,0,0,0,0,0,0	to_board	s518
383.334	1.01	0	PA_without_intermediate	1,0,0,3,0,0,0,0,0	test	ward_and_allport	0,0,0,3,1,0,2,0,0	89.0	29.0	1.01	1,2,3,0,0,0,0,0,0	to_hand	s518
384.345	0.626	0	PA_without_intermediate	1,0,0,3,0,0,2,0,0	test	ward_and_allport	0,0,0,3,1,0,2,0,0	82.0	29.0	0.626	1,2,3,0,0,0,0,0,0	to_board	s518
384.979	1.473	0	PA_without_intermediate	0,0,0,3,0,0,2,0,0	test	ward_and_allport	0,0,0,3,1,0,2,0,0	89.0	29.0	1.473	1,2,3,0,0,0,0,0,0	to_hand	s518
386.454	0.819	0	PA_without_intermediate	0,0,0,3,1,0,2,0,0	test	ward_and_allport	0,0,0,3,1,0,2,0,0	71.0	29.0	0.819	1,2,3,0,0,0,0,0,0	to_board	s518
387.281	1.0	0	PA_without_intermediate	n/a	test	ward_and_allport	n/a	-1.0	29.0	n/a	n/a	feedback	s518
388.281	1.408	0	PA_without_intermediate	n/a	test	ward_and_allport	n/a	-1.0	29.0	n/a	n/a	ITI	s518
394.699	4.015	1	PA_with_intermediate	0,0,0,1,2,0,0,0,0	test	ward_and_allport	2,0,0,1,3,0,0,0,0	71.0	30.0	4.015	0,0,0,1,2,3,0,0,0	to_hand	s518
398.714	1.278	0	PA_with_intermediate	0,0,0,1,2,0,3,0,0	test	ward_and_allport	2,0,0,1,3,0,0,0,0	82.0	30.0	1.278	0,0,0,1,2,3,0,0,0	to_board	s518
400.0	0.527	0	PA_with_intermediate	0,0,0,1,0,0,3,0,0	test	ward_and_allport	2,0,0,1,3,0,0,0,0	71.0	30.0	0.527	0,0,0,1,2,3,0,0,0	to_hand	s518
400.528	0.487	0	PA_with_intermediate	2,0,0,1,0,0,3,0,0	test	ward_and_allport	2,0,0,1,3,0,0,0,0	89.0	30.0	0.487	0,0,0,1,2,3,0,0,0	to_board	s518
401.022	2.44	0	PA_with_intermediate	2,0,0,1,0,0,0,0,0	test	ward_and_allport	2,0,0,1,3,0,0,0,0	82.0	30.0	2.44	0,0,0,1,2,3,0,0,0	to_hand	s518
403.463	0.837	0	PA_with_intermediate	2,0,0,1,3,0,0,0,0	test	ward_and_allport	2,0,0,1,3,0,0,0,0	71.0	30.0	0.837	0,0,0,1,2,3,0,0,0	to_board	s518
404.308	1.0	0	PA_with_intermediate	n/a	test	ward_and_allport	n/a	-1.0	30.0	n/a	n/a	feedback	s518
405.308	1.136	0	PA_with_intermediate	n/a	test	ward_and_allport	n/a	-1.0	30.0	n/a	n/a	ITI	s518
406.451	1.907	1	PA_without_intermediate	0,0,0,1,2,0,0,0,0	test	ward_and_allport	1,0,0,0,0,0,3,2,0	71.0	31.0	1.907	0,0,0,1,2,3,0,0,0	to_hand	s518
408.36	0.619	0	PA_without_intermediate	0,0,0,1,2,0,3,0,0	test	ward_and_allport	1,0,0,0,0,0,3,2,0	82.0	31.0	0.619	0,0,0,1,2,3,0,0,0	to_board	s518
408.985	0.87	0	PA_without_intermediate	0,0,0,1,0,0,3,0,0	test	ward_and_allport	1,0,0,0,0,0,3,2,0	71.0	31.0	0.87	0,0,0,1,2,3,0,0,0	to_hand	s518
409.857	0.601	0	PA_without_intermediate	0,0,0,1,0,0,3,2,0	test	ward_and_allport	1,0,0,0,0,0,3,2,0	82.0	31.0	0.601	0,0,0,1,2,3,0,0,0	to_board	s518
410.465	0.985	0	PA_without_intermediate	0,0,0,0,0,0,3,2,0	test	ward_and_allport	1,0,0,0,0,0,3,2,0	71.0	31.0	0.985	0,0,0,1,2,3,0,0,0	to_hand	s518
411.45	0.43	0	PA_without_intermediate	1,0,0,0,0,0,3,2,0	test	ward_and_allport	1,0,0,0,0,0,3,2,0	89.0	31.0	0.43	0,0,0,1,2,3,0,0,0	to_board	s518
411.89	1.0	0	PA_without_intermediate	n/a	test	ward_and_allport	n/a	-1.0	31.0	n/a	n/a	feedback	s518
412.89	4.128	0	PA_without_intermediate	n/a	test	ward_and_allport	n/a	-1.0	31.0	n/a	n/a	ITI	s518
417.026	1.604	1	PA_without_intermediate	0,0,0,1,2,0,0,0,0	test	ward_and_allport	3,1,0,0,0,0,2,0,0	71.0	32.0	1.604	0,0,0,1,2,3,0,0,0	to_hand	s518
418.632	0.976	0	PA_without_intermediate	3,0,0,1,2,0,0,0,0	test	ward_and_allport	3,1,0,0,0,0,2,0,0	89.0	32.0	0.976	0,0,0,1,2,3,0,0,0	to_board	s518
419.616	0.894	0	PA_without_intermediate	3,0,0,1,0,0,0,0,0	test	ward_and_allport	3,1,0,0,0,0,2,0,0	71.0	32.0	0.894	0,0,0,1,2,3,0,0,0	to_hand	s518
420.51	0.508	0	PA_without_intermediate	3,0,0,1,0,0,2,0,0	test	ward_and_allport	3,1,0,0,0,0,2,0,0	82.0	32.0	0.508	0,0,0,1,2,3,0,0,0	to_board	s518
421.027	0.682	0	PA_without_intermediate	3,0,0,0,0,0,2,0,0	test	ward_and_allport	3,1,0,0,0,0,2,0,0	71.0	32.0	0.682	0,0,0,1,2,3,0,0,0	to_hand	s518
421.71	0.917	0	PA_without_intermediate	3,1,0,0,0,0,2,0,0	test	ward_and_allport	3,1,0,0,0,0,2,0,0	89.0	32.0	0.917	0,0,0,1,2,3,0,0,0	to_board	s518
422.636	1.0	0	PA_without_intermediate	n/a	test	ward_and_allport	n/a	-1.0	32.0	n/a	n/a	feedback	s518
423.636	1.136	0	PA_without_intermediate	n/a	test	ward_and_allport	n/a	-1.0	32.0	n/a	n/a	ITI	s518
424.779	2.938	1	PA_without_intermediate	1,2,0,0,0,0,0,0,0	test	ward_and_allport	0,0,0,3,2,0,1,0,0	89.0	33.0	2.938	1,2,3,0,0,0,0,0,0	to_hand	s518
427.718	0.862	0	PA_without_intermediate	1,2,0,3,0,0,0,0,0	test	ward_and_allport	0,0,0,3,2,0,1,0,0	71.0	33.0	0.862	1,2,3,0,0,0,0,0,0	to_board	s518
428.586	0.622	0	PA_without_intermediate	1,0,0,3,0,0,0,0,0	test	ward_and_allport	0,0,0,3,2,0,1,0,0	89.0	33.0	0.622	1,2,3,0,0,0,0,0,0	to_hand	s518
429.208	0.459	0	PA_without_intermediate	1,0,0,3,2,0,0,0,0	test	ward_and_allport	0,0,0,3,2,0,1,0,0	71.0	33.0	0.459	1,2,3,0,0,0,0,0,0	to_board	s518
429.674	1.195	0	PA_without_intermediate	0,0,0,3,2,0,0,0,0	test	ward_and_allport	0,0,0,3,2,0,1,0,0	89.0	33.0	1.195	1,2,3,0,0,0,0,0,0	to_hand	s518
430.869	0.777	0	PA_without_intermediate	0,0,0,3,2,0,1,0,0	test	ward_and_allport	0,0,0,3,2,0,1,0,0	82.0	33.0	0.777	1,2,3,0,0,0,0,0,0	to_board	s518
431.656	1.0	0	PA_without_intermediate	n/a	test	ward_and_allport	n/a	-1.0	33.0	n/a	n/a	feedback	s518
432.656	4.264	0	PA_without_intermediate	n/a	test	ward_and_allport	n/a	-1.0	33.0	n/a	n/a	ITI	s518
436.93	4.885	1	PA_with_intermediate	0,0,0,0,0,0,1,2,0	test	ward_and_allport	0,0,0,2,3,0,1,0,0	82.0	34.0	4.885	0,0,0,0,0,0,1,2,3	to_hand	s518
441.816	1.034	0	PA_with_intermediate	3,0,0,0,0,0,1,2,0	test	ward_and_allport	0,0,0,2,3,0,1,0,0	89.0	34.0	1.034	0,0,0,0,0,0,1,2,3	to_board	s518
442.857	1.302	0	PA_with_intermediate	3,0,0,0,0,0,1,0,0	test	ward_and_allport	0,0,0,2,3,0,1,0,0	82.0	34.0	1.302	0,0,0,0,0,0,1,2,3	to_hand	s518
444.16	0.486	0	PA_with_intermediate	3,0,0,2,0,0,1,0,0	test	ward_and_allport	0,0,0,2,3,0,1,0,0	71.0	34.0	0.486	0,0,0,0,0,0,1,2,3	to_board	s518
444.655	1.811	0	PA_with_intermediate	0,0,0,2,0,0,1,0,0	test	ward_and_allport	0,0,0,2,3,0,1,0,0	89.0	34.0	1.811	0,0,0,0,0,0,1,2,3	to_hand	s518
446.467	0.775	0	PA_with_intermediate	0,0,0,2,3,0,1,0,0	test	ward_and_allport	0,0,0,2,3,0,1,0,0	71.0	34.0	0.775	0,0,0,0,0,0,1,2,3	to_board	s518
447.253	1.0	0	PA_with_intermediate	n/a	test	ward_and_allport	n/a	-1.0	34.0	n/a	n/a	feedback	s518
448.253	3.04	0	PA_with_intermediate	n/a	test	ward_and_allport	n/a	-1.0	34.0	n/a	n/a	ITI	s518
451.304	2.89	1	PA_with_intermediate	0,0,0,1,2,0,0,0,0	test	ward_and_allport	2,3,0,1,0,0,0,0,0	71.0	35.0	2.89	0,0,0,1,2,3,0,0,0	to_hand	s518
454.196	1.336	0	PA_with_intermediate	0,0,0,1,2,0,3,0,0	test	ward_and_allport	2,3,0,1,0,0,0,0,0	82.0	35.0	1.336	0,0,0,1,2,3,0,0,0	to_board	s518
455.541	0.457	0	PA_with_intermediate	0,0,0,1,0,0,3,0,0	test	ward_and_allport	2,3,0,1,0,0,0,0,0	71.0	35.0	0.457	0,0,0,1,2,3,0,0,0	to_hand	s518
456.0	0.545	0	PA_with_intermediate	2,0,0,1,0,0,3,0,0	test	ward_and_allport	2,3,0,1,0,0,0,0,0	89.0	35.0	0.545	0,0,0,1,2,3,0,0,0	to_board	s518
456.553	1.097	0	PA_with_intermediate	2,0,0,1,0,0,0,0,0	test	ward_and_allport	2,3,0,1,0,0,0,0,0	82.0	35.0	1.097	0,0,0,1,2,3,0,0,0	to_hand	s518
457.652	0.572	0	PA_with_intermediate	2,3,0,1,0,0,0,0,0	test	ward_and_allport	2,3,0,1,0,0,0,0,0	89.0	35.0	0.572	0,0,0,1,2,3,0,0,0	to_board	s518
458.234	1.0	0	PA_with_intermediate	n/a	test	ward_and_allport	n/a	-1.0	35.0	n/a	n/a	feedback	s518
459.234	1.136	0	PA_with_intermediate	n/a	test	ward_and_allport	n/a	-1.0	35.0	n/a	n/a	ITI	s518
460.377	2.885	1	PA_with_intermediate	0,0,0,1,2,0,0,0,0	test	ward_and_allport	0,0,0,1,3,0,2,0,0	71.0	36.0	2.885	0,0,0,1,2,3,0,0,0	to_hand	s518
463.263	0.498	0	PA_with_intermediate	3,0,0,1,2,0,0,0,0	test	ward_and_allport	0,0,0,1,3,0,2,0,0	89.0	36.0	0.498	0,0,0,1,2,3,0,0,0	to_board	s518
463.768	0.468	0	PA_with_intermediate	3,0,0,1,0,0,0,0,0	test	ward_and_allport	0,0,0,1,3,0,2,0,0	71.0	36.0	0.468	0,0,0,1,2,3,0,0,0	to_hand	s518
464.237	0.542	0	PA_with_intermediate	3,0,0,1,0,0,2,0,0	test	ward_and_allport	0,0,0,1,3,0,2,0,0	82.0	36.0	0.542	0,0,0,1,2,3,0,0,0	to_board	s518
464.788	1.222	0	PA_with_intermediate	0,0,0,1,0,0,2,0,0	test	ward_and_allport	0,0,0,1,3,0,2,0,0	89.0	36.0	1.222	0,0,0,1,2,3,0,0,0	to_hand	s518
466.011	0.394	0	PA_with_intermediate	0,0,0,1,3,0,2,0,0	test	ward_and_allport	0,0,0,1,3,0,2,0,0	71.0	36.0	0.394	0,0,0,1,2,3,0,0,0	to_board	s518
466.416	1.0	0	PA_with_intermediate	n/a	test	ward_and_allport	n/a	-1.0	36.0	n/a	n/a	feedback	s518
467.416	1.408	0	PA_with_intermediate	n/a	test	ward_and_allport	n/a	-1.0	36.0	n/a	n/a	ITI	s518
468.831	1.766	1	PA_without_intermediate	0,0,0,1,2,0,0,0,0	test	ward_and_allport	2,0,0,0,0,0,3,1,0	71.0	37.0	1.766	0,0,0,1,2,3,0,0,0	to_hand	s518
470.598	0.533	0	PA_without_intermediate	0,0,0,1,2,0,3,0,0	test	ward_and_allport	2,0,0,0,0,0,3,1,0	82.0	37.0	0.533	0,0,0,1,2,3,0,0,0	to_board	s518
471.138	0.594	0	PA_without_intermediate	0,0,0,1,0,0,3,0,0	test	ward_and_allport	2,0,0,0,0,0,3,1,0	71.0	37.0	0.594	0,0,0,1,2,3,0,0,0	to_hand	s518
471.733	0.639	0	PA_without_intermediate	2,0,0,1,0,0,3,0,0	test	ward_and_allport	2,0,0,0,0,0,3,1,0	89.0	37.0	0.639	0,0,0,1,2,3,0,0,0	to_board	s518
472.379	0.52	0	PA_without_intermediate	2,0,0,0,0,0,3,0,0	test	ward_and_allport	2,0,0,0,0,0,3,1,0	71.0	37.0	0.52	0,0,0,1,2,3,0,0,0	to_hand	s518
472.9	0.663	0	PA_without_intermediate	2,0,0,0,0,0,3,1,0	test	ward_and_allport	2,0,0,0,0,0,3,1,0	82.0	37.0	0.663	0,0,0,1,2,3,0,0,0	to_board	s518
473.572	1.0	0	PA_without_intermediate	n/a	test	ward_and_allport	n/a	-1.0	37.0	n/a	n/a	feedback	s518
474.572	1.68	0	PA_without_intermediate	n/a	test	ward_and_allport	n/a	-1.0	37.0	n/a	n/a	ITI	s518
476.263	2.123	1	PA_with_intermediate	0,0,0,1,2,0,0,0,0	test	ward_and_allport	2,0,0,1,3,0,0,0,0	71.0	38.0	2.123	0,0,0,1,2,3,0,0,0	to_hand	s518
478.387	2.91	0	PA_with_intermediate	0,0,0,1,2,0,3,0,0	test	ward_and_allport	2,0,0,1,3,0,0,0,0	82.0	38.0	2.91	0,0,0,1,2,3,0,0,0	to_board	s518
481.306	0.595	0	PA_with_intermediate	0,0,0,1,0,0,3,0,0	test	ward_and_allport	2,0,0,1,3,0,0,0,0	71.0	38.0	0.595	0,0,0,1,2,3,0,0,0	to_hand	s518
481.902	0.412	0	PA_with_intermediate	2,0,0,1,0,0,3,0,0	test	ward_and_allport	2,0,0,1,3,0,0,0,0	89.0	38.0	0.412	0,0,0,1,2,3,0,0,0	to_board	s518
482.322	0.862	0	PA_with_intermediate	2,0,0,1,0,0,0,0,0	test	ward_and_allport	2,0,0,1,3,0,0,0,0	82.0	38.0	0.862	0,0,0,1,2,3,0,0,0	to_hand	s518
483.185	0.524	0	PA_with_intermediate	2,0,0,1,3,0,0,0,0	test	ward_and_allport	2,0,0,1,3,0,0,0,0	71.0	38.0	0.524	0,0,0,1,2,3,0,0,0	to_board	s518
483.721	1.0	0	PA_with_intermediate	n/a	test	ward_and_allport	n/a	-1.0	38.0	n/a	n/a	feedback	s518
484.721	3.72	0	PA_with_intermediate	n/a	test	ward_and_allport	n/a	-1.0	38.0	n/a	n/a	ITI	s518
488.448	2.592	1	PA_without_intermediate	1,2,0,0,0,0,0,0,0	test	ward_and_allport	0,0,0,2,0,0,3,1,0	89.0	39.0	2.592	1,2,3,0,0,0,0,0,0	to_hand	s518
491.041	0.883	0	PA_without_intermediate	1,2,0,0,0,0,3,0,0	test	ward_and_allport	0,0,0,2,0,0,3,1,0	82.0	39.0	0.883	1,2,3,0,0,0,0,0,0	to_board	s518
491.934	1.891	0	PA_without_intermediate	1,0,0,0,0,0,3,0,0	test	ward_and_allport	0,0,0,2,0,0,3,1,0	89.0	39.0	1.891	1,2,3,0,0,0,0,0,0	to_hand	s518
493.826	0.547	0	PA_without_intermediate	1,0,0,2,0,0,3,0,0	test	ward_and_allport	0,0,0,2,0,0,3,1,0	71.0	39.0	0.547	1,2,3,0,0,0,0,0,0	to_board	s518
494.383	0.446	0	PA_without_intermediate	0,0,0,2,0,0,3,0,0	test	ward_and_allport	0,0,0,2,0,0,3,1,0	89.0	39.0	0.446	1,2,3,0,0,0,0,0,0	to_hand	s518
494.829	0.85	0	PA_without_intermediate	0,0,0,2,0,0,3,1,0	test	ward_and_allport	0,0,0,2,0,0,3,1,0	82.0	39.0	0.85	1,2,3,0,0,0,0,0,0	to_board	s518
495.69	1.0	0	PA_without_intermediate	n/a	test	ward_and_allport	n/a	-1.0	39.0	n/a	n/a	feedback	s518
496.69	2.224	0	PA_without_intermediate	n/a	test	ward_and_allport	n/a	-1.0	39.0	n/a	n/a	ITI	s518
498.923	1.931	1	PA_without_intermediate	1,2,0,0,0,0,0,0,0	test	ward_and_allport	0,0,0,2,0,0,3,1,0	89.0	40.0	1.931	1,2,3,0,0,0,0,0,0	to_hand	s518
500.855	0.717	0	PA_without_intermediate	1,2,0,0,0,0,3,0,0	test	ward_and_allport	0,0,0,2,0,0,3,1,0	82.0	40.0	0.717	1,2,3,0,0,0,0,0,0	to_board	s518
501.583	0.755	0	PA_without_intermediate	1,0,0,0,0,0,3,0,0	test	ward_and_allport	0,0,0,2,0,0,3,1,0	89.0	40.0	0.755	1,2,3,0,0,0,0,0,0	to_hand	s518
502.339	0.501	0	PA_without_intermediate	1,0,0,2,0,0,3,0,0	test	ward_and_allport	0,0,0,2,0,0,3,1,0	71.0	40.0	0.501	1,2,3,0,0,0,0,0,0	to_board	s518
502.849	0.534	0	PA_without_intermediate	0,0,0,2,0,0,3,0,0	test	ward_and_allport	0,0,0,2,0,0,3,1,0	89.0	40.0	0.534	1,2,3,0,0,0,0,0,0	to_hand	s518
503.385	0.577	0	PA_without_intermediate	0,0,0,2,0,0,3,1,0	test	ward_and_allport	0,0,0,2,0,0,3,1,0	82.0	40.0	0.577	1,2,3,0,0,0,0,0,0	to_board	s518
503.971	1.0	0	PA_without_intermediate	n/a	test	ward_and_allport	n/a	-1.0	40.0	n/a	n/a	feedback	s518
504.971	1.272	0	PA_without_intermediate	n/a	test	ward_and_allport	n/a	-1.0	40.0	n/a	n/a	ITI	s518
506.25	2.876	1	PA_with_intermediate	0,0,0,0,0,0,1,2,0	test	ward_and_allport	0,0,0,2,0,0,1,3,0	82.0	41.0	2.876	0,0,0,0,0,0,1,2,3	to_hand	s518
509.128	0.762	0	PA_with_intermediate	3,0,0,0,0,0,1,2,0	test	ward_and_allport	0,0,0,2,0,0,1,3,0	89.0	41.0	0.762	0,0,0,0,0,0,1,2,3	to_board	s518
509.896	0.644	0	PA_with_intermediate	3,0,0,0,0,0,1,0,0	test	ward_and_allport	0,0,0,2,0,0,1,3,0	82.0	41.0	0.644	0,0,0,0,0,0,1,2,3	to_hand	s518
510.542	0.786	0	PA_with_intermediate	3,0,0,2,0,0,1,0,0	test	ward_and_allport	0,0,0,2,0,0,1,3,0	71.0	41.0	0.786	0,0,0,0,0,0,1,2,3	to_board	s518
511.335	0.911	0	PA_with_intermediate	0,0,0,2,0,0,1,0,0	test	ward_and_allport	0,0,0,2,0,0,1,3,0	89.0	41.0	0.911	0,0,0,0,0,0,1,2,3	to_hand	s518
512.247	0.63	0	PA_with_intermediate	0,0,0,2,0,0,1,3,0	test	ward_and_allport	0,0,0,2,0,0,1,3,0	82.0	41.0	0.63	0,0,0,0,0,0,1,2,3	to_board	s518
512.889	1.0	0	PA_with_intermediate	n/a	test	ward_and_allport	n/a	-1.0	41.0	n/a	n/a	feedback	s518
513.889	2.632	0	PA_with_intermediate	n/a	test	ward_and_allport	n/a	-1.0	41.0	n/a	n/a	ITI	s518
516.531	2.522	1	PA_without_intermediate	0,0,0,0,0,0,1,2,0	test	ward_and_allport	3,1,0,2,0,0,0,0,0	82.0	42.0	2.522	0,0,0,0,0,0,1,2,3	to_hand	s518
519.054	0.718	0	PA_without_intermediate	3,0,0,0,0,0,1,2,0	test	ward_and_allport	3,1,0,2,0,0,0,0,0	89.0	42.0	0.718	0,0,0,0,0,0,1,2,3	to_board	s518
519.782	1.823	0	PA_without_intermediate	3,0,0,0,0,0,1,0,0	test	ward_and_allport	3,1,0,2,0,0,0,0,0	82.0	42.0	1.823	0,0,0,0,0,0,1,2,3	to_hand	s518
521.605	0.473	0	PA_without_intermediate	3,0,0,2,0,0,1,0,0	test	ward_and_allport	3,1,0,2,0,0,0,0,0	71.0	42.0	0.473	0,0,0,0,0,0,1,2,3	to_board	s518
522.088	0.67	0	PA_without_intermediate	3,0,0,2,0,0,0,0,0	test	ward_and_allport	3,1,0,2,0,0,0,0,0	82.0	42.0	0.67	0,0,0,0,0,0,1,2,3	to_hand	s518
522.758	0.535	0	PA_without_intermediate	3,1,0,2,0,0,0,0,0	test	ward_and_allport	3,1,0,2,0,0,0,0,0	89.0	42.0	0.535	0,0,0,0,0,0,1,2,3	to_board	s518
523.305	1.0	0	PA_without_intermediate	n/a	test	ward_and_allport	n/a	-1.0	42.0	n/a	n/a	feedback	s518
524.305	1.408	0	PA_without_intermediate	n/a	test	ward_and_allport	n/a	-1.0	42.0	n/a	n/a	ITI	s518
525.72	2.554	1	PA_without_intermediate	0,0,0,1,2,0,0,0,0	test	ward_and_allport	3,2,0,0,0,0,1,0,0	71.0	43.0	2.554	0,0,0,1,2,3,0,0,0	to_hand	s518
528.275	0.9	0	PA_without_intermediate	3,0,0,1,2,0,0,0,0	test	ward_and_allport	3,2,0,0,0,0,1,0,0	89.0	43.0	0.9	0,0,0,1,2,3,0,0,0	to_board	s518
529.182	0.806	0	PA_without_intermediate	3,0,0,1,0,0,0,0,0	test	ward_and_allport	3,2,0,0,0,0,1,0,0	71.0	43.0	0.806	0,0,0,1,2,3,0,0,0	to_hand	s518
529.988	0.522	0	PA_without_intermediate	3,2,0,1,0,0,0,0,0	test	ward_and_allport	3,2,0,0,0,0,1,0,0	89.0	43.0	0.522	0,0,0,1,2,3,0,0,0	to_board	s518
530.519	0.779	0	PA_without_intermediate	3,2,0,0,0,0,0,0,0	test	ward_and_allport	3,2,0,0,0,0,1,0,0	71.0	43.0	0.779	0,0,0,1,2,3,0,0,0	to_hand	s518
531.3	0.809	0	PA_without_intermediate	3,2,0,0,0,0,1,0,0	test	ward_and_allport	3,2,0,0,0,0,1,0,0	82.0	43.0	0.809	0,0,0,1,2,3,0,0,0	to_board	s518
532.12	1.0	0	PA_without_intermediate	n/a	test	ward_and_allport	n/a	-1.0	43.0	n/a	n/a	feedback	s518
533.12	1.0	0	PA_without_intermediate	n/a	test	ward_and_allport	n/a	-1.0	43.0	n/a	n/a	ITI	s518
534.131	2.592	1	PA_with_intermediate	0,0,0,0,0,0,1,2,0	test	ward_and_allport	2,0,0,0,0,0,1,3,0	82.0	44.0	2.592	0,0,0,0,0,0,1,2,3	to_hand	s518
536.724	2.595	0	PA_with_intermediate	3,0,0,0,0,0,1,2,0	test	ward_and_allport	2,0,0,0,0,0,1,3,0	89.0	44.0	2.595	0,0,0,0,0,0,1,2,3	to_board	s518
539.326	0.792	0	PA_with_intermediate	3,0,0,0,0,0,1,0,0	test	ward_and_allport	2,0,0,0,0,0,1,3,0	82.0	44.0	0.792	0,0,0,0,0,0,1,2,3	to_hand	s518
540.119	1.165	0	PA_with_intermediate	3,0,0,2,0,0,1,0,0	test	ward_and_allport	2,0,0,0,0,0,1,3,0	71.0	44.0	1.165	0,0,0,0,0,0,1,2,3	to_board	s518
541.292	1.239	0	PA_with_intermediate	0,0,0,2,0,0,1,0,0	test	ward_and_allport	2,0,0,0,0,0,1,3,0	89.0	44.0	1.239	0,0,0,0,0,0,1,2,3	to_hand	s518
542.533	0.537	0	PA_with_intermediate	0,0,0,2,0,0,1,3,0	test	ward_and_allport	2,0,0,0,0,0,1,3,0	82.0	44.0	0.537	0,0,0,0,0,0,1,2,3	to_board	s518
543.079	0.689	0	PA_with_intermediate	0,0,0,0,0,0,1,3,0	test	ward_and_allport	2,0,0,0,0,0,1,3,0	71.0	44.0	0.689	0,0,0,0,0,0,1,2,3	to_hand	s518
543.769	0.536	0	PA_with_intermediate	2,0,0,0,0,0,1,3,0	test	ward_and_allport	2,0,0,0,0,0,1,3,0	89.0	44.0	0.536	0,0,0,0,0,0,1,2,3	to_board	s518
544.316	1.0	0	PA_with_intermediate	n/a	test	ward_and_allport	n/a	-1.0	44.0	n/a	n/a	feedback	s518
545.316	1.0	0	PA_with_intermediate	n/a	test	ward_and_allport	n/a	-1.0	44.0	n/a	n/a	ITI	s518
551.328	2.177	1	PA_with_intermediate	1,2,0,0,0,0,0,0,0	test	ward_and_allport	1,0,0,2,3,0,0,0,0	89.0	45.0	2.177	1,2,3,0,0,0,0,0,0	to_hand	s518
553.506	1.119	0	PA_with_intermediate	1,2,0,0,0,0,3,0,0	test	ward_and_allport	1,0,0,2,3,0,0,0,0	82.0	45.0	1.119	1,2,3,0,0,0,0,0,0	to_board	s518
554.635	0.602	0	PA_with_intermediate	1,0,0,0,0,0,3,0,0	test	ward_and_allport	1,0,0,2,3,0,0,0,0	89.0	45.0	0.602	1,2,3,0,0,0,0,0,0	to_hand	s518
555.239	0.492	0	PA_with_intermediate	1,0,0,2,0,0,3,0,0	test	ward_and_allport	1,0,0,2,3,0,0,0,0	71.0	45.0	0.492	1,2,3,0,0,0,0,0,0	to_board	s518
555.741	0.597	0	PA_with_intermediate	1,0,0,2,0,0,0,0,0	test	ward_and_allport	1,0,0,2,3,0,0,0,0	82.0	45.0	0.597	1,2,3,0,0,0,0,0,0	to_hand	s518
556.339	0.595	0	PA_with_intermediate	1,0,0,2,3,0,0,0,0	test	ward_and_allport	1,0,0,2,3,0,0,0,0	71.0	45.0	0.595	1,2,3,0,0,0,0,0,0	to_board	s518
556.946	1.0	0	PA_with_intermediate	n/a	test	ward_and_allport	n/a	-1.0	45.0	n/a	n/a	feedback	s518
557.946	1.0	0	PA_with_intermediate	n/a	test	ward_and_allport	n/a	-1.0	45.0	n/a	n/a	ITI	s518
n/a	n/a	0	n/a	n/a	n/a	n/a	n/a	n/a	n/a	n/a	n/a	ITI	n/a
