onset	duration	CTI	correct	correct_response	cue	cue_switch	experiment_exp_id	key_press	response_time	stim_color	stim_number	switch_type	task_type	task_switch	worker_id	first_trial_of_block
3.612	1.0	0.1	True	71.0	High-Low	stay	twobytwo	71.0	0.785	blue	2.0	cue_stay	magnitude	stay	s518	1
6.79	1.0	0.9	True	71.0	Color	n/a	twobytwo	71.0	0.543	orange	8.0	task_switch	color	switch	s518	0
9.832	1.0	0.9	True	89.0	Orange-Blue	switch	twobytwo	89.0	0.575	blue	2.0	cue_switch	color	stay	s518	0
12.737	1.0	0.9	True	71.0	Magnitude	n/a	twobytwo	71.0	0.697	blue	1.0	task_switch	magnitude	switch	s518	0
15.643	1.0	0.9	True	71.0	Color	n/a	twobytwo	71.0	0.561	orange	4.0	task_switch	color	switch	s518	0
18.683	1.0	0.9	True	71.0	Magnitude	n/a	twobytwo	71.0	0.521	orange	3.0	task_switch	magnitude	switch	s518	0
21.588	1.0	0.9	True	71.0	Orange-Blue	n/a	twobytwo	71.0	0.725	orange	9.0	task_switch	color	switch	s518	0
24.628	1.0	0.9	True	89.0	Orange-Blue	stay	twobytwo	89.0	0.799	blue	6.0	cue_stay	color	stay	s518	0
27.941	1.0	0.9	True	71.0	Magnitude	n/a	twobytwo	71.0	0.763	orange	1.0	task_switch	magnitude	switch	s518	0
30.183	1.0	0.1	True	89.0	Color	n/a	twobytwo	89.0	0.854	blue	3.0	task_switch	color	switch	s518	0
32.288	1.0	0.1	True	89.0	High-Low	n/a	twobytwo	89.0	0.884	orange	7.0	task_switch	magnitude	switch	s518	0
34.528	1.0	0.1	True	71.0	High-Low	stay	twobytwo	71.0	0.838	blue	3.0	cue_stay	magnitude	stay	s518	0
37.704	1.0	0.9	True	71.0	Orange-Blue	n/a	twobytwo	71.0	0.568	orange	2.0	task_switch	color	switch	s518	0
39.809	1.0	0.1	True	71.0	High-Low	n/a	twobytwo	71.0	1.209	orange	4.0	task_switch	magnitude	switch	s518	0
42.32	1.0	0.1	True	71.0	Magnitude	switch	twobytwo	71.0	0.773	orange	3.0	cue_switch	magnitude	stay	s518	0
45.224	1.0	0.9	True	71.0	Color	n/a	twobytwo	71.0	0.544	orange	8.0	task_switch	color	switch	s518	0
47.465	1.0	0.1	True	89.0	Magnitude	n/a	twobytwo	89.0	0.801	orange	8.0	task_switch	magnitude	switch	s518	0
49.977	1.0	0.1	True	71.0	Color	n/a	twobytwo	71.0	1.048	orange	3.0	task_switch	color	switch	s518	0
53.017	1.0	0.9	True	71.0	Magnitude	n/a	twobytwo	71.0	0.56	orange	1.0	task_switch	magnitude	switch	s518	0
56.329	1.0	0.9	True	89.0	Color	n/a	twobytwo	89.0	0.545	blue	2.0	task_switch	color	switch	s518	0
58.57	1.0	0.1	True	89.0	Orange-Blue	switch	twobytwo	89.0	0.955	blue	7.0	cue_switch	color	stay	s518	0
60.675	1.0	0.1	True	71.0	Orange-Blue	stay	twobytwo	71.0	0.736	orange	6.0	cue_stay	color	stay	s518	0
63.852	1.0	0.9	True	89.0	Magnitude	n/a	twobytwo	89.0	0.482	orange	7.0	task_switch	magnitude	switch	s518	0
65.956	1.0	0.1	True	71.0	Orange-Blue	n/a	twobytwo	71.0	1.072	orange	2.0	task_switch	color	switch	s518	0
68.332	1.0	0.1	True	71.0	Color	switch	twobytwo	71.0	0.672	orange	4.0	cue_switch	color	stay	s518	0
71.508	1.0	0.9	True	89.0	Orange-Blue	switch	twobytwo	89.0	0.438	blue	7.0	cue_switch	color	stay	s518	0
74.564	1.0	0.1	True	89.0	Orange-Blue	stay	twobytwo	89.0	0.616	blue	7.0	cue_stay	color	stay	s518	0
77.349	1.0	0.1	True	89.0	Orange-Blue	stay	twobytwo	89.0	0.812	blue	4.0	cue_stay	color	stay	s518	0
79.589	1.0	0.1	True	89.0	Orange-Blue	stay	twobytwo	89.0	0.867	blue	1.0	cue_stay	color	stay	s518	0
82.765	1.0	0.9	True	89.0	Color	switch	twobytwo	89.0	0.565	blue	3.0	cue_switch	color	stay	s518	0
85.141	1.0	0.1	True	89.0	Magnitude	n/a	twobytwo	89.0	0.799	blue	8.0	task_switch	magnitude	switch	s518	0
88.181	1.0	0.9	True	89.0	High-Low	switch	twobytwo	89.0	0.467	blue	8.0	cue_switch	magnitude	stay	s518	0
91.492	1.0	0.9	True	71.0	Magnitude	switch	twobytwo	71.0	0.757	orange	2.0	cue_switch	magnitude	stay	s518	0
94.533	1.0	0.9	True	89.0	High-Low	switch	twobytwo	89.0	1.037	blue	7.0	cue_switch	magnitude	stay	s518	0
97.573	1.0	0.9	True	89.0	Magnitude	switch	twobytwo	89.0	0.562	blue	8.0	cue_switch	magnitude	stay	s518	0
100.478	1.0	0.9	True	71.0	Magnitude	stay	twobytwo	71.0	0.598	blue	2.0	cue_stay	magnitude	stay	s518	0
103.382	1.0	0.9	True	71.0	High-Low	switch	twobytwo	71.0	0.487	orange	4.0	cue_switch	magnitude	stay	s518	0
105.486	1.0	0.1	True	71.0	Magnitude	switch	twobytwo	71.0	0.973	blue	2.0	cue_switch	magnitude	stay	s518	0
108.39	1.0	0.9	True	71.0	High-Low	switch	twobytwo	71.0	0.514	orange	1.0	cue_switch	magnitude	stay	s518	0
110.496	1.0	0.1	True	71.0	Magnitude	switch	twobytwo	71.0	0.65	blue	4.0	cue_switch	magnitude	stay	s518	0
113.673	1.0	0.9	True	89.0	High-Low	switch	twobytwo	89.0	0.514	blue	9.0	cue_switch	magnitude	stay	s518	0
116.185	1.0	0.1	True	71.0	High-Low	stay	twobytwo	71.0	0.827	orange	3.0	cue_stay	magnitude	stay	s518	0
118.289	1.0	0.1	True	89.0	Color	n/a	twobytwo	89.0	0.715	blue	4.0	task_switch	color	switch	s518	0
120.529	1.0	0.1	True	89.0	Orange-Blue	switch	twobytwo	89.0	0.76	blue	1.0	cue_switch	color	stay	s518	0
122.634	1.0	0.1	True	71.0	Magnitude	n/a	twobytwo	71.0	0.75	orange	2.0	task_switch	magnitude	switch	s518	0
124.874	1.0	0.1	True	71.0	Color	n/a	twobytwo	71.0	0.816	orange	9.0	task_switch	color	switch	s518	0
127.522	1.0	0.1	True	71.0	Magnitude	n/a	twobytwo	71.0	0.783	orange	2.0	task_switch	magnitude	switch	s518	0
131.106	1.0	0.9	True	71.0	High-Low	switch	twobytwo	71.0	0.483	orange	2.0	cue_switch	magnitude	stay	s518	0
135.099	1.0	0.9	True	89.0	Magnitude	switch	twobytwo	89.0	0.735	blue	9.0	cue_switch	magnitude	stay	s518	0
137.34	1.0	0.1	True	89.0	High-Low	switch	twobytwo	89.0	1.13	blue	9.0	cue_switch	magnitude	stay	s518	0
140.788	1.0	0.9	True	89.0	Magnitude	switch	twobytwo	89.0	0.968	orange	9.0	cue_switch	magnitude	stay	s518	0
142.893	1.0	0.1	True	71.0	Color	n/a	twobytwo	71.0	0.89	orange	6.0	task_switch	color	switch	s518	0
145.133	1.0	0.1	True	89.0	High-Low	n/a	twobytwo	89.0	0.81	blue	9.0	task_switch	magnitude	switch	s518	0
147.238	1.0	0.1	True	89.0	Orange-Blue	n/a	twobytwo	89.0	1.142	blue	9.0	task_switch	color	switch	s518	0
149.749	1.0	0.1	True	71.0	Color	switch	twobytwo	71.0	0.636	orange	3.0	cue_switch	color	stay	s518	0
152.653	1.0	0.9	True	71.0	Color	stay	twobytwo	71.0	0.449	orange	8.0	cue_stay	color	stay	s518	0
154.757	1.0	0.1	True	89.0	Magnitude	n/a	twobytwo	89.0	1.198	orange	8.0	task_switch	magnitude	switch	s518	0
157.661	1.0	0.9	True	89.0	Magnitude	stay	twobytwo	89.0	0.571	orange	7.0	cue_stay	magnitude	stay	s518	0
161.246	1.0	0.9	True	71.0	High-Low	switch	twobytwo	71.0	0.72	blue	3.0	cue_switch	magnitude	stay	s518	0
163.623	1.0	0.1	True	71.0	High-Low	stay	twobytwo	71.0	0.944	orange	3.0	cue_stay	magnitude	stay	s518	0
166.936	1.0	0.9	True	89.0	High-Low	stay	twobytwo	89.0	0.684	blue	7.0	cue_stay	magnitude	stay	s518	0
170.265	1.0	0.1	True	71.0	Orange-Blue	n/a	twobytwo	71.0	0.681	orange	9.0	task_switch	color	switch	s518	0
173.577	1.0	0.9	True	71.0	Magnitude	n/a	twobytwo	71.0	0.671	blue	4.0	task_switch	magnitude	switch	s518	0
176.497	1.0	0.1	True	71.0	Orange-Blue	n/a	twobytwo	71.0	0.891	orange	4.0	task_switch	color	switch	s518	0
179.01	1.0	0.1	True	71.0	High-Low	n/a	twobytwo	71.0	0.76	orange	3.0	task_switch	magnitude	switch	s518	0
181.25	1.0	0.1	True	71.0	High-Low	stay	twobytwo	71.0	0.717	orange	1.0	cue_stay	magnitude	stay	s518	0
183.491	1.0	0.1	True	71.0	Magnitude	switch	twobytwo	71.0	0.787	orange	3.0	cue_switch	magnitude	stay	s518	0
185.596	1.0	0.1	True	89.0	High-Low	switch	twobytwo	89.0	1.11	orange	9.0	cue_switch	magnitude	stay	s518	0
188.501	1.0	0.9	True	89.0	Color	n/a	twobytwo	89.0	0.508	blue	7.0	task_switch	color	switch	s518	0
191.678	1.0	0.9	True	89.0	High-Low	n/a	twobytwo	89.0	0.586	orange	9.0	task_switch	magnitude	switch	s518	0
194.991	1.0	0.9	False	71.0	Color	n/a	twobytwo	89.0	0.845	orange	1.0	task_switch	color	switch	s518	0
197.095	1.0	0.1	True	89.0	Orange-Blue	switch	twobytwo	89.0	0.764	blue	1.0	cue_switch	color	stay	s518	0
200.136	1.0	0.9	False	71.0	High-Low	n/a	twobytwo	89.0	0.948	blue	1.0	task_switch	magnitude	switch	s518	0
203.04	1.0	0.9	True	71.0	Orange-Blue	n/a	twobytwo	71.0	0.863	orange	2.0	task_switch	color	switch	s518	0
206.351	1.0	0.9	True	71.0	Color	switch	twobytwo	71.0	0.871	orange	9.0	cue_switch	color	stay	s518	0
209.528	1.0	0.9	True	89.0	High-Low	n/a	twobytwo	89.0	0.854	orange	8.0	task_switch	magnitude	switch	s518	0
211.631	1.0	0.1	True	71.0	Magnitude	switch	twobytwo	71.0	0.731	orange	4.0	cue_switch	magnitude	stay	s518	0
214.008	1.0	0.1	True	71.0	Color	n/a	twobytwo	71.0	0.931	orange	8.0	task_switch	color	switch	s518	0
216.112	1.0	0.1	True	89.0	Magnitude	n/a	twobytwo	89.0	0.866	orange	9.0	task_switch	magnitude	switch	s518	0
219.016	1.0	0.9	True	89.0	Magnitude	stay	twobytwo	89.0	0.506	orange	7.0	cue_stay	magnitude	stay	s518	0
234.902	1.0	0.1	True	71.0	Magnitude	stay	twobytwo	71.0	0.895	blue	2.0	cue_stay	magnitude	stay	s518	1
237.942	1.0	0.9	True	71.0	Orange-Blue	n/a	twobytwo	71.0	0.624	orange	8.0	task_switch	color	switch	s518	0
240.847	1.0	0.9	True	89.0	Color	switch	twobytwo	89.0	1.008	blue	2.0	cue_switch	color	stay	s518	0
243.751	1.0	0.9	False	71.0	Magnitude	n/a	twobytwo	89.0	0.799	blue	1.0	task_switch	magnitude	switch	s518	0
246.655	1.0	0.9	True	71.0	Color	n/a	twobytwo	71.0	0.526	orange	4.0	task_switch	color	switch	s518	0
249.559	1.0	0.9	True	71.0	High-Low	n/a	twobytwo	71.0	0.497	orange	3.0	task_switch	magnitude	switch	s518	0
252.463	1.0	0.9	True	71.0	Color	n/a	twobytwo	71.0	0.993	orange	9.0	task_switch	color	switch	s518	0
255.505	1.0	0.9	True	89.0	Color	stay	twobytwo	89.0	0.432	blue	6.0	cue_stay	color	stay	s518	0
258.409	1.0	0.9	True	71.0	High-Low	n/a	twobytwo	71.0	0.586	orange	1.0	task_switch	magnitude	switch	s518	0
260.514	1.0	0.1	True	89.0	Color	n/a	twobytwo	89.0	0.864	blue	3.0	task_switch	color	switch	s518	0
262.754	1.0	0.1	True	89.0	High-Low	n/a	twobytwo	89.0	0.862	orange	7.0	task_switch	magnitude	switch	s518	0
264.859	1.0	0.1	True	71.0	High-Low	stay	twobytwo	71.0	0.937	blue	3.0	cue_stay	magnitude	stay	s518	0
267.899	1.0	0.9	True	71.0	Color	n/a	twobytwo	71.0	0.675	orange	2.0	task_switch	color	switch	s518	0
270.684	1.0	0.1	True	71.0	High-Low	n/a	twobytwo	71.0	0.793	orange	4.0	task_switch	magnitude	switch	s518	0
273.061	1.0	0.1	True	71.0	Magnitude	switch	twobytwo	71.0	0.921	orange	3.0	cue_switch	magnitude	stay	s518	0
276.103	1.0	0.9	True	71.0	Orange-Blue	n/a	twobytwo	71.0	0.522	orange	8.0	task_switch	color	switch	s518	0
278.208	1.0	0.1	True	89.0	Magnitude	n/a	twobytwo	89.0	1.107	orange	8.0	task_switch	magnitude	switch	s518	0
280.449	1.0	0.1	True	71.0	Orange-Blue	n/a	twobytwo	71.0	0.78	orange	3.0	task_switch	color	switch	s518	0
284.033	1.0	0.9	True	71.0	Magnitude	n/a	twobytwo	71.0	0.689	orange	1.0	task_switch	magnitude	switch	s518	0
287.21	1.0	0.9	True	89.0	Orange-Blue	n/a	twobytwo	89.0	0.853	blue	2.0	task_switch	color	switch	s518	0
289.315	1.0	0.1	True	89.0	Color	switch	twobytwo	89.0	1.131	blue	7.0	cue_switch	color	stay	s518	0
291.419	1.0	0.1	True	71.0	Color	stay	twobytwo	71.0	0.876	orange	6.0	cue_stay	color	stay	s518	0
294.46	1.0	0.9	True	89.0	High-Low	n/a	twobytwo	89.0	0.794	orange	7.0	task_switch	magnitude	switch	s518	0
296.564	1.0	0.1	True	71.0	Orange-Blue	n/a	twobytwo	71.0	0.907	orange	2.0	task_switch	color	switch	s518	0
298.668	1.0	0.1	True	71.0	Color	switch	twobytwo	71.0	0.775	orange	4.0	cue_switch	color	stay	s518	0
301.571	1.0	0.9	True	89.0	Orange-Blue	switch	twobytwo	89.0	0.585	blue	7.0	cue_switch	color	stay	s518	0
303.948	1.0	0.1	True	89.0	Orange-Blue	stay	twobytwo	89.0	0.595	blue	7.0	cue_stay	color	stay	s518	0
306.46	1.0	0.1	True	89.0	Orange-Blue	stay	twobytwo	89.0	1.027	blue	4.0	cue_stay	color	stay	s518	0
308.564	1.0	0.1	True	89.0	Orange-Blue	stay	twobytwo	89.0	0.725	blue	1.0	cue_stay	color	stay	s518	0
311.468	1.0	0.9	True	89.0	Color	switch	twobytwo	89.0	1.009	blue	3.0	cue_switch	color	stay	s518	0
313.572	1.0	0.1	True	89.0	High-Low	n/a	twobytwo	89.0	1.144	blue	8.0	task_switch	magnitude	switch	s518	0
316.749	1.0	0.9	True	89.0	Magnitude	switch	twobytwo	89.0	1.024	blue	8.0	cue_switch	magnitude	stay	s518	0
319.789	1.0	0.9	True	71.0	High-Low	switch	twobytwo	71.0	0.577	orange	2.0	cue_switch	magnitude	stay	s518	0
322.693	1.0	0.9	True	89.0	Magnitude	switch	twobytwo	89.0	0.55	blue	7.0	cue_switch	magnitude	stay	s518	0
326.141	1.0	0.9	True	89.0	High-Low	switch	twobytwo	89.0	0.592	blue	8.0	cue_switch	magnitude	stay	s518	0
329.32	1.0	0.9	True	71.0	High-Low	stay	twobytwo	71.0	1.051	blue	2.0	cue_stay	magnitude	stay	s518	0
332.496	1.0	0.9	True	71.0	Magnitude	switch	twobytwo	71.0	0.708	orange	4.0	cue_switch	magnitude	stay	s518	0
334.6	1.0	0.1	True	71.0	High-Low	switch	twobytwo	71.0	0.853	blue	2.0	cue_switch	magnitude	stay	s518	0
337.504	1.0	0.9	True	71.0	Magnitude	switch	twobytwo	71.0	0.646	orange	1.0	cue_switch	magnitude	stay	s518	0
339.744	1.0	0.1	True	71.0	High-Low	switch	twobytwo	71.0	1.085	blue	4.0	cue_switch	magnitude	stay	s518	0
342.647	1.0	0.9	True	89.0	Magnitude	switch	twobytwo	89.0	0.607	blue	9.0	cue_switch	magnitude	stay	s518	0
344.887	1.0	0.1	True	71.0	Magnitude	stay	twobytwo	71.0	0.628	orange	3.0	cue_stay	magnitude	stay	s518	0
347.263	1.0	0.1	True	89.0	Color	n/a	twobytwo	89.0	0.829	blue	4.0	task_switch	color	switch	s518	0
349.505	1.0	0.1	True	89.0	Orange-Blue	switch	twobytwo	89.0	0.863	blue	1.0	cue_switch	color	stay	s518	0
351.881	1.0	0.1	True	71.0	High-Low	n/a	twobytwo	71.0	0.993	orange	2.0	task_switch	magnitude	switch	s518	0
353.985	1.0	0.1	False	71.0	Color	n/a	twobytwo	89.0	0.622	orange	9.0	task_switch	color	switch	s518	0
356.905	1.0	0.1	True	71.0	Magnitude	n/a	twobytwo	71.0	0.831	orange	2.0	task_switch	magnitude	switch	s518	0
360.217	1.0	0.9	True	71.0	High-Low	switch	twobytwo	71.0	0.57	orange	2.0	cue_switch	magnitude	stay	s518	0
363.121	1.0	0.9	True	89.0	Magnitude	switch	twobytwo	89.0	0.581	blue	9.0	cue_switch	magnitude	stay	s518	0
365.768	1.0	0.1	True	89.0	High-Low	switch	twobytwo	89.0	0.709	blue	9.0	cue_switch	magnitude	stay	s518	0
368.808	1.0	0.9	True	89.0	Magnitude	switch	twobytwo	89.0	1.018	orange	9.0	cue_switch	magnitude	stay	s518	0
370.914	1.0	0.1	True	71.0	Orange-Blue	n/a	twobytwo	71.0	0.736	orange	6.0	task_switch	color	switch	s518	0
373.019	1.0	0.1	True	89.0	High-Low	n/a	twobytwo	89.0	1.071	blue	9.0	task_switch	magnitude	switch	s518	0
375.26	1.0	0.1	True	89.0	Color	n/a	twobytwo	89.0	0.822	blue	9.0	task_switch	color	switch	s518	0
377.5	1.0	0.1	True	71.0	Orange-Blue	switch	twobytwo	71.0	0.892	orange	3.0	cue_switch	color	stay	s518	0
380.678	1.0	0.9	True	71.0	Orange-Blue	stay	twobytwo	71.0	0.914	orange	8.0	cue_stay	color	stay	s518	0
384.007	1.0	0.1	True	89.0	Magnitude	n/a	twobytwo	89.0	0.856	orange	8.0	task_switch	magnitude	switch	s518	0
386.912	1.0	0.9	True	89.0	Magnitude	stay	twobytwo	89.0	0.551	orange	7.0	cue_stay	magnitude	stay	s518	0
389.816	1.0	0.9	True	71.0	High-Low	switch	twobytwo	71.0	0.769	blue	3.0	cue_switch	magnitude	stay	s518	0
392.193	1.0	0.1	True	71.0	High-Low	stay	twobytwo	71.0	0.641	orange	3.0	cue_stay	magnitude	stay	s518	0
395.234	1.0	0.9	True	89.0	High-Low	stay	twobytwo	89.0	0.433	blue	7.0	cue_stay	magnitude	stay	s518	0
397.339	1.0	0.1	True	71.0	Color	n/a	twobytwo	71.0	0.909	orange	9.0	task_switch	color	switch	s518	0
400.243	1.0	0.9	True	71.0	High-Low	n/a	twobytwo	71.0	0.814	blue	4.0	task_switch	magnitude	switch	s518	0
402.349	1.0	0.1	True	71.0	Orange-Blue	n/a	twobytwo	71.0	1.221	orange	4.0	task_switch	color	switch	s518	0
405.134	1.0	0.1	True	71.0	High-Low	n/a	twobytwo	71.0	0.76	orange	3.0	task_switch	magnitude	switch	s518	0
407.238	1.0	0.1	True	71.0	High-Low	stay	twobytwo	71.0	0.726	orange	1.0	cue_stay	magnitude	stay	s518	0
409.614	1.0	0.1	True	71.0	Magnitude	switch	twobytwo	71.0	0.818	orange	3.0	cue_switch	magnitude	stay	s518	0
411.718	1.0	0.1	True	89.0	High-Low	switch	twobytwo	89.0	0.942	orange	9.0	cue_switch	magnitude	stay	s518	0
414.894	1.0	0.9	True	89.0	Orange-Blue	n/a	twobytwo	89.0	0.468	blue	7.0	task_switch	color	switch	s518	0
418.751	1.0	0.9	True	89.0	High-Low	n/a	twobytwo	89.0	0.474	orange	9.0	task_switch	magnitude	switch	s518	0
421.655	1.0	0.9	True	71.0	Color	n/a	twobytwo	71.0	0.65	orange	1.0	task_switch	color	switch	s518	0
423.76	1.0	0.1	True	89.0	Orange-Blue	switch	twobytwo	89.0	0.723	blue	1.0	cue_switch	color	stay	s518	0
426.665	1.0	0.9	False	71.0	High-Low	n/a	twobytwo	89.0	0.751	blue	1.0	task_switch	magnitude	switch	s518	0
429.57	1.0	0.9	True	71.0	Color	n/a	twobytwo	71.0	0.716	orange	2.0	task_switch	color	switch	s518	0
432.61	1.0	0.9	True	71.0	Orange-Blue	switch	twobytwo	71.0	0.615	orange	9.0	cue_switch	color	stay	s518	0
435.514	1.0	0.9	True	89.0	High-Low	n/a	twobytwo	89.0	0.996	orange	8.0	task_switch	magnitude	switch	s518	0
437.618	1.0	0.1	True	71.0	Magnitude	switch	twobytwo	71.0	0.832	orange	4.0	cue_switch	magnitude	stay	s518	0
439.722	1.0	0.1	True	71.0	Color	n/a	twobytwo	71.0	0.934	orange	8.0	task_switch	color	switch	s518	0
442.099	1.0	0.1	True	89.0	Magnitude	n/a	twobytwo	89.0	0.893	orange	9.0	task_switch	magnitude	switch	s518	0
445.14	1.0	0.9	True	89.0	Magnitude	stay	twobytwo	89.0	0.6	orange	7.0	cue_stay	magnitude	stay	s518	0
460.756	1.0	0.1	True	89.0	Color	stay	twobytwo	89.0	0.857	blue	2.0	cue_stay	color	stay	s518	1
463.796	1.0	0.9	True	89.0	Magnitude	n/a	twobytwo	89.0	0.509	orange	8.0	task_switch	magnitude	switch	s518	0
467.516	1.0	0.9	True	71.0	High-Low	switch	twobytwo	71.0	0.52	blue	2.0	cue_switch	magnitude	stay	s518	0
470.827	1.0	0.9	True	89.0	Color	n/a	twobytwo	89.0	0.452	blue	1.0	task_switch	color	switch	s518	0
473.733	1.0	0.9	True	71.0	High-Low	n/a	twobytwo	71.0	0.63	orange	4.0	task_switch	magnitude	switch	s518	0
476.773	1.0	0.9	True	71.0	Color	n/a	twobytwo	71.0	0.649	orange	3.0	task_switch	color	switch	s518	0
479.814	1.0	0.9	True	89.0	Magnitude	n/a	twobytwo	89.0	0.788	orange	9.0	task_switch	magnitude	switch	s518	0
482.855	1.0	0.9	False	89.0	Magnitude	stay	twobytwo	71.0	1.119	blue	6.0	cue_stay	magnitude	stay	s518	0
486.305	1.0	0.9	True	71.0	Orange-Blue	n/a	twobytwo	71.0	0.84	orange	1.0	task_switch	color	switch	s518	0
488.545	1.0	0.1	True	71.0	High-Low	n/a	twobytwo	71.0	0.774	blue	3.0	task_switch	magnitude	switch	s518	0
490.65	1.0	0.1	True	71.0	Color	n/a	twobytwo	71.0	1.012	orange	7.0	task_switch	color	switch	s518	0
492.753	1.0	0.1	True	89.0	Color	stay	twobytwo	89.0	0.843	blue	3.0	cue_stay	color	stay	s518	0
495.658	1.0	0.9	True	71.0	Magnitude	n/a	twobytwo	71.0	0.647	orange	2.0	task_switch	magnitude	switch	s518	0
497.762	1.0	0.1	False	71.0	Color	n/a	twobytwo	89.0	1.03	orange	4.0	task_switch	color	switch	s518	0
500.002	1.0	0.1	True	71.0	Orange-Blue	switch	twobytwo	71.0	1.245	orange	3.0	cue_switch	color	stay	s518	0
502.906	1.0	0.9	True	89.0	Magnitude	n/a	twobytwo	89.0	0.521	orange	8.0	task_switch	magnitude	switch	s518	0
505.01	1.0	0.1	False	71.0	Color	n/a	twobytwo	89.0	0.946	orange	8.0	task_switch	color	switch	s518	0
507.115	1.0	0.1	True	71.0	High-Low	n/a	twobytwo	71.0	0.793	orange	3.0	task_switch	magnitude	switch	s518	0
510.157	1.0	0.9	True	71.0	Color	n/a	twobytwo	71.0	0.563	orange	1.0	task_switch	color	switch	s518	0
513.197	1.0	0.9	True	71.0	Magnitude	n/a	twobytwo	71.0	0.749	blue	2.0	task_switch	magnitude	switch	s518	0
515.437	1.0	0.1	True	89.0	High-Low	switch	twobytwo	89.0	0.72	blue	7.0	cue_switch	magnitude	stay	s518	0
517.677	1.0	0.1	True	89.0	High-Low	stay	twobytwo	89.0	0.794	orange	6.0	cue_stay	magnitude	stay	s518	0
521.262	1.0	0.9	True	71.0	Orange-Blue	n/a	twobytwo	71.0	0.679	orange	7.0	task_switch	color	switch	s518	0
523.91	1.0	0.1	True	71.0	High-Low	n/a	twobytwo	71.0	0.841	orange	2.0	task_switch	magnitude	switch	s518	0
526.286	1.0	0.1	True	71.0	Magnitude	switch	twobytwo	71.0	0.758	orange	4.0	cue_switch	magnitude	stay	s518	0
529.462	1.0	0.9	True	89.0	High-Low	switch	twobytwo	89.0	0.711	blue	7.0	cue_switch	magnitude	stay	s518	0
531.974	1.0	0.1	True	89.0	High-Low	stay	twobytwo	89.0	0.602	blue	7.0	cue_stay	magnitude	stay	s518	0
534.215	1.0	0.1	False	71.0	High-Low	stay	twobytwo	89.0	1.119	blue	4.0	cue_stay	magnitude	stay	s518	0
536.59	1.0	0.1	True	71.0	High-Low	stay	twobytwo	71.0	0.808	blue	1.0	cue_stay	magnitude	stay	s518	0
539.495	1.0	0.9	True	71.0	Magnitude	switch	twobytwo	71.0	0.901	blue	3.0	cue_switch	magnitude	stay	s518	0
541.735	1.0	0.1	True	89.0	Orange-Blue	n/a	twobytwo	89.0	0.964	blue	8.0	task_switch	color	switch	s518	0
544.912	1.0	0.9	True	89.0	Color	switch	twobytwo	89.0	0.866	blue	8.0	cue_switch	color	stay	s518	0
547.817	1.0	0.9	True	71.0	Orange-Blue	switch	twobytwo	71.0	0.854	orange	2.0	cue_switch	color	stay	s518	0
551.401	1.0	0.9	True	89.0	Color	switch	twobytwo	89.0	0.705	blue	7.0	cue_switch	color	stay	s518	0
554.306	1.0	0.9	True	89.0	Orange-Blue	switch	twobytwo	89.0	0.598	blue	8.0	cue_switch	color	stay	s518	0
557.21	1.0	0.9	False	89.0	Orange-Blue	stay	twobytwo	71.0	0.668	blue	2.0	cue_stay	color	stay	s518	0
560.114	1.0	0.9	True	71.0	Color	switch	twobytwo	71.0	0.626	orange	4.0	cue_switch	color	stay	s518	0
562.49	1.0	0.1	True	89.0	Orange-Blue	switch	twobytwo	89.0	0.779	blue	2.0	cue_switch	color	stay	s518	0
565.396	1.0	0.9	True	71.0	Color	switch	twobytwo	71.0	0.927	orange	1.0	cue_switch	color	stay	s518	0
567.501	1.0	0.1	True	89.0	Orange-Blue	switch	twobytwo	89.0	0.891	blue	4.0	cue_switch	color	stay	s518	0
570.405	1.0	0.9	True	89.0	Color	switch	twobytwo	89.0	0.525	blue	9.0	cue_switch	color	stay	s518	0
573.189	1.0	0.1	True	71.0	Color	stay	twobytwo	71.0	0.8	orange	3.0	cue_stay	color	stay	s518	0
575.294	1.0	0.1	True	71.0	Magnitude	n/a	twobytwo	71.0	1.212	blue	4.0	task_switch	magnitude	switch	s518	0
577.535	1.0	0.1	True	71.0	High-Low	switch	twobytwo	71.0	0.981	blue	1.0	cue_switch	magnitude	stay	s518	0
580.047	1.0	0.1	True	71.0	Color	n/a	twobytwo	71.0	0.796	orange	2.0	task_switch	color	switch	s518	0
582.288	1.0	0.1	True	89.0	High-Low	n/a	twobytwo	89.0	0.785	orange	9.0	task_switch	magnitude	switch	s518	0
584.391	1.0	0.1	True	71.0	Orange-Blue	n/a	twobytwo	71.0	0.648	orange	2.0	task_switch	color	switch	s518	0
587.296	1.0	0.9	True	71.0	Color	switch	twobytwo	71.0	0.588	orange	2.0	cue_switch	color	stay	s518	0
590.744	1.0	0.9	True	89.0	Orange-Blue	switch	twobytwo	89.0	0.734	blue	9.0	cue_switch	color	stay	s518	0
592.985	1.0	0.1	True	89.0	Color	switch	twobytwo	89.0	0.749	blue	9.0	cue_switch	color	stay	s518	0
596.433	1.0	0.9	True	71.0	Orange-Blue	switch	twobytwo	71.0	0.747	orange	9.0	cue_switch	color	stay	s518	0
599.217	1.0	0.1	False	89.0	Magnitude	n/a	twobytwo	71.0	1.061	orange	6.0	task_switch	magnitude	switch	s518	0
601.321	1.0	0.1	True	89.0	Color	n/a	twobytwo	89.0	0.897	blue	9.0	task_switch	color	switch	s518	0
603.697	1.0	0.1	True	89.0	High-Low	n/a	twobytwo	89.0	0.809	blue	9.0	task_switch	magnitude	switch	s518	0
606.89	1.0	0.1	True	71.0	Magnitude	switch	twobytwo	71.0	0.756	orange	3.0	cue_switch	magnitude	stay	s518	0
609.794	1.0	0.9	True	89.0	Magnitude	stay	twobytwo	89.0	0.53	orange	8.0	cue_stay	magnitude	stay	s518	0
612.034	1.0	0.1	True	71.0	Orange-Blue	n/a	twobytwo	71.0	1.121	orange	8.0	task_switch	color	switch	s518	0
615.075	1.0	0.9	True	71.0	Orange-Blue	stay	twobytwo	71.0	0.66	orange	7.0	cue_stay	color	stay	s518	0
617.98	1.0	0.9	True	89.0	Color	switch	twobytwo	89.0	0.598	blue	3.0	cue_switch	color	stay	s518	0
620.357	1.0	0.1	True	71.0	Color	stay	twobytwo	71.0	1.101	orange	3.0	cue_stay	color	stay	s518	0
623.261	1.0	0.9	True	89.0	Color	stay	twobytwo	89.0	0.628	blue	7.0	cue_stay	color	stay	s518	0
625.501	1.0	0.1	True	89.0	High-Low	n/a	twobytwo	89.0	1.144	orange	9.0	task_switch	magnitude	switch	s518	0
628.54	1.0	0.9	False	89.0	Orange-Blue	n/a	twobytwo	71.0	0.78	blue	4.0	task_switch	color	switch	s518	0
631.189	1.0	0.1	True	71.0	Magnitude	n/a	twobytwo	71.0	0.711	orange	4.0	task_switch	magnitude	switch	s518	0
633.293	1.0	0.1	True	71.0	Orange-Blue	n/a	twobytwo	71.0	0.768	orange	3.0	task_switch	color	switch	s518	0
635.533	1.0	0.1	True	71.0	Orange-Blue	stay	twobytwo	71.0	0.753	orange	1.0	cue_stay	color	stay	s518	0
637.773	1.0	0.1	True	71.0	Color	switch	twobytwo	71.0	0.643	orange	3.0	cue_switch	color	stay	s518	0
640.013	1.0	0.1	True	71.0	Orange-Blue	switch	twobytwo	71.0	0.804	orange	9.0	cue_switch	color	stay	s518	0
642.919	1.0	0.9	True	89.0	Magnitude	n/a	twobytwo	89.0	1.031	blue	7.0	task_switch	magnitude	switch	s518	0
645.96	1.0	0.9	True	71.0	Color	n/a	twobytwo	71.0	1.075	orange	9.0	task_switch	color	switch	s518	0
648.865	1.0	0.9	True	71.0	Magnitude	n/a	twobytwo	71.0	0.602	orange	1.0	task_switch	magnitude	switch	s518	0
651.105	1.0	0.1	True	71.0	High-Low	switch	twobytwo	71.0	0.922	blue	1.0	cue_switch	magnitude	stay	s518	0
654.825	1.0	0.9	False	89.0	Orange-Blue	n/a	twobytwo	71.0	0.876	blue	1.0	task_switch	color	switch	s518	0
657.865	1.0	0.9	True	71.0	Magnitude	n/a	twobytwo	71.0	0.799	orange	2.0	task_switch	magnitude	switch	s518	0
660.769	1.0	0.9	True	89.0	High-Low	switch	twobytwo	89.0	0.716	orange	9.0	cue_switch	magnitude	stay	s518	0
663.673	1.0	0.9	False	71.0	Orange-Blue	n/a	twobytwo	89.0	0.765	orange	8.0	task_switch	color	switch	s518	0
666.05	1.0	0.1	True	71.0	Color	switch	twobytwo	71.0	1.115	orange	4.0	cue_switch	color	stay	s518	0
668.153	1.0	0.1	True	89.0	High-Low	n/a	twobytwo	89.0	0.814	orange	8.0	task_switch	magnitude	switch	s518	0
670.258	1.0	0.1	True	71.0	Color	n/a	twobytwo	71.0	0.847	orange	9.0	task_switch	color	switch	s518	0
673.162	1.0	0.9	True	71.0	Color	stay	twobytwo	71.0	0.503	orange	7.0	cue_stay	color	stay	s518	0
