onset	duration	planning	condition	current_position	exp_stage	experiment_exp_id	goal_state	key_press	problem_id	response_time	start_state	trial_id	worker_id
-48.186	0.0	0	n/a	n/a	n/a	ward_and_allport	n/a	32.0	n/a	9.596	n/a	instructions	s465
3.006	3.717	1	UA_with_intermediate	1,0,0,2,0,0,0,0,0	practice	ward_and_allport	1,2,3,0,0,0,0,0,0	71.0	0.0	3.717	1,0,0,2,3,0,0,0,0	to_hand	s465
6.724	2.341	0	UA_with_intermediate	1,0,0,2,0,0,3,0,0	practice	ward_and_allport	1,2,3,0,0,0,0,0,0	82.0	0.0	2.341	1,0,0,2,3,0,0,0,0	to_board	s465
9.068	0.894	0	UA_with_intermediate	1,0,0,0,0,0,3,0,0	practice	ward_and_allport	1,2,3,0,0,0,0,0,0	71.0	0.0	0.894	1,0,0,2,3,0,0,0,0	to_hand	s465
9.963	0.707	0	UA_with_intermediate	1,2,0,0,0,0,3,0,0	practice	ward_and_allport	1,2,3,0,0,0,0,0,0	89.0	0.0	0.707	1,0,0,2,3,0,0,0,0	to_board	s465
10.67	1.194	0	UA_with_intermediate	1,2,0,0,0,0,0,0,0	practice	ward_and_allport	1,2,3,0,0,0,0,0,0	82.0	0.0	1.194	1,0,0,2,3,0,0,0,0	to_hand	s465
11.865	0.466	0	UA_with_intermediate	1,2,3,0,0,0,0,0,0	practice	ward_and_allport	1,2,3,0,0,0,0,0,0	89.0	0.0	0.466	1,0,0,2,3,0,0,0,0	to_board	s465
12.335	1.0	0	UA_with_intermediate	n/a	practice	ward_and_allport	n/a	-1.0	0.0	n/a	n/a	feedback	s465
14.838	3.288	1	UA_with_intermediate	1,0,0,3,0,0,0,0,0	practice	ward_and_allport	1,3,2,0,0,0,0,0,0	89.0	1.0	3.288	1,2,0,3,0,0,0,0,0	to_hand	s465
18.127	1.219	0	UA_with_intermediate	1,0,0,3,0,0,2,0,0	practice	ward_and_allport	1,3,2,0,0,0,0,0,0	82.0	1.0	1.219	1,2,0,3,0,0,0,0,0	to_board	s465
19.349	0.747	0	UA_with_intermediate	1,0,0,0,0,0,2,0,0	practice	ward_and_allport	1,3,2,0,0,0,0,0,0	71.0	1.0	0.747	1,2,0,3,0,0,0,0,0	to_hand	s465
20.097	0.439	0	UA_with_intermediate	1,3,0,0,0,0,2,0,0	practice	ward_and_allport	1,3,2,0,0,0,0,0,0	89.0	1.0	0.439	1,2,0,3,0,0,0,0,0	to_board	s465
20.538	0.839	0	UA_with_intermediate	1,3,0,0,0,0,0,0,0	practice	ward_and_allport	1,3,2,0,0,0,0,0,0	82.0	1.0	0.839	1,2,0,3,0,0,0,0,0	to_hand	s465
21.377	0.34	0	UA_with_intermediate	1,3,2,0,0,0,0,0,0	practice	ward_and_allport	1,3,2,0,0,0,0,0,0	89.0	1.0	0.34	1,2,0,3,0,0,0,0,0	to_board	s465
21.719	1.0	0	UA_with_intermediate	n/a	practice	ward_and_allport	n/a	-1.0	1.0	n/a	n/a	feedback	s465
22.719	1.1	0	UA_with_intermediate	n/a	practice	ward_and_allport	n/a	-1.0	1.0	n/a	n/a	ITI	s465
23.821	4.275	1	UA_without_intermediate	0,0,0,1,2,0,0,0,0	practice	ward_and_allport	3,2,1,0,0,0,0,0,0	82.0	2.0	4.275	0,0,0,1,2,0,3,0,0	to_hand	s465
28.096	0.327	0	UA_without_intermediate	3,0,0,1,2,0,0,0,0	practice	ward_and_allport	3,2,1,0,0,0,0,0,0	89.0	2.0	0.327	0,0,0,1,2,0,3,0,0	to_board	s465
28.425	1.116	0	UA_without_intermediate	3,0,0,1,0,0,0,0,0	practice	ward_and_allport	3,2,1,0,0,0,0,0,0	71.0	2.0	1.116	0,0,0,1,2,0,3,0,0	to_hand	s465
29.541	0.238	0	UA_without_intermediate	3,2,0,1,0,0,0,0,0	practice	ward_and_allport	3,2,1,0,0,0,0,0,0	89.0	2.0	0.238	0,0,0,1,2,0,3,0,0	to_board	s465
29.781	0.757	0	UA_without_intermediate	3,2,0,0,0,0,0,0,0	practice	ward_and_allport	3,2,1,0,0,0,0,0,0	71.0	2.0	0.757	0,0,0,1,2,0,3,0,0	to_hand	s465
30.538	0.142	0	UA_without_intermediate	3,2,1,0,0,0,0,0,0	practice	ward_and_allport	3,2,1,0,0,0,0,0,0	89.0	2.0	0.142	0,0,0,1,2,0,3,0,0	to_board	s465
30.684	1.0	0	UA_without_intermediate	n/a	practice	ward_and_allport	n/a	-1.0	2.0	n/a	n/a	feedback	s465
31.684	1.2	0	UA_without_intermediate	n/a	practice	ward_and_allport	n/a	-1.0	2.0	n/a	n/a	ITI	s465
32.886	2.254	1	UA_without_intermediate	0,0,0,1,0,0,3,0,0	practice	ward_and_allport	2,3,1,0,0,0,0,0,0	71.0	3.0	2.254	0,0,0,1,2,0,3,0,0	to_hand	s465
35.14	0.354	0	UA_without_intermediate	2,0,0,1,0,0,3,0,0	practice	ward_and_allport	2,3,1,0,0,0,0,0,0	89.0	3.0	0.354	0,0,0,1,2,0,3,0,0	to_board	s465
35.498	1.273	0	UA_without_intermediate	2,0,0,1,0,0,0,0,0	practice	ward_and_allport	2,3,1,0,0,0,0,0,0	82.0	3.0	1.273	0,0,0,1,2,0,3,0,0	to_hand	s465
36.772	0.803	0	UA_without_intermediate	2,3,0,1,0,0,0,0,0	practice	ward_and_allport	2,3,1,0,0,0,0,0,0	89.0	3.0	0.803	0,0,0,1,2,0,3,0,0	to_board	s465
37.576	1.078	0	UA_without_intermediate	2,3,0,0,0,0,0,0,0	practice	ward_and_allport	2,3,1,0,0,0,0,0,0	71.0	3.0	1.078	0,0,0,1,2,0,3,0,0	to_hand	s465
38.655	0.426	0	UA_without_intermediate	2,3,1,0,0,0,0,0,0	practice	ward_and_allport	2,3,1,0,0,0,0,0,0	89.0	3.0	0.426	0,0,0,1,2,0,3,0,0	to_board	s465
39.085	1.0	0	UA_without_intermediate	n/a	practice	ward_and_allport	n/a	-1.0	3.0	n/a	n/a	feedback	s465
40.085	1.0	0	UA_without_intermediate	n/a	practice	ward_and_allport	n/a	-1.0	3.0	n/a	n/a	ITI	s465
43.09	2.324	1	PA_with_intermediate	0,0,0,1,2,0,0,0,0	test	ward_and_allport	0,0,0,1,0,0,2,3,0	71.0	0.0	2.324	0,0,0,1,2,3,0,0,0	to_hand	s465
45.415	0.331	0	PA_with_intermediate	3,0,0,1,2,0,0,0,0	test	ward_and_allport	0,0,0,1,0,0,2,3,0	89.0	0.0	0.331	0,0,0,1,2,3,0,0,0	to_board	s465
45.748	0.655	0	PA_with_intermediate	3,0,0,1,0,0,0,0,0	test	ward_and_allport	0,0,0,1,0,0,2,3,0	71.0	0.0	0.655	0,0,0,1,2,3,0,0,0	to_hand	s465
46.404	0.276	0	PA_with_intermediate	3,0,0,1,0,0,2,0,0	test	ward_and_allport	0,0,0,1,0,0,2,3,0	82.0	0.0	0.276	0,0,0,1,2,3,0,0,0	to_board	s465
46.681	2.281	0	PA_with_intermediate	0,0,0,1,0,0,2,0,0	test	ward_and_allport	0,0,0,1,0,0,2,3,0	89.0	0.0	2.281	0,0,0,1,2,3,0,0,0	to_hand	s465
48.963	0.718	0	PA_with_intermediate	0,0,0,1,0,0,2,3,0	test	ward_and_allport	0,0,0,1,0,0,2,3,0	82.0	0.0	0.718	0,0,0,1,2,3,0,0,0	to_board	s465
49.683	1.0	0	PA_with_intermediate	n/a	test	ward_and_allport	n/a	-1.0	0.0	n/a	n/a	feedback	s465
50.683	1.408	0	PA_with_intermediate	n/a	test	ward_and_allport	n/a	-1.0	0.0	n/a	n/a	ITI	s465
52.092	2.837	1	PA_without_intermediate	1,2,0,0,0,0,0,0,0	test	ward_and_allport	0,0,0,1,0,0,3,2,0	89.0	1.0	2.837	1,2,3,0,0,0,0,0,0	to_hand	s465
54.93	0.711	0	PA_without_intermediate	1,2,0,0,0,0,3,0,0	test	ward_and_allport	0,0,0,1,0,0,3,2,0	82.0	1.0	0.711	1,2,3,0,0,0,0,0,0	to_board	s465
55.643	0.782	0	PA_without_intermediate	1,0,0,0,0,0,3,0,0	test	ward_and_allport	0,0,0,1,0,0,3,2,0	89.0	1.0	0.782	1,2,3,0,0,0,0,0,0	to_hand	s465
56.426	0.626	0	PA_without_intermediate	1,0,0,0,0,0,3,2,0	test	ward_and_allport	0,0,0,1,0,0,3,2,0	82.0	1.0	0.626	1,2,3,0,0,0,0,0,0	to_board	s465
57.054	1.598	0	PA_without_intermediate	0,0,0,0,0,0,3,2,0	test	ward_and_allport	0,0,0,1,0,0,3,2,0	89.0	1.0	1.598	1,2,3,0,0,0,0,0,0	to_hand	s465
58.654	0.815	0	PA_without_intermediate	0,0,0,1,0,0,3,2,0	test	ward_and_allport	0,0,0,1,0,0,3,2,0	71.0	1.0	0.815	1,2,3,0,0,0,0,0,0	to_board	s465
59.472	1.0	0	PA_without_intermediate	n/a	test	ward_and_allport	n/a	-1.0	1.0	n/a	n/a	feedback	s465
60.472	1.68	0	PA_without_intermediate	n/a	test	ward_and_allport	n/a	-1.0	1.0	n/a	n/a	ITI	s465
62.155	3.021	1	PA_with_intermediate	0,0,0,1,2,0,0,0,0	test	ward_and_allport	2,3,0,1,0,0,0,0,0	71.0	2.0	3.021	0,0,0,1,2,3,0,0,0	to_hand	s465
65.177	0.249	0	PA_with_intermediate	0,0,0,1,2,0,3,0,0	test	ward_and_allport	2,3,0,1,0,0,0,0,0	82.0	2.0	0.249	0,0,0,1,2,3,0,0,0	to_board	s465
65.428	0.901	0	PA_with_intermediate	0,0,0,1,0,0,3,0,0	test	ward_and_allport	2,3,0,1,0,0,0,0,0	71.0	2.0	0.901	0,0,0,1,2,3,0,0,0	to_hand	s465
66.33	0.326	0	PA_with_intermediate	2,0,0,1,0,0,3,0,0	test	ward_and_allport	2,3,0,1,0,0,0,0,0	89.0	2.0	0.326	0,0,0,1,2,3,0,0,0	to_board	s465
66.658	1.422	0	PA_with_intermediate	2,0,0,1,0,0,0,0,0	test	ward_and_allport	2,3,0,1,0,0,0,0,0	82.0	2.0	1.422	0,0,0,1,2,3,0,0,0	to_hand	s465
68.081	0.381	0	PA_with_intermediate	2,3,0,1,0,0,0,0,0	test	ward_and_allport	2,3,0,1,0,0,0,0,0	89.0	2.0	0.381	0,0,0,1,2,3,0,0,0	to_board	s465
68.465	1.0	0	PA_with_intermediate	n/a	test	ward_and_allport	n/a	-1.0	2.0	n/a	n/a	feedback	s465
69.465	3.72	0	PA_with_intermediate	n/a	test	ward_and_allport	n/a	-1.0	2.0	n/a	n/a	ITI	s465
73.187	2.734	1	PA_without_intermediate	1,2,0,0,0,0,0,0,0	test	ward_and_allport	0,0,0,3,2,0,1,0,0	89.0	3.0	2.734	1,2,3,0,0,0,0,0,0	to_hand	s465
75.922	1.003	0	PA_without_intermediate	1,2,0,3,0,0,0,0,0	test	ward_and_allport	0,0,0,3,2,0,1,0,0	71.0	3.0	1.003	1,2,3,0,0,0,0,0,0	to_board	s465
76.927	2.603	0	PA_without_intermediate	1,0,0,3,0,0,0,0,0	test	ward_and_allport	0,0,0,3,2,0,1,0,0	89.0	3.0	2.603	1,2,3,0,0,0,0,0,0	to_hand	s465
79.532	0.873	0	PA_without_intermediate	1,0,0,3,2,0,0,0,0	test	ward_and_allport	0,0,0,3,2,0,1,0,0	71.0	3.0	0.873	1,2,3,0,0,0,0,0,0	to_board	s465
80.407	0.674	0	PA_without_intermediate	0,0,0,3,2,0,0,0,0	test	ward_and_allport	0,0,0,3,2,0,1,0,0	89.0	3.0	0.674	1,2,3,0,0,0,0,0,0	to_hand	s465
81.082	0.459	0	PA_without_intermediate	0,0,0,3,2,0,1,0,0	test	ward_and_allport	0,0,0,3,2,0,1,0,0	82.0	3.0	0.459	1,2,3,0,0,0,0,0,0	to_board	s465
81.546	1.0	0	PA_without_intermediate	n/a	test	ward_and_allport	n/a	-1.0	3.0	n/a	n/a	feedback	s465
82.546	2.224	0	PA_without_intermediate	n/a	test	ward_and_allport	n/a	-1.0	3.0	n/a	n/a	ITI	s465
84.771	2.916	1	PA_without_intermediate	0,0,0,0,0,0,1,2,0	test	ward_and_allport	1,0,0,3,2,0,0,0,0	82.0	4.0	2.916	0,0,0,0,0,0,1,2,3	to_hand	s465
87.688	0.675	0	PA_without_intermediate	0,0,0,3,0,0,1,2,0	test	ward_and_allport	1,0,0,3,2,0,0,0,0	71.0	4.0	0.675	0,0,0,0,0,0,1,2,3	to_board	s465
88.365	1.77	0	PA_without_intermediate	0,0,0,3,0,0,1,0,0	test	ward_and_allport	1,0,0,3,2,0,0,0,0	82.0	4.0	1.77	0,0,0,0,0,0,1,2,3	to_hand	s465
90.136	0.751	0	PA_without_intermediate	0,0,0,3,2,0,1,0,0	test	ward_and_allport	1,0,0,3,2,0,0,0,0	71.0	4.0	0.751	0,0,0,0,0,0,1,2,3	to_board	s465
90.891	0.908	0	PA_without_intermediate	0,0,0,3,2,0,0,0,0	test	ward_and_allport	1,0,0,3,2,0,0,0,0	82.0	4.0	0.908	0,0,0,0,0,0,1,2,3	to_hand	s465
91.799	0.297	0	PA_without_intermediate	1,0,0,3,2,0,0,0,0	test	ward_and_allport	1,0,0,3,2,0,0,0,0	89.0	4.0	0.297	0,0,0,0,0,0,1,2,3	to_board	s465
92.1	1.0	0	PA_without_intermediate	n/a	test	ward_and_allport	n/a	-1.0	4.0	n/a	n/a	feedback	s465
93.1	1.272	0	PA_without_intermediate	n/a	test	ward_and_allport	n/a	-1.0	4.0	n/a	n/a	ITI	s465
94.375	3.459	1	PA_with_intermediate	0,0,0,0,0,0,1,2,0	test	ward_and_allport	0,0,0,2,0,0,1,3,0	82.0	5.0	3.459	0,0,0,0,0,0,1,2,3	to_hand	s465
97.836	0.657	0	PA_with_intermediate	3,0,0,0,0,0,1,2,0	test	ward_and_allport	0,0,0,2,0,0,1,3,0	89.0	5.0	0.657	0,0,0,0,0,0,1,2,3	to_board	s465
98.494	1.247	0	PA_with_intermediate	3,0,0,0,0,0,1,0,0	test	ward_and_allport	0,0,0,2,0,0,1,3,0	82.0	5.0	1.247	0,0,0,0,0,0,1,2,3	to_hand	s465
99.743	0.582	0	PA_with_intermediate	3,0,0,2,0,0,1,0,0	test	ward_and_allport	0,0,0,2,0,0,1,3,0	71.0	5.0	0.582	0,0,0,0,0,0,1,2,3	to_board	s465
100.328	0.836	0	PA_with_intermediate	0,0,0,2,0,0,1,0,0	test	ward_and_allport	0,0,0,2,0,0,1,3,0	89.0	5.0	0.836	0,0,0,0,0,0,1,2,3	to_hand	s465
101.166	0.318	0	PA_with_intermediate	0,0,0,2,0,0,1,3,0	test	ward_and_allport	0,0,0,2,0,0,1,3,0	82.0	5.0	0.318	0,0,0,0,0,0,1,2,3	to_board	s465
101.488	1.0	0	PA_with_intermediate	n/a	test	ward_and_allport	n/a	-1.0	5.0	n/a	n/a	feedback	s465
102.488	2.632	0	PA_with_intermediate	n/a	test	ward_and_allport	n/a	-1.0	5.0	n/a	n/a	ITI	s465
105.123	3.131	1	PA_without_intermediate	0,0,0,0,0,0,1,2,0	test	ward_and_allport	2,0,0,3,1,0,0,0,0	82.0	6.0	3.131	0,0,0,0,0,0,1,2,3	to_hand	s465
108.256	0.353	0	PA_without_intermediate	0,0,0,3,0,0,1,2,0	test	ward_and_allport	2,0,0,3,1,0,0,0,0	71.0	6.0	0.353	0,0,0,0,0,0,1,2,3	to_board	s465
108.611	0.931	0	PA_without_intermediate	0,0,0,3,0,0,1,0,0	test	ward_and_allport	2,0,0,3,1,0,0,0,0	82.0	6.0	0.931	0,0,0,0,0,0,1,2,3	to_hand	s465
109.542	0.236	0	PA_without_intermediate	2,0,0,3,0,0,1,0,0	test	ward_and_allport	2,0,0,3,1,0,0,0,0	89.0	6.0	0.236	0,0,0,0,0,0,1,2,3	to_board	s465
109.781	0.997	0	PA_without_intermediate	2,0,0,3,0,0,0,0,0	test	ward_and_allport	2,0,0,3,1,0,0,0,0	82.0	6.0	0.997	0,0,0,0,0,0,1,2,3	to_hand	s465
110.78	0.472	0	PA_without_intermediate	2,0,0,3,1,0,0,0,0	test	ward_and_allport	2,0,0,3,1,0,0,0,0	71.0	6.0	0.472	0,0,0,0,0,0,1,2,3	to_board	s465
111.256	1.0	0	PA_without_intermediate	n/a	test	ward_and_allport	n/a	-1.0	6.0	n/a	n/a	feedback	s465
112.256	1.408	0	PA_without_intermediate	n/a	test	ward_and_allport	n/a	-1.0	6.0	n/a	n/a	ITI	s465
113.668	2.518	1	PA_without_intermediate	0,0,0,0,0,0,1,2,0	test	ward_and_allport	3,1,0,2,0,0,0,0,0	82.0	7.0	2.518	0,0,0,0,0,0,1,2,3	to_hand	s465
116.188	0.279	0	PA_without_intermediate	3,0,0,0,0,0,1,2,0	test	ward_and_allport	3,1,0,2,0,0,0,0,0	89.0	7.0	0.279	0,0,0,0,0,0,1,2,3	to_board	s465
116.469	1.249	0	PA_without_intermediate	3,0,0,0,0,0,1,0,0	test	ward_and_allport	3,1,0,2,0,0,0,0,0	82.0	7.0	1.249	0,0,0,0,0,0,1,2,3	to_hand	s465
117.72	0.37	0	PA_without_intermediate	3,0,0,2,0,0,1,0,0	test	ward_and_allport	3,1,0,2,0,0,0,0,0	71.0	7.0	0.37	0,0,0,0,0,0,1,2,3	to_board	s465
118.092	0.501	0	PA_without_intermediate	3,0,0,2,0,0,0,0,0	test	ward_and_allport	3,1,0,2,0,0,0,0,0	82.0	7.0	0.501	0,0,0,0,0,0,1,2,3	to_hand	s465
118.594	0.238	0	PA_without_intermediate	3,1,0,2,0,0,0,0,0	test	ward_and_allport	3,1,0,2,0,0,0,0,0	89.0	7.0	0.238	0,0,0,0,0,0,1,2,3	to_board	s465
118.837	1.0	0	PA_without_intermediate	n/a	test	ward_and_allport	n/a	-1.0	7.0	n/a	n/a	feedback	s465
119.837	1.0	0	PA_without_intermediate	n/a	test	ward_and_allport	n/a	-1.0	7.0	n/a	n/a	ITI	s465
120.84	4.05	1	PA_with_intermediate	1,2,0,0,0,0,0,0,0	test	ward_and_allport	1,0,0,0,0,0,2,3,0	89.0	8.0	4.05	1,2,3,0,0,0,0,0,0	to_hand	s465
124.891	0.314	0	PA_with_intermediate	1,2,0,0,0,0,3,0,0	test	ward_and_allport	1,0,0,0,0,0,2,3,0	82.0	8.0	0.314	1,2,3,0,0,0,0,0,0	to_board	s465
125.208	1.78	0	PA_with_intermediate	1,2,0,0,0,0,0,0,0	test	ward_and_allport	1,0,0,0,0,0,2,3,0	82.0	8.0	1.78	1,2,3,0,0,0,0,0,0	to_hand	s465
126.988	0.553	0	PA_with_intermediate	1,2,0,3,0,0,0,0,0	test	ward_and_allport	1,0,0,0,0,0,2,3,0	71.0	8.0	0.553	1,2,3,0,0,0,0,0,0	to_board	s465
127.543	0.68	0	PA_with_intermediate	1,0,0,3,0,0,0,0,0	test	ward_and_allport	1,0,0,0,0,0,2,3,0	89.0	8.0	0.68	1,2,3,0,0,0,0,0,0	to_hand	s465
128.225	0.698	0	PA_with_intermediate	1,0,0,3,0,0,2,0,0	test	ward_and_allport	1,0,0,0,0,0,2,3,0	82.0	8.0	0.698	1,2,3,0,0,0,0,0,0	to_board	s465
128.927	0.721	0	PA_with_intermediate	1,0,0,0,0,0,2,0,0	test	ward_and_allport	1,0,0,0,0,0,2,3,0	71.0	8.0	0.721	1,2,3,0,0,0,0,0,0	to_hand	s465
129.649	0.328	0	PA_with_intermediate	1,0,0,0,0,0,2,3,0	test	ward_and_allport	1,0,0,0,0,0,2,3,0	82.0	8.0	0.328	1,2,3,0,0,0,0,0,0	to_board	s465
129.981	1.0	0	PA_with_intermediate	n/a	test	ward_and_allport	n/a	-1.0	8.0	n/a	n/a	feedback	s465
130.981	1.0	0	PA_with_intermediate	n/a	test	ward_and_allport	n/a	-1.0	8.0	n/a	n/a	ITI	s465
131.985	2.895	1	PA_with_intermediate	1,2,0,0,0,0,0,0,0	test	ward_and_allport	1,3,0,2,0,0,0,0,0	89.0	9.0	2.895	1,2,3,0,0,0,0,0,0	to_hand	s465
134.88	0.248	0	PA_with_intermediate	1,2,0,0,0,0,3,0,0	test	ward_and_allport	1,3,0,2,0,0,0,0,0	82.0	9.0	0.248	1,2,3,0,0,0,0,0,0	to_board	s465
135.131	0.759	0	PA_with_intermediate	1,0,0,0,0,0,3,0,0	test	ward_and_allport	1,3,0,2,0,0,0,0,0	89.0	9.0	0.759	1,2,3,0,0,0,0,0,0	to_hand	s465
135.89	0.511	0	PA_with_intermediate	1,0,0,2,0,0,3,0,0	test	ward_and_allport	1,3,0,2,0,0,0,0,0	71.0	9.0	0.511	1,2,3,0,0,0,0,0,0	to_board	s465
136.405	0.612	0	PA_with_intermediate	1,0,0,2,0,0,0,0,0	test	ward_and_allport	1,3,0,2,0,0,0,0,0	82.0	9.0	0.612	1,2,3,0,0,0,0,0,0	to_hand	s465
137.017	0.223	0	PA_with_intermediate	1,3,0,2,0,0,0,0,0	test	ward_and_allport	1,3,0,2,0,0,0,0,0	89.0	9.0	0.223	1,2,3,0,0,0,0,0,0	to_board	s465
137.246	1.0	0	PA_with_intermediate	n/a	test	ward_and_allport	n/a	-1.0	9.0	n/a	n/a	feedback	s465
138.246	1.0	0	PA_with_intermediate	n/a	test	ward_and_allport	n/a	-1.0	9.0	n/a	n/a	ITI	s465
139.249	3.812	1	PA_with_intermediate	1,2,0,0,0,0,0,0,0	test	ward_and_allport	1,0,0,0,0,0,2,3,0	89.0	10.0	3.812	1,2,3,0,0,0,0,0,0	to_hand	s465
143.063	0.678	0	PA_with_intermediate	1,2,0,3,0,0,0,0,0	test	ward_and_allport	1,0,0,0,0,0,2,3,0	71.0	10.0	0.678	1,2,3,0,0,0,0,0,0	to_board	s465
143.746	0.603	0	PA_with_intermediate	1,0,0,3,0,0,0,0,0	test	ward_and_allport	1,0,0,0,0,0,2,3,0	89.0	10.0	0.603	1,2,3,0,0,0,0,0,0	to_hand	s465
144.349	0.359	0	PA_with_intermediate	1,0,0,3,0,0,2,0,0	test	ward_and_allport	1,0,0,0,0,0,2,3,0	82.0	10.0	0.359	1,2,3,0,0,0,0,0,0	to_board	s465
144.713	1.0	0	PA_with_intermediate	1,0,0,0,0,0,2,0,0	test	ward_and_allport	1,0,0,0,0,0,2,3,0	71.0	10.0	1.0	1,2,3,0,0,0,0,0,0	to_hand	s465
145.714	0.208	0	PA_with_intermediate	1,0,0,0,0,0,2,3,0	test	ward_and_allport	1,0,0,0,0,0,2,3,0	82.0	10.0	0.208	1,2,3,0,0,0,0,0,0	to_board	s465
145.928	1.0	0	PA_with_intermediate	n/a	test	ward_and_allport	n/a	-1.0	10.0	n/a	n/a	feedback	s465
146.928	1.408	0	PA_with_intermediate	n/a	test	ward_and_allport	n/a	-1.0	10.0	n/a	n/a	ITI	s465
148.341	3.14	1	PA_without_intermediate	0,0,0,1,2,0,0,0,0	test	ward_and_allport	2,0,0,0,0,0,3,1,0	71.0	11.0	3.14	0,0,0,1,2,3,0,0,0	to_hand	s465
151.481	0.241	0	PA_without_intermediate	0,0,0,1,2,0,3,0,0	test	ward_and_allport	2,0,0,0,0,0,3,1,0	82.0	11.0	0.241	0,0,0,1,2,3,0,0,0	to_board	s465
151.725	1.071	0	PA_without_intermediate	0,0,0,1,0,0,3,0,0	test	ward_and_allport	2,0,0,0,0,0,3,1,0	71.0	11.0	1.071	0,0,0,1,2,3,0,0,0	to_hand	s465
152.796	0.16	0	PA_without_intermediate	2,0,0,1,0,0,3,0,0	test	ward_and_allport	2,0,0,0,0,0,3,1,0	89.0	11.0	0.16	0,0,0,1,2,3,0,0,0	to_board	s465
152.959	0.728	0	PA_without_intermediate	2,0,0,0,0,0,3,0,0	test	ward_and_allport	2,0,0,0,0,0,3,1,0	71.0	11.0	0.728	0,0,0,1,2,3,0,0,0	to_hand	s465
153.688	0.157	0	PA_without_intermediate	2,0,0,0,0,0,3,1,0	test	ward_and_allport	2,0,0,0,0,0,3,1,0	82.0	11.0	0.157	0,0,0,1,2,3,0,0,0	to_board	s465
153.85	1.0	0	PA_without_intermediate	n/a	test	ward_and_allport	n/a	-1.0	11.0	n/a	n/a	feedback	s465
154.85	1.816	0	PA_without_intermediate	n/a	test	ward_and_allport	n/a	-1.0	11.0	n/a	n/a	ITI	s465
156.67	2.795	1	PA_with_intermediate	0,0,0,0,0,0,1,2,0	test	ward_and_allport	2,3,0,0,0,0,1,0,0	82.0	12.0	2.795	0,0,0,0,0,0,1,2,3	to_hand	s465
159.466	0.27	0	PA_with_intermediate	0,0,0,3,0,0,1,2,0	test	ward_and_allport	2,3,0,0,0,0,1,0,0	71.0	12.0	0.27	0,0,0,0,0,0,1,2,3	to_board	s465
159.74	0.598	0	PA_with_intermediate	0,0,0,3,0,0,1,0,0	test	ward_and_allport	2,3,0,0,0,0,1,0,0	82.0	12.0	0.598	0,0,0,0,0,0,1,2,3	to_hand	s465
160.339	0.266	0	PA_with_intermediate	2,0,0,3,0,0,1,0,0	test	ward_and_allport	2,3,0,0,0,0,1,0,0	89.0	12.0	0.266	0,0,0,0,0,0,1,2,3	to_board	s465
160.61	0.84	0	PA_with_intermediate	2,0,0,0,0,0,1,0,0	test	ward_and_allport	2,3,0,0,0,0,1,0,0	71.0	12.0	0.84	0,0,0,0,0,0,1,2,3	to_hand	s465
161.451	0.33	0	PA_with_intermediate	2,3,0,0,0,0,1,0,0	test	ward_and_allport	2,3,0,0,0,0,1,0,0	89.0	12.0	0.33	0,0,0,0,0,0,1,2,3	to_board	s465
161.787	1.0	0	PA_with_intermediate	n/a	test	ward_and_allport	n/a	-1.0	12.0	n/a	n/a	feedback	s465
162.787	3.176	0	PA_with_intermediate	n/a	test	ward_and_allport	n/a	-1.0	12.0	n/a	n/a	ITI	s465
165.967	2.522	1	PA_with_intermediate	0,0,0,0,0,0,1,2,0	test	ward_and_allport	2,0,0,0,0,0,1,3,0	82.0	13.0	2.522	0,0,0,0,0,0,1,2,3	to_hand	s465
168.49	0.275	0	PA_with_intermediate	0,0,0,3,0,0,1,2,0	test	ward_and_allport	2,0,0,0,0,0,1,3,0	71.0	13.0	0.275	0,0,0,0,0,0,1,2,3	to_board	s465
168.769	0.936	0	PA_with_intermediate	0,0,0,3,0,0,1,0,0	test	ward_and_allport	2,0,0,0,0,0,1,3,0	82.0	13.0	0.936	0,0,0,0,0,0,1,2,3	to_hand	s465
169.708	0.171	0	PA_with_intermediate	2,0,0,3,0,0,1,0,0	test	ward_and_allport	2,0,0,0,0,0,1,3,0	89.0	13.0	0.171	0,0,0,0,0,0,1,2,3	to_board	s465
169.882	0.481	0	PA_with_intermediate	2,0,0,0,0,0,1,0,0	test	ward_and_allport	2,0,0,0,0,0,1,3,0	71.0	13.0	0.481	0,0,0,0,0,0,1,2,3	to_hand	s465
170.364	0.197	0	PA_with_intermediate	2,0,0,0,0,0,1,3,0	test	ward_and_allport	2,0,0,0,0,0,1,3,0	82.0	13.0	0.197	0,0,0,0,0,0,1,2,3	to_board	s465
170.566	1.0	0	PA_with_intermediate	n/a	test	ward_and_allport	n/a	-1.0	13.0	n/a	n/a	feedback	s465
171.566	2.36	0	PA_with_intermediate	n/a	test	ward_and_allport	n/a	-1.0	13.0	n/a	n/a	ITI	s465
173.929	2.133	1	PA_with_intermediate	0,0,0,0,0,0,1,2,0	test	ward_and_allport	0,0,0,2,3,0,1,0,0	82.0	14.0	2.133	0,0,0,0,0,0,1,2,3	to_hand	s465
176.062	0.208	0	PA_with_intermediate	3,0,0,0,0,0,1,2,0	test	ward_and_allport	0,0,0,2,3,0,1,0,0	89.0	14.0	0.208	0,0,0,0,0,0,1,2,3	to_board	s465
176.274	0.71	0	PA_with_intermediate	3,0,0,0,0,0,1,0,0	test	ward_and_allport	0,0,0,2,3,0,1,0,0	82.0	14.0	0.71	0,0,0,0,0,0,1,2,3	to_hand	s465
176.985	0.638	0	PA_with_intermediate	3,0,0,2,0,0,1,0,0	test	ward_and_allport	0,0,0,2,3,0,1,0,0	71.0	14.0	0.638	0,0,0,0,0,0,1,2,3	to_board	s465
177.626	0.646	0	PA_with_intermediate	0,0,0,2,0,0,1,0,0	test	ward_and_allport	0,0,0,2,3,0,1,0,0	89.0	14.0	0.646	0,0,0,0,0,0,1,2,3	to_hand	s465
178.274	0.197	0	PA_with_intermediate	0,0,0,2,0,0,1,3,0	test	ward_and_allport	0,0,0,2,3,0,1,0,0	82.0	14.0	0.197	0,0,0,0,0,0,1,2,3	to_board	s465
178.474	1.48	0	PA_with_intermediate	0,0,0,2,0,0,1,0,0	test	ward_and_allport	0,0,0,2,3,0,1,0,0	82.0	14.0	1.48	0,0,0,0,0,0,1,2,3	to_hand	s465
179.955	0.63	0	PA_with_intermediate	0,0,0,2,3,0,1,0,0	test	ward_and_allport	0,0,0,2,3,0,1,0,0	71.0	14.0	0.63	0,0,0,0,0,0,1,2,3	to_board	s465
180.591	1.0	0	PA_with_intermediate	n/a	test	ward_and_allport	n/a	-1.0	14.0	n/a	n/a	feedback	s465
181.591	1.0	0	PA_with_intermediate	n/a	test	ward_and_allport	n/a	-1.0	14.0	n/a	n/a	ITI	s465
187.598	2.259	1	PA_without_intermediate	0,0,0,1,2,0,0,0,0	test	ward_and_allport	2,0,0,0,0,0,3,1,0	71.0	15.0	2.259	0,0,0,1,2,3,0,0,0	to_hand	s465
189.858	0.351	0	PA_without_intermediate	0,0,0,1,2,0,3,0,0	test	ward_and_allport	2,0,0,0,0,0,3,1,0	82.0	15.0	0.351	0,0,0,1,2,3,0,0,0	to_board	s465
190.214	1.432	0	PA_without_intermediate	0,0,0,1,0,0,3,0,0	test	ward_and_allport	2,0,0,0,0,0,3,1,0	71.0	15.0	1.432	0,0,0,1,2,3,0,0,0	to_hand	s465
191.647	0.357	0	PA_without_intermediate	2,0,0,1,0,0,3,0,0	test	ward_and_allport	2,0,0,0,0,0,3,1,0	89.0	15.0	0.357	0,0,0,1,2,3,0,0,0	to_board	s465
192.008	0.497	0	PA_without_intermediate	2,0,0,0,0,0,3,0,0	test	ward_and_allport	2,0,0,0,0,0,3,1,0	71.0	15.0	0.497	0,0,0,1,2,3,0,0,0	to_hand	s465
192.505	0.26	0	PA_without_intermediate	2,0,0,0,0,0,3,1,0	test	ward_and_allport	2,0,0,0,0,0,3,1,0	82.0	15.0	0.26	0,0,0,1,2,3,0,0,0	to_board	s465
192.771	1.0	0	PA_without_intermediate	n/a	test	ward_and_allport	n/a	-1.0	15.0	n/a	n/a	feedback	s465
193.771	1.408	0	PA_without_intermediate	n/a	test	ward_and_allport	n/a	-1.0	15.0	n/a	n/a	ITI	s465
195.183	3.78	1	PA_with_intermediate	0,0,0,0,0,0,1,2,0	test	ward_and_allport	2,3,0,0,0,0,1,0,0	82.0	16.0	3.78	0,0,0,0,0,0,1,2,3	to_hand	s465
198.963	0.333	0	PA_with_intermediate	0,0,0,3,0,0,1,2,0	test	ward_and_allport	2,3,0,0,0,0,1,0,0	71.0	16.0	0.333	0,0,0,0,0,0,1,2,3	to_board	s465
199.3	0.684	0	PA_with_intermediate	0,0,0,3,0,0,1,0,0	test	ward_and_allport	2,3,0,0,0,0,1,0,0	82.0	16.0	0.684	0,0,0,0,0,0,1,2,3	to_hand	s465
199.985	0.386	0	PA_with_intermediate	2,0,0,3,0,0,1,0,0	test	ward_and_allport	2,3,0,0,0,0,1,0,0	89.0	16.0	0.386	0,0,0,0,0,0,1,2,3	to_board	s465
200.375	0.754	0	PA_with_intermediate	2,0,0,0,0,0,1,0,0	test	ward_and_allport	2,3,0,0,0,0,1,0,0	71.0	16.0	0.754	0,0,0,0,0,0,1,2,3	to_hand	s465
201.129	0.161	0	PA_with_intermediate	2,3,0,0,0,0,1,0,0	test	ward_and_allport	2,3,0,0,0,0,1,0,0	89.0	16.0	0.161	0,0,0,0,0,0,1,2,3	to_board	s465
201.297	1.0	0	PA_with_intermediate	n/a	test	ward_and_allport	n/a	-1.0	16.0	n/a	n/a	feedback	s465
202.297	1.816	0	PA_with_intermediate	n/a	test	ward_and_allport	n/a	-1.0	16.0	n/a	n/a	ITI	s465
204.118	4.892	1	PA_without_intermediate	1,2,0,0,0,0,0,0,0	test	ward_and_allport	0,0,0,3,2,0,1,0,0	89.0	17.0	4.892	1,2,3,0,0,0,0,0,0	to_hand	s465
209.012	1.384	0	PA_without_intermediate	1,2,0,3,0,0,0,0,0	test	ward_and_allport	0,0,0,3,2,0,1,0,0	71.0	17.0	1.384	1,2,3,0,0,0,0,0,0	to_board	s465
210.401	1.128	0	PA_without_intermediate	1,0,0,3,0,0,0,0,0	test	ward_and_allport	0,0,0,3,2,0,1,0,0	89.0	17.0	1.128	1,2,3,0,0,0,0,0,0	to_hand	s465
211.53	0.586	0	PA_without_intermediate	1,0,0,3,2,0,0,0,0	test	ward_and_allport	0,0,0,3,2,0,1,0,0	71.0	17.0	0.586	1,2,3,0,0,0,0,0,0	to_board	s465
212.121	0.406	0	PA_without_intermediate	0,0,0,3,2,0,0,0,0	test	ward_and_allport	0,0,0,3,2,0,1,0,0	89.0	17.0	0.406	1,2,3,0,0,0,0,0,0	to_hand	s465
212.528	0.569	0	PA_without_intermediate	0,0,0,3,2,0,1,0,0	test	ward_and_allport	0,0,0,3,2,0,1,0,0	82.0	17.0	0.569	1,2,3,0,0,0,0,0,0	to_board	s465
213.103	1.0	0	PA_without_intermediate	n/a	test	ward_and_allport	n/a	-1.0	17.0	n/a	n/a	feedback	s465
214.103	2.088	0	PA_without_intermediate	n/a	test	ward_and_allport	n/a	-1.0	17.0	n/a	n/a	ITI	s465
216.196	2.677	1	PA_without_intermediate	0,0,0,0,0,0,1,2,0	test	ward_and_allport	1,0,0,3,2,0,0,0,0	82.0	18.0	2.677	0,0,0,0,0,0,1,2,3	to_hand	s465
218.874	0.554	0	PA_without_intermediate	0,0,0,3,0,0,1,2,0	test	ward_and_allport	1,0,0,3,2,0,0,0,0	71.0	18.0	0.554	0,0,0,0,0,0,1,2,3	to_board	s465
219.432	1.629	0	PA_without_intermediate	0,0,0,3,0,0,1,0,0	test	ward_and_allport	1,0,0,3,2,0,0,0,0	82.0	18.0	1.629	0,0,0,0,0,0,1,2,3	to_hand	s465
221.062	0.396	0	PA_without_intermediate	0,0,0,3,2,0,1,0,0	test	ward_and_allport	1,0,0,3,2,0,0,0,0	71.0	18.0	0.396	0,0,0,0,0,0,1,2,3	to_board	s465
221.462	0.55	0	PA_without_intermediate	0,0,0,3,2,0,0,0,0	test	ward_and_allport	1,0,0,3,2,0,0,0,0	82.0	18.0	0.55	0,0,0,0,0,0,1,2,3	to_hand	s465
222.014	0.25	0	PA_without_intermediate	1,0,0,3,2,0,0,0,0	test	ward_and_allport	1,0,0,3,2,0,0,0,0	89.0	18.0	0.25	0,0,0,0,0,0,1,2,3	to_board	s465
222.269	1.0	0	PA_without_intermediate	n/a	test	ward_and_allport	n/a	-1.0	18.0	n/a	n/a	feedback	s465
223.269	1.136	0	PA_without_intermediate	n/a	test	ward_and_allport	n/a	-1.0	18.0	n/a	n/a	ITI	s465
224.409	2.005	1	PA_without_intermediate	0,0,0,1,2,0,0,0,0	test	ward_and_allport	1,0,0,0,0,0,3,2,0	71.0	19.0	2.005	0,0,0,1,2,3,0,0,0	to_hand	s465
226.415	0.293	0	PA_without_intermediate	0,0,0,1,2,0,3,0,0	test	ward_and_allport	1,0,0,0,0,0,3,2,0	82.0	19.0	0.293	0,0,0,1,2,3,0,0,0	to_board	s465
226.713	0.592	0	PA_without_intermediate	0,0,0,1,0,0,3,0,0	test	ward_and_allport	1,0,0,0,0,0,3,2,0	71.0	19.0	0.592	0,0,0,1,2,3,0,0,0	to_hand	s465
227.306	0.296	0	PA_without_intermediate	0,0,0,1,0,0,3,2,0	test	ward_and_allport	1,0,0,0,0,0,3,2,0	82.0	19.0	0.296	0,0,0,1,2,3,0,0,0	to_board	s465
227.607	0.844	0	PA_without_intermediate	0,0,0,0,0,0,3,2,0	test	ward_and_allport	1,0,0,0,0,0,3,2,0	71.0	19.0	0.844	0,0,0,1,2,3,0,0,0	to_hand	s465
228.452	0.151	0	PA_without_intermediate	1,0,0,0,0,0,3,2,0	test	ward_and_allport	1,0,0,0,0,0,3,2,0	89.0	19.0	0.151	0,0,0,1,2,3,0,0,0	to_board	s465
228.608	1.0	0	PA_without_intermediate	n/a	test	ward_and_allport	n/a	-1.0	19.0	n/a	n/a	feedback	s465
229.608	6.168	0	PA_without_intermediate	n/a	test	ward_and_allport	n/a	-1.0	19.0	n/a	n/a	ITI	s465
235.78	2.572	1	PA_without_intermediate	1,2,0,0,0,0,0,0,0	test	ward_and_allport	0,0,0,1,0,0,3,2,0	89.0	20.0	2.572	1,2,3,0,0,0,0,0,0	to_hand	s465
238.352	0.263	0	PA_without_intermediate	1,2,0,0,0,0,3,0,0	test	ward_and_allport	0,0,0,1,0,0,3,2,0	82.0	20.0	0.263	1,2,3,0,0,0,0,0,0	to_board	s465
238.62	1.085	0	PA_without_intermediate	1,0,0,0,0,0,3,0,0	test	ward_and_allport	0,0,0,1,0,0,3,2,0	89.0	20.0	1.085	1,2,3,0,0,0,0,0,0	to_hand	s465
239.706	0.286	0	PA_without_intermediate	1,0,0,0,0,0,3,2,0	test	ward_and_allport	0,0,0,1,0,0,3,2,0	82.0	20.0	0.286	1,2,3,0,0,0,0,0,0	to_board	s465
239.996	0.621	0	PA_without_intermediate	0,0,0,0,0,0,3,2,0	test	ward_and_allport	0,0,0,1,0,0,3,2,0	89.0	20.0	0.621	1,2,3,0,0,0,0,0,0	to_hand	s465
240.618	0.418	0	PA_without_intermediate	0,0,0,1,0,0,3,2,0	test	ward_and_allport	0,0,0,1,0,0,3,2,0	71.0	20.0	0.418	1,2,3,0,0,0,0,0,0	to_board	s465
241.043	1.0	0	PA_without_intermediate	n/a	test	ward_and_allport	n/a	-1.0	20.0	n/a	n/a	feedback	s465
242.043	1.816	0	PA_without_intermediate	n/a	test	ward_and_allport	n/a	-1.0	20.0	n/a	n/a	ITI	s465
243.865	2.256	1	PA_with_intermediate	1,2,0,0,0,0,0,0,0	test	ward_and_allport	1,0,0,2,3,0,0,0,0	89.0	21.0	2.256	1,2,3,0,0,0,0,0,0	to_hand	s465
246.122	0.805	0	PA_with_intermediate	1,2,0,0,0,0,3,0,0	test	ward_and_allport	1,0,0,2,3,0,0,0,0	82.0	21.0	0.805	1,2,3,0,0,0,0,0,0	to_board	s465
246.932	0.642	0	PA_with_intermediate	1,0,0,0,0,0,3,0,0	test	ward_and_allport	1,0,0,2,3,0,0,0,0	89.0	21.0	0.642	1,2,3,0,0,0,0,0,0	to_hand	s465
247.575	0.423	0	PA_with_intermediate	1,0,0,2,0,0,3,0,0	test	ward_and_allport	1,0,0,2,3,0,0,0,0	71.0	21.0	0.423	1,2,3,0,0,0,0,0,0	to_board	s465
248.003	0.48	0	PA_with_intermediate	1,0,0,2,0,0,0,0,0	test	ward_and_allport	1,0,0,2,3,0,0,0,0	82.0	21.0	0.48	1,2,3,0,0,0,0,0,0	to_hand	s465
248.483	0.802	0	PA_with_intermediate	1,0,0,2,3,0,0,0,0	test	ward_and_allport	1,0,0,2,3,0,0,0,0	71.0	21.0	0.802	1,2,3,0,0,0,0,0,0	to_board	s465
249.292	1.0	0	PA_with_intermediate	n/a	test	ward_and_allport	n/a	-1.0	21.0	n/a	n/a	feedback	s465
250.292	1.952	0	PA_with_intermediate	n/a	test	ward_and_allport	n/a	-1.0	21.0	n/a	n/a	ITI	s465
252.251	2.477	1	PA_with_intermediate	0,0,0,1,2,0,0,0,0	test	ward_and_allport	2,3,0,1,0,0,0,0,0	71.0	22.0	2.477	0,0,0,1,2,3,0,0,0	to_hand	s465
254.729	1.149	0	PA_with_intermediate	0,0,0,1,2,0,3,0,0	test	ward_and_allport	2,3,0,1,0,0,0,0,0	82.0	22.0	1.149	0,0,0,1,2,3,0,0,0	to_board	s465
255.883	0.847	0	PA_with_intermediate	0,0,0,1,0,0,3,0,0	test	ward_and_allport	2,3,0,1,0,0,0,0,0	71.0	22.0	0.847	0,0,0,1,2,3,0,0,0	to_hand	s465
256.732	0.676	0	PA_with_intermediate	2,0,0,1,0,0,3,0,0	test	ward_and_allport	2,3,0,1,0,0,0,0,0	89.0	22.0	0.676	0,0,0,1,2,3,0,0,0	to_board	s465
257.414	1.925	0	PA_with_intermediate	2,0,0,1,0,0,0,0,0	test	ward_and_allport	2,3,0,1,0,0,0,0,0	82.0	22.0	1.925	0,0,0,1,2,3,0,0,0	to_hand	s465
259.34	0.638	0	PA_with_intermediate	2,3,0,1,0,0,0,0,0	test	ward_and_allport	2,3,0,1,0,0,0,0,0	89.0	22.0	0.638	0,0,0,1,2,3,0,0,0	to_board	s465
259.986	1.0	0	PA_with_intermediate	n/a	test	ward_and_allport	n/a	-1.0	22.0	n/a	n/a	feedback	s465
260.986	1.136	0	PA_with_intermediate	n/a	test	ward_and_allport	n/a	-1.0	22.0	n/a	n/a	ITI	s465
262.129	2.326	1	PA_without_intermediate	1,2,0,0,0,0,0,0,0	test	ward_and_allport	0,0,0,2,0,0,3,1,0	89.0	23.0	2.326	1,2,3,0,0,0,0,0,0	to_hand	s465
264.456	0.553	0	PA_without_intermediate	1,2,0,0,0,0,3,0,0	test	ward_and_allport	0,0,0,2,0,0,3,1,0	82.0	23.0	0.553	1,2,3,0,0,0,0,0,0	to_board	s465
265.016	1.246	0	PA_without_intermediate	1,0,0,0,0,0,3,0,0	test	ward_and_allport	0,0,0,2,0,0,3,1,0	89.0	23.0	1.246	1,2,3,0,0,0,0,0,0	to_hand	s465
266.262	0.432	0	PA_without_intermediate	1,0,0,2,0,0,3,0,0	test	ward_and_allport	0,0,0,2,0,0,3,1,0	71.0	23.0	0.432	1,2,3,0,0,0,0,0,0	to_board	s465
266.7	0.352	0	PA_without_intermediate	0,0,0,2,0,0,3,0,0	test	ward_and_allport	0,0,0,2,0,0,3,1,0	89.0	23.0	0.352	1,2,3,0,0,0,0,0,0	to_hand	s465
267.054	0.285	0	PA_without_intermediate	0,0,0,2,0,0,3,1,0	test	ward_and_allport	0,0,0,2,0,0,3,1,0	82.0	23.0	0.285	1,2,3,0,0,0,0,0,0	to_board	s465
267.346	1.0	0	PA_without_intermediate	n/a	test	ward_and_allport	n/a	-1.0	23.0	n/a	n/a	feedback	s465
268.346	1.68	0	PA_without_intermediate	n/a	test	ward_and_allport	n/a	-1.0	23.0	n/a	n/a	ITI	s465
270.033	2.353	1	PA_without_intermediate	0,0,0,0,0,0,1,2,0	test	ward_and_allport	3,1,0,2,0,0,0,0,0	82.0	24.0	2.353	0,0,0,0,0,0,1,2,3	to_hand	s465
272.387	0.221	0	PA_without_intermediate	3,0,0,0,0,0,1,2,0	test	ward_and_allport	3,1,0,2,0,0,0,0,0	89.0	24.0	0.221	0,0,0,0,0,0,1,2,3	to_board	s465
272.614	1.543	0	PA_without_intermediate	3,0,0,0,0,0,1,0,0	test	ward_and_allport	3,1,0,2,0,0,0,0,0	82.0	24.0	1.543	0,0,0,0,0,0,1,2,3	to_hand	s465
274.158	0.256	0	PA_without_intermediate	3,0,0,2,0,0,1,0,0	test	ward_and_allport	3,1,0,2,0,0,0,0,0	71.0	24.0	0.256	0,0,0,0,0,0,1,2,3	to_board	s465
274.421	0.559	0	PA_without_intermediate	3,0,0,2,0,0,0,0,0	test	ward_and_allport	3,1,0,2,0,0,0,0,0	82.0	24.0	0.559	0,0,0,0,0,0,1,2,3	to_hand	s465
274.981	0.149	0	PA_without_intermediate	3,1,0,2,0,0,0,0,0	test	ward_and_allport	3,1,0,2,0,0,0,0,0	89.0	24.0	0.149	0,0,0,0,0,0,1,2,3	to_board	s465
275.137	1.0	0	PA_without_intermediate	n/a	test	ward_and_allport	n/a	-1.0	24.0	n/a	n/a	feedback	s465
276.137	2.088	0	PA_without_intermediate	n/a	test	ward_and_allport	n/a	-1.0	24.0	n/a	n/a	ITI	s465
278.232	3.686	1	PA_with_intermediate	0,0,0,0,0,0,1,2,0	test	ward_and_allport	0,0,0,2,0,0,1,3,0	82.0	25.0	3.686	0,0,0,0,0,0,1,2,3	to_hand	s465
281.918	0.17	0	PA_with_intermediate	3,0,0,0,0,0,1,2,0	test	ward_and_allport	0,0,0,2,0,0,1,3,0	89.0	25.0	0.17	0,0,0,0,0,0,1,2,3	to_board	s465
282.094	1.674	0	PA_with_intermediate	3,0,0,0,0,0,1,0,0	test	ward_and_allport	0,0,0,2,0,0,1,3,0	82.0	25.0	1.674	0,0,0,0,0,0,1,2,3	to_hand	s465
283.769	0.76	0	PA_with_intermediate	3,0,0,2,0,0,1,0,0	test	ward_and_allport	0,0,0,2,0,0,1,3,0	71.0	25.0	0.76	0,0,0,0,0,0,1,2,3	to_board	s465
284.535	0.52	0	PA_with_intermediate	0,0,0,2,0,0,1,0,0	test	ward_and_allport	0,0,0,2,0,0,1,3,0	89.0	25.0	0.52	0,0,0,0,0,0,1,2,3	to_hand	s465
285.056	0.21	0	PA_with_intermediate	0,0,0,2,0,0,1,3,0	test	ward_and_allport	0,0,0,2,0,0,1,3,0	82.0	25.0	0.21	0,0,0,0,0,0,1,2,3	to_board	s465
285.275	1.0	0	PA_with_intermediate	n/a	test	ward_and_allport	n/a	-1.0	25.0	n/a	n/a	feedback	s465
286.275	1.0	0	PA_with_intermediate	n/a	test	ward_and_allport	n/a	-1.0	25.0	n/a	n/a	ITI	s465
287.281	2.433	1	PA_without_intermediate	1,2,0,0,0,0,0,0,0	test	ward_and_allport	0,0,0,2,0,0,3,1,0	89.0	26.0	2.433	1,2,3,0,0,0,0,0,0	to_hand	s465
289.716	0.349	0	PA_without_intermediate	1,2,0,0,0,0,3,0,0	test	ward_and_allport	0,0,0,2,0,0,3,1,0	82.0	26.0	0.349	1,2,3,0,0,0,0,0,0	to_board	s465
290.072	1.005	0	PA_without_intermediate	1,0,0,0,0,0,3,0,0	test	ward_and_allport	0,0,0,2,0,0,3,1,0	89.0	26.0	1.005	1,2,3,0,0,0,0,0,0	to_hand	s465
291.078	0.378	0	PA_without_intermediate	1,0,0,2,0,0,3,0,0	test	ward_and_allport	0,0,0,2,0,0,3,1,0	71.0	26.0	0.378	1,2,3,0,0,0,0,0,0	to_board	s465
291.464	0.465	0	PA_without_intermediate	0,0,0,2,0,0,3,0,0	test	ward_and_allport	0,0,0,2,0,0,3,1,0	89.0	26.0	0.465	1,2,3,0,0,0,0,0,0	to_hand	s465
291.929	0.196	0	PA_without_intermediate	0,0,0,2,0,0,3,1,0	test	ward_and_allport	0,0,0,2,0,0,3,1,0	82.0	26.0	0.196	1,2,3,0,0,0,0,0,0	to_board	s465
292.134	1.0	0	PA_without_intermediate	n/a	test	ward_and_allport	n/a	-1.0	26.0	n/a	n/a	feedback	s465
293.134	1.0	0	PA_without_intermediate	n/a	test	ward_and_allport	n/a	-1.0	26.0	n/a	n/a	ITI	s465
294.141	2.985	1	PA_without_intermediate	1,2,0,0,0,0,0,0,0	test	ward_and_allport	0,0,0,3,1,0,2,0,0	89.0	27.0	2.985	1,2,3,0,0,0,0,0,0	to_hand	s465
297.127	0.782	0	PA_without_intermediate	1,2,0,3,0,0,0,0,0	test	ward_and_allport	0,0,0,3,1,0,2,0,0	71.0	27.0	0.782	1,2,3,0,0,0,0,0,0	to_board	s465
297.916	0.512	0	PA_without_intermediate	1,0,0,3,0,0,0,0,0	test	ward_and_allport	0,0,0,3,1,0,2,0,0	89.0	27.0	0.512	1,2,3,0,0,0,0,0,0	to_hand	s465
298.429	0.413	0	PA_without_intermediate	1,0,0,3,0,0,2,0,0	test	ward_and_allport	0,0,0,3,1,0,2,0,0	82.0	27.0	0.413	1,2,3,0,0,0,0,0,0	to_board	s465
298.849	0.348	0	PA_without_intermediate	0,0,0,3,0,0,2,0,0	test	ward_and_allport	0,0,0,3,1,0,2,0,0	89.0	27.0	0.348	1,2,3,0,0,0,0,0,0	to_hand	s465
299.197	0.436	0	PA_without_intermediate	0,0,0,3,1,0,2,0,0	test	ward_and_allport	0,0,0,3,1,0,2,0,0	71.0	27.0	0.436	1,2,3,0,0,0,0,0,0	to_board	s465
299.642	1.0	0	PA_without_intermediate	n/a	test	ward_and_allport	n/a	-1.0	27.0	n/a	n/a	feedback	s465
300.642	1.0	0	PA_without_intermediate	n/a	test	ward_and_allport	n/a	-1.0	27.0	n/a	n/a	ITI	s465
301.648	3.806	1	PA_with_intermediate	0,0,0,1,2,0,0,0,0	test	ward_and_allport	0,0,0,1,0,0,2,3,0	71.0	28.0	3.806	0,0,0,1,2,3,0,0,0	to_hand	s465
305.455	0.208	0	PA_with_intermediate	3,0,0,1,2,0,0,0,0	test	ward_and_allport	0,0,0,1,0,0,2,3,0	89.0	28.0	0.208	0,0,0,1,2,3,0,0,0	to_board	s465
305.67	0.78	0	PA_with_intermediate	3,0,0,1,0,0,0,0,0	test	ward_and_allport	0,0,0,1,0,0,2,3,0	71.0	28.0	0.78	0,0,0,1,2,3,0,0,0	to_hand	s465
306.45	0.196	0	PA_with_intermediate	3,0,0,1,0,0,2,0,0	test	ward_and_allport	0,0,0,1,0,0,2,3,0	82.0	28.0	0.196	0,0,0,1,2,3,0,0,0	to_board	s465
306.653	0.498	0	PA_with_intermediate	0,0,0,1,0,0,2,0,0	test	ward_and_allport	0,0,0,1,0,0,2,3,0	89.0	28.0	0.498	0,0,0,1,2,3,0,0,0	to_hand	s465
307.153	0.177	0	PA_with_intermediate	0,0,0,1,0,0,2,3,0	test	ward_and_allport	0,0,0,1,0,0,2,3,0	82.0	28.0	0.177	0,0,0,1,2,3,0,0,0	to_board	s465
307.338	1.0	0	PA_with_intermediate	n/a	test	ward_and_allport	n/a	-1.0	28.0	n/a	n/a	feedback	s465
308.338	1.544	0	PA_with_intermediate	n/a	test	ward_and_allport	n/a	-1.0	28.0	n/a	n/a	ITI	s465
309.89	2.757	1	PA_without_intermediate	0,0,0,0,0,0,1,2,0	test	ward_and_allport	2,0,0,3,1,0,0,0,0	82.0	29.0	2.757	0,0,0,0,0,0,1,2,3	to_hand	s465
312.647	0.775	0	PA_without_intermediate	0,0,0,3,0,0,1,2,0	test	ward_and_allport	2,0,0,3,1,0,0,0,0	71.0	29.0	0.775	0,0,0,0,0,0,1,2,3	to_board	s465
313.43	1.468	0	PA_without_intermediate	0,0,0,3,0,0,1,0,0	test	ward_and_allport	2,0,0,3,1,0,0,0,0	82.0	29.0	1.468	0,0,0,0,0,0,1,2,3	to_hand	s465
314.899	0.217	0	PA_without_intermediate	2,0,0,3,0,0,1,0,0	test	ward_and_allport	2,0,0,3,1,0,0,0,0	89.0	29.0	0.217	0,0,0,0,0,0,1,2,3	to_board	s465
315.124	1.075	0	PA_without_intermediate	2,0,0,3,0,0,0,0,0	test	ward_and_allport	2,0,0,3,1,0,0,0,0	82.0	29.0	1.075	0,0,0,0,0,0,1,2,3	to_hand	s465
316.199	0.427	0	PA_without_intermediate	2,0,0,3,1,0,0,0,0	test	ward_and_allport	2,0,0,3,1,0,0,0,0	71.0	29.0	0.427	0,0,0,0,0,0,1,2,3	to_board	s465
316.635	1.0	0	PA_without_intermediate	n/a	test	ward_and_allport	n/a	-1.0	29.0	n/a	n/a	feedback	s465
317.635	1.272	0	PA_without_intermediate	n/a	test	ward_and_allport	n/a	-1.0	29.0	n/a	n/a	ITI	s465
323.916	3.787	1	PA_with_intermediate	1,2,0,0,0,0,0,0,0	test	ward_and_allport	1,3,0,2,0,0,0,0,0	89.0	30.0	3.787	1,2,3,0,0,0,0,0,0	to_hand	s465
327.704	0.204	0	PA_with_intermediate	1,2,0,0,0,0,3,0,0	test	ward_and_allport	1,3,0,2,0,0,0,0,0	82.0	30.0	0.204	1,2,3,0,0,0,0,0,0	to_board	s465
327.915	1.194	0	PA_with_intermediate	1,0,0,0,0,0,3,0,0	test	ward_and_allport	1,3,0,2,0,0,0,0,0	89.0	30.0	1.194	1,2,3,0,0,0,0,0,0	to_hand	s465
329.11	0.644	0	PA_with_intermediate	1,0,0,2,0,0,3,0,0	test	ward_and_allport	1,3,0,2,0,0,0,0,0	71.0	30.0	0.644	1,2,3,0,0,0,0,0,0	to_board	s465
329.762	0.485	0	PA_with_intermediate	1,0,0,2,0,0,0,0,0	test	ward_and_allport	1,3,0,2,0,0,0,0,0	82.0	30.0	0.485	1,2,3,0,0,0,0,0,0	to_hand	s465
330.248	0.228	0	PA_with_intermediate	1,3,0,2,0,0,0,0,0	test	ward_and_allport	1,3,0,2,0,0,0,0,0	89.0	30.0	0.228	1,2,3,0,0,0,0,0,0	to_board	s465
330.485	1.0	0	PA_with_intermediate	n/a	test	ward_and_allport	n/a	-1.0	30.0	n/a	n/a	feedback	s465
331.485	3.04	0	PA_with_intermediate	n/a	test	ward_and_allport	n/a	-1.0	30.0	n/a	n/a	ITI	s465
334.533	2.555	1	PA_with_intermediate	0,0,0,0,0,0,1,2,0	test	ward_and_allport	0,0,0,2,3,0,1,0,0	82.0	31.0	2.555	0,0,0,0,0,0,1,2,3	to_hand	s465
337.089	0.373	0	PA_with_intermediate	3,0,0,0,0,0,1,2,0	test	ward_and_allport	0,0,0,2,3,0,1,0,0	89.0	31.0	0.373	0,0,0,0,0,0,1,2,3	to_board	s465
337.469	1.178	0	PA_with_intermediate	3,0,0,0,0,0,1,0,0	test	ward_and_allport	0,0,0,2,3,0,1,0,0	82.0	31.0	1.178	0,0,0,0,0,0,1,2,3	to_hand	s465
338.648	0.383	0	PA_with_intermediate	3,0,0,2,0,0,1,0,0	test	ward_and_allport	0,0,0,2,3,0,1,0,0	71.0	31.0	0.383	0,0,0,0,0,0,1,2,3	to_board	s465
339.04	0.506	0	PA_with_intermediate	0,0,0,2,0,0,1,0,0	test	ward_and_allport	0,0,0,2,3,0,1,0,0	89.0	31.0	0.506	0,0,0,0,0,0,1,2,3	to_hand	s465
339.547	0.312	0	PA_with_intermediate	0,0,0,2,0,0,1,3,0	test	ward_and_allport	0,0,0,2,3,0,1,0,0	82.0	31.0	0.312	0,0,0,0,0,0,1,2,3	to_board	s465
339.868	0.743	0	PA_with_intermediate	0,0,0,0,0,0,1,3,0	test	ward_and_allport	0,0,0,2,3,0,1,0,0	71.0	31.0	0.743	0,0,0,0,0,0,1,2,3	to_hand	s465
340.613	1.168	0	PA_with_intermediate	0,0,0,2,0,0,1,3,0	test	ward_and_allport	0,0,0,2,3,0,1,0,0	71.0	31.0	1.168	0,0,0,0,0,0,1,2,3	to_board	s465
341.788	0.527	0	PA_with_intermediate	0,0,0,2,0,0,1,0,0	test	ward_and_allport	0,0,0,2,3,0,1,0,0	82.0	31.0	0.527	0,0,0,0,0,0,1,2,3	to_hand	s465
342.315	0.979	0	PA_with_intermediate	0,0,0,2,3,0,1,0,0	test	ward_and_allport	0,0,0,2,3,0,1,0,0	71.0	31.0	0.979	0,0,0,0,0,0,1,2,3	to_board	s465
343.302	1.0	0	PA_with_intermediate	n/a	test	ward_and_allport	n/a	-1.0	31.0	n/a	n/a	feedback	s465
344.302	1.272	0	PA_with_intermediate	n/a	test	ward_and_allport	n/a	-1.0	31.0	n/a	n/a	ITI	s465
345.58	2.765	1	PA_with_intermediate	1,2,0,0,0,0,0,0,0	test	ward_and_allport	1,0,0,2,3,0,0,0,0	89.0	32.0	2.765	1,2,3,0,0,0,0,0,0	to_hand	s465
348.347	0.387	0	PA_with_intermediate	1,2,0,0,0,0,3,0,0	test	ward_and_allport	1,0,0,2,3,0,0,0,0	82.0	32.0	0.387	1,2,3,0,0,0,0,0,0	to_board	s465
348.742	1.289	0	PA_with_intermediate	1,0,0,0,0,0,3,0,0	test	ward_and_allport	1,0,0,2,3,0,0,0,0	89.0	32.0	1.289	1,2,3,0,0,0,0,0,0	to_hand	s465
350.032	0.483	0	PA_with_intermediate	1,0,0,2,0,0,3,0,0	test	ward_and_allport	1,0,0,2,3,0,0,0,0	71.0	32.0	0.483	1,2,3,0,0,0,0,0,0	to_board	s465
350.524	0.671	0	PA_with_intermediate	1,0,0,2,0,0,0,0,0	test	ward_and_allport	1,0,0,2,3,0,0,0,0	82.0	32.0	0.671	1,2,3,0,0,0,0,0,0	to_hand	s465
351.197	0.252	0	PA_with_intermediate	1,3,0,2,0,0,0,0,0	test	ward_and_allport	1,0,0,2,3,0,0,0,0	89.0	32.0	0.252	1,2,3,0,0,0,0,0,0	to_board	s465
351.457	1.186	0	PA_with_intermediate	1,0,0,2,0,0,0,0,0	test	ward_and_allport	1,0,0,2,3,0,0,0,0	89.0	32.0	1.186	1,2,3,0,0,0,0,0,0	to_hand	s465
352.644	0.567	0	PA_with_intermediate	1,0,0,2,3,0,0,0,0	test	ward_and_allport	1,0,0,2,3,0,0,0,0	71.0	32.0	0.567	1,2,3,0,0,0,0,0,0	to_board	s465
353.218	1.0	0	PA_with_intermediate	n/a	test	ward_and_allport	n/a	-1.0	32.0	n/a	n/a	feedback	s465
354.218	1.136	0	PA_with_intermediate	n/a	test	ward_and_allport	n/a	-1.0	32.0	n/a	n/a	ITI	s465
355.36	4.19	1	PA_with_intermediate	1,2,0,0,0,0,0,0,0	test	ward_and_allport	1,3,0,0,0,0,2,0,0	89.0	33.0	4.19	1,2,3,0,0,0,0,0,0	to_hand	s465
359.551	1.342	0	PA_with_intermediate	1,2,0,3,0,0,0,0,0	test	ward_and_allport	1,3,0,0,0,0,2,0,0	71.0	33.0	1.342	1,2,3,0,0,0,0,0,0	to_board	s465
360.899	0.826	0	PA_with_intermediate	1,0,0,3,0,0,0,0,0	test	ward_and_allport	1,3,0,0,0,0,2,0,0	89.0	33.0	0.826	1,2,3,0,0,0,0,0,0	to_hand	s465
361.725	0.69	0	PA_with_intermediate	1,0,0,3,0,0,2,0,0	test	ward_and_allport	1,3,0,0,0,0,2,0,0	82.0	33.0	0.69	1,2,3,0,0,0,0,0,0	to_board	s465
362.423	0.718	0	PA_with_intermediate	1,0,0,0,0,0,2,0,0	test	ward_and_allport	1,3,0,0,0,0,2,0,0	71.0	33.0	0.718	1,2,3,0,0,0,0,0,0	to_hand	s465
363.142	0.552	0	PA_with_intermediate	1,3,0,0,0,0,2,0,0	test	ward_and_allport	1,3,0,0,0,0,2,0,0	89.0	33.0	0.552	1,2,3,0,0,0,0,0,0	to_board	s465
363.705	1.0	0	PA_with_intermediate	n/a	test	ward_and_allport	n/a	-1.0	33.0	n/a	n/a	feedback	s465
364.705	1.0	0	PA_with_intermediate	n/a	test	ward_and_allport	n/a	-1.0	33.0	n/a	n/a	ITI	s465
365.712	2.953	1	PA_with_intermediate	0,0,0,1,2,0,0,0,0	test	ward_and_allport	2,0,0,1,3,0,0,0,0	71.0	34.0	2.953	0,0,0,1,2,3,0,0,0	to_hand	s465
368.666	0.638	0	PA_with_intermediate	0,0,0,1,2,0,3,0,0	test	ward_and_allport	2,0,0,1,3,0,0,0,0	82.0	34.0	0.638	0,0,0,1,2,3,0,0,0	to_board	s465
369.313	0.571	0	PA_with_intermediate	0,0,0,1,0,0,3,0,0	test	ward_and_allport	2,0,0,1,3,0,0,0,0	71.0	34.0	0.571	0,0,0,1,2,3,0,0,0	to_hand	s465
369.885	0.431	0	PA_with_intermediate	2,0,0,1,0,0,3,0,0	test	ward_and_allport	2,0,0,1,3,0,0,0,0	89.0	34.0	0.431	0,0,0,1,2,3,0,0,0	to_board	s465
370.325	0.651	0	PA_with_intermediate	2,0,0,1,0,0,0,0,0	test	ward_and_allport	2,0,0,1,3,0,0,0,0	82.0	34.0	0.651	0,0,0,1,2,3,0,0,0	to_hand	s465
370.976	0.514	0	PA_with_intermediate	2,0,0,1,3,0,0,0,0	test	ward_and_allport	2,0,0,1,3,0,0,0,0	71.0	34.0	0.514	0,0,0,1,2,3,0,0,0	to_board	s465
371.5	1.0	0	PA_with_intermediate	n/a	test	ward_and_allport	n/a	-1.0	34.0	n/a	n/a	feedback	s465
372.5	1.0	0	PA_with_intermediate	n/a	test	ward_and_allport	n/a	-1.0	34.0	n/a	n/a	ITI	s465
373.506	1.968	1	PA_without_intermediate	0,0,0,1,2,0,0,0,0	test	ward_and_allport	1,0,0,0,0,0,3,2,0	71.0	35.0	1.968	0,0,0,1,2,3,0,0,0	to_hand	s465
375.476	0.451	0	PA_without_intermediate	0,0,0,1,2,0,3,0,0	test	ward_and_allport	1,0,0,0,0,0,3,2,0	82.0	35.0	0.451	0,0,0,1,2,3,0,0,0	to_board	s465
375.933	0.569	0	PA_without_intermediate	0,0,0,1,0,0,3,0,0	test	ward_and_allport	1,0,0,0,0,0,3,2,0	71.0	35.0	0.569	0,0,0,1,2,3,0,0,0	to_hand	s465
376.504	0.446	0	PA_without_intermediate	0,0,0,1,0,0,3,2,0	test	ward_and_allport	1,0,0,0,0,0,3,2,0	82.0	35.0	0.446	0,0,0,1,2,3,0,0,0	to_board	s465
376.955	0.582	0	PA_without_intermediate	0,0,0,0,0,0,3,2,0	test	ward_and_allport	1,0,0,0,0,0,3,2,0	71.0	35.0	0.582	0,0,0,1,2,3,0,0,0	to_hand	s465
377.54	0.375	0	PA_without_intermediate	1,0,0,0,0,0,3,2,0	test	ward_and_allport	1,0,0,0,0,0,3,2,0	89.0	35.0	0.375	0,0,0,1,2,3,0,0,0	to_board	s465
377.925	1.0	0	PA_without_intermediate	n/a	test	ward_and_allport	n/a	-1.0	35.0	n/a	n/a	feedback	s465
378.925	1.408	0	PA_without_intermediate	n/a	test	ward_and_allport	n/a	-1.0	35.0	n/a	n/a	ITI	s465
380.339	3.911	1	PA_with_intermediate	0,0,0,1,2,0,0,0,0	test	ward_and_allport	0,0,0,1,3,0,2,0,0	71.0	36.0	3.911	0,0,0,1,2,3,0,0,0	to_hand	s465
384.251	1.392	0	PA_with_intermediate	3,0,0,1,2,0,0,0,0	test	ward_and_allport	0,0,0,1,3,0,2,0,0	89.0	36.0	1.392	0,0,0,1,2,3,0,0,0	to_board	s465
385.65	0.639	0	PA_with_intermediate	3,0,0,1,0,0,0,0,0	test	ward_and_allport	0,0,0,1,3,0,2,0,0	71.0	36.0	0.639	0,0,0,1,2,3,0,0,0	to_hand	s465
386.29	0.218	0	PA_with_intermediate	3,0,0,1,0,0,2,0,0	test	ward_and_allport	0,0,0,1,3,0,2,0,0	82.0	36.0	0.218	0,0,0,1,2,3,0,0,0	to_board	s465
386.517	1.256	0	PA_with_intermediate	3,0,0,0,0,0,2,0,0	test	ward_and_allport	0,0,0,1,3,0,2,0,0	71.0	36.0	1.256	0,0,0,1,2,3,0,0,0	to_hand	s465
387.775	0.982	0	PA_with_intermediate	3,0,0,1,0,0,2,0,0	test	ward_and_allport	0,0,0,1,3,0,2,0,0	71.0	36.0	0.982	0,0,0,1,2,3,0,0,0	to_board	s465
388.766	0.286	0	PA_with_intermediate	0,0,0,1,0,0,2,0,0	test	ward_and_allport	0,0,0,1,3,0,2,0,0	89.0	36.0	0.286	0,0,0,1,2,3,0,0,0	to_hand	s465
389.052	0.776	0	PA_with_intermediate	0,0,0,1,3,0,2,0,0	test	ward_and_allport	0,0,0,1,3,0,2,0,0	71.0	36.0	0.776	0,0,0,1,2,3,0,0,0	to_board	s465
389.838	1.0	0	PA_with_intermediate	n/a	test	ward_and_allport	n/a	-1.0	36.0	n/a	n/a	feedback	s465
390.838	2.768	0	PA_with_intermediate	n/a	test	ward_and_allport	n/a	-1.0	36.0	n/a	n/a	ITI	s465
393.614	2.378	1	PA_with_intermediate	1,2,0,0,0,0,0,0,0	test	ward_and_allport	1,3,0,0,0,0,2,0,0	89.0	37.0	2.378	1,2,3,0,0,0,0,0,0	to_hand	s465
395.993	0.494	0	PA_with_intermediate	1,2,0,3,0,0,0,0,0	test	ward_and_allport	1,3,0,0,0,0,2,0,0	71.0	37.0	0.494	1,2,3,0,0,0,0,0,0	to_board	s465
396.495	0.774	0	PA_with_intermediate	1,0,0,3,0,0,0,0,0	test	ward_and_allport	1,3,0,0,0,0,2,0,0	89.0	37.0	0.774	1,2,3,0,0,0,0,0,0	to_hand	s465
397.27	0.522	0	PA_with_intermediate	1,0,0,3,0,0,2,0,0	test	ward_and_allport	1,3,0,0,0,0,2,0,0	82.0	37.0	0.522	1,2,3,0,0,0,0,0,0	to_board	s465
397.801	0.509	0	PA_with_intermediate	1,0,0,0,0,0,2,0,0	test	ward_and_allport	1,3,0,0,0,0,2,0,0	71.0	37.0	0.509	1,2,3,0,0,0,0,0,0	to_hand	s465
398.311	0.225	0	PA_with_intermediate	1,3,0,0,0,0,2,0,0	test	ward_and_allport	1,3,0,0,0,0,2,0,0	89.0	37.0	0.225	1,2,3,0,0,0,0,0,0	to_board	s465
398.545	1.0	0	PA_with_intermediate	n/a	test	ward_and_allport	n/a	-1.0	37.0	n/a	n/a	feedback	s465
399.545	1.68	0	PA_with_intermediate	n/a	test	ward_and_allport	n/a	-1.0	37.0	n/a	n/a	ITI	s465
401.233	3.185	1	PA_without_intermediate	0,0,0,0,0,0,1,2,0	test	ward_and_allport	3,2,0,1,0,0,0,0,0	82.0	38.0	3.185	0,0,0,0,0,0,1,2,3	to_hand	s465
404.419	0.501	0	PA_without_intermediate	3,0,0,0,0,0,1,2,0	test	ward_and_allport	3,2,0,1,0,0,0,0,0	89.0	38.0	0.501	0,0,0,0,0,0,1,2,3	to_board	s465
404.927	1.151	0	PA_without_intermediate	3,0,0,0,0,0,1,0,0	test	ward_and_allport	3,2,0,1,0,0,0,0,0	82.0	38.0	1.151	0,0,0,0,0,0,1,2,3	to_hand	s465
406.078	0.346	0	PA_without_intermediate	3,2,0,0,0,0,1,0,0	test	ward_and_allport	3,2,0,1,0,0,0,0,0	89.0	38.0	0.346	0,0,0,0,0,0,1,2,3	to_board	s465
406.431	1.36	0	PA_without_intermediate	3,2,0,0,0,0,0,0,0	test	ward_and_allport	3,2,0,1,0,0,0,0,0	82.0	38.0	1.36	0,0,0,0,0,0,1,2,3	to_hand	s465
407.792	0.236	0	PA_without_intermediate	3,2,0,1,0,0,0,0,0	test	ward_and_allport	3,2,0,1,0,0,0,0,0	71.0	38.0	0.236	0,0,0,0,0,0,1,2,3	to_board	s465
408.039	1.0	0	PA_without_intermediate	n/a	test	ward_and_allport	n/a	-1.0	38.0	n/a	n/a	feedback	s465
409.039	2.224	0	PA_without_intermediate	n/a	test	ward_and_allport	n/a	-1.0	38.0	n/a	n/a	ITI	s465
411.272	2.4	1	PA_without_intermediate	0,0,0,1,2,0,0,0,0	test	ward_and_allport	3,1,0,0,0,0,2,0,0	71.0	39.0	2.4	0,0,0,1,2,3,0,0,0	to_hand	s465
413.673	0.42	0	PA_without_intermediate	3,0,0,1,2,0,0,0,0	test	ward_and_allport	3,1,0,0,0,0,2,0,0	89.0	39.0	0.42	0,0,0,1,2,3,0,0,0	to_board	s465
414.104	0.716	0	PA_without_intermediate	3,0,0,1,0,0,0,0,0	test	ward_and_allport	3,1,0,0,0,0,2,0,0	71.0	39.0	0.716	0,0,0,1,2,3,0,0,0	to_hand	s465
414.82	0.271	0	PA_without_intermediate	3,0,0,1,0,0,2,0,0	test	ward_and_allport	3,1,0,0,0,0,2,0,0	82.0	39.0	0.271	0,0,0,1,2,3,0,0,0	to_board	s465
415.101	0.495	0	PA_without_intermediate	3,0,0,0,0,0,2,0,0	test	ward_and_allport	3,1,0,0,0,0,2,0,0	71.0	39.0	0.495	0,0,0,1,2,3,0,0,0	to_hand	s465
415.596	0.174	0	PA_without_intermediate	3,1,0,0,0,0,2,0,0	test	ward_and_allport	3,1,0,0,0,0,2,0,0	89.0	39.0	0.174	0,0,0,1,2,3,0,0,0	to_board	s465
415.78	1.0	0	PA_without_intermediate	n/a	test	ward_and_allport	n/a	-1.0	39.0	n/a	n/a	feedback	s465
416.78	2.36	0	PA_without_intermediate	n/a	test	ward_and_allport	n/a	-1.0	39.0	n/a	n/a	ITI	s465
419.148	2.041	1	PA_without_intermediate	0,0,0,0,0,0,1,2,0	test	ward_and_allport	3,2,0,1,0,0,0,0,0	82.0	40.0	2.041	0,0,0,0,0,0,1,2,3	to_hand	s465
421.19	0.308	0	PA_without_intermediate	3,0,0,0,0,0,1,2,0	test	ward_and_allport	3,2,0,1,0,0,0,0,0	89.0	40.0	0.308	0,0,0,0,0,0,1,2,3	to_board	s465
421.504	0.945	0	PA_without_intermediate	3,0,0,0,0,0,1,0,0	test	ward_and_allport	3,2,0,1,0,0,0,0,0	82.0	40.0	0.945	0,0,0,0,0,0,1,2,3	to_hand	s465
422.451	0.263	0	PA_without_intermediate	3,2,0,0,0,0,1,0,0	test	ward_and_allport	3,2,0,1,0,0,0,0,0	89.0	40.0	0.263	0,0,0,0,0,0,1,2,3	to_board	s465
422.723	0.594	0	PA_without_intermediate	3,2,0,0,0,0,0,0,0	test	ward_and_allport	3,2,0,1,0,0,0,0,0	82.0	40.0	0.594	0,0,0,0,0,0,1,2,3	to_hand	s465
423.318	0.238	0	PA_without_intermediate	3,2,0,1,0,0,0,0,0	test	ward_and_allport	3,2,0,1,0,0,0,0,0	71.0	40.0	0.238	0,0,0,0,0,0,1,2,3	to_board	s465
423.567	1.0	0	PA_without_intermediate	n/a	test	ward_and_allport	n/a	-1.0	40.0	n/a	n/a	feedback	s465
424.567	1.0	0	PA_without_intermediate	n/a	test	ward_and_allport	n/a	-1.0	40.0	n/a	n/a	ITI	s465
425.577	1.726	1	PA_without_intermediate	0,0,0,1,2,0,0,0,0	test	ward_and_allport	3,2,0,0,0,0,1,0,0	71.0	41.0	1.726	0,0,0,1,2,3,0,0,0	to_hand	s465
427.304	0.179	0	PA_without_intermediate	3,0,0,1,2,0,0,0,0	test	ward_and_allport	3,2,0,0,0,0,1,0,0	89.0	41.0	0.179	0,0,0,1,2,3,0,0,0	to_board	s465
427.492	0.871	0	PA_without_intermediate	3,0,0,1,0,0,0,0,0	test	ward_and_allport	3,2,0,0,0,0,1,0,0	71.0	41.0	0.871	0,0,0,1,2,3,0,0,0	to_hand	s465
428.363	0.218	0	PA_without_intermediate	3,2,0,1,0,0,0,0,0	test	ward_and_allport	3,2,0,0,0,0,1,0,0	89.0	41.0	0.218	0,0,0,1,2,3,0,0,0	to_board	s465
428.588	0.562	0	PA_without_intermediate	3,2,0,0,0,0,0,0,0	test	ward_and_allport	3,2,0,0,0,0,1,0,0	71.0	41.0	0.562	0,0,0,1,2,3,0,0,0	to_hand	s465
429.15	0.2	0	PA_without_intermediate	3,2,0,0,0,0,1,0,0	test	ward_and_allport	3,2,0,0,0,0,1,0,0	82.0	41.0	0.2	0,0,0,1,2,3,0,0,0	to_board	s465
429.359	1.0	0	PA_without_intermediate	n/a	test	ward_and_allport	n/a	-1.0	41.0	n/a	n/a	feedback	s465
430.359	1.408	0	PA_without_intermediate	n/a	test	ward_and_allport	n/a	-1.0	41.0	n/a	n/a	ITI	s465
431.775	2.009	1	PA_with_intermediate	0,0,0,0,0,0,1,2,0	test	ward_and_allport	2,0,0,0,0,0,1,3,0	82.0	42.0	2.009	0,0,0,0,0,0,1,2,3	to_hand	s465
433.784	0.405	0	PA_with_intermediate	0,0,0,3,0,0,1,2,0	test	ward_and_allport	2,0,0,0,0,0,1,3,0	71.0	42.0	0.405	0,0,0,0,0,0,1,2,3	to_board	s465
434.198	0.578	0	PA_with_intermediate	0,0,0,3,0,0,1,0,0	test	ward_and_allport	2,0,0,0,0,0,1,3,0	82.0	42.0	0.578	0,0,0,0,0,0,1,2,3	to_hand	s465
434.776	0.3	0	PA_with_intermediate	2,0,0,3,0,0,1,0,0	test	ward_and_allport	2,0,0,0,0,0,1,3,0	89.0	42.0	0.3	0,0,0,0,0,0,1,2,3	to_board	s465
435.083	0.548	0	PA_with_intermediate	2,0,0,0,0,0,1,0,0	test	ward_and_allport	2,0,0,0,0,0,1,3,0	71.0	42.0	0.548	0,0,0,0,0,0,1,2,3	to_hand	s465
435.632	0.247	0	PA_with_intermediate	2,0,0,0,0,0,1,3,0	test	ward_and_allport	2,0,0,0,0,0,1,3,0	82.0	42.0	0.247	0,0,0,0,0,0,1,2,3	to_board	s465
435.888	1.0	0	PA_with_intermediate	n/a	test	ward_and_allport	n/a	-1.0	42.0	n/a	n/a	feedback	s465
436.888	1.136	0	PA_with_intermediate	n/a	test	ward_and_allport	n/a	-1.0	42.0	n/a	n/a	ITI	s465
438.031	1.742	1	PA_without_intermediate	0,0,0,1,2,0,0,0,0	test	ward_and_allport	3,1,0,0,0,0,2,0,0	71.0	43.0	1.742	0,0,0,1,2,3,0,0,0	to_hand	s465
439.773	0.172	0	PA_without_intermediate	3,0,0,1,2,0,0,0,0	test	ward_and_allport	3,1,0,0,0,0,2,0,0	89.0	43.0	0.172	0,0,0,1,2,3,0,0,0	to_board	s465
439.952	1.102	0	PA_without_intermediate	3,0,0,1,0,0,0,0,0	test	ward_and_allport	3,1,0,0,0,0,2,0,0	71.0	43.0	1.102	0,0,0,1,2,3,0,0,0	to_hand	s465
441.056	0.321	0	PA_without_intermediate	3,0,0,1,0,0,2,0,0	test	ward_and_allport	3,1,0,0,0,0,2,0,0	82.0	43.0	0.321	0,0,0,1,2,3,0,0,0	to_board	s465
441.384	0.534	0	PA_without_intermediate	3,0,0,0,0,0,2,0,0	test	ward_and_allport	3,1,0,0,0,0,2,0,0	71.0	43.0	0.534	0,0,0,1,2,3,0,0,0	to_hand	s465
441.919	0.267	0	PA_without_intermediate	3,1,0,0,0,0,2,0,0	test	ward_and_allport	3,1,0,0,0,0,2,0,0	89.0	43.0	0.267	0,0,0,1,2,3,0,0,0	to_board	s465
442.194	1.0	0	PA_without_intermediate	n/a	test	ward_and_allport	n/a	-1.0	43.0	n/a	n/a	feedback	s465
443.194	4.128	0	PA_without_intermediate	n/a	test	ward_and_allport	n/a	-1.0	43.0	n/a	n/a	ITI	s465
447.329	1.532	1	PA_without_intermediate	0,0,0,1,2,0,0,0,0	test	ward_and_allport	3,2,0,0,0,0,1,0,0	71.0	44.0	1.532	0,0,0,1,2,3,0,0,0	to_hand	s465
448.861	0.236	0	PA_without_intermediate	3,0,0,1,2,0,0,0,0	test	ward_and_allport	3,2,0,0,0,0,1,0,0	89.0	44.0	0.236	0,0,0,1,2,3,0,0,0	to_board	s465
449.104	0.82	0	PA_without_intermediate	3,0,0,1,0,0,0,0,0	test	ward_and_allport	3,2,0,0,0,0,1,0,0	71.0	44.0	0.82	0,0,0,1,2,3,0,0,0	to_hand	s465
449.926	0.261	0	PA_without_intermediate	3,2,0,1,0,0,0,0,0	test	ward_and_allport	3,2,0,0,0,0,1,0,0	89.0	44.0	0.261	0,0,0,1,2,3,0,0,0	to_board	s465
450.196	0.404	0	PA_without_intermediate	3,2,0,0,0,0,0,0,0	test	ward_and_allport	3,2,0,0,0,0,1,0,0	71.0	44.0	0.404	0,0,0,1,2,3,0,0,0	to_hand	s465
450.601	0.234	0	PA_without_intermediate	3,2,0,0,0,0,1,0,0	test	ward_and_allport	3,2,0,0,0,0,1,0,0	82.0	44.0	0.234	0,0,0,1,2,3,0,0,0	to_board	s465
450.848	1.0	0	PA_without_intermediate	n/a	test	ward_and_allport	n/a	-1.0	44.0	n/a	n/a	feedback	s465
451.848	1.136	0	PA_without_intermediate	n/a	test	ward_and_allport	n/a	-1.0	44.0	n/a	n/a	ITI	s465
457.995	2.543	1	PA_without_intermediate	1,2,0,0,0,0,0,0,0	test	ward_and_allport	0,0,0,3,1,0,2,0,0	89.0	45.0	2.543	1,2,3,0,0,0,0,0,0	to_hand	s465
460.539	0.415	0	PA_without_intermediate	1,2,0,3,0,0,0,0,0	test	ward_and_allport	0,0,0,3,1,0,2,0,0	71.0	45.0	0.415	1,2,3,0,0,0,0,0,0	to_board	s465
460.964	0.828	0	PA_without_intermediate	1,0,0,3,0,0,0,0,0	test	ward_and_allport	0,0,0,3,1,0,2,0,0	89.0	45.0	0.828	1,2,3,0,0,0,0,0,0	to_hand	s465
461.793	0.485	0	PA_without_intermediate	1,0,0,3,0,0,2,0,0	test	ward_and_allport	0,0,0,3,1,0,2,0,0	82.0	45.0	0.485	1,2,3,0,0,0,0,0,0	to_board	s465
462.29	0.667	0	PA_without_intermediate	0,0,0,3,0,0,2,0,0	test	ward_and_allport	0,0,0,3,1,0,2,0,0	89.0	45.0	0.667	1,2,3,0,0,0,0,0,0	to_hand	s465
462.958	0.353	0	PA_without_intermediate	0,0,0,3,1,0,2,0,0	test	ward_and_allport	0,0,0,3,1,0,2,0,0	71.0	45.0	0.353	1,2,3,0,0,0,0,0,0	to_board	s465
463.321	1.0	0	PA_without_intermediate	n/a	test	ward_and_allport	n/a	-1.0	45.0	n/a	n/a	feedback	s465
464.321	4.264	0	PA_without_intermediate	n/a	test	ward_and_allport	n/a	-1.0	45.0	n/a	n/a	ITI	s465
468.593	2.626	1	PA_with_intermediate	0,0,0,1,2,0,0,0,0	test	ward_and_allport	2,0,0,1,3,0,0,0,0	71.0	46.0	2.626	0,0,0,1,2,3,0,0,0	to_hand	s465
471.22	0.323	0	PA_with_intermediate	0,0,0,1,2,0,3,0,0	test	ward_and_allport	2,0,0,1,3,0,0,0,0	82.0	46.0	0.323	0,0,0,1,2,3,0,0,0	to_board	s465
471.552	0.44	0	PA_with_intermediate	0,0,0,1,0,0,3,0,0	test	ward_and_allport	2,0,0,1,3,0,0,0,0	71.0	46.0	0.44	0,0,0,1,2,3,0,0,0	to_hand	s465
471.994	0.272	0	PA_with_intermediate	2,0,0,1,0,0,3,0,0	test	ward_and_allport	2,0,0,1,3,0,0,0,0	89.0	46.0	0.272	0,0,0,1,2,3,0,0,0	to_board	s465
472.278	0.767	0	PA_with_intermediate	2,0,0,1,0,0,0,0,0	test	ward_and_allport	2,0,0,1,3,0,0,0,0	82.0	46.0	0.767	0,0,0,1,2,3,0,0,0	to_hand	s465
473.045	0.422	0	PA_with_intermediate	2,0,0,1,3,0,0,0,0	test	ward_and_allport	2,0,0,1,3,0,0,0,0	71.0	46.0	0.422	0,0,0,1,2,3,0,0,0	to_board	s465
473.479	1.0	0	PA_with_intermediate	n/a	test	ward_and_allport	n/a	-1.0	46.0	n/a	n/a	feedback	s465
474.479	3.04	0	PA_with_intermediate	n/a	test	ward_and_allport	n/a	-1.0	46.0	n/a	n/a	ITI	s465
477.529	2.275	1	PA_with_intermediate	0,0,0,1,2,0,0,0,0	test	ward_and_allport	0,0,0,1,3,0,2,0,0	71.0	47.0	2.275	0,0,0,1,2,3,0,0,0	to_hand	s465
479.805	0.196	0	PA_with_intermediate	3,0,0,1,2,0,0,0,0	test	ward_and_allport	0,0,0,1,3,0,2,0,0	89.0	47.0	0.196	0,0,0,1,2,3,0,0,0	to_board	s465
480.011	0.549	0	PA_with_intermediate	3,0,0,1,0,0,0,0,0	test	ward_and_allport	0,0,0,1,3,0,2,0,0	71.0	47.0	0.549	0,0,0,1,2,3,0,0,0	to_hand	s465
480.56	0.252	0	PA_with_intermediate	3,0,0,1,0,0,2,0,0	test	ward_and_allport	0,0,0,1,3,0,2,0,0	82.0	47.0	0.252	0,0,0,1,2,3,0,0,0	to_board	s465
480.824	0.483	0	PA_with_intermediate	0,0,0,1,0,0,2,0,0	test	ward_and_allport	0,0,0,1,3,0,2,0,0	89.0	47.0	0.483	0,0,0,1,2,3,0,0,0	to_hand	s465
481.308	0.143	0	PA_with_intermediate	0,0,0,1,3,0,2,0,0	test	ward_and_allport	0,0,0,1,3,0,2,0,0	71.0	47.0	0.143	0,0,0,1,2,3,0,0,0	to_board	s465
481.462	1.0	0	PA_with_intermediate	n/a	test	ward_and_allport	n/a	-1.0	47.0	n/a	n/a	feedback	s465
482.462	1.136	0	PA_with_intermediate	n/a	test	ward_and_allport	n/a	-1.0	47.0	n/a	n/a	ITI	s465
n/a	n/a	0	n/a	n/a	n/a	n/a	n/a	n/a	n/a	n/a	n/a	ITI	n/a
