onset	duration	planning	condition	current_position	exp_stage	experiment_exp_id	goal_state	key_press	problem_id	response_time	start_state	trial_id	worker_id
-56.633	0.0	0	n/a	n/a	n/a	ward_and_allport	n/a	32.0	n/a	17.589	n/a	instructions	s602
3.009	2.289	1	UA_with_intermediate	0,0,0,2,3,0,0,0,0	practice	ward_and_allport	1,2,3,0,0,0,0,0,0	89.0	0.0	2.289	1,0,0,2,3,0,0,0,0	to_hand	s602
5.299	1.886	0	UA_with_intermediate	1,0,0,2,3,0,0,0,0	practice	ward_and_allport	1,2,3,0,0,0,0,0,0	89.0	0.0	1.886	1,0,0,2,3,0,0,0,0	to_board	s602
7.187	1.008	0	UA_with_intermediate	1,0,0,2,0,0,0,0,0	practice	ward_and_allport	1,2,3,0,0,0,0,0,0	71.0	0.0	1.008	1,0,0,2,3,0,0,0,0	to_hand	s602
8.196	0.515	0	UA_with_intermediate	1,0,0,2,3,0,0,0,0	practice	ward_and_allport	1,2,3,0,0,0,0,0,0	71.0	0.0	0.515	1,0,0,2,3,0,0,0,0	to_board	s602
8.712	0.626	0	UA_with_intermediate	1,0,0,2,0,0,0,0,0	practice	ward_and_allport	1,2,3,0,0,0,0,0,0	71.0	0.0	0.626	1,0,0,2,3,0,0,0,0	to_hand	s602
9.34	0.5	0	UA_with_intermediate	1,0,0,2,0,0,3,0,0	practice	ward_and_allport	1,2,3,0,0,0,0,0,0	82.0	0.0	0.5	1,0,0,2,3,0,0,0,0	to_board	s602
9.841	2.422	0	UA_with_intermediate	1,0,0,0,0,0,3,0,0	practice	ward_and_allport	1,2,3,0,0,0,0,0,0	71.0	0.0	2.422	1,0,0,2,3,0,0,0,0	to_hand	s602
12.265	2.292	0	UA_with_intermediate	1,0,0,0,0,0,3,2,0	practice	ward_and_allport	1,2,3,0,0,0,0,0,0	82.0	0.0	2.292	1,0,0,2,3,0,0,0,0	to_board	s602
14.559	1.353	0	UA_with_intermediate	0,0,0,0,0,0,3,2,0	practice	ward_and_allport	1,2,3,0,0,0,0,0,0	89.0	0.0	1.353	1,0,0,2,3,0,0,0,0	to_hand	s602
15.912	0.724	0	UA_with_intermediate	0,0,0,1,0,0,3,2,0	practice	ward_and_allport	1,2,3,0,0,0,0,0,0	71.0	0.0	0.724	1,0,0,2,3,0,0,0,0	to_board	s602
16.639	3.118	0	UA_with_intermediate	0,0,0,1,0,0,3,0,0	practice	ward_and_allport	1,2,3,0,0,0,0,0,0	82.0	0.0	3.118	1,0,0,2,3,0,0,0,0	to_hand	s602
19.758	1.499	0	UA_with_intermediate	2,0,0,1,0,0,3,0,0	practice	ward_and_allport	1,2,3,0,0,0,0,0,0	89.0	0.0	1.499	1,0,0,2,3,0,0,0,0	to_board	s602
21.259	0.866	0	UA_with_intermediate	2,0,0,1,0,0,0,0,0	practice	ward_and_allport	1,2,3,0,0,0,0,0,0	82.0	0.0	0.866	1,0,0,2,3,0,0,0,0	to_hand	s602
22.125	1.641	0	UA_with_intermediate	2,0,0,1,0,0,3,0,0	practice	ward_and_allport	1,2,3,0,0,0,0,0,0	82.0	0.0	1.641	1,0,0,2,3,0,0,0,0	to_board	s602
23.768	0.632	0	UA_with_intermediate	0,0,0,1,0,0,3,0,0	practice	ward_and_allport	1,2,3,0,0,0,0,0,0	89.0	0.0	0.632	1,0,0,2,3,0,0,0,0	to_hand	s602
24.401	0.545	0	UA_with_intermediate	0,0,0,1,2,0,3,0,0	practice	ward_and_allport	1,2,3,0,0,0,0,0,0	71.0	0.0	0.545	1,0,0,2,3,0,0,0,0	to_board	s602
24.947	2.74	0	UA_with_intermediate	0,0,0,1,2,0,0,0,0	practice	ward_and_allport	1,2,3,0,0,0,0,0,0	82.0	0.0	2.74	1,0,0,2,3,0,0,0,0	to_hand	s602
27.688	0.501	0	UA_with_intermediate	0,0,0,1,2,3,0,0,0	practice	ward_and_allport	1,2,3,0,0,0,0,0,0	71.0	0.0	0.501	1,0,0,2,3,0,0,0,0	to_board	s602
28.191	3.922	0	UA_with_intermediate	0,0,0,1,2,0,0,0,0	practice	ward_and_allport	1,2,3,0,0,0,0,0,0	71.0	0.0	3.922	1,0,0,2,3,0,0,0,0	to_hand	s602
32.114	2.181	0	UA_with_intermediate	0,0,0,1,2,0,3,0,0	practice	ward_and_allport	1,2,3,0,0,0,0,0,0	82.0	0.0	2.181	1,0,0,2,3,0,0,0,0	to_board	s602
34.298	0.923	0	UA_with_intermediate	0,0,0,1,2,0,0,0,0	practice	ward_and_allport	1,2,3,0,0,0,0,0,0	82.0	0.0	0.923	1,0,0,2,3,0,0,0,0	to_hand	s602
35.222	1.037	0	UA_with_intermediate	0,0,0,1,2,0,3,0,0	practice	ward_and_allport	1,2,3,0,0,0,0,0,0	82.0	0.0	1.037	1,0,0,2,3,0,0,0,0	to_board	s602
36.26	0.514	0	UA_with_intermediate	0,0,0,1,0,0,3,0,0	practice	ward_and_allport	1,2,3,0,0,0,0,0,0	71.0	0.0	0.514	1,0,0,2,3,0,0,0,0	to_hand	s602
36.776	0.437	0	UA_with_intermediate	2,0,0,1,0,0,3,0,0	practice	ward_and_allport	1,2,3,0,0,0,0,0,0	89.0	0.0	0.437	1,0,0,2,3,0,0,0,0	to_board	s602
37.215	2.949	0	UA_with_intermediate	2,0,0,1,0,0,0,0,0	practice	ward_and_allport	1,2,3,0,0,0,0,0,0	82.0	0.0	2.949	1,0,0,2,3,0,0,0,0	to_hand	s602
40.165	0.757	0	UA_with_intermediate	2,0,0,1,0,0,3,0,0	practice	ward_and_allport	1,2,3,0,0,0,0,0,0	82.0	0.0	0.757	1,0,0,2,3,0,0,0,0	to_board	s602
40.924	0.331	0	UA_with_intermediate	2,0,0,0,0,0,3,0,0	practice	ward_and_allport	1,2,3,0,0,0,0,0,0	71.0	0.0	0.331	1,0,0,2,3,0,0,0,0	to_hand	s602
41.255	0.362	0	UA_with_intermediate	2,0,0,0,0,0,3,1,0	practice	ward_and_allport	1,2,3,0,0,0,0,0,0	82.0	0.0	0.362	1,0,0,2,3,0,0,0,0	to_board	s602
41.62	1.196	0	UA_with_intermediate	0,0,0,0,0,0,3,1,0	practice	ward_and_allport	1,2,3,0,0,0,0,0,0	89.0	0.0	1.196	1,0,0,2,3,0,0,0,0	to_hand	s602
42.819	0.662	0	UA_with_intermediate	0,0,0,2,0,0,3,1,0	practice	ward_and_allport	1,2,3,0,0,0,0,0,0	71.0	0.0	0.662	1,0,0,2,3,0,0,0,0	to_board	s602
43.483	3.932	0	UA_with_intermediate	0,0,0,2,0,0,3,0,0	practice	ward_and_allport	1,2,3,0,0,0,0,0,0	82.0	0.0	3.932	1,0,0,2,3,0,0,0,0	to_hand	s602
47.416	1.675	0	UA_with_intermediate	1,0,0,2,0,0,3,0,0	practice	ward_and_allport	1,2,3,0,0,0,0,0,0	89.0	0.0	1.675	1,0,0,2,3,0,0,0,0	to_board	s602
49.092	1.766	0	UA_with_intermediate	1,0,0,0,0,0,3,0,0	practice	ward_and_allport	1,2,3,0,0,0,0,0,0	71.0	0.0	1.766	1,0,0,2,3,0,0,0,0	to_hand	s602
50.86	0.524	0	UA_with_intermediate	1,2,0,0,0,0,3,0,0	practice	ward_and_allport	1,2,3,0,0,0,0,0,0	89.0	0.0	0.524	1,0,0,2,3,0,0,0,0	to_board	s602
51.386	0.809	0	UA_with_intermediate	1,2,0,0,0,0,0,0,0	practice	ward_and_allport	1,2,3,0,0,0,0,0,0	82.0	0.0	0.809	1,0,0,2,3,0,0,0,0	to_hand	s602
52.197	0.515	0	UA_with_intermediate	1,2,3,0,0,0,0,0,0	practice	ward_and_allport	1,2,3,0,0,0,0,0,0	89.0	0.0	0.515	1,0,0,2,3,0,0,0,0	to_board	s602
52.717	1.0	0	UA_with_intermediate	n/a	practice	ward_and_allport	n/a	-1.0	0.0	n/a	n/a	feedback	s602
55.219	4.384	1	UA_with_intermediate	1,0,0,3,0,0,0,0,0	practice	ward_and_allport	1,3,2,0,0,0,0,0,0	89.0	1.0	4.384	1,2,0,3,0,0,0,0,0	to_hand	s602
59.603	1.833	0	UA_with_intermediate	1,0,0,3,0,0,2,0,0	practice	ward_and_allport	1,3,2,0,0,0,0,0,0	82.0	1.0	1.833	1,2,0,3,0,0,0,0,0	to_board	s602
61.438	0.783	0	UA_with_intermediate	1,0,0,0,0,0,2,0,0	practice	ward_and_allport	1,3,2,0,0,0,0,0,0	71.0	1.0	0.783	1,2,0,3,0,0,0,0,0	to_hand	s602
62.222	0.438	0	UA_with_intermediate	1,3,0,0,0,0,2,0,0	practice	ward_and_allport	1,3,2,0,0,0,0,0,0	89.0	1.0	0.438	1,2,0,3,0,0,0,0,0	to_board	s602
62.663	1.132	0	UA_with_intermediate	1,3,0,0,0,0,0,0,0	practice	ward_and_allport	1,3,2,0,0,0,0,0,0	82.0	1.0	1.132	1,2,0,3,0,0,0,0,0	to_hand	s602
63.797	0.712	0	UA_with_intermediate	1,3,2,0,0,0,0,0,0	practice	ward_and_allport	1,3,2,0,0,0,0,0,0	89.0	1.0	0.712	1,2,0,3,0,0,0,0,0	to_board	s602
64.516	1.0	0	UA_with_intermediate	n/a	practice	ward_and_allport	n/a	-1.0	1.0	n/a	n/a	feedback	s602
65.516	1.1	0	UA_with_intermediate	n/a	practice	ward_and_allport	n/a	-1.0	1.0	n/a	n/a	ITI	s602
66.617	5.336	1	UA_without_intermediate	0,0,0,1,2,0,0,0,0	practice	ward_and_allport	3,2,1,0,0,0,0,0,0	82.0	2.0	5.336	0,0,0,1,2,0,3,0,0	to_hand	s602
71.954	0.74	0	UA_without_intermediate	3,0,0,1,2,0,0,0,0	practice	ward_and_allport	3,2,1,0,0,0,0,0,0	89.0	2.0	0.74	0,0,0,1,2,0,3,0,0	to_board	s602
72.697	2.266	0	UA_without_intermediate	3,0,0,1,0,0,0,0,0	practice	ward_and_allport	3,2,1,0,0,0,0,0,0	71.0	2.0	2.266	0,0,0,1,2,0,3,0,0	to_hand	s602
74.964	0.351	0	UA_without_intermediate	3,2,0,1,0,0,0,0,0	practice	ward_and_allport	3,2,1,0,0,0,0,0,0	89.0	2.0	0.351	0,0,0,1,2,0,3,0,0	to_board	s602
75.317	1.653	0	UA_without_intermediate	3,0,0,1,0,0,0,0,0	practice	ward_and_allport	3,2,1,0,0,0,0,0,0	89.0	2.0	1.653	0,0,0,1,2,0,3,0,0	to_hand	s602
76.972	0.934	0	UA_without_intermediate	3,2,0,1,0,0,0,0,0	practice	ward_and_allport	3,2,1,0,0,0,0,0,0	89.0	2.0	0.934	0,0,0,1,2,0,3,0,0	to_board	s602
77.907	0.538	0	UA_without_intermediate	3,2,0,0,0,0,0,0,0	practice	ward_and_allport	3,2,1,0,0,0,0,0,0	71.0	2.0	0.538	0,0,0,1,2,0,3,0,0	to_hand	s602
78.447	0.407	0	UA_without_intermediate	3,2,1,0,0,0,0,0,0	practice	ward_and_allport	3,2,1,0,0,0,0,0,0	89.0	2.0	0.407	0,0,0,1,2,0,3,0,0	to_board	s602
78.857	1.0	0	UA_without_intermediate	n/a	practice	ward_and_allport	n/a	-1.0	2.0	n/a	n/a	feedback	s602
79.857	1.2	0	UA_without_intermediate	n/a	practice	ward_and_allport	n/a	-1.0	2.0	n/a	n/a	ITI	s602
81.06	5.634	1	UA_without_intermediate	0,0,0,1,0,0,3,0,0	practice	ward_and_allport	2,3,1,0,0,0,0,0,0	71.0	3.0	5.634	0,0,0,1,2,0,3,0,0	to_hand	s602
86.695	0.439	0	UA_without_intermediate	2,0,0,1,0,0,3,0,0	practice	ward_and_allport	2,3,1,0,0,0,0,0,0	89.0	3.0	0.439	0,0,0,1,2,0,3,0,0	to_board	s602
87.137	2.365	0	UA_without_intermediate	2,0,0,1,0,0,0,0,0	practice	ward_and_allport	2,3,1,0,0,0,0,0,0	82.0	3.0	2.365	0,0,0,1,2,0,3,0,0	to_hand	s602
89.503	0.428	0	UA_without_intermediate	2,0,0,1,3,0,0,0,0	practice	ward_and_allport	2,3,1,0,0,0,0,0,0	71.0	3.0	0.428	0,0,0,1,2,0,3,0,0	to_board	s602
89.934	1.147	0	UA_without_intermediate	0,0,0,1,3,0,0,0,0	practice	ward_and_allport	2,3,1,0,0,0,0,0,0	89.0	3.0	1.147	0,0,0,1,2,0,3,0,0	to_hand	s602
91.081	0.726	0	UA_without_intermediate	2,0,0,1,3,0,0,0,0	practice	ward_and_allport	2,3,1,0,0,0,0,0,0	89.0	3.0	0.726	0,0,0,1,2,0,3,0,0	to_board	s602
91.811	0.645	0	UA_without_intermediate	2,0,0,1,0,0,0,0,0	practice	ward_and_allport	2,3,1,0,0,0,0,0,0	71.0	3.0	0.645	0,0,0,1,2,0,3,0,0	to_hand	s602
92.457	0.644	0	UA_without_intermediate	2,3,0,1,0,0,0,0,0	practice	ward_and_allport	2,3,1,0,0,0,0,0,0	89.0	3.0	0.644	0,0,0,1,2,0,3,0,0	to_board	s602
93.104	1.519	0	UA_without_intermediate	2,3,0,0,0,0,0,0,0	practice	ward_and_allport	2,3,1,0,0,0,0,0,0	71.0	3.0	1.519	0,0,0,1,2,0,3,0,0	to_hand	s602
94.624	0.503	0	UA_without_intermediate	2,3,1,0,0,0,0,0,0	practice	ward_and_allport	2,3,1,0,0,0,0,0,0	89.0	3.0	0.503	0,0,0,1,2,0,3,0,0	to_board	s602
95.131	1.0	0	UA_without_intermediate	n/a	practice	ward_and_allport	n/a	-1.0	3.0	n/a	n/a	feedback	s602
96.131	1.0	0	UA_without_intermediate	n/a	practice	ward_and_allport	n/a	-1.0	3.0	n/a	n/a	ITI	s602
99.137	6.572	1	PA_with_intermediate	0,0,0,1,2,0,0,0,0	test	ward_and_allport	2,0,0,1,3,0,0,0,0	71.0	0.0	6.572	0,0,0,1,2,3,0,0,0	to_hand	s602
105.709	1.817	0	PA_with_intermediate	0,0,0,1,2,0,3,0,0	test	ward_and_allport	2,0,0,1,3,0,0,0,0	82.0	0.0	1.817	0,0,0,1,2,3,0,0,0	to_board	s602
107.53	0.659	0	PA_with_intermediate	0,0,0,1,0,0,3,0,0	test	ward_and_allport	2,0,0,1,3,0,0,0,0	71.0	0.0	0.659	0,0,0,1,2,3,0,0,0	to_hand	s602
108.191	0.433	0	PA_with_intermediate	2,0,0,1,0,0,3,0,0	test	ward_and_allport	2,0,0,1,3,0,0,0,0	89.0	0.0	0.433	0,0,0,1,2,3,0,0,0	to_board	s602
108.627	1.757	0	PA_with_intermediate	2,0,0,1,0,0,0,0,0	test	ward_and_allport	2,0,0,1,3,0,0,0,0	82.0	0.0	1.757	0,0,0,1,2,3,0,0,0	to_hand	s602
110.385	1.009	0	PA_with_intermediate	2,0,0,1,3,0,0,0,0	test	ward_and_allport	2,0,0,1,3,0,0,0,0	71.0	0.0	1.009	0,0,0,1,2,3,0,0,0	to_board	s602
111.401	1.0	0	PA_with_intermediate	n/a	test	ward_and_allport	n/a	-1.0	0.0	n/a	n/a	feedback	s602
112.401	2.768	0	PA_with_intermediate	n/a	test	ward_and_allport	n/a	-1.0	0.0	n/a	n/a	ITI	s602
115.171	4.995	1	PA_with_intermediate	0,0,0,0,0,0,1,2,0	test	ward_and_allport	2,0,0,0,0,0,1,3,0	82.0	1.0	4.995	0,0,0,0,0,0,1,2,3	to_hand	s602
120.168	0.395	0	PA_with_intermediate	0,0,0,3,0,0,1,2,0	test	ward_and_allport	2,0,0,0,0,0,1,3,0	71.0	1.0	0.395	0,0,0,0,0,0,1,2,3	to_board	s602
120.567	2.193	0	PA_with_intermediate	0,0,0,3,0,0,1,0,0	test	ward_and_allport	2,0,0,0,0,0,1,3,0	82.0	1.0	2.193	0,0,0,0,0,0,1,2,3	to_hand	s602
122.761	0.985	0	PA_with_intermediate	2,0,0,3,0,0,1,0,0	test	ward_and_allport	2,0,0,0,0,0,1,3,0	89.0	1.0	0.985	0,0,0,0,0,0,1,2,3	to_board	s602
123.748	1.794	0	PA_with_intermediate	2,0,0,0,0,0,1,0,0	test	ward_and_allport	2,0,0,0,0,0,1,3,0	71.0	1.0	1.794	0,0,0,0,0,0,1,2,3	to_hand	s602
125.544	0.528	0	PA_with_intermediate	2,0,0,0,0,0,1,3,0	test	ward_and_allport	2,0,0,0,0,0,1,3,0	82.0	1.0	0.528	0,0,0,0,0,0,1,2,3	to_board	s602
126.078	1.0	0	PA_with_intermediate	n/a	test	ward_and_allport	n/a	-1.0	1.0	n/a	n/a	feedback	s602
127.078	1.68	0	PA_with_intermediate	n/a	test	ward_and_allport	n/a	-1.0	1.0	n/a	n/a	ITI	s602
128.761	5.252	1	PA_without_intermediate	1,2,0,0,0,0,0,0,0	test	ward_and_allport	0,0,0,3,2,0,1,0,0	89.0	2.0	5.252	1,2,3,0,0,0,0,0,0	to_hand	s602
134.015	0.568	0	PA_without_intermediate	1,2,0,3,0,0,0,0,0	test	ward_and_allport	0,0,0,3,2,0,1,0,0	71.0	2.0	0.568	1,2,3,0,0,0,0,0,0	to_board	s602
134.586	5.181	0	PA_without_intermediate	1,0,0,3,0,0,0,0,0	test	ward_and_allport	0,0,0,3,2,0,1,0,0	89.0	2.0	5.181	1,2,3,0,0,0,0,0,0	to_hand	s602
139.768	1.349	0	PA_without_intermediate	1,0,0,3,2,0,0,0,0	test	ward_and_allport	0,0,0,3,2,0,1,0,0	71.0	2.0	1.349	1,2,3,0,0,0,0,0,0	to_board	s602
141.12	1.408	0	PA_without_intermediate	0,0,0,3,2,0,0,0,0	test	ward_and_allport	0,0,0,3,2,0,1,0,0	89.0	2.0	1.408	1,2,3,0,0,0,0,0,0	to_hand	s602
142.53	1.285	0	PA_without_intermediate	0,0,0,3,2,0,1,0,0	test	ward_and_allport	0,0,0,3,2,0,1,0,0	82.0	2.0	1.285	1,2,3,0,0,0,0,0,0	to_board	s602
143.822	1.0	0	PA_without_intermediate	n/a	test	ward_and_allport	n/a	-1.0	2.0	n/a	n/a	feedback	s602
144.822	2.224	0	PA_without_intermediate	n/a	test	ward_and_allport	n/a	-1.0	2.0	n/a	n/a	ITI	s602
147.05	7.423	1	PA_without_intermediate	0,0,0,1,2,0,0,0,0	test	ward_and_allport	2,0,0,0,0,0,3,1,0	71.0	3.0	7.423	0,0,0,1,2,3,0,0,0	to_hand	s602
154.475	0.941	0	PA_without_intermediate	0,0,0,1,2,0,3,0,0	test	ward_and_allport	2,0,0,0,0,0,3,1,0	82.0	3.0	0.941	0,0,0,1,2,3,0,0,0	to_board	s602
155.418	1.112	0	PA_without_intermediate	0,0,0,1,0,0,3,0,0	test	ward_and_allport	2,0,0,0,0,0,3,1,0	71.0	3.0	1.112	0,0,0,1,2,3,0,0,0	to_hand	s602
156.532	1.116	0	PA_without_intermediate	2,0,0,1,0,0,3,0,0	test	ward_and_allport	2,0,0,0,0,0,3,1,0	89.0	3.0	1.116	0,0,0,1,2,3,0,0,0	to_board	s602
157.651	2.893	0	PA_without_intermediate	2,0,0,0,0,0,3,0,0	test	ward_and_allport	2,0,0,0,0,0,3,1,0	71.0	3.0	2.893	0,0,0,1,2,3,0,0,0	to_hand	s602
160.546	0.279	0	PA_without_intermediate	2,0,0,0,0,0,3,1,0	test	ward_and_allport	2,0,0,0,0,0,3,1,0	82.0	3.0	0.279	0,0,0,1,2,3,0,0,0	to_board	s602
160.832	1.0	0	PA_without_intermediate	n/a	test	ward_and_allport	n/a	-1.0	3.0	n/a	n/a	feedback	s602
161.832	2.36	0	PA_without_intermediate	n/a	test	ward_and_allport	n/a	-1.0	3.0	n/a	n/a	ITI	s602
164.198	8.122	1	PA_without_intermediate	0,0,0,1,2,0,0,0,0	test	ward_and_allport	3,1,0,0,0,0,2,0,0	71.0	4.0	8.122	0,0,0,1,2,3,0,0,0	to_hand	s602
172.321	0.652	0	PA_without_intermediate	3,0,0,1,2,0,0,0,0	test	ward_and_allport	3,1,0,0,0,0,2,0,0	89.0	4.0	0.652	0,0,0,1,2,3,0,0,0	to_board	s602
172.977	1.86	0	PA_without_intermediate	3,0,0,1,0,0,0,0,0	test	ward_and_allport	3,1,0,0,0,0,2,0,0	71.0	4.0	1.86	0,0,0,1,2,3,0,0,0	to_hand	s602
174.839	0.387	0	PA_without_intermediate	3,0,0,1,0,0,2,0,0	test	ward_and_allport	3,1,0,0,0,0,2,0,0	82.0	4.0	0.387	0,0,0,1,2,3,0,0,0	to_board	s602
175.23	0.564	0	PA_without_intermediate	3,0,0,0,0,0,2,0,0	test	ward_and_allport	3,1,0,0,0,0,2,0,0	71.0	4.0	0.564	0,0,0,1,2,3,0,0,0	to_hand	s602
175.795	0.364	0	PA_without_intermediate	3,1,0,0,0,0,2,0,0	test	ward_and_allport	3,1,0,0,0,0,2,0,0	89.0	4.0	0.364	0,0,0,1,2,3,0,0,0	to_board	s602
176.166	1.0	0	PA_without_intermediate	n/a	test	ward_and_allport	n/a	-1.0	4.0	n/a	n/a	feedback	s602
177.166	1.0	0	PA_without_intermediate	n/a	test	ward_and_allport	n/a	-1.0	4.0	n/a	n/a	ITI	s602
178.17	6.065	1	PA_without_intermediate	0,0,0,0,0,0,1,2,0	test	ward_and_allport	2,0,0,3,1,0,0,0,0	82.0	5.0	6.065	0,0,0,0,0,0,1,2,3	to_hand	s602
184.237	0.539	0	PA_without_intermediate	0,0,0,3,0,0,1,2,0	test	ward_and_allport	2,0,0,3,1,0,0,0,0	71.0	5.0	0.539	0,0,0,0,0,0,1,2,3	to_board	s602
184.781	4.065	0	PA_without_intermediate	0,0,0,0,0,0,1,2,0	test	ward_and_allport	2,0,0,3,1,0,0,0,0	71.0	5.0	4.065	0,0,0,0,0,0,1,2,3	to_hand	s602
188.847	0.753	0	PA_without_intermediate	0,0,0,3,0,0,1,2,0	test	ward_and_allport	2,0,0,3,1,0,0,0,0	71.0	5.0	0.753	0,0,0,0,0,0,1,2,3	to_board	s602
189.604	0.315	0	PA_without_intermediate	0,0,0,3,0,0,1,0,0	test	ward_and_allport	2,0,0,3,1,0,0,0,0	82.0	5.0	0.315	0,0,0,0,0,0,1,2,3	to_hand	s602
189.922	0.778	0	PA_without_intermediate	2,0,0,3,0,0,1,0,0	test	ward_and_allport	2,0,0,3,1,0,0,0,0	89.0	5.0	0.778	0,0,0,0,0,0,1,2,3	to_board	s602
190.706	2.318	0	PA_without_intermediate	2,0,0,3,0,0,0,0,0	test	ward_and_allport	2,0,0,3,1,0,0,0,0	82.0	5.0	2.318	0,0,0,0,0,0,1,2,3	to_hand	s602
193.027	0.3	0	PA_without_intermediate	2,0,0,3,1,0,0,0,0	test	ward_and_allport	2,0,0,3,1,0,0,0,0	71.0	5.0	0.3	0,0,0,0,0,0,1,2,3	to_board	s602
193.335	1.0	0	PA_without_intermediate	n/a	test	ward_and_allport	n/a	-1.0	5.0	n/a	n/a	feedback	s602
194.335	1.408	0	PA_without_intermediate	n/a	test	ward_and_allport	n/a	-1.0	5.0	n/a	n/a	ITI	s602
195.746	5.702	1	PA_with_intermediate	1,2,0,0,0,0,0,0,0	test	ward_and_allport	1,0,0,0,0,0,2,3,0	89.0	6.0	5.702	1,2,3,0,0,0,0,0,0	to_hand	s602
201.449	0.634	0	PA_with_intermediate	1,2,0,3,0,0,0,0,0	test	ward_and_allport	1,0,0,0,0,0,2,3,0	71.0	6.0	0.634	1,2,3,0,0,0,0,0,0	to_board	s602
202.087	1.148	0	PA_with_intermediate	1,0,0,3,0,0,0,0,0	test	ward_and_allport	1,0,0,0,0,0,2,3,0	89.0	6.0	1.148	1,2,3,0,0,0,0,0,0	to_hand	s602
203.235	1.036	0	PA_with_intermediate	1,0,0,3,0,0,2,0,0	test	ward_and_allport	1,0,0,0,0,0,2,3,0	82.0	6.0	1.036	1,2,3,0,0,0,0,0,0	to_board	s602
204.276	4.135	0	PA_with_intermediate	1,0,0,0,0,0,2,0,0	test	ward_and_allport	1,0,0,0,0,0,2,3,0	71.0	6.0	4.135	1,2,3,0,0,0,0,0,0	to_hand	s602
208.412	0.277	0	PA_with_intermediate	1,0,0,0,0,0,2,3,0	test	ward_and_allport	1,0,0,0,0,0,2,3,0	82.0	6.0	0.277	1,2,3,0,0,0,0,0,0	to_board	s602
208.696	1.0	0	PA_with_intermediate	n/a	test	ward_and_allport	n/a	-1.0	6.0	n/a	n/a	feedback	s602
209.696	1.136	0	PA_with_intermediate	n/a	test	ward_and_allport	n/a	-1.0	6.0	n/a	n/a	ITI	s602
210.836	5.099	1	PA_without_intermediate	1,2,0,0,0,0,0,0,0	test	ward_and_allport	0,0,0,1,0,0,3,2,0	89.0	7.0	5.099	1,2,3,0,0,0,0,0,0	to_hand	s602
215.937	0.348	0	PA_without_intermediate	1,2,0,3,0,0,0,0,0	test	ward_and_allport	0,0,0,1,0,0,3,2,0	71.0	7.0	0.348	1,2,3,0,0,0,0,0,0	to_board	s602
216.29	1.746	0	PA_without_intermediate	1,0,0,3,0,0,0,0,0	test	ward_and_allport	0,0,0,1,0,0,3,2,0	89.0	7.0	1.746	1,2,3,0,0,0,0,0,0	to_hand	s602
218.037	0.713	0	PA_without_intermediate	1,0,0,3,0,0,2,0,0	test	ward_and_allport	0,0,0,1,0,0,3,2,0	82.0	7.0	0.713	1,2,3,0,0,0,0,0,0	to_board	s602
218.756	1.388	0	PA_without_intermediate	0,0,0,3,0,0,2,0,0	test	ward_and_allport	0,0,0,1,0,0,3,2,0	89.0	7.0	1.388	1,2,3,0,0,0,0,0,0	to_hand	s602
220.145	0.374	0	PA_without_intermediate	0,0,0,3,0,0,2,1,0	test	ward_and_allport	0,0,0,1,0,0,3,2,0	82.0	7.0	0.374	1,2,3,0,0,0,0,0,0	to_board	s602
220.523	2.558	0	PA_without_intermediate	0,0,0,3,0,0,2,0,0	test	ward_and_allport	0,0,0,1,0,0,3,2,0	82.0	7.0	2.558	1,2,3,0,0,0,0,0,0	to_hand	s602
223.083	0.787	0	PA_without_intermediate	1,0,0,3,0,0,2,0,0	test	ward_and_allport	0,0,0,1,0,0,3,2,0	89.0	7.0	0.787	1,2,3,0,0,0,0,0,0	to_board	s602
223.875	3.101	0	PA_without_intermediate	1,0,0,3,0,0,0,0,0	test	ward_and_allport	0,0,0,1,0,0,3,2,0	82.0	7.0	3.101	1,2,3,0,0,0,0,0,0	to_hand	s602
226.978	0.659	0	PA_without_intermediate	1,0,0,3,0,0,2,0,0	test	ward_and_allport	0,0,0,1,0,0,3,2,0	82.0	7.0	0.659	1,2,3,0,0,0,0,0,0	to_board	s602
227.64	0.5	0	PA_without_intermediate	1,0,0,3,0,0,0,0,0	test	ward_and_allport	0,0,0,1,0,0,3,2,0	82.0	7.0	0.5	1,2,3,0,0,0,0,0,0	to_hand	s602
228.141	0.361	0	PA_without_intermediate	1,2,0,3,0,0,0,0,0	test	ward_and_allport	0,0,0,1,0,0,3,2,0	89.0	7.0	0.361	1,2,3,0,0,0,0,0,0	to_board	s602
228.506	0.505	0	PA_without_intermediate	1,2,0,0,0,0,0,0,0	test	ward_and_allport	0,0,0,1,0,0,3,2,0	71.0	7.0	0.505	1,2,3,0,0,0,0,0,0	to_hand	s602
229.012	0.631	0	PA_without_intermediate	1,2,0,0,0,0,3,0,0	test	ward_and_allport	0,0,0,1,0,0,3,2,0	82.0	7.0	0.631	1,2,3,0,0,0,0,0,0	to_board	s602
229.647	2.815	0	PA_without_intermediate	1,0,0,0,0,0,3,0,0	test	ward_and_allport	0,0,0,1,0,0,3,2,0	89.0	7.0	2.815	1,2,3,0,0,0,0,0,0	to_hand	s602
232.462	2.766	0	PA_without_intermediate	1,0,0,0,0,0,3,2,0	test	ward_and_allport	0,0,0,1,0,0,3,2,0	82.0	7.0	2.766	1,2,3,0,0,0,0,0,0	to_board	s602
235.232	1.399	0	PA_without_intermediate	0,0,0,0,0,0,3,2,0	test	ward_and_allport	0,0,0,1,0,0,3,2,0	89.0	7.0	1.399	1,2,3,0,0,0,0,0,0	to_hand	s602
236.631	0.44	0	PA_without_intermediate	0,0,0,1,0,0,3,2,0	test	ward_and_allport	0,0,0,1,0,0,3,2,0	71.0	7.0	0.44	1,2,3,0,0,0,0,0,0	to_board	s602
237.075	1.0	0	PA_without_intermediate	n/a	test	ward_and_allport	n/a	-1.0	7.0	n/a	n/a	feedback	s602
238.075	4.128	0	PA_without_intermediate	n/a	test	ward_and_allport	n/a	-1.0	7.0	n/a	n/a	ITI	s602
242.206	6.899	1	PA_without_intermediate	0,0,0,1,2,0,0,0,0	test	ward_and_allport	1,0,0,0,0,0,3,2,0	71.0	8.0	6.899	0,0,0,1,2,3,0,0,0	to_hand	s602
249.107	0.433	0	PA_without_intermediate	0,0,0,1,2,0,3,0,0	test	ward_and_allport	1,0,0,0,0,0,3,2,0	82.0	8.0	0.433	0,0,0,1,2,3,0,0,0	to_board	s602
249.544	1.46	0	PA_without_intermediate	0,0,0,1,0,0,3,0,0	test	ward_and_allport	1,0,0,0,0,0,3,2,0	71.0	8.0	1.46	0,0,0,1,2,3,0,0,0	to_hand	s602
251.006	0.357	0	PA_without_intermediate	0,0,0,1,0,0,3,2,0	test	ward_and_allport	1,0,0,0,0,0,3,2,0	82.0	8.0	0.357	0,0,0,1,2,3,0,0,0	to_board	s602
251.367	1.651	0	PA_without_intermediate	0,0,0,0,0,0,3,2,0	test	ward_and_allport	1,0,0,0,0,0,3,2,0	71.0	8.0	1.651	0,0,0,1,2,3,0,0,0	to_hand	s602
253.019	0.462	0	PA_without_intermediate	1,0,0,0,0,0,3,2,0	test	ward_and_allport	1,0,0,0,0,0,3,2,0	89.0	8.0	0.462	0,0,0,1,2,3,0,0,0	to_board	s602
253.486	1.0	0	PA_without_intermediate	n/a	test	ward_and_allport	n/a	-1.0	8.0	n/a	n/a	feedback	s602
254.486	1.136	0	PA_without_intermediate	n/a	test	ward_and_allport	n/a	-1.0	8.0	n/a	n/a	ITI	s602
255.626	2.806	1	PA_without_intermediate	0,0,0,0,0,0,1,2,0	test	ward_and_allport	2,0,0,3,1,0,0,0,0	82.0	9.0	2.806	0,0,0,0,0,0,1,2,3	to_hand	s602
258.434	1.025	0	PA_without_intermediate	0,0,0,3,0,0,1,2,0	test	ward_and_allport	2,0,0,3,1,0,0,0,0	71.0	9.0	1.025	0,0,0,0,0,0,1,2,3	to_board	s602
259.465	1.069	0	PA_without_intermediate	0,0,0,3,0,0,1,0,0	test	ward_and_allport	2,0,0,3,1,0,0,0,0	82.0	9.0	1.069	0,0,0,0,0,0,1,2,3	to_hand	s602
260.535	0.442	0	PA_without_intermediate	2,0,0,3,0,0,1,0,0	test	ward_and_allport	2,0,0,3,1,0,0,0,0	89.0	9.0	0.442	0,0,0,0,0,0,1,2,3	to_board	s602
260.98	1.128	0	PA_without_intermediate	2,0,0,3,0,0,0,0,0	test	ward_and_allport	2,0,0,3,1,0,0,0,0	82.0	9.0	1.128	0,0,0,0,0,0,1,2,3	to_hand	s602
262.109	0.445	0	PA_without_intermediate	2,0,0,3,1,0,0,0,0	test	ward_and_allport	2,0,0,3,1,0,0,0,0	71.0	9.0	0.445	0,0,0,0,0,0,1,2,3	to_board	s602
262.561	1.0	0	PA_without_intermediate	n/a	test	ward_and_allport	n/a	-1.0	9.0	n/a	n/a	feedback	s602
263.561	4.264	0	PA_without_intermediate	n/a	test	ward_and_allport	n/a	-1.0	9.0	n/a	n/a	ITI	s602
267.829	5.315	1	PA_with_intermediate	1,2,0,0,0,0,0,0,0	test	ward_and_allport	1,3,0,2,0,0,0,0,0	89.0	10.0	5.315	1,2,3,0,0,0,0,0,0	to_hand	s602
273.145	1.241	0	PA_with_intermediate	1,2,0,0,0,0,3,0,0	test	ward_and_allport	1,3,0,2,0,0,0,0,0	82.0	10.0	1.241	1,2,3,0,0,0,0,0,0	to_board	s602
274.391	1.057	0	PA_with_intermediate	1,0,0,0,0,0,3,0,0	test	ward_and_allport	1,3,0,2,0,0,0,0,0	89.0	10.0	1.057	1,2,3,0,0,0,0,0,0	to_hand	s602
275.449	0.503	0	PA_with_intermediate	1,0,0,2,0,0,3,0,0	test	ward_and_allport	1,3,0,2,0,0,0,0,0	71.0	10.0	0.503	1,2,3,0,0,0,0,0,0	to_board	s602
275.957	1.034	0	PA_with_intermediate	1,0,0,2,0,0,0,0,0	test	ward_and_allport	1,3,0,2,0,0,0,0,0	82.0	10.0	1.034	1,2,3,0,0,0,0,0,0	to_hand	s602
276.991	0.965	0	PA_with_intermediate	1,3,0,2,0,0,0,0,0	test	ward_and_allport	1,3,0,2,0,0,0,0,0	89.0	10.0	0.965	1,2,3,0,0,0,0,0,0	to_board	s602
277.966	1.0	0	PA_with_intermediate	n/a	test	ward_and_allport	n/a	-1.0	10.0	n/a	n/a	feedback	s602
278.966	3.04	0	PA_with_intermediate	n/a	test	ward_and_allport	n/a	-1.0	10.0	n/a	n/a	ITI	s602
282.009	5.394	1	PA_with_intermediate	1,2,0,0,0,0,0,0,0	test	ward_and_allport	1,3,0,0,0,0,2,0,0	89.0	11.0	5.394	1,2,3,0,0,0,0,0,0	to_hand	s602
287.405	1.505	0	PA_with_intermediate	1,2,0,3,0,0,0,0,0	test	ward_and_allport	1,3,0,0,0,0,2,0,0	71.0	11.0	1.505	1,2,3,0,0,0,0,0,0	to_board	s602
288.915	1.775	0	PA_with_intermediate	1,0,0,3,0,0,0,0,0	test	ward_and_allport	1,3,0,0,0,0,2,0,0	89.0	11.0	1.775	1,2,3,0,0,0,0,0,0	to_hand	s602
290.691	0.785	0	PA_with_intermediate	1,0,0,3,0,0,2,0,0	test	ward_and_allport	1,3,0,0,0,0,2,0,0	82.0	11.0	0.785	1,2,3,0,0,0,0,0,0	to_board	s602
291.481	2.076	0	PA_with_intermediate	1,0,0,0,0,0,2,0,0	test	ward_and_allport	1,3,0,0,0,0,2,0,0	71.0	11.0	2.076	1,2,3,0,0,0,0,0,0	to_hand	s602
293.557	0.438	0	PA_with_intermediate	1,3,0,0,0,0,2,0,0	test	ward_and_allport	1,3,0,0,0,0,2,0,0	89.0	11.0	0.438	1,2,3,0,0,0,0,0,0	to_board	s602
294.003	1.0	0	PA_with_intermediate	n/a	test	ward_and_allport	n/a	-1.0	11.0	n/a	n/a	feedback	s602
295.003	1.136	0	PA_with_intermediate	n/a	test	ward_and_allport	n/a	-1.0	11.0	n/a	n/a	ITI	s602
296.144	3.776	1	PA_with_intermediate	0,0,0,0,0,0,1,2,0	test	ward_and_allport	2,3,0,0,0,0,1,0,0	82.0	12.0	3.776	0,0,0,0,0,0,1,2,3	to_hand	s602
299.922	1.753	0	PA_with_intermediate	0,0,0,3,0,0,1,2,0	test	ward_and_allport	2,3,0,0,0,0,1,0,0	71.0	12.0	1.753	0,0,0,0,0,0,1,2,3	to_board	s602
301.68	1.95	0	PA_with_intermediate	0,0,0,3,0,0,1,0,0	test	ward_and_allport	2,3,0,0,0,0,1,0,0	82.0	12.0	1.95	0,0,0,0,0,0,1,2,3	to_hand	s602
303.63	0.58	0	PA_with_intermediate	2,0,0,3,0,0,1,0,0	test	ward_and_allport	2,3,0,0,0,0,1,0,0	89.0	12.0	0.58	0,0,0,0,0,0,1,2,3	to_board	s602
304.214	1.393	0	PA_with_intermediate	2,0,0,0,0,0,1,0,0	test	ward_and_allport	2,3,0,0,0,0,1,0,0	71.0	12.0	1.393	0,0,0,0,0,0,1,2,3	to_hand	s602
305.609	0.549	0	PA_with_intermediate	2,3,0,0,0,0,1,0,0	test	ward_and_allport	2,3,0,0,0,0,1,0,0	89.0	12.0	0.549	0,0,0,0,0,0,1,2,3	to_board	s602
306.163	1.0	0	PA_with_intermediate	n/a	test	ward_and_allport	n/a	-1.0	12.0	n/a	n/a	feedback	s602
307.163	1.408	0	PA_with_intermediate	n/a	test	ward_and_allport	n/a	-1.0	12.0	n/a	n/a	ITI	s602
308.576	3.149	1	PA_without_intermediate	0,0,0,0,0,0,1,2,0	test	ward_and_allport	1,0,0,3,2,0,0,0,0	82.0	13.0	3.149	0,0,0,0,0,0,1,2,3	to_hand	s602
311.725	0.527	0	PA_without_intermediate	0,0,0,3,0,0,1,2,0	test	ward_and_allport	1,0,0,3,2,0,0,0,0	71.0	13.0	0.527	0,0,0,0,0,0,1,2,3	to_board	s602
312.257	2.868	0	PA_without_intermediate	0,0,0,3,0,0,1,0,0	test	ward_and_allport	1,0,0,3,2,0,0,0,0	82.0	13.0	2.868	0,0,0,0,0,0,1,2,3	to_hand	s602
315.127	0.958	0	PA_without_intermediate	0,0,0,3,2,0,1,0,0	test	ward_and_allport	1,0,0,3,2,0,0,0,0	71.0	13.0	0.958	0,0,0,0,0,0,1,2,3	to_board	s602
316.09	0.931	0	PA_without_intermediate	0,0,0,3,2,0,0,0,0	test	ward_and_allport	1,0,0,3,2,0,0,0,0	82.0	13.0	0.931	0,0,0,0,0,0,1,2,3	to_hand	s602
317.022	0.727	0	PA_without_intermediate	1,0,0,3,2,0,0,0,0	test	ward_and_allport	1,0,0,3,2,0,0,0,0	89.0	13.0	0.727	0,0,0,0,0,0,1,2,3	to_board	s602
317.757	1.0	0	PA_without_intermediate	n/a	test	ward_and_allport	n/a	-1.0	13.0	n/a	n/a	feedback	s602
318.757	1.68	0	PA_without_intermediate	n/a	test	ward_and_allport	n/a	-1.0	13.0	n/a	n/a	ITI	s602
320.443	3.46	1	PA_with_intermediate	0,0,0,1,2,0,0,0,0	test	ward_and_allport	2,3,0,1,0,0,0,0,0	71.0	14.0	3.46	0,0,0,1,2,3,0,0,0	to_hand	s602
323.904	0.497	0	PA_with_intermediate	3,0,0,1,2,0,0,0,0	test	ward_and_allport	2,3,0,1,0,0,0,0,0	89.0	14.0	0.497	0,0,0,1,2,3,0,0,0	to_board	s602
324.405	1.317	0	PA_with_intermediate	0,0,0,1,2,0,0,0,0	test	ward_and_allport	2,3,0,1,0,0,0,0,0	89.0	14.0	1.317	0,0,0,1,2,3,0,0,0	to_hand	s602
325.724	1.076	0	PA_with_intermediate	0,0,0,1,2,0,3,0,0	test	ward_and_allport	2,3,0,1,0,0,0,0,0	82.0	14.0	1.076	0,0,0,1,2,3,0,0,0	to_board	s602
326.806	2.589	0	PA_with_intermediate	0,0,0,1,0,0,3,0,0	test	ward_and_allport	2,3,0,1,0,0,0,0,0	71.0	14.0	2.589	0,0,0,1,2,3,0,0,0	to_hand	s602
329.396	0.343	0	PA_with_intermediate	2,0,0,1,0,0,3,0,0	test	ward_and_allport	2,3,0,1,0,0,0,0,0	89.0	14.0	0.343	0,0,0,1,2,3,0,0,0	to_board	s602
329.744	1.153	0	PA_with_intermediate	2,0,0,1,0,0,0,0,0	test	ward_and_allport	2,3,0,1,0,0,0,0,0	82.0	14.0	1.153	0,0,0,1,2,3,0,0,0	to_hand	s602
330.899	0.959	0	PA_with_intermediate	2,3,0,1,0,0,0,0,0	test	ward_and_allport	2,3,0,1,0,0,0,0,0	89.0	14.0	0.959	0,0,0,1,2,3,0,0,0	to_board	s602
331.867	1.0	0	PA_with_intermediate	n/a	test	ward_and_allport	n/a	-1.0	14.0	n/a	n/a	feedback	s602
332.867	3.72	0	PA_with_intermediate	n/a	test	ward_and_allport	n/a	-1.0	14.0	n/a	n/a	ITI	s602
341.596	5.247	1	PA_without_intermediate	1,2,0,0,0,0,0,0,0	test	ward_and_allport	0,0,0,1,0,0,3,2,0	89.0	15.0	5.247	1,2,3,0,0,0,0,0,0	to_hand	s602
346.845	2.229	0	PA_without_intermediate	1,2,0,0,0,0,3,0,0	test	ward_and_allport	0,0,0,1,0,0,3,2,0	82.0	15.0	2.229	1,2,3,0,0,0,0,0,0	to_board	s602
349.08	1.697	0	PA_without_intermediate	1,0,0,0,0,0,3,0,0	test	ward_and_allport	0,0,0,1,0,0,3,2,0	89.0	15.0	1.697	1,2,3,0,0,0,0,0,0	to_hand	s602
350.778	0.364	0	PA_without_intermediate	1,0,0,0,0,0,3,2,0	test	ward_and_allport	0,0,0,1,0,0,3,2,0	82.0	15.0	0.364	1,2,3,0,0,0,0,0,0	to_board	s602
351.148	1.655	0	PA_without_intermediate	0,0,0,0,0,0,3,2,0	test	ward_and_allport	0,0,0,1,0,0,3,2,0	89.0	15.0	1.655	1,2,3,0,0,0,0,0,0	to_hand	s602
352.804	0.598	0	PA_without_intermediate	0,0,0,1,0,0,3,2,0	test	ward_and_allport	0,0,0,1,0,0,3,2,0	71.0	15.0	0.598	1,2,3,0,0,0,0,0,0	to_board	s602
353.411	1.0	0	PA_without_intermediate	n/a	test	ward_and_allport	n/a	-1.0	15.0	n/a	n/a	feedback	s602
354.411	2.224	0	PA_without_intermediate	n/a	test	ward_and_allport	n/a	-1.0	15.0	n/a	n/a	ITI	s602
356.641	4.428	1	PA_without_intermediate	1,2,0,0,0,0,0,0,0	test	ward_and_allport	0,0,0,2,0,0,3,1,0	89.0	16.0	4.428	1,2,3,0,0,0,0,0,0	to_hand	s602
361.07	0.436	0	PA_without_intermediate	1,2,0,0,0,0,3,0,0	test	ward_and_allport	0,0,0,2,0,0,3,1,0	82.0	16.0	0.436	1,2,3,0,0,0,0,0,0	to_board	s602
361.513	2.063	0	PA_without_intermediate	1,0,0,0,0,0,3,0,0	test	ward_and_allport	0,0,0,2,0,0,3,1,0	89.0	16.0	2.063	1,2,3,0,0,0,0,0,0	to_hand	s602
363.576	0.538	0	PA_without_intermediate	1,0,0,2,0,0,3,0,0	test	ward_and_allport	0,0,0,2,0,0,3,1,0	71.0	16.0	0.538	1,2,3,0,0,0,0,0,0	to_board	s602
364.12	1.791	0	PA_without_intermediate	0,0,0,2,0,0,3,0,0	test	ward_and_allport	0,0,0,2,0,0,3,1,0	89.0	16.0	1.791	1,2,3,0,0,0,0,0,0	to_hand	s602
365.912	0.366	0	PA_without_intermediate	0,0,0,2,0,0,3,1,0	test	ward_and_allport	0,0,0,2,0,0,3,1,0	82.0	16.0	0.366	1,2,3,0,0,0,0,0,0	to_board	s602
366.286	1.0	0	PA_without_intermediate	n/a	test	ward_and_allport	n/a	-1.0	16.0	n/a	n/a	feedback	s602
367.286	1.272	0	PA_without_intermediate	n/a	test	ward_and_allport	n/a	-1.0	16.0	n/a	n/a	ITI	s602
368.564	6.707	1	PA_with_intermediate	0,0,0,1,2,0,0,0,0	test	ward_and_allport	0,0,0,1,0,0,2,3,0	71.0	17.0	6.707	0,0,0,1,2,3,0,0,0	to_hand	s602
375.271	0.768	0	PA_with_intermediate	3,0,0,1,2,0,0,0,0	test	ward_and_allport	0,0,0,1,0,0,2,3,0	89.0	17.0	0.768	0,0,0,1,2,3,0,0,0	to_board	s602
376.046	0.815	0	PA_with_intermediate	3,0,0,1,0,0,0,0,0	test	ward_and_allport	0,0,0,1,0,0,2,3,0	71.0	17.0	0.815	0,0,0,1,2,3,0,0,0	to_hand	s602
376.862	0.391	0	PA_with_intermediate	3,0,0,1,0,0,2,0,0	test	ward_and_allport	0,0,0,1,0,0,2,3,0	82.0	17.0	0.391	0,0,0,1,2,3,0,0,0	to_board	s602
377.26	1.1	0	PA_with_intermediate	0,0,0,1,0,0,2,0,0	test	ward_and_allport	0,0,0,1,0,0,2,3,0	89.0	17.0	1.1	0,0,0,1,2,3,0,0,0	to_hand	s602
378.361	1.301	0	PA_with_intermediate	0,0,0,1,0,0,2,3,0	test	ward_and_allport	0,0,0,1,0,0,2,3,0	82.0	17.0	1.301	0,0,0,1,2,3,0,0,0	to_board	s602
379.67	1.0	0	PA_with_intermediate	n/a	test	ward_and_allport	n/a	-1.0	17.0	n/a	n/a	feedback	s602
380.67	2.632	0	PA_with_intermediate	n/a	test	ward_and_allport	n/a	-1.0	17.0	n/a	n/a	ITI	s602
383.308	3.455	1	PA_without_intermediate	1,2,0,0,0,0,0,0,0	test	ward_and_allport	0,0,0,2,0,0,3,1,0	89.0	18.0	3.455	1,2,3,0,0,0,0,0,0	to_hand	s602
386.765	0.348	0	PA_without_intermediate	1,2,0,0,0,0,3,0,0	test	ward_and_allport	0,0,0,2,0,0,3,1,0	82.0	18.0	0.348	1,2,3,0,0,0,0,0,0	to_board	s602
387.12	1.024	0	PA_without_intermediate	1,0,0,0,0,0,3,0,0	test	ward_and_allport	0,0,0,2,0,0,3,1,0	89.0	18.0	1.024	1,2,3,0,0,0,0,0,0	to_hand	s602
388.146	0.473	0	PA_without_intermediate	1,0,0,2,0,0,3,0,0	test	ward_and_allport	0,0,0,2,0,0,3,1,0	71.0	18.0	0.473	1,2,3,0,0,0,0,0,0	to_board	s602
388.626	1.17	0	PA_without_intermediate	0,0,0,2,0,0,3,0,0	test	ward_and_allport	0,0,0,2,0,0,3,1,0	89.0	18.0	1.17	1,2,3,0,0,0,0,0,0	to_hand	s602
389.798	0.205	0	PA_without_intermediate	0,0,0,2,0,0,3,1,0	test	ward_and_allport	0,0,0,2,0,0,3,1,0	82.0	18.0	0.205	1,2,3,0,0,0,0,0,0	to_board	s602
390.012	1.0	0	PA_without_intermediate	n/a	test	ward_and_allport	n/a	-1.0	18.0	n/a	n/a	feedback	s602
391.012	1.408	0	PA_without_intermediate	n/a	test	ward_and_allport	n/a	-1.0	18.0	n/a	n/a	ITI	s602
392.426	5.674	1	PA_without_intermediate	1,2,0,0,0,0,0,0,0	test	ward_and_allport	0,0,0,3,1,0,2,0,0	89.0	19.0	5.674	1,2,3,0,0,0,0,0,0	to_hand	s602
398.101	0.361	0	PA_without_intermediate	1,2,0,3,0,0,0,0,0	test	ward_and_allport	0,0,0,3,1,0,2,0,0	71.0	19.0	0.361	1,2,3,0,0,0,0,0,0	to_board	s602
398.468	1.65	0	PA_without_intermediate	1,0,0,3,0,0,0,0,0	test	ward_and_allport	0,0,0,3,1,0,2,0,0	89.0	19.0	1.65	1,2,3,0,0,0,0,0,0	to_hand	s602
400.12	0.535	0	PA_without_intermediate	1,0,0,3,0,0,2,0,0	test	ward_and_allport	0,0,0,3,1,0,2,0,0	82.0	19.0	0.535	1,2,3,0,0,0,0,0,0	to_board	s602
400.661	0.846	0	PA_without_intermediate	0,0,0,3,0,0,2,0,0	test	ward_and_allport	0,0,0,3,1,0,2,0,0	89.0	19.0	0.846	1,2,3,0,0,0,0,0,0	to_hand	s602
401.509	0.243	0	PA_without_intermediate	0,0,0,3,1,0,2,0,0	test	ward_and_allport	0,0,0,3,1,0,2,0,0	71.0	19.0	0.243	1,2,3,0,0,0,0,0,0	to_board	s602
401.761	1.0	0	PA_without_intermediate	n/a	test	ward_and_allport	n/a	-1.0	19.0	n/a	n/a	feedback	s602
402.761	1.0	0	PA_without_intermediate	n/a	test	ward_and_allport	n/a	-1.0	19.0	n/a	n/a	ITI	s602
403.768	4.549	1	PA_with_intermediate	0,0,0,0,0,0,1,2,0	test	ward_and_allport	2,0,0,0,0,0,1,3,0	82.0	20.0	4.549	0,0,0,0,0,0,1,2,3	to_hand	s602
408.319	0.702	0	PA_with_intermediate	0,0,0,3,0,0,1,2,0	test	ward_and_allport	2,0,0,0,0,0,1,3,0	71.0	20.0	0.702	0,0,0,0,0,0,1,2,3	to_board	s602
409.028	0.743	0	PA_with_intermediate	0,0,0,3,0,0,1,0,0	test	ward_and_allport	2,0,0,0,0,0,1,3,0	82.0	20.0	0.743	0,0,0,0,0,0,1,2,3	to_hand	s602
409.773	0.542	0	PA_with_intermediate	2,0,0,3,0,0,1,0,0	test	ward_and_allport	2,0,0,0,0,0,1,3,0	89.0	20.0	0.542	0,0,0,0,0,0,1,2,3	to_board	s602
410.322	0.55	0	PA_with_intermediate	2,0,0,0,0,0,1,0,0	test	ward_and_allport	2,0,0,0,0,0,1,3,0	71.0	20.0	0.55	0,0,0,0,0,0,1,2,3	to_hand	s602
410.872	0.368	0	PA_with_intermediate	2,0,0,0,0,0,1,3,0	test	ward_and_allport	2,0,0,0,0,0,1,3,0	82.0	20.0	0.368	0,0,0,0,0,0,1,2,3	to_board	s602
411.249	1.0	0	PA_with_intermediate	n/a	test	ward_and_allport	n/a	-1.0	20.0	n/a	n/a	feedback	s602
412.249	1.0	0	PA_with_intermediate	n/a	test	ward_and_allport	n/a	-1.0	20.0	n/a	n/a	ITI	s602
413.254	5.896	1	PA_with_intermediate	0,0,0,1,2,0,0,0,0	test	ward_and_allport	2,0,0,1,3,0,0,0,0	71.0	21.0	5.896	0,0,0,1,2,3,0,0,0	to_hand	s602
419.151	0.794	0	PA_with_intermediate	0,0,0,1,2,0,3,0,0	test	ward_and_allport	2,0,0,1,3,0,0,0,0	82.0	21.0	0.794	0,0,0,1,2,3,0,0,0	to_board	s602
419.952	1.023	0	PA_with_intermediate	0,0,0,1,0,0,3,0,0	test	ward_and_allport	2,0,0,1,3,0,0,0,0	71.0	21.0	1.023	0,0,0,1,2,3,0,0,0	to_hand	s602
420.975	0.515	0	PA_with_intermediate	2,0,0,1,0,0,3,0,0	test	ward_and_allport	2,0,0,1,3,0,0,0,0	89.0	21.0	0.515	0,0,0,1,2,3,0,0,0	to_board	s602
421.498	2.151	0	PA_with_intermediate	2,0,0,1,0,0,0,0,0	test	ward_and_allport	2,0,0,1,3,0,0,0,0	82.0	21.0	2.151	0,0,0,1,2,3,0,0,0	to_hand	s602
423.65	0.268	0	PA_with_intermediate	2,3,0,1,0,0,0,0,0	test	ward_and_allport	2,0,0,1,3,0,0,0,0	89.0	21.0	0.268	0,0,0,1,2,3,0,0,0	to_board	s602
423.925	1.187	0	PA_with_intermediate	2,0,0,1,0,0,0,0,0	test	ward_and_allport	2,0,0,1,3,0,0,0,0	89.0	21.0	1.187	0,0,0,1,2,3,0,0,0	to_hand	s602
425.113	0.455	0	PA_with_intermediate	2,0,0,1,0,0,3,0,0	test	ward_and_allport	2,0,0,1,3,0,0,0,0	82.0	21.0	0.455	0,0,0,1,2,3,0,0,0	to_board	s602
425.574	0.479	0	PA_with_intermediate	0,0,0,1,0,0,3,0,0	test	ward_and_allport	2,0,0,1,3,0,0,0,0	89.0	21.0	0.479	0,0,0,1,2,3,0,0,0	to_hand	s602
426.055	0.77	0	PA_with_intermediate	2,0,0,1,0,0,3,0,0	test	ward_and_allport	2,0,0,1,3,0,0,0,0	89.0	21.0	0.77	0,0,0,1,2,3,0,0,0	to_board	s602
426.831	0.904	0	PA_with_intermediate	2,0,0,1,0,0,0,0,0	test	ward_and_allport	2,0,0,1,3,0,0,0,0	82.0	21.0	0.904	0,0,0,1,2,3,0,0,0	to_hand	s602
427.736	0.425	0	PA_with_intermediate	2,0,0,1,3,0,0,0,0	test	ward_and_allport	2,0,0,1,3,0,0,0,0	71.0	21.0	0.425	0,0,0,1,2,3,0,0,0	to_board	s602
428.171	1.0	0	PA_with_intermediate	n/a	test	ward_and_allport	n/a	-1.0	21.0	n/a	n/a	feedback	s602
429.171	1.0	0	PA_with_intermediate	n/a	test	ward_and_allport	n/a	-1.0	21.0	n/a	n/a	ITI	s602
430.179	4.422	1	PA_with_intermediate	0,0,0,1,2,0,0,0,0	test	ward_and_allport	0,0,0,1,0,0,2,3,0	71.0	22.0	4.422	0,0,0,1,2,3,0,0,0	to_hand	s602
434.602	0.713	0	PA_with_intermediate	3,0,0,1,2,0,0,0,0	test	ward_and_allport	0,0,0,1,0,0,2,3,0	89.0	22.0	0.713	0,0,0,1,2,3,0,0,0	to_board	s602
435.322	0.948	0	PA_with_intermediate	3,0,0,1,0,0,0,0,0	test	ward_and_allport	0,0,0,1,0,0,2,3,0	71.0	22.0	0.948	0,0,0,1,2,3,0,0,0	to_hand	s602
436.272	0.415	0	PA_with_intermediate	3,0,0,1,0,0,2,0,0	test	ward_and_allport	0,0,0,1,0,0,2,3,0	82.0	22.0	0.415	0,0,0,1,2,3,0,0,0	to_board	s602
436.695	1.04	0	PA_with_intermediate	0,0,0,1,0,0,2,0,0	test	ward_and_allport	0,0,0,1,0,0,2,3,0	89.0	22.0	1.04	0,0,0,1,2,3,0,0,0	to_hand	s602
437.737	0.88	0	PA_with_intermediate	0,0,0,1,0,0,2,3,0	test	ward_and_allport	0,0,0,1,0,0,2,3,0	82.0	22.0	0.88	0,0,0,1,2,3,0,0,0	to_board	s602
438.629	1.0	0	PA_with_intermediate	n/a	test	ward_and_allport	n/a	-1.0	22.0	n/a	n/a	feedback	s602
439.629	1.408	0	PA_with_intermediate	n/a	test	ward_and_allport	n/a	-1.0	22.0	n/a	n/a	ITI	s602
441.046	4.205	1	PA_without_intermediate	0,0,0,1,2,0,0,0,0	test	ward_and_allport	3,1,0,0,0,0,2,0,0	71.0	23.0	4.205	0,0,0,1,2,3,0,0,0	to_hand	s602
445.252	0.162	0	PA_without_intermediate	3,0,0,1,2,0,0,0,0	test	ward_and_allport	3,1,0,0,0,0,2,0,0	89.0	23.0	0.162	0,0,0,1,2,3,0,0,0	to_board	s602
445.422	1.706	0	PA_without_intermediate	3,0,0,1,0,0,0,0,0	test	ward_and_allport	3,1,0,0,0,0,2,0,0	71.0	23.0	1.706	0,0,0,1,2,3,0,0,0	to_hand	s602
447.13	0.221	0	PA_without_intermediate	3,0,0,1,0,0,2,0,0	test	ward_and_allport	3,1,0,0,0,0,2,0,0	82.0	23.0	0.221	0,0,0,1,2,3,0,0,0	to_board	s602
447.36	1.0	0	PA_without_intermediate	3,0,0,0,0,0,2,0,0	test	ward_and_allport	3,1,0,0,0,0,2,0,0	71.0	23.0	1.0	0,0,0,1,2,3,0,0,0	to_hand	s602
448.36	0.238	0	PA_without_intermediate	3,1,0,0,0,0,2,0,0	test	ward_and_allport	3,1,0,0,0,0,2,0,0	89.0	23.0	0.238	0,0,0,1,2,3,0,0,0	to_board	s602
448.61	1.0	0	PA_without_intermediate	n/a	test	ward_and_allport	n/a	-1.0	23.0	n/a	n/a	feedback	s602
449.61	1.816	0	PA_without_intermediate	n/a	test	ward_and_allport	n/a	-1.0	23.0	n/a	n/a	ITI	s602
451.434	4.806	1	PA_with_intermediate	1,2,0,0,0,0,0,0,0	test	ward_and_allport	1,0,0,0,0,0,2,3,0	89.0	24.0	4.806	1,2,3,0,0,0,0,0,0	to_hand	s602
456.242	0.897	0	PA_with_intermediate	1,2,0,3,0,0,0,0,0	test	ward_and_allport	1,0,0,0,0,0,2,3,0	71.0	24.0	0.897	1,2,3,0,0,0,0,0,0	to_board	s602
457.146	1.401	0	PA_with_intermediate	1,0,0,3,0,0,0,0,0	test	ward_and_allport	1,0,0,0,0,0,2,3,0	89.0	24.0	1.401	1,2,3,0,0,0,0,0,0	to_hand	s602
458.548	0.738	0	PA_with_intermediate	1,0,0,3,0,0,2,0,0	test	ward_and_allport	1,0,0,0,0,0,2,3,0	82.0	24.0	0.738	1,2,3,0,0,0,0,0,0	to_board	s602
459.295	0.838	0	PA_with_intermediate	1,0,0,0,0,0,2,0,0	test	ward_and_allport	1,0,0,0,0,0,2,3,0	71.0	24.0	0.838	1,2,3,0,0,0,0,0,0	to_hand	s602
460.135	0.691	0	PA_with_intermediate	1,3,0,0,0,0,2,0,0	test	ward_and_allport	1,0,0,0,0,0,2,3,0	89.0	24.0	0.691	1,2,3,0,0,0,0,0,0	to_board	s602
460.835	1.569	0	PA_with_intermediate	1,0,0,0,0,0,2,0,0	test	ward_and_allport	1,0,0,0,0,0,2,3,0	89.0	24.0	1.569	1,2,3,0,0,0,0,0,0	to_hand	s602
462.404	0.665	0	PA_with_intermediate	1,0,0,0,0,0,2,3,0	test	ward_and_allport	1,0,0,0,0,0,2,3,0	82.0	24.0	0.665	1,2,3,0,0,0,0,0,0	to_board	s602
463.077	1.0	0	PA_with_intermediate	n/a	test	ward_and_allport	n/a	-1.0	24.0	n/a	n/a	feedback	s602
464.077	3.176	0	PA_with_intermediate	n/a	test	ward_and_allport	n/a	-1.0	24.0	n/a	n/a	ITI	s602
467.259	6.918	1	PA_with_intermediate	0,0,0,0,0,0,1,2,0	test	ward_and_allport	2,3,0,0,0,0,1,0,0	82.0	25.0	6.918	0,0,0,0,0,0,1,2,3	to_hand	s602
474.179	1.645	0	PA_with_intermediate	0,0,0,3,0,0,1,2,0	test	ward_and_allport	2,3,0,0,0,0,1,0,0	71.0	25.0	1.645	0,0,0,0,0,0,1,2,3	to_board	s602
475.833	1.633	0	PA_with_intermediate	0,0,0,3,0,0,1,0,0	test	ward_and_allport	2,3,0,0,0,0,1,0,0	82.0	25.0	1.633	0,0,0,0,0,0,1,2,3	to_hand	s602
477.467	0.684	0	PA_with_intermediate	2,0,0,3,0,0,1,0,0	test	ward_and_allport	2,3,0,0,0,0,1,0,0	89.0	25.0	0.684	0,0,0,0,0,0,1,2,3	to_board	s602
478.16	3.066	0	PA_with_intermediate	2,0,0,0,0,0,1,0,0	test	ward_and_allport	2,3,0,0,0,0,1,0,0	71.0	25.0	3.066	0,0,0,0,0,0,1,2,3	to_hand	s602
481.228	0.235	0	PA_with_intermediate	2,3,0,0,0,0,1,0,0	test	ward_and_allport	2,3,0,0,0,0,1,0,0	89.0	25.0	0.235	0,0,0,0,0,0,1,2,3	to_board	s602
481.473	1.0	0	PA_with_intermediate	n/a	test	ward_and_allport	n/a	-1.0	25.0	n/a	n/a	feedback	s602
482.473	2.36	0	PA_with_intermediate	n/a	test	ward_and_allport	n/a	-1.0	25.0	n/a	n/a	ITI	s602
484.842	5.561	1	PA_with_intermediate	1,2,0,0,0,0,0,0,0	test	ward_and_allport	1,3,0,0,0,0,2,0,0	89.0	26.0	5.561	1,2,3,0,0,0,0,0,0	to_hand	s602
490.404	0.37	0	PA_with_intermediate	1,2,0,3,0,0,0,0,0	test	ward_and_allport	1,3,0,0,0,0,2,0,0	71.0	26.0	0.37	1,2,3,0,0,0,0,0,0	to_board	s602
490.783	1.219	0	PA_with_intermediate	1,0,0,3,0,0,0,0,0	test	ward_and_allport	1,3,0,0,0,0,2,0,0	89.0	26.0	1.219	1,2,3,0,0,0,0,0,0	to_hand	s602
492.003	0.902	0	PA_with_intermediate	1,0,0,3,0,0,2,0,0	test	ward_and_allport	1,3,0,0,0,0,2,0,0	82.0	26.0	0.902	1,2,3,0,0,0,0,0,0	to_board	s602
492.912	0.698	0	PA_with_intermediate	1,0,0,0,0,0,2,0,0	test	ward_and_allport	1,3,0,0,0,0,2,0,0	71.0	26.0	0.698	1,2,3,0,0,0,0,0,0	to_hand	s602
493.612	0.311	0	PA_with_intermediate	1,3,0,0,0,0,2,0,0	test	ward_and_allport	1,3,0,0,0,0,2,0,0	89.0	26.0	0.311	1,2,3,0,0,0,0,0,0	to_board	s602
493.936	1.0	0	PA_with_intermediate	n/a	test	ward_and_allport	n/a	-1.0	26.0	n/a	n/a	feedback	s602
494.936	1.0	0	PA_with_intermediate	n/a	test	ward_and_allport	n/a	-1.0	26.0	n/a	n/a	ITI	s602
495.944	3.485	1	PA_without_intermediate	0,0,0,1,2,0,0,0,0	test	ward_and_allport	1,0,0,0,0,0,3,2,0	71.0	27.0	3.485	0,0,0,1,2,3,0,0,0	to_hand	s602
499.431	1.75	0	PA_without_intermediate	0,0,0,1,2,0,3,0,0	test	ward_and_allport	1,0,0,0,0,0,3,2,0	82.0	27.0	1.75	0,0,0,1,2,3,0,0,0	to_board	s602
501.189	2.376	0	PA_without_intermediate	0,0,0,1,0,0,3,0,0	test	ward_and_allport	1,0,0,0,0,0,3,2,0	71.0	27.0	2.376	0,0,0,1,2,3,0,0,0	to_hand	s602
503.565	0.249	0	PA_without_intermediate	0,0,0,1,0,0,3,2,0	test	ward_and_allport	1,0,0,0,0,0,3,2,0	82.0	27.0	0.249	0,0,0,1,2,3,0,0,0	to_board	s602
503.823	1.585	0	PA_without_intermediate	0,0,0,0,0,0,3,2,0	test	ward_and_allport	1,0,0,0,0,0,3,2,0	71.0	27.0	1.585	0,0,0,1,2,3,0,0,0	to_hand	s602
505.41	0.188	0	PA_without_intermediate	1,0,0,0,0,0,3,2,0	test	ward_and_allport	1,0,0,0,0,0,3,2,0	89.0	27.0	0.188	0,0,0,1,2,3,0,0,0	to_board	s602
505.609	1.0	0	PA_without_intermediate	n/a	test	ward_and_allport	n/a	-1.0	27.0	n/a	n/a	feedback	s602
506.609	1.408	0	PA_without_intermediate	n/a	test	ward_and_allport	n/a	-1.0	27.0	n/a	n/a	ITI	s602
508.025	4.044	1	PA_with_intermediate	1,2,0,0,0,0,0,0,0	test	ward_and_allport	1,0,0,2,3,0,0,0,0	89.0	28.0	4.044	1,2,3,0,0,0,0,0,0	to_hand	s602
512.071	2.697	0	PA_with_intermediate	1,2,0,0,0,0,3,0,0	test	ward_and_allport	1,0,0,2,3,0,0,0,0	82.0	28.0	2.697	1,2,3,0,0,0,0,0,0	to_board	s602
514.775	2.329	0	PA_with_intermediate	1,0,0,0,0,0,3,0,0	test	ward_and_allport	1,0,0,2,3,0,0,0,0	89.0	28.0	2.329	1,2,3,0,0,0,0,0,0	to_hand	s602
517.106	0.434	0	PA_with_intermediate	1,0,0,2,0,0,3,0,0	test	ward_and_allport	1,0,0,2,3,0,0,0,0	71.0	28.0	0.434	1,2,3,0,0,0,0,0,0	to_board	s602
517.548	0.952	0	PA_with_intermediate	1,0,0,2,0,0,0,0,0	test	ward_and_allport	1,0,0,2,3,0,0,0,0	82.0	28.0	0.952	1,2,3,0,0,0,0,0,0	to_hand	s602
518.501	0.577	0	PA_with_intermediate	1,0,0,2,3,0,0,0,0	test	ward_and_allport	1,0,0,2,3,0,0,0,0	71.0	28.0	0.577	1,2,3,0,0,0,0,0,0	to_board	s602
519.089	1.0	0	PA_with_intermediate	n/a	test	ward_and_allport	n/a	-1.0	28.0	n/a	n/a	feedback	s602
520.089	1.816	0	PA_with_intermediate	n/a	test	ward_and_allport	n/a	-1.0	28.0	n/a	n/a	ITI	s602
521.913	4.745	1	PA_without_intermediate	0,0,0,0,0,0,1,2,0	test	ward_and_allport	3,2,0,1,0,0,0,0,0	82.0	29.0	4.745	0,0,0,0,0,0,1,2,3	to_hand	s602
526.66	0.405	0	PA_without_intermediate	3,0,0,0,0,0,1,2,0	test	ward_and_allport	3,2,0,1,0,0,0,0,0	89.0	29.0	0.405	0,0,0,0,0,0,1,2,3	to_board	s602
527.072	1.584	0	PA_without_intermediate	3,0,0,0,0,0,1,0,0	test	ward_and_allport	3,2,0,1,0,0,0,0,0	82.0	29.0	1.584	0,0,0,0,0,0,1,2,3	to_hand	s602
528.657	0.776	0	PA_without_intermediate	3,2,0,0,0,0,1,0,0	test	ward_and_allport	3,2,0,1,0,0,0,0,0	89.0	29.0	0.776	0,0,0,0,0,0,1,2,3	to_board	s602
529.443	0.519	0	PA_without_intermediate	3,2,0,0,0,0,0,0,0	test	ward_and_allport	3,2,0,1,0,0,0,0,0	82.0	29.0	0.519	0,0,0,0,0,0,1,2,3	to_hand	s602
529.963	0.449	0	PA_without_intermediate	3,2,0,1,0,0,0,0,0	test	ward_and_allport	3,2,0,1,0,0,0,0,0	71.0	29.0	0.449	0,0,0,0,0,0,1,2,3	to_board	s602
530.422	1.0	0	PA_without_intermediate	n/a	test	ward_and_allport	n/a	-1.0	29.0	n/a	n/a	feedback	s602
531.422	2.088	0	PA_without_intermediate	n/a	test	ward_and_allport	n/a	-1.0	29.0	n/a	n/a	ITI	s602
538.522	9.328	1	PA_without_intermediate	1,2,0,0,0,0,0,0,0	test	ward_and_allport	0,0,0,3,1,0,2,0,0	89.0	30.0	9.328	1,2,3,0,0,0,0,0,0	to_hand	s602
547.852	1.591	0	PA_without_intermediate	1,2,0,3,0,0,0,0,0	test	ward_and_allport	0,0,0,3,1,0,2,0,0	71.0	30.0	1.591	1,2,3,0,0,0,0,0,0	to_board	s602
549.452	2.798	0	PA_without_intermediate	1,0,0,3,0,0,0,0,0	test	ward_and_allport	0,0,0,3,1,0,2,0,0	89.0	30.0	2.798	1,2,3,0,0,0,0,0,0	to_hand	s602
552.25	0.445	0	PA_without_intermediate	1,0,0,3,0,0,2,0,0	test	ward_and_allport	0,0,0,3,1,0,2,0,0	82.0	30.0	0.445	1,2,3,0,0,0,0,0,0	to_board	s602
552.704	1.874	0	PA_without_intermediate	0,0,0,3,0,0,2,0,0	test	ward_and_allport	0,0,0,3,1,0,2,0,0	89.0	30.0	1.874	1,2,3,0,0,0,0,0,0	to_hand	s602
554.58	0.39	0	PA_without_intermediate	0,0,0,3,1,0,2,0,0	test	ward_and_allport	0,0,0,3,1,0,2,0,0	71.0	30.0	0.39	1,2,3,0,0,0,0,0,0	to_board	s602
554.985	1.0	0	PA_without_intermediate	n/a	test	ward_and_allport	n/a	-1.0	30.0	n/a	n/a	feedback	s602
555.985	1.136	0	PA_without_intermediate	n/a	test	ward_and_allport	n/a	-1.0	30.0	n/a	n/a	ITI	s602
557.129	6.4	1	PA_without_intermediate	0,0,0,0,0,0,1,2,0	test	ward_and_allport	3,1,0,2,0,0,0,0,0	82.0	31.0	6.4	0,0,0,0,0,0,1,2,3	to_hand	s602
563.531	0.602	0	PA_without_intermediate	3,0,0,0,0,0,1,2,0	test	ward_and_allport	3,1,0,2,0,0,0,0,0	89.0	31.0	0.602	0,0,0,0,0,0,1,2,3	to_board	s602
564.141	2.111	0	PA_without_intermediate	3,0,0,0,0,0,1,0,0	test	ward_and_allport	3,1,0,2,0,0,0,0,0	82.0	31.0	2.111	0,0,0,0,0,0,1,2,3	to_hand	s602
566.254	0.555	0	PA_without_intermediate	3,0,0,2,0,0,1,0,0	test	ward_and_allport	3,1,0,2,0,0,0,0,0	71.0	31.0	0.555	0,0,0,0,0,0,1,2,3	to_board	s602
566.818	1.25	0	PA_without_intermediate	3,0,0,2,0,0,0,0,0	test	ward_and_allport	3,1,0,2,0,0,0,0,0	82.0	31.0	1.25	0,0,0,0,0,0,1,2,3	to_hand	s602
568.069	0.529	0	PA_without_intermediate	3,1,0,2,0,0,0,0,0	test	ward_and_allport	3,1,0,2,0,0,0,0,0	89.0	31.0	0.529	0,0,0,0,0,0,1,2,3	to_board	s602
568.61	1.0	0	PA_without_intermediate	n/a	test	ward_and_allport	n/a	-1.0	31.0	n/a	n/a	feedback	s602
569.61	6.168	0	PA_without_intermediate	n/a	test	ward_and_allport	n/a	-1.0	31.0	n/a	n/a	ITI	s602
n/a	n/a	0	n/a	n/a	n/a	n/a	n/a	n/a	n/a	n/a	n/a	ITI	n/a
