onset	duration	CTI	correct	correct_response	cue	cue_switch	experiment_exp_id	key_press	response_time	stim_color	stim_number	switch_type	task_type	task_switch	worker_id	first_trial_of_block
4.428	1.0	0.9	True	71.0	Magnitude	switch	twobytwo	71.0	0.617	blue	7.0	cue_switch	magnitude	stay	s602	1
6.67	1.0	0.1	True	71.0	Orange-Blue	n/a	twobytwo	71.0	0.984	orange	4.0	task_switch	color	switch	s602	0
9.85	1.0	0.9	True	89.0	High-Low	n/a	twobytwo	89.0	0.502	orange	2.0	task_switch	magnitude	switch	s602	0
12.094	1.0	0.1	True	71.0	High-Low	stay	twobytwo	71.0	0.91	orange	7.0	cue_stay	magnitude	stay	s602	0
15.272	1.0	0.9	True	89.0	Orange-Blue	n/a	twobytwo	89.0	0.573	blue	8.0	task_switch	color	switch	s602	0
17.377	1.0	0.1	True	89.0	Orange-Blue	stay	twobytwo	89.0	0.831	blue	1.0	cue_stay	color	stay	s602	0
20.299	1.0	0.1	True	89.0	Color	switch	twobytwo	89.0	0.583	blue	8.0	cue_switch	color	stay	s602	0
23.614	1.0	0.9	True	71.0	Color	stay	twobytwo	71.0	0.395	orange	6.0	cue_stay	color	stay	s602	0
26.521	1.0	0.9	True	71.0	Color	stay	twobytwo	71.0	0.519	orange	8.0	cue_stay	color	stay	s602	0
29.969	1.0	0.9	True	89.0	Magnitude	n/a	twobytwo	89.0	0.637	orange	4.0	task_switch	magnitude	switch	s602	0
32.214	1.0	0.1	False	89.0	Orange-Blue	n/a	twobytwo	71.0	0.698	blue	7.0	task_switch	color	switch	s602	0
34.323	1.0	0.1	True	71.0	Orange-Blue	stay	twobytwo	71.0	0.689	orange	2.0	cue_stay	color	stay	s602	0
37.227	1.0	0.9	True	71.0	Color	switch	twobytwo	71.0	0.482	orange	9.0	cue_switch	color	stay	s602	0
39.467	1.0	0.1	True	71.0	Color	stay	twobytwo	71.0	0.549	orange	3.0	cue_stay	color	stay	s602	0
41.71	1.0	0.1	True	89.0	Magnitude	n/a	twobytwo	89.0	0.718	blue	4.0	task_switch	magnitude	switch	s602	0
44.085	1.0	0.1	True	71.0	High-Low	switch	twobytwo	71.0	1.075	blue	9.0	cue_switch	magnitude	stay	s602	0
48.215	1.0	0.9	True	71.0	Magnitude	switch	twobytwo	71.0	0.431	blue	9.0	cue_switch	magnitude	stay	s602	0
51.125	1.0	0.9	True	89.0	Orange-Blue	n/a	twobytwo	89.0	0.584	blue	1.0	task_switch	color	switch	s602	0
53.235	1.0	0.1	True	71.0	Magnitude	n/a	twobytwo	71.0	0.936	blue	8.0	task_switch	magnitude	switch	s602	0
55.612	1.0	0.1	True	89.0	Orange-Blue	n/a	twobytwo	89.0	0.772	blue	3.0	task_switch	color	switch	s602	0
58.659	1.0	0.9	True	89.0	Color	switch	twobytwo	89.0	0.404	blue	1.0	cue_switch	color	stay	s602	0
61.566	1.0	0.9	True	71.0	Color	stay	twobytwo	71.0	0.455	orange	3.0	cue_stay	color	stay	s602	0
64.478	1.0	0.9	True	89.0	Color	stay	twobytwo	89.0	0.457	blue	4.0	cue_stay	color	stay	s602	0
66.582	1.0	0.1	True	89.0	Color	stay	twobytwo	89.0	0.63	blue	8.0	cue_stay	color	stay	s602	0
69.369	1.0	0.1	False	89.0	Magnitude	n/a	twobytwo	71.0	0.833	orange	3.0	task_switch	magnitude	switch	s602	0
72.277	1.0	0.9	True	89.0	Color	n/a	twobytwo	89.0	0.55	blue	1.0	task_switch	color	switch	s602	0
75.459	1.0	0.9	True	89.0	High-Low	n/a	twobytwo	89.0	0.518	blue	1.0	task_switch	magnitude	switch	s602	0
77.565	1.0	0.1	True	71.0	Magnitude	switch	twobytwo	71.0	0.688	blue	8.0	cue_switch	magnitude	stay	s602	0
80.747	1.0	0.9	True	89.0	High-Low	switch	twobytwo	89.0	0.489	orange	3.0	cue_switch	magnitude	stay	s602	0
83.804	1.0	0.1	True	71.0	Orange-Blue	n/a	twobytwo	71.0	0.806	orange	4.0	task_switch	color	switch	s602	0
85.913	1.0	0.1	True	89.0	Color	switch	twobytwo	89.0	0.612	blue	3.0	cue_switch	color	stay	s602	0
88.824	1.0	0.9	True	71.0	Magnitude	n/a	twobytwo	71.0	0.814	blue	6.0	task_switch	magnitude	switch	s602	0
91.728	1.0	0.9	True	71.0	Magnitude	stay	twobytwo	71.0	0.477	orange	8.0	cue_stay	magnitude	stay	s602	0
94.636	1.0	0.9	True	71.0	High-Low	switch	twobytwo	71.0	0.51	orange	9.0	cue_switch	magnitude	stay	s602	0
97.683	1.0	0.9	True	71.0	Orange-Blue	n/a	twobytwo	71.0	0.489	orange	8.0	task_switch	color	switch	s602	0
99.79	1.0	0.1	False	71.0	High-Low	n/a	twobytwo	89.0	0.935	blue	6.0	task_switch	magnitude	switch	s602	0
102.697	1.0	0.9	True	89.0	Magnitude	switch	twobytwo	89.0	0.665	blue	3.0	cue_switch	magnitude	stay	s602	0
105.603	1.0	0.9	True	71.0	Color	n/a	twobytwo	71.0	0.462	orange	1.0	task_switch	color	switch	s602	0
108.779	1.0	0.9	True	71.0	High-Low	n/a	twobytwo	71.0	0.571	blue	6.0	task_switch	magnitude	switch	s602	0
111.823	1.0	0.9	True	71.0	Orange-Blue	n/a	twobytwo	71.0	0.503	orange	7.0	task_switch	color	switch	s602	0
114.731	1.0	0.9	True	89.0	Magnitude	n/a	twobytwo	89.0	0.577	blue	4.0	task_switch	magnitude	switch	s602	0
116.974	1.0	0.1	True	71.0	Orange-Blue	n/a	twobytwo	71.0	0.754	orange	1.0	task_switch	color	switch	s602	0
119.894	1.0	0.1	True	89.0	Color	switch	twobytwo	89.0	0.757	blue	1.0	cue_switch	color	stay	s602	0
123.209	1.0	0.9	True	89.0	High-Low	n/a	twobytwo	89.0	0.652	blue	2.0	task_switch	magnitude	switch	s602	0
125.318	1.0	0.1	True	71.0	Color	n/a	twobytwo	71.0	1.0	orange	8.0	task_switch	color	switch	s602	0
127.558	1.0	0.1	True	89.0	Color	stay	twobytwo	89.0	0.934	blue	1.0	cue_stay	color	stay	s602	0
129.802	1.0	0.1	True	89.0	Orange-Blue	switch	twobytwo	89.0	0.593	blue	1.0	cue_switch	color	stay	s602	0
132.046	1.0	0.1	True	89.0	Magnitude	n/a	twobytwo	89.0	0.659	blue	3.0	task_switch	magnitude	switch	s602	0
135.497	1.0	0.9	True	89.0	Color	n/a	twobytwo	89.0	0.556	blue	8.0	task_switch	color	switch	s602	0
138.542	1.0	0.9	True	89.0	Magnitude	n/a	twobytwo	89.0	0.485	blue	2.0	task_switch	magnitude	switch	s602	0
140.647	1.0	0.1	True	71.0	Color	n/a	twobytwo	71.0	0.646	orange	6.0	task_switch	color	switch	s602	0
142.755	1.0	0.1	True	89.0	Color	stay	twobytwo	89.0	0.954	blue	7.0	cue_stay	color	stay	s602	0
145.661	1.0	0.9	False	71.0	Magnitude	n/a	twobytwo	89.0	0.789	orange	6.0	task_switch	magnitude	switch	s602	0
147.765	1.0	0.1	True	71.0	Orange-Blue	n/a	twobytwo	71.0	1.101	orange	6.0	task_switch	color	switch	s602	0
150.809	1.0	0.9	True	71.0	Color	switch	twobytwo	71.0	0.533	orange	6.0	cue_switch	color	stay	s602	0
153.715	1.0	0.9	True	89.0	Orange-Blue	switch	twobytwo	89.0	0.583	blue	4.0	cue_switch	color	stay	s602	0
155.822	1.0	0.1	True	89.0	Orange-Blue	stay	twobytwo	89.0	0.763	blue	1.0	cue_stay	color	stay	s602	0
157.931	1.0	0.1	True	89.0	High-Low	n/a	twobytwo	89.0	0.749	orange	1.0	task_switch	magnitude	switch	s602	0
160.171	1.0	0.1	True	71.0	Orange-Blue	n/a	twobytwo	71.0	0.748	orange	8.0	task_switch	color	switch	s602	0
163.215	1.0	0.9	True	71.0	Orange-Blue	stay	twobytwo	71.0	0.509	orange	8.0	cue_stay	color	stay	s602	0
166.257	1.0	0.9	True	71.0	High-Low	n/a	twobytwo	71.0	0.525	blue	6.0	task_switch	magnitude	switch	s602	0
168.502	1.0	0.1	True	89.0	High-Low	stay	twobytwo	89.0	0.981	orange	1.0	cue_stay	magnitude	stay	s602	0
171.289	1.0	0.1	False	89.0	Magnitude	switch	twobytwo	71.0	0.845	orange	2.0	cue_switch	magnitude	stay	s602	0
174.739	1.0	0.9	False	71.0	High-Low	switch	twobytwo	89.0	1.208	orange	8.0	cue_switch	magnitude	stay	s602	0
177.118	1.0	0.1	True	89.0	Magnitude	switch	twobytwo	89.0	1.037	orange	1.0	cue_switch	magnitude	stay	s602	0
180.294	1.0	0.9	True	71.0	Color	n/a	twobytwo	71.0	0.41	orange	2.0	task_switch	color	switch	s602	0
182.806	1.0	0.1	True	71.0	Color	stay	twobytwo	71.0	1.046	orange	1.0	cue_stay	color	stay	s602	0
185.054	1.0	0.1	True	89.0	Magnitude	n/a	twobytwo	89.0	1.122	orange	4.0	task_switch	magnitude	switch	s602	0
187.432	1.0	0.1	True	89.0	High-Low	switch	twobytwo	89.0	0.817	orange	1.0	cue_switch	magnitude	stay	s602	0
189.538	1.0	0.1	True	71.0	Magnitude	switch	twobytwo	71.0	0.599	blue	7.0	cue_switch	magnitude	stay	s602	0
191.781	1.0	0.1	True	89.0	Magnitude	stay	twobytwo	89.0	0.846	blue	2.0	cue_stay	magnitude	stay	s602	0
194.163	1.0	0.1	True	71.0	Orange-Blue	n/a	twobytwo	71.0	0.723	orange	7.0	task_switch	color	switch	s602	0
197.073	1.0	0.9	True	89.0	Magnitude	n/a	twobytwo	89.0	0.496	orange	4.0	task_switch	magnitude	switch	s602	0
199.866	1.0	0.1	True	89.0	High-Low	switch	twobytwo	89.0	0.813	orange	2.0	cue_switch	magnitude	stay	s602	0
202.773	1.0	0.9	True	89.0	Orange-Blue	n/a	twobytwo	89.0	0.494	blue	4.0	task_switch	color	switch	s602	0
205.684	1.0	0.9	False	71.0	Orange-Blue	stay	twobytwo	89.0	0.499	orange	2.0	cue_stay	color	stay	s602	0
208.59	1.0	0.9	True	71.0	Magnitude	n/a	twobytwo	71.0	0.623	blue	7.0	task_switch	magnitude	switch	s602	0
210.968	1.0	0.1	True	71.0	Orange-Blue	n/a	twobytwo	71.0	1.091	orange	8.0	task_switch	color	switch	s602	0
213.074	1.0	0.1	True	71.0	Magnitude	n/a	twobytwo	71.0	0.874	blue	7.0	task_switch	magnitude	switch	s602	0
215.181	1.0	0.1	True	71.0	Color	n/a	twobytwo	71.0	0.757	orange	3.0	task_switch	color	switch	s602	0
231.605	1.0	0.9	True	89.0	Orange-Blue	switch	twobytwo	89.0	0.521	blue	7.0	cue_switch	color	stay	s602	1
234.393	1.0	0.1	False	89.0	Magnitude	n/a	twobytwo	71.0	1.131	orange	4.0	task_switch	magnitude	switch	s602	0
237.299	1.0	0.9	True	71.0	Color	n/a	twobytwo	71.0	0.496	orange	2.0	task_switch	color	switch	s602	0
239.542	1.0	0.1	True	71.0	Color	stay	twobytwo	71.0	0.54	orange	7.0	cue_stay	color	stay	s602	0
242.859	1.0	0.9	True	71.0	High-Low	n/a	twobytwo	71.0	0.745	blue	8.0	task_switch	magnitude	switch	s602	0
245.102	1.0	0.1	True	89.0	High-Low	stay	twobytwo	89.0	1.075	blue	1.0	cue_stay	magnitude	stay	s602	0
247.208	1.0	0.1	True	71.0	Magnitude	switch	twobytwo	71.0	0.757	blue	8.0	cue_switch	magnitude	stay	s602	0
250.115	1.0	0.9	False	71.0	Magnitude	stay	twobytwo	89.0	0.872	orange	6.0	cue_stay	magnitude	stay	s602	0
253.563	1.0	0.9	True	71.0	Magnitude	stay	twobytwo	71.0	0.464	orange	8.0	cue_stay	magnitude	stay	s602	0
256.606	1.0	0.9	True	71.0	Color	n/a	twobytwo	71.0	0.438	orange	4.0	task_switch	color	switch	s602	0
259.253	1.0	0.1	True	71.0	High-Low	n/a	twobytwo	71.0	0.636	blue	7.0	task_switch	magnitude	switch	s602	0
262.041	1.0	0.1	True	89.0	High-Low	stay	twobytwo	89.0	0.544	orange	2.0	cue_stay	magnitude	stay	s602	0
264.947	1.0	0.9	True	71.0	Magnitude	switch	twobytwo	71.0	0.432	orange	9.0	cue_switch	magnitude	stay	s602	0
267.331	1.0	0.1	False	89.0	Magnitude	stay	twobytwo	71.0	0.587	orange	3.0	cue_stay	magnitude	stay	s602	0
270.526	1.0	0.1	False	89.0	Orange-Blue	n/a	twobytwo	71.0	0.864	blue	4.0	task_switch	color	switch	s602	0
272.635	1.0	0.1	True	89.0	Color	switch	twobytwo	89.0	0.539	blue	9.0	cue_switch	color	stay	s602	0
275.675	1.0	0.9	True	89.0	Orange-Blue	switch	twobytwo	89.0	0.463	blue	9.0	cue_switch	color	stay	s602	0
278.723	1.0	0.9	True	89.0	Magnitude	n/a	twobytwo	89.0	0.525	blue	1.0	task_switch	magnitude	switch	s602	0
280.83	1.0	0.1	True	89.0	Color	n/a	twobytwo	89.0	0.955	blue	8.0	task_switch	color	switch	s602	0
283.208	1.0	0.1	True	89.0	Magnitude	n/a	twobytwo	89.0	0.466	blue	3.0	task_switch	magnitude	switch	s602	0
286.113	1.0	0.9	True	89.0	High-Low	switch	twobytwo	89.0	0.509	blue	1.0	cue_switch	magnitude	stay	s602	0
289.155	1.0	0.9	False	89.0	High-Low	stay	twobytwo	71.0	0.675	orange	3.0	cue_stay	magnitude	stay	s602	0
292.201	1.0	0.9	True	89.0	High-Low	stay	twobytwo	89.0	0.61	blue	4.0	cue_stay	magnitude	stay	s602	0
294.851	1.0	0.1	True	71.0	High-Low	stay	twobytwo	71.0	0.986	blue	8.0	cue_stay	magnitude	stay	s602	0
296.961	1.0	0.1	True	71.0	Color	n/a	twobytwo	71.0	0.767	orange	3.0	task_switch	color	switch	s602	0
300.006	1.0	0.9	True	89.0	Magnitude	n/a	twobytwo	89.0	0.617	blue	1.0	task_switch	magnitude	switch	s602	0
303.05	1.0	0.9	True	89.0	Color	n/a	twobytwo	89.0	0.75	blue	1.0	task_switch	color	switch	s602	0
305.29	1.0	0.1	True	89.0	Orange-Blue	switch	twobytwo	89.0	1.049	blue	8.0	cue_switch	color	stay	s602	0
308.197	1.0	0.9	True	71.0	Color	switch	twobytwo	71.0	0.432	orange	3.0	cue_switch	color	stay	s602	0
310.441	1.0	0.1	True	89.0	Magnitude	n/a	twobytwo	89.0	0.913	orange	4.0	task_switch	magnitude	switch	s602	0
312.545	1.0	0.1	True	89.0	High-Low	switch	twobytwo	89.0	0.971	blue	3.0	cue_switch	magnitude	stay	s602	0
315.587	1.0	0.9	True	89.0	Orange-Blue	n/a	twobytwo	89.0	0.408	blue	6.0	task_switch	color	switch	s602	0
319.307	1.0	0.9	True	71.0	Orange-Blue	stay	twobytwo	71.0	0.617	orange	8.0	cue_stay	color	stay	s602	0
322.351	1.0	0.9	False	71.0	Color	switch	twobytwo	89.0	0.686	orange	9.0	cue_switch	color	stay	s602	0
325.262	1.0	0.9	True	71.0	Magnitude	n/a	twobytwo	71.0	1.096	orange	8.0	task_switch	magnitude	switch	s602	0
327.369	1.0	0.1	True	89.0	Color	n/a	twobytwo	89.0	0.688	blue	6.0	task_switch	color	switch	s602	0
330.547	1.0	0.9	True	89.0	Orange-Blue	switch	twobytwo	89.0	0.439	blue	3.0	cue_switch	color	stay	s602	0
333.454	1.0	0.9	True	89.0	High-Low	n/a	twobytwo	89.0	0.646	orange	1.0	task_switch	magnitude	switch	s602	0
336.361	1.0	0.9	False	89.0	Color	n/a	twobytwo	71.0	0.982	blue	6.0	task_switch	color	switch	s602	0
339.265	1.0	0.9	True	71.0	High-Low	n/a	twobytwo	71.0	0.605	orange	7.0	task_switch	magnitude	switch	s602	0
342.579	1.0	0.9	True	89.0	Orange-Blue	n/a	twobytwo	89.0	0.705	blue	4.0	task_switch	color	switch	s602	0
344.955	1.0	0.1	True	89.0	High-Low	n/a	twobytwo	89.0	0.961	orange	1.0	task_switch	magnitude	switch	s602	0
347.197	1.0	0.1	True	89.0	Magnitude	switch	twobytwo	89.0	0.694	blue	1.0	cue_switch	magnitude	stay	s602	0
350.105	1.0	0.9	True	89.0	Color	n/a	twobytwo	89.0	0.674	blue	2.0	task_switch	color	switch	s602	0
352.214	1.0	0.1	False	71.0	Magnitude	n/a	twobytwo	-1.0	n/a	orange	8.0	task_switch	magnitude	switch	s602	0
354.454	1.0	0.1	True	89.0	Magnitude	stay	twobytwo	89.0	0.594	blue	1.0	cue_stay	magnitude	stay	s602	0
356.559	1.0	0.1	True	89.0	High-Low	switch	twobytwo	89.0	0.661	blue	1.0	cue_switch	magnitude	stay	s602	0
358.8	1.0	0.1	True	89.0	Orange-Blue	n/a	twobytwo	89.0	0.535	blue	3.0	task_switch	color	switch	s602	0
362.112	1.0	0.9	True	71.0	High-Low	n/a	twobytwo	71.0	0.898	blue	8.0	task_switch	magnitude	switch	s602	0
365.155	1.0	0.9	True	89.0	Color	n/a	twobytwo	89.0	0.599	blue	2.0	task_switch	color	switch	s602	0
367.264	1.0	0.1	True	71.0	Magnitude	n/a	twobytwo	71.0	1.155	orange	6.0	task_switch	magnitude	switch	s602	0
369.507	1.0	0.1	True	71.0	Magnitude	stay	twobytwo	71.0	0.608	blue	7.0	cue_stay	magnitude	stay	s602	0
372.688	1.0	0.9	False	71.0	Color	n/a	twobytwo	89.0	0.433	orange	6.0	task_switch	color	switch	s602	0
374.792	1.0	0.1	True	71.0	Magnitude	n/a	twobytwo	71.0	0.622	orange	6.0	task_switch	magnitude	switch	s602	0
378.106	1.0	0.9	True	71.0	High-Low	switch	twobytwo	71.0	0.551	orange	6.0	cue_switch	magnitude	stay	s602	0
381.013	1.0	0.9	True	89.0	Magnitude	switch	twobytwo	89.0	0.633	blue	4.0	cue_switch	magnitude	stay	s602	0
383.254	1.0	0.1	True	89.0	Magnitude	stay	twobytwo	89.0	0.789	blue	1.0	cue_stay	magnitude	stay	s602	0
385.771	1.0	0.1	False	71.0	Orange-Blue	n/a	twobytwo	89.0	0.804	orange	1.0	task_switch	color	switch	s602	0
388.017	1.0	0.1	True	71.0	Magnitude	n/a	twobytwo	71.0	0.871	orange	8.0	task_switch	magnitude	switch	s602	0
391.329	1.0	0.9	True	71.0	Magnitude	stay	twobytwo	71.0	0.505	orange	8.0	cue_stay	magnitude	stay	s602	0
394.371	1.0	0.9	True	89.0	Color	n/a	twobytwo	89.0	0.525	blue	6.0	task_switch	color	switch	s602	0
396.478	1.0	0.1	True	71.0	Color	stay	twobytwo	71.0	0.954	orange	1.0	cue_stay	color	stay	s602	0
398.857	1.0	0.1	True	71.0	Orange-Blue	switch	twobytwo	71.0	1.085	orange	2.0	cue_switch	color	stay	s602	0
401.769	1.0	0.9	True	71.0	Color	switch	twobytwo	71.0	0.389	orange	8.0	cue_switch	color	stay	s602	0
404.147	1.0	0.1	True	71.0	Orange-Blue	switch	twobytwo	71.0	0.455	orange	1.0	cue_switch	color	stay	s602	0
407.326	1.0	0.9	True	89.0	Magnitude	n/a	twobytwo	89.0	0.482	orange	2.0	task_switch	magnitude	switch	s602	0
410.39	1.0	0.1	True	89.0	Magnitude	stay	twobytwo	89.0	0.554	orange	1.0	cue_stay	magnitude	stay	s602	0
413.179	1.0	0.1	False	71.0	Orange-Blue	n/a	twobytwo	89.0	0.832	orange	4.0	task_switch	color	switch	s602	0
415.427	1.0	0.1	True	71.0	Color	switch	twobytwo	71.0	0.71	orange	1.0	cue_switch	color	stay	s602	0
417.808	1.0	0.1	True	89.0	Orange-Blue	switch	twobytwo	89.0	0.755	blue	7.0	cue_switch	color	stay	s602	0
420.187	1.0	0.1	True	89.0	Orange-Blue	stay	twobytwo	89.0	0.606	blue	2.0	cue_stay	color	stay	s602	0
422.432	1.0	0.1	True	71.0	High-Low	n/a	twobytwo	71.0	0.988	orange	7.0	task_switch	magnitude	switch	s602	0
425.745	1.0	0.9	True	71.0	Orange-Blue	n/a	twobytwo	71.0	0.505	orange	4.0	task_switch	color	switch	s602	0
427.985	1.0	0.1	True	71.0	Color	switch	twobytwo	71.0	0.928	orange	2.0	cue_switch	color	stay	s602	0
431.032	1.0	0.9	True	89.0	Magnitude	n/a	twobytwo	89.0	0.536	blue	4.0	task_switch	magnitude	switch	s602	0
433.939	1.0	0.9	True	89.0	Magnitude	stay	twobytwo	89.0	0.681	orange	2.0	cue_stay	magnitude	stay	s602	0
436.846	1.0	0.9	True	89.0	Orange-Blue	n/a	twobytwo	89.0	0.641	blue	7.0	task_switch	color	switch	s602	0
438.953	1.0	0.1	False	71.0	High-Low	n/a	twobytwo	89.0	0.667	orange	8.0	task_switch	magnitude	switch	s602	0
441.059	1.0	0.1	True	89.0	Orange-Blue	n/a	twobytwo	89.0	1.008	blue	7.0	task_switch	color	switch	s602	0
443.165	1.0	0.1	False	89.0	High-Low	n/a	twobytwo	71.0	0.771	orange	3.0	task_switch	magnitude	switch	s602	0
459.862	1.0	0.9	True	89.0	Color	switch	twobytwo	89.0	0.392	blue	7.0	cue_switch	color	stay	s602	1
462.377	1.0	0.1	True	89.0	High-Low	n/a	twobytwo	89.0	0.893	orange	4.0	task_switch	magnitude	switch	s602	0
465.281	1.0	0.9	True	71.0	Color	n/a	twobytwo	71.0	0.658	orange	2.0	task_switch	color	switch	s602	0
467.523	1.0	0.1	True	71.0	Color	stay	twobytwo	71.0	0.748	orange	7.0	cue_stay	color	stay	s602	0
470.427	1.0	0.9	True	71.0	Magnitude	n/a	twobytwo	71.0	0.605	blue	8.0	task_switch	magnitude	switch	s602	0
472.67	1.0	0.1	True	89.0	Magnitude	stay	twobytwo	89.0	0.641	blue	1.0	cue_stay	magnitude	stay	s602	0
475.318	1.0	0.1	True	71.0	High-Low	switch	twobytwo	71.0	0.721	blue	8.0	cue_switch	magnitude	stay	s602	0
478.904	1.0	0.9	True	71.0	High-Low	stay	twobytwo	71.0	0.773	orange	6.0	cue_stay	magnitude	stay	s602	0
482.897	1.0	0.9	True	71.0	High-Low	stay	twobytwo	71.0	0.502	orange	8.0	cue_stay	magnitude	stay	s602	0
485.938	1.0	0.9	True	71.0	Orange-Blue	n/a	twobytwo	71.0	0.452	orange	4.0	task_switch	color	switch	s602	0
488.59	1.0	0.1	True	71.0	High-Low	n/a	twobytwo	71.0	1.175	blue	7.0	task_switch	magnitude	switch	s602	0
490.695	1.0	0.1	True	89.0	High-Low	stay	twobytwo	89.0	0.877	orange	2.0	cue_stay	magnitude	stay	s602	0
493.742	1.0	0.9	True	71.0	Magnitude	switch	twobytwo	71.0	0.832	orange	9.0	cue_switch	magnitude	stay	s602	0
495.851	1.0	0.1	True	89.0	Magnitude	stay	twobytwo	89.0	0.751	orange	3.0	cue_stay	magnitude	stay	s602	0
498.366	1.0	0.1	True	89.0	Color	n/a	twobytwo	89.0	0.803	blue	4.0	task_switch	color	switch	s602	0
500.472	1.0	0.1	True	89.0	Orange-Blue	switch	twobytwo	89.0	0.976	blue	9.0	cue_switch	color	stay	s602	0
503.378	1.0	0.9	True	89.0	Color	switch	twobytwo	89.0	0.573	blue	9.0	cue_switch	color	stay	s602	0
506.282	1.0	0.9	True	89.0	Magnitude	n/a	twobytwo	89.0	0.523	blue	1.0	task_switch	magnitude	switch	s602	0
509.067	1.0	0.1	True	89.0	Color	n/a	twobytwo	89.0	0.688	blue	8.0	task_switch	color	switch	s602	0
511.447	1.0	0.1	True	89.0	High-Low	n/a	twobytwo	89.0	0.806	blue	3.0	task_switch	magnitude	switch	s602	0
514.763	1.0	0.9	True	89.0	Magnitude	switch	twobytwo	89.0	0.792	blue	1.0	cue_switch	magnitude	stay	s602	0
518.89	1.0	0.9	True	89.0	Magnitude	stay	twobytwo	89.0	0.534	orange	3.0	cue_stay	magnitude	stay	s602	0
522.206	1.0	0.9	True	89.0	Magnitude	stay	twobytwo	89.0	0.736	blue	4.0	cue_stay	magnitude	stay	s602	0
525.126	1.0	0.1	False	71.0	Magnitude	stay	twobytwo	89.0	0.65	blue	8.0	cue_stay	magnitude	stay	s602	0
527.638	1.0	0.1	True	71.0	Color	n/a	twobytwo	71.0	0.76	orange	3.0	task_switch	color	switch	s602	0
530.684	1.0	0.9	True	89.0	Magnitude	n/a	twobytwo	89.0	0.615	blue	1.0	task_switch	magnitude	switch	s602	0
533.731	1.0	0.9	True	89.0	Color	n/a	twobytwo	89.0	0.619	blue	1.0	task_switch	color	switch	s602	0
535.838	1.0	0.1	False	89.0	Orange-Blue	switch	twobytwo	-1.0	n/a	blue	8.0	cue_switch	color	stay	s602	0
538.749	1.0	0.9	True	71.0	Color	switch	twobytwo	71.0	0.752	orange	3.0	cue_switch	color	stay	s602	0
541.126	1.0	0.1	True	89.0	High-Low	n/a	twobytwo	89.0	1.152	orange	4.0	task_switch	magnitude	switch	s602	0
543.641	1.0	0.1	True	89.0	Magnitude	switch	twobytwo	89.0	0.928	blue	3.0	cue_switch	magnitude	stay	s602	0
546.545	1.0	0.9	True	89.0	Orange-Blue	n/a	twobytwo	89.0	0.759	blue	6.0	task_switch	color	switch	s602	0
549.587	1.0	0.9	True	71.0	Orange-Blue	stay	twobytwo	71.0	0.409	orange	8.0	cue_stay	color	stay	s602	0
552.491	1.0	0.9	True	71.0	Color	switch	twobytwo	71.0	0.471	orange	9.0	cue_switch	color	stay	s602	0
555.806	1.0	0.9	True	71.0	High-Low	n/a	twobytwo	71.0	0.518	orange	8.0	task_switch	magnitude	switch	s602	0
558.182	1.0	0.1	True	89.0	Orange-Blue	n/a	twobytwo	89.0	0.678	blue	6.0	task_switch	color	switch	s602	0
561.086	1.0	0.9	True	89.0	Color	switch	twobytwo	89.0	0.415	blue	3.0	cue_switch	color	stay	s602	0
564.265	1.0	0.9	True	89.0	High-Low	n/a	twobytwo	89.0	0.58	orange	1.0	task_switch	magnitude	switch	s602	0
567.169	1.0	0.9	True	89.0	Color	n/a	twobytwo	89.0	0.647	blue	6.0	task_switch	color	switch	s602	0
570.078	1.0	0.9	True	71.0	Magnitude	n/a	twobytwo	71.0	0.557	orange	7.0	task_switch	magnitude	switch	s602	0
573.257	1.0	0.9	True	89.0	Color	n/a	twobytwo	89.0	0.751	blue	4.0	task_switch	color	switch	s602	0
575.502	1.0	0.1	True	89.0	High-Low	n/a	twobytwo	89.0	1.026	orange	1.0	task_switch	magnitude	switch	s602	0
577.608	1.0	0.1	True	89.0	Magnitude	switch	twobytwo	89.0	0.566	blue	1.0	cue_switch	magnitude	stay	s602	0
580.515	1.0	0.9	True	89.0	Color	n/a	twobytwo	89.0	0.467	blue	2.0	task_switch	color	switch	s602	0
582.621	1.0	0.1	False	71.0	Magnitude	n/a	twobytwo	-1.0	n/a	orange	8.0	task_switch	magnitude	switch	s602	0
584.729	1.0	0.1	True	89.0	Magnitude	stay	twobytwo	89.0	0.84	blue	1.0	cue_stay	magnitude	stay	s602	0
586.838	1.0	0.1	True	89.0	High-Low	switch	twobytwo	89.0	0.651	blue	1.0	cue_switch	magnitude	stay	s602	0
589.081	1.0	0.1	True	89.0	Color	n/a	twobytwo	89.0	0.693	blue	3.0	task_switch	color	switch	s602	0
591.993	1.0	0.9	False	71.0	High-Low	n/a	twobytwo	89.0	0.877	blue	8.0	task_switch	magnitude	switch	s602	0
594.9	1.0	0.9	True	89.0	Orange-Blue	n/a	twobytwo	89.0	0.391	blue	2.0	task_switch	color	switch	s602	0
597.145	1.0	0.1	True	71.0	High-Low	n/a	twobytwo	71.0	0.604	orange	6.0	task_switch	magnitude	switch	s602	0
599.252	1.0	0.1	True	71.0	High-Low	stay	twobytwo	71.0	1.004	blue	7.0	cue_stay	magnitude	stay	s602	0
602.294	1.0	0.9	True	71.0	Orange-Blue	n/a	twobytwo	71.0	0.645	orange	6.0	task_switch	color	switch	s602	0
605.08	1.0	0.1	True	71.0	Magnitude	n/a	twobytwo	71.0	0.78	orange	6.0	task_switch	magnitude	switch	s602	0
608.257	1.0	0.9	True	71.0	High-Low	switch	twobytwo	71.0	0.644	orange	6.0	cue_switch	magnitude	stay	s602	0
611.299	1.0	0.9	True	89.0	Magnitude	switch	twobytwo	89.0	0.819	blue	4.0	cue_switch	magnitude	stay	s602	0
613.405	1.0	0.1	True	89.0	Magnitude	stay	twobytwo	89.0	2.131	blue	1.0	cue_stay	magnitude	stay	s602	0
615.652	1.0	0.1	True	71.0	Color	n/a	twobytwo	71.0	0.791	orange	1.0	task_switch	color	switch	s602	0
618.441	1.0	0.1	True	71.0	High-Low	n/a	twobytwo	71.0	1.02	orange	8.0	task_switch	magnitude	switch	s602	0
621.619	1.0	0.9	True	71.0	High-Low	stay	twobytwo	71.0	0.665	orange	8.0	cue_stay	magnitude	stay	s602	0
624.526	1.0	0.9	True	89.0	Orange-Blue	n/a	twobytwo	89.0	0.79	blue	6.0	task_switch	color	switch	s602	0
626.634	1.0	0.1	False	71.0	Orange-Blue	stay	twobytwo	89.0	0.696	orange	1.0	cue_stay	color	stay	s602	0
628.878	1.0	0.1	True	71.0	Color	switch	twobytwo	71.0	0.583	orange	2.0	cue_switch	color	stay	s602	0
631.784	1.0	0.9	True	71.0	Orange-Blue	switch	twobytwo	71.0	0.701	orange	8.0	cue_switch	color	stay	s602	0
633.897	1.0	0.1	True	71.0	Color	switch	twobytwo	71.0	0.563	orange	1.0	cue_switch	color	stay	s602	0
636.803	1.0	0.9	False	89.0	High-Low	n/a	twobytwo	71.0	0.603	orange	2.0	task_switch	magnitude	switch	s602	0
639.179	1.0	0.1	True	89.0	High-Low	stay	twobytwo	89.0	0.72	orange	1.0	cue_stay	magnitude	stay	s602	0
641.699	1.0	0.1	False	71.0	Color	n/a	twobytwo	89.0	0.687	orange	4.0	task_switch	color	switch	s602	0
643.808	1.0	0.1	True	71.0	Orange-Blue	switch	twobytwo	71.0	1.059	orange	1.0	cue_switch	color	stay	s602	0
645.913	1.0	0.1	True	89.0	Color	switch	twobytwo	89.0	0.569	blue	7.0	cue_switch	color	stay	s602	0
648.019	1.0	0.1	True	89.0	Color	stay	twobytwo	89.0	0.685	blue	2.0	cue_stay	color	stay	s602	0
650.401	1.0	0.1	True	71.0	Magnitude	n/a	twobytwo	71.0	0.545	orange	7.0	task_switch	magnitude	switch	s602	0
653.443	1.0	0.9	True	71.0	Color	n/a	twobytwo	71.0	0.527	orange	4.0	task_switch	color	switch	s602	0
655.55	1.0	0.1	True	71.0	Orange-Blue	switch	twobytwo	71.0	0.512	orange	2.0	cue_switch	color	stay	s602	0
659.001	1.0	0.9	True	89.0	Magnitude	n/a	twobytwo	89.0	0.562	blue	4.0	task_switch	magnitude	switch	s602	0
662.179	1.0	0.9	True	89.0	Magnitude	stay	twobytwo	89.0	0.56	orange	2.0	cue_stay	magnitude	stay	s602	0
665.357	1.0	0.9	False	89.0	Color	n/a	twobytwo	71.0	0.695	blue	7.0	task_switch	color	switch	s602	0
667.465	1.0	0.1	True	71.0	High-Low	n/a	twobytwo	71.0	0.913	orange	8.0	task_switch	magnitude	switch	s602	0
669.574	1.0	0.1	True	89.0	Color	n/a	twobytwo	89.0	0.666	blue	7.0	task_switch	color	switch	s602	0
671.816	1.0	0.1	False	89.0	High-Low	n/a	twobytwo	71.0	1.241	orange	3.0	task_switch	magnitude	switch	s602	0
