onset	duration	planning	condition	current_position	exp_stage	experiment_exp_id	goal_state	key_press	problem_id	response_time	start_state	trial_id	worker_id
-48.765	0.0	0	n/a	n/a	n/a	ward_and_allport	n/a	32.0	n/a	15.371	n/a	instructions	s619
3.016	8.124	1	UA_with_intermediate	1,0,0,2,0,0,0,0,0	practice	ward_and_allport	1,2,3,0,0,0,0,0,0	71.0	0.0	8.124	1,0,0,2,3,0,0,0,0	to_hand	s619
11.14	0.35	0	UA_with_intermediate	1,0,0,2,0,0,3,0,0	practice	ward_and_allport	1,2,3,0,0,0,0,0,0	82.0	0.0	0.35	1,0,0,2,3,0,0,0,0	to_board	s619
11.493	0.745	0	UA_with_intermediate	1,0,0,0,0,0,3,0,0	practice	ward_and_allport	1,2,3,0,0,0,0,0,0	71.0	0.0	0.745	1,0,0,2,3,0,0,0,0	to_hand	s619
12.239	0.257	0	UA_with_intermediate	1,2,0,0,0,0,3,0,0	practice	ward_and_allport	1,2,3,0,0,0,0,0,0	89.0	0.0	0.257	1,0,0,2,3,0,0,0,0	to_board	s619
12.497	0.869	0	UA_with_intermediate	1,2,0,0,0,0,0,0,0	practice	ward_and_allport	1,2,3,0,0,0,0,0,0	82.0	0.0	0.869	1,0,0,2,3,0,0,0,0	to_hand	s619
13.367	0.554	0	UA_with_intermediate	1,2,3,0,0,0,0,0,0	practice	ward_and_allport	1,2,3,0,0,0,0,0,0	89.0	0.0	0.554	1,0,0,2,3,0,0,0,0	to_board	s619
13.928	1.0	0	UA_with_intermediate	n/a	practice	ward_and_allport	n/a	-1.0	0.0	n/a	n/a	feedback	s619
16.431	5.248	1	UA_with_intermediate	1,0,0,3,0,0,0,0,0	practice	ward_and_allport	1,3,2,0,0,0,0,0,0	89.0	1.0	5.248	1,2,0,3,0,0,0,0,0	to_hand	s619
21.681	0.29	0	UA_with_intermediate	1,0,0,3,0,0,2,0,0	practice	ward_and_allport	1,3,2,0,0,0,0,0,0	82.0	1.0	0.29	1,2,0,3,0,0,0,0,0	to_board	s619
21.973	1.339	0	UA_with_intermediate	1,0,0,0,0,0,2,0,0	practice	ward_and_allport	1,3,2,0,0,0,0,0,0	71.0	1.0	1.339	1,2,0,3,0,0,0,0,0	to_hand	s619
23.314	0.216	0	UA_with_intermediate	1,3,0,0,0,0,2,0,0	practice	ward_and_allport	1,3,2,0,0,0,0,0,0	89.0	1.0	0.216	1,2,0,3,0,0,0,0,0	to_board	s619
23.531	0.55	0	UA_with_intermediate	1,3,0,0,0,0,0,0,0	practice	ward_and_allport	1,3,2,0,0,0,0,0,0	82.0	1.0	0.55	1,2,0,3,0,0,0,0,0	to_hand	s619
24.081	0.183	0	UA_with_intermediate	1,3,2,0,0,0,0,0,0	practice	ward_and_allport	1,3,2,0,0,0,0,0,0	89.0	1.0	0.183	1,2,0,3,0,0,0,0,0	to_board	s619
24.269	1.0	0	UA_with_intermediate	n/a	practice	ward_and_allport	n/a	-1.0	1.0	n/a	n/a	feedback	s619
25.269	1.1	0	UA_with_intermediate	n/a	practice	ward_and_allport	n/a	-1.0	1.0	n/a	n/a	ITI	s619
26.371	6.756	1	UA_without_intermediate	0,0,0,1,2,0,0,0,0	practice	ward_and_allport	3,2,1,0,0,0,0,0,0	82.0	2.0	6.756	0,0,0,1,2,0,3,0,0	to_hand	s619
33.128	0.331	0	UA_without_intermediate	3,0,0,1,2,0,0,0,0	practice	ward_and_allport	3,2,1,0,0,0,0,0,0	89.0	2.0	0.331	0,0,0,1,2,0,3,0,0	to_board	s619
33.46	1.945	0	UA_without_intermediate	3,0,0,1,0,0,0,0,0	practice	ward_and_allport	3,2,1,0,0,0,0,0,0	71.0	2.0	1.945	0,0,0,1,2,0,3,0,0	to_hand	s619
35.407	0.245	0	UA_without_intermediate	3,2,0,1,0,0,0,0,0	practice	ward_and_allport	3,2,1,0,0,0,0,0,0	89.0	2.0	0.245	0,0,0,1,2,0,3,0,0	to_board	s619
35.653	1.513	0	UA_without_intermediate	3,2,0,0,0,0,0,0,0	practice	ward_and_allport	3,2,1,0,0,0,0,0,0	71.0	2.0	1.513	0,0,0,1,2,0,3,0,0	to_hand	s619
37.167	0.322	0	UA_without_intermediate	3,2,1,0,0,0,0,0,0	practice	ward_and_allport	3,2,1,0,0,0,0,0,0	89.0	2.0	0.322	0,0,0,1,2,0,3,0,0	to_board	s619
37.492	1.0	0	UA_without_intermediate	n/a	practice	ward_and_allport	n/a	-1.0	2.0	n/a	n/a	feedback	s619
38.492	1.2	0	UA_without_intermediate	n/a	practice	ward_and_allport	n/a	-1.0	2.0	n/a	n/a	ITI	s619
39.693	5.304	1	UA_without_intermediate	0,0,0,1,0,0,3,0,0	practice	ward_and_allport	2,3,1,0,0,0,0,0,0	71.0	3.0	5.304	0,0,0,1,2,0,3,0,0	to_hand	s619
44.999	0.237	0	UA_without_intermediate	2,0,0,1,0,0,3,0,0	practice	ward_and_allport	2,3,1,0,0,0,0,0,0	89.0	3.0	0.237	0,0,0,1,2,0,3,0,0	to_board	s619
45.238	2.061	0	UA_without_intermediate	2,0,0,1,0,0,0,0,0	practice	ward_and_allport	2,3,1,0,0,0,0,0,0	82.0	3.0	2.061	0,0,0,1,2,0,3,0,0	to_hand	s619
47.3	0.313	0	UA_without_intermediate	2,3,0,1,0,0,0,0,0	practice	ward_and_allport	2,3,1,0,0,0,0,0,0	89.0	3.0	0.313	0,0,0,1,2,0,3,0,0	to_board	s619
47.615	0.387	0	UA_without_intermediate	2,3,0,0,0,0,0,0,0	practice	ward_and_allport	2,3,1,0,0,0,0,0,0	71.0	3.0	0.387	0,0,0,1,2,0,3,0,0	to_hand	s619
48.003	0.206	0	UA_without_intermediate	2,3,1,0,0,0,0,0,0	practice	ward_and_allport	2,3,1,0,0,0,0,0,0	89.0	3.0	0.206	0,0,0,1,2,0,3,0,0	to_board	s619
48.215	1.0	0	UA_without_intermediate	n/a	practice	ward_and_allport	n/a	-1.0	3.0	n/a	n/a	feedback	s619
49.215	1.0	0	UA_without_intermediate	n/a	practice	ward_and_allport	n/a	-1.0	3.0	n/a	n/a	ITI	s619
52.221	5.001	1	PA_without_intermediate	1,2,0,0,0,0,0,0,0	test	ward_and_allport	0,0,0,3,1,0,2,0,0	89.0	0.0	5.001	1,2,3,0,0,0,0,0,0	to_hand	s619
57.224	0.332	0	PA_without_intermediate	1,2,0,3,0,0,0,0,0	test	ward_and_allport	0,0,0,3,1,0,2,0,0	71.0	0.0	0.332	1,2,3,0,0,0,0,0,0	to_board	s619
57.557	2.49	0	PA_without_intermediate	1,0,0,3,0,0,0,0,0	test	ward_and_allport	0,0,0,3,1,0,2,0,0	89.0	0.0	2.49	1,2,3,0,0,0,0,0,0	to_hand	s619
60.049	0.349	0	PA_without_intermediate	1,0,0,3,0,0,2,0,0	test	ward_and_allport	0,0,0,3,1,0,2,0,0	82.0	0.0	0.349	1,2,3,0,0,0,0,0,0	to_board	s619
60.4	0.937	0	PA_without_intermediate	0,0,0,3,0,0,2,0,0	test	ward_and_allport	0,0,0,3,1,0,2,0,0	89.0	0.0	0.937	1,2,3,0,0,0,0,0,0	to_hand	s619
61.338	0.273	0	PA_without_intermediate	0,0,0,3,1,0,2,0,0	test	ward_and_allport	0,0,0,3,1,0,2,0,0	71.0	0.0	0.273	1,2,3,0,0,0,0,0,0	to_board	s619
61.617	1.0	0	PA_without_intermediate	n/a	test	ward_and_allport	n/a	-1.0	0.0	n/a	n/a	feedback	s619
62.617	2.088	0	PA_without_intermediate	n/a	test	ward_and_allport	n/a	-1.0	0.0	n/a	n/a	ITI	s619
64.708	5.937	1	PA_with_intermediate	0,0,0,1,2,0,0,0,0	test	ward_and_allport	0,0,0,1,3,0,2,0,0	71.0	1.0	5.937	0,0,0,1,2,3,0,0,0	to_hand	s619
70.645	0.286	0	PA_with_intermediate	3,0,0,1,2,0,0,0,0	test	ward_and_allport	0,0,0,1,3,0,2,0,0	89.0	1.0	0.286	0,0,0,1,2,3,0,0,0	to_board	s619
70.934	1.473	0	PA_with_intermediate	3,0,0,1,0,0,0,0,0	test	ward_and_allport	0,0,0,1,3,0,2,0,0	71.0	1.0	1.473	0,0,0,1,2,3,0,0,0	to_hand	s619
72.408	0.284	0	PA_with_intermediate	3,0,0,1,0,0,2,0,0	test	ward_and_allport	0,0,0,1,3,0,2,0,0	82.0	1.0	0.284	0,0,0,1,2,3,0,0,0	to_board	s619
72.694	2.142	0	PA_with_intermediate	0,0,0,1,0,0,2,0,0	test	ward_and_allport	0,0,0,1,3,0,2,0,0	89.0	1.0	2.142	0,0,0,1,2,3,0,0,0	to_hand	s619
74.838	0.243	0	PA_with_intermediate	0,0,0,1,3,0,2,0,0	test	ward_and_allport	0,0,0,1,3,0,2,0,0	71.0	1.0	0.243	0,0,0,1,2,3,0,0,0	to_board	s619
75.084	1.0	0	PA_with_intermediate	n/a	test	ward_and_allport	n/a	-1.0	1.0	n/a	n/a	feedback	s619
76.084	1.0	0	PA_with_intermediate	n/a	test	ward_and_allport	n/a	-1.0	1.0	n/a	n/a	ITI	s619
77.086	6.172	1	PA_without_intermediate	0,0,0,1,2,0,0,0,0	test	ward_and_allport	3,2,0,0,0,0,1,0,0	71.0	2.0	6.172	0,0,0,1,2,3,0,0,0	to_hand	s619
83.259	0.252	0	PA_without_intermediate	3,0,0,1,2,0,0,0,0	test	ward_and_allport	3,2,0,0,0,0,1,0,0	89.0	2.0	0.252	0,0,0,1,2,3,0,0,0	to_board	s619
83.513	2.055	0	PA_without_intermediate	3,0,0,1,0,0,0,0,0	test	ward_and_allport	3,2,0,0,0,0,1,0,0	71.0	2.0	2.055	0,0,0,1,2,3,0,0,0	to_hand	s619
85.569	0.21	0	PA_without_intermediate	3,2,0,1,0,0,0,0,0	test	ward_and_allport	3,2,0,0,0,0,1,0,0	89.0	2.0	0.21	0,0,0,1,2,3,0,0,0	to_board	s619
85.782	1.244	0	PA_without_intermediate	3,2,0,0,0,0,0,0,0	test	ward_and_allport	3,2,0,0,0,0,1,0,0	71.0	2.0	1.244	0,0,0,1,2,3,0,0,0	to_hand	s619
87.027	0.178	0	PA_without_intermediate	3,2,0,0,0,0,1,0,0	test	ward_and_allport	3,2,0,0,0,0,1,0,0	82.0	2.0	0.178	0,0,0,1,2,3,0,0,0	to_board	s619
87.207	1.0	0	PA_without_intermediate	n/a	test	ward_and_allport	n/a	-1.0	2.0	n/a	n/a	feedback	s619
88.207	1.0	0	PA_without_intermediate	n/a	test	ward_and_allport	n/a	-1.0	2.0	n/a	n/a	ITI	s619
89.209	3.743	1	PA_without_intermediate	0,0,0,1,2,0,0,0,0	test	ward_and_allport	3,2,0,0,0,0,1,0,0	71.0	3.0	3.743	0,0,0,1,2,3,0,0,0	to_hand	s619
92.953	0.851	0	PA_without_intermediate	0,0,0,1,2,3,0,0,0	test	ward_and_allport	3,2,0,0,0,0,1,0,0	71.0	3.0	0.851	0,0,0,1,2,3,0,0,0	to_board	s619
93.806	1.368	0	PA_without_intermediate	0,0,0,1,2,0,0,0,0	test	ward_and_allport	3,2,0,0,0,0,1,0,0	71.0	3.0	1.368	0,0,0,1,2,3,0,0,0	to_hand	s619
95.176	0.121	0	PA_without_intermediate	3,0,0,1,2,0,0,0,0	test	ward_and_allport	3,2,0,0,0,0,1,0,0	89.0	3.0	0.121	0,0,0,1,2,3,0,0,0	to_board	s619
95.3	1.731	0	PA_without_intermediate	3,0,0,1,0,0,0,0,0	test	ward_and_allport	3,2,0,0,0,0,1,0,0	71.0	3.0	1.731	0,0,0,1,2,3,0,0,0	to_hand	s619
97.032	0.689	0	PA_without_intermediate	3,2,0,1,0,0,0,0,0	test	ward_and_allport	3,2,0,0,0,0,1,0,0	89.0	3.0	0.689	0,0,0,1,2,3,0,0,0	to_board	s619
97.722	0.741	0	PA_without_intermediate	3,2,0,0,0,0,0,0,0	test	ward_and_allport	3,2,0,0,0,0,1,0,0	71.0	3.0	0.741	0,0,0,1,2,3,0,0,0	to_hand	s619
98.464	0.25	0	PA_without_intermediate	3,2,0,0,0,0,1,0,0	test	ward_and_allport	3,2,0,0,0,0,1,0,0	82.0	3.0	0.25	0,0,0,1,2,3,0,0,0	to_board	s619
98.721	1.0	0	PA_without_intermediate	n/a	test	ward_and_allport	n/a	-1.0	3.0	n/a	n/a	feedback	s619
99.721	1.0	0	PA_without_intermediate	n/a	test	ward_and_allport	n/a	-1.0	3.0	n/a	n/a	ITI	s619
100.723	4.888	1	PA_with_intermediate	0,0,0,0,0,0,1,2,0	test	ward_and_allport	0,0,0,2,3,0,1,0,0	82.0	4.0	4.888	0,0,0,0,0,0,1,2,3	to_hand	s619
105.613	0.307	0	PA_with_intermediate	3,0,0,0,0,0,1,2,0	test	ward_and_allport	0,0,0,2,3,0,1,0,0	89.0	4.0	0.307	0,0,0,0,0,0,1,2,3	to_board	s619
105.923	2.15	0	PA_with_intermediate	3,0,0,0,0,0,1,0,0	test	ward_and_allport	0,0,0,2,3,0,1,0,0	82.0	4.0	2.15	0,0,0,0,0,0,1,2,3	to_hand	s619
108.074	0.341	0	PA_with_intermediate	3,0,0,2,0,0,1,0,0	test	ward_and_allport	0,0,0,2,3,0,1,0,0	71.0	4.0	0.341	0,0,0,0,0,0,1,2,3	to_board	s619
108.416	1.24	0	PA_with_intermediate	0,0,0,2,0,0,1,0,0	test	ward_and_allport	0,0,0,2,3,0,1,0,0	89.0	4.0	1.24	0,0,0,0,0,0,1,2,3	to_hand	s619
109.658	0.246	0	PA_with_intermediate	0,0,0,2,3,0,1,0,0	test	ward_and_allport	0,0,0,2,3,0,1,0,0	71.0	4.0	0.246	0,0,0,0,0,0,1,2,3	to_board	s619
109.911	1.0	0	PA_with_intermediate	n/a	test	ward_and_allport	n/a	-1.0	4.0	n/a	n/a	feedback	s619
110.911	1.544	0	PA_with_intermediate	n/a	test	ward_and_allport	n/a	-1.0	4.0	n/a	n/a	ITI	s619
112.457	2.881	1	PA_without_intermediate	0,0,0,1,2,0,0,0,0	test	ward_and_allport	1,0,0,0,0,0,3,2,0	71.0	5.0	2.881	0,0,0,1,2,3,0,0,0	to_hand	s619
115.339	0.375	0	PA_without_intermediate	0,0,0,1,2,0,3,0,0	test	ward_and_allport	1,0,0,0,0,0,3,2,0	82.0	5.0	0.375	0,0,0,1,2,3,0,0,0	to_board	s619
115.716	1.344	0	PA_without_intermediate	0,0,0,1,0,0,3,0,0	test	ward_and_allport	1,0,0,0,0,0,3,2,0	71.0	5.0	1.344	0,0,0,1,2,3,0,0,0	to_hand	s619
117.062	0.261	0	PA_without_intermediate	0,0,0,1,0,0,3,2,0	test	ward_and_allport	1,0,0,0,0,0,3,2,0	82.0	5.0	0.261	0,0,0,1,2,3,0,0,0	to_board	s619
117.326	1.108	0	PA_without_intermediate	0,0,0,0,0,0,3,2,0	test	ward_and_allport	1,0,0,0,0,0,3,2,0	71.0	5.0	1.108	0,0,0,1,2,3,0,0,0	to_hand	s619
118.434	0.376	0	PA_without_intermediate	1,0,0,0,0,0,3,2,0	test	ward_and_allport	1,0,0,0,0,0,3,2,0	89.0	5.0	0.376	0,0,0,1,2,3,0,0,0	to_board	s619
118.817	1.0	0	PA_without_intermediate	n/a	test	ward_and_allport	n/a	-1.0	5.0	n/a	n/a	feedback	s619
119.817	1.272	0	PA_without_intermediate	n/a	test	ward_and_allport	n/a	-1.0	5.0	n/a	n/a	ITI	s619
121.091	5.077	1	PA_with_intermediate	0,0,0,0,0,0,1,2,0	test	ward_and_allport	2,0,0,0,0,0,1,3,0	82.0	6.0	5.077	0,0,0,0,0,0,1,2,3	to_hand	s619
126.17	0.296	0	PA_with_intermediate	0,0,0,3,0,0,1,2,0	test	ward_and_allport	2,0,0,0,0,0,1,3,0	71.0	6.0	0.296	0,0,0,0,0,0,1,2,3	to_board	s619
126.468	2.106	0	PA_with_intermediate	0,0,0,3,0,0,1,0,0	test	ward_and_allport	2,0,0,0,0,0,1,3,0	82.0	6.0	2.106	0,0,0,0,0,0,1,2,3	to_hand	s619
128.576	0.252	0	PA_with_intermediate	2,0,0,3,0,0,1,0,0	test	ward_and_allport	2,0,0,0,0,0,1,3,0	89.0	6.0	0.252	0,0,0,0,0,0,1,2,3	to_board	s619
128.829	2.611	0	PA_with_intermediate	2,0,0,0,0,0,1,0,0	test	ward_and_allport	2,0,0,0,0,0,1,3,0	71.0	6.0	2.611	0,0,0,0,0,0,1,2,3	to_hand	s619
131.441	0.25	0	PA_with_intermediate	2,0,0,0,0,0,1,3,0	test	ward_and_allport	2,0,0,0,0,0,1,3,0	82.0	6.0	0.25	0,0,0,0,0,0,1,2,3	to_board	s619
131.695	1.0	0	PA_with_intermediate	n/a	test	ward_and_allport	n/a	-1.0	6.0	n/a	n/a	feedback	s619
132.695	3.04	0	PA_with_intermediate	n/a	test	ward_and_allport	n/a	-1.0	6.0	n/a	n/a	ITI	s619
135.738	5.065	1	PA_with_intermediate	0,0,0,0,0,0,1,2,0	test	ward_and_allport	0,0,0,2,3,0,1,0,0	82.0	7.0	5.065	0,0,0,0,0,0,1,2,3	to_hand	s619
140.804	0.437	0	PA_with_intermediate	3,0,0,0,0,0,1,2,0	test	ward_and_allport	0,0,0,2,3,0,1,0,0	89.0	7.0	0.437	0,0,0,0,0,0,1,2,3	to_board	s619
141.244	1.846	0	PA_with_intermediate	3,0,0,0,0,0,1,0,0	test	ward_and_allport	0,0,0,2,3,0,1,0,0	82.0	7.0	1.846	0,0,0,0,0,0,1,2,3	to_hand	s619
143.091	0.765	0	PA_with_intermediate	3,2,0,0,0,0,1,0,0	test	ward_and_allport	0,0,0,2,3,0,1,0,0	89.0	7.0	0.765	0,0,0,0,0,0,1,2,3	to_board	s619
143.859	5.006	0	PA_with_intermediate	3,0,0,0,0,0,1,0,0	test	ward_and_allport	0,0,0,2,3,0,1,0,0	89.0	7.0	5.006	0,0,0,0,0,0,1,2,3	to_hand	s619
148.866	1.112	0	PA_with_intermediate	3,0,0,2,0,0,1,0,0	test	ward_and_allport	0,0,0,2,3,0,1,0,0	71.0	7.0	1.112	0,0,0,0,0,0,1,2,3	to_board	s619
149.981	0.904	0	PA_with_intermediate	0,0,0,2,0,0,1,0,0	test	ward_and_allport	0,0,0,2,3,0,1,0,0	89.0	7.0	0.904	0,0,0,0,0,0,1,2,3	to_hand	s619
150.886	0.322	0	PA_with_intermediate	0,0,0,2,3,0,1,0,0	test	ward_and_allport	0,0,0,2,3,0,1,0,0	71.0	7.0	0.322	0,0,0,0,0,0,1,2,3	to_board	s619
151.212	1.0	0	PA_with_intermediate	n/a	test	ward_and_allport	n/a	-1.0	7.0	n/a	n/a	feedback	s619
152.212	1.272	0	PA_with_intermediate	n/a	test	ward_and_allport	n/a	-1.0	7.0	n/a	n/a	ITI	s619
153.487	4.264	1	PA_with_intermediate	1,2,0,0,0,0,0,0,0	test	ward_and_allport	1,0,0,0,0,0,2,3,0	89.0	8.0	4.264	1,2,3,0,0,0,0,0,0	to_hand	s619
157.752	0.342	0	PA_with_intermediate	1,2,0,0,0,0,3,0,0	test	ward_and_allport	1,0,0,0,0,0,2,3,0	82.0	8.0	0.342	1,2,3,0,0,0,0,0,0	to_board	s619
158.097	1.801	0	PA_with_intermediate	1,2,0,0,0,0,0,0,0	test	ward_and_allport	1,0,0,0,0,0,2,3,0	82.0	8.0	1.801	1,2,3,0,0,0,0,0,0	to_hand	s619
159.899	0.374	0	PA_with_intermediate	1,2,0,3,0,0,0,0,0	test	ward_and_allport	1,0,0,0,0,0,2,3,0	71.0	8.0	0.374	1,2,3,0,0,0,0,0,0	to_board	s619
160.276	1.063	0	PA_with_intermediate	1,0,0,3,0,0,0,0,0	test	ward_and_allport	1,0,0,0,0,0,2,3,0	89.0	8.0	1.063	1,2,3,0,0,0,0,0,0	to_hand	s619
161.34	0.4	0	PA_with_intermediate	1,0,0,3,0,0,2,0,0	test	ward_and_allport	1,0,0,0,0,0,2,3,0	82.0	8.0	0.4	1,2,3,0,0,0,0,0,0	to_board	s619
161.743	0.616	0	PA_with_intermediate	1,0,0,0,0,0,2,0,0	test	ward_and_allport	1,0,0,0,0,0,2,3,0	71.0	8.0	0.616	1,2,3,0,0,0,0,0,0	to_hand	s619
162.36	0.275	0	PA_with_intermediate	1,0,0,0,0,0,2,3,0	test	ward_and_allport	1,0,0,0,0,0,2,3,0	82.0	8.0	0.275	1,2,3,0,0,0,0,0,0	to_board	s619
162.638	1.0	0	PA_with_intermediate	n/a	test	ward_and_allport	n/a	-1.0	8.0	n/a	n/a	feedback	s619
163.638	1.136	0	PA_with_intermediate	n/a	test	ward_and_allport	n/a	-1.0	8.0	n/a	n/a	ITI	s619
164.779	4.278	1	PA_with_intermediate	0,0,0,0,0,0,1,2,0	test	ward_and_allport	0,0,0,2,0,0,1,3,0	82.0	9.0	4.278	0,0,0,0,0,0,1,2,3	to_hand	s619
169.058	0.203	0	PA_with_intermediate	3,0,0,0,0,0,1,2,0	test	ward_and_allport	0,0,0,2,0,0,1,3,0	89.0	9.0	0.203	0,0,0,0,0,0,1,2,3	to_board	s619
169.265	2.017	0	PA_with_intermediate	3,0,0,0,0,0,1,0,0	test	ward_and_allport	0,0,0,2,0,0,1,3,0	82.0	9.0	2.017	0,0,0,0,0,0,1,2,3	to_hand	s619
171.283	0.17	0	PA_with_intermediate	3,0,0,2,0,0,1,0,0	test	ward_and_allport	0,0,0,2,0,0,1,3,0	71.0	9.0	0.17	0,0,0,0,0,0,1,2,3	to_board	s619
171.456	1.243	0	PA_with_intermediate	0,0,0,2,0,0,1,0,0	test	ward_and_allport	0,0,0,2,0,0,1,3,0	89.0	9.0	1.243	0,0,0,0,0,0,1,2,3	to_hand	s619
172.701	0.209	0	PA_with_intermediate	0,0,0,2,0,0,1,3,0	test	ward_and_allport	0,0,0,2,0,0,1,3,0	82.0	9.0	0.209	0,0,0,0,0,0,1,2,3	to_board	s619
172.914	1.0	0	PA_with_intermediate	n/a	test	ward_and_allport	n/a	-1.0	9.0	n/a	n/a	feedback	s619
173.914	1.0	0	PA_with_intermediate	n/a	test	ward_and_allport	n/a	-1.0	9.0	n/a	n/a	ITI	s619
174.917	4.208	1	PA_with_intermediate	1,2,0,0,0,0,0,0,0	test	ward_and_allport	1,0,0,0,0,0,2,3,0	89.0	10.0	4.208	1,2,3,0,0,0,0,0,0	to_hand	s619
179.127	0.267	0	PA_with_intermediate	1,2,0,0,0,0,3,0,0	test	ward_and_allport	1,0,0,0,0,0,2,3,0	82.0	10.0	0.267	1,2,3,0,0,0,0,0,0	to_board	s619
179.399	1.445	0	PA_with_intermediate	1,0,0,0,0,0,3,0,0	test	ward_and_allport	1,0,0,0,0,0,2,3,0	89.0	10.0	1.445	1,2,3,0,0,0,0,0,0	to_hand	s619
180.846	3.203	0	PA_with_intermediate	1,2,0,0,0,0,3,0,0	test	ward_and_allport	1,0,0,0,0,0,2,3,0	89.0	10.0	3.203	1,2,3,0,0,0,0,0,0	to_board	s619
184.052	0.883	0	PA_with_intermediate	1,2,0,0,0,0,0,0,0	test	ward_and_allport	1,0,0,0,0,0,2,3,0	82.0	10.0	0.883	1,2,3,0,0,0,0,0,0	to_hand	s619
184.937	0.412	0	PA_with_intermediate	1,2,0,3,0,0,0,0,0	test	ward_and_allport	1,0,0,0,0,0,2,3,0	71.0	10.0	0.412	1,2,3,0,0,0,0,0,0	to_board	s619
185.354	0.564	0	PA_with_intermediate	1,0,0,3,0,0,0,0,0	test	ward_and_allport	1,0,0,0,0,0,2,3,0	89.0	10.0	0.564	1,2,3,0,0,0,0,0,0	to_hand	s619
185.92	0.285	0	PA_with_intermediate	1,0,0,3,0,0,2,0,0	test	ward_and_allport	1,0,0,0,0,0,2,3,0	82.0	10.0	0.285	1,2,3,0,0,0,0,0,0	to_board	s619
186.209	1.236	0	PA_with_intermediate	1,0,0,0,0,0,2,0,0	test	ward_and_allport	1,0,0,0,0,0,2,3,0	71.0	10.0	1.236	1,2,3,0,0,0,0,0,0	to_hand	s619
187.445	0.229	0	PA_with_intermediate	1,0,0,0,0,0,2,3,0	test	ward_and_allport	1,0,0,0,0,0,2,3,0	82.0	10.0	0.229	1,2,3,0,0,0,0,0,0	to_board	s619
187.681	1.0	0	PA_with_intermediate	n/a	test	ward_and_allport	n/a	-1.0	10.0	n/a	n/a	feedback	s619
188.681	1.0	0	PA_with_intermediate	n/a	test	ward_and_allport	n/a	-1.0	10.0	n/a	n/a	ITI	s619
189.686	4.133	1	PA_without_intermediate	1,2,0,0,0,0,0,0,0	test	ward_and_allport	0,0,0,3,1,0,2,0,0	89.0	11.0	4.133	1,2,3,0,0,0,0,0,0	to_hand	s619
193.82	1.055	0	PA_without_intermediate	1,2,0,3,0,0,0,0,0	test	ward_and_allport	0,0,0,3,1,0,2,0,0	71.0	11.0	1.055	1,2,3,0,0,0,0,0,0	to_board	s619
194.878	0.641	0	PA_without_intermediate	1,0,0,3,0,0,0,0,0	test	ward_and_allport	0,0,0,3,1,0,2,0,0	89.0	11.0	0.641	1,2,3,0,0,0,0,0,0	to_hand	s619
195.52	0.587	0	PA_without_intermediate	1,0,0,3,0,0,2,0,0	test	ward_and_allport	0,0,0,3,1,0,2,0,0	82.0	11.0	0.587	1,2,3,0,0,0,0,0,0	to_board	s619
196.112	1.227	0	PA_without_intermediate	0,0,0,3,0,0,2,0,0	test	ward_and_allport	0,0,0,3,1,0,2,0,0	89.0	11.0	1.227	1,2,3,0,0,0,0,0,0	to_hand	s619
197.34	0.156	0	PA_without_intermediate	0,0,0,3,1,0,2,0,0	test	ward_and_allport	0,0,0,3,1,0,2,0,0	71.0	11.0	0.156	1,2,3,0,0,0,0,0,0	to_board	s619
197.501	1.0	0	PA_without_intermediate	n/a	test	ward_and_allport	n/a	-1.0	11.0	n/a	n/a	feedback	s619
198.501	1.408	0	PA_without_intermediate	n/a	test	ward_and_allport	n/a	-1.0	11.0	n/a	n/a	ITI	s619
199.914	6.341	1	PA_with_intermediate	0,0,0,0,0,0,1,2,0	test	ward_and_allport	2,3,0,0,0,0,1,0,0	82.0	12.0	6.341	0,0,0,0,0,0,1,2,3	to_hand	s619
206.256	0.292	0	PA_with_intermediate	0,0,0,3,0,0,1,2,0	test	ward_and_allport	2,3,0,0,0,0,1,0,0	71.0	12.0	0.292	0,0,0,0,0,0,1,2,3	to_board	s619
206.552	1.28	0	PA_with_intermediate	0,0,0,3,0,0,1,0,0	test	ward_and_allport	2,3,0,0,0,0,1,0,0	82.0	12.0	1.28	0,0,0,0,0,0,1,2,3	to_hand	s619
207.833	0.192	0	PA_with_intermediate	2,0,0,3,0,0,1,0,0	test	ward_and_allport	2,3,0,0,0,0,1,0,0	89.0	12.0	0.192	0,0,0,0,0,0,1,2,3	to_board	s619
208.028	0.963	0	PA_with_intermediate	2,0,0,0,0,0,1,0,0	test	ward_and_allport	2,3,0,0,0,0,1,0,0	71.0	12.0	0.963	0,0,0,0,0,0,1,2,3	to_hand	s619
208.992	0.142	0	PA_with_intermediate	2,3,0,0,0,0,1,0,0	test	ward_and_allport	2,3,0,0,0,0,1,0,0	89.0	12.0	0.142	0,0,0,0,0,0,1,2,3	to_board	s619
209.14	1.0	0	PA_with_intermediate	n/a	test	ward_and_allport	n/a	-1.0	12.0	n/a	n/a	feedback	s619
210.14	2.768	0	PA_with_intermediate	n/a	test	ward_and_allport	n/a	-1.0	12.0	n/a	n/a	ITI	s619
212.911	3.744	1	PA_with_intermediate	1,2,0,0,0,0,0,0,0	test	ward_and_allport	1,3,0,2,0,0,0,0,0	89.0	13.0	3.744	1,2,3,0,0,0,0,0,0	to_hand	s619
216.657	1.121	0	PA_with_intermediate	1,2,0,3,0,0,0,0,0	test	ward_and_allport	1,3,0,2,0,0,0,0,0	71.0	13.0	1.121	1,2,3,0,0,0,0,0,0	to_board	s619
217.782	2.546	0	PA_with_intermediate	1,0,0,3,0,0,0,0,0	test	ward_and_allport	1,3,0,2,0,0,0,0,0	89.0	13.0	2.546	1,2,3,0,0,0,0,0,0	to_hand	s619
220.328	1.42	0	PA_with_intermediate	1,0,0,3,2,0,0,0,0	test	ward_and_allport	1,3,0,2,0,0,0,0,0	71.0	13.0	1.42	1,2,3,0,0,0,0,0,0	to_board	s619
221.753	0.914	0	PA_with_intermediate	1,0,0,3,0,0,0,0,0	test	ward_and_allport	1,3,0,2,0,0,0,0,0	71.0	13.0	0.914	1,2,3,0,0,0,0,0,0	to_hand	s619
222.668	0.438	0	PA_with_intermediate	1,2,0,3,0,0,0,0,0	test	ward_and_allport	1,3,0,2,0,0,0,0,0	89.0	13.0	0.438	1,2,3,0,0,0,0,0,0	to_board	s619
223.109	0.285	0	PA_with_intermediate	1,2,0,0,0,0,0,0,0	test	ward_and_allport	1,3,0,2,0,0,0,0,0	71.0	13.0	0.285	1,2,3,0,0,0,0,0,0	to_hand	s619
223.396	0.306	0	PA_with_intermediate	1,2,0,0,0,0,3,0,0	test	ward_and_allport	1,3,0,2,0,0,0,0,0	82.0	13.0	0.306	1,2,3,0,0,0,0,0,0	to_board	s619
223.706	1.455	0	PA_with_intermediate	1,0,0,0,0,0,3,0,0	test	ward_and_allport	1,3,0,2,0,0,0,0,0	89.0	13.0	1.455	1,2,3,0,0,0,0,0,0	to_hand	s619
225.162	0.173	0	PA_with_intermediate	1,0,0,2,0,0,3,0,0	test	ward_and_allport	1,3,0,2,0,0,0,0,0	71.0	13.0	0.173	1,2,3,0,0,0,0,0,0	to_board	s619
225.339	1.154	0	PA_with_intermediate	1,0,0,2,0,0,0,0,0	test	ward_and_allport	1,3,0,2,0,0,0,0,0	82.0	13.0	1.154	1,2,3,0,0,0,0,0,0	to_hand	s619
226.494	0.225	0	PA_with_intermediate	1,3,0,2,0,0,0,0,0	test	ward_and_allport	1,3,0,2,0,0,0,0,0	89.0	13.0	0.225	1,2,3,0,0,0,0,0,0	to_board	s619
226.724	1.0	0	PA_with_intermediate	n/a	test	ward_and_allport	n/a	-1.0	13.0	n/a	n/a	feedback	s619
227.724	1.68	0	PA_with_intermediate	n/a	test	ward_and_allport	n/a	-1.0	13.0	n/a	n/a	ITI	s619
229.408	3.626	1	PA_without_intermediate	0,0,0,0,0,0,1,2,0	test	ward_and_allport	3,2,0,1,0,0,0,0,0	82.0	14.0	3.626	0,0,0,0,0,0,1,2,3	to_hand	s619
233.035	0.348	0	PA_without_intermediate	3,0,0,0,0,0,1,2,0	test	ward_and_allport	3,2,0,1,0,0,0,0,0	89.0	14.0	0.348	0,0,0,0,0,0,1,2,3	to_board	s619
233.386	1.28	0	PA_without_intermediate	3,0,0,0,0,0,1,0,0	test	ward_and_allport	3,2,0,1,0,0,0,0,0	82.0	14.0	1.28	0,0,0,0,0,0,1,2,3	to_hand	s619
234.668	0.196	0	PA_without_intermediate	3,2,0,0,0,0,1,0,0	test	ward_and_allport	3,2,0,1,0,0,0,0,0	89.0	14.0	0.196	0,0,0,0,0,0,1,2,3	to_board	s619
234.869	2.117	0	PA_without_intermediate	3,2,0,0,0,0,0,0,0	test	ward_and_allport	3,2,0,1,0,0,0,0,0	82.0	14.0	2.117	0,0,0,0,0,0,1,2,3	to_hand	s619
236.987	0.228	0	PA_without_intermediate	3,2,0,1,0,0,0,0,0	test	ward_and_allport	3,2,0,1,0,0,0,0,0	71.0	14.0	0.228	0,0,0,0,0,0,1,2,3	to_board	s619
237.22	1.0	0	PA_without_intermediate	n/a	test	ward_and_allport	n/a	-1.0	14.0	n/a	n/a	feedback	s619
238.22	2.224	0	PA_without_intermediate	n/a	test	ward_and_allport	n/a	-1.0	14.0	n/a	n/a	ITI	s619
245.451	9.45	1	PA_without_intermediate	0,0,0,0,0,0,1,2,0	test	ward_and_allport	2,0,0,3,1,0,0,0,0	82.0	15.0	9.45	0,0,0,0,0,0,1,2,3	to_hand	s619
254.903	0.338	0	PA_without_intermediate	0,0,0,3,0,0,1,2,0	test	ward_and_allport	2,0,0,3,1,0,0,0,0	71.0	15.0	0.338	0,0,0,0,0,0,1,2,3	to_board	s619
255.247	2.202	0	PA_without_intermediate	0,0,0,3,0,0,1,0,0	test	ward_and_allport	2,0,0,3,1,0,0,0,0	82.0	15.0	2.202	0,0,0,0,0,0,1,2,3	to_hand	s619
257.45	0.28	0	PA_without_intermediate	2,0,0,3,0,0,1,0,0	test	ward_and_allport	2,0,0,3,1,0,0,0,0	89.0	15.0	0.28	0,0,0,0,0,0,1,2,3	to_board	s619
257.733	1.195	0	PA_without_intermediate	2,0,0,3,0,0,0,0,0	test	ward_and_allport	2,0,0,3,1,0,0,0,0	82.0	15.0	1.195	0,0,0,0,0,0,1,2,3	to_hand	s619
258.929	0.157	0	PA_without_intermediate	2,0,0,3,1,0,0,0,0	test	ward_and_allport	2,0,0,3,1,0,0,0,0	71.0	15.0	0.157	0,0,0,0,0,0,1,2,3	to_board	s619
259.095	1.0	0	PA_without_intermediate	n/a	test	ward_and_allport	n/a	-1.0	15.0	n/a	n/a	feedback	s619
260.095	2.36	0	PA_without_intermediate	n/a	test	ward_and_allport	n/a	-1.0	15.0	n/a	n/a	ITI	s619
262.459	4.702	1	PA_without_intermediate	0,0,0,1,2,0,0,0,0	test	ward_and_allport	3,1,0,0,0,0,2,0,0	71.0	16.0	4.702	0,0,0,1,2,3,0,0,0	to_hand	s619
267.161	0.11	0	PA_without_intermediate	3,0,0,1,2,0,0,0,0	test	ward_and_allport	3,1,0,0,0,0,2,0,0	89.0	16.0	0.11	0,0,0,1,2,3,0,0,0	to_board	s619
267.276	2.021	0	PA_without_intermediate	3,0,0,1,0,0,0,0,0	test	ward_and_allport	3,1,0,0,0,0,2,0,0	71.0	16.0	2.021	0,0,0,1,2,3,0,0,0	to_hand	s619
269.297	0.187	0	PA_without_intermediate	3,0,0,1,0,0,2,0,0	test	ward_and_allport	3,1,0,0,0,0,2,0,0	82.0	16.0	0.187	0,0,0,1,2,3,0,0,0	to_board	s619
269.491	1.409	0	PA_without_intermediate	3,0,0,0,0,0,2,0,0	test	ward_and_allport	3,1,0,0,0,0,2,0,0	71.0	16.0	1.409	0,0,0,1,2,3,0,0,0	to_hand	s619
270.9	0.092	0	PA_without_intermediate	3,1,0,0,0,0,2,0,0	test	ward_and_allport	3,1,0,0,0,0,2,0,0	89.0	16.0	0.092	0,0,0,1,2,3,0,0,0	to_board	s619
270.999	1.0	0	PA_without_intermediate	n/a	test	ward_and_allport	n/a	-1.0	16.0	n/a	n/a	feedback	s619
271.999	1.0	0	PA_without_intermediate	n/a	test	ward_and_allport	n/a	-1.0	16.0	n/a	n/a	ITI	s619
273.003	5.082	1	PA_without_intermediate	1,2,0,0,0,0,0,0,0	test	ward_and_allport	0,0,0,2,0,0,3,1,0	89.0	17.0	5.082	1,2,3,0,0,0,0,0,0	to_hand	s619
278.086	0.251	0	PA_without_intermediate	1,2,0,0,0,0,3,0,0	test	ward_and_allport	0,0,0,2,0,0,3,1,0	82.0	17.0	0.251	1,2,3,0,0,0,0,0,0	to_board	s619
278.341	2.1	0	PA_without_intermediate	1,0,0,0,0,0,3,0,0	test	ward_and_allport	0,0,0,2,0,0,3,1,0	89.0	17.0	2.1	1,2,3,0,0,0,0,0,0	to_hand	s619
280.442	0.018	0	PA_without_intermediate	1,0,0,2,0,0,3,0,0	test	ward_and_allport	0,0,0,2,0,0,3,1,0	71.0	17.0	0.018	1,2,3,0,0,0,0,0,0	to_board	s619
280.464	1.604	0	PA_without_intermediate	0,0,0,2,0,0,3,0,0	test	ward_and_allport	0,0,0,2,0,0,3,1,0	89.0	17.0	1.604	1,2,3,0,0,0,0,0,0	to_hand	s619
282.069	0.128	0	PA_without_intermediate	0,0,0,2,0,0,3,1,0	test	ward_and_allport	0,0,0,2,0,0,3,1,0	82.0	17.0	0.128	1,2,3,0,0,0,0,0,0	to_board	s619
282.201	1.0	0	PA_without_intermediate	n/a	test	ward_and_allport	n/a	-1.0	17.0	n/a	n/a	feedback	s619
283.201	1.408	0	PA_without_intermediate	n/a	test	ward_and_allport	n/a	-1.0	17.0	n/a	n/a	ITI	s619
284.613	7.742	1	PA_with_intermediate	0,0,0,0,0,0,1,2,0	test	ward_and_allport	2,0,0,0,0,0,1,3,0	82.0	18.0	7.742	0,0,0,0,0,0,1,2,3	to_hand	s619
292.356	0.592	0	PA_with_intermediate	0,0,0,3,0,0,1,2,0	test	ward_and_allport	2,0,0,0,0,0,1,3,0	71.0	18.0	0.592	0,0,0,0,0,0,1,2,3	to_board	s619
292.952	0.931	0	PA_with_intermediate	0,0,0,3,0,0,1,0,0	test	ward_and_allport	2,0,0,0,0,0,1,3,0	82.0	18.0	0.931	0,0,0,0,0,0,1,2,3	to_hand	s619
293.885	0.148	0	PA_with_intermediate	2,0,0,3,0,0,1,0,0	test	ward_and_allport	2,0,0,0,0,0,1,3,0	89.0	18.0	0.148	0,0,0,0,0,0,1,2,3	to_board	s619
294.037	1.027	0	PA_with_intermediate	2,0,0,0,0,0,1,0,0	test	ward_and_allport	2,0,0,0,0,0,1,3,0	71.0	18.0	1.027	0,0,0,0,0,0,1,2,3	to_hand	s619
295.065	0.117	0	PA_with_intermediate	2,0,0,0,0,0,1,3,0	test	ward_and_allport	2,0,0,0,0,0,1,3,0	82.0	18.0	0.117	0,0,0,0,0,0,1,2,3	to_board	s619
295.188	1.0	0	PA_with_intermediate	n/a	test	ward_and_allport	n/a	-1.0	18.0	n/a	n/a	feedback	s619
296.188	1.136	0	PA_with_intermediate	n/a	test	ward_and_allport	n/a	-1.0	18.0	n/a	n/a	ITI	s619
297.329	7.484	1	PA_without_intermediate	0,0,0,0,0,0,1,2,0	test	ward_and_allport	3,1,0,2,0,0,0,0,0	82.0	19.0	7.484	0,0,0,0,0,0,1,2,3	to_hand	s619
304.814	0.14	0	PA_without_intermediate	3,0,0,0,0,0,1,2,0	test	ward_and_allport	3,1,0,2,0,0,0,0,0	89.0	19.0	0.14	0,0,0,0,0,0,1,2,3	to_board	s619
304.958	3.648	0	PA_without_intermediate	3,0,0,0,0,0,1,0,0	test	ward_and_allport	3,1,0,2,0,0,0,0,0	82.0	19.0	3.648	0,0,0,0,0,0,1,2,3	to_hand	s619
308.608	0.167	0	PA_without_intermediate	3,0,0,2,0,0,1,0,0	test	ward_and_allport	3,1,0,2,0,0,0,0,0	71.0	19.0	0.167	0,0,0,0,0,0,1,2,3	to_board	s619
308.779	1.349	0	PA_without_intermediate	3,0,0,2,0,0,0,0,0	test	ward_and_allport	3,1,0,2,0,0,0,0,0	82.0	19.0	1.349	0,0,0,0,0,0,1,2,3	to_hand	s619
310.13	0.158	0	PA_without_intermediate	3,1,0,2,0,0,0,0,0	test	ward_and_allport	3,1,0,2,0,0,0,0,0	89.0	19.0	0.158	0,0,0,0,0,0,1,2,3	to_board	s619
310.298	1.0	0	PA_without_intermediate	n/a	test	ward_and_allport	n/a	-1.0	19.0	n/a	n/a	feedback	s619
311.298	4.128	0	PA_without_intermediate	n/a	test	ward_and_allport	n/a	-1.0	19.0	n/a	n/a	ITI	s619
315.433	4.788	1	PA_without_intermediate	1,2,0,0,0,0,0,0,0	test	ward_and_allport	0,0,0,3,2,0,1,0,0	89.0	20.0	4.788	1,2,3,0,0,0,0,0,0	to_hand	s619
320.222	0.527	0	PA_without_intermediate	1,2,0,3,0,0,0,0,0	test	ward_and_allport	0,0,0,3,2,0,1,0,0	71.0	20.0	0.527	1,2,3,0,0,0,0,0,0	to_board	s619
320.756	0.38	0	PA_without_intermediate	1,0,0,3,0,0,0,0,0	test	ward_and_allport	0,0,0,3,2,0,1,0,0	89.0	20.0	0.38	1,2,3,0,0,0,0,0,0	to_hand	s619
321.136	0.211	0	PA_without_intermediate	1,0,0,3,2,0,0,0,0	test	ward_and_allport	0,0,0,3,2,0,1,0,0	71.0	20.0	0.211	1,2,3,0,0,0,0,0,0	to_board	s619
321.353	0.971	0	PA_without_intermediate	0,0,0,3,2,0,0,0,0	test	ward_and_allport	0,0,0,3,2,0,1,0,0	89.0	20.0	0.971	1,2,3,0,0,0,0,0,0	to_hand	s619
322.325	0.176	0	PA_without_intermediate	0,0,0,3,2,0,1,0,0	test	ward_and_allport	0,0,0,3,2,0,1,0,0	82.0	20.0	0.176	1,2,3,0,0,0,0,0,0	to_board	s619
322.511	1.0	0	PA_without_intermediate	n/a	test	ward_and_allport	n/a	-1.0	20.0	n/a	n/a	feedback	s619
323.511	1.136	0	PA_without_intermediate	n/a	test	ward_and_allport	n/a	-1.0	20.0	n/a	n/a	ITI	s619
324.653	5.637	1	PA_without_intermediate	0,0,0,1,2,0,0,0,0	test	ward_and_allport	1,0,0,0,0,0,3,2,0	71.0	21.0	5.637	0,0,0,1,2,3,0,0,0	to_hand	s619
330.29	0.889	0	PA_without_intermediate	0,0,0,1,2,0,3,0,0	test	ward_and_allport	1,0,0,0,0,0,3,2,0	82.0	21.0	0.889	0,0,0,1,2,3,0,0,0	to_board	s619
331.185	0.394	0	PA_without_intermediate	0,0,0,1,0,0,3,0,0	test	ward_and_allport	1,0,0,0,0,0,3,2,0	71.0	21.0	0.394	0,0,0,1,2,3,0,0,0	to_hand	s619
331.58	0.242	0	PA_without_intermediate	0,0,0,1,0,0,3,2,0	test	ward_and_allport	1,0,0,0,0,0,3,2,0	82.0	21.0	0.242	0,0,0,1,2,3,0,0,0	to_board	s619
331.829	0.923	0	PA_without_intermediate	0,0,0,0,0,0,3,2,0	test	ward_and_allport	1,0,0,0,0,0,3,2,0	71.0	21.0	0.923	0,0,0,1,2,3,0,0,0	to_hand	s619
332.753	0.16	0	PA_without_intermediate	1,0,0,0,0,0,3,2,0	test	ward_and_allport	1,0,0,0,0,0,3,2,0	89.0	21.0	0.16	0,0,0,1,2,3,0,0,0	to_board	s619
332.919	1.0	0	PA_without_intermediate	n/a	test	ward_and_allport	n/a	-1.0	21.0	n/a	n/a	feedback	s619
333.919	4.264	0	PA_without_intermediate	n/a	test	ward_and_allport	n/a	-1.0	21.0	n/a	n/a	ITI	s619
338.19	4.306	1	PA_with_intermediate	0,0,0,1,2,0,0,0,0	test	ward_and_allport	0,0,0,1,0,0,2,3,0	71.0	22.0	4.306	0,0,0,1,2,3,0,0,0	to_hand	s619
342.497	2.062	0	PA_with_intermediate	3,0,0,1,2,0,0,0,0	test	ward_and_allport	0,0,0,1,0,0,2,3,0	89.0	22.0	2.062	0,0,0,1,2,3,0,0,0	to_board	s619
344.565	0.745	0	PA_with_intermediate	3,0,0,1,0,0,0,0,0	test	ward_and_allport	0,0,0,1,0,0,2,3,0	71.0	22.0	0.745	0,0,0,1,2,3,0,0,0	to_hand	s619
345.311	0.242	0	PA_with_intermediate	3,0,0,1,0,0,2,0,0	test	ward_and_allport	0,0,0,1,0,0,2,3,0	82.0	22.0	0.242	0,0,0,1,2,3,0,0,0	to_board	s619
345.559	0.555	0	PA_with_intermediate	0,0,0,1,0,0,2,0,0	test	ward_and_allport	0,0,0,1,0,0,2,3,0	89.0	22.0	0.555	0,0,0,1,2,3,0,0,0	to_hand	s619
346.115	0.2	0	PA_with_intermediate	0,0,0,1,0,0,2,3,0	test	ward_and_allport	0,0,0,1,0,0,2,3,0	82.0	22.0	0.2	0,0,0,1,2,3,0,0,0	to_board	s619
346.324	1.0	0	PA_with_intermediate	n/a	test	ward_and_allport	n/a	-1.0	22.0	n/a	n/a	feedback	s619
347.324	3.04	0	PA_with_intermediate	n/a	test	ward_and_allport	n/a	-1.0	22.0	n/a	n/a	ITI	s619
350.37	3.591	1	PA_with_intermediate	0,0,0,1,2,0,0,0,0	test	ward_and_allport	2,0,0,1,3,0,0,0,0	71.0	23.0	3.591	0,0,0,1,2,3,0,0,0	to_hand	s619
353.962	0.367	0	PA_with_intermediate	0,0,0,1,2,0,3,0,0	test	ward_and_allport	2,0,0,1,3,0,0,0,0	82.0	23.0	0.367	0,0,0,1,2,3,0,0,0	to_board	s619
354.335	0.919	0	PA_with_intermediate	0,0,0,1,0,0,3,0,0	test	ward_and_allport	2,0,0,1,3,0,0,0,0	71.0	23.0	0.919	0,0,0,1,2,3,0,0,0	to_hand	s619
355.255	0.144	0	PA_with_intermediate	2,0,0,1,0,0,3,0,0	test	ward_and_allport	2,0,0,1,3,0,0,0,0	89.0	23.0	0.144	0,0,0,1,2,3,0,0,0	to_board	s619
355.404	1.203	0	PA_with_intermediate	2,0,0,1,0,0,0,0,0	test	ward_and_allport	2,0,0,1,3,0,0,0,0	82.0	23.0	1.203	0,0,0,1,2,3,0,0,0	to_hand	s619
356.609	0.117	0	PA_with_intermediate	2,0,0,1,3,0,0,0,0	test	ward_and_allport	2,0,0,1,3,0,0,0,0	71.0	23.0	0.117	0,0,0,1,2,3,0,0,0	to_board	s619
356.735	1.0	0	PA_with_intermediate	n/a	test	ward_and_allport	n/a	-1.0	23.0	n/a	n/a	feedback	s619
357.735	1.136	0	PA_with_intermediate	n/a	test	ward_and_allport	n/a	-1.0	23.0	n/a	n/a	ITI	s619
358.877	5.482	1	PA_with_intermediate	0,0,0,1,2,0,0,0,0	test	ward_and_allport	0,0,0,1,3,0,2,0,0	71.0	24.0	5.482	0,0,0,1,2,3,0,0,0	to_hand	s619
364.36	0.134	0	PA_with_intermediate	3,0,0,1,2,0,0,0,0	test	ward_and_allport	0,0,0,1,3,0,2,0,0	89.0	24.0	0.134	0,0,0,1,2,3,0,0,0	to_board	s619
364.5	0.703	0	PA_with_intermediate	3,0,0,1,0,0,0,0,0	test	ward_and_allport	0,0,0,1,3,0,2,0,0	71.0	24.0	0.703	0,0,0,1,2,3,0,0,0	to_hand	s619
365.203	0.155	0	PA_with_intermediate	3,0,0,1,0,0,2,0,0	test	ward_and_allport	0,0,0,1,3,0,2,0,0	82.0	24.0	0.155	0,0,0,1,2,3,0,0,0	to_board	s619
365.365	1.44	0	PA_with_intermediate	0,0,0,1,0,0,2,0,0	test	ward_and_allport	0,0,0,1,3,0,2,0,0	89.0	24.0	1.44	0,0,0,1,2,3,0,0,0	to_hand	s619
366.806	0.128	0	PA_with_intermediate	0,0,0,1,3,0,2,0,0	test	ward_and_allport	0,0,0,1,3,0,2,0,0	71.0	24.0	0.128	0,0,0,1,2,3,0,0,0	to_board	s619
366.943	1.0	0	PA_with_intermediate	n/a	test	ward_and_allport	n/a	-1.0	24.0	n/a	n/a	feedback	s619
367.943	1.408	0	PA_with_intermediate	n/a	test	ward_and_allport	n/a	-1.0	24.0	n/a	n/a	ITI	s619
369.357	7.77	1	PA_without_intermediate	1,2,0,0,0,0,0,0,0	test	ward_and_allport	0,0,0,2,0,0,3,1,0	89.0	25.0	7.77	1,2,3,0,0,0,0,0,0	to_hand	s619
377.128	0.262	0	PA_without_intermediate	1,2,0,0,0,0,3,0,0	test	ward_and_allport	0,0,0,2,0,0,3,1,0	82.0	25.0	0.262	1,2,3,0,0,0,0,0,0	to_board	s619
377.396	1.053	0	PA_without_intermediate	1,0,0,0,0,0,3,0,0	test	ward_and_allport	0,0,0,2,0,0,3,1,0	89.0	25.0	1.053	1,2,3,0,0,0,0,0,0	to_hand	s619
378.45	0.851	0	PA_without_intermediate	1,0,0,2,0,0,3,0,0	test	ward_and_allport	0,0,0,2,0,0,3,1,0	71.0	25.0	0.851	1,2,3,0,0,0,0,0,0	to_board	s619
379.307	1.116	0	PA_without_intermediate	0,0,0,2,0,0,3,0,0	test	ward_and_allport	0,0,0,2,0,0,3,1,0	89.0	25.0	1.116	1,2,3,0,0,0,0,0,0	to_hand	s619
380.424	0.182	0	PA_without_intermediate	0,0,0,2,1,0,3,0,0	test	ward_and_allport	0,0,0,2,0,0,3,1,0	71.0	25.0	0.182	1,2,3,0,0,0,0,0,0	to_board	s619
380.613	1.65	0	PA_without_intermediate	0,0,0,2,0,0,3,0,0	test	ward_and_allport	0,0,0,2,0,0,3,1,0	71.0	25.0	1.65	1,2,3,0,0,0,0,0,0	to_hand	s619
382.264	0.149	0	PA_without_intermediate	0,0,0,2,0,0,3,1,0	test	ward_and_allport	0,0,0,2,0,0,3,1,0	82.0	25.0	0.149	1,2,3,0,0,0,0,0,0	to_board	s619
382.42	1.0	0	PA_without_intermediate	n/a	test	ward_and_allport	n/a	-1.0	25.0	n/a	n/a	feedback	s619
383.42	1.68	0	PA_without_intermediate	n/a	test	ward_and_allport	n/a	-1.0	25.0	n/a	n/a	ITI	s619
385.107	2.853	1	PA_with_intermediate	1,2,0,0,0,0,0,0,0	test	ward_and_allport	1,3,0,0,0,0,2,0,0	89.0	26.0	2.853	1,2,3,0,0,0,0,0,0	to_hand	s619
387.96	1.827	0	PA_with_intermediate	1,2,0,3,0,0,0,0,0	test	ward_and_allport	1,3,0,0,0,0,2,0,0	71.0	26.0	1.827	1,2,3,0,0,0,0,0,0	to_board	s619
389.794	0.509	0	PA_with_intermediate	1,2,0,0,0,0,0,0,0	test	ward_and_allport	1,3,0,0,0,0,2,0,0	71.0	26.0	0.509	1,2,3,0,0,0,0,0,0	to_hand	s619
390.304	0.57	0	PA_with_intermediate	1,2,0,3,0,0,0,0,0	test	ward_and_allport	1,3,0,0,0,0,2,0,0	71.0	26.0	0.57	1,2,3,0,0,0,0,0,0	to_board	s619
390.882	0.598	0	PA_with_intermediate	1,0,0,3,0,0,0,0,0	test	ward_and_allport	1,3,0,0,0,0,2,0,0	89.0	26.0	0.598	1,2,3,0,0,0,0,0,0	to_hand	s619
391.481	0.203	0	PA_with_intermediate	1,0,0,3,0,0,2,0,0	test	ward_and_allport	1,3,0,0,0,0,2,0,0	82.0	26.0	0.203	1,2,3,0,0,0,0,0,0	to_board	s619
391.691	1.299	0	PA_with_intermediate	1,0,0,0,0,0,2,0,0	test	ward_and_allport	1,3,0,0,0,0,2,0,0	71.0	26.0	1.299	1,2,3,0,0,0,0,0,0	to_hand	s619
392.991	0.105	0	PA_with_intermediate	1,3,0,0,0,0,2,0,0	test	ward_and_allport	1,3,0,0,0,0,2,0,0	89.0	26.0	0.105	1,2,3,0,0,0,0,0,0	to_board	s619
393.105	1.0	0	PA_with_intermediate	n/a	test	ward_and_allport	n/a	-1.0	26.0	n/a	n/a	feedback	s619
394.105	3.72	0	PA_with_intermediate	n/a	test	ward_and_allport	n/a	-1.0	26.0	n/a	n/a	ITI	s619
397.832	3.838	1	PA_without_intermediate	0,0,0,0,0,0,1,2,0	test	ward_and_allport	2,0,0,3,1,0,0,0,0	82.0	27.0	3.838	0,0,0,0,0,0,1,2,3	to_hand	s619
401.671	0.498	0	PA_without_intermediate	0,0,0,3,0,0,1,2,0	test	ward_and_allport	2,0,0,3,1,0,0,0,0	71.0	27.0	0.498	0,0,0,0,0,0,1,2,3	to_board	s619
402.175	1.96	0	PA_without_intermediate	0,0,0,3,0,0,1,0,0	test	ward_and_allport	2,0,0,3,1,0,0,0,0	82.0	27.0	1.96	0,0,0,0,0,0,1,2,3	to_hand	s619
404.137	0.191	0	PA_without_intermediate	2,0,0,3,0,0,1,0,0	test	ward_and_allport	2,0,0,3,1,0,0,0,0	89.0	27.0	0.191	0,0,0,0,0,0,1,2,3	to_board	s619
404.335	2.59	0	PA_without_intermediate	2,0,0,3,0,0,0,0,0	test	ward_and_allport	2,0,0,3,1,0,0,0,0	82.0	27.0	2.59	0,0,0,0,0,0,1,2,3	to_hand	s619
406.926	0.203	0	PA_without_intermediate	2,0,0,3,1,0,0,0,0	test	ward_and_allport	2,0,0,3,1,0,0,0,0	71.0	27.0	0.203	0,0,0,0,0,0,1,2,3	to_board	s619
407.141	1.0	0	PA_without_intermediate	n/a	test	ward_and_allport	n/a	-1.0	27.0	n/a	n/a	feedback	s619
408.141	2.224	0	PA_without_intermediate	n/a	test	ward_and_allport	n/a	-1.0	27.0	n/a	n/a	ITI	s619
410.372	1.924	1	PA_without_intermediate	0,0,0,0,0,0,1,2,0	test	ward_and_allport	1,0,0,3,2,0,0,0,0	82.0	28.0	1.924	0,0,0,0,0,0,1,2,3	to_hand	s619
412.297	1.641	0	PA_without_intermediate	0,0,0,3,0,0,1,2,0	test	ward_and_allport	1,0,0,3,2,0,0,0,0	71.0	28.0	1.641	0,0,0,0,0,0,1,2,3	to_board	s619
413.944	1.111	0	PA_without_intermediate	0,0,0,3,0,0,1,0,0	test	ward_and_allport	1,0,0,3,2,0,0,0,0	82.0	28.0	1.111	0,0,0,0,0,0,1,2,3	to_hand	s619
415.057	0.159	0	PA_without_intermediate	0,0,0,3,2,0,1,0,0	test	ward_and_allport	1,0,0,3,2,0,0,0,0	71.0	28.0	0.159	0,0,0,0,0,0,1,2,3	to_board	s619
415.223	1.235	0	PA_without_intermediate	0,0,0,3,2,0,0,0,0	test	ward_and_allport	1,0,0,3,2,0,0,0,0	82.0	28.0	1.235	0,0,0,0,0,0,1,2,3	to_hand	s619
416.46	0.125	0	PA_without_intermediate	1,0,0,3,2,0,0,0,0	test	ward_and_allport	1,0,0,3,2,0,0,0,0	89.0	28.0	0.125	0,0,0,0,0,0,1,2,3	to_board	s619
416.598	1.0	0	PA_without_intermediate	n/a	test	ward_and_allport	n/a	-1.0	28.0	n/a	n/a	feedback	s619
417.598	1.272	0	PA_without_intermediate	n/a	test	ward_and_allport	n/a	-1.0	28.0	n/a	n/a	ITI	s619
418.877	4.395	1	PA_with_intermediate	0,0,0,1,2,0,0,0,0	test	ward_and_allport	0,0,0,1,0,0,2,3,0	71.0	29.0	4.395	0,0,0,1,2,3,0,0,0	to_hand	s619
423.273	0.234	0	PA_with_intermediate	3,0,0,1,2,0,0,0,0	test	ward_and_allport	0,0,0,1,0,0,2,3,0	89.0	29.0	0.234	0,0,0,1,2,3,0,0,0	to_board	s619
423.515	1.15	0	PA_with_intermediate	3,0,0,1,0,0,0,0,0	test	ward_and_allport	0,0,0,1,0,0,2,3,0	71.0	29.0	1.15	0,0,0,1,2,3,0,0,0	to_hand	s619
424.666	0.196	0	PA_with_intermediate	3,0,0,1,0,0,2,0,0	test	ward_and_allport	0,0,0,1,0,0,2,3,0	82.0	29.0	0.196	0,0,0,1,2,3,0,0,0	to_board	s619
424.87	0.902	0	PA_with_intermediate	0,0,0,1,0,0,2,0,0	test	ward_and_allport	0,0,0,1,0,0,2,3,0	89.0	29.0	0.902	0,0,0,1,2,3,0,0,0	to_hand	s619
425.773	0.146	0	PA_with_intermediate	0,0,0,1,3,0,2,0,0	test	ward_and_allport	0,0,0,1,0,0,2,3,0	71.0	29.0	0.146	0,0,0,1,2,3,0,0,0	to_board	s619
425.928	1.366	0	PA_with_intermediate	0,0,0,1,0,0,2,0,0	test	ward_and_allport	0,0,0,1,0,0,2,3,0	71.0	29.0	1.366	0,0,0,1,2,3,0,0,0	to_hand	s619
427.295	0.318	0	PA_with_intermediate	3,0,0,1,0,0,2,0,0	test	ward_and_allport	0,0,0,1,0,0,2,3,0	89.0	29.0	0.318	0,0,0,1,2,3,0,0,0	to_board	s619
427.619	2.727	0	PA_with_intermediate	0,0,0,1,0,0,2,0,0	test	ward_and_allport	0,0,0,1,0,0,2,3,0	89.0	29.0	2.727	0,0,0,1,2,3,0,0,0	to_hand	s619
430.348	0.286	0	PA_with_intermediate	0,0,0,1,0,0,2,3,0	test	ward_and_allport	0,0,0,1,0,0,2,3,0	82.0	29.0	0.286	0,0,0,1,2,3,0,0,0	to_board	s619
430.645	1.0	0	PA_with_intermediate	n/a	test	ward_and_allport	n/a	-1.0	29.0	n/a	n/a	feedback	s619
431.645	2.632	0	PA_with_intermediate	n/a	test	ward_and_allport	n/a	-1.0	29.0	n/a	n/a	ITI	s619
439.287	7.124	1	PA_without_intermediate	0,0,0,1,2,0,0,0,0	test	ward_and_allport	3,1,0,0,0,0,2,0,0	71.0	30.0	7.124	0,0,0,1,2,3,0,0,0	to_hand	s619
446.412	0.103	0	PA_without_intermediate	3,0,0,1,2,0,0,0,0	test	ward_and_allport	3,1,0,0,0,0,2,0,0	89.0	30.0	0.103	0,0,0,1,2,3,0,0,0	to_board	s619
446.522	1.44	0	PA_without_intermediate	3,0,0,1,0,0,0,0,0	test	ward_and_allport	3,1,0,0,0,0,2,0,0	71.0	30.0	1.44	0,0,0,1,2,3,0,0,0	to_hand	s619
447.963	0.135	0	PA_without_intermediate	3,0,0,1,0,0,2,0,0	test	ward_and_allport	3,1,0,0,0,0,2,0,0	82.0	30.0	0.135	0,0,0,1,2,3,0,0,0	to_board	s619
448.107	1.762	0	PA_without_intermediate	3,0,0,0,0,0,2,0,0	test	ward_and_allport	3,1,0,0,0,0,2,0,0	71.0	30.0	1.762	0,0,0,1,2,3,0,0,0	to_hand	s619
449.869	0.102	0	PA_without_intermediate	3,1,0,0,0,0,2,0,0	test	ward_and_allport	3,1,0,0,0,0,2,0,0	89.0	30.0	0.102	0,0,0,1,2,3,0,0,0	to_board	s619
449.983	1.0	0	PA_without_intermediate	n/a	test	ward_and_allport	n/a	-1.0	30.0	n/a	n/a	feedback	s619
450.983	1.408	0	PA_without_intermediate	n/a	test	ward_and_allport	n/a	-1.0	30.0	n/a	n/a	ITI	s619
452.398	5.942	1	PA_without_intermediate	0,0,0,1,2,0,0,0,0	test	ward_and_allport	2,0,0,0,0,0,3,1,0	71.0	31.0	5.942	0,0,0,1,2,3,0,0,0	to_hand	s619
458.342	0.224	0	PA_without_intermediate	0,0,0,1,2,0,3,0,0	test	ward_and_allport	2,0,0,0,0,0,3,1,0	82.0	31.0	0.224	0,0,0,1,2,3,0,0,0	to_board	s619
458.572	2.209	0	PA_without_intermediate	0,0,0,1,0,0,3,0,0	test	ward_and_allport	2,0,0,0,0,0,3,1,0	71.0	31.0	2.209	0,0,0,1,2,3,0,0,0	to_hand	s619
460.782	0.042	0	PA_without_intermediate	2,0,0,1,0,0,3,0,0	test	ward_and_allport	2,0,0,0,0,0,3,1,0	89.0	31.0	0.042	0,0,0,1,2,3,0,0,0	to_board	s619
460.832	1.015	0	PA_without_intermediate	2,0,0,0,0,0,3,0,0	test	ward_and_allport	2,0,0,0,0,0,3,1,0	71.0	31.0	1.015	0,0,0,1,2,3,0,0,0	to_hand	s619
461.849	0.129	0	PA_without_intermediate	2,0,0,0,0,0,3,1,0	test	ward_and_allport	2,0,0,0,0,0,3,1,0	82.0	31.0	0.129	0,0,0,1,2,3,0,0,0	to_board	s619
461.99	1.0	0	PA_without_intermediate	n/a	test	ward_and_allport	n/a	-1.0	31.0	n/a	n/a	feedback	s619
462.99	1.0	0	PA_without_intermediate	n/a	test	ward_and_allport	n/a	-1.0	31.0	n/a	n/a	ITI	s619
463.998	5.488	1	PA_with_intermediate	0,0,0,1,2,0,0,0,0	test	ward_and_allport	2,3,0,1,0,0,0,0,0	71.0	32.0	5.488	0,0,0,1,2,3,0,0,0	to_hand	s619
469.487	0.147	0	PA_with_intermediate	0,0,0,1,2,0,3,0,0	test	ward_and_allport	2,3,0,1,0,0,0,0,0	82.0	32.0	0.147	0,0,0,1,2,3,0,0,0	to_board	s619
469.64	0.675	0	PA_with_intermediate	0,0,0,1,0,0,3,0,0	test	ward_and_allport	2,3,0,1,0,0,0,0,0	71.0	32.0	0.675	0,0,0,1,2,3,0,0,0	to_hand	s619
470.316	0.103	0	PA_with_intermediate	2,0,0,1,0,0,3,0,0	test	ward_and_allport	2,3,0,1,0,0,0,0,0	89.0	32.0	0.103	0,0,0,1,2,3,0,0,0	to_board	s619
470.427	1.003	0	PA_with_intermediate	2,0,0,1,0,0,0,0,0	test	ward_and_allport	2,3,0,1,0,0,0,0,0	82.0	32.0	1.003	0,0,0,1,2,3,0,0,0	to_hand	s619
471.43	0.098	0	PA_with_intermediate	2,3,0,1,0,0,0,0,0	test	ward_and_allport	2,3,0,1,0,0,0,0,0	89.0	32.0	0.098	0,0,0,1,2,3,0,0,0	to_board	s619
471.537	1.0	0	PA_with_intermediate	n/a	test	ward_and_allport	n/a	-1.0	32.0	n/a	n/a	feedback	s619
472.537	1.0	0	PA_with_intermediate	n/a	test	ward_and_allport	n/a	-1.0	32.0	n/a	n/a	ITI	s619
473.547	5.859	1	PA_with_intermediate	0,0,0,1,2,0,0,0,0	test	ward_and_allport	2,0,0,1,3,0,0,0,0	71.0	33.0	5.859	0,0,0,1,2,3,0,0,0	to_hand	s619
479.407	0.3	0	PA_with_intermediate	0,0,0,1,2,0,3,0,0	test	ward_and_allport	2,0,0,1,3,0,0,0,0	82.0	33.0	0.3	0,0,0,1,2,3,0,0,0	to_board	s619
479.716	0.981	0	PA_with_intermediate	0,0,0,1,0,0,3,0,0	test	ward_and_allport	2,0,0,1,3,0,0,0,0	71.0	33.0	0.981	0,0,0,1,2,3,0,0,0	to_hand	s619
480.698	0.073	0	PA_with_intermediate	2,0,0,1,0,0,3,0,0	test	ward_and_allport	2,0,0,1,3,0,0,0,0	89.0	33.0	0.073	0,0,0,1,2,3,0,0,0	to_board	s619
480.778	0.682	0	PA_with_intermediate	2,0,0,1,0,0,0,0,0	test	ward_and_allport	2,0,0,1,3,0,0,0,0	82.0	33.0	0.682	0,0,0,1,2,3,0,0,0	to_hand	s619
481.462	0.088	0	PA_with_intermediate	2,3,0,1,0,0,0,0,0	test	ward_and_allport	2,0,0,1,3,0,0,0,0	89.0	33.0	0.088	0,0,0,1,2,3,0,0,0	to_board	s619
481.558	1.927	0	PA_with_intermediate	2,3,0,0,0,0,0,0,0	test	ward_and_allport	2,0,0,1,3,0,0,0,0	71.0	33.0	1.927	0,0,0,1,2,3,0,0,0	to_hand	s619
483.486	0.091	0	PA_with_intermediate	2,3,0,0,0,0,1,0,0	test	ward_and_allport	2,0,0,1,3,0,0,0,0	82.0	33.0	0.091	0,0,0,1,2,3,0,0,0	to_board	s619
483.585	1.693	0	PA_with_intermediate	2,3,0,0,0,0,0,0,0	test	ward_and_allport	2,0,0,1,3,0,0,0,0	82.0	33.0	1.693	0,0,0,1,2,3,0,0,0	to_hand	s619
485.279	0.079	0	PA_with_intermediate	2,3,0,1,0,0,0,0,0	test	ward_and_allport	2,0,0,1,3,0,0,0,0	71.0	33.0	0.079	0,0,0,1,2,3,0,0,0	to_board	s619
485.365	0.55	0	PA_with_intermediate	2,0,0,1,0,0,0,0,0	test	ward_and_allport	2,0,0,1,3,0,0,0,0	89.0	33.0	0.55	0,0,0,1,2,3,0,0,0	to_hand	s619
485.915	0.119	0	PA_with_intermediate	2,0,0,1,3,0,0,0,0	test	ward_and_allport	2,0,0,1,3,0,0,0,0	71.0	33.0	0.119	0,0,0,1,2,3,0,0,0	to_board	s619
486.044	1.0	0	PA_with_intermediate	n/a	test	ward_and_allport	n/a	-1.0	33.0	n/a	n/a	feedback	s619
487.044	1.0	0	PA_with_intermediate	n/a	test	ward_and_allport	n/a	-1.0	33.0	n/a	n/a	ITI	s619
488.051	3.914	1	PA_with_intermediate	0,0,0,0,0,0,1,2,0	test	ward_and_allport	0,0,0,2,0,0,1,3,0	82.0	34.0	3.914	0,0,0,0,0,0,1,2,3	to_hand	s619
491.966	0.073	0	PA_with_intermediate	3,0,0,0,0,0,1,2,0	test	ward_and_allport	0,0,0,2,0,0,1,3,0	89.0	34.0	0.073	0,0,0,0,0,0,1,2,3	to_board	s619
492.045	2.208	0	PA_with_intermediate	3,0,0,0,0,0,1,0,0	test	ward_and_allport	0,0,0,2,0,0,1,3,0	82.0	34.0	2.208	0,0,0,0,0,0,1,2,3	to_hand	s619
494.254	0.117	0	PA_with_intermediate	3,0,0,2,0,0,1,0,0	test	ward_and_allport	0,0,0,2,0,0,1,3,0	71.0	34.0	0.117	0,0,0,0,0,0,1,2,3	to_board	s619
494.38	1.328	0	PA_with_intermediate	0,0,0,2,0,0,1,0,0	test	ward_and_allport	0,0,0,2,0,0,1,3,0	89.0	34.0	1.328	0,0,0,0,0,0,1,2,3	to_hand	s619
495.709	0.147	0	PA_with_intermediate	0,0,0,2,0,0,1,3,0	test	ward_and_allport	0,0,0,2,0,0,1,3,0	82.0	34.0	0.147	0,0,0,0,0,0,1,2,3	to_board	s619
495.864	1.0	0	PA_with_intermediate	n/a	test	ward_and_allport	n/a	-1.0	34.0	n/a	n/a	feedback	s619
496.864	1.408	0	PA_with_intermediate	n/a	test	ward_and_allport	n/a	-1.0	34.0	n/a	n/a	ITI	s619
498.282	9.081	1	PA_without_intermediate	0,0,0,0,0,0,1,2,0	test	ward_and_allport	3,2,0,1,0,0,0,0,0	82.0	35.0	9.081	0,0,0,0,0,0,1,2,3	to_hand	s619
507.364	0.373	0	PA_without_intermediate	3,0,0,0,0,0,1,2,0	test	ward_and_allport	3,2,0,1,0,0,0,0,0	89.0	35.0	0.373	0,0,0,0,0,0,1,2,3	to_board	s619
507.746	1.114	0	PA_without_intermediate	3,0,0,0,0,0,1,0,0	test	ward_and_allport	3,2,0,1,0,0,0,0,0	82.0	35.0	1.114	0,0,0,0,0,0,1,2,3	to_hand	s619
508.862	0.172	0	PA_without_intermediate	3,2,0,0,0,0,1,0,0	test	ward_and_allport	3,2,0,1,0,0,0,0,0	89.0	35.0	0.172	0,0,0,0,0,0,1,2,3	to_board	s619
509.042	1.582	0	PA_without_intermediate	3,2,0,0,0,0,0,0,0	test	ward_and_allport	3,2,0,1,0,0,0,0,0	82.0	35.0	1.582	0,0,0,0,0,0,1,2,3	to_hand	s619
510.626	0.236	0	PA_without_intermediate	3,2,0,1,0,0,0,0,0	test	ward_and_allport	3,2,0,1,0,0,0,0,0	71.0	35.0	0.236	0,0,0,0,0,0,1,2,3	to_board	s619
510.871	1.0	0	PA_without_intermediate	n/a	test	ward_and_allport	n/a	-1.0	35.0	n/a	n/a	feedback	s619
511.871	1.816	0	PA_without_intermediate	n/a	test	ward_and_allport	n/a	-1.0	35.0	n/a	n/a	ITI	s619
513.696	3.43	1	PA_with_intermediate	1,2,0,0,0,0,0,0,0	test	ward_and_allport	1,3,0,0,0,0,2,0,0	89.0	36.0	3.43	1,2,3,0,0,0,0,0,0	to_hand	s619
517.126	0.409	0	PA_with_intermediate	1,2,0,3,0,0,0,0,0	test	ward_and_allport	1,3,0,0,0,0,2,0,0	71.0	36.0	0.409	1,2,3,0,0,0,0,0,0	to_board	s619
517.545	1.014	0	PA_with_intermediate	1,0,0,3,0,0,0,0,0	test	ward_and_allport	1,3,0,0,0,0,2,0,0	89.0	36.0	1.014	1,2,3,0,0,0,0,0,0	to_hand	s619
518.56	0.173	0	PA_with_intermediate	1,0,0,3,0,0,2,0,0	test	ward_and_allport	1,3,0,0,0,0,2,0,0	82.0	36.0	0.173	1,2,3,0,0,0,0,0,0	to_board	s619
518.741	1.054	0	PA_with_intermediate	1,0,0,0,0,0,2,0,0	test	ward_and_allport	1,3,0,0,0,0,2,0,0	71.0	36.0	1.054	1,2,3,0,0,0,0,0,0	to_hand	s619
519.796	0.097	0	PA_with_intermediate	1,3,0,0,0,0,2,0,0	test	ward_and_allport	1,3,0,0,0,0,2,0,0	89.0	36.0	0.097	1,2,3,0,0,0,0,0,0	to_board	s619
519.901	1.0	0	PA_with_intermediate	n/a	test	ward_and_allport	n/a	-1.0	36.0	n/a	n/a	feedback	s619
520.901	3.176	0	PA_with_intermediate	n/a	test	ward_and_allport	n/a	-1.0	36.0	n/a	n/a	ITI	s619
524.083	1.562	1	PA_with_intermediate	0,0,0,0,0,0,1,2,0	test	ward_and_allport	2,3,0,0,0,0,1,0,0	82.0	37.0	1.562	0,0,0,0,0,0,1,2,3	to_hand	s619
525.646	0.359	0	PA_with_intermediate	0,0,0,3,0,0,1,2,0	test	ward_and_allport	2,3,0,0,0,0,1,0,0	71.0	37.0	0.359	0,0,0,0,0,0,1,2,3	to_board	s619
526.013	3.241	0	PA_with_intermediate	0,0,0,3,0,0,1,0,0	test	ward_and_allport	2,3,0,0,0,0,1,0,0	82.0	37.0	3.241	0,0,0,0,0,0,1,2,3	to_hand	s619
529.255	0.2	0	PA_with_intermediate	2,0,0,3,0,0,1,0,0	test	ward_and_allport	2,3,0,0,0,0,1,0,0	89.0	37.0	0.2	0,0,0,0,0,0,1,2,3	to_board	s619
529.463	0.996	0	PA_with_intermediate	2,0,0,0,0,0,1,0,0	test	ward_and_allport	2,3,0,0,0,0,1,0,0	71.0	37.0	0.996	0,0,0,0,0,0,1,2,3	to_hand	s619
530.461	0.145	0	PA_with_intermediate	2,3,0,0,0,0,1,0,0	test	ward_and_allport	2,3,0,0,0,0,1,0,0	89.0	37.0	0.145	0,0,0,0,0,0,1,2,3	to_board	s619
530.616	1.0	0	PA_with_intermediate	n/a	test	ward_and_allport	n/a	-1.0	37.0	n/a	n/a	feedback	s619
531.616	2.36	0	PA_with_intermediate	n/a	test	ward_and_allport	n/a	-1.0	37.0	n/a	n/a	ITI	s619
533.986	2.962	1	PA_with_intermediate	1,2,0,0,0,0,0,0,0	test	ward_and_allport	1,0,0,2,3,0,0,0,0	89.0	38.0	2.962	1,2,3,0,0,0,0,0,0	to_hand	s619
536.949	0.368	0	PA_with_intermediate	1,2,0,0,0,0,3,0,0	test	ward_and_allport	1,0,0,2,3,0,0,0,0	82.0	38.0	0.368	1,2,3,0,0,0,0,0,0	to_board	s619
537.326	0.828	0	PA_with_intermediate	1,0,0,0,0,0,3,0,0	test	ward_and_allport	1,0,0,2,3,0,0,0,0	89.0	38.0	0.828	1,2,3,0,0,0,0,0,0	to_hand	s619
538.155	0.121	0	PA_with_intermediate	1,0,0,2,0,0,3,0,0	test	ward_and_allport	1,0,0,2,3,0,0,0,0	71.0	38.0	0.121	1,2,3,0,0,0,0,0,0	to_board	s619
538.289	1.171	0	PA_with_intermediate	1,0,0,2,0,0,0,0,0	test	ward_and_allport	1,0,0,2,3,0,0,0,0	82.0	38.0	1.171	1,2,3,0,0,0,0,0,0	to_hand	s619
539.462	0.122	0	PA_with_intermediate	1,0,0,2,3,0,0,0,0	test	ward_and_allport	1,0,0,2,3,0,0,0,0	71.0	38.0	0.122	1,2,3,0,0,0,0,0,0	to_board	s619
539.596	1.0	0	PA_with_intermediate	n/a	test	ward_and_allport	n/a	-1.0	38.0	n/a	n/a	feedback	s619
540.596	1.0	0	PA_with_intermediate	n/a	test	ward_and_allport	n/a	-1.0	38.0	n/a	n/a	ITI	s619
541.603	6.777	1	PA_without_intermediate	0,0,0,0,0,0,1,2,0	test	ward_and_allport	1,0,0,3,2,0,0,0,0	82.0	39.0	6.777	0,0,0,0,0,0,1,2,3	to_hand	s619
548.381	0.141	0	PA_without_intermediate	3,0,0,0,0,0,1,2,0	test	ward_and_allport	1,0,0,3,2,0,0,0,0	89.0	39.0	0.141	0,0,0,0,0,0,1,2,3	to_board	s619
548.529	2.822	0	PA_without_intermediate	3,0,0,0,0,0,1,0,0	test	ward_and_allport	1,0,0,3,2,0,0,0,0	82.0	39.0	2.822	0,0,0,0,0,0,1,2,3	to_hand	s619
551.351	5.091	0	PA_without_intermediate	3,0,0,0,0,0,1,2,0	test	ward_and_allport	1,0,0,3,2,0,0,0,0	82.0	39.0	5.091	0,0,0,0,0,0,1,2,3	to_board	s619
556.452	0.632	0	PA_without_intermediate	0,0,0,0,0,0,1,2,0	test	ward_and_allport	1,0,0,3,2,0,0,0,0	89.0	39.0	0.632	0,0,0,0,0,0,1,2,3	to_hand	s619
557.085	0.432	0	PA_without_intermediate	0,0,0,3,0,0,1,2,0	test	ward_and_allport	1,0,0,3,2,0,0,0,0	71.0	39.0	0.432	0,0,0,0,0,0,1,2,3	to_board	s619
557.526	1.894	0	PA_without_intermediate	0,0,0,3,0,0,1,0,0	test	ward_and_allport	1,0,0,3,2,0,0,0,0	82.0	39.0	1.894	0,0,0,0,0,0,1,2,3	to_hand	s619
559.421	0.14	0	PA_without_intermediate	0,0,0,3,2,0,1,0,0	test	ward_and_allport	1,0,0,3,2,0,0,0,0	71.0	39.0	0.14	0,0,0,0,0,0,1,2,3	to_board	s619
559.571	1.269	0	PA_without_intermediate	0,0,0,3,2,0,0,0,0	test	ward_and_allport	1,0,0,3,2,0,0,0,0	82.0	39.0	1.269	0,0,0,0,0,0,1,2,3	to_hand	s619
560.84	0.168	0	PA_without_intermediate	1,0,0,3,2,0,0,0,0	test	ward_and_allport	1,0,0,3,2,0,0,0,0	89.0	39.0	0.168	0,0,0,0,0,0,1,2,3	to_board	s619
561.02	1.0	0	PA_without_intermediate	n/a	test	ward_and_allport	n/a	-1.0	39.0	n/a	n/a	feedback	s619
562.02	1.408	0	PA_without_intermediate	n/a	test	ward_and_allport	n/a	-1.0	39.0	n/a	n/a	ITI	s619
563.438	4.838	1	PA_with_intermediate	0,0,0,1,2,0,0,0,0	test	ward_and_allport	2,3,0,1,0,0,0,0,0	71.0	40.0	4.838	0,0,0,1,2,3,0,0,0	to_hand	s619
568.277	0.15	0	PA_with_intermediate	0,0,0,1,2,0,3,0,0	test	ward_and_allport	2,3,0,1,0,0,0,0,0	82.0	40.0	0.15	0,0,0,1,2,3,0,0,0	to_board	s619
568.433	1.432	0	PA_with_intermediate	0,0,0,1,0,0,3,0,0	test	ward_and_allport	2,3,0,1,0,0,0,0,0	71.0	40.0	1.432	0,0,0,1,2,3,0,0,0	to_hand	s619
569.867	0.159	0	PA_with_intermediate	2,0,0,1,0,0,3,0,0	test	ward_and_allport	2,3,0,1,0,0,0,0,0	89.0	40.0	0.159	0,0,0,1,2,3,0,0,0	to_board	s619
570.033	1.06	0	PA_with_intermediate	2,0,0,1,0,0,0,0,0	test	ward_and_allport	2,3,0,1,0,0,0,0,0	82.0	40.0	1.06	0,0,0,1,2,3,0,0,0	to_hand	s619
571.093	0.12	0	PA_with_intermediate	2,0,0,1,3,0,0,0,0	test	ward_and_allport	2,3,0,1,0,0,0,0,0	71.0	40.0	0.12	0,0,0,1,2,3,0,0,0	to_board	s619
571.223	1.959	0	PA_with_intermediate	2,0,0,1,0,0,0,0,0	test	ward_and_allport	2,3,0,1,0,0,0,0,0	71.0	40.0	1.959	0,0,0,1,2,3,0,0,0	to_hand	s619
573.183	0.242	0	PA_with_intermediate	2,3,0,1,0,0,0,0,0	test	ward_and_allport	2,3,0,1,0,0,0,0,0	89.0	40.0	0.242	0,0,0,1,2,3,0,0,0	to_board	s619
573.436	1.0	0	PA_with_intermediate	n/a	test	ward_and_allport	n/a	-1.0	40.0	n/a	n/a	feedback	s619
574.436	1.816	0	PA_with_intermediate	n/a	test	ward_and_allport	n/a	-1.0	40.0	n/a	n/a	ITI	s619
n/a	n/a	0	n/a	n/a	n/a	n/a	n/a	n/a	n/a	n/a	n/a	ITI	n/a
