onset	duration	planning	condition	current_position	exp_stage	experiment_exp_id	goal_state	key_press	problem_id	response_time	start_state	trial_id	worker_id
-64.686	0.0	0	n/a	n/a	n/a	ward_and_allport	n/a	32.0	n/a	23.885	n/a	instructions	s597
3.01	4.163	1	UA_with_intermediate	1,0,0,2,0,0,0,0,0	practice	ward_and_allport	1,2,3,0,0,0,0,0,0	71.0	0.0	4.163	1,0,0,2,3,0,0,0,0	to_hand	s597
7.175	0.724	0	UA_with_intermediate	1,0,0,2,0,0,3,0,0	practice	ward_and_allport	1,2,3,0,0,0,0,0,0	82.0	0.0	0.724	1,0,0,2,3,0,0,0,0	to_board	s597
7.901	1.094	0	UA_with_intermediate	1,0,0,0,0,0,3,0,0	practice	ward_and_allport	1,2,3,0,0,0,0,0,0	71.0	0.0	1.094	1,0,0,2,3,0,0,0,0	to_hand	s597
8.996	0.546	0	UA_with_intermediate	1,2,0,0,0,0,3,0,0	practice	ward_and_allport	1,2,3,0,0,0,0,0,0	89.0	0.0	0.546	1,0,0,2,3,0,0,0,0	to_board	s597
9.543	1.257	0	UA_with_intermediate	1,2,0,0,0,0,0,0,0	practice	ward_and_allport	1,2,3,0,0,0,0,0,0	82.0	0.0	1.257	1,0,0,2,3,0,0,0,0	to_hand	s597
10.801	0.617	0	UA_with_intermediate	1,2,3,0,0,0,0,0,0	practice	ward_and_allport	1,2,3,0,0,0,0,0,0	89.0	0.0	0.617	1,0,0,2,3,0,0,0,0	to_board	s597
11.422	1.0	0	UA_with_intermediate	n/a	practice	ward_and_allport	n/a	-1.0	0.0	n/a	n/a	feedback	s597
13.924	4.368	1	UA_with_intermediate	1,0,0,3,0,0,0,0,0	practice	ward_and_allport	1,3,2,0,0,0,0,0,0	89.0	1.0	4.368	1,2,0,3,0,0,0,0,0	to_hand	s597
18.292	0.667	0	UA_with_intermediate	1,0,0,3,0,0,2,0,0	practice	ward_and_allport	1,3,2,0,0,0,0,0,0	82.0	1.0	0.667	1,2,0,3,0,0,0,0,0	to_board	s597
18.961	0.905	0	UA_with_intermediate	1,0,0,0,0,0,2,0,0	practice	ward_and_allport	1,3,2,0,0,0,0,0,0	71.0	1.0	0.905	1,2,0,3,0,0,0,0,0	to_hand	s597
19.867	0.51	0	UA_with_intermediate	1,3,0,0,0,0,2,0,0	practice	ward_and_allport	1,3,2,0,0,0,0,0,0	89.0	1.0	0.51	1,2,0,3,0,0,0,0,0	to_board	s597
20.378	0.688	0	UA_with_intermediate	1,3,0,0,0,0,0,0,0	practice	ward_and_allport	1,3,2,0,0,0,0,0,0	82.0	1.0	0.688	1,2,0,3,0,0,0,0,0	to_hand	s597
21.067	0.394	0	UA_with_intermediate	1,3,2,0,0,0,0,0,0	practice	ward_and_allport	1,3,2,0,0,0,0,0,0	89.0	1.0	0.394	1,2,0,3,0,0,0,0,0	to_board	s597
21.463	1.0	0	UA_with_intermediate	n/a	practice	ward_and_allport	n/a	-1.0	1.0	n/a	n/a	feedback	s597
22.463	1.1	0	UA_with_intermediate	n/a	practice	ward_and_allport	n/a	-1.0	1.0	n/a	n/a	ITI	s597
23.565	3.075	1	UA_without_intermediate	0,0,0,1,2,0,0,0,0	practice	ward_and_allport	3,2,1,0,0,0,0,0,0	82.0	2.0	3.075	0,0,0,1,2,0,3,0,0	to_hand	s597
26.641	0.701	0	UA_without_intermediate	3,0,0,1,2,0,0,0,0	practice	ward_and_allport	3,2,1,0,0,0,0,0,0	89.0	2.0	0.701	0,0,0,1,2,0,3,0,0	to_board	s597
27.344	0.694	0	UA_without_intermediate	3,0,0,1,0,0,0,0,0	practice	ward_and_allport	3,2,1,0,0,0,0,0,0	71.0	2.0	0.694	0,0,0,1,2,0,3,0,0	to_hand	s597
28.039	0.423	0	UA_without_intermediate	3,2,0,1,0,0,0,0,0	practice	ward_and_allport	3,2,1,0,0,0,0,0,0	89.0	2.0	0.423	0,0,0,1,2,0,3,0,0	to_board	s597
28.465	1.119	0	UA_without_intermediate	3,2,0,0,0,0,0,0,0	practice	ward_and_allport	3,2,1,0,0,0,0,0,0	71.0	2.0	1.119	0,0,0,1,2,0,3,0,0	to_hand	s597
29.585	0.441	0	UA_without_intermediate	3,2,1,0,0,0,0,0,0	practice	ward_and_allport	3,2,1,0,0,0,0,0,0	89.0	2.0	0.441	0,0,0,1,2,0,3,0,0	to_board	s597
30.03	1.0	0	UA_without_intermediate	n/a	practice	ward_and_allport	n/a	-1.0	2.0	n/a	n/a	feedback	s597
31.03	1.2	0	UA_without_intermediate	n/a	practice	ward_and_allport	n/a	-1.0	2.0	n/a	n/a	ITI	s597
32.231	3.151	1	UA_without_intermediate	0,0,0,1,0,0,3,0,0	practice	ward_and_allport	2,3,1,0,0,0,0,0,0	71.0	3.0	3.151	0,0,0,1,2,0,3,0,0	to_hand	s597
35.383	0.499	0	UA_without_intermediate	2,0,0,1,0,0,3,0,0	practice	ward_and_allport	2,3,1,0,0,0,0,0,0	89.0	3.0	0.499	0,0,0,1,2,0,3,0,0	to_board	s597
35.884	0.907	0	UA_without_intermediate	2,0,0,1,0,0,0,0,0	practice	ward_and_allport	2,3,1,0,0,0,0,0,0	82.0	3.0	0.907	0,0,0,1,2,0,3,0,0	to_hand	s597
36.792	0.43	0	UA_without_intermediate	2,3,0,1,0,0,0,0,0	practice	ward_and_allport	2,3,1,0,0,0,0,0,0	89.0	3.0	0.43	0,0,0,1,2,0,3,0,0	to_board	s597
37.224	0.559	0	UA_without_intermediate	2,3,0,0,0,0,0,0,0	practice	ward_and_allport	2,3,1,0,0,0,0,0,0	71.0	3.0	0.559	0,0,0,1,2,0,3,0,0	to_hand	s597
37.784	0.399	0	UA_without_intermediate	2,3,1,0,0,0,0,0,0	practice	ward_and_allport	2,3,1,0,0,0,0,0,0	89.0	3.0	0.399	0,0,0,1,2,0,3,0,0	to_board	s597
38.185	1.0	0	UA_without_intermediate	n/a	practice	ward_and_allport	n/a	-1.0	3.0	n/a	n/a	feedback	s597
39.185	1.0	0	UA_without_intermediate	n/a	practice	ward_and_allport	n/a	-1.0	3.0	n/a	n/a	ITI	s597
42.193	3.652	1	PA_with_intermediate	0,0,0,1,2,0,0,0,0	test	ward_and_allport	0,0,0,1,0,0,2,3,0	71.0	0.0	3.652	0,0,0,1,2,3,0,0,0	to_hand	s597
45.846	0.406	0	PA_with_intermediate	3,0,0,1,2,0,0,0,0	test	ward_and_allport	0,0,0,1,0,0,2,3,0	89.0	0.0	0.406	0,0,0,1,2,3,0,0,0	to_board	s597
46.254	0.762	0	PA_with_intermediate	3,0,0,1,0,0,0,0,0	test	ward_and_allport	0,0,0,1,0,0,2,3,0	71.0	0.0	0.762	0,0,0,1,2,3,0,0,0	to_hand	s597
47.017	0.422	0	PA_with_intermediate	3,0,0,1,0,0,2,0,0	test	ward_and_allport	0,0,0,1,0,0,2,3,0	82.0	0.0	0.422	0,0,0,1,2,3,0,0,0	to_board	s597
47.442	0.802	0	PA_with_intermediate	0,0,0,1,0,0,2,0,0	test	ward_and_allport	0,0,0,1,0,0,2,3,0	89.0	0.0	0.802	0,0,0,1,2,3,0,0,0	to_hand	s597
48.245	0.372	0	PA_with_intermediate	0,0,0,1,0,0,2,3,0	test	ward_and_allport	0,0,0,1,0,0,2,3,0	82.0	0.0	0.372	0,0,0,1,2,3,0,0,0	to_board	s597
48.623	1.0	0	PA_with_intermediate	n/a	test	ward_and_allport	n/a	-1.0	0.0	n/a	n/a	feedback	s597
49.623	3.176	0	PA_with_intermediate	n/a	test	ward_and_allport	n/a	-1.0	0.0	n/a	n/a	ITI	s597
52.801	4.716	1	PA_with_intermediate	0,0,0,0,0,0,1,2,0	test	ward_and_allport	2,3,0,0,0,0,1,0,0	82.0	1.0	4.716	0,0,0,0,0,0,1,2,3	to_hand	s597
57.517	1.059	0	PA_with_intermediate	0,0,0,3,0,0,1,2,0	test	ward_and_allport	2,3,0,0,0,0,1,0,0	71.0	1.0	1.059	0,0,0,0,0,0,1,2,3	to_board	s597
58.579	0.877	0	PA_with_intermediate	0,0,0,3,0,0,1,0,0	test	ward_and_allport	2,3,0,0,0,0,1,0,0	82.0	1.0	0.877	0,0,0,0,0,0,1,2,3	to_hand	s597
59.457	0.454	0	PA_with_intermediate	2,0,0,3,0,0,1,0,0	test	ward_and_allport	2,3,0,0,0,0,1,0,0	89.0	1.0	0.454	0,0,0,0,0,0,1,2,3	to_board	s597
59.913	0.641	0	PA_with_intermediate	2,0,0,0,0,0,1,0,0	test	ward_and_allport	2,3,0,0,0,0,1,0,0	71.0	1.0	0.641	0,0,0,0,0,0,1,2,3	to_hand	s597
60.555	0.473	0	PA_with_intermediate	2,3,0,0,0,0,1,0,0	test	ward_and_allport	2,3,0,0,0,0,1,0,0	89.0	1.0	0.473	0,0,0,0,0,0,1,2,3	to_board	s597
61.035	1.0	0	PA_with_intermediate	n/a	test	ward_and_allport	n/a	-1.0	1.0	n/a	n/a	feedback	s597
62.035	2.36	0	PA_with_intermediate	n/a	test	ward_and_allport	n/a	-1.0	1.0	n/a	n/a	ITI	s597
64.398	5.252	1	PA_with_intermediate	0,0,0,0,0,0,1,2,0	test	ward_and_allport	2,0,0,0,0,0,1,3,0	82.0	2.0	5.252	0,0,0,0,0,0,1,2,3	to_hand	s597
69.651	0.883	0	PA_with_intermediate	0,0,0,3,0,0,1,2,0	test	ward_and_allport	2,0,0,0,0,0,1,3,0	71.0	2.0	0.883	0,0,0,0,0,0,1,2,3	to_board	s597
70.536	0.797	0	PA_with_intermediate	0,0,0,3,0,0,1,0,0	test	ward_and_allport	2,0,0,0,0,0,1,3,0	82.0	2.0	0.797	0,0,0,0,0,0,1,2,3	to_hand	s597
71.335	0.467	0	PA_with_intermediate	2,0,0,3,0,0,1,0,0	test	ward_and_allport	2,0,0,0,0,0,1,3,0	89.0	2.0	0.467	0,0,0,0,0,0,1,2,3	to_board	s597
71.804	1.119	0	PA_with_intermediate	2,0,0,0,0,0,1,0,0	test	ward_and_allport	2,0,0,0,0,0,1,3,0	71.0	2.0	1.119	0,0,0,0,0,0,1,2,3	to_hand	s597
72.924	0.457	0	PA_with_intermediate	2,0,0,0,0,0,1,3,0	test	ward_and_allport	2,0,0,0,0,0,1,3,0	82.0	2.0	0.457	0,0,0,0,0,0,1,2,3	to_board	s597
73.387	1.0	0	PA_with_intermediate	n/a	test	ward_and_allport	n/a	-1.0	2.0	n/a	n/a	feedback	s597
74.387	1.0	0	PA_with_intermediate	n/a	test	ward_and_allport	n/a	-1.0	2.0	n/a	n/a	ITI	s597
75.389	4.286	1	PA_without_intermediate	1,2,0,0,0,0,0,0,0	test	ward_and_allport	0,0,0,3,2,0,1,0,0	89.0	3.0	4.286	1,2,3,0,0,0,0,0,0	to_hand	s597
79.676	0.785	0	PA_without_intermediate	1,2,0,3,0,0,0,0,0	test	ward_and_allport	0,0,0,3,2,0,1,0,0	71.0	3.0	0.785	1,2,3,0,0,0,0,0,0	to_board	s597
80.463	1.065	0	PA_without_intermediate	1,0,0,3,0,0,0,0,0	test	ward_and_allport	0,0,0,3,2,0,1,0,0	89.0	3.0	1.065	1,2,3,0,0,0,0,0,0	to_hand	s597
81.529	0.791	0	PA_without_intermediate	1,0,0,3,2,0,0,0,0	test	ward_and_allport	0,0,0,3,2,0,1,0,0	71.0	3.0	0.791	1,2,3,0,0,0,0,0,0	to_board	s597
82.323	0.805	0	PA_without_intermediate	0,0,0,3,2,0,0,0,0	test	ward_and_allport	0,0,0,3,2,0,1,0,0	89.0	3.0	0.805	1,2,3,0,0,0,0,0,0	to_hand	s597
83.129	0.498	0	PA_without_intermediate	0,0,0,3,2,0,1,0,0	test	ward_and_allport	0,0,0,3,2,0,1,0,0	82.0	3.0	0.498	1,2,3,0,0,0,0,0,0	to_board	s597
83.63	1.0	0	PA_without_intermediate	n/a	test	ward_and_allport	n/a	-1.0	3.0	n/a	n/a	feedback	s597
84.63	1.408	0	PA_without_intermediate	n/a	test	ward_and_allport	n/a	-1.0	3.0	n/a	n/a	ITI	s597
86.04	3.151	1	PA_with_intermediate	0,0,0,1,2,0,0,0,0	test	ward_and_allport	0,0,0,1,3,0,2,0,0	71.0	4.0	3.151	0,0,0,1,2,3,0,0,0	to_hand	s597
89.193	0.425	0	PA_with_intermediate	3,0,0,1,2,0,0,0,0	test	ward_and_allport	0,0,0,1,3,0,2,0,0	89.0	4.0	0.425	0,0,0,1,2,3,0,0,0	to_board	s597
89.62	0.546	0	PA_with_intermediate	3,0,0,1,0,0,0,0,0	test	ward_and_allport	0,0,0,1,3,0,2,0,0	71.0	4.0	0.546	0,0,0,1,2,3,0,0,0	to_hand	s597
90.167	0.448	0	PA_with_intermediate	3,0,0,1,0,0,2,0,0	test	ward_and_allport	0,0,0,1,3,0,2,0,0	82.0	4.0	0.448	0,0,0,1,2,3,0,0,0	to_board	s597
90.617	1.485	0	PA_with_intermediate	0,0,0,1,0,0,2,0,0	test	ward_and_allport	0,0,0,1,3,0,2,0,0	89.0	4.0	1.485	0,0,0,1,2,3,0,0,0	to_hand	s597
92.103	0.688	0	PA_with_intermediate	0,0,0,1,3,0,2,0,0	test	ward_and_allport	0,0,0,1,3,0,2,0,0	71.0	4.0	0.688	0,0,0,1,2,3,0,0,0	to_board	s597
92.795	1.0	0	PA_with_intermediate	n/a	test	ward_and_allport	n/a	-1.0	4.0	n/a	n/a	feedback	s597
93.795	1.816	0	PA_with_intermediate	n/a	test	ward_and_allport	n/a	-1.0	4.0	n/a	n/a	ITI	s597
95.613	5.604	1	PA_without_intermediate	1,2,0,0,0,0,0,0,0	test	ward_and_allport	0,0,0,1,0,0,3,2,0	89.0	5.0	5.604	1,2,3,0,0,0,0,0,0	to_hand	s597
101.218	0.564	0	PA_without_intermediate	1,2,0,0,0,0,3,0,0	test	ward_and_allport	0,0,0,1,0,0,3,2,0	82.0	5.0	0.564	1,2,3,0,0,0,0,0,0	to_board	s597
101.785	0.619	0	PA_without_intermediate	1,0,0,0,0,0,3,0,0	test	ward_and_allport	0,0,0,1,0,0,3,2,0	89.0	5.0	0.619	1,2,3,0,0,0,0,0,0	to_hand	s597
102.405	0.568	0	PA_without_intermediate	1,0,0,0,0,0,3,2,0	test	ward_and_allport	0,0,0,1,0,0,3,2,0	82.0	5.0	0.568	1,2,3,0,0,0,0,0,0	to_board	s597
102.975	1.272	0	PA_without_intermediate	0,0,0,0,0,0,3,2,0	test	ward_and_allport	0,0,0,1,0,0,3,2,0	89.0	5.0	1.272	1,2,3,0,0,0,0,0,0	to_hand	s597
104.249	0.543	0	PA_without_intermediate	0,0,0,1,0,0,3,2,0	test	ward_and_allport	0,0,0,1,0,0,3,2,0	71.0	5.0	0.543	1,2,3,0,0,0,0,0,0	to_board	s597
104.795	1.0	0	PA_without_intermediate	n/a	test	ward_and_allport	n/a	-1.0	5.0	n/a	n/a	feedback	s597
105.795	2.088	0	PA_without_intermediate	n/a	test	ward_and_allport	n/a	-1.0	5.0	n/a	n/a	ITI	s597
107.885	5.308	1	PA_without_intermediate	0,0,0,0,0,0,1,2,0	test	ward_and_allport	1,0,0,3,2,0,0,0,0	82.0	6.0	5.308	0,0,0,0,0,0,1,2,3	to_hand	s597
113.194	0.694	0	PA_without_intermediate	0,0,0,3,0,0,1,2,0	test	ward_and_allport	1,0,0,3,2,0,0,0,0	71.0	6.0	0.694	0,0,0,0,0,0,1,2,3	to_board	s597
113.891	0.975	0	PA_without_intermediate	0,0,0,3,0,0,1,0,0	test	ward_and_allport	1,0,0,3,2,0,0,0,0	82.0	6.0	0.975	0,0,0,0,0,0,1,2,3	to_hand	s597
114.867	0.758	0	PA_without_intermediate	0,0,0,3,2,0,1,0,0	test	ward_and_allport	1,0,0,3,2,0,0,0,0	71.0	6.0	0.758	0,0,0,0,0,0,1,2,3	to_board	s597
115.628	0.967	0	PA_without_intermediate	0,0,0,3,2,0,0,0,0	test	ward_and_allport	1,0,0,3,2,0,0,0,0	82.0	6.0	0.967	0,0,0,0,0,0,1,2,3	to_hand	s597
116.596	0.425	0	PA_without_intermediate	1,0,0,3,2,0,0,0,0	test	ward_and_allport	1,0,0,3,2,0,0,0,0	89.0	6.0	0.425	0,0,0,0,0,0,1,2,3	to_board	s597
117.027	1.0	0	PA_without_intermediate	n/a	test	ward_and_allport	n/a	-1.0	6.0	n/a	n/a	feedback	s597
118.027	1.136	0	PA_without_intermediate	n/a	test	ward_and_allport	n/a	-1.0	6.0	n/a	n/a	ITI	s597
119.166	3.751	1	PA_without_intermediate	0,0,0,0,0,0,1,2,0	test	ward_and_allport	3,2,0,1,0,0,0,0,0	82.0	7.0	3.751	0,0,0,0,0,0,1,2,3	to_hand	s597
122.918	0.523	0	PA_without_intermediate	3,0,0,0,0,0,1,2,0	test	ward_and_allport	3,2,0,1,0,0,0,0,0	89.0	7.0	0.523	0,0,0,0,0,0,1,2,3	to_board	s597
123.444	0.643	0	PA_without_intermediate	3,0,0,0,0,0,1,0,0	test	ward_and_allport	3,2,0,1,0,0,0,0,0	82.0	7.0	0.643	0,0,0,0,0,0,1,2,3	to_hand	s597
124.088	0.463	0	PA_without_intermediate	3,2,0,0,0,0,1,0,0	test	ward_and_allport	3,2,0,1,0,0,0,0,0	89.0	7.0	0.463	0,0,0,0,0,0,1,2,3	to_board	s597
124.554	0.873	0	PA_without_intermediate	3,2,0,0,0,0,0,0,0	test	ward_and_allport	3,2,0,1,0,0,0,0,0	82.0	7.0	0.873	0,0,0,0,0,0,1,2,3	to_hand	s597
125.428	0.401	0	PA_without_intermediate	3,2,0,1,0,0,0,0,0	test	ward_and_allport	3,2,0,1,0,0,0,0,0	71.0	7.0	0.401	0,0,0,0,0,0,1,2,3	to_board	s597
125.835	1.0	0	PA_without_intermediate	n/a	test	ward_and_allport	n/a	-1.0	7.0	n/a	n/a	feedback	s597
126.835	6.168	0	PA_without_intermediate	n/a	test	ward_and_allport	n/a	-1.0	7.0	n/a	n/a	ITI	s597
133.006	4.079	1	PA_without_intermediate	1,2,0,0,0,0,0,0,0	test	ward_and_allport	0,0,0,3,1,0,2,0,0	89.0	8.0	4.079	1,2,3,0,0,0,0,0,0	to_hand	s597
137.086	0.69	0	PA_without_intermediate	1,2,0,3,0,0,0,0,0	test	ward_and_allport	0,0,0,3,1,0,2,0,0	71.0	8.0	0.69	1,2,3,0,0,0,0,0,0	to_board	s597
137.779	0.753	0	PA_without_intermediate	1,0,0,3,0,0,0,0,0	test	ward_and_allport	0,0,0,3,1,0,2,0,0	89.0	8.0	0.753	1,2,3,0,0,0,0,0,0	to_hand	s597
138.533	0.448	0	PA_without_intermediate	1,0,0,3,0,0,2,0,0	test	ward_and_allport	0,0,0,3,1,0,2,0,0	82.0	8.0	0.448	1,2,3,0,0,0,0,0,0	to_board	s597
138.984	0.648	0	PA_without_intermediate	0,0,0,3,0,0,2,0,0	test	ward_and_allport	0,0,0,3,1,0,2,0,0	89.0	8.0	0.648	1,2,3,0,0,0,0,0,0	to_hand	s597
139.634	0.456	0	PA_without_intermediate	0,0,0,3,1,0,2,0,0	test	ward_and_allport	0,0,0,3,1,0,2,0,0	71.0	8.0	0.456	1,2,3,0,0,0,0,0,0	to_board	s597
140.095	1.0	0	PA_without_intermediate	n/a	test	ward_and_allport	n/a	-1.0	8.0	n/a	n/a	feedback	s597
141.095	1.816	0	PA_without_intermediate	n/a	test	ward_and_allport	n/a	-1.0	8.0	n/a	n/a	ITI	s597
142.915	3.908	1	PA_with_intermediate	0,0,0,0,0,0,1,2,0	test	ward_and_allport	2,3,0,0,0,0,1,0,0	82.0	9.0	3.908	0,0,0,0,0,0,1,2,3	to_hand	s597
146.824	0.483	0	PA_with_intermediate	3,0,0,0,0,0,1,2,0	test	ward_and_allport	2,3,0,0,0,0,1,0,0	89.0	9.0	0.483	0,0,0,0,0,0,1,2,3	to_board	s597
147.31	5.44	0	PA_with_intermediate	0,0,0,0,0,0,1,2,0	test	ward_and_allport	2,3,0,0,0,0,1,0,0	89.0	9.0	5.44	0,0,0,0,0,0,1,2,3	to_hand	s597
152.751	1.198	0	PA_with_intermediate	0,0,0,3,0,0,1,2,0	test	ward_and_allport	2,3,0,0,0,0,1,0,0	71.0	9.0	1.198	0,0,0,0,0,0,1,2,3	to_board	s597
153.953	1.293	0	PA_with_intermediate	0,0,0,3,0,0,1,0,0	test	ward_and_allport	2,3,0,0,0,0,1,0,0	82.0	9.0	1.293	0,0,0,0,0,0,1,2,3	to_hand	s597
155.247	0.567	0	PA_with_intermediate	2,0,0,3,0,0,1,0,0	test	ward_and_allport	2,3,0,0,0,0,1,0,0	89.0	9.0	0.567	0,0,0,0,0,0,1,2,3	to_board	s597
155.817	0.968	0	PA_with_intermediate	2,0,0,0,0,0,1,0,0	test	ward_and_allport	2,3,0,0,0,0,1,0,0	71.0	9.0	0.968	0,0,0,0,0,0,1,2,3	to_hand	s597
156.786	0.454	0	PA_with_intermediate	2,3,0,0,0,0,1,0,0	test	ward_and_allport	2,3,0,0,0,0,1,0,0	89.0	9.0	0.454	0,0,0,0,0,0,1,2,3	to_board	s597
157.245	1.0	0	PA_with_intermediate	n/a	test	ward_and_allport	n/a	-1.0	9.0	n/a	n/a	feedback	s597
158.245	1.952	0	PA_with_intermediate	n/a	test	ward_and_allport	n/a	-1.0	9.0	n/a	n/a	ITI	s597
160.201	7.413	1	PA_with_intermediate	0,0,0,0,0,0,1,2,0	test	ward_and_allport	0,0,0,2,3,0,1,0,0	82.0	10.0	7.413	0,0,0,0,0,0,1,2,3	to_hand	s597
167.616	1.271	0	PA_with_intermediate	3,0,0,0,0,0,1,2,0	test	ward_and_allport	0,0,0,2,3,0,1,0,0	89.0	10.0	1.271	0,0,0,0,0,0,1,2,3	to_board	s597
168.891	1.105	0	PA_with_intermediate	3,0,0,0,0,0,1,0,0	test	ward_and_allport	0,0,0,2,3,0,1,0,0	82.0	10.0	1.105	0,0,0,0,0,0,1,2,3	to_hand	s597
169.997	0.624	0	PA_with_intermediate	3,0,0,2,0,0,1,0,0	test	ward_and_allport	0,0,0,2,3,0,1,0,0	71.0	10.0	0.624	0,0,0,0,0,0,1,2,3	to_board	s597
170.625	0.75	0	PA_with_intermediate	0,0,0,2,0,0,1,0,0	test	ward_and_allport	0,0,0,2,3,0,1,0,0	89.0	10.0	0.75	0,0,0,0,0,0,1,2,3	to_hand	s597
171.376	0.581	0	PA_with_intermediate	0,0,0,2,3,0,1,0,0	test	ward_and_allport	0,0,0,2,3,0,1,0,0	71.0	10.0	0.581	0,0,0,0,0,0,1,2,3	to_board	s597
171.963	1.0	0	PA_with_intermediate	n/a	test	ward_and_allport	n/a	-1.0	10.0	n/a	n/a	feedback	s597
172.963	1.136	0	PA_with_intermediate	n/a	test	ward_and_allport	n/a	-1.0	10.0	n/a	n/a	ITI	s597
174.104	4.102	1	PA_without_intermediate	1,2,0,0,0,0,0,0,0	test	ward_and_allport	0,0,0,2,0,0,3,1,0	89.0	11.0	4.102	1,2,3,0,0,0,0,0,0	to_hand	s597
178.207	1.947	0	PA_without_intermediate	1,2,0,0,0,0,3,0,0	test	ward_and_allport	0,0,0,2,0,0,3,1,0	82.0	11.0	1.947	1,2,3,0,0,0,0,0,0	to_board	s597
180.157	1.618	0	PA_without_intermediate	1,0,0,0,0,0,3,0,0	test	ward_and_allport	0,0,0,2,0,0,3,1,0	89.0	11.0	1.618	1,2,3,0,0,0,0,0,0	to_hand	s597
181.776	0.618	0	PA_without_intermediate	1,0,0,2,0,0,3,0,0	test	ward_and_allport	0,0,0,2,0,0,3,1,0	71.0	11.0	0.618	1,2,3,0,0,0,0,0,0	to_board	s597
182.398	0.549	0	PA_without_intermediate	0,0,0,2,0,0,3,0,0	test	ward_and_allport	0,0,0,2,0,0,3,1,0	89.0	11.0	0.549	1,2,3,0,0,0,0,0,0	to_hand	s597
182.948	0.391	0	PA_without_intermediate	0,0,0,2,0,0,3,1,0	test	ward_and_allport	0,0,0,2,0,0,3,1,0	82.0	11.0	0.391	1,2,3,0,0,0,0,0,0	to_board	s597
183.347	1.0	0	PA_without_intermediate	n/a	test	ward_and_allport	n/a	-1.0	11.0	n/a	n/a	feedback	s597
184.347	1.68	0	PA_without_intermediate	n/a	test	ward_and_allport	n/a	-1.0	11.0	n/a	n/a	ITI	s597
186.03	5.155	1	PA_without_intermediate	0,0,0,1,2,0,0,0,0	test	ward_and_allport	3,2,0,0,0,0,1,0,0	71.0	12.0	5.155	0,0,0,1,2,3,0,0,0	to_hand	s597
191.186	0.402	0	PA_without_intermediate	3,0,0,1,2,0,0,0,0	test	ward_and_allport	3,2,0,0,0,0,1,0,0	89.0	12.0	0.402	0,0,0,1,2,3,0,0,0	to_board	s597
191.593	0.64	0	PA_without_intermediate	3,0,0,1,0,0,0,0,0	test	ward_and_allport	3,2,0,0,0,0,1,0,0	71.0	12.0	0.64	0,0,0,1,2,3,0,0,0	to_hand	s597
192.235	0.395	0	PA_without_intermediate	3,2,0,1,0,0,0,0,0	test	ward_and_allport	3,2,0,0,0,0,1,0,0	89.0	12.0	0.395	0,0,0,1,2,3,0,0,0	to_board	s597
192.634	0.677	0	PA_without_intermediate	3,2,0,0,0,0,0,0,0	test	ward_and_allport	3,2,0,0,0,0,1,0,0	71.0	12.0	0.677	0,0,0,1,2,3,0,0,0	to_hand	s597
193.312	0.454	0	PA_without_intermediate	3,2,0,0,0,0,1,0,0	test	ward_and_allport	3,2,0,0,0,0,1,0,0	82.0	12.0	0.454	0,0,0,1,2,3,0,0,0	to_board	s597
193.77	1.0	0	PA_without_intermediate	n/a	test	ward_and_allport	n/a	-1.0	12.0	n/a	n/a	feedback	s597
194.77	2.088	0	PA_without_intermediate	n/a	test	ward_and_allport	n/a	-1.0	12.0	n/a	n/a	ITI	s597
196.862	5.007	1	PA_with_intermediate	0,0,0,1,2,0,0,0,0	test	ward_and_allport	2,3,0,1,0,0,0,0,0	71.0	13.0	5.007	0,0,0,1,2,3,0,0,0	to_hand	s597
201.87	0.504	0	PA_with_intermediate	0,0,0,1,2,0,3,0,0	test	ward_and_allport	2,3,0,1,0,0,0,0,0	82.0	13.0	0.504	0,0,0,1,2,3,0,0,0	to_board	s597
202.378	0.488	0	PA_with_intermediate	0,0,0,1,0,0,3,0,0	test	ward_and_allport	2,3,0,1,0,0,0,0,0	71.0	13.0	0.488	0,0,0,1,2,3,0,0,0	to_hand	s597
202.868	0.388	0	PA_with_intermediate	2,0,0,1,0,0,3,0,0	test	ward_and_allport	2,3,0,1,0,0,0,0,0	89.0	13.0	0.388	0,0,0,1,2,3,0,0,0	to_board	s597
203.26	0.681	0	PA_with_intermediate	2,0,0,1,0,0,0,0,0	test	ward_and_allport	2,3,0,1,0,0,0,0,0	82.0	13.0	0.681	0,0,0,1,2,3,0,0,0	to_hand	s597
203.942	0.337	0	PA_with_intermediate	2,3,0,1,0,0,0,0,0	test	ward_and_allport	2,3,0,1,0,0,0,0,0	89.0	13.0	0.337	0,0,0,1,2,3,0,0,0	to_board	s597
204.283	1.0	0	PA_with_intermediate	n/a	test	ward_and_allport	n/a	-1.0	13.0	n/a	n/a	feedback	s597
205.283	1.0	0	PA_with_intermediate	n/a	test	ward_and_allport	n/a	-1.0	13.0	n/a	n/a	ITI	s597
206.287	1.799	1	PA_without_intermediate	0,0,0,1,2,0,0,0,0	test	ward_and_allport	1,0,0,0,0,0,3,2,0	71.0	14.0	1.799	0,0,0,1,2,3,0,0,0	to_hand	s597
208.087	0.416	0	PA_without_intermediate	0,0,0,1,2,0,3,0,0	test	ward_and_allport	1,0,0,0,0,0,3,2,0	82.0	14.0	0.416	0,0,0,1,2,3,0,0,0	to_board	s597
208.507	0.577	0	PA_without_intermediate	0,0,0,1,0,0,3,0,0	test	ward_and_allport	1,0,0,0,0,0,3,2,0	71.0	14.0	0.577	0,0,0,1,2,3,0,0,0	to_hand	s597
209.085	0.434	0	PA_without_intermediate	0,0,0,1,0,0,3,2,0	test	ward_and_allport	1,0,0,0,0,0,3,2,0	82.0	14.0	0.434	0,0,0,1,2,3,0,0,0	to_board	s597
209.523	0.599	0	PA_without_intermediate	0,0,0,0,0,0,3,2,0	test	ward_and_allport	1,0,0,0,0,0,3,2,0	71.0	14.0	0.599	0,0,0,1,2,3,0,0,0	to_hand	s597
210.123	0.381	0	PA_without_intermediate	1,0,0,0,0,0,3,2,0	test	ward_and_allport	1,0,0,0,0,0,3,2,0	89.0	14.0	0.381	0,0,0,1,2,3,0,0,0	to_board	s597
210.511	1.0	0	PA_without_intermediate	n/a	test	ward_and_allport	n/a	-1.0	14.0	n/a	n/a	feedback	s597
211.511	1.0	0	PA_without_intermediate	n/a	test	ward_and_allport	n/a	-1.0	14.0	n/a	n/a	ITI	s597
217.518	3.171	1	PA_without_intermediate	1,2,0,0,0,0,0,0,0	test	ward_and_allport	0,0,0,3,2,0,1,0,0	89.0	15.0	3.171	1,2,3,0,0,0,0,0,0	to_hand	s597
220.69	0.72	0	PA_without_intermediate	1,2,0,3,0,0,0,0,0	test	ward_and_allport	0,0,0,3,2,0,1,0,0	71.0	15.0	0.72	1,2,3,0,0,0,0,0,0	to_board	s597
221.415	0.631	0	PA_without_intermediate	1,0,0,3,0,0,0,0,0	test	ward_and_allport	0,0,0,3,2,0,1,0,0	89.0	15.0	0.631	1,2,3,0,0,0,0,0,0	to_hand	s597
222.047	0.635	0	PA_without_intermediate	1,0,0,3,2,0,0,0,0	test	ward_and_allport	0,0,0,3,2,0,1,0,0	71.0	15.0	0.635	1,2,3,0,0,0,0,0,0	to_board	s597
222.686	0.568	0	PA_without_intermediate	0,0,0,3,2,0,0,0,0	test	ward_and_allport	0,0,0,3,2,0,1,0,0	89.0	15.0	0.568	1,2,3,0,0,0,0,0,0	to_hand	s597
223.255	0.445	0	PA_without_intermediate	0,0,0,3,2,0,1,0,0	test	ward_and_allport	0,0,0,3,2,0,1,0,0	82.0	15.0	0.445	1,2,3,0,0,0,0,0,0	to_board	s597
223.705	1.0	0	PA_without_intermediate	n/a	test	ward_and_allport	n/a	-1.0	15.0	n/a	n/a	feedback	s597
224.705	1.0	0	PA_without_intermediate	n/a	test	ward_and_allport	n/a	-1.0	15.0	n/a	n/a	ITI	s597
225.71	3.266	1	PA_with_intermediate	1,2,0,0,0,0,0,0,0	test	ward_and_allport	1,0,0,2,3,0,0,0,0	89.0	16.0	3.266	1,2,3,0,0,0,0,0,0	to_hand	s597
228.977	0.584	0	PA_with_intermediate	1,2,0,0,0,0,3,0,0	test	ward_and_allport	1,0,0,2,3,0,0,0,0	82.0	16.0	0.584	1,2,3,0,0,0,0,0,0	to_board	s597
229.565	0.556	0	PA_with_intermediate	1,0,0,0,0,0,3,0,0	test	ward_and_allport	1,0,0,2,3,0,0,0,0	89.0	16.0	0.556	1,2,3,0,0,0,0,0,0	to_hand	s597
230.122	0.587	0	PA_with_intermediate	1,0,0,2,0,0,3,0,0	test	ward_and_allport	1,0,0,2,3,0,0,0,0	71.0	16.0	0.587	1,2,3,0,0,0,0,0,0	to_board	s597
230.713	0.606	0	PA_with_intermediate	1,0,0,2,0,0,0,0,0	test	ward_and_allport	1,0,0,2,3,0,0,0,0	82.0	16.0	0.606	1,2,3,0,0,0,0,0,0	to_hand	s597
231.32	0.59	0	PA_with_intermediate	1,3,0,2,0,0,0,0,0	test	ward_and_allport	1,0,0,2,3,0,0,0,0	89.0	16.0	0.59	1,2,3,0,0,0,0,0,0	to_board	s597
231.915	2.489	0	PA_with_intermediate	1,0,0,2,0,0,0,0,0	test	ward_and_allport	1,0,0,2,3,0,0,0,0	89.0	16.0	2.489	1,2,3,0,0,0,0,0,0	to_hand	s597
234.405	0.571	0	PA_with_intermediate	1,0,0,2,3,0,0,0,0	test	ward_and_allport	1,0,0,2,3,0,0,0,0	71.0	16.0	0.571	1,2,3,0,0,0,0,0,0	to_board	s597
234.981	1.0	0	PA_with_intermediate	n/a	test	ward_and_allport	n/a	-1.0	16.0	n/a	n/a	feedback	s597
235.981	1.544	0	PA_with_intermediate	n/a	test	ward_and_allport	n/a	-1.0	16.0	n/a	n/a	ITI	s597
237.53	3.738	1	PA_without_intermediate	0,0,0,0,0,0,1,2,0	test	ward_and_allport	1,0,0,3,2,0,0,0,0	82.0	17.0	3.738	0,0,0,0,0,0,1,2,3	to_hand	s597
241.269	0.684	0	PA_without_intermediate	0,0,0,3,0,0,1,2,0	test	ward_and_allport	1,0,0,3,2,0,0,0,0	71.0	17.0	0.684	0,0,0,0,0,0,1,2,3	to_board	s597
241.957	0.659	0	PA_without_intermediate	0,0,0,3,0,0,1,0,0	test	ward_and_allport	1,0,0,3,2,0,0,0,0	82.0	17.0	0.659	0,0,0,0,0,0,1,2,3	to_hand	s597
242.617	0.508	0	PA_without_intermediate	0,0,0,3,2,0,1,0,0	test	ward_and_allport	1,0,0,3,2,0,0,0,0	71.0	17.0	0.508	0,0,0,0,0,0,1,2,3	to_board	s597
243.129	0.736	0	PA_without_intermediate	0,0,0,3,2,0,0,0,0	test	ward_and_allport	1,0,0,3,2,0,0,0,0	82.0	17.0	0.736	0,0,0,0,0,0,1,2,3	to_hand	s597
243.866	0.501	0	PA_without_intermediate	1,0,0,3,2,0,0,0,0	test	ward_and_allport	1,0,0,3,2,0,0,0,0	89.0	17.0	0.501	0,0,0,0,0,0,1,2,3	to_board	s597
244.374	1.0	0	PA_without_intermediate	n/a	test	ward_and_allport	n/a	-1.0	17.0	n/a	n/a	feedback	s597
245.374	1.272	0	PA_without_intermediate	n/a	test	ward_and_allport	n/a	-1.0	17.0	n/a	n/a	ITI	s597
246.65	4.484	1	PA_with_intermediate	0,0,0,0,0,0,1,2,0	test	ward_and_allport	0,0,0,2,0,0,1,3,0	82.0	18.0	4.484	0,0,0,0,0,0,1,2,3	to_hand	s597
251.135	0.43	0	PA_with_intermediate	3,0,0,0,0,0,1,2,0	test	ward_and_allport	0,0,0,2,0,0,1,3,0	89.0	18.0	0.43	0,0,0,0,0,0,1,2,3	to_board	s597
251.569	0.825	0	PA_with_intermediate	3,0,0,0,0,0,1,0,0	test	ward_and_allport	0,0,0,2,0,0,1,3,0	82.0	18.0	0.825	0,0,0,0,0,0,1,2,3	to_hand	s597
252.395	0.417	0	PA_with_intermediate	3,0,0,2,0,0,1,0,0	test	ward_and_allport	0,0,0,2,0,0,1,3,0	71.0	18.0	0.417	0,0,0,0,0,0,1,2,3	to_board	s597
252.818	0.594	0	PA_with_intermediate	0,0,0,2,0,0,1,0,0	test	ward_and_allport	0,0,0,2,0,0,1,3,0	89.0	18.0	0.594	0,0,0,0,0,0,1,2,3	to_hand	s597
253.413	0.367	0	PA_with_intermediate	0,0,0,2,0,0,1,3,0	test	ward_and_allport	0,0,0,2,0,0,1,3,0	82.0	18.0	0.367	0,0,0,0,0,0,1,2,3	to_board	s597
253.784	1.0	0	PA_with_intermediate	n/a	test	ward_and_allport	n/a	-1.0	18.0	n/a	n/a	feedback	s597
254.784	3.04	0	PA_with_intermediate	n/a	test	ward_and_allport	n/a	-1.0	18.0	n/a	n/a	ITI	s597
257.829	4.603	1	PA_with_intermediate	0,0,0,0,0,0,1,2,0	test	ward_and_allport	2,0,0,0,0,0,1,3,0	82.0	19.0	4.603	0,0,0,0,0,0,1,2,3	to_hand	s597
262.433	0.357	0	PA_with_intermediate	0,0,0,3,0,0,1,2,0	test	ward_and_allport	2,0,0,0,0,0,1,3,0	71.0	19.0	0.357	0,0,0,0,0,0,1,2,3	to_board	s597
262.794	1.151	0	PA_with_intermediate	0,0,0,3,0,0,1,0,0	test	ward_and_allport	2,0,0,0,0,0,1,3,0	82.0	19.0	1.151	0,0,0,0,0,0,1,2,3	to_hand	s597
263.946	0.431	0	PA_with_intermediate	2,0,0,3,0,0,1,0,0	test	ward_and_allport	2,0,0,0,0,0,1,3,0	89.0	19.0	0.431	0,0,0,0,0,0,1,2,3	to_board	s597
264.382	0.803	0	PA_with_intermediate	2,0,0,0,0,0,1,0,0	test	ward_and_allport	2,0,0,0,0,0,1,3,0	71.0	19.0	0.803	0,0,0,0,0,0,1,2,3	to_hand	s597
265.186	0.359	0	PA_with_intermediate	2,0,0,0,0,0,1,3,0	test	ward_and_allport	2,0,0,0,0,0,1,3,0	82.0	19.0	0.359	0,0,0,0,0,0,1,2,3	to_board	s597
265.55	1.0	0	PA_with_intermediate	n/a	test	ward_and_allport	n/a	-1.0	19.0	n/a	n/a	feedback	s597
266.55	1.272	0	PA_with_intermediate	n/a	test	ward_and_allport	n/a	-1.0	19.0	n/a	n/a	ITI	s597
267.826	3.676	1	PA_with_intermediate	1,2,0,0,0,0,0,0,0	test	ward_and_allport	1,0,0,2,3,0,0,0,0	89.0	20.0	3.676	1,2,3,0,0,0,0,0,0	to_hand	s597
271.503	0.408	0	PA_with_intermediate	1,2,0,0,0,0,3,0,0	test	ward_and_allport	1,0,0,2,3,0,0,0,0	82.0	20.0	0.408	1,2,3,0,0,0,0,0,0	to_board	s597
271.915	0.884	0	PA_with_intermediate	1,0,0,0,0,0,3,0,0	test	ward_and_allport	1,0,0,2,3,0,0,0,0	89.0	20.0	0.884	1,2,3,0,0,0,0,0,0	to_hand	s597
272.8	0.417	0	PA_with_intermediate	1,0,0,2,0,0,3,0,0	test	ward_and_allport	1,0,0,2,3,0,0,0,0	71.0	20.0	0.417	1,2,3,0,0,0,0,0,0	to_board	s597
273.221	0.581	0	PA_with_intermediate	1,0,0,2,0,0,0,0,0	test	ward_and_allport	1,0,0,2,3,0,0,0,0	82.0	20.0	0.581	1,2,3,0,0,0,0,0,0	to_hand	s597
273.803	0.396	0	PA_with_intermediate	1,0,0,2,3,0,0,0,0	test	ward_and_allport	1,0,0,2,3,0,0,0,0	71.0	20.0	0.396	1,2,3,0,0,0,0,0,0	to_board	s597
274.204	1.0	0	PA_with_intermediate	n/a	test	ward_and_allport	n/a	-1.0	20.0	n/a	n/a	feedback	s597
275.204	1.136	0	PA_with_intermediate	n/a	test	ward_and_allport	n/a	-1.0	20.0	n/a	n/a	ITI	s597
276.345	3.202	1	PA_with_intermediate	0,0,0,1,2,0,0,0,0	test	ward_and_allport	2,3,0,1,0,0,0,0,0	71.0	21.0	3.202	0,0,0,1,2,3,0,0,0	to_hand	s597
279.548	0.419	0	PA_with_intermediate	0,0,0,1,2,0,3,0,0	test	ward_and_allport	2,3,0,1,0,0,0,0,0	82.0	21.0	0.419	0,0,0,1,2,3,0,0,0	to_board	s597
279.971	0.729	0	PA_with_intermediate	0,0,0,1,0,0,3,0,0	test	ward_and_allport	2,3,0,1,0,0,0,0,0	71.0	21.0	0.729	0,0,0,1,2,3,0,0,0	to_hand	s597
280.701	0.387	0	PA_with_intermediate	2,0,0,1,0,0,3,0,0	test	ward_and_allport	2,3,0,1,0,0,0,0,0	89.0	21.0	0.387	0,0,0,1,2,3,0,0,0	to_board	s597
281.092	1.051	0	PA_with_intermediate	2,0,0,1,0,0,0,0,0	test	ward_and_allport	2,3,0,1,0,0,0,0,0	82.0	21.0	1.051	0,0,0,1,2,3,0,0,0	to_hand	s597
282.144	0.33	0	PA_with_intermediate	2,3,0,1,0,0,0,0,0	test	ward_and_allport	2,3,0,1,0,0,0,0,0	89.0	21.0	0.33	0,0,0,1,2,3,0,0,0	to_board	s597
282.48	1.0	0	PA_with_intermediate	n/a	test	ward_and_allport	n/a	-1.0	21.0	n/a	n/a	feedback	s597
283.48	1.0	0	PA_with_intermediate	n/a	test	ward_and_allport	n/a	-1.0	21.0	n/a	n/a	ITI	s597
284.485	3.093	1	PA_with_intermediate	1,2,0,0,0,0,0,0,0	test	ward_and_allport	1,0,0,0,0,0,2,3,0	89.0	22.0	3.093	1,2,3,0,0,0,0,0,0	to_hand	s597
287.579	0.458	0	PA_with_intermediate	1,2,0,3,0,0,0,0,0	test	ward_and_allport	1,0,0,0,0,0,2,3,0	71.0	22.0	0.458	1,2,3,0,0,0,0,0,0	to_board	s597
288.042	0.623	0	PA_with_intermediate	1,0,0,3,0,0,0,0,0	test	ward_and_allport	1,0,0,0,0,0,2,3,0	89.0	22.0	0.623	1,2,3,0,0,0,0,0,0	to_hand	s597
288.666	0.607	0	PA_with_intermediate	1,0,0,3,0,0,2,0,0	test	ward_and_allport	1,0,0,0,0,0,2,3,0	82.0	22.0	0.607	1,2,3,0,0,0,0,0,0	to_board	s597
289.278	0.844	0	PA_with_intermediate	1,0,0,0,0,0,2,0,0	test	ward_and_allport	1,0,0,0,0,0,2,3,0	71.0	22.0	0.844	1,2,3,0,0,0,0,0,0	to_hand	s597
290.123	0.347	0	PA_with_intermediate	1,0,0,0,0,0,2,3,0	test	ward_and_allport	1,0,0,0,0,0,2,3,0	82.0	22.0	0.347	1,2,3,0,0,0,0,0,0	to_board	s597
290.48	1.0	0	PA_with_intermediate	n/a	test	ward_and_allport	n/a	-1.0	22.0	n/a	n/a	feedback	s597
291.48	1.0	0	PA_with_intermediate	n/a	test	ward_and_allport	n/a	-1.0	22.0	n/a	n/a	ITI	s597
292.486	2.037	1	PA_without_intermediate	0,0,0,1,2,0,0,0,0	test	ward_and_allport	1,0,0,0,0,0,3,2,0	71.0	23.0	2.037	0,0,0,1,2,3,0,0,0	to_hand	s597
294.524	0.551	0	PA_without_intermediate	0,0,0,1,2,0,3,0,0	test	ward_and_allport	1,0,0,0,0,0,3,2,0	82.0	23.0	0.551	0,0,0,1,2,3,0,0,0	to_board	s597
295.082	0.455	0	PA_without_intermediate	0,0,0,1,0,0,3,0,0	test	ward_and_allport	1,0,0,0,0,0,3,2,0	71.0	23.0	0.455	0,0,0,1,2,3,0,0,0	to_hand	s597
295.538	0.482	0	PA_without_intermediate	0,0,0,1,0,0,3,2,0	test	ward_and_allport	1,0,0,0,0,0,3,2,0	82.0	23.0	0.482	0,0,0,1,2,3,0,0,0	to_board	s597
296.026	0.883	0	PA_without_intermediate	0,0,0,0,0,0,3,2,0	test	ward_and_allport	1,0,0,0,0,0,3,2,0	71.0	23.0	0.883	0,0,0,1,2,3,0,0,0	to_hand	s597
296.91	0.319	0	PA_without_intermediate	1,0,0,0,0,0,3,2,0	test	ward_and_allport	1,0,0,0,0,0,3,2,0	89.0	23.0	0.319	0,0,0,1,2,3,0,0,0	to_board	s597
297.24	1.0	0	PA_without_intermediate	n/a	test	ward_and_allport	n/a	-1.0	23.0	n/a	n/a	feedback	s597
298.24	1.408	0	PA_without_intermediate	n/a	test	ward_and_allport	n/a	-1.0	23.0	n/a	n/a	ITI	s597
299.654	2.199	1	PA_with_intermediate	0,0,0,1,2,0,0,0,0	test	ward_and_allport	0,0,0,1,0,0,2,3,0	71.0	24.0	2.199	0,0,0,1,2,3,0,0,0	to_hand	s597
301.854	0.315	0	PA_with_intermediate	3,0,0,1,2,0,0,0,0	test	ward_and_allport	0,0,0,1,0,0,2,3,0	89.0	24.0	0.315	0,0,0,1,2,3,0,0,0	to_board	s597
302.175	0.622	0	PA_with_intermediate	3,0,0,1,0,0,0,0,0	test	ward_and_allport	0,0,0,1,0,0,2,3,0	71.0	24.0	0.622	0,0,0,1,2,3,0,0,0	to_hand	s597
302.798	0.39	0	PA_with_intermediate	3,0,0,1,0,0,2,0,0	test	ward_and_allport	0,0,0,1,0,0,2,3,0	82.0	24.0	0.39	0,0,0,1,2,3,0,0,0	to_board	s597
303.194	3.091	0	PA_with_intermediate	0,0,0,1,0,0,2,0,0	test	ward_and_allport	0,0,0,1,0,0,2,3,0	89.0	24.0	3.091	0,0,0,1,2,3,0,0,0	to_hand	s597
306.286	0.317	0	PA_with_intermediate	0,0,0,1,0,0,2,3,0	test	ward_and_allport	0,0,0,1,0,0,2,3,0	82.0	24.0	0.317	0,0,0,1,2,3,0,0,0	to_board	s597
306.611	1.0	0	PA_with_intermediate	n/a	test	ward_and_allport	n/a	-1.0	24.0	n/a	n/a	feedback	s597
307.611	2.768	0	PA_with_intermediate	n/a	test	ward_and_allport	n/a	-1.0	24.0	n/a	n/a	ITI	s597
310.385	4.186	1	PA_with_intermediate	0,0,0,0,0,0,1,2,0	test	ward_and_allport	0,0,0,2,3,0,1,0,0	82.0	25.0	4.186	0,0,0,0,0,0,1,2,3	to_hand	s597
314.572	0.371	0	PA_with_intermediate	3,0,0,0,0,0,1,2,0	test	ward_and_allport	0,0,0,2,3,0,1,0,0	89.0	25.0	0.371	0,0,0,0,0,0,1,2,3	to_board	s597
314.949	1.076	0	PA_with_intermediate	3,0,0,0,0,0,1,0,0	test	ward_and_allport	0,0,0,2,3,0,1,0,0	82.0	25.0	1.076	0,0,0,0,0,0,1,2,3	to_hand	s597
316.026	0.382	0	PA_with_intermediate	3,0,0,2,0,0,1,0,0	test	ward_and_allport	0,0,0,2,3,0,1,0,0	71.0	25.0	0.382	0,0,0,0,0,0,1,2,3	to_board	s597
316.414	0.83	0	PA_with_intermediate	0,0,0,2,0,0,1,0,0	test	ward_and_allport	0,0,0,2,3,0,1,0,0	89.0	25.0	0.83	0,0,0,0,0,0,1,2,3	to_hand	s597
317.245	0.497	0	PA_with_intermediate	0,0,0,2,3,0,1,0,0	test	ward_and_allport	0,0,0,2,3,0,1,0,0	71.0	25.0	0.497	0,0,0,0,0,0,1,2,3	to_board	s597
317.752	1.0	0	PA_with_intermediate	n/a	test	ward_and_allport	n/a	-1.0	25.0	n/a	n/a	feedback	s597
318.752	1.68	0	PA_with_intermediate	n/a	test	ward_and_allport	n/a	-1.0	25.0	n/a	n/a	ITI	s597
320.439	3.071	1	PA_without_intermediate	0,0,0,0,0,0,1,2,0	test	ward_and_allport	3,2,0,1,0,0,0,0,0	82.0	26.0	3.071	0,0,0,0,0,0,1,2,3	to_hand	s597
323.511	0.403	0	PA_without_intermediate	3,0,0,0,0,0,1,2,0	test	ward_and_allport	3,2,0,1,0,0,0,0,0	89.0	26.0	0.403	0,0,0,0,0,0,1,2,3	to_board	s597
323.92	1.239	0	PA_without_intermediate	3,0,0,0,0,0,1,0,0	test	ward_and_allport	3,2,0,1,0,0,0,0,0	82.0	26.0	1.239	0,0,0,0,0,0,1,2,3	to_hand	s597
325.16	0.384	0	PA_without_intermediate	3,2,0,0,0,0,1,0,0	test	ward_and_allport	3,2,0,1,0,0,0,0,0	89.0	26.0	0.384	0,0,0,0,0,0,1,2,3	to_board	s597
325.55	1.175	0	PA_without_intermediate	3,2,0,0,0,0,0,0,0	test	ward_and_allport	3,2,0,1,0,0,0,0,0	82.0	26.0	1.175	0,0,0,0,0,0,1,2,3	to_hand	s597
326.726	0.308	0	PA_without_intermediate	3,2,0,1,0,0,0,0,0	test	ward_and_allport	3,2,0,1,0,0,0,0,0	71.0	26.0	0.308	0,0,0,0,0,0,1,2,3	to_board	s597
327.043	1.0	0	PA_without_intermediate	n/a	test	ward_and_allport	n/a	-1.0	26.0	n/a	n/a	feedback	s597
328.043	2.224	0	PA_without_intermediate	n/a	test	ward_and_allport	n/a	-1.0	26.0	n/a	n/a	ITI	s597
330.273	3.55	1	PA_without_intermediate	0,0,0,1,2,0,0,0,0	test	ward_and_allport	3,1,0,0,0,0,2,0,0	71.0	27.0	3.55	0,0,0,1,2,3,0,0,0	to_hand	s597
333.824	0.358	0	PA_without_intermediate	3,0,0,1,2,0,0,0,0	test	ward_and_allport	3,1,0,0,0,0,2,0,0	89.0	27.0	0.358	0,0,0,1,2,3,0,0,0	to_board	s597
334.191	0.652	0	PA_without_intermediate	3,0,0,1,0,0,0,0,0	test	ward_and_allport	3,1,0,0,0,0,2,0,0	71.0	27.0	0.652	0,0,0,1,2,3,0,0,0	to_hand	s597
334.843	0.313	0	PA_without_intermediate	3,0,0,1,0,0,2,0,0	test	ward_and_allport	3,1,0,0,0,0,2,0,0	82.0	27.0	0.313	0,0,0,1,2,3,0,0,0	to_board	s597
335.163	0.619	0	PA_without_intermediate	3,0,0,0,0,0,2,0,0	test	ward_and_allport	3,1,0,0,0,0,2,0,0	71.0	27.0	0.619	0,0,0,1,2,3,0,0,0	to_hand	s597
335.783	0.299	0	PA_without_intermediate	3,1,0,0,0,0,2,0,0	test	ward_and_allport	3,1,0,0,0,0,2,0,0	89.0	27.0	0.299	0,0,0,1,2,3,0,0,0	to_board	s597
336.091	1.0	0	PA_without_intermediate	n/a	test	ward_and_allport	n/a	-1.0	27.0	n/a	n/a	feedback	s597
337.091	2.36	0	PA_without_intermediate	n/a	test	ward_and_allport	n/a	-1.0	27.0	n/a	n/a	ITI	s597
339.46	1.774	1	PA_without_intermediate	0,0,0,1,2,0,0,0,0	test	ward_and_allport	2,0,0,0,0,0,3,1,0	71.0	28.0	1.774	0,0,0,1,2,3,0,0,0	to_hand	s597
341.235	0.369	0	PA_without_intermediate	0,0,0,1,2,0,3,0,0	test	ward_and_allport	2,0,0,0,0,0,3,1,0	82.0	28.0	0.369	0,0,0,1,2,3,0,0,0	to_board	s597
341.61	0.641	0	PA_without_intermediate	0,0,0,1,0,0,3,0,0	test	ward_and_allport	2,0,0,0,0,0,3,1,0	71.0	28.0	0.641	0,0,0,1,2,3,0,0,0	to_hand	s597
342.252	0.329	0	PA_without_intermediate	2,0,0,1,0,0,3,0,0	test	ward_and_allport	2,0,0,0,0,0,3,1,0	89.0	28.0	0.329	0,0,0,1,2,3,0,0,0	to_board	s597
342.589	0.541	0	PA_without_intermediate	2,0,0,0,0,0,3,0,0	test	ward_and_allport	2,0,0,0,0,0,3,1,0	71.0	28.0	0.541	0,0,0,1,2,3,0,0,0	to_hand	s597
343.131	0.35	0	PA_without_intermediate	2,0,0,0,0,0,3,1,0	test	ward_and_allport	2,0,0,0,0,0,3,1,0	82.0	28.0	0.35	0,0,0,1,2,3,0,0,0	to_board	s597
343.488	1.0	0	PA_without_intermediate	n/a	test	ward_and_allport	n/a	-1.0	28.0	n/a	n/a	feedback	s597
344.488	1.0	0	PA_without_intermediate	n/a	test	ward_and_allport	n/a	-1.0	28.0	n/a	n/a	ITI	s597
345.495	2.646	1	PA_without_intermediate	1,2,0,0,0,0,0,0,0	test	ward_and_allport	0,0,0,1,0,0,3,2,0	89.0	29.0	2.646	1,2,3,0,0,0,0,0,0	to_hand	s597
348.142	0.34	0	PA_without_intermediate	1,2,0,0,0,0,3,0,0	test	ward_and_allport	0,0,0,1,0,0,3,2,0	82.0	29.0	0.34	1,2,3,0,0,0,0,0,0	to_board	s597
348.488	0.802	0	PA_without_intermediate	1,0,0,0,0,0,3,0,0	test	ward_and_allport	0,0,0,1,0,0,3,2,0	89.0	29.0	0.802	1,2,3,0,0,0,0,0,0	to_hand	s597
349.291	0.596	0	PA_without_intermediate	1,0,0,0,0,0,3,2,0	test	ward_and_allport	0,0,0,1,0,0,3,2,0	82.0	29.0	0.596	1,2,3,0,0,0,0,0,0	to_board	s597
349.893	0.739	0	PA_without_intermediate	0,0,0,0,0,0,3,2,0	test	ward_and_allport	0,0,0,1,0,0,3,2,0	89.0	29.0	0.739	1,2,3,0,0,0,0,0,0	to_hand	s597
350.633	0.314	0	PA_without_intermediate	0,0,0,1,0,0,3,2,0	test	ward_and_allport	0,0,0,1,0,0,3,2,0	71.0	29.0	0.314	1,2,3,0,0,0,0,0,0	to_board	s597
350.957	1.0	0	PA_without_intermediate	n/a	test	ward_and_allport	n/a	-1.0	29.0	n/a	n/a	feedback	s597
351.957	1.408	0	PA_without_intermediate	n/a	test	ward_and_allport	n/a	-1.0	29.0	n/a	n/a	ITI	s597
358.373	1.46	1	PA_with_intermediate	1,2,0,0,0,0,0,0,0	test	ward_and_allport	1,3,0,0,0,0,2,0,0	89.0	30.0	1.46	1,2,3,0,0,0,0,0,0	to_hand	s597
359.834	0.406	0	PA_with_intermediate	1,2,0,3,0,0,0,0,0	test	ward_and_allport	1,3,0,0,0,0,2,0,0	71.0	30.0	0.406	1,2,3,0,0,0,0,0,0	to_board	s597
360.247	0.689	0	PA_with_intermediate	1,0,0,3,0,0,0,0,0	test	ward_and_allport	1,3,0,0,0,0,2,0,0	89.0	30.0	0.689	1,2,3,0,0,0,0,0,0	to_hand	s597
360.937	0.418	0	PA_with_intermediate	1,0,0,3,0,0,2,0,0	test	ward_and_allport	1,3,0,0,0,0,2,0,0	82.0	30.0	0.418	1,2,3,0,0,0,0,0,0	to_board	s597
361.362	1.208	0	PA_with_intermediate	1,0,0,0,0,0,2,0,0	test	ward_and_allport	1,3,0,0,0,0,2,0,0	71.0	30.0	1.208	1,2,3,0,0,0,0,0,0	to_hand	s597
362.571	0.353	0	PA_with_intermediate	1,3,0,0,0,0,2,0,0	test	ward_and_allport	1,3,0,0,0,0,2,0,0	89.0	30.0	0.353	1,2,3,0,0,0,0,0,0	to_board	s597
362.931	1.0	0	PA_with_intermediate	n/a	test	ward_and_allport	n/a	-1.0	30.0	n/a	n/a	feedback	s597
363.931	1.136	0	PA_with_intermediate	n/a	test	ward_and_allport	n/a	-1.0	30.0	n/a	n/a	ITI	s597
365.074	1.639	1	PA_without_intermediate	0,0,0,0,0,0,1,2,0	test	ward_and_allport	3,1,0,2,0,0,0,0,0	82.0	31.0	1.639	0,0,0,0,0,0,1,2,3	to_hand	s597
366.714	0.429	0	PA_without_intermediate	3,0,0,0,0,0,1,2,0	test	ward_and_allport	3,1,0,2,0,0,0,0,0	89.0	31.0	0.429	0,0,0,0,0,0,1,2,3	to_board	s597
367.15	1.567	0	PA_without_intermediate	3,0,0,0,0,0,1,0,0	test	ward_and_allport	3,1,0,2,0,0,0,0,0	82.0	31.0	1.567	0,0,0,0,0,0,1,2,3	to_hand	s597
368.718	0.406	0	PA_without_intermediate	3,0,0,2,0,0,1,0,0	test	ward_and_allport	3,1,0,2,0,0,0,0,0	71.0	31.0	0.406	0,0,0,0,0,0,1,2,3	to_board	s597
369.132	0.797	0	PA_without_intermediate	3,0,0,2,0,0,0,0,0	test	ward_and_allport	3,1,0,2,0,0,0,0,0	82.0	31.0	0.797	0,0,0,0,0,0,1,2,3	to_hand	s597
369.93	0.339	0	PA_without_intermediate	3,1,0,2,0,0,0,0,0	test	ward_and_allport	3,1,0,2,0,0,0,0,0	89.0	31.0	0.339	0,0,0,0,0,0,1,2,3	to_board	s597
370.28	1.0	0	PA_without_intermediate	n/a	test	ward_and_allport	n/a	-1.0	31.0	n/a	n/a	feedback	s597
371.28	4.128	0	PA_without_intermediate	n/a	test	ward_and_allport	n/a	-1.0	31.0	n/a	n/a	ITI	s597
375.416	2.542	1	PA_without_intermediate	0,0,0,1,2,0,0,0,0	test	ward_and_allport	2,0,0,0,0,0,3,1,0	71.0	32.0	2.542	0,0,0,1,2,3,0,0,0	to_hand	s597
377.959	0.709	0	PA_without_intermediate	0,0,0,1,2,0,3,0,0	test	ward_and_allport	2,0,0,0,0,0,3,1,0	82.0	32.0	0.709	0,0,0,1,2,3,0,0,0	to_board	s597
378.675	0.502	0	PA_without_intermediate	0,0,0,1,0,0,3,0,0	test	ward_and_allport	2,0,0,0,0,0,3,1,0	71.0	32.0	0.502	0,0,0,1,2,3,0,0,0	to_hand	s597
379.178	0.382	0	PA_without_intermediate	2,0,0,1,0,0,3,0,0	test	ward_and_allport	2,0,0,0,0,0,3,1,0	89.0	32.0	0.382	0,0,0,1,2,3,0,0,0	to_board	s597
379.568	0.497	0	PA_without_intermediate	2,0,0,0,0,0,3,0,0	test	ward_and_allport	2,0,0,0,0,0,3,1,0	71.0	32.0	0.497	0,0,0,1,2,3,0,0,0	to_hand	s597
380.066	0.414	0	PA_without_intermediate	2,0,0,0,0,0,3,1,0	test	ward_and_allport	2,0,0,0,0,0,3,1,0	82.0	32.0	0.414	0,0,0,1,2,3,0,0,0	to_board	s597
380.488	1.0	0	PA_without_intermediate	n/a	test	ward_and_allport	n/a	-1.0	32.0	n/a	n/a	feedback	s597
381.488	1.136	0	PA_without_intermediate	n/a	test	ward_and_allport	n/a	-1.0	32.0	n/a	n/a	ITI	s597
382.63	1.621	1	PA_without_intermediate	0,0,0,1,2,0,0,0,0	test	ward_and_allport	3,1,0,0,0,0,2,0,0	71.0	33.0	1.621	0,0,0,1,2,3,0,0,0	to_hand	s597
384.252	0.392	0	PA_without_intermediate	3,0,0,1,2,0,0,0,0	test	ward_and_allport	3,1,0,0,0,0,2,0,0	89.0	33.0	0.392	0,0,0,1,2,3,0,0,0	to_board	s597
384.65	0.421	0	PA_without_intermediate	3,0,0,1,0,0,0,0,0	test	ward_and_allport	3,1,0,0,0,0,2,0,0	71.0	33.0	0.421	0,0,0,1,2,3,0,0,0	to_hand	s597
385.072	0.366	0	PA_without_intermediate	3,0,0,1,0,0,2,0,0	test	ward_and_allport	3,1,0,0,0,0,2,0,0	82.0	33.0	0.366	0,0,0,1,2,3,0,0,0	to_board	s597
385.443	0.392	0	PA_without_intermediate	3,0,0,0,0,0,2,0,0	test	ward_and_allport	3,1,0,0,0,0,2,0,0	71.0	33.0	0.392	0,0,0,1,2,3,0,0,0	to_hand	s597
385.835	0.339	0	PA_without_intermediate	3,1,0,0,0,0,2,0,0	test	ward_and_allport	3,1,0,0,0,0,2,0,0	89.0	33.0	0.339	0,0,0,1,2,3,0,0,0	to_board	s597
386.181	1.0	0	PA_without_intermediate	n/a	test	ward_and_allport	n/a	-1.0	33.0	n/a	n/a	feedback	s597
387.181	4.264	0	PA_without_intermediate	n/a	test	ward_and_allport	n/a	-1.0	33.0	n/a	n/a	ITI	s597
391.451	1.458	1	PA_with_intermediate	1,2,0,0,0,0,0,0,0	test	ward_and_allport	1,0,0,0,0,0,2,3,0	89.0	34.0	1.458	1,2,3,0,0,0,0,0,0	to_hand	s597
392.91	0.326	0	PA_with_intermediate	1,2,0,0,0,0,3,0,0	test	ward_and_allport	1,0,0,0,0,0,2,3,0	82.0	34.0	0.326	1,2,3,0,0,0,0,0,0	to_board	s597
393.242	0.942	0	PA_with_intermediate	1,0,0,0,0,0,3,0,0	test	ward_and_allport	1,0,0,0,0,0,2,3,0	89.0	34.0	0.942	1,2,3,0,0,0,0,0,0	to_hand	s597
394.185	1.329	0	PA_with_intermediate	1,0,0,2,0,0,3,0,0	test	ward_and_allport	1,0,0,0,0,0,2,3,0	71.0	34.0	1.329	1,2,3,0,0,0,0,0,0	to_board	s597
395.523	0.662	0	PA_with_intermediate	1,0,0,2,0,0,0,0,0	test	ward_and_allport	1,0,0,0,0,0,2,3,0	82.0	34.0	0.662	1,2,3,0,0,0,0,0,0	to_hand	s597
396.186	1.629	0	PA_with_intermediate	1,3,0,2,0,0,0,0,0	test	ward_and_allport	1,0,0,0,0,0,2,3,0	89.0	34.0	1.629	1,2,3,0,0,0,0,0,0	to_board	s597
397.823	0.544	0	PA_with_intermediate	1,3,0,0,0,0,0,0,0	test	ward_and_allport	1,0,0,0,0,0,2,3,0	71.0	34.0	0.544	1,2,3,0,0,0,0,0,0	to_hand	s597
398.368	0.496	0	PA_with_intermediate	1,3,0,0,0,0,2,0,0	test	ward_and_allport	1,0,0,0,0,0,2,3,0	82.0	34.0	0.496	1,2,3,0,0,0,0,0,0	to_board	s597
398.871	0.798	0	PA_with_intermediate	1,0,0,0,0,0,2,0,0	test	ward_and_allport	1,0,0,0,0,0,2,3,0	89.0	34.0	0.798	1,2,3,0,0,0,0,0,0	to_hand	s597
399.67	0.337	0	PA_with_intermediate	1,0,0,0,0,0,2,3,0	test	ward_and_allport	1,0,0,0,0,0,2,3,0	82.0	34.0	0.337	1,2,3,0,0,0,0,0,0	to_board	s597
400.013	1.0	0	PA_with_intermediate	n/a	test	ward_and_allport	n/a	-1.0	34.0	n/a	n/a	feedback	s597
401.013	3.04	0	PA_with_intermediate	n/a	test	ward_and_allport	n/a	-1.0	34.0	n/a	n/a	ITI	s597
404.058	2.467	1	PA_with_intermediate	1,2,0,0,0,0,0,0,0	test	ward_and_allport	1,3,0,2,0,0,0,0,0	89.0	35.0	2.467	1,2,3,0,0,0,0,0,0	to_hand	s597
406.527	0.495	0	PA_with_intermediate	1,2,0,0,0,0,3,0,0	test	ward_and_allport	1,3,0,2,0,0,0,0,0	82.0	35.0	0.495	1,2,3,0,0,0,0,0,0	to_board	s597
407.03	1.39	0	PA_with_intermediate	1,0,0,0,0,0,3,0,0	test	ward_and_allport	1,3,0,2,0,0,0,0,0	89.0	35.0	1.39	1,2,3,0,0,0,0,0,0	to_hand	s597
408.422	0.357	0	PA_with_intermediate	1,0,0,2,0,0,3,0,0	test	ward_and_allport	1,3,0,2,0,0,0,0,0	71.0	35.0	0.357	1,2,3,0,0,0,0,0,0	to_board	s597
408.788	0.723	0	PA_with_intermediate	1,0,0,2,0,0,0,0,0	test	ward_and_allport	1,3,0,2,0,0,0,0,0	82.0	35.0	0.723	1,2,3,0,0,0,0,0,0	to_hand	s597
409.512	0.335	0	PA_with_intermediate	1,3,0,2,0,0,0,0,0	test	ward_and_allport	1,3,0,2,0,0,0,0,0	89.0	35.0	0.335	1,2,3,0,0,0,0,0,0	to_board	s597
409.859	1.0	0	PA_with_intermediate	n/a	test	ward_and_allport	n/a	-1.0	35.0	n/a	n/a	feedback	s597
410.859	1.136	0	PA_with_intermediate	n/a	test	ward_and_allport	n/a	-1.0	35.0	n/a	n/a	ITI	s597
412.003	2.591	1	PA_with_intermediate	0,0,0,1,2,0,0,0,0	test	ward_and_allport	2,0,0,1,3,0,0,0,0	71.0	36.0	2.591	0,0,0,1,2,3,0,0,0	to_hand	s597
414.595	0.376	0	PA_with_intermediate	0,0,0,1,2,0,3,0,0	test	ward_and_allport	2,0,0,1,3,0,0,0,0	82.0	36.0	0.376	0,0,0,1,2,3,0,0,0	to_board	s597
414.977	0.423	0	PA_with_intermediate	0,0,0,1,0,0,3,0,0	test	ward_and_allport	2,0,0,1,3,0,0,0,0	71.0	36.0	0.423	0,0,0,1,2,3,0,0,0	to_hand	s597
415.401	0.327	0	PA_with_intermediate	2,0,0,1,0,0,3,0,0	test	ward_and_allport	2,0,0,1,3,0,0,0,0	89.0	36.0	0.327	0,0,0,1,2,3,0,0,0	to_board	s597
415.734	0.553	0	PA_with_intermediate	2,0,0,1,0,0,0,0,0	test	ward_and_allport	2,0,0,1,3,0,0,0,0	82.0	36.0	0.553	0,0,0,1,2,3,0,0,0	to_hand	s597
416.287	0.42	0	PA_with_intermediate	2,0,0,1,3,0,0,0,0	test	ward_and_allport	2,0,0,1,3,0,0,0,0	71.0	36.0	0.42	0,0,0,1,2,3,0,0,0	to_board	s597
416.718	1.0	0	PA_with_intermediate	n/a	test	ward_and_allport	n/a	-1.0	36.0	n/a	n/a	feedback	s597
417.718	1.408	0	PA_with_intermediate	n/a	test	ward_and_allport	n/a	-1.0	36.0	n/a	n/a	ITI	s597
419.135	1.797	1	PA_without_intermediate	0,0,0,1,2,0,0,0,0	test	ward_and_allport	3,2,0,0,0,0,1,0,0	71.0	37.0	1.797	0,0,0,1,2,3,0,0,0	to_hand	s597
420.933	0.367	0	PA_without_intermediate	3,0,0,1,2,0,0,0,0	test	ward_and_allport	3,2,0,0,0,0,1,0,0	89.0	37.0	0.367	0,0,0,1,2,3,0,0,0	to_board	s597
421.309	0.508	0	PA_without_intermediate	3,0,0,1,0,0,0,0,0	test	ward_and_allport	3,2,0,0,0,0,1,0,0	71.0	37.0	0.508	0,0,0,1,2,3,0,0,0	to_hand	s597
421.818	0.379	0	PA_without_intermediate	3,2,0,1,0,0,0,0,0	test	ward_and_allport	3,2,0,0,0,0,1,0,0	89.0	37.0	0.379	0,0,0,1,2,3,0,0,0	to_board	s597
422.204	0.424	0	PA_without_intermediate	3,2,0,0,0,0,0,0,0	test	ward_and_allport	3,2,0,0,0,0,1,0,0	71.0	37.0	0.424	0,0,0,1,2,3,0,0,0	to_hand	s597
422.629	0.344	0	PA_without_intermediate	3,2,0,0,0,0,1,0,0	test	ward_and_allport	3,2,0,0,0,0,1,0,0	82.0	37.0	0.344	0,0,0,1,2,3,0,0,0	to_board	s597
422.979	1.0	0	PA_without_intermediate	n/a	test	ward_and_allport	n/a	-1.0	37.0	n/a	n/a	feedback	s597
423.979	1.68	0	PA_without_intermediate	n/a	test	ward_and_allport	n/a	-1.0	37.0	n/a	n/a	ITI	s597
425.666	2.262	1	PA_with_intermediate	0,0,0,0,0,0,1,2,0	test	ward_and_allport	0,0,0,2,0,0,1,3,0	82.0	38.0	2.262	0,0,0,0,0,0,1,2,3	to_hand	s597
427.929	0.403	0	PA_with_intermediate	3,0,0,0,0,0,1,2,0	test	ward_and_allport	0,0,0,2,0,0,1,3,0	89.0	38.0	0.403	0,0,0,0,0,0,1,2,3	to_board	s597
428.34	0.909	0	PA_with_intermediate	3,0,0,0,0,0,1,0,0	test	ward_and_allport	0,0,0,2,0,0,1,3,0	82.0	38.0	0.909	0,0,0,0,0,0,1,2,3	to_hand	s597
429.25	0.367	0	PA_with_intermediate	3,0,0,2,0,0,1,0,0	test	ward_and_allport	0,0,0,2,0,0,1,3,0	71.0	38.0	0.367	0,0,0,0,0,0,1,2,3	to_board	s597
429.625	0.458	0	PA_with_intermediate	0,0,0,2,0,0,1,0,0	test	ward_and_allport	0,0,0,2,0,0,1,3,0	89.0	38.0	0.458	0,0,0,0,0,0,1,2,3	to_hand	s597
430.084	0.342	0	PA_with_intermediate	0,0,0,2,0,0,1,3,0	test	ward_and_allport	0,0,0,2,0,0,1,3,0	82.0	38.0	0.342	0,0,0,0,0,0,1,2,3	to_board	s597
430.438	1.0	0	PA_with_intermediate	n/a	test	ward_and_allport	n/a	-1.0	38.0	n/a	n/a	feedback	s597
431.438	3.72	0	PA_with_intermediate	n/a	test	ward_and_allport	n/a	-1.0	38.0	n/a	n/a	ITI	s597
435.165	2.721	1	PA_without_intermediate	0,0,0,0,0,0,1,2,0	test	ward_and_allport	2,0,0,3,1,0,0,0,0	82.0	39.0	2.721	0,0,0,0,0,0,1,2,3	to_hand	s597
437.887	0.477	0	PA_without_intermediate	0,0,0,3,0,0,1,2,0	test	ward_and_allport	2,0,0,3,1,0,0,0,0	71.0	39.0	0.477	0,0,0,0,0,0,1,2,3	to_board	s597
438.373	1.116	0	PA_without_intermediate	0,0,0,3,0,0,1,0,0	test	ward_and_allport	2,0,0,3,1,0,0,0,0	82.0	39.0	1.116	0,0,0,0,0,0,1,2,3	to_hand	s597
439.49	0.396	0	PA_without_intermediate	2,0,0,3,0,0,1,0,0	test	ward_and_allport	2,0,0,3,1,0,0,0,0	89.0	39.0	0.396	0,0,0,0,0,0,1,2,3	to_board	s597
439.895	0.651	0	PA_without_intermediate	2,0,0,3,0,0,0,0,0	test	ward_and_allport	2,0,0,3,1,0,0,0,0	82.0	39.0	0.651	0,0,0,0,0,0,1,2,3	to_hand	s597
440.547	0.421	0	PA_without_intermediate	2,0,0,3,1,0,0,0,0	test	ward_and_allport	2,0,0,3,1,0,0,0,0	71.0	39.0	0.421	0,0,0,0,0,0,1,2,3	to_board	s597
440.979	1.0	0	PA_without_intermediate	n/a	test	ward_and_allport	n/a	-1.0	39.0	n/a	n/a	feedback	s597
441.979	2.224	0	PA_without_intermediate	n/a	test	ward_and_allport	n/a	-1.0	39.0	n/a	n/a	ITI	s597
444.209	2.111	1	PA_without_intermediate	0,0,0,0,0,0,1,2,0	test	ward_and_allport	2,0,0,3,1,0,0,0,0	82.0	40.0	2.111	0,0,0,0,0,0,1,2,3	to_hand	s597
446.322	0.432	0	PA_without_intermediate	0,0,0,3,0,0,1,2,0	test	ward_and_allport	2,0,0,3,1,0,0,0,0	71.0	40.0	0.432	0,0,0,0,0,0,1,2,3	to_board	s597
446.76	1.018	0	PA_without_intermediate	0,0,0,3,0,0,1,0,0	test	ward_and_allport	2,0,0,3,1,0,0,0,0	82.0	40.0	1.018	0,0,0,0,0,0,1,2,3	to_hand	s597
447.779	0.376	0	PA_without_intermediate	2,0,0,3,0,0,1,0,0	test	ward_and_allport	2,0,0,3,1,0,0,0,0	89.0	40.0	0.376	0,0,0,0,0,0,1,2,3	to_board	s597
448.164	0.78	0	PA_without_intermediate	2,0,0,3,0,0,0,0,0	test	ward_and_allport	2,0,0,3,1,0,0,0,0	82.0	40.0	0.78	0,0,0,0,0,0,1,2,3	to_hand	s597
448.945	0.431	0	PA_without_intermediate	2,0,0,3,1,0,0,0,0	test	ward_and_allport	2,0,0,3,1,0,0,0,0	71.0	40.0	0.431	0,0,0,0,0,0,1,2,3	to_board	s597
449.386	1.0	0	PA_without_intermediate	n/a	test	ward_and_allport	n/a	-1.0	40.0	n/a	n/a	feedback	s597
450.386	1.272	0	PA_without_intermediate	n/a	test	ward_and_allport	n/a	-1.0	40.0	n/a	n/a	ITI	s597
451.666	3.817	1	PA_with_intermediate	0,0,0,1,2,0,0,0,0	test	ward_and_allport	2,0,0,1,3,0,0,0,0	71.0	41.0	3.817	0,0,0,1,2,3,0,0,0	to_hand	s597
455.484	0.421	0	PA_with_intermediate	0,0,0,1,2,0,3,0,0	test	ward_and_allport	2,0,0,1,3,0,0,0,0	82.0	41.0	0.421	0,0,0,1,2,3,0,0,0	to_board	s597
455.911	0.391	0	PA_with_intermediate	0,0,0,1,0,0,3,0,0	test	ward_and_allport	2,0,0,1,3,0,0,0,0	71.0	41.0	0.391	0,0,0,1,2,3,0,0,0	to_hand	s597
456.303	0.385	0	PA_with_intermediate	2,0,0,1,0,0,3,0,0	test	ward_and_allport	2,0,0,1,3,0,0,0,0	89.0	41.0	0.385	0,0,0,1,2,3,0,0,0	to_board	s597
456.697	0.453	0	PA_with_intermediate	2,0,0,1,0,0,0,0,0	test	ward_and_allport	2,0,0,1,3,0,0,0,0	82.0	41.0	0.453	0,0,0,1,2,3,0,0,0	to_hand	s597
457.151	0.352	0	PA_with_intermediate	2,0,0,1,3,0,0,0,0	test	ward_and_allport	2,0,0,1,3,0,0,0,0	71.0	41.0	0.352	0,0,0,1,2,3,0,0,0	to_board	s597
457.513	1.0	0	PA_with_intermediate	n/a	test	ward_and_allport	n/a	-1.0	41.0	n/a	n/a	feedback	s597
458.513	2.632	0	PA_with_intermediate	n/a	test	ward_and_allport	n/a	-1.0	41.0	n/a	n/a	ITI	s597
461.152	1.577	1	PA_without_intermediate	0,0,0,0,0,0,1,2,0	test	ward_and_allport	3,1,0,2,0,0,0,0,0	82.0	42.0	1.577	0,0,0,0,0,0,1,2,3	to_hand	s597
462.73	0.395	0	PA_without_intermediate	3,0,0,0,0,0,1,2,0	test	ward_and_allport	3,1,0,2,0,0,0,0,0	89.0	42.0	0.395	0,0,0,0,0,0,1,2,3	to_board	s597
463.131	1.43	0	PA_without_intermediate	3,0,0,0,0,0,1,0,0	test	ward_and_allport	3,1,0,2,0,0,0,0,0	82.0	42.0	1.43	0,0,0,0,0,0,1,2,3	to_hand	s597
464.562	0.362	0	PA_without_intermediate	3,0,0,2,0,0,1,0,0	test	ward_and_allport	3,1,0,2,0,0,0,0,0	71.0	42.0	0.362	0,0,0,0,0,0,1,2,3	to_board	s597
464.933	0.803	0	PA_without_intermediate	3,0,0,2,0,0,0,0,0	test	ward_and_allport	3,1,0,2,0,0,0,0,0	82.0	42.0	0.803	0,0,0,0,0,0,1,2,3	to_hand	s597
465.737	0.421	0	PA_without_intermediate	3,1,0,2,0,0,0,0,0	test	ward_and_allport	3,1,0,2,0,0,0,0,0	89.0	42.0	0.421	0,0,0,0,0,0,1,2,3	to_board	s597
466.169	1.0	0	PA_without_intermediate	n/a	test	ward_and_allport	n/a	-1.0	42.0	n/a	n/a	feedback	s597
467.169	1.408	0	PA_without_intermediate	n/a	test	ward_and_allport	n/a	-1.0	42.0	n/a	n/a	ITI	s597
468.585	2.055	1	PA_without_intermediate	1,2,0,0,0,0,0,0,0	test	ward_and_allport	0,0,0,3,1,0,2,0,0	89.0	43.0	2.055	1,2,3,0,0,0,0,0,0	to_hand	s597
470.641	0.476	0	PA_without_intermediate	1,2,0,3,0,0,0,0,0	test	ward_and_allport	0,0,0,3,1,0,2,0,0	71.0	43.0	0.476	1,2,3,0,0,0,0,0,0	to_board	s597
471.123	0.592	0	PA_without_intermediate	1,0,0,3,0,0,0,0,0	test	ward_and_allport	0,0,0,3,1,0,2,0,0	89.0	43.0	0.592	1,2,3,0,0,0,0,0,0	to_hand	s597
471.716	0.544	0	PA_without_intermediate	1,0,0,3,0,0,2,0,0	test	ward_and_allport	0,0,0,3,1,0,2,0,0	82.0	43.0	0.544	1,2,3,0,0,0,0,0,0	to_board	s597
472.268	1.033	0	PA_without_intermediate	0,0,0,3,0,0,2,0,0	test	ward_and_allport	0,0,0,3,1,0,2,0,0	89.0	43.0	1.033	1,2,3,0,0,0,0,0,0	to_hand	s597
473.302	0.366	0	PA_without_intermediate	0,0,0,3,1,0,2,0,0	test	ward_and_allport	0,0,0,3,1,0,2,0,0	71.0	43.0	0.366	1,2,3,0,0,0,0,0,0	to_board	s597
473.675	1.0	0	PA_without_intermediate	n/a	test	ward_and_allport	n/a	-1.0	43.0	n/a	n/a	feedback	s597
474.675	1.0	0	PA_without_intermediate	n/a	test	ward_and_allport	n/a	-1.0	43.0	n/a	n/a	ITI	s597
475.682	3.349	1	PA_with_intermediate	1,2,0,0,0,0,0,0,0	test	ward_and_allport	1,3,0,2,0,0,0,0,0	89.0	44.0	3.349	1,2,3,0,0,0,0,0,0	to_hand	s597
479.032	0.371	0	PA_with_intermediate	1,2,0,0,0,0,3,0,0	test	ward_and_allport	1,3,0,2,0,0,0,0,0	82.0	44.0	0.371	1,2,3,0,0,0,0,0,0	to_board	s597
479.412	0.739	0	PA_with_intermediate	1,0,0,0,0,0,3,0,0	test	ward_and_allport	1,3,0,2,0,0,0,0,0	89.0	44.0	0.739	1,2,3,0,0,0,0,0,0	to_hand	s597
480.152	0.41	0	PA_with_intermediate	1,0,0,2,0,0,3,0,0	test	ward_and_allport	1,3,0,2,0,0,0,0,0	71.0	44.0	0.41	1,2,3,0,0,0,0,0,0	to_board	s597
480.568	0.628	0	PA_with_intermediate	1,0,0,2,0,0,0,0,0	test	ward_and_allport	1,3,0,2,0,0,0,0,0	82.0	44.0	0.628	1,2,3,0,0,0,0,0,0	to_hand	s597
481.198	0.359	0	PA_with_intermediate	1,3,0,2,0,0,0,0,0	test	ward_and_allport	1,3,0,2,0,0,0,0,0	89.0	44.0	0.359	1,2,3,0,0,0,0,0,0	to_board	s597
481.568	1.0	0	PA_with_intermediate	n/a	test	ward_and_allport	n/a	-1.0	44.0	n/a	n/a	feedback	s597
482.568	1.0	0	PA_with_intermediate	n/a	test	ward_and_allport	n/a	-1.0	44.0	n/a	n/a	ITI	s597
488.58	3.963	1	PA_with_intermediate	0,0,0,1,2,0,0,0,0	test	ward_and_allport	0,0,0,1,3,0,2,0,0	71.0	45.0	3.963	0,0,0,1,2,3,0,0,0	to_hand	s597
492.544	0.359	0	PA_with_intermediate	3,0,0,1,2,0,0,0,0	test	ward_and_allport	0,0,0,1,3,0,2,0,0	89.0	45.0	0.359	0,0,0,1,2,3,0,0,0	to_board	s597
492.913	0.385	0	PA_with_intermediate	3,0,0,1,0,0,0,0,0	test	ward_and_allport	0,0,0,1,3,0,2,0,0	71.0	45.0	0.385	0,0,0,1,2,3,0,0,0	to_hand	s597
493.299	0.4	0	PA_with_intermediate	3,0,0,1,0,0,2,0,0	test	ward_and_allport	0,0,0,1,3,0,2,0,0	82.0	45.0	0.4	0,0,0,1,2,3,0,0,0	to_board	s597
493.709	0.694	0	PA_with_intermediate	0,0,0,1,0,0,2,0,0	test	ward_and_allport	0,0,0,1,3,0,2,0,0	89.0	45.0	0.694	0,0,0,1,2,3,0,0,0	to_hand	s597
494.404	0.379	0	PA_with_intermediate	0,0,0,1,3,0,2,0,0	test	ward_and_allport	0,0,0,1,3,0,2,0,0	71.0	45.0	0.379	0,0,0,1,2,3,0,0,0	to_board	s597
494.795	1.0	0	PA_with_intermediate	n/a	test	ward_and_allport	n/a	-1.0	45.0	n/a	n/a	feedback	s597
495.795	1.0	0	PA_with_intermediate	n/a	test	ward_and_allport	n/a	-1.0	45.0	n/a	n/a	ITI	s597
496.802	4.085	1	PA_with_intermediate	1,2,0,0,0,0,0,0,0	test	ward_and_allport	1,3,0,0,0,0,2,0,0	89.0	46.0	4.085	1,2,3,0,0,0,0,0,0	to_hand	s597
500.888	0.39	0	PA_with_intermediate	1,2,0,3,0,0,0,0,0	test	ward_and_allport	1,3,0,0,0,0,2,0,0	71.0	46.0	0.39	1,2,3,0,0,0,0,0,0	to_board	s597
501.285	0.575	0	PA_with_intermediate	1,0,0,3,0,0,0,0,0	test	ward_and_allport	1,3,0,0,0,0,2,0,0	89.0	46.0	0.575	1,2,3,0,0,0,0,0,0	to_hand	s597
501.861	0.383	0	PA_with_intermediate	1,0,0,3,0,0,2,0,0	test	ward_and_allport	1,3,0,0,0,0,2,0,0	82.0	46.0	0.383	1,2,3,0,0,0,0,0,0	to_board	s597
502.253	0.605	0	PA_with_intermediate	1,0,0,0,0,0,2,0,0	test	ward_and_allport	1,3,0,0,0,0,2,0,0	71.0	46.0	0.605	1,2,3,0,0,0,0,0,0	to_hand	s597
502.86	0.315	0	PA_with_intermediate	1,3,0,0,0,0,2,0,0	test	ward_and_allport	1,3,0,0,0,0,2,0,0	89.0	46.0	0.315	1,2,3,0,0,0,0,0,0	to_board	s597
503.187	1.0	0	PA_with_intermediate	n/a	test	ward_and_allport	n/a	-1.0	46.0	n/a	n/a	feedback	s597
504.187	1.408	0	PA_with_intermediate	n/a	test	ward_and_allport	n/a	-1.0	46.0	n/a	n/a	ITI	s597
505.604	2.707	1	PA_without_intermediate	1,2,0,0,0,0,0,0,0	test	ward_and_allport	0,0,0,2,0,0,3,1,0	89.0	47.0	2.707	1,2,3,0,0,0,0,0,0	to_hand	s597
508.313	0.348	0	PA_without_intermediate	1,2,0,0,0,0,3,0,0	test	ward_and_allport	0,0,0,2,0,0,3,1,0	82.0	47.0	0.348	1,2,3,0,0,0,0,0,0	to_board	s597
508.667	0.659	0	PA_without_intermediate	1,0,0,0,0,0,3,0,0	test	ward_and_allport	0,0,0,2,0,0,3,1,0	89.0	47.0	0.659	1,2,3,0,0,0,0,0,0	to_hand	s597
509.327	0.426	0	PA_without_intermediate	1,0,0,2,0,0,3,0,0	test	ward_and_allport	0,0,0,2,0,0,3,1,0	71.0	47.0	0.426	1,2,3,0,0,0,0,0,0	to_board	s597
509.76	0.436	0	PA_without_intermediate	0,0,0,2,0,0,3,0,0	test	ward_and_allport	0,0,0,2,0,0,3,1,0	89.0	47.0	0.436	1,2,3,0,0,0,0,0,0	to_hand	s597
510.197	0.386	0	PA_without_intermediate	0,0,0,2,0,0,3,1,0	test	ward_and_allport	0,0,0,2,0,0,3,1,0	82.0	47.0	0.386	1,2,3,0,0,0,0,0,0	to_board	s597
510.592	1.0	0	PA_without_intermediate	n/a	test	ward_and_allport	n/a	-1.0	47.0	n/a	n/a	feedback	s597
511.592	1.816	0	PA_without_intermediate	n/a	test	ward_and_allport	n/a	-1.0	47.0	n/a	n/a	ITI	s597
n/a	n/a	0	n/a	n/a	n/a	n/a	n/a	n/a	n/a	n/a	n/a	ITI	n/a
