onset	duration	correct	correct_response	cue	experiment_exp_id	flanker_location	flanker_middle_direction	flanker_type	key_press	response_time	trial_id	worker_id
3.016	0.1	n/a	n/a	double	attention_network_task	n/a	n/a	n/a	-1	n/a	doublecue	s597
3.521864	1.7	1.0	71.0	n/a	attention_network_task	up	right	congruent	71	0.56	stim	s597
5.626	0.1	n/a	n/a	double	attention_network_task	n/a	n/a	n/a	-1	n/a	doublecue	s597
6.13	1.7	1.0	89.0	n/a	attention_network_task	down	left	incongruent	89	0.582	stim	s597
8.233	0.1	n/a	n/a	spatial	attention_network_task	n/a	n/a	n/a	-1	n/a	spatialcue	s597
8.738	1.7	1.0	89.0	n/a	attention_network_task	down	left	congruent	89	0.561	stim	s597
10.841	0.1	n/a	n/a	double	attention_network_task	n/a	n/a	n/a	-1	n/a	doublecue	s597
11.345592	1.7	1.0	89.0	n/a	attention_network_task	down	left	congruent	89	0.575	stim	s597
13.448	0.1	n/a	n/a	double	attention_network_task	n/a	n/a	n/a	-1	n/a	doublecue	s597
13.958456	1.7	1.0	89.0	n/a	attention_network_task	up	left	congruent	89	0.552	stim	s597
16.063	0.1	n/a	n/a	spatial	attention_network_task	n/a	n/a	n/a	-1	n/a	spatialcue	s597
16.566592	1.7	1.0	89.0	n/a	attention_network_task	down	left	incongruent	89	0.617	stim	s597
18.672	0.1	n/a	n/a	spatial	attention_network_task	n/a	n/a	n/a	-1	n/a	spatialcue	s597
19.175	1.7	1.0	71.0	n/a	attention_network_task	down	right	congruent	71	0.506	stim	s597
21.279	0.1	n/a	n/a	double	attention_network_task	n/a	n/a	n/a	-1	n/a	doublecue	s597
21.782592	1.7	1.0	89.0	n/a	attention_network_task	down	left	congruent	89	0.598	stim	s597
23.887	0.1	n/a	n/a	spatial	attention_network_task	n/a	n/a	n/a	-1	n/a	spatialcue	s597
24.391	1.7	1.0	71.0	n/a	attention_network_task	up	right	congruent	71	0.483	stim	s597
26.495	0.1	n/a	n/a	spatial	attention_network_task	n/a	n/a	n/a	-1	n/a	spatialcue	s597
27.004592	1.7	1.0	89.0	n/a	attention_network_task	down	left	congruent	89	0.481	stim	s597
29.109	0.1	n/a	n/a	spatial	attention_network_task	n/a	n/a	n/a	-1	n/a	spatialcue	s597
29.613	1.7	1.0	89.0	n/a	attention_network_task	up	left	incongruent	89	0.56	stim	s597
31.718	0.1	n/a	n/a	spatial	attention_network_task	n/a	n/a	n/a	-1	n/a	spatialcue	s597
32.226	1.7	0.0	89.0	n/a	attention_network_task	up	left	incongruent	71	0.485	stim	s597
34.329	0.1	n/a	n/a	spatial	attention_network_task	n/a	n/a	n/a	-1	n/a	spatialcue	s597
34.833591999999996	1.7	1.0	89.0	n/a	attention_network_task	down	left	incongruent	89	0.699	stim	s597
36.938	0.1	n/a	n/a	spatial	attention_network_task	n/a	n/a	n/a	-1	n/a	spatialcue	s597
37.441864	1.7	1.0	71.0	n/a	attention_network_task	up	right	incongruent	71	0.556	stim	s597
39.546	0.1	n/a	n/a	double	attention_network_task	n/a	n/a	n/a	-1	n/a	doublecue	s597
40.049728	1.7	1.0	89.0	n/a	attention_network_task	up	left	incongruent	89	0.582	stim	s597
42.153	0.1	n/a	n/a	double	attention_network_task	n/a	n/a	n/a	-1	n/a	doublecue	s597
42.657455999999996	1.7	1.0	71.0	n/a	attention_network_task	up	right	incongruent	71	0.573	stim	s597
44.762	0.1	n/a	n/a	spatial	attention_network_task	n/a	n/a	n/a	-1	n/a	spatialcue	s597
45.265728	1.7	1.0	89.0	n/a	attention_network_task	down	left	incongruent	89	0.57	stim	s597
47.37	0.1	n/a	n/a	spatial	attention_network_task	n/a	n/a	n/a	-1	n/a	spatialcue	s597
47.879	1.7	1.0	89.0	n/a	attention_network_task	up	left	incongruent	89	0.544	stim	s597
49.983	0.1	n/a	n/a	spatial	attention_network_task	n/a	n/a	n/a	-1	n/a	spatialcue	s597
50.486591999999995	1.7	1.0	89.0	n/a	attention_network_task	down	left	incongruent	89	0.542	stim	s597
52.591	0.1	n/a	n/a	spatial	attention_network_task	n/a	n/a	n/a	-1	n/a	spatialcue	s597
53.095	1.7	1.0	71.0	n/a	attention_network_task	up	right	congruent	71	0.508	stim	s597
55.199	0.1	n/a	n/a	double	attention_network_task	n/a	n/a	n/a	-1	n/a	doublecue	s597
55.703	1.7	1.0	89.0	n/a	attention_network_task	down	left	congruent	89	0.787	stim	s597
57.807	0.1	n/a	n/a	double	attention_network_task	n/a	n/a	n/a	-1	n/a	doublecue	s597
58.316455999999995	1.7	1.0	71.0	n/a	attention_network_task	up	right	incongruent	71	0.551	stim	s597
60.419	0.1	n/a	n/a	spatial	attention_network_task	n/a	n/a	n/a	-1	n/a	spatialcue	s597
60.929592	1.7	1.0	89.0	n/a	attention_network_task	down	left	congruent	89	0.473	stim	s597
63.033	0.1	n/a	n/a	spatial	attention_network_task	n/a	n/a	n/a	-1	n/a	spatialcue	s597
63.538	1.7	1.0	71.0	n/a	attention_network_task	up	right	congruent	71	0.799	stim	s597
65.642	0.1	n/a	n/a	spatial	attention_network_task	n/a	n/a	n/a	-1	n/a	spatialcue	s597
66.154864	1.7	1.0	89.0	n/a	attention_network_task	up	left	congruent	89	0.767	stim	s597
68.258	0.1	n/a	n/a	spatial	attention_network_task	n/a	n/a	n/a	-1	n/a	spatialcue	s597
68.764184	1.7	1.0	89.0	n/a	attention_network_task	up	left	incongruent	89	0.53	stim	s597
70.869	0.1	n/a	n/a	double	attention_network_task	n/a	n/a	n/a	-1	n/a	doublecue	s597
71.376864	1.7	1.0	89.0	n/a	attention_network_task	down	left	congruent	89	0.478	stim	s597
73.481	0.1	n/a	n/a	spatial	attention_network_task	n/a	n/a	n/a	-1	n/a	spatialcue	s597
73.986	1.7	1.0	89.0	n/a	attention_network_task	down	left	congruent	89	0.467	stim	s597
76.089	0.1	n/a	n/a	double	attention_network_task	n/a	n/a	n/a	-1	n/a	doublecue	s597
76.593864	1.7	1.0	71.0	n/a	attention_network_task	down	right	incongruent	71	0.733	stim	s597
78.697	0.1	n/a	n/a	spatial	attention_network_task	n/a	n/a	n/a	-1	n/a	spatialcue	s597
79.201864	1.7	1.0	71.0	n/a	attention_network_task	up	right	incongruent	71	0.486	stim	s597
81.306	0.1	n/a	n/a	double	attention_network_task	n/a	n/a	n/a	-1	n/a	doublecue	s597
81.809864	1.7	1.0	89.0	n/a	attention_network_task	up	left	incongruent	89	0.642	stim	s597
83.914	0.1	n/a	n/a	spatial	attention_network_task	n/a	n/a	n/a	-1	n/a	spatialcue	s597
84.417456	1.7	1.0	89.0	n/a	attention_network_task	up	left	congruent	89	0.686	stim	s597
86.522	0.1	n/a	n/a	spatial	attention_network_task	n/a	n/a	n/a	-1	n/a	spatialcue	s597
87.026	1.7	1.0	71.0	n/a	attention_network_task	down	right	congruent	71	0.847	stim	s597
89.13	0.1	n/a	n/a	double	attention_network_task	n/a	n/a	n/a	-1	n/a	doublecue	s597
89.63772800000001	1.7	1.0	89.0	n/a	attention_network_task	down	left	incongruent	89	0.607	stim	s597
91.743	0.1	n/a	n/a	spatial	attention_network_task	n/a	n/a	n/a	-1	n/a	spatialcue	s597
92.252	1.7	1.0	71.0	n/a	attention_network_task	down	right	congruent	71	1.004	stim	s597
94.355	0.1	n/a	n/a	spatial	attention_network_task	n/a	n/a	n/a	-1	n/a	spatialcue	s597
94.860864	1.7	1.0	89.0	n/a	attention_network_task	up	left	congruent	89	0.584	stim	s597
96.965	0.1	n/a	n/a	double	attention_network_task	n/a	n/a	n/a	-1	n/a	doublecue	s597
97.468592	1.7	1.0	71.0	n/a	attention_network_task	down	right	incongruent	71	0.585	stim	s597
99.572	0.1	n/a	n/a	double	attention_network_task	n/a	n/a	n/a	-1	n/a	doublecue	s597
100.07645600000001	1.7	1.0	89.0	n/a	attention_network_task	up	left	congruent	89	0.761	stim	s597
102.18	0.1	n/a	n/a	double	attention_network_task	n/a	n/a	n/a	-1	n/a	doublecue	s597
102.684	1.7	1.0	71.0	n/a	attention_network_task	down	right	incongruent	71	0.813	stim	s597
104.788	0.1	n/a	n/a	spatial	attention_network_task	n/a	n/a	n/a	-1	n/a	spatialcue	s597
105.292864	1.7	1.0	89.0	n/a	attention_network_task	down	left	incongruent	89	0.912	stim	s597
107.396	0.1	n/a	n/a	double	attention_network_task	n/a	n/a	n/a	-1	n/a	doublecue	s597
107.90586400000001	1.7	1.0	71.0	n/a	attention_network_task	up	right	incongruent	71	0.525	stim	s597
110.01	0.1	n/a	n/a	spatial	attention_network_task	n/a	n/a	n/a	-1	n/a	spatialcue	s597
110.513864	1.7	1.0	71.0	n/a	attention_network_task	up	right	incongruent	71	0.468	stim	s597
112.618	0.1	n/a	n/a	double	attention_network_task	n/a	n/a	n/a	-1	n/a	doublecue	s597
113.121864	1.7	1.0	89.0	n/a	attention_network_task	down	left	congruent	89	0.696	stim	s597
115.226	0.1	n/a	n/a	spatial	attention_network_task	n/a	n/a	n/a	-1	n/a	spatialcue	s597
115.72972800000001	1.7	1.0	89.0	n/a	attention_network_task	up	left	incongruent	89	0.569	stim	s597
117.833	0.1	n/a	n/a	spatial	attention_network_task	n/a	n/a	n/a	-1	n/a	spatialcue	s597
118.339864	1.7	1.0	71.0	n/a	attention_network_task	down	right	incongruent	71	0.566	stim	s597
120.444	0.1	n/a	n/a	spatial	attention_network_task	n/a	n/a	n/a	-1	n/a	spatialcue	s597
120.945592	1.7	1.0	71.0	n/a	attention_network_task	down	right	incongruent	71	0.651	stim	s597
123.05	0.1	n/a	n/a	double	attention_network_task	n/a	n/a	n/a	-1	n/a	doublecue	s597
123.559	1.7	1.0	89.0	n/a	attention_network_task	up	left	incongruent	89	0.606	stim	s597
125.663	0.1	n/a	n/a	double	attention_network_task	n/a	n/a	n/a	-1	n/a	doublecue	s597
126.168864	1.7	1.0	71.0	n/a	attention_network_task	down	right	congruent	71	0.565	stim	s597
128.273	0.1	n/a	n/a	spatial	attention_network_task	n/a	n/a	n/a	-1	n/a	spatialcue	s597
128.775	1.7	1.0	71.0	n/a	attention_network_task	down	right	congruent	71	0.687	stim	s597
130.879	0.1	n/a	n/a	double	attention_network_task	n/a	n/a	n/a	-1	n/a	doublecue	s597
131.382864	1.7	1.0	71.0	n/a	attention_network_task	down	right	incongruent	71	0.495	stim	s597
133.487	0.1	n/a	n/a	spatial	attention_network_task	n/a	n/a	n/a	-1	n/a	spatialcue	s597
133.990048	1.7	1.0	71.0	n/a	attention_network_task	up	right	congruent	71	0.522	stim	s597
136.095	0.1	n/a	n/a	double	attention_network_task	n/a	n/a	n/a	-1	n/a	doublecue	s597
136.598728	1.7	1.0	89.0	n/a	attention_network_task	down	left	congruent	89	0.816	stim	s597
138.703	0.1	n/a	n/a	double	attention_network_task	n/a	n/a	n/a	-1	n/a	doublecue	s597
139.207864	1.7	1.0	89.0	n/a	attention_network_task	up	left	congruent	89	0.508	stim	s597
141.312	0.1	n/a	n/a	double	attention_network_task	n/a	n/a	n/a	-1	n/a	doublecue	s597
141.815	1.7	1.0	89.0	n/a	attention_network_task	up	left	incongruent	89	0.92	stim	s597
143.919	0.1	n/a	n/a	spatial	attention_network_task	n/a	n/a	n/a	-1	n/a	spatialcue	s597
144.427864	1.7	1.0	71.0	n/a	attention_network_task	down	right	incongruent	71	0.557	stim	s597
146.532	0.1	n/a	n/a	double	attention_network_task	n/a	n/a	n/a	-1	n/a	doublecue	s597
147.037	1.7	1.0	71.0	n/a	attention_network_task	up	right	congruent	71	0.581	stim	s597
149.14	0.1	n/a	n/a	spatial	attention_network_task	n/a	n/a	n/a	-1	n/a	spatialcue	s597
149.644864	1.7	1.0	71.0	n/a	attention_network_task	down	right	incongruent	71	0.495	stim	s597
151.748	0.1	n/a	n/a	double	attention_network_task	n/a	n/a	n/a	-1	n/a	doublecue	s597
152.252728	1.7	1.0	89.0	n/a	attention_network_task	down	left	incongruent	89	0.555	stim	s597
154.357	0.1	n/a	n/a	spatial	attention_network_task	n/a	n/a	n/a	-1	n/a	spatialcue	s597
154.860728	1.7	1.0	89.0	n/a	attention_network_task	up	left	incongruent	89	0.658	stim	s597
156.964	0.1	n/a	n/a	double	attention_network_task	n/a	n/a	n/a	-1	n/a	doublecue	s597
157.468864	1.7	1.0	71.0	n/a	attention_network_task	down	right	congruent	71	0.541	stim	s597
159.572	0.1	n/a	n/a	double	attention_network_task	n/a	n/a	n/a	-1	n/a	doublecue	s597
160.077	1.7	1.0	71.0	n/a	attention_network_task	down	right	incongruent	71	0.668	stim	s597
162.18	0.1	n/a	n/a	double	attention_network_task	n/a	n/a	n/a	-1	n/a	doublecue	s597
162.684864	1.7	1.0	89.0	n/a	attention_network_task	up	left	incongruent	89	0.647	stim	s597
164.788	0.1	n/a	n/a	spatial	attention_network_task	n/a	n/a	n/a	-1	n/a	spatialcue	s597
165.293	1.7	1.0	89.0	n/a	attention_network_task	down	left	congruent	89	0.704	stim	s597
167.398	0.1	n/a	n/a	double	attention_network_task	n/a	n/a	n/a	-1	n/a	doublecue	s597
167.905728	1.7	1.0	89.0	n/a	attention_network_task	up	left	congruent	89	1.25	stim	s597
180.519	0.1	n/a	n/a	spatial	attention_network_task	n/a	n/a	n/a	-1	n/a	spatialcue	s597
181.025	1.7	1.0	89.0	n/a	attention_network_task	down	left	incongruent	89	0.571	stim	s597
183.129	0.1	n/a	n/a	spatial	attention_network_task	n/a	n/a	n/a	-1	n/a	spatialcue	s597
183.634	1.7	1.0	71.0	n/a	attention_network_task	down	right	incongruent	71	0.551	stim	s597
185.738	0.1	n/a	n/a	spatial	attention_network_task	n/a	n/a	n/a	-1	n/a	spatialcue	s597
186.241864	1.7	1.0	89.0	n/a	attention_network_task	up	left	congruent	89	0.465	stim	s597
188.346	0.1	n/a	n/a	spatial	attention_network_task	n/a	n/a	n/a	-1	n/a	spatialcue	s597
188.854728	1.7	1.0	71.0	n/a	attention_network_task	down	right	congruent	71	0.462	stim	s597
190.958	0.1	n/a	n/a	double	attention_network_task	n/a	n/a	n/a	-1	n/a	doublecue	s597
191.462592	1.7	1.0	71.0	n/a	attention_network_task	up	right	incongruent	71	0.509	stim	s597
193.566	0.1	n/a	n/a	double	attention_network_task	n/a	n/a	n/a	-1	n/a	doublecue	s597
194.071	1.7	1.0	71.0	n/a	attention_network_task	up	right	congruent	71	0.51	stim	s597
196.175	0.1	n/a	n/a	double	attention_network_task	n/a	n/a	n/a	-1	n/a	doublecue	s597
196.678864	1.7	1.0	89.0	n/a	attention_network_task	up	left	congruent	89	0.618	stim	s597
198.783	0.1	n/a	n/a	spatial	attention_network_task	n/a	n/a	n/a	-1	n/a	spatialcue	s597
199.286864	1.7	1.0	89.0	n/a	attention_network_task	up	left	congruent	89	0.497	stim	s597
201.391	0.1	n/a	n/a	double	attention_network_task	n/a	n/a	n/a	-1	n/a	doublecue	s597
201.895	1.7	1.0	71.0	n/a	attention_network_task	down	right	congruent	71	0.631	stim	s597
203.999	0.1	n/a	n/a	double	attention_network_task	n/a	n/a	n/a	-1	n/a	doublecue	s597
204.502592	1.7	1.0	89.0	n/a	attention_network_task	down	left	incongruent	89	0.608	stim	s597
206.607	0.1	n/a	n/a	spatial	attention_network_task	n/a	n/a	n/a	-1	n/a	spatialcue	s597
207.112456	1.7	1.0	71.0	n/a	attention_network_task	down	right	congruent	71	0.487	stim	s597
209.217	0.1	n/a	n/a	spatial	attention_network_task	n/a	n/a	n/a	-1	n/a	spatialcue	s597
209.718864	1.7	1.0	71.0	n/a	attention_network_task	up	right	congruent	71	0.615	stim	s597
211.823	0.1	n/a	n/a	spatial	attention_network_task	n/a	n/a	n/a	-1	n/a	spatialcue	s597
212.332864	1.7	1.0	71.0	n/a	attention_network_task	down	right	congruent	71	0.537	stim	s597
214.436	0.1	n/a	n/a	spatial	attention_network_task	n/a	n/a	n/a	-1	n/a	spatialcue	s597
214.943	1.7	1.0	89.0	n/a	attention_network_task	down	left	incongruent	89	0.523	stim	s597
217.047	0.1	n/a	n/a	double	attention_network_task	n/a	n/a	n/a	-1	n/a	doublecue	s597
217.556	1.7	1.0	71.0	n/a	attention_network_task	up	right	congruent	71	0.426	stim	s597
219.659	0.1	n/a	n/a	double	attention_network_task	n/a	n/a	n/a	-1	n/a	doublecue	s597
220.166864	1.7	1.0	89.0	n/a	attention_network_task	up	left	congruent	89	0.534	stim	s597
222.271	0.1	n/a	n/a	double	attention_network_task	n/a	n/a	n/a	-1	n/a	doublecue	s597
222.775	1.7	1.0	71.0	n/a	attention_network_task	down	right	congruent	71	0.442	stim	s597
224.879	0.1	n/a	n/a	double	attention_network_task	n/a	n/a	n/a	-1	n/a	doublecue	s597
225.382864	1.7	1.0	89.0	n/a	attention_network_task	up	left	congruent	89	0.373	stim	s597
227.487	0.1	n/a	n/a	double	attention_network_task	n/a	n/a	n/a	-1	n/a	doublecue	s597
227.997	1.7	1.0	71.0	n/a	attention_network_task	down	right	congruent	71	0.634	stim	s597
230.1	0.1	n/a	n/a	spatial	attention_network_task	n/a	n/a	n/a	-1	n/a	spatialcue	s597
230.60859200000002	1.7	1.0	71.0	n/a	attention_network_task	up	right	congruent	71	0.527	stim	s597
232.712	0.1	n/a	n/a	spatial	attention_network_task	n/a	n/a	n/a	-1	n/a	spatialcue	s597
233.218	1.7	1.0	89.0	n/a	attention_network_task	down	left	incongruent	89	0.606	stim	s597
235.321	0.1	n/a	n/a	double	attention_network_task	n/a	n/a	n/a	-1	n/a	doublecue	s597
235.825184	1.7	1.0	71.0	n/a	attention_network_task	down	right	incongruent	71	0.755	stim	s597
237.93	0.1	n/a	n/a	spatial	attention_network_task	n/a	n/a	n/a	-1	n/a	spatialcue	s597
238.43332	1.7	1.0	71.0	n/a	attention_network_task	down	right	congruent	71	0.904	stim	s597
240.539	0.1	n/a	n/a	spatial	attention_network_task	n/a	n/a	n/a	-1	n/a	spatialcue	s597
241.047	1.7	1.0	89.0	n/a	attention_network_task	up	left	congruent	89	0.517	stim	s597
243.151	0.1	n/a	n/a	spatial	attention_network_task	n/a	n/a	n/a	-1	n/a	spatialcue	s597
243.654864	1.7	1.0	71.0	n/a	attention_network_task	up	right	congruent	71	0.581	stim	s597
245.759	0.1	n/a	n/a	double	attention_network_task	n/a	n/a	n/a	-1	n/a	doublecue	s597
246.262864	1.7	1.0	89.0	n/a	attention_network_task	down	left	incongruent	89	0.718	stim	s597
248.367	0.1	n/a	n/a	double	attention_network_task	n/a	n/a	n/a	-1	n/a	doublecue	s597
248.870864	1.7	1.0	71.0	n/a	attention_network_task	up	right	incongruent	71	0.538	stim	s597
250.975	0.1	n/a	n/a	double	attention_network_task	n/a	n/a	n/a	-1	n/a	doublecue	s597
251.479	1.7	1.0	89.0	n/a	attention_network_task	up	left	incongruent	89	0.724	stim	s597
253.583	0.1	n/a	n/a	spatial	attention_network_task	n/a	n/a	n/a	-1	n/a	spatialcue	s597
254.086864	1.7	1.0	89.0	n/a	attention_network_task	up	left	incongruent	89	0.747	stim	s597
256.191	0.1	n/a	n/a	spatial	attention_network_task	n/a	n/a	n/a	-1	n/a	spatialcue	s597
256.694048	1.7	1.0	71.0	n/a	attention_network_task	down	right	incongruent	71	0.705	stim	s597
258.799	0.1	n/a	n/a	double	attention_network_task	n/a	n/a	n/a	-1	n/a	doublecue	s597
259.303864	1.7	1.0	89.0	n/a	attention_network_task	up	left	incongruent	89	0.678	stim	s597
261.408	0.1	n/a	n/a	double	attention_network_task	n/a	n/a	n/a	-1	n/a	doublecue	s597
261.917592	1.7	1.0	71.0	n/a	attention_network_task	up	right	incongruent	71	0.683	stim	s597
264.022	0.1	n/a	n/a	spatial	attention_network_task	n/a	n/a	n/a	-1	n/a	spatialcue	s597
264.526048	1.7	0.0	71.0	n/a	attention_network_task	up	right	incongruent	89	0.593	stim	s597
266.63	0.1	n/a	n/a	double	attention_network_task	n/a	n/a	n/a	-1	n/a	doublecue	s597
267.132864	1.7	1.0	71.0	n/a	attention_network_task	up	right	incongruent	71	0.52	stim	s597
269.236	0.1	n/a	n/a	double	attention_network_task	n/a	n/a	n/a	-1	n/a	doublecue	s597
269.742728	1.7	1.0	71.0	n/a	attention_network_task	up	right	incongruent	71	0.558	stim	s597
271.846	0.1	n/a	n/a	double	attention_network_task	n/a	n/a	n/a	-1	n/a	doublecue	s597
272.348728	1.7	1.0	71.0	n/a	attention_network_task	down	right	incongruent	71	0.613	stim	s597
274.452	0.1	n/a	n/a	double	attention_network_task	n/a	n/a	n/a	-1	n/a	doublecue	s597
274.962	1.7	1.0	71.0	n/a	attention_network_task	up	right	congruent	71	0.5	stim	s597
277.065	0.1	n/a	n/a	spatial	attention_network_task	n/a	n/a	n/a	-1	n/a	spatialcue	s597
277.57	1.7	1.0	71.0	n/a	attention_network_task	down	right	incongruent	71	0.585	stim	s597
279.674	0.1	n/a	n/a	spatial	attention_network_task	n/a	n/a	n/a	-1	n/a	spatialcue	s597
280.177728	1.7	1.0	89.0	n/a	attention_network_task	down	left	congruent	89	0.706	stim	s597
282.281	0.1	n/a	n/a	spatial	attention_network_task	n/a	n/a	n/a	-1	n/a	spatialcue	s597
282.786	1.7	1.0	89.0	n/a	attention_network_task	down	left	congruent	89	0.433	stim	s597
284.89	0.1	n/a	n/a	spatial	attention_network_task	n/a	n/a	n/a	-1	n/a	spatialcue	s597
285.394	1.7	1.0	71.0	n/a	attention_network_task	up	right	incongruent	71	0.632	stim	s597
287.498	0.1	n/a	n/a	double	attention_network_task	n/a	n/a	n/a	-1	n/a	doublecue	s597
288.006728	1.7	1.0	89.0	n/a	attention_network_task	up	left	congruent	89	0.668	stim	s597
290.111	0.1	n/a	n/a	spatial	attention_network_task	n/a	n/a	n/a	-1	n/a	spatialcue	s597
290.615	1.7	1.0	71.0	n/a	attention_network_task	up	right	incongruent	71	0.549	stim	s597
292.719	0.1	n/a	n/a	spatial	attention_network_task	n/a	n/a	n/a	-1	n/a	spatialcue	s597
293.227864	1.7	1.0	89.0	n/a	attention_network_task	down	left	congruent	89	0.722	stim	s597
295.33	0.1	n/a	n/a	spatial	attention_network_task	n/a	n/a	n/a	-1	n/a	spatialcue	s597
295.836728	1.7	1.0	89.0	n/a	attention_network_task	up	left	congruent	89	1.253	stim	s597
297.94	0.1	n/a	n/a	spatial	attention_network_task	n/a	n/a	n/a	-1	n/a	spatialcue	s597
298.448	1.7	1.0	89.0	n/a	attention_network_task	up	left	congruent	89	0.878	stim	s597
300.552	0.1	n/a	n/a	double	attention_network_task	n/a	n/a	n/a	-1	n/a	doublecue	s597
301.059	1.7	0.0	89.0	n/a	attention_network_task	up	left	incongruent	71	0.609	stim	s597
303.163	0.1	n/a	n/a	double	attention_network_task	n/a	n/a	n/a	-1	n/a	doublecue	s597
303.671	1.7	1.0	71.0	n/a	attention_network_task	up	right	congruent	71	0.567	stim	s597
305.775	0.1	n/a	n/a	spatial	attention_network_task	n/a	n/a	n/a	-1	n/a	spatialcue	s597
306.279	1.7	1.0	89.0	n/a	attention_network_task	up	left	incongruent	89	0.575	stim	s597
308.382	0.1	n/a	n/a	double	attention_network_task	n/a	n/a	n/a	-1	n/a	doublecue	s597
308.887	1.7	1.0	71.0	n/a	attention_network_task	down	right	congruent	71	0.763	stim	s597
310.991	0.1	n/a	n/a	spatial	attention_network_task	n/a	n/a	n/a	-1	n/a	spatialcue	s597
311.495	1.7	1.0	71.0	n/a	attention_network_task	up	right	incongruent	71	1.167	stim	s597
313.599	0.1	n/a	n/a	double	attention_network_task	n/a	n/a	n/a	-1	n/a	doublecue	s597
314.102728	1.7	1.0	89.0	n/a	attention_network_task	down	left	congruent	89	0.723	stim	s597
316.207	0.1	n/a	n/a	double	attention_network_task	n/a	n/a	n/a	-1	n/a	doublecue	s597
316.716864	1.7	1.0	89.0	n/a	attention_network_task	down	left	incongruent	89	0.776	stim	s597
318.818	0.1	n/a	n/a	double	attention_network_task	n/a	n/a	n/a	-1	n/a	doublecue	s597
319.326912	1.7	0.0	89.0	n/a	attention_network_task	down	left	incongruent	71	0.554	stim	s597
321.431	0.1	n/a	n/a	spatial	attention_network_task	n/a	n/a	n/a	-1	n/a	spatialcue	s597
321.937728	1.7	1.0	71.0	n/a	attention_network_task	up	right	congruent	71	0.676	stim	s597
324.041	0.1	n/a	n/a	spatial	attention_network_task	n/a	n/a	n/a	-1	n/a	spatialcue	s597
324.549864	1.7	1.0	71.0	n/a	attention_network_task	down	right	congruent	71	0.697	stim	s597
326.653	0.1	n/a	n/a	double	attention_network_task	n/a	n/a	n/a	-1	n/a	doublecue	s597
327.158864	1.7	1.0	71.0	n/a	attention_network_task	down	right	congruent	71	0.704	stim	s597
329.263	0.1	n/a	n/a	double	attention_network_task	n/a	n/a	n/a	-1	n/a	doublecue	s597
329.767	1.7	1.0	89.0	n/a	attention_network_task	down	left	congruent	89	0.684	stim	s597
331.871	0.1	n/a	n/a	spatial	attention_network_task	n/a	n/a	n/a	-1	n/a	spatialcue	s597
332.375	1.7	1.0	71.0	n/a	attention_network_task	down	right	incongruent	71	0.533	stim	s597
334.479	0.1	n/a	n/a	spatial	attention_network_task	n/a	n/a	n/a	-1	n/a	spatialcue	s597
334.989	1.7	1.0	71.0	n/a	attention_network_task	down	right	congruent	71	0.481	stim	s597
337.09	0.1	n/a	n/a	double	attention_network_task	n/a	n/a	n/a	-1	n/a	doublecue	s597
337.597	1.7	1.0	71.0	n/a	attention_network_task	down	right	incongruent	71	0.536	stim	s597
339.701	0.1	n/a	n/a	spatial	attention_network_task	n/a	n/a	n/a	-1	n/a	spatialcue	s597
340.209864	1.7	1.0	71.0	n/a	attention_network_task	up	right	incongruent	71	0.797	stim	s597
342.313	0.1	n/a	n/a	double	attention_network_task	n/a	n/a	n/a	-1	n/a	doublecue	s597
342.819728	1.7	1.0	89.0	n/a	attention_network_task	down	left	incongruent	89	0.549	stim	s597
344.924	0.1	n/a	n/a	spatial	attention_network_task	n/a	n/a	n/a	-1	n/a	spatialcue	s597
345.425864	1.7	1.0	89.0	n/a	attention_network_task	up	left	congruent	89	0.509	stim	s597
