onset	duration	planning	condition	current_position	exp_stage	experiment_exp_id	goal_state	key_press	problem_id	response_time	start_state	trial_id	worker_id
-58.72	0.0	0	n/a	n/a	n/a	ward_and_allport	n/a	32.0	n/a	22.536	n/a	instructions	s624
3.005	3.861	1	UA_with_intermediate	1,0,0,2,0,0,0,0,0	practice	ward_and_allport	1,2,3,0,0,0,0,0,0	71.0	0.0	3.861	1,0,0,2,3,0,0,0,0	to_hand	s624
6.868	0.218	0	UA_with_intermediate	1,0,0,2,0,0,3,0,0	practice	ward_and_allport	1,2,3,0,0,0,0,0,0	82.0	0.0	0.218	1,0,0,2,3,0,0,0,0	to_board	s624
7.088	0.305	0	UA_with_intermediate	1,0,0,0,0,0,3,0,0	practice	ward_and_allport	1,2,3,0,0,0,0,0,0	71.0	0.0	0.305	1,0,0,2,3,0,0,0,0	to_hand	s624
7.394	0.33	0	UA_with_intermediate	1,2,0,0,0,0,3,0,0	practice	ward_and_allport	1,2,3,0,0,0,0,0,0	89.0	0.0	0.33	1,0,0,2,3,0,0,0,0	to_board	s624
7.726	0.657	0	UA_with_intermediate	1,2,0,0,0,0,0,0,0	practice	ward_and_allport	1,2,3,0,0,0,0,0,0	82.0	0.0	0.657	1,0,0,2,3,0,0,0,0	to_hand	s624
8.384	0.222	0	UA_with_intermediate	1,2,3,0,0,0,0,0,0	practice	ward_and_allport	1,2,3,0,0,0,0,0,0	89.0	0.0	0.222	1,0,0,2,3,0,0,0,0	to_board	s624
8.61	1.0	0	UA_with_intermediate	n/a	practice	ward_and_allport	n/a	-1.0	0.0	n/a	n/a	feedback	s624
11.111	3.854	1	UA_with_intermediate	1,0,0,3,0,0,0,0,0	practice	ward_and_allport	1,3,2,0,0,0,0,0,0	89.0	1.0	3.854	1,2,0,3,0,0,0,0,0	to_hand	s624
14.967	0.224	0	UA_with_intermediate	1,0,0,3,0,0,2,0,0	practice	ward_and_allport	1,3,2,0,0,0,0,0,0	82.0	1.0	0.224	1,2,0,3,0,0,0,0,0	to_board	s624
15.194	0.305	0	UA_with_intermediate	1,0,0,0,0,0,2,0,0	practice	ward_and_allport	1,3,2,0,0,0,0,0,0	71.0	1.0	0.305	1,2,0,3,0,0,0,0,0	to_hand	s624
15.5	0.275	0	UA_with_intermediate	1,3,0,0,0,0,2,0,0	practice	ward_and_allport	1,3,2,0,0,0,0,0,0	89.0	1.0	0.275	1,2,0,3,0,0,0,0,0	to_board	s624
15.777	0.459	0	UA_with_intermediate	1,3,0,0,0,0,0,0,0	practice	ward_and_allport	1,3,2,0,0,0,0,0,0	82.0	1.0	0.459	1,2,0,3,0,0,0,0,0	to_hand	s624
16.238	0.198	0	UA_with_intermediate	1,3,2,0,0,0,0,0,0	practice	ward_and_allport	1,3,2,0,0,0,0,0,0	89.0	1.0	0.198	1,2,0,3,0,0,0,0,0	to_board	s624
16.438	1.0	0	UA_with_intermediate	n/a	practice	ward_and_allport	n/a	-1.0	1.0	n/a	n/a	feedback	s624
17.438	1.1	0	UA_with_intermediate	n/a	practice	ward_and_allport	n/a	-1.0	1.0	n/a	n/a	ITI	s624
18.539	6.51	1	UA_without_intermediate	0,0,0,1,0,0,3,0,0	practice	ward_and_allport	3,2,1,0,0,0,0,0,0	71.0	2.0	6.51	0,0,0,1,2,0,3,0,0	to_hand	s624
25.05	0.255	0	UA_without_intermediate	2,0,0,1,0,0,3,0,0	practice	ward_and_allport	3,2,1,0,0,0,0,0,0	89.0	2.0	0.255	0,0,0,1,2,0,3,0,0	to_board	s624
25.306	0.871	0	UA_without_intermediate	2,0,0,0,0,0,3,0,0	practice	ward_and_allport	3,2,1,0,0,0,0,0,0	71.0	2.0	0.871	0,0,0,1,2,0,3,0,0	to_hand	s624
26.179	0.482	0	UA_without_intermediate	2,0,0,0,0,0,3,1,0	practice	ward_and_allport	3,2,1,0,0,0,0,0,0	82.0	2.0	0.482	0,0,0,1,2,0,3,0,0	to_board	s624
26.662	0.568	0	UA_without_intermediate	2,0,0,0,0,0,3,0,0	practice	ward_and_allport	3,2,1,0,0,0,0,0,0	82.0	2.0	0.568	0,0,0,1,2,0,3,0,0	to_hand	s624
27.231	0.314	0	UA_without_intermediate	2,1,0,0,0,0,3,0,0	practice	ward_and_allport	3,2,1,0,0,0,0,0,0	89.0	2.0	0.314	0,0,0,1,2,0,3,0,0	to_board	s624
27.547	0.462	0	UA_without_intermediate	2,1,0,0,0,0,0,0,0	practice	ward_and_allport	3,2,1,0,0,0,0,0,0	82.0	2.0	0.462	0,0,0,1,2,0,3,0,0	to_hand	s624
28.011	0.34	0	UA_without_intermediate	2,1,0,3,0,0,0,0,0	practice	ward_and_allport	3,2,1,0,0,0,0,0,0	71.0	2.0	0.34	0,0,0,1,2,0,3,0,0	to_board	s624
28.353	0.681	0	UA_without_intermediate	2,0,0,3,0,0,0,0,0	practice	ward_and_allport	3,2,1,0,0,0,0,0,0	89.0	2.0	0.681	0,0,0,1,2,0,3,0,0	to_hand	s624
29.034	0.909	0	UA_without_intermediate	2,0,0,3,0,0,1,0,0	practice	ward_and_allport	3,2,1,0,0,0,0,0,0	82.0	2.0	0.909	0,0,0,1,2,0,3,0,0	to_board	s624
29.945	0.336	0	UA_without_intermediate	0,0,0,3,0,0,1,0,0	practice	ward_and_allport	3,2,1,0,0,0,0,0,0	89.0	2.0	0.336	0,0,0,1,2,0,3,0,0	to_hand	s624
30.283	0.273	0	UA_without_intermediate	0,0,0,3,2,0,1,0,0	practice	ward_and_allport	3,2,1,0,0,0,0,0,0	71.0	2.0	0.273	0,0,0,1,2,0,3,0,0	to_board	s624
30.558	0.311	0	UA_without_intermediate	0,0,0,3,2,0,0,0,0	practice	ward_and_allport	3,2,1,0,0,0,0,0,0	82.0	2.0	0.311	0,0,0,1,2,0,3,0,0	to_hand	s624
30.869	0.245	0	UA_without_intermediate	0,0,0,3,2,1,0,0,0	practice	ward_and_allport	3,2,1,0,0,0,0,0,0	71.0	2.0	0.245	0,0,0,1,2,0,3,0,0	to_board	s624
31.116	1.676	0	UA_without_intermediate	0,0,0,3,2,0,0,0,0	practice	ward_and_allport	3,2,1,0,0,0,0,0,0	71.0	2.0	1.676	0,0,0,1,2,0,3,0,0	to_hand	s624
32.794	0.275	0	UA_without_intermediate	0,0,0,3,2,0,1,0,0	practice	ward_and_allport	3,2,1,0,0,0,0,0,0	82.0	2.0	0.275	0,0,0,1,2,0,3,0,0	to_board	s624
33.071	1.556	0	UA_without_intermediate	0,0,0,3,0,0,1,0,0	practice	ward_and_allport	3,2,1,0,0,0,0,0,0	71.0	2.0	1.556	0,0,0,1,2,0,3,0,0	to_hand	s624
34.628	0.447	0	UA_without_intermediate	0,0,0,3,0,0,1,2,0	practice	ward_and_allport	3,2,1,0,0,0,0,0,0	82.0	2.0	0.447	0,0,0,1,2,0,3,0,0	to_board	s624
35.077	0.878	0	UA_without_intermediate	0,0,0,0,0,0,1,2,0	practice	ward_and_allport	3,2,1,0,0,0,0,0,0	71.0	2.0	0.878	0,0,0,1,2,0,3,0,0	to_hand	s624
35.956	0.52	0	UA_without_intermediate	3,0,0,0,0,0,1,2,0	practice	ward_and_allport	3,2,1,0,0,0,0,0,0	89.0	2.0	0.52	0,0,0,1,2,0,3,0,0	to_board	s624
36.478	1.166	0	UA_without_intermediate	3,0,0,0,0,0,1,0,0	practice	ward_and_allport	3,2,1,0,0,0,0,0,0	82.0	2.0	1.166	0,0,0,1,2,0,3,0,0	to_hand	s624
37.645	0.357	0	UA_without_intermediate	3,2,0,0,0,0,1,0,0	practice	ward_and_allport	3,2,1,0,0,0,0,0,0	89.0	2.0	0.357	0,0,0,1,2,0,3,0,0	to_board	s624
38.005	0.528	0	UA_without_intermediate	3,2,0,0,0,0,0,0,0	practice	ward_and_allport	3,2,1,0,0,0,0,0,0	82.0	2.0	0.528	0,0,0,1,2,0,3,0,0	to_hand	s624
38.534	0.296	0	UA_without_intermediate	3,2,1,0,0,0,0,0,0	practice	ward_and_allport	3,2,1,0,0,0,0,0,0	89.0	2.0	0.296	0,0,0,1,2,0,3,0,0	to_board	s624
38.832	1.0	0	UA_without_intermediate	n/a	practice	ward_and_allport	n/a	-1.0	2.0	n/a	n/a	feedback	s624
39.832	1.2	0	UA_without_intermediate	n/a	practice	ward_and_allport	n/a	-1.0	2.0	n/a	n/a	ITI	s624
41.034	3.936	1	UA_without_intermediate	0,0,0,1,0,0,3,0,0	practice	ward_and_allport	2,3,1,0,0,0,0,0,0	71.0	3.0	3.936	0,0,0,1,2,0,3,0,0	to_hand	s624
44.972	0.175	0	UA_without_intermediate	2,0,0,1,0,0,3,0,0	practice	ward_and_allport	2,3,1,0,0,0,0,0,0	89.0	3.0	0.175	0,0,0,1,2,0,3,0,0	to_board	s624
45.151	0.278	0	UA_without_intermediate	2,0,0,1,0,0,0,0,0	practice	ward_and_allport	2,3,1,0,0,0,0,0,0	82.0	3.0	0.278	0,0,0,1,2,0,3,0,0	to_hand	s624
45.43	0.399	0	UA_without_intermediate	2,3,0,1,0,0,0,0,0	practice	ward_and_allport	2,3,1,0,0,0,0,0,0	89.0	3.0	0.399	0,0,0,1,2,0,3,0,0	to_board	s624
45.832	0.487	0	UA_without_intermediate	2,3,0,0,0,0,0,0,0	practice	ward_and_allport	2,3,1,0,0,0,0,0,0	71.0	3.0	0.487	0,0,0,1,2,0,3,0,0	to_hand	s624
46.321	0.203	0	UA_without_intermediate	2,3,1,0,0,0,0,0,0	practice	ward_and_allport	2,3,1,0,0,0,0,0,0	89.0	3.0	0.203	0,0,0,1,2,0,3,0,0	to_board	s624
46.527	1.0	0	UA_without_intermediate	n/a	practice	ward_and_allport	n/a	-1.0	3.0	n/a	n/a	feedback	s624
47.527	1.0	0	UA_without_intermediate	n/a	practice	ward_and_allport	n/a	-1.0	3.0	n/a	n/a	ITI	s624
50.53	5.123	1	PA_with_intermediate	1,2,0,0,0,0,0,0,0	test	ward_and_allport	1,0,0,2,3,0,0,0,0	89.0	0.0	5.123	1,2,3,0,0,0,0,0,0	to_hand	s624
55.654	0.206	0	PA_with_intermediate	1,2,0,0,0,0,3,0,0	test	ward_and_allport	1,0,0,2,3,0,0,0,0	82.0	0.0	0.206	1,2,3,0,0,0,0,0,0	to_board	s624
55.862	1.228	0	PA_with_intermediate	1,0,0,0,0,0,3,0,0	test	ward_and_allport	1,0,0,2,3,0,0,0,0	89.0	0.0	1.228	1,2,3,0,0,0,0,0,0	to_hand	s624
57.092	0.284	0	PA_with_intermediate	1,0,0,2,0,0,3,0,0	test	ward_and_allport	1,0,0,2,3,0,0,0,0	71.0	0.0	0.284	1,2,3,0,0,0,0,0,0	to_board	s624
57.379	0.333	0	PA_with_intermediate	1,0,0,2,0,0,0,0,0	test	ward_and_allport	1,0,0,2,3,0,0,0,0	82.0	0.0	0.333	1,2,3,0,0,0,0,0,0	to_hand	s624
57.713	0.354	0	PA_with_intermediate	1,0,0,2,3,0,0,0,0	test	ward_and_allport	1,0,0,2,3,0,0,0,0	71.0	0.0	0.354	1,2,3,0,0,0,0,0,0	to_board	s624
58.07	1.0	0	PA_with_intermediate	n/a	test	ward_and_allport	n/a	-1.0	0.0	n/a	n/a	feedback	s624
59.07	1.408	0	PA_with_intermediate	n/a	test	ward_and_allport	n/a	-1.0	0.0	n/a	n/a	ITI	s624
60.481	4.785	1	PA_without_intermediate	0,0,0,0,0,0,1,2,0	test	ward_and_allport	2,0,0,3,1,0,0,0,0	82.0	1.0	4.785	0,0,0,0,0,0,1,2,3	to_hand	s624
65.267	0.254	0	PA_without_intermediate	0,0,0,3,0,0,1,2,0	test	ward_and_allport	2,0,0,3,1,0,0,0,0	71.0	1.0	0.254	0,0,0,0,0,0,1,2,3	to_board	s624
65.524	0.465	0	PA_without_intermediate	0,0,0,3,0,0,1,0,0	test	ward_and_allport	2,0,0,3,1,0,0,0,0	82.0	1.0	0.465	0,0,0,0,0,0,1,2,3	to_hand	s624
65.99	0.209	0	PA_without_intermediate	2,0,0,3,0,0,1,0,0	test	ward_and_allport	2,0,0,3,1,0,0,0,0	89.0	1.0	0.209	0,0,0,0,0,0,1,2,3	to_board	s624
66.202	0.667	0	PA_without_intermediate	2,0,0,3,0,0,0,0,0	test	ward_and_allport	2,0,0,3,1,0,0,0,0	82.0	1.0	0.667	0,0,0,0,0,0,1,2,3	to_hand	s624
66.87	0.192	0	PA_without_intermediate	2,0,0,3,1,0,0,0,0	test	ward_and_allport	2,0,0,3,1,0,0,0,0	71.0	1.0	0.192	0,0,0,0,0,0,1,2,3	to_board	s624
67.065	1.0	0	PA_without_intermediate	n/a	test	ward_and_allport	n/a	-1.0	1.0	n/a	n/a	feedback	s624
68.065	1.68	0	PA_without_intermediate	n/a	test	ward_and_allport	n/a	-1.0	1.0	n/a	n/a	ITI	s624
69.747	6.091	1	PA_with_intermediate	0,0,0,0,0,0,1,2,0	test	ward_and_allport	2,3,0,0,0,0,1,0,0	82.0	2.0	6.091	0,0,0,0,0,0,1,2,3	to_hand	s624
75.839	0.28	0	PA_with_intermediate	0,0,0,3,0,0,1,2,0	test	ward_and_allport	2,3,0,0,0,0,1,0,0	71.0	2.0	0.28	0,0,0,0,0,0,1,2,3	to_board	s624
76.123	0.372	0	PA_with_intermediate	0,0,0,3,0,0,1,0,0	test	ward_and_allport	2,3,0,0,0,0,1,0,0	82.0	2.0	0.372	0,0,0,0,0,0,1,2,3	to_hand	s624
76.497	0.247	0	PA_with_intermediate	2,0,0,3,0,0,1,0,0	test	ward_and_allport	2,3,0,0,0,0,1,0,0	89.0	2.0	0.247	0,0,0,0,0,0,1,2,3	to_board	s624
76.746	0.295	0	PA_with_intermediate	2,0,0,0,0,0,1,0,0	test	ward_and_allport	2,3,0,0,0,0,1,0,0	71.0	2.0	0.295	0,0,0,0,0,0,1,2,3	to_hand	s624
77.043	0.227	0	PA_with_intermediate	2,3,0,0,0,0,1,0,0	test	ward_and_allport	2,3,0,0,0,0,1,0,0	89.0	2.0	0.227	0,0,0,0,0,0,1,2,3	to_board	s624
77.274	1.0	0	PA_with_intermediate	n/a	test	ward_and_allport	n/a	-1.0	2.0	n/a	n/a	feedback	s624
78.274	3.72	0	PA_with_intermediate	n/a	test	ward_and_allport	n/a	-1.0	2.0	n/a	n/a	ITI	s624
81.996	3.582	1	PA_without_intermediate	1,2,0,0,0,0,0,0,0	test	ward_and_allport	0,0,0,3,2,0,1,0,0	89.0	3.0	3.582	1,2,3,0,0,0,0,0,0	to_hand	s624
85.579	0.205	0	PA_without_intermediate	1,2,0,3,0,0,0,0,0	test	ward_and_allport	0,0,0,3,2,0,1,0,0	71.0	3.0	0.205	1,2,3,0,0,0,0,0,0	to_board	s624
85.788	0.424	0	PA_without_intermediate	1,0,0,3,0,0,0,0,0	test	ward_and_allport	0,0,0,3,2,0,1,0,0	89.0	3.0	0.424	1,2,3,0,0,0,0,0,0	to_hand	s624
86.212	0.25	0	PA_without_intermediate	1,0,0,3,2,0,0,0,0	test	ward_and_allport	0,0,0,3,2,0,1,0,0	71.0	3.0	0.25	1,2,3,0,0,0,0,0,0	to_board	s624
86.465	0.445	0	PA_without_intermediate	1,0,0,3,0,0,0,0,0	test	ward_and_allport	0,0,0,3,2,0,1,0,0	71.0	3.0	0.445	1,2,3,0,0,0,0,0,0	to_hand	s624
86.911	0.053	0	PA_without_intermediate	1,2,0,3,0,0,0,0,0	test	ward_and_allport	0,0,0,3,2,0,1,0,0	89.0	3.0	0.053	1,2,3,0,0,0,0,0,0	to_board	s624
86.967	0.783	0	PA_without_intermediate	1,0,0,3,0,0,0,0,0	test	ward_and_allport	0,0,0,3,2,0,1,0,0	89.0	3.0	0.783	1,2,3,0,0,0,0,0,0	to_hand	s624
87.752	0.16	0	PA_without_intermediate	1,0,0,3,2,0,0,0,0	test	ward_and_allport	0,0,0,3,2,0,1,0,0	71.0	3.0	0.16	1,2,3,0,0,0,0,0,0	to_board	s624
87.915	0.31	0	PA_without_intermediate	0,0,0,3,2,0,0,0,0	test	ward_and_allport	0,0,0,3,2,0,1,0,0	89.0	3.0	0.31	1,2,3,0,0,0,0,0,0	to_hand	s624
88.226	0.204	0	PA_without_intermediate	0,0,0,3,2,0,1,0,0	test	ward_and_allport	0,0,0,3,2,0,1,0,0	82.0	3.0	0.204	1,2,3,0,0,0,0,0,0	to_board	s624
88.433	1.0	0	PA_without_intermediate	n/a	test	ward_and_allport	n/a	-1.0	3.0	n/a	n/a	feedback	s624
89.433	2.224	0	PA_without_intermediate	n/a	test	ward_and_allport	n/a	-1.0	3.0	n/a	n/a	ITI	s624
91.66	4.966	1	PA_without_intermediate	0,0,0,0,0,0,1,2,0	test	ward_and_allport	3,1,0,2,0,0,0,0,0	82.0	4.0	4.966	0,0,0,0,0,0,1,2,3	to_hand	s624
96.627	0.237	0	PA_without_intermediate	3,0,0,0,0,0,1,2,0	test	ward_and_allport	3,1,0,2,0,0,0,0,0	89.0	4.0	0.237	0,0,0,0,0,0,1,2,3	to_board	s624
96.868	1.121	0	PA_without_intermediate	3,0,0,0,0,0,1,0,0	test	ward_and_allport	3,1,0,2,0,0,0,0,0	82.0	4.0	1.121	0,0,0,0,0,0,1,2,3	to_hand	s624
97.99	0.25	0	PA_without_intermediate	3,0,0,2,0,0,1,0,0	test	ward_and_allport	3,1,0,2,0,0,0,0,0	71.0	4.0	0.25	0,0,0,0,0,0,1,2,3	to_board	s624
98.243	0.365	0	PA_without_intermediate	3,0,0,2,0,0,0,0,0	test	ward_and_allport	3,1,0,2,0,0,0,0,0	82.0	4.0	0.365	0,0,0,0,0,0,1,2,3	to_hand	s624
98.609	0.26	0	PA_without_intermediate	3,1,0,2,0,0,0,0,0	test	ward_and_allport	3,1,0,2,0,0,0,0,0	89.0	4.0	0.26	0,0,0,0,0,0,1,2,3	to_board	s624
98.872	1.0	0	PA_without_intermediate	n/a	test	ward_and_allport	n/a	-1.0	4.0	n/a	n/a	feedback	s624
99.872	1.272	0	PA_without_intermediate	n/a	test	ward_and_allport	n/a	-1.0	4.0	n/a	n/a	ITI	s624
101.149	4.678	1	PA_with_intermediate	0,0,0,0,0,0,1,2,0	test	ward_and_allport	2,0,0,0,0,0,1,3,0	82.0	5.0	4.678	0,0,0,0,0,0,1,2,3	to_hand	s624
105.828	0.241	0	PA_with_intermediate	0,0,0,3,0,0,1,2,0	test	ward_and_allport	2,0,0,0,0,0,1,3,0	71.0	5.0	0.241	0,0,0,0,0,0,1,2,3	to_board	s624
106.072	0.381	0	PA_with_intermediate	0,0,0,3,0,0,1,0,0	test	ward_and_allport	2,0,0,0,0,0,1,3,0	82.0	5.0	0.381	0,0,0,0,0,0,1,2,3	to_hand	s624
106.454	0.262	0	PA_with_intermediate	2,0,0,3,0,0,1,0,0	test	ward_and_allport	2,0,0,0,0,0,1,3,0	89.0	5.0	0.262	0,0,0,0,0,0,1,2,3	to_board	s624
106.72	0.634	0	PA_with_intermediate	2,0,0,0,0,0,1,0,0	test	ward_and_allport	2,0,0,0,0,0,1,3,0	71.0	5.0	0.634	0,0,0,0,0,0,1,2,3	to_hand	s624
107.355	0.26	0	PA_with_intermediate	2,0,0,0,0,0,1,3,0	test	ward_and_allport	2,0,0,0,0,0,1,3,0	82.0	5.0	0.26	0,0,0,0,0,0,1,2,3	to_board	s624
107.619	1.0	0	PA_with_intermediate	n/a	test	ward_and_allport	n/a	-1.0	5.0	n/a	n/a	feedback	s624
108.619	2.632	0	PA_with_intermediate	n/a	test	ward_and_allport	n/a	-1.0	5.0	n/a	n/a	ITI	s624
111.254	5.162	1	PA_without_intermediate	1,2,0,0,0,0,0,0,0	test	ward_and_allport	0,0,0,1,0,0,3,2,0	89.0	6.0	5.162	1,2,3,0,0,0,0,0,0	to_hand	s624
116.418	0.204	0	PA_without_intermediate	1,2,0,0,0,0,3,0,0	test	ward_and_allport	0,0,0,1,0,0,3,2,0	82.0	6.0	0.204	1,2,3,0,0,0,0,0,0	to_board	s624
116.626	0.625	0	PA_without_intermediate	1,0,0,0,0,0,3,0,0	test	ward_and_allport	0,0,0,1,0,0,3,2,0	89.0	6.0	0.625	1,2,3,0,0,0,0,0,0	to_hand	s624
117.252	0.315	0	PA_without_intermediate	1,0,0,0,0,0,3,2,0	test	ward_and_allport	0,0,0,1,0,0,3,2,0	82.0	6.0	0.315	1,2,3,0,0,0,0,0,0	to_board	s624
117.57	0.269	0	PA_without_intermediate	0,0,0,0,0,0,3,2,0	test	ward_and_allport	0,0,0,1,0,0,3,2,0	89.0	6.0	0.269	1,2,3,0,0,0,0,0,0	to_hand	s624
117.84	0.189	0	PA_without_intermediate	0,0,0,1,0,0,3,2,0	test	ward_and_allport	0,0,0,1,0,0,3,2,0	71.0	6.0	0.189	1,2,3,0,0,0,0,0,0	to_board	s624
118.033	1.0	0	PA_without_intermediate	n/a	test	ward_and_allport	n/a	-1.0	6.0	n/a	n/a	feedback	s624
119.033	1.408	0	PA_without_intermediate	n/a	test	ward_and_allport	n/a	-1.0	6.0	n/a	n/a	ITI	s624
120.445	4.082	1	PA_without_intermediate	0,0,0,0,0,0,1,2,0	test	ward_and_allport	1,0,0,3,2,0,0,0,0	82.0	7.0	4.082	0,0,0,0,0,0,1,2,3	to_hand	s624
124.528	0.253	0	PA_without_intermediate	0,0,0,3,0,0,1,2,0	test	ward_and_allport	1,0,0,3,2,0,0,0,0	71.0	7.0	0.253	0,0,0,0,0,0,1,2,3	to_board	s624
124.784	0.238	0	PA_without_intermediate	0,0,0,3,0,0,1,0,0	test	ward_and_allport	1,0,0,3,2,0,0,0,0	82.0	7.0	0.238	0,0,0,0,0,0,1,2,3	to_hand	s624
125.023	0.205	0	PA_without_intermediate	0,0,0,3,2,0,1,0,0	test	ward_and_allport	1,0,0,3,2,0,0,0,0	71.0	7.0	0.205	0,0,0,0,0,0,1,2,3	to_board	s624
125.233	0.557	0	PA_without_intermediate	0,0,0,3,2,0,0,0,0	test	ward_and_allport	1,0,0,3,2,0,0,0,0	82.0	7.0	0.557	0,0,0,0,0,0,1,2,3	to_hand	s624
125.791	0.139	0	PA_without_intermediate	1,0,0,3,2,0,0,0,0	test	ward_and_allport	1,0,0,3,2,0,0,0,0	89.0	7.0	0.139	0,0,0,0,0,0,1,2,3	to_board	s624
125.934	1.0	0	PA_without_intermediate	n/a	test	ward_and_allport	n/a	-1.0	7.0	n/a	n/a	feedback	s624
126.934	1.0	0	PA_without_intermediate	n/a	test	ward_and_allport	n/a	-1.0	7.0	n/a	n/a	ITI	s624
127.939	3.371	1	PA_with_intermediate	0,0,0,0,0,0,1,2,0	test	ward_and_allport	2,0,0,0,0,0,1,3,0	82.0	8.0	3.371	0,0,0,0,0,0,1,2,3	to_hand	s624
131.31	0.202	0	PA_with_intermediate	0,0,0,3,0,0,1,2,0	test	ward_and_allport	2,0,0,0,0,0,1,3,0	71.0	8.0	0.202	0,0,0,0,0,0,1,2,3	to_board	s624
131.517	0.291	0	PA_with_intermediate	0,0,0,3,0,0,1,0,0	test	ward_and_allport	2,0,0,0,0,0,1,3,0	82.0	8.0	0.291	0,0,0,0,0,0,1,2,3	to_hand	s624
131.809	0.241	0	PA_with_intermediate	2,0,0,3,0,0,1,0,0	test	ward_and_allport	2,0,0,0,0,0,1,3,0	89.0	8.0	0.241	0,0,0,0,0,0,1,2,3	to_board	s624
132.054	0.499	0	PA_with_intermediate	2,0,0,0,0,0,1,0,0	test	ward_and_allport	2,0,0,0,0,0,1,3,0	71.0	8.0	0.499	0,0,0,0,0,0,1,2,3	to_hand	s624
132.555	0.239	0	PA_with_intermediate	2,0,0,0,0,0,1,3,0	test	ward_and_allport	2,0,0,0,0,0,1,3,0	82.0	8.0	0.239	0,0,0,0,0,0,1,2,3	to_board	s624
132.799	1.0	0	PA_with_intermediate	n/a	test	ward_and_allport	n/a	-1.0	8.0	n/a	n/a	feedback	s624
133.799	1.0	0	PA_with_intermediate	n/a	test	ward_and_allport	n/a	-1.0	8.0	n/a	n/a	ITI	s624
134.803	4.276	1	PA_with_intermediate	0,0,0,1,2,0,0,0,0	test	ward_and_allport	0,0,0,1,3,0,2,0,0	71.0	9.0	4.276	0,0,0,1,2,3,0,0,0	to_hand	s624
139.081	0.167	0	PA_with_intermediate	3,0,0,1,2,0,0,0,0	test	ward_and_allport	0,0,0,1,3,0,2,0,0	89.0	9.0	0.167	0,0,0,1,2,3,0,0,0	to_board	s624
139.253	0.332	0	PA_with_intermediate	3,0,0,1,0,0,0,0,0	test	ward_and_allport	0,0,0,1,3,0,2,0,0	71.0	9.0	0.332	0,0,0,1,2,3,0,0,0	to_hand	s624
139.586	0.249	0	PA_with_intermediate	3,0,0,1,0,0,2,0,0	test	ward_and_allport	0,0,0,1,3,0,2,0,0	82.0	9.0	0.249	0,0,0,1,2,3,0,0,0	to_board	s624
139.839	0.384	0	PA_with_intermediate	0,0,0,1,0,0,2,0,0	test	ward_and_allport	0,0,0,1,3,0,2,0,0	89.0	9.0	0.384	0,0,0,1,2,3,0,0,0	to_hand	s624
140.224	0.22	0	PA_with_intermediate	0,0,0,1,3,0,2,0,0	test	ward_and_allport	0,0,0,1,3,0,2,0,0	71.0	9.0	0.22	0,0,0,1,2,3,0,0,0	to_board	s624
140.449	1.0	0	PA_with_intermediate	n/a	test	ward_and_allport	n/a	-1.0	9.0	n/a	n/a	feedback	s624
141.449	1.0	0	PA_with_intermediate	n/a	test	ward_and_allport	n/a	-1.0	9.0	n/a	n/a	ITI	s624
142.453	4.23	1	PA_with_intermediate	0,0,0,0,0,0,1,2,0	test	ward_and_allport	0,0,0,2,0,0,1,3,0	82.0	10.0	4.23	0,0,0,0,0,0,1,2,3	to_hand	s624
146.685	0.225	0	PA_with_intermediate	3,0,0,0,0,0,1,2,0	test	ward_and_allport	0,0,0,2,0,0,1,3,0	89.0	10.0	0.225	0,0,0,0,0,0,1,2,3	to_board	s624
146.914	0.378	0	PA_with_intermediate	3,0,0,0,0,0,1,0,0	test	ward_and_allport	0,0,0,2,0,0,1,3,0	82.0	10.0	0.378	0,0,0,0,0,0,1,2,3	to_hand	s624
147.293	0.175	0	PA_with_intermediate	3,0,0,2,0,0,1,0,0	test	ward_and_allport	0,0,0,2,0,0,1,3,0	71.0	10.0	0.175	0,0,0,0,0,0,1,2,3	to_board	s624
147.472	0.31	0	PA_with_intermediate	0,0,0,2,0,0,1,0,0	test	ward_and_allport	0,0,0,2,0,0,1,3,0	89.0	10.0	0.31	0,0,0,0,0,0,1,2,3	to_hand	s624
147.783	0.244	0	PA_with_intermediate	0,0,0,2,0,0,1,3,0	test	ward_and_allport	0,0,0,2,0,0,1,3,0	82.0	10.0	0.244	0,0,0,0,0,0,1,2,3	to_board	s624
148.031	1.0	0	PA_with_intermediate	n/a	test	ward_and_allport	n/a	-1.0	10.0	n/a	n/a	feedback	s624
149.031	1.408	0	PA_with_intermediate	n/a	test	ward_and_allport	n/a	-1.0	10.0	n/a	n/a	ITI	s624
150.444	3.839	1	PA_without_intermediate	1,2,0,0,0,0,0,0,0	test	ward_and_allport	0,0,0,3,2,0,1,0,0	89.0	11.0	3.839	1,2,3,0,0,0,0,0,0	to_hand	s624
154.284	0.162	0	PA_without_intermediate	1,2,0,3,0,0,0,0,0	test	ward_and_allport	0,0,0,3,2,0,1,0,0	71.0	11.0	0.162	1,2,3,0,0,0,0,0,0	to_board	s624
154.451	0.25	0	PA_without_intermediate	1,0,0,3,0,0,0,0,0	test	ward_and_allport	0,0,0,3,2,0,1,0,0	89.0	11.0	0.25	1,2,3,0,0,0,0,0,0	to_hand	s624
154.702	0.245	0	PA_without_intermediate	1,0,0,3,2,0,0,0,0	test	ward_and_allport	0,0,0,3,2,0,1,0,0	71.0	11.0	0.245	1,2,3,0,0,0,0,0,0	to_board	s624
154.952	0.348	0	PA_without_intermediate	0,0,0,3,2,0,0,0,0	test	ward_and_allport	0,0,0,3,2,0,1,0,0	89.0	11.0	0.348	1,2,3,0,0,0,0,0,0	to_hand	s624
155.301	0.189	0	PA_without_intermediate	0,0,0,3,2,0,1,0,0	test	ward_and_allport	0,0,0,3,2,0,1,0,0	82.0	11.0	0.189	1,2,3,0,0,0,0,0,0	to_board	s624
155.496	1.0	0	PA_without_intermediate	n/a	test	ward_and_allport	n/a	-1.0	11.0	n/a	n/a	feedback	s624
156.496	1.816	0	PA_without_intermediate	n/a	test	ward_and_allport	n/a	-1.0	11.0	n/a	n/a	ITI	s624
158.316	3.682	1	PA_with_intermediate	0,0,0,1,2,0,0,0,0	test	ward_and_allport	2,3,0,1,0,0,0,0,0	71.0	12.0	3.682	0,0,0,1,2,3,0,0,0	to_hand	s624
162.0	0.187	0	PA_with_intermediate	0,0,0,1,2,0,3,0,0	test	ward_and_allport	2,3,0,1,0,0,0,0,0	82.0	12.0	0.187	0,0,0,1,2,3,0,0,0	to_board	s624
162.195	0.311	0	PA_with_intermediate	0,0,0,1,0,0,3,0,0	test	ward_and_allport	2,3,0,1,0,0,0,0,0	71.0	12.0	0.311	0,0,0,1,2,3,0,0,0	to_hand	s624
162.507	0.205	0	PA_with_intermediate	2,0,0,1,0,0,3,0,0	test	ward_and_allport	2,3,0,1,0,0,0,0,0	89.0	12.0	0.205	0,0,0,1,2,3,0,0,0	to_board	s624
162.716	0.254	0	PA_with_intermediate	2,0,0,1,0,0,0,0,0	test	ward_and_allport	2,3,0,1,0,0,0,0,0	82.0	12.0	0.254	0,0,0,1,2,3,0,0,0	to_hand	s624
162.971	0.208	0	PA_with_intermediate	2,0,0,1,3,0,0,0,0	test	ward_and_allport	2,3,0,1,0,0,0,0,0	71.0	12.0	0.208	0,0,0,1,2,3,0,0,0	to_board	s624
163.183	0.059	0	PA_with_intermediate	0,0,0,1,3,0,0,0,0	test	ward_and_allport	2,3,0,1,0,0,0,0,0	89.0	12.0	0.059	0,0,0,1,2,3,0,0,0	to_hand	s624
163.243	1.474	0	PA_with_intermediate	2,0,0,1,3,0,0,0,0	test	ward_and_allport	2,3,0,1,0,0,0,0,0	89.0	12.0	1.474	0,0,0,1,2,3,0,0,0	to_board	s624
164.721	0.452	0	PA_with_intermediate	2,0,0,1,0,0,0,0,0	test	ward_and_allport	2,3,0,1,0,0,0,0,0	71.0	12.0	0.452	0,0,0,1,2,3,0,0,0	to_hand	s624
165.174	0.199	0	PA_with_intermediate	2,3,0,1,0,0,0,0,0	test	ward_and_allport	2,3,0,1,0,0,0,0,0	89.0	12.0	0.199	0,0,0,1,2,3,0,0,0	to_board	s624
165.38	1.0	0	PA_with_intermediate	n/a	test	ward_and_allport	n/a	-1.0	12.0	n/a	n/a	feedback	s624
166.38	3.176	0	PA_with_intermediate	n/a	test	ward_and_allport	n/a	-1.0	12.0	n/a	n/a	ITI	s624
169.561	3.38	1	PA_with_intermediate	1,2,0,0,0,0,0,0,0	test	ward_and_allport	1,3,0,2,0,0,0,0,0	89.0	13.0	3.38	1,2,3,0,0,0,0,0,0	to_hand	s624
172.941	0.184	0	PA_with_intermediate	1,2,0,0,0,0,3,0,0	test	ward_and_allport	1,3,0,2,0,0,0,0,0	82.0	13.0	0.184	1,2,3,0,0,0,0,0,0	to_board	s624
173.13	0.202	0	PA_with_intermediate	1,0,0,0,0,0,3,0,0	test	ward_and_allport	1,3,0,2,0,0,0,0,0	89.0	13.0	0.202	1,2,3,0,0,0,0,0,0	to_hand	s624
173.333	0.181	0	PA_with_intermediate	1,0,0,2,0,0,3,0,0	test	ward_and_allport	1,3,0,2,0,0,0,0,0	71.0	13.0	0.181	1,2,3,0,0,0,0,0,0	to_board	s624
173.519	0.564	0	PA_with_intermediate	1,0,0,2,0,0,0,0,0	test	ward_and_allport	1,3,0,2,0,0,0,0,0	82.0	13.0	0.564	1,2,3,0,0,0,0,0,0	to_hand	s624
174.083	0.138	0	PA_with_intermediate	1,3,0,2,0,0,0,0,0	test	ward_and_allport	1,3,0,2,0,0,0,0,0	89.0	13.0	0.138	1,2,3,0,0,0,0,0,0	to_board	s624
174.226	1.0	0	PA_with_intermediate	n/a	test	ward_and_allport	n/a	-1.0	13.0	n/a	n/a	feedback	s624
175.226	2.36	0	PA_with_intermediate	n/a	test	ward_and_allport	n/a	-1.0	13.0	n/a	n/a	ITI	s624
177.591	4.545	1	PA_with_intermediate	0,0,0,0,0,0,1,2,0	test	ward_and_allport	2,3,0,0,0,0,1,0,0	82.0	14.0	4.545	0,0,0,0,0,0,1,2,3	to_hand	s624
182.137	0.255	0	PA_with_intermediate	0,0,0,3,0,0,1,2,0	test	ward_and_allport	2,3,0,0,0,0,1,0,0	71.0	14.0	0.255	0,0,0,0,0,0,1,2,3	to_board	s624
182.398	0.225	0	PA_with_intermediate	0,0,0,3,0,0,1,0,0	test	ward_and_allport	2,3,0,0,0,0,1,0,0	82.0	14.0	0.225	0,0,0,0,0,0,1,2,3	to_hand	s624
182.624	0.251	0	PA_with_intermediate	2,0,0,3,0,0,1,0,0	test	ward_and_allport	2,3,0,0,0,0,1,0,0	89.0	14.0	0.251	0,0,0,0,0,0,1,2,3	to_board	s624
182.88	0.258	0	PA_with_intermediate	2,0,0,0,0,0,1,0,0	test	ward_and_allport	2,3,0,0,0,0,1,0,0	71.0	14.0	0.258	0,0,0,0,0,0,1,2,3	to_hand	s624
183.139	0.209	0	PA_with_intermediate	2,3,0,0,0,0,1,0,0	test	ward_and_allport	2,3,0,0,0,0,1,0,0	89.0	14.0	0.209	0,0,0,0,0,0,1,2,3	to_board	s624
183.353	1.0	0	PA_with_intermediate	n/a	test	ward_and_allport	n/a	-1.0	14.0	n/a	n/a	feedback	s624
184.353	1.0	0	PA_with_intermediate	n/a	test	ward_and_allport	n/a	-1.0	14.0	n/a	n/a	ITI	s624
190.359	6.657	1	PA_without_intermediate	0,0,0,0,0,0,1,2,0	test	ward_and_allport	3,2,0,1,0,0,0,0,0	82.0	15.0	6.657	0,0,0,0,0,0,1,2,3	to_hand	s624
197.018	0.185	0	PA_without_intermediate	3,0,0,0,0,0,1,2,0	test	ward_and_allport	3,2,0,1,0,0,0,0,0	89.0	15.0	0.185	0,0,0,0,0,0,1,2,3	to_board	s624
197.207	0.338	0	PA_without_intermediate	3,0,0,0,0,0,1,0,0	test	ward_and_allport	3,2,0,1,0,0,0,0,0	82.0	15.0	0.338	0,0,0,0,0,0,1,2,3	to_hand	s624
197.547	0.199	0	PA_without_intermediate	3,2,0,0,0,0,1,0,0	test	ward_and_allport	3,2,0,1,0,0,0,0,0	89.0	15.0	0.199	0,0,0,0,0,0,1,2,3	to_board	s624
197.75	0.604	0	PA_without_intermediate	3,2,0,0,0,0,0,0,0	test	ward_and_allport	3,2,0,1,0,0,0,0,0	82.0	15.0	0.604	0,0,0,0,0,0,1,2,3	to_hand	s624
198.356	0.158	0	PA_without_intermediate	3,2,0,1,0,0,0,0,0	test	ward_and_allport	3,2,0,1,0,0,0,0,0	71.0	15.0	0.158	0,0,0,0,0,0,1,2,3	to_board	s624
198.52	1.0	0	PA_without_intermediate	n/a	test	ward_and_allport	n/a	-1.0	15.0	n/a	n/a	feedback	s624
199.52	1.408	0	PA_without_intermediate	n/a	test	ward_and_allport	n/a	-1.0	15.0	n/a	n/a	ITI	s624
200.933	7.712	1	PA_with_intermediate	0,0,0,1,2,0,0,0,0	test	ward_and_allport	0,0,0,1,3,0,2,0,0	71.0	16.0	7.712	0,0,0,1,2,3,0,0,0	to_hand	s624
208.646	0.147	0	PA_with_intermediate	3,0,0,1,2,0,0,0,0	test	ward_and_allport	0,0,0,1,3,0,2,0,0	89.0	16.0	0.147	0,0,0,1,2,3,0,0,0	to_board	s624
208.798	0.467	0	PA_with_intermediate	3,0,0,1,0,0,0,0,0	test	ward_and_allport	0,0,0,1,3,0,2,0,0	71.0	16.0	0.467	0,0,0,1,2,3,0,0,0	to_hand	s624
209.266	0.202	0	PA_with_intermediate	3,0,0,1,0,0,2,0,0	test	ward_and_allport	0,0,0,1,3,0,2,0,0	82.0	16.0	0.202	0,0,0,1,2,3,0,0,0	to_board	s624
209.473	0.279	0	PA_with_intermediate	0,0,0,1,0,0,2,0,0	test	ward_and_allport	0,0,0,1,3,0,2,0,0	89.0	16.0	0.279	0,0,0,1,2,3,0,0,0	to_hand	s624
209.754	0.165	0	PA_with_intermediate	0,0,0,1,3,0,2,0,0	test	ward_and_allport	0,0,0,1,3,0,2,0,0	71.0	16.0	0.165	0,0,0,1,2,3,0,0,0	to_board	s624
209.924	1.0	0	PA_with_intermediate	n/a	test	ward_and_allport	n/a	-1.0	16.0	n/a	n/a	feedback	s624
210.924	1.816	0	PA_with_intermediate	n/a	test	ward_and_allport	n/a	-1.0	16.0	n/a	n/a	ITI	s624
212.745	3.313	1	PA_without_intermediate	0,0,0,1,2,0,0,0,0	test	ward_and_allport	3,1,0,0,0,0,2,0,0	71.0	17.0	3.313	0,0,0,1,2,3,0,0,0	to_hand	s624
216.059	0.16	0	PA_without_intermediate	3,0,0,1,2,0,0,0,0	test	ward_and_allport	3,1,0,0,0,0,2,0,0	89.0	17.0	0.16	0,0,0,1,2,3,0,0,0	to_board	s624
216.225	0.293	0	PA_without_intermediate	3,0,0,1,0,0,0,0,0	test	ward_and_allport	3,1,0,0,0,0,2,0,0	71.0	17.0	0.293	0,0,0,1,2,3,0,0,0	to_hand	s624
216.519	0.19	0	PA_without_intermediate	3,0,0,1,0,0,2,0,0	test	ward_and_allport	3,1,0,0,0,0,2,0,0	82.0	17.0	0.19	0,0,0,1,2,3,0,0,0	to_board	s624
216.716	0.272	0	PA_without_intermediate	3,0,0,0,0,0,2,0,0	test	ward_and_allport	3,1,0,0,0,0,2,0,0	71.0	17.0	0.272	0,0,0,1,2,3,0,0,0	to_hand	s624
216.989	0.165	0	PA_without_intermediate	3,1,0,0,0,0,2,0,0	test	ward_and_allport	3,1,0,0,0,0,2,0,0	89.0	17.0	0.165	0,0,0,1,2,3,0,0,0	to_board	s624
217.161	1.0	0	PA_without_intermediate	n/a	test	ward_and_allport	n/a	-1.0	17.0	n/a	n/a	feedback	s624
218.161	2.088	0	PA_without_intermediate	n/a	test	ward_and_allport	n/a	-1.0	17.0	n/a	n/a	ITI	s624
220.254	3.791	1	PA_without_intermediate	0,0,0,0,0,0,1,2,0	test	ward_and_allport	2,0,0,3,1,0,0,0,0	82.0	18.0	3.791	0,0,0,0,0,0,1,2,3	to_hand	s624
224.046	0.251	0	PA_without_intermediate	0,0,0,3,0,0,1,2,0	test	ward_and_allport	2,0,0,3,1,0,0,0,0	71.0	18.0	0.251	0,0,0,0,0,0,1,2,3	to_board	s624
224.303	0.266	0	PA_without_intermediate	0,0,0,3,0,0,1,0,0	test	ward_and_allport	2,0,0,3,1,0,0,0,0	82.0	18.0	0.266	0,0,0,0,0,0,1,2,3	to_hand	s624
224.57	0.199	0	PA_without_intermediate	2,0,0,3,0,0,1,0,0	test	ward_and_allport	2,0,0,3,1,0,0,0,0	89.0	18.0	0.199	0,0,0,0,0,0,1,2,3	to_board	s624
224.775	0.257	0	PA_without_intermediate	2,0,0,3,0,0,0,0,0	test	ward_and_allport	2,0,0,3,1,0,0,0,0	82.0	18.0	0.257	0,0,0,0,0,0,1,2,3	to_hand	s624
225.033	0.206	0	PA_without_intermediate	2,0,0,3,1,0,0,0,0	test	ward_and_allport	2,0,0,3,1,0,0,0,0	71.0	18.0	0.206	0,0,0,0,0,0,1,2,3	to_board	s624
225.246	1.0	0	PA_without_intermediate	n/a	test	ward_and_allport	n/a	-1.0	18.0	n/a	n/a	feedback	s624
226.246	1.136	0	PA_without_intermediate	n/a	test	ward_and_allport	n/a	-1.0	18.0	n/a	n/a	ITI	s624
227.388	3.066	1	PA_without_intermediate	1,2,0,0,0,0,0,0,0	test	ward_and_allport	0,0,0,2,0,0,3,1,0	89.0	19.0	3.066	1,2,3,0,0,0,0,0,0	to_hand	s624
230.455	0.15	0	PA_without_intermediate	1,2,0,0,0,0,3,0,0	test	ward_and_allport	0,0,0,2,0,0,3,1,0	82.0	19.0	0.15	1,2,3,0,0,0,0,0,0	to_board	s624
230.612	0.591	0	PA_without_intermediate	1,0,0,0,0,0,3,0,0	test	ward_and_allport	0,0,0,2,0,0,3,1,0	89.0	19.0	0.591	1,2,3,0,0,0,0,0,0	to_hand	s624
231.203	0.136	0	PA_without_intermediate	1,0,0,2,0,0,3,0,0	test	ward_and_allport	0,0,0,2,0,0,3,1,0	71.0	19.0	0.136	1,2,3,0,0,0,0,0,0	to_board	s624
231.345	0.362	0	PA_without_intermediate	0,0,0,2,0,0,3,0,0	test	ward_and_allport	0,0,0,2,0,0,3,1,0	89.0	19.0	0.362	1,2,3,0,0,0,0,0,0	to_hand	s624
231.709	0.188	0	PA_without_intermediate	1,0,0,2,0,0,3,0,0	test	ward_and_allport	0,0,0,2,0,0,3,1,0	89.0	19.0	0.188	1,2,3,0,0,0,0,0,0	to_board	s624
231.906	0.154	0	PA_without_intermediate	1,0,0,2,0,0,0,0,0	test	ward_and_allport	0,0,0,2,0,0,3,1,0	82.0	19.0	0.154	1,2,3,0,0,0,0,0,0	to_hand	s624
232.061	0.979	0	PA_without_intermediate	1,0,0,2,0,0,3,0,0	test	ward_and_allport	0,0,0,2,0,0,3,1,0	82.0	19.0	0.979	1,2,3,0,0,0,0,0,0	to_board	s624
233.047	0.336	0	PA_without_intermediate	0,0,0,2,0,0,3,0,0	test	ward_and_allport	0,0,0,2,0,0,3,1,0	89.0	19.0	0.336	1,2,3,0,0,0,0,0,0	to_hand	s624
233.385	0.255	0	PA_without_intermediate	0,0,0,2,0,0,3,1,0	test	ward_and_allport	0,0,0,2,0,0,3,1,0	82.0	19.0	0.255	1,2,3,0,0,0,0,0,0	to_board	s624
233.647	1.0	0	PA_without_intermediate	n/a	test	ward_and_allport	n/a	-1.0	19.0	n/a	n/a	feedback	s624
234.647	6.168	0	PA_without_intermediate	n/a	test	ward_and_allport	n/a	-1.0	19.0	n/a	n/a	ITI	s624
240.822	3.452	1	PA_without_intermediate	0,0,0,1,2,0,0,0,0	test	ward_and_allport	1,0,0,0,0,0,3,2,0	71.0	20.0	3.452	0,0,0,1,2,3,0,0,0	to_hand	s624
244.275	0.204	0	PA_without_intermediate	0,0,0,1,2,0,3,0,0	test	ward_and_allport	1,0,0,0,0,0,3,2,0	82.0	20.0	0.204	0,0,0,1,2,3,0,0,0	to_board	s624
244.486	0.509	0	PA_without_intermediate	0,0,0,1,0,0,3,0,0	test	ward_and_allport	1,0,0,0,0,0,3,2,0	71.0	20.0	0.509	0,0,0,1,2,3,0,0,0	to_hand	s624
244.996	0.19	0	PA_without_intermediate	0,0,0,1,0,0,3,2,0	test	ward_and_allport	1,0,0,0,0,0,3,2,0	82.0	20.0	0.19	0,0,0,1,2,3,0,0,0	to_board	s624
245.193	0.411	0	PA_without_intermediate	0,0,0,0,0,0,3,2,0	test	ward_and_allport	1,0,0,0,0,0,3,2,0	71.0	20.0	0.411	0,0,0,1,2,3,0,0,0	to_hand	s624
245.605	0.396	0	PA_without_intermediate	1,0,0,0,0,0,3,2,0	test	ward_and_allport	1,0,0,0,0,0,3,2,0	89.0	20.0	0.396	0,0,0,1,2,3,0,0,0	to_board	s624
246.008	1.0	0	PA_without_intermediate	n/a	test	ward_and_allport	n/a	-1.0	20.0	n/a	n/a	feedback	s624
247.008	1.816	0	PA_without_intermediate	n/a	test	ward_and_allport	n/a	-1.0	20.0	n/a	n/a	ITI	s624
248.831	4.012	1	PA_with_intermediate	0,0,0,1,2,0,0,0,0	test	ward_and_allport	2,0,0,1,3,0,0,0,0	71.0	21.0	4.012	0,0,0,1,2,3,0,0,0	to_hand	s624
252.844	0.179	0	PA_with_intermediate	0,0,0,1,2,0,3,0,0	test	ward_and_allport	2,0,0,1,3,0,0,0,0	82.0	21.0	0.179	0,0,0,1,2,3,0,0,0	to_board	s624
253.03	0.147	0	PA_with_intermediate	0,0,0,1,0,0,3,0,0	test	ward_and_allport	2,0,0,1,3,0,0,0,0	71.0	21.0	0.147	0,0,0,1,2,3,0,0,0	to_hand	s624
253.178	0.235	0	PA_with_intermediate	2,0,0,1,0,0,3,0,0	test	ward_and_allport	2,0,0,1,3,0,0,0,0	89.0	21.0	0.235	0,0,0,1,2,3,0,0,0	to_board	s624
253.42	0.346	0	PA_with_intermediate	2,0,0,1,0,0,0,0,0	test	ward_and_allport	2,0,0,1,3,0,0,0,0	82.0	21.0	0.346	0,0,0,1,2,3,0,0,0	to_hand	s624
253.767	0.228	0	PA_with_intermediate	2,0,0,1,3,0,0,0,0	test	ward_and_allport	2,0,0,1,3,0,0,0,0	71.0	21.0	0.228	0,0,0,1,2,3,0,0,0	to_board	s624
254.003	1.0	0	PA_with_intermediate	n/a	test	ward_and_allport	n/a	-1.0	21.0	n/a	n/a	feedback	s624
255.003	1.952	0	PA_with_intermediate	n/a	test	ward_and_allport	n/a	-1.0	21.0	n/a	n/a	ITI	s624
256.962	2.832	1	PA_with_intermediate	0,0,0,1,2,0,0,0,0	test	ward_and_allport	2,3,0,1,0,0,0,0,0	71.0	22.0	2.832	0,0,0,1,2,3,0,0,0	to_hand	s624
259.794	0.215	0	PA_with_intermediate	0,0,0,1,2,0,3,0,0	test	ward_and_allport	2,3,0,1,0,0,0,0,0	82.0	22.0	0.215	0,0,0,1,2,3,0,0,0	to_board	s624
260.016	0.216	0	PA_with_intermediate	0,0,0,1,0,0,3,0,0	test	ward_and_allport	2,3,0,1,0,0,0,0,0	71.0	22.0	0.216	0,0,0,1,2,3,0,0,0	to_hand	s624
260.233	0.276	0	PA_with_intermediate	2,0,0,1,0,0,3,0,0	test	ward_and_allport	2,3,0,1,0,0,0,0,0	89.0	22.0	0.276	0,0,0,1,2,3,0,0,0	to_board	s624
260.517	0.371	0	PA_with_intermediate	2,0,0,1,0,0,0,0,0	test	ward_and_allport	2,3,0,1,0,0,0,0,0	82.0	22.0	0.371	0,0,0,1,2,3,0,0,0	to_hand	s624
260.889	0.208	0	PA_with_intermediate	2,3,0,1,0,0,0,0,0	test	ward_and_allport	2,3,0,1,0,0,0,0,0	89.0	22.0	0.208	0,0,0,1,2,3,0,0,0	to_board	s624
261.104	1.0	0	PA_with_intermediate	n/a	test	ward_and_allport	n/a	-1.0	22.0	n/a	n/a	feedback	s624
262.104	1.136	0	PA_with_intermediate	n/a	test	ward_and_allport	n/a	-1.0	22.0	n/a	n/a	ITI	s624
263.247	3.725	1	PA_without_intermediate	1,2,0,0,0,0,0,0,0	test	ward_and_allport	0,0,0,2,0,0,3,1,0	89.0	23.0	3.725	1,2,3,0,0,0,0,0,0	to_hand	s624
266.974	0.174	0	PA_without_intermediate	1,2,0,0,0,0,3,0,0	test	ward_and_allport	0,0,0,2,0,0,3,1,0	82.0	23.0	0.174	1,2,3,0,0,0,0,0,0	to_board	s624
267.155	0.187	0	PA_without_intermediate	1,0,0,0,0,0,3,0,0	test	ward_and_allport	0,0,0,2,0,0,3,1,0	89.0	23.0	0.187	1,2,3,0,0,0,0,0,0	to_hand	s624
267.342	0.164	0	PA_without_intermediate	1,0,0,2,0,0,3,0,0	test	ward_and_allport	0,0,0,2,0,0,3,1,0	71.0	23.0	0.164	1,2,3,0,0,0,0,0,0	to_board	s624
267.513	0.408	0	PA_without_intermediate	0,0,0,2,0,0,3,0,0	test	ward_and_allport	0,0,0,2,0,0,3,1,0	89.0	23.0	0.408	1,2,3,0,0,0,0,0,0	to_hand	s624
267.923	0.188	0	PA_without_intermediate	0,0,0,2,0,0,3,1,0	test	ward_and_allport	0,0,0,2,0,0,3,1,0	82.0	23.0	0.188	1,2,3,0,0,0,0,0,0	to_board	s624
268.119	1.0	0	PA_without_intermediate	n/a	test	ward_and_allport	n/a	-1.0	23.0	n/a	n/a	feedback	s624
269.119	1.68	0	PA_without_intermediate	n/a	test	ward_and_allport	n/a	-1.0	23.0	n/a	n/a	ITI	s624
270.806	2.168	1	PA_without_intermediate	1,2,0,0,0,0,0,0,0	test	ward_and_allport	0,0,0,1,0,0,3,2,0	89.0	24.0	2.168	1,2,3,0,0,0,0,0,0	to_hand	s624
272.975	0.186	0	PA_without_intermediate	1,2,0,0,0,0,3,0,0	test	ward_and_allport	0,0,0,1,0,0,3,2,0	82.0	24.0	0.186	1,2,3,0,0,0,0,0,0	to_board	s624
273.168	0.222	0	PA_without_intermediate	1,0,0,0,0,0,3,0,0	test	ward_and_allport	0,0,0,1,0,0,3,2,0	89.0	24.0	0.222	1,2,3,0,0,0,0,0,0	to_hand	s624
273.392	0.277	0	PA_without_intermediate	1,0,0,0,0,0,3,2,0	test	ward_and_allport	0,0,0,1,0,0,3,2,0	82.0	24.0	0.277	1,2,3,0,0,0,0,0,0	to_board	s624
273.678	0.395	0	PA_without_intermediate	0,0,0,0,0,0,3,2,0	test	ward_and_allport	0,0,0,1,0,0,3,2,0	89.0	24.0	0.395	1,2,3,0,0,0,0,0,0	to_hand	s624
274.075	0.196	0	PA_without_intermediate	0,0,0,1,0,0,3,2,0	test	ward_and_allport	0,0,0,1,0,0,3,2,0	71.0	24.0	0.196	1,2,3,0,0,0,0,0,0	to_board	s624
274.279	1.0	0	PA_without_intermediate	n/a	test	ward_and_allport	n/a	-1.0	24.0	n/a	n/a	feedback	s624
275.279	2.088	0	PA_without_intermediate	n/a	test	ward_and_allport	n/a	-1.0	24.0	n/a	n/a	ITI	s624
277.373	3.902	1	PA_with_intermediate	0,0,0,1,2,0,0,0,0	test	ward_and_allport	2,0,0,1,3,0,0,0,0	71.0	25.0	3.902	0,0,0,1,2,3,0,0,0	to_hand	s624
281.276	0.197	0	PA_with_intermediate	0,0,0,1,2,0,3,0,0	test	ward_and_allport	2,0,0,1,3,0,0,0,0	82.0	25.0	0.197	0,0,0,1,2,3,0,0,0	to_board	s624
281.481	0.257	0	PA_with_intermediate	0,0,0,1,0,0,3,0,0	test	ward_and_allport	2,0,0,1,3,0,0,0,0	71.0	25.0	0.257	0,0,0,1,2,3,0,0,0	to_hand	s624
281.739	0.244	0	PA_with_intermediate	2,0,0,1,0,0,3,0,0	test	ward_and_allport	2,0,0,1,3,0,0,0,0	89.0	25.0	0.244	0,0,0,1,2,3,0,0,0	to_board	s624
281.99	0.285	0	PA_with_intermediate	2,0,0,1,0,0,0,0,0	test	ward_and_allport	2,0,0,1,3,0,0,0,0	82.0	25.0	0.285	0,0,0,1,2,3,0,0,0	to_hand	s624
282.276	0.187	0	PA_with_intermediate	2,0,0,1,3,0,0,0,0	test	ward_and_allport	2,0,0,1,3,0,0,0,0	71.0	25.0	0.187	0,0,0,1,2,3,0,0,0	to_board	s624
282.472	1.0	0	PA_with_intermediate	n/a	test	ward_and_allport	n/a	-1.0	25.0	n/a	n/a	feedback	s624
283.472	1.0	0	PA_with_intermediate	n/a	test	ward_and_allport	n/a	-1.0	25.0	n/a	n/a	ITI	s624
284.481	3.261	1	PA_without_intermediate	0,0,0,0,0,0,1,2,0	test	ward_and_allport	1,0,0,3,2,0,0,0,0	82.0	26.0	3.261	0,0,0,0,0,0,1,2,3	to_hand	s624
287.742	0.156	0	PA_without_intermediate	0,0,0,3,0,0,1,2,0	test	ward_and_allport	1,0,0,3,2,0,0,0,0	71.0	26.0	0.156	0,0,0,0,0,0,1,2,3	to_board	s624
287.906	0.322	0	PA_without_intermediate	0,0,0,3,0,0,1,0,0	test	ward_and_allport	1,0,0,3,2,0,0,0,0	82.0	26.0	0.322	0,0,0,0,0,0,1,2,3	to_hand	s624
288.23	0.17	0	PA_without_intermediate	0,0,0,3,2,0,1,0,0	test	ward_and_allport	1,0,0,3,2,0,0,0,0	71.0	26.0	0.17	0,0,0,0,0,0,1,2,3	to_board	s624
288.406	0.616	0	PA_without_intermediate	0,0,0,3,2,0,0,0,0	test	ward_and_allport	1,0,0,3,2,0,0,0,0	82.0	26.0	0.616	0,0,0,0,0,0,1,2,3	to_hand	s624
289.023	0.183	0	PA_without_intermediate	1,0,0,3,2,0,0,0,0	test	ward_and_allport	1,0,0,3,2,0,0,0,0	89.0	26.0	0.183	0,0,0,0,0,0,1,2,3	to_board	s624
289.214	1.0	0	PA_without_intermediate	n/a	test	ward_and_allport	n/a	-1.0	26.0	n/a	n/a	feedback	s624
290.214	1.0	0	PA_without_intermediate	n/a	test	ward_and_allport	n/a	-1.0	26.0	n/a	n/a	ITI	s624
291.223	2.816	1	PA_without_intermediate	0,0,0,1,2,0,0,0,0	test	ward_and_allport	3,2,0,0,0,0,1,0,0	71.0	27.0	2.816	0,0,0,1,2,3,0,0,0	to_hand	s624
294.04	0.136	0	PA_without_intermediate	3,0,0,1,2,0,0,0,0	test	ward_and_allport	3,2,0,0,0,0,1,0,0	89.0	27.0	0.136	0,0,0,1,2,3,0,0,0	to_board	s624
294.183	0.298	0	PA_without_intermediate	3,0,0,1,0,0,0,0,0	test	ward_and_allport	3,2,0,0,0,0,1,0,0	71.0	27.0	0.298	0,0,0,1,2,3,0,0,0	to_hand	s624
294.482	0.145	0	PA_without_intermediate	3,2,0,1,0,0,0,0,0	test	ward_and_allport	3,2,0,0,0,0,1,0,0	89.0	27.0	0.145	0,0,0,1,2,3,0,0,0	to_board	s624
294.635	0.397	0	PA_without_intermediate	3,2,0,0,0,0,0,0,0	test	ward_and_allport	3,2,0,0,0,0,1,0,0	71.0	27.0	0.397	0,0,0,1,2,3,0,0,0	to_hand	s624
295.033	0.269	0	PA_without_intermediate	3,2,0,0,0,0,1,0,0	test	ward_and_allport	3,2,0,0,0,0,1,0,0	82.0	27.0	0.269	0,0,0,1,2,3,0,0,0	to_board	s624
295.311	1.0	0	PA_without_intermediate	n/a	test	ward_and_allport	n/a	-1.0	27.0	n/a	n/a	feedback	s624
296.311	1.0	0	PA_without_intermediate	n/a	test	ward_and_allport	n/a	-1.0	27.0	n/a	n/a	ITI	s624
297.319	4.702	1	PA_with_intermediate	1,2,0,0,0,0,0,0,0	test	ward_and_allport	1,3,0,0,0,0,2,0,0	89.0	28.0	4.702	1,2,3,0,0,0,0,0,0	to_hand	s624
302.022	0.173	0	PA_with_intermediate	1,2,0,3,0,0,0,0,0	test	ward_and_allport	1,3,0,0,0,0,2,0,0	71.0	28.0	0.173	1,2,3,0,0,0,0,0,0	to_board	s624
302.204	0.35	0	PA_with_intermediate	1,0,0,3,0,0,0,0,0	test	ward_and_allport	1,3,0,0,0,0,2,0,0	89.0	28.0	0.35	1,2,3,0,0,0,0,0,0	to_hand	s624
302.555	0.339	0	PA_with_intermediate	1,0,0,3,0,0,2,0,0	test	ward_and_allport	1,3,0,0,0,0,2,0,0	82.0	28.0	0.339	1,2,3,0,0,0,0,0,0	to_board	s624
302.904	0.529	0	PA_with_intermediate	1,0,0,0,0,0,2,0,0	test	ward_and_allport	1,3,0,0,0,0,2,0,0	71.0	28.0	0.529	1,2,3,0,0,0,0,0,0	to_hand	s624
303.435	0.215	0	PA_with_intermediate	1,3,0,0,0,0,2,0,0	test	ward_and_allport	1,3,0,0,0,0,2,0,0	89.0	28.0	0.215	1,2,3,0,0,0,0,0,0	to_board	s624
303.659	1.0	0	PA_with_intermediate	n/a	test	ward_and_allport	n/a	-1.0	28.0	n/a	n/a	feedback	s624
304.659	1.544	0	PA_with_intermediate	n/a	test	ward_and_allport	n/a	-1.0	28.0	n/a	n/a	ITI	s624
306.212	4.524	1	PA_without_intermediate	0,0,0,1,2,0,0,0,0	test	ward_and_allport	1,0,0,0,0,0,3,2,0	71.0	29.0	4.524	0,0,0,1,2,3,0,0,0	to_hand	s624
310.737	0.423	0	PA_without_intermediate	0,0,0,1,2,0,3,0,0	test	ward_and_allport	1,0,0,0,0,0,3,2,0	82.0	29.0	0.423	0,0,0,1,2,3,0,0,0	to_board	s624
311.169	0.244	0	PA_without_intermediate	0,0,0,1,0,0,3,0,0	test	ward_and_allport	1,0,0,0,0,0,3,2,0	71.0	29.0	0.244	0,0,0,1,2,3,0,0,0	to_hand	s624
311.414	0.195	0	PA_without_intermediate	0,0,0,1,0,0,3,2,0	test	ward_and_allport	1,0,0,0,0,0,3,2,0	82.0	29.0	0.195	0,0,0,1,2,3,0,0,0	to_board	s624
311.621	0.427	0	PA_without_intermediate	0,0,0,0,0,0,3,2,0	test	ward_and_allport	1,0,0,0,0,0,3,2,0	71.0	29.0	0.427	0,0,0,1,2,3,0,0,0	to_hand	s624
312.049	0.162	0	PA_without_intermediate	1,0,0,0,0,0,3,2,0	test	ward_and_allport	1,0,0,0,0,0,3,2,0	89.0	29.0	0.162	0,0,0,1,2,3,0,0,0	to_board	s624
312.22	1.0	0	PA_without_intermediate	n/a	test	ward_and_allport	n/a	-1.0	29.0	n/a	n/a	feedback	s624
313.22	1.272	0	PA_without_intermediate	n/a	test	ward_and_allport	n/a	-1.0	29.0	n/a	n/a	ITI	s624
319.5	3.386	1	PA_with_intermediate	0,0,0,1,2,0,0,0,0	test	ward_and_allport	0,0,0,1,0,0,2,3,0	71.0	30.0	3.386	0,0,0,1,2,3,0,0,0	to_hand	s624
322.887	0.13	0	PA_with_intermediate	3,0,0,1,2,0,0,0,0	test	ward_and_allport	0,0,0,1,0,0,2,3,0	89.0	30.0	0.13	0,0,0,1,2,3,0,0,0	to_board	s624
323.026	0.298	0	PA_with_intermediate	3,0,0,1,0,0,0,0,0	test	ward_and_allport	0,0,0,1,0,0,2,3,0	71.0	30.0	0.298	0,0,0,1,2,3,0,0,0	to_hand	s624
323.325	0.195	0	PA_with_intermediate	3,0,0,1,0,0,2,0,0	test	ward_and_allport	0,0,0,1,0,0,2,3,0	82.0	30.0	0.195	0,0,0,1,2,3,0,0,0	to_board	s624
323.53	0.257	0	PA_with_intermediate	0,0,0,1,0,0,2,0,0	test	ward_and_allport	0,0,0,1,0,0,2,3,0	89.0	30.0	0.257	0,0,0,1,2,3,0,0,0	to_hand	s624
323.788	0.222	0	PA_with_intermediate	0,0,0,1,0,0,2,3,0	test	ward_and_allport	0,0,0,1,0,0,2,3,0	82.0	30.0	0.222	0,0,0,1,2,3,0,0,0	to_board	s624
324.02	1.0	0	PA_with_intermediate	n/a	test	ward_and_allport	n/a	-1.0	30.0	n/a	n/a	feedback	s624
325.02	3.04	0	PA_with_intermediate	n/a	test	ward_and_allport	n/a	-1.0	30.0	n/a	n/a	ITI	s624
328.069	3.297	1	PA_with_intermediate	1,2,0,0,0,0,0,0,0	test	ward_and_allport	1,3,0,2,0,0,0,0,0	89.0	31.0	3.297	1,2,3,0,0,0,0,0,0	to_hand	s624
331.367	0.157	0	PA_with_intermediate	1,2,0,0,0,0,3,0,0	test	ward_and_allport	1,3,0,2,0,0,0,0,0	82.0	31.0	0.157	1,2,3,0,0,0,0,0,0	to_board	s624
331.531	0.306	0	PA_with_intermediate	1,0,0,0,0,0,3,0,0	test	ward_and_allport	1,3,0,2,0,0,0,0,0	89.0	31.0	0.306	1,2,3,0,0,0,0,0,0	to_hand	s624
331.838	0.185	0	PA_with_intermediate	1,0,0,2,0,0,3,0,0	test	ward_and_allport	1,3,0,2,0,0,0,0,0	71.0	31.0	0.185	1,2,3,0,0,0,0,0,0	to_board	s624
332.033	0.315	0	PA_with_intermediate	1,0,0,2,0,0,0,0,0	test	ward_and_allport	1,3,0,2,0,0,0,0,0	82.0	31.0	0.315	1,2,3,0,0,0,0,0,0	to_hand	s624
332.349	0.722	0	PA_with_intermediate	1,3,0,2,0,0,0,0,0	test	ward_and_allport	1,3,0,2,0,0,0,0,0	89.0	31.0	0.722	1,2,3,0,0,0,0,0,0	to_board	s624
333.08	1.0	0	PA_with_intermediate	n/a	test	ward_and_allport	n/a	-1.0	31.0	n/a	n/a	feedback	s624
334.08	1.272	0	PA_with_intermediate	n/a	test	ward_and_allport	n/a	-1.0	31.0	n/a	n/a	ITI	s624
335.36	6.727	1	PA_with_intermediate	1,2,0,0,0,0,0,0,0	test	ward_and_allport	1,0,0,0,0,0,2,3,0	89.0	32.0	6.727	1,2,3,0,0,0,0,0,0	to_hand	s624
342.088	0.142	0	PA_with_intermediate	1,2,0,3,0,0,0,0,0	test	ward_and_allport	1,0,0,0,0,0,2,3,0	71.0	32.0	0.142	1,2,3,0,0,0,0,0,0	to_board	s624
342.236	0.155	0	PA_with_intermediate	1,0,0,3,0,0,0,0,0	test	ward_and_allport	1,0,0,0,0,0,2,3,0	89.0	32.0	0.155	1,2,3,0,0,0,0,0,0	to_hand	s624
342.392	0.278	0	PA_with_intermediate	1,0,0,3,0,0,2,0,0	test	ward_and_allport	1,0,0,0,0,0,2,3,0	82.0	32.0	0.278	1,2,3,0,0,0,0,0,0	to_board	s624
342.679	0.254	0	PA_with_intermediate	0,0,0,3,0,0,2,0,0	test	ward_and_allport	1,0,0,0,0,0,2,3,0	89.0	32.0	0.254	1,2,3,0,0,0,0,0,0	to_hand	s624
342.934	0.652	0	PA_with_intermediate	1,0,0,3,0,0,2,0,0	test	ward_and_allport	1,0,0,0,0,0,2,3,0	89.0	32.0	0.652	1,2,3,0,0,0,0,0,0	to_board	s624
343.596	0.426	0	PA_with_intermediate	1,0,0,0,0,0,2,0,0	test	ward_and_allport	1,0,0,0,0,0,2,3,0	71.0	32.0	0.426	1,2,3,0,0,0,0,0,0	to_hand	s624
344.023	0.184	0	PA_with_intermediate	1,0,0,0,0,0,2,3,0	test	ward_and_allport	1,0,0,0,0,0,2,3,0	82.0	32.0	0.184	1,2,3,0,0,0,0,0,0	to_board	s624
344.217	1.0	0	PA_with_intermediate	n/a	test	ward_and_allport	n/a	-1.0	32.0	n/a	n/a	feedback	s624
345.217	1.136	0	PA_with_intermediate	n/a	test	ward_and_allport	n/a	-1.0	32.0	n/a	n/a	ITI	s624
346.363	3.741	1	PA_with_intermediate	1,2,0,0,0,0,0,0,0	test	ward_and_allport	1,3,0,0,0,0,2,0,0	89.0	33.0	3.741	1,2,3,0,0,0,0,0,0	to_hand	s624
350.106	0.151	0	PA_with_intermediate	1,2,0,3,0,0,0,0,0	test	ward_and_allport	1,3,0,0,0,0,2,0,0	71.0	33.0	0.151	1,2,3,0,0,0,0,0,0	to_board	s624
350.264	0.149	0	PA_with_intermediate	1,0,0,3,0,0,0,0,0	test	ward_and_allport	1,3,0,0,0,0,2,0,0	89.0	33.0	0.149	1,2,3,0,0,0,0,0,0	to_hand	s624
350.414	0.199	0	PA_with_intermediate	1,0,0,3,0,0,2,0,0	test	ward_and_allport	1,3,0,0,0,0,2,0,0	82.0	33.0	0.199	1,2,3,0,0,0,0,0,0	to_board	s624
350.624	0.37	0	PA_with_intermediate	1,0,0,0,0,0,2,0,0	test	ward_and_allport	1,3,0,0,0,0,2,0,0	71.0	33.0	0.37	1,2,3,0,0,0,0,0,0	to_hand	s624
350.995	0.129	0	PA_with_intermediate	1,3,0,0,0,0,2,0,0	test	ward_and_allport	1,3,0,0,0,0,2,0,0	89.0	33.0	0.129	1,2,3,0,0,0,0,0,0	to_board	s624
351.133	1.0	0	PA_with_intermediate	n/a	test	ward_and_allport	n/a	-1.0	33.0	n/a	n/a	feedback	s624
352.133	1.0	0	PA_with_intermediate	n/a	test	ward_and_allport	n/a	-1.0	33.0	n/a	n/a	ITI	s624
353.14	3.569	1	PA_with_intermediate	0,0,0,1,2,0,0,0,0	test	ward_and_allport	0,0,0,1,0,0,2,3,0	71.0	34.0	3.569	0,0,0,1,2,3,0,0,0	to_hand	s624
356.71	0.163	0	PA_with_intermediate	3,0,0,1,2,0,0,0,0	test	ward_and_allport	0,0,0,1,0,0,2,3,0	89.0	34.0	0.163	0,0,0,1,2,3,0,0,0	to_board	s624
356.88	0.238	0	PA_with_intermediate	3,0,0,1,0,0,0,0,0	test	ward_and_allport	0,0,0,1,0,0,2,3,0	71.0	34.0	0.238	0,0,0,1,2,3,0,0,0	to_hand	s624
357.12	0.208	0	PA_with_intermediate	3,0,0,1,0,0,2,0,0	test	ward_and_allport	0,0,0,1,0,0,2,3,0	82.0	34.0	0.208	0,0,0,1,2,3,0,0,0	to_board	s624
357.338	0.307	0	PA_with_intermediate	0,0,0,1,0,0,2,0,0	test	ward_and_allport	0,0,0,1,0,0,2,3,0	89.0	34.0	0.307	0,0,0,1,2,3,0,0,0	to_hand	s624
357.647	0.222	0	PA_with_intermediate	0,0,0,1,0,0,2,3,0	test	ward_and_allport	0,0,0,1,0,0,2,3,0	82.0	34.0	0.222	0,0,0,1,2,3,0,0,0	to_board	s624
357.879	1.0	0	PA_with_intermediate	n/a	test	ward_and_allport	n/a	-1.0	34.0	n/a	n/a	feedback	s624
358.879	1.0	0	PA_with_intermediate	n/a	test	ward_and_allport	n/a	-1.0	34.0	n/a	n/a	ITI	s624
359.893	4.065	1	PA_without_intermediate	0,0,0,1,2,0,0,0,0	test	ward_and_allport	2,0,0,0,0,0,3,1,0	71.0	35.0	4.065	0,0,0,1,2,3,0,0,0	to_hand	s624
363.959	0.204	0	PA_without_intermediate	0,0,0,1,2,0,3,0,0	test	ward_and_allport	2,0,0,0,0,0,3,1,0	82.0	35.0	0.204	0,0,0,1,2,3,0,0,0	to_board	s624
364.17	0.222	0	PA_without_intermediate	0,0,0,1,0,0,3,0,0	test	ward_and_allport	2,0,0,0,0,0,3,1,0	71.0	35.0	0.222	0,0,0,1,2,3,0,0,0	to_hand	s624
364.393	0.174	0	PA_without_intermediate	2,0,0,1,0,0,3,0,0	test	ward_and_allport	2,0,0,0,0,0,3,1,0	89.0	35.0	0.174	0,0,0,1,2,3,0,0,0	to_board	s624
364.577	0.206	0	PA_without_intermediate	2,0,0,0,0,0,3,0,0	test	ward_and_allport	2,0,0,0,0,0,3,1,0	71.0	35.0	0.206	0,0,0,1,2,3,0,0,0	to_hand	s624
364.784	0.192	0	PA_without_intermediate	2,0,0,0,0,0,3,1,0	test	ward_and_allport	2,0,0,0,0,0,3,1,0	82.0	35.0	0.192	0,0,0,1,2,3,0,0,0	to_board	s624
364.985	1.0	0	PA_without_intermediate	n/a	test	ward_and_allport	n/a	-1.0	35.0	n/a	n/a	feedback	s624
365.985	1.408	0	PA_without_intermediate	n/a	test	ward_and_allport	n/a	-1.0	35.0	n/a	n/a	ITI	s624
367.4	4.511	1	PA_with_intermediate	0,0,0,0,0,0,1,2,0	test	ward_and_allport	0,0,0,2,3,0,1,0,0	82.0	36.0	4.511	0,0,0,0,0,0,1,2,3	to_hand	s624
371.912	0.282	0	PA_with_intermediate	3,0,0,0,0,0,1,2,0	test	ward_and_allport	0,0,0,2,3,0,1,0,0	89.0	36.0	0.282	0,0,0,0,0,0,1,2,3	to_board	s624
372.202	0.625	0	PA_with_intermediate	3,0,0,0,0,0,1,0,0	test	ward_and_allport	0,0,0,2,3,0,1,0,0	82.0	36.0	0.625	0,0,0,0,0,0,1,2,3	to_hand	s624
372.827	0.333	0	PA_with_intermediate	3,0,0,2,0,0,1,0,0	test	ward_and_allport	0,0,0,2,3,0,1,0,0	71.0	36.0	0.333	0,0,0,0,0,0,1,2,3	to_board	s624
373.17	0.532	0	PA_with_intermediate	0,0,0,2,0,0,1,0,0	test	ward_and_allport	0,0,0,2,3,0,1,0,0	89.0	36.0	0.532	0,0,0,0,0,0,1,2,3	to_hand	s624
373.703	0.169	0	PA_with_intermediate	0,0,0,2,3,0,1,0,0	test	ward_and_allport	0,0,0,2,3,0,1,0,0	71.0	36.0	0.169	0,0,0,0,0,0,1,2,3	to_board	s624
373.883	1.0	0	PA_with_intermediate	n/a	test	ward_and_allport	n/a	-1.0	36.0	n/a	n/a	feedback	s624
374.883	2.768	0	PA_with_intermediate	n/a	test	ward_and_allport	n/a	-1.0	36.0	n/a	n/a	ITI	s624
377.66	3.663	1	PA_with_intermediate	1,2,0,0,0,0,0,0,0	test	ward_and_allport	1,0,0,2,3,0,0,0,0	89.0	37.0	3.663	1,2,3,0,0,0,0,0,0	to_hand	s624
381.325	0.174	0	PA_with_intermediate	1,2,0,0,0,0,3,0,0	test	ward_and_allport	1,0,0,2,3,0,0,0,0	82.0	37.0	0.174	1,2,3,0,0,0,0,0,0	to_board	s624
381.508	0.187	0	PA_with_intermediate	1,0,0,0,0,0,3,0,0	test	ward_and_allport	1,0,0,2,3,0,0,0,0	89.0	37.0	0.187	1,2,3,0,0,0,0,0,0	to_hand	s624
381.696	0.188	0	PA_with_intermediate	1,0,0,2,0,0,3,0,0	test	ward_and_allport	1,0,0,2,3,0,0,0,0	71.0	37.0	0.188	1,2,3,0,0,0,0,0,0	to_board	s624
381.894	0.289	0	PA_with_intermediate	1,0,0,2,0,0,0,0,0	test	ward_and_allport	1,0,0,2,3,0,0,0,0	82.0	37.0	0.289	1,2,3,0,0,0,0,0,0	to_hand	s624
382.184	0.163	0	PA_with_intermediate	1,0,0,2,3,0,0,0,0	test	ward_and_allport	1,0,0,2,3,0,0,0,0	71.0	37.0	0.163	1,2,3,0,0,0,0,0,0	to_board	s624
382.358	1.0	0	PA_with_intermediate	n/a	test	ward_and_allport	n/a	-1.0	37.0	n/a	n/a	feedback	s624
383.358	1.68	0	PA_with_intermediate	n/a	test	ward_and_allport	n/a	-1.0	37.0	n/a	n/a	ITI	s624
385.047	2.696	1	PA_without_intermediate	1,2,0,0,0,0,0,0,0	test	ward_and_allport	0,0,0,3,1,0,2,0,0	89.0	38.0	2.696	1,2,3,0,0,0,0,0,0	to_hand	s624
387.744	0.133	0	PA_without_intermediate	1,2,0,3,0,0,0,0,0	test	ward_and_allport	0,0,0,3,1,0,2,0,0	71.0	38.0	0.133	1,2,3,0,0,0,0,0,0	to_board	s624
387.884	0.253	0	PA_without_intermediate	1,0,0,3,0,0,0,0,0	test	ward_and_allport	0,0,0,3,1,0,2,0,0	89.0	38.0	0.253	1,2,3,0,0,0,0,0,0	to_hand	s624
388.138	0.297	0	PA_without_intermediate	1,0,0,3,0,0,2,0,0	test	ward_and_allport	0,0,0,3,1,0,2,0,0	82.0	38.0	0.297	1,2,3,0,0,0,0,0,0	to_board	s624
388.444	0.341	0	PA_without_intermediate	0,0,0,3,0,0,2,0,0	test	ward_and_allport	0,0,0,3,1,0,2,0,0	89.0	38.0	0.341	1,2,3,0,0,0,0,0,0	to_hand	s624
388.787	0.288	0	PA_without_intermediate	0,0,0,3,1,0,2,0,0	test	ward_and_allport	0,0,0,3,1,0,2,0,0	71.0	38.0	0.288	1,2,3,0,0,0,0,0,0	to_board	s624
389.084	1.0	0	PA_without_intermediate	n/a	test	ward_and_allport	n/a	-1.0	38.0	n/a	n/a	feedback	s624
390.084	2.224	0	PA_without_intermediate	n/a	test	ward_and_allport	n/a	-1.0	38.0	n/a	n/a	ITI	s624
392.316	2.57	1	PA_without_intermediate	0,0,0,1,2,0,0,0,0	test	ward_and_allport	3,1,0,0,0,0,2,0,0	71.0	39.0	2.57	0,0,0,1,2,3,0,0,0	to_hand	s624
394.887	0.136	0	PA_without_intermediate	3,0,0,1,2,0,0,0,0	test	ward_and_allport	3,1,0,0,0,0,2,0,0	89.0	39.0	0.136	0,0,0,1,2,3,0,0,0	to_board	s624
395.031	0.225	0	PA_without_intermediate	3,0,0,1,0,0,0,0,0	test	ward_and_allport	3,1,0,0,0,0,2,0,0	71.0	39.0	0.225	0,0,0,1,2,3,0,0,0	to_hand	s624
395.257	0.205	0	PA_without_intermediate	3,0,0,1,2,0,0,0,0	test	ward_and_allport	3,1,0,0,0,0,2,0,0	71.0	39.0	0.205	0,0,0,1,2,3,0,0,0	to_board	s624
395.471	0.578	0	PA_without_intermediate	3,0,0,1,0,0,0,0,0	test	ward_and_allport	3,1,0,0,0,0,2,0,0	71.0	39.0	0.578	0,0,0,1,2,3,0,0,0	to_hand	s624
396.05	0.205	0	PA_without_intermediate	3,0,0,1,0,0,2,0,0	test	ward_and_allport	3,1,0,0,0,0,2,0,0	82.0	39.0	0.205	0,0,0,1,2,3,0,0,0	to_board	s624
396.265	0.252	0	PA_without_intermediate	3,0,0,0,0,0,2,0,0	test	ward_and_allport	3,1,0,0,0,0,2,0,0	71.0	39.0	0.252	0,0,0,1,2,3,0,0,0	to_hand	s624
396.519	0.181	0	PA_without_intermediate	3,1,0,0,0,0,2,0,0	test	ward_and_allport	3,1,0,0,0,0,2,0,0	89.0	39.0	0.181	0,0,0,1,2,3,0,0,0	to_board	s624
396.709	1.0	0	PA_without_intermediate	n/a	test	ward_and_allport	n/a	-1.0	39.0	n/a	n/a	feedback	s624
397.709	2.36	0	PA_without_intermediate	n/a	test	ward_and_allport	n/a	-1.0	39.0	n/a	n/a	ITI	s624
400.076	3.301	1	PA_without_intermediate	0,0,0,1,2,0,0,0,0	test	ward_and_allport	2,0,0,0,0,0,3,1,0	71.0	40.0	3.301	0,0,0,1,2,3,0,0,0	to_hand	s624
403.378	0.242	0	PA_without_intermediate	0,0,0,1,2,0,3,0,0	test	ward_and_allport	2,0,0,0,0,0,3,1,0	82.0	40.0	0.242	0,0,0,1,2,3,0,0,0	to_board	s624
403.627	0.243	0	PA_without_intermediate	0,0,0,1,0,0,3,0,0	test	ward_and_allport	2,0,0,0,0,0,3,1,0	71.0	40.0	0.243	0,0,0,1,2,3,0,0,0	to_hand	s624
403.872	0.16	0	PA_without_intermediate	2,0,0,1,0,0,3,0,0	test	ward_and_allport	2,0,0,0,0,0,3,1,0	89.0	40.0	0.16	0,0,0,1,2,3,0,0,0	to_board	s624
404.041	0.307	0	PA_without_intermediate	2,0,0,0,0,0,3,0,0	test	ward_and_allport	2,0,0,0,0,0,3,1,0	71.0	40.0	0.307	0,0,0,1,2,3,0,0,0	to_hand	s624
404.349	0.189	0	PA_without_intermediate	2,0,0,0,0,0,3,1,0	test	ward_and_allport	2,0,0,0,0,0,3,1,0	82.0	40.0	0.189	0,0,0,1,2,3,0,0,0	to_board	s624
404.55	1.0	0	PA_without_intermediate	n/a	test	ward_and_allport	n/a	-1.0	40.0	n/a	n/a	feedback	s624
405.55	1.0	0	PA_without_intermediate	n/a	test	ward_and_allport	n/a	-1.0	40.0	n/a	n/a	ITI	s624
406.56	2.813	1	PA_without_intermediate	0,0,0,0,0,0,1,2,0	test	ward_and_allport	3,2,0,1,0,0,0,0,0	82.0	41.0	2.813	0,0,0,0,0,0,1,2,3	to_hand	s624
409.375	0.123	0	PA_without_intermediate	3,0,0,0,0,0,1,2,0	test	ward_and_allport	3,2,0,1,0,0,0,0,0	89.0	41.0	0.123	0,0,0,0,0,0,1,2,3	to_board	s624
409.51	0.677	0	PA_without_intermediate	3,0,0,0,0,0,1,0,0	test	ward_and_allport	3,2,0,1,0,0,0,0,0	82.0	41.0	0.677	0,0,0,0,0,0,1,2,3	to_hand	s624
410.188	0.156	0	PA_without_intermediate	3,2,0,0,0,0,1,0,0	test	ward_and_allport	3,2,0,1,0,0,0,0,0	89.0	41.0	0.156	0,0,0,0,0,0,1,2,3	to_board	s624
410.352	0.398	0	PA_without_intermediate	3,2,0,0,0,0,0,0,0	test	ward_and_allport	3,2,0,1,0,0,0,0,0	82.0	41.0	0.398	0,0,0,0,0,0,1,2,3	to_hand	s624
410.752	0.145	0	PA_without_intermediate	3,2,0,1,0,0,0,0,0	test	ward_and_allport	3,2,0,1,0,0,0,0,0	71.0	41.0	0.145	0,0,0,0,0,0,1,2,3	to_board	s624
410.905	1.0	0	PA_without_intermediate	n/a	test	ward_and_allport	n/a	-1.0	41.0	n/a	n/a	feedback	s624
411.905	1.408	0	PA_without_intermediate	n/a	test	ward_and_allport	n/a	-1.0	41.0	n/a	n/a	ITI	s624
413.322	3.811	1	PA_with_intermediate	1,2,0,0,0,0,0,0,0	test	ward_and_allport	1,0,0,0,0,0,2,3,0	89.0	42.0	3.811	1,2,3,0,0,0,0,0,0	to_hand	s624
417.134	0.15	0	PA_with_intermediate	1,2,0,3,0,0,0,0,0	test	ward_and_allport	1,0,0,0,0,0,2,3,0	71.0	42.0	0.15	1,2,3,0,0,0,0,0,0	to_board	s624
417.293	0.304	0	PA_with_intermediate	1,0,0,3,0,0,0,0,0	test	ward_and_allport	1,0,0,0,0,0,2,3,0	89.0	42.0	0.304	1,2,3,0,0,0,0,0,0	to_hand	s624
417.597	0.185	0	PA_with_intermediate	1,0,0,3,0,0,2,0,0	test	ward_and_allport	1,0,0,0,0,0,2,3,0	82.0	42.0	0.185	1,2,3,0,0,0,0,0,0	to_board	s624
417.793	0.304	0	PA_with_intermediate	1,0,0,0,0,0,2,0,0	test	ward_and_allport	1,0,0,0,0,0,2,3,0	71.0	42.0	0.304	1,2,3,0,0,0,0,0,0	to_hand	s624
418.098	0.203	0	PA_with_intermediate	1,0,0,0,0,0,2,3,0	test	ward_and_allport	1,0,0,0,0,0,2,3,0	82.0	42.0	0.203	1,2,3,0,0,0,0,0,0	to_board	s624
418.311	1.0	0	PA_with_intermediate	n/a	test	ward_and_allport	n/a	-1.0	42.0	n/a	n/a	feedback	s624
419.311	1.136	0	PA_with_intermediate	n/a	test	ward_and_allport	n/a	-1.0	42.0	n/a	n/a	ITI	s624
420.455	3.175	1	PA_without_intermediate	1,2,0,0,0,0,0,0,0	test	ward_and_allport	0,0,0,3,1,0,2,0,0	89.0	43.0	3.175	1,2,3,0,0,0,0,0,0	to_hand	s624
423.631	0.143	0	PA_without_intermediate	1,2,0,3,0,0,0,0,0	test	ward_and_allport	0,0,0,3,1,0,2,0,0	71.0	43.0	0.143	1,2,3,0,0,0,0,0,0	to_board	s624
423.782	0.389	0	PA_without_intermediate	1,0,0,3,0,0,0,0,0	test	ward_and_allport	0,0,0,3,1,0,2,0,0	89.0	43.0	0.389	1,2,3,0,0,0,0,0,0	to_hand	s624
424.172	0.138	0	PA_without_intermediate	1,0,0,3,0,0,2,0,0	test	ward_and_allport	0,0,0,3,1,0,2,0,0	82.0	43.0	0.138	1,2,3,0,0,0,0,0,0	to_board	s624
424.321	0.387	0	PA_without_intermediate	0,0,0,3,0,0,2,0,0	test	ward_and_allport	0,0,0,3,1,0,2,0,0	89.0	43.0	0.387	1,2,3,0,0,0,0,0,0	to_hand	s624
424.71	0.149	0	PA_without_intermediate	0,0,0,3,1,0,2,0,0	test	ward_and_allport	0,0,0,3,1,0,2,0,0	71.0	43.0	0.149	1,2,3,0,0,0,0,0,0	to_board	s624
424.869	1.0	0	PA_without_intermediate	n/a	test	ward_and_allport	n/a	-1.0	43.0	n/a	n/a	feedback	s624
425.869	4.128	0	PA_without_intermediate	n/a	test	ward_and_allport	n/a	-1.0	43.0	n/a	n/a	ITI	s624
430.006	3.198	1	PA_without_intermediate	0,0,0,1,2,0,0,0,0	test	ward_and_allport	3,2,0,0,0,0,1,0,0	71.0	44.0	3.198	0,0,0,1,2,3,0,0,0	to_hand	s624
433.206	0.128	0	PA_without_intermediate	3,0,0,1,2,0,0,0,0	test	ward_and_allport	3,2,0,0,0,0,1,0,0	89.0	44.0	0.128	0,0,0,1,2,3,0,0,0	to_board	s624
433.344	0.182	0	PA_without_intermediate	3,0,0,1,0,0,0,0,0	test	ward_and_allport	3,2,0,0,0,0,1,0,0	71.0	44.0	0.182	0,0,0,1,2,3,0,0,0	to_hand	s624
433.528	0.156	0	PA_without_intermediate	3,2,0,1,0,0,0,0,0	test	ward_and_allport	3,2,0,0,0,0,1,0,0	89.0	44.0	0.156	0,0,0,1,2,3,0,0,0	to_board	s624
433.698	0.514	0	PA_without_intermediate	3,2,0,0,0,0,0,0,0	test	ward_and_allport	3,2,0,0,0,0,1,0,0	71.0	44.0	0.514	0,0,0,1,2,3,0,0,0	to_hand	s624
434.212	0.175	0	PA_without_intermediate	3,2,0,0,0,0,1,0,0	test	ward_and_allport	3,2,0,0,0,0,1,0,0	82.0	44.0	0.175	0,0,0,1,2,3,0,0,0	to_board	s624
434.397	1.0	0	PA_without_intermediate	n/a	test	ward_and_allport	n/a	-1.0	44.0	n/a	n/a	feedback	s624
435.397	1.136	0	PA_without_intermediate	n/a	test	ward_and_allport	n/a	-1.0	44.0	n/a	n/a	ITI	s624
441.545	2.978	1	PA_without_intermediate	0,0,0,0,0,0,1,2,0	test	ward_and_allport	3,1,0,2,0,0,0,0,0	82.0	45.0	2.978	0,0,0,0,0,0,1,2,3	to_hand	s624
444.525	0.308	0	PA_without_intermediate	3,0,0,0,0,0,1,2,0	test	ward_and_allport	3,1,0,2,0,0,0,0,0	89.0	45.0	0.308	0,0,0,0,0,0,1,2,3	to_board	s624
444.845	0.696	0	PA_without_intermediate	3,0,0,0,0,0,1,0,0	test	ward_and_allport	3,1,0,2,0,0,0,0,0	82.0	45.0	0.696	0,0,0,0,0,0,1,2,3	to_hand	s624
445.542	0.21	0	PA_without_intermediate	3,0,0,2,0,0,1,0,0	test	ward_and_allport	3,1,0,2,0,0,0,0,0	71.0	45.0	0.21	0,0,0,0,0,0,1,2,3	to_board	s624
445.764	0.389	0	PA_without_intermediate	3,0,0,2,0,0,0,0,0	test	ward_and_allport	3,1,0,2,0,0,0,0,0	82.0	45.0	0.389	0,0,0,0,0,0,1,2,3	to_hand	s624
446.154	0.173	0	PA_without_intermediate	3,0,0,2,1,0,0,0,0	test	ward_and_allport	3,1,0,2,0,0,0,0,0	71.0	45.0	0.173	0,0,0,0,0,0,1,2,3	to_board	s624
446.34	0.046	0	PA_without_intermediate	0,0,0,2,1,0,0,0,0	test	ward_and_allport	3,1,0,2,0,0,0,0,0	89.0	45.0	0.046	0,0,0,0,0,0,1,2,3	to_hand	s624
446.387	0.943	0	PA_without_intermediate	3,0,0,2,1,0,0,0,0	test	ward_and_allport	3,1,0,2,0,0,0,0,0	89.0	45.0	0.943	0,0,0,0,0,0,1,2,3	to_board	s624
447.341	0.355	0	PA_without_intermediate	3,0,0,2,0,0,0,0,0	test	ward_and_allport	3,1,0,2,0,0,0,0,0	71.0	45.0	0.355	0,0,0,0,0,0,1,2,3	to_hand	s624
447.697	0.169	0	PA_without_intermediate	3,1,0,2,0,0,0,0,0	test	ward_and_allport	3,1,0,2,0,0,0,0,0	89.0	45.0	0.169	0,0,0,0,0,0,1,2,3	to_board	s624
447.878	1.0	0	PA_without_intermediate	n/a	test	ward_and_allport	n/a	-1.0	45.0	n/a	n/a	feedback	s624
448.878	4.264	0	PA_without_intermediate	n/a	test	ward_and_allport	n/a	-1.0	45.0	n/a	n/a	ITI	s624
453.152	4.099	1	PA_with_intermediate	0,0,0,0,0,0,1,2,0	test	ward_and_allport	0,0,0,2,3,0,1,0,0	82.0	46.0	4.099	0,0,0,0,0,0,1,2,3	to_hand	s624
457.252	0.146	0	PA_with_intermediate	3,0,0,0,0,0,1,2,0	test	ward_and_allport	0,0,0,2,3,0,1,0,0	89.0	46.0	0.146	0,0,0,0,0,0,1,2,3	to_board	s624
457.409	0.587	0	PA_with_intermediate	3,0,0,0,0,0,1,0,0	test	ward_and_allport	0,0,0,2,3,0,1,0,0	82.0	46.0	0.587	0,0,0,0,0,0,1,2,3	to_hand	s624
457.997	0.281	0	PA_with_intermediate	3,0,0,2,0,0,1,0,0	test	ward_and_allport	0,0,0,2,3,0,1,0,0	71.0	46.0	0.281	0,0,0,0,0,0,1,2,3	to_board	s624
458.29	0.355	0	PA_with_intermediate	0,0,0,2,0,0,1,0,0	test	ward_and_allport	0,0,0,2,3,0,1,0,0	89.0	46.0	0.355	0,0,0,0,0,0,1,2,3	to_hand	s624
458.646	0.243	0	PA_with_intermediate	0,0,0,2,3,0,1,0,0	test	ward_and_allport	0,0,0,2,3,0,1,0,0	71.0	46.0	0.243	0,0,0,0,0,0,1,2,3	to_board	s624
458.9	1.0	0	PA_with_intermediate	n/a	test	ward_and_allport	n/a	-1.0	46.0	n/a	n/a	feedback	s624
459.9	3.04	0	PA_with_intermediate	n/a	test	ward_and_allport	n/a	-1.0	46.0	n/a	n/a	ITI	s624
462.949	4.007	1	PA_with_intermediate	0,0,0,0,0,0,1,2,0	test	ward_and_allport	0,0,0,2,0,0,1,3,0	82.0	47.0	4.007	0,0,0,0,0,0,1,2,3	to_hand	s624
466.957	0.156	0	PA_with_intermediate	3,0,0,0,0,0,1,2,0	test	ward_and_allport	0,0,0,2,0,0,1,3,0	89.0	47.0	0.156	0,0,0,0,0,0,1,2,3	to_board	s624
467.123	0.57	0	PA_with_intermediate	3,0,0,0,0,0,1,0,0	test	ward_and_allport	0,0,0,2,0,0,1,3,0	82.0	47.0	0.57	0,0,0,0,0,0,1,2,3	to_hand	s624
467.694	0.177	0	PA_with_intermediate	3,0,0,2,0,0,1,0,0	test	ward_and_allport	0,0,0,2,0,0,1,3,0	71.0	47.0	0.177	0,0,0,0,0,0,1,2,3	to_board	s624
467.884	0.267	0	PA_with_intermediate	0,0,0,2,0,0,1,0,0	test	ward_and_allport	0,0,0,2,0,0,1,3,0	89.0	47.0	0.267	0,0,0,0,0,0,1,2,3	to_hand	s624
468.152	0.249	0	PA_with_intermediate	0,0,0,2,0,0,1,3,0	test	ward_and_allport	0,0,0,2,0,0,1,3,0	82.0	47.0	0.249	0,0,0,0,0,0,1,2,3	to_board	s624
468.414	1.0	0	PA_with_intermediate	n/a	test	ward_and_allport	n/a	-1.0	47.0	n/a	n/a	feedback	s624
469.414	1.136	0	PA_with_intermediate	n/a	test	ward_and_allport	n/a	-1.0	47.0	n/a	n/a	ITI	s624
n/a	n/a	0	n/a	n/a	n/a	n/a	n/a	n/a	n/a	n/a	n/a	ITI	n/a
