onset	duration	planning	condition	current_position	exp_stage	experiment_exp_id	goal_state	key_press	problem_id	response_time	start_state	trial_id	worker_id
-64.185	0.0	0	n/a	n/a	n/a	ward_and_allport	n/a	32.0	n/a	24.529	n/a	instructions	s588
3.013	4.227	1	UA_with_intermediate	1,0,0,2,0,0,0,0,0	practice	ward_and_allport	1,2,3,0,0,0,0,0,0	71.0	0.0	4.227	1,0,0,2,3,0,0,0,0	to_hand	s588
7.242	1.833	0	UA_with_intermediate	1,3,0,2,0,0,0,0,0	practice	ward_and_allport	1,2,3,0,0,0,0,0,0	89.0	0.0	1.833	1,0,0,2,3,0,0,0,0	to_board	s588
9.077	0.414	0	UA_with_intermediate	1,3,0,0,0,0,0,0,0	practice	ward_and_allport	1,2,3,0,0,0,0,0,0	71.0	0.0	0.414	1,0,0,2,3,0,0,0,0	to_hand	s588
9.491	0.448	0	UA_with_intermediate	1,3,2,0,0,0,0,0,0	practice	ward_and_allport	1,2,3,0,0,0,0,0,0	89.0	0.0	0.448	1,0,0,2,3,0,0,0,0	to_board	s588
9.94	2.207	0	UA_with_intermediate	1,3,0,0,0,0,0,0,0	practice	ward_and_allport	1,2,3,0,0,0,0,0,0	89.0	0.0	2.207	1,0,0,2,3,0,0,0,0	to_hand	s588
12.149	0.437	0	UA_with_intermediate	1,3,0,2,0,0,0,0,0	practice	ward_and_allport	1,2,3,0,0,0,0,0,0	71.0	0.0	0.437	1,0,0,2,3,0,0,0,0	to_board	s588
12.587	0.797	0	UA_with_intermediate	1,0,0,2,0,0,0,0,0	practice	ward_and_allport	1,2,3,0,0,0,0,0,0	89.0	0.0	0.797	1,0,0,2,3,0,0,0,0	to_hand	s588
13.386	0.645	0	UA_with_intermediate	1,0,0,2,0,0,3,0,0	practice	ward_and_allport	1,2,3,0,0,0,0,0,0	82.0	0.0	0.645	1,0,0,2,3,0,0,0,0	to_board	s588
14.033	0.654	0	UA_with_intermediate	1,0,0,0,0,0,3,0,0	practice	ward_and_allport	1,2,3,0,0,0,0,0,0	71.0	0.0	0.654	1,0,0,2,3,0,0,0,0	to_hand	s588
14.687	0.489	0	UA_with_intermediate	1,2,0,0,0,0,3,0,0	practice	ward_and_allport	1,2,3,0,0,0,0,0,0	89.0	0.0	0.489	1,0,0,2,3,0,0,0,0	to_board	s588
15.179	0.758	0	UA_with_intermediate	1,2,0,0,0,0,0,0,0	practice	ward_and_allport	1,2,3,0,0,0,0,0,0	82.0	0.0	0.758	1,0,0,2,3,0,0,0,0	to_hand	s588
15.937	0.396	0	UA_with_intermediate	1,2,3,0,0,0,0,0,0	practice	ward_and_allport	1,2,3,0,0,0,0,0,0	89.0	0.0	0.396	1,0,0,2,3,0,0,0,0	to_board	s588
16.34	1.0	0	UA_with_intermediate	n/a	practice	ward_and_allport	n/a	-1.0	0.0	n/a	n/a	feedback	s588
18.842	4.57	1	UA_with_intermediate	1,2,0,0,0,0,0,0,0	practice	ward_and_allport	1,3,2,0,0,0,0,0,0	71.0	1.0	4.57	1,2,0,3,0,0,0,0,0	to_hand	s588
23.412	0.449	0	UA_with_intermediate	1,2,3,0,0,0,0,0,0	practice	ward_and_allport	1,3,2,0,0,0,0,0,0	89.0	1.0	0.449	1,2,0,3,0,0,0,0,0	to_board	s588
23.862	2.174	0	UA_with_intermediate	1,2,0,0,0,0,0,0,0	practice	ward_and_allport	1,3,2,0,0,0,0,0,0	89.0	1.0	2.174	1,2,0,3,0,0,0,0,0	to_hand	s588
26.038	1.832	0	UA_with_intermediate	1,2,0,3,0,0,0,0,0	practice	ward_and_allport	1,3,2,0,0,0,0,0,0	71.0	1.0	1.832	1,2,0,3,0,0,0,0,0	to_board	s588
27.872	0.425	0	UA_with_intermediate	1,0,0,3,0,0,0,0,0	practice	ward_and_allport	1,3,2,0,0,0,0,0,0	89.0	1.0	0.425	1,2,0,3,0,0,0,0,0	to_hand	s588
28.298	0.794	0	UA_with_intermediate	1,0,0,3,0,0,2,0,0	practice	ward_and_allport	1,3,2,0,0,0,0,0,0	82.0	1.0	0.794	1,2,0,3,0,0,0,0,0	to_board	s588
29.093	0.668	0	UA_with_intermediate	1,0,0,0,0,0,2,0,0	practice	ward_and_allport	1,3,2,0,0,0,0,0,0	71.0	1.0	0.668	1,2,0,3,0,0,0,0,0	to_hand	s588
29.763	0.474	0	UA_with_intermediate	1,3,0,0,0,0,2,0,0	practice	ward_and_allport	1,3,2,0,0,0,0,0,0	89.0	1.0	0.474	1,2,0,3,0,0,0,0,0	to_board	s588
30.238	0.749	0	UA_with_intermediate	1,3,0,0,0,0,0,0,0	practice	ward_and_allport	1,3,2,0,0,0,0,0,0	82.0	1.0	0.749	1,2,0,3,0,0,0,0,0	to_hand	s588
30.989	3.256	0	UA_with_intermediate	1,3,2,0,0,0,0,0,0	practice	ward_and_allport	1,3,2,0,0,0,0,0,0	89.0	1.0	3.256	1,2,0,3,0,0,0,0,0	to_board	s588
34.25	1.0	0	UA_with_intermediate	n/a	practice	ward_and_allport	n/a	-1.0	1.0	n/a	n/a	feedback	s588
35.25	1.1	0	UA_with_intermediate	n/a	practice	ward_and_allport	n/a	-1.0	1.0	n/a	n/a	ITI	s588
36.352	5.731	1	UA_without_intermediate	0,0,0,1,2,0,0,0,0	practice	ward_and_allport	3,2,1,0,0,0,0,0,0	82.0	2.0	5.731	0,0,0,1,2,0,3,0,0	to_hand	s588
42.085	1.481	0	UA_without_intermediate	3,0,0,1,2,0,0,0,0	practice	ward_and_allport	3,2,1,0,0,0,0,0,0	89.0	2.0	1.481	0,0,0,1,2,0,3,0,0	to_board	s588
43.568	0.8	0	UA_without_intermediate	3,0,0,1,0,0,0,0,0	practice	ward_and_allport	3,2,1,0,0,0,0,0,0	71.0	2.0	0.8	0,0,0,1,2,0,3,0,0	to_hand	s588
44.369	0.715	0	UA_without_intermediate	3,2,0,1,0,0,0,0,0	practice	ward_and_allport	3,2,1,0,0,0,0,0,0	89.0	2.0	0.715	0,0,0,1,2,0,3,0,0	to_board	s588
45.087	0.58	0	UA_without_intermediate	3,2,0,0,0,0,0,0,0	practice	ward_and_allport	3,2,1,0,0,0,0,0,0	71.0	2.0	0.58	0,0,0,1,2,0,3,0,0	to_hand	s588
45.668	0.733	0	UA_without_intermediate	3,2,1,0,0,0,0,0,0	practice	ward_and_allport	3,2,1,0,0,0,0,0,0	89.0	2.0	0.733	0,0,0,1,2,0,3,0,0	to_board	s588
46.407	1.0	0	UA_without_intermediate	n/a	practice	ward_and_allport	n/a	-1.0	2.0	n/a	n/a	feedback	s588
47.407	1.2	0	UA_without_intermediate	n/a	practice	ward_and_allport	n/a	-1.0	2.0	n/a	n/a	ITI	s588
48.608	3.958	1	UA_without_intermediate	0,0,0,1,0,0,3,0,0	practice	ward_and_allport	2,3,1,0,0,0,0,0,0	71.0	3.0	3.958	0,0,0,1,2,0,3,0,0	to_hand	s588
52.567	0.427	0	UA_without_intermediate	2,0,0,1,0,0,3,0,0	practice	ward_and_allport	2,3,1,0,0,0,0,0,0	89.0	3.0	0.427	0,0,0,1,2,0,3,0,0	to_board	s588
52.997	0.644	0	UA_without_intermediate	2,0,0,1,0,0,0,0,0	practice	ward_and_allport	2,3,1,0,0,0,0,0,0	82.0	3.0	0.644	0,0,0,1,2,0,3,0,0	to_hand	s588
53.641	0.583	0	UA_without_intermediate	2,3,0,1,0,0,0,0,0	practice	ward_and_allport	2,3,1,0,0,0,0,0,0	89.0	3.0	0.583	0,0,0,1,2,0,3,0,0	to_board	s588
54.227	0.524	0	UA_without_intermediate	2,3,0,0,0,0,0,0,0	practice	ward_and_allport	2,3,1,0,0,0,0,0,0	71.0	3.0	0.524	0,0,0,1,2,0,3,0,0	to_hand	s588
54.751	0.481	0	UA_without_intermediate	2,3,1,0,0,0,0,0,0	practice	ward_and_allport	2,3,1,0,0,0,0,0,0	89.0	3.0	0.481	0,0,0,1,2,0,3,0,0	to_board	s588
55.236	1.0	0	UA_without_intermediate	n/a	practice	ward_and_allport	n/a	-1.0	3.0	n/a	n/a	feedback	s588
56.236	1.0	0	UA_without_intermediate	n/a	practice	ward_and_allport	n/a	-1.0	3.0	n/a	n/a	ITI	s588
59.243	3.768	1	PA_with_intermediate	0,0,0,1,2,0,0,0,0	test	ward_and_allport	2,0,0,1,3,0,0,0,0	71.0	0.0	3.768	0,0,0,1,2,3,0,0,0	to_hand	s588
63.012	0.756	0	PA_with_intermediate	0,0,0,1,2,0,3,0,0	test	ward_and_allport	2,0,0,1,3,0,0,0,0	82.0	0.0	0.756	0,0,0,1,2,3,0,0,0	to_board	s588
63.771	0.748	0	PA_with_intermediate	0,0,0,1,0,0,3,0,0	test	ward_and_allport	2,0,0,1,3,0,0,0,0	71.0	0.0	0.748	0,0,0,1,2,3,0,0,0	to_hand	s588
64.52	0.667	0	PA_with_intermediate	2,0,0,1,0,0,3,0,0	test	ward_and_allport	2,0,0,1,3,0,0,0,0	89.0	0.0	0.667	0,0,0,1,2,3,0,0,0	to_board	s588
65.189	2.029	0	PA_with_intermediate	2,0,0,1,0,0,0,0,0	test	ward_and_allport	2,0,0,1,3,0,0,0,0	82.0	0.0	2.029	0,0,0,1,2,3,0,0,0	to_hand	s588
67.219	0.44	0	PA_with_intermediate	2,0,0,1,3,0,0,0,0	test	ward_and_allport	2,0,0,1,3,0,0,0,0	71.0	0.0	0.44	0,0,0,1,2,3,0,0,0	to_board	s588
67.664	1.0	0	PA_with_intermediate	n/a	test	ward_and_allport	n/a	-1.0	0.0	n/a	n/a	feedback	s588
68.664	3.176	0	PA_with_intermediate	n/a	test	ward_and_allport	n/a	-1.0	0.0	n/a	n/a	ITI	s588
71.841	4.362	1	PA_with_intermediate	0,0,0,0,0,0,1,2,0	test	ward_and_allport	0,0,0,2,0,0,1,3,0	82.0	1.0	4.362	0,0,0,0,0,0,1,2,3	to_hand	s588
76.204	0.618	0	PA_with_intermediate	3,0,0,0,0,0,1,2,0	test	ward_and_allport	0,0,0,2,0,0,1,3,0	89.0	1.0	0.618	0,0,0,0,0,0,1,2,3	to_board	s588
76.824	1.729	0	PA_with_intermediate	3,0,0,0,0,0,1,0,0	test	ward_and_allport	0,0,0,2,0,0,1,3,0	82.0	1.0	1.729	0,0,0,0,0,0,1,2,3	to_hand	s588
78.554	0.529	0	PA_with_intermediate	3,0,0,2,0,0,1,0,0	test	ward_and_allport	0,0,0,2,0,0,1,3,0	71.0	1.0	0.529	0,0,0,0,0,0,1,2,3	to_board	s588
79.086	0.829	0	PA_with_intermediate	0,0,0,2,0,0,1,0,0	test	ward_and_allport	0,0,0,2,0,0,1,3,0	89.0	1.0	0.829	0,0,0,0,0,0,1,2,3	to_hand	s588
79.915	0.427	0	PA_with_intermediate	0,0,0,2,0,0,1,3,0	test	ward_and_allport	0,0,0,2,0,0,1,3,0	82.0	1.0	0.427	0,0,0,0,0,0,1,2,3	to_board	s588
80.347	1.0	0	PA_with_intermediate	n/a	test	ward_and_allport	n/a	-1.0	1.0	n/a	n/a	feedback	s588
81.347	2.36	0	PA_with_intermediate	n/a	test	ward_and_allport	n/a	-1.0	1.0	n/a	n/a	ITI	s588
83.709	4.054	1	PA_with_intermediate	0,0,0,0,0,0,1,2,0	test	ward_and_allport	2,3,0,0,0,0,1,0,0	82.0	2.0	4.054	0,0,0,0,0,0,1,2,3	to_hand	s588
87.763	0.812	0	PA_with_intermediate	0,0,0,3,0,0,1,2,0	test	ward_and_allport	2,3,0,0,0,0,1,0,0	71.0	2.0	0.812	0,0,0,0,0,0,1,2,3	to_board	s588
88.577	1.061	0	PA_with_intermediate	0,0,0,3,0,0,1,0,0	test	ward_and_allport	2,3,0,0,0,0,1,0,0	82.0	2.0	1.061	0,0,0,0,0,0,1,2,3	to_hand	s588
89.64	0.609	0	PA_with_intermediate	2,0,0,3,0,0,1,0,0	test	ward_and_allport	2,3,0,0,0,0,1,0,0	89.0	2.0	0.609	0,0,0,0,0,0,1,2,3	to_board	s588
90.251	1.674	0	PA_with_intermediate	2,0,0,0,0,0,1,0,0	test	ward_and_allport	2,3,0,0,0,0,1,0,0	71.0	2.0	1.674	0,0,0,0,0,0,1,2,3	to_hand	s588
91.925	0.389	0	PA_with_intermediate	2,3,0,0,0,0,1,0,0	test	ward_and_allport	2,3,0,0,0,0,1,0,0	89.0	2.0	0.389	0,0,0,0,0,0,1,2,3	to_board	s588
92.32	1.0	0	PA_with_intermediate	n/a	test	ward_and_allport	n/a	-1.0	2.0	n/a	n/a	feedback	s588
93.32	1.0	0	PA_with_intermediate	n/a	test	ward_and_allport	n/a	-1.0	2.0	n/a	n/a	ITI	s588
94.322	4.092	1	PA_without_intermediate	0,0,0,1,2,0,0,0,0	test	ward_and_allport	3,2,0,0,0,0,1,0,0	71.0	3.0	4.092	0,0,0,1,2,3,0,0,0	to_hand	s588
98.415	0.388	0	PA_without_intermediate	3,0,0,1,2,0,0,0,0	test	ward_and_allport	3,2,0,0,0,0,1,0,0	89.0	3.0	0.388	0,0,0,1,2,3,0,0,0	to_board	s588
98.805	0.53	0	PA_without_intermediate	3,0,0,1,0,0,0,0,0	test	ward_and_allport	3,2,0,0,0,0,1,0,0	71.0	3.0	0.53	0,0,0,1,2,3,0,0,0	to_hand	s588
99.337	0.45	0	PA_without_intermediate	3,2,0,1,0,0,0,0,0	test	ward_and_allport	3,2,0,0,0,0,1,0,0	89.0	3.0	0.45	0,0,0,1,2,3,0,0,0	to_board	s588
99.79	0.761	0	PA_without_intermediate	3,2,0,0,0,0,0,0,0	test	ward_and_allport	3,2,0,0,0,0,1,0,0	71.0	3.0	0.761	0,0,0,1,2,3,0,0,0	to_hand	s588
100.551	0.521	0	PA_without_intermediate	3,2,0,0,0,0,1,0,0	test	ward_and_allport	3,2,0,0,0,0,1,0,0	82.0	3.0	0.521	0,0,0,1,2,3,0,0,0	to_board	s588
101.075	1.0	0	PA_without_intermediate	n/a	test	ward_and_allport	n/a	-1.0	3.0	n/a	n/a	feedback	s588
102.075	1.408	0	PA_without_intermediate	n/a	test	ward_and_allport	n/a	-1.0	3.0	n/a	n/a	ITI	s588
103.487	2.668	1	PA_with_intermediate	1,2,0,0,0,0,0,0,0	test	ward_and_allport	1,0,0,2,3,0,0,0,0	89.0	4.0	2.668	1,2,3,0,0,0,0,0,0	to_hand	s588
106.156	0.443	0	PA_with_intermediate	1,2,0,0,0,0,3,0,0	test	ward_and_allport	1,0,0,2,3,0,0,0,0	82.0	4.0	0.443	1,2,3,0,0,0,0,0,0	to_board	s588
106.601	0.808	0	PA_with_intermediate	1,0,0,0,0,0,3,0,0	test	ward_and_allport	1,0,0,2,3,0,0,0,0	89.0	4.0	0.808	1,2,3,0,0,0,0,0,0	to_hand	s588
107.411	0.71	0	PA_with_intermediate	1,0,0,2,0,0,3,0,0	test	ward_and_allport	1,0,0,2,3,0,0,0,0	71.0	4.0	0.71	1,2,3,0,0,0,0,0,0	to_board	s588
108.125	1.005	0	PA_with_intermediate	1,0,0,2,0,0,0,0,0	test	ward_and_allport	1,0,0,2,3,0,0,0,0	82.0	4.0	1.005	1,2,3,0,0,0,0,0,0	to_hand	s588
109.13	0.477	0	PA_with_intermediate	1,0,0,2,3,0,0,0,0	test	ward_and_allport	1,0,0,2,3,0,0,0,0	71.0	4.0	0.477	1,2,3,0,0,0,0,0,0	to_board	s588
109.612	1.0	0	PA_with_intermediate	n/a	test	ward_and_allport	n/a	-1.0	4.0	n/a	n/a	feedback	s588
110.612	1.816	0	PA_with_intermediate	n/a	test	ward_and_allport	n/a	-1.0	4.0	n/a	n/a	ITI	s588
112.431	3.808	1	PA_without_intermediate	0,0,0,0,0,0,1,2,0	test	ward_and_allport	1,0,0,3,2,0,0,0,0	82.0	5.0	3.808	0,0,0,0,0,0,1,2,3	to_hand	s588
116.24	1.086	0	PA_without_intermediate	0,0,0,3,0,0,1,2,0	test	ward_and_allport	1,0,0,3,2,0,0,0,0	71.0	5.0	1.086	0,0,0,0,0,0,1,2,3	to_board	s588
117.328	0.63	0	PA_without_intermediate	0,0,0,3,0,0,1,0,0	test	ward_and_allport	1,0,0,3,2,0,0,0,0	82.0	5.0	0.63	0,0,0,0,0,0,1,2,3	to_hand	s588
117.96	0.55	0	PA_without_intermediate	0,0,0,3,2,0,1,0,0	test	ward_and_allport	1,0,0,3,2,0,0,0,0	71.0	5.0	0.55	0,0,0,0,0,0,1,2,3	to_board	s588
118.513	0.461	0	PA_without_intermediate	0,0,0,3,2,0,0,0,0	test	ward_and_allport	1,0,0,3,2,0,0,0,0	82.0	5.0	0.461	0,0,0,0,0,0,1,2,3	to_hand	s588
118.974	0.388	0	PA_without_intermediate	1,0,0,3,2,0,0,0,0	test	ward_and_allport	1,0,0,3,2,0,0,0,0	89.0	5.0	0.388	0,0,0,0,0,0,1,2,3	to_board	s588
119.367	1.0	0	PA_without_intermediate	n/a	test	ward_and_allport	n/a	-1.0	5.0	n/a	n/a	feedback	s588
120.367	2.088	0	PA_without_intermediate	n/a	test	ward_and_allport	n/a	-1.0	5.0	n/a	n/a	ITI	s588
122.457	2.371	1	PA_without_intermediate	0,0,0,0,0,0,1,2,0	test	ward_and_allport	3,1,0,2,0,0,0,0,0	82.0	6.0	2.371	0,0,0,0,0,0,1,2,3	to_hand	s588
124.829	0.828	0	PA_without_intermediate	3,0,0,0,0,0,1,2,0	test	ward_and_allport	3,1,0,2,0,0,0,0,0	89.0	6.0	0.828	0,0,0,0,0,0,1,2,3	to_board	s588
125.66	1.037	0	PA_without_intermediate	3,0,0,0,0,0,1,0,0	test	ward_and_allport	3,1,0,2,0,0,0,0,0	82.0	6.0	1.037	0,0,0,0,0,0,1,2,3	to_hand	s588
126.698	0.449	0	PA_without_intermediate	3,0,0,2,0,0,1,0,0	test	ward_and_allport	3,1,0,2,0,0,0,0,0	71.0	6.0	0.449	0,0,0,0,0,0,1,2,3	to_board	s588
127.151	0.606	0	PA_without_intermediate	3,0,0,2,0,0,0,0,0	test	ward_and_allport	3,1,0,2,0,0,0,0,0	82.0	6.0	0.606	0,0,0,0,0,0,1,2,3	to_hand	s588
127.757	0.496	0	PA_without_intermediate	3,1,0,2,0,0,0,0,0	test	ward_and_allport	3,1,0,2,0,0,0,0,0	89.0	6.0	0.496	0,0,0,0,0,0,1,2,3	to_board	s588
128.26	1.0	0	PA_without_intermediate	n/a	test	ward_and_allport	n/a	-1.0	6.0	n/a	n/a	feedback	s588
129.26	1.136	0	PA_without_intermediate	n/a	test	ward_and_allport	n/a	-1.0	6.0	n/a	n/a	ITI	s588
130.399	2.65	1	PA_without_intermediate	1,2,0,0,0,0,0,0,0	test	ward_and_allport	0,0,0,1,0,0,3,2,0	89.0	7.0	2.65	1,2,3,0,0,0,0,0,0	to_hand	s588
133.05	0.612	0	PA_without_intermediate	1,2,0,0,0,0,3,0,0	test	ward_and_allport	0,0,0,1,0,0,3,2,0	82.0	7.0	0.612	1,2,3,0,0,0,0,0,0	to_board	s588
133.666	0.463	0	PA_without_intermediate	1,0,0,0,0,0,3,0,0	test	ward_and_allport	0,0,0,1,0,0,3,2,0	89.0	7.0	0.463	1,2,3,0,0,0,0,0,0	to_hand	s588
134.13	0.407	0	PA_without_intermediate	1,0,0,0,0,0,3,2,0	test	ward_and_allport	0,0,0,1,0,0,3,2,0	82.0	7.0	0.407	1,2,3,0,0,0,0,0,0	to_board	s588
134.54	0.524	0	PA_without_intermediate	0,0,0,0,0,0,3,2,0	test	ward_and_allport	0,0,0,1,0,0,3,2,0	89.0	7.0	0.524	1,2,3,0,0,0,0,0,0	to_hand	s588
135.065	0.415	0	PA_without_intermediate	0,0,0,1,0,0,3,2,0	test	ward_and_allport	0,0,0,1,0,0,3,2,0	71.0	7.0	0.415	1,2,3,0,0,0,0,0,0	to_board	s588
135.487	1.0	0	PA_without_intermediate	n/a	test	ward_and_allport	n/a	-1.0	7.0	n/a	n/a	feedback	s588
136.487	6.168	0	PA_without_intermediate	n/a	test	ward_and_allport	n/a	-1.0	7.0	n/a	n/a	ITI	s588
142.659	3.111	1	PA_without_intermediate	0,0,0,0,0,0,1,2,0	test	ward_and_allport	1,0,0,3,2,0,0,0,0	82.0	8.0	3.111	0,0,0,0,0,0,1,2,3	to_hand	s588
145.77	0.543	0	PA_without_intermediate	0,0,0,3,0,0,1,2,0	test	ward_and_allport	1,0,0,3,2,0,0,0,0	71.0	8.0	0.543	0,0,0,0,0,0,1,2,3	to_board	s588
146.316	0.435	0	PA_without_intermediate	0,0,0,3,0,0,1,0,0	test	ward_and_allport	1,0,0,3,2,0,0,0,0	82.0	8.0	0.435	0,0,0,0,0,0,1,2,3	to_hand	s588
146.752	0.42	0	PA_without_intermediate	0,0,0,3,2,0,1,0,0	test	ward_and_allport	1,0,0,3,2,0,0,0,0	71.0	8.0	0.42	0,0,0,0,0,0,1,2,3	to_board	s588
147.177	0.828	0	PA_without_intermediate	0,0,0,3,2,0,0,0,0	test	ward_and_allport	1,0,0,3,2,0,0,0,0	82.0	8.0	0.828	0,0,0,0,0,0,1,2,3	to_hand	s588
148.007	0.665	0	PA_without_intermediate	1,0,0,3,2,0,0,0,0	test	ward_and_allport	1,0,0,3,2,0,0,0,0	89.0	8.0	0.665	0,0,0,0,0,0,1,2,3	to_board	s588
148.68	1.0	0	PA_without_intermediate	n/a	test	ward_and_allport	n/a	-1.0	8.0	n/a	n/a	feedback	s588
149.68	1.816	0	PA_without_intermediate	n/a	test	ward_and_allport	n/a	-1.0	8.0	n/a	n/a	ITI	s588
151.5	3.328	1	PA_with_intermediate	1,2,0,0,0,0,0,0,0	test	ward_and_allport	1,0,0,0,0,0,2,3,0	89.0	9.0	3.328	1,2,3,0,0,0,0,0,0	to_hand	s588
154.829	0.332	0	PA_with_intermediate	1,2,0,3,0,0,0,0,0	test	ward_and_allport	1,0,0,0,0,0,2,3,0	71.0	9.0	0.332	1,2,3,0,0,0,0,0,0	to_board	s588
155.164	0.409	0	PA_with_intermediate	1,0,0,3,0,0,0,0,0	test	ward_and_allport	1,0,0,0,0,0,2,3,0	89.0	9.0	0.409	1,2,3,0,0,0,0,0,0	to_hand	s588
155.574	0.549	0	PA_with_intermediate	1,0,0,3,0,0,2,0,0	test	ward_and_allport	1,0,0,0,0,0,2,3,0	82.0	9.0	0.549	1,2,3,0,0,0,0,0,0	to_board	s588
156.127	1.147	0	PA_with_intermediate	1,0,0,0,0,0,2,0,0	test	ward_and_allport	1,0,0,0,0,0,2,3,0	71.0	9.0	1.147	1,2,3,0,0,0,0,0,0	to_hand	s588
157.275	0.406	0	PA_with_intermediate	1,0,0,0,0,0,2,3,0	test	ward_and_allport	1,0,0,0,0,0,2,3,0	82.0	9.0	0.406	1,2,3,0,0,0,0,0,0	to_board	s588
157.686	1.0	0	PA_with_intermediate	n/a	test	ward_and_allport	n/a	-1.0	9.0	n/a	n/a	feedback	s588
158.686	1.952	0	PA_with_intermediate	n/a	test	ward_and_allport	n/a	-1.0	9.0	n/a	n/a	ITI	s588
160.642	2.8	1	PA_with_intermediate	0,0,0,0,0,0,1,2,0	test	ward_and_allport	2,3,0,0,0,0,1,0,0	82.0	10.0	2.8	0,0,0,0,0,0,1,2,3	to_hand	s588
163.443	0.509	0	PA_with_intermediate	0,0,0,3,0,0,1,2,0	test	ward_and_allport	2,3,0,0,0,0,1,0,0	71.0	10.0	0.509	0,0,0,0,0,0,1,2,3	to_board	s588
163.956	0.424	0	PA_with_intermediate	0,0,0,3,0,0,1,0,0	test	ward_and_allport	2,3,0,0,0,0,1,0,0	82.0	10.0	0.424	0,0,0,0,0,0,1,2,3	to_hand	s588
164.381	0.768	0	PA_with_intermediate	2,0,0,3,0,0,1,0,0	test	ward_and_allport	2,3,0,0,0,0,1,0,0	89.0	10.0	0.768	0,0,0,0,0,0,1,2,3	to_board	s588
165.153	1.005	0	PA_with_intermediate	2,0,0,0,0,0,1,0,0	test	ward_and_allport	2,3,0,0,0,0,1,0,0	71.0	10.0	1.005	0,0,0,0,0,0,1,2,3	to_hand	s588
166.159	0.251	0	PA_with_intermediate	2,3,0,0,0,0,1,0,0	test	ward_and_allport	2,3,0,0,0,0,1,0,0	89.0	10.0	0.251	0,0,0,0,0,0,1,2,3	to_board	s588
166.417	1.0	0	PA_with_intermediate	n/a	test	ward_and_allport	n/a	-1.0	10.0	n/a	n/a	feedback	s588
167.417	1.136	0	PA_with_intermediate	n/a	test	ward_and_allport	n/a	-1.0	10.0	n/a	n/a	ITI	s588
168.556	2.032	1	PA_without_intermediate	0,0,0,0,0,0,1,2,0	test	ward_and_allport	2,0,0,3,1,0,0,0,0	82.0	11.0	2.032	0,0,0,0,0,0,1,2,3	to_hand	s588
170.59	0.588	0	PA_without_intermediate	0,0,0,3,0,0,1,2,0	test	ward_and_allport	2,0,0,3,1,0,0,0,0	71.0	11.0	0.588	0,0,0,0,0,0,1,2,3	to_board	s588
171.181	0.821	0	PA_without_intermediate	0,0,0,3,0,0,1,0,0	test	ward_and_allport	2,0,0,3,1,0,0,0,0	82.0	11.0	0.821	0,0,0,0,0,0,1,2,3	to_hand	s588
172.003	0.48	0	PA_without_intermediate	2,0,0,3,0,0,1,0,0	test	ward_and_allport	2,0,0,3,1,0,0,0,0	89.0	11.0	0.48	0,0,0,0,0,0,1,2,3	to_board	s588
172.487	1.359	0	PA_without_intermediate	2,0,0,3,0,0,0,0,0	test	ward_and_allport	2,0,0,3,1,0,0,0,0	82.0	11.0	1.359	0,0,0,0,0,0,1,2,3	to_hand	s588
173.847	0.377	0	PA_without_intermediate	2,0,0,3,1,0,0,0,0	test	ward_and_allport	2,0,0,3,1,0,0,0,0	71.0	11.0	0.377	0,0,0,0,0,0,1,2,3	to_board	s588
174.23	1.0	0	PA_without_intermediate	n/a	test	ward_and_allport	n/a	-1.0	11.0	n/a	n/a	feedback	s588
175.23	1.68	0	PA_without_intermediate	n/a	test	ward_and_allport	n/a	-1.0	11.0	n/a	n/a	ITI	s588
176.914	2.488	1	PA_without_intermediate	0,0,0,0,0,0,1,2,0	test	ward_and_allport	3,2,0,1,0,0,0,0,0	82.0	12.0	2.488	0,0,0,0,0,0,1,2,3	to_hand	s588
179.403	0.476	0	PA_without_intermediate	3,0,0,0,0,0,1,2,0	test	ward_and_allport	3,2,0,1,0,0,0,0,0	89.0	12.0	0.476	0,0,0,0,0,0,1,2,3	to_board	s588
179.883	0.473	0	PA_without_intermediate	3,0,0,0,0,0,1,0,0	test	ward_and_allport	3,2,0,1,0,0,0,0,0	82.0	12.0	0.473	0,0,0,0,0,0,1,2,3	to_hand	s588
180.356	0.524	0	PA_without_intermediate	3,2,0,0,0,0,1,0,0	test	ward_and_allport	3,2,0,1,0,0,0,0,0	89.0	12.0	0.524	0,0,0,0,0,0,1,2,3	to_board	s588
180.885	1.449	0	PA_without_intermediate	3,2,0,0,0,0,0,0,0	test	ward_and_allport	3,2,0,1,0,0,0,0,0	82.0	12.0	1.449	0,0,0,0,0,0,1,2,3	to_hand	s588
182.335	0.276	0	PA_without_intermediate	3,2,0,1,0,0,0,0,0	test	ward_and_allport	3,2,0,1,0,0,0,0,0	71.0	12.0	0.276	0,0,0,0,0,0,1,2,3	to_board	s588
182.618	1.0	0	PA_without_intermediate	n/a	test	ward_and_allport	n/a	-1.0	12.0	n/a	n/a	feedback	s588
183.618	2.088	0	PA_without_intermediate	n/a	test	ward_and_allport	n/a	-1.0	12.0	n/a	n/a	ITI	s588
185.709	4.696	1	PA_with_intermediate	0,0,0,0,0,0,1,2,0	test	ward_and_allport	2,0,0,0,0,0,1,3,0	82.0	13.0	4.696	0,0,0,0,0,0,1,2,3	to_hand	s588
190.406	0.509	0	PA_with_intermediate	0,0,0,3,0,0,1,2,0	test	ward_and_allport	2,0,0,0,0,0,1,3,0	71.0	13.0	0.509	0,0,0,0,0,0,1,2,3	to_board	s588
190.919	0.467	0	PA_with_intermediate	0,0,0,3,0,0,1,0,0	test	ward_and_allport	2,0,0,0,0,0,1,3,0	82.0	13.0	0.467	0,0,0,0,0,0,1,2,3	to_hand	s588
191.387	0.481	0	PA_with_intermediate	2,0,0,3,0,0,1,0,0	test	ward_and_allport	2,0,0,0,0,0,1,3,0	89.0	13.0	0.481	0,0,0,0,0,0,1,2,3	to_board	s588
191.872	0.619	0	PA_with_intermediate	2,0,0,0,0,0,1,0,0	test	ward_and_allport	2,0,0,0,0,0,1,3,0	71.0	13.0	0.619	0,0,0,0,0,0,1,2,3	to_hand	s588
192.492	0.45	0	PA_with_intermediate	2,0,0,0,0,0,1,3,0	test	ward_and_allport	2,0,0,0,0,0,1,3,0	82.0	13.0	0.45	0,0,0,0,0,0,1,2,3	to_board	s588
192.949	1.0	0	PA_with_intermediate	n/a	test	ward_and_allport	n/a	-1.0	13.0	n/a	n/a	feedback	s588
193.949	1.0	0	PA_with_intermediate	n/a	test	ward_and_allport	n/a	-1.0	13.0	n/a	n/a	ITI	s588
194.952	2.713	1	PA_without_intermediate	0,0,0,1,2,0,0,0,0	test	ward_and_allport	1,0,0,0,0,0,3,2,0	71.0	14.0	2.713	0,0,0,1,2,3,0,0,0	to_hand	s588
197.666	0.443	0	PA_without_intermediate	0,0,0,1,2,0,3,0,0	test	ward_and_allport	1,0,0,0,0,0,3,2,0	82.0	14.0	0.443	0,0,0,1,2,3,0,0,0	to_board	s588
198.112	0.402	0	PA_without_intermediate	0,0,0,1,0,0,3,0,0	test	ward_and_allport	1,0,0,0,0,0,3,2,0	71.0	14.0	0.402	0,0,0,1,2,3,0,0,0	to_hand	s588
198.516	0.431	0	PA_without_intermediate	0,0,0,1,0,0,3,2,0	test	ward_and_allport	1,0,0,0,0,0,3,2,0	82.0	14.0	0.431	0,0,0,1,2,3,0,0,0	to_board	s588
198.95	0.459	0	PA_without_intermediate	0,0,0,0,0,0,3,2,0	test	ward_and_allport	1,0,0,0,0,0,3,2,0	71.0	14.0	0.459	0,0,0,1,2,3,0,0,0	to_hand	s588
199.41	0.394	0	PA_without_intermediate	1,0,0,0,0,0,3,2,0	test	ward_and_allport	1,0,0,0,0,0,3,2,0	89.0	14.0	0.394	0,0,0,1,2,3,0,0,0	to_board	s588
199.811	1.0	0	PA_without_intermediate	n/a	test	ward_and_allport	n/a	-1.0	14.0	n/a	n/a	feedback	s588
200.811	1.0	0	PA_without_intermediate	n/a	test	ward_and_allport	n/a	-1.0	14.0	n/a	n/a	ITI	s588
206.82	3.382	1	PA_without_intermediate	1,2,0,0,0,0,0,0,0	test	ward_and_allport	0,0,0,3,1,0,2,0,0	89.0	15.0	3.382	1,2,3,0,0,0,0,0,0	to_hand	s588
210.203	0.54	0	PA_without_intermediate	1,2,0,3,0,0,0,0,0	test	ward_and_allport	0,0,0,3,1,0,2,0,0	71.0	15.0	0.54	1,2,3,0,0,0,0,0,0	to_board	s588
210.747	0.477	0	PA_without_intermediate	1,0,0,3,0,0,0,0,0	test	ward_and_allport	0,0,0,3,1,0,2,0,0	89.0	15.0	0.477	1,2,3,0,0,0,0,0,0	to_hand	s588
211.225	0.519	0	PA_without_intermediate	1,0,0,3,0,0,2,0,0	test	ward_and_allport	0,0,0,3,1,0,2,0,0	82.0	15.0	0.519	1,2,3,0,0,0,0,0,0	to_board	s588
211.748	0.734	0	PA_without_intermediate	0,0,0,3,0,0,2,0,0	test	ward_and_allport	0,0,0,3,1,0,2,0,0	89.0	15.0	0.734	1,2,3,0,0,0,0,0,0	to_hand	s588
212.483	0.441	0	PA_without_intermediate	0,0,0,3,1,0,2,0,0	test	ward_and_allport	0,0,0,3,1,0,2,0,0	71.0	15.0	0.441	1,2,3,0,0,0,0,0,0	to_board	s588
212.928	1.0	0	PA_without_intermediate	n/a	test	ward_and_allport	n/a	-1.0	15.0	n/a	n/a	feedback	s588
213.928	1.0	0	PA_without_intermediate	n/a	test	ward_and_allport	n/a	-1.0	15.0	n/a	n/a	ITI	s588
214.933	2.829	1	PA_with_intermediate	0,0,0,0,0,0,1,2,0	test	ward_and_allport	2,0,0,0,0,0,1,3,0	82.0	16.0	2.829	0,0,0,0,0,0,1,2,3	to_hand	s588
217.763	0.794	0	PA_with_intermediate	0,0,0,3,0,0,1,2,0	test	ward_and_allport	2,0,0,0,0,0,1,3,0	71.0	16.0	0.794	0,0,0,0,0,0,1,2,3	to_board	s588
218.56	0.431	0	PA_with_intermediate	0,0,0,3,0,0,1,0,0	test	ward_and_allport	2,0,0,0,0,0,1,3,0	82.0	16.0	0.431	0,0,0,0,0,0,1,2,3	to_hand	s588
218.993	0.477	0	PA_with_intermediate	2,0,0,3,0,0,1,0,0	test	ward_and_allport	2,0,0,0,0,0,1,3,0	89.0	16.0	0.477	0,0,0,0,0,0,1,2,3	to_board	s588
219.475	0.549	0	PA_with_intermediate	2,0,0,0,0,0,1,0,0	test	ward_and_allport	2,0,0,0,0,0,1,3,0	71.0	16.0	0.549	0,0,0,0,0,0,1,2,3	to_hand	s588
220.024	0.396	0	PA_with_intermediate	2,0,0,0,0,0,1,3,0	test	ward_and_allport	2,0,0,0,0,0,1,3,0	82.0	16.0	0.396	0,0,0,0,0,0,1,2,3	to_board	s588
220.427	1.0	0	PA_with_intermediate	n/a	test	ward_and_allport	n/a	-1.0	16.0	n/a	n/a	feedback	s588
221.427	1.544	0	PA_with_intermediate	n/a	test	ward_and_allport	n/a	-1.0	16.0	n/a	n/a	ITI	s588
222.976	2.582	1	PA_without_intermediate	0,0,0,1,2,0,0,0,0	test	ward_and_allport	3,1,0,0,0,0,2,0,0	71.0	17.0	2.582	0,0,0,1,2,3,0,0,0	to_hand	s588
225.559	0.506	0	PA_without_intermediate	3,0,0,1,2,0,0,0,0	test	ward_and_allport	3,1,0,0,0,0,2,0,0	89.0	17.0	0.506	0,0,0,1,2,3,0,0,0	to_board	s588
226.068	0.52	0	PA_without_intermediate	3,0,0,1,0,0,0,0,0	test	ward_and_allport	3,1,0,0,0,0,2,0,0	71.0	17.0	0.52	0,0,0,1,2,3,0,0,0	to_hand	s588
226.589	0.474	0	PA_without_intermediate	3,0,0,1,0,0,2,0,0	test	ward_and_allport	3,1,0,0,0,0,2,0,0	82.0	17.0	0.474	0,0,0,1,2,3,0,0,0	to_board	s588
227.067	0.599	0	PA_without_intermediate	3,0,0,0,0,0,2,0,0	test	ward_and_allport	3,1,0,0,0,0,2,0,0	71.0	17.0	0.599	0,0,0,1,2,3,0,0,0	to_hand	s588
227.668	0.407	0	PA_without_intermediate	3,1,0,0,0,0,2,0,0	test	ward_and_allport	3,1,0,0,0,0,2,0,0	89.0	17.0	0.407	0,0,0,1,2,3,0,0,0	to_board	s588
228.081	1.0	0	PA_without_intermediate	n/a	test	ward_and_allport	n/a	-1.0	17.0	n/a	n/a	feedback	s588
229.081	1.272	0	PA_without_intermediate	n/a	test	ward_and_allport	n/a	-1.0	17.0	n/a	n/a	ITI	s588
230.357	2.158	1	PA_with_intermediate	0,0,0,0,0,0,1,2,0	test	ward_and_allport	0,0,0,2,3,0,1,0,0	82.0	18.0	2.158	0,0,0,0,0,0,1,2,3	to_hand	s588
232.516	0.667	0	PA_with_intermediate	0,0,0,3,0,0,1,2,0	test	ward_and_allport	0,0,0,2,3,0,1,0,0	71.0	18.0	0.667	0,0,0,0,0,0,1,2,3	to_board	s588
233.187	2.24	0	PA_with_intermediate	0,0,0,0,0,0,1,2,0	test	ward_and_allport	0,0,0,2,3,0,1,0,0	71.0	18.0	2.24	0,0,0,0,0,0,1,2,3	to_hand	s588
235.428	1.576	0	PA_with_intermediate	3,0,0,0,0,0,1,2,0	test	ward_and_allport	0,0,0,2,3,0,1,0,0	89.0	18.0	1.576	0,0,0,0,0,0,1,2,3	to_board	s588
237.009	1.148	0	PA_with_intermediate	3,0,0,0,0,0,1,0,0	test	ward_and_allport	0,0,0,2,3,0,1,0,0	82.0	18.0	1.148	0,0,0,0,0,0,1,2,3	to_hand	s588
238.158	0.576	0	PA_with_intermediate	3,0,0,2,0,0,1,0,0	test	ward_and_allport	0,0,0,2,3,0,1,0,0	71.0	18.0	0.576	0,0,0,0,0,0,1,2,3	to_board	s588
238.737	0.506	0	PA_with_intermediate	0,0,0,2,0,0,1,0,0	test	ward_and_allport	0,0,0,2,3,0,1,0,0	89.0	18.0	0.506	0,0,0,0,0,0,1,2,3	to_hand	s588
239.244	0.806	0	PA_with_intermediate	0,0,0,2,3,0,1,0,0	test	ward_and_allport	0,0,0,2,3,0,1,0,0	71.0	18.0	0.806	0,0,0,0,0,0,1,2,3	to_board	s588
240.057	1.0	0	PA_with_intermediate	n/a	test	ward_and_allport	n/a	-1.0	18.0	n/a	n/a	feedback	s588
241.057	3.04	0	PA_with_intermediate	n/a	test	ward_and_allport	n/a	-1.0	18.0	n/a	n/a	ITI	s588
244.101	3.355	1	PA_with_intermediate	0,0,0,1,2,0,0,0,0	test	ward_and_allport	0,0,0,1,3,0,2,0,0	71.0	19.0	3.355	0,0,0,1,2,3,0,0,0	to_hand	s588
247.457	0.426	0	PA_with_intermediate	3,0,0,1,2,0,0,0,0	test	ward_and_allport	0,0,0,1,3,0,2,0,0	89.0	19.0	0.426	0,0,0,1,2,3,0,0,0	to_board	s588
247.887	0.423	0	PA_with_intermediate	3,0,0,1,0,0,0,0,0	test	ward_and_allport	0,0,0,1,3,0,2,0,0	71.0	19.0	0.423	0,0,0,1,2,3,0,0,0	to_hand	s588
248.311	0.561	0	PA_with_intermediate	3,0,0,1,0,0,2,0,0	test	ward_and_allport	0,0,0,1,3,0,2,0,0	82.0	19.0	0.561	0,0,0,1,2,3,0,0,0	to_board	s588
248.877	0.469	0	PA_with_intermediate	0,0,0,1,0,0,2,0,0	test	ward_and_allport	0,0,0,1,3,0,2,0,0	89.0	19.0	0.469	0,0,0,1,2,3,0,0,0	to_hand	s588
249.346	0.33	0	PA_with_intermediate	0,0,0,1,3,0,2,0,0	test	ward_and_allport	0,0,0,1,3,0,2,0,0	71.0	19.0	0.33	0,0,0,1,2,3,0,0,0	to_board	s588
249.682	1.0	0	PA_with_intermediate	n/a	test	ward_and_allport	n/a	-1.0	19.0	n/a	n/a	feedback	s588
250.682	1.272	0	PA_with_intermediate	n/a	test	ward_and_allport	n/a	-1.0	19.0	n/a	n/a	ITI	s588
251.959	4.378	1	PA_with_intermediate	0,0,0,0,0,0,1,2,0	test	ward_and_allport	0,0,0,2,0,0,1,3,0	82.0	20.0	4.378	0,0,0,0,0,0,1,2,3	to_hand	s588
256.338	0.429	0	PA_with_intermediate	3,0,0,0,0,0,1,2,0	test	ward_and_allport	0,0,0,2,0,0,1,3,0	89.0	20.0	0.429	0,0,0,0,0,0,1,2,3	to_board	s588
256.772	1.378	0	PA_with_intermediate	3,0,0,0,0,0,1,0,0	test	ward_and_allport	0,0,0,2,0,0,1,3,0	82.0	20.0	1.378	0,0,0,0,0,0,1,2,3	to_hand	s588
258.151	0.465	0	PA_with_intermediate	3,0,0,2,0,0,1,0,0	test	ward_and_allport	0,0,0,2,0,0,1,3,0	71.0	20.0	0.465	0,0,0,0,0,0,1,2,3	to_board	s588
258.621	0.66	0	PA_with_intermediate	0,0,0,2,0,0,1,0,0	test	ward_and_allport	0,0,0,2,0,0,1,3,0	89.0	20.0	0.66	0,0,0,0,0,0,1,2,3	to_hand	s588
259.283	0.368	0	PA_with_intermediate	0,0,0,2,0,0,1,3,0	test	ward_and_allport	0,0,0,2,0,0,1,3,0	82.0	20.0	0.368	0,0,0,0,0,0,1,2,3	to_board	s588
259.658	1.0	0	PA_with_intermediate	n/a	test	ward_and_allport	n/a	-1.0	20.0	n/a	n/a	feedback	s588
260.658	1.136	0	PA_with_intermediate	n/a	test	ward_and_allport	n/a	-1.0	20.0	n/a	n/a	ITI	s588
261.802	3.842	1	PA_with_intermediate	0,0,0,1,2,0,0,0,0	test	ward_and_allport	2,0,0,1,3,0,0,0,0	71.0	21.0	3.842	0,0,0,1,2,3,0,0,0	to_hand	s588
265.646	0.543	0	PA_with_intermediate	0,0,0,1,2,0,3,0,0	test	ward_and_allport	2,0,0,1,3,0,0,0,0	82.0	21.0	0.543	0,0,0,1,2,3,0,0,0	to_board	s588
266.194	0.406	0	PA_with_intermediate	0,0,0,1,0,0,3,0,0	test	ward_and_allport	2,0,0,1,3,0,0,0,0	71.0	21.0	0.406	0,0,0,1,2,3,0,0,0	to_hand	s588
266.602	0.373	0	PA_with_intermediate	2,0,0,1,0,0,3,0,0	test	ward_and_allport	2,0,0,1,3,0,0,0,0	89.0	21.0	0.373	0,0,0,1,2,3,0,0,0	to_board	s588
266.98	0.42	0	PA_with_intermediate	2,0,0,1,0,0,0,0,0	test	ward_and_allport	2,0,0,1,3,0,0,0,0	82.0	21.0	0.42	0,0,0,1,2,3,0,0,0	to_hand	s588
267.401	0.447	0	PA_with_intermediate	2,0,0,1,3,0,0,0,0	test	ward_and_allport	2,0,0,1,3,0,0,0,0	71.0	21.0	0.447	0,0,0,1,2,3,0,0,0	to_board	s588
267.858	1.0	0	PA_with_intermediate	n/a	test	ward_and_allport	n/a	-1.0	21.0	n/a	n/a	feedback	s588
268.858	1.0	0	PA_with_intermediate	n/a	test	ward_and_allport	n/a	-1.0	21.0	n/a	n/a	ITI	s588
269.864	3.361	1	PA_with_intermediate	0,0,0,1,2,0,0,0,0	test	ward_and_allport	2,3,0,1,0,0,0,0,0	71.0	22.0	3.361	0,0,0,1,2,3,0,0,0	to_hand	s588
273.226	0.416	0	PA_with_intermediate	0,0,0,1,2,0,3,0,0	test	ward_and_allport	2,3,0,1,0,0,0,0,0	82.0	22.0	0.416	0,0,0,1,2,3,0,0,0	to_board	s588
273.647	0.474	0	PA_with_intermediate	0,0,0,1,0,0,3,0,0	test	ward_and_allport	2,3,0,1,0,0,0,0,0	71.0	22.0	0.474	0,0,0,1,2,3,0,0,0	to_hand	s588
274.123	0.418	0	PA_with_intermediate	2,0,0,1,0,0,3,0,0	test	ward_and_allport	2,3,0,1,0,0,0,0,0	89.0	22.0	0.418	0,0,0,1,2,3,0,0,0	to_board	s588
274.546	0.38	0	PA_with_intermediate	2,0,0,1,0,0,0,0,0	test	ward_and_allport	2,3,0,1,0,0,0,0,0	82.0	22.0	0.38	0,0,0,1,2,3,0,0,0	to_hand	s588
274.927	0.693	0	PA_with_intermediate	2,3,0,1,0,0,0,0,0	test	ward_and_allport	2,3,0,1,0,0,0,0,0	89.0	22.0	0.693	0,0,0,1,2,3,0,0,0	to_board	s588
275.629	1.0	0	PA_with_intermediate	n/a	test	ward_and_allport	n/a	-1.0	22.0	n/a	n/a	feedback	s588
276.629	1.0	0	PA_with_intermediate	n/a	test	ward_and_allport	n/a	-1.0	22.0	n/a	n/a	ITI	s588
277.636	2.72	1	PA_without_intermediate	0,0,0,1,2,0,0,0,0	test	ward_and_allport	3,1,0,0,0,0,2,0,0	71.0	23.0	2.72	0,0,0,1,2,3,0,0,0	to_hand	s588
280.357	0.439	0	PA_without_intermediate	3,0,0,1,2,0,0,0,0	test	ward_and_allport	3,1,0,0,0,0,2,0,0	89.0	23.0	0.439	0,0,0,1,2,3,0,0,0	to_board	s588
280.801	0.68	0	PA_without_intermediate	3,0,0,1,0,0,0,0,0	test	ward_and_allport	3,1,0,0,0,0,2,0,0	71.0	23.0	0.68	0,0,0,1,2,3,0,0,0	to_hand	s588
281.482	0.484	0	PA_without_intermediate	3,0,0,1,0,0,2,0,0	test	ward_and_allport	3,1,0,0,0,0,2,0,0	82.0	23.0	0.484	0,0,0,1,2,3,0,0,0	to_board	s588
281.972	0.669	0	PA_without_intermediate	3,0,0,0,0,0,2,0,0	test	ward_and_allport	3,1,0,0,0,0,2,0,0	71.0	23.0	0.669	0,0,0,1,2,3,0,0,0	to_hand	s588
282.642	0.334	0	PA_without_intermediate	3,1,0,0,0,0,2,0,0	test	ward_and_allport	3,1,0,0,0,0,2,0,0	89.0	23.0	0.334	0,0,0,1,2,3,0,0,0	to_board	s588
282.985	1.0	0	PA_without_intermediate	n/a	test	ward_and_allport	n/a	-1.0	23.0	n/a	n/a	feedback	s588
283.985	1.408	0	PA_without_intermediate	n/a	test	ward_and_allport	n/a	-1.0	23.0	n/a	n/a	ITI	s588
285.399	2.405	1	PA_with_intermediate	1,2,0,0,0,0,0,0,0	test	ward_and_allport	1,3,0,2,0,0,0,0,0	89.0	24.0	2.405	1,2,3,0,0,0,0,0,0	to_hand	s588
287.805	0.355	0	PA_with_intermediate	1,2,0,0,0,0,3,0,0	test	ward_and_allport	1,3,0,2,0,0,0,0,0	82.0	24.0	0.355	1,2,3,0,0,0,0,0,0	to_board	s588
288.165	0.569	0	PA_with_intermediate	1,0,0,0,0,0,3,0,0	test	ward_and_allport	1,3,0,2,0,0,0,0,0	89.0	24.0	0.569	1,2,3,0,0,0,0,0,0	to_hand	s588
288.736	0.39	0	PA_with_intermediate	1,0,0,2,0,0,3,0,0	test	ward_and_allport	1,3,0,2,0,0,0,0,0	71.0	24.0	0.39	1,2,3,0,0,0,0,0,0	to_board	s588
289.132	0.703	0	PA_with_intermediate	1,0,0,2,0,0,0,0,0	test	ward_and_allport	1,3,0,2,0,0,0,0,0	82.0	24.0	0.703	1,2,3,0,0,0,0,0,0	to_hand	s588
289.836	0.457	0	PA_with_intermediate	1,3,0,2,0,0,0,0,0	test	ward_and_allport	1,3,0,2,0,0,0,0,0	89.0	24.0	0.457	1,2,3,0,0,0,0,0,0	to_board	s588
290.299	1.0	0	PA_with_intermediate	n/a	test	ward_and_allport	n/a	-1.0	24.0	n/a	n/a	feedback	s588
291.299	2.768	0	PA_with_intermediate	n/a	test	ward_and_allport	n/a	-1.0	24.0	n/a	n/a	ITI	s588
294.073	3.5	1	PA_with_intermediate	1,2,0,0,0,0,0,0,0	test	ward_and_allport	1,3,0,0,0,0,2,0,0	89.0	25.0	3.5	1,2,3,0,0,0,0,0,0	to_hand	s588
297.575	0.412	0	PA_with_intermediate	1,2,0,3,0,0,0,0,0	test	ward_and_allport	1,3,0,0,0,0,2,0,0	71.0	25.0	0.412	1,2,3,0,0,0,0,0,0	to_board	s588
297.993	0.976	0	PA_with_intermediate	1,0,0,3,0,0,0,0,0	test	ward_and_allport	1,3,0,0,0,0,2,0,0	89.0	25.0	0.976	1,2,3,0,0,0,0,0,0	to_hand	s588
298.969	0.42	0	PA_with_intermediate	1,0,0,3,0,0,2,0,0	test	ward_and_allport	1,3,0,0,0,0,2,0,0	82.0	25.0	0.42	1,2,3,0,0,0,0,0,0	to_board	s588
299.395	0.745	0	PA_with_intermediate	1,0,0,0,0,0,2,0,0	test	ward_and_allport	1,3,0,0,0,0,2,0,0	71.0	25.0	0.745	1,2,3,0,0,0,0,0,0	to_hand	s588
300.141	0.483	0	PA_with_intermediate	1,3,0,0,0,0,2,0,0	test	ward_and_allport	1,3,0,0,0,0,2,0,0	89.0	25.0	0.483	1,2,3,0,0,0,0,0,0	to_board	s588
300.633	1.0	0	PA_with_intermediate	n/a	test	ward_and_allport	n/a	-1.0	25.0	n/a	n/a	feedback	s588
301.633	1.68	0	PA_with_intermediate	n/a	test	ward_and_allport	n/a	-1.0	25.0	n/a	n/a	ITI	s588
303.32	2.579	1	PA_without_intermediate	1,2,0,0,0,0,0,0,0	test	ward_and_allport	0,0,0,2,0,0,3,1,0	89.0	26.0	2.579	1,2,3,0,0,0,0,0,0	to_hand	s588
305.9	0.435	0	PA_without_intermediate	1,2,0,0,0,0,3,0,0	test	ward_and_allport	0,0,0,2,0,0,3,1,0	82.0	26.0	0.435	1,2,3,0,0,0,0,0,0	to_board	s588
306.343	1.155	0	PA_without_intermediate	1,0,0,0,0,0,3,0,0	test	ward_and_allport	0,0,0,2,0,0,3,1,0	89.0	26.0	1.155	1,2,3,0,0,0,0,0,0	to_hand	s588
307.499	0.371	0	PA_without_intermediate	1,0,0,2,0,0,3,0,0	test	ward_and_allport	0,0,0,2,0,0,3,1,0	71.0	26.0	0.371	1,2,3,0,0,0,0,0,0	to_board	s588
307.877	0.393	0	PA_without_intermediate	1,0,0,2,0,0,0,0,0	test	ward_and_allport	0,0,0,2,0,0,3,1,0	82.0	26.0	0.393	1,2,3,0,0,0,0,0,0	to_hand	s588
308.27	0.39	0	PA_without_intermediate	1,3,0,2,0,0,0,0,0	test	ward_and_allport	0,0,0,2,0,0,3,1,0	89.0	26.0	0.39	1,2,3,0,0,0,0,0,0	to_board	s588
308.667	3.369	0	PA_without_intermediate	1,0,0,2,0,0,0,0,0	test	ward_and_allport	0,0,0,2,0,0,3,1,0	89.0	26.0	3.369	1,2,3,0,0,0,0,0,0	to_hand	s588
312.037	1.601	0	PA_without_intermediate	1,0,0,2,0,0,3,0,0	test	ward_and_allport	0,0,0,2,0,0,3,1,0	82.0	26.0	1.601	1,2,3,0,0,0,0,0,0	to_board	s588
313.644	0.416	0	PA_without_intermediate	0,0,0,2,0,0,3,0,0	test	ward_and_allport	0,0,0,2,0,0,3,1,0	89.0	26.0	0.416	1,2,3,0,0,0,0,0,0	to_hand	s588
314.063	0.308	0	PA_without_intermediate	0,0,0,2,0,0,3,1,0	test	ward_and_allport	0,0,0,2,0,0,3,1,0	82.0	26.0	0.308	1,2,3,0,0,0,0,0,0	to_board	s588
314.38	1.0	0	PA_without_intermediate	n/a	test	ward_and_allport	n/a	-1.0	26.0	n/a	n/a	feedback	s588
315.38	2.224	0	PA_without_intermediate	n/a	test	ward_and_allport	n/a	-1.0	26.0	n/a	n/a	ITI	s588
317.611	3.263	1	PA_without_intermediate	0,0,0,1,2,0,0,0,0	test	ward_and_allport	1,0,0,0,0,0,3,2,0	71.0	27.0	3.263	0,0,0,1,2,3,0,0,0	to_hand	s588
320.874	0.637	0	PA_without_intermediate	0,0,0,1,2,0,3,0,0	test	ward_and_allport	1,0,0,0,0,0,3,2,0	82.0	27.0	0.637	0,0,0,1,2,3,0,0,0	to_board	s588
321.517	0.494	0	PA_without_intermediate	0,0,0,1,0,0,3,0,0	test	ward_and_allport	1,0,0,0,0,0,3,2,0	71.0	27.0	0.494	0,0,0,1,2,3,0,0,0	to_hand	s588
322.013	0.41	0	PA_without_intermediate	0,0,0,1,0,0,3,2,0	test	ward_and_allport	1,0,0,0,0,0,3,2,0	82.0	27.0	0.41	0,0,0,1,2,3,0,0,0	to_board	s588
322.429	0.634	0	PA_without_intermediate	0,0,0,0,0,0,3,2,0	test	ward_and_allport	1,0,0,0,0,0,3,2,0	71.0	27.0	0.634	0,0,0,1,2,3,0,0,0	to_hand	s588
323.065	0.379	0	PA_without_intermediate	1,0,0,0,0,0,3,2,0	test	ward_and_allport	1,0,0,0,0,0,3,2,0	89.0	27.0	0.379	0,0,0,1,2,3,0,0,0	to_board	s588
323.453	1.0	0	PA_without_intermediate	n/a	test	ward_and_allport	n/a	-1.0	27.0	n/a	n/a	feedback	s588
324.453	2.36	0	PA_without_intermediate	n/a	test	ward_and_allport	n/a	-1.0	27.0	n/a	n/a	ITI	s588
326.819	2.648	1	PA_without_intermediate	0,0,0,0,0,0,1,2,0	test	ward_and_allport	2,0,0,3,1,0,0,0,0	82.0	28.0	2.648	0,0,0,0,0,0,1,2,3	to_hand	s588
329.469	0.639	0	PA_without_intermediate	0,0,0,3,0,0,1,2,0	test	ward_and_allport	2,0,0,3,1,0,0,0,0	71.0	28.0	0.639	0,0,0,0,0,0,1,2,3	to_board	s588
330.114	1.161	0	PA_without_intermediate	0,0,0,3,0,0,1,0,0	test	ward_and_allport	2,0,0,3,1,0,0,0,0	82.0	28.0	1.161	0,0,0,0,0,0,1,2,3	to_hand	s588
331.276	0.395	0	PA_without_intermediate	2,0,0,3,0,0,1,0,0	test	ward_and_allport	2,0,0,3,1,0,0,0,0	89.0	28.0	0.395	0,0,0,0,0,0,1,2,3	to_board	s588
331.676	1.023	0	PA_without_intermediate	2,0,0,3,0,0,0,0,0	test	ward_and_allport	2,0,0,3,1,0,0,0,0	82.0	28.0	1.023	0,0,0,0,0,0,1,2,3	to_hand	s588
332.7	0.437	0	PA_without_intermediate	2,0,0,3,1,0,0,0,0	test	ward_and_allport	2,0,0,3,1,0,0,0,0	71.0	28.0	0.437	0,0,0,0,0,0,1,2,3	to_board	s588
333.148	1.0	0	PA_without_intermediate	n/a	test	ward_and_allport	n/a	-1.0	28.0	n/a	n/a	feedback	s588
334.148	1.0	0	PA_without_intermediate	n/a	test	ward_and_allport	n/a	-1.0	28.0	n/a	n/a	ITI	s588
335.155	2.108	1	PA_without_intermediate	0,0,0,1,2,0,0,0,0	test	ward_and_allport	3,2,0,0,0,0,1,0,0	71.0	29.0	2.108	0,0,0,1,2,3,0,0,0	to_hand	s588
337.264	0.365	0	PA_without_intermediate	3,0,0,1,2,0,0,0,0	test	ward_and_allport	3,2,0,0,0,0,1,0,0	89.0	29.0	0.365	0,0,0,1,2,3,0,0,0	to_board	s588
337.636	0.602	0	PA_without_intermediate	3,0,0,1,0,0,0,0,0	test	ward_and_allport	3,2,0,0,0,0,1,0,0	71.0	29.0	0.602	0,0,0,1,2,3,0,0,0	to_hand	s588
338.238	0.407	0	PA_without_intermediate	3,2,0,1,0,0,0,0,0	test	ward_and_allport	3,2,0,0,0,0,1,0,0	89.0	29.0	0.407	0,0,0,1,2,3,0,0,0	to_board	s588
338.653	0.698	0	PA_without_intermediate	3,2,0,0,0,0,0,0,0	test	ward_and_allport	3,2,0,0,0,0,1,0,0	71.0	29.0	0.698	0,0,0,1,2,3,0,0,0	to_hand	s588
339.352	0.316	0	PA_without_intermediate	3,2,0,0,0,0,1,0,0	test	ward_and_allport	3,2,0,0,0,0,1,0,0	82.0	29.0	0.316	0,0,0,1,2,3,0,0,0	to_board	s588
339.677	1.0	0	PA_without_intermediate	n/a	test	ward_and_allport	n/a	-1.0	29.0	n/a	n/a	feedback	s588
340.677	1.408	0	PA_without_intermediate	n/a	test	ward_and_allport	n/a	-1.0	29.0	n/a	n/a	ITI	s588
347.095	2.235	1	PA_with_intermediate	1,2,0,0,0,0,0,0,0	test	ward_and_allport	1,0,0,2,3,0,0,0,0	89.0	30.0	2.235	1,2,3,0,0,0,0,0,0	to_hand	s588
349.331	0.458	0	PA_with_intermediate	1,2,0,0,0,0,3,0,0	test	ward_and_allport	1,0,0,2,3,0,0,0,0	82.0	30.0	0.458	1,2,3,0,0,0,0,0,0	to_board	s588
349.795	0.575	0	PA_with_intermediate	1,0,0,0,0,0,3,0,0	test	ward_and_allport	1,0,0,2,3,0,0,0,0	89.0	30.0	0.575	1,2,3,0,0,0,0,0,0	to_hand	s588
350.371	0.689	0	PA_with_intermediate	1,0,0,2,0,0,3,0,0	test	ward_and_allport	1,0,0,2,3,0,0,0,0	71.0	30.0	0.689	1,2,3,0,0,0,0,0,0	to_board	s588
351.069	0.477	0	PA_with_intermediate	1,0,0,2,0,0,0,0,0	test	ward_and_allport	1,0,0,2,3,0,0,0,0	82.0	30.0	0.477	1,2,3,0,0,0,0,0,0	to_hand	s588
351.547	0.615	0	PA_with_intermediate	1,0,0,2,3,0,0,0,0	test	ward_and_allport	1,0,0,2,3,0,0,0,0	71.0	30.0	0.615	1,2,3,0,0,0,0,0,0	to_board	s588
352.171	1.0	0	PA_with_intermediate	n/a	test	ward_and_allport	n/a	-1.0	30.0	n/a	n/a	feedback	s588
353.171	1.136	0	PA_with_intermediate	n/a	test	ward_and_allport	n/a	-1.0	30.0	n/a	n/a	ITI	s588
354.314	2.228	1	PA_without_intermediate	0,0,0,1,2,0,0,0,0	test	ward_and_allport	2,0,0,0,0,0,3,1,0	71.0	31.0	2.228	0,0,0,1,2,3,0,0,0	to_hand	s588
356.543	0.591	0	PA_without_intermediate	0,0,0,1,2,0,3,0,0	test	ward_and_allport	2,0,0,0,0,0,3,1,0	82.0	31.0	0.591	0,0,0,1,2,3,0,0,0	to_board	s588
357.139	0.639	0	PA_without_intermediate	0,0,0,1,0,0,3,0,0	test	ward_and_allport	2,0,0,0,0,0,3,1,0	71.0	31.0	0.639	0,0,0,1,2,3,0,0,0	to_hand	s588
357.779	0.343	0	PA_without_intermediate	2,0,0,1,0,0,3,0,0	test	ward_and_allport	2,0,0,0,0,0,3,1,0	89.0	31.0	0.343	0,0,0,1,2,3,0,0,0	to_board	s588
358.128	0.451	0	PA_without_intermediate	2,0,0,0,0,0,3,0,0	test	ward_and_allport	2,0,0,0,0,0,3,1,0	71.0	31.0	0.451	0,0,0,1,2,3,0,0,0	to_hand	s588
358.58	0.381	0	PA_without_intermediate	2,0,0,0,0,0,3,1,0	test	ward_and_allport	2,0,0,0,0,0,3,1,0	82.0	31.0	0.381	0,0,0,1,2,3,0,0,0	to_board	s588
358.969	1.0	0	PA_without_intermediate	n/a	test	ward_and_allport	n/a	-1.0	31.0	n/a	n/a	feedback	s588
359.969	4.128	0	PA_without_intermediate	n/a	test	ward_and_allport	n/a	-1.0	31.0	n/a	n/a	ITI	s588
364.103	1.676	1	PA_without_intermediate	0,0,0,1,2,0,0,0,0	test	ward_and_allport	2,0,0,0,0,0,3,1,0	71.0	32.0	1.676	0,0,0,1,2,3,0,0,0	to_hand	s588
365.779	0.753	0	PA_without_intermediate	0,0,0,1,2,0,3,0,0	test	ward_and_allport	2,0,0,0,0,0,3,1,0	82.0	32.0	0.753	0,0,0,1,2,3,0,0,0	to_board	s588
366.54	0.446	0	PA_without_intermediate	0,0,0,1,0,0,3,0,0	test	ward_and_allport	2,0,0,0,0,0,3,1,0	71.0	32.0	0.446	0,0,0,1,2,3,0,0,0	to_hand	s588
366.987	0.403	0	PA_without_intermediate	2,0,0,1,0,0,3,0,0	test	ward_and_allport	2,0,0,0,0,0,3,1,0	89.0	32.0	0.403	0,0,0,1,2,3,0,0,0	to_board	s588
367.398	0.286	0	PA_without_intermediate	2,0,0,0,0,0,3,0,0	test	ward_and_allport	2,0,0,0,0,0,3,1,0	71.0	32.0	0.286	0,0,0,1,2,3,0,0,0	to_hand	s588
367.685	0.296	0	PA_without_intermediate	2,0,0,0,0,0,3,1,0	test	ward_and_allport	2,0,0,0,0,0,3,1,0	82.0	32.0	0.296	0,0,0,1,2,3,0,0,0	to_board	s588
367.988	1.0	0	PA_without_intermediate	n/a	test	ward_and_allport	n/a	-1.0	32.0	n/a	n/a	feedback	s588
368.988	1.136	0	PA_without_intermediate	n/a	test	ward_and_allport	n/a	-1.0	32.0	n/a	n/a	ITI	s588
370.133	2.195	1	PA_without_intermediate	1,2,0,0,0,0,0,0,0	test	ward_and_allport	0,0,0,2,0,0,3,1,0	89.0	33.0	2.195	1,2,3,0,0,0,0,0,0	to_hand	s588
372.328	0.569	0	PA_without_intermediate	1,2,0,0,0,0,3,0,0	test	ward_and_allport	0,0,0,2,0,0,3,1,0	82.0	33.0	0.569	1,2,3,0,0,0,0,0,0	to_board	s588
372.903	0.981	0	PA_without_intermediate	1,0,0,0,0,0,3,0,0	test	ward_and_allport	0,0,0,2,0,0,3,1,0	89.0	33.0	0.981	1,2,3,0,0,0,0,0,0	to_hand	s588
373.884	0.417	0	PA_without_intermediate	1,0,0,2,0,0,3,0,0	test	ward_and_allport	0,0,0,2,0,0,3,1,0	71.0	33.0	0.417	1,2,3,0,0,0,0,0,0	to_board	s588
374.307	0.469	0	PA_without_intermediate	0,0,0,2,0,0,3,0,0	test	ward_and_allport	0,0,0,2,0,0,3,1,0	89.0	33.0	0.469	1,2,3,0,0,0,0,0,0	to_hand	s588
374.776	0.837	0	PA_without_intermediate	0,0,0,2,0,0,3,1,0	test	ward_and_allport	0,0,0,2,0,0,3,1,0	82.0	33.0	0.837	1,2,3,0,0,0,0,0,0	to_board	s588
375.623	1.0	0	PA_without_intermediate	n/a	test	ward_and_allport	n/a	-1.0	33.0	n/a	n/a	feedback	s588
376.623	4.264	0	PA_without_intermediate	n/a	test	ward_and_allport	n/a	-1.0	33.0	n/a	n/a	ITI	s588
380.895	3.584	1	PA_with_intermediate	0,0,0,1,2,0,0,0,0	test	ward_and_allport	0,0,0,1,0,0,2,3,0	71.0	34.0	3.584	0,0,0,1,2,3,0,0,0	to_hand	s588
384.48	0.422	0	PA_with_intermediate	3,0,0,1,2,0,0,0,0	test	ward_and_allport	0,0,0,1,0,0,2,3,0	89.0	34.0	0.422	0,0,0,1,2,3,0,0,0	to_board	s588
384.91	0.327	0	PA_with_intermediate	3,0,0,1,0,0,0,0,0	test	ward_and_allport	0,0,0,1,0,0,2,3,0	71.0	34.0	0.327	0,0,0,1,2,3,0,0,0	to_hand	s588
385.238	0.448	0	PA_with_intermediate	3,0,0,1,0,0,2,0,0	test	ward_and_allport	0,0,0,1,0,0,2,3,0	82.0	34.0	0.448	0,0,0,1,2,3,0,0,0	to_board	s588
385.695	0.584	0	PA_with_intermediate	0,0,0,1,0,0,2,0,0	test	ward_and_allport	0,0,0,1,0,0,2,3,0	89.0	34.0	0.584	0,0,0,1,2,3,0,0,0	to_hand	s588
386.279	0.303	0	PA_with_intermediate	0,0,0,1,0,0,2,3,0	test	ward_and_allport	0,0,0,1,0,0,2,3,0	82.0	34.0	0.303	0,0,0,1,2,3,0,0,0	to_board	s588
386.591	1.0	0	PA_with_intermediate	n/a	test	ward_and_allport	n/a	-1.0	34.0	n/a	n/a	feedback	s588
387.591	3.04	0	PA_with_intermediate	n/a	test	ward_and_allport	n/a	-1.0	34.0	n/a	n/a	ITI	s588
390.636	2.868	1	PA_with_intermediate	0,0,0,0,0,0,1,2,0	test	ward_and_allport	0,0,0,2,3,0,1,0,0	82.0	35.0	2.868	0,0,0,0,0,0,1,2,3	to_hand	s588
393.505	0.425	0	PA_with_intermediate	3,0,0,0,0,0,1,2,0	test	ward_and_allport	0,0,0,2,3,0,1,0,0	89.0	35.0	0.425	0,0,0,0,0,0,1,2,3	to_board	s588
393.936	0.599	0	PA_with_intermediate	3,0,0,0,0,0,1,0,0	test	ward_and_allport	0,0,0,2,3,0,1,0,0	82.0	35.0	0.599	0,0,0,0,0,0,1,2,3	to_hand	s588
394.536	0.508	0	PA_with_intermediate	3,0,0,2,0,0,1,0,0	test	ward_and_allport	0,0,0,2,3,0,1,0,0	71.0	35.0	0.508	0,0,0,0,0,0,1,2,3	to_board	s588
395.051	0.452	0	PA_with_intermediate	0,0,0,2,0,0,1,0,0	test	ward_and_allport	0,0,0,2,3,0,1,0,0	89.0	35.0	0.452	0,0,0,0,0,0,1,2,3	to_hand	s588
395.505	0.349	0	PA_with_intermediate	0,0,0,2,3,0,1,0,0	test	ward_and_allport	0,0,0,2,3,0,1,0,0	71.0	35.0	0.349	0,0,0,0,0,0,1,2,3	to_board	s588
395.865	1.0	0	PA_with_intermediate	n/a	test	ward_and_allport	n/a	-1.0	35.0	n/a	n/a	feedback	s588
396.865	1.136	0	PA_with_intermediate	n/a	test	ward_and_allport	n/a	-1.0	35.0	n/a	n/a	ITI	s588
398.009	2.806	1	PA_with_intermediate	1,2,0,0,0,0,0,0,0	test	ward_and_allport	1,0,0,0,0,0,2,3,0	89.0	36.0	2.806	1,2,3,0,0,0,0,0,0	to_hand	s588
400.816	0.339	0	PA_with_intermediate	1,2,0,3,0,0,0,0,0	test	ward_and_allport	1,0,0,0,0,0,2,3,0	71.0	36.0	0.339	1,2,3,0,0,0,0,0,0	to_board	s588
401.162	0.719	0	PA_with_intermediate	1,0,0,3,0,0,0,0,0	test	ward_and_allport	1,0,0,0,0,0,2,3,0	89.0	36.0	0.719	1,2,3,0,0,0,0,0,0	to_hand	s588
401.882	0.372	0	PA_with_intermediate	1,0,0,3,0,0,2,0,0	test	ward_and_allport	1,0,0,0,0,0,2,3,0	82.0	36.0	0.372	1,2,3,0,0,0,0,0,0	to_board	s588
402.261	0.646	0	PA_with_intermediate	1,0,0,0,0,0,2,0,0	test	ward_and_allport	1,0,0,0,0,0,2,3,0	71.0	36.0	0.646	1,2,3,0,0,0,0,0,0	to_hand	s588
402.908	0.292	0	PA_with_intermediate	1,0,0,0,0,0,2,3,0	test	ward_and_allport	1,0,0,0,0,0,2,3,0	82.0	36.0	0.292	1,2,3,0,0,0,0,0,0	to_board	s588
403.211	1.0	0	PA_with_intermediate	n/a	test	ward_and_allport	n/a	-1.0	36.0	n/a	n/a	feedback	s588
404.211	1.408	0	PA_with_intermediate	n/a	test	ward_and_allport	n/a	-1.0	36.0	n/a	n/a	ITI	s588
405.626	2.143	1	PA_without_intermediate	1,2,0,0,0,0,0,0,0	test	ward_and_allport	0,0,0,1,0,0,3,2,0	89.0	37.0	2.143	1,2,3,0,0,0,0,0,0	to_hand	s588
407.769	0.377	0	PA_without_intermediate	1,2,0,0,0,0,3,0,0	test	ward_and_allport	0,0,0,1,0,0,3,2,0	82.0	37.0	0.377	1,2,3,0,0,0,0,0,0	to_board	s588
408.155	0.639	0	PA_without_intermediate	1,0,0,0,0,0,3,0,0	test	ward_and_allport	0,0,0,1,0,0,3,2,0	89.0	37.0	0.639	1,2,3,0,0,0,0,0,0	to_hand	s588
408.795	0.37	0	PA_without_intermediate	1,0,0,0,0,0,3,2,0	test	ward_and_allport	0,0,0,1,0,0,3,2,0	82.0	37.0	0.37	1,2,3,0,0,0,0,0,0	to_board	s588
409.173	1.446	0	PA_without_intermediate	0,0,0,0,0,0,3,2,0	test	ward_and_allport	0,0,0,1,0,0,3,2,0	89.0	37.0	1.446	1,2,3,0,0,0,0,0,0	to_hand	s588
410.62	0.325	0	PA_without_intermediate	0,0,0,1,0,0,3,2,0	test	ward_and_allport	0,0,0,1,0,0,3,2,0	71.0	37.0	0.325	1,2,3,0,0,0,0,0,0	to_board	s588
410.955	1.0	0	PA_without_intermediate	n/a	test	ward_and_allport	n/a	-1.0	37.0	n/a	n/a	feedback	s588
411.955	1.68	0	PA_without_intermediate	n/a	test	ward_and_allport	n/a	-1.0	37.0	n/a	n/a	ITI	s588
413.641	2.751	1	PA_with_intermediate	0,0,0,1,2,0,0,0,0	test	ward_and_allport	2,3,0,1,0,0,0,0,0	71.0	38.0	2.751	0,0,0,1,2,3,0,0,0	to_hand	s588
416.392	0.355	0	PA_with_intermediate	0,0,0,1,2,0,3,0,0	test	ward_and_allport	2,3,0,1,0,0,0,0,0	82.0	38.0	0.355	0,0,0,1,2,3,0,0,0	to_board	s588
416.754	0.68	0	PA_with_intermediate	0,0,0,1,0,0,3,0,0	test	ward_and_allport	2,3,0,1,0,0,0,0,0	71.0	38.0	0.68	0,0,0,1,2,3,0,0,0	to_hand	s588
417.434	0.333	0	PA_with_intermediate	2,0,0,1,0,0,3,0,0	test	ward_and_allport	2,3,0,1,0,0,0,0,0	89.0	38.0	0.333	0,0,0,1,2,3,0,0,0	to_board	s588
417.777	0.414	0	PA_with_intermediate	2,0,0,1,0,0,0,0,0	test	ward_and_allport	2,3,0,1,0,0,0,0,0	82.0	38.0	0.414	0,0,0,1,2,3,0,0,0	to_hand	s588
418.192	0.365	0	PA_with_intermediate	2,3,0,1,0,0,0,0,0	test	ward_and_allport	2,3,0,1,0,0,0,0,0	89.0	38.0	0.365	0,0,0,1,2,3,0,0,0	to_board	s588
418.569	1.0	0	PA_with_intermediate	n/a	test	ward_and_allport	n/a	-1.0	38.0	n/a	n/a	feedback	s588
419.569	3.72	0	PA_with_intermediate	n/a	test	ward_and_allport	n/a	-1.0	38.0	n/a	n/a	ITI	s588
423.297	2.621	1	PA_without_intermediate	1,2,0,0,0,0,0,0,0	test	ward_and_allport	0,0,0,3,2,0,1,0,0	89.0	39.0	2.621	1,2,3,0,0,0,0,0,0	to_hand	s588
425.918	0.362	0	PA_without_intermediate	1,2,0,3,0,0,0,0,0	test	ward_and_allport	0,0,0,3,2,0,1,0,0	71.0	39.0	0.362	1,2,3,0,0,0,0,0,0	to_board	s588
426.289	0.4	0	PA_without_intermediate	1,0,0,3,0,0,0,0,0	test	ward_and_allport	0,0,0,3,2,0,1,0,0	89.0	39.0	0.4	1,2,3,0,0,0,0,0,0	to_hand	s588
426.691	0.385	0	PA_without_intermediate	1,0,0,3,2,0,0,0,0	test	ward_and_allport	0,0,0,3,2,0,1,0,0	71.0	39.0	0.385	1,2,3,0,0,0,0,0,0	to_board	s588
427.085	0.366	0	PA_without_intermediate	0,0,0,3,2,0,0,0,0	test	ward_and_allport	0,0,0,3,2,0,1,0,0	89.0	39.0	0.366	1,2,3,0,0,0,0,0,0	to_hand	s588
427.452	0.282	0	PA_without_intermediate	0,0,0,3,2,0,1,0,0	test	ward_and_allport	0,0,0,3,2,0,1,0,0	82.0	39.0	0.282	1,2,3,0,0,0,0,0,0	to_board	s588
427.745	1.0	0	PA_without_intermediate	n/a	test	ward_and_allport	n/a	-1.0	39.0	n/a	n/a	feedback	s588
428.745	2.224	0	PA_without_intermediate	n/a	test	ward_and_allport	n/a	-1.0	39.0	n/a	n/a	ITI	s588
430.976	2.492	1	PA_without_intermediate	1,2,0,0,0,0,0,0,0	test	ward_and_allport	0,0,0,3,2,0,1,0,0	89.0	40.0	2.492	1,2,3,0,0,0,0,0,0	to_hand	s588
433.469	0.367	0	PA_without_intermediate	1,2,0,3,0,0,0,0,0	test	ward_and_allport	0,0,0,3,2,0,1,0,0	71.0	40.0	0.367	1,2,3,0,0,0,0,0,0	to_board	s588
433.842	0.632	0	PA_without_intermediate	1,0,0,3,0,0,0,0,0	test	ward_and_allport	0,0,0,3,2,0,1,0,0	89.0	40.0	0.632	1,2,3,0,0,0,0,0,0	to_hand	s588
434.476	0.341	0	PA_without_intermediate	1,0,0,3,2,0,0,0,0	test	ward_and_allport	0,0,0,3,2,0,1,0,0	71.0	40.0	0.341	1,2,3,0,0,0,0,0,0	to_board	s588
434.827	0.483	0	PA_without_intermediate	0,0,0,3,2,0,0,0,0	test	ward_and_allport	0,0,0,3,2,0,1,0,0	89.0	40.0	0.483	1,2,3,0,0,0,0,0,0	to_hand	s588
435.311	0.352	0	PA_without_intermediate	0,0,0,3,2,0,1,0,0	test	ward_and_allport	0,0,0,3,2,0,1,0,0	82.0	40.0	0.352	1,2,3,0,0,0,0,0,0	to_board	s588
435.672	1.0	0	PA_without_intermediate	n/a	test	ward_and_allport	n/a	-1.0	40.0	n/a	n/a	feedback	s588
436.672	1.272	0	PA_without_intermediate	n/a	test	ward_and_allport	n/a	-1.0	40.0	n/a	n/a	ITI	s588
437.952	3.623	1	PA_with_intermediate	0,0,0,1,2,0,0,0,0	test	ward_and_allport	0,0,0,1,3,0,2,0,0	71.0	41.0	3.623	0,0,0,1,2,3,0,0,0	to_hand	s588
441.575	1.154	0	PA_with_intermediate	3,0,0,1,2,0,0,0,0	test	ward_and_allport	0,0,0,1,3,0,2,0,0	89.0	41.0	1.154	0,0,0,1,2,3,0,0,0	to_board	s588
442.736	0.782	0	PA_with_intermediate	3,0,0,1,0,0,0,0,0	test	ward_and_allport	0,0,0,1,3,0,2,0,0	71.0	41.0	0.782	0,0,0,1,2,3,0,0,0	to_hand	s588
443.52	0.339	0	PA_with_intermediate	3,0,0,1,0,0,2,0,0	test	ward_and_allport	0,0,0,1,3,0,2,0,0	82.0	41.0	0.339	0,0,0,1,2,3,0,0,0	to_board	s588
443.867	0.402	0	PA_with_intermediate	0,0,0,1,0,0,2,0,0	test	ward_and_allport	0,0,0,1,3,0,2,0,0	89.0	41.0	0.402	0,0,0,1,2,3,0,0,0	to_hand	s588
444.27	0.269	0	PA_with_intermediate	0,0,0,1,3,0,2,0,0	test	ward_and_allport	0,0,0,1,3,0,2,0,0	71.0	41.0	0.269	0,0,0,1,2,3,0,0,0	to_board	s588
444.553	1.0	0	PA_with_intermediate	n/a	test	ward_and_allport	n/a	-1.0	41.0	n/a	n/a	feedback	s588
445.553	2.632	0	PA_with_intermediate	n/a	test	ward_and_allport	n/a	-1.0	41.0	n/a	n/a	ITI	s588
448.194	2.539	1	PA_without_intermediate	0,0,0,0,0,0,1,2,0	test	ward_and_allport	3,1,0,2,0,0,0,0,0	82.0	42.0	2.539	0,0,0,0,0,0,1,2,3	to_hand	s588
450.734	0.424	0	PA_without_intermediate	3,0,0,0,0,0,1,2,0	test	ward_and_allport	3,1,0,2,0,0,0,0,0	89.0	42.0	0.424	0,0,0,0,0,0,1,2,3	to_board	s588
451.165	2.782	0	PA_without_intermediate	3,0,0,0,0,0,1,0,0	test	ward_and_allport	3,1,0,2,0,0,0,0,0	82.0	42.0	2.782	0,0,0,0,0,0,1,2,3	to_hand	s588
453.948	0.485	0	PA_without_intermediate	3,0,0,2,0,0,1,0,0	test	ward_and_allport	3,1,0,2,0,0,0,0,0	71.0	42.0	0.485	0,0,0,0,0,0,1,2,3	to_board	s588
454.441	0.453	0	PA_without_intermediate	3,0,0,2,0,0,0,0,0	test	ward_and_allport	3,1,0,2,0,0,0,0,0	82.0	42.0	0.453	0,0,0,0,0,0,1,2,3	to_hand	s588
454.895	0.351	0	PA_without_intermediate	3,1,0,2,0,0,0,0,0	test	ward_and_allport	3,1,0,2,0,0,0,0,0	89.0	42.0	0.351	0,0,0,0,0,0,1,2,3	to_board	s588
455.256	1.0	0	PA_without_intermediate	n/a	test	ward_and_allport	n/a	-1.0	42.0	n/a	n/a	feedback	s588
456.256	1.408	0	PA_without_intermediate	n/a	test	ward_and_allport	n/a	-1.0	42.0	n/a	n/a	ITI	s588
457.673	5.44	1	PA_without_intermediate	1,2,0,0,0,0,0,0,0	test	ward_and_allport	0,0,0,3,1,0,2,0,0	89.0	43.0	5.44	1,2,3,0,0,0,0,0,0	to_hand	s588
463.114	0.331	0	PA_without_intermediate	1,2,0,3,0,0,0,0,0	test	ward_and_allport	0,0,0,3,1,0,2,0,0	71.0	43.0	0.331	1,2,3,0,0,0,0,0,0	to_board	s588
463.455	0.568	0	PA_without_intermediate	1,0,0,3,0,0,0,0,0	test	ward_and_allport	0,0,0,3,1,0,2,0,0	89.0	43.0	0.568	1,2,3,0,0,0,0,0,0	to_hand	s588
464.025	0.29	0	PA_without_intermediate	1,0,0,3,0,0,2,0,0	test	ward_and_allport	0,0,0,3,1,0,2,0,0	82.0	43.0	0.29	1,2,3,0,0,0,0,0,0	to_board	s588
464.324	1.046	0	PA_without_intermediate	0,0,0,3,0,0,2,0,0	test	ward_and_allport	0,0,0,3,1,0,2,0,0	89.0	43.0	1.046	1,2,3,0,0,0,0,0,0	to_hand	s588
465.371	0.267	0	PA_without_intermediate	0,0,0,3,1,0,2,0,0	test	ward_and_allport	0,0,0,3,1,0,2,0,0	71.0	43.0	0.267	1,2,3,0,0,0,0,0,0	to_board	s588
465.652	1.0	0	PA_without_intermediate	n/a	test	ward_and_allport	n/a	-1.0	43.0	n/a	n/a	feedback	s588
466.652	1.0	0	PA_without_intermediate	n/a	test	ward_and_allport	n/a	-1.0	43.0	n/a	n/a	ITI	s588
467.66	3.061	1	PA_with_intermediate	1,2,0,0,0,0,0,0,0	test	ward_and_allport	1,3,0,0,0,0,2,0,0	89.0	44.0	3.061	1,2,3,0,0,0,0,0,0	to_hand	s588
470.722	0.319	0	PA_with_intermediate	1,2,0,3,0,0,0,0,0	test	ward_and_allport	1,3,0,0,0,0,2,0,0	71.0	44.0	0.319	1,2,3,0,0,0,0,0,0	to_board	s588
471.048	0.535	0	PA_with_intermediate	1,0,0,3,0,0,0,0,0	test	ward_and_allport	1,3,0,0,0,0,2,0,0	89.0	44.0	0.535	1,2,3,0,0,0,0,0,0	to_hand	s588
471.584	0.502	0	PA_with_intermediate	1,0,0,3,0,0,2,0,0	test	ward_and_allport	1,3,0,0,0,0,2,0,0	82.0	44.0	0.502	1,2,3,0,0,0,0,0,0	to_board	s588
472.095	0.407	0	PA_with_intermediate	1,0,0,0,0,0,2,0,0	test	ward_and_allport	1,3,0,0,0,0,2,0,0	71.0	44.0	0.407	1,2,3,0,0,0,0,0,0	to_hand	s588
472.503	0.313	0	PA_with_intermediate	1,3,0,0,0,0,2,0,0	test	ward_and_allport	1,3,0,0,0,0,2,0,0	89.0	44.0	0.313	1,2,3,0,0,0,0,0,0	to_board	s588
472.827	1.0	0	PA_with_intermediate	n/a	test	ward_and_allport	n/a	-1.0	44.0	n/a	n/a	feedback	s588
473.827	1.0	0	PA_with_intermediate	n/a	test	ward_and_allport	n/a	-1.0	44.0	n/a	n/a	ITI	s588
479.84	3.352	1	PA_with_intermediate	0,0,0,1,2,0,0,0,0	test	ward_and_allport	0,0,0,1,0,0,2,3,0	71.0	45.0	3.352	0,0,0,1,2,3,0,0,0	to_hand	s588
483.192	0.446	0	PA_with_intermediate	3,0,0,1,2,0,0,0,0	test	ward_and_allport	0,0,0,1,0,0,2,3,0	89.0	45.0	0.446	0,0,0,1,2,3,0,0,0	to_board	s588
483.65	0.352	0	PA_with_intermediate	3,0,0,1,0,0,0,0,0	test	ward_and_allport	0,0,0,1,0,0,2,3,0	71.0	45.0	0.352	0,0,0,1,2,3,0,0,0	to_hand	s588
484.002	0.465	0	PA_with_intermediate	3,0,0,1,0,0,2,0,0	test	ward_and_allport	0,0,0,1,0,0,2,3,0	82.0	45.0	0.465	0,0,0,1,2,3,0,0,0	to_board	s588
484.477	0.574	0	PA_with_intermediate	0,0,0,1,0,0,2,0,0	test	ward_and_allport	0,0,0,1,0,0,2,3,0	89.0	45.0	0.574	0,0,0,1,2,3,0,0,0	to_hand	s588
485.052	0.36	0	PA_with_intermediate	0,0,0,1,0,0,2,3,0	test	ward_and_allport	0,0,0,1,0,0,2,3,0	82.0	45.0	0.36	0,0,0,1,2,3,0,0,0	to_board	s588
485.425	1.0	0	PA_with_intermediate	n/a	test	ward_and_allport	n/a	-1.0	45.0	n/a	n/a	feedback	s588
486.425	1.0	0	PA_with_intermediate	n/a	test	ward_and_allport	n/a	-1.0	45.0	n/a	n/a	ITI	s588
487.434	2.393	1	PA_with_intermediate	1,2,0,0,0,0,0,0,0	test	ward_and_allport	1,3,0,2,0,0,0,0,0	89.0	46.0	2.393	1,2,3,0,0,0,0,0,0	to_hand	s588
489.828	0.416	0	PA_with_intermediate	1,2,0,0,0,0,3,0,0	test	ward_and_allport	1,3,0,2,0,0,0,0,0	82.0	46.0	0.416	1,2,3,0,0,0,0,0,0	to_board	s588
490.251	0.46	0	PA_with_intermediate	1,0,0,0,0,0,3,0,0	test	ward_and_allport	1,3,0,2,0,0,0,0,0	89.0	46.0	0.46	1,2,3,0,0,0,0,0,0	to_hand	s588
490.712	0.41	0	PA_with_intermediate	1,0,0,2,0,0,3,0,0	test	ward_and_allport	1,3,0,2,0,0,0,0,0	71.0	46.0	0.41	1,2,3,0,0,0,0,0,0	to_board	s588
491.13	0.369	0	PA_with_intermediate	1,0,0,2,0,0,0,0,0	test	ward_and_allport	1,3,0,2,0,0,0,0,0	82.0	46.0	0.369	1,2,3,0,0,0,0,0,0	to_hand	s588
491.499	0.451	0	PA_with_intermediate	1,3,0,2,0,0,0,0,0	test	ward_and_allport	1,3,0,2,0,0,0,0,0	89.0	46.0	0.451	1,2,3,0,0,0,0,0,0	to_board	s588
491.958	1.0	0	PA_with_intermediate	n/a	test	ward_and_allport	n/a	-1.0	46.0	n/a	n/a	feedback	s588
492.958	1.408	0	PA_with_intermediate	n/a	test	ward_and_allport	n/a	-1.0	46.0	n/a	n/a	ITI	s588
494.375	2.602	1	PA_without_intermediate	0,0,0,0,0,0,1,2,0	test	ward_and_allport	3,2,0,1,0,0,0,0,0	82.0	47.0	2.602	0,0,0,0,0,0,1,2,3	to_hand	s588
496.978	0.457	0	PA_without_intermediate	3,0,0,0,0,0,1,2,0	test	ward_and_allport	3,2,0,1,0,0,0,0,0	89.0	47.0	0.457	0,0,0,0,0,0,1,2,3	to_board	s588
497.442	0.822	0	PA_without_intermediate	3,0,0,0,0,0,1,0,0	test	ward_and_allport	3,2,0,1,0,0,0,0,0	82.0	47.0	0.822	0,0,0,0,0,0,1,2,3	to_hand	s588
498.265	0.363	0	PA_without_intermediate	3,2,0,0,0,0,1,0,0	test	ward_and_allport	3,2,0,1,0,0,0,0,0	89.0	47.0	0.363	0,0,0,0,0,0,1,2,3	to_board	s588
498.635	0.715	0	PA_without_intermediate	3,2,0,0,0,0,0,0,0	test	ward_and_allport	3,2,0,1,0,0,0,0,0	82.0	47.0	0.715	0,0,0,0,0,0,1,2,3	to_hand	s588
499.35	0.56	0	PA_without_intermediate	3,2,0,1,0,0,0,0,0	test	ward_and_allport	3,2,0,1,0,0,0,0,0	71.0	47.0	0.56	0,0,0,0,0,0,1,2,3	to_board	s588
499.921	1.0	0	PA_without_intermediate	n/a	test	ward_and_allport	n/a	-1.0	47.0	n/a	n/a	feedback	s588
500.921	1.816	0	PA_without_intermediate	n/a	test	ward_and_allport	n/a	-1.0	47.0	n/a	n/a	ITI	s588
n/a	n/a	0	n/a	n/a	n/a	n/a	n/a	n/a	n/a	n/a	n/a	ITI	n/a
