onset	duration	SS_delay	correct_response	experiment_exp_id	key_press	response_time	stopped	trial_type	worker_id
3.013	0.85	0.1	71.0	stop_signal	71.0	0.492	False	go	s588
5.401	0.85	0.1	89.0	stop_signal	89.0	0.544	False	go	s588
7.927	0.85	0.1	89.0	stop_signal	89.0	0.581	False	stop_failure	s588
10.863	0.85	0.05	89.0	stop_signal	89.0	0.442	False	go	s588
13.391	0.85	0.05	89.0	stop_signal	89.0	0.434	False	go	s588
15.919	0.85	0.05	89.0	stop_signal	89.0	0.467	False	go	s588
18.175	0.85	0.05	89.0	stop_signal	-1.0	n/a	True	stop_success	s588
20.7	0.85	0.1	71.0	stop_signal	71.0	0.393	False	go	s588
23.087	0.85	0.1	89.0	stop_signal	89.0	0.46	False	go	s588
25.341	0.85	0.1	89.0	stop_signal	89.0	0.477	False	go	s588
27.731	0.85	0.1	89.0	stop_signal	89.0	0.466	False	go	s588
29.985	0.85	0.1	89.0	stop_signal	89.0	0.51	False	stop_failure	s588
32.378	0.85	0.05	89.0	stop_signal	89.0	0.475	False	go	s588
34.907	0.85	0.05	71.0	stop_signal	-1.0	n/a	True	stop_success	s588
37.16	0.85	0.1	89.0	stop_signal	-1.0	n/a	True	stop_success	s588
39.549	0.85	0.15	71.0	stop_signal	71.0	0.503	False	go	s588
42.214	0.85	0.15	89.0	stop_signal	-1.0	n/a	True	stop_success	s588
44.467	0.85	0.2	89.0	stop_signal	89.0	0.438	False	go	s588
47.672	0.85	0.2	89.0	stop_signal	89.0	0.479	False	go	s588
50.062	0.85	0.2	71.0	stop_signal	71.0	0.534	False	go	s588
52.454	0.85	0.2	89.0	stop_signal	89.0	0.521	False	stop_failure	s588
54.982	0.85	0.15	71.0	stop_signal	71.0	0.607	False	go	s588
57.238	0.85	0.15	71.0	stop_signal	-1.0	n/a	True	stop_success	s588
59.495	0.85	0.2	89.0	stop_signal	89.0	0.41	False	stop_failure	s588
61.748	0.85	0.15	71.0	stop_signal	71.0	0.341	False	go	s588
64.682	0.85	0.15	89.0	stop_signal	89.0	0.356	False	go	s588
67.207	0.85	0.15	71.0	stop_signal	71.0	0.464	False	go	s588
69.735	0.85	0.15	89.0	stop_signal	89.0	0.47	False	go	s588
71.989	0.85	0.15	71.0	stop_signal	71.0	0.524	False	stop_failure	s588
74.514	0.85	0.1	89.0	stop_signal	89.0	0.363	False	stop_failure	s588
76.766	0.85	0.05	89.0	stop_signal	89.0	0.526	False	go	s588
79.154	0.85	0.05	89.0	stop_signal	-1.0	n/a	True	stop_success	s588
81.407	0.85	0.1	71.0	stop_signal	71.0	0.512	False	go	s588
84.069	0.85	0.1	71.0	stop_signal	71.0	0.531	False	go	s588
86.733	0.85	0.1	89.0	stop_signal	89.0	0.463	False	go	s588
88.989	0.85	0.1	71.0	stop_signal	71.0	0.576	False	go	s588
91.242	0.85	0.1	89.0	stop_signal	89.0	0.55	False	go	s588
93.635	0.85	0.1	89.0	stop_signal	-1.0	n/a	True	stop_success	s588
96.432	0.85	0.15	71.0	stop_signal	-1.0	n/a	True	stop_success	s588
98.824	0.85	0.2	89.0	stop_signal	-1.0	n/a	True	stop_success	s588
101.077	0.85	0.25	71.0	stop_signal	71.0	0.439	False	stop_failure	s588
113.848	0.85	0.2	89.0	stop_signal	-1.0	n/a	True	stop_success	s588
116.102	0.85	0.25	89.0	stop_signal	89.0	0.473	False	go	s588
118.764	0.85	0.25	89.0	stop_signal	89.0	0.479	False	go	s588
121.428	0.85	0.25	89.0	stop_signal	89.0	0.677	False	go	s588
123.684	0.85	0.25	71.0	stop_signal	71.0	0.592	False	go	s588
126.212	0.85	0.25	71.0	stop_signal	71.0	0.643	False	go	s588
128.468	0.85	0.25	89.0	stop_signal	89.0	0.534	False	stop_failure	s588
130.995	0.85	0.2	89.0	stop_signal	89.0	0.563	False	go	s588
133.522	0.85	0.2	89.0	stop_signal	-1.0	n/a	True	stop_success	s588
136.05	0.85	0.25	71.0	stop_signal	71.0	0.675	False	stop_failure	s588
138.442	0.85	0.2	71.0	stop_signal	71.0	0.451	False	stop_failure	s588
140.966	0.85	0.15	71.0	stop_signal	89.0	0.437	False	go	s588
143.493	0.85	0.15	89.0	stop_signal	89.0	0.617	False	go	s588
145.882	0.85	0.15	89.0	stop_signal	89.0	0.461	False	go	s588
148.138	0.85	0.15	71.0	stop_signal	71.0	0.453	False	go	s588
150.666	0.85	0.15	89.0	stop_signal	89.0	0.536	False	go	s588
153.467	0.85	0.15	89.0	stop_signal	-1.0	n/a	True	stop_success	s588
155.995	0.85	0.2	89.0	stop_signal	-1.0	n/a	True	stop_success	s588
158.384	0.85	0.25	71.0	stop_signal	71.0	0.48	False	go	s588
160.64	0.85	0.25	71.0	stop_signal	71.0	0.497	False	stop_failure	s588
162.896	0.85	0.2	71.0	stop_signal	-1.0	n/a	True	stop_success	s588
165.152	0.85	0.25	71.0	stop_signal	-1.0	n/a	True	stop_success	s588
167.408	0.85	0.3	89.0	stop_signal	89.0	0.679	False	go	s588
169.936	0.85	0.3	71.0	stop_signal	71.0	0.609	False	go	s588
172.189	0.85	0.3	89.0	stop_signal	89.0	0.565	False	stop_failure	s588
174.443	0.85	0.25	89.0	stop_signal	89.0	0.677	False	go	s588
176.699	0.85	0.25	89.0	stop_signal	89.0	0.438	False	go	s588
178.953	0.85	0.25	89.0	stop_signal	89.0	0.44	False	go	s588
181.345	0.85	0.25	71.0	stop_signal	71.0	0.597	False	go	s588
183.601	0.85	0.25	89.0	stop_signal	89.0	0.418	False	stop_failure	s588
185.857	0.85	0.2	89.0	stop_signal	89.0	0.559	False	go	s588
188.113	0.85	0.2	71.0	stop_signal	71.0	0.81	False	stop_failure	s588
190.368	0.85	0.15	71.0	stop_signal	-1.0	n/a	True	stop_success	s588
192.895	0.85	0.2	71.0	stop_signal	71.0	0.514	False	go	s588
195.287	0.85	0.2	89.0	stop_signal	89.0	0.527	False	go	s588
197.815	0.85	0.2	71.0	stop_signal	-1.0	n/a	True	stop_success	s588
200.068	0.85	0.25	89.0	stop_signal	89.0	0.429	False	go	s588
202.46	0.85	0.25	71.0	stop_signal	71.0	0.665	False	go	s588
204.85	0.85	0.25	71.0	stop_signal	71.0	0.431	False	go	s588
207.102	0.85	0.25	71.0	stop_signal	71.0	0.472	False	go	s588
209.493	0.85	0.25	71.0	stop_signal	71.0	0.514	False	go	s588
211.882	0.85	0.25	89.0	stop_signal	89.0	0.591	False	stop_failure	s588
224.783	0.85	0.2	89.0	stop_signal	89.0	0.44	False	go	s588
227.443	0.85	0.2	71.0	stop_signal	71.0	0.464	False	go	s588
229.971	0.85	0.2	89.0	stop_signal	-1.0	n/a	True	stop_success	s588
232.226	0.85	0.25	71.0	stop_signal	-1.0	n/a	True	stop_success	s588
235.161	0.85	0.3	89.0	stop_signal	89.0	0.49	False	go	s588
237.417	0.85	0.3	71.0	stop_signal	71.0	0.461	False	go	s588
239.945	0.85	0.3	89.0	stop_signal	89.0	0.483	False	stop_failure	s588
242.2	0.85	0.25	71.0	stop_signal	71.0	0.613	False	go	s588
244.452	0.85	0.25	71.0	stop_signal	71.0	0.477	False	go	s588
246.708	0.85	0.25	89.0	stop_signal	71.0	0.477	False	go	s588
248.964	0.85	0.25	71.0	stop_signal	71.0	0.634	False	go	s588
251.491	0.85	0.25	71.0	stop_signal	-1.0	n/a	True	stop_success	s588
254.559	0.85	0.3	71.0	stop_signal	71.0	0.529	False	stop_failure	s588
256.815	0.85	0.25	89.0	stop_signal	89.0	1.023	False	go	s588
259.207	0.85	0.25	71.0	stop_signal	71.0	0.518	False	stop_failure	s588
261.599	0.85	0.2	71.0	stop_signal	71.0	0.537	False	go	s588
264.125	0.85	0.2	71.0	stop_signal	71.0	0.526	False	go	s588
266.514	0.85	0.2	71.0	stop_signal	71.0	0.619	False	go	s588
268.906	0.85	0.2	89.0	stop_signal	-1.0	n/a	True	stop_success	s588
271.703	0.85	0.25	71.0	stop_signal	71.0	0.526	False	go	s588
274.096	0.85	0.25	71.0	stop_signal	-1.0	n/a	True	stop_success	s588
276.352	0.85	0.3	89.0	stop_signal	89.0	0.492	False	stop_failure	s588
278.877	0.85	0.25	71.0	stop_signal	71.0	0.48	False	stop_failure	s588
281.267	0.85	0.2	71.0	stop_signal	71.0	0.723	False	go	s588
283.659	0.85	0.2	89.0	stop_signal	-1.0	n/a	True	stop_success	s588
285.914	0.85	0.25	71.0	stop_signal	71.0	0.497	False	go	s588
288.304	0.85	0.25	71.0	stop_signal	71.0	0.53	False	go	s588
290.56	0.85	0.25	71.0	stop_signal	-1.0	n/a	True	stop_success	s588
292.817	0.85	0.3	89.0	stop_signal	89.0	0.584	False	go	s588
295.07	0.85	0.3	71.0	stop_signal	71.0	0.513	False	go	s588
297.462	0.85	0.3	89.0	stop_signal	89.0	0.487	False	stop_failure	s588
299.718	0.85	0.25	89.0	stop_signal	89.0	0.423	False	stop_failure	s588
301.972	0.85	0.2	71.0	stop_signal	-1.0	n/a	True	stop_success	s588
304.361	0.85	0.25	71.0	stop_signal	-1.0	n/a	True	stop_success	s588
306.753	0.85	0.3	71.0	stop_signal	71.0	0.516	False	go	s588
309.009	0.85	0.3	71.0	stop_signal	71.0	0.485	False	stop_failure	s588
311.537	0.85	0.25	71.0	stop_signal	71.0	0.652	False	go	s588
313.791	0.85	0.25	89.0	stop_signal	89.0	0.552	False	go	s588
316.179	0.85	0.25	89.0	stop_signal	89.0	0.506	False	go	s588
318.434	0.85	0.25	71.0	stop_signal	-1.0	n/a	True	stop_success	s588
320.687	0.85	0.3	89.0	stop_signal	89.0	0.668	False	go	s588
323.079	0.85	0.3	89.0	stop_signal	89.0	0.518	False	go	s588
