onset	duration	condition	correct	correct_response	experiment_exp_id	key_press	response_time	stim_color	stim_word	trial_type	worker_id
3.518	1.5	incongruent	1.0	89.0	stroop	89	1.044	red	blue	incongruent	s621
5.796	1.5	incongruent	1.0	71.0	stroop	71	0.972	blue	red	incongruent	s621
7.801	1.5	congruent	1.0	89.0	stroop	89	0.525	red	red	congruent	s621
9.806	1.5	congruent	1.0	89.0	stroop	89	0.541	red	red	congruent	s621
11.812	1.5	incongruent	1.0	89.0	stroop	89	0.555	red	blue	incongruent	s621
13.815	1.5	congruent	1.0	71.0	stroop	71	0.556	blue	blue	congruent	s621
15.956	1.5	congruent	1.0	71.0	stroop	71	0.522	blue	blue	congruent	s621
17.961	1.5	incongruent	1.0	89.0	stroop	89	0.532	red	green	incongruent	s621
19.966	1.5	congruent	1.0	82.0	stroop	82	0.546	green	green	congruent	s621
22.105	1.5	incongruent	1.0	89.0	stroop	89	0.478	red	blue	incongruent	s621
24.108	1.5	incongruent	1.0	89.0	stroop	89	0.582	red	blue	incongruent	s621
26.111	1.5	incongruent	1.0	89.0	stroop	89	0.484	red	green	incongruent	s621
28.252	1.5	congruent	1.0	82.0	stroop	82	0.614	green	green	congruent	s621
30.39	1.5	congruent	1.0	89.0	stroop	89	0.5	red	red	congruent	s621
32.663	1.5	incongruent	1.0	71.0	stroop	71	0.75	blue	green	incongruent	s621
35.349	1.5	congruent	1.0	71.0	stroop	71	0.57	blue	blue	congruent	s621
37.354	1.5	congruent	1.0	71.0	stroop	71	0.533	blue	blue	congruent	s621
39.356	1.5	incongruent	1.0	82.0	stroop	82	0.766	green	blue	incongruent	s621
41.632	1.5	incongruent	1.0	71.0	stroop	71	0.681	blue	green	incongruent	s621
43.637	1.5	congruent	1.0	82.0	stroop	82	0.738	green	green	congruent	s621
45.642	1.5	incongruent	1.0	82.0	stroop	82	0.528	green	blue	incongruent	s621
47.644	1.5	incongruent	1.0	82.0	stroop	82	0.437	green	blue	incongruent	s621
49.648	1.5	incongruent	1.0	82.0	stroop	82	0.62	green	red	incongruent	s621
51.653	1.5	incongruent	1.0	89.0	stroop	89	0.531	red	blue	incongruent	s621
53.658	1.5	congruent	1.0	71.0	stroop	71	0.637	blue	blue	congruent	s621
55.936	1.5	incongruent	1.0	71.0	stroop	71	0.433	blue	red	incongruent	s621
57.939	1.5	congruent	1.0	71.0	stroop	71	0.404	blue	blue	congruent	s621
60.352	1.5	congruent	1.0	71.0	stroop	71	0.452	blue	blue	congruent	s621
62.355	1.5	congruent	1.0	82.0	stroop	82	0.566	green	green	congruent	s621
64.496	1.5	congruent	1.0	89.0	stroop	89	0.47	red	red	congruent	s621
66.502	1.5	congruent	1.0	82.0	stroop	82	0.615	green	green	congruent	s621
68.507	1.5	incongruent	1.0	71.0	stroop	71	0.565	blue	green	incongruent	s621
70.508	1.5	congruent	1.0	89.0	stroop	89	0.533	red	red	congruent	s621
72.785	1.5	incongruent	1.0	82.0	stroop	82	0.571	green	red	incongruent	s621
74.79	1.5	incongruent	1.0	82.0	stroop	82	0.514	green	blue	incongruent	s621
77.068	1.5	incongruent	1.0	71.0	stroop	71	0.471	blue	red	incongruent	s621
79.345	1.5	incongruent	1.0	82.0	stroop	82	0.637	green	red	incongruent	s621
81.351	1.5	congruent	1.0	82.0	stroop	82	0.474	green	green	congruent	s621
84.033	1.5	incongruent	1.0	82.0	stroop	82	0.635	green	blue	incongruent	s621
86.038	1.5	congruent	1.0	89.0	stroop	89	0.527	red	red	congruent	s621
88.316	1.5	congruent	1.0	71.0	stroop	71	0.528	blue	blue	congruent	s621
90.321	1.5	congruent	1.0	82.0	stroop	82	0.438	green	green	congruent	s621
92.327	1.5	incongruent	1.0	82.0	stroop	82	0.764	green	blue	incongruent	s621
94.601	1.5	congruent	1.0	89.0	stroop	89	0.518	red	red	congruent	s621
96.739	1.5	congruent	1.0	89.0	stroop	89	0.441	red	red	congruent	s621
99.284	1.5	incongruent	1.0	89.0	stroop	89	0.473	red	green	incongruent	s621
101.698	1.5	incongruent	1.0	71.0	stroop	71	0.574	blue	red	incongruent	s621
103.7	1.5	incongruent	1.0	71.0	stroop	71	0.429	blue	red	incongruent	s621
105.706	1.5	incongruent	1.0	71.0	stroop	71	0.388	blue	red	incongruent	s621
107.709	1.5	congruent	1.0	82.0	stroop	82	0.56	green	green	congruent	s621
110.255	1.5	congruent	1.0	82.0	stroop	82	0.487	green	green	congruent	s621
112.397	1.5	congruent	1.0	89.0	stroop	89	0.552	red	red	congruent	s621
114.402	1.5	congruent	1.0	82.0	stroop	82	0.662	green	green	congruent	s621
116.408	1.5	congruent	1.0	89.0	stroop	89	0.525	red	red	congruent	s621
118.685	1.5	incongruent	1.0	82.0	stroop	82	0.7	green	red	incongruent	s621
120.69	1.5	congruent	1.0	82.0	stroop	82	0.511	green	green	congruent	s621
122.693	1.5	incongruent	1.0	71.0	stroop	71	0.574	blue	green	incongruent	s621
124.834	1.5	incongruent	1.0	89.0	stroop	89	0.506	red	green	incongruent	s621
126.84	1.5	incongruent	1.0	82.0	stroop	82	0.805	green	blue	incongruent	s621
129.115	1.5	congruent	1.0	71.0	stroop	71	0.595	blue	blue	congruent	s621
131.253	1.5	incongruent	1.0	82.0	stroop	82	0.875	green	red	incongruent	s621
133.667	1.5	congruent	1.0	82.0	stroop	82	0.538	green	green	congruent	s621
135.672	1.5	congruent	0.0	71.0	stroop	89	0.69	blue	blue	congruent	s621
137.678	1.5	incongruent	1.0	89.0	stroop	89	0.663	red	green	incongruent	s621
140.499	1.5	incongruent	1.0	89.0	stroop	89	0.703	red	blue	incongruent	s621
142.505	1.5	incongruent	1.0	71.0	stroop	71	0.735	blue	green	incongruent	s621
144.51	1.5	congruent	1.0	71.0	stroop	71	0.423	blue	blue	congruent	s621
146.647	1.5	congruent	1.0	89.0	stroop	89	0.537	red	red	congruent	s621
148.649	1.5	incongruent	1.0	71.0	stroop	71	0.767	blue	green	incongruent	s621
150.654	1.5	congruent	1.0	82.0	stroop	82	0.726	green	green	congruent	s621
152.66	1.5	incongruent	1.0	82.0	stroop	82	0.492	green	red	incongruent	s621
154.665	1.5	congruent	1.0	89.0	stroop	89	0.509	red	red	congruent	s621
156.668	1.5	incongruent	1.0	82.0	stroop	82	0.665	green	red	incongruent	s621
158.67	1.5	congruent	1.0	71.0	stroop	71	0.994	blue	blue	congruent	s621
160.676	1.5	incongruent	1.0	89.0	stroop	89	0.524	red	green	incongruent	s621
162.953	1.5	incongruent	1.0	71.0	stroop	71	0.566	blue	green	incongruent	s621
164.956	1.5	congruent	1.0	89.0	stroop	89	0.521	red	red	congruent	s621
167.097	1.5	congruent	1.0	71.0	stroop	71	0.577	blue	blue	congruent	s621
169.1	1.5	congruent	1.0	89.0	stroop	89	0.525	red	red	congruent	s621
171.242	1.5	congruent	1.0	71.0	stroop	71	0.504	blue	blue	congruent	s621
173.247	1.5	congruent	1.0	89.0	stroop	89	0.459	red	red	congruent	s621
175.252	1.5	incongruent	1.0	89.0	stroop	89	0.66	red	blue	incongruent	s621
177.254	1.5	incongruent	1.0	89.0	stroop	89	0.526	red	green	incongruent	s621
179.53	1.5	incongruent	1.0	82.0	stroop	82	0.884	green	blue	incongruent	s621
181.533	1.5	incongruent	1.0	89.0	stroop	89	0.515	red	blue	incongruent	s621
183.671	1.5	congruent	1.0	89.0	stroop	89	0.529	red	red	congruent	s621
186.085	1.5	incongruent	1.0	71.0	stroop	71	0.987	blue	red	incongruent	s621
188.36	1.5	congruent	1.0	71.0	stroop	71	0.393	blue	blue	congruent	s621
191.045	1.5	congruent	1.0	82.0	stroop	82	0.554	green	green	congruent	s621
193.049	1.5	congruent	1.0	82.0	stroop	82	0.533	green	green	congruent	s621
195.459	1.5	congruent	1.0	71.0	stroop	71	0.632	blue	blue	congruent	s621
197.597	1.5	incongruent	1.0	71.0	stroop	71	0.616	blue	green	incongruent	s621
200.283	1.5	incongruent	1.0	71.0	stroop	71	0.414	blue	red	incongruent	s621
202.285	1.5	incongruent	1.0	89.0	stroop	89	0.748	red	green	incongruent	s621
204.424	1.5	congruent	1.0	82.0	stroop	82	0.524	green	green	congruent	s621
207.382	1.5	incongruent	1.0	82.0	stroop	82	0.528	green	red	incongruent	s621
