onset	duration	planning	condition	current_position	exp_stage	experiment_exp_id	goal_state	key_press	problem_id	response_time	start_state	trial_id	worker_id
-72.228	0.0	0	n/a	n/a	n/a	ward_and_allport	n/a	32.0	n/a	28.058	n/a	instructions	s610
3.013	9.891	1	UA_with_intermediate	1,0,0,2,0,0,0,0,0	practice	ward_and_allport	1,2,3,0,0,0,0,0,0	71.0	0.0	9.891	1,0,0,2,3,0,0,0,0	to_hand	s610
12.906	3.382	0	UA_with_intermediate	1,0,0,2,0,0,3,0,0	practice	ward_and_allport	1,2,3,0,0,0,0,0,0	82.0	0.0	3.382	1,0,0,2,3,0,0,0,0	to_board	s610
16.29	1.465	0	UA_with_intermediate	1,0,0,0,0,0,3,0,0	practice	ward_and_allport	1,2,3,0,0,0,0,0,0	71.0	0.0	1.465	1,0,0,2,3,0,0,0,0	to_hand	s610
17.756	1.791	0	UA_with_intermediate	1,2,0,0,0,0,3,0,0	practice	ward_and_allport	1,2,3,0,0,0,0,0,0	89.0	0.0	1.791	1,0,0,2,3,0,0,0,0	to_board	s610
19.548	3.066	0	UA_with_intermediate	1,2,0,0,0,0,0,0,0	practice	ward_and_allport	1,2,3,0,0,0,0,0,0	82.0	0.0	3.066	1,0,0,2,3,0,0,0,0	to_hand	s610
22.615	1.964	0	UA_with_intermediate	1,2,3,0,0,0,0,0,0	practice	ward_and_allport	1,2,3,0,0,0,0,0,0	89.0	0.0	1.964	1,0,0,2,3,0,0,0,0	to_board	s610
24.584	1.0	0	UA_with_intermediate	n/a	practice	ward_and_allport	n/a	-1.0	0.0	n/a	n/a	feedback	s610
27.086	7.326	1	UA_with_intermediate	1,0,0,3,0,0,0,0,0	practice	ward_and_allport	1,3,2,0,0,0,0,0,0	89.0	1.0	7.326	1,2,0,3,0,0,0,0,0	to_hand	s610
34.414	4.546	0	UA_with_intermediate	1,0,0,3,0,0,2,0,0	practice	ward_and_allport	1,3,2,0,0,0,0,0,0	82.0	1.0	4.546	1,2,0,3,0,0,0,0,0	to_board	s610
38.961	1.218	0	UA_with_intermediate	1,0,0,0,0,0,2,0,0	practice	ward_and_allport	1,3,2,0,0,0,0,0,0	71.0	1.0	1.218	1,2,0,3,0,0,0,0,0	to_hand	s610
40.18	0.824	0	UA_with_intermediate	1,3,0,0,0,0,2,0,0	practice	ward_and_allport	1,3,2,0,0,0,0,0,0	89.0	1.0	0.824	1,2,0,3,0,0,0,0,0	to_board	s610
41.005	1.193	0	UA_with_intermediate	1,3,0,0,0,0,0,0,0	practice	ward_and_allport	1,3,2,0,0,0,0,0,0	82.0	1.0	1.193	1,2,0,3,0,0,0,0,0	to_hand	s610
42.199	1.09	0	UA_with_intermediate	1,3,2,0,0,0,0,0,0	practice	ward_and_allport	1,3,2,0,0,0,0,0,0	89.0	1.0	1.09	1,2,0,3,0,0,0,0,0	to_board	s610
43.295	1.0	0	UA_with_intermediate	n/a	practice	ward_and_allport	n/a	-1.0	1.0	n/a	n/a	feedback	s610
44.295	1.1	0	UA_with_intermediate	n/a	practice	ward_and_allport	n/a	-1.0	1.0	n/a	n/a	ITI	s610
45.396	3.212	1	UA_without_intermediate	0,0,0,1,2,0,0,0,0	practice	ward_and_allport	3,2,1,0,0,0,0,0,0	82.0	2.0	3.212	0,0,0,1,2,0,3,0,0	to_hand	s610
48.609	1.423	0	UA_without_intermediate	3,0,0,1,2,0,0,0,0	practice	ward_and_allport	3,2,1,0,0,0,0,0,0	89.0	2.0	1.423	0,0,0,1,2,0,3,0,0	to_board	s610
50.033	0.981	0	UA_without_intermediate	3,0,0,1,0,0,0,0,0	practice	ward_and_allport	3,2,1,0,0,0,0,0,0	71.0	2.0	0.981	0,0,0,1,2,0,3,0,0	to_hand	s610
51.015	1.406	0	UA_without_intermediate	3,2,0,1,0,0,0,0,0	practice	ward_and_allport	3,2,1,0,0,0,0,0,0	89.0	2.0	1.406	0,0,0,1,2,0,3,0,0	to_board	s610
52.423	1.258	0	UA_without_intermediate	3,2,0,0,0,0,0,0,0	practice	ward_and_allport	3,2,1,0,0,0,0,0,0	71.0	2.0	1.258	0,0,0,1,2,0,3,0,0	to_hand	s610
53.682	0.915	0	UA_without_intermediate	3,2,1,0,0,0,0,0,0	practice	ward_and_allport	3,2,1,0,0,0,0,0,0	89.0	2.0	0.915	0,0,0,1,2,0,3,0,0	to_board	s610
54.605	1.0	0	UA_without_intermediate	n/a	practice	ward_and_allport	n/a	-1.0	2.0	n/a	n/a	feedback	s610
55.605	1.2	0	UA_without_intermediate	n/a	practice	ward_and_allport	n/a	-1.0	2.0	n/a	n/a	ITI	s610
56.806	3.046	1	UA_without_intermediate	0,0,0,1,0,0,3,0,0	practice	ward_and_allport	2,3,1,0,0,0,0,0,0	71.0	3.0	3.046	0,0,0,1,2,0,3,0,0	to_hand	s610
59.853	1.477	0	UA_without_intermediate	2,0,0,1,0,0,3,0,0	practice	ward_and_allport	2,3,1,0,0,0,0,0,0	89.0	3.0	1.477	0,0,0,1,2,0,3,0,0	to_board	s610
61.331	1.551	0	UA_without_intermediate	2,0,0,1,0,0,0,0,0	practice	ward_and_allport	2,3,1,0,0,0,0,0,0	82.0	3.0	1.551	0,0,0,1,2,0,3,0,0	to_hand	s610
62.883	1.066	0	UA_without_intermediate	2,3,0,1,0,0,0,0,0	practice	ward_and_allport	2,3,1,0,0,0,0,0,0	89.0	3.0	1.066	0,0,0,1,2,0,3,0,0	to_board	s610
63.95	0.692	0	UA_without_intermediate	2,3,0,0,0,0,0,0,0	practice	ward_and_allport	2,3,1,0,0,0,0,0,0	71.0	3.0	0.692	0,0,0,1,2,0,3,0,0	to_hand	s610
64.643	0.526	0	UA_without_intermediate	2,3,1,0,0,0,0,0,0	practice	ward_and_allport	2,3,1,0,0,0,0,0,0	89.0	3.0	0.526	0,0,0,1,2,0,3,0,0	to_board	s610
65.173	1.0	0	UA_without_intermediate	n/a	practice	ward_and_allport	n/a	-1.0	3.0	n/a	n/a	feedback	s610
66.173	1.0	0	UA_without_intermediate	n/a	practice	ward_and_allport	n/a	-1.0	3.0	n/a	n/a	ITI	s610
69.178	8.707	1	PA_with_intermediate	1,2,0,0,0,0,0,0,0	test	ward_and_allport	1,3,0,2,0,0,0,0,0	89.0	0.0	8.707	1,2,3,0,0,0,0,0,0	to_hand	s610
77.886	3.093	0	PA_with_intermediate	1,2,0,0,0,0,3,0,0	test	ward_and_allport	1,3,0,2,0,0,0,0,0	82.0	0.0	3.093	1,2,3,0,0,0,0,0,0	to_board	s610
80.98	2.047	0	PA_with_intermediate	1,0,0,0,0,0,3,0,0	test	ward_and_allport	1,3,0,2,0,0,0,0,0	89.0	0.0	2.047	1,2,3,0,0,0,0,0,0	to_hand	s610
83.028	2.036	0	PA_with_intermediate	1,0,0,2,0,0,3,0,0	test	ward_and_allport	1,3,0,2,0,0,0,0,0	71.0	0.0	2.036	1,2,3,0,0,0,0,0,0	to_board	s610
85.066	3.646	0	PA_with_intermediate	1,0,0,2,0,0,0,0,0	test	ward_and_allport	1,3,0,2,0,0,0,0,0	82.0	0.0	3.646	1,2,3,0,0,0,0,0,0	to_hand	s610
88.713	1.896	0	PA_with_intermediate	1,3,0,2,0,0,0,0,0	test	ward_and_allport	1,3,0,2,0,0,0,0,0	89.0	0.0	1.896	1,2,3,0,0,0,0,0,0	to_board	s610
90.616	1.0	0	PA_with_intermediate	n/a	test	ward_and_allport	n/a	-1.0	0.0	n/a	n/a	feedback	s610
91.616	2.768	0	PA_with_intermediate	n/a	test	ward_and_allport	n/a	-1.0	0.0	n/a	n/a	ITI	s610
94.385	7.595	1	PA_with_intermediate	0,0,0,0,0,0,1,2,0	test	ward_and_allport	0,0,0,2,3,0,1,0,0	82.0	1.0	7.595	0,0,0,0,0,0,1,2,3	to_hand	s610
101.981	1.227	0	PA_with_intermediate	3,0,0,0,0,0,1,2,0	test	ward_and_allport	0,0,0,2,3,0,1,0,0	89.0	1.0	1.227	0,0,0,0,0,0,1,2,3	to_board	s610
103.209	2.906	0	PA_with_intermediate	3,0,0,0,0,0,1,0,0	test	ward_and_allport	0,0,0,2,3,0,1,0,0	82.0	1.0	2.906	0,0,0,0,0,0,1,2,3	to_hand	s610
106.116	2.312	0	PA_with_intermediate	3,0,0,2,0,0,1,0,0	test	ward_and_allport	0,0,0,2,3,0,1,0,0	71.0	1.0	2.312	0,0,0,0,0,0,1,2,3	to_board	s610
108.43	1.48	0	PA_with_intermediate	0,0,0,2,0,0,1,0,0	test	ward_and_allport	0,0,0,2,3,0,1,0,0	89.0	1.0	1.48	0,0,0,0,0,0,1,2,3	to_hand	s610
109.911	1.089	0	PA_with_intermediate	0,0,0,2,3,0,1,0,0	test	ward_and_allport	0,0,0,2,3,0,1,0,0	71.0	1.0	1.089	0,0,0,0,0,0,1,2,3	to_board	s610
111.007	1.0	0	PA_with_intermediate	n/a	test	ward_and_allport	n/a	-1.0	1.0	n/a	n/a	feedback	s610
112.007	1.68	0	PA_with_intermediate	n/a	test	ward_and_allport	n/a	-1.0	1.0	n/a	n/a	ITI	s610
113.688	3.839	1	PA_without_intermediate	0,0,0,0,0,0,1,2,0	test	ward_and_allport	3,1,0,2,0,0,0,0,0	82.0	2.0	3.839	0,0,0,0,0,0,1,2,3	to_hand	s610
117.528	1.143	0	PA_without_intermediate	3,0,0,0,0,0,1,2,0	test	ward_and_allport	3,1,0,2,0,0,0,0,0	89.0	2.0	1.143	0,0,0,0,0,0,1,2,3	to_board	s610
118.674	3.819	0	PA_without_intermediate	3,0,0,0,0,0,1,0,0	test	ward_and_allport	3,1,0,2,0,0,0,0,0	82.0	2.0	3.819	0,0,0,0,0,0,1,2,3	to_hand	s610
122.493	3.188	0	PA_without_intermediate	3,0,0,2,0,0,1,0,0	test	ward_and_allport	3,1,0,2,0,0,0,0,0	71.0	2.0	3.188	0,0,0,0,0,0,1,2,3	to_board	s610
125.683	2.045	0	PA_without_intermediate	3,0,0,2,0,0,0,0,0	test	ward_and_allport	3,1,0,2,0,0,0,0,0	82.0	2.0	2.045	0,0,0,0,0,0,1,2,3	to_hand	s610
127.729	1.623	0	PA_without_intermediate	3,1,0,2,0,0,0,0,0	test	ward_and_allport	3,1,0,2,0,0,0,0,0	89.0	2.0	1.623	0,0,0,0,0,0,1,2,3	to_board	s610
129.359	1.0	0	PA_without_intermediate	n/a	test	ward_and_allport	n/a	-1.0	2.0	n/a	n/a	feedback	s610
130.359	2.224	0	PA_without_intermediate	n/a	test	ward_and_allport	n/a	-1.0	2.0	n/a	n/a	ITI	s610
132.585	4.789	1	PA_without_intermediate	1,2,0,0,0,0,0,0,0	test	ward_and_allport	0,0,0,1,0,0,3,2,0	89.0	3.0	4.789	1,2,3,0,0,0,0,0,0	to_hand	s610
137.374	1.402	0	PA_without_intermediate	1,2,0,0,0,0,3,0,0	test	ward_and_allport	0,0,0,1,0,0,3,2,0	82.0	3.0	1.402	1,2,3,0,0,0,0,0,0	to_board	s610
138.778	1.698	0	PA_without_intermediate	1,0,0,0,0,0,3,0,0	test	ward_and_allport	0,0,0,1,0,0,3,2,0	89.0	3.0	1.698	1,2,3,0,0,0,0,0,0	to_hand	s610
140.477	1.85	0	PA_without_intermediate	1,0,0,0,0,0,3,2,0	test	ward_and_allport	0,0,0,1,0,0,3,2,0	82.0	3.0	1.85	1,2,3,0,0,0,0,0,0	to_board	s610
142.33	1.772	0	PA_without_intermediate	0,0,0,0,0,0,3,2,0	test	ward_and_allport	0,0,0,1,0,0,3,2,0	89.0	3.0	1.772	1,2,3,0,0,0,0,0,0	to_hand	s610
144.103	0.61	0	PA_without_intermediate	0,0,0,1,0,0,3,2,0	test	ward_and_allport	0,0,0,1,0,0,3,2,0	71.0	3.0	0.61	1,2,3,0,0,0,0,0,0	to_board	s610
144.72	1.0	0	PA_without_intermediate	n/a	test	ward_and_allport	n/a	-1.0	3.0	n/a	n/a	feedback	s610
145.72	2.36	0	PA_without_intermediate	n/a	test	ward_and_allport	n/a	-1.0	3.0	n/a	n/a	ITI	s610
148.081	5.282	1	PA_without_intermediate	0,0,0,0,0,0,1,2,0	test	ward_and_allport	2,0,0,3,1,0,0,0,0	82.0	4.0	5.282	0,0,0,0,0,0,1,2,3	to_hand	s610
153.364	1.24	0	PA_without_intermediate	0,0,0,3,0,0,1,2,0	test	ward_and_allport	2,0,0,3,1,0,0,0,0	71.0	4.0	1.24	0,0,0,0,0,0,1,2,3	to_board	s610
154.606	1.409	0	PA_without_intermediate	0,0,0,3,0,0,1,0,0	test	ward_and_allport	2,0,0,3,1,0,0,0,0	82.0	4.0	1.409	0,0,0,0,0,0,1,2,3	to_hand	s610
156.016	0.823	0	PA_without_intermediate	2,0,0,3,0,0,1,0,0	test	ward_and_allport	2,0,0,3,1,0,0,0,0	89.0	4.0	0.823	0,0,0,0,0,0,1,2,3	to_board	s610
156.841	1.372	0	PA_without_intermediate	2,0,0,3,0,0,0,0,0	test	ward_and_allport	2,0,0,3,1,0,0,0,0	82.0	4.0	1.372	0,0,0,0,0,0,1,2,3	to_hand	s610
158.214	0.706	0	PA_without_intermediate	2,0,0,3,1,0,0,0,0	test	ward_and_allport	2,0,0,3,1,0,0,0,0	71.0	4.0	0.706	0,0,0,0,0,0,1,2,3	to_board	s610
158.927	1.0	0	PA_without_intermediate	n/a	test	ward_and_allport	n/a	-1.0	4.0	n/a	n/a	feedback	s610
159.927	1.0	0	PA_without_intermediate	n/a	test	ward_and_allport	n/a	-1.0	4.0	n/a	n/a	ITI	s610
160.93	6.113	1	PA_without_intermediate	1,2,0,0,0,0,0,0,0	test	ward_and_allport	0,0,0,3,2,0,1,0,0	89.0	5.0	6.113	1,2,3,0,0,0,0,0,0	to_hand	s610
167.044	0.98	0	PA_without_intermediate	1,2,0,3,0,0,0,0,0	test	ward_and_allport	0,0,0,3,2,0,1,0,0	71.0	5.0	0.98	1,2,3,0,0,0,0,0,0	to_board	s610
168.026	1.266	0	PA_without_intermediate	1,0,0,3,0,0,0,0,0	test	ward_and_allport	0,0,0,3,2,0,1,0,0	89.0	5.0	1.266	1,2,3,0,0,0,0,0,0	to_hand	s610
169.293	0.91	0	PA_without_intermediate	1,0,0,3,2,0,0,0,0	test	ward_and_allport	0,0,0,3,2,0,1,0,0	71.0	5.0	0.91	1,2,3,0,0,0,0,0,0	to_board	s610
170.205	1.288	0	PA_without_intermediate	0,0,0,3,2,0,0,0,0	test	ward_and_allport	0,0,0,3,2,0,1,0,0	89.0	5.0	1.288	1,2,3,0,0,0,0,0,0	to_hand	s610
171.495	1.071	0	PA_without_intermediate	0,0,0,3,2,0,1,0,0	test	ward_and_allport	0,0,0,3,2,0,1,0,0	82.0	5.0	1.071	1,2,3,0,0,0,0,0,0	to_board	s610
172.572	1.0	0	PA_without_intermediate	n/a	test	ward_and_allport	n/a	-1.0	5.0	n/a	n/a	feedback	s610
173.572	1.408	0	PA_without_intermediate	n/a	test	ward_and_allport	n/a	-1.0	5.0	n/a	n/a	ITI	s610
174.982	6.727	1	PA_with_intermediate	0,0,0,1,2,0,0,0,0	test	ward_and_allport	0,0,0,1,0,0,2,3,0	71.0	6.0	6.727	0,0,0,1,2,3,0,0,0	to_hand	s610
181.71	0.792	0	PA_with_intermediate	3,0,0,1,2,0,0,0,0	test	ward_and_allport	0,0,0,1,0,0,2,3,0	89.0	6.0	0.792	0,0,0,1,2,3,0,0,0	to_board	s610
182.504	1.016	0	PA_with_intermediate	3,0,0,1,0,0,0,0,0	test	ward_and_allport	0,0,0,1,0,0,2,3,0	71.0	6.0	1.016	0,0,0,1,2,3,0,0,0	to_hand	s610
183.522	0.92	0	PA_with_intermediate	3,0,0,1,0,0,2,0,0	test	ward_and_allport	0,0,0,1,0,0,2,3,0	82.0	6.0	0.92	0,0,0,1,2,3,0,0,0	to_board	s610
184.444	1.068	0	PA_with_intermediate	0,0,0,1,0,0,2,0,0	test	ward_and_allport	0,0,0,1,0,0,2,3,0	89.0	6.0	1.068	0,0,0,1,2,3,0,0,0	to_hand	s610
185.513	1.717	0	PA_with_intermediate	0,0,0,1,0,0,2,3,0	test	ward_and_allport	0,0,0,1,0,0,2,3,0	82.0	6.0	1.717	0,0,0,1,2,3,0,0,0	to_board	s610
187.234	1.0	0	PA_with_intermediate	n/a	test	ward_and_allport	n/a	-1.0	6.0	n/a	n/a	feedback	s610
188.234	1.136	0	PA_with_intermediate	n/a	test	ward_and_allport	n/a	-1.0	6.0	n/a	n/a	ITI	s610
189.372	3.542	1	PA_without_intermediate	0,0,0,0,0,0,1,2,0	test	ward_and_allport	3,2,0,1,0,0,0,0,0	82.0	7.0	3.542	0,0,0,0,0,0,1,2,3	to_hand	s610
192.915	1.249	0	PA_without_intermediate	3,0,0,0,0,0,1,2,0	test	ward_and_allport	3,2,0,1,0,0,0,0,0	89.0	7.0	1.249	0,0,0,0,0,0,1,2,3	to_board	s610
194.166	2.193	0	PA_without_intermediate	3,0,0,0,0,0,1,0,0	test	ward_and_allport	3,2,0,1,0,0,0,0,0	82.0	7.0	2.193	0,0,0,0,0,0,1,2,3	to_hand	s610
196.36	1.173	0	PA_without_intermediate	3,2,0,0,0,0,1,0,0	test	ward_and_allport	3,2,0,1,0,0,0,0,0	89.0	7.0	1.173	0,0,0,0,0,0,1,2,3	to_board	s610
197.536	2.414	0	PA_without_intermediate	3,2,0,0,0,0,0,0,0	test	ward_and_allport	3,2,0,1,0,0,0,0,0	82.0	7.0	2.414	0,0,0,0,0,0,1,2,3	to_hand	s610
199.951	0.523	0	PA_without_intermediate	3,2,0,1,0,0,0,0,0	test	ward_and_allport	3,2,0,1,0,0,0,0,0	71.0	7.0	0.523	0,0,0,0,0,0,1,2,3	to_board	s610
200.482	1.0	0	PA_without_intermediate	n/a	test	ward_and_allport	n/a	-1.0	7.0	n/a	n/a	feedback	s610
201.482	4.128	0	PA_without_intermediate	n/a	test	ward_and_allport	n/a	-1.0	7.0	n/a	n/a	ITI	s610
205.612	4.262	1	PA_without_intermediate	0,0,0,0,0,0,1,2,0	test	ward_and_allport	1,0,0,3,2,0,0,0,0	82.0	8.0	4.262	0,0,0,0,0,0,1,2,3	to_hand	s610
209.875	0.62	0	PA_without_intermediate	0,0,0,3,0,0,1,2,0	test	ward_and_allport	1,0,0,3,2,0,0,0,0	71.0	8.0	0.62	0,0,0,0,0,0,1,2,3	to_board	s610
210.497	1.587	0	PA_without_intermediate	0,0,0,3,0,0,1,0,0	test	ward_and_allport	1,0,0,3,2,0,0,0,0	82.0	8.0	1.587	0,0,0,0,0,0,1,2,3	to_hand	s610
212.085	0.983	0	PA_without_intermediate	0,0,0,3,2,0,1,0,0	test	ward_and_allport	1,0,0,3,2,0,0,0,0	71.0	8.0	0.983	0,0,0,0,0,0,1,2,3	to_board	s610
213.07	1.503	0	PA_without_intermediate	0,0,0,3,2,0,0,0,0	test	ward_and_allport	1,0,0,3,2,0,0,0,0	82.0	8.0	1.503	0,0,0,0,0,0,1,2,3	to_hand	s610
214.574	0.512	0	PA_without_intermediate	1,0,0,3,2,0,0,0,0	test	ward_and_allport	1,0,0,3,2,0,0,0,0	89.0	8.0	0.512	0,0,0,0,0,0,1,2,3	to_board	s610
215.09	1.0	0	PA_without_intermediate	n/a	test	ward_and_allport	n/a	-1.0	8.0	n/a	n/a	feedback	s610
216.09	1.136	0	PA_without_intermediate	n/a	test	ward_and_allport	n/a	-1.0	8.0	n/a	n/a	ITI	s610
217.228	4.779	1	PA_without_intermediate	0,0,0,1,2,0,0,0,0	test	ward_and_allport	2,0,0,0,0,0,3,1,0	71.0	9.0	4.779	0,0,0,1,2,3,0,0,0	to_hand	s610
222.008	1.075	0	PA_without_intermediate	0,0,0,1,2,0,3,0,0	test	ward_and_allport	2,0,0,0,0,0,3,1,0	82.0	9.0	1.075	0,0,0,1,2,3,0,0,0	to_board	s610
223.086	1.861	0	PA_without_intermediate	0,0,0,1,0,0,3,0,0	test	ward_and_allport	2,0,0,0,0,0,3,1,0	71.0	9.0	1.861	0,0,0,1,2,3,0,0,0	to_hand	s610
224.948	0.457	0	PA_without_intermediate	2,0,0,1,0,0,3,0,0	test	ward_and_allport	2,0,0,0,0,0,3,1,0	89.0	9.0	0.457	0,0,0,1,2,3,0,0,0	to_board	s610
225.408	1.408	0	PA_without_intermediate	2,0,0,0,0,0,3,0,0	test	ward_and_allport	2,0,0,0,0,0,3,1,0	71.0	9.0	1.408	0,0,0,1,2,3,0,0,0	to_hand	s610
226.817	0.807	0	PA_without_intermediate	2,0,0,0,0,0,3,1,0	test	ward_and_allport	2,0,0,0,0,0,3,1,0	82.0	9.0	0.807	0,0,0,1,2,3,0,0,0	to_board	s610
227.631	1.0	0	PA_without_intermediate	n/a	test	ward_and_allport	n/a	-1.0	9.0	n/a	n/a	feedback	s610
228.631	4.264	0	PA_without_intermediate	n/a	test	ward_and_allport	n/a	-1.0	9.0	n/a	n/a	ITI	s610
232.898	6.087	1	PA_with_intermediate	0,0,0,1,2,0,0,0,0	test	ward_and_allport	0,0,0,1,0,0,2,3,0	71.0	10.0	6.087	0,0,0,1,2,3,0,0,0	to_hand	s610
238.986	0.758	0	PA_with_intermediate	3,0,0,1,2,0,0,0,0	test	ward_and_allport	0,0,0,1,0,0,2,3,0	89.0	10.0	0.758	0,0,0,1,2,3,0,0,0	to_board	s610
239.747	1.245	0	PA_with_intermediate	3,0,0,1,0,0,0,0,0	test	ward_and_allport	0,0,0,1,0,0,2,3,0	71.0	10.0	1.245	0,0,0,1,2,3,0,0,0	to_hand	s610
240.994	1.033	0	PA_with_intermediate	3,0,0,1,0,0,2,0,0	test	ward_and_allport	0,0,0,1,0,0,2,3,0	82.0	10.0	1.033	0,0,0,1,2,3,0,0,0	to_board	s610
242.031	0.811	0	PA_with_intermediate	0,0,0,1,0,0,2,0,0	test	ward_and_allport	0,0,0,1,0,0,2,3,0	89.0	10.0	0.811	0,0,0,1,2,3,0,0,0	to_hand	s610
242.843	0.864	0	PA_with_intermediate	0,0,0,1,0,0,2,3,0	test	ward_and_allport	0,0,0,1,0,0,2,3,0	82.0	10.0	0.864	0,0,0,1,2,3,0,0,0	to_board	s610
243.714	1.0	0	PA_with_intermediate	n/a	test	ward_and_allport	n/a	-1.0	10.0	n/a	n/a	feedback	s610
244.714	3.04	0	PA_with_intermediate	n/a	test	ward_and_allport	n/a	-1.0	10.0	n/a	n/a	ITI	s610
247.758	4.181	1	PA_with_intermediate	0,0,0,1,2,0,0,0,0	test	ward_and_allport	2,0,0,1,3,0,0,0,0	71.0	11.0	4.181	0,0,0,1,2,3,0,0,0	to_hand	s610
251.941	0.627	0	PA_with_intermediate	0,0,0,1,2,0,3,0,0	test	ward_and_allport	2,0,0,1,3,0,0,0,0	82.0	11.0	0.627	0,0,0,1,2,3,0,0,0	to_board	s610
252.571	1.617	0	PA_with_intermediate	0,0,0,1,0,0,3,0,0	test	ward_and_allport	2,0,0,1,3,0,0,0,0	71.0	11.0	1.617	0,0,0,1,2,3,0,0,0	to_hand	s610
254.189	0.464	0	PA_with_intermediate	2,0,0,1,0,0,3,0,0	test	ward_and_allport	2,0,0,1,3,0,0,0,0	89.0	11.0	0.464	0,0,0,1,2,3,0,0,0	to_board	s610
254.657	1.767	0	PA_with_intermediate	2,0,0,1,0,0,0,0,0	test	ward_and_allport	2,0,0,1,3,0,0,0,0	82.0	11.0	1.767	0,0,0,1,2,3,0,0,0	to_hand	s610
256.425	0.428	0	PA_with_intermediate	2,0,0,1,3,0,0,0,0	test	ward_and_allport	2,0,0,1,3,0,0,0,0	71.0	11.0	0.428	0,0,0,1,2,3,0,0,0	to_board	s610
256.861	1.0	0	PA_with_intermediate	n/a	test	ward_and_allport	n/a	-1.0	11.0	n/a	n/a	feedback	s610
257.861	1.136	0	PA_with_intermediate	n/a	test	ward_and_allport	n/a	-1.0	11.0	n/a	n/a	ITI	s610
259.0	4.86	1	PA_with_intermediate	0,0,0,1,2,0,0,0,0	test	ward_and_allport	2,3,0,1,0,0,0,0,0	71.0	12.0	4.86	0,0,0,1,2,3,0,0,0	to_hand	s610
263.861	0.76	0	PA_with_intermediate	0,0,0,1,2,0,3,0,0	test	ward_and_allport	2,3,0,1,0,0,0,0,0	82.0	12.0	0.76	0,0,0,1,2,3,0,0,0	to_board	s610
264.626	0.837	0	PA_with_intermediate	0,0,0,1,0,0,3,0,0	test	ward_and_allport	2,3,0,1,0,0,0,0,0	71.0	12.0	0.837	0,0,0,1,2,3,0,0,0	to_hand	s610
265.465	0.481	0	PA_with_intermediate	2,0,0,1,0,0,3,0,0	test	ward_and_allport	2,3,0,1,0,0,0,0,0	89.0	12.0	0.481	0,0,0,1,2,3,0,0,0	to_board	s610
265.949	0.911	0	PA_with_intermediate	2,0,0,1,0,0,0,0,0	test	ward_and_allport	2,3,0,1,0,0,0,0,0	82.0	12.0	0.911	0,0,0,1,2,3,0,0,0	to_hand	s610
266.861	0.95	0	PA_with_intermediate	2,3,0,1,0,0,0,0,0	test	ward_and_allport	2,3,0,1,0,0,0,0,0	89.0	12.0	0.95	0,0,0,1,2,3,0,0,0	to_board	s610
267.815	1.0	0	PA_with_intermediate	n/a	test	ward_and_allport	n/a	-1.0	12.0	n/a	n/a	feedback	s610
268.815	1.408	0	PA_with_intermediate	n/a	test	ward_and_allport	n/a	-1.0	12.0	n/a	n/a	ITI	s610
270.226	3.621	1	PA_without_intermediate	1,2,0,0,0,0,0,0,0	test	ward_and_allport	0,0,0,3,1,0,2,0,0	89.0	13.0	3.621	1,2,3,0,0,0,0,0,0	to_hand	s610
273.848	1.27	0	PA_without_intermediate	1,2,0,3,0,0,0,0,0	test	ward_and_allport	0,0,0,3,1,0,2,0,0	71.0	13.0	1.27	1,2,3,0,0,0,0,0,0	to_board	s610
275.122	1.495	0	PA_without_intermediate	1,0,0,3,0,0,0,0,0	test	ward_and_allport	0,0,0,3,1,0,2,0,0	89.0	13.0	1.495	1,2,3,0,0,0,0,0,0	to_hand	s610
276.618	0.605	0	PA_without_intermediate	1,0,0,3,0,0,2,0,0	test	ward_and_allport	0,0,0,3,1,0,2,0,0	82.0	13.0	0.605	1,2,3,0,0,0,0,0,0	to_board	s610
277.227	0.928	0	PA_without_intermediate	0,0,0,3,0,0,2,0,0	test	ward_and_allport	0,0,0,3,1,0,2,0,0	89.0	13.0	0.928	1,2,3,0,0,0,0,0,0	to_hand	s610
278.156	0.788	0	PA_without_intermediate	0,0,0,3,1,0,2,0,0	test	ward_and_allport	0,0,0,3,1,0,2,0,0	71.0	13.0	0.788	1,2,3,0,0,0,0,0,0	to_board	s610
278.951	1.0	0	PA_without_intermediate	n/a	test	ward_and_allport	n/a	-1.0	13.0	n/a	n/a	feedback	s610
279.951	1.68	0	PA_without_intermediate	n/a	test	ward_and_allport	n/a	-1.0	13.0	n/a	n/a	ITI	s610
281.634	3.773	1	PA_with_intermediate	0,0,0,1,2,0,0,0,0	test	ward_and_allport	0,0,0,1,3,0,2,0,0	71.0	14.0	3.773	0,0,0,1,2,3,0,0,0	to_hand	s610
285.408	0.479	0	PA_with_intermediate	3,0,0,1,2,0,0,0,0	test	ward_and_allport	0,0,0,1,3,0,2,0,0	89.0	14.0	0.479	0,0,0,1,2,3,0,0,0	to_board	s610
285.891	0.686	0	PA_with_intermediate	3,0,0,1,0,0,0,0,0	test	ward_and_allport	0,0,0,1,3,0,2,0,0	71.0	14.0	0.686	0,0,0,1,2,3,0,0,0	to_hand	s610
286.577	0.618	0	PA_with_intermediate	3,0,0,1,0,0,2,0,0	test	ward_and_allport	0,0,0,1,3,0,2,0,0	82.0	14.0	0.618	0,0,0,1,2,3,0,0,0	to_board	s610
287.198	3.395	0	PA_with_intermediate	0,0,0,1,0,0,2,0,0	test	ward_and_allport	0,0,0,1,3,0,2,0,0	89.0	14.0	3.395	0,0,0,1,2,3,0,0,0	to_hand	s610
290.594	0.558	0	PA_with_intermediate	0,0,0,1,3,0,2,0,0	test	ward_and_allport	0,0,0,1,3,0,2,0,0	71.0	14.0	0.558	0,0,0,1,2,3,0,0,0	to_board	s610
291.157	1.0	0	PA_with_intermediate	n/a	test	ward_and_allport	n/a	-1.0	14.0	n/a	n/a	feedback	s610
292.157	3.72	0	PA_with_intermediate	n/a	test	ward_and_allport	n/a	-1.0	14.0	n/a	n/a	ITI	s610
300.882	6.893	1	PA_without_intermediate	0,0,0,1,2,0,0,0,0	test	ward_and_allport	3,1,0,0,0,0,2,0,0	71.0	15.0	6.893	0,0,0,1,2,3,0,0,0	to_hand	s610
307.776	0.742	0	PA_without_intermediate	3,0,0,1,2,0,0,0,0	test	ward_and_allport	3,1,0,0,0,0,2,0,0	89.0	15.0	0.742	0,0,0,1,2,3,0,0,0	to_board	s610
308.522	1.475	0	PA_without_intermediate	3,0,0,1,0,0,0,0,0	test	ward_and_allport	3,1,0,0,0,0,2,0,0	71.0	15.0	1.475	0,0,0,1,2,3,0,0,0	to_hand	s610
309.998	1.031	0	PA_without_intermediate	3,0,0,1,0,0,2,0,0	test	ward_and_allport	3,1,0,0,0,0,2,0,0	82.0	15.0	1.031	0,0,0,1,2,3,0,0,0	to_board	s610
311.032	1.593	0	PA_without_intermediate	3,0,0,0,0,0,2,0,0	test	ward_and_allport	3,1,0,0,0,0,2,0,0	71.0	15.0	1.593	0,0,0,1,2,3,0,0,0	to_hand	s610
312.626	0.554	0	PA_without_intermediate	3,1,0,0,0,0,2,0,0	test	ward_and_allport	3,1,0,0,0,0,2,0,0	89.0	15.0	0.554	0,0,0,1,2,3,0,0,0	to_board	s610
313.186	1.0	0	PA_without_intermediate	n/a	test	ward_and_allport	n/a	-1.0	15.0	n/a	n/a	feedback	s610
314.186	2.224	0	PA_without_intermediate	n/a	test	ward_and_allport	n/a	-1.0	15.0	n/a	n/a	ITI	s610
316.413	2.798	1	PA_without_intermediate	1,2,0,0,0,0,0,0,0	test	ward_and_allport	0,0,0,2,0,0,3,1,0	89.0	16.0	2.798	1,2,3,0,0,0,0,0,0	to_hand	s610
319.212	1.084	0	PA_without_intermediate	1,2,0,0,0,0,3,0,0	test	ward_and_allport	0,0,0,2,0,0,3,1,0	82.0	16.0	1.084	1,2,3,0,0,0,0,0,0	to_board	s610
320.3	2.324	0	PA_without_intermediate	1,0,0,0,0,0,3,0,0	test	ward_and_allport	0,0,0,2,0,0,3,1,0	89.0	16.0	2.324	1,2,3,0,0,0,0,0,0	to_hand	s610
322.625	0.808	0	PA_without_intermediate	1,0,0,2,0,0,3,0,0	test	ward_and_allport	0,0,0,2,0,0,3,1,0	71.0	16.0	0.808	1,2,3,0,0,0,0,0,0	to_board	s610
323.436	0.991	0	PA_without_intermediate	0,0,0,2,0,0,3,0,0	test	ward_and_allport	0,0,0,2,0,0,3,1,0	89.0	16.0	0.991	1,2,3,0,0,0,0,0,0	to_hand	s610
324.429	3.369	0	PA_without_intermediate	0,0,0,2,0,0,3,1,0	test	ward_and_allport	0,0,0,2,0,0,3,1,0	82.0	16.0	3.369	1,2,3,0,0,0,0,0,0	to_board	s610
327.802	1.0	0	PA_without_intermediate	n/a	test	ward_and_allport	n/a	-1.0	16.0	n/a	n/a	feedback	s610
328.802	1.272	0	PA_without_intermediate	n/a	test	ward_and_allport	n/a	-1.0	16.0	n/a	n/a	ITI	s610
330.077	6.997	1	PA_with_intermediate	0,0,0,0,0,0,1,2,0	test	ward_and_allport	2,0,0,0,0,0,1,3,0	82.0	17.0	6.997	0,0,0,0,0,0,1,2,3	to_hand	s610
337.075	1.498	0	PA_with_intermediate	0,0,0,3,0,0,1,2,0	test	ward_and_allport	2,0,0,0,0,0,1,3,0	71.0	17.0	1.498	0,0,0,0,0,0,1,2,3	to_board	s610
338.577	1.854	0	PA_with_intermediate	0,0,0,3,0,0,1,0,0	test	ward_and_allport	2,0,0,0,0,0,1,3,0	82.0	17.0	1.854	0,0,0,0,0,0,1,2,3	to_hand	s610
340.432	1.831	0	PA_with_intermediate	2,0,0,3,0,0,1,0,0	test	ward_and_allport	2,0,0,0,0,0,1,3,0	89.0	17.0	1.831	0,0,0,0,0,0,1,2,3	to_board	s610
342.272	1.513	0	PA_with_intermediate	2,0,0,0,0,0,1,0,0	test	ward_and_allport	2,0,0,0,0,0,1,3,0	71.0	17.0	1.513	0,0,0,0,0,0,1,2,3	to_hand	s610
343.786	0.755	0	PA_with_intermediate	2,0,0,0,0,0,1,3,0	test	ward_and_allport	2,0,0,0,0,0,1,3,0	82.0	17.0	0.755	0,0,0,0,0,0,1,2,3	to_board	s610
344.546	1.0	0	PA_with_intermediate	n/a	test	ward_and_allport	n/a	-1.0	17.0	n/a	n/a	feedback	s610
345.546	2.632	0	PA_with_intermediate	n/a	test	ward_and_allport	n/a	-1.0	17.0	n/a	n/a	ITI	s610
348.181	4.03	1	PA_without_intermediate	0,0,0,1,2,0,0,0,0	test	ward_and_allport	3,2,0,0,0,0,1,0,0	71.0	18.0	4.03	0,0,0,1,2,3,0,0,0	to_hand	s610
352.212	1.01	0	PA_without_intermediate	3,0,0,1,2,0,0,0,0	test	ward_and_allport	3,2,0,0,0,0,1,0,0	89.0	18.0	1.01	0,0,0,1,2,3,0,0,0	to_board	s610
353.226	1.863	0	PA_without_intermediate	3,0,0,1,0,0,0,0,0	test	ward_and_allport	3,2,0,0,0,0,1,0,0	71.0	18.0	1.863	0,0,0,1,2,3,0,0,0	to_hand	s610
355.09	0.487	0	PA_without_intermediate	3,2,0,1,0,0,0,0,0	test	ward_and_allport	3,2,0,0,0,0,1,0,0	89.0	18.0	0.487	0,0,0,1,2,3,0,0,0	to_board	s610
355.581	0.826	0	PA_without_intermediate	3,2,0,0,0,0,0,0,0	test	ward_and_allport	3,2,0,0,0,0,1,0,0	71.0	18.0	0.826	0,0,0,1,2,3,0,0,0	to_hand	s610
356.408	0.844	0	PA_without_intermediate	3,2,0,0,0,0,1,0,0	test	ward_and_allport	3,2,0,0,0,0,1,0,0	82.0	18.0	0.844	0,0,0,1,2,3,0,0,0	to_board	s610
357.258	1.0	0	PA_without_intermediate	n/a	test	ward_and_allport	n/a	-1.0	18.0	n/a	n/a	feedback	s610
358.258	1.408	0	PA_without_intermediate	n/a	test	ward_and_allport	n/a	-1.0	18.0	n/a	n/a	ITI	s610
359.669	3.012	1	PA_without_intermediate	1,2,0,0,0,0,0,0,0	test	ward_and_allport	0,0,0,2,0,0,3,1,0	89.0	19.0	3.012	1,2,3,0,0,0,0,0,0	to_hand	s610
362.682	1.604	0	PA_without_intermediate	1,2,0,0,0,0,3,0,0	test	ward_and_allport	0,0,0,2,0,0,3,1,0	82.0	19.0	1.604	1,2,3,0,0,0,0,0,0	to_board	s610
364.29	1.802	0	PA_without_intermediate	1,0,0,0,0,0,3,0,0	test	ward_and_allport	0,0,0,2,0,0,3,1,0	89.0	19.0	1.802	1,2,3,0,0,0,0,0,0	to_hand	s610
366.093	0.621	0	PA_without_intermediate	1,0,0,2,0,0,3,0,0	test	ward_and_allport	0,0,0,2,0,0,3,1,0	71.0	19.0	0.621	1,2,3,0,0,0,0,0,0	to_board	s610
366.718	1.032	0	PA_without_intermediate	0,0,0,2,0,0,3,0,0	test	ward_and_allport	0,0,0,2,0,0,3,1,0	89.0	19.0	1.032	1,2,3,0,0,0,0,0,0	to_hand	s610
367.751	1.784	0	PA_without_intermediate	0,0,0,2,0,0,3,1,0	test	ward_and_allport	0,0,0,2,0,0,3,1,0	82.0	19.0	1.784	1,2,3,0,0,0,0,0,0	to_board	s610
369.541	1.0	0	PA_without_intermediate	n/a	test	ward_and_allport	n/a	-1.0	19.0	n/a	n/a	feedback	s610
370.541	1.0	0	PA_without_intermediate	n/a	test	ward_and_allport	n/a	-1.0	19.0	n/a	n/a	ITI	s610
371.544	16.106	1	PA_with_intermediate	0,0,0,0,0,0,1,2,0	test	ward_and_allport	0,0,0,2,0,0,1,3,0	82.0	20.0	16.106	0,0,0,0,0,0,1,2,3	to_hand	s610
387.651	0.704	0	PA_with_intermediate	3,0,0,0,0,0,1,2,0	test	ward_and_allport	0,0,0,2,0,0,1,3,0	89.0	20.0	0.704	0,0,0,0,0,0,1,2,3	to_board	s610
388.359	1.923	0	PA_with_intermediate	3,0,0,0,0,0,1,0,0	test	ward_and_allport	0,0,0,2,0,0,1,3,0	82.0	20.0	1.923	0,0,0,0,0,0,1,2,3	to_hand	s610
390.283	0.446	0	PA_with_intermediate	3,0,0,2,0,0,1,0,0	test	ward_and_allport	0,0,0,2,0,0,1,3,0	71.0	20.0	0.446	0,0,0,0,0,0,1,2,3	to_board	s610
390.733	1.123	0	PA_with_intermediate	0,0,0,2,0,0,1,0,0	test	ward_and_allport	0,0,0,2,0,0,1,3,0	89.0	20.0	1.123	0,0,0,0,0,0,1,2,3	to_hand	s610
391.857	1.193	0	PA_with_intermediate	0,0,0,2,0,0,1,3,0	test	ward_and_allport	0,0,0,2,0,0,1,3,0	82.0	20.0	1.193	0,0,0,0,0,0,1,2,3	to_board	s610
393.055	1.0	0	PA_with_intermediate	n/a	test	ward_and_allport	n/a	-1.0	20.0	n/a	n/a	feedback	s610
394.055	1.0	0	PA_with_intermediate	n/a	test	ward_and_allport	n/a	-1.0	20.0	n/a	n/a	ITI	s610
395.059	5.836	1	PA_with_intermediate	0,0,0,0,0,0,1,2,0	test	ward_and_allport	2,0,0,0,0,0,1,3,0	82.0	21.0	5.836	0,0,0,0,0,0,1,2,3	to_hand	s610
400.896	0.587	0	PA_with_intermediate	3,0,0,0,0,0,1,2,0	test	ward_and_allport	2,0,0,0,0,0,1,3,0	89.0	21.0	0.587	0,0,0,0,0,0,1,2,3	to_board	s610
401.487	4.287	0	PA_with_intermediate	0,0,0,0,0,0,1,2,0	test	ward_and_allport	2,0,0,0,0,0,1,3,0	89.0	21.0	4.287	0,0,0,0,0,0,1,2,3	to_hand	s610
405.775	1.044	0	PA_with_intermediate	0,0,0,3,0,0,1,2,0	test	ward_and_allport	2,0,0,0,0,0,1,3,0	71.0	21.0	1.044	0,0,0,0,0,0,1,2,3	to_board	s610
406.824	1.528	0	PA_with_intermediate	0,0,0,3,0,0,1,0,0	test	ward_and_allport	2,0,0,0,0,0,1,3,0	82.0	21.0	1.528	0,0,0,0,0,0,1,2,3	to_hand	s610
408.352	1.111	0	PA_with_intermediate	2,0,0,3,0,0,1,0,0	test	ward_and_allport	2,0,0,0,0,0,1,3,0	89.0	21.0	1.111	0,0,0,0,0,0,1,2,3	to_board	s610
409.467	3.479	0	PA_with_intermediate	2,0,0,0,0,0,1,0,0	test	ward_and_allport	2,0,0,0,0,0,1,3,0	71.0	21.0	3.479	0,0,0,0,0,0,1,2,3	to_hand	s610
412.947	0.865	0	PA_with_intermediate	2,0,0,0,0,0,1,3,0	test	ward_and_allport	2,0,0,0,0,0,1,3,0	82.0	21.0	0.865	0,0,0,0,0,0,1,2,3	to_board	s610
413.818	1.0	0	PA_with_intermediate	n/a	test	ward_and_allport	n/a	-1.0	21.0	n/a	n/a	feedback	s610
414.818	1.0	0	PA_with_intermediate	n/a	test	ward_and_allport	n/a	-1.0	21.0	n/a	n/a	ITI	s610
415.821	6.137	1	PA_with_intermediate	0,0,0,0,0,0,1,2,0	test	ward_and_allport	0,0,0,2,0,0,1,3,0	82.0	22.0	6.137	0,0,0,0,0,0,1,2,3	to_hand	s610
421.959	1.444	0	PA_with_intermediate	3,0,0,0,0,0,1,2,0	test	ward_and_allport	0,0,0,2,0,0,1,3,0	89.0	22.0	1.444	0,0,0,0,0,0,1,2,3	to_board	s610
423.408	1.472	0	PA_with_intermediate	3,0,0,0,0,0,1,0,0	test	ward_and_allport	0,0,0,2,0,0,1,3,0	82.0	22.0	1.472	0,0,0,0,0,0,1,2,3	to_hand	s610
424.881	0.487	0	PA_with_intermediate	3,0,0,2,0,0,1,0,0	test	ward_and_allport	0,0,0,2,0,0,1,3,0	71.0	22.0	0.487	0,0,0,0,0,0,1,2,3	to_board	s610
425.374	1.404	0	PA_with_intermediate	0,0,0,2,0,0,1,0,0	test	ward_and_allport	0,0,0,2,0,0,1,3,0	89.0	22.0	1.404	0,0,0,0,0,0,1,2,3	to_hand	s610
426.78	0.756	0	PA_with_intermediate	0,0,0,2,0,0,1,3,0	test	ward_and_allport	0,0,0,2,0,0,1,3,0	82.0	22.0	0.756	0,0,0,0,0,0,1,2,3	to_board	s610
427.545	1.0	0	PA_with_intermediate	n/a	test	ward_and_allport	n/a	-1.0	22.0	n/a	n/a	feedback	s610
428.545	1.408	0	PA_with_intermediate	n/a	test	ward_and_allport	n/a	-1.0	22.0	n/a	n/a	ITI	s610
429.958	3.47	1	PA_without_intermediate	1,2,0,0,0,0,0,0,0	test	ward_and_allport	0,0,0,3,1,0,2,0,0	89.0	23.0	3.47	1,2,3,0,0,0,0,0,0	to_hand	s610
433.429	1.611	0	PA_without_intermediate	1,2,0,3,0,0,0,0,0	test	ward_and_allport	0,0,0,3,1,0,2,0,0	71.0	23.0	1.611	1,2,3,0,0,0,0,0,0	to_board	s610
435.045	1.932	0	PA_without_intermediate	1,0,0,3,0,0,0,0,0	test	ward_and_allport	0,0,0,3,1,0,2,0,0	89.0	23.0	1.932	1,2,3,0,0,0,0,0,0	to_hand	s610
436.978	0.499	0	PA_without_intermediate	1,0,0,3,0,0,2,0,0	test	ward_and_allport	0,0,0,3,1,0,2,0,0	82.0	23.0	0.499	1,2,3,0,0,0,0,0,0	to_board	s610
437.482	2.594	0	PA_without_intermediate	0,0,0,3,0,0,2,0,0	test	ward_and_allport	0,0,0,3,1,0,2,0,0	89.0	23.0	2.594	1,2,3,0,0,0,0,0,0	to_hand	s610
440.078	0.474	0	PA_without_intermediate	0,0,0,3,1,0,2,0,0	test	ward_and_allport	0,0,0,3,1,0,2,0,0	71.0	23.0	0.474	1,2,3,0,0,0,0,0,0	to_board	s610
440.563	1.0	0	PA_without_intermediate	n/a	test	ward_and_allport	n/a	-1.0	23.0	n/a	n/a	feedback	s610
441.563	1.816	0	PA_without_intermediate	n/a	test	ward_and_allport	n/a	-1.0	23.0	n/a	n/a	ITI	s610
443.384	5.463	1	PA_with_intermediate	1,2,0,0,0,0,0,0,0	test	ward_and_allport	1,3,0,0,0,0,2,0,0	89.0	24.0	5.463	1,2,3,0,0,0,0,0,0	to_hand	s610
448.848	0.458	0	PA_with_intermediate	1,2,0,3,0,0,0,0,0	test	ward_and_allport	1,3,0,0,0,0,2,0,0	71.0	24.0	0.458	1,2,3,0,0,0,0,0,0	to_board	s610
449.311	1.306	0	PA_with_intermediate	1,0,0,3,0,0,0,0,0	test	ward_and_allport	1,3,0,0,0,0,2,0,0	89.0	24.0	1.306	1,2,3,0,0,0,0,0,0	to_hand	s610
450.618	0.643	0	PA_with_intermediate	1,0,0,3,0,0,2,0,0	test	ward_and_allport	1,3,0,0,0,0,2,0,0	82.0	24.0	0.643	1,2,3,0,0,0,0,0,0	to_board	s610
451.267	1.612	0	PA_with_intermediate	1,0,0,0,0,0,2,0,0	test	ward_and_allport	1,3,0,0,0,0,2,0,0	71.0	24.0	1.612	1,2,3,0,0,0,0,0,0	to_hand	s610
452.88	0.502	0	PA_with_intermediate	1,3,0,0,0,0,2,0,0	test	ward_and_allport	1,3,0,0,0,0,2,0,0	89.0	24.0	0.502	1,2,3,0,0,0,0,0,0	to_board	s610
453.391	1.0	0	PA_with_intermediate	n/a	test	ward_and_allport	n/a	-1.0	24.0	n/a	n/a	feedback	s610
454.391	3.176	0	PA_with_intermediate	n/a	test	ward_and_allport	n/a	-1.0	24.0	n/a	n/a	ITI	s610
457.573	6.421	1	PA_with_intermediate	1,2,0,0,0,0,0,0,0	test	ward_and_allport	1,3,0,2,0,0,0,0,0	89.0	25.0	6.421	1,2,3,0,0,0,0,0,0	to_hand	s610
463.995	0.637	0	PA_with_intermediate	1,2,0,0,0,0,3,0,0	test	ward_and_allport	1,3,0,2,0,0,0,0,0	82.0	25.0	0.637	1,2,3,0,0,0,0,0,0	to_board	s610
464.637	1.061	0	PA_with_intermediate	1,0,0,0,0,0,3,0,0	test	ward_and_allport	1,3,0,2,0,0,0,0,0	89.0	25.0	1.061	1,2,3,0,0,0,0,0,0	to_hand	s610
465.699	0.698	0	PA_with_intermediate	1,0,0,2,0,0,3,0,0	test	ward_and_allport	1,3,0,2,0,0,0,0,0	71.0	25.0	0.698	1,2,3,0,0,0,0,0,0	to_board	s610
466.403	1.157	0	PA_with_intermediate	1,0,0,2,0,0,0,0,0	test	ward_and_allport	1,3,0,2,0,0,0,0,0	82.0	25.0	1.157	1,2,3,0,0,0,0,0,0	to_hand	s610
467.562	0.908	0	PA_with_intermediate	1,3,0,2,0,0,0,0,0	test	ward_and_allport	1,3,0,2,0,0,0,0,0	89.0	25.0	0.908	1,2,3,0,0,0,0,0,0	to_board	s610
468.479	1.0	0	PA_with_intermediate	n/a	test	ward_and_allport	n/a	-1.0	25.0	n/a	n/a	feedback	s610
469.479	2.36	0	PA_with_intermediate	n/a	test	ward_and_allport	n/a	-1.0	25.0	n/a	n/a	ITI	s610
471.845	4.718	1	PA_with_intermediate	1,2,0,0,0,0,0,0,0	test	ward_and_allport	1,0,0,2,3,0,0,0,0	89.0	26.0	4.718	1,2,3,0,0,0,0,0,0	to_hand	s610
476.564	0.516	0	PA_with_intermediate	1,2,0,0,0,0,3,0,0	test	ward_and_allport	1,0,0,2,3,0,0,0,0	82.0	26.0	0.516	1,2,3,0,0,0,0,0,0	to_board	s610
477.087	1.542	0	PA_with_intermediate	1,0,0,0,0,0,3,0,0	test	ward_and_allport	1,0,0,2,3,0,0,0,0	89.0	26.0	1.542	1,2,3,0,0,0,0,0,0	to_hand	s610
478.629	1.095	0	PA_with_intermediate	1,0,0,2,0,0,3,0,0	test	ward_and_allport	1,0,0,2,3,0,0,0,0	71.0	26.0	1.095	1,2,3,0,0,0,0,0,0	to_board	s610
479.729	1.173	0	PA_with_intermediate	1,0,0,2,0,0,0,0,0	test	ward_and_allport	1,0,0,2,3,0,0,0,0	82.0	26.0	1.173	1,2,3,0,0,0,0,0,0	to_hand	s610
480.903	0.458	0	PA_with_intermediate	1,0,0,2,3,0,0,0,0	test	ward_and_allport	1,0,0,2,3,0,0,0,0	71.0	26.0	0.458	1,2,3,0,0,0,0,0,0	to_board	s610
481.37	1.0	0	PA_with_intermediate	n/a	test	ward_and_allport	n/a	-1.0	26.0	n/a	n/a	feedback	s610
482.37	1.0	0	PA_with_intermediate	n/a	test	ward_and_allport	n/a	-1.0	26.0	n/a	n/a	ITI	s610
483.376	4.971	1	PA_without_intermediate	0,0,0,1,2,0,0,0,0	test	ward_and_allport	3,2,0,0,0,0,1,0,0	71.0	27.0	4.971	0,0,0,1,2,3,0,0,0	to_hand	s610
488.349	0.495	0	PA_without_intermediate	3,0,0,1,2,0,0,0,0	test	ward_and_allport	3,2,0,0,0,0,1,0,0	89.0	27.0	0.495	0,0,0,1,2,3,0,0,0	to_board	s610
488.849	1.255	0	PA_without_intermediate	3,0,0,1,0,0,0,0,0	test	ward_and_allport	3,2,0,0,0,0,1,0,0	71.0	27.0	1.255	0,0,0,1,2,3,0,0,0	to_hand	s610
490.105	0.855	0	PA_without_intermediate	3,2,0,1,0,0,0,0,0	test	ward_and_allport	3,2,0,0,0,0,1,0,0	89.0	27.0	0.855	0,0,0,1,2,3,0,0,0	to_board	s610
490.966	0.976	0	PA_without_intermediate	3,2,0,0,0,0,0,0,0	test	ward_and_allport	3,2,0,0,0,0,1,0,0	71.0	27.0	0.976	0,0,0,1,2,3,0,0,0	to_hand	s610
491.943	0.566	0	PA_without_intermediate	3,2,0,0,0,0,1,0,0	test	ward_and_allport	3,2,0,0,0,0,1,0,0	82.0	27.0	0.566	0,0,0,1,2,3,0,0,0	to_board	s610
492.519	1.0	0	PA_without_intermediate	n/a	test	ward_and_allport	n/a	-1.0	27.0	n/a	n/a	feedback	s610
493.519	1.408	0	PA_without_intermediate	n/a	test	ward_and_allport	n/a	-1.0	27.0	n/a	n/a	ITI	s610
494.933	5.185	1	PA_with_intermediate	1,2,0,0,0,0,0,0,0	test	ward_and_allport	1,0,0,0,0,0,2,3,0	89.0	28.0	5.185	1,2,3,0,0,0,0,0,0	to_hand	s610
500.119	0.554	0	PA_with_intermediate	1,2,0,3,0,0,0,0,0	test	ward_and_allport	1,0,0,0,0,0,2,3,0	71.0	28.0	0.554	1,2,3,0,0,0,0,0,0	to_board	s610
500.679	1.206	0	PA_with_intermediate	1,0,0,3,0,0,0,0,0	test	ward_and_allport	1,0,0,0,0,0,2,3,0	89.0	28.0	1.206	1,2,3,0,0,0,0,0,0	to_hand	s610
501.886	1.066	0	PA_with_intermediate	1,0,0,3,0,0,2,0,0	test	ward_and_allport	1,0,0,0,0,0,2,3,0	82.0	28.0	1.066	1,2,3,0,0,0,0,0,0	to_board	s610
502.958	0.953	0	PA_with_intermediate	1,0,0,0,0,0,2,0,0	test	ward_and_allport	1,0,0,0,0,0,2,3,0	71.0	28.0	0.953	1,2,3,0,0,0,0,0,0	to_hand	s610
503.913	0.471	0	PA_with_intermediate	1,0,0,0,0,0,2,3,0	test	ward_and_allport	1,0,0,0,0,0,2,3,0	82.0	28.0	0.471	1,2,3,0,0,0,0,0,0	to_board	s610
504.392	1.0	0	PA_with_intermediate	n/a	test	ward_and_allport	n/a	-1.0	28.0	n/a	n/a	feedback	s610
505.392	1.816	0	PA_with_intermediate	n/a	test	ward_and_allport	n/a	-1.0	28.0	n/a	n/a	ITI	s610
507.214	4.82	1	PA_without_intermediate	1,2,0,0,0,0,0,0,0	test	ward_and_allport	0,0,0,3,2,0,1,0,0	89.0	29.0	4.82	1,2,3,0,0,0,0,0,0	to_hand	s610
512.035	0.846	0	PA_without_intermediate	1,2,0,3,0,0,0,0,0	test	ward_and_allport	0,0,0,3,2,0,1,0,0	71.0	29.0	0.846	1,2,3,0,0,0,0,0,0	to_board	s610
512.887	0.912	0	PA_without_intermediate	1,0,0,3,0,0,0,0,0	test	ward_and_allport	0,0,0,3,2,0,1,0,0	89.0	29.0	0.912	1,2,3,0,0,0,0,0,0	to_hand	s610
513.8	0.384	0	PA_without_intermediate	1,0,0,3,2,0,0,0,0	test	ward_and_allport	0,0,0,3,2,0,1,0,0	71.0	29.0	0.384	1,2,3,0,0,0,0,0,0	to_board	s610
514.19	0.618	0	PA_without_intermediate	0,0,0,3,2,0,0,0,0	test	ward_and_allport	0,0,0,3,2,0,1,0,0	89.0	29.0	0.618	1,2,3,0,0,0,0,0,0	to_hand	s610
514.809	0.76	0	PA_without_intermediate	0,0,0,3,2,0,1,0,0	test	ward_and_allport	0,0,0,3,2,0,1,0,0	82.0	29.0	0.76	1,2,3,0,0,0,0,0,0	to_board	s610
515.578	1.0	0	PA_without_intermediate	n/a	test	ward_and_allport	n/a	-1.0	29.0	n/a	n/a	feedback	s610
516.578	2.088	0	PA_without_intermediate	n/a	test	ward_and_allport	n/a	-1.0	29.0	n/a	n/a	ITI	s610
523.674	6.47	1	PA_without_intermediate	0,0,0,1,2,0,0,0,0	test	ward_and_allport	2,0,0,0,0,0,3,1,0	71.0	30.0	6.47	0,0,0,1,2,3,0,0,0	to_hand	s610
530.145	0.728	0	PA_without_intermediate	0,0,0,1,2,0,3,0,0	test	ward_and_allport	2,0,0,0,0,0,3,1,0	82.0	30.0	0.728	0,0,0,1,2,3,0,0,0	to_board	s610
530.879	0.821	0	PA_without_intermediate	0,0,0,1,0,0,3,0,0	test	ward_and_allport	2,0,0,0,0,0,3,1,0	71.0	30.0	0.821	0,0,0,1,2,3,0,0,0	to_hand	s610
531.702	0.422	0	PA_without_intermediate	2,0,0,1,0,0,3,0,0	test	ward_and_allport	2,0,0,0,0,0,3,1,0	89.0	30.0	0.422	0,0,0,1,2,3,0,0,0	to_board	s610
532.129	0.74	0	PA_without_intermediate	2,0,0,0,0,0,3,0,0	test	ward_and_allport	2,0,0,0,0,0,3,1,0	71.0	30.0	0.74	0,0,0,1,2,3,0,0,0	to_hand	s610
532.87	0.485	0	PA_without_intermediate	2,0,0,0,0,0,3,1,0	test	ward_and_allport	2,0,0,0,0,0,3,1,0	82.0	30.0	0.485	0,0,0,1,2,3,0,0,0	to_board	s610
533.362	1.0	0	PA_without_intermediate	n/a	test	ward_and_allport	n/a	-1.0	30.0	n/a	n/a	feedback	s610
534.362	1.136	0	PA_without_intermediate	n/a	test	ward_and_allport	n/a	-1.0	30.0	n/a	n/a	ITI	s610
535.504	8.163	1	PA_without_intermediate	1,2,0,0,0,0,0,0,0	test	ward_and_allport	0,0,0,1,0,0,3,2,0	89.0	31.0	8.163	1,2,3,0,0,0,0,0,0	to_hand	s610
543.668	0.674	0	PA_without_intermediate	1,2,0,0,0,0,3,0,0	test	ward_and_allport	0,0,0,1,0,0,3,2,0	82.0	31.0	0.674	1,2,3,0,0,0,0,0,0	to_board	s610
544.349	0.666	0	PA_without_intermediate	1,0,0,0,0,0,3,0,0	test	ward_and_allport	0,0,0,1,0,0,3,2,0	89.0	31.0	0.666	1,2,3,0,0,0,0,0,0	to_hand	s610
545.015	0.811	0	PA_without_intermediate	1,0,0,0,0,0,3,2,0	test	ward_and_allport	0,0,0,1,0,0,3,2,0	82.0	31.0	0.811	1,2,3,0,0,0,0,0,0	to_board	s610
545.832	1.086	0	PA_without_intermediate	0,0,0,0,0,0,3,2,0	test	ward_and_allport	0,0,0,1,0,0,3,2,0	89.0	31.0	1.086	1,2,3,0,0,0,0,0,0	to_hand	s610
546.919	0.516	0	PA_without_intermediate	0,0,0,1,0,0,3,2,0	test	ward_and_allport	0,0,0,1,0,0,3,2,0	71.0	31.0	0.516	1,2,3,0,0,0,0,0,0	to_board	s610
547.445	1.0	0	PA_without_intermediate	n/a	test	ward_and_allport	n/a	-1.0	31.0	n/a	n/a	feedback	s610
548.445	6.168	0	PA_without_intermediate	n/a	test	ward_and_allport	n/a	-1.0	31.0	n/a	n/a	ITI	s610
554.62	4.374	1	PA_without_intermediate	0,0,0,0,0,0,1,2,0	test	ward_and_allport	2,0,0,3,1,0,0,0,0	82.0	32.0	4.374	0,0,0,0,0,0,1,2,3	to_hand	s610
558.995	0.609	0	PA_without_intermediate	0,0,0,3,0,0,1,2,0	test	ward_and_allport	2,0,0,3,1,0,0,0,0	71.0	32.0	0.609	0,0,0,0,0,0,1,2,3	to_board	s610
559.612	1.655	0	PA_without_intermediate	0,0,0,3,0,0,1,0,0	test	ward_and_allport	2,0,0,3,1,0,0,0,0	82.0	32.0	1.655	0,0,0,0,0,0,1,2,3	to_hand	s610
561.268	0.474	0	PA_without_intermediate	2,0,0,3,0,0,1,0,0	test	ward_and_allport	2,0,0,3,1,0,0,0,0	89.0	32.0	0.474	0,0,0,0,0,0,1,2,3	to_board	s610
561.748	1.114	0	PA_without_intermediate	2,0,0,3,0,0,0,0,0	test	ward_and_allport	2,0,0,3,1,0,0,0,0	82.0	32.0	1.114	0,0,0,0,0,0,1,2,3	to_hand	s610
562.863	0.552	0	PA_without_intermediate	2,0,0,3,1,0,0,0,0	test	ward_and_allport	2,0,0,3,1,0,0,0,0	71.0	32.0	0.552	0,0,0,0,0,0,1,2,3	to_board	s610
563.424	1.0	0	PA_without_intermediate	n/a	test	ward_and_allport	n/a	-1.0	32.0	n/a	n/a	feedback	s610
564.424	1.816	0	PA_without_intermediate	n/a	test	ward_and_allport	n/a	-1.0	32.0	n/a	n/a	ITI	s610
n/a	n/a	0	n/a	n/a	n/a	n/a	n/a	n/a	n/a	n/a	n/a	ITI	n/a
