onset	duration	SS_delay	correct_response	experiment_exp_id	key_press	response_time	stop_response	stopped	trial_type	worker_id
3.517	0.85	0.35	71.0	motor_selective_stop_signal	71.0	0.652	89.0	False	noncrit_nosignal	s495
5.771	0.85	0.35	89.0	motor_selective_stop_signal	89.0	0.729	89.0	False	crit_go	s495
8.024	0.85	0.35	71.0	motor_selective_stop_signal	71.0	0.818	89.0	False	noncrit_signal	s495
10.377	0.85	0.35	89.0	motor_selective_stop_signal	-1.0	n/a	89.0	True	crit_stop_success	s495
12.931	0.85	0.4	89.0	motor_selective_stop_signal	89.0	0.751	89.0	False	crit_go	s495
15.885	0.85	0.4	89.0	motor_selective_stop_signal	-1.0	n/a	89.0	True	crit_stop_success	s495
18.137	0.85	0.45	71.0	motor_selective_stop_signal	71.0	0.834	89.0	False	noncrit_nosignal	s495
20.491	0.85	0.45	71.0	motor_selective_stop_signal	71.0	0.626	89.0	False	noncrit_nosignal	s495
23.044	0.85	0.45	71.0	motor_selective_stop_signal	71.0	0.624	89.0	False	noncrit_signal	s495
25.297	0.85	0.45	71.0	motor_selective_stop_signal	71.0	0.673	89.0	False	noncrit_signal	s495
27.651	0.85	0.45	71.0	motor_selective_stop_signal	71.0	0.636	89.0	False	noncrit_signal	s495
30.203	0.85	0.45	71.0	motor_selective_stop_signal	71.0	0.653	89.0	False	noncrit_signal	s495
32.656	0.85	0.45	89.0	motor_selective_stop_signal	89.0	0.686	89.0	False	crit_go	s495
35.008	0.85	0.45	71.0	motor_selective_stop_signal	71.0	0.692	89.0	False	noncrit_nosignal	s495
37.661	0.85	0.45	89.0	motor_selective_stop_signal	89.0	0.703	89.0	False	crit_go	s495
40.216	0.85	0.45	89.0	motor_selective_stop_signal	-1.0	n/a	89.0	True	crit_stop_success	s495
42.968	0.85	0.5	89.0	motor_selective_stop_signal	89.0	0.671	89.0	False	crit_stop_failure	s495
45.521	0.85	0.45	71.0	motor_selective_stop_signal	71.0	0.813	89.0	False	noncrit_signal	s495
47.974	0.85	0.45	71.0	motor_selective_stop_signal	71.0	0.717	89.0	False	noncrit_nosignal	s495
50.727	0.85	0.45	89.0	motor_selective_stop_signal	89.0	0.808	89.0	False	crit_go	s495
53.281	0.85	0.45	89.0	motor_selective_stop_signal	89.0	0.832	89.0	False	crit_stop_failure	s495
55.639	0.85	0.4	89.0	motor_selective_stop_signal	89.0	0.761	89.0	False	crit_go	s495
57.89	0.85	0.4	71.0	motor_selective_stop_signal	71.0	0.694	89.0	False	noncrit_nosignal	s495
60.544	0.85	0.4	89.0	motor_selective_stop_signal	-1.0	n/a	89.0	True	crit_stop_success	s495
62.796	0.85	0.45	89.0	motor_selective_stop_signal	89.0	0.842	89.0	False	crit_go	s495
65.15	0.85	0.45	71.0	motor_selective_stop_signal	71.0	0.618	89.0	False	noncrit_nosignal	s495
67.402	0.85	0.45	89.0	motor_selective_stop_signal	89.0	0.774	89.0	False	crit_go	s495
69.756	0.85	0.45	89.0	motor_selective_stop_signal	89.0	0.807	89.0	False	crit_go	s495
72.11	0.85	0.45	71.0	motor_selective_stop_signal	71.0	0.727	89.0	False	noncrit_nosignal	s495
74.363	0.85	0.45	71.0	motor_selective_stop_signal	71.0	0.511	89.0	False	noncrit_signal	s495
77.216	0.85	0.45	71.0	motor_selective_stop_signal	71.0	0.562	89.0	False	noncrit_nosignal	s495
79.57	0.85	0.45	89.0	motor_selective_stop_signal	89.0	0.933	89.0	False	crit_go	s495
81.823	0.85	0.45	71.0	motor_selective_stop_signal	71.0	0.652	89.0	False	noncrit_nosignal	s495
84.176	0.85	0.45	71.0	motor_selective_stop_signal	89.0	0.624	89.0	False	noncrit_nosignal	s495
86.628	0.85	0.45	89.0	motor_selective_stop_signal	89.0	0.712	89.0	False	crit_stop_failure	s495
88.881	0.85	0.4	71.0	motor_selective_stop_signal	71.0	0.95	89.0	False	noncrit_signal	s495
91.134	0.85	0.4	89.0	motor_selective_stop_signal	89.0	0.592	89.0	False	crit_go	s495
93.887	0.85	0.4	71.0	motor_selective_stop_signal	71.0	0.587	89.0	False	noncrit_signal	s495
96.241	0.85	0.4	71.0	motor_selective_stop_signal	71.0	0.78	89.0	False	noncrit_nosignal	s495
98.993	0.85	0.4	89.0	motor_selective_stop_signal	89.0	0.744	89.0	False	crit_go	s495
101.445	0.85	0.4	71.0	motor_selective_stop_signal	71.0	0.633	89.0	False	noncrit_nosignal	s495
103.699	0.85	0.4	89.0	motor_selective_stop_signal	89.0	0.648	89.0	False	crit_stop_failure	s495
106.051	0.85	0.35	71.0	motor_selective_stop_signal	71.0	0.797	89.0	False	noncrit_nosignal	s495
108.705	0.85	0.35	89.0	motor_selective_stop_signal	-1.0	n/a	89.0	True	crit_stop_success	s495
111.158	0.85	0.4	89.0	motor_selective_stop_signal	89.0	0.718	89.0	False	crit_go	s495
113.412	0.85	0.4	71.0	motor_selective_stop_signal	71.0	0.623	89.0	False	noncrit_signal	s495
115.765	0.85	0.4	71.0	motor_selective_stop_signal	71.0	0.621	89.0	False	noncrit_signal	s495
118.717	0.85	0.4	89.0	motor_selective_stop_signal	89.0	0.853	89.0	False	crit_go	s495
120.97	0.85	0.4	71.0	motor_selective_stop_signal	71.0	1.016	89.0	False	noncrit_nosignal	s495
123.923	0.85	0.4	71.0	motor_selective_stop_signal	71.0	0.589	89.0	False	noncrit_signal	s495
137.384	0.85	0.4	89.0	motor_selective_stop_signal	89.0	0.611	89.0	False	crit_stop_failure	s495
139.638	0.85	0.35	71.0	motor_selective_stop_signal	71.0	0.61	89.0	False	noncrit_nosignal	s495
141.99	0.85	0.35	71.0	motor_selective_stop_signal	71.0	0.713	89.0	False	noncrit_nosignal	s495
144.443	0.85	0.35	89.0	motor_selective_stop_signal	89.0	0.651	89.0	False	crit_stop_failure	s495
146.696	0.85	0.3	71.0	motor_selective_stop_signal	71.0	0.828	89.0	False	noncrit_signal	s495
149.149	0.85	0.3	71.0	motor_selective_stop_signal	71.0	0.579	89.0	False	noncrit_nosignal	s495
151.902	0.85	0.3	71.0	motor_selective_stop_signal	71.0	0.516	89.0	False	noncrit_signal	s495
154.154	0.85	0.3	89.0	motor_selective_stop_signal	89.0	0.722	89.0	False	crit_go	s495
156.507	0.85	0.3	71.0	motor_selective_stop_signal	71.0	0.806	89.0	False	noncrit_signal	s495
158.96	0.85	0.3	71.0	motor_selective_stop_signal	89.0	0.567	89.0	False	noncrit_nosignal	s495
161.313	0.85	0.3	71.0	motor_selective_stop_signal	71.0	0.485	89.0	False	noncrit_signal	s495
163.567	0.85	0.3	71.0	motor_selective_stop_signal	71.0	0.659	89.0	False	noncrit_nosignal	s495
166.12	0.85	0.3	89.0	motor_selective_stop_signal	89.0	0.591	89.0	False	crit_go	s495
168.572	0.85	0.3	71.0	motor_selective_stop_signal	71.0	0.542	89.0	False	noncrit_nosignal	s495
171.226	0.85	0.3	89.0	motor_selective_stop_signal	89.0	0.433	89.0	False	crit_stop_failure	s495
173.479	0.85	0.25	71.0	motor_selective_stop_signal	71.0	0.604	89.0	False	noncrit_signal	s495
176.131	0.85	0.25	71.0	motor_selective_stop_signal	71.0	0.523	89.0	False	noncrit_nosignal	s495
178.485	0.85	0.25	71.0	motor_selective_stop_signal	71.0	0.511	89.0	False	noncrit_nosignal	s495
180.738	0.85	0.25	71.0	motor_selective_stop_signal	71.0	0.598	89.0	False	noncrit_nosignal	s495
182.991	0.85	0.25	71.0	motor_selective_stop_signal	71.0	0.482	89.0	False	noncrit_nosignal	s495
185.246	0.85	0.25	89.0	motor_selective_stop_signal	89.0	0.723	89.0	False	crit_go	s495
187.599	0.85	0.25	71.0	motor_selective_stop_signal	89.0	0.528	89.0	False	noncrit_signal	s495
190.152	0.85	0.25	71.0	motor_selective_stop_signal	71.0	0.533	89.0	False	noncrit_nosignal	s495
192.506	0.85	0.25	89.0	motor_selective_stop_signal	89.0	0.8	89.0	False	crit_stop_failure	s495
194.959	0.85	0.2	89.0	motor_selective_stop_signal	89.0	0.727	89.0	False	crit_go	s495
197.412	0.85	0.2	89.0	motor_selective_stop_signal	-1.0	n/a	89.0	True	crit_stop_success	s495
199.766	0.85	0.25	71.0	motor_selective_stop_signal	71.0	1.039	89.0	False	noncrit_signal	s495
202.019	0.85	0.25	89.0	motor_selective_stop_signal	89.0	0.658	89.0	False	crit_go	s495
204.571	0.85	0.25	71.0	motor_selective_stop_signal	71.0	0.562	89.0	False	noncrit_nosignal	s495
207.124	0.85	0.25	71.0	motor_selective_stop_signal	71.0	0.48	89.0	False	noncrit_signal	s495
209.377	0.85	0.25	71.0	motor_selective_stop_signal	71.0	0.525	89.0	False	noncrit_nosignal	s495
211.629	0.85	0.25	89.0	motor_selective_stop_signal	-1.0	n/a	89.0	True	crit_stop_success	s495
214.083	0.85	0.3	71.0	motor_selective_stop_signal	71.0	0.547	89.0	False	noncrit_nosignal	s495
216.436	0.85	0.3	89.0	motor_selective_stop_signal	89.0	0.611	89.0	False	crit_go	s495
218.688	0.85	0.3	89.0	motor_selective_stop_signal	89.0	0.58	89.0	False	crit_go	s495
221.842	0.85	0.3	71.0	motor_selective_stop_signal	71.0	0.56	89.0	False	noncrit_nosignal	s495
224.495	0.85	0.3	71.0	motor_selective_stop_signal	71.0	0.69	89.0	False	noncrit_signal	s495
226.749	0.85	0.3	89.0	motor_selective_stop_signal	89.0	0.598	89.0	False	crit_stop_failure	s495
229.202	0.85	0.25	71.0	motor_selective_stop_signal	71.0	0.506	89.0	False	noncrit_signal	s495
232.054	0.85	0.25	89.0	motor_selective_stop_signal	71.0	0.44	89.0	False	crit_go	s495
234.508	0.85	0.25	71.0	motor_selective_stop_signal	71.0	0.855	89.0	False	noncrit_nosignal	s495
236.763	0.85	0.25	89.0	motor_selective_stop_signal	89.0	0.653	89.0	False	crit_go	s495
239.016	0.85	0.25	71.0	motor_selective_stop_signal	71.0	0.589	89.0	False	noncrit_signal	s495
241.568	0.85	0.25	89.0	motor_selective_stop_signal	89.0	0.622	89.0	False	crit_stop_failure	s495
243.82	0.85	0.2	89.0	motor_selective_stop_signal	89.0	0.76	89.0	False	crit_go	s495
246.174	0.85	0.2	89.0	motor_selective_stop_signal	-1.0	n/a	89.0	True	crit_stop_success	s495
248.525	0.85	0.25	89.0	motor_selective_stop_signal	89.0	0.739	89.0	False	crit_go	s495
250.779	0.85	0.25	71.0	motor_selective_stop_signal	71.0	0.547	89.0	False	noncrit_signal	s495
253.132	0.85	0.25	89.0	motor_selective_stop_signal	89.0	0.787	89.0	False	crit_go	s495
255.384	0.85	0.25	89.0	motor_selective_stop_signal	89.0	0.636	89.0	False	crit_go	s495
268.849	0.85	0.25	71.0	motor_selective_stop_signal	71.0	0.728	89.0	False	noncrit_nosignal	s495
271.102	0.85	0.25	89.0	motor_selective_stop_signal	89.0	0.767	89.0	False	crit_go	s495
273.455	0.85	0.25	71.0	motor_selective_stop_signal	71.0	0.88	89.0	False	noncrit_signal	s495
275.909	0.85	0.25	89.0	motor_selective_stop_signal	-1.0	n/a	89.0	True	crit_stop_success	s495
278.161	0.85	0.3	89.0	motor_selective_stop_signal	89.0	0.745	89.0	False	crit_go	s495
280.415	0.85	0.3	71.0	motor_selective_stop_signal	71.0	0.819	89.0	False	noncrit_nosignal	s495
283.267	0.85	0.3	71.0	motor_selective_stop_signal	71.0	0.702	89.0	False	noncrit_nosignal	s495
285.522	0.85	0.3	89.0	motor_selective_stop_signal	89.0	0.666	89.0	False	crit_go	s495
288.976	0.85	0.3	71.0	motor_selective_stop_signal	71.0	0.627	89.0	False	noncrit_signal	s495
291.328	0.85	0.3	71.0	motor_selective_stop_signal	71.0	0.756	89.0	False	noncrit_signal	s495
293.679	0.85	0.3	89.0	motor_selective_stop_signal	89.0	0.786	89.0	False	crit_go	s495
296.032	0.85	0.3	89.0	motor_selective_stop_signal	-1.0	n/a	89.0	True	crit_stop_success	s495
298.484	0.85	0.35	71.0	motor_selective_stop_signal	71.0	0.624	89.0	False	noncrit_signal	s495
301.036	0.85	0.35	89.0	motor_selective_stop_signal	89.0	0.765	89.0	False	crit_go	s495
303.388	0.85	0.35	89.0	motor_selective_stop_signal	-1.0	n/a	89.0	True	crit_stop_success	s495
305.64	0.85	0.4	89.0	motor_selective_stop_signal	71.0	0.883	89.0	False	crit_go	s495
307.893	0.85	0.4	89.0	motor_selective_stop_signal	89.0	0.898	89.0	False	crit_go	s495
310.946	0.85	0.4	89.0	motor_selective_stop_signal	89.0	0.772	89.0	False	crit_go	s495
313.399	0.85	0.4	89.0	motor_selective_stop_signal	89.0	0.806	89.0	False	crit_go	s495
315.752	0.85	0.4	89.0	motor_selective_stop_signal	89.0	0.52	89.0	False	crit_stop_failure	s495
318.006	0.85	0.35	89.0	motor_selective_stop_signal	89.0	0.636	89.0	False	crit_stop_failure	s495
321.259	0.85	0.3	89.0	motor_selective_stop_signal	89.0	0.63	89.0	False	crit_go	s495
324.213	0.85	0.3	89.0	motor_selective_stop_signal	-1.0	n/a	89.0	True	crit_stop_success	s495
326.764	0.85	0.35	89.0	motor_selective_stop_signal	89.0	0.588	89.0	False	crit_go	s495
329.117	0.85	0.35	89.0	motor_selective_stop_signal	89.0	0.654	89.0	False	crit_stop_failure	s495
331.669	0.85	0.3	89.0	motor_selective_stop_signal	89.0	0.878	89.0	False	crit_go	s495
334.022	0.85	0.3	89.0	motor_selective_stop_signal	89.0	0.649	89.0	False	crit_go	s495
336.276	0.85	0.3	71.0	motor_selective_stop_signal	71.0	0.539	89.0	False	noncrit_signal	s495
338.728	0.85	0.3	89.0	motor_selective_stop_signal	89.0	0.733	89.0	False	crit_go	s495
341.081	0.85	0.3	71.0	motor_selective_stop_signal	71.0	0.659	89.0	False	noncrit_signal	s495
343.733	0.85	0.3	71.0	motor_selective_stop_signal	71.0	0.594	89.0	False	noncrit_nosignal	s495
345.987	0.85	0.3	89.0	motor_selective_stop_signal	-1.0	n/a	89.0	True	crit_stop_success	s495
348.241	0.85	0.35	89.0	motor_selective_stop_signal	89.0	0.785	89.0	False	crit_go	s495
350.694	0.85	0.35	89.0	motor_selective_stop_signal	89.0	0.741	89.0	False	crit_go	s495
352.947	0.85	0.35	89.0	motor_selective_stop_signal	-1.0	n/a	89.0	True	crit_stop_success	s495
355.5	0.85	0.4	89.0	motor_selective_stop_signal	89.0	0.757	89.0	False	crit_go	s495
357.753	0.85	0.4	71.0	motor_selective_stop_signal	71.0	0.756	89.0	False	noncrit_signal	s495
360.105	0.85	0.4	89.0	motor_selective_stop_signal	89.0	0.669	89.0	False	crit_stop_failure	s495
362.359	0.85	0.35	89.0	motor_selective_stop_signal	-1.0	n/a	89.0	True	crit_stop_success	s495
364.911	0.85	0.4	71.0	motor_selective_stop_signal	71.0	0.507	89.0	False	noncrit_nosignal	s495
367.465	0.85	0.4	89.0	motor_selective_stop_signal	89.0	0.636	89.0	False	crit_go	s495
369.818	0.85	0.4	71.0	motor_selective_stop_signal	71.0	0.644	89.0	False	noncrit_nosignal	s495
372.171	0.85	0.4	71.0	motor_selective_stop_signal	71.0	0.571	89.0	False	noncrit_nosignal	s495
374.425	0.85	0.4	71.0	motor_selective_stop_signal	71.0	0.659	89.0	False	noncrit_signal	s495
376.878	0.85	0.4	71.0	motor_selective_stop_signal	71.0	0.647	89.0	False	noncrit_nosignal	s495
379.131	0.85	0.4	71.0	motor_selective_stop_signal	71.0	1.018	89.0	False	noncrit_signal	s495
381.584	0.85	0.4	89.0	motor_selective_stop_signal	89.0	0.794	89.0	False	crit_stop_failure	s495
384.236	0.85	0.35	89.0	motor_selective_stop_signal	89.0	0.568	89.0	False	crit_go	s495
386.689	0.85	0.35	89.0	motor_selective_stop_signal	89.0	0.694	89.0	False	crit_go	s495
389.042	0.85	0.35	71.0	motor_selective_stop_signal	71.0	0.617	89.0	False	noncrit_signal	s495
402.306	0.85	0.35	89.0	motor_selective_stop_signal	89.0	0.609	89.0	False	crit_go	s495
404.859	0.85	0.35	71.0	motor_selective_stop_signal	71.0	0.762	89.0	False	noncrit_nosignal	s495
407.111	0.85	0.35	89.0	motor_selective_stop_signal	89.0	0.755	89.0	False	crit_go	s495
409.363	0.85	0.35	89.0	motor_selective_stop_signal	89.0	0.634	89.0	False	crit_go	s495
411.717	0.85	0.35	71.0	motor_selective_stop_signal	71.0	0.669	89.0	False	noncrit_nosignal	s495
413.971	0.85	0.35	71.0	motor_selective_stop_signal	71.0	0.68	89.0	False	noncrit_signal	s495
416.629	0.85	0.35	71.0	motor_selective_stop_signal	71.0	0.711	89.0	False	noncrit_signal	s495
418.981	0.85	0.35	89.0	motor_selective_stop_signal	89.0	0.854	89.0	False	crit_go	s495
421.435	0.85	0.35	71.0	motor_selective_stop_signal	71.0	0.763	89.0	False	noncrit_signal	s495
423.788	0.85	0.35	89.0	motor_selective_stop_signal	-1.0	n/a	89.0	True	crit_stop_success	s495
426.041	0.85	0.4	71.0	motor_selective_stop_signal	71.0	0.621	89.0	False	noncrit_nosignal	s495
428.293	0.85	0.4	89.0	motor_selective_stop_signal	89.0	0.678	89.0	False	crit_stop_failure	s495
430.545	0.85	0.35	71.0	motor_selective_stop_signal	71.0	0.623	89.0	False	noncrit_nosignal	s495
432.799	0.85	0.35	89.0	motor_selective_stop_signal	-1.0	n/a	89.0	True	crit_stop_success	s495
435.154	0.85	0.4	89.0	motor_selective_stop_signal	89.0	1.056	89.0	False	crit_go	s495
438.507	0.85	0.4	71.0	motor_selective_stop_signal	71.0	0.651	89.0	False	noncrit_nosignal	s495
441.061	0.85	0.4	89.0	motor_selective_stop_signal	-1.0	n/a	89.0	True	crit_stop_success	s495
443.813	0.85	0.45	71.0	motor_selective_stop_signal	71.0	0.644	89.0	False	noncrit_nosignal	s495
446.566	0.85	0.45	71.0	motor_selective_stop_signal	71.0	0.631	89.0	False	noncrit_nosignal	s495
449.22	0.85	0.45	89.0	motor_selective_stop_signal	-1.0	n/a	89.0	True	crit_stop_success	s495
451.673	0.85	0.5	89.0	motor_selective_stop_signal	89.0	0.758	89.0	False	crit_go	s495
453.925	0.85	0.5	71.0	motor_selective_stop_signal	71.0	1.049	89.0	False	noncrit_nosignal	s495
456.279	0.85	0.5	71.0	motor_selective_stop_signal	71.0	0.628	89.0	False	noncrit_nosignal	s495
458.733	0.85	0.5	89.0	motor_selective_stop_signal	89.0	0.595	89.0	False	crit_go	s495
461.785	0.85	0.5	89.0	motor_selective_stop_signal	89.0	0.945	89.0	False	crit_go	s495
464.137	0.85	0.5	71.0	motor_selective_stop_signal	71.0	0.724	89.0	False	noncrit_signal	s495
466.389	0.85	0.5	71.0	motor_selective_stop_signal	71.0	0.616	89.0	False	noncrit_nosignal	s495
468.743	0.85	0.5	89.0	motor_selective_stop_signal	89.0	0.598	89.0	False	crit_go	s495
471.095	0.85	0.5	71.0	motor_selective_stop_signal	71.0	0.783	89.0	False	noncrit_nosignal	s495
473.448	0.85	0.5	71.0	motor_selective_stop_signal	71.0	0.666	89.0	False	noncrit_signal	s495
475.801	0.85	0.5	71.0	motor_selective_stop_signal	71.0	0.636	89.0	False	noncrit_nosignal	s495
478.154	0.85	0.5	71.0	motor_selective_stop_signal	71.0	0.6	89.0	False	noncrit_nosignal	s495
480.407	0.85	0.5	89.0	motor_selective_stop_signal	89.0	0.841	89.0	False	crit_stop_failure	s495
482.759	0.85	0.45	71.0	motor_selective_stop_signal	71.0	0.612	89.0	False	noncrit_nosignal	s495
485.212	0.85	0.45	71.0	motor_selective_stop_signal	71.0	1.076	89.0	False	noncrit_nosignal	s495
487.565	0.85	0.45	71.0	motor_selective_stop_signal	71.0	0.655	89.0	False	noncrit_nosignal	s495
490.417	0.85	0.45	89.0	motor_selective_stop_signal	89.0	0.69	89.0	False	crit_go	s495
492.969	0.85	0.45	71.0	motor_selective_stop_signal	71.0	0.643	89.0	False	noncrit_nosignal	s495
495.722	0.85	0.45	71.0	motor_selective_stop_signal	71.0	0.671	89.0	False	noncrit_signal	s495
497.975	0.85	0.45	71.0	motor_selective_stop_signal	71.0	0.693	89.0	False	noncrit_nosignal	s495
500.228	0.85	0.45	89.0	motor_selective_stop_signal	89.0	0.744	89.0	False	crit_stop_failure	s495
503.08	0.85	0.4	71.0	motor_selective_stop_signal	71.0	0.661	89.0	False	noncrit_nosignal	s495
505.432	0.85	0.4	89.0	motor_selective_stop_signal	89.0	0.805	89.0	False	crit_go	s495
507.686	0.85	0.4	89.0	motor_selective_stop_signal	-1.0	n/a	89.0	True	crit_stop_success	s495
509.939	0.85	0.45	89.0	motor_selective_stop_signal	89.0	0.862	89.0	False	crit_go	s495
512.191	0.85	0.45	71.0	motor_selective_stop_signal	71.0	1.052	89.0	False	noncrit_nosignal	s495
514.545	0.85	0.45	71.0	motor_selective_stop_signal	71.0	0.77	89.0	False	noncrit_nosignal	s495
517.197	0.85	0.45	89.0	motor_selective_stop_signal	89.0	0.756	89.0	False	crit_stop_failure	s495
519.95	0.85	0.4	89.0	motor_selective_stop_signal	89.0	0.686	89.0	False	crit_go	s495
522.202	0.85	0.4	89.0	motor_selective_stop_signal	89.0	0.633	89.0	False	crit_stop_failure	s495
535.966	0.85	0.35	71.0	motor_selective_stop_signal	71.0	0.643	89.0	False	noncrit_signal	s495
538.22	0.85	0.35	89.0	motor_selective_stop_signal	89.0	0.948	89.0	False	crit_go	s495
540.573	0.85	0.35	89.0	motor_selective_stop_signal	89.0	0.645	89.0	False	crit_go	s495
542.925	0.85	0.35	89.0	motor_selective_stop_signal	89.0	0.732	89.0	False	crit_go	s495
545.477	0.85	0.35	89.0	motor_selective_stop_signal	89.0	0.668	89.0	False	crit_go	s495
547.73	0.85	0.35	71.0	motor_selective_stop_signal	71.0	0.609	89.0	False	noncrit_signal	s495
549.983	0.85	0.35	89.0	motor_selective_stop_signal	89.0	0.664	89.0	False	crit_go	s495
552.235	0.85	0.35	89.0	motor_selective_stop_signal	89.0	0.804	89.0	False	crit_go	s495
554.587	0.85	0.35	89.0	motor_selective_stop_signal	-1.0	n/a	89.0	True	crit_stop_success	s495
557.239	0.85	0.4	89.0	motor_selective_stop_signal	89.0	0.657	89.0	False	crit_go	s495
559.593	0.85	0.4	71.0	motor_selective_stop_signal	71.0	0.789	89.0	False	noncrit_signal	s495
561.845	0.85	0.4	71.0	motor_selective_stop_signal	71.0	0.744	89.0	False	noncrit_nosignal	s495
564.199	0.85	0.4	89.0	motor_selective_stop_signal	89.0	0.684	89.0	False	crit_stop_failure	s495
566.551	0.85	0.35	89.0	motor_selective_stop_signal	89.0	0.708	89.0	False	crit_go	s495
569.404	0.85	0.35	89.0	motor_selective_stop_signal	89.0	0.59	89.0	False	crit_go	s495
571.858	0.85	0.35	71.0	motor_selective_stop_signal	71.0	0.667	89.0	False	noncrit_nosignal	s495
574.211	0.85	0.35	71.0	motor_selective_stop_signal	71.0	0.682	89.0	False	noncrit_nosignal	s495
576.865	0.85	0.35	71.0	motor_selective_stop_signal	71.0	0.546	89.0	False	noncrit_nosignal	s495
579.117	0.85	0.35	71.0	motor_selective_stop_signal	71.0	0.595	89.0	False	noncrit_signal	s495
581.369	0.85	0.35	89.0	motor_selective_stop_signal	89.0	0.676	89.0	False	crit_go	s495
583.623	0.85	0.35	71.0	motor_selective_stop_signal	71.0	0.648	89.0	False	noncrit_nosignal	s495
586.076	0.85	0.35	71.0	motor_selective_stop_signal	71.0	0.777	89.0	False	noncrit_nosignal	s495
588.429	0.85	0.35	89.0	motor_selective_stop_signal	89.0	0.668	89.0	False	crit_stop_failure	s495
590.681	0.85	0.3	89.0	motor_selective_stop_signal	-1.0	n/a	89.0	True	crit_stop_success	s495
593.033	0.85	0.35	71.0	motor_selective_stop_signal	71.0	0.583	89.0	False	noncrit_signal	s495
595.487	0.85	0.35	71.0	motor_selective_stop_signal	71.0	0.75	89.0	False	noncrit_nosignal	s495
597.84	0.85	0.35	71.0	motor_selective_stop_signal	71.0	0.805	89.0	False	noncrit_nosignal	s495
600.094	0.85	0.35	71.0	motor_selective_stop_signal	71.0	0.476	89.0	False	noncrit_nosignal	s495
602.347	0.85	0.35	71.0	motor_selective_stop_signal	71.0	0.47	89.0	False	noncrit_signal	s495
604.699	0.85	0.35	89.0	motor_selective_stop_signal	89.0	0.824	89.0	False	crit_stop_failure	s495
607.052	0.85	0.3	89.0	motor_selective_stop_signal	89.0	0.726	89.0	False	crit_go	s495
609.406	0.85	0.3	71.0	motor_selective_stop_signal	71.0	0.568	89.0	False	noncrit_nosignal	s495
612.359	0.85	0.3	89.0	motor_selective_stop_signal	89.0	0.755	89.0	False	crit_go	s495
614.612	0.85	0.3	71.0	motor_selective_stop_signal	71.0	0.615	89.0	False	noncrit_nosignal	s495
616.966	0.85	0.3	89.0	motor_selective_stop_signal	89.0	0.793	89.0	False	crit_go	s495
619.219	0.85	0.3	71.0	motor_selective_stop_signal	71.0	0.799	89.0	False	noncrit_signal	s495
621.672	0.85	0.3	71.0	motor_selective_stop_signal	71.0	0.644	89.0	False	noncrit_signal	s495
624.024	0.85	0.3	71.0	motor_selective_stop_signal	71.0	0.596	89.0	False	noncrit_signal	s495
626.578	0.85	0.3	71.0	motor_selective_stop_signal	71.0	0.752	89.0	False	noncrit_nosignal	s495
629.13	0.85	0.3	71.0	motor_selective_stop_signal	71.0	1.391	89.0	False	noncrit_nosignal	s495
631.383	0.85	0.3	89.0	motor_selective_stop_signal	89.0	0.648	89.0	False	crit_go	s495
633.636	0.85	0.3	89.0	motor_selective_stop_signal	89.0	0.571	89.0	False	crit_stop_failure	s495
636.39	0.85	0.25	89.0	motor_selective_stop_signal	89.0	0.573	89.0	False	crit_stop_failure	s495
638.744	0.85	0.2	89.0	motor_selective_stop_signal	-1.0	n/a	89.0	True	crit_stop_success	s495
640.997	0.85	0.25	71.0	motor_selective_stop_signal	71.0	0.617	89.0	False	noncrit_nosignal	s495
643.449	0.85	0.25	71.0	motor_selective_stop_signal	71.0	0.552	89.0	False	noncrit_nosignal	s495
645.701	0.85	0.25	89.0	motor_selective_stop_signal	89.0	0.749	89.0	False	crit_go	s495
648.054	0.85	0.25	89.0	motor_selective_stop_signal	89.0	0.701	89.0	False	crit_go	s495
650.308	0.85	0.25	89.0	motor_selective_stop_signal	-1.0	n/a	89.0	True	crit_stop_success	s495
652.561	0.85	0.3	89.0	motor_selective_stop_signal	-1.0	n/a	89.0	True	crit_stop_success	s495
