onset	duration	condition	correct	correct_response	experiment_exp_id	key_press	response_time	stim_color	stim_word	trial_type	worker_id
3.525	1.5	congruent	1.0	89.0	stroop	89	0.59	red	red	congruent	s598
5.801	1.5	incongruent	1.0	71.0	stroop	71	0.551	blue	red	incongruent	s598
7.806	1.5	congruent	1.0	82.0	stroop	82	0.564	green	green	congruent	s598
10.218	1.5	congruent	1.0	89.0	stroop	89	0.451	red	red	congruent	s598
12.222	1.5	congruent	1.0	89.0	stroop	89	0.452	red	red	congruent	s598
14.359	1.5	congruent	1.0	89.0	stroop	89	0.427	red	red	congruent	s598
16.36	1.5	congruent	1.0	71.0	stroop	71	0.548	blue	blue	congruent	s598
18.366	1.5	incongruent	1.0	82.0	stroop	82	0.532	green	red	incongruent	s598
20.372	1.5	congruent	1.0	71.0	stroop	71	0.543	blue	blue	congruent	s598
22.65	1.5	incongruent	1.0	71.0	stroop	71	0.428	blue	green	incongruent	s598
24.656	1.5	incongruent	1.0	82.0	stroop	82	0.587	green	red	incongruent	s598
26.93	1.5	incongruent	1.0	82.0	stroop	82	0.417	green	red	incongruent	s598
29.208	1.5	incongruent	1.0	71.0	stroop	71	0.528	blue	red	incongruent	s598
31.214	1.5	congruent	1.0	82.0	stroop	82	0.514	green	green	congruent	s598
33.9	1.5	incongruent	1.0	89.0	stroop	89	0.528	red	green	incongruent	s598
35.906	1.5	congruent	1.0	89.0	stroop	89	0.403	red	red	congruent	s598
38.179	1.5	congruent	1.0	71.0	stroop	71	0.455	blue	blue	congruent	s598
40.181	1.5	congruent	1.0	82.0	stroop	82	0.478	green	green	congruent	s598
42.185	1.5	incongruent	1.0	82.0	stroop	82	0.427	green	blue	incongruent	s598
44.46	1.5	congruent	1.0	89.0	stroop	89	0.495	red	red	congruent	s598
46.602	1.5	congruent	1.0	89.0	stroop	89	0.444	red	red	congruent	s598
49.148	1.5	incongruent	1.0	82.0	stroop	82	0.608	green	blue	incongruent	s598
51.562	1.5	incongruent	1.0	89.0	stroop	89	0.618	red	green	incongruent	s598
53.568	1.5	incongruent	1.0	82.0	stroop	82	0.559	green	blue	incongruent	s598
55.571	1.5	incongruent	0.0	71.0	stroop	89	0.579	blue	red	incongruent	s598
57.575	1.5	congruent	1.0	71.0	stroop	71	0.702	blue	blue	congruent	s598
60.122	1.5	congruent	1.0	71.0	stroop	71	0.477	blue	blue	congruent	s598
62.264	1.5	congruent	1.0	71.0	stroop	71	0.489	blue	blue	congruent	s598
64.265	1.5	congruent	1.0	71.0	stroop	71	0.455	blue	blue	congruent	s598
66.272	1.5	congruent	1.0	82.0	stroop	82	0.571	green	green	congruent	s598
68.547	1.5	incongruent	0.0	71.0	stroop	89	0.628	blue	red	incongruent	s598
70.55	1.5	congruent	1.0	82.0	stroop	82	0.605	green	green	congruent	s598
72.553	1.5	incongruent	1.0	82.0	stroop	82	0.954	green	blue	incongruent	s598
74.693	1.5	incongruent	1.0	89.0	stroop	89	0.526	red	green	incongruent	s598
76.696	1.5	incongruent	1.0	71.0	stroop	71	0.483	blue	green	incongruent	s598
78.972	1.5	congruent	1.0	82.0	stroop	82	0.574	green	green	congruent	s598
81.114	1.5	incongruent	1.0	89.0	stroop	89	0.748	red	green	incongruent	s598
83.523	1.5	congruent	1.0	82.0	stroop	82	0.566	green	green	congruent	s598
85.526	1.5	congruent	1.0	89.0	stroop	89	0.642	red	red	congruent	s598
87.532	1.5	incongruent	1.0	89.0	stroop	89	0.539	red	green	incongruent	s598
90.354	1.5	incongruent	1.0	71.0	stroop	71	0.392	blue	red	incongruent	s598
92.358	1.5	incongruent	1.0	89.0	stroop	89	0.816	red	green	incongruent	s598
94.364	1.5	congruent	1.0	89.0	stroop	89	0.61	red	red	congruent	s598
96.501	1.5	congruent	1.0	71.0	stroop	71	0.599	blue	blue	congruent	s598
98.507	1.5	incongruent	1.0	89.0	stroop	89	0.572	red	blue	incongruent	s598
100.513	1.5	congruent	1.0	89.0	stroop	89	0.515	red	red	congruent	s598
102.514	1.5	incongruent	1.0	71.0	stroop	71	0.604	blue	red	incongruent	s598
104.518	1.5	congruent	1.0	71.0	stroop	71	0.655	blue	blue	congruent	s598
106.524	1.5	incongruent	1.0	71.0	stroop	71	0.553	blue	green	incongruent	s598
108.525	1.5	congruent	1.0	89.0	stroop	89	0.552	red	red	congruent	s598
110.53	1.5	incongruent	1.0	71.0	stroop	71	0.518	blue	green	incongruent	s598
112.807	1.5	incongruent	1.0	82.0	stroop	82	0.467	green	blue	incongruent	s598
114.813	1.5	congruent	1.0	71.0	stroop	71	0.708	blue	blue	congruent	s598
116.955	1.5	congruent	1.0	82.0	stroop	82	0.592	green	green	congruent	s598
118.962	1.5	congruent	1.0	71.0	stroop	71	0.626	blue	blue	congruent	s598
121.099	1.5	congruent	1.0	89.0	stroop	89	0.542	red	red	congruent	s598
123.103	1.5	congruent	1.0	82.0	stroop	82	0.575	green	green	congruent	s598
125.107	1.5	incongruent	1.0	89.0	stroop	89	0.63	red	green	incongruent	s598
127.113	1.5	incongruent	1.0	82.0	stroop	82	0.543	green	blue	incongruent	s598
129.391	1.5	incongruent	1.0	89.0	stroop	89	0.528	red	blue	incongruent	s598
131.397	1.5	incongruent	1.0	89.0	stroop	89	0.567	red	green	incongruent	s598
133.539	1.5	congruent	1.0	71.0	stroop	71	0.506	blue	blue	congruent	s598
135.95	1.5	incongruent	1.0	71.0	stroop	71	0.555	blue	green	incongruent	s598
138.226	1.5	congruent	1.0	89.0	stroop	89	0.53	red	red	congruent	s598
140.912	1.5	congruent	1.0	89.0	stroop	89	0.523	red	red	congruent	s598
142.917	1.5	congruent	1.0	89.0	stroop	89	0.488	red	red	congruent	s598
145.331	1.5	congruent	1.0	82.0	stroop	82	0.563	green	green	congruent	s598
147.473	1.5	incongruent	1.0	82.0	stroop	82	0.487	green	blue	incongruent	s598
150.156	1.5	incongruent	1.0	82.0	stroop	82	0.455	green	blue	incongruent	s598
152.158	1.5	incongruent	1.0	82.0	stroop	82	0.557	green	red	incongruent	s598
154.299	1.5	congruent	1.0	71.0	stroop	71	0.612	blue	blue	congruent	s598
157.256	1.5	incongruent	1.0	71.0	stroop	71	0.418	blue	green	incongruent	s598
159.261	1.5	incongruent	1.0	89.0	stroop	89	0.533	red	blue	incongruent	s598
161.539	1.5	incongruent	1.0	89.0	stroop	89	0.416	red	blue	incongruent	s598
163.546	1.5	congruent	1.0	71.0	stroop	71	0.53	blue	blue	congruent	s598
165.552	1.5	congruent	1.0	82.0	stroop	82	0.549	green	green	congruent	s598
167.553	1.5	incongruent	1.0	89.0	stroop	89	0.523	red	blue	incongruent	s598
169.558	1.5	congruent	1.0	89.0	stroop	89	0.563	red	red	congruent	s598
171.699	1.5	congruent	1.0	82.0	stroop	82	0.597	green	green	congruent	s598
173.705	1.5	incongruent	1.0	82.0	stroop	82	0.666	green	red	incongruent	s598
175.711	1.5	congruent	1.0	71.0	stroop	71	0.832	blue	blue	congruent	s598
177.85	1.5	incongruent	1.0	71.0	stroop	71	0.507	blue	green	incongruent	s598
179.856	1.5	incongruent	1.0	89.0	stroop	89	0.53	red	blue	incongruent	s598
181.862	1.5	incongruent	1.0	71.0	stroop	71	0.641	blue	red	incongruent	s598
184.002	1.5	congruent	1.0	82.0	stroop	82	0.537	green	green	congruent	s598
186.14	1.5	congruent	1.0	82.0	stroop	82	0.546	green	green	congruent	s598
188.413	1.5	incongruent	1.0	82.0	stroop	82	0.597	green	red	incongruent	s598
191.099	1.5	congruent	1.0	82.0	stroop	82	0.447	green	green	congruent	s598
193.103	1.5	congruent	1.0	82.0	stroop	82	0.495	green	green	congruent	s598
195.109	1.5	incongruent	1.0	82.0	stroop	82	0.541	green	red	incongruent	s598
197.387	1.5	incongruent	1.0	82.0	stroop	82	0.448	green	red	incongruent	s598
199.393	1.5	congruent	1.0	71.0	stroop	71	0.642	blue	blue	congruent	s598
201.394	1.5	incongruent	1.0	89.0	stroop	89	0.543	red	blue	incongruent	s598
203.4	1.5	incongruent	1.0	71.0	stroop	71	0.737	blue	red	incongruent	s598
205.403	1.5	incongruent	1.0	89.0	stroop	89	0.6	red	blue	incongruent	s598
207.409	1.5	incongruent	1.0	71.0	stroop	71	0.622	blue	green	incongruent	s598
