onset	duration	planning	condition	current_position	exp_stage	experiment_exp_id	goal_state	key_press	problem_id	response_time	start_state	trial_id	worker_id
-53.229	0.0	0	n/a	n/a	n/a	ward_and_allport	n/a	32.0	n/a	20.26	n/a	instructions	s641
3.019	2.287	1	UA_with_intermediate	1,0,0,2,0,0,0,0,0	practice	ward_and_allport	1,2,3,0,0,0,0,0,0	71.0	0.0	2.287	1,0,0,2,3,0,0,0,0	to_hand	s641
5.308	0.513	0	UA_with_intermediate	1,0,0,2,0,0,3,0,0	practice	ward_and_allport	1,2,3,0,0,0,0,0,0	82.0	0.0	0.513	1,0,0,2,3,0,0,0,0	to_board	s641
5.823	0.456	0	UA_with_intermediate	1,0,0,0,0,0,3,0,0	practice	ward_and_allport	1,2,3,0,0,0,0,0,0	71.0	0.0	0.456	1,0,0,2,3,0,0,0,0	to_hand	s641
6.281	0.404	0	UA_with_intermediate	1,2,0,0,0,0,3,0,0	practice	ward_and_allport	1,2,3,0,0,0,0,0,0	89.0	0.0	0.404	1,0,0,2,3,0,0,0,0	to_board	s641
6.687	0.428	0	UA_with_intermediate	1,2,0,0,0,0,0,0,0	practice	ward_and_allport	1,2,3,0,0,0,0,0,0	82.0	0.0	0.428	1,0,0,2,3,0,0,0,0	to_hand	s641
7.117	0.344	0	UA_with_intermediate	1,2,3,0,0,0,0,0,0	practice	ward_and_allport	1,2,3,0,0,0,0,0,0	89.0	0.0	0.344	1,0,0,2,3,0,0,0,0	to_board	s641
7.469	1.0	0	UA_with_intermediate	n/a	practice	ward_and_allport	n/a	-1.0	0.0	n/a	n/a	feedback	s641
9.972	2.344	1	UA_with_intermediate	1,0,0,3,0,0,0,0,0	practice	ward_and_allport	1,3,2,0,0,0,0,0,0	89.0	1.0	2.344	1,2,0,3,0,0,0,0,0	to_hand	s641
12.317	0.274	0	UA_with_intermediate	1,0,0,3,0,0,2,0,0	practice	ward_and_allport	1,3,2,0,0,0,0,0,0	82.0	1.0	0.274	1,2,0,3,0,0,0,0,0	to_board	s641
12.594	0.432	0	UA_with_intermediate	1,0,0,0,0,0,2,0,0	practice	ward_and_allport	1,3,2,0,0,0,0,0,0	71.0	1.0	0.432	1,2,0,3,0,0,0,0,0	to_hand	s641
13.027	0.403	0	UA_with_intermediate	1,3,0,0,0,0,2,0,0	practice	ward_and_allport	1,3,2,0,0,0,0,0,0	89.0	1.0	0.403	1,2,0,3,0,0,0,0,0	to_board	s641
13.43	0.366	0	UA_with_intermediate	1,3,0,0,0,0,0,0,0	practice	ward_and_allport	1,3,2,0,0,0,0,0,0	82.0	1.0	0.366	1,2,0,3,0,0,0,0,0	to_hand	s641
13.798	0.369	0	UA_with_intermediate	1,3,2,0,0,0,0,0,0	practice	ward_and_allport	1,3,2,0,0,0,0,0,0	89.0	1.0	0.369	1,2,0,3,0,0,0,0,0	to_board	s641
14.173	1.0	0	UA_with_intermediate	n/a	practice	ward_and_allport	n/a	-1.0	1.0	n/a	n/a	feedback	s641
15.173	1.1	0	UA_with_intermediate	n/a	practice	ward_and_allport	n/a	-1.0	1.0	n/a	n/a	ITI	s641
16.275	2.345	1	UA_without_intermediate	0,0,0,1,2,0,0,0,0	practice	ward_and_allport	3,2,1,0,0,0,0,0,0	82.0	2.0	2.345	0,0,0,1,2,0,3,0,0	to_hand	s641
18.621	0.351	0	UA_without_intermediate	3,0,0,1,2,0,0,0,0	practice	ward_and_allport	3,2,1,0,0,0,0,0,0	89.0	2.0	0.351	0,0,0,1,2,0,3,0,0	to_board	s641
18.974	1.057	0	UA_without_intermediate	3,0,0,1,0,0,0,0,0	practice	ward_and_allport	3,2,1,0,0,0,0,0,0	71.0	2.0	1.057	0,0,0,1,2,0,3,0,0	to_hand	s641
20.031	0.393	0	UA_without_intermediate	3,2,0,1,0,0,0,0,0	practice	ward_and_allport	3,2,1,0,0,0,0,0,0	89.0	2.0	0.393	0,0,0,1,2,0,3,0,0	to_board	s641
20.426	0.725	0	UA_without_intermediate	3,2,0,0,0,0,0,0,0	practice	ward_and_allport	3,2,1,0,0,0,0,0,0	71.0	2.0	0.725	0,0,0,1,2,0,3,0,0	to_hand	s641
21.152	0.246	0	UA_without_intermediate	3,2,1,0,0,0,0,0,0	practice	ward_and_allport	3,2,1,0,0,0,0,0,0	89.0	2.0	0.246	0,0,0,1,2,0,3,0,0	to_board	s641
21.405	1.0	0	UA_without_intermediate	n/a	practice	ward_and_allport	n/a	-1.0	2.0	n/a	n/a	feedback	s641
22.405	1.2	0	UA_without_intermediate	n/a	practice	ward_and_allport	n/a	-1.0	2.0	n/a	n/a	ITI	s641
23.608	2.196	1	UA_without_intermediate	0,0,0,1,0,0,3,0,0	practice	ward_and_allport	2,3,1,0,0,0,0,0,0	71.0	3.0	2.196	0,0,0,1,2,0,3,0,0	to_hand	s641
25.805	0.29	0	UA_without_intermediate	2,0,0,1,0,0,3,0,0	practice	ward_and_allport	2,3,1,0,0,0,0,0,0	89.0	3.0	0.29	0,0,0,1,2,0,3,0,0	to_board	s641
26.097	0.142	0	UA_without_intermediate	0,0,0,1,0,0,3,0,0	practice	ward_and_allport	2,3,1,0,0,0,0,0,0	89.0	3.0	0.142	0,0,0,1,2,0,3,0,0	to_hand	s641
26.241	0.985	0	UA_without_intermediate	2,0,0,1,0,0,3,0,0	practice	ward_and_allport	2,3,1,0,0,0,0,0,0	89.0	3.0	0.985	0,0,0,1,2,0,3,0,0	to_board	s641
27.228	0.097	0	UA_without_intermediate	0,0,0,1,0,0,3,0,0	practice	ward_and_allport	2,3,1,0,0,0,0,0,0	89.0	3.0	0.097	0,0,0,1,2,0,3,0,0	to_hand	s641
27.326	0.449	0	UA_without_intermediate	2,0,0,1,0,0,3,0,0	practice	ward_and_allport	2,3,1,0,0,0,0,0,0	89.0	3.0	0.449	0,0,0,1,2,0,3,0,0	to_board	s641
27.777	0.813	0	UA_without_intermediate	2,0,0,0,0,0,3,0,0	practice	ward_and_allport	2,3,1,0,0,0,0,0,0	71.0	3.0	0.813	0,0,0,1,2,0,3,0,0	to_hand	s641
28.591	0.362	0	UA_without_intermediate	2,1,0,0,0,0,3,0,0	practice	ward_and_allport	2,3,1,0,0,0,0,0,0	89.0	3.0	0.362	0,0,0,1,2,0,3,0,0	to_board	s641
28.956	1.366	0	UA_without_intermediate	2,0,0,0,0,0,3,0,0	practice	ward_and_allport	2,3,1,0,0,0,0,0,0	89.0	3.0	1.366	0,0,0,1,2,0,3,0,0	to_hand	s641
30.323	0.213	0	UA_without_intermediate	2,0,0,1,0,0,3,0,0	practice	ward_and_allport	2,3,1,0,0,0,0,0,0	71.0	3.0	0.213	0,0,0,1,2,0,3,0,0	to_board	s641
30.538	0.448	0	UA_without_intermediate	2,0,0,1,0,0,0,0,0	practice	ward_and_allport	2,3,1,0,0,0,0,0,0	82.0	3.0	0.448	0,0,0,1,2,0,3,0,0	to_hand	s641
30.988	0.325	0	UA_without_intermediate	2,3,0,1,0,0,0,0,0	practice	ward_and_allport	2,3,1,0,0,0,0,0,0	89.0	3.0	0.325	0,0,0,1,2,0,3,0,0	to_board	s641
31.315	0.381	0	UA_without_intermediate	2,3,0,0,0,0,0,0,0	practice	ward_and_allport	2,3,1,0,0,0,0,0,0	71.0	3.0	0.381	0,0,0,1,2,0,3,0,0	to_hand	s641
31.697	0.3	0	UA_without_intermediate	2,3,1,0,0,0,0,0,0	practice	ward_and_allport	2,3,1,0,0,0,0,0,0	89.0	3.0	0.3	0,0,0,1,2,0,3,0,0	to_board	s641
32.001	1.0	0	UA_without_intermediate	n/a	practice	ward_and_allport	n/a	-1.0	3.0	n/a	n/a	feedback	s641
33.001	1.0	0	UA_without_intermediate	n/a	practice	ward_and_allport	n/a	-1.0	3.0	n/a	n/a	ITI	s641
36.014	2.316	1	PA_without_intermediate	0,0,0,0,0,0,1,2,0	test	ward_and_allport	3,1,0,2,0,0,0,0,0	82.0	0.0	2.316	0,0,0,0,0,0,1,2,3	to_hand	s641
38.332	0.654	0	PA_without_intermediate	3,0,0,0,0,0,1,2,0	test	ward_and_allport	3,1,0,2,0,0,0,0,0	89.0	0.0	0.654	0,0,0,0,0,0,1,2,3	to_board	s641
38.988	1.024	0	PA_without_intermediate	3,0,0,0,0,0,1,0,0	test	ward_and_allport	3,1,0,2,0,0,0,0,0	82.0	0.0	1.024	0,0,0,0,0,0,1,2,3	to_hand	s641
40.014	0.293	0	PA_without_intermediate	3,0,0,2,0,0,1,0,0	test	ward_and_allport	3,1,0,2,0,0,0,0,0	71.0	0.0	0.293	0,0,0,0,0,0,1,2,3	to_board	s641
40.31	0.366	0	PA_without_intermediate	3,0,0,2,0,0,0,0,0	test	ward_and_allport	3,1,0,2,0,0,0,0,0	82.0	0.0	0.366	0,0,0,0,0,0,1,2,3	to_hand	s641
40.677	0.293	0	PA_without_intermediate	3,1,0,2,0,0,0,0,0	test	ward_and_allport	3,1,0,2,0,0,0,0,0	89.0	0.0	0.293	0,0,0,0,0,0,1,2,3	to_board	s641
40.977	1.0	0	PA_without_intermediate	n/a	test	ward_and_allport	n/a	-1.0	0.0	n/a	n/a	feedback	s641
41.977	2.088	0	PA_without_intermediate	n/a	test	ward_and_allport	n/a	-1.0	0.0	n/a	n/a	ITI	s641
44.067	1.302	1	PA_with_intermediate	0,0,0,1,2,0,0,0,0	test	ward_and_allport	2,3,0,1,0,0,0,0,0	71.0	1.0	1.302	0,0,0,1,2,3,0,0,0	to_hand	s641
45.37	1.075	0	PA_with_intermediate	0,0,0,1,2,0,3,0,0	test	ward_and_allport	2,3,0,1,0,0,0,0,0	82.0	1.0	1.075	0,0,0,1,2,3,0,0,0	to_board	s641
46.448	0.356	0	PA_with_intermediate	0,0,0,1,0,0,3,0,0	test	ward_and_allport	2,3,0,1,0,0,0,0,0	71.0	1.0	0.356	0,0,0,1,2,3,0,0,0	to_hand	s641
46.805	0.311	0	PA_with_intermediate	2,0,0,1,0,0,3,0,0	test	ward_and_allport	2,3,0,1,0,0,0,0,0	89.0	1.0	0.311	0,0,0,1,2,3,0,0,0	to_board	s641
47.119	0.498	0	PA_with_intermediate	2,0,0,1,0,0,0,0,0	test	ward_and_allport	2,3,0,1,0,0,0,0,0	82.0	1.0	0.498	0,0,0,1,2,3,0,0,0	to_hand	s641
47.618	0.327	0	PA_with_intermediate	2,3,0,1,0,0,0,0,0	test	ward_and_allport	2,3,0,1,0,0,0,0,0	89.0	1.0	0.327	0,0,0,1,2,3,0,0,0	to_board	s641
47.95	1.0	0	PA_with_intermediate	n/a	test	ward_and_allport	n/a	-1.0	1.0	n/a	n/a	feedback	s641
48.95	1.0	0	PA_with_intermediate	n/a	test	ward_and_allport	n/a	-1.0	1.0	n/a	n/a	ITI	s641
49.954	1.413	1	PA_without_intermediate	0,0,0,1,2,0,0,0,0	test	ward_and_allport	3,2,0,0,0,0,1,0,0	71.0	2.0	1.413	0,0,0,1,2,3,0,0,0	to_hand	s641
51.368	0.394	0	PA_without_intermediate	3,0,0,1,2,0,0,0,0	test	ward_and_allport	3,2,0,0,0,0,1,0,0	89.0	2.0	0.394	0,0,0,1,2,3,0,0,0	to_board	s641
51.765	0.365	0	PA_without_intermediate	3,0,0,1,0,0,0,0,0	test	ward_and_allport	3,2,0,0,0,0,1,0,0	71.0	2.0	0.365	0,0,0,1,2,3,0,0,0	to_hand	s641
52.131	0.304	0	PA_without_intermediate	3,2,0,1,0,0,0,0,0	test	ward_and_allport	3,2,0,0,0,0,1,0,0	89.0	2.0	0.304	0,0,0,1,2,3,0,0,0	to_board	s641
52.437	0.43	0	PA_without_intermediate	3,2,0,0,0,0,0,0,0	test	ward_and_allport	3,2,0,0,0,0,1,0,0	71.0	2.0	0.43	0,0,0,1,2,3,0,0,0	to_hand	s641
52.868	0.381	0	PA_without_intermediate	3,2,0,0,0,0,1,0,0	test	ward_and_allport	3,2,0,0,0,0,1,0,0	82.0	2.0	0.381	0,0,0,1,2,3,0,0,0	to_board	s641
53.255	1.0	0	PA_without_intermediate	n/a	test	ward_and_allport	n/a	-1.0	2.0	n/a	n/a	feedback	s641
54.255	1.0	0	PA_without_intermediate	n/a	test	ward_and_allport	n/a	-1.0	2.0	n/a	n/a	ITI	s641
55.259	0.749	1	PA_without_intermediate	0,0,0,0,0,0,1,2,0	test	ward_and_allport	2,0,0,3,1,0,0,0,0	82.0	3.0	0.749	0,0,0,0,0,0,1,2,3	to_hand	s641
56.009	0.647	0	PA_without_intermediate	0,0,0,3,0,0,1,2,0	test	ward_and_allport	2,0,0,3,1,0,0,0,0	71.0	3.0	0.647	0,0,0,0,0,0,1,2,3	to_board	s641
56.659	0.477	0	PA_without_intermediate	0,0,0,3,0,0,1,0,0	test	ward_and_allport	2,0,0,3,1,0,0,0,0	82.0	3.0	0.477	0,0,0,0,0,0,1,2,3	to_hand	s641
57.137	0.434	0	PA_without_intermediate	2,0,0,3,0,0,1,0,0	test	ward_and_allport	2,0,0,3,1,0,0,0,0	89.0	3.0	0.434	0,0,0,0,0,0,1,2,3	to_board	s641
57.574	0.353	0	PA_without_intermediate	2,0,0,3,0,0,0,0,0	test	ward_and_allport	2,0,0,3,1,0,0,0,0	82.0	3.0	0.353	0,0,0,0,0,0,1,2,3	to_hand	s641
57.928	0.314	0	PA_without_intermediate	2,0,0,3,1,0,0,0,0	test	ward_and_allport	2,0,0,3,1,0,0,0,0	71.0	3.0	0.314	0,0,0,0,0,0,1,2,3	to_board	s641
58.25	1.0	0	PA_without_intermediate	n/a	test	ward_and_allport	n/a	-1.0	3.0	n/a	n/a	feedback	s641
59.25	1.0	0	PA_without_intermediate	n/a	test	ward_and_allport	n/a	-1.0	3.0	n/a	n/a	ITI	s641
60.254	1.205	1	PA_with_intermediate	0,0,0,1,2,0,0,0,0	test	ward_and_allport	0,0,0,1,3,0,2,0,0	71.0	4.0	1.205	0,0,0,1,2,3,0,0,0	to_hand	s641
61.461	0.349	0	PA_with_intermediate	0,0,0,1,2,0,3,0,0	test	ward_and_allport	0,0,0,1,3,0,2,0,0	82.0	4.0	0.349	0,0,0,1,2,3,0,0,0	to_board	s641
61.813	0.439	0	PA_with_intermediate	0,0,0,1,0,0,3,0,0	test	ward_and_allport	0,0,0,1,3,0,2,0,0	71.0	4.0	0.439	0,0,0,1,2,3,0,0,0	to_hand	s641
62.253	0.314	0	PA_with_intermediate	2,0,0,1,0,0,3,0,0	test	ward_and_allport	0,0,0,1,3,0,2,0,0	89.0	4.0	0.314	0,0,0,1,2,3,0,0,0	to_board	s641
62.571	0.371	0	PA_with_intermediate	2,0,0,0,0,0,3,0,0	test	ward_and_allport	0,0,0,1,3,0,2,0,0	71.0	4.0	0.371	0,0,0,1,2,3,0,0,0	to_hand	s641
62.943	0.563	0	PA_with_intermediate	2,0,0,1,0,0,3,0,0	test	ward_and_allport	0,0,0,1,3,0,2,0,0	71.0	4.0	0.563	0,0,0,1,2,3,0,0,0	to_board	s641
63.509	0.485	0	PA_with_intermediate	2,0,0,1,0,0,0,0,0	test	ward_and_allport	0,0,0,1,3,0,2,0,0	82.0	4.0	0.485	0,0,0,1,2,3,0,0,0	to_hand	s641
63.996	0.258	0	PA_with_intermediate	2,0,0,1,3,0,0,0,0	test	ward_and_allport	0,0,0,1,3,0,2,0,0	71.0	4.0	0.258	0,0,0,1,2,3,0,0,0	to_board	s641
64.258	1.31	0	PA_with_intermediate	0,0,0,1,3,0,0,0,0	test	ward_and_allport	0,0,0,1,3,0,2,0,0	89.0	4.0	1.31	0,0,0,1,2,3,0,0,0	to_hand	s641
65.57	0.185	0	PA_with_intermediate	0,0,0,1,3,0,2,0,0	test	ward_and_allport	0,0,0,1,3,0,2,0,0	82.0	4.0	0.185	0,0,0,1,2,3,0,0,0	to_board	s641
65.763	1.0	0	PA_with_intermediate	n/a	test	ward_and_allport	n/a	-1.0	4.0	n/a	n/a	feedback	s641
66.763	1.544	0	PA_with_intermediate	n/a	test	ward_and_allport	n/a	-1.0	4.0	n/a	n/a	ITI	s641
68.312	0.956	1	PA_without_intermediate	0,0,0,0,0,0,1,2,0	test	ward_and_allport	1,0,0,3,2,0,0,0,0	82.0	5.0	0.956	0,0,0,0,0,0,1,2,3	to_hand	s641
69.27	0.345	0	PA_without_intermediate	0,0,0,3,0,0,1,2,0	test	ward_and_allport	1,0,0,3,2,0,0,0,0	71.0	5.0	0.345	0,0,0,0,0,0,1,2,3	to_board	s641
69.618	0.467	0	PA_without_intermediate	0,0,0,3,0,0,1,0,0	test	ward_and_allport	1,0,0,3,2,0,0,0,0	82.0	5.0	0.467	0,0,0,0,0,0,1,2,3	to_hand	s641
70.087	0.333	0	PA_without_intermediate	0,0,0,3,2,0,1,0,0	test	ward_and_allport	1,0,0,3,2,0,0,0,0	71.0	5.0	0.333	0,0,0,0,0,0,1,2,3	to_board	s641
70.423	0.433	0	PA_without_intermediate	0,0,0,3,2,0,0,0,0	test	ward_and_allport	1,0,0,3,2,0,0,0,0	82.0	5.0	0.433	0,0,0,0,0,0,1,2,3	to_hand	s641
70.858	0.32	0	PA_without_intermediate	1,0,0,3,2,0,0,0,0	test	ward_and_allport	1,0,0,3,2,0,0,0,0	89.0	5.0	0.32	0,0,0,0,0,0,1,2,3	to_board	s641
71.184	1.0	0	PA_without_intermediate	n/a	test	ward_and_allport	n/a	-1.0	5.0	n/a	n/a	feedback	s641
72.184	1.272	0	PA_without_intermediate	n/a	test	ward_and_allport	n/a	-1.0	5.0	n/a	n/a	ITI	s641
73.46	1.161	1	PA_with_intermediate	0,0,0,0,0,0,1,2,0	test	ward_and_allport	0,0,0,2,3,0,1,0,0	82.0	6.0	1.161	0,0,0,0,0,0,1,2,3	to_hand	s641
74.622	2.074	0	PA_with_intermediate	3,0,0,0,0,0,1,2,0	test	ward_and_allport	0,0,0,2,3,0,1,0,0	89.0	6.0	2.074	0,0,0,0,0,0,1,2,3	to_board	s641
76.7	0.769	0	PA_with_intermediate	3,0,0,0,0,0,1,0,0	test	ward_and_allport	0,0,0,2,3,0,1,0,0	82.0	6.0	0.769	0,0,0,0,0,0,1,2,3	to_hand	s641
77.47	0.25	0	PA_with_intermediate	3,0,0,2,0,0,1,0,0	test	ward_and_allport	0,0,0,2,3,0,1,0,0	71.0	6.0	0.25	0,0,0,0,0,0,1,2,3	to_board	s641
77.723	0.349	0	PA_with_intermediate	0,0,0,2,0,0,1,0,0	test	ward_and_allport	0,0,0,2,3,0,1,0,0	89.0	6.0	0.349	0,0,0,0,0,0,1,2,3	to_hand	s641
78.073	0.462	0	PA_with_intermediate	0,0,0,2,3,0,1,0,0	test	ward_and_allport	0,0,0,2,3,0,1,0,0	71.0	6.0	0.462	0,0,0,0,0,0,1,2,3	to_board	s641
78.542	1.0	0	PA_with_intermediate	n/a	test	ward_and_allport	n/a	-1.0	6.0	n/a	n/a	feedback	s641
79.542	3.04	0	PA_with_intermediate	n/a	test	ward_and_allport	n/a	-1.0	6.0	n/a	n/a	ITI	s641
82.586	1.547	1	PA_with_intermediate	0,0,0,0,0,0,1,2,0	test	ward_and_allport	0,0,0,2,3,0,1,0,0	82.0	7.0	1.547	0,0,0,0,0,0,1,2,3	to_hand	s641
84.134	0.268	0	PA_with_intermediate	3,0,0,0,0,0,1,2,0	test	ward_and_allport	0,0,0,2,3,0,1,0,0	89.0	7.0	0.268	0,0,0,0,0,0,1,2,3	to_board	s641
84.406	0.294	0	PA_with_intermediate	3,0,0,0,0,0,1,0,0	test	ward_and_allport	0,0,0,2,3,0,1,0,0	82.0	7.0	0.294	0,0,0,0,0,0,1,2,3	to_hand	s641
84.701	0.353	0	PA_with_intermediate	3,0,0,2,0,0,1,0,0	test	ward_and_allport	0,0,0,2,3,0,1,0,0	71.0	7.0	0.353	0,0,0,0,0,0,1,2,3	to_board	s641
85.058	0.533	0	PA_with_intermediate	0,0,0,2,0,0,1,0,0	test	ward_and_allport	0,0,0,2,3,0,1,0,0	89.0	7.0	0.533	0,0,0,0,0,0,1,2,3	to_hand	s641
85.592	0.273	0	PA_with_intermediate	0,0,0,2,0,0,1,3,0	test	ward_and_allport	0,0,0,2,3,0,1,0,0	82.0	7.0	0.273	0,0,0,0,0,0,1,2,3	to_board	s641
85.868	0.277	0	PA_with_intermediate	0,0,0,0,0,0,1,3,0	test	ward_and_allport	0,0,0,2,3,0,1,0,0	71.0	7.0	0.277	0,0,0,0,0,0,1,2,3	to_hand	s641
86.146	0.621	0	PA_with_intermediate	0,0,0,2,0,0,1,3,0	test	ward_and_allport	0,0,0,2,3,0,1,0,0	71.0	7.0	0.621	0,0,0,0,0,0,1,2,3	to_board	s641
86.771	0.305	0	PA_with_intermediate	0,0,0,2,0,0,1,0,0	test	ward_and_allport	0,0,0,2,3,0,1,0,0	82.0	7.0	0.305	0,0,0,0,0,0,1,2,3	to_hand	s641
87.077	0.185	0	PA_with_intermediate	0,0,0,2,3,0,1,0,0	test	ward_and_allport	0,0,0,2,3,0,1,0,0	71.0	7.0	0.185	0,0,0,0,0,0,1,2,3	to_board	s641
87.269	1.0	0	PA_with_intermediate	n/a	test	ward_and_allport	n/a	-1.0	7.0	n/a	n/a	feedback	s641
88.269	1.272	0	PA_with_intermediate	n/a	test	ward_and_allport	n/a	-1.0	7.0	n/a	n/a	ITI	s641
89.546	0.828	1	PA_with_intermediate	1,2,0,0,0,0,0,0,0	test	ward_and_allport	1,0,0,0,0,0,2,3,0	89.0	8.0	0.828	1,2,3,0,0,0,0,0,0	to_hand	s641
90.375	0.765	0	PA_with_intermediate	1,2,0,3,0,0,0,0,0	test	ward_and_allport	1,0,0,0,0,0,2,3,0	71.0	8.0	0.765	1,2,3,0,0,0,0,0,0	to_board	s641
91.144	0.356	0	PA_with_intermediate	1,0,0,3,0,0,0,0,0	test	ward_and_allport	1,0,0,0,0,0,2,3,0	89.0	8.0	0.356	1,2,3,0,0,0,0,0,0	to_hand	s641
91.502	0.307	0	PA_with_intermediate	1,0,0,3,0,0,2,0,0	test	ward_and_allport	1,0,0,0,0,0,2,3,0	82.0	8.0	0.307	1,2,3,0,0,0,0,0,0	to_board	s641
91.813	0.369	0	PA_with_intermediate	1,0,0,0,0,0,2,0,0	test	ward_and_allport	1,0,0,0,0,0,2,3,0	71.0	8.0	0.369	1,2,3,0,0,0,0,0,0	to_hand	s641
92.184	0.482	0	PA_with_intermediate	1,0,0,0,0,0,2,3,0	test	ward_and_allport	1,0,0,0,0,0,2,3,0	82.0	8.0	0.482	1,2,3,0,0,0,0,0,0	to_board	s641
92.675	1.0	0	PA_with_intermediate	n/a	test	ward_and_allport	n/a	-1.0	8.0	n/a	n/a	feedback	s641
93.675	1.136	0	PA_with_intermediate	n/a	test	ward_and_allport	n/a	-1.0	8.0	n/a	n/a	ITI	s641
94.817	0.866	1	PA_with_intermediate	1,2,0,0,0,0,0,0,0	test	ward_and_allport	1,0,0,2,3,0,0,0,0	89.0	9.0	0.866	1,2,3,0,0,0,0,0,0	to_hand	s641
95.685	0.524	0	PA_with_intermediate	1,2,0,0,0,0,3,0,0	test	ward_and_allport	1,0,0,2,3,0,0,0,0	82.0	9.0	0.524	1,2,3,0,0,0,0,0,0	to_board	s641
96.214	0.416	0	PA_with_intermediate	1,0,0,0,0,0,3,0,0	test	ward_and_allport	1,0,0,2,3,0,0,0,0	89.0	9.0	0.416	1,2,3,0,0,0,0,0,0	to_hand	s641
96.631	0.255	0	PA_with_intermediate	1,0,0,2,0,0,3,0,0	test	ward_and_allport	1,0,0,2,3,0,0,0,0	71.0	9.0	0.255	1,2,3,0,0,0,0,0,0	to_board	s641
96.891	0.339	0	PA_with_intermediate	1,0,0,2,0,0,0,0,0	test	ward_and_allport	1,0,0,2,3,0,0,0,0	82.0	9.0	0.339	1,2,3,0,0,0,0,0,0	to_hand	s641
97.232	0.341	0	PA_with_intermediate	1,0,0,2,3,0,0,0,0	test	ward_and_allport	1,0,0,2,3,0,0,0,0	71.0	9.0	0.341	1,2,3,0,0,0,0,0,0	to_board	s641
97.582	1.0	0	PA_with_intermediate	n/a	test	ward_and_allport	n/a	-1.0	9.0	n/a	n/a	feedback	s641
98.582	1.0	0	PA_with_intermediate	n/a	test	ward_and_allport	n/a	-1.0	9.0	n/a	n/a	ITI	s641
99.588	1.133	1	PA_with_intermediate	0,0,0,0,0,0,1,2,0	test	ward_and_allport	2,0,0,0,0,0,1,3,0	82.0	10.0	1.133	0,0,0,0,0,0,1,2,3	to_hand	s641
100.723	0.611	0	PA_with_intermediate	0,0,0,3,0,0,1,2,0	test	ward_and_allport	2,0,0,0,0,0,1,3,0	71.0	10.0	0.611	0,0,0,0,0,0,1,2,3	to_board	s641
101.338	0.722	0	PA_with_intermediate	0,0,0,3,0,0,1,0,0	test	ward_and_allport	2,0,0,0,0,0,1,3,0	82.0	10.0	0.722	0,0,0,0,0,0,1,2,3	to_hand	s641
102.062	0.716	0	PA_with_intermediate	2,0,0,3,0,0,1,0,0	test	ward_and_allport	2,0,0,0,0,0,1,3,0	89.0	10.0	0.716	0,0,0,0,0,0,1,2,3	to_board	s641
102.783	0.524	0	PA_with_intermediate	2,0,0,0,0,0,1,0,0	test	ward_and_allport	2,0,0,0,0,0,1,3,0	71.0	10.0	0.524	0,0,0,0,0,0,1,2,3	to_hand	s641
103.307	0.33	0	PA_with_intermediate	2,0,0,0,0,0,1,3,0	test	ward_and_allport	2,0,0,0,0,0,1,3,0	82.0	10.0	0.33	0,0,0,0,0,0,1,2,3	to_board	s641
103.646	1.0	0	PA_with_intermediate	n/a	test	ward_and_allport	n/a	-1.0	10.0	n/a	n/a	feedback	s641
104.646	1.0	0	PA_with_intermediate	n/a	test	ward_and_allport	n/a	-1.0	10.0	n/a	n/a	ITI	s641
105.652	0.857	1	PA_without_intermediate	0,0,0,0,0,0,1,2,0	test	ward_and_allport	3,2,0,1,0,0,0,0,0	82.0	11.0	0.857	0,0,0,0,0,0,1,2,3	to_hand	s641
106.51	0.373	0	PA_without_intermediate	3,0,0,0,0,0,1,2,0	test	ward_and_allport	3,2,0,1,0,0,0,0,0	89.0	11.0	0.373	0,0,0,0,0,0,1,2,3	to_board	s641
106.886	0.304	0	PA_without_intermediate	3,0,0,0,0,0,1,0,0	test	ward_and_allport	3,2,0,1,0,0,0,0,0	82.0	11.0	0.304	0,0,0,0,0,0,1,2,3	to_hand	s641
107.192	0.327	0	PA_without_intermediate	3,2,0,0,0,0,1,0,0	test	ward_and_allport	3,2,0,1,0,0,0,0,0	89.0	11.0	0.327	0,0,0,0,0,0,1,2,3	to_board	s641
107.524	0.661	0	PA_without_intermediate	3,2,0,0,0,0,0,0,0	test	ward_and_allport	3,2,0,1,0,0,0,0,0	82.0	11.0	0.661	0,0,0,0,0,0,1,2,3	to_hand	s641
108.185	0.237	0	PA_without_intermediate	3,2,0,1,0,0,0,0,0	test	ward_and_allport	3,2,0,1,0,0,0,0,0	71.0	11.0	0.237	0,0,0,0,0,0,1,2,3	to_board	s641
108.431	1.0	0	PA_without_intermediate	n/a	test	ward_and_allport	n/a	-1.0	11.0	n/a	n/a	feedback	s641
109.431	1.408	0	PA_without_intermediate	n/a	test	ward_and_allport	n/a	-1.0	11.0	n/a	n/a	ITI	s641
110.843	2.211	1	PA_with_intermediate	0,0,0,1,2,0,0,0,0	test	ward_and_allport	2,0,0,1,3,0,0,0,0	71.0	12.0	2.211	0,0,0,1,2,3,0,0,0	to_hand	s641
113.056	0.318	0	PA_with_intermediate	0,0,0,1,2,0,3,0,0	test	ward_and_allport	2,0,0,1,3,0,0,0,0	82.0	12.0	0.318	0,0,0,1,2,3,0,0,0	to_board	s641
113.378	0.72	0	PA_with_intermediate	0,0,0,1,0,0,3,0,0	test	ward_and_allport	2,0,0,1,3,0,0,0,0	71.0	12.0	0.72	0,0,0,1,2,3,0,0,0	to_hand	s641
114.099	0.314	0	PA_with_intermediate	2,0,0,1,0,0,3,0,0	test	ward_and_allport	2,0,0,1,3,0,0,0,0	89.0	12.0	0.314	0,0,0,1,2,3,0,0,0	to_board	s641
114.418	0.365	0	PA_with_intermediate	2,0,0,1,0,0,0,0,0	test	ward_and_allport	2,0,0,1,3,0,0,0,0	82.0	12.0	0.365	0,0,0,1,2,3,0,0,0	to_hand	s641
114.784	0.305	0	PA_with_intermediate	2,0,0,1,3,0,0,0,0	test	ward_and_allport	2,0,0,1,3,0,0,0,0	71.0	12.0	0.305	0,0,0,1,2,3,0,0,0	to_board	s641
115.098	1.0	0	PA_with_intermediate	n/a	test	ward_and_allport	n/a	-1.0	12.0	n/a	n/a	feedback	s641
116.098	2.768	0	PA_with_intermediate	n/a	test	ward_and_allport	n/a	-1.0	12.0	n/a	n/a	ITI	s641
118.872	0.831	1	PA_with_intermediate	0,0,0,1,2,0,0,0,0	test	ward_and_allport	0,0,0,1,0,0,2,3,0	71.0	13.0	0.831	0,0,0,1,2,3,0,0,0	to_hand	s641
119.704	0.591	0	PA_with_intermediate	0,0,0,1,2,0,3,0,0	test	ward_and_allport	0,0,0,1,0,0,2,3,0	82.0	13.0	0.591	0,0,0,1,2,3,0,0,0	to_board	s641
120.301	0.837	0	PA_with_intermediate	0,0,0,1,2,0,0,0,0	test	ward_and_allport	0,0,0,1,0,0,2,3,0	82.0	13.0	0.837	0,0,0,1,2,3,0,0,0	to_hand	s641
121.139	0.264	0	PA_with_intermediate	3,0,0,1,2,0,0,0,0	test	ward_and_allport	0,0,0,1,0,0,2,3,0	89.0	13.0	0.264	0,0,0,1,2,3,0,0,0	to_board	s641
121.408	0.414	0	PA_with_intermediate	3,0,0,1,0,0,0,0,0	test	ward_and_allport	0,0,0,1,0,0,2,3,0	71.0	13.0	0.414	0,0,0,1,2,3,0,0,0	to_hand	s641
121.823	0.313	0	PA_with_intermediate	3,0,0,1,0,0,2,0,0	test	ward_and_allport	0,0,0,1,0,0,2,3,0	82.0	13.0	0.313	0,0,0,1,2,3,0,0,0	to_board	s641
122.141	0.375	0	PA_with_intermediate	0,0,0,1,0,0,2,0,0	test	ward_and_allport	0,0,0,1,0,0,2,3,0	89.0	13.0	0.375	0,0,0,1,2,3,0,0,0	to_hand	s641
122.517	0.298	0	PA_with_intermediate	0,0,0,1,0,0,2,3,0	test	ward_and_allport	0,0,0,1,0,0,2,3,0	82.0	13.0	0.298	0,0,0,1,2,3,0,0,0	to_board	s641
122.824	1.0	0	PA_with_intermediate	n/a	test	ward_and_allport	n/a	-1.0	13.0	n/a	n/a	feedback	s641
123.824	1.68	0	PA_with_intermediate	n/a	test	ward_and_allport	n/a	-1.0	13.0	n/a	n/a	ITI	s641
125.509	1.171	1	PA_without_intermediate	0,0,0,0,0,0,1,2,0	test	ward_and_allport	2,0,0,3,1,0,0,0,0	82.0	14.0	1.171	0,0,0,0,0,0,1,2,3	to_hand	s641
126.682	0.475	0	PA_without_intermediate	0,0,0,3,0,0,1,2,0	test	ward_and_allport	2,0,0,3,1,0,0,0,0	71.0	14.0	0.475	0,0,0,0,0,0,1,2,3	to_board	s641
127.162	0.563	0	PA_without_intermediate	0,0,0,3,0,0,1,0,0	test	ward_and_allport	2,0,0,3,1,0,0,0,0	82.0	14.0	0.563	0,0,0,0,0,0,1,2,3	to_hand	s641
127.726	0.265	0	PA_without_intermediate	2,0,0,3,0,0,1,0,0	test	ward_and_allport	2,0,0,3,1,0,0,0,0	89.0	14.0	0.265	0,0,0,0,0,0,1,2,3	to_board	s641
127.996	0.329	0	PA_without_intermediate	2,0,0,3,0,0,0,0,0	test	ward_and_allport	2,0,0,3,1,0,0,0,0	82.0	14.0	0.329	0,0,0,0,0,0,1,2,3	to_hand	s641
128.327	0.236	0	PA_without_intermediate	2,0,0,3,1,0,0,0,0	test	ward_and_allport	2,0,0,3,1,0,0,0,0	71.0	14.0	0.236	0,0,0,0,0,0,1,2,3	to_board	s641
128.57	1.0	0	PA_without_intermediate	n/a	test	ward_and_allport	n/a	-1.0	14.0	n/a	n/a	feedback	s641
129.57	2.224	0	PA_without_intermediate	n/a	test	ward_and_allport	n/a	-1.0	14.0	n/a	n/a	ITI	s641
136.805	1.407	1	PA_without_intermediate	1,2,0,0,0,0,0,0,0	test	ward_and_allport	0,0,0,1,0,0,3,2,0	89.0	15.0	1.407	1,2,3,0,0,0,0,0,0	to_hand	s641
138.213	0.366	0	PA_without_intermediate	1,2,0,0,0,0,3,0,0	test	ward_and_allport	0,0,0,1,0,0,3,2,0	82.0	15.0	0.366	1,2,3,0,0,0,0,0,0	to_board	s641
138.585	0.424	0	PA_without_intermediate	1,0,0,0,0,0,3,0,0	test	ward_and_allport	0,0,0,1,0,0,3,2,0	89.0	15.0	0.424	1,2,3,0,0,0,0,0,0	to_hand	s641
139.01	0.358	0	PA_without_intermediate	1,0,0,0,0,0,3,2,0	test	ward_and_allport	0,0,0,1,0,0,3,2,0	82.0	15.0	0.358	1,2,3,0,0,0,0,0,0	to_board	s641
139.371	0.481	0	PA_without_intermediate	0,0,0,0,0,0,3,2,0	test	ward_and_allport	0,0,0,1,0,0,3,2,0	89.0	15.0	0.481	1,2,3,0,0,0,0,0,0	to_hand	s641
139.853	0.237	0	PA_without_intermediate	0,0,0,1,0,0,3,2,0	test	ward_and_allport	0,0,0,1,0,0,3,2,0	71.0	15.0	0.237	1,2,3,0,0,0,0,0,0	to_board	s641
140.1	1.0	0	PA_without_intermediate	n/a	test	ward_and_allport	n/a	-1.0	15.0	n/a	n/a	feedback	s641
141.1	2.36	0	PA_without_intermediate	n/a	test	ward_and_allport	n/a	-1.0	15.0	n/a	n/a	ITI	s641
143.466	0.825	1	PA_without_intermediate	0,0,0,0,0,0,1,2,0	test	ward_and_allport	3,1,0,2,0,0,0,0,0	82.0	16.0	0.825	0,0,0,0,0,0,1,2,3	to_hand	s641
144.292	0.301	0	PA_without_intermediate	3,0,0,0,0,0,1,2,0	test	ward_and_allport	3,1,0,2,0,0,0,0,0	89.0	16.0	0.301	0,0,0,0,0,0,1,2,3	to_board	s641
144.598	0.138	0	PA_without_intermediate	0,0,0,0,0,0,1,2,0	test	ward_and_allport	3,1,0,2,0,0,0,0,0	89.0	16.0	0.138	0,0,0,0,0,0,1,2,3	to_hand	s641
144.737	0.794	0	PA_without_intermediate	3,0,0,0,0,0,1,2,0	test	ward_and_allport	3,1,0,2,0,0,0,0,0	89.0	16.0	0.794	0,0,0,0,0,0,1,2,3	to_board	s641
145.537	0.456	0	PA_without_intermediate	3,0,0,0,0,0,1,0,0	test	ward_and_allport	3,1,0,2,0,0,0,0,0	82.0	16.0	0.456	0,0,0,0,0,0,1,2,3	to_hand	s641
145.994	0.496	0	PA_without_intermediate	3,0,0,2,0,0,1,0,0	test	ward_and_allport	3,1,0,2,0,0,0,0,0	71.0	16.0	0.496	0,0,0,0,0,0,1,2,3	to_board	s641
146.495	0.356	0	PA_without_intermediate	3,0,0,2,0,0,0,0,0	test	ward_and_allport	3,1,0,2,0,0,0,0,0	82.0	16.0	0.356	0,0,0,0,0,0,1,2,3	to_hand	s641
146.852	0.324	0	PA_without_intermediate	3,1,0,2,0,0,0,0,0	test	ward_and_allport	3,1,0,2,0,0,0,0,0	89.0	16.0	0.324	0,0,0,0,0,0,1,2,3	to_board	s641
147.185	1.0	0	PA_without_intermediate	n/a	test	ward_and_allport	n/a	-1.0	16.0	n/a	n/a	feedback	s641
148.185	1.0	0	PA_without_intermediate	n/a	test	ward_and_allport	n/a	-1.0	16.0	n/a	n/a	ITI	s641
149.191	1.584	1	PA_without_intermediate	0,0,0,1,2,0,0,0,0	test	ward_and_allport	3,1,0,0,0,0,2,0,0	71.0	17.0	1.584	0,0,0,1,2,3,0,0,0	to_hand	s641
150.776	0.314	0	PA_without_intermediate	3,0,0,1,2,0,0,0,0	test	ward_and_allport	3,1,0,0,0,0,2,0,0	89.0	17.0	0.314	0,0,0,1,2,3,0,0,0	to_board	s641
151.095	0.43	0	PA_without_intermediate	3,0,0,1,0,0,0,0,0	test	ward_and_allport	3,1,0,0,0,0,2,0,0	71.0	17.0	0.43	0,0,0,1,2,3,0,0,0	to_hand	s641
151.527	0.314	0	PA_without_intermediate	3,0,0,1,0,0,2,0,0	test	ward_and_allport	3,1,0,0,0,0,2,0,0	82.0	17.0	0.314	0,0,0,1,2,3,0,0,0	to_board	s641
151.846	0.606	0	PA_without_intermediate	3,0,0,0,0,0,2,0,0	test	ward_and_allport	3,1,0,0,0,0,2,0,0	71.0	17.0	0.606	0,0,0,1,2,3,0,0,0	to_hand	s641
152.453	0.26	0	PA_without_intermediate	3,1,0,0,0,0,2,0,0	test	ward_and_allport	3,1,0,0,0,0,2,0,0	89.0	17.0	0.26	0,0,0,1,2,3,0,0,0	to_board	s641
152.723	1.0	0	PA_without_intermediate	n/a	test	ward_and_allport	n/a	-1.0	17.0	n/a	n/a	feedback	s641
153.723	1.408	0	PA_without_intermediate	n/a	test	ward_and_allport	n/a	-1.0	17.0	n/a	n/a	ITI	s641
155.137	0.986	1	PA_with_intermediate	0,0,0,0,0,0,1,2,0	test	ward_and_allport	2,3,0,0,0,0,1,0,0	82.0	18.0	0.986	0,0,0,0,0,0,1,2,3	to_hand	s641
156.125	0.429	0	PA_with_intermediate	3,0,0,0,0,0,1,2,0	test	ward_and_allport	2,3,0,0,0,0,1,0,0	89.0	18.0	0.429	0,0,0,0,0,0,1,2,3	to_board	s641
156.56	0.944	0	PA_with_intermediate	0,0,0,0,0,0,1,2,0	test	ward_and_allport	2,3,0,0,0,0,1,0,0	89.0	18.0	0.944	0,0,0,0,0,0,1,2,3	to_hand	s641
157.506	0.233	0	PA_with_intermediate	0,0,0,3,0,0,1,2,0	test	ward_and_allport	2,3,0,0,0,0,1,0,0	71.0	18.0	0.233	0,0,0,0,0,0,1,2,3	to_board	s641
157.746	0.39	0	PA_with_intermediate	0,0,0,3,0,0,1,0,0	test	ward_and_allport	2,3,0,0,0,0,1,0,0	82.0	18.0	0.39	0,0,0,0,0,0,1,2,3	to_hand	s641
158.138	0.331	0	PA_with_intermediate	2,0,0,3,0,0,1,0,0	test	ward_and_allport	2,3,0,0,0,0,1,0,0	89.0	18.0	0.331	0,0,0,0,0,0,1,2,3	to_board	s641
158.475	0.519	0	PA_with_intermediate	2,0,0,0,0,0,1,0,0	test	ward_and_allport	2,3,0,0,0,0,1,0,0	71.0	18.0	0.519	0,0,0,0,0,0,1,2,3	to_hand	s641
158.996	0.309	0	PA_with_intermediate	2,3,0,0,0,0,1,0,0	test	ward_and_allport	2,3,0,0,0,0,1,0,0	89.0	18.0	0.309	0,0,0,0,0,0,1,2,3	to_board	s641
159.315	1.0	0	PA_with_intermediate	n/a	test	ward_and_allport	n/a	-1.0	18.0	n/a	n/a	feedback	s641
160.315	1.136	0	PA_with_intermediate	n/a	test	ward_and_allport	n/a	-1.0	18.0	n/a	n/a	ITI	s641
161.459	1.575	1	PA_without_intermediate	0,0,0,1,2,0,0,0,0	test	ward_and_allport	1,0,0,0,0,0,3,2,0	71.0	19.0	1.575	0,0,0,1,2,3,0,0,0	to_hand	s641
163.036	0.696	0	PA_without_intermediate	0,0,0,1,2,0,3,0,0	test	ward_and_allport	1,0,0,0,0,0,3,2,0	82.0	19.0	0.696	0,0,0,1,2,3,0,0,0	to_board	s641
163.738	0.285	0	PA_without_intermediate	0,0,0,1,0,0,3,0,0	test	ward_and_allport	1,0,0,0,0,0,3,2,0	71.0	19.0	0.285	0,0,0,1,2,3,0,0,0	to_hand	s641
164.024	0.303	0	PA_without_intermediate	0,0,0,1,0,0,3,2,0	test	ward_and_allport	1,0,0,0,0,0,3,2,0	82.0	19.0	0.303	0,0,0,1,2,3,0,0,0	to_board	s641
164.334	0.476	0	PA_without_intermediate	0,0,0,0,0,0,3,2,0	test	ward_and_allport	1,0,0,0,0,0,3,2,0	71.0	19.0	0.476	0,0,0,1,2,3,0,0,0	to_hand	s641
164.813	0.231	0	PA_without_intermediate	1,0,0,0,0,0,3,2,0	test	ward_and_allport	1,0,0,0,0,0,3,2,0	89.0	19.0	0.231	0,0,0,1,2,3,0,0,0	to_board	s641
165.054	1.0	0	PA_without_intermediate	n/a	test	ward_and_allport	n/a	-1.0	19.0	n/a	n/a	feedback	s641
166.054	4.128	0	PA_without_intermediate	n/a	test	ward_and_allport	n/a	-1.0	19.0	n/a	n/a	ITI	s641
170.189	0.954	1	PA_without_intermediate	1,2,0,0,0,0,0,0,0	test	ward_and_allport	0,0,0,3,1,0,2,0,0	89.0	20.0	0.954	1,2,3,0,0,0,0,0,0	to_hand	s641
171.145	0.375	0	PA_without_intermediate	1,2,0,3,0,0,0,0,0	test	ward_and_allport	0,0,0,3,1,0,2,0,0	71.0	20.0	0.375	1,2,3,0,0,0,0,0,0	to_board	s641
171.526	0.527	0	PA_without_intermediate	1,0,0,3,0,0,0,0,0	test	ward_and_allport	0,0,0,3,1,0,2,0,0	89.0	20.0	0.527	1,2,3,0,0,0,0,0,0	to_hand	s641
172.054	0.212	0	PA_without_intermediate	1,0,0,3,0,0,2,0,0	test	ward_and_allport	0,0,0,3,1,0,2,0,0	82.0	20.0	0.212	1,2,3,0,0,0,0,0,0	to_board	s641
172.272	0.342	0	PA_without_intermediate	0,0,0,3,0,0,2,0,0	test	ward_and_allport	0,0,0,3,1,0,2,0,0	89.0	20.0	0.342	1,2,3,0,0,0,0,0,0	to_hand	s641
172.615	0.196	0	PA_without_intermediate	0,0,0,3,1,0,2,0,0	test	ward_and_allport	0,0,0,3,1,0,2,0,0	71.0	20.0	0.196	1,2,3,0,0,0,0,0,0	to_board	s641
172.822	1.0	0	PA_without_intermediate	n/a	test	ward_and_allport	n/a	-1.0	20.0	n/a	n/a	feedback	s641
173.822	1.136	0	PA_without_intermediate	n/a	test	ward_and_allport	n/a	-1.0	20.0	n/a	n/a	ITI	s641
174.966	1.002	1	PA_without_intermediate	0,0,0,1,2,0,0,0,0	test	ward_and_allport	2,0,0,0,0,0,3,1,0	71.0	21.0	1.002	0,0,0,1,2,3,0,0,0	to_hand	s641
175.969	0.485	0	PA_without_intermediate	0,0,0,1,2,0,3,0,0	test	ward_and_allport	2,0,0,0,0,0,3,1,0	82.0	21.0	0.485	0,0,0,1,2,3,0,0,0	to_board	s641
176.46	0.388	0	PA_without_intermediate	0,0,0,1,0,0,3,0,0	test	ward_and_allport	2,0,0,0,0,0,3,1,0	71.0	21.0	0.388	0,0,0,1,2,3,0,0,0	to_hand	s641
176.848	0.331	0	PA_without_intermediate	2,0,0,1,0,0,3,0,0	test	ward_and_allport	2,0,0,0,0,0,3,1,0	89.0	21.0	0.331	0,0,0,1,2,3,0,0,0	to_board	s641
177.186	0.277	0	PA_without_intermediate	2,0,0,0,0,0,3,0,0	test	ward_and_allport	2,0,0,0,0,0,3,1,0	71.0	21.0	0.277	0,0,0,1,2,3,0,0,0	to_hand	s641
177.464	0.259	0	PA_without_intermediate	2,0,0,0,0,0,3,1,0	test	ward_and_allport	2,0,0,0,0,0,3,1,0	82.0	21.0	0.259	0,0,0,1,2,3,0,0,0	to_board	s641
177.732	1.0	0	PA_without_intermediate	n/a	test	ward_and_allport	n/a	-1.0	21.0	n/a	n/a	feedback	s641
178.732	4.264	0	PA_without_intermediate	n/a	test	ward_and_allport	n/a	-1.0	21.0	n/a	n/a	ITI	s641
183.003	1.252	1	PA_with_intermediate	0,0,0,1,2,0,0,0,0	test	ward_and_allport	2,0,0,1,3,0,0,0,0	71.0	22.0	1.252	0,0,0,1,2,3,0,0,0	to_hand	s641
184.256	0.384	0	PA_with_intermediate	0,0,0,1,2,0,3,0,0	test	ward_and_allport	2,0,0,1,3,0,0,0,0	82.0	22.0	0.384	0,0,0,1,2,3,0,0,0	to_board	s641
184.646	0.376	0	PA_with_intermediate	0,0,0,1,0,0,3,0,0	test	ward_and_allport	2,0,0,1,3,0,0,0,0	71.0	22.0	0.376	0,0,0,1,2,3,0,0,0	to_hand	s641
185.023	0.305	0	PA_with_intermediate	2,0,0,1,0,0,3,0,0	test	ward_and_allport	2,0,0,1,3,0,0,0,0	89.0	22.0	0.305	0,0,0,1,2,3,0,0,0	to_board	s641
185.335	0.294	0	PA_with_intermediate	2,0,0,0,0,0,3,0,0	test	ward_and_allport	2,0,0,1,3,0,0,0,0	71.0	22.0	0.294	0,0,0,1,2,3,0,0,0	to_hand	s641
185.63	0.786	0	PA_with_intermediate	2,0,0,1,0,0,3,0,0	test	ward_and_allport	2,0,0,1,3,0,0,0,0	71.0	22.0	0.786	0,0,0,1,2,3,0,0,0	to_board	s641
186.423	0.198	0	PA_with_intermediate	2,0,0,1,0,0,0,0,0	test	ward_and_allport	2,0,0,1,3,0,0,0,0	82.0	22.0	0.198	0,0,0,1,2,3,0,0,0	to_hand	s641
186.623	0.199	0	PA_with_intermediate	2,0,0,1,3,0,0,0,0	test	ward_and_allport	2,0,0,1,3,0,0,0,0	71.0	22.0	0.199	0,0,0,1,2,3,0,0,0	to_board	s641
186.833	1.0	0	PA_with_intermediate	n/a	test	ward_and_allport	n/a	-1.0	22.0	n/a	n/a	feedback	s641
187.833	3.04	0	PA_with_intermediate	n/a	test	ward_and_allport	n/a	-1.0	22.0	n/a	n/a	ITI	s641
190.881	1.466	1	PA_with_intermediate	1,2,0,0,0,0,0,0,0	test	ward_and_allport	1,3,0,2,0,0,0,0,0	89.0	23.0	1.466	1,2,3,0,0,0,0,0,0	to_hand	s641
192.349	0.294	0	PA_with_intermediate	1,2,0,0,0,0,3,0,0	test	ward_and_allport	1,3,0,2,0,0,0,0,0	82.0	23.0	0.294	1,2,3,0,0,0,0,0,0	to_board	s641
192.65	0.681	0	PA_with_intermediate	1,0,0,0,0,0,3,0,0	test	ward_and_allport	1,3,0,2,0,0,0,0,0	89.0	23.0	0.681	1,2,3,0,0,0,0,0,0	to_hand	s641
193.332	0.164	0	PA_with_intermediate	1,0,0,2,0,0,3,0,0	test	ward_and_allport	1,3,0,2,0,0,0,0,0	71.0	23.0	0.164	1,2,3,0,0,0,0,0,0	to_board	s641
193.502	0.384	0	PA_with_intermediate	1,0,0,2,0,0,0,0,0	test	ward_and_allport	1,3,0,2,0,0,0,0,0	82.0	23.0	0.384	1,2,3,0,0,0,0,0,0	to_hand	s641
193.887	0.348	0	PA_with_intermediate	1,3,0,2,0,0,0,0,0	test	ward_and_allport	1,3,0,2,0,0,0,0,0	89.0	23.0	0.348	1,2,3,0,0,0,0,0,0	to_board	s641
194.246	1.0	0	PA_with_intermediate	n/a	test	ward_and_allport	n/a	-1.0	23.0	n/a	n/a	feedback	s641
195.246	1.136	0	PA_with_intermediate	n/a	test	ward_and_allport	n/a	-1.0	23.0	n/a	n/a	ITI	s641
196.392	1.202	1	PA_with_intermediate	0,0,0,1,2,0,0,0,0	test	ward_and_allport	0,0,0,1,0,0,2,3,0	71.0	24.0	1.202	0,0,0,1,2,3,0,0,0	to_hand	s641
197.594	0.562	0	PA_with_intermediate	3,0,0,1,2,0,0,0,0	test	ward_and_allport	0,0,0,1,0,0,2,3,0	89.0	24.0	0.562	0,0,0,1,2,3,0,0,0	to_board	s641
198.162	0.34	0	PA_with_intermediate	3,0,0,1,0,0,0,0,0	test	ward_and_allport	0,0,0,1,0,0,2,3,0	71.0	24.0	0.34	0,0,0,1,2,3,0,0,0	to_hand	s641
198.504	0.497	0	PA_with_intermediate	3,0,0,1,0,0,2,0,0	test	ward_and_allport	0,0,0,1,0,0,2,3,0	82.0	24.0	0.497	0,0,0,1,2,3,0,0,0	to_board	s641
199.007	0.448	0	PA_with_intermediate	0,0,0,1,0,0,2,0,0	test	ward_and_allport	0,0,0,1,0,0,2,3,0	89.0	24.0	0.448	0,0,0,1,2,3,0,0,0	to_hand	s641
199.456	0.294	0	PA_with_intermediate	0,0,0,1,0,0,2,3,0	test	ward_and_allport	0,0,0,1,0,0,2,3,0	82.0	24.0	0.294	0,0,0,1,2,3,0,0,0	to_board	s641
199.762	1.0	0	PA_with_intermediate	n/a	test	ward_and_allport	n/a	-1.0	24.0	n/a	n/a	feedback	s641
200.762	1.408	0	PA_with_intermediate	n/a	test	ward_and_allport	n/a	-1.0	24.0	n/a	n/a	ITI	s641
202.178	1.336	1	PA_without_intermediate	1,2,0,0,0,0,0,0,0	test	ward_and_allport	0,0,0,3,2,0,1,0,0	89.0	25.0	1.336	1,2,3,0,0,0,0,0,0	to_hand	s641
203.515	0.254	0	PA_without_intermediate	1,2,0,3,0,0,0,0,0	test	ward_and_allport	0,0,0,3,2,0,1,0,0	71.0	25.0	0.254	1,2,3,0,0,0,0,0,0	to_board	s641
203.776	0.264	0	PA_without_intermediate	1,0,0,3,0,0,0,0,0	test	ward_and_allport	0,0,0,3,2,0,1,0,0	89.0	25.0	0.264	1,2,3,0,0,0,0,0,0	to_hand	s641
204.042	0.189	0	PA_without_intermediate	1,0,0,3,2,0,0,0,0	test	ward_and_allport	0,0,0,3,2,0,1,0,0	71.0	25.0	0.189	1,2,3,0,0,0,0,0,0	to_board	s641
204.238	0.497	0	PA_without_intermediate	0,0,0,3,2,0,0,0,0	test	ward_and_allport	0,0,0,3,2,0,1,0,0	89.0	25.0	0.497	1,2,3,0,0,0,0,0,0	to_hand	s641
204.736	0.22	0	PA_without_intermediate	0,0,0,3,2,0,1,0,0	test	ward_and_allport	0,0,0,3,2,0,1,0,0	82.0	25.0	0.22	1,2,3,0,0,0,0,0,0	to_board	s641
204.967	1.0	0	PA_without_intermediate	n/a	test	ward_and_allport	n/a	-1.0	25.0	n/a	n/a	feedback	s641
205.967	1.68	0	PA_without_intermediate	n/a	test	ward_and_allport	n/a	-1.0	25.0	n/a	n/a	ITI	s641
207.653	0.886	1	PA_with_intermediate	0,0,0,0,0,0,1,2,0	test	ward_and_allport	2,0,0,0,0,0,1,3,0	82.0	26.0	0.886	0,0,0,0,0,0,1,2,3	to_hand	s641
208.54	1.566	0	PA_with_intermediate	0,0,0,3,0,0,1,2,0	test	ward_and_allport	2,0,0,0,0,0,1,3,0	71.0	26.0	1.566	0,0,0,0,0,0,1,2,3	to_board	s641
210.112	0.328	0	PA_with_intermediate	0,0,0,3,0,0,1,0,0	test	ward_and_allport	2,0,0,0,0,0,1,3,0	82.0	26.0	0.328	0,0,0,0,0,0,1,2,3	to_hand	s641
210.441	0.507	0	PA_with_intermediate	2,0,0,3,0,0,1,0,0	test	ward_and_allport	2,0,0,0,0,0,1,3,0	89.0	26.0	0.507	0,0,0,0,0,0,1,2,3	to_board	s641
210.954	0.305	0	PA_with_intermediate	2,0,0,0,0,0,1,0,0	test	ward_and_allport	2,0,0,0,0,0,1,3,0	71.0	26.0	0.305	0,0,0,0,0,0,1,2,3	to_hand	s641
211.261	0.289	0	PA_with_intermediate	2,0,0,0,0,0,1,3,0	test	ward_and_allport	2,0,0,0,0,0,1,3,0	82.0	26.0	0.289	0,0,0,0,0,0,1,2,3	to_board	s641
211.561	1.0	0	PA_with_intermediate	n/a	test	ward_and_allport	n/a	-1.0	26.0	n/a	n/a	feedback	s641
212.561	3.72	0	PA_with_intermediate	n/a	test	ward_and_allport	n/a	-1.0	26.0	n/a	n/a	ITI	s641
216.289	0.772	1	PA_without_intermediate	0,0,0,1,2,0,0,0,0	test	ward_and_allport	3,1,0,0,0,0,2,0,0	71.0	27.0	0.772	0,0,0,1,2,3,0,0,0	to_hand	s641
217.062	0.478	0	PA_without_intermediate	3,0,0,1,2,0,0,0,0	test	ward_and_allport	3,1,0,0,0,0,2,0,0	89.0	27.0	0.478	0,0,0,1,2,3,0,0,0	to_board	s641
217.547	0.311	0	PA_without_intermediate	3,0,0,1,0,0,0,0,0	test	ward_and_allport	3,1,0,0,0,0,2,0,0	71.0	27.0	0.311	0,0,0,1,2,3,0,0,0	to_hand	s641
217.86	0.393	0	PA_without_intermediate	3,0,0,1,0,0,2,0,0	test	ward_and_allport	3,1,0,0,0,0,2,0,0	82.0	27.0	0.393	0,0,0,1,2,3,0,0,0	to_board	s641
218.261	0.262	0	PA_without_intermediate	3,0,0,0,0,0,2,0,0	test	ward_and_allport	3,1,0,0,0,0,2,0,0	71.0	27.0	0.262	0,0,0,1,2,3,0,0,0	to_hand	s641
218.525	0.226	0	PA_without_intermediate	3,1,0,0,0,0,2,0,0	test	ward_and_allport	3,1,0,0,0,0,2,0,0	89.0	27.0	0.226	0,0,0,1,2,3,0,0,0	to_board	s641
218.762	1.0	0	PA_without_intermediate	n/a	test	ward_and_allport	n/a	-1.0	27.0	n/a	n/a	feedback	s641
219.762	2.224	0	PA_without_intermediate	n/a	test	ward_and_allport	n/a	-1.0	27.0	n/a	n/a	ITI	s641
221.995	0.765	1	PA_without_intermediate	0,0,0,1,2,0,0,0,0	test	ward_and_allport	1,0,0,0,0,0,3,2,0	71.0	28.0	0.765	0,0,0,1,2,3,0,0,0	to_hand	s641
222.761	0.232	0	PA_without_intermediate	0,0,0,1,2,0,3,0,0	test	ward_and_allport	1,0,0,0,0,0,3,2,0	82.0	28.0	0.232	0,0,0,1,2,3,0,0,0	to_board	s641
223.001	0.285	0	PA_without_intermediate	0,0,0,1,0,0,3,0,0	test	ward_and_allport	1,0,0,0,0,0,3,2,0	71.0	28.0	0.285	0,0,0,1,2,3,0,0,0	to_hand	s641
223.287	0.335	0	PA_without_intermediate	0,0,0,1,0,0,3,2,0	test	ward_and_allport	1,0,0,0,0,0,3,2,0	82.0	28.0	0.335	0,0,0,1,2,3,0,0,0	to_board	s641
223.629	0.635	0	PA_without_intermediate	0,0,0,0,0,0,3,2,0	test	ward_and_allport	1,0,0,0,0,0,3,2,0	71.0	28.0	0.635	0,0,0,1,2,3,0,0,0	to_hand	s641
224.266	0.287	0	PA_without_intermediate	1,0,0,0,0,0,3,2,0	test	ward_and_allport	1,0,0,0,0,0,3,2,0	89.0	28.0	0.287	0,0,0,1,2,3,0,0,0	to_board	s641
224.564	1.0	0	PA_without_intermediate	n/a	test	ward_and_allport	n/a	-1.0	28.0	n/a	n/a	feedback	s641
225.564	1.272	0	PA_without_intermediate	n/a	test	ward_and_allport	n/a	-1.0	28.0	n/a	n/a	ITI	s641
226.841	1.103	1	PA_with_intermediate	1,2,0,0,0,0,0,0,0	test	ward_and_allport	1,0,0,0,0,0,2,3,0	89.0	29.0	1.103	1,2,3,0,0,0,0,0,0	to_hand	s641
227.945	0.467	0	PA_with_intermediate	1,2,0,3,0,0,0,0,0	test	ward_and_allport	1,0,0,0,0,0,2,3,0	71.0	29.0	0.467	1,2,3,0,0,0,0,0,0	to_board	s641
228.42	0.34	0	PA_with_intermediate	1,0,0,3,0,0,0,0,0	test	ward_and_allport	1,0,0,0,0,0,2,3,0	89.0	29.0	0.34	1,2,3,0,0,0,0,0,0	to_hand	s641
228.762	0.421	0	PA_with_intermediate	1,0,0,3,0,0,2,0,0	test	ward_and_allport	1,0,0,0,0,0,2,3,0	82.0	29.0	0.421	1,2,3,0,0,0,0,0,0	to_board	s641
229.189	0.285	0	PA_with_intermediate	1,0,0,0,0,0,2,0,0	test	ward_and_allport	1,0,0,0,0,0,2,3,0	71.0	29.0	0.285	1,2,3,0,0,0,0,0,0	to_hand	s641
229.476	0.29	0	PA_with_intermediate	1,0,0,0,0,0,2,3,0	test	ward_and_allport	1,0,0,0,0,0,2,3,0	82.0	29.0	0.29	1,2,3,0,0,0,0,0,0	to_board	s641
229.775	1.0	0	PA_with_intermediate	n/a	test	ward_and_allport	n/a	-1.0	29.0	n/a	n/a	feedback	s641
230.775	2.632	0	PA_with_intermediate	n/a	test	ward_and_allport	n/a	-1.0	29.0	n/a	n/a	ITI	s641
238.418	0.985	1	PA_without_intermediate	1,2,0,0,0,0,0,0,0	test	ward_and_allport	0,0,0,3,1,0,2,0,0	89.0	30.0	0.985	1,2,3,0,0,0,0,0,0	to_hand	s641
239.405	0.251	0	PA_without_intermediate	1,2,0,3,0,0,0,0,0	test	ward_and_allport	0,0,0,3,1,0,2,0,0	71.0	30.0	0.251	1,2,3,0,0,0,0,0,0	to_board	s641
239.664	0.347	0	PA_without_intermediate	1,0,0,3,0,0,0,0,0	test	ward_and_allport	0,0,0,3,1,0,2,0,0	89.0	30.0	0.347	1,2,3,0,0,0,0,0,0	to_hand	s641
240.012	0.3	0	PA_without_intermediate	1,0,0,3,0,0,2,0,0	test	ward_and_allport	0,0,0,3,1,0,2,0,0	82.0	30.0	0.3	1,2,3,0,0,0,0,0,0	to_board	s641
240.321	0.368	0	PA_without_intermediate	0,0,0,3,0,0,2,0,0	test	ward_and_allport	0,0,0,3,1,0,2,0,0	89.0	30.0	0.368	1,2,3,0,0,0,0,0,0	to_hand	s641
240.69	0.246	0	PA_without_intermediate	0,0,0,3,1,0,2,0,0	test	ward_and_allport	0,0,0,3,1,0,2,0,0	71.0	30.0	0.246	1,2,3,0,0,0,0,0,0	to_board	s641
240.949	1.0	0	PA_without_intermediate	n/a	test	ward_and_allport	n/a	-1.0	30.0	n/a	n/a	feedback	s641
241.949	1.408	0	PA_without_intermediate	n/a	test	ward_and_allport	n/a	-1.0	30.0	n/a	n/a	ITI	s641
243.368	0.896	1	PA_without_intermediate	0,0,0,1,2,0,0,0,0	test	ward_and_allport	3,2,0,0,0,0,1,0,0	71.0	31.0	0.896	0,0,0,1,2,3,0,0,0	to_hand	s641
244.265	0.566	0	PA_without_intermediate	3,0,0,1,2,0,0,0,0	test	ward_and_allport	3,2,0,0,0,0,1,0,0	89.0	31.0	0.566	0,0,0,1,2,3,0,0,0	to_board	s641
244.84	0.293	0	PA_without_intermediate	3,0,0,1,0,0,0,0,0	test	ward_and_allport	3,2,0,0,0,0,1,0,0	71.0	31.0	0.293	0,0,0,1,2,3,0,0,0	to_hand	s641
245.134	0.293	0	PA_without_intermediate	3,2,0,1,0,0,0,0,0	test	ward_and_allport	3,2,0,0,0,0,1,0,0	89.0	31.0	0.293	0,0,0,1,2,3,0,0,0	to_board	s641
245.433	0.329	0	PA_without_intermediate	3,2,0,0,0,0,0,0,0	test	ward_and_allport	3,2,0,0,0,0,1,0,0	71.0	31.0	0.329	0,0,0,1,2,3,0,0,0	to_hand	s641
245.764	0.249	0	PA_without_intermediate	3,2,0,0,0,0,1,0,0	test	ward_and_allport	3,2,0,0,0,0,1,0,0	82.0	31.0	0.249	0,0,0,1,2,3,0,0,0	to_board	s641
246.024	1.0	0	PA_without_intermediate	n/a	test	ward_and_allport	n/a	-1.0	31.0	n/a	n/a	feedback	s641
247.024	1.0	0	PA_without_intermediate	n/a	test	ward_and_allport	n/a	-1.0	31.0	n/a	n/a	ITI	s641
248.031	0.736	1	PA_with_intermediate	0,0,0,0,0,0,1,2,0	test	ward_and_allport	0,0,0,2,0,0,1,3,0	82.0	32.0	0.736	0,0,0,0,0,0,1,2,3	to_hand	s641
248.769	1.058	0	PA_with_intermediate	3,0,0,0,0,0,1,2,0	test	ward_and_allport	0,0,0,2,0,0,1,3,0	89.0	32.0	1.058	0,0,0,0,0,0,1,2,3	to_board	s641
249.834	0.797	0	PA_with_intermediate	3,0,0,0,0,0,1,0,0	test	ward_and_allport	0,0,0,2,0,0,1,3,0	82.0	32.0	0.797	0,0,0,0,0,0,1,2,3	to_hand	s641
250.632	0.188	0	PA_with_intermediate	3,0,0,2,0,0,1,0,0	test	ward_and_allport	0,0,0,2,0,0,1,3,0	71.0	32.0	0.188	0,0,0,0,0,0,1,2,3	to_board	s641
250.826	0.339	0	PA_with_intermediate	0,0,0,2,0,0,1,0,0	test	ward_and_allport	0,0,0,2,0,0,1,3,0	89.0	32.0	0.339	0,0,0,0,0,0,1,2,3	to_hand	s641
251.166	0.217	0	PA_with_intermediate	0,0,0,2,0,0,1,3,0	test	ward_and_allport	0,0,0,2,0,0,1,3,0	82.0	32.0	0.217	0,0,0,0,0,0,1,2,3	to_board	s641
251.393	1.0	0	PA_with_intermediate	n/a	test	ward_and_allport	n/a	-1.0	32.0	n/a	n/a	feedback	s641
252.393	1.0	0	PA_with_intermediate	n/a	test	ward_and_allport	n/a	-1.0	32.0	n/a	n/a	ITI	s641
253.4	0.89	1	PA_with_intermediate	1,2,0,0,0,0,0,0,0	test	ward_and_allport	1,3,0,0,0,0,2,0,0	89.0	33.0	0.89	1,2,3,0,0,0,0,0,0	to_hand	s641
254.291	0.749	0	PA_with_intermediate	1,2,0,0,0,0,3,0,0	test	ward_and_allport	1,3,0,0,0,0,2,0,0	82.0	33.0	0.749	1,2,3,0,0,0,0,0,0	to_board	s641
255.047	1.213	0	PA_with_intermediate	1,2,0,0,0,0,0,0,0	test	ward_and_allport	1,3,0,0,0,0,2,0,0	82.0	33.0	1.213	1,2,3,0,0,0,0,0,0	to_hand	s641
256.262	0.208	0	PA_with_intermediate	1,2,0,3,0,0,0,0,0	test	ward_and_allport	1,3,0,0,0,0,2,0,0	71.0	33.0	0.208	1,2,3,0,0,0,0,0,0	to_board	s641
256.477	0.412	0	PA_with_intermediate	1,0,0,3,0,0,0,0,0	test	ward_and_allport	1,3,0,0,0,0,2,0,0	89.0	33.0	0.412	1,2,3,0,0,0,0,0,0	to_hand	s641
256.891	0.204	0	PA_with_intermediate	1,0,0,3,0,0,2,0,0	test	ward_and_allport	1,3,0,0,0,0,2,0,0	82.0	33.0	0.204	1,2,3,0,0,0,0,0,0	to_board	s641
257.104	0.529	0	PA_with_intermediate	1,0,0,0,0,0,2,0,0	test	ward_and_allport	1,3,0,0,0,0,2,0,0	71.0	33.0	0.529	1,2,3,0,0,0,0,0,0	to_hand	s641
257.635	0.205	0	PA_with_intermediate	1,3,0,0,0,0,2,0,0	test	ward_and_allport	1,3,0,0,0,0,2,0,0	89.0	33.0	0.205	1,2,3,0,0,0,0,0,0	to_board	s641
257.853	1.0	0	PA_with_intermediate	n/a	test	ward_and_allport	n/a	-1.0	33.0	n/a	n/a	feedback	s641
258.853	1.0	0	PA_with_intermediate	n/a	test	ward_and_allport	n/a	-1.0	33.0	n/a	n/a	ITI	s641
259.861	0.813	1	PA_with_intermediate	1,2,0,0,0,0,0,0,0	test	ward_and_allport	1,3,0,2,0,0,0,0,0	89.0	34.0	0.813	1,2,3,0,0,0,0,0,0	to_hand	s641
260.676	0.738	0	PA_with_intermediate	1,2,0,0,0,0,3,0,0	test	ward_and_allport	1,3,0,2,0,0,0,0,0	82.0	34.0	0.738	1,2,3,0,0,0,0,0,0	to_board	s641
261.419	0.318	0	PA_with_intermediate	1,0,0,0,0,0,3,0,0	test	ward_and_allport	1,3,0,2,0,0,0,0,0	89.0	34.0	0.318	1,2,3,0,0,0,0,0,0	to_hand	s641
261.739	0.226	0	PA_with_intermediate	1,0,0,2,0,0,3,0,0	test	ward_and_allport	1,3,0,2,0,0,0,0,0	71.0	34.0	0.226	1,2,3,0,0,0,0,0,0	to_board	s641
261.971	0.234	0	PA_with_intermediate	1,0,0,2,0,0,0,0,0	test	ward_and_allport	1,3,0,2,0,0,0,0,0	82.0	34.0	0.234	1,2,3,0,0,0,0,0,0	to_hand	s641
262.207	0.283	0	PA_with_intermediate	1,3,0,2,0,0,0,0,0	test	ward_and_allport	1,3,0,2,0,0,0,0,0	89.0	34.0	0.283	1,2,3,0,0,0,0,0,0	to_board	s641
262.5	1.0	0	PA_with_intermediate	n/a	test	ward_and_allport	n/a	-1.0	34.0	n/a	n/a	feedback	s641
263.5	1.408	0	PA_with_intermediate	n/a	test	ward_and_allport	n/a	-1.0	34.0	n/a	n/a	ITI	s641
264.917	0.878	1	PA_without_intermediate	1,2,0,0,0,0,0,0,0	test	ward_and_allport	0,0,0,1,0,0,3,2,0	89.0	35.0	0.878	1,2,3,0,0,0,0,0,0	to_hand	s641
265.796	0.291	0	PA_without_intermediate	1,2,0,0,0,0,3,0,0	test	ward_and_allport	0,0,0,1,0,0,3,2,0	82.0	35.0	0.291	1,2,3,0,0,0,0,0,0	to_board	s641
266.092	0.323	0	PA_without_intermediate	1,0,0,0,0,0,3,0,0	test	ward_and_allport	0,0,0,1,0,0,3,2,0	89.0	35.0	0.323	1,2,3,0,0,0,0,0,0	to_hand	s641
266.417	0.252	0	PA_without_intermediate	1,0,0,0,0,0,3,2,0	test	ward_and_allport	0,0,0,1,0,0,3,2,0	82.0	35.0	0.252	1,2,3,0,0,0,0,0,0	to_board	s641
266.675	0.552	0	PA_without_intermediate	0,0,0,0,0,0,3,2,0	test	ward_and_allport	0,0,0,1,0,0,3,2,0	89.0	35.0	0.552	1,2,3,0,0,0,0,0,0	to_hand	s641
267.228	0.189	0	PA_without_intermediate	0,0,0,1,0,0,3,2,0	test	ward_and_allport	0,0,0,1,0,0,3,2,0	71.0	35.0	0.189	1,2,3,0,0,0,0,0,0	to_board	s641
267.426	1.0	0	PA_without_intermediate	n/a	test	ward_and_allport	n/a	-1.0	35.0	n/a	n/a	feedback	s641
268.426	1.816	0	PA_without_intermediate	n/a	test	ward_and_allport	n/a	-1.0	35.0	n/a	n/a	ITI	s641
270.25	1.107	1	PA_with_intermediate	0,0,0,1,2,0,0,0,0	test	ward_and_allport	2,3,0,1,0,0,0,0,0	71.0	36.0	1.107	0,0,0,1,2,3,0,0,0	to_hand	s641
271.358	0.522	0	PA_with_intermediate	0,0,0,1,2,0,3,0,0	test	ward_and_allport	2,3,0,1,0,0,0,0,0	82.0	36.0	0.522	0,0,0,1,2,3,0,0,0	to_board	s641
271.888	0.294	0	PA_with_intermediate	0,0,0,1,0,0,3,0,0	test	ward_and_allport	2,3,0,1,0,0,0,0,0	71.0	36.0	0.294	0,0,0,1,2,3,0,0,0	to_hand	s641
272.183	0.225	0	PA_with_intermediate	2,0,0,1,0,0,3,0,0	test	ward_and_allport	2,3,0,1,0,0,0,0,0	89.0	36.0	0.225	0,0,0,1,2,3,0,0,0	to_board	s641
272.415	0.252	0	PA_with_intermediate	2,0,0,1,0,0,0,0,0	test	ward_and_allport	2,3,0,1,0,0,0,0,0	82.0	36.0	0.252	0,0,0,1,2,3,0,0,0	to_hand	s641
272.668	0.239	0	PA_with_intermediate	2,3,0,1,0,0,0,0,0	test	ward_and_allport	2,3,0,1,0,0,0,0,0	89.0	36.0	0.239	0,0,0,1,2,3,0,0,0	to_board	s641
272.919	1.0	0	PA_with_intermediate	n/a	test	ward_and_allport	n/a	-1.0	36.0	n/a	n/a	feedback	s641
273.919	3.176	0	PA_with_intermediate	n/a	test	ward_and_allport	n/a	-1.0	36.0	n/a	n/a	ITI	s641
277.102	1.264	1	PA_with_intermediate	1,2,0,0,0,0,0,0,0	test	ward_and_allport	1,0,0,2,3,0,0,0,0	89.0	37.0	1.264	1,2,3,0,0,0,0,0,0	to_hand	s641
278.367	0.24	0	PA_with_intermediate	1,2,0,0,0,0,3,0,0	test	ward_and_allport	1,0,0,2,3,0,0,0,0	82.0	37.0	0.24	1,2,3,0,0,0,0,0,0	to_board	s641
278.614	0.333	0	PA_with_intermediate	1,0,0,0,0,0,3,0,0	test	ward_and_allport	1,0,0,2,3,0,0,0,0	89.0	37.0	0.333	1,2,3,0,0,0,0,0,0	to_hand	s641
278.949	0.407	0	PA_with_intermediate	1,0,0,2,0,0,3,0,0	test	ward_and_allport	1,0,0,2,3,0,0,0,0	71.0	37.0	0.407	1,2,3,0,0,0,0,0,0	to_board	s641
279.363	0.437	0	PA_with_intermediate	1,0,0,2,0,0,0,0,0	test	ward_and_allport	1,0,0,2,3,0,0,0,0	82.0	37.0	0.437	1,2,3,0,0,0,0,0,0	to_hand	s641
279.802	0.287	0	PA_with_intermediate	1,3,0,2,0,0,0,0,0	test	ward_and_allport	1,0,0,2,3,0,0,0,0	89.0	37.0	0.287	1,2,3,0,0,0,0,0,0	to_board	s641
280.096	0.193	0	PA_with_intermediate	1,0,0,2,0,0,0,0,0	test	ward_and_allport	1,0,0,2,3,0,0,0,0	89.0	37.0	0.193	1,2,3,0,0,0,0,0,0	to_hand	s641
280.291	0.635	0	PA_with_intermediate	1,0,0,2,3,0,0,0,0	test	ward_and_allport	1,0,0,2,3,0,0,0,0	71.0	37.0	0.635	1,2,3,0,0,0,0,0,0	to_board	s641
280.937	1.0	0	PA_with_intermediate	n/a	test	ward_and_allport	n/a	-1.0	37.0	n/a	n/a	feedback	s641
281.937	2.36	0	PA_with_intermediate	n/a	test	ward_and_allport	n/a	-1.0	37.0	n/a	n/a	ITI	s641
284.305	0.711	1	PA_with_intermediate	1,2,0,0,0,0,0,0,0	test	ward_and_allport	1,3,0,0,0,0,2,0,0	89.0	38.0	0.711	1,2,3,0,0,0,0,0,0	to_hand	s641
285.018	0.678	0	PA_with_intermediate	1,2,0,0,0,0,3,0,0	test	ward_and_allport	1,3,0,0,0,0,2,0,0	82.0	38.0	0.678	1,2,3,0,0,0,0,0,0	to_board	s641
285.703	0.673	0	PA_with_intermediate	1,2,0,0,0,0,0,0,0	test	ward_and_allport	1,3,0,0,0,0,2,0,0	82.0	38.0	0.673	1,2,3,0,0,0,0,0,0	to_hand	s641
286.377	0.135	0	PA_with_intermediate	1,2,0,3,0,0,0,0,0	test	ward_and_allport	1,3,0,0,0,0,2,0,0	71.0	38.0	0.135	1,2,3,0,0,0,0,0,0	to_board	s641
286.52	0.677	0	PA_with_intermediate	1,0,0,3,0,0,0,0,0	test	ward_and_allport	1,3,0,0,0,0,2,0,0	89.0	38.0	0.677	1,2,3,0,0,0,0,0,0	to_hand	s641
287.198	0.308	0	PA_with_intermediate	1,0,0,3,0,0,2,0,0	test	ward_and_allport	1,3,0,0,0,0,2,0,0	82.0	38.0	0.308	1,2,3,0,0,0,0,0,0	to_board	s641
287.514	0.635	0	PA_with_intermediate	1,0,0,0,0,0,2,0,0	test	ward_and_allport	1,3,0,0,0,0,2,0,0	71.0	38.0	0.635	1,2,3,0,0,0,0,0,0	to_hand	s641
288.15	0.2	0	PA_with_intermediate	1,3,0,0,0,0,2,0,0	test	ward_and_allport	1,3,0,0,0,0,2,0,0	89.0	38.0	0.2	1,2,3,0,0,0,0,0,0	to_board	s641
288.359	1.0	0	PA_with_intermediate	n/a	test	ward_and_allport	n/a	-1.0	38.0	n/a	n/a	feedback	s641
289.359	1.0	0	PA_with_intermediate	n/a	test	ward_and_allport	n/a	-1.0	38.0	n/a	n/a	ITI	s641
290.365	0.96	1	PA_without_intermediate	0,0,0,0,0,0,1,2,0	test	ward_and_allport	1,0,0,3,2,0,0,0,0	82.0	39.0	0.96	0,0,0,0,0,0,1,2,3	to_hand	s641
291.327	0.31	0	PA_without_intermediate	0,0,0,3,0,0,1,2,0	test	ward_and_allport	1,0,0,3,2,0,0,0,0	71.0	39.0	0.31	0,0,0,0,0,0,1,2,3	to_board	s641
291.644	0.317	0	PA_without_intermediate	0,0,0,3,0,0,1,0,0	test	ward_and_allport	1,0,0,3,2,0,0,0,0	82.0	39.0	0.317	0,0,0,0,0,0,1,2,3	to_hand	s641
291.961	0.254	0	PA_without_intermediate	0,0,0,3,2,0,1,0,0	test	ward_and_allport	1,0,0,3,2,0,0,0,0	71.0	39.0	0.254	0,0,0,0,0,0,1,2,3	to_board	s641
292.222	0.585	0	PA_without_intermediate	0,0,0,3,2,0,0,0,0	test	ward_and_allport	1,0,0,3,2,0,0,0,0	82.0	39.0	0.585	0,0,0,0,0,0,1,2,3	to_hand	s641
292.809	0.272	0	PA_without_intermediate	1,0,0,3,2,0,0,0,0	test	ward_and_allport	1,0,0,3,2,0,0,0,0	89.0	39.0	0.272	0,0,0,0,0,0,1,2,3	to_board	s641
293.093	1.0	0	PA_without_intermediate	n/a	test	ward_and_allport	n/a	-1.0	39.0	n/a	n/a	feedback	s641
294.093	1.408	0	PA_without_intermediate	n/a	test	ward_and_allport	n/a	-1.0	39.0	n/a	n/a	ITI	s641
295.509	1.2	1	PA_with_intermediate	0,0,0,0,0,0,1,2,0	test	ward_and_allport	2,3,0,0,0,0,1,0,0	82.0	40.0	1.2	0,0,0,0,0,0,1,2,3	to_hand	s641
296.71	0.292	0	PA_with_intermediate	0,0,0,3,0,0,1,2,0	test	ward_and_allport	2,3,0,0,0,0,1,0,0	71.0	40.0	0.292	0,0,0,0,0,0,1,2,3	to_board	s641
297.009	0.486	0	PA_with_intermediate	0,0,0,3,0,0,1,0,0	test	ward_and_allport	2,3,0,0,0,0,1,0,0	82.0	40.0	0.486	0,0,0,0,0,0,1,2,3	to_hand	s641
297.495	0.288	0	PA_with_intermediate	0,0,0,3,2,0,1,0,0	test	ward_and_allport	2,3,0,0,0,0,1,0,0	71.0	40.0	0.288	0,0,0,0,0,0,1,2,3	to_board	s641
297.791	0.695	0	PA_with_intermediate	0,0,0,3,0,0,1,0,0	test	ward_and_allport	2,3,0,0,0,0,1,0,0	71.0	40.0	0.695	0,0,0,0,0,0,1,2,3	to_hand	s641
298.487	0.145	0	PA_with_intermediate	2,0,0,3,0,0,1,0,0	test	ward_and_allport	2,3,0,0,0,0,1,0,0	89.0	40.0	0.145	0,0,0,0,0,0,1,2,3	to_board	s641
298.639	0.722	0	PA_with_intermediate	2,0,0,0,0,0,1,0,0	test	ward_and_allport	2,3,0,0,0,0,1,0,0	71.0	40.0	0.722	0,0,0,0,0,0,1,2,3	to_hand	s641
299.362	0.127	0	PA_with_intermediate	2,3,0,0,0,0,1,0,0	test	ward_and_allport	2,3,0,0,0,0,1,0,0	89.0	40.0	0.127	0,0,0,0,0,0,1,2,3	to_board	s641
299.5	1.0	0	PA_with_intermediate	n/a	test	ward_and_allport	n/a	-1.0	40.0	n/a	n/a	feedback	s641
300.5	1.816	0	PA_with_intermediate	n/a	test	ward_and_allport	n/a	-1.0	40.0	n/a	n/a	ITI	s641
302.323	0.925	1	PA_without_intermediate	1,2,0,0,0,0,0,0,0	test	ward_and_allport	0,0,0,2,0,0,3,1,0	89.0	41.0	0.925	1,2,3,0,0,0,0,0,0	to_hand	s641
303.249	0.269	0	PA_without_intermediate	1,2,0,0,0,0,3,0,0	test	ward_and_allport	0,0,0,2,0,0,3,1,0	82.0	41.0	0.269	1,2,3,0,0,0,0,0,0	to_board	s641
303.525	0.705	0	PA_without_intermediate	1,0,0,0,0,0,3,0,0	test	ward_and_allport	0,0,0,2,0,0,3,1,0	89.0	41.0	0.705	1,2,3,0,0,0,0,0,0	to_hand	s641
304.231	0.276	0	PA_without_intermediate	1,0,0,2,0,0,3,0,0	test	ward_and_allport	0,0,0,2,0,0,3,1,0	71.0	41.0	0.276	1,2,3,0,0,0,0,0,0	to_board	s641
304.514	0.268	0	PA_without_intermediate	0,0,0,2,0,0,3,0,0	test	ward_and_allport	0,0,0,2,0,0,3,1,0	89.0	41.0	0.268	1,2,3,0,0,0,0,0,0	to_hand	s641
304.784	0.318	0	PA_without_intermediate	0,0,0,2,0,0,3,1,0	test	ward_and_allport	0,0,0,2,0,0,3,1,0	82.0	41.0	0.318	1,2,3,0,0,0,0,0,0	to_board	s641
305.114	1.0	0	PA_without_intermediate	n/a	test	ward_and_allport	n/a	-1.0	41.0	n/a	n/a	feedback	s641
306.114	2.088	0	PA_without_intermediate	n/a	test	ward_and_allport	n/a	-1.0	41.0	n/a	n/a	ITI	s641
308.211	1.299	1	PA_without_intermediate	0,0,0,1,2,0,0,0,0	test	ward_and_allport	2,0,0,0,0,0,3,1,0	71.0	42.0	1.299	0,0,0,1,2,3,0,0,0	to_hand	s641
309.512	0.246	0	PA_without_intermediate	0,0,0,1,2,0,3,0,0	test	ward_and_allport	2,0,0,0,0,0,3,1,0	82.0	42.0	0.246	0,0,0,1,2,3,0,0,0	to_board	s641
309.767	0.788	0	PA_without_intermediate	0,0,0,1,0,0,3,0,0	test	ward_and_allport	2,0,0,0,0,0,3,1,0	71.0	42.0	0.788	0,0,0,1,2,3,0,0,0	to_hand	s641
310.556	0.125	0	PA_without_intermediate	2,0,0,1,0,0,3,0,0	test	ward_and_allport	2,0,0,0,0,0,3,1,0	89.0	42.0	0.125	0,0,0,1,2,3,0,0,0	to_board	s641
310.689	0.549	0	PA_without_intermediate	2,0,0,0,0,0,3,0,0	test	ward_and_allport	2,0,0,0,0,0,3,1,0	71.0	42.0	0.549	0,0,0,1,2,3,0,0,0	to_hand	s641
311.239	0.163	0	PA_without_intermediate	2,0,0,0,0,0,3,1,0	test	ward_and_allport	2,0,0,0,0,0,3,1,0	82.0	42.0	0.163	0,0,0,1,2,3,0,0,0	to_board	s641
311.416	1.0	0	PA_without_intermediate	n/a	test	ward_and_allport	n/a	-1.0	42.0	n/a	n/a	feedback	s641
312.416	1.136	0	PA_without_intermediate	n/a	test	ward_and_allport	n/a	-1.0	42.0	n/a	n/a	ITI	s641
313.56	1.07	1	PA_without_intermediate	1,2,0,0,0,0,0,0,0	test	ward_and_allport	0,0,0,3,2,0,1,0,0	89.0	43.0	1.07	1,2,3,0,0,0,0,0,0	to_hand	s641
314.632	0.234	0	PA_without_intermediate	1,2,0,3,0,0,0,0,0	test	ward_and_allport	0,0,0,3,2,0,1,0,0	71.0	43.0	0.234	1,2,3,0,0,0,0,0,0	to_board	s641
314.874	0.267	0	PA_without_intermediate	1,0,0,3,0,0,0,0,0	test	ward_and_allport	0,0,0,3,2,0,1,0,0	89.0	43.0	0.267	1,2,3,0,0,0,0,0,0	to_hand	s641
315.143	0.182	0	PA_without_intermediate	1,0,0,3,2,0,0,0,0	test	ward_and_allport	0,0,0,3,2,0,1,0,0	71.0	43.0	0.182	1,2,3,0,0,0,0,0,0	to_board	s641
315.333	0.504	0	PA_without_intermediate	0,0,0,3,2,0,0,0,0	test	ward_and_allport	0,0,0,3,2,0,1,0,0	89.0	43.0	0.504	1,2,3,0,0,0,0,0,0	to_hand	s641
315.839	0.216	0	PA_without_intermediate	0,0,0,3,2,0,1,0,0	test	ward_and_allport	0,0,0,3,2,0,1,0,0	82.0	43.0	0.216	1,2,3,0,0,0,0,0,0	to_board	s641
316.067	1.0	0	PA_without_intermediate	n/a	test	ward_and_allport	n/a	-1.0	43.0	n/a	n/a	feedback	s641
317.067	6.168	0	PA_without_intermediate	n/a	test	ward_and_allport	n/a	-1.0	43.0	n/a	n/a	ITI	s641
323.242	0.787	1	PA_without_intermediate	1,2,0,0,0,0,0,0,0	test	ward_and_allport	0,0,0,2,0,0,3,1,0	89.0	44.0	0.787	1,2,3,0,0,0,0,0,0	to_hand	s641
324.031	0.277	0	PA_without_intermediate	1,2,0,0,0,0,3,0,0	test	ward_and_allport	0,0,0,2,0,0,3,1,0	82.0	44.0	0.277	1,2,3,0,0,0,0,0,0	to_board	s641
324.317	0.367	0	PA_without_intermediate	1,0,0,0,0,0,3,0,0	test	ward_and_allport	0,0,0,2,0,0,3,1,0	89.0	44.0	0.367	1,2,3,0,0,0,0,0,0	to_hand	s641
324.685	0.319	0	PA_without_intermediate	1,0,0,2,0,0,3,0,0	test	ward_and_allport	0,0,0,2,0,0,3,1,0	71.0	44.0	0.319	1,2,3,0,0,0,0,0,0	to_board	s641
325.014	0.192	0	PA_without_intermediate	0,0,0,2,0,0,3,0,0	test	ward_and_allport	0,0,0,2,0,0,3,1,0	89.0	44.0	0.192	1,2,3,0,0,0,0,0,0	to_hand	s641
325.207	0.193	0	PA_without_intermediate	0,0,0,2,0,0,3,1,0	test	ward_and_allport	0,0,0,2,0,0,3,1,0	82.0	44.0	0.193	1,2,3,0,0,0,0,0,0	to_board	s641
325.416	1.0	0	PA_without_intermediate	n/a	test	ward_and_allport	n/a	-1.0	44.0	n/a	n/a	feedback	s641
326.416	1.816	0	PA_without_intermediate	n/a	test	ward_and_allport	n/a	-1.0	44.0	n/a	n/a	ITI	s641
333.251	0.68	1	PA_with_intermediate	0,0,0,0,0,0,1,2,0	test	ward_and_allport	0,0,0,2,0,0,1,3,0	82.0	45.0	0.68	0,0,0,0,0,0,1,2,3	to_hand	s641
333.933	1.34	0	PA_with_intermediate	3,0,0,0,0,0,1,2,0	test	ward_and_allport	0,0,0,2,0,0,1,3,0	89.0	45.0	1.34	0,0,0,0,0,0,1,2,3	to_board	s641
335.285	0.391	0	PA_with_intermediate	3,0,0,0,0,0,1,0,0	test	ward_and_allport	0,0,0,2,0,0,1,3,0	82.0	45.0	0.391	0,0,0,0,0,0,1,2,3	to_hand	s641
335.677	0.307	0	PA_with_intermediate	3,0,0,2,0,0,1,0,0	test	ward_and_allport	0,0,0,2,0,0,1,3,0	71.0	45.0	0.307	0,0,0,0,0,0,1,2,3	to_board	s641
335.995	0.282	0	PA_with_intermediate	0,0,0,2,0,0,1,0,0	test	ward_and_allport	0,0,0,2,0,0,1,3,0	89.0	45.0	0.282	0,0,0,0,0,0,1,2,3	to_hand	s641
336.278	0.179	0	PA_with_intermediate	0,0,0,2,0,0,1,3,0	test	ward_and_allport	0,0,0,2,0,0,1,3,0	82.0	45.0	0.179	0,0,0,0,0,0,1,2,3	to_board	s641
336.473	1.0	0	PA_with_intermediate	n/a	test	ward_and_allport	n/a	-1.0	45.0	n/a	n/a	feedback	s641
337.473	1.952	0	PA_with_intermediate	n/a	test	ward_and_allport	n/a	-1.0	45.0	n/a	n/a	ITI	s641
339.436	2.027	1	PA_with_intermediate	0,0,0,1,2,0,0,0,0	test	ward_and_allport	0,0,0,1,3,0,2,0,0	71.0	46.0	2.027	0,0,0,1,2,3,0,0,0	to_hand	s641
341.465	0.292	0	PA_with_intermediate	3,0,0,1,2,0,0,0,0	test	ward_and_allport	0,0,0,1,3,0,2,0,0	89.0	46.0	0.292	0,0,0,1,2,3,0,0,0	to_board	s641
341.767	0.267	0	PA_with_intermediate	3,0,0,1,0,0,0,0,0	test	ward_and_allport	0,0,0,1,3,0,2,0,0	71.0	46.0	0.267	0,0,0,1,2,3,0,0,0	to_hand	s641
342.036	0.221	0	PA_with_intermediate	3,0,0,1,0,0,2,0,0	test	ward_and_allport	0,0,0,1,3,0,2,0,0	82.0	46.0	0.221	0,0,0,1,2,3,0,0,0	to_board	s641
342.268	0.238	0	PA_with_intermediate	0,0,0,1,0,0,2,0,0	test	ward_and_allport	0,0,0,1,3,0,2,0,0	89.0	46.0	0.238	0,0,0,1,2,3,0,0,0	to_hand	s641
342.507	0.214	0	PA_with_intermediate	0,0,0,1,3,0,2,0,0	test	ward_and_allport	0,0,0,1,3,0,2,0,0	71.0	46.0	0.214	0,0,0,1,2,3,0,0,0	to_board	s641
342.737	1.0	0	PA_with_intermediate	n/a	test	ward_and_allport	n/a	-1.0	46.0	n/a	n/a	feedback	s641
343.737	1.136	0	PA_with_intermediate	n/a	test	ward_and_allport	n/a	-1.0	46.0	n/a	n/a	ITI	s641
344.882	1.099	1	PA_without_intermediate	0,0,0,0,0,0,1,2,0	test	ward_and_allport	3,2,0,1,0,0,0,0,0	82.0	47.0	1.099	0,0,0,0,0,0,1,2,3	to_hand	s641
345.983	0.292	0	PA_without_intermediate	3,0,0,0,0,0,1,2,0	test	ward_and_allport	3,2,0,1,0,0,0,0,0	89.0	47.0	0.292	0,0,0,0,0,0,1,2,3	to_board	s641
346.283	0.337	0	PA_without_intermediate	3,0,0,0,0,0,1,0,0	test	ward_and_allport	3,2,0,1,0,0,0,0,0	82.0	47.0	0.337	0,0,0,0,0,0,1,2,3	to_hand	s641
346.622	0.274	0	PA_without_intermediate	3,2,0,0,0,0,1,0,0	test	ward_and_allport	3,2,0,1,0,0,0,0,0	89.0	47.0	0.274	0,0,0,0,0,0,1,2,3	to_board	s641
346.906	0.441	0	PA_without_intermediate	3,2,0,0,0,0,0,0,0	test	ward_and_allport	3,2,0,1,0,0,0,0,0	82.0	47.0	0.441	0,0,0,0,0,0,1,2,3	to_hand	s641
347.349	0.255	0	PA_without_intermediate	3,2,0,1,0,0,0,0,0	test	ward_and_allport	3,2,0,1,0,0,0,0,0	71.0	47.0	0.255	0,0,0,0,0,0,1,2,3	to_board	s641
347.618	1.0	0	PA_without_intermediate	n/a	test	ward_and_allport	n/a	-1.0	47.0	n/a	n/a	feedback	s641
348.618	1.68	0	PA_without_intermediate	n/a	test	ward_and_allport	n/a	-1.0	47.0	n/a	n/a	ITI	s641
n/a	n/a	0	n/a	n/a	n/a	n/a	n/a	n/a	n/a	n/a	n/a	ITI	n/a
