onset	duration	planning	condition	current_position	exp_stage	experiment_exp_id	goal_state	key_press	problem_id	response_time	start_state	trial_id	worker_id
-64.798	0.0	0	n/a	n/a	n/a	ward_and_allport	n/a	32.0	n/a	21.313	n/a	instructions	s613
3.01	3.387	1	UA_with_intermediate	1,0,0,2,0,0,0,0,0	practice	ward_and_allport	1,2,3,0,0,0,0,0,0	71.0	0.0	3.387	1,0,0,2,3,0,0,0,0	to_hand	s613
6.398	2.166	0	UA_with_intermediate	1,0,0,2,0,0,3,0,0	practice	ward_and_allport	1,2,3,0,0,0,0,0,0	82.0	0.0	2.166	1,0,0,2,3,0,0,0,0	to_board	s613
8.566	0.653	0	UA_with_intermediate	1,0,0,0,0,0,3,0,0	practice	ward_and_allport	1,2,3,0,0,0,0,0,0	71.0	0.0	0.653	1,0,0,2,3,0,0,0,0	to_hand	s613
9.219	0.455	0	UA_with_intermediate	1,2,0,0,0,0,3,0,0	practice	ward_and_allport	1,2,3,0,0,0,0,0,0	89.0	0.0	0.455	1,0,0,2,3,0,0,0,0	to_board	s613
9.676	1.799	0	UA_with_intermediate	1,0,0,0,0,0,3,0,0	practice	ward_and_allport	1,2,3,0,0,0,0,0,0	89.0	0.0	1.799	1,0,0,2,3,0,0,0,0	to_hand	s613
11.476	0.945	0	UA_with_intermediate	1,2,0,0,0,0,3,0,0	practice	ward_and_allport	1,2,3,0,0,0,0,0,0	89.0	0.0	0.945	1,0,0,2,3,0,0,0,0	to_board	s613
12.423	0.622	0	UA_with_intermediate	1,2,0,0,0,0,0,0,0	practice	ward_and_allport	1,2,3,0,0,0,0,0,0	82.0	0.0	0.622	1,0,0,2,3,0,0,0,0	to_hand	s613
13.046	0.469	0	UA_with_intermediate	1,2,3,0,0,0,0,0,0	practice	ward_and_allport	1,2,3,0,0,0,0,0,0	89.0	0.0	0.469	1,0,0,2,3,0,0,0,0	to_board	s613
13.522	1.0	0	UA_with_intermediate	n/a	practice	ward_and_allport	n/a	-1.0	0.0	n/a	n/a	feedback	s613
16.025	1.669	1	UA_with_intermediate	1,2,0,0,0,0,0,0,0	practice	ward_and_allport	1,3,2,0,0,0,0,0,0	71.0	1.0	1.669	1,2,0,3,0,0,0,0,0	to_hand	s613
17.695	1.951	0	UA_with_intermediate	1,2,0,0,0,0,3,0,0	practice	ward_and_allport	1,3,2,0,0,0,0,0,0	82.0	1.0	1.951	1,2,0,3,0,0,0,0,0	to_board	s613
19.647	1.335	0	UA_with_intermediate	1,0,0,0,0,0,3,0,0	practice	ward_and_allport	1,3,2,0,0,0,0,0,0	89.0	1.0	1.335	1,2,0,3,0,0,0,0,0	to_hand	s613
20.983	1.617	0	UA_with_intermediate	1,0,0,0,0,0,3,2,0	practice	ward_and_allport	1,3,2,0,0,0,0,0,0	82.0	1.0	1.617	1,2,0,3,0,0,0,0,0	to_board	s613
22.601	0.891	0	UA_with_intermediate	0,0,0,0,0,0,3,2,0	practice	ward_and_allport	1,3,2,0,0,0,0,0,0	89.0	1.0	0.891	1,2,0,3,0,0,0,0,0	to_hand	s613
23.493	0.541	0	UA_with_intermediate	0,0,0,1,0,0,3,2,0	practice	ward_and_allport	1,3,2,0,0,0,0,0,0	71.0	1.0	0.541	1,2,0,3,0,0,0,0,0	to_board	s613
24.035	2.225	0	UA_with_intermediate	0,0,0,0,0,0,3,2,0	practice	ward_and_allport	1,3,2,0,0,0,0,0,0	71.0	1.0	2.225	1,2,0,3,0,0,0,0,0	to_hand	s613
26.261	1.433	0	UA_with_intermediate	0,0,0,1,0,0,3,2,0	practice	ward_and_allport	1,3,2,0,0,0,0,0,0	71.0	1.0	1.433	1,2,0,3,0,0,0,0,0	to_board	s613
27.696	1.014	0	UA_with_intermediate	0,0,0,1,0,0,3,0,0	practice	ward_and_allport	1,3,2,0,0,0,0,0,0	82.0	1.0	1.014	1,2,0,3,0,0,0,0,0	to_hand	s613
28.711	0.874	0	UA_with_intermediate	2,0,0,1,0,0,3,0,0	practice	ward_and_allport	1,3,2,0,0,0,0,0,0	89.0	1.0	0.874	1,2,0,3,0,0,0,0,0	to_board	s613
29.587	2.043	0	UA_with_intermediate	2,0,0,1,0,0,0,0,0	practice	ward_and_allport	1,3,2,0,0,0,0,0,0	82.0	1.0	2.043	1,2,0,3,0,0,0,0,0	to_hand	s613
31.631	0.506	0	UA_with_intermediate	2,0,0,1,3,0,0,0,0	practice	ward_and_allport	1,3,2,0,0,0,0,0,0	71.0	1.0	0.506	1,2,0,3,0,0,0,0,0	to_board	s613
32.14	1.283	0	UA_with_intermediate	0,0,0,1,3,0,0,0,0	practice	ward_and_allport	1,3,2,0,0,0,0,0,0	89.0	1.0	1.283	1,2,0,3,0,0,0,0,0	to_hand	s613
33.424	0.748	0	UA_with_intermediate	0,0,0,1,3,2,0,0,0	practice	ward_and_allport	1,3,2,0,0,0,0,0,0	71.0	1.0	0.748	1,2,0,3,0,0,0,0,0	to_board	s613
34.174	6.003	0	UA_with_intermediate	0,0,0,1,3,0,0,0,0	practice	ward_and_allport	1,3,2,0,0,0,0,0,0	71.0	1.0	6.003	1,2,0,3,0,0,0,0,0	to_hand	s613
40.178	0.788	0	UA_with_intermediate	0,0,0,1,3,2,0,0,0	practice	ward_and_allport	1,3,2,0,0,0,0,0,0	71.0	1.0	0.788	1,2,0,3,0,0,0,0,0	to_board	s613
40.968	7.636	0	UA_with_intermediate	0,0,0,1,3,0,0,0,0	practice	ward_and_allport	1,3,2,0,0,0,0,0,0	71.0	1.0	7.636	1,2,0,3,0,0,0,0,0	to_hand	s613
48.605	0.915	0	UA_with_intermediate	2,0,0,1,3,0,0,0,0	practice	ward_and_allport	1,3,2,0,0,0,0,0,0	89.0	1.0	0.915	1,2,0,3,0,0,0,0,0	to_board	s613
49.522	1.527	0	UA_with_intermediate	0,0,0,1,3,0,0,0,0	practice	ward_and_allport	1,3,2,0,0,0,0,0,0	89.0	1.0	1.527	1,2,0,3,0,0,0,0,0	to_hand	s613
51.051	0.559	0	UA_with_intermediate	0,0,0,1,3,2,0,0,0	practice	ward_and_allport	1,3,2,0,0,0,0,0,0	71.0	1.0	0.559	1,2,0,3,0,0,0,0,0	to_board	s613
51.613	2.84	0	UA_with_intermediate	0,0,0,1,3,0,0,0,0	practice	ward_and_allport	1,3,2,0,0,0,0,0,0	71.0	1.0	2.84	1,2,0,3,0,0,0,0,0	to_hand	s613
54.454	0.757	0	UA_with_intermediate	0,0,0,1,3,2,0,0,0	practice	ward_and_allport	1,3,2,0,0,0,0,0,0	71.0	1.0	0.757	1,2,0,3,0,0,0,0,0	to_board	s613
55.213	0.469	0	UA_with_intermediate	0,0,0,1,3,0,0,0,0	practice	ward_and_allport	1,3,2,0,0,0,0,0,0	71.0	1.0	0.469	1,2,0,3,0,0,0,0,0	to_hand	s613
55.683	0.318	0	UA_with_intermediate	0,0,0,1,3,0,2,0,0	practice	ward_and_allport	1,3,2,0,0,0,0,0,0	82.0	1.0	0.318	1,2,0,3,0,0,0,0,0	to_board	s613
56.003	0.865	0	UA_with_intermediate	0,0,0,1,0,0,2,0,0	practice	ward_and_allport	1,3,2,0,0,0,0,0,0	71.0	1.0	0.865	1,2,0,3,0,0,0,0,0	to_hand	s613
56.869	0.553	0	UA_with_intermediate	0,0,0,1,0,0,2,3,0	practice	ward_and_allport	1,3,2,0,0,0,0,0,0	82.0	1.0	0.553	1,2,0,3,0,0,0,0,0	to_board	s613
57.424	0.623	0	UA_with_intermediate	0,0,0,0,0,0,2,3,0	practice	ward_and_allport	1,3,2,0,0,0,0,0,0	71.0	1.0	0.623	1,2,0,3,0,0,0,0,0	to_hand	s613
58.048	0.48	0	UA_with_intermediate	1,0,0,0,0,0,2,3,0	practice	ward_and_allport	1,3,2,0,0,0,0,0,0	89.0	1.0	0.48	1,2,0,3,0,0,0,0,0	to_board	s613
58.53	1.513	0	UA_with_intermediate	1,0,0,0,0,0,2,0,0	practice	ward_and_allport	1,3,2,0,0,0,0,0,0	82.0	1.0	1.513	1,2,0,3,0,0,0,0,0	to_hand	s613
60.044	0.404	0	UA_with_intermediate	1,3,0,0,0,0,2,0,0	practice	ward_and_allport	1,3,2,0,0,0,0,0,0	89.0	1.0	0.404	1,2,0,3,0,0,0,0,0	to_board	s613
60.451	0.801	0	UA_with_intermediate	1,3,0,0,0,0,0,0,0	practice	ward_and_allport	1,3,2,0,0,0,0,0,0	82.0	1.0	0.801	1,2,0,3,0,0,0,0,0	to_hand	s613
61.253	0.304	0	UA_with_intermediate	1,3,2,0,0,0,0,0,0	practice	ward_and_allport	1,3,2,0,0,0,0,0,0	89.0	1.0	0.304	1,2,0,3,0,0,0,0,0	to_board	s613
61.565	1.0	0	UA_with_intermediate	n/a	practice	ward_and_allport	n/a	-1.0	1.0	n/a	n/a	feedback	s613
62.565	1.1	0	UA_with_intermediate	n/a	practice	ward_and_allport	n/a	-1.0	1.0	n/a	n/a	ITI	s613
63.668	2.581	1	UA_without_intermediate	0,0,0,1,0,0,3,0,0	practice	ward_and_allport	3,2,1,0,0,0,0,0,0	71.0	2.0	2.581	0,0,0,1,2,0,3,0,0	to_hand	s613
66.25	0.544	0	UA_without_intermediate	2,0,0,1,0,0,3,0,0	practice	ward_and_allport	3,2,1,0,0,0,0,0,0	89.0	2.0	0.544	0,0,0,1,2,0,3,0,0	to_board	s613
66.796	2.092	0	UA_without_intermediate	2,0,0,0,0,0,3,0,0	practice	ward_and_allport	3,2,1,0,0,0,0,0,0	71.0	2.0	2.092	0,0,0,1,2,0,3,0,0	to_hand	s613
68.889	0.997	0	UA_without_intermediate	2,1,0,0,0,0,3,0,0	practice	ward_and_allport	3,2,1,0,0,0,0,0,0	89.0	2.0	0.997	0,0,0,1,2,0,3,0,0	to_board	s613
69.889	0.839	0	UA_without_intermediate	2,1,0,0,0,0,0,0,0	practice	ward_and_allport	3,2,1,0,0,0,0,0,0	82.0	2.0	0.839	0,0,0,1,2,0,3,0,0	to_hand	s613
70.729	0.462	0	UA_without_intermediate	2,1,0,3,0,0,0,0,0	practice	ward_and_allport	3,2,1,0,0,0,0,0,0	71.0	2.0	0.462	0,0,0,1,2,0,3,0,0	to_board	s613
71.194	1.373	0	UA_without_intermediate	2,1,0,0,0,0,0,0,0	practice	ward_and_allport	3,2,1,0,0,0,0,0,0	71.0	2.0	1.373	0,0,0,1,2,0,3,0,0	to_hand	s613
72.568	0.877	0	UA_without_intermediate	2,1,0,3,0,0,0,0,0	practice	ward_and_allport	3,2,1,0,0,0,0,0,0	71.0	2.0	0.877	0,0,0,1,2,0,3,0,0	to_board	s613
73.446	1.537	0	UA_without_intermediate	2,0,0,3,0,0,0,0,0	practice	ward_and_allport	3,2,1,0,0,0,0,0,0	89.0	2.0	1.537	0,0,0,1,2,0,3,0,0	to_hand	s613
74.985	1.133	0	UA_without_intermediate	2,0,0,3,0,0,1,0,0	practice	ward_and_allport	3,2,1,0,0,0,0,0,0	82.0	2.0	1.133	0,0,0,1,2,0,3,0,0	to_board	s613
76.12	0.924	0	UA_without_intermediate	0,0,0,3,0,0,1,0,0	practice	ward_and_allport	3,2,1,0,0,0,0,0,0	89.0	2.0	0.924	0,0,0,1,2,0,3,0,0	to_hand	s613
77.046	0.531	0	UA_without_intermediate	0,0,0,3,2,0,1,0,0	practice	ward_and_allport	3,2,1,0,0,0,0,0,0	71.0	2.0	0.531	0,0,0,1,2,0,3,0,0	to_board	s613
77.58	1.327	0	UA_without_intermediate	0,0,0,3,2,0,0,0,0	practice	ward_and_allport	3,2,1,0,0,0,0,0,0	82.0	2.0	1.327	0,0,0,1,2,0,3,0,0	to_hand	s613
78.907	0.595	0	UA_without_intermediate	0,0,0,3,2,1,0,0,0	practice	ward_and_allport	3,2,1,0,0,0,0,0,0	71.0	2.0	0.595	0,0,0,1,2,0,3,0,0	to_board	s613
79.506	2.737	0	UA_without_intermediate	0,0,0,3,2,0,0,0,0	practice	ward_and_allport	3,2,1,0,0,0,0,0,0	71.0	2.0	2.737	0,0,0,1,2,0,3,0,0	to_hand	s613
82.244	0.885	0	UA_without_intermediate	0,0,0,3,2,0,1,0,0	practice	ward_and_allport	3,2,1,0,0,0,0,0,0	82.0	2.0	0.885	0,0,0,1,2,0,3,0,0	to_board	s613
83.131	0.529	0	UA_without_intermediate	0,0,0,3,0,0,1,0,0	practice	ward_and_allport	3,2,1,0,0,0,0,0,0	71.0	2.0	0.529	0,0,0,1,2,0,3,0,0	to_hand	s613
83.66	0.584	0	UA_without_intermediate	0,0,0,3,0,0,1,2,0	practice	ward_and_allport	3,2,1,0,0,0,0,0,0	82.0	2.0	0.584	0,0,0,1,2,0,3,0,0	to_board	s613
84.248	0.643	0	UA_without_intermediate	0,0,0,0,0,0,1,2,0	practice	ward_and_allport	3,2,1,0,0,0,0,0,0	71.0	2.0	0.643	0,0,0,1,2,0,3,0,0	to_hand	s613
84.892	0.486	0	UA_without_intermediate	3,0,0,0,0,0,1,2,0	practice	ward_and_allport	3,2,1,0,0,0,0,0,0	89.0	2.0	0.486	0,0,0,1,2,0,3,0,0	to_board	s613
85.38	1.704	0	UA_without_intermediate	3,0,0,0,0,0,1,0,0	practice	ward_and_allport	3,2,1,0,0,0,0,0,0	82.0	2.0	1.704	0,0,0,1,2,0,3,0,0	to_hand	s613
87.085	0.487	0	UA_without_intermediate	3,2,0,0,0,0,1,0,0	practice	ward_and_allport	3,2,1,0,0,0,0,0,0	89.0	2.0	0.487	0,0,0,1,2,0,3,0,0	to_board	s613
87.575	0.647	0	UA_without_intermediate	3,2,0,0,0,0,0,0,0	practice	ward_and_allport	3,2,1,0,0,0,0,0,0	82.0	2.0	0.647	0,0,0,1,2,0,3,0,0	to_hand	s613
88.223	0.407	0	UA_without_intermediate	3,2,1,0,0,0,0,0,0	practice	ward_and_allport	3,2,1,0,0,0,0,0,0	89.0	2.0	0.407	0,0,0,1,2,0,3,0,0	to_board	s613
88.637	1.0	0	UA_without_intermediate	n/a	practice	ward_and_allport	n/a	-1.0	2.0	n/a	n/a	feedback	s613
89.637	1.2	0	UA_without_intermediate	n/a	practice	ward_and_allport	n/a	-1.0	2.0	n/a	n/a	ITI	s613
90.842	9.551	1	UA_without_intermediate	0,0,0,1,0,0,3,0,0	practice	ward_and_allport	2,3,1,0,0,0,0,0,0	71.0	3.0	9.551	0,0,0,1,2,0,3,0,0	to_hand	s613
100.394	3.7	0	UA_without_intermediate	0,0,0,1,0,0,3,2,0	practice	ward_and_allport	2,3,1,0,0,0,0,0,0	82.0	3.0	3.7	0,0,0,1,2,0,3,0,0	to_board	s613
104.097	0.97	0	UA_without_intermediate	0,0,0,0,0,0,3,2,0	practice	ward_and_allport	2,3,1,0,0,0,0,0,0	71.0	3.0	0.97	0,0,0,1,2,0,3,0,0	to_hand	s613
105.068	0.453	0	UA_without_intermediate	1,0,0,0,0,0,3,2,0	practice	ward_and_allport	2,3,1,0,0,0,0,0,0	89.0	3.0	0.453	0,0,0,1,2,0,3,0,0	to_board	s613
105.524	2.417	0	UA_without_intermediate	1,0,0,0,0,0,3,0,0	practice	ward_and_allport	2,3,1,0,0,0,0,0,0	82.0	3.0	2.417	0,0,0,1,2,0,3,0,0	to_hand	s613
107.942	0.442	0	UA_without_intermediate	1,0,0,2,0,0,3,0,0	practice	ward_and_allport	2,3,1,0,0,0,0,0,0	71.0	3.0	0.442	0,0,0,1,2,0,3,0,0	to_board	s613
108.387	0.85	0	UA_without_intermediate	1,0,0,2,0,0,0,0,0	practice	ward_and_allport	2,3,1,0,0,0,0,0,0	82.0	3.0	0.85	0,0,0,1,2,0,3,0,0	to_hand	s613
109.238	0.446	0	UA_without_intermediate	1,3,0,2,0,0,0,0,0	practice	ward_and_allport	2,3,1,0,0,0,0,0,0	89.0	3.0	0.446	0,0,0,1,2,0,3,0,0	to_board	s613
109.687	0.599	0	UA_without_intermediate	1,3,0,0,0,0,0,0,0	practice	ward_and_allport	2,3,1,0,0,0,0,0,0	71.0	3.0	0.599	0,0,0,1,2,0,3,0,0	to_hand	s613
110.287	0.386	0	UA_without_intermediate	1,3,2,0,0,0,0,0,0	practice	ward_and_allport	2,3,1,0,0,0,0,0,0	89.0	3.0	0.386	0,0,0,1,2,0,3,0,0	to_board	s613
110.674	3.052	0	UA_without_intermediate	1,3,0,0,0,0,0,0,0	practice	ward_and_allport	2,3,1,0,0,0,0,0,0	89.0	3.0	3.052	0,0,0,1,2,0,3,0,0	to_hand	s613
113.728	0.649	0	UA_without_intermediate	1,3,0,2,0,0,0,0,0	practice	ward_and_allport	2,3,1,0,0,0,0,0,0	71.0	3.0	0.649	0,0,0,1,2,0,3,0,0	to_board	s613
114.379	2.364	0	UA_without_intermediate	1,0,0,2,0,0,0,0,0	practice	ward_and_allport	2,3,1,0,0,0,0,0,0	89.0	3.0	2.364	0,0,0,1,2,0,3,0,0	to_hand	s613
116.744	0.783	0	UA_without_intermediate	1,0,0,2,3,0,0,0,0	practice	ward_and_allport	2,3,1,0,0,0,0,0,0	71.0	3.0	0.783	0,0,0,1,2,0,3,0,0	to_board	s613
117.531	0.584	0	UA_without_intermediate	0,0,0,2,3,0,0,0,0	practice	ward_and_allport	2,3,1,0,0,0,0,0,0	89.0	3.0	0.584	0,0,0,1,2,0,3,0,0	to_hand	s613
118.116	1.172	0	UA_without_intermediate	0,0,0,2,3,0,1,0,0	practice	ward_and_allport	2,3,1,0,0,0,0,0,0	82.0	3.0	1.172	0,0,0,1,2,0,3,0,0	to_board	s613
119.291	1.199	0	UA_without_intermediate	0,0,0,2,0,0,1,0,0	practice	ward_and_allport	2,3,1,0,0,0,0,0,0	71.0	3.0	1.199	0,0,0,1,2,0,3,0,0	to_hand	s613
120.491	0.539	0	UA_without_intermediate	0,0,0,2,0,0,1,3,0	practice	ward_and_allport	2,3,1,0,0,0,0,0,0	82.0	3.0	0.539	0,0,0,1,2,0,3,0,0	to_board	s613
121.033	0.572	0	UA_without_intermediate	0,0,0,0,0,0,1,3,0	practice	ward_and_allport	2,3,1,0,0,0,0,0,0	71.0	3.0	0.572	0,0,0,1,2,0,3,0,0	to_hand	s613
121.606	0.535	0	UA_without_intermediate	2,0,0,0,0,0,1,3,0	practice	ward_and_allport	2,3,1,0,0,0,0,0,0	89.0	3.0	0.535	0,0,0,1,2,0,3,0,0	to_board	s613
122.145	1.793	0	UA_without_intermediate	2,0,0,0,0,0,1,0,0	practice	ward_and_allport	2,3,1,0,0,0,0,0,0	82.0	3.0	1.793	0,0,0,1,2,0,3,0,0	to_hand	s613
123.939	0.468	0	UA_without_intermediate	2,3,0,0,0,0,1,0,0	practice	ward_and_allport	2,3,1,0,0,0,0,0,0	89.0	3.0	0.468	0,0,0,1,2,0,3,0,0	to_board	s613
124.41	1.251	0	UA_without_intermediate	2,3,0,0,0,0,0,0,0	practice	ward_and_allport	2,3,1,0,0,0,0,0,0	82.0	3.0	1.251	0,0,0,1,2,0,3,0,0	to_hand	s613
125.662	0.842	0	UA_without_intermediate	2,3,1,0,0,0,0,0,0	practice	ward_and_allport	2,3,1,0,0,0,0,0,0	89.0	3.0	0.842	0,0,0,1,2,0,3,0,0	to_board	s613
126.507	1.0	0	UA_without_intermediate	n/a	practice	ward_and_allport	n/a	-1.0	3.0	n/a	n/a	feedback	s613
127.507	1.0	0	UA_without_intermediate	n/a	practice	ward_and_allport	n/a	-1.0	3.0	n/a	n/a	ITI	s613
130.513	7.305	1	PA_with_intermediate	0,0,0,0,0,0,1,2,0	test	ward_and_allport	0,0,0,2,3,0,1,0,0	82.0	0.0	7.305	0,0,0,0,0,0,1,2,3	to_hand	s613
137.819	0.87	0	PA_with_intermediate	3,0,0,0,0,0,1,2,0	test	ward_and_allport	0,0,0,2,3,0,1,0,0	89.0	0.0	0.87	0,0,0,0,0,0,1,2,3	to_board	s613
138.693	0.86	0	PA_with_intermediate	3,0,0,0,0,0,1,0,0	test	ward_and_allport	0,0,0,2,3,0,1,0,0	82.0	0.0	0.86	0,0,0,0,0,0,1,2,3	to_hand	s613
139.554	0.367	0	PA_with_intermediate	3,0,0,2,0,0,1,0,0	test	ward_and_allport	0,0,0,2,3,0,1,0,0	71.0	0.0	0.367	0,0,0,0,0,0,1,2,3	to_board	s613
139.924	2.405	0	PA_with_intermediate	0,0,0,2,0,0,1,0,0	test	ward_and_allport	0,0,0,2,3,0,1,0,0	89.0	0.0	2.405	0,0,0,0,0,0,1,2,3	to_hand	s613
142.33	0.48	0	PA_with_intermediate	0,0,0,2,3,0,1,0,0	test	ward_and_allport	0,0,0,2,3,0,1,0,0	71.0	0.0	0.48	0,0,0,0,0,0,1,2,3	to_board	s613
142.814	1.0	0	PA_with_intermediate	n/a	test	ward_and_allport	n/a	-1.0	0.0	n/a	n/a	feedback	s613
143.814	1.408	0	PA_with_intermediate	n/a	test	ward_and_allport	n/a	-1.0	0.0	n/a	n/a	ITI	s613
145.226	4.273	1	PA_without_intermediate	0,0,0,1,2,0,0,0,0	test	ward_and_allport	2,0,0,0,0,0,3,1,0	71.0	1.0	4.273	0,0,0,1,2,3,0,0,0	to_hand	s613
149.5	0.442	0	PA_without_intermediate	0,0,0,1,2,0,3,0,0	test	ward_and_allport	2,0,0,0,0,0,3,1,0	82.0	1.0	0.442	0,0,0,1,2,3,0,0,0	to_board	s613
149.946	0.906	0	PA_without_intermediate	0,0,0,1,0,0,3,0,0	test	ward_and_allport	2,0,0,0,0,0,3,1,0	71.0	1.0	0.906	0,0,0,1,2,3,0,0,0	to_hand	s613
150.855	0.308	0	PA_without_intermediate	2,0,0,1,0,0,3,0,0	test	ward_and_allport	2,0,0,0,0,0,3,1,0	89.0	1.0	0.308	0,0,0,1,2,3,0,0,0	to_board	s613
151.166	0.623	0	PA_without_intermediate	2,0,0,0,0,0,3,0,0	test	ward_and_allport	2,0,0,0,0,0,3,1,0	71.0	1.0	0.623	0,0,0,1,2,3,0,0,0	to_hand	s613
151.792	0.312	0	PA_without_intermediate	2,0,0,0,0,0,3,1,0	test	ward_and_allport	2,0,0,0,0,0,3,1,0	82.0	1.0	0.312	0,0,0,1,2,3,0,0,0	to_board	s613
152.109	1.0	0	PA_without_intermediate	n/a	test	ward_and_allport	n/a	-1.0	1.0	n/a	n/a	feedback	s613
153.109	1.68	0	PA_without_intermediate	n/a	test	ward_and_allport	n/a	-1.0	1.0	n/a	n/a	ITI	s613
154.794	6.386	1	PA_with_intermediate	1,2,0,0,0,0,0,0,0	test	ward_and_allport	1,3,0,0,0,0,2,0,0	89.0	2.0	6.386	1,2,3,0,0,0,0,0,0	to_hand	s613
161.182	0.433	0	PA_with_intermediate	1,2,0,3,0,0,0,0,0	test	ward_and_allport	1,3,0,0,0,0,2,0,0	71.0	2.0	0.433	1,2,3,0,0,0,0,0,0	to_board	s613
161.62	1.08	0	PA_with_intermediate	1,0,0,3,0,0,0,0,0	test	ward_and_allport	1,3,0,0,0,0,2,0,0	89.0	2.0	1.08	1,2,3,0,0,0,0,0,0	to_hand	s613
162.701	0.395	0	PA_with_intermediate	1,0,0,3,0,0,2,0,0	test	ward_and_allport	1,3,0,0,0,0,2,0,0	82.0	2.0	0.395	1,2,3,0,0,0,0,0,0	to_board	s613
163.1	0.999	0	PA_with_intermediate	1,0,0,0,0,0,2,0,0	test	ward_and_allport	1,3,0,0,0,0,2,0,0	71.0	2.0	0.999	1,2,3,0,0,0,0,0,0	to_hand	s613
164.1	0.363	0	PA_with_intermediate	1,3,0,0,0,0,2,0,0	test	ward_and_allport	1,3,0,0,0,0,2,0,0	89.0	2.0	0.363	1,2,3,0,0,0,0,0,0	to_board	s613
164.47	1.0	0	PA_with_intermediate	n/a	test	ward_and_allport	n/a	-1.0	2.0	n/a	n/a	feedback	s613
165.47	3.72	0	PA_with_intermediate	n/a	test	ward_and_allport	n/a	-1.0	2.0	n/a	n/a	ITI	s613
169.194	2.794	1	PA_without_intermediate	0,0,0,1,2,0,0,0,0	test	ward_and_allport	1,0,0,0,0,0,3,2,0	71.0	3.0	2.794	0,0,0,1,2,3,0,0,0	to_hand	s613
171.989	0.442	0	PA_without_intermediate	0,0,0,1,2,0,3,0,0	test	ward_and_allport	1,0,0,0,0,0,3,2,0	82.0	3.0	0.442	0,0,0,1,2,3,0,0,0	to_board	s613
172.435	2.133	0	PA_without_intermediate	0,0,0,1,0,0,3,0,0	test	ward_and_allport	1,0,0,0,0,0,3,2,0	71.0	3.0	2.133	0,0,0,1,2,3,0,0,0	to_hand	s613
174.568	0.346	0	PA_without_intermediate	0,0,0,1,0,0,3,2,0	test	ward_and_allport	1,0,0,0,0,0,3,2,0	82.0	3.0	0.346	0,0,0,1,2,3,0,0,0	to_board	s613
174.918	0.7	0	PA_without_intermediate	0,0,0,0,0,0,3,2,0	test	ward_and_allport	1,0,0,0,0,0,3,2,0	71.0	3.0	0.7	0,0,0,1,2,3,0,0,0	to_hand	s613
175.619	0.325	0	PA_without_intermediate	1,0,0,0,0,0,3,2,0	test	ward_and_allport	1,0,0,0,0,0,3,2,0	89.0	3.0	0.325	0,0,0,1,2,3,0,0,0	to_board	s613
175.955	1.0	0	PA_without_intermediate	n/a	test	ward_and_allport	n/a	-1.0	3.0	n/a	n/a	feedback	s613
176.955	2.224	0	PA_without_intermediate	n/a	test	ward_and_allport	n/a	-1.0	3.0	n/a	n/a	ITI	s613
179.182	4.052	1	PA_without_intermediate	0,0,0,0,0,0,1,2,0	test	ward_and_allport	2,0,0,3,1,0,0,0,0	82.0	4.0	4.052	0,0,0,0,0,0,1,2,3	to_hand	s613
183.236	0.508	0	PA_without_intermediate	0,0,0,3,0,0,1,2,0	test	ward_and_allport	2,0,0,3,1,0,0,0,0	71.0	4.0	0.508	0,0,0,0,0,0,1,2,3	to_board	s613
183.748	3.302	0	PA_without_intermediate	0,0,0,3,0,0,1,0,0	test	ward_and_allport	2,0,0,3,1,0,0,0,0	82.0	4.0	3.302	0,0,0,0,0,0,1,2,3	to_hand	s613
187.05	0.592	0	PA_without_intermediate	2,0,0,3,0,0,1,0,0	test	ward_and_allport	2,0,0,3,1,0,0,0,0	89.0	4.0	0.592	0,0,0,0,0,0,1,2,3	to_board	s613
187.647	0.772	0	PA_without_intermediate	2,0,0,3,0,0,0,0,0	test	ward_and_allport	2,0,0,3,1,0,0,0,0	82.0	4.0	0.772	0,0,0,0,0,0,1,2,3	to_hand	s613
188.42	0.427	0	PA_without_intermediate	2,0,0,3,1,0,0,0,0	test	ward_and_allport	2,0,0,3,1,0,0,0,0	71.0	4.0	0.427	0,0,0,0,0,0,1,2,3	to_board	s613
188.854	1.0	0	PA_without_intermediate	n/a	test	ward_and_allport	n/a	-1.0	4.0	n/a	n/a	feedback	s613
189.854	1.272	0	PA_without_intermediate	n/a	test	ward_and_allport	n/a	-1.0	4.0	n/a	n/a	ITI	s613
191.131	3.241	1	PA_with_intermediate	0,0,0,1,2,0,0,0,0	test	ward_and_allport	2,3,0,1,0,0,0,0,0	71.0	5.0	3.241	0,0,0,1,2,3,0,0,0	to_hand	s613
194.373	0.435	0	PA_with_intermediate	0,0,0,1,2,0,3,0,0	test	ward_and_allport	2,3,0,1,0,0,0,0,0	82.0	5.0	0.435	0,0,0,1,2,3,0,0,0	to_board	s613
194.812	1.791	0	PA_with_intermediate	0,0,0,1,0,0,3,0,0	test	ward_and_allport	2,3,0,1,0,0,0,0,0	71.0	5.0	1.791	0,0,0,1,2,3,0,0,0	to_hand	s613
196.603	0.531	0	PA_with_intermediate	2,0,0,1,0,0,3,0,0	test	ward_and_allport	2,3,0,1,0,0,0,0,0	89.0	5.0	0.531	0,0,0,1,2,3,0,0,0	to_board	s613
197.139	0.625	0	PA_with_intermediate	2,0,0,1,0,0,0,0,0	test	ward_and_allport	2,3,0,1,0,0,0,0,0	82.0	5.0	0.625	0,0,0,1,2,3,0,0,0	to_hand	s613
197.765	0.328	0	PA_with_intermediate	2,3,0,1,0,0,0,0,0	test	ward_and_allport	2,3,0,1,0,0,0,0,0	89.0	5.0	0.328	0,0,0,1,2,3,0,0,0	to_board	s613
198.097	1.0	0	PA_with_intermediate	n/a	test	ward_and_allport	n/a	-1.0	5.0	n/a	n/a	feedback	s613
199.097	2.632	0	PA_with_intermediate	n/a	test	ward_and_allport	n/a	-1.0	5.0	n/a	n/a	ITI	s613
201.733	4.297	1	PA_without_intermediate	0,0,0,0,0,0,1,2,0	test	ward_and_allport	3,1,0,2,0,0,0,0,0	82.0	6.0	4.297	0,0,0,0,0,0,1,2,3	to_hand	s613
206.031	0.416	0	PA_without_intermediate	3,0,0,0,0,0,1,2,0	test	ward_and_allport	3,1,0,2,0,0,0,0,0	89.0	6.0	0.416	0,0,0,0,0,0,1,2,3	to_board	s613
206.451	2.411	0	PA_without_intermediate	3,0,0,0,0,0,1,0,0	test	ward_and_allport	3,1,0,2,0,0,0,0,0	82.0	6.0	2.411	0,0,0,0,0,0,1,2,3	to_hand	s613
208.863	0.472	0	PA_without_intermediate	3,0,0,2,0,0,1,0,0	test	ward_and_allport	3,1,0,2,0,0,0,0,0	71.0	6.0	0.472	0,0,0,0,0,0,1,2,3	to_board	s613
209.339	0.962	0	PA_without_intermediate	3,0,0,2,0,0,0,0,0	test	ward_and_allport	3,1,0,2,0,0,0,0,0	82.0	6.0	0.962	0,0,0,0,0,0,1,2,3	to_hand	s613
210.302	0.325	0	PA_without_intermediate	3,1,0,2,0,0,0,0,0	test	ward_and_allport	3,1,0,2,0,0,0,0,0	89.0	6.0	0.325	0,0,0,0,0,0,1,2,3	to_board	s613
210.633	1.0	0	PA_without_intermediate	n/a	test	ward_and_allport	n/a	-1.0	6.0	n/a	n/a	feedback	s613
211.633	1.408	0	PA_without_intermediate	n/a	test	ward_and_allport	n/a	-1.0	6.0	n/a	n/a	ITI	s613
213.045	3.795	1	PA_without_intermediate	0,0,0,1,2,0,0,0,0	test	ward_and_allport	2,0,0,0,0,0,3,1,0	71.0	7.0	3.795	0,0,0,1,2,3,0,0,0	to_hand	s613
216.841	0.662	0	PA_without_intermediate	0,0,0,1,2,0,3,0,0	test	ward_and_allport	2,0,0,0,0,0,3,1,0	82.0	7.0	0.662	0,0,0,1,2,3,0,0,0	to_board	s613
217.507	1.117	0	PA_without_intermediate	0,0,0,1,0,0,3,0,0	test	ward_and_allport	2,0,0,0,0,0,3,1,0	71.0	7.0	1.117	0,0,0,1,2,3,0,0,0	to_hand	s613
218.625	0.336	0	PA_without_intermediate	2,0,0,1,0,0,3,0,0	test	ward_and_allport	2,0,0,0,0,0,3,1,0	89.0	7.0	0.336	0,0,0,1,2,3,0,0,0	to_board	s613
218.965	0.782	0	PA_without_intermediate	2,0,0,0,0,0,3,0,0	test	ward_and_allport	2,0,0,0,0,0,3,1,0	71.0	7.0	0.782	0,0,0,1,2,3,0,0,0	to_hand	s613
219.748	0.309	0	PA_without_intermediate	2,0,0,0,0,0,3,1,0	test	ward_and_allport	2,0,0,0,0,0,3,1,0	82.0	7.0	0.309	0,0,0,1,2,3,0,0,0	to_board	s613
220.065	1.0	0	PA_without_intermediate	n/a	test	ward_and_allport	n/a	-1.0	7.0	n/a	n/a	feedback	s613
221.065	1.0	0	PA_without_intermediate	n/a	test	ward_and_allport	n/a	-1.0	7.0	n/a	n/a	ITI	s613
222.069	2.989	1	PA_with_intermediate	0,0,0,1,2,0,0,0,0	test	ward_and_allport	0,0,0,1,0,0,2,3,0	71.0	8.0	2.989	0,0,0,1,2,3,0,0,0	to_hand	s613
225.059	4.12	0	PA_with_intermediate	0,0,0,1,2,3,0,0,0	test	ward_and_allport	0,0,0,1,0,0,2,3,0	71.0	8.0	4.12	0,0,0,1,2,3,0,0,0	to_board	s613
229.183	0.694	0	PA_with_intermediate	0,0,0,1,2,0,0,0,0	test	ward_and_allport	0,0,0,1,0,0,2,3,0	71.0	8.0	0.694	0,0,0,1,2,3,0,0,0	to_hand	s613
229.878	1.939	0	PA_with_intermediate	3,0,0,1,2,0,0,0,0	test	ward_and_allport	0,0,0,1,0,0,2,3,0	89.0	8.0	1.939	0,0,0,1,2,3,0,0,0	to_board	s613
231.821	0.562	0	PA_with_intermediate	3,0,0,1,0,0,0,0,0	test	ward_and_allport	0,0,0,1,0,0,2,3,0	71.0	8.0	0.562	0,0,0,1,2,3,0,0,0	to_hand	s613
232.384	0.826	0	PA_with_intermediate	3,0,0,1,0,0,2,0,0	test	ward_and_allport	0,0,0,1,0,0,2,3,0	82.0	8.0	0.826	0,0,0,1,2,3,0,0,0	to_board	s613
233.214	0.395	0	PA_with_intermediate	0,0,0,1,0,0,2,0,0	test	ward_and_allport	0,0,0,1,0,0,2,3,0	89.0	8.0	0.395	0,0,0,1,2,3,0,0,0	to_hand	s613
233.61	0.251	0	PA_with_intermediate	0,0,0,1,0,0,2,3,0	test	ward_and_allport	0,0,0,1,0,0,2,3,0	82.0	8.0	0.251	0,0,0,1,2,3,0,0,0	to_board	s613
233.867	1.0	0	PA_with_intermediate	n/a	test	ward_and_allport	n/a	-1.0	8.0	n/a	n/a	feedback	s613
234.867	1.0	0	PA_with_intermediate	n/a	test	ward_and_allport	n/a	-1.0	8.0	n/a	n/a	ITI	s613
235.872	4.389	1	PA_with_intermediate	1,2,0,0,0,0,0,0,0	test	ward_and_allport	1,3,0,2,0,0,0,0,0	89.0	9.0	4.389	1,2,3,0,0,0,0,0,0	to_hand	s613
240.262	0.289	0	PA_with_intermediate	1,2,0,0,0,0,3,0,0	test	ward_and_allport	1,3,0,2,0,0,0,0,0	82.0	9.0	0.289	1,2,3,0,0,0,0,0,0	to_board	s613
240.555	2.53	0	PA_with_intermediate	1,0,0,0,0,0,3,0,0	test	ward_and_allport	1,3,0,2,0,0,0,0,0	89.0	9.0	2.53	1,2,3,0,0,0,0,0,0	to_hand	s613
243.087	0.376	0	PA_with_intermediate	1,0,0,2,0,0,3,0,0	test	ward_and_allport	1,3,0,2,0,0,0,0,0	71.0	9.0	0.376	1,2,3,0,0,0,0,0,0	to_board	s613
243.468	3.576	0	PA_with_intermediate	1,0,0,2,0,0,0,0,0	test	ward_and_allport	1,3,0,2,0,0,0,0,0	82.0	9.0	3.576	1,2,3,0,0,0,0,0,0	to_hand	s613
247.045	0.322	0	PA_with_intermediate	1,3,0,2,0,0,0,0,0	test	ward_and_allport	1,3,0,2,0,0,0,0,0	89.0	9.0	0.322	1,2,3,0,0,0,0,0,0	to_board	s613
247.371	1.0	0	PA_with_intermediate	n/a	test	ward_and_allport	n/a	-1.0	9.0	n/a	n/a	feedback	s613
248.371	1.0	0	PA_with_intermediate	n/a	test	ward_and_allport	n/a	-1.0	9.0	n/a	n/a	ITI	s613
249.376	5.527	1	PA_with_intermediate	1,2,0,0,0,0,0,0,0	test	ward_and_allport	1,0,0,2,3,0,0,0,0	89.0	10.0	5.527	1,2,3,0,0,0,0,0,0	to_hand	s613
254.904	0.299	0	PA_with_intermediate	1,2,0,0,0,0,3,0,0	test	ward_and_allport	1,0,0,2,3,0,0,0,0	82.0	10.0	0.299	1,2,3,0,0,0,0,0,0	to_board	s613
255.207	0.947	0	PA_with_intermediate	1,0,0,0,0,0,3,0,0	test	ward_and_allport	1,0,0,2,3,0,0,0,0	89.0	10.0	0.947	1,2,3,0,0,0,0,0,0	to_hand	s613
256.156	0.333	0	PA_with_intermediate	1,0,0,2,0,0,3,0,0	test	ward_and_allport	1,0,0,2,3,0,0,0,0	71.0	10.0	0.333	1,2,3,0,0,0,0,0,0	to_board	s613
256.494	0.424	0	PA_with_intermediate	1,0,0,2,0,0,0,0,0	test	ward_and_allport	1,0,0,2,3,0,0,0,0	82.0	10.0	0.424	1,2,3,0,0,0,0,0,0	to_hand	s613
256.919	0.439	0	PA_with_intermediate	1,0,0,2,3,0,0,0,0	test	ward_and_allport	1,0,0,2,3,0,0,0,0	71.0	10.0	0.439	1,2,3,0,0,0,0,0,0	to_board	s613
257.362	1.0	0	PA_with_intermediate	n/a	test	ward_and_allport	n/a	-1.0	10.0	n/a	n/a	feedback	s613
258.362	1.408	0	PA_with_intermediate	n/a	test	ward_and_allport	n/a	-1.0	10.0	n/a	n/a	ITI	s613
259.775	3.965	1	PA_without_intermediate	1,2,0,0,0,0,0,0,0	test	ward_and_allport	0,0,0,3,2,0,1,0,0	89.0	11.0	3.965	1,2,3,0,0,0,0,0,0	to_hand	s613
263.741	0.365	0	PA_without_intermediate	1,2,0,3,0,0,0,0,0	test	ward_and_allport	0,0,0,3,2,0,1,0,0	71.0	11.0	0.365	1,2,3,0,0,0,0,0,0	to_board	s613
264.111	1.431	0	PA_without_intermediate	1,0,0,3,0,0,0,0,0	test	ward_and_allport	0,0,0,3,2,0,1,0,0	89.0	11.0	1.431	1,2,3,0,0,0,0,0,0	to_hand	s613
265.543	0.298	0	PA_without_intermediate	1,0,0,3,2,0,0,0,0	test	ward_and_allport	0,0,0,3,2,0,1,0,0	71.0	11.0	0.298	1,2,3,0,0,0,0,0,0	to_board	s613
265.85	1.357	0	PA_without_intermediate	0,0,0,3,2,0,0,0,0	test	ward_and_allport	0,0,0,3,2,0,1,0,0	89.0	11.0	1.357	1,2,3,0,0,0,0,0,0	to_hand	s613
267.208	0.278	0	PA_without_intermediate	0,0,0,3,2,0,1,0,0	test	ward_and_allport	0,0,0,3,2,0,1,0,0	82.0	11.0	0.278	1,2,3,0,0,0,0,0,0	to_board	s613
267.494	1.0	0	PA_without_intermediate	n/a	test	ward_and_allport	n/a	-1.0	11.0	n/a	n/a	feedback	s613
268.494	1.816	0	PA_without_intermediate	n/a	test	ward_and_allport	n/a	-1.0	11.0	n/a	n/a	ITI	s613
270.315	6.71	1	PA_with_intermediate	0,0,0,0,0,0,1,2,0	test	ward_and_allport	2,0,0,0,0,0,1,3,0	82.0	12.0	6.71	0,0,0,0,0,0,1,2,3	to_hand	s613
277.026	0.41	0	PA_with_intermediate	0,0,0,3,0,0,1,2,0	test	ward_and_allport	2,0,0,0,0,0,1,3,0	71.0	12.0	0.41	0,0,0,0,0,0,1,2,3	to_board	s613
277.441	1.327	0	PA_with_intermediate	0,0,0,3,0,0,1,0,0	test	ward_and_allport	2,0,0,0,0,0,1,3,0	82.0	12.0	1.327	0,0,0,0,0,0,1,2,3	to_hand	s613
278.769	0.329	0	PA_with_intermediate	2,0,0,3,0,0,1,0,0	test	ward_and_allport	2,0,0,0,0,0,1,3,0	89.0	12.0	0.329	0,0,0,0,0,0,1,2,3	to_board	s613
279.104	1.268	0	PA_with_intermediate	2,0,0,0,0,0,1,0,0	test	ward_and_allport	2,0,0,0,0,0,1,3,0	71.0	12.0	1.268	0,0,0,0,0,0,1,2,3	to_hand	s613
280.373	0.73	0	PA_with_intermediate	2,0,0,0,0,0,1,3,0	test	ward_and_allport	2,0,0,0,0,0,1,3,0	82.0	12.0	0.73	0,0,0,0,0,0,1,2,3	to_board	s613
281.11	1.0	0	PA_with_intermediate	n/a	test	ward_and_allport	n/a	-1.0	12.0	n/a	n/a	feedback	s613
282.11	3.176	0	PA_with_intermediate	n/a	test	ward_and_allport	n/a	-1.0	12.0	n/a	n/a	ITI	s613
285.292	3.138	1	PA_with_intermediate	0,0,0,1,2,0,0,0,0	test	ward_and_allport	2,3,0,1,0,0,0,0,0	71.0	13.0	3.138	0,0,0,1,2,3,0,0,0	to_hand	s613
288.431	1.065	0	PA_with_intermediate	0,0,0,1,2,0,3,0,0	test	ward_and_allport	2,3,0,1,0,0,0,0,0	82.0	13.0	1.065	0,0,0,1,2,3,0,0,0	to_board	s613
289.502	0.606	0	PA_with_intermediate	0,0,0,1,0,0,3,0,0	test	ward_and_allport	2,3,0,1,0,0,0,0,0	71.0	13.0	0.606	0,0,0,1,2,3,0,0,0	to_hand	s613
290.109	0.314	0	PA_with_intermediate	2,0,0,1,0,0,3,0,0	test	ward_and_allport	2,3,0,1,0,0,0,0,0	89.0	13.0	0.314	0,0,0,1,2,3,0,0,0	to_board	s613
290.429	0.445	0	PA_with_intermediate	2,0,0,0,0,0,3,0,0	test	ward_and_allport	2,3,0,1,0,0,0,0,0	71.0	13.0	0.445	0,0,0,1,2,3,0,0,0	to_hand	s613
290.875	1.672	0	PA_with_intermediate	2,0,0,1,0,0,3,0,0	test	ward_and_allport	2,3,0,1,0,0,0,0,0	71.0	13.0	1.672	0,0,0,1,2,3,0,0,0	to_board	s613
292.553	0.521	0	PA_with_intermediate	2,0,0,1,0,0,0,0,0	test	ward_and_allport	2,3,0,1,0,0,0,0,0	82.0	13.0	0.521	0,0,0,1,2,3,0,0,0	to_hand	s613
293.075	0.259	0	PA_with_intermediate	2,3,0,1,0,0,0,0,0	test	ward_and_allport	2,3,0,1,0,0,0,0,0	89.0	13.0	0.259	0,0,0,1,2,3,0,0,0	to_board	s613
293.345	1.0	0	PA_with_intermediate	n/a	test	ward_and_allport	n/a	-1.0	13.0	n/a	n/a	feedback	s613
294.345	2.36	0	PA_with_intermediate	n/a	test	ward_and_allport	n/a	-1.0	13.0	n/a	n/a	ITI	s613
296.711	11.525	1	PA_with_intermediate	0,0,0,1,2,0,0,0,0	test	ward_and_allport	2,0,0,1,3,0,0,0,0	71.0	14.0	11.525	0,0,0,1,2,3,0,0,0	to_hand	s613
308.238	0.445	0	PA_with_intermediate	0,0,0,1,2,0,3,0,0	test	ward_and_allport	2,0,0,1,3,0,0,0,0	82.0	14.0	0.445	0,0,0,1,2,3,0,0,0	to_board	s613
308.689	0.457	0	PA_with_intermediate	0,0,0,1,0,0,3,0,0	test	ward_and_allport	2,0,0,1,3,0,0,0,0	71.0	14.0	0.457	0,0,0,1,2,3,0,0,0	to_hand	s613
309.147	0.436	0	PA_with_intermediate	2,0,0,1,0,0,3,0,0	test	ward_and_allport	2,0,0,1,3,0,0,0,0	89.0	14.0	0.436	0,0,0,1,2,3,0,0,0	to_board	s613
309.589	0.647	0	PA_with_intermediate	2,0,0,1,0,0,0,0,0	test	ward_and_allport	2,0,0,1,3,0,0,0,0	82.0	14.0	0.647	0,0,0,1,2,3,0,0,0	to_hand	s613
310.237	0.387	0	PA_with_intermediate	2,0,0,1,3,0,0,0,0	test	ward_and_allport	2,0,0,1,3,0,0,0,0	71.0	14.0	0.387	0,0,0,1,2,3,0,0,0	to_board	s613
310.63	1.0	0	PA_with_intermediate	n/a	test	ward_and_allport	n/a	-1.0	14.0	n/a	n/a	feedback	s613
311.63	1.0	0	PA_with_intermediate	n/a	test	ward_and_allport	n/a	-1.0	14.0	n/a	n/a	ITI	s613
317.639	6.185	1	PA_without_intermediate	1,2,0,0,0,0,0,0,0	test	ward_and_allport	0,0,0,1,0,0,3,2,0	89.0	15.0	6.185	1,2,3,0,0,0,0,0,0	to_hand	s613
323.825	0.322	0	PA_without_intermediate	1,2,0,0,0,0,3,0,0	test	ward_and_allport	0,0,0,1,0,0,3,2,0	82.0	15.0	0.322	1,2,3,0,0,0,0,0,0	to_board	s613
324.153	1.241	0	PA_without_intermediate	1,0,0,0,0,0,3,0,0	test	ward_and_allport	0,0,0,1,0,0,3,2,0	89.0	15.0	1.241	1,2,3,0,0,0,0,0,0	to_hand	s613
325.395	0.605	0	PA_without_intermediate	1,0,0,2,0,0,3,0,0	test	ward_and_allport	0,0,0,1,0,0,3,2,0	71.0	15.0	0.605	1,2,3,0,0,0,0,0,0	to_board	s613
326.006	1.457	0	PA_without_intermediate	1,0,0,0,0,0,3,0,0	test	ward_and_allport	0,0,0,1,0,0,3,2,0	71.0	15.0	1.457	1,2,3,0,0,0,0,0,0	to_hand	s613
327.464	0.323	0	PA_without_intermediate	1,0,0,0,0,0,3,2,0	test	ward_and_allport	0,0,0,1,0,0,3,2,0	82.0	15.0	0.323	1,2,3,0,0,0,0,0,0	to_board	s613
327.793	0.709	0	PA_without_intermediate	0,0,0,0,0,0,3,2,0	test	ward_and_allport	0,0,0,1,0,0,3,2,0	89.0	15.0	0.709	1,2,3,0,0,0,0,0,0	to_hand	s613
328.503	0.302	0	PA_without_intermediate	0,0,0,1,0,0,3,2,0	test	ward_and_allport	0,0,0,1,0,0,3,2,0	71.0	15.0	0.302	1,2,3,0,0,0,0,0,0	to_board	s613
328.814	1.0	0	PA_without_intermediate	n/a	test	ward_and_allport	n/a	-1.0	15.0	n/a	n/a	feedback	s613
329.814	1.408	0	PA_without_intermediate	n/a	test	ward_and_allport	n/a	-1.0	15.0	n/a	n/a	ITI	s613
331.229	5.111	1	PA_with_intermediate	1,2,0,0,0,0,0,0,0	test	ward_and_allport	1,0,0,0,0,0,2,3,0	89.0	16.0	5.111	1,2,3,0,0,0,0,0,0	to_hand	s613
336.34	0.403	0	PA_with_intermediate	1,2,0,3,0,0,0,0,0	test	ward_and_allport	1,0,0,0,0,0,2,3,0	71.0	16.0	0.403	1,2,3,0,0,0,0,0,0	to_board	s613
336.75	1.57	0	PA_with_intermediate	1,0,0,3,0,0,0,0,0	test	ward_and_allport	1,0,0,0,0,0,2,3,0	89.0	16.0	1.57	1,2,3,0,0,0,0,0,0	to_hand	s613
338.321	0.324	0	PA_with_intermediate	1,0,0,3,0,0,2,0,0	test	ward_and_allport	1,0,0,0,0,0,2,3,0	82.0	16.0	0.324	1,2,3,0,0,0,0,0,0	to_board	s613
338.65	0.878	0	PA_with_intermediate	1,0,0,0,0,0,2,0,0	test	ward_and_allport	1,0,0,0,0,0,2,3,0	71.0	16.0	0.878	1,2,3,0,0,0,0,0,0	to_hand	s613
339.53	0.912	0	PA_with_intermediate	1,0,0,0,0,0,2,3,0	test	ward_and_allport	1,0,0,0,0,0,2,3,0	82.0	16.0	0.912	1,2,3,0,0,0,0,0,0	to_board	s613
340.449	1.0	0	PA_with_intermediate	n/a	test	ward_and_allport	n/a	-1.0	16.0	n/a	n/a	feedback	s613
341.449	1.816	0	PA_with_intermediate	n/a	test	ward_and_allport	n/a	-1.0	16.0	n/a	n/a	ITI	s613
343.271	7.407	1	PA_without_intermediate	0,0,0,1,2,0,0,0,0	test	ward_and_allport	3,2,0,0,0,0,1,0,0	71.0	17.0	7.407	0,0,0,1,2,3,0,0,0	to_hand	s613
350.678	0.333	0	PA_without_intermediate	3,0,0,1,2,0,0,0,0	test	ward_and_allport	3,2,0,0,0,0,1,0,0	89.0	17.0	0.333	0,0,0,1,2,3,0,0,0	to_board	s613
351.018	0.916	0	PA_without_intermediate	3,0,0,1,0,0,0,0,0	test	ward_and_allport	3,2,0,0,0,0,1,0,0	71.0	17.0	0.916	0,0,0,1,2,3,0,0,0	to_hand	s613
351.935	0.363	0	PA_without_intermediate	3,2,0,1,0,0,0,0,0	test	ward_and_allport	3,2,0,0,0,0,1,0,0	89.0	17.0	0.363	0,0,0,1,2,3,0,0,0	to_board	s613
352.304	0.821	0	PA_without_intermediate	3,2,0,0,0,0,0,0,0	test	ward_and_allport	3,2,0,0,0,0,1,0,0	71.0	17.0	0.821	0,0,0,1,2,3,0,0,0	to_hand	s613
353.126	0.377	0	PA_without_intermediate	3,2,0,0,0,0,1,0,0	test	ward_and_allport	3,2,0,0,0,0,1,0,0	82.0	17.0	0.377	0,0,0,1,2,3,0,0,0	to_board	s613
353.51	1.0	0	PA_without_intermediate	n/a	test	ward_and_allport	n/a	-1.0	17.0	n/a	n/a	feedback	s613
354.51	2.088	0	PA_without_intermediate	n/a	test	ward_and_allport	n/a	-1.0	17.0	n/a	n/a	ITI	s613
356.605	5.84	1	PA_without_intermediate	1,2,0,0,0,0,0,0,0	test	ward_and_allport	0,0,0,2,0,0,3,1,0	89.0	18.0	5.84	1,2,3,0,0,0,0,0,0	to_hand	s613
362.446	0.329	0	PA_without_intermediate	1,2,0,0,0,0,3,0,0	test	ward_and_allport	0,0,0,2,0,0,3,1,0	82.0	18.0	0.329	1,2,3,0,0,0,0,0,0	to_board	s613
362.782	1.405	0	PA_without_intermediate	1,0,0,0,0,0,3,0,0	test	ward_and_allport	0,0,0,2,0,0,3,1,0	89.0	18.0	1.405	1,2,3,0,0,0,0,0,0	to_hand	s613
364.188	0.453	0	PA_without_intermediate	1,0,0,2,0,0,3,0,0	test	ward_and_allport	0,0,0,2,0,0,3,1,0	71.0	18.0	0.453	1,2,3,0,0,0,0,0,0	to_board	s613
364.647	1.728	0	PA_without_intermediate	0,0,0,2,0,0,3,0,0	test	ward_and_allport	0,0,0,2,0,0,3,1,0	89.0	18.0	1.728	1,2,3,0,0,0,0,0,0	to_hand	s613
366.376	0.44	0	PA_without_intermediate	0,0,0,2,0,0,3,1,0	test	ward_and_allport	0,0,0,2,0,0,3,1,0	82.0	18.0	0.44	1,2,3,0,0,0,0,0,0	to_board	s613
366.825	1.0	0	PA_without_intermediate	n/a	test	ward_and_allport	n/a	-1.0	18.0	n/a	n/a	feedback	s613
367.825	1.136	0	PA_without_intermediate	n/a	test	ward_and_allport	n/a	-1.0	18.0	n/a	n/a	ITI	s613
368.967	5.243	1	PA_without_intermediate	0,0,0,1,2,0,0,0,0	test	ward_and_allport	3,2,0,0,0,0,1,0,0	71.0	19.0	5.243	0,0,0,1,2,3,0,0,0	to_hand	s613
374.212	0.314	0	PA_without_intermediate	3,0,0,1,2,0,0,0,0	test	ward_and_allport	3,2,0,0,0,0,1,0,0	89.0	19.0	0.314	0,0,0,1,2,3,0,0,0	to_board	s613
374.533	1.261	0	PA_without_intermediate	3,0,0,1,0,0,0,0,0	test	ward_and_allport	3,2,0,0,0,0,1,0,0	71.0	19.0	1.261	0,0,0,1,2,3,0,0,0	to_hand	s613
375.795	0.376	0	PA_without_intermediate	3,2,0,1,0,0,0,0,0	test	ward_and_allport	3,2,0,0,0,0,1,0,0	89.0	19.0	0.376	0,0,0,1,2,3,0,0,0	to_board	s613
376.178	1.453	0	PA_without_intermediate	3,2,0,0,0,0,0,0,0	test	ward_and_allport	3,2,0,0,0,0,1,0,0	71.0	19.0	1.453	0,0,0,1,2,3,0,0,0	to_hand	s613
377.632	0.358	0	PA_without_intermediate	3,2,0,0,0,0,1,0,0	test	ward_and_allport	3,2,0,0,0,0,1,0,0	82.0	19.0	0.358	0,0,0,1,2,3,0,0,0	to_board	s613
378.001	1.0	0	PA_without_intermediate	n/a	test	ward_and_allport	n/a	-1.0	19.0	n/a	n/a	feedback	s613
379.001	6.168	0	PA_without_intermediate	n/a	test	ward_and_allport	n/a	-1.0	19.0	n/a	n/a	ITI	s613
385.175	3.381	1	PA_without_intermediate	0,0,0,1,2,0,0,0,0	test	ward_and_allport	1,0,0,0,0,0,3,2,0	71.0	20.0	3.381	0,0,0,1,2,3,0,0,0	to_hand	s613
388.557	0.436	0	PA_without_intermediate	0,0,0,1,2,0,3,0,0	test	ward_and_allport	1,0,0,0,0,0,3,2,0	82.0	20.0	0.436	0,0,0,1,2,3,0,0,0	to_board	s613
389.0	0.876	0	PA_without_intermediate	0,0,0,1,0,0,3,0,0	test	ward_and_allport	1,0,0,0,0,0,3,2,0	71.0	20.0	0.876	0,0,0,1,2,3,0,0,0	to_hand	s613
389.877	0.333	0	PA_without_intermediate	0,0,0,1,0,0,3,2,0	test	ward_and_allport	1,0,0,0,0,0,3,2,0	82.0	20.0	0.333	0,0,0,1,2,3,0,0,0	to_board	s613
390.218	0.556	0	PA_without_intermediate	0,0,0,0,0,0,3,2,0	test	ward_and_allport	1,0,0,0,0,0,3,2,0	71.0	20.0	0.556	0,0,0,1,2,3,0,0,0	to_hand	s613
390.775	0.267	0	PA_without_intermediate	1,0,0,0,0,0,3,2,0	test	ward_and_allport	1,0,0,0,0,0,3,2,0	89.0	20.0	0.267	0,0,0,1,2,3,0,0,0	to_board	s613
391.051	1.0	0	PA_without_intermediate	n/a	test	ward_and_allport	n/a	-1.0	20.0	n/a	n/a	feedback	s613
392.051	1.816	0	PA_without_intermediate	n/a	test	ward_and_allport	n/a	-1.0	20.0	n/a	n/a	ITI	s613
393.875	11.259	1	PA_with_intermediate	0,0,0,0,0,0,1,2,0	test	ward_and_allport	2,0,0,0,0,0,1,3,0	82.0	21.0	11.259	0,0,0,0,0,0,1,2,3	to_hand	s613
405.135	0.608	0	PA_with_intermediate	0,0,0,3,0,0,1,2,0	test	ward_and_allport	2,0,0,0,0,0,1,3,0	71.0	21.0	0.608	0,0,0,0,0,0,1,2,3	to_board	s613
405.752	2.047	0	PA_with_intermediate	0,0,0,3,0,0,1,0,0	test	ward_and_allport	2,0,0,0,0,0,1,3,0	82.0	21.0	2.047	0,0,0,0,0,0,1,2,3	to_hand	s613
407.8	0.362	0	PA_with_intermediate	2,0,0,3,0,0,1,0,0	test	ward_and_allport	2,0,0,0,0,0,1,3,0	89.0	21.0	0.362	0,0,0,0,0,0,1,2,3	to_board	s613
408.17	1.065	0	PA_with_intermediate	2,0,0,0,0,0,1,0,0	test	ward_and_allport	2,0,0,0,0,0,1,3,0	71.0	21.0	1.065	0,0,0,0,0,0,1,2,3	to_hand	s613
409.237	0.318	0	PA_with_intermediate	2,0,0,0,0,0,1,3,0	test	ward_and_allport	2,0,0,0,0,0,1,3,0	82.0	21.0	0.318	0,0,0,0,0,0,1,2,3	to_board	s613
409.566	1.0	0	PA_with_intermediate	n/a	test	ward_and_allport	n/a	-1.0	21.0	n/a	n/a	feedback	s613
410.566	1.952	0	PA_with_intermediate	n/a	test	ward_and_allport	n/a	-1.0	21.0	n/a	n/a	ITI	s613
412.526	6.025	1	PA_with_intermediate	1,2,0,0,0,0,0,0,0	test	ward_and_allport	1,3,0,0,0,0,2,0,0	89.0	22.0	6.025	1,2,3,0,0,0,0,0,0	to_hand	s613
418.552	0.221	0	PA_with_intermediate	1,2,0,3,0,0,0,0,0	test	ward_and_allport	1,3,0,0,0,0,2,0,0	71.0	22.0	0.221	1,2,3,0,0,0,0,0,0	to_board	s613
418.781	1.935	0	PA_with_intermediate	1,0,0,3,0,0,0,0,0	test	ward_and_allport	1,3,0,0,0,0,2,0,0	89.0	22.0	1.935	1,2,3,0,0,0,0,0,0	to_hand	s613
420.717	0.379	0	PA_with_intermediate	1,0,0,3,0,0,2,0,0	test	ward_and_allport	1,3,0,0,0,0,2,0,0	82.0	22.0	0.379	1,2,3,0,0,0,0,0,0	to_board	s613
421.103	1.216	0	PA_with_intermediate	1,0,0,0,0,0,2,0,0	test	ward_and_allport	1,3,0,0,0,0,2,0,0	71.0	22.0	1.216	1,2,3,0,0,0,0,0,0	to_hand	s613
422.32	0.315	0	PA_with_intermediate	1,3,0,0,0,0,2,0,0	test	ward_and_allport	1,3,0,0,0,0,2,0,0	89.0	22.0	0.315	1,2,3,0,0,0,0,0,0	to_board	s613
422.643	1.0	0	PA_with_intermediate	n/a	test	ward_and_allport	n/a	-1.0	22.0	n/a	n/a	feedback	s613
423.643	1.136	0	PA_with_intermediate	n/a	test	ward_and_allport	n/a	-1.0	22.0	n/a	n/a	ITI	s613
424.788	4.603	1	PA_without_intermediate	1,2,0,0,0,0,0,0,0	test	ward_and_allport	0,0,0,3,1,0,2,0,0	89.0	23.0	4.603	1,2,3,0,0,0,0,0,0	to_hand	s613
429.392	0.261	0	PA_without_intermediate	1,2,0,3,0,0,0,0,0	test	ward_and_allport	0,0,0,3,1,0,2,0,0	71.0	23.0	0.261	1,2,3,0,0,0,0,0,0	to_board	s613
429.661	1.189	0	PA_without_intermediate	1,0,0,3,0,0,0,0,0	test	ward_and_allport	0,0,0,3,1,0,2,0,0	89.0	23.0	1.189	1,2,3,0,0,0,0,0,0	to_hand	s613
430.851	0.326	0	PA_without_intermediate	1,0,0,3,0,0,2,0,0	test	ward_and_allport	0,0,0,3,1,0,2,0,0	82.0	23.0	0.326	1,2,3,0,0,0,0,0,0	to_board	s613
431.186	0.845	0	PA_without_intermediate	0,0,0,3,0,0,2,0,0	test	ward_and_allport	0,0,0,3,1,0,2,0,0	89.0	23.0	0.845	1,2,3,0,0,0,0,0,0	to_hand	s613
432.032	0.265	0	PA_without_intermediate	0,0,0,3,1,0,2,0,0	test	ward_and_allport	0,0,0,3,1,0,2,0,0	71.0	23.0	0.265	1,2,3,0,0,0,0,0,0	to_board	s613
432.307	1.0	0	PA_without_intermediate	n/a	test	ward_and_allport	n/a	-1.0	23.0	n/a	n/a	feedback	s613
433.307	1.68	0	PA_without_intermediate	n/a	test	ward_and_allport	n/a	-1.0	23.0	n/a	n/a	ITI	s613
434.995	3.009	1	PA_without_intermediate	1,2,0,0,0,0,0,0,0	test	ward_and_allport	0,0,0,1,0,0,3,2,0	89.0	24.0	3.009	1,2,3,0,0,0,0,0,0	to_hand	s613
438.005	0.682	0	PA_without_intermediate	1,2,0,0,0,0,3,0,0	test	ward_and_allport	0,0,0,1,0,0,3,2,0	82.0	24.0	0.682	1,2,3,0,0,0,0,0,0	to_board	s613
438.692	0.808	0	PA_without_intermediate	1,0,0,0,0,0,3,0,0	test	ward_and_allport	0,0,0,1,0,0,3,2,0	89.0	24.0	0.808	1,2,3,0,0,0,0,0,0	to_hand	s613
439.5	0.396	0	PA_without_intermediate	1,0,0,0,0,0,3,2,0	test	ward_and_allport	0,0,0,1,0,0,3,2,0	82.0	24.0	0.396	1,2,3,0,0,0,0,0,0	to_board	s613
439.905	0.638	0	PA_without_intermediate	0,0,0,0,0,0,3,2,0	test	ward_and_allport	0,0,0,1,0,0,3,2,0	89.0	24.0	0.638	1,2,3,0,0,0,0,0,0	to_hand	s613
440.544	0.34	0	PA_without_intermediate	0,0,0,1,0,0,3,2,0	test	ward_and_allport	0,0,0,1,0,0,3,2,0	71.0	24.0	0.34	1,2,3,0,0,0,0,0,0	to_board	s613
440.897	1.0	0	PA_without_intermediate	n/a	test	ward_and_allport	n/a	-1.0	24.0	n/a	n/a	feedback	s613
441.897	2.088	0	PA_without_intermediate	n/a	test	ward_and_allport	n/a	-1.0	24.0	n/a	n/a	ITI	s613
443.991	4.651	1	PA_with_intermediate	0,0,0,0,0,0,1,2,0	test	ward_and_allport	2,3,0,0,0,0,1,0,0	82.0	25.0	4.651	0,0,0,0,0,0,1,2,3	to_hand	s613
448.643	0.25	0	PA_with_intermediate	0,0,0,3,0,0,1,2,0	test	ward_and_allport	2,3,0,0,0,0,1,0,0	71.0	25.0	0.25	0,0,0,0,0,0,1,2,3	to_board	s613
448.899	0.948	0	PA_with_intermediate	0,0,0,3,0,0,1,0,0	test	ward_and_allport	2,3,0,0,0,0,1,0,0	82.0	25.0	0.948	0,0,0,0,0,0,1,2,3	to_hand	s613
449.849	0.231	0	PA_with_intermediate	2,0,0,3,0,0,1,0,0	test	ward_and_allport	2,3,0,0,0,0,1,0,0	89.0	25.0	0.231	0,0,0,0,0,0,1,2,3	to_board	s613
450.089	0.694	0	PA_with_intermediate	2,0,0,0,0,0,1,0,0	test	ward_and_allport	2,3,0,0,0,0,1,0,0	71.0	25.0	0.694	0,0,0,0,0,0,1,2,3	to_hand	s613
450.784	0.255	0	PA_with_intermediate	2,3,0,0,0,0,1,0,0	test	ward_and_allport	2,3,0,0,0,0,1,0,0	89.0	25.0	0.255	0,0,0,0,0,0,1,2,3	to_board	s613
451.051	1.0	0	PA_with_intermediate	n/a	test	ward_and_allport	n/a	-1.0	25.0	n/a	n/a	feedback	s613
452.051	1.0	0	PA_with_intermediate	n/a	test	ward_and_allport	n/a	-1.0	25.0	n/a	n/a	ITI	s613
453.06	4.866	1	PA_without_intermediate	0,0,0,0,0,0,1,2,0	test	ward_and_allport	1,0,0,3,2,0,0,0,0	82.0	26.0	4.866	0,0,0,0,0,0,1,2,3	to_hand	s613
457.927	0.296	0	PA_without_intermediate	0,0,0,3,0,0,1,2,0	test	ward_and_allport	1,0,0,3,2,0,0,0,0	71.0	26.0	0.296	0,0,0,0,0,0,1,2,3	to_board	s613
458.231	0.651	0	PA_without_intermediate	0,0,0,3,0,0,1,0,0	test	ward_and_allport	1,0,0,3,2,0,0,0,0	82.0	26.0	0.651	0,0,0,0,0,0,1,2,3	to_hand	s613
458.883	0.282	0	PA_without_intermediate	0,0,0,3,2,0,1,0,0	test	ward_and_allport	1,0,0,3,2,0,0,0,0	71.0	26.0	0.282	0,0,0,0,0,0,1,2,3	to_board	s613
459.174	1.125	0	PA_without_intermediate	0,0,0,3,2,0,0,0,0	test	ward_and_allport	1,0,0,3,2,0,0,0,0	82.0	26.0	1.125	0,0,0,0,0,0,1,2,3	to_hand	s613
460.301	0.258	0	PA_without_intermediate	1,0,0,3,2,0,0,0,0	test	ward_and_allport	1,0,0,3,2,0,0,0,0	89.0	26.0	0.258	0,0,0,0,0,0,1,2,3	to_board	s613
460.571	1.0	0	PA_without_intermediate	n/a	test	ward_and_allport	n/a	-1.0	26.0	n/a	n/a	feedback	s613
461.571	1.0	0	PA_without_intermediate	n/a	test	ward_and_allport	n/a	-1.0	26.0	n/a	n/a	ITI	s613
462.58	3.786	1	PA_without_intermediate	0,0,0,0,0,0,1,2,0	test	ward_and_allport	3,2,0,1,0,0,0,0,0	82.0	27.0	3.786	0,0,0,0,0,0,1,2,3	to_hand	s613
466.367	0.238	0	PA_without_intermediate	3,0,0,0,0,0,1,2,0	test	ward_and_allport	3,2,0,1,0,0,0,0,0	89.0	27.0	0.238	0,0,0,0,0,0,1,2,3	to_board	s613
466.611	0.4	0	PA_without_intermediate	3,0,0,0,0,0,1,0,0	test	ward_and_allport	3,2,0,1,0,0,0,0,0	82.0	27.0	0.4	0,0,0,0,0,0,1,2,3	to_hand	s613
467.012	0.467	0	PA_without_intermediate	3,2,0,0,0,0,1,0,0	test	ward_and_allport	3,2,0,1,0,0,0,0,0	89.0	27.0	0.467	0,0,0,0,0,0,1,2,3	to_board	s613
467.487	0.601	0	PA_without_intermediate	3,2,0,0,0,0,0,0,0	test	ward_and_allport	3,2,0,1,0,0,0,0,0	82.0	27.0	0.601	0,0,0,0,0,0,1,2,3	to_hand	s613
468.089	0.28	0	PA_without_intermediate	3,2,0,1,0,0,0,0,0	test	ward_and_allport	3,2,0,1,0,0,0,0,0	71.0	27.0	0.28	0,0,0,0,0,0,1,2,3	to_board	s613
468.378	1.0	0	PA_without_intermediate	n/a	test	ward_and_allport	n/a	-1.0	27.0	n/a	n/a	feedback	s613
469.378	1.0	0	PA_without_intermediate	n/a	test	ward_and_allport	n/a	-1.0	27.0	n/a	n/a	ITI	s613
470.384	5.638	1	PA_with_intermediate	0,0,0,1,2,0,0,0,0	test	ward_and_allport	0,0,0,1,3,0,2,0,0	71.0	28.0	5.638	0,0,0,1,2,3,0,0,0	to_hand	s613
476.022	0.327	0	PA_with_intermediate	3,0,0,1,2,0,0,0,0	test	ward_and_allport	0,0,0,1,3,0,2,0,0	89.0	28.0	0.327	0,0,0,1,2,3,0,0,0	to_board	s613
476.356	0.67	0	PA_with_intermediate	3,0,0,1,0,0,0,0,0	test	ward_and_allport	0,0,0,1,3,0,2,0,0	71.0	28.0	0.67	0,0,0,1,2,3,0,0,0	to_hand	s613
477.026	0.267	0	PA_with_intermediate	3,0,0,1,0,0,2,0,0	test	ward_and_allport	0,0,0,1,3,0,2,0,0	82.0	28.0	0.267	0,0,0,1,2,3,0,0,0	to_board	s613
477.303	0.608	0	PA_with_intermediate	0,0,0,1,0,0,2,0,0	test	ward_and_allport	0,0,0,1,3,0,2,0,0	89.0	28.0	0.608	0,0,0,1,2,3,0,0,0	to_hand	s613
477.912	0.323	0	PA_with_intermediate	0,0,0,1,3,0,2,0,0	test	ward_and_allport	0,0,0,1,3,0,2,0,0	71.0	28.0	0.323	0,0,0,1,2,3,0,0,0	to_board	s613
478.246	1.0	0	PA_with_intermediate	n/a	test	ward_and_allport	n/a	-1.0	28.0	n/a	n/a	feedback	s613
479.246	1.544	0	PA_with_intermediate	n/a	test	ward_and_allport	n/a	-1.0	28.0	n/a	n/a	ITI	s613
480.799	3.548	1	PA_without_intermediate	0,0,0,1,2,0,0,0,0	test	ward_and_allport	3,1,0,0,0,0,2,0,0	71.0	29.0	3.548	0,0,0,1,2,3,0,0,0	to_hand	s613
484.348	0.195	0	PA_without_intermediate	3,0,0,1,2,0,0,0,0	test	ward_and_allport	3,1,0,0,0,0,2,0,0	89.0	29.0	0.195	0,0,0,1,2,3,0,0,0	to_board	s613
484.551	0.756	0	PA_without_intermediate	3,0,0,1,0,0,0,0,0	test	ward_and_allport	3,1,0,0,0,0,2,0,0	71.0	29.0	0.756	0,0,0,1,2,3,0,0,0	to_hand	s613
485.307	0.254	0	PA_without_intermediate	3,0,0,1,0,0,2,0,0	test	ward_and_allport	3,1,0,0,0,0,2,0,0	82.0	29.0	0.254	0,0,0,1,2,3,0,0,0	to_board	s613
485.571	0.494	0	PA_without_intermediate	3,0,0,0,0,0,2,0,0	test	ward_and_allport	3,1,0,0,0,0,2,0,0	71.0	29.0	0.494	0,0,0,1,2,3,0,0,0	to_hand	s613
486.066	0.209	0	PA_without_intermediate	3,1,0,0,0,0,2,0,0	test	ward_and_allport	3,1,0,0,0,0,2,0,0	89.0	29.0	0.209	0,0,0,1,2,3,0,0,0	to_board	s613
486.283	1.0	0	PA_without_intermediate	n/a	test	ward_and_allport	n/a	-1.0	29.0	n/a	n/a	feedback	s613
487.283	1.272	0	PA_without_intermediate	n/a	test	ward_and_allport	n/a	-1.0	29.0	n/a	n/a	ITI	s613
493.564	6.621	1	PA_with_intermediate	1,2,0,0,0,0,0,0,0	test	ward_and_allport	1,3,0,2,0,0,0,0,0	89.0	30.0	6.621	1,2,3,0,0,0,0,0,0	to_hand	s613
500.186	0.584	0	PA_with_intermediate	1,2,0,0,0,0,3,0,0	test	ward_and_allport	1,3,0,2,0,0,0,0,0	82.0	30.0	0.584	1,2,3,0,0,0,0,0,0	to_board	s613
500.779	0.692	0	PA_with_intermediate	1,0,0,0,0,0,3,0,0	test	ward_and_allport	1,3,0,2,0,0,0,0,0	89.0	30.0	0.692	1,2,3,0,0,0,0,0,0	to_hand	s613
501.472	0.471	0	PA_with_intermediate	1,0,0,2,0,0,3,0,0	test	ward_and_allport	1,3,0,2,0,0,0,0,0	71.0	30.0	0.471	1,2,3,0,0,0,0,0,0	to_board	s613
501.951	0.61	0	PA_with_intermediate	1,0,0,2,0,0,0,0,0	test	ward_and_allport	1,3,0,2,0,0,0,0,0	82.0	30.0	0.61	1,2,3,0,0,0,0,0,0	to_hand	s613
502.562	0.319	0	PA_with_intermediate	1,3,0,2,0,0,0,0,0	test	ward_and_allport	1,3,0,2,0,0,0,0,0	89.0	30.0	0.319	1,2,3,0,0,0,0,0,0	to_board	s613
502.894	1.0	0	PA_with_intermediate	n/a	test	ward_and_allport	n/a	-1.0	30.0	n/a	n/a	feedback	s613
503.894	3.04	0	PA_with_intermediate	n/a	test	ward_and_allport	n/a	-1.0	30.0	n/a	n/a	ITI	s613
506.941	5.458	1	PA_with_intermediate	1,2,0,0,0,0,0,0,0	test	ward_and_allport	1,0,0,2,3,0,0,0,0	89.0	31.0	5.458	1,2,3,0,0,0,0,0,0	to_hand	s613
512.401	0.226	0	PA_with_intermediate	1,2,0,0,0,0,3,0,0	test	ward_and_allport	1,0,0,2,3,0,0,0,0	82.0	31.0	0.226	1,2,3,0,0,0,0,0,0	to_board	s613
512.634	2.296	0	PA_with_intermediate	1,0,0,0,0,0,3,0,0	test	ward_and_allport	1,0,0,2,3,0,0,0,0	89.0	31.0	2.296	1,2,3,0,0,0,0,0,0	to_hand	s613
514.932	0.338	0	PA_with_intermediate	1,0,0,2,0,0,3,0,0	test	ward_and_allport	1,0,0,2,3,0,0,0,0	71.0	31.0	0.338	1,2,3,0,0,0,0,0,0	to_board	s613
515.279	0.445	0	PA_with_intermediate	1,0,0,2,0,0,0,0,0	test	ward_and_allport	1,0,0,2,3,0,0,0,0	82.0	31.0	0.445	1,2,3,0,0,0,0,0,0	to_hand	s613
515.725	0.432	0	PA_with_intermediate	1,0,0,2,3,0,0,0,0	test	ward_and_allport	1,0,0,2,3,0,0,0,0	71.0	31.0	0.432	1,2,3,0,0,0,0,0,0	to_board	s613
516.167	1.0	0	PA_with_intermediate	n/a	test	ward_and_allport	n/a	-1.0	31.0	n/a	n/a	feedback	s613
517.167	1.272	0	PA_with_intermediate	n/a	test	ward_and_allport	n/a	-1.0	31.0	n/a	n/a	ITI	s613
518.448	7.193	1	PA_with_intermediate	0,0,0,0,0,0,1,2,0	test	ward_and_allport	0,0,0,2,0,0,1,3,0	82.0	32.0	7.193	0,0,0,0,0,0,1,2,3	to_hand	s613
525.641	0.387	0	PA_with_intermediate	3,0,0,0,0,0,1,2,0	test	ward_and_allport	0,0,0,2,0,0,1,3,0	89.0	32.0	0.387	0,0,0,0,0,0,1,2,3	to_board	s613
526.035	1.098	0	PA_with_intermediate	3,0,0,0,0,0,1,0,0	test	ward_and_allport	0,0,0,2,0,0,1,3,0	82.0	32.0	1.098	0,0,0,0,0,0,1,2,3	to_hand	s613
527.134	0.523	0	PA_with_intermediate	3,0,0,2,0,0,1,0,0	test	ward_and_allport	0,0,0,2,0,0,1,3,0	71.0	32.0	0.523	0,0,0,0,0,0,1,2,3	to_board	s613
527.666	0.592	0	PA_with_intermediate	0,0,0,2,0,0,1,0,0	test	ward_and_allport	0,0,0,2,0,0,1,3,0	89.0	32.0	0.592	0,0,0,0,0,0,1,2,3	to_hand	s613
528.259	0.233	0	PA_with_intermediate	0,0,0,2,0,0,1,3,0	test	ward_and_allport	0,0,0,2,0,0,1,3,0	82.0	32.0	0.233	0,0,0,0,0,0,1,2,3	to_board	s613
528.505	1.0	0	PA_with_intermediate	n/a	test	ward_and_allport	n/a	-1.0	32.0	n/a	n/a	feedback	s613
529.505	1.136	0	PA_with_intermediate	n/a	test	ward_and_allport	n/a	-1.0	32.0	n/a	n/a	ITI	s613
530.65	7.162	1	PA_with_intermediate	0,0,0,1,2,0,0,0,0	test	ward_and_allport	0,0,0,1,3,0,2,0,0	71.0	33.0	7.162	0,0,0,1,2,3,0,0,0	to_hand	s613
537.812	0.197	0	PA_with_intermediate	3,0,0,1,2,0,0,0,0	test	ward_and_allport	0,0,0,1,3,0,2,0,0	89.0	33.0	0.197	0,0,0,1,2,3,0,0,0	to_board	s613
538.019	1.162	0	PA_with_intermediate	3,0,0,1,0,0,0,0,0	test	ward_and_allport	0,0,0,1,3,0,2,0,0	71.0	33.0	1.162	0,0,0,1,2,3,0,0,0	to_hand	s613
539.183	0.204	0	PA_with_intermediate	3,0,0,1,0,0,2,0,0	test	ward_and_allport	0,0,0,1,3,0,2,0,0	82.0	33.0	0.204	0,0,0,1,2,3,0,0,0	to_board	s613
539.397	0.769	0	PA_with_intermediate	0,0,0,1,0,0,2,0,0	test	ward_and_allport	0,0,0,1,3,0,2,0,0	89.0	33.0	0.769	0,0,0,1,2,3,0,0,0	to_hand	s613
540.167	0.198	0	PA_with_intermediate	0,0,0,1,3,0,2,0,0	test	ward_and_allport	0,0,0,1,3,0,2,0,0	71.0	33.0	0.198	0,0,0,1,2,3,0,0,0	to_board	s613
540.379	1.0	0	PA_with_intermediate	n/a	test	ward_and_allport	n/a	-1.0	33.0	n/a	n/a	feedback	s613
541.379	1.0	0	PA_with_intermediate	n/a	test	ward_and_allport	n/a	-1.0	33.0	n/a	n/a	ITI	s613
542.389	6.177	1	PA_with_intermediate	0,0,0,0,0,0,1,2,0	test	ward_and_allport	2,3,0,0,0,0,1,0,0	82.0	34.0	6.177	0,0,0,0,0,0,1,2,3	to_hand	s613
548.567	0.294	0	PA_with_intermediate	0,0,0,3,0,0,1,2,0	test	ward_and_allport	2,3,0,0,0,0,1,0,0	71.0	34.0	0.294	0,0,0,0,0,0,1,2,3	to_board	s613
548.871	0.928	0	PA_with_intermediate	0,0,0,3,0,0,1,0,0	test	ward_and_allport	2,3,0,0,0,0,1,0,0	82.0	34.0	0.928	0,0,0,0,0,0,1,2,3	to_hand	s613
549.8	0.363	0	PA_with_intermediate	2,0,0,3,0,0,1,0,0	test	ward_and_allport	2,3,0,0,0,0,1,0,0	89.0	34.0	0.363	0,0,0,0,0,0,1,2,3	to_board	s613
550.173	1.002	0	PA_with_intermediate	2,0,0,0,0,0,1,0,0	test	ward_and_allport	2,3,0,0,0,0,1,0,0	71.0	34.0	1.002	0,0,0,0,0,0,1,2,3	to_hand	s613
551.176	0.281	0	PA_with_intermediate	2,3,0,0,0,0,1,0,0	test	ward_and_allport	2,3,0,0,0,0,1,0,0	89.0	34.0	0.281	0,0,0,0,0,0,1,2,3	to_board	s613
551.473	1.0	0	PA_with_intermediate	n/a	test	ward_and_allport	n/a	-1.0	34.0	n/a	n/a	feedback	s613
552.473	1.0	0	PA_with_intermediate	n/a	test	ward_and_allport	n/a	-1.0	34.0	n/a	n/a	ITI	s613
553.482	11.992	1	PA_without_intermediate	1,2,0,0,0,0,0,0,0	test	ward_and_allport	0,0,0,3,2,0,1,0,0	89.0	35.0	11.992	1,2,3,0,0,0,0,0,0	to_hand	s613
565.475	0.215	0	PA_without_intermediate	1,2,0,3,0,0,0,0,0	test	ward_and_allport	0,0,0,3,2,0,1,0,0	71.0	35.0	0.215	1,2,3,0,0,0,0,0,0	to_board	s613
565.701	1.1	0	PA_without_intermediate	1,0,0,3,0,0,0,0,0	test	ward_and_allport	0,0,0,3,2,0,1,0,0	89.0	35.0	1.1	1,2,3,0,0,0,0,0,0	to_hand	s613
566.802	0.298	0	PA_without_intermediate	1,0,0,3,2,0,0,0,0	test	ward_and_allport	0,0,0,3,2,0,1,0,0	71.0	35.0	0.298	1,2,3,0,0,0,0,0,0	to_board	s613
567.107	0.565	0	PA_without_intermediate	0,0,0,3,2,0,0,0,0	test	ward_and_allport	0,0,0,3,2,0,1,0,0	89.0	35.0	0.565	1,2,3,0,0,0,0,0,0	to_hand	s613
567.673	0.165	0	PA_without_intermediate	0,0,0,3,2,0,1,0,0	test	ward_and_allport	0,0,0,3,2,0,1,0,0	82.0	35.0	0.165	1,2,3,0,0,0,0,0,0	to_board	s613
567.85	1.0	0	PA_without_intermediate	n/a	test	ward_and_allport	n/a	-1.0	35.0	n/a	n/a	feedback	s613
568.85	1.408	0	PA_without_intermediate	n/a	test	ward_and_allport	n/a	-1.0	35.0	n/a	n/a	ITI	s613
n/a	n/a	0	n/a	n/a	n/a	n/a	n/a	n/a	n/a	n/a	n/a	ITI	n/a
