onset	duration	planning	condition	current_position	exp_stage	experiment_exp_id	goal_state	key_press	problem_id	response_time	start_state	trial_id	worker_id
-54.1	0.0	0	n/a	n/a	n/a	ward_and_allport	n/a	32.0	n/a	18.781	n/a	instructions	s579
3.017	4.186	1	UA_with_intermediate	1,0,0,2,0,0,0,0,0	practice	ward_and_allport	1,2,3,0,0,0,0,0,0	71.0	0.0	4.186	1,0,0,2,3,0,0,0,0	to_hand	s579
7.204	1.468	0	UA_with_intermediate	1,0,0,2,0,0,3,0,0	practice	ward_and_allport	1,2,3,0,0,0,0,0,0	82.0	0.0	1.468	1,0,0,2,3,0,0,0,0	to_board	s579
8.673	0.483	0	UA_with_intermediate	1,0,0,0,0,0,3,0,0	practice	ward_and_allport	1,2,3,0,0,0,0,0,0	71.0	0.0	0.483	1,0,0,2,3,0,0,0,0	to_hand	s579
9.157	0.493	0	UA_with_intermediate	1,2,0,0,0,0,3,0,0	practice	ward_and_allport	1,2,3,0,0,0,0,0,0	89.0	0.0	0.493	1,0,0,2,3,0,0,0,0	to_board	s579
9.651	1.466	0	UA_with_intermediate	1,2,0,0,0,0,0,0,0	practice	ward_and_allport	1,2,3,0,0,0,0,0,0	82.0	0.0	1.466	1,0,0,2,3,0,0,0,0	to_hand	s579
11.118	0.695	0	UA_with_intermediate	1,2,3,0,0,0,0,0,0	practice	ward_and_allport	1,2,3,0,0,0,0,0,0	89.0	0.0	0.695	1,0,0,2,3,0,0,0,0	to_board	s579
11.818	1.0	0	UA_with_intermediate	n/a	practice	ward_and_allport	n/a	-1.0	0.0	n/a	n/a	feedback	s579
14.321	3.404	1	UA_with_intermediate	1,0,0,3,0,0,0,0,0	practice	ward_and_allport	1,3,2,0,0,0,0,0,0	89.0	1.0	3.404	1,2,0,3,0,0,0,0,0	to_hand	s579
17.726	0.754	0	UA_with_intermediate	1,0,0,3,0,0,2,0,0	practice	ward_and_allport	1,3,2,0,0,0,0,0,0	82.0	1.0	0.754	1,2,0,3,0,0,0,0,0	to_board	s579
18.48	1.051	0	UA_with_intermediate	1,0,0,0,0,0,2,0,0	practice	ward_and_allport	1,3,2,0,0,0,0,0,0	71.0	1.0	1.051	1,2,0,3,0,0,0,0,0	to_hand	s579
19.533	0.456	0	UA_with_intermediate	1,3,0,0,0,0,2,0,0	practice	ward_and_allport	1,3,2,0,0,0,0,0,0	89.0	1.0	0.456	1,2,0,3,0,0,0,0,0	to_board	s579
19.991	0.826	0	UA_with_intermediate	1,3,0,0,0,0,0,0,0	practice	ward_and_allport	1,3,2,0,0,0,0,0,0	82.0	1.0	0.826	1,2,0,3,0,0,0,0,0	to_hand	s579
20.818	0.398	0	UA_with_intermediate	1,3,2,0,0,0,0,0,0	practice	ward_and_allport	1,3,2,0,0,0,0,0,0	89.0	1.0	0.398	1,2,0,3,0,0,0,0,0	to_board	s579
21.221	1.0	0	UA_with_intermediate	n/a	practice	ward_and_allport	n/a	-1.0	1.0	n/a	n/a	feedback	s579
22.221	1.1	0	UA_with_intermediate	n/a	practice	ward_and_allport	n/a	-1.0	1.0	n/a	n/a	ITI	s579
23.322	2.528	1	UA_without_intermediate	0,0,0,1,2,0,0,0,0	practice	ward_and_allport	3,2,1,0,0,0,0,0,0	82.0	2.0	2.528	0,0,0,1,2,0,3,0,0	to_hand	s579
25.852	0.497	0	UA_without_intermediate	3,0,0,1,2,0,0,0,0	practice	ward_and_allport	3,2,1,0,0,0,0,0,0	89.0	2.0	0.497	0,0,0,1,2,0,3,0,0	to_board	s579
26.351	1.479	0	UA_without_intermediate	3,0,0,1,0,0,0,0,0	practice	ward_and_allport	3,2,1,0,0,0,0,0,0	71.0	2.0	1.479	0,0,0,1,2,0,3,0,0	to_hand	s579
27.831	0.522	0	UA_without_intermediate	3,2,0,1,0,0,0,0,0	practice	ward_and_allport	3,2,1,0,0,0,0,0,0	89.0	2.0	0.522	0,0,0,1,2,0,3,0,0	to_board	s579
28.355	0.772	0	UA_without_intermediate	3,2,0,0,0,0,0,0,0	practice	ward_and_allport	3,2,1,0,0,0,0,0,0	71.0	2.0	0.772	0,0,0,1,2,0,3,0,0	to_hand	s579
29.127	0.363	0	UA_without_intermediate	3,2,1,0,0,0,0,0,0	practice	ward_and_allport	3,2,1,0,0,0,0,0,0	89.0	2.0	0.363	0,0,0,1,2,0,3,0,0	to_board	s579
29.495	1.0	0	UA_without_intermediate	n/a	practice	ward_and_allport	n/a	-1.0	2.0	n/a	n/a	feedback	s579
30.495	1.2	0	UA_without_intermediate	n/a	practice	ward_and_allport	n/a	-1.0	2.0	n/a	n/a	ITI	s579
31.696	2.982	1	UA_without_intermediate	0,0,0,1,0,0,3,0,0	practice	ward_and_allport	2,3,1,0,0,0,0,0,0	71.0	3.0	2.982	0,0,0,1,2,0,3,0,0	to_hand	s579
34.68	0.381	0	UA_without_intermediate	2,0,0,1,0,0,3,0,0	practice	ward_and_allport	2,3,1,0,0,0,0,0,0	89.0	3.0	0.381	0,0,0,1,2,0,3,0,0	to_board	s579
35.063	0.494	0	UA_without_intermediate	2,0,0,1,0,0,0,0,0	practice	ward_and_allport	2,3,1,0,0,0,0,0,0	82.0	3.0	0.494	0,0,0,1,2,0,3,0,0	to_hand	s579
35.558	0.517	0	UA_without_intermediate	2,3,0,1,0,0,0,0,0	practice	ward_and_allport	2,3,1,0,0,0,0,0,0	89.0	3.0	0.517	0,0,0,1,2,0,3,0,0	to_board	s579
36.076	0.543	0	UA_without_intermediate	2,3,0,0,0,0,0,0,0	practice	ward_and_allport	2,3,1,0,0,0,0,0,0	71.0	3.0	0.543	0,0,0,1,2,0,3,0,0	to_hand	s579
36.62	0.341	0	UA_without_intermediate	2,3,1,0,0,0,0,0,0	practice	ward_and_allport	2,3,1,0,0,0,0,0,0	89.0	3.0	0.341	0,0,0,1,2,0,3,0,0	to_board	s579
36.964	1.0	0	UA_without_intermediate	n/a	practice	ward_and_allport	n/a	-1.0	3.0	n/a	n/a	feedback	s579
37.964	1.0	0	UA_without_intermediate	n/a	practice	ward_and_allport	n/a	-1.0	3.0	n/a	n/a	ITI	s579
40.97	6.582	1	PA_with_intermediate	0,0,0,0,0,0,1,2,0	test	ward_and_allport	2,0,0,0,0,0,1,3,0	82.0	0.0	6.582	0,0,0,0,0,0,1,2,3	to_hand	s579
47.553	0.788	0	PA_with_intermediate	0,0,0,3,0,0,1,2,0	test	ward_and_allport	2,0,0,0,0,0,1,3,0	71.0	0.0	0.788	0,0,0,0,0,0,1,2,3	to_board	s579
48.344	1.024	0	PA_with_intermediate	0,0,0,0,0,0,1,2,0	test	ward_and_allport	2,0,0,0,0,0,1,3,0	71.0	0.0	1.024	0,0,0,0,0,0,1,2,3	to_hand	s579
49.369	1.021	0	PA_with_intermediate	0,0,0,3,0,0,1,2,0	test	ward_and_allport	2,0,0,0,0,0,1,3,0	71.0	0.0	1.021	0,0,0,0,0,0,1,2,3	to_board	s579
50.392	0.458	0	PA_with_intermediate	0,0,0,3,0,0,1,0,0	test	ward_and_allport	2,0,0,0,0,0,1,3,0	82.0	0.0	0.458	0,0,0,0,0,0,1,2,3	to_hand	s579
50.85	0.415	0	PA_with_intermediate	2,0,0,3,0,0,1,0,0	test	ward_and_allport	2,0,0,0,0,0,1,3,0	89.0	0.0	0.415	0,0,0,0,0,0,1,2,3	to_board	s579
51.266	1.711	0	PA_with_intermediate	2,0,0,0,0,0,1,0,0	test	ward_and_allport	2,0,0,0,0,0,1,3,0	71.0	0.0	1.711	0,0,0,0,0,0,1,2,3	to_hand	s579
52.978	0.812	0	PA_with_intermediate	2,0,0,0,0,0,1,3,0	test	ward_and_allport	2,0,0,0,0,0,1,3,0	82.0	0.0	0.812	0,0,0,0,0,0,1,2,3	to_board	s579
53.795	1.0	0	PA_with_intermediate	n/a	test	ward_and_allport	n/a	-1.0	0.0	n/a	n/a	feedback	s579
54.795	1.408	0	PA_with_intermediate	n/a	test	ward_and_allport	n/a	-1.0	0.0	n/a	n/a	ITI	s579
56.204	3.905	1	PA_without_intermediate	0,0,0,1,2,0,0,0,0	test	ward_and_allport	1,0,0,0,0,0,3,2,0	71.0	1.0	3.905	0,0,0,1,2,3,0,0,0	to_hand	s579
60.111	0.85	0	PA_without_intermediate	3,0,0,1,2,0,0,0,0	test	ward_and_allport	1,0,0,0,0,0,3,2,0	89.0	1.0	0.85	0,0,0,1,2,3,0,0,0	to_board	s579
60.963	1.566	0	PA_without_intermediate	0,0,0,1,2,0,0,0,0	test	ward_and_allport	1,0,0,0,0,0,3,2,0	89.0	1.0	1.566	0,0,0,1,2,3,0,0,0	to_hand	s579
62.529	0.39	0	PA_without_intermediate	0,0,0,1,2,0,3,0,0	test	ward_and_allport	1,0,0,0,0,0,3,2,0	82.0	1.0	0.39	0,0,0,1,2,3,0,0,0	to_board	s579
62.922	1.297	0	PA_without_intermediate	0,0,0,1,0,0,3,0,0	test	ward_and_allport	1,0,0,0,0,0,3,2,0	71.0	1.0	1.297	0,0,0,1,2,3,0,0,0	to_hand	s579
64.22	0.633	0	PA_without_intermediate	0,0,0,1,0,0,3,2,0	test	ward_and_allport	1,0,0,0,0,0,3,2,0	82.0	1.0	0.633	0,0,0,1,2,3,0,0,0	to_board	s579
64.855	0.63	0	PA_without_intermediate	0,0,0,0,0,0,3,2,0	test	ward_and_allport	1,0,0,0,0,0,3,2,0	71.0	1.0	0.63	0,0,0,1,2,3,0,0,0	to_hand	s579
65.486	0.416	0	PA_without_intermediate	1,0,0,0,0,0,3,2,0	test	ward_and_allport	1,0,0,0,0,0,3,2,0	89.0	1.0	0.416	0,0,0,1,2,3,0,0,0	to_board	s579
65.907	1.0	0	PA_without_intermediate	n/a	test	ward_and_allport	n/a	-1.0	1.0	n/a	n/a	feedback	s579
66.907	1.68	0	PA_without_intermediate	n/a	test	ward_and_allport	n/a	-1.0	1.0	n/a	n/a	ITI	s579
68.59	5.581	1	PA_with_intermediate	0,0,0,0,0,0,1,2,0	test	ward_and_allport	2,0,0,0,0,0,1,3,0	82.0	2.0	5.581	0,0,0,0,0,0,1,2,3	to_hand	s579
74.172	0.392	0	PA_with_intermediate	0,0,0,3,0,0,1,2,0	test	ward_and_allport	2,0,0,0,0,0,1,3,0	71.0	2.0	0.392	0,0,0,0,0,0,1,2,3	to_board	s579
74.566	0.67	0	PA_with_intermediate	0,0,0,3,0,0,1,0,0	test	ward_and_allport	2,0,0,0,0,0,1,3,0	82.0	2.0	0.67	0,0,0,0,0,0,1,2,3	to_hand	s579
75.237	0.395	0	PA_with_intermediate	2,0,0,3,0,0,1,0,0	test	ward_and_allport	2,0,0,0,0,0,1,3,0	89.0	2.0	0.395	0,0,0,0,0,0,1,2,3	to_board	s579
75.634	0.617	0	PA_with_intermediate	2,0,0,0,0,0,1,0,0	test	ward_and_allport	2,0,0,0,0,0,1,3,0	71.0	2.0	0.617	0,0,0,0,0,0,1,2,3	to_hand	s579
76.253	0.468	0	PA_with_intermediate	2,0,0,0,0,0,1,3,0	test	ward_and_allport	2,0,0,0,0,0,1,3,0	82.0	2.0	0.468	0,0,0,0,0,0,1,2,3	to_board	s579
76.727	1.0	0	PA_with_intermediate	n/a	test	ward_and_allport	n/a	-1.0	2.0	n/a	n/a	feedback	s579
77.727	3.72	0	PA_with_intermediate	n/a	test	ward_and_allport	n/a	-1.0	2.0	n/a	n/a	ITI	s579
81.45	5.056	1	PA_without_intermediate	0,0,0,0,0,0,1,2,0	test	ward_and_allport	3,1,0,2,0,0,0,0,0	82.0	3.0	5.056	0,0,0,0,0,0,1,2,3	to_hand	s579
86.507	0.403	0	PA_without_intermediate	3,0,0,0,0,0,1,2,0	test	ward_and_allport	3,1,0,2,0,0,0,0,0	89.0	3.0	0.403	0,0,0,0,0,0,1,2,3	to_board	s579
86.913	0.715	0	PA_without_intermediate	3,0,0,0,0,0,1,0,0	test	ward_and_allport	3,1,0,2,0,0,0,0,0	82.0	3.0	0.715	0,0,0,0,0,0,1,2,3	to_hand	s579
87.629	0.546	0	PA_without_intermediate	3,0,0,2,0,0,1,0,0	test	ward_and_allport	3,1,0,2,0,0,0,0,0	71.0	3.0	0.546	0,0,0,0,0,0,1,2,3	to_board	s579
88.179	0.59	0	PA_without_intermediate	3,0,0,2,0,0,0,0,0	test	ward_and_allport	3,1,0,2,0,0,0,0,0	82.0	3.0	0.59	0,0,0,0,0,0,1,2,3	to_hand	s579
88.77	0.462	0	PA_without_intermediate	3,1,0,2,0,0,0,0,0	test	ward_and_allport	3,1,0,2,0,0,0,0,0	89.0	3.0	0.462	0,0,0,0,0,0,1,2,3	to_board	s579
89.236	1.0	0	PA_without_intermediate	n/a	test	ward_and_allport	n/a	-1.0	3.0	n/a	n/a	feedback	s579
90.236	2.224	0	PA_without_intermediate	n/a	test	ward_and_allport	n/a	-1.0	3.0	n/a	n/a	ITI	s579
92.463	4.069	1	PA_without_intermediate	0,0,0,1,2,0,0,0,0	test	ward_and_allport	2,0,0,0,0,0,3,1,0	71.0	4.0	4.069	0,0,0,1,2,3,0,0,0	to_hand	s579
96.533	0.331	0	PA_without_intermediate	0,0,0,1,2,0,3,0,0	test	ward_and_allport	2,0,0,0,0,0,3,1,0	82.0	4.0	0.331	0,0,0,1,2,3,0,0,0	to_board	s579
96.866	0.459	0	PA_without_intermediate	0,0,0,1,0,0,3,0,0	test	ward_and_allport	2,0,0,0,0,0,3,1,0	71.0	4.0	0.459	0,0,0,1,2,3,0,0,0	to_hand	s579
97.327	0.347	0	PA_without_intermediate	2,0,0,1,0,0,3,0,0	test	ward_and_allport	2,0,0,0,0,0,3,1,0	89.0	4.0	0.347	0,0,0,1,2,3,0,0,0	to_board	s579
97.676	0.398	0	PA_without_intermediate	2,0,0,0,0,0,3,0,0	test	ward_and_allport	2,0,0,0,0,0,3,1,0	71.0	4.0	0.398	0,0,0,1,2,3,0,0,0	to_hand	s579
98.076	0.333	0	PA_without_intermediate	2,0,0,0,0,0,3,1,0	test	ward_and_allport	2,0,0,0,0,0,3,1,0	82.0	4.0	0.333	0,0,0,1,2,3,0,0,0	to_board	s579
98.413	1.0	0	PA_without_intermediate	n/a	test	ward_and_allport	n/a	-1.0	4.0	n/a	n/a	feedback	s579
99.413	1.272	0	PA_without_intermediate	n/a	test	ward_and_allport	n/a	-1.0	4.0	n/a	n/a	ITI	s579
100.687	3.615	1	PA_with_intermediate	1,2,0,0,0,0,0,0,0	test	ward_and_allport	1,0,0,2,3,0,0,0,0	89.0	5.0	3.615	1,2,3,0,0,0,0,0,0	to_hand	s579
104.303	0.391	0	PA_with_intermediate	1,2,0,0,0,0,3,0,0	test	ward_and_allport	1,0,0,2,3,0,0,0,0	82.0	5.0	0.391	1,2,3,0,0,0,0,0,0	to_board	s579
104.698	0.911	0	PA_with_intermediate	1,0,0,0,0,0,3,0,0	test	ward_and_allport	1,0,0,2,3,0,0,0,0	89.0	5.0	0.911	1,2,3,0,0,0,0,0,0	to_hand	s579
105.61	0.404	0	PA_with_intermediate	1,0,0,2,0,0,3,0,0	test	ward_and_allport	1,0,0,2,3,0,0,0,0	71.0	5.0	0.404	1,2,3,0,0,0,0,0,0	to_board	s579
106.016	0.782	0	PA_with_intermediate	1,0,0,2,0,0,0,0,0	test	ward_and_allport	1,0,0,2,3,0,0,0,0	82.0	5.0	0.782	1,2,3,0,0,0,0,0,0	to_hand	s579
106.8	0.659	0	PA_with_intermediate	1,0,0,2,3,0,0,0,0	test	ward_and_allport	1,0,0,2,3,0,0,0,0	71.0	5.0	0.659	1,2,3,0,0,0,0,0,0	to_board	s579
107.464	1.0	0	PA_with_intermediate	n/a	test	ward_and_allport	n/a	-1.0	5.0	n/a	n/a	feedback	s579
108.464	2.632	0	PA_with_intermediate	n/a	test	ward_and_allport	n/a	-1.0	5.0	n/a	n/a	ITI	s579
111.099	3.44	1	PA_without_intermediate	0,0,0,0,0,0,1,2,0	test	ward_and_allport	1,0,0,3,2,0,0,0,0	82.0	6.0	3.44	0,0,0,0,0,0,1,2,3	to_hand	s579
114.54	0.527	0	PA_without_intermediate	0,0,0,3,0,0,1,2,0	test	ward_and_allport	1,0,0,3,2,0,0,0,0	71.0	6.0	0.527	0,0,0,0,0,0,1,2,3	to_board	s579
115.07	0.621	0	PA_without_intermediate	0,0,0,3,0,0,1,0,0	test	ward_and_allport	1,0,0,3,2,0,0,0,0	82.0	6.0	0.621	0,0,0,0,0,0,1,2,3	to_hand	s579
115.692	0.6	0	PA_without_intermediate	0,0,0,3,2,0,1,0,0	test	ward_and_allport	1,0,0,3,2,0,0,0,0	71.0	6.0	0.6	0,0,0,0,0,0,1,2,3	to_board	s579
116.295	0.426	0	PA_without_intermediate	0,0,0,3,2,0,0,0,0	test	ward_and_allport	1,0,0,3,2,0,0,0,0	82.0	6.0	0.426	0,0,0,0,0,0,1,2,3	to_hand	s579
116.722	0.461	0	PA_without_intermediate	1,0,0,3,2,0,0,0,0	test	ward_and_allport	1,0,0,3,2,0,0,0,0	89.0	6.0	0.461	0,0,0,0,0,0,1,2,3	to_board	s579
117.189	1.0	0	PA_without_intermediate	n/a	test	ward_and_allport	n/a	-1.0	6.0	n/a	n/a	feedback	s579
118.189	1.408	0	PA_without_intermediate	n/a	test	ward_and_allport	n/a	-1.0	6.0	n/a	n/a	ITI	s579
119.6	3.052	1	PA_without_intermediate	0,0,0,1,2,0,0,0,0	test	ward_and_allport	2,0,0,0,0,0,3,1,0	71.0	7.0	3.052	0,0,0,1,2,3,0,0,0	to_hand	s579
122.653	0.374	0	PA_without_intermediate	0,0,0,1,2,0,3,0,0	test	ward_and_allport	2,0,0,0,0,0,3,1,0	82.0	7.0	0.374	0,0,0,1,2,3,0,0,0	to_board	s579
123.03	0.4	0	PA_without_intermediate	0,0,0,1,0,0,3,0,0	test	ward_and_allport	2,0,0,0,0,0,3,1,0	71.0	7.0	0.4	0,0,0,1,2,3,0,0,0	to_hand	s579
123.432	0.412	0	PA_without_intermediate	2,0,0,1,0,0,3,0,0	test	ward_and_allport	2,0,0,0,0,0,3,1,0	89.0	7.0	0.412	0,0,0,1,2,3,0,0,0	to_board	s579
123.847	0.412	0	PA_without_intermediate	2,0,0,0,0,0,3,0,0	test	ward_and_allport	2,0,0,0,0,0,3,1,0	71.0	7.0	0.412	0,0,0,1,2,3,0,0,0	to_hand	s579
124.26	0.386	0	PA_without_intermediate	2,0,0,0,0,0,3,1,0	test	ward_and_allport	2,0,0,0,0,0,3,1,0	82.0	7.0	0.386	0,0,0,1,2,3,0,0,0	to_board	s579
124.654	1.0	0	PA_without_intermediate	n/a	test	ward_and_allport	n/a	-1.0	7.0	n/a	n/a	feedback	s579
125.654	1.0	0	PA_without_intermediate	n/a	test	ward_and_allport	n/a	-1.0	7.0	n/a	n/a	ITI	s579
126.657	3.911	1	PA_with_intermediate	1,2,0,0,0,0,0,0,0	test	ward_and_allport	1,3,0,0,0,0,2,0,0	89.0	8.0	3.911	1,2,3,0,0,0,0,0,0	to_hand	s579
130.569	0.321	0	PA_with_intermediate	1,2,0,3,0,0,0,0,0	test	ward_and_allport	1,3,0,0,0,0,2,0,0	71.0	8.0	0.321	1,2,3,0,0,0,0,0,0	to_board	s579
130.894	0.568	0	PA_with_intermediate	1,0,0,3,0,0,0,0,0	test	ward_and_allport	1,3,0,0,0,0,2,0,0	89.0	8.0	0.568	1,2,3,0,0,0,0,0,0	to_hand	s579
131.462	0.42	0	PA_with_intermediate	1,0,0,3,0,0,2,0,0	test	ward_and_allport	1,3,0,0,0,0,2,0,0	82.0	8.0	0.42	1,2,3,0,0,0,0,0,0	to_board	s579
131.885	0.461	0	PA_with_intermediate	1,0,0,0,0,0,2,0,0	test	ward_and_allport	1,3,0,0,0,0,2,0,0	71.0	8.0	0.461	1,2,3,0,0,0,0,0,0	to_hand	s579
132.348	0.438	0	PA_with_intermediate	1,3,0,0,0,0,2,0,0	test	ward_and_allport	1,3,0,0,0,0,2,0,0	89.0	8.0	0.438	1,2,3,0,0,0,0,0,0	to_board	s579
132.793	1.0	0	PA_with_intermediate	n/a	test	ward_and_allport	n/a	-1.0	8.0	n/a	n/a	feedback	s579
133.793	1.0	0	PA_with_intermediate	n/a	test	ward_and_allport	n/a	-1.0	8.0	n/a	n/a	ITI	s579
134.796	3.713	1	PA_with_intermediate	1,2,0,0,0,0,0,0,0	test	ward_and_allport	1,3,0,2,0,0,0,0,0	89.0	9.0	3.713	1,2,3,0,0,0,0,0,0	to_hand	s579
138.511	0.423	0	PA_with_intermediate	1,2,0,0,0,0,3,0,0	test	ward_and_allport	1,3,0,2,0,0,0,0,0	82.0	9.0	0.423	1,2,3,0,0,0,0,0,0	to_board	s579
138.938	0.503	0	PA_with_intermediate	1,0,0,0,0,0,3,0,0	test	ward_and_allport	1,3,0,2,0,0,0,0,0	89.0	9.0	0.503	1,2,3,0,0,0,0,0,0	to_hand	s579
139.441	0.403	0	PA_with_intermediate	1,0,0,2,0,0,3,0,0	test	ward_and_allport	1,3,0,2,0,0,0,0,0	71.0	9.0	0.403	1,2,3,0,0,0,0,0,0	to_board	s579
139.848	0.548	0	PA_with_intermediate	1,0,0,2,0,0,0,0,0	test	ward_and_allport	1,3,0,2,0,0,0,0,0	82.0	9.0	0.548	1,2,3,0,0,0,0,0,0	to_hand	s579
140.396	0.37	0	PA_with_intermediate	1,3,0,2,0,0,0,0,0	test	ward_and_allport	1,3,0,2,0,0,0,0,0	89.0	9.0	0.37	1,2,3,0,0,0,0,0,0	to_board	s579
140.772	1.0	0	PA_with_intermediate	n/a	test	ward_and_allport	n/a	-1.0	9.0	n/a	n/a	feedback	s579
141.772	1.0	0	PA_with_intermediate	n/a	test	ward_and_allport	n/a	-1.0	9.0	n/a	n/a	ITI	s579
142.776	2.478	1	PA_with_intermediate	0,0,0,1,2,0,0,0,0	test	ward_and_allport	0,0,0,1,0,0,2,3,0	71.0	10.0	2.478	0,0,0,1,2,3,0,0,0	to_hand	s579
145.256	0.392	0	PA_with_intermediate	3,0,0,1,2,0,0,0,0	test	ward_and_allport	0,0,0,1,0,0,2,3,0	89.0	10.0	0.392	0,0,0,1,2,3,0,0,0	to_board	s579
145.653	0.492	0	PA_with_intermediate	3,0,0,1,0,0,0,0,0	test	ward_and_allport	0,0,0,1,0,0,2,3,0	71.0	10.0	0.492	0,0,0,1,2,3,0,0,0	to_hand	s579
146.145	0.5	0	PA_with_intermediate	3,0,0,1,0,0,2,0,0	test	ward_and_allport	0,0,0,1,0,0,2,3,0	82.0	10.0	0.5	0,0,0,1,2,3,0,0,0	to_board	s579
146.649	0.459	0	PA_with_intermediate	0,0,0,1,0,0,2,0,0	test	ward_and_allport	0,0,0,1,0,0,2,3,0	89.0	10.0	0.459	0,0,0,1,2,3,0,0,0	to_hand	s579
147.109	1.138	0	PA_with_intermediate	0,0,0,1,0,0,2,3,0	test	ward_and_allport	0,0,0,1,0,0,2,3,0	82.0	10.0	1.138	0,0,0,1,2,3,0,0,0	to_board	s579
148.252	1.0	0	PA_with_intermediate	n/a	test	ward_and_allport	n/a	-1.0	10.0	n/a	n/a	feedback	s579
149.252	1.408	0	PA_with_intermediate	n/a	test	ward_and_allport	n/a	-1.0	10.0	n/a	n/a	ITI	s579
150.665	2.905	1	PA_without_intermediate	0,0,0,0,0,0,1,2,0	test	ward_and_allport	3,2,0,1,0,0,0,0,0	82.0	11.0	2.905	0,0,0,0,0,0,1,2,3	to_hand	s579
153.571	0.408	0	PA_without_intermediate	3,0,0,0,0,0,1,2,0	test	ward_and_allport	3,2,0,1,0,0,0,0,0	89.0	11.0	0.408	0,0,0,0,0,0,1,2,3	to_board	s579
153.983	0.684	0	PA_without_intermediate	3,0,0,0,0,0,1,0,0	test	ward_and_allport	3,2,0,1,0,0,0,0,0	82.0	11.0	0.684	0,0,0,0,0,0,1,2,3	to_hand	s579
154.668	0.548	0	PA_without_intermediate	3,2,0,0,0,0,1,0,0	test	ward_and_allport	3,2,0,1,0,0,0,0,0	89.0	11.0	0.548	0,0,0,0,0,0,1,2,3	to_board	s579
155.22	0.871	0	PA_without_intermediate	3,2,0,0,0,0,0,0,0	test	ward_and_allport	3,2,0,1,0,0,0,0,0	82.0	11.0	0.871	0,0,0,0,0,0,1,2,3	to_hand	s579
156.092	0.522	0	PA_without_intermediate	3,2,0,1,0,0,0,0,0	test	ward_and_allport	3,2,0,1,0,0,0,0,0	71.0	11.0	0.522	0,0,0,0,0,0,1,2,3	to_board	s579
156.618	1.0	0	PA_without_intermediate	n/a	test	ward_and_allport	n/a	-1.0	11.0	n/a	n/a	feedback	s579
157.618	1.816	0	PA_without_intermediate	n/a	test	ward_and_allport	n/a	-1.0	11.0	n/a	n/a	ITI	s579
159.439	2.346	1	PA_with_intermediate	0,0,0,1,2,0,0,0,0	test	ward_and_allport	0,0,0,1,0,0,2,3,0	71.0	12.0	2.346	0,0,0,1,2,3,0,0,0	to_hand	s579
161.787	0.376	0	PA_with_intermediate	3,0,0,1,2,0,0,0,0	test	ward_and_allport	0,0,0,1,0,0,2,3,0	89.0	12.0	0.376	0,0,0,1,2,3,0,0,0	to_board	s579
162.168	0.443	0	PA_with_intermediate	3,0,0,1,0,0,0,0,0	test	ward_and_allport	0,0,0,1,0,0,2,3,0	71.0	12.0	0.443	0,0,0,1,2,3,0,0,0	to_hand	s579
162.612	0.49	0	PA_with_intermediate	3,0,0,1,0,0,2,0,0	test	ward_and_allport	0,0,0,1,0,0,2,3,0	82.0	12.0	0.49	0,0,0,1,2,3,0,0,0	to_board	s579
163.106	0.397	0	PA_with_intermediate	0,0,0,1,0,0,2,0,0	test	ward_and_allport	0,0,0,1,0,0,2,3,0	89.0	12.0	0.397	0,0,0,1,2,3,0,0,0	to_hand	s579
163.504	0.667	0	PA_with_intermediate	0,0,0,1,0,0,2,3,0	test	ward_and_allport	0,0,0,1,0,0,2,3,0	82.0	12.0	0.667	0,0,0,1,2,3,0,0,0	to_board	s579
164.181	1.0	0	PA_with_intermediate	n/a	test	ward_and_allport	n/a	-1.0	12.0	n/a	n/a	feedback	s579
165.181	3.176	0	PA_with_intermediate	n/a	test	ward_and_allport	n/a	-1.0	12.0	n/a	n/a	ITI	s579
168.36	3.786	1	PA_with_intermediate	0,0,0,1,2,0,0,0,0	test	ward_and_allport	2,3,0,1,0,0,0,0,0	71.0	13.0	3.786	0,0,0,1,2,3,0,0,0	to_hand	s579
172.147	0.446	0	PA_with_intermediate	0,0,0,1,2,0,3,0,0	test	ward_and_allport	2,3,0,1,0,0,0,0,0	82.0	13.0	0.446	0,0,0,1,2,3,0,0,0	to_board	s579
172.598	0.427	0	PA_with_intermediate	0,0,0,1,0,0,3,0,0	test	ward_and_allport	2,3,0,1,0,0,0,0,0	71.0	13.0	0.427	0,0,0,1,2,3,0,0,0	to_hand	s579
173.025	0.398	0	PA_with_intermediate	2,0,0,1,0,0,3,0,0	test	ward_and_allport	2,3,0,1,0,0,0,0,0	89.0	13.0	0.398	0,0,0,1,2,3,0,0,0	to_board	s579
173.427	0.432	0	PA_with_intermediate	2,0,0,1,0,0,0,0,0	test	ward_and_allport	2,3,0,1,0,0,0,0,0	82.0	13.0	0.432	0,0,0,1,2,3,0,0,0	to_hand	s579
173.861	0.394	0	PA_with_intermediate	2,3,0,1,0,0,0,0,0	test	ward_and_allport	2,3,0,1,0,0,0,0,0	89.0	13.0	0.394	0,0,0,1,2,3,0,0,0	to_board	s579
174.261	1.0	0	PA_with_intermediate	n/a	test	ward_and_allport	n/a	-1.0	13.0	n/a	n/a	feedback	s579
175.261	2.36	0	PA_with_intermediate	n/a	test	ward_and_allport	n/a	-1.0	13.0	n/a	n/a	ITI	s579
177.625	2.568	1	PA_with_intermediate	0,0,0,1,2,0,0,0,0	test	ward_and_allport	2,0,0,1,3,0,0,0,0	71.0	14.0	2.568	0,0,0,1,2,3,0,0,0	to_hand	s579
180.193	0.437	0	PA_with_intermediate	0,0,0,1,2,0,3,0,0	test	ward_and_allport	2,0,0,1,3,0,0,0,0	82.0	14.0	0.437	0,0,0,1,2,3,0,0,0	to_board	s579
180.634	0.412	0	PA_with_intermediate	0,0,0,1,0,0,3,0,0	test	ward_and_allport	2,0,0,1,3,0,0,0,0	71.0	14.0	0.412	0,0,0,1,2,3,0,0,0	to_hand	s579
181.048	0.356	0	PA_with_intermediate	2,0,0,1,0,0,3,0,0	test	ward_and_allport	2,0,0,1,3,0,0,0,0	89.0	14.0	0.356	0,0,0,1,2,3,0,0,0	to_board	s579
181.409	0.371	0	PA_with_intermediate	2,0,0,1,0,0,0,0,0	test	ward_and_allport	2,0,0,1,3,0,0,0,0	82.0	14.0	0.371	0,0,0,1,2,3,0,0,0	to_hand	s579
181.781	0.339	0	PA_with_intermediate	2,0,0,1,3,0,0,0,0	test	ward_and_allport	2,0,0,1,3,0,0,0,0	71.0	14.0	0.339	0,0,0,1,2,3,0,0,0	to_board	s579
182.128	1.0	0	PA_with_intermediate	n/a	test	ward_and_allport	n/a	-1.0	14.0	n/a	n/a	feedback	s579
183.128	1.0	0	PA_with_intermediate	n/a	test	ward_and_allport	n/a	-1.0	14.0	n/a	n/a	ITI	s579
189.136	4.865	1	PA_without_intermediate	0,0,0,1,2,0,0,0,0	test	ward_and_allport	3,1,0,0,0,0,2,0,0	71.0	15.0	4.865	0,0,0,1,2,3,0,0,0	to_hand	s579
194.002	0.378	0	PA_without_intermediate	3,0,0,1,2,0,0,0,0	test	ward_and_allport	3,1,0,0,0,0,2,0,0	89.0	15.0	0.378	0,0,0,1,2,3,0,0,0	to_board	s579
194.383	0.382	0	PA_without_intermediate	3,0,0,1,0,0,0,0,0	test	ward_and_allport	3,1,0,0,0,0,2,0,0	71.0	15.0	0.382	0,0,0,1,2,3,0,0,0	to_hand	s579
194.766	0.432	0	PA_without_intermediate	3,0,0,1,0,0,2,0,0	test	ward_and_allport	3,1,0,0,0,0,2,0,0	82.0	15.0	0.432	0,0,0,1,2,3,0,0,0	to_board	s579
195.203	0.618	0	PA_without_intermediate	3,0,0,0,0,0,2,0,0	test	ward_and_allport	3,1,0,0,0,0,2,0,0	71.0	15.0	0.618	0,0,0,1,2,3,0,0,0	to_hand	s579
195.822	0.36	0	PA_without_intermediate	3,1,0,0,0,0,2,0,0	test	ward_and_allport	3,1,0,0,0,0,2,0,0	89.0	15.0	0.36	0,0,0,1,2,3,0,0,0	to_board	s579
196.189	1.0	0	PA_without_intermediate	n/a	test	ward_and_allport	n/a	-1.0	15.0	n/a	n/a	feedback	s579
197.189	1.408	0	PA_without_intermediate	n/a	test	ward_and_allport	n/a	-1.0	15.0	n/a	n/a	ITI	s579
198.601	3.501	1	PA_with_intermediate	1,2,0,0,0,0,0,0,0	test	ward_and_allport	1,0,0,0,0,0,2,3,0	89.0	16.0	3.501	1,2,3,0,0,0,0,0,0	to_hand	s579
202.104	0.42	0	PA_with_intermediate	1,2,0,3,0,0,0,0,0	test	ward_and_allport	1,0,0,0,0,0,2,3,0	71.0	16.0	0.42	1,2,3,0,0,0,0,0,0	to_board	s579
202.528	0.39	0	PA_with_intermediate	1,0,0,3,0,0,0,0,0	test	ward_and_allport	1,0,0,0,0,0,2,3,0	89.0	16.0	0.39	1,2,3,0,0,0,0,0,0	to_hand	s579
202.919	0.445	0	PA_with_intermediate	1,0,0,3,0,0,2,0,0	test	ward_and_allport	1,0,0,0,0,0,2,3,0	82.0	16.0	0.445	1,2,3,0,0,0,0,0,0	to_board	s579
203.369	0.395	0	PA_with_intermediate	1,0,0,0,0,0,2,0,0	test	ward_and_allport	1,0,0,0,0,0,2,3,0	71.0	16.0	0.395	1,2,3,0,0,0,0,0,0	to_hand	s579
203.765	0.457	0	PA_with_intermediate	1,0,0,0,0,0,2,3,0	test	ward_and_allport	1,0,0,0,0,0,2,3,0	82.0	16.0	0.457	1,2,3,0,0,0,0,0,0	to_board	s579
204.231	1.0	0	PA_with_intermediate	n/a	test	ward_and_allport	n/a	-1.0	16.0	n/a	n/a	feedback	s579
205.231	1.816	0	PA_with_intermediate	n/a	test	ward_and_allport	n/a	-1.0	16.0	n/a	n/a	ITI	s579
207.052	3.426	1	PA_without_intermediate	0,0,0,1,2,0,0,0,0	test	ward_and_allport	3,1,0,0,0,0,2,0,0	71.0	17.0	3.426	0,0,0,1,2,3,0,0,0	to_hand	s579
210.479	0.322	0	PA_without_intermediate	3,0,0,1,2,0,0,0,0	test	ward_and_allport	3,1,0,0,0,0,2,0,0	89.0	17.0	0.322	0,0,0,1,2,3,0,0,0	to_board	s579
210.804	0.352	0	PA_without_intermediate	3,0,0,1,0,0,0,0,0	test	ward_and_allport	3,1,0,0,0,0,2,0,0	71.0	17.0	0.352	0,0,0,1,2,3,0,0,0	to_hand	s579
211.157	0.392	0	PA_without_intermediate	3,0,0,1,0,0,2,0,0	test	ward_and_allport	3,1,0,0,0,0,2,0,0	82.0	17.0	0.392	0,0,0,1,2,3,0,0,0	to_board	s579
211.555	0.342	0	PA_without_intermediate	3,0,0,0,0,0,2,0,0	test	ward_and_allport	3,1,0,0,0,0,2,0,0	71.0	17.0	0.342	0,0,0,1,2,3,0,0,0	to_hand	s579
211.898	0.392	0	PA_without_intermediate	3,1,0,0,0,0,2,0,0	test	ward_and_allport	3,1,0,0,0,0,2,0,0	89.0	17.0	0.392	0,0,0,1,2,3,0,0,0	to_board	s579
212.295	1.0	0	PA_without_intermediate	n/a	test	ward_and_allport	n/a	-1.0	17.0	n/a	n/a	feedback	s579
213.295	2.088	0	PA_without_intermediate	n/a	test	ward_and_allport	n/a	-1.0	17.0	n/a	n/a	ITI	s579
215.387	3.182	1	PA_without_intermediate	1,2,0,0,0,0,0,0,0	test	ward_and_allport	0,0,0,2,0,0,3,1,0	89.0	18.0	3.182	1,2,3,0,0,0,0,0,0	to_hand	s579
218.57	0.357	0	PA_without_intermediate	1,2,0,0,0,0,3,0,0	test	ward_and_allport	0,0,0,2,0,0,3,1,0	82.0	18.0	0.357	1,2,3,0,0,0,0,0,0	to_board	s579
218.932	0.345	0	PA_without_intermediate	1,0,0,0,0,0,3,0,0	test	ward_and_allport	0,0,0,2,0,0,3,1,0	89.0	18.0	0.345	1,2,3,0,0,0,0,0,0	to_hand	s579
219.279	0.377	0	PA_without_intermediate	1,0,0,2,0,0,3,0,0	test	ward_and_allport	0,0,0,2,0,0,3,1,0	71.0	18.0	0.377	1,2,3,0,0,0,0,0,0	to_board	s579
219.66	0.338	0	PA_without_intermediate	0,0,0,2,0,0,3,0,0	test	ward_and_allport	0,0,0,2,0,0,3,1,0	89.0	18.0	0.338	1,2,3,0,0,0,0,0,0	to_hand	s579
220.0	0.497	0	PA_without_intermediate	0,0,0,2,0,0,3,1,0	test	ward_and_allport	0,0,0,2,0,0,3,1,0	82.0	18.0	0.497	1,2,3,0,0,0,0,0,0	to_board	s579
220.506	1.0	0	PA_without_intermediate	n/a	test	ward_and_allport	n/a	-1.0	18.0	n/a	n/a	feedback	s579
221.506	1.136	0	PA_without_intermediate	n/a	test	ward_and_allport	n/a	-1.0	18.0	n/a	n/a	ITI	s579
222.647	2.808	1	PA_without_intermediate	0,0,0,0,0,0,1,2,0	test	ward_and_allport	2,0,0,3,1,0,0,0,0	82.0	19.0	2.808	0,0,0,0,0,0,1,2,3	to_hand	s579
225.456	0.319	0	PA_without_intermediate	0,0,0,3,0,0,1,2,0	test	ward_and_allport	2,0,0,3,1,0,0,0,0	71.0	19.0	0.319	0,0,0,0,0,0,1,2,3	to_board	s579
225.78	0.395	0	PA_without_intermediate	0,0,0,3,0,0,1,0,0	test	ward_and_allport	2,0,0,3,1,0,0,0,0	82.0	19.0	0.395	0,0,0,0,0,0,1,2,3	to_hand	s579
226.176	0.377	0	PA_without_intermediate	2,0,0,3,0,0,1,0,0	test	ward_and_allport	2,0,0,3,1,0,0,0,0	89.0	19.0	0.377	0,0,0,0,0,0,1,2,3	to_board	s579
226.557	0.79	0	PA_without_intermediate	2,0,0,3,0,0,0,0,0	test	ward_and_allport	2,0,0,3,1,0,0,0,0	82.0	19.0	0.79	0,0,0,0,0,0,1,2,3	to_hand	s579
227.349	0.42	0	PA_without_intermediate	2,0,0,3,1,0,0,0,0	test	ward_and_allport	2,0,0,3,1,0,0,0,0	71.0	19.0	0.42	0,0,0,0,0,0,1,2,3	to_board	s579
227.778	1.0	0	PA_without_intermediate	n/a	test	ward_and_allport	n/a	-1.0	19.0	n/a	n/a	feedback	s579
228.778	6.168	0	PA_without_intermediate	n/a	test	ward_and_allport	n/a	-1.0	19.0	n/a	n/a	ITI	s579
234.951	3.485	1	PA_without_intermediate	0,0,0,0,0,0,1,2,0	test	ward_and_allport	1,0,0,3,2,0,0,0,0	82.0	20.0	3.485	0,0,0,0,0,0,1,2,3	to_hand	s579
238.438	0.3	0	PA_without_intermediate	0,0,0,3,0,0,1,2,0	test	ward_and_allport	1,0,0,3,2,0,0,0,0	71.0	20.0	0.3	0,0,0,0,0,0,1,2,3	to_board	s579
238.743	0.374	0	PA_without_intermediate	0,0,0,3,0,0,1,0,0	test	ward_and_allport	1,0,0,3,2,0,0,0,0	82.0	20.0	0.374	0,0,0,0,0,0,1,2,3	to_hand	s579
239.117	0.355	0	PA_without_intermediate	0,0,0,3,2,0,1,0,0	test	ward_and_allport	1,0,0,3,2,0,0,0,0	71.0	20.0	0.355	0,0,0,0,0,0,1,2,3	to_board	s579
239.477	0.415	0	PA_without_intermediate	0,0,0,3,2,0,0,0,0	test	ward_and_allport	1,0,0,3,2,0,0,0,0	82.0	20.0	0.415	0,0,0,0,0,0,1,2,3	to_hand	s579
239.894	0.313	0	PA_without_intermediate	1,0,0,3,2,0,0,0,0	test	ward_and_allport	1,0,0,3,2,0,0,0,0	89.0	20.0	0.313	0,0,0,0,0,0,1,2,3	to_board	s579
240.216	1.0	0	PA_without_intermediate	n/a	test	ward_and_allport	n/a	-1.0	20.0	n/a	n/a	feedback	s579
241.216	1.816	0	PA_without_intermediate	n/a	test	ward_and_allport	n/a	-1.0	20.0	n/a	n/a	ITI	s579
243.037	5.468	1	PA_with_intermediate	1,2,0,0,0,0,0,0,0	test	ward_and_allport	1,3,0,0,0,0,2,0,0	89.0	21.0	5.468	1,2,3,0,0,0,0,0,0	to_hand	s579
248.507	0.3	0	PA_with_intermediate	1,2,0,3,0,0,0,0,0	test	ward_and_allport	1,3,0,0,0,0,2,0,0	71.0	21.0	0.3	1,2,3,0,0,0,0,0,0	to_board	s579
248.812	0.334	0	PA_with_intermediate	1,0,0,3,0,0,0,0,0	test	ward_and_allport	1,3,0,0,0,0,2,0,0	89.0	21.0	0.334	1,2,3,0,0,0,0,0,0	to_hand	s579
249.147	0.422	0	PA_with_intermediate	1,0,0,3,0,0,2,0,0	test	ward_and_allport	1,3,0,0,0,0,2,0,0	82.0	21.0	0.422	1,2,3,0,0,0,0,0,0	to_board	s579
249.575	0.406	0	PA_with_intermediate	1,0,0,0,0,0,2,0,0	test	ward_and_allport	1,3,0,0,0,0,2,0,0	71.0	21.0	0.406	1,2,3,0,0,0,0,0,0	to_hand	s579
249.981	0.3	0	PA_with_intermediate	1,3,0,0,0,0,2,0,0	test	ward_and_allport	1,3,0,0,0,0,2,0,0	89.0	21.0	0.3	1,2,3,0,0,0,0,0,0	to_board	s579
250.289	1.0	0	PA_with_intermediate	n/a	test	ward_and_allport	n/a	-1.0	21.0	n/a	n/a	feedback	s579
251.289	1.952	0	PA_with_intermediate	n/a	test	ward_and_allport	n/a	-1.0	21.0	n/a	n/a	ITI	s579
253.246	2.849	1	PA_with_intermediate	0,0,0,1,2,0,0,0,0	test	ward_and_allport	0,0,0,1,3,0,2,0,0	71.0	22.0	2.849	0,0,0,1,2,3,0,0,0	to_hand	s579
256.095	0.305	0	PA_with_intermediate	3,0,0,1,2,0,0,0,0	test	ward_and_allport	0,0,0,1,3,0,2,0,0	89.0	22.0	0.305	0,0,0,1,2,3,0,0,0	to_board	s579
256.406	0.329	0	PA_with_intermediate	3,0,0,1,0,0,0,0,0	test	ward_and_allport	0,0,0,1,3,0,2,0,0	71.0	22.0	0.329	0,0,0,1,2,3,0,0,0	to_hand	s579
256.736	0.375	0	PA_with_intermediate	3,0,0,1,0,0,2,0,0	test	ward_and_allport	0,0,0,1,3,0,2,0,0	82.0	22.0	0.375	0,0,0,1,2,3,0,0,0	to_board	s579
257.116	0.293	0	PA_with_intermediate	0,0,0,1,0,0,2,0,0	test	ward_and_allport	0,0,0,1,3,0,2,0,0	89.0	22.0	0.293	0,0,0,1,2,3,0,0,0	to_hand	s579
257.411	0.327	0	PA_with_intermediate	0,0,0,1,3,0,2,0,0	test	ward_and_allport	0,0,0,1,3,0,2,0,0	71.0	22.0	0.327	0,0,0,1,2,3,0,0,0	to_board	s579
257.745	1.0	0	PA_with_intermediate	n/a	test	ward_and_allport	n/a	-1.0	22.0	n/a	n/a	feedback	s579
258.745	1.136	0	PA_with_intermediate	n/a	test	ward_and_allport	n/a	-1.0	22.0	n/a	n/a	ITI	s579
259.887	4.598	1	PA_without_intermediate	1,2,0,0,0,0,0,0,0	test	ward_and_allport	0,0,0,3,2,0,1,0,0	89.0	23.0	4.598	1,2,3,0,0,0,0,0,0	to_hand	s579
264.487	0.321	0	PA_without_intermediate	1,2,0,3,0,0,0,0,0	test	ward_and_allport	0,0,0,3,2,0,1,0,0	71.0	23.0	0.321	1,2,3,0,0,0,0,0,0	to_board	s579
264.813	0.36	0	PA_without_intermediate	1,0,0,3,0,0,0,0,0	test	ward_and_allport	0,0,0,3,2,0,1,0,0	89.0	23.0	0.36	1,2,3,0,0,0,0,0,0	to_hand	s579
265.175	0.372	0	PA_without_intermediate	1,0,0,3,2,0,0,0,0	test	ward_and_allport	0,0,0,3,2,0,1,0,0	71.0	23.0	0.372	1,2,3,0,0,0,0,0,0	to_board	s579
265.554	0.33	0	PA_without_intermediate	0,0,0,3,2,0,0,0,0	test	ward_and_allport	0,0,0,3,2,0,1,0,0	89.0	23.0	0.33	1,2,3,0,0,0,0,0,0	to_hand	s579
265.884	0.421	0	PA_without_intermediate	0,0,0,3,2,0,1,0,0	test	ward_and_allport	0,0,0,3,2,0,1,0,0	82.0	23.0	0.421	1,2,3,0,0,0,0,0,0	to_board	s579
266.316	1.0	0	PA_without_intermediate	n/a	test	ward_and_allport	n/a	-1.0	23.0	n/a	n/a	feedback	s579
267.316	1.68	0	PA_without_intermediate	n/a	test	ward_and_allport	n/a	-1.0	23.0	n/a	n/a	ITI	s579
269.003	2.96	1	PA_without_intermediate	0,0,0,0,0,0,1,2,0	test	ward_and_allport	3,1,0,2,0,0,0,0,0	82.0	24.0	2.96	0,0,0,0,0,0,1,2,3	to_hand	s579
271.964	0.336	0	PA_without_intermediate	3,0,0,0,0,0,1,2,0	test	ward_and_allport	3,1,0,2,0,0,0,0,0	89.0	24.0	0.336	0,0,0,0,0,0,1,2,3	to_board	s579
272.305	0.628	0	PA_without_intermediate	3,0,0,0,0,0,1,0,0	test	ward_and_allport	3,1,0,2,0,0,0,0,0	82.0	24.0	0.628	0,0,0,0,0,0,1,2,3	to_hand	s579
272.934	0.351	0	PA_without_intermediate	3,0,0,2,0,0,1,0,0	test	ward_and_allport	3,1,0,2,0,0,0,0,0	71.0	24.0	0.351	0,0,0,0,0,0,1,2,3	to_board	s579
273.292	0.356	0	PA_without_intermediate	3,0,0,2,0,0,0,0,0	test	ward_and_allport	3,1,0,2,0,0,0,0,0	82.0	24.0	0.356	0,0,0,0,0,0,1,2,3	to_hand	s579
273.649	0.327	0	PA_without_intermediate	3,1,0,2,0,0,0,0,0	test	ward_and_allport	3,1,0,2,0,0,0,0,0	89.0	24.0	0.327	0,0,0,0,0,0,1,2,3	to_board	s579
273.983	1.0	0	PA_without_intermediate	n/a	test	ward_and_allport	n/a	-1.0	24.0	n/a	n/a	feedback	s579
274.983	2.088	0	PA_without_intermediate	n/a	test	ward_and_allport	n/a	-1.0	24.0	n/a	n/a	ITI	s579
277.077	2.086	1	PA_with_intermediate	0,0,0,1,2,0,0,0,0	test	ward_and_allport	0,0,0,1,3,0,2,0,0	71.0	25.0	2.086	0,0,0,1,2,3,0,0,0	to_hand	s579
279.165	0.293	0	PA_with_intermediate	3,0,0,1,2,0,0,0,0	test	ward_and_allport	0,0,0,1,3,0,2,0,0	89.0	25.0	0.293	0,0,0,1,2,3,0,0,0	to_board	s579
279.465	0.312	0	PA_with_intermediate	3,0,0,1,0,0,0,0,0	test	ward_and_allport	0,0,0,1,3,0,2,0,0	71.0	25.0	0.312	0,0,0,1,2,3,0,0,0	to_hand	s579
279.778	0.341	0	PA_with_intermediate	3,0,0,1,0,0,2,0,0	test	ward_and_allport	0,0,0,1,3,0,2,0,0	82.0	25.0	0.341	0,0,0,1,2,3,0,0,0	to_board	s579
280.125	0.282	0	PA_with_intermediate	0,0,0,1,0,0,2,0,0	test	ward_and_allport	0,0,0,1,3,0,2,0,0	89.0	25.0	0.282	0,0,0,1,2,3,0,0,0	to_hand	s579
280.408	0.324	0	PA_with_intermediate	0,0,0,1,3,0,2,0,0	test	ward_and_allport	0,0,0,1,3,0,2,0,0	71.0	25.0	0.324	0,0,0,1,2,3,0,0,0	to_board	s579
280.741	1.0	0	PA_with_intermediate	n/a	test	ward_and_allport	n/a	-1.0	25.0	n/a	n/a	feedback	s579
281.741	1.0	0	PA_with_intermediate	n/a	test	ward_and_allport	n/a	-1.0	25.0	n/a	n/a	ITI	s579
282.748	1.465	1	PA_without_intermediate	0,0,0,1,2,0,0,0,0	test	ward_and_allport	1,0,0,0,0,0,3,2,0	71.0	26.0	1.465	0,0,0,1,2,3,0,0,0	to_hand	s579
284.213	0.502	0	PA_without_intermediate	0,0,0,1,2,0,3,0,0	test	ward_and_allport	1,0,0,0,0,0,3,2,0	82.0	26.0	0.502	0,0,0,1,2,3,0,0,0	to_board	s579
284.722	0.372	0	PA_without_intermediate	0,0,0,1,0,0,3,0,0	test	ward_and_allport	1,0,0,0,0,0,3,2,0	71.0	26.0	0.372	0,0,0,1,2,3,0,0,0	to_hand	s579
285.095	0.388	0	PA_without_intermediate	0,0,0,1,0,0,3,2,0	test	ward_and_allport	1,0,0,0,0,0,3,2,0	82.0	26.0	0.388	0,0,0,1,2,3,0,0,0	to_board	s579
285.491	1.364	0	PA_without_intermediate	0,0,0,0,0,0,3,2,0	test	ward_and_allport	1,0,0,0,0,0,3,2,0	71.0	26.0	1.364	0,0,0,1,2,3,0,0,0	to_hand	s579
286.856	0.332	0	PA_without_intermediate	1,0,0,0,0,0,3,2,0	test	ward_and_allport	1,0,0,0,0,0,3,2,0	89.0	26.0	0.332	0,0,0,1,2,3,0,0,0	to_board	s579
287.2	1.0	0	PA_without_intermediate	n/a	test	ward_and_allport	n/a	-1.0	26.0	n/a	n/a	feedback	s579
288.2	1.0	0	PA_without_intermediate	n/a	test	ward_and_allport	n/a	-1.0	26.0	n/a	n/a	ITI	s579
289.207	3.703	1	PA_without_intermediate	0,0,0,0,0,0,1,2,0	test	ward_and_allport	3,2,0,1,0,0,0,0,0	82.0	27.0	3.703	0,0,0,0,0,0,1,2,3	to_hand	s579
292.91	0.493	0	PA_without_intermediate	3,0,0,0,0,0,1,2,0	test	ward_and_allport	3,2,0,1,0,0,0,0,0	89.0	27.0	0.493	0,0,0,0,0,0,1,2,3	to_board	s579
293.41	0.367	0	PA_without_intermediate	3,0,0,0,0,0,1,0,0	test	ward_and_allport	3,2,0,1,0,0,0,0,0	82.0	27.0	0.367	0,0,0,0,0,0,1,2,3	to_hand	s579
293.778	0.412	0	PA_without_intermediate	3,2,0,0,0,0,1,0,0	test	ward_and_allport	3,2,0,1,0,0,0,0,0	89.0	27.0	0.412	0,0,0,0,0,0,1,2,3	to_board	s579
294.197	0.592	0	PA_without_intermediate	3,2,0,0,0,0,0,0,0	test	ward_and_allport	3,2,0,1,0,0,0,0,0	82.0	27.0	0.592	0,0,0,0,0,0,1,2,3	to_hand	s579
294.79	0.341	0	PA_without_intermediate	3,2,0,1,0,0,0,0,0	test	ward_and_allport	3,2,0,1,0,0,0,0,0	71.0	27.0	0.341	0,0,0,0,0,0,1,2,3	to_board	s579
295.14	1.0	0	PA_without_intermediate	n/a	test	ward_and_allport	n/a	-1.0	27.0	n/a	n/a	feedback	s579
296.14	1.0	0	PA_without_intermediate	n/a	test	ward_and_allport	n/a	-1.0	27.0	n/a	n/a	ITI	s579
297.147	3.204	1	PA_with_intermediate	0,0,0,0,0,0,1,2,0	test	ward_and_allport	0,0,0,2,0,0,1,3,0	82.0	28.0	3.204	0,0,0,0,0,0,1,2,3	to_hand	s579
300.352	0.319	0	PA_with_intermediate	3,0,0,0,0,0,1,2,0	test	ward_and_allport	0,0,0,2,0,0,1,3,0	89.0	28.0	0.319	0,0,0,0,0,0,1,2,3	to_board	s579
300.679	0.477	0	PA_with_intermediate	3,0,0,0,0,0,1,0,0	test	ward_and_allport	0,0,0,2,0,0,1,3,0	82.0	28.0	0.477	0,0,0,0,0,0,1,2,3	to_hand	s579
301.158	0.476	0	PA_with_intermediate	3,0,0,2,0,0,1,0,0	test	ward_and_allport	0,0,0,2,0,0,1,3,0	71.0	28.0	0.476	0,0,0,0,0,0,1,2,3	to_board	s579
301.641	0.446	0	PA_with_intermediate	0,0,0,2,0,0,1,0,0	test	ward_and_allport	0,0,0,2,0,0,1,3,0	89.0	28.0	0.446	0,0,0,0,0,0,1,2,3	to_hand	s579
302.087	0.444	0	PA_with_intermediate	0,0,0,2,0,0,1,3,0	test	ward_and_allport	0,0,0,2,0,0,1,3,0	82.0	28.0	0.444	0,0,0,0,0,0,1,2,3	to_board	s579
302.539	1.0	0	PA_with_intermediate	n/a	test	ward_and_allport	n/a	-1.0	28.0	n/a	n/a	feedback	s579
303.539	1.544	0	PA_with_intermediate	n/a	test	ward_and_allport	n/a	-1.0	28.0	n/a	n/a	ITI	s579
305.091	5.21	1	PA_without_intermediate	1,2,0,0,0,0,0,0,0	test	ward_and_allport	0,0,0,2,0,0,3,1,0	89.0	29.0	5.21	1,2,3,0,0,0,0,0,0	to_hand	s579
310.302	0.429	0	PA_without_intermediate	1,2,0,0,0,0,3,0,0	test	ward_and_allport	0,0,0,2,0,0,3,1,0	82.0	29.0	0.429	1,2,3,0,0,0,0,0,0	to_board	s579
310.738	0.362	0	PA_without_intermediate	1,0,0,0,0,0,3,0,0	test	ward_and_allport	0,0,0,2,0,0,3,1,0	89.0	29.0	0.362	1,2,3,0,0,0,0,0,0	to_hand	s579
311.1	0.388	0	PA_without_intermediate	1,0,0,2,0,0,3,0,0	test	ward_and_allport	0,0,0,2,0,0,3,1,0	71.0	29.0	0.388	1,2,3,0,0,0,0,0,0	to_board	s579
311.496	0.287	0	PA_without_intermediate	0,0,0,2,0,0,3,0,0	test	ward_and_allport	0,0,0,2,0,0,3,1,0	89.0	29.0	0.287	1,2,3,0,0,0,0,0,0	to_hand	s579
311.783	0.411	0	PA_without_intermediate	0,0,0,2,0,0,3,1,0	test	ward_and_allport	0,0,0,2,0,0,3,1,0	82.0	29.0	0.411	1,2,3,0,0,0,0,0,0	to_board	s579
312.203	1.0	0	PA_without_intermediate	n/a	test	ward_and_allport	n/a	-1.0	29.0	n/a	n/a	feedback	s579
313.203	1.272	0	PA_without_intermediate	n/a	test	ward_and_allport	n/a	-1.0	29.0	n/a	n/a	ITI	s579
319.486	8.965	1	PA_with_intermediate	0,0,0,0,0,0,1,2,0	test	ward_and_allport	2,3,0,0,0,0,1,0,0	82.0	30.0	8.965	0,0,0,0,0,0,1,2,3	to_hand	s579
328.452	0.335	0	PA_with_intermediate	0,0,0,3,0,0,1,2,0	test	ward_and_allport	2,3,0,0,0,0,1,0,0	71.0	30.0	0.335	0,0,0,0,0,0,1,2,3	to_board	s579
328.793	0.421	0	PA_with_intermediate	0,0,0,3,0,0,1,0,0	test	ward_and_allport	2,3,0,0,0,0,1,0,0	82.0	30.0	0.421	0,0,0,0,0,0,1,2,3	to_hand	s579
329.215	0.336	0	PA_with_intermediate	2,0,0,3,0,0,1,0,0	test	ward_and_allport	2,3,0,0,0,0,1,0,0	89.0	30.0	0.336	0,0,0,0,0,0,1,2,3	to_board	s579
329.558	0.728	0	PA_with_intermediate	2,0,0,0,0,0,1,0,0	test	ward_and_allport	2,3,0,0,0,0,1,0,0	71.0	30.0	0.728	0,0,0,0,0,0,1,2,3	to_hand	s579
330.288	0.334	0	PA_with_intermediate	2,3,0,0,0,0,1,0,0	test	ward_and_allport	2,3,0,0,0,0,1,0,0	89.0	30.0	0.334	0,0,0,0,0,0,1,2,3	to_board	s579
330.634	1.0	0	PA_with_intermediate	n/a	test	ward_and_allport	n/a	-1.0	30.0	n/a	n/a	feedback	s579
331.634	3.04	0	PA_with_intermediate	n/a	test	ward_and_allport	n/a	-1.0	30.0	n/a	n/a	ITI	s579
334.68	3.669	1	PA_with_intermediate	1,2,0,0,0,0,0,0,0	test	ward_and_allport	1,3,0,2,0,0,0,0,0	89.0	31.0	3.669	1,2,3,0,0,0,0,0,0	to_hand	s579
338.351	0.382	0	PA_with_intermediate	1,2,0,0,0,0,3,0,0	test	ward_and_allport	1,3,0,2,0,0,0,0,0	82.0	31.0	0.382	1,2,3,0,0,0,0,0,0	to_board	s579
338.741	0.353	0	PA_with_intermediate	1,0,0,0,0,0,3,0,0	test	ward_and_allport	1,3,0,2,0,0,0,0,0	89.0	31.0	0.353	1,2,3,0,0,0,0,0,0	to_hand	s579
339.096	0.527	0	PA_with_intermediate	1,0,0,2,0,0,3,0,0	test	ward_and_allport	1,3,0,2,0,0,0,0,0	71.0	31.0	0.527	1,2,3,0,0,0,0,0,0	to_board	s579
339.632	0.422	0	PA_with_intermediate	1,0,0,2,0,0,0,0,0	test	ward_and_allport	1,3,0,2,0,0,0,0,0	82.0	31.0	0.422	1,2,3,0,0,0,0,0,0	to_hand	s579
340.056	0.386	0	PA_with_intermediate	1,3,0,2,0,0,0,0,0	test	ward_and_allport	1,3,0,2,0,0,0,0,0	89.0	31.0	0.386	1,2,3,0,0,0,0,0,0	to_board	s579
340.451	1.0	0	PA_with_intermediate	n/a	test	ward_and_allport	n/a	-1.0	31.0	n/a	n/a	feedback	s579
341.451	1.272	0	PA_with_intermediate	n/a	test	ward_and_allport	n/a	-1.0	31.0	n/a	n/a	ITI	s579
342.732	2.639	1	PA_with_intermediate	0,0,0,1,2,0,0,0,0	test	ward_and_allport	2,3,0,1,0,0,0,0,0	71.0	32.0	2.639	0,0,0,1,2,3,0,0,0	to_hand	s579
345.373	0.424	0	PA_with_intermediate	0,0,0,1,2,0,3,0,0	test	ward_and_allport	2,3,0,1,0,0,0,0,0	82.0	32.0	0.424	0,0,0,1,2,3,0,0,0	to_board	s579
345.806	0.867	0	PA_with_intermediate	0,0,0,1,0,0,3,0,0	test	ward_and_allport	2,3,0,1,0,0,0,0,0	71.0	32.0	0.867	0,0,0,1,2,3,0,0,0	to_hand	s579
346.673	0.349	0	PA_with_intermediate	2,0,0,1,0,0,3,0,0	test	ward_and_allport	2,3,0,1,0,0,0,0,0	89.0	32.0	0.349	0,0,0,1,2,3,0,0,0	to_board	s579
347.03	1.261	0	PA_with_intermediate	2,0,0,1,0,0,0,0,0	test	ward_and_allport	2,3,0,1,0,0,0,0,0	82.0	32.0	1.261	0,0,0,1,2,3,0,0,0	to_hand	s579
348.292	0.332	0	PA_with_intermediate	2,3,0,1,0,0,0,0,0	test	ward_and_allport	2,3,0,1,0,0,0,0,0	89.0	32.0	0.332	0,0,0,1,2,3,0,0,0	to_board	s579
348.634	1.0	0	PA_with_intermediate	n/a	test	ward_and_allport	n/a	-1.0	32.0	n/a	n/a	feedback	s579
349.634	1.136	0	PA_with_intermediate	n/a	test	ward_and_allport	n/a	-1.0	32.0	n/a	n/a	ITI	s579
350.776	3.394	1	PA_with_intermediate	0,0,0,0,0,0,1,2,0	test	ward_and_allport	0,0,0,2,0,0,1,3,0	82.0	33.0	3.394	0,0,0,0,0,0,1,2,3	to_hand	s579
354.171	0.345	0	PA_with_intermediate	3,0,0,0,0,0,1,2,0	test	ward_and_allport	0,0,0,2,0,0,1,3,0	89.0	33.0	0.345	0,0,0,0,0,0,1,2,3	to_board	s579
354.523	0.552	0	PA_with_intermediate	3,0,0,0,0,0,1,0,0	test	ward_and_allport	0,0,0,2,0,0,1,3,0	82.0	33.0	0.552	0,0,0,0,0,0,1,2,3	to_hand	s579
355.076	0.346	0	PA_with_intermediate	3,0,0,2,0,0,1,0,0	test	ward_and_allport	0,0,0,2,0,0,1,3,0	71.0	33.0	0.346	0,0,0,0,0,0,1,2,3	to_board	s579
355.429	0.396	0	PA_with_intermediate	0,0,0,2,0,0,1,0,0	test	ward_and_allport	0,0,0,2,0,0,1,3,0	89.0	33.0	0.396	0,0,0,0,0,0,1,2,3	to_hand	s579
355.825	0.463	0	PA_with_intermediate	0,0,0,2,0,0,1,3,0	test	ward_and_allport	0,0,0,2,0,0,1,3,0	82.0	33.0	0.463	0,0,0,0,0,0,1,2,3	to_board	s579
356.301	1.0	0	PA_with_intermediate	n/a	test	ward_and_allport	n/a	-1.0	33.0	n/a	n/a	feedback	s579
357.301	1.0	0	PA_with_intermediate	n/a	test	ward_and_allport	n/a	-1.0	33.0	n/a	n/a	ITI	s579
358.311	3.21	1	PA_with_intermediate	0,0,0,0,0,0,1,2,0	test	ward_and_allport	0,0,0,2,3,0,1,0,0	82.0	34.0	3.21	0,0,0,0,0,0,1,2,3	to_hand	s579
361.521	0.291	0	PA_with_intermediate	3,0,0,0,0,0,1,2,0	test	ward_and_allport	0,0,0,2,3,0,1,0,0	89.0	34.0	0.291	0,0,0,0,0,0,1,2,3	to_board	s579
361.82	0.426	0	PA_with_intermediate	3,0,0,0,0,0,1,0,0	test	ward_and_allport	0,0,0,2,3,0,1,0,0	82.0	34.0	0.426	0,0,0,0,0,0,1,2,3	to_hand	s579
362.246	0.387	0	PA_with_intermediate	3,0,0,2,0,0,1,0,0	test	ward_and_allport	0,0,0,2,3,0,1,0,0	71.0	34.0	0.387	0,0,0,0,0,0,1,2,3	to_board	s579
362.641	0.332	0	PA_with_intermediate	0,0,0,2,0,0,1,0,0	test	ward_and_allport	0,0,0,2,3,0,1,0,0	89.0	34.0	0.332	0,0,0,0,0,0,1,2,3	to_hand	s579
362.975	0.359	0	PA_with_intermediate	0,0,0,2,3,0,1,0,0	test	ward_and_allport	0,0,0,2,3,0,1,0,0	71.0	34.0	0.359	0,0,0,0,0,0,1,2,3	to_board	s579
363.342	1.0	0	PA_with_intermediate	n/a	test	ward_and_allport	n/a	-1.0	34.0	n/a	n/a	feedback	s579
364.342	1.0	0	PA_with_intermediate	n/a	test	ward_and_allport	n/a	-1.0	34.0	n/a	n/a	ITI	s579
365.347	3.962	1	PA_without_intermediate	1,2,0,0,0,0,0,0,0	test	ward_and_allport	0,0,0,1,0,0,3,2,0	89.0	35.0	3.962	1,2,3,0,0,0,0,0,0	to_hand	s579
369.31	0.341	0	PA_without_intermediate	1,2,0,0,0,0,3,0,0	test	ward_and_allport	0,0,0,1,0,0,3,2,0	82.0	35.0	0.341	1,2,3,0,0,0,0,0,0	to_board	s579
369.657	0.335	0	PA_without_intermediate	1,0,0,0,0,0,3,0,0	test	ward_and_allport	0,0,0,1,0,0,3,2,0	89.0	35.0	0.335	1,2,3,0,0,0,0,0,0	to_hand	s579
369.994	0.671	0	PA_without_intermediate	1,0,0,0,0,0,3,2,0	test	ward_and_allport	0,0,0,1,0,0,3,2,0	82.0	35.0	0.671	1,2,3,0,0,0,0,0,0	to_board	s579
370.672	0.48	0	PA_without_intermediate	0,0,0,0,0,0,3,2,0	test	ward_and_allport	0,0,0,1,0,0,3,2,0	89.0	35.0	0.48	1,2,3,0,0,0,0,0,0	to_hand	s579
371.153	0.345	0	PA_without_intermediate	0,0,0,1,0,0,3,2,0	test	ward_and_allport	0,0,0,1,0,0,3,2,0	71.0	35.0	0.345	1,2,3,0,0,0,0,0,0	to_board	s579
371.51	1.0	0	PA_without_intermediate	n/a	test	ward_and_allport	n/a	-1.0	35.0	n/a	n/a	feedback	s579
372.51	1.408	0	PA_without_intermediate	n/a	test	ward_and_allport	n/a	-1.0	35.0	n/a	n/a	ITI	s579
373.928	3.053	1	PA_with_intermediate	0,0,0,0,0,0,1,2,0	test	ward_and_allport	0,0,0,2,3,0,1,0,0	82.0	36.0	3.053	0,0,0,0,0,0,1,2,3	to_hand	s579
376.982	0.29	0	PA_with_intermediate	3,0,0,0,0,0,1,2,0	test	ward_and_allport	0,0,0,2,3,0,1,0,0	89.0	36.0	0.29	0,0,0,0,0,0,1,2,3	to_board	s579
377.281	0.393	0	PA_with_intermediate	3,0,0,0,0,0,1,0,0	test	ward_and_allport	0,0,0,2,3,0,1,0,0	82.0	36.0	0.393	0,0,0,0,0,0,1,2,3	to_hand	s579
377.675	0.34	0	PA_with_intermediate	3,0,0,2,0,0,1,0,0	test	ward_and_allport	0,0,0,2,3,0,1,0,0	71.0	36.0	0.34	0,0,0,0,0,0,1,2,3	to_board	s579
378.025	0.331	0	PA_with_intermediate	0,0,0,2,0,0,1,0,0	test	ward_and_allport	0,0,0,2,3,0,1,0,0	89.0	36.0	0.331	0,0,0,0,0,0,1,2,3	to_hand	s579
378.358	0.28	0	PA_with_intermediate	0,0,0,2,3,0,1,0,0	test	ward_and_allport	0,0,0,2,3,0,1,0,0	71.0	36.0	0.28	0,0,0,0,0,0,1,2,3	to_board	s579
378.647	1.0	0	PA_with_intermediate	n/a	test	ward_and_allport	n/a	-1.0	36.0	n/a	n/a	feedback	s579
379.647	2.768	0	PA_with_intermediate	n/a	test	ward_and_allport	n/a	-1.0	36.0	n/a	n/a	ITI	s579
382.422	3.078	1	PA_with_intermediate	1,2,0,0,0,0,0,0,0	test	ward_and_allport	1,0,0,0,0,0,2,3,0	89.0	37.0	3.078	1,2,3,0,0,0,0,0,0	to_hand	s579
385.501	0.294	0	PA_with_intermediate	1,2,0,3,0,0,0,0,0	test	ward_and_allport	1,0,0,0,0,0,2,3,0	71.0	37.0	0.294	1,2,3,0,0,0,0,0,0	to_board	s579
385.802	0.316	0	PA_with_intermediate	1,0,0,3,0,0,0,0,0	test	ward_and_allport	1,0,0,0,0,0,2,3,0	89.0	37.0	0.316	1,2,3,0,0,0,0,0,0	to_hand	s579
386.119	0.392	0	PA_with_intermediate	1,0,0,3,0,0,2,0,0	test	ward_and_allport	1,0,0,0,0,0,2,3,0	82.0	37.0	0.392	1,2,3,0,0,0,0,0,0	to_board	s579
386.52	0.608	0	PA_with_intermediate	1,0,0,0,0,0,2,0,0	test	ward_and_allport	1,0,0,0,0,0,2,3,0	71.0	37.0	0.608	1,2,3,0,0,0,0,0,0	to_hand	s579
387.13	0.356	0	PA_with_intermediate	1,0,0,0,0,0,2,3,0	test	ward_and_allport	1,0,0,0,0,0,2,3,0	82.0	37.0	0.356	1,2,3,0,0,0,0,0,0	to_board	s579
387.5	1.0	0	PA_with_intermediate	n/a	test	ward_and_allport	n/a	-1.0	37.0	n/a	n/a	feedback	s579
388.5	1.68	0	PA_with_intermediate	n/a	test	ward_and_allport	n/a	-1.0	37.0	n/a	n/a	ITI	s579
390.188	3.669	1	PA_without_intermediate	1,2,0,0,0,0,0,0,0	test	ward_and_allport	0,0,0,3,1,0,2,0,0	89.0	38.0	3.669	1,2,3,0,0,0,0,0,0	to_hand	s579
393.858	0.319	0	PA_without_intermediate	1,2,0,0,0,0,3,0,0	test	ward_and_allport	0,0,0,3,1,0,2,0,0	82.0	38.0	0.319	1,2,3,0,0,0,0,0,0	to_board	s579
394.185	1.132	0	PA_without_intermediate	1,2,0,0,0,0,0,0,0	test	ward_and_allport	0,0,0,3,1,0,2,0,0	82.0	38.0	1.132	1,2,3,0,0,0,0,0,0	to_hand	s579
395.317	0.592	0	PA_without_intermediate	1,2,0,3,0,0,0,0,0	test	ward_and_allport	0,0,0,3,1,0,2,0,0	71.0	38.0	0.592	1,2,3,0,0,0,0,0,0	to_board	s579
395.916	0.518	0	PA_without_intermediate	1,0,0,3,0,0,0,0,0	test	ward_and_allport	0,0,0,3,1,0,2,0,0	89.0	38.0	0.518	1,2,3,0,0,0,0,0,0	to_hand	s579
396.436	0.482	0	PA_without_intermediate	1,0,0,3,0,0,2,0,0	test	ward_and_allport	0,0,0,3,1,0,2,0,0	82.0	38.0	0.482	1,2,3,0,0,0,0,0,0	to_board	s579
396.928	0.413	0	PA_without_intermediate	0,0,0,3,0,0,2,0,0	test	ward_and_allport	0,0,0,3,1,0,2,0,0	89.0	38.0	0.413	1,2,3,0,0,0,0,0,0	to_hand	s579
397.341	0.467	0	PA_without_intermediate	0,0,0,3,1,0,2,0,0	test	ward_and_allport	0,0,0,3,1,0,2,0,0	71.0	38.0	0.467	1,2,3,0,0,0,0,0,0	to_board	s579
397.821	1.0	0	PA_without_intermediate	n/a	test	ward_and_allport	n/a	-1.0	38.0	n/a	n/a	feedback	s579
398.821	2.224	0	PA_without_intermediate	n/a	test	ward_and_allport	n/a	-1.0	38.0	n/a	n/a	ITI	s579
401.053	3.127	1	PA_without_intermediate	1,2,0,0,0,0,0,0,0	test	ward_and_allport	0,0,0,3,1,0,2,0,0	89.0	39.0	3.127	1,2,3,0,0,0,0,0,0	to_hand	s579
404.182	0.295	0	PA_without_intermediate	1,2,0,3,0,0,0,0,0	test	ward_and_allport	0,0,0,3,1,0,2,0,0	71.0	39.0	0.295	1,2,3,0,0,0,0,0,0	to_board	s579
404.483	0.368	0	PA_without_intermediate	1,0,0,3,0,0,0,0,0	test	ward_and_allport	0,0,0,3,1,0,2,0,0	89.0	39.0	0.368	1,2,3,0,0,0,0,0,0	to_hand	s579
404.852	0.391	0	PA_without_intermediate	1,0,0,3,0,0,2,0,0	test	ward_and_allport	0,0,0,3,1,0,2,0,0	82.0	39.0	0.391	1,2,3,0,0,0,0,0,0	to_board	s579
405.251	0.358	0	PA_without_intermediate	0,0,0,3,0,0,2,0,0	test	ward_and_allport	0,0,0,3,1,0,2,0,0	89.0	39.0	0.358	1,2,3,0,0,0,0,0,0	to_hand	s579
405.611	0.374	0	PA_without_intermediate	0,0,0,3,1,0,2,0,0	test	ward_and_allport	0,0,0,3,1,0,2,0,0	71.0	39.0	0.374	1,2,3,0,0,0,0,0,0	to_board	s579
405.994	1.0	0	PA_without_intermediate	n/a	test	ward_and_allport	n/a	-1.0	39.0	n/a	n/a	feedback	s579
406.994	2.36	0	PA_without_intermediate	n/a	test	ward_and_allport	n/a	-1.0	39.0	n/a	n/a	ITI	s579
409.363	2.911	1	PA_without_intermediate	1,2,0,0,0,0,0,0,0	test	ward_and_allport	0,0,0,1,0,0,3,2,0	89.0	40.0	2.911	1,2,3,0,0,0,0,0,0	to_hand	s579
412.276	0.332	0	PA_without_intermediate	1,2,0,0,0,0,3,0,0	test	ward_and_allport	0,0,0,1,0,0,3,2,0	82.0	40.0	0.332	1,2,3,0,0,0,0,0,0	to_board	s579
412.618	0.526	0	PA_without_intermediate	1,0,0,0,0,0,3,0,0	test	ward_and_allport	0,0,0,1,0,0,3,2,0	89.0	40.0	0.526	1,2,3,0,0,0,0,0,0	to_hand	s579
413.145	0.41	0	PA_without_intermediate	1,0,0,0,0,0,3,2,0	test	ward_and_allport	0,0,0,1,0,0,3,2,0	82.0	40.0	0.41	1,2,3,0,0,0,0,0,0	to_board	s579
413.565	0.402	0	PA_without_intermediate	0,0,0,0,0,0,3,2,0	test	ward_and_allport	0,0,0,1,0,0,3,2,0	89.0	40.0	0.402	1,2,3,0,0,0,0,0,0	to_hand	s579
413.968	0.378	0	PA_without_intermediate	0,0,0,1,0,0,3,2,0	test	ward_and_allport	0,0,0,1,0,0,3,2,0	71.0	40.0	0.378	1,2,3,0,0,0,0,0,0	to_board	s579
414.357	1.0	0	PA_without_intermediate	n/a	test	ward_and_allport	n/a	-1.0	40.0	n/a	n/a	feedback	s579
415.357	1.0	0	PA_without_intermediate	n/a	test	ward_and_allport	n/a	-1.0	40.0	n/a	n/a	ITI	s579
416.365	2.476	1	PA_without_intermediate	0,0,0,1,2,0,0,0,0	test	ward_and_allport	3,2,0,0,0,0,1,0,0	71.0	41.0	2.476	0,0,0,1,2,3,0,0,0	to_hand	s579
418.843	0.411	0	PA_without_intermediate	3,0,0,1,2,0,0,0,0	test	ward_and_allport	3,2,0,0,0,0,1,0,0	89.0	41.0	0.411	0,0,0,1,2,3,0,0,0	to_board	s579
419.261	0.35	0	PA_without_intermediate	3,0,0,1,0,0,0,0,0	test	ward_and_allport	3,2,0,0,0,0,1,0,0	71.0	41.0	0.35	0,0,0,1,2,3,0,0,0	to_hand	s579
419.611	0.387	0	PA_without_intermediate	3,2,0,1,0,0,0,0,0	test	ward_and_allport	3,2,0,0,0,0,1,0,0	89.0	41.0	0.387	0,0,0,1,2,3,0,0,0	to_board	s579
420.004	0.615	0	PA_without_intermediate	3,2,0,0,0,0,0,0,0	test	ward_and_allport	3,2,0,0,0,0,1,0,0	71.0	41.0	0.615	0,0,0,1,2,3,0,0,0	to_hand	s579
420.62	0.367	0	PA_without_intermediate	3,2,0,0,0,0,1,0,0	test	ward_and_allport	3,2,0,0,0,0,1,0,0	82.0	41.0	0.367	0,0,0,1,2,3,0,0,0	to_board	s579
420.995	1.0	0	PA_without_intermediate	n/a	test	ward_and_allport	n/a	-1.0	41.0	n/a	n/a	feedback	s579
421.995	1.408	0	PA_without_intermediate	n/a	test	ward_and_allport	n/a	-1.0	41.0	n/a	n/a	ITI	s579
423.409	4.006	1	PA_with_intermediate	0,0,0,1,2,0,0,0,0	test	ward_and_allport	2,0,0,1,3,0,0,0,0	71.0	42.0	4.006	0,0,0,1,2,3,0,0,0	to_hand	s579
427.416	0.341	0	PA_with_intermediate	0,0,0,1,2,0,3,0,0	test	ward_and_allport	2,0,0,1,3,0,0,0,0	82.0	42.0	0.341	0,0,0,1,2,3,0,0,0	to_board	s579
427.765	0.301	0	PA_with_intermediate	0,0,0,1,0,0,3,0,0	test	ward_and_allport	2,0,0,1,3,0,0,0,0	71.0	42.0	0.301	0,0,0,1,2,3,0,0,0	to_hand	s579
428.067	0.344	0	PA_with_intermediate	2,0,0,1,0,0,3,0,0	test	ward_and_allport	2,0,0,1,3,0,0,0,0	89.0	42.0	0.344	0,0,0,1,2,3,0,0,0	to_board	s579
428.42	0.433	0	PA_with_intermediate	2,0,0,1,0,0,0,0,0	test	ward_and_allport	2,0,0,1,3,0,0,0,0	82.0	42.0	0.433	0,0,0,1,2,3,0,0,0	to_hand	s579
428.854	0.326	0	PA_with_intermediate	2,0,0,1,3,0,0,0,0	test	ward_and_allport	2,0,0,1,3,0,0,0,0	71.0	42.0	0.326	0,0,0,1,2,3,0,0,0	to_board	s579
429.193	1.0	0	PA_with_intermediate	n/a	test	ward_and_allport	n/a	-1.0	42.0	n/a	n/a	feedback	s579
430.193	1.136	0	PA_with_intermediate	n/a	test	ward_and_allport	n/a	-1.0	42.0	n/a	n/a	ITI	s579
431.338	2.622	1	PA_without_intermediate	1,2,0,0,0,0,0,0,0	test	ward_and_allport	0,0,0,3,2,0,1,0,0	89.0	43.0	2.622	1,2,3,0,0,0,0,0,0	to_hand	s579
433.961	0.316	0	PA_without_intermediate	1,2,0,3,0,0,0,0,0	test	ward_and_allport	0,0,0,3,2,0,1,0,0	71.0	43.0	0.316	1,2,3,0,0,0,0,0,0	to_board	s579
434.285	0.402	0	PA_without_intermediate	1,0,0,3,0,0,0,0,0	test	ward_and_allport	0,0,0,3,2,0,1,0,0	89.0	43.0	0.402	1,2,3,0,0,0,0,0,0	to_hand	s579
434.688	0.35	0	PA_without_intermediate	1,0,0,3,2,0,0,0,0	test	ward_and_allport	0,0,0,3,2,0,1,0,0	71.0	43.0	0.35	1,2,3,0,0,0,0,0,0	to_board	s579
435.046	0.378	0	PA_without_intermediate	0,0,0,3,2,0,0,0,0	test	ward_and_allport	0,0,0,3,2,0,1,0,0	89.0	43.0	0.378	1,2,3,0,0,0,0,0,0	to_hand	s579
435.425	0.388	0	PA_without_intermediate	0,0,0,3,2,0,1,0,0	test	ward_and_allport	0,0,0,3,2,0,1,0,0	82.0	43.0	0.388	1,2,3,0,0,0,0,0,0	to_board	s579
435.822	1.0	0	PA_without_intermediate	n/a	test	ward_and_allport	n/a	-1.0	43.0	n/a	n/a	feedback	s579
436.822	4.128	0	PA_without_intermediate	n/a	test	ward_and_allport	n/a	-1.0	43.0	n/a	n/a	ITI	s579
440.958	3.339	1	PA_without_intermediate	0,0,0,0,0,0,1,2,0	test	ward_and_allport	2,0,0,3,1,0,0,0,0	82.0	44.0	3.339	0,0,0,0,0,0,1,2,3	to_hand	s579
444.299	0.324	0	PA_without_intermediate	0,0,0,3,0,0,1,2,0	test	ward_and_allport	2,0,0,3,1,0,0,0,0	71.0	44.0	0.324	0,0,0,0,0,0,1,2,3	to_board	s579
444.633	0.414	0	PA_without_intermediate	0,0,0,3,0,0,1,0,0	test	ward_and_allport	2,0,0,3,1,0,0,0,0	82.0	44.0	0.414	0,0,0,0,0,0,1,2,3	to_hand	s579
445.047	0.61	0	PA_without_intermediate	2,0,0,3,0,0,1,0,0	test	ward_and_allport	2,0,0,3,1,0,0,0,0	89.0	44.0	0.61	0,0,0,0,0,0,1,2,3	to_board	s579
445.667	0.419	0	PA_without_intermediate	2,0,0,3,0,0,0,0,0	test	ward_and_allport	2,0,0,3,1,0,0,0,0	82.0	44.0	0.419	0,0,0,0,0,0,1,2,3	to_hand	s579
446.087	0.342	0	PA_without_intermediate	2,0,0,3,1,0,0,0,0	test	ward_and_allport	2,0,0,3,1,0,0,0,0	71.0	44.0	0.342	0,0,0,0,0,0,1,2,3	to_board	s579
446.441	1.0	0	PA_without_intermediate	n/a	test	ward_and_allport	n/a	-1.0	44.0	n/a	n/a	feedback	s579
447.441	1.136	0	PA_without_intermediate	n/a	test	ward_and_allport	n/a	-1.0	44.0	n/a	n/a	ITI	s579
453.588	3.958	1	PA_without_intermediate	0,0,0,1,2,0,0,0,0	test	ward_and_allport	3,2,0,0,0,0,1,0,0	71.0	45.0	3.958	0,0,0,1,2,3,0,0,0	to_hand	s579
457.546	0.283	0	PA_without_intermediate	3,0,0,1,2,0,0,0,0	test	ward_and_allport	3,2,0,0,0,0,1,0,0	89.0	45.0	0.283	0,0,0,1,2,3,0,0,0	to_board	s579
457.838	0.306	0	PA_without_intermediate	3,0,0,1,0,0,0,0,0	test	ward_and_allport	3,2,0,0,0,0,1,0,0	71.0	45.0	0.306	0,0,0,1,2,3,0,0,0	to_hand	s579
458.146	0.342	0	PA_without_intermediate	3,2,0,1,0,0,0,0,0	test	ward_and_allport	3,2,0,0,0,0,1,0,0	89.0	45.0	0.342	0,0,0,1,2,3,0,0,0	to_board	s579
458.5	0.289	0	PA_without_intermediate	3,2,0,0,0,0,0,0,0	test	ward_and_allport	3,2,0,0,0,0,1,0,0	71.0	45.0	0.289	0,0,0,1,2,3,0,0,0	to_hand	s579
458.791	0.378	0	PA_without_intermediate	3,2,0,0,0,0,1,0,0	test	ward_and_allport	3,2,0,0,0,0,1,0,0	82.0	45.0	0.378	0,0,0,1,2,3,0,0,0	to_board	s579
459.181	1.0	0	PA_without_intermediate	n/a	test	ward_and_allport	n/a	-1.0	45.0	n/a	n/a	feedback	s579
460.181	4.264	0	PA_without_intermediate	n/a	test	ward_and_allport	n/a	-1.0	45.0	n/a	n/a	ITI	s579
464.455	3.837	1	PA_with_intermediate	0,0,0,0,0,0,1,2,0	test	ward_and_allport	2,3,0,0,0,0,1,0,0	82.0	46.0	3.837	0,0,0,0,0,0,1,2,3	to_hand	s579
468.294	0.316	0	PA_with_intermediate	3,0,0,0,0,0,1,2,0	test	ward_and_allport	2,3,0,0,0,0,1,0,0	89.0	46.0	0.316	0,0,0,0,0,0,1,2,3	to_board	s579
468.62	0.355	0	PA_with_intermediate	3,0,0,0,0,0,1,0,0	test	ward_and_allport	2,3,0,0,0,0,1,0,0	82.0	46.0	0.355	0,0,0,0,0,0,1,2,3	to_hand	s579
468.976	0.317	0	PA_with_intermediate	3,2,0,0,0,0,1,0,0	test	ward_and_allport	2,3,0,0,0,0,1,0,0	89.0	46.0	0.317	0,0,0,0,0,0,1,2,3	to_board	s579
469.305	1.721	0	PA_with_intermediate	3,2,0,0,0,0,0,0,0	test	ward_and_allport	2,3,0,0,0,0,1,0,0	82.0	46.0	1.721	0,0,0,0,0,0,1,2,3	to_hand	s579
471.026	0.654	0	PA_with_intermediate	3,2,0,0,0,0,1,0,0	test	ward_and_allport	2,3,0,0,0,0,1,0,0	82.0	46.0	0.654	0,0,0,0,0,0,1,2,3	to_board	s579
471.691	0.433	0	PA_with_intermediate	3,0,0,0,0,0,1,0,0	test	ward_and_allport	2,3,0,0,0,0,1,0,0	89.0	46.0	0.433	0,0,0,0,0,0,1,2,3	to_hand	s579
472.126	0.36	0	PA_with_intermediate	3,0,0,2,0,0,1,0,0	test	ward_and_allport	2,3,0,0,0,0,1,0,0	71.0	46.0	0.36	0,0,0,0,0,0,1,2,3	to_board	s579
472.495	1.065	0	PA_with_intermediate	0,0,0,2,0,0,1,0,0	test	ward_and_allport	2,3,0,0,0,0,1,0,0	89.0	46.0	1.065	0,0,0,0,0,0,1,2,3	to_hand	s579
473.561	0.277	0	PA_with_intermediate	0,0,0,2,3,0,1,0,0	test	ward_and_allport	2,3,0,0,0,0,1,0,0	71.0	46.0	0.277	0,0,0,0,0,0,1,2,3	to_board	s579
473.845	0.71	0	PA_with_intermediate	0,0,0,2,0,0,1,0,0	test	ward_and_allport	2,3,0,0,0,0,1,0,0	71.0	46.0	0.71	0,0,0,0,0,0,1,2,3	to_hand	s579
474.556	0.42	0	PA_with_intermediate	0,0,0,2,0,0,1,3,0	test	ward_and_allport	2,3,0,0,0,0,1,0,0	82.0	46.0	0.42	0,0,0,0,0,0,1,2,3	to_board	s579
474.984	0.988	0	PA_with_intermediate	0,0,0,0,0,0,1,3,0	test	ward_and_allport	2,3,0,0,0,0,1,0,0	71.0	46.0	0.988	0,0,0,0,0,0,1,2,3	to_hand	s579
475.974	0.333	0	PA_with_intermediate	2,0,0,0,0,0,1,3,0	test	ward_and_allport	2,3,0,0,0,0,1,0,0	89.0	46.0	0.333	0,0,0,0,0,0,1,2,3	to_board	s579
476.315	0.759	0	PA_with_intermediate	2,0,0,0,0,0,1,0,0	test	ward_and_allport	2,3,0,0,0,0,1,0,0	82.0	46.0	0.759	0,0,0,0,0,0,1,2,3	to_hand	s579
477.075	0.315	0	PA_with_intermediate	2,3,0,0,0,0,1,0,0	test	ward_and_allport	2,3,0,0,0,0,1,0,0	89.0	46.0	0.315	0,0,0,0,0,0,1,2,3	to_board	s579
477.403	1.0	0	PA_with_intermediate	n/a	test	ward_and_allport	n/a	-1.0	46.0	n/a	n/a	feedback	s579
478.403	3.04	0	PA_with_intermediate	n/a	test	ward_and_allport	n/a	-1.0	46.0	n/a	n/a	ITI	s579
481.451	3.954	1	PA_with_intermediate	1,2,0,0,0,0,0,0,0	test	ward_and_allport	1,0,0,2,3,0,0,0,0	89.0	47.0	3.954	1,2,3,0,0,0,0,0,0	to_hand	s579
485.406	0.299	0	PA_with_intermediate	1,2,0,0,0,0,3,0,0	test	ward_and_allport	1,0,0,2,3,0,0,0,0	82.0	47.0	0.299	1,2,3,0,0,0,0,0,0	to_board	s579
485.712	0.312	0	PA_with_intermediate	1,0,0,0,0,0,3,0,0	test	ward_and_allport	1,0,0,2,3,0,0,0,0	89.0	47.0	0.312	1,2,3,0,0,0,0,0,0	to_hand	s579
486.026	0.345	0	PA_with_intermediate	1,0,0,2,0,0,3,0,0	test	ward_and_allport	1,0,0,2,3,0,0,0,0	71.0	47.0	0.345	1,2,3,0,0,0,0,0,0	to_board	s579
486.381	0.557	0	PA_with_intermediate	1,0,0,2,0,0,0,0,0	test	ward_and_allport	1,0,0,2,3,0,0,0,0	82.0	47.0	0.557	1,2,3,0,0,0,0,0,0	to_hand	s579
486.939	0.434	0	PA_with_intermediate	1,0,0,2,3,0,0,0,0	test	ward_and_allport	1,0,0,2,3,0,0,0,0	71.0	47.0	0.434	1,2,3,0,0,0,0,0,0	to_board	s579
487.387	1.0	0	PA_with_intermediate	n/a	test	ward_and_allport	n/a	-1.0	47.0	n/a	n/a	feedback	s579
488.387	1.136	0	PA_with_intermediate	n/a	test	ward_and_allport	n/a	-1.0	47.0	n/a	n/a	ITI	s579
n/a	n/a	0	n/a	n/a	n/a	n/a	n/a	n/a	n/a	n/a	n/a	ITI	n/a
