onset	duration	EV	action	clicked_on_loss_card	experiment_exp_id	gain_amount	gain_probability	key_press	loss_amount	loss_probability	num_cards	num_click_in_round	num_loss_cards	risk	response_time	total_cards	trial_id	worker_id
3.015	2.994	-0.8535500343673419	draw_card	0.0	columbia_card_task_fmri	12.0	0.8333333333333334	89.0	-70.0	0.1666666666666666	6.0	1.0	1.0	-1.0897823103597268	2.994	n/a	stim	s579
6.012	1.655	-3.5868833677006746	draw_card	0.0	columbia_card_task_fmri	12.0	0.8	89.0	-70.0	0.2	6.0	2.0	1.0	1.1498834716280797	1.655	n/a	stim	s579
7.669	1.386	-7.686883367700676	end_round	0.0	columbia_card_task_fmri	12.0	0.75	71.0	-70.0	0.25	6.0	3.0	1.0	3.856156963455177	1.386	2.0	stim	s579
9.058	2.25	n/a	-1.0	n/a	columbia_card_task_fmri	n/a	n/a	-1.0	n/a	n/a	n/a	n/a	n/a	n/a	n/a	n/a	feedback	s579
11.308	0.0	n/a	-1.0	n/a	columbia_card_task_fmri	n/a	n/a	-1.0	n/a	n/a	n/a	n/a	n/a	n/a	n/a	n/a	ITI	s579
11.309	3.269	-0.0202167010340079	draw_card	0.0	columbia_card_task_fmri	14.0	0.8333333333333334	89.0	-75.0	0.1666666666666666	6.0	1.0	1.0	1.5181132633929335	3.269	n/a	stim	s579
14.579	1.407	-2.986883367700675	draw_card	0.0	columbia_card_task_fmri	14.0	0.8	89.0	-75.0	0.2	6.0	2.0	1.0	3.949091106980724	1.407	n/a	stim	s579
15.988	4.735	-7.436883367700676	draw_card	0.0	columbia_card_task_fmri	14.0	0.75	89.0	-75.0	0.25	6.0	3.0	1.0	6.886513875922553	4.735	n/a	stim	s579
20.725	0.526	-14.85355003436734	end_round	0.0	columbia_card_task_fmri	14.0	0.6666666666666667	71.0	-75.0	0.3333333333333333	6.0	4.0	1.0	10.302687370334006	0.526	3.0	stim	s579
21.253	2.25	n/a	-1.0	n/a	columbia_card_task_fmri	n/a	n/a	-1.0	n/a	n/a	n/a	n/a	n/a	n/a	n/a	n/a	feedback	s579
23.503	0.136	n/a	-1.0	n/a	columbia_card_task_fmri	n/a	n/a	-1.0	n/a	n/a	n/a	n/a	n/a	n/a	n/a	n/a	ITI	s579
23.641	2.384	1.646449965632658	draw_card	0.0	columbia_card_task_fmri	15.0	0.8333333333333334	89.0	-70.0	0.1666666666666666	6.0	1.0	1.0	0.0278700787707215	2.384	n/a	stim	s579
26.027	2.081	-1.1868833677006758	draw_card	1.0	columbia_card_task_fmri	15.0	0.8	89.0	-70.0	0.2	6.0	2.0	1.0	2.349527913147924	2.081	2.0	stim	s579
28.11	2.25	n/a	-1.0	n/a	columbia_card_task_fmri	n/a	n/a	-1.0	n/a	n/a	n/a	n/a	n/a	n/a	n/a	n/a	feedback	s579
30.36	0.34	n/a	-1.0	n/a	columbia_card_task_fmri	n/a	n/a	-1.0	n/a	n/a	n/a	n/a	n/a	n/a	n/a	n/a	ITI	s579
30.701	1.638	2.479783298965992	draw_card	0.0	columbia_card_task_fmri	17.0	0.8333333333333334	89.0	-75.0	0.1666666666666666	6.0	1.0	1.0	2.6358223923402804	1.638	n/a	stim	s579
32.34	1.461	-0.5868833677006744	draw_card	1.0	columbia_card_task_fmri	17.0	0.8	89.0	-75.0	0.2	6.0	2.0	1.0	5.148788419318471	1.461	2.0	stim	s579
33.808	2.25	n/a	-1.0	n/a	columbia_card_task_fmri	n/a	n/a	-1.0	n/a	n/a	n/a	n/a	n/a	n/a	n/a	n/a	feedback	s579
36.058	0.408	n/a	-1.0	n/a	columbia_card_task_fmri	n/a	n/a	-1.0	n/a	n/a	n/a	n/a	n/a	n/a	n/a	n/a	ITI	s579
36.468	1.859	3.813116632299324	draw_card	1.0	columbia_card_task_fmri	24.0	0.75	89.0	-60.0	0.25	8.0	1.0	2.0	4.721960779781746	1.859	1.0	stim	s579
38.331	2.25	n/a	-1.0	n/a	columbia_card_task_fmri	n/a	n/a	-1.0	n/a	n/a	n/a	n/a	n/a	n/a	n/a	n/a	feedback	s579
40.581	0.136	n/a	-1.0	n/a	columbia_card_task_fmri	n/a	n/a	-1.0	n/a	n/a	n/a	n/a	n/a	n/a	n/a	n/a	ITI	s579
40.719	1.843	3.813116632299324	draw_card	0.0	columbia_card_task_fmri	29.0	0.75	89.0	-75.0	0.25	8.0	1.0	2.0	13.380467551836432	1.843	n/a	stim	s579
42.564	5.74	0.0988309180136124	draw_card	1.0	columbia_card_task_fmri	29.0	0.7142857142857143	89.0	-75.0	0.2857142857142857	8.0	2.0	2.0	15.329253041752407	5.74	2.0	stim	s579
48.31	2.25	n/a	-1.0	n/a	columbia_card_task_fmri	n/a	n/a	-1.0	n/a	n/a	n/a	n/a	n/a	n/a	n/a	n/a	feedback	s579
50.56	0.136	n/a	-1.0	n/a	columbia_card_task_fmri	n/a	n/a	-1.0	n/a	n/a	n/a	n/a	n/a	n/a	n/a	n/a	ITI	s579
50.697	1.184	-0.4091055899228955	draw_card	0.0	columbia_card_task_fmri	17.0	0.7777777777777778	89.0	-65.0	0.2222222222222222	9.0	1.0	2.0	2.440158258957446	1.184	n/a	stim	s579
51.883	3.267	-2.686883367700676	end_round	0.0	columbia_card_task_fmri	17.0	0.75	71.0	-65.0	0.25	9.0	2.0	2.0	3.856156963455177	3.267	1.0	stim	s579
55.156	2.25	n/a	-1.0	n/a	columbia_card_task_fmri	n/a	n/a	-1.0	n/a	n/a	n/a	n/a	n/a	n/a	n/a	n/a	feedback	s579
57.406	0.0	n/a	-1.0	n/a	columbia_card_task_fmri	n/a	n/a	-1.0	n/a	n/a	n/a	n/a	n/a	n/a	n/a	n/a	ITI	s579
57.407	2.727	3.913116632299324	end_round	0.0	columbia_card_task_fmri	14.0	0.9	71.0	-95.0	0.1	10.0	1.0	1.0	1.0499142789090214	2.727	0.0	stim	s579
60.138	2.25	n/a	-1.0	n/a	columbia_card_task_fmri	n/a	n/a	-1.0	n/a	n/a	n/a	n/a	n/a	n/a	n/a	n/a	feedback	s579
62.388	0.068	n/a	-1.0	n/a	columbia_card_task_fmri	n/a	n/a	-1.0	n/a	n/a	n/a	n/a	n/a	n/a	n/a	n/a	ITI	s579
62.458	1.917	-0.1868833677006758	draw_card	0.0	columbia_card_task_fmri	15.0	0.8	89.0	-65.0	0.2	10.0	1.0	2.0	0.3501353185804277	1.917	n/a	stim	s579
64.377	3.362	-1.9646611454784528	end_round	0.0	columbia_card_task_fmri	15.0	0.7777777777777778	71.0	-65.0	0.2222222222222222	10.0	2.0	2.0	1.6089211603208255	3.362	1.0	stim	s579
67.743	2.25	n/a	-1.0	n/a	columbia_card_task_fmri	n/a	n/a	-1.0	n/a	n/a	n/a	n/a	n/a	n/a	n/a	n/a	feedback	s579
69.993	0.0	n/a	-1.0	n/a	columbia_card_task_fmri	n/a	n/a	-1.0	n/a	n/a	n/a	n/a	n/a	n/a	n/a	n/a	ITI	s579
69.994	2.525	1.4131166322993256	draw_card	0.0	columbia_card_task_fmri	17.0	0.8	89.0	-65.0	0.2	10.0	1.0	2.0	1.1498834716280797	2.525	n/a	stim	s579
72.521	1.664	-0.4091055899228955	draw_card	0.0	columbia_card_task_fmri	17.0	0.7777777777777778	89.0	-65.0	0.2222222222222222	10.0	2.0	2.0	2.440158258957446	1.664	n/a	stim	s579
74.186	1.042	-2.686883367700676	end_round	0.0	columbia_card_task_fmri	17.0	0.75	71.0	-65.0	0.25	10.0	3.0	2.0	3.856156963455177	1.042	2.0	stim	s579
75.231	2.25	n/a	-1.0	n/a	columbia_card_task_fmri	n/a	n/a	-1.0	n/a	n/a	n/a	n/a	n/a	n/a	n/a	n/a	feedback	s579
77.481	0.0	n/a	-1.0	n/a	columbia_card_task_fmri	n/a	n/a	-1.0	n/a	n/a	n/a	n/a	n/a	n/a	n/a	n/a	ITI	s579
77.483	2.27	-0.0202167010340079	draw_card	0.0	columbia_card_task_fmri	13.0	0.8333333333333334	89.0	-70.0	0.1666666666666666	12.0	1.0	2.0	-0.7172345774586084	2.27	n/a	stim	s579
79.754	3.954	-1.2777924586097693	draw_card	0.0	columbia_card_task_fmri	13.0	0.8181818181818181	89.0	-70.0	0.1818181818181818	12.0	2.0	2.0	0.3627836949145262	3.954	n/a	stim	s579
83.711	1.475	-2.786883367700676	end_round	0.0	columbia_card_task_fmri	13.0	0.8	71.0	-70.0	0.2	12.0	3.0	2.0	1.5497620975225246	1.475	2.0	stim	s579
85.19	2.25	n/a	-1.0	n/a	columbia_card_task_fmri	n/a	n/a	-1.0	n/a	n/a	n/a	n/a	n/a	n/a	n/a	n/a	feedback	s579
87.44	0.136	n/a	-1.0	n/a	columbia_card_task_fmri	n/a	n/a	-1.0	n/a	n/a	n/a	n/a	n/a	n/a	n/a	n/a	ITI	s579
87.579	4.134	-0.0202167010340079	draw_card	0.0	columbia_card_task_fmri	15.0	0.8333333333333334	89.0	-80.0	0.1666666666666666	12.0	1.0	2.0	3.7535520303658094	4.134	n/a	stim	s579
91.715	0.992	-1.459610640427951	draw_card	0.0	columbia_card_task_fmri	15.0	0.8181818181818181	89.0	-80.0	0.1818181818181818	12.0	2.0	2.0	4.9898151418196335	0.992	n/a	stim	s579
92.709	1.229	-3.186883367700676	draw_card	0.0	columbia_card_task_fmri	15.0	0.8	89.0	-80.0	0.2	12.0	3.0	2.0	6.348504841991016	1.229	n/a	stim	s579
93.939	1.137	-5.2979944788117885	end_round	0.0	columbia_card_task_fmri	15.0	0.7777777777777778	71.0	-80.0	0.2222222222222222	12.0	4.0	2.0	7.843448009462847	1.137	3.0	stim	s579
95.081	2.25	n/a	-1.0	n/a	columbia_card_task_fmri	n/a	n/a	-1.0	n/a	n/a	n/a	n/a	n/a	n/a	n/a	n/a	feedback	s579
97.331	0.136	n/a	-1.0	n/a	columbia_card_task_fmri	n/a	n/a	-1.0	n/a	n/a	n/a	n/a	n/a	n/a	n/a	n/a	ITI	s579
97.468	2.297	-0.9868833677006748	draw_card	0.0	columbia_card_task_fmri	14.0	0.8	89.0	-65.0	0.2	15.0	1.0	3.0	-0.049733978373613	2.297	n/a	stim	s579
99.767	1.205	-2.115454796272103	draw_card	0.0	columbia_card_task_fmri	14.0	0.7857142857142857	89.0	-65.0	0.2142857142857142	15.0	2.0	3.0	0.7657492499042604	1.205	n/a	stim	s579
100.974	1.144	-3.417652598469908	end_round	0.0	columbia_card_task_fmri	14.0	0.7692307692307692	71.0	-65.0	0.2307692307692307	15.0	3.0	3.0	1.6344152716099811	1.144	2.0	stim	s579
102.122	2.25	n/a	-1.0	n/a	columbia_card_task_fmri	n/a	n/a	-1.0	n/a	n/a	n/a	n/a	n/a	n/a	n/a	n/a	feedback	s579
104.372	0.476	n/a	-1.0	n/a	columbia_card_task_fmri	n/a	n/a	-1.0	n/a	n/a	n/a	n/a	n/a	n/a	n/a	n/a	ITI	s579
104.85	3.604	-1.0618833677006758	draw_card	0.0	columbia_card_task_fmri	1.0	0.9375	89.0	-45.0	0.0625	16.0	1.0	1.0	-20.495717201822536	3.604	n/a	stim	s579
108.456	1.225	-1.2535500343673422	draw_card	0.0	columbia_card_task_fmri	1.0	0.9333333333333332	89.0	-45.0	0.0666666666666666	16.0	2.0	1.0	-20.157003587869607	1.225	n/a	stim	s579
109.683	1.188	-1.4725976534149614	end_round	0.0	columbia_card_task_fmri	1.0	0.9285714285714286	71.0	-45.0	0.0714285714285714	16.0	3.0	1.0	-19.78551057287264	1.188	2.0	stim	s579
110.878	2.25	n/a	-1.0	n/a	columbia_card_task_fmri	n/a	n/a	-1.0	n/a	n/a	n/a	n/a	n/a	n/a	n/a	n/a	feedback	s579
113.128	0.204	n/a	-1.0	n/a	columbia_card_task_fmri	n/a	n/a	-1.0	n/a	n/a	n/a	n/a	n/a	n/a	n/a	n/a	ITI	s579
113.334	2.354	-0.1243833677006758	draw_card	0.0	columbia_card_task_fmri	15.0	0.8125	89.0	-70.0	0.1875	16.0	1.0	3.0	1.5263209982863728	2.354	n/a	stim	s579
115.69	4.487	-1.1868833677006758	draw_card	0.0	columbia_card_task_fmri	15.0	0.8	89.0	-70.0	0.2	16.0	2.0	3.0	2.349527913147924	4.487	n/a	stim	s579
120.179	1.351	-2.401169081986392	draw_card	0.0	columbia_card_task_fmri	15.0	0.7857142857142857	89.0	-70.0	0.2142857142857142	16.0	3.0	3.0	3.226985119439732	1.351	n/a	stim	s579
121.532	1.211	-3.802267983085293	end_round	0.0	columbia_card_task_fmri	15.0	0.7692307692307692	71.0	-70.0	0.2307692307692307	16.0	4.0	3.0	4.161664755383889	1.211	3.0	stim	s579
122.749	2.25	n/a	-1.0	n/a	columbia_card_task_fmri	n/a	n/a	-1.0	n/a	n/a	n/a	n/a	n/a	n/a	n/a	n/a	feedback	s579
124.999	0.068	n/a	-1.0	n/a	columbia_card_task_fmri	n/a	n/a	-1.0	n/a	n/a	n/a	n/a	n/a	n/a	n/a	n/a	ITI	s579
125.068	1.545	6.813116632299324	draw_card	1.0	columbia_card_task_fmri	30.0	0.7	89.0	-50.0	0.3	10.0	1.0	3.0	5.009428122941962	1.545	1.0	stim	s579
126.616	2.25	n/a	-1.0	n/a	columbia_card_task_fmri	n/a	n/a	-1.0	n/a	n/a	n/a	n/a	n/a	n/a	n/a	n/a	feedback	s579
128.866	0.068	n/a	-1.0	n/a	columbia_card_task_fmri	n/a	n/a	-1.0	n/a	n/a	n/a	n/a	n/a	n/a	n/a	n/a	ITI	s579
128.936	1.434	6.213116632299324	draw_card	0.0	columbia_card_task_fmri	17.0	0.8666666666666667	89.0	-70.0	0.1333333333333333	15.0	1.0	2.0	-2.074704630485812	1.434	n/a	stim	s579
130.372	1.227	5.384545203727897	draw_card	0.0	columbia_card_task_fmri	17.0	0.8571428571428572	89.0	-70.0	0.1428571428571428	15.0	2.0	2.0	-1.2056785970686832	1.227	n/a	stim	s579
131.601	0.994	4.428501247683939	end_round	0.0	columbia_card_task_fmri	17.0	0.8461538461538461	71.0	-70.0	0.1538461538461538	15.0	3.0	2.0	-0.2599584581146708	0.994	2.0	stim	s579
132.6	2.25	n/a	-1.0	n/a	columbia_card_task_fmri	n/a	n/a	-1.0	n/a	n/a	n/a	n/a	n/a	n/a	n/a	n/a	feedback	s579
134.85	0.34	n/a	-1.0	n/a	columbia_card_task_fmri	n/a	n/a	-1.0	n/a	n/a	n/a	n/a	n/a	n/a	n/a	n/a	ITI	s579
135.193	2.512	1.4381166322993242	end_round	0.0	columbia_card_task_fmri	7.0	0.9375	71.0	-95.0	0.0625	16.0	1.0	1.0	-6.956539361294482	2.512	0.0	stim	s579
137.707	2.25	n/a	-1.0	n/a	columbia_card_task_fmri	n/a	n/a	-1.0	n/a	n/a	n/a	n/a	n/a	n/a	n/a	n/a	feedback	s579
139.957	0.476	n/a	-1.0	n/a	columbia_card_task_fmri	n/a	n/a	-1.0	n/a	n/a	n/a	n/a	n/a	n/a	n/a	n/a	ITI	s579
140.436	4.397	3.000616632299324	draw_card	0.0	columbia_card_task_fmri	9.0	0.9375	89.0	-100.0	0.0625	16.0	1.0	1.0	-5.262968339890254	4.397	n/a	stim	s579
144.834	1.445	2.5464499656326574	draw_card	0.0	columbia_card_task_fmri	9.0	0.9333333333333332	89.0	-100.0	0.0666666666666666	16.0	2.0	1.0	-4.458660924882253	1.445	n/a	stim	s579
146.282	2.328	2.0274023465850397	draw_card	0.0	columbia_card_task_fmri	9.0	0.9285714285714286	89.0	-100.0	0.0714285714285714	16.0	3.0	1.0	-3.576627803883799	2.328	n/a	stim	s579
148.611	4.518	1.42850124768394	draw_card	0.0	columbia_card_task_fmri	9.0	0.9230769230769232	89.0	-100.0	0.0769230769230769	16.0	4.0	1.0	-2.60365458793034	4.518	n/a	stim	s579
153.131	1.044	0.729783298965992	end_round	0.0	columbia_card_task_fmri	9.0	0.9166666666666666	71.0	-100.0	0.0833333333333333	16.0	5.0	1.0	-1.523213883482775	1.044	4.0	stim	s579
154.184	2.25	n/a	-1.0	n/a	columbia_card_task_fmri	n/a	n/a	-1.0	n/a	n/a	n/a	n/a	n/a	n/a	n/a	n/a	feedback	s579
156.434	0.272	n/a	-1.0	n/a	columbia_card_task_fmri	n/a	n/a	-1.0	n/a	n/a	n/a	n/a	n/a	n/a	n/a	n/a	ITI	s579
156.707	2.871	3.938116632299324	draw_card	0.0	columbia_card_task_fmri	15.0	0.875	89.0	-80.0	0.125	16.0	1.0	2.0	-0.2313766878542402	2.871	n/a	stim	s579
159.58	3.233	3.146449965632658	draw_card	0.0	columbia_card_task_fmri	15.0	0.8666666666666667	89.0	-80.0	0.1333333333333333	16.0	2.0	2.0	0.6438316345392678	3.233	n/a	stim	s579
162.816	1.003	2.2416880608707546	end_round	0.0	columbia_card_task_fmri	15.0	0.8571428571428572	71.0	-80.0	0.1428571428571428	16.0	3.0	2.0	1.5928242817824767	1.003	2.0	stim	s579
163.823	2.25	n/a	-1.0	n/a	columbia_card_task_fmri	n/a	n/a	-1.0	n/a	n/a	n/a	n/a	n/a	n/a	n/a	n/a	feedback	s579
166.073	0.884	n/a	-1.0	n/a	columbia_card_task_fmri	n/a	n/a	-1.0	n/a	n/a	n/a	n/a	n/a	n/a	n/a	n/a	ITI	s579
166.958	2.718	6.063116632299324	draw_card	0.0	columbia_card_task_fmri	16.0	0.875	89.0	-70.0	0.125	16.0	1.0	2.0	-3.2067463992292677	2.718	n/a	stim	s579
169.678	1.577	5.346449965632657	draw_card	0.0	columbia_card_task_fmri	16.0	0.8666666666666667	89.0	-70.0	0.1333333333333333	16.0	2.0	2.0	-2.4145093634039547	1.577	n/a	stim	s579
171.258	1.482	4.527402346585039	draw_card	0.0	columbia_card_task_fmri	16.0	0.8571428571428572	89.0	-70.0	0.1428571428571428	16.0	3.0	2.0	-1.5554795072321106	1.482	n/a	stim	s579
172.742	4.239	3.582347401530092	draw_card	0.0	columbia_card_task_fmri	16.0	0.8461538461538461	89.0	-70.0	0.1538461538461538	16.0	4.0	2.0	-0.6206372739209023	4.239	n/a	stim	s579
176.983	3.123	2.479783298965992	end_round	0.0	columbia_card_task_fmri	16.0	0.8333333333333334	71.0	-70.0	0.1666666666666666	16.0	5.0	2.0	0.4004267885088808	3.123	4.0	stim	s579
180.113	2.25	n/a	-1.0	n/a	columbia_card_task_fmri	n/a	n/a	-1.0	n/a	n/a	n/a	n/a	n/a	n/a	n/a	n/a	feedback	s579
182.363	0.136	n/a	-1.0	n/a	columbia_card_task_fmri	n/a	n/a	-1.0	n/a	n/a	n/a	n/a	n/a	n/a	n/a	n/a	ITI	s579
182.502	1.319	7.375616632299324	end_round	0.0	columbia_card_task_fmri	30.0	0.6875	71.0	-45.0	0.3125	16.0	1.0	5.0	3.112744888481153	1.319	0.0	stim	s579
183.825	2.25	n/a	-1.0	n/a	columbia_card_task_fmri	n/a	n/a	-1.0	n/a	n/a	n/a	n/a	n/a	n/a	n/a	n/a	feedback	s579
186.075	0.136	n/a	-1.0	n/a	columbia_card_task_fmri	n/a	n/a	-1.0	n/a	n/a	n/a	n/a	n/a	n/a	n/a	n/a	ITI	s579
186.213	3.132	-0.8535500343673419	draw_card	0.0	columbia_card_task_fmri	13.0	0.8333333333333334	89.0	-75.0	0.1666666666666666	6.0	1.0	1.0	1.1455484736353725	3.132	n/a	stim	s579
189.347	1.677	-3.786883367700676	end_round	0.0	columbia_card_task_fmri	13.0	0.8	71.0	-75.0	0.2	6.0	2.0	1.0	3.549196587243763	1.677	1.0	stim	s579
191.029	2.25	n/a	-1.0	n/a	columbia_card_task_fmri	n/a	n/a	-1.0	n/a	n/a	n/a	n/a	n/a	n/a	n/a	n/a	feedback	s579
193.279	0.068	n/a	-1.0	n/a	columbia_card_task_fmri	n/a	n/a	-1.0	n/a	n/a	n/a	n/a	n/a	n/a	n/a	n/a	ITI	s579
193.349	1.14	0.813116632299326	draw_card	0.0	columbia_card_task_fmri	14.0	0.8333333333333334	89.0	-70.0	0.1666666666666666	6.0	1.0	1.0	-0.3446837446365833	1.14	n/a	stim	s579
194.492	1.679	-1.9868833677006748	draw_card	0.0	columbia_card_task_fmri	14.0	0.8	89.0	-70.0	0.2	6.0	2.0	1.0	1.949643611992606	1.679	n/a	stim	s579
196.172	2.965	-6.186883367700676	end_round	0.0	columbia_card_task_fmri	14.0	0.75	71.0	-70.0	0.25	6.0	3.0	1.0	4.721960779781746	2.965	2.0	stim	s579
199.141	2.25	n/a	-1.0	n/a	columbia_card_task_fmri	n/a	n/a	-1.0	n/a	n/a	n/a	n/a	n/a	n/a	n/a	n/a	feedback	s579
201.391	0.068	n/a	-1.0	n/a	columbia_card_task_fmri	n/a	n/a	-1.0	n/a	n/a	n/a	n/a	n/a	n/a	n/a	n/a	ITI	s579
201.461	4.684	0.813116632299326	draw_card	1.0	columbia_card_task_fmri	16.0	0.8333333333333334	89.0	-80.0	0.1666666666666666	6.0	1.0	1.0	4.126132801801475	4.684	1.0	stim	s579
206.15	2.25	n/a	-1.0	n/a	columbia_card_task_fmri	n/a	n/a	-1.0	n/a	n/a	n/a	n/a	n/a	n/a	n/a	n/a	feedback	s579
208.4	0.612	n/a	-1.0	n/a	columbia_card_task_fmri	n/a	n/a	-1.0	n/a	n/a	n/a	n/a	n/a	n/a	n/a	n/a	ITI	s579
209.014	1.93	3.3131166322993257	draw_card	0.0	columbia_card_task_fmri	17.0	0.8333333333333334	89.0	-70.0	0.1666666666666666	6.0	1.0	1.0	0.7729862851128999	1.93	n/a	stim	s579
210.946	2.402	0.4131166322993256	draw_card	0.0	columbia_card_task_fmri	17.0	0.8	89.0	-70.0	0.2	6.0	2.0	1.0	3.14930449135926	2.402	n/a	stim	s579
213.35	1.029	-3.936883367700676	end_round	0.0	columbia_card_task_fmri	17.0	0.75	71.0	-70.0	0.25	6.0	3.0	1.0	6.020685599752163	1.029	2.0	stim	s579
214.382	2.25	n/a	-1.0	n/a	columbia_card_task_fmri	n/a	n/a	-1.0	n/a	n/a	n/a	n/a	n/a	n/a	n/a	n/a	feedback	s579
216.632	0.476	n/a	-1.0	n/a	columbia_card_task_fmri	n/a	n/a	-1.0	n/a	n/a	n/a	n/a	n/a	n/a	n/a	n/a	ITI	s579
217.111	5.007	3.313116632299324	draw_card	1.0	columbia_card_task_fmri	25.0	0.75	89.0	-65.0	0.25	8.0	1.0	2.0	7.319431298379378	5.007	1.0	stim	s579
222.122	2.25	n/a	-1.0	n/a	columbia_card_task_fmri	n/a	n/a	-1.0	n/a	n/a	n/a	n/a	n/a	n/a	n/a	n/a	feedback	s579
224.372	0.0	n/a	-1.0	n/a	columbia_card_task_fmri	n/a	n/a	-1.0	n/a	n/a	n/a	n/a	n/a	n/a	n/a	n/a	ITI	s579
224.374	0.909	3.313116632299324	draw_card	0.0	columbia_card_task_fmri	30.0	0.75	89.0	-80.0	0.25	8.0	1.0	2.0	15.978143450096802	0.909	n/a	stim	s579
225.286	2.862	-0.6154547962720993	draw_card	0.0	columbia_card_task_fmri	30.0	0.7142857142857143	89.0	-80.0	0.2857142857142857	8.0	2.0	2.0	18.039393037361	2.862	n/a	stim	s579
228.15	1.275	-5.853550034367337	end_round	0.0	columbia_card_task_fmri	30.0	0.6666666666666667	71.0	-80.0	0.3333333333333333	8.0	3.0	2.0	20.20067840994207	1.275	2.0	stim	s579
229.43	2.25	n/a	-1.0	n/a	columbia_card_task_fmri	n/a	n/a	-1.0	n/a	n/a	n/a	n/a	n/a	n/a	n/a	n/a	feedback	s579
231.68	0.068	n/a	-1.0	n/a	columbia_card_task_fmri	n/a	n/a	-1.0	n/a	n/a	n/a	n/a	n/a	n/a	n/a	n/a	ITI	s579
231.75	1.691	3.013116632299325	end_round	0.0	columbia_card_task_fmri	13.0	0.9	71.0	-95.0	0.1	10.0	1.0	1.0	0.7500078412274291	1.691	0.0	stim	s579
233.449	2.25	n/a	-1.0	n/a	columbia_card_task_fmri	n/a	n/a	-1.0	n/a	n/a	n/a	n/a	n/a	n/a	n/a	n/a	feedback	s579
235.699	0.204	n/a	-1.0	n/a	columbia_card_task_fmri	n/a	n/a	-1.0	n/a	n/a	n/a	n/a	n/a	n/a	n/a	n/a	ITI	s579
235.906	2.393	4.413116632299324	draw_card	0.0	columbia_card_task_fmri	14.0	0.9	89.0	-90.0	0.1	10.0	1.0	1.0	-0.4495999256522225	2.393	n/a	stim	s579
238.302	0.984	3.257561076743767	draw_card	1.0	columbia_card_task_fmri	14.0	0.8888888888888888	89.0	-90.0	0.1111111111111111	10.0	2.0	1.0	1.0339659859367814	0.984	2.0	stim	s579
239.292	2.25	n/a	-1.0	n/a	columbia_card_task_fmri	n/a	n/a	-1.0	n/a	n/a	n/a	n/a	n/a	n/a	n/a	n/a	feedback	s579
241.542	0.272	n/a	-1.0	n/a	columbia_card_task_fmri	n/a	n/a	-1.0	n/a	n/a	n/a	n/a	n/a	n/a	n/a	n/a	ITI	s579
241.817	1.689	-0.3868833677006751	draw_card	0.0	columbia_card_task_fmri	16.0	0.8	89.0	-70.0	0.2	10.0	1.0	2.0	2.749414903833788	1.689	n/a	stim	s579
243.508	2.055	-2.2979944788117868	draw_card	0.0	columbia_card_task_fmri	16.0	0.7777777777777778	89.0	-70.0	0.2222222222222222	10.0	2.0	2.0	4.102666254763591	2.055	n/a	stim	s579
245.565	1.123	-4.686883367700676	end_round	0.0	columbia_card_task_fmri	16.0	0.75	71.0	-70.0	0.25	10.0	3.0	2.0	5.5877748987289095	1.123	2.0	stim	s579
246.695	2.25	n/a	-1.0	n/a	columbia_card_task_fmri	n/a	n/a	-1.0	n/a	n/a	n/a	n/a	n/a	n/a	n/a	n/a	feedback	s579
248.945	0.068	n/a	-1.0	n/a	columbia_card_task_fmri	n/a	n/a	-1.0	n/a	n/a	n/a	n/a	n/a	n/a	n/a	n/a	ITI	s579
249.017	3.746	-1.103550034367342	end_round	0.0	columbia_card_task_fmri	7.0	0.9166666666666666	71.0	-100.0	0.0833333333333333	12.0	1.0	1.0	-2.075779689054009	3.746	0.0	stim	s579
252.769	2.25	n/a	-1.0	n/a	columbia_card_task_fmri	n/a	n/a	-1.0	n/a	n/a	n/a	n/a	n/a	n/a	n/a	n/a	feedback	s579
255.019	0.272	n/a	-1.0	n/a	columbia_card_task_fmri	n/a	n/a	-1.0	n/a	n/a	n/a	n/a	n/a	n/a	n/a	n/a	ITI	s579
255.294	4.912	-0.8535500343673401	draw_card	0.0	columbia_card_task_fmri	14.0	0.8333333333333334	89.0	-80.0	0.1666666666666666	12.0	1.0	2.0	3.3809733267165143	4.912	n/a	stim	s579
260.208	0.733	-2.277792458609769	end_round	0.0	columbia_card_task_fmri	14.0	0.8181818181818181	71.0	-80.0	0.1818181818181818	12.0	2.0	2.0	4.604216478069041	0.733	1.0	stim	s579
260.944	2.25	n/a	-1.0	n/a	columbia_card_task_fmri	n/a	n/a	-1.0	n/a	n/a	n/a	n/a	n/a	n/a	n/a	n/a	feedback	s579
263.194	0.748	n/a	-1.0	n/a	columbia_card_task_fmri	n/a	n/a	-1.0	n/a	n/a	n/a	n/a	n/a	n/a	n/a	n/a	ITI	s579
263.945	3.428	0.8131166322993242	draw_card	0.0	columbia_card_task_fmri	15.0	0.8333333333333334	89.0	-75.0	0.1666666666666666	12.0	1.0	2.0	1.8906805677295184	3.428	n/a	stim	s579
267.376	0.755	-0.5505197313370409	end_round	0.0	columbia_card_task_fmri	15.0	0.8181818181818181	71.0	-75.0	0.1818181818181818	12.0	2.0	2.0	3.0618431355016185	0.755	1.0	stim	s579
268.136	2.25	n/a	-1.0	n/a	columbia_card_task_fmri	n/a	n/a	-1.0	n/a	n/a	n/a	n/a	n/a	n/a	n/a	n/a	feedback	s579
270.386	0.068	n/a	-1.0	n/a	columbia_card_task_fmri	n/a	n/a	-1.0	n/a	n/a	n/a	n/a	n/a	n/a	n/a	n/a	ITI	s579
270.456	5.359	-0.1868833677006758	draw_card	0.0	columbia_card_task_fmri	15.0	0.8	89.0	-65.0	0.2	15.0	1.0	3.0	0.3501353185804277	5.359	n/a	stim	s579
275.817	0.89	-1.3297405105578182	end_round	0.0	columbia_card_task_fmri	15.0	0.7857142857142857	71.0	-65.0	0.2142857142857142	15.0	2.0	3.0	1.17594773623766	0.89	1.0	stim	s579
276.711	2.25	n/a	-1.0	n/a	columbia_card_task_fmri	n/a	n/a	-1.0	n/a	n/a	n/a	n/a	n/a	n/a	n/a	n/a	feedback	s579
278.961	0.0	n/a	-1.0	n/a	columbia_card_task_fmri	n/a	n/a	-1.0	n/a	n/a	n/a	n/a	n/a	n/a	n/a	n/a	ITI	s579
278.964	4.782	-0.9368833677006758	draw_card	0.0	columbia_card_task_fmri	14.0	0.8125	89.0	-70.0	0.1875	16.0	1.0	3.0	1.136127191312596	4.782	n/a	stim	s579
283.748	2.338	-1.9868833677006748	draw_card	1.0	columbia_card_task_fmri	14.0	0.8	89.0	-70.0	0.2	16.0	2.0	3.0	1.949643611992606	2.338	2.0	stim	s579
286.093	2.25	n/a	-1.0	n/a	columbia_card_task_fmri	n/a	n/a	-1.0	n/a	n/a	n/a	n/a	n/a	n/a	n/a	n/a	feedback	s579
288.343	0.204	n/a	-1.0	n/a	columbia_card_task_fmri	n/a	n/a	-1.0	n/a	n/a	n/a	n/a	n/a	n/a	n/a	n/a	ITI	s579
288.55	3.237	-0.9993833677006758	end_round	0.0	columbia_card_task_fmri	11.0	0.6875	71.0	-30.0	0.3125	16.0	1.0	5.0	-12.638797707339112	3.237	0.0	stim	s579
291.796	2.25	n/a	-1.0	n/a	columbia_card_task_fmri	n/a	n/a	-1.0	n/a	n/a	n/a	n/a	n/a	n/a	n/a	n/a	feedback	s579
294.046	0.068	n/a	-1.0	n/a	columbia_card_task_fmri	n/a	n/a	-1.0	n/a	n/a	n/a	n/a	n/a	n/a	n/a	n/a	ITI	s579
294.117	2.102	3.813116632299324	draw_card	0.0	columbia_card_task_fmri	15.0	0.8666666666666667	89.0	-75.0	0.1333333333333333	15.0	1.0	2.0	-1.055273120972405	2.102	n/a	stim	s579
296.221	1.014	2.955973775156468	draw_card	0.0	columbia_card_task_fmri	15.0	0.8571428571428572	89.0	-75.0	0.1428571428571428	15.0	2.0	2.0	-0.1562590490858433	1.014	n/a	stim	s579
297.238	2.794	1.9669627861454773	draw_card	0.0	columbia_card_task_fmri	15.0	0.8461538461538461	89.0	-75.0	0.1538461538461538	15.0	3.0	2.0	0.8220943009586392	2.794	n/a	stim	s579
300.035	0.896	0.8131166322993242	end_round	0.0	columbia_card_task_fmri	15.0	0.8333333333333334	71.0	-75.0	0.1666666666666666	15.0	4.0	2.0	1.8906805677295184	0.896	3.0	stim	s579
300.937	2.25	n/a	-1.0	n/a	columbia_card_task_fmri	n/a	n/a	-1.0	n/a	n/a	n/a	n/a	n/a	n/a	n/a	n/a	feedback	s579
303.187	0.068	n/a	-1.0	n/a	columbia_card_task_fmri	n/a	n/a	-1.0	n/a	n/a	n/a	n/a	n/a	n/a	n/a	n/a	ITI	s579
303.257	2.35	5.546449965632658	draw_card	0.0	columbia_card_task_fmri	17.0	0.8666666666666667	89.0	-75.0	0.1333333333333333	15.0	1.0	2.0	-0.3756386291405214	2.35	n/a	stim	s579
305.61	1.638	4.670259489442183	draw_card	0.0	columbia_card_task_fmri	17.0	0.8571428571428572	89.0	-75.0	0.1428571428571428	15.0	2.0	2.0	0.543367084090157	1.638	n/a	stim	s579
307.25	2.615	3.65927047845317	draw_card	0.0	columbia_card_task_fmri	17.0	0.8461538461538461	89.0	-75.0	0.1538461538461538	15.0	3.0	2.0	1.5434755141015517	2.615	n/a	stim	s579
309.869	1.29	2.479783298965992	end_round	0.0	columbia_card_task_fmri	17.0	0.8333333333333334	71.0	-75.0	0.1666666666666666	15.0	4.0	2.0	2.6358223923402804	1.29	3.0	stim	s579
311.167	2.25	n/a	-1.0	n/a	columbia_card_task_fmri	n/a	n/a	-1.0	n/a	n/a	n/a	n/a	n/a	n/a	n/a	n/a	feedback	s579
313.417	0.34	n/a	-1.0	n/a	columbia_card_task_fmri	n/a	n/a	-1.0	n/a	n/a	n/a	n/a	n/a	n/a	n/a	n/a	ITI	s579
313.761	2.883	1.1256166322993242	draw_card	0.0	columbia_card_task_fmri	2.0	0.9375	89.0	-25.0	0.0625	16.0	1.0	1.0	-25.074147580989425	2.883	n/a	stim	s579
316.648	1.004	1.013116632299324	draw_card	0.0	columbia_card_task_fmri	2.0	0.9333333333333332	89.0	-25.0	0.0666666666666666	16.0	2.0	1.0	-24.876303977724337	1.004	n/a	stim	s579
317.655	1.583	0.8845452037278958	draw_card	0.0	columbia_card_task_fmri	2.0	0.9285714285714286	89.0	-25.0	0.0714285714285714	16.0	3.0	1.0	-24.659250862373085	1.583	n/a	stim	s579
319.24	1.42	0.7361935553762473	end_round	0.0	columbia_card_task_fmri	2.0	0.9230769230769232	71.0	-25.0	0.0769230769230769	16.0	4.0	1.0	-24.41971902993023	1.42	3.0	stim	s579
320.665	2.25	n/a	-1.0	n/a	columbia_card_task_fmri	n/a	n/a	-1.0	n/a	n/a	n/a	n/a	n/a	n/a	n/a	n/a	feedback	s579
322.915	0.0	n/a	-1.0	n/a	columbia_card_task_fmri	n/a	n/a	-1.0	n/a	n/a	n/a	n/a	n/a	n/a	n/a	n/a	ITI	s579
322.917	2.23	3.313116632299324	draw_card	0.0	columbia_card_task_fmri	9.0	0.9375	89.0	-95.0	0.0625	16.0	1.0	1.0	-6.472673719558301	2.23	n/a	stim	s579
325.15	0.759	2.8797832989659917	draw_card	0.0	columbia_card_task_fmri	9.0	0.9333333333333332	89.0	-95.0	0.0666666666666666	16.0	2.0	1.0	-5.705295926249388	0.759	n/a	stim	s579
325.911	1.429	2.384545203727896	draw_card	0.0	columbia_card_task_fmri	9.0	0.9285714285714286	89.0	-95.0	0.0714285714285714	16.0	3.0	1.0	-4.863758897408022	1.429	n/a	stim	s579
327.343	0.994	1.813116632299324	draw_card	0.0	columbia_card_task_fmri	9.0	0.9230769230769232	89.0	-95.0	0.0769230769230769	16.0	4.0	1.0	-3.935454509542247	0.994	n/a	stim	s579
328.339	1.772	1.146449965632658	draw_card	0.0	columbia_card_task_fmri	9.0	0.9166666666666666	89.0	-95.0	0.0833333333333333	16.0	5.0	1.0	-2.904613622922273	1.772	n/a	stim	s579
330.115	1.966	0.3585711777538691	end_round	0.0	columbia_card_task_fmri	9.0	0.9090909090909092	71.0	-95.0	0.0909090909090909	16.0	6.0	1.0	-1.7512408421055348	1.966	5.0	stim	s579
332.084	2.25	n/a	-1.0	n/a	columbia_card_task_fmri	n/a	n/a	-1.0	n/a	n/a	n/a	n/a	n/a	n/a	n/a	n/a	feedback	s579
334.334	0.0	n/a	-1.0	n/a	columbia_card_task_fmri	n/a	n/a	-1.0	n/a	n/a	n/a	n/a	n/a	n/a	n/a	n/a	ITI	s579
334.338	3.486	4.875616632299324	draw_card	0.0	columbia_card_task_fmri	11.0	0.9375	89.0	-100.0	0.0625	16.0	1.0	1.0	-4.779071015273228	3.486	n/a	stim	s579
337.827	1.122	4.4131166322993245	draw_card	0.0	columbia_card_task_fmri	11.0	0.9333333333333332	89.0	-100.0	0.0666666666666666	16.0	2.0	1.0	-3.959992199380864	1.122	n/a	stim	s579
338.952	1.138	3.884545203727897	draw_card	0.0	columbia_card_task_fmri	11.0	0.9285714285714286	89.0	-100.0	0.0714285714285714	16.0	3.0	1.0	-3.061761103180117	1.138	n/a	stim	s579
340.093	1.849	3.2746550938377865	draw_card	0.0	columbia_card_task_fmri	11.0	0.9230769230769232	89.0	-100.0	0.0769230769230769	16.0	4.0	1.0	-2.070920832820501	1.849	n/a	stim	s579
341.946	1.088	2.563116632299324	end_round	0.0	columbia_card_task_fmri	11.0	0.9166666666666666	71.0	-100.0	0.0833333333333333	16.0	5.0	1.0	-0.970640694744482	1.088	4.0	stim	s579
343.039	2.25	n/a	-1.0	n/a	columbia_card_task_fmri	n/a	n/a	-1.0	n/a	n/a	n/a	n/a	n/a	n/a	n/a	n/a	feedback	s579
345.289	0.272	n/a	-1.0	n/a	columbia_card_task_fmri	n/a	n/a	-1.0	n/a	n/a	n/a	n/a	n/a	n/a	n/a	n/a	ITI	s579
345.565	3.16	5.438116632299324	draw_card	1.0	columbia_card_task_fmri	16.0	0.875	89.0	-75.0	0.125	16.0	1.0	2.0	-1.553790086029572	3.16	1.0	stim	s579
348.729	2.25	n/a	-1.0	n/a	columbia_card_task_fmri	n/a	n/a	-1.0	n/a	n/a	n/a	n/a	n/a	n/a	n/a	n/a	feedback	s579
350.979	0.204	n/a	-1.0	n/a	columbia_card_task_fmri	n/a	n/a	-1.0	n/a	n/a	n/a	n/a	n/a	n/a	n/a	n/a	ITI	s579
351.185	1.691	5.688116632299324	draw_card	0.0	columbia_card_task_fmri	17.0	0.875	89.0	-80.0	0.125	16.0	1.0	2.0	0.4298443007685648	1.691	n/a	stim	s579
352.88	0.69	4.879783298965992	draw_card	0.0	columbia_card_task_fmri	17.0	0.8666666666666667	89.0	-80.0	0.1333333333333333	16.0	2.0	2.0	1.3234899368942123	0.69	n/a	stim	s579
353.574	2.561	3.95597377515647	draw_card	0.0	columbia_card_task_fmri	17.0	0.8571428571428572	89.0	-80.0	0.1428571428571428	16.0	3.0	2.0	2.2924735468321487	2.561	n/a	stim	s579
356.138	0.755	2.8900397092224006	end_round	0.0	columbia_card_task_fmri	17.0	0.8461538461538461	71.0	-80.0	0.1538461538461538	16.0	4.0	2.0	3.3469684393803973	0.755	3.0	stim	s579
356.901	2.25	n/a	-1.0	n/a	columbia_card_task_fmri	n/a	n/a	-1.0	n/a	n/a	n/a	n/a	n/a	n/a	n/a	n/a	feedback	s579
359.151	0.0	n/a	-1.0	n/a	columbia_card_task_fmri	n/a	n/a	-1.0	n/a	n/a	n/a	n/a	n/a	n/a	n/a	n/a	ITI	s579
370.165	3.907	-0.0202167010340079	draw_card	0.0	columbia_card_task_fmri	13.0	0.8333333333333334	89.0	-70.0	0.1666666666666666	6.0	1.0	1.0	-0.7172345774586084	3.907	n/a	stim	s579
374.075	1.596	-2.786883367700676	draw_card	0.0	columbia_card_task_fmri	13.0	0.8	89.0	-70.0	0.2	6.0	2.0	1.0	1.5497620975225246	1.596	n/a	stim	s579
375.674	1.553	-6.936883367700676	end_round	0.0	columbia_card_task_fmri	13.0	0.75	71.0	-70.0	0.25	6.0	3.0	1.0	4.289057537266508	1.553	2.0	stim	s579
377.236	2.25	n/a	-1.0	n/a	columbia_card_task_fmri	n/a	n/a	-1.0	n/a	n/a	n/a	n/a	n/a	n/a	n/a	n/a	feedback	s579
379.486	0.204	n/a	-1.0	n/a	columbia_card_task_fmri	n/a	n/a	-1.0	n/a	n/a	n/a	n/a	n/a	n/a	n/a	n/a	ITI	s579
379.693	3.428	-0.0202167010340079	draw_card	1.0	columbia_card_task_fmri	15.0	0.8333333333333334	89.0	-80.0	0.1666666666666666	6.0	1.0	1.0	3.7535520303658094	3.428	1.0	stim	s579
383.125	2.25	n/a	-1.0	n/a	columbia_card_task_fmri	n/a	n/a	-1.0	n/a	n/a	n/a	n/a	n/a	n/a	n/a	n/a	feedback	s579
385.375	0.204	n/a	-1.0	n/a	columbia_card_task_fmri	n/a	n/a	-1.0	n/a	n/a	n/a	n/a	n/a	n/a	n/a	n/a	ITI	s579
385.582	1.215	1.646449965632658	draw_card	1.0	columbia_card_task_fmri	16.0	0.8333333333333334	89.0	-75.0	0.1666666666666666	6.0	1.0	1.0	2.263250303795367	1.215	1.0	stim	s579
386.806	2.25	n/a	-1.0	n/a	columbia_card_task_fmri	n/a	n/a	-1.0	n/a	n/a	n/a	n/a	n/a	n/a	n/a	n/a	feedback	s579
389.056	0.272	n/a	-1.0	n/a	columbia_card_task_fmri	n/a	n/a	-1.0	n/a	n/a	n/a	n/a	n/a	n/a	n/a	n/a	ITI	s579
389.331	2.945	2.813116632299324	end_round	0.0	columbia_card_task_fmri	21.0	0.75	71.0	-55.0	0.25	8.0	1.0	2.0	1.2588154592373757	2.945	0.0	stim	s579
392.28	2.25	n/a	-1.0	n/a	columbia_card_task_fmri	n/a	n/a	-1.0	n/a	n/a	n/a	n/a	n/a	n/a	n/a	n/a	feedback	s579
394.53	0.204	n/a	-1.0	n/a	columbia_card_task_fmri	n/a	n/a	-1.0	n/a	n/a	n/a	n/a	n/a	n/a	n/a	n/a	ITI	s579
394.737	2.708	4.063116632299324	end_round	0.0	columbia_card_task_fmri	26.0	0.75	71.0	-65.0	0.25	8.0	1.0	2.0	7.752350814213756	2.708	0.0	stim	s579
397.449	2.25	n/a	-1.0	n/a	columbia_card_task_fmri	n/a	n/a	-1.0	n/a	n/a	n/a	n/a	n/a	n/a	n/a	n/a	feedback	s579
399.699	0.408	n/a	-1.0	n/a	columbia_card_task_fmri	n/a	n/a	-1.0	n/a	n/a	n/a	n/a	n/a	n/a	n/a	n/a	ITI	s579
400.111	2.498	-0.8535500343673419	end_round	0.0	columbia_card_task_fmri	15.0	0.7777777777777778	71.0	-60.0	0.2222222222222222	9.0	1.0	2.0	-0.4691150721872752	2.498	0.0	stim	s579
402.612	2.25	n/a	-1.0	n/a	columbia_card_task_fmri	n/a	n/a	-1.0	n/a	n/a	n/a	n/a	n/a	n/a	n/a	n/a	feedback	s579
404.862	0.136	n/a	-1.0	n/a	columbia_card_task_fmri	n/a	n/a	-1.0	n/a	n/a	n/a	n/a	n/a	n/a	n/a	n/a	ITI	s579
405.001	1.691	3.513116632299325	draw_card	0.0	columbia_card_task_fmri	13.0	0.9	89.0	-90.0	0.1	10.0	1.0	1.0	-0.7494971096859828	1.691	n/a	stim	s579
406.696	1.064	2.3686721878548798	draw_card	0.0	columbia_card_task_fmri	13.0	0.8888888888888888	89.0	-90.0	0.1111111111111111	10.0	2.0	1.0	0.7197944574075947	1.064	n/a	stim	s579
407.762	2.496	0.9381166322993242	draw_card	0.0	columbia_card_task_fmri	13.0	0.875	89.0	-90.0	0.125	10.0	3.0	1.0	2.413557769632199	2.496	n/a	stim	s579
410.262	1.267	-0.9011690819863876	end_round	0.0	columbia_card_task_fmri	13.0	0.8571428571428572	71.0	-90.0	0.1428571428571428	10.0	4.0	1.0	4.391469077555826	1.267	3.0	stim	s579
411.533	2.25	n/a	-1.0	n/a	columbia_card_task_fmri	n/a	n/a	-1.0	n/a	n/a	n/a	n/a	n/a	n/a	n/a	n/a	feedback	s579
413.783	0.272	n/a	-1.0	n/a	columbia_card_task_fmri	n/a	n/a	-1.0	n/a	n/a	n/a	n/a	n/a	n/a	n/a	n/a	ITI	s579
414.058	1.763	4.813116632299324	draw_card	0.0	columbia_card_task_fmri	15.0	0.9	89.0	-95.0	0.1	10.0	1.0	1.0	1.3498224169423736	1.763	n/a	stim	s579
415.824	1.161	3.5908944100771008	draw_card	1.0	columbia_card_task_fmri	15.0	0.8888888888888888	89.0	-95.0	0.1111111111111111	10.0	2.0	1.0	2.9190326171366223	1.161	2.0	stim	s579
416.99	2.25	n/a	-1.0	n/a	columbia_card_task_fmri	n/a	n/a	-1.0	n/a	n/a	n/a	n/a	n/a	n/a	n/a	n/a	feedback	s579
419.24	0.34	n/a	-1.0	n/a	columbia_card_task_fmri	n/a	n/a	-1.0	n/a	n/a	n/a	n/a	n/a	n/a	n/a	n/a	ITI	s579
419.583	1.835	0.6131166322993249	draw_card	0.0	columbia_card_task_fmri	16.0	0.8	89.0	-65.0	0.2	10.0	1.0	2.0	0.7500078412274291	1.835	n/a	stim	s579
421.421	1.317	-1.186883367700674	end_round	0.0	columbia_card_task_fmri	16.0	0.7777777777777778	71.0	-65.0	0.2222222222222222	10.0	2.0	2.0	2.024538214486469	1.317	1.0	stim	s579
422.747	2.25	n/a	-1.0	n/a	columbia_card_task_fmri	n/a	n/a	-1.0	n/a	n/a	n/a	n/a	n/a	n/a	n/a	n/a	feedback	s579
424.997	0.136	n/a	-1.0	n/a	columbia_card_task_fmri	n/a	n/a	-1.0	n/a	n/a	n/a	n/a	n/a	n/a	n/a	n/a	ITI	s579
425.136	1.747	-0.6868833677006758	draw_card	0.0	columbia_card_task_fmri	7.0	0.9166666666666666	89.0	-95.0	0.0833333333333333	12.0	1.0	1.0	-3.457159053761988	1.747	n/a	stim	s579
426.885	1.925	-1.4596106404279492	draw_card	0.0	columbia_card_task_fmri	7.0	0.9090909090909092	89.0	-95.0	0.0909090909090909	12.0	2.0	1.0	-2.325983736457971	1.925	n/a	stim	s579
428.814	1.386	-2.386883367700676	draw_card	0.0	columbia_card_task_fmri	7.0	0.9	89.0	-95.0	0.1	12.0	3.0	1.0	-1.0493922787770416	1.386	n/a	stim	s579
430.202	1.524	-3.52021670103401	end_round	0.0	columbia_card_task_fmri	7.0	0.8888888888888888	71.0	-95.0	0.1111111111111111	12.0	4.0	1.0	0.4056248525081543	1.524	3.0	stim	s579
431.732	2.25	n/a	-1.0	n/a	columbia_card_task_fmri	n/a	n/a	-1.0	n/a	n/a	n/a	n/a	n/a	n/a	n/a	n/a	feedback	s579
433.982	0.34	n/a	-1.0	n/a	columbia_card_task_fmri	n/a	n/a	-1.0	n/a	n/a	n/a	n/a	n/a	n/a	n/a	n/a	ITI	s579
434.326	1.771	-0.0202167010340079	draw_card	0.0	columbia_card_task_fmri	14.0	0.8333333333333334	89.0	-75.0	0.1666666666666666	12.0	1.0	2.0	1.5181132633929335	1.771	n/a	stim	s579
436.101	0.595	-1.3687015495188593	draw_card	0.0	columbia_card_task_fmri	14.0	0.8181818181818181	89.0	-75.0	0.1818181818181818	12.0	2.0	2.0	2.676255486971826	0.595	n/a	stim	s579
436.699	1.146	-2.986883367700675	draw_card	0.0	columbia_card_task_fmri	14.0	0.8	89.0	-75.0	0.2	12.0	3.0	2.0	3.949091106980724	1.146	n/a	stim	s579
437.848	0.768	-4.964661145478451	draw_card	0.0	columbia_card_task_fmri	14.0	0.7777777777777778	89.0	-75.0	0.2222222222222222	12.0	4.0	2.0	5.349573836261449	0.768	n/a	stim	s579
438.62	1.242	-7.436883367700676	end_round	0.0	columbia_card_task_fmri	14.0	0.75	71.0	-75.0	0.25	12.0	5.0	2.0	6.886513875922553	1.242	4.0	stim	s579
439.866	2.25	n/a	-1.0	n/a	columbia_card_task_fmri	n/a	n/a	-1.0	n/a	n/a	n/a	n/a	n/a	n/a	n/a	n/a	feedback	s579
442.116	0.068	n/a	-1.0	n/a	columbia_card_task_fmri	n/a	n/a	-1.0	n/a	n/a	n/a	n/a	n/a	n/a	n/a	n/a	ITI	s579
442.188	2.997	1.646449965632658	draw_card	0.0	columbia_card_task_fmri	15.0	0.8333333333333334	89.0	-70.0	0.1666666666666666	12.0	1.0	2.0	0.0278700787707215	2.997	n/a	stim	s579
445.189	0.619	0.3585711777538674	draw_card	0.0	columbia_card_task_fmri	15.0	0.8181818181818181	89.0	-70.0	0.1818181818181818	12.0	2.0	2.0	1.1339300485519814	0.619	n/a	stim	s579
445.812	0.734	-1.1868833677006758	draw_card	0.0	columbia_card_task_fmri	15.0	0.8	89.0	-70.0	0.2	12.0	3.0	2.0	2.349527913147924	0.734	n/a	stim	s579
446.55	0.656	-3.0757722565895653	draw_card	0.0	columbia_card_task_fmri	15.0	0.7777777777777778	89.0	-70.0	0.2222222222222222	12.0	4.0	2.0	3.687035279379685	0.656	n/a	stim	s579
447.21	0.582	-5.436883367700676	draw_card	0.0	columbia_card_task_fmri	15.0	0.75	89.0	-70.0	0.25	12.0	5.0	2.0	5.154866596858113	0.582	n/a	stim	s579
447.796	0.694	-8.47259765341496	draw_card	0.0	columbia_card_task_fmri	15.0	0.7142857142857143	89.0	-70.0	0.2857142857142857	12.0	6.0	2.0	6.747500331787208	0.694	n/a	stim	s579
448.493	0.625	-12.520216701034006	draw_card	1.0	columbia_card_task_fmri	15.0	0.6666666666666667	89.0	-70.0	0.3333333333333333	12.0	7.0	2.0	8.417439972023288	0.625	7.0	stim	s579
449.123	2.25	n/a	-1.0	n/a	columbia_card_task_fmri	n/a	n/a	-1.0	n/a	n/a	n/a	n/a	n/a	n/a	n/a	n/a	feedback	s579
451.373	0.0	n/a	-1.0	n/a	columbia_card_task_fmri	n/a	n/a	-1.0	n/a	n/a	n/a	n/a	n/a	n/a	n/a	n/a	ITI	s579
451.376	2.169	-0.3868833677006751	draw_card	0.0	columbia_card_task_fmri	16.0	0.8	89.0	-70.0	0.2	15.0	1.0	3.0	2.749414903833788	2.169	n/a	stim	s579
453.548	0.575	-1.6154547962721046	draw_card	0.0	columbia_card_task_fmri	16.0	0.7857142857142857	89.0	-70.0	0.2142857142857142	15.0	2.0	3.0	3.6372008550233232	0.575	n/a	stim	s579
454.126	0.572	-3.0330372138545227	draw_card	0.0	columbia_card_task_fmri	16.0	0.7692307692307692	89.0	-70.0	0.2307692307692307	15.0	3.0	3.0	4.582882505698187	0.572	n/a	stim	s579
454.702	0.45	-4.686883367700676	draw_card	0.0	columbia_card_task_fmri	16.0	0.75	89.0	-70.0	0.25	15.0	4.0	3.0	5.5877748987289095	0.45	n/a	stim	s579
455.156	0.466	-6.641428822246129	draw_card	0.0	columbia_card_task_fmri	16.0	0.7272727272727273	89.0	-70.0	0.2727272727272727	15.0	5.0	3.0	6.6495488143606565	0.466	n/a	stim	s579
455.625	0.784	-8.986883367700676	end_round	0.0	columbia_card_task_fmri	16.0	0.7	71.0	-70.0	0.3	15.0	6.0	3.0	7.758344642838864	0.784	5.0	stim	s579
456.418	2.25	n/a	-1.0	n/a	columbia_card_task_fmri	n/a	n/a	-1.0	n/a	n/a	n/a	n/a	n/a	n/a	n/a	n/a	feedback	s579
458.668	0.204	n/a	-1.0	n/a	columbia_card_task_fmri	n/a	n/a	-1.0	n/a	n/a	n/a	n/a	n/a	n/a	n/a	n/a	ITI	s579
458.876	1.742	0.0006166322993241	draw_card	0.0	columbia_card_task_fmri	14.0	0.8125	89.0	-65.0	0.1875	16.0	1.0	3.0	-0.8147968402122814	1.742	n/a	stim	s579
460.622	0.433	-0.9868833677006748	draw_card	0.0	columbia_card_task_fmri	14.0	0.8	89.0	-65.0	0.2	16.0	2.0	3.0	-0.049733978373613	0.433	n/a	stim	s579
461.059	0.402	-2.115454796272103	draw_card	0.0	columbia_card_task_fmri	14.0	0.7857142857142857	89.0	-65.0	0.2142857142857142	16.0	3.0	3.0	0.7657492499042604	0.402	n/a	stim	s579
461.465	0.389	-3.417652598469908	draw_card	0.0	columbia_card_task_fmri	14.0	0.7692307692307692	89.0	-65.0	0.2307692307692307	16.0	4.0	3.0	1.6344152716099811	0.389	n/a	stim	s579
461.858	0.404	-4.936883367700676	draw_card	0.0	columbia_card_task_fmri	14.0	0.75	89.0	-65.0	0.25	16.0	5.0	3.0	2.557472267124808	0.404	n/a	stim	s579
462.266	0.521	-6.732337913155221	end_round	0.0	columbia_card_task_fmri	14.0	0.7272727272727273	71.0	-65.0	0.2727272727272727	16.0	6.0	3.0	3.532780910246288	0.521	5.0	stim	s579
462.792	2.25	n/a	-1.0	n/a	columbia_card_task_fmri	n/a	n/a	-1.0	n/a	n/a	n/a	n/a	n/a	n/a	n/a	n/a	feedback	s579
465.042	1.02	n/a	-1.0	n/a	columbia_card_task_fmri	n/a	n/a	-1.0	n/a	n/a	n/a	n/a	n/a	n/a	n/a	n/a	ITI	s579
466.066	1.679	-0.2493833677006758	draw_card	1.0	columbia_card_task_fmri	16.0	0.8125	89.0	-75.0	0.1875	16.0	1.0	3.0	3.8675385411854606	1.679	1.0	stim	s579
467.754	2.25	n/a	-1.0	n/a	columbia_card_task_fmri	n/a	n/a	-1.0	n/a	n/a	n/a	n/a	n/a	n/a	n/a	n/a	feedback	s579
470.004	0.0	n/a	-1.0	n/a	columbia_card_task_fmri	n/a	n/a	-1.0	n/a	n/a	n/a	n/a	n/a	n/a	n/a	n/a	ITI	s579
470.008	1.295	4.013116632299325	draw_card	0.0	columbia_card_task_fmri	16.0	0.8666666666666667	89.0	-80.0	0.1333333333333333	15.0	1.0	2.0	0.9836596874462132	1.295	n/a	stim	s579
471.306	0.39	3.098830918013612	draw_card	1.0	columbia_card_task_fmri	16.0	0.8571428571428572	89.0	-80.0	0.1428571428571428	15.0	2.0	2.0	1.94264784734294	0.39	2.0	stim	s579
471.706	2.25	n/a	-1.0	n/a	columbia_card_task_fmri	n/a	n/a	-1.0	n/a	n/a	n/a	n/a	n/a	n/a	n/a	n/a	feedback	s579
473.956	0.0	n/a	-1.0	n/a	columbia_card_task_fmri	n/a	n/a	-1.0	n/a	n/a	n/a	n/a	n/a	n/a	n/a	n/a	ITI	s579
473.96	1.053	4.879783298965992	draw_card	0.0	columbia_card_task_fmri	17.0	0.8666666666666667	89.0	-80.0	0.1333333333333333	15.0	1.0	2.0	1.3234899368942123	1.053	n/a	stim	s579
475.018	0.502	3.95597377515647	draw_card	0.0	columbia_card_task_fmri	17.0	0.8571428571428572	89.0	-80.0	0.1428571428571428	15.0	2.0	2.0	2.2924735468321487	0.502	n/a	stim	s579
475.524	0.498	2.8900397092224006	draw_card	0.0	columbia_card_task_fmri	17.0	0.8461538461538461	89.0	-80.0	0.1538461538461538	15.0	3.0	2.0	3.3469684393803973	0.498	n/a	stim	s579
476.025	0.461	1.64644996563266	draw_card	0.0	columbia_card_task_fmri	17.0	0.8333333333333334	89.0	-80.0	0.1666666666666666	15.0	4.0	2.0	4.498715577104207	0.461	n/a	stim	s579
476.49	0.487	0.1767529959356857	end_round	0.0	columbia_card_task_fmri	17.0	0.8181818181818181	71.0	-80.0	0.1818181818181818	15.0	5.0	2.0	5.761018401873038	0.487	4.0	stim	s579
476.982	2.25	n/a	-1.0	n/a	columbia_card_task_fmri	n/a	n/a	-1.0	n/a	n/a	n/a	n/a	n/a	n/a	n/a	n/a	feedback	s579
479.232	0.068	n/a	-1.0	n/a	columbia_card_task_fmri	n/a	n/a	-1.0	n/a	n/a	n/a	n/a	n/a	n/a	n/a	n/a	ITI	s579
479.304	2.434	0.8131166322993242	draw_card	0.0	columbia_card_task_fmri	1.0	0.9375	89.0	-15.0	0.0625	16.0	1.0	1.0	-27.70277543766361	2.434	n/a	stim	s579
481.743	0.376	0.7464499656326575	draw_card	0.0	columbia_card_task_fmri	1.0	0.9333333333333332	89.0	-15.0	0.0666666666666666	16.0	2.0	1.0	-27.587105410897344	0.376	n/a	stim	s579
482.124	0.398	0.6702594894421814	draw_card	0.0	columbia_card_task_fmri	1.0	0.9285714285714286	89.0	-15.0	0.0714285714285714	16.0	3.0	1.0	-27.460104274835157	0.398	n/a	stim	s579
482.525	0.33	0.5823474015300933	draw_card	0.0	columbia_card_task_fmri	1.0	0.9230769230769232	89.0	-15.0	0.0769230769230769	16.0	4.0	1.0	-27.3198395487331	0.33	n/a	stim	s579
482.86	0.546	0.4797832989659908	draw_card	0.0	columbia_card_task_fmri	1.0	0.9166666666666666	89.0	-15.0	0.0833333333333333	16.0	5.0	1.0	-27.163893560273262	0.546	n/a	stim	s579
483.411	0.423	0.3585711777538695	draw_card	0.0	columbia_card_task_fmri	1.0	0.9090909090909092	89.0	-15.0	0.0909090909090909	16.0	6.0	1.0	-26.989199778699355	0.423	n/a	stim	s579
483.839	0.439	0.2131166322993242	draw_card	0.0	columbia_card_task_fmri	1.0	0.9	89.0	-15.0	0.1	16.0	7.0	1.0	-26.791810040957888	0.439	n/a	stim	s579
484.283	0.454	0.0353388545215465	draw_card	0.0	columbia_card_task_fmri	1.0	0.8888888888888888	89.0	-15.0	0.1111111111111111	16.0	8.0	1.0	-26.566559427140916	0.454	n/a	stim	s579
484.741	0.49	-0.1868833677006758	draw_card	0.0	columbia_card_task_fmri	1.0	0.875	89.0	-15.0	0.125	16.0	9.0	1.0	-26.30658187892478	0.49	n/a	stim	s579
485.234	0.423	-0.4725976534149614	draw_card	1.0	columbia_card_task_fmri	1.0	0.8571428571428572	89.0	-15.0	0.1428571428571428	16.0	10.0	1.0	-26.00262369549858	0.423	10.0	stim	s579
485.662	2.25	n/a	-1.0	n/a	columbia_card_task_fmri	n/a	n/a	-1.0	n/a	n/a	n/a	n/a	n/a	n/a	n/a	n/a	feedback	s579
487.912	0.476	n/a	-1.0	n/a	columbia_card_task_fmri	n/a	n/a	-1.0	n/a	n/a	n/a	n/a	n/a	n/a	n/a	n/a	ITI	s579
488.391	2.11	3.938116632299324	draw_card	0.0	columbia_card_task_fmri	10.0	0.9375	89.0	-100.0	0.0625	16.0	1.0	1.0	-5.021020702290844	2.11	n/a	stim	s579
490.505	0.39	3.479783298965991	draw_card	0.0	columbia_card_task_fmri	10.0	0.9333333333333332	89.0	-100.0	0.0666666666666666	16.0	2.0	1.0	-4.209327556595135	0.39	n/a	stim	s579
490.899	0.426	2.955973775156468	draw_card	0.0	columbia_card_task_fmri	10.0	0.9285714285714286	89.0	-100.0	0.0714285714285714	16.0	3.0	1.0	-3.319195416813802	0.426	n/a	stim	s579
491.329	0.445	2.351578170760863	draw_card	0.0	columbia_card_task_fmri	10.0	0.9230769230769232	89.0	-100.0	0.0769230769230769	16.0	4.0	1.0	-2.3372886414513303	0.445	n/a	stim	s579
491.778	0.447	1.646449965632658	draw_card	0.0	columbia_card_task_fmri	10.0	0.9166666666666666	89.0	-100.0	0.0833333333333333	16.0	5.0	1.0	-1.246928186857744	0.447	n/a	stim	s579
492.23	0.6	0.8131166322993224	end_round	0.0	columbia_card_task_fmri	10.0	0.9090909090909092	71.0	-100.0	0.0909090909090909	16.0	6.0	1.0	-0.0269649078536495	0.6	5.0	stim	s579
492.835	2.25	n/a	-1.0	n/a	columbia_card_task_fmri	n/a	n/a	-1.0	n/a	n/a	n/a	n/a	n/a	n/a	n/a	n/a	feedback	s579
495.085	0.136	n/a	-1.0	n/a	columbia_card_task_fmri	n/a	n/a	-1.0	n/a	n/a	n/a	n/a	n/a	n/a	n/a	n/a	ITI	s579
495.224	1.999	4.563116632299324	draw_card	1.0	columbia_card_task_fmri	15.0	0.875	89.0	-75.0	0.125	16.0	1.0	2.0	-1.8843870188472671	1.999	1.0	stim	s579
497.233	2.25	n/a	-1.0	n/a	columbia_card_task_fmri	n/a	n/a	-1.0	n/a	n/a	n/a	n/a	n/a	n/a	n/a	n/a	feedback	s579
499.483	0.068	n/a	-1.0	n/a	columbia_card_task_fmri	n/a	n/a	-1.0	n/a	n/a	n/a	n/a	n/a	n/a	n/a	n/a	ITI	s579
499.555	1.321	4.813116632299324	draw_card	0.0	columbia_card_task_fmri	16.0	0.875	89.0	-80.0	0.125	16.0	1.0	2.0	0.0992326776419076	1.321	n/a	stim	s579
500.88	0.434	4.013116632299325	draw_card	0.0	columbia_card_task_fmri	16.0	0.8666666666666667	89.0	-80.0	0.1333333333333333	16.0	2.0	2.0	0.9836596874462132	0.434	n/a	stim	s579
501.318	0.486	3.098830918013612	draw_card	0.0	columbia_card_task_fmri	16.0	0.8571428571428572	89.0	-80.0	0.1428571428571428	16.0	3.0	2.0	1.94264784734294	0.486	n/a	stim	s579
501.808	0.461	2.043885863068554	draw_card	0.0	columbia_card_task_fmri	16.0	0.8461538461538461	89.0	-80.0	0.1538461538461538	16.0	4.0	2.0	2.9862655799757434	0.461	n/a	stim	s579
502.273	0.549	0.813116632299326	end_round	0.0	columbia_card_task_fmri	16.0	0.8333333333333334	71.0	-80.0	0.1666666666666666	16.0	5.0	2.0	4.126132801801475	0.549	4.0	stim	s579
502.832	2.25	n/a	-1.0	n/a	columbia_card_task_fmri	n/a	n/a	-1.0	n/a	n/a	n/a	n/a	n/a	n/a	n/a	n/a	feedback	s579
505.082	0.0	n/a	-1.0	n/a	columbia_card_task_fmri	n/a	n/a	-1.0	n/a	n/a	n/a	n/a	n/a	n/a	n/a	n/a	ITI	s579
505.085	3.638	2.000616632299324	draw_card	1.0	columbia_card_task_fmri	4.0	0.6875	89.0	-5.0	0.3125	16.0	1.0	5.0	-27.41007568977896	3.638	1.0	stim	s579
508.731	2.25	n/a	-1.0	n/a	columbia_card_task_fmri	n/a	n/a	-1.0	n/a	n/a	n/a	n/a	n/a	n/a	n/a	n/a	feedback	s579
510.981	0.0	n/a	-1.0	n/a	columbia_card_task_fmri	n/a	n/a	-1.0	n/a	n/a	n/a	n/a	n/a	n/a	n/a	n/a	ITI	s579
510.985	1.591	-0.8535500343673401	draw_card	0.0	columbia_card_task_fmri	14.0	0.8333333333333334	89.0	-80.0	0.1666666666666666	6.0	1.0	1.0	3.3809733267165143	1.591	n/a	stim	s579
512.58	1.157	-3.986883367700675	draw_card	0.0	columbia_card_task_fmri	14.0	0.8	89.0	-80.0	0.2	6.0	2.0	1.0	5.948597357287866	1.157	n/a	stim	s579
513.741	0.838	-8.686883367700675	end_round	0.0	columbia_card_task_fmri	14.0	0.75	71.0	-80.0	0.25	6.0	3.0	1.0	9.051121254158332	0.838	2.0	stim	s579
514.588	2.25	n/a	-1.0	n/a	columbia_card_task_fmri	n/a	n/a	-1.0	n/a	n/a	n/a	n/a	n/a	n/a	n/a	n/a	feedback	s579
516.838	0.204	n/a	-1.0	n/a	columbia_card_task_fmri	n/a	n/a	-1.0	n/a	n/a	n/a	n/a	n/a	n/a	n/a	n/a	ITI	s579
517.045	3.041	0.8131166322993242	draw_card	0.0	columbia_card_task_fmri	15.0	0.8333333333333334	89.0	-75.0	0.1666666666666666	6.0	1.0	1.0	1.8906805677295184	3.041	n/a	stim	s579
520.091	0.477	-2.186883367700676	draw_card	0.0	columbia_card_task_fmri	15.0	0.8	89.0	-75.0	0.2	6.0	2.0	1.0	4.348987969816953	0.477	n/a	stim	s579
520.572	0.837	-6.686883367700676	draw_card	0.0	columbia_card_task_fmri	15.0	0.75	89.0	-75.0	0.25	6.0	3.0	1.0	7.319431298379378	0.837	n/a	stim	s579
521.413	0.915	-14.186883367700672	end_round	0.0	columbia_card_task_fmri	15.0	0.6666666666666667	71.0	-75.0	0.3333333333333333	6.0	4.0	1.0	10.774004366861512	0.915	3.0	stim	s579
522.334	2.25	n/a	-1.0	n/a	columbia_card_task_fmri	n/a	n/a	-1.0	n/a	n/a	n/a	n/a	n/a	n/a	n/a	n/a	feedback	s579
524.584	0.204	n/a	-1.0	n/a	columbia_card_task_fmri	n/a	n/a	-1.0	n/a	n/a	n/a	n/a	n/a	n/a	n/a	n/a	ITI	s579
524.793	3.087	2.479783298965992	draw_card	0.0	columbia_card_task_fmri	16.0	0.8333333333333334	89.0	-70.0	0.1666666666666666	6.0	1.0	1.0	0.4004267885088808	3.087	n/a	stim	s579
527.884	0.519	-0.3868833677006751	draw_card	0.0	columbia_card_task_fmri	16.0	0.8	89.0	-70.0	0.2	6.0	2.0	1.0	2.749414903833788	0.519	n/a	stim	s579
528.407	0.674	-4.686883367700676	end_round	0.0	columbia_card_task_fmri	16.0	0.75	71.0	-70.0	0.25	6.0	3.0	1.0	5.5877748987289095	0.674	2.0	stim	s579
529.089	2.25	n/a	-1.0	n/a	columbia_card_task_fmri	n/a	n/a	-1.0	n/a	n/a	n/a	n/a	n/a	n/a	n/a	n/a	feedback	s579
531.339	0.272	n/a	-1.0	n/a	columbia_card_task_fmri	n/a	n/a	-1.0	n/a	n/a	n/a	n/a	n/a	n/a	n/a	n/a	ITI	s579
531.615	2.072	3.063116632299324	draw_card	0.0	columbia_card_task_fmri	23.0	0.75	89.0	-60.0	0.25	8.0	1.0	2.0	4.289057537266508	2.072	n/a	stim	s579
533.692	0.61	0.0988309180136124	draw_card	0.0	columbia_card_task_fmri	23.0	0.7142857142857143	89.0	-60.0	0.2857142857142857	8.0	2.0	2.0	5.844199804236929	0.61	n/a	stim	s579
534.307	0.691	-3.85355003436734	end_round	0.0	columbia_card_task_fmri	23.0	0.6666666666666667	71.0	-60.0	0.3333333333333333	8.0	3.0	2.0	7.474829666908988	0.691	2.0	stim	s579
535.007	2.25	n/a	-1.0	n/a	columbia_card_task_fmri	n/a	n/a	-1.0	n/a	n/a	n/a	n/a	n/a	n/a	n/a	n/a	feedback	s579
537.257	0.136	n/a	-1.0	n/a	columbia_card_task_fmri	n/a	n/a	-1.0	n/a	n/a	n/a	n/a	n/a	n/a	n/a	n/a	ITI	s579
537.397	1.472	3.563116632299324	draw_card	0.0	columbia_card_task_fmri	27.0	0.75	89.0	-70.0	0.25	8.0	1.0	2.0	10.349908245942416	1.472	n/a	stim	s579
538.874	0.441	0.0988309180136088	draw_card	0.0	columbia_card_task_fmri	27.0	0.7142857142857143	89.0	-70.0	0.2857142857142857	8.0	2.0	2.0	12.167483028723892	0.441	n/a	stim	s579
539.319	0.528	-4.520216701034005	draw_card	0.0	columbia_card_task_fmri	27.0	0.6666666666666667	89.0	-70.0	0.3333333333333333	8.0	3.0	2.0	14.073273859376547	0.528	n/a	stim	s579
539.851	0.803	-10.986883367700676	draw_card	0.0	columbia_card_task_fmri	27.0	0.6	89.0	-70.0	0.4	8.0	4.0	2.0	15.8668635033252	0.803	n/a	stim	s579
540.659	0.845	-20.68688336770068	end_round	0.0	columbia_card_task_fmri	27.0	0.5	71.0	-70.0	0.5	8.0	5.0	2.0	16.84662197128396	0.845	4.0	stim	s579
541.514	2.25	n/a	-1.0	n/a	columbia_card_task_fmri	n/a	n/a	-1.0	n/a	n/a	n/a	n/a	n/a	n/a	n/a	n/a	feedback	s579
543.764	0.204	n/a	-1.0	n/a	columbia_card_task_fmri	n/a	n/a	-1.0	n/a	n/a	n/a	n/a	n/a	n/a	n/a	n/a	ITI	s579
543.973	1.529	-1.186883367700674	draw_card	0.0	columbia_card_task_fmri	16.0	0.7777777777777778	89.0	-65.0	0.2222222222222222	9.0	1.0	2.0	2.024538214486469	1.529	n/a	stim	s579
545.507	0.401	-3.436883367700676	draw_card	0.0	columbia_card_task_fmri	16.0	0.75	89.0	-65.0	0.25	9.0	2.0	2.0	3.423259157136492	0.401	n/a	stim	s579
545.912	0.431	-6.329740510557817	draw_card	0.0	columbia_card_task_fmri	16.0	0.7142857142857143	89.0	-65.0	0.2857142857142857	9.0	3.0	2.0	4.94090951374401	0.431	n/a	stim	s579
546.347	0.556	-10.186883367700672	draw_card	0.0	columbia_card_task_fmri	16.0	0.6666666666666667	89.0	-65.0	0.3333333333333333	9.0	4.0	2.0	6.532229172683927	0.556	n/a	stim	s579
546.908	1.039	-15.586883367700674	end_round	0.0	columbia_card_task_fmri	16.0	0.6	71.0	-65.0	0.4	9.0	5.0	2.0	8.029870108592405	1.039	4.0	stim	s579
547.954	2.25	n/a	-1.0	n/a	columbia_card_task_fmri	n/a	n/a	-1.0	n/a	n/a	n/a	n/a	n/a	n/a	n/a	n/a	feedback	s579
550.204	0.272	n/a	-1.0	n/a	columbia_card_task_fmri	n/a	n/a	-1.0	n/a	n/a	n/a	n/a	n/a	n/a	n/a	n/a	ITI	s579
550.48	2.488	4.013116632299325	end_round	0.0	columbia_card_task_fmri	13.0	0.9	71.0	-85.0	0.1	10.0	1.0	1.0	-2.248951572984541	2.488	0.0	stim	s579
552.973	2.25	n/a	-1.0	n/a	columbia_card_task_fmri	n/a	n/a	-1.0	n/a	n/a	n/a	n/a	n/a	n/a	n/a	n/a	feedback	s579
555.223	0.272	n/a	-1.0	n/a	columbia_card_task_fmri	n/a	n/a	-1.0	n/a	n/a	n/a	n/a	n/a	n/a	n/a	n/a	ITI	s579
555.499	1.092	-0.9868833677006748	draw_card	1.0	columbia_card_task_fmri	14.0	0.8	89.0	-65.0	0.2	10.0	1.0	2.0	-0.049733978373613	1.092	1.0	stim	s579
556.601	2.25	n/a	-1.0	n/a	columbia_card_task_fmri	n/a	n/a	-1.0	n/a	n/a	n/a	n/a	n/a	n/a	n/a	n/a	feedback	s579
558.851	0.34	n/a	-1.0	n/a	columbia_card_task_fmri	n/a	n/a	-1.0	n/a	n/a	n/a	n/a	n/a	n/a	n/a	n/a	ITI	s579
559.196	1.074	0.4131166322993256	draw_card	0.0	columbia_card_task_fmri	17.0	0.8	89.0	-70.0	0.2	10.0	1.0	2.0	3.14930449135926	1.074	n/a	stim	s579
560.275	0.432	-1.520216701034008	draw_card	1.0	columbia_card_task_fmri	17.0	0.7777777777777778	89.0	-70.0	0.2222222222222222	10.0	2.0	2.0	4.518299728827486	0.432	2.0	stim	s579
560.714	2.25	n/a	-1.0	n/a	columbia_card_task_fmri	n/a	n/a	-1.0	n/a	n/a	n/a	n/a	n/a	n/a	n/a	n/a	feedback	s579
562.964	0.204	n/a	-1.0	n/a	columbia_card_task_fmri	n/a	n/a	-1.0	n/a	n/a	n/a	n/a	n/a	n/a	n/a	n/a	ITI	s579
563.172	1.87	-0.8535500343673419	draw_card	0.0	columbia_card_task_fmri	13.0	0.8333333333333334	89.0	-75.0	0.1666666666666666	12.0	1.0	2.0	1.1455484736353725	1.87	n/a	stim	s579
565.047	0.36	-2.186883367700678	draw_card	1.0	columbia_card_task_fmri	13.0	0.8181818181818181	89.0	-75.0	0.1818181818181818	12.0	2.0	2.0	2.290670268303117	0.36	2.0	stim	s579
565.412	2.25	n/a	-1.0	n/a	columbia_card_task_fmri	n/a	n/a	-1.0	n/a	n/a	n/a	n/a	n/a	n/a	n/a	n/a	feedback	s579
567.662	0.068	n/a	-1.0	n/a	columbia_card_task_fmri	n/a	n/a	-1.0	n/a	n/a	n/a	n/a	n/a	n/a	n/a	n/a	ITI	s579
567.735	1.465	0.813116632299326	draw_card	1.0	columbia_card_task_fmri	14.0	0.8333333333333334	89.0	-70.0	0.1666666666666666	12.0	1.0	2.0	-0.3446837446365833	1.465	1.0	stim	s579
569.206	2.25	n/a	-1.0	n/a	columbia_card_task_fmri	n/a	n/a	-1.0	n/a	n/a	n/a	n/a	n/a	n/a	n/a	n/a	feedback	s579
571.456	0.0	n/a	-1.0	n/a	columbia_card_task_fmri	n/a	n/a	-1.0	n/a	n/a	n/a	n/a	n/a	n/a	n/a	n/a	ITI	s579
571.462	0.908	0.813116632299326	draw_card	0.0	columbia_card_task_fmri	16.0	0.8333333333333334	89.0	-80.0	0.1666666666666666	12.0	1.0	2.0	4.126132801801475	0.908	n/a	stim	s579
572.374	0.678	-0.6414288222461326	draw_card	0.0	columbia_card_task_fmri	16.0	0.8181818181818181	89.0	-80.0	0.1818181818181818	12.0	2.0	2.0	5.375415803676795	0.678	n/a	stim	s579
573.056	0.534	-2.3868833677006758	draw_card	0.0	columbia_card_task_fmri	16.0	0.8	89.0	-80.0	0.2	12.0	3.0	2.0	6.748414253441432	0.534	n/a	stim	s579
573.594	0.615	-4.52021670103401	draw_card	1.0	columbia_card_task_fmri	16.0	0.7777777777777778	89.0	-80.0	0.2222222222222222	12.0	4.0	2.0	8.259100557995183	0.615	4.0	stim	s579
574.219	2.25	n/a	-1.0	n/a	columbia_card_task_fmri	n/a	n/a	-1.0	n/a	n/a	n/a	n/a	n/a	n/a	n/a	n/a	feedback	s579
576.469	0.408	n/a	-1.0	n/a	columbia_card_task_fmri	n/a	n/a	-1.0	n/a	n/a	n/a	n/a	n/a	n/a	n/a	n/a	ITI	s579
576.881	1.328	0.6131166322993249	draw_card	0.0	columbia_card_task_fmri	16.0	0.8	89.0	-65.0	0.2	15.0	1.0	3.0	0.7500078412274291	1.328	n/a	stim	s579
578.214	0.448	-0.5440262248435317	draw_card	0.0	columbia_card_task_fmri	16.0	0.7857142857142857	89.0	-65.0	0.2142857142857142	15.0	2.0	3.0	1.5861493672403384	0.448	n/a	stim	s579
578.666	0.534	-1.8791910600083688	draw_card	0.0	columbia_card_task_fmri	16.0	0.7692307692307692	89.0	-65.0	0.2307692307692307	15.0	3.0	3.0	2.476820235574344	0.534	n/a	stim	s579
579.204	0.662	-3.436883367700676	end_round	0.0	columbia_card_task_fmri	16.0	0.75	71.0	-65.0	0.25	15.0	4.0	3.0	3.423259157136492	0.662	3.0	stim	s579
579.874	2.25	n/a	-1.0	n/a	columbia_card_task_fmri	n/a	n/a	-1.0	n/a	n/a	n/a	n/a	n/a	n/a	n/a	n/a	feedback	s579
582.124	0.204	n/a	-1.0	n/a	columbia_card_task_fmri	n/a	n/a	-1.0	n/a	n/a	n/a	n/a	n/a	n/a	n/a	n/a	ITI	s579
582.332	1.601	-1.0618833677006758	draw_card	1.0	columbia_card_task_fmri	15.0	0.8125	89.0	-75.0	0.1875	16.0	1.0	3.0	3.4773295392343755	1.601	1.0	stim	s579
583.942	2.25	n/a	-1.0	n/a	columbia_card_task_fmri	n/a	n/a	-1.0	n/a	n/a	n/a	n/a	n/a	n/a	n/a	n/a	feedback	s579
586.192	0.136	n/a	-1.0	n/a	columbia_card_task_fmri	n/a	n/a	-1.0	n/a	n/a	n/a	n/a	n/a	n/a	n/a	n/a	ITI	s579
586.332	3.021	-0.4993833677006758	draw_card	0.0	columbia_card_task_fmri	14.0	0.6875	89.0	-35.0	0.3125	16.0	1.0	5.0	-8.93353521015932	3.021	n/a	stim	s579
589.358	1.479	-1.520216701034008	draw_card	1.0	columbia_card_task_fmri	14.0	0.6666666666666667	89.0	-35.0	0.3333333333333333	16.0	2.0	5.0	-8.547065006929774	1.479	2.0	stim	s579
590.847	2.25	n/a	-1.0	n/a	columbia_card_task_fmri	n/a	n/a	-1.0	n/a	n/a	n/a	n/a	n/a	n/a	n/a	n/a	feedback	s579
593.097	0.34	n/a	-1.0	n/a	columbia_card_task_fmri	n/a	n/a	-1.0	n/a	n/a	n/a	n/a	n/a	n/a	n/a	n/a	ITI	s579
593.441	1.47	4.679783298965991	draw_card	0.0	columbia_card_task_fmri	16.0	0.8666666666666667	89.0	-75.0	0.1333333333333333	15.0	1.0	2.0	-0.7154571643699512	1.47	n/a	stim	s579
594.915	0.576	3.8131166322993257	draw_card	0.0	columbia_card_task_fmri	16.0	0.8571428571428572	89.0	-75.0	0.1428571428571428	15.0	2.0	2.0	0.1935527649330914	0.576	n/a	stim	s579
595.495	0.701	2.813116632299324	draw_card	0.0	columbia_card_task_fmri	16.0	0.8461538461538461	89.0	-75.0	0.1538461538461538	15.0	3.0	2.0	1.182783692641422	0.701	n/a	stim	s579
596.202	2.275	1.646449965632658	draw_card	0.0	columbia_card_task_fmri	16.0	0.8333333333333334	89.0	-75.0	0.1666666666666666	15.0	4.0	2.0	2.263250303795367	2.275	n/a	stim	s579
598.481	0.736	0.2676620868447774	end_round	0.0	columbia_card_task_fmri	16.0	0.8181818181818181	71.0	-75.0	0.1818181818181818	15.0	5.0	2.0	3.447433133830877	0.736	4.0	stim	s579
599.227	2.25	n/a	-1.0	n/a	columbia_card_task_fmri	n/a	n/a	-1.0	n/a	n/a	n/a	n/a	n/a	n/a	n/a	n/a	feedback	s579
601.477	0.068	n/a	-1.0	n/a	columbia_card_task_fmri	n/a	n/a	-1.0	n/a	n/a	n/a	n/a	n/a	n/a	n/a	n/a	ITI	s579
601.549	2.216	5.346449965632657	draw_card	0.0	columbia_card_task_fmri	16.0	0.8666666666666667	89.0	-70.0	0.1333333333333333	15.0	1.0	2.0	-2.4145093634039547	2.216	n/a	stim	s579
603.771	0.522	4.527402346585039	draw_card	0.0	columbia_card_task_fmri	16.0	0.8571428571428572	89.0	-70.0	0.1428571428571428	15.0	2.0	2.0	-1.5554795072321106	0.522	n/a	stim	s579
604.298	0.51	3.582347401530092	draw_card	0.0	columbia_card_task_fmri	16.0	0.8461538461538461	89.0	-70.0	0.1538461538461538	15.0	3.0	2.0	-0.6206372739209023	0.51	n/a	stim	s579
604.812	0.453	2.479783298965992	draw_card	0.0	columbia_card_task_fmri	16.0	0.8333333333333334	89.0	-70.0	0.1666666666666666	15.0	4.0	2.0	0.4004267885088808	0.453	n/a	stim	s579
605.271	1.563	1.1767529959356855	draw_card	0.0	columbia_card_task_fmri	16.0	0.8181818181818181	89.0	-70.0	0.1818181818181818	15.0	5.0	2.0	1.519507459400813	1.563	n/a	stim	s579
606.839	0.542	-0.3868833677006751	end_round	0.0	columbia_card_task_fmri	16.0	0.8	71.0	-70.0	0.2	15.0	6.0	2.0	2.749414903833788	0.542	5.0	stim	s579
607.387	2.25	n/a	-1.0	n/a	columbia_card_task_fmri	n/a	n/a	-1.0	n/a	n/a	n/a	n/a	n/a	n/a	n/a	n/a	feedback	s579
609.637	0.34	n/a	-1.0	n/a	columbia_card_task_fmri	n/a	n/a	-1.0	n/a	n/a	n/a	n/a	n/a	n/a	n/a	n/a	ITI	s579
609.983	2.402	2.688116632299324	draw_card	0.0	columbia_card_task_fmri	8.0	0.9375	89.0	-90.0	0.0625	16.0	1.0	1.0	-7.924239168352503	2.402	n/a	stim	s579
612.389	0.356	2.2797832989659907	draw_card	0.0	columbia_card_task_fmri	8.0	0.9333333333333332	89.0	-90.0	0.0666666666666666	16.0	2.0	1.0	-7.201179311260383	0.356	n/a	stim	s579
612.751	0.354	1.813116632299325	draw_card	0.0	columbia_card_task_fmri	8.0	0.9285714285714286	89.0	-90.0	0.0714285714285714	16.0	3.0	1.0	-6.4082400572487686	0.354	n/a	stim	s579
613.11	0.76	1.274655093837786	draw_card	0.0	columbia_card_task_fmri	8.0	0.9230769230769232	89.0	-90.0	0.0769230769230769	16.0	4.0	1.0	-5.533540808351887	0.76	n/a	stim	s579
613.874	0.945	0.6464499656326572	draw_card	0.0	columbia_card_task_fmri	8.0	0.9166666666666666	89.0	-90.0	0.0833333333333333	16.0	5.0	1.0	-4.562222337449935	0.945	n/a	stim	s579
614.824	0.558	-0.0959742767915849	draw_card	1.0	columbia_card_task_fmri	8.0	0.9090909090909092	89.0	-90.0	0.0909090909090909	16.0	6.0	1.0	-3.475443008919143	0.558	6.0	stim	s579
615.388	2.25	n/a	-1.0	n/a	columbia_card_task_fmri	n/a	n/a	-1.0	n/a	n/a	n/a	n/a	n/a	n/a	n/a	n/a	feedback	s579
617.638	0.136	n/a	-1.0	n/a	columbia_card_task_fmri	n/a	n/a	-1.0	n/a	n/a	n/a	n/a	n/a	n/a	n/a	n/a	ITI	s579
617.779	1.87	4.250616632299324	draw_card	0.0	columbia_card_task_fmri	10.0	0.9375	89.0	-95.0	0.0625	16.0	1.0	1.0	-6.230737226166287	1.87	n/a	stim	s579
619.654	0.465	3.813116632299325	draw_card	0.0	columbia_card_task_fmri	10.0	0.9333333333333332	89.0	-95.0	0.0666666666666666	16.0	2.0	1.0	-5.4559733732864615	0.465	n/a	stim	s579
620.124	0.395	3.313116632299325	draw_card	0.0	columbia_card_task_fmri	10.0	0.9285714285714286	89.0	-95.0	0.0714285714285714	16.0	3.0	1.0	-4.606336986594041	0.395	n/a	stim	s579
620.525	0.46	2.7361935553762478	draw_card	0.0	columbia_card_task_fmri	10.0	0.9230769230769232	89.0	-95.0	0.0769230769230769	16.0	4.0	1.0	-3.6690986891089423	0.46	n/a	stim	s579
620.99	0.797	2.063116632299324	draw_card	0.0	columbia_card_task_fmri	10.0	0.9166666666666666	89.0	-95.0	0.0833333333333333	16.0	5.0	1.0	-2.628337689884823	0.797	n/a	stim	s579
621.792	0.777	1.2676620868447774	end_round	0.0	columbia_card_task_fmri	10.0	0.9090909090909092	71.0	-95.0	0.0909090909090909	16.0	6.0	1.0	-1.4638663012029056	0.777	5.0	stim	s579
622.577	2.25	n/a	-1.0	n/a	columbia_card_task_fmri	n/a	n/a	-1.0	n/a	n/a	n/a	n/a	n/a	n/a	n/a	n/a	feedback	s579
624.827	0.068	n/a	-1.0	n/a	columbia_card_task_fmri	n/a	n/a	-1.0	n/a	n/a	n/a	n/a	n/a	n/a	n/a	n/a	ITI	s579
624.9	1.887	5.188116632299324	draw_card	1.0	columbia_card_task_fmri	15.0	0.875	89.0	-70.0	0.125	16.0	1.0	2.0	-3.5373286566971025	1.887	1.0	stim	s579
626.796	2.25	n/a	-1.0	n/a	columbia_card_task_fmri	n/a	n/a	-1.0	n/a	n/a	n/a	n/a	n/a	n/a	n/a	n/a	feedback	s579
629.046	0.068	n/a	-1.0	n/a	columbia_card_task_fmri	n/a	n/a	-1.0	n/a	n/a	n/a	n/a	n/a	n/a	n/a	n/a	ITI	s579
629.119	1.318	4.188116632299324	draw_card	0.0	columbia_card_task_fmri	16.0	0.875	89.0	-85.0	0.125	16.0	1.0	2.0	1.7523120292390215	1.318	n/a	stim	s579
630.441	0.464	3.346449965632657	draw_card	0.0	columbia_card_task_fmri	16.0	0.8666666666666667	89.0	-85.0	0.1333333333333333	16.0	2.0	2.0	2.682831595981078	0.464	n/a	stim	s579
630.91	0.44	2.384545203727897	draw_card	0.0	columbia_card_task_fmri	16.0	0.8571428571428572	89.0	-85.0	0.1428571428571428	16.0	3.0	2.0	3.691796417092931	0.44	n/a	stim	s579
631.356	0.447	1.274655093837784	draw_card	0.0	columbia_card_task_fmri	16.0	0.8461538461538461	89.0	-85.0	0.1538461538461538	16.0	4.0	2.0	4.789799345323509	0.447	n/a	stim	s579
631.809	2.183	-0.0202167010340079	draw_card	1.0	columbia_card_task_fmri	16.0	0.8333333333333334	89.0	-85.0	0.1666666666666666	16.0	5.0	2.0	5.989065527146693	2.183	5.0	stim	s579
634.001	2.25	n/a	-1.0	n/a	columbia_card_task_fmri	n/a	n/a	-1.0	n/a	n/a	n/a	n/a	n/a	n/a	n/a	n/a	feedback	s579
636.251	0.068	n/a	-1.0	n/a	columbia_card_task_fmri	n/a	n/a	-1.0	n/a	n/a	n/a	n/a	n/a	n/a	n/a	n/a	ITI	s579
