onset	duration	planning	condition	current_position	exp_stage	experiment_exp_id	goal_state	key_press	problem_id	response_time	start_state	trial_id	worker_id
-54.708	0.0	0	n/a	n/a	n/a	ward_and_allport	n/a	32.0	n/a	18.881	n/a	instructions	s572
3.011	2.928	1	UA_with_intermediate	1,0,0,2,0,0,0,0,0	practice	ward_and_allport	1,2,3,0,0,0,0,0,0	71.0	0.0	2.928	1,0,0,2,3,0,0,0,0	to_hand	s572
5.941	0.486	0	UA_with_intermediate	1,0,0,2,0,0,3,0,0	practice	ward_and_allport	1,2,3,0,0,0,0,0,0	82.0	0.0	0.486	1,0,0,2,3,0,0,0,0	to_board	s572
6.429	0.589	0	UA_with_intermediate	1,0,0,0,0,0,3,0,0	practice	ward_and_allport	1,2,3,0,0,0,0,0,0	71.0	0.0	0.589	1,0,0,2,3,0,0,0,0	to_hand	s572
7.019	0.474	0	UA_with_intermediate	1,2,0,0,0,0,3,0,0	practice	ward_and_allport	1,2,3,0,0,0,0,0,0	89.0	0.0	0.474	1,0,0,2,3,0,0,0,0	to_board	s572
7.494	0.603	0	UA_with_intermediate	1,2,0,0,0,0,0,0,0	practice	ward_and_allport	1,2,3,0,0,0,0,0,0	82.0	0.0	0.603	1,0,0,2,3,0,0,0,0	to_hand	s572
8.099	0.337	0	UA_with_intermediate	1,2,3,0,0,0,0,0,0	practice	ward_and_allport	1,2,3,0,0,0,0,0,0	89.0	0.0	0.337	1,0,0,2,3,0,0,0,0	to_board	s572
8.44	1.0	0	UA_with_intermediate	n/a	practice	ward_and_allport	n/a	-1.0	0.0	n/a	n/a	feedback	s572
10.943	3.439	1	UA_with_intermediate	1,0,0,3,0,0,0,0,0	practice	ward_and_allport	1,3,2,0,0,0,0,0,0	89.0	1.0	3.439	1,2,0,3,0,0,0,0,0	to_hand	s572
14.383	0.324	0	UA_with_intermediate	1,0,0,3,0,0,2,0,0	practice	ward_and_allport	1,3,2,0,0,0,0,0,0	82.0	1.0	0.324	1,2,0,3,0,0,0,0,0	to_board	s572
14.709	0.457	0	UA_with_intermediate	1,0,0,0,0,0,2,0,0	practice	ward_and_allport	1,3,2,0,0,0,0,0,0	71.0	1.0	0.457	1,2,0,3,0,0,0,0,0	to_hand	s572
15.168	0.367	0	UA_with_intermediate	1,3,0,0,0,0,2,0,0	practice	ward_and_allport	1,3,2,0,0,0,0,0,0	89.0	1.0	0.367	1,2,0,3,0,0,0,0,0	to_board	s572
15.536	1.453	0	UA_with_intermediate	1,3,0,0,0,0,0,0,0	practice	ward_and_allport	1,3,2,0,0,0,0,0,0	82.0	1.0	1.453	1,2,0,3,0,0,0,0,0	to_hand	s572
16.99	0.295	0	UA_with_intermediate	1,3,2,0,0,0,0,0,0	practice	ward_and_allport	1,3,2,0,0,0,0,0,0	89.0	1.0	0.295	1,2,0,3,0,0,0,0,0	to_board	s572
17.289	1.0	0	UA_with_intermediate	n/a	practice	ward_and_allport	n/a	-1.0	1.0	n/a	n/a	feedback	s572
18.289	1.1	0	UA_with_intermediate	n/a	practice	ward_and_allport	n/a	-1.0	1.0	n/a	n/a	ITI	s572
19.391	4.024	1	UA_without_intermediate	0,0,0,1,2,0,0,0,0	practice	ward_and_allport	3,2,1,0,0,0,0,0,0	82.0	2.0	4.024	0,0,0,1,2,0,3,0,0	to_hand	s572
23.415	0.355	0	UA_without_intermediate	3,0,0,1,2,0,0,0,0	practice	ward_and_allport	3,2,1,0,0,0,0,0,0	89.0	2.0	0.355	0,0,0,1,2,0,3,0,0	to_board	s572
23.772	0.454	0	UA_without_intermediate	3,0,0,1,0,0,0,0,0	practice	ward_and_allport	3,2,1,0,0,0,0,0,0	71.0	2.0	0.454	0,0,0,1,2,0,3,0,0	to_hand	s572
24.228	0.282	0	UA_without_intermediate	3,2,0,1,0,0,0,0,0	practice	ward_and_allport	3,2,1,0,0,0,0,0,0	89.0	2.0	0.282	0,0,0,1,2,0,3,0,0	to_board	s572
24.512	0.345	0	UA_without_intermediate	3,2,0,0,0,0,0,0,0	practice	ward_and_allport	3,2,1,0,0,0,0,0,0	71.0	2.0	0.345	0,0,0,1,2,0,3,0,0	to_hand	s572
24.858	0.351	0	UA_without_intermediate	3,2,1,0,0,0,0,0,0	practice	ward_and_allport	3,2,1,0,0,0,0,0,0	89.0	2.0	0.351	0,0,0,1,2,0,3,0,0	to_board	s572
25.216	1.0	0	UA_without_intermediate	n/a	practice	ward_and_allport	n/a	-1.0	2.0	n/a	n/a	feedback	s572
26.216	1.2	0	UA_without_intermediate	n/a	practice	ward_and_allport	n/a	-1.0	2.0	n/a	n/a	ITI	s572
27.418	3.356	1	UA_without_intermediate	0,0,0,1,0,0,3,0,0	practice	ward_and_allport	2,3,1,0,0,0,0,0,0	71.0	3.0	3.356	0,0,0,1,2,0,3,0,0	to_hand	s572
30.774	0.321	0	UA_without_intermediate	2,0,0,1,0,0,3,0,0	practice	ward_and_allport	2,3,1,0,0,0,0,0,0	89.0	3.0	0.321	0,0,0,1,2,0,3,0,0	to_board	s572
31.098	1.072	0	UA_without_intermediate	2,0,0,1,0,0,0,0,0	practice	ward_and_allport	2,3,1,0,0,0,0,0,0	82.0	3.0	1.072	0,0,0,1,2,0,3,0,0	to_hand	s572
32.171	0.268	0	UA_without_intermediate	2,3,0,1,0,0,0,0,0	practice	ward_and_allport	2,3,1,0,0,0,0,0,0	89.0	3.0	0.268	0,0,0,1,2,0,3,0,0	to_board	s572
32.441	0.316	0	UA_without_intermediate	2,3,0,0,0,0,0,0,0	practice	ward_and_allport	2,3,1,0,0,0,0,0,0	71.0	3.0	0.316	0,0,0,1,2,0,3,0,0	to_hand	s572
32.758	0.256	0	UA_without_intermediate	2,3,1,0,0,0,0,0,0	practice	ward_and_allport	2,3,1,0,0,0,0,0,0	89.0	3.0	0.256	0,0,0,1,2,0,3,0,0	to_board	s572
33.021	1.0	0	UA_without_intermediate	n/a	practice	ward_and_allport	n/a	-1.0	3.0	n/a	n/a	feedback	s572
34.021	1.0	0	UA_without_intermediate	n/a	practice	ward_and_allport	n/a	-1.0	3.0	n/a	n/a	ITI	s572
37.027	2.988	1	PA_without_intermediate	1,2,0,0,0,0,0,0,0	test	ward_and_allport	0,0,0,3,2,0,1,0,0	89.0	0.0	2.988	1,2,3,0,0,0,0,0,0	to_hand	s572
40.016	0.278	0	PA_without_intermediate	1,2,0,3,0,0,0,0,0	test	ward_and_allport	0,0,0,3,2,0,1,0,0	71.0	0.0	0.278	1,2,3,0,0,0,0,0,0	to_board	s572
40.295	0.999	0	PA_without_intermediate	1,0,0,3,0,0,0,0,0	test	ward_and_allport	0,0,0,3,2,0,1,0,0	89.0	0.0	0.999	1,2,3,0,0,0,0,0,0	to_hand	s572
41.296	0.694	0	PA_without_intermediate	1,0,0,3,2,0,0,0,0	test	ward_and_allport	0,0,0,3,2,0,1,0,0	71.0	0.0	0.694	1,2,3,0,0,0,0,0,0	to_board	s572
41.991	0.437	0	PA_without_intermediate	0,0,0,3,2,0,0,0,0	test	ward_and_allport	0,0,0,3,2,0,1,0,0	89.0	0.0	0.437	1,2,3,0,0,0,0,0,0	to_hand	s572
42.429	0.247	0	PA_without_intermediate	0,0,0,3,2,0,1,0,0	test	ward_and_allport	0,0,0,3,2,0,1,0,0	82.0	0.0	0.247	1,2,3,0,0,0,0,0,0	to_board	s572
42.68	1.0	0	PA_without_intermediate	n/a	test	ward_and_allport	n/a	-1.0	0.0	n/a	n/a	feedback	s572
43.68	2.088	0	PA_without_intermediate	n/a	test	ward_and_allport	n/a	-1.0	0.0	n/a	n/a	ITI	s572
45.77	10.755	1	PA_with_intermediate	0,0,0,0,0,0,1,2,0	test	ward_and_allport	2,0,0,0,0,0,1,3,0	82.0	1.0	10.755	0,0,0,0,0,0,1,2,3	to_hand	s572
56.527	0.374	0	PA_with_intermediate	0,0,0,3,0,0,1,2,0	test	ward_and_allport	2,0,0,0,0,0,1,3,0	71.0	1.0	0.374	0,0,0,0,0,0,1,2,3	to_board	s572
56.903	1.152	0	PA_with_intermediate	0,0,0,3,0,0,1,0,0	test	ward_and_allport	2,0,0,0,0,0,1,3,0	82.0	1.0	1.152	0,0,0,0,0,0,1,2,3	to_hand	s572
58.055	0.296	0	PA_with_intermediate	2,0,0,3,0,0,1,0,0	test	ward_and_allport	2,0,0,0,0,0,1,3,0	89.0	1.0	0.296	0,0,0,0,0,0,1,2,3	to_board	s572
58.354	0.482	0	PA_with_intermediate	2,0,0,0,0,0,1,0,0	test	ward_and_allport	2,0,0,0,0,0,1,3,0	71.0	1.0	0.482	0,0,0,0,0,0,1,2,3	to_hand	s572
58.838	0.279	0	PA_with_intermediate	2,0,0,0,0,0,1,3,0	test	ward_and_allport	2,0,0,0,0,0,1,3,0	82.0	1.0	0.279	0,0,0,0,0,0,1,2,3	to_board	s572
59.123	1.0	0	PA_with_intermediate	n/a	test	ward_and_allport	n/a	-1.0	1.0	n/a	n/a	feedback	s572
60.123	1.0	0	PA_with_intermediate	n/a	test	ward_and_allport	n/a	-1.0	1.0	n/a	n/a	ITI	s572
61.125	4.842	1	PA_without_intermediate	0,0,0,1,2,0,0,0,0	test	ward_and_allport	3,1,0,0,0,0,2,0,0	71.0	2.0	4.842	0,0,0,1,2,3,0,0,0	to_hand	s572
65.969	0.239	0	PA_without_intermediate	3,0,0,1,2,0,0,0,0	test	ward_and_allport	3,1,0,0,0,0,2,0,0	89.0	2.0	0.239	0,0,0,1,2,3,0,0,0	to_board	s572
66.21	0.362	0	PA_without_intermediate	3,0,0,1,0,0,0,0,0	test	ward_and_allport	3,1,0,0,0,0,2,0,0	71.0	2.0	0.362	0,0,0,1,2,3,0,0,0	to_hand	s572
66.574	0.319	0	PA_without_intermediate	3,0,0,1,0,0,2,0,0	test	ward_and_allport	3,1,0,0,0,0,2,0,0	82.0	2.0	0.319	0,0,0,1,2,3,0,0,0	to_board	s572
66.895	0.374	0	PA_without_intermediate	3,0,0,0,0,0,2,0,0	test	ward_and_allport	3,1,0,0,0,0,2,0,0	71.0	2.0	0.374	0,0,0,1,2,3,0,0,0	to_hand	s572
67.27	0.3	0	PA_without_intermediate	3,1,0,0,0,0,2,0,0	test	ward_and_allport	3,1,0,0,0,0,2,0,0	89.0	2.0	0.3	0,0,0,1,2,3,0,0,0	to_board	s572
67.577	1.0	0	PA_without_intermediate	n/a	test	ward_and_allport	n/a	-1.0	2.0	n/a	n/a	feedback	s572
68.577	1.0	0	PA_without_intermediate	n/a	test	ward_and_allport	n/a	-1.0	2.0	n/a	n/a	ITI	s572
69.579	3.542	1	PA_without_intermediate	0,0,0,0,0,0,1,2,0	test	ward_and_allport	2,0,0,3,1,0,0,0,0	82.0	3.0	3.542	0,0,0,0,0,0,1,2,3	to_hand	s572
73.121	0.268	0	PA_without_intermediate	0,0,0,3,0,0,1,2,0	test	ward_and_allport	2,0,0,3,1,0,0,0,0	71.0	3.0	0.268	0,0,0,0,0,0,1,2,3	to_board	s572
73.392	0.363	0	PA_without_intermediate	0,0,0,3,0,0,1,0,0	test	ward_and_allport	2,0,0,3,1,0,0,0,0	82.0	3.0	0.363	0,0,0,0,0,0,1,2,3	to_hand	s572
73.755	0.25	0	PA_without_intermediate	2,0,0,3,0,0,1,0,0	test	ward_and_allport	2,0,0,3,1,0,0,0,0	89.0	3.0	0.25	0,0,0,0,0,0,1,2,3	to_board	s572
74.007	0.595	0	PA_without_intermediate	2,0,0,3,0,0,0,0,0	test	ward_and_allport	2,0,0,3,1,0,0,0,0	82.0	3.0	0.595	0,0,0,0,0,0,1,2,3	to_hand	s572
74.604	0.233	0	PA_without_intermediate	2,0,0,3,1,0,0,0,0	test	ward_and_allport	2,0,0,3,1,0,0,0,0	71.0	3.0	0.233	0,0,0,0,0,0,1,2,3	to_board	s572
74.841	1.0	0	PA_without_intermediate	n/a	test	ward_and_allport	n/a	-1.0	3.0	n/a	n/a	feedback	s572
75.841	1.0	0	PA_without_intermediate	n/a	test	ward_and_allport	n/a	-1.0	3.0	n/a	n/a	ITI	s572
76.844	3.716	1	PA_with_intermediate	0,0,0,0,0,0,1,2,0	test	ward_and_allport	2,3,0,0,0,0,1,0,0	82.0	4.0	3.716	0,0,0,0,0,0,1,2,3	to_hand	s572
80.56	0.272	0	PA_with_intermediate	0,0,0,3,0,0,1,2,0	test	ward_and_allport	2,3,0,0,0,0,1,0,0	71.0	4.0	0.272	0,0,0,0,0,0,1,2,3	to_board	s572
80.835	0.636	0	PA_with_intermediate	0,0,0,3,0,0,1,0,0	test	ward_and_allport	2,3,0,0,0,0,1,0,0	82.0	4.0	0.636	0,0,0,0,0,0,1,2,3	to_hand	s572
81.471	0.422	0	PA_with_intermediate	2,0,0,3,0,0,1,0,0	test	ward_and_allport	2,3,0,0,0,0,1,0,0	89.0	4.0	0.422	0,0,0,0,0,0,1,2,3	to_board	s572
81.896	1.027	0	PA_with_intermediate	2,0,0,0,0,0,1,0,0	test	ward_and_allport	2,3,0,0,0,0,1,0,0	71.0	4.0	1.027	0,0,0,0,0,0,1,2,3	to_hand	s572
82.924	0.228	0	PA_with_intermediate	2,3,0,0,0,0,1,0,0	test	ward_and_allport	2,3,0,0,0,0,1,0,0	89.0	4.0	0.228	0,0,0,0,0,0,1,2,3	to_board	s572
83.156	1.0	0	PA_with_intermediate	n/a	test	ward_and_allport	n/a	-1.0	4.0	n/a	n/a	feedback	s572
84.156	1.544	0	PA_with_intermediate	n/a	test	ward_and_allport	n/a	-1.0	4.0	n/a	n/a	ITI	s572
85.703	2.583	1	PA_without_intermediate	0,0,0,1,2,0,0,0,0	test	ward_and_allport	3,2,0,0,0,0,1,0,0	71.0	5.0	2.583	0,0,0,1,2,3,0,0,0	to_hand	s572
88.287	0.281	0	PA_without_intermediate	3,0,0,1,2,0,0,0,0	test	ward_and_allport	3,2,0,0,0,0,1,0,0	89.0	5.0	0.281	0,0,0,1,2,3,0,0,0	to_board	s572
88.571	0.493	0	PA_without_intermediate	3,0,0,1,0,0,0,0,0	test	ward_and_allport	3,2,0,0,0,0,1,0,0	71.0	5.0	0.493	0,0,0,1,2,3,0,0,0	to_hand	s572
89.065	0.288	0	PA_without_intermediate	3,2,0,1,0,0,0,0,0	test	ward_and_allport	3,2,0,0,0,0,1,0,0	89.0	5.0	0.288	0,0,0,1,2,3,0,0,0	to_board	s572
89.356	0.644	0	PA_without_intermediate	3,2,0,0,0,0,0,0,0	test	ward_and_allport	3,2,0,0,0,0,1,0,0	71.0	5.0	0.644	0,0,0,1,2,3,0,0,0	to_hand	s572
90.002	0.256	0	PA_without_intermediate	3,2,0,0,0,0,1,0,0	test	ward_and_allport	3,2,0,0,0,0,1,0,0	82.0	5.0	0.256	0,0,0,1,2,3,0,0,0	to_board	s572
90.266	1.0	0	PA_without_intermediate	n/a	test	ward_and_allport	n/a	-1.0	5.0	n/a	n/a	feedback	s572
91.266	1.272	0	PA_without_intermediate	n/a	test	ward_and_allport	n/a	-1.0	5.0	n/a	n/a	ITI	s572
92.541	6.4	1	PA_with_intermediate	0,0,0,0,0,0,1,2,0	test	ward_and_allport	0,0,0,2,3,0,1,0,0	82.0	6.0	6.4	0,0,0,0,0,0,1,2,3	to_hand	s572
98.942	0.244	0	PA_with_intermediate	3,0,0,0,0,0,1,2,0	test	ward_and_allport	0,0,0,2,3,0,1,0,0	89.0	6.0	0.244	0,0,0,0,0,0,1,2,3	to_board	s572
99.188	0.78	0	PA_with_intermediate	3,0,0,0,0,0,1,0,0	test	ward_and_allport	0,0,0,2,3,0,1,0,0	82.0	6.0	0.78	0,0,0,0,0,0,1,2,3	to_hand	s572
99.969	0.26	0	PA_with_intermediate	3,0,0,2,0,0,1,0,0	test	ward_and_allport	0,0,0,2,3,0,1,0,0	71.0	6.0	0.26	0,0,0,0,0,0,1,2,3	to_board	s572
100.231	0.5	0	PA_with_intermediate	0,0,0,2,0,0,1,0,0	test	ward_and_allport	0,0,0,2,3,0,1,0,0	89.0	6.0	0.5	0,0,0,0,0,0,1,2,3	to_hand	s572
100.732	0.25	0	PA_with_intermediate	0,0,0,2,3,0,1,0,0	test	ward_and_allport	0,0,0,2,3,0,1,0,0	71.0	6.0	0.25	0,0,0,0,0,0,1,2,3	to_board	s572
100.986	1.0	0	PA_with_intermediate	n/a	test	ward_and_allport	n/a	-1.0	6.0	n/a	n/a	feedback	s572
101.986	3.04	0	PA_with_intermediate	n/a	test	ward_and_allport	n/a	-1.0	6.0	n/a	n/a	ITI	s572
105.028	2.795	1	PA_with_intermediate	0,0,0,1,2,0,0,0,0	test	ward_and_allport	0,0,0,1,0,0,2,3,0	71.0	7.0	2.795	0,0,0,1,2,3,0,0,0	to_hand	s572
107.825	0.228	0	PA_with_intermediate	3,0,0,1,2,0,0,0,0	test	ward_and_allport	0,0,0,1,0,0,2,3,0	89.0	7.0	0.228	0,0,0,1,2,3,0,0,0	to_board	s572
108.056	0.511	0	PA_with_intermediate	3,0,0,1,0,0,0,0,0	test	ward_and_allport	0,0,0,1,0,0,2,3,0	71.0	7.0	0.511	0,0,0,1,2,3,0,0,0	to_hand	s572
108.569	0.243	0	PA_with_intermediate	3,0,0,1,0,0,2,0,0	test	ward_and_allport	0,0,0,1,0,0,2,3,0	82.0	7.0	0.243	0,0,0,1,2,3,0,0,0	to_board	s572
108.814	0.607	0	PA_with_intermediate	0,0,0,1,0,0,2,0,0	test	ward_and_allport	0,0,0,1,0,0,2,3,0	89.0	7.0	0.607	0,0,0,1,2,3,0,0,0	to_hand	s572
109.422	0.228	0	PA_with_intermediate	0,0,0,1,0,0,2,3,0	test	ward_and_allport	0,0,0,1,0,0,2,3,0	82.0	7.0	0.228	0,0,0,1,2,3,0,0,0	to_board	s572
109.659	1.0	0	PA_with_intermediate	n/a	test	ward_and_allport	n/a	-1.0	7.0	n/a	n/a	feedback	s572
110.659	1.272	0	PA_with_intermediate	n/a	test	ward_and_allport	n/a	-1.0	7.0	n/a	n/a	ITI	s572
111.934	4.089	1	PA_with_intermediate	1,2,0,0,0,0,0,0,0	test	ward_and_allport	1,0,0,0,0,0,2,3,0	89.0	8.0	4.089	1,2,3,0,0,0,0,0,0	to_hand	s572
116.024	0.249	0	PA_with_intermediate	1,2,0,3,0,0,0,0,0	test	ward_and_allport	1,0,0,0,0,0,2,3,0	71.0	8.0	0.249	1,2,3,0,0,0,0,0,0	to_board	s572
116.276	0.755	0	PA_with_intermediate	1,0,0,3,0,0,0,0,0	test	ward_and_allport	1,0,0,0,0,0,2,3,0	89.0	8.0	0.755	1,2,3,0,0,0,0,0,0	to_hand	s572
117.032	0.219	0	PA_with_intermediate	1,0,0,3,0,0,2,0,0	test	ward_and_allport	1,0,0,0,0,0,2,3,0	82.0	8.0	0.219	1,2,3,0,0,0,0,0,0	to_board	s572
117.254	0.637	0	PA_with_intermediate	1,0,0,0,0,0,2,0,0	test	ward_and_allport	1,0,0,0,0,0,2,3,0	71.0	8.0	0.637	1,2,3,0,0,0,0,0,0	to_hand	s572
117.892	0.221	0	PA_with_intermediate	1,0,0,0,0,0,2,3,0	test	ward_and_allport	1,0,0,0,0,0,2,3,0	82.0	8.0	0.221	1,2,3,0,0,0,0,0,0	to_board	s572
118.12	1.0	0	PA_with_intermediate	n/a	test	ward_and_allport	n/a	-1.0	8.0	n/a	n/a	feedback	s572
119.12	1.136	0	PA_with_intermediate	n/a	test	ward_and_allport	n/a	-1.0	8.0	n/a	n/a	ITI	s572
120.26	4.458	1	PA_with_intermediate	0,0,0,0,0,0,1,2,0	test	ward_and_allport	0,0,0,2,0,0,1,3,0	82.0	9.0	4.458	0,0,0,0,0,0,1,2,3	to_hand	s572
124.719	0.269	0	PA_with_intermediate	3,0,0,0,0,0,1,2,0	test	ward_and_allport	0,0,0,2,0,0,1,3,0	89.0	9.0	0.269	0,0,0,0,0,0,1,2,3	to_board	s572
124.992	0.624	0	PA_with_intermediate	0,0,0,0,0,0,1,2,0	test	ward_and_allport	0,0,0,2,0,0,1,3,0	89.0	9.0	0.624	0,0,0,0,0,0,1,2,3	to_hand	s572
125.617	1.026	0	PA_with_intermediate	3,0,0,0,0,0,1,2,0	test	ward_and_allport	0,0,0,2,0,0,1,3,0	89.0	9.0	1.026	0,0,0,0,0,0,1,2,3	to_board	s572
126.646	0.933	0	PA_with_intermediate	3,0,0,0,0,0,1,0,0	test	ward_and_allport	0,0,0,2,0,0,1,3,0	82.0	9.0	0.933	0,0,0,0,0,0,1,2,3	to_hand	s572
127.581	0.462	0	PA_with_intermediate	3,0,0,2,0,0,1,0,0	test	ward_and_allport	0,0,0,2,0,0,1,3,0	71.0	9.0	0.462	0,0,0,0,0,0,1,2,3	to_board	s572
128.045	0.847	0	PA_with_intermediate	0,0,0,2,0,0,1,0,0	test	ward_and_allport	0,0,0,2,0,0,1,3,0	89.0	9.0	0.847	0,0,0,0,0,0,1,2,3	to_hand	s572
128.894	0.363	0	PA_with_intermediate	0,0,0,2,0,0,1,3,0	test	ward_and_allport	0,0,0,2,0,0,1,3,0	82.0	9.0	0.363	0,0,0,0,0,0,1,2,3	to_board	s572
129.261	1.0	0	PA_with_intermediate	n/a	test	ward_and_allport	n/a	-1.0	9.0	n/a	n/a	feedback	s572
130.261	1.0	0	PA_with_intermediate	n/a	test	ward_and_allport	n/a	-1.0	9.0	n/a	n/a	ITI	s572
131.265	4.132	1	PA_with_intermediate	0,0,0,1,2,0,0,0,0	test	ward_and_allport	0,0,0,1,0,0,2,3,0	71.0	10.0	4.132	0,0,0,1,2,3,0,0,0	to_hand	s572
135.398	0.267	0	PA_with_intermediate	3,0,0,1,2,0,0,0,0	test	ward_and_allport	0,0,0,1,0,0,2,3,0	89.0	10.0	0.267	0,0,0,1,2,3,0,0,0	to_board	s572
135.669	0.31	0	PA_with_intermediate	3,0,0,1,0,0,0,0,0	test	ward_and_allport	0,0,0,1,0,0,2,3,0	71.0	10.0	0.31	0,0,0,1,2,3,0,0,0	to_hand	s572
135.979	0.32	0	PA_with_intermediate	3,0,0,1,0,0,2,0,0	test	ward_and_allport	0,0,0,1,0,0,2,3,0	82.0	10.0	0.32	0,0,0,1,2,3,0,0,0	to_board	s572
136.303	0.35	0	PA_with_intermediate	0,0,0,1,0,0,2,0,0	test	ward_and_allport	0,0,0,1,0,0,2,3,0	89.0	10.0	0.35	0,0,0,1,2,3,0,0,0	to_hand	s572
136.655	0.295	0	PA_with_intermediate	0,0,0,1,0,0,2,3,0	test	ward_and_allport	0,0,0,1,0,0,2,3,0	82.0	10.0	0.295	0,0,0,1,2,3,0,0,0	to_board	s572
136.956	1.0	0	PA_with_intermediate	n/a	test	ward_and_allport	n/a	-1.0	10.0	n/a	n/a	feedback	s572
137.956	1.0	0	PA_with_intermediate	n/a	test	ward_and_allport	n/a	-1.0	10.0	n/a	n/a	ITI	s572
138.96	3.972	1	PA_without_intermediate	0,0,0,0,0,0,1,2,0	test	ward_and_allport	1,0,0,3,2,0,0,0,0	82.0	11.0	3.972	0,0,0,0,0,0,1,2,3	to_hand	s572
142.934	0.304	0	PA_without_intermediate	0,0,0,3,0,0,1,2,0	test	ward_and_allport	1,0,0,3,2,0,0,0,0	71.0	11.0	0.304	0,0,0,0,0,0,1,2,3	to_board	s572
143.242	0.913	0	PA_without_intermediate	0,0,0,3,0,0,1,0,0	test	ward_and_allport	1,0,0,3,2,0,0,0,0	82.0	11.0	0.913	0,0,0,0,0,0,1,2,3	to_hand	s572
144.155	0.238	0	PA_without_intermediate	0,0,0,3,2,0,1,0,0	test	ward_and_allport	1,0,0,3,2,0,0,0,0	71.0	11.0	0.238	0,0,0,0,0,0,1,2,3	to_board	s572
144.397	2.549	0	PA_without_intermediate	0,0,0,3,2,0,0,0,0	test	ward_and_allport	1,0,0,3,2,0,0,0,0	82.0	11.0	2.549	0,0,0,0,0,0,1,2,3	to_hand	s572
146.948	0.174	0	PA_without_intermediate	1,0,0,3,2,0,0,0,0	test	ward_and_allport	1,0,0,3,2,0,0,0,0	89.0	11.0	0.174	0,0,0,0,0,0,1,2,3	to_board	s572
147.129	1.0	0	PA_without_intermediate	n/a	test	ward_and_allport	n/a	-1.0	11.0	n/a	n/a	feedback	s572
148.129	1.408	0	PA_without_intermediate	n/a	test	ward_and_allport	n/a	-1.0	11.0	n/a	n/a	ITI	s572
149.541	3.965	1	PA_with_intermediate	0,0,0,1,2,0,0,0,0	test	ward_and_allport	2,3,0,1,0,0,0,0,0	71.0	12.0	3.965	0,0,0,1,2,3,0,0,0	to_hand	s572
153.507	0.317	0	PA_with_intermediate	0,0,0,1,2,0,3,0,0	test	ward_and_allport	2,3,0,1,0,0,0,0,0	82.0	12.0	0.317	0,0,0,1,2,3,0,0,0	to_board	s572
153.829	0.537	0	PA_with_intermediate	0,0,0,1,0,0,3,0,0	test	ward_and_allport	2,3,0,1,0,0,0,0,0	71.0	12.0	0.537	0,0,0,1,2,3,0,0,0	to_hand	s572
154.367	0.282	0	PA_with_intermediate	2,0,0,1,0,0,3,0,0	test	ward_and_allport	2,3,0,1,0,0,0,0,0	89.0	12.0	0.282	0,0,0,1,2,3,0,0,0	to_board	s572
154.654	0.358	0	PA_with_intermediate	2,0,0,1,0,0,0,0,0	test	ward_and_allport	2,3,0,1,0,0,0,0,0	82.0	12.0	0.358	0,0,0,1,2,3,0,0,0	to_hand	s572
155.013	0.238	0	PA_with_intermediate	2,3,0,1,0,0,0,0,0	test	ward_and_allport	2,3,0,1,0,0,0,0,0	89.0	12.0	0.238	0,0,0,1,2,3,0,0,0	to_board	s572
155.257	1.0	0	PA_with_intermediate	n/a	test	ward_and_allport	n/a	-1.0	12.0	n/a	n/a	feedback	s572
156.257	2.768	0	PA_with_intermediate	n/a	test	ward_and_allport	n/a	-1.0	12.0	n/a	n/a	ITI	s572
159.029	4.412	1	PA_with_intermediate	0,0,0,1,2,0,0,0,0	test	ward_and_allport	2,0,0,1,3,0,0,0,0	71.0	13.0	4.412	0,0,0,1,2,3,0,0,0	to_hand	s572
163.443	0.444	0	PA_with_intermediate	0,0,0,1,2,0,3,0,0	test	ward_and_allport	2,0,0,1,3,0,0,0,0	82.0	13.0	0.444	0,0,0,1,2,3,0,0,0	to_board	s572
163.892	0.403	0	PA_with_intermediate	0,0,0,1,0,0,3,0,0	test	ward_and_allport	2,0,0,1,3,0,0,0,0	71.0	13.0	0.403	0,0,0,1,2,3,0,0,0	to_hand	s572
164.296	0.26	0	PA_with_intermediate	2,0,0,1,0,0,3,0,0	test	ward_and_allport	2,0,0,1,3,0,0,0,0	89.0	13.0	0.26	0,0,0,1,2,3,0,0,0	to_board	s572
164.561	0.37	0	PA_with_intermediate	2,0,0,1,0,0,0,0,0	test	ward_and_allport	2,0,0,1,3,0,0,0,0	82.0	13.0	0.37	0,0,0,1,2,3,0,0,0	to_hand	s572
164.931	0.273	0	PA_with_intermediate	2,0,0,1,3,0,0,0,0	test	ward_and_allport	2,0,0,1,3,0,0,0,0	71.0	13.0	0.273	0,0,0,1,2,3,0,0,0	to_board	s572
165.21	1.0	0	PA_with_intermediate	n/a	test	ward_and_allport	n/a	-1.0	13.0	n/a	n/a	feedback	s572
166.21	1.68	0	PA_with_intermediate	n/a	test	ward_and_allport	n/a	-1.0	13.0	n/a	n/a	ITI	s572
167.893	5.278	1	PA_without_intermediate	0,0,0,0,0,0,1,2,0	test	ward_and_allport	3,1,0,2,0,0,0,0,0	82.0	14.0	5.278	0,0,0,0,0,0,1,2,3	to_hand	s572
173.173	0.252	0	PA_without_intermediate	3,0,0,0,0,0,1,2,0	test	ward_and_allport	3,1,0,2,0,0,0,0,0	89.0	14.0	0.252	0,0,0,0,0,0,1,2,3	to_board	s572
173.43	0.312	0	PA_without_intermediate	3,0,0,0,0,0,1,0,0	test	ward_and_allport	3,1,0,2,0,0,0,0,0	82.0	14.0	0.312	0,0,0,0,0,0,1,2,3	to_hand	s572
173.743	0.305	0	PA_without_intermediate	3,0,0,2,0,0,1,0,0	test	ward_and_allport	3,1,0,2,0,0,0,0,0	71.0	14.0	0.305	0,0,0,0,0,0,1,2,3	to_board	s572
174.051	0.447	0	PA_without_intermediate	3,0,0,2,0,0,0,0,0	test	ward_and_allport	3,1,0,2,0,0,0,0,0	82.0	14.0	0.447	0,0,0,0,0,0,1,2,3	to_hand	s572
174.5	0.256	0	PA_without_intermediate	3,1,0,2,0,0,0,0,0	test	ward_and_allport	3,1,0,2,0,0,0,0,0	89.0	14.0	0.256	0,0,0,0,0,0,1,2,3	to_board	s572
174.762	1.0	0	PA_without_intermediate	n/a	test	ward_and_allport	n/a	-1.0	14.0	n/a	n/a	feedback	s572
175.762	2.224	0	PA_without_intermediate	n/a	test	ward_and_allport	n/a	-1.0	14.0	n/a	n/a	ITI	s572
182.993	4.123	1	PA_without_intermediate	1,2,0,0,0,0,0,0,0	test	ward_and_allport	0,0,0,1,0,0,3,2,0	89.0	15.0	4.123	1,2,3,0,0,0,0,0,0	to_hand	s572
187.118	0.267	0	PA_without_intermediate	1,2,0,0,0,0,3,0,0	test	ward_and_allport	0,0,0,1,0,0,3,2,0	82.0	15.0	0.267	1,2,3,0,0,0,0,0,0	to_board	s572
187.389	0.377	0	PA_without_intermediate	1,0,0,0,0,0,3,0,0	test	ward_and_allport	0,0,0,1,0,0,3,2,0	89.0	15.0	0.377	1,2,3,0,0,0,0,0,0	to_hand	s572
187.766	0.28	0	PA_without_intermediate	1,0,0,0,0,0,3,2,0	test	ward_and_allport	0,0,0,1,0,0,3,2,0	82.0	15.0	0.28	1,2,3,0,0,0,0,0,0	to_board	s572
188.051	0.381	0	PA_without_intermediate	0,0,0,0,0,0,3,2,0	test	ward_and_allport	0,0,0,1,0,0,3,2,0	89.0	15.0	0.381	1,2,3,0,0,0,0,0,0	to_hand	s572
188.432	0.222	0	PA_without_intermediate	0,0,0,1,0,0,3,2,0	test	ward_and_allport	0,0,0,1,0,0,3,2,0	71.0	15.0	0.222	1,2,3,0,0,0,0,0,0	to_board	s572
188.659	1.0	0	PA_without_intermediate	n/a	test	ward_and_allport	n/a	-1.0	15.0	n/a	n/a	feedback	s572
189.659	2.36	0	PA_without_intermediate	n/a	test	ward_and_allport	n/a	-1.0	15.0	n/a	n/a	ITI	s572
192.023	3.193	1	PA_without_intermediate	0,0,0,0,0,0,1,2,0	test	ward_and_allport	3,2,0,1,0,0,0,0,0	82.0	16.0	3.193	0,0,0,0,0,0,1,2,3	to_hand	s572
195.217	0.216	0	PA_without_intermediate	3,0,0,0,0,0,1,2,0	test	ward_and_allport	3,2,0,1,0,0,0,0,0	89.0	16.0	0.216	0,0,0,0,0,0,1,2,3	to_board	s572
195.437	0.333	0	PA_without_intermediate	3,0,0,0,0,0,1,0,0	test	ward_and_allport	3,2,0,1,0,0,0,0,0	82.0	16.0	0.333	0,0,0,0,0,0,1,2,3	to_hand	s572
195.771	0.538	0	PA_without_intermediate	3,2,0,0,0,0,1,0,0	test	ward_and_allport	3,2,0,1,0,0,0,0,0	89.0	16.0	0.538	0,0,0,0,0,0,1,2,3	to_board	s572
196.313	0.606	0	PA_without_intermediate	3,2,0,0,0,0,0,0,0	test	ward_and_allport	3,2,0,1,0,0,0,0,0	82.0	16.0	0.606	0,0,0,0,0,0,1,2,3	to_hand	s572
196.92	0.226	0	PA_without_intermediate	3,2,0,1,0,0,0,0,0	test	ward_and_allport	3,2,0,1,0,0,0,0,0	71.0	16.0	0.226	0,0,0,0,0,0,1,2,3	to_board	s572
197.155	1.0	0	PA_without_intermediate	n/a	test	ward_and_allport	n/a	-1.0	16.0	n/a	n/a	feedback	s572
198.155	1.0	0	PA_without_intermediate	n/a	test	ward_and_allport	n/a	-1.0	16.0	n/a	n/a	ITI	s572
199.16	2.632	1	PA_without_intermediate	0,0,0,0,0,0,1,2,0	test	ward_and_allport	3,2,0,1,0,0,0,0,0	82.0	17.0	2.632	0,0,0,0,0,0,1,2,3	to_hand	s572
201.793	0.208	0	PA_without_intermediate	3,0,0,0,0,0,1,2,0	test	ward_and_allport	3,2,0,1,0,0,0,0,0	89.0	17.0	0.208	0,0,0,0,0,0,1,2,3	to_board	s572
202.006	0.324	0	PA_without_intermediate	3,0,0,0,0,0,1,0,0	test	ward_and_allport	3,2,0,1,0,0,0,0,0	82.0	17.0	0.324	0,0,0,0,0,0,1,2,3	to_hand	s572
202.331	0.333	0	PA_without_intermediate	3,2,0,0,0,0,1,0,0	test	ward_and_allport	3,2,0,1,0,0,0,0,0	89.0	17.0	0.333	0,0,0,0,0,0,1,2,3	to_board	s572
202.668	0.654	0	PA_without_intermediate	3,2,0,0,0,0,0,0,0	test	ward_and_allport	3,2,0,1,0,0,0,0,0	82.0	17.0	0.654	0,0,0,0,0,0,1,2,3	to_hand	s572
203.324	0.243	0	PA_without_intermediate	3,2,0,1,0,0,0,0,0	test	ward_and_allport	3,2,0,1,0,0,0,0,0	71.0	17.0	0.243	0,0,0,0,0,0,1,2,3	to_board	s572
203.574	1.0	0	PA_without_intermediate	n/a	test	ward_and_allport	n/a	-1.0	17.0	n/a	n/a	feedback	s572
204.574	1.408	0	PA_without_intermediate	n/a	test	ward_and_allport	n/a	-1.0	17.0	n/a	n/a	ITI	s572
205.987	3.576	1	PA_with_intermediate	0,0,0,0,0,0,1,2,0	test	ward_and_allport	2,0,0,0,0,0,1,3,0	82.0	18.0	3.576	0,0,0,0,0,0,1,2,3	to_hand	s572
209.564	0.26	0	PA_with_intermediate	0,0,0,3,0,0,1,2,0	test	ward_and_allport	2,0,0,0,0,0,1,3,0	71.0	18.0	0.26	0,0,0,0,0,0,1,2,3	to_board	s572
209.829	0.609	0	PA_with_intermediate	0,0,0,3,0,0,1,0,0	test	ward_and_allport	2,0,0,0,0,0,1,3,0	82.0	18.0	0.609	0,0,0,0,0,0,1,2,3	to_hand	s572
210.439	0.199	0	PA_with_intermediate	2,0,0,3,0,0,1,0,0	test	ward_and_allport	2,0,0,0,0,0,1,3,0	89.0	18.0	0.199	0,0,0,0,0,0,1,2,3	to_board	s572
210.643	0.698	0	PA_with_intermediate	2,0,0,0,0,0,1,0,0	test	ward_and_allport	2,0,0,0,0,0,1,3,0	71.0	18.0	0.698	0,0,0,0,0,0,1,2,3	to_hand	s572
211.343	0.209	0	PA_with_intermediate	2,0,0,0,0,0,1,3,0	test	ward_and_allport	2,0,0,0,0,0,1,3,0	82.0	18.0	0.209	0,0,0,0,0,0,1,2,3	to_board	s572
211.558	1.0	0	PA_with_intermediate	n/a	test	ward_and_allport	n/a	-1.0	18.0	n/a	n/a	feedback	s572
212.558	1.136	0	PA_with_intermediate	n/a	test	ward_and_allport	n/a	-1.0	18.0	n/a	n/a	ITI	s572
213.699	2.526	1	PA_without_intermediate	1,2,0,0,0,0,0,0,0	test	ward_and_allport	0,0,0,2,0,0,3,1,0	89.0	19.0	2.526	1,2,3,0,0,0,0,0,0	to_hand	s572
216.226	0.223	0	PA_without_intermediate	1,2,0,0,0,0,3,0,0	test	ward_and_allport	0,0,0,2,0,0,3,1,0	82.0	19.0	0.223	1,2,3,0,0,0,0,0,0	to_board	s572
216.453	0.942	0	PA_without_intermediate	1,0,0,0,0,0,3,0,0	test	ward_and_allport	0,0,0,2,0,0,3,1,0	89.0	19.0	0.942	1,2,3,0,0,0,0,0,0	to_hand	s572
217.397	0.311	0	PA_without_intermediate	1,0,0,2,0,0,3,0,0	test	ward_and_allport	0,0,0,2,0,0,3,1,0	71.0	19.0	0.311	1,2,3,0,0,0,0,0,0	to_board	s572
217.713	1.001	0	PA_without_intermediate	0,0,0,2,0,0,3,0,0	test	ward_and_allport	0,0,0,2,0,0,3,1,0	89.0	19.0	1.001	1,2,3,0,0,0,0,0,0	to_hand	s572
218.714	0.222	0	PA_without_intermediate	0,0,0,2,0,0,3,1,0	test	ward_and_allport	0,0,0,2,0,0,3,1,0	82.0	19.0	0.222	1,2,3,0,0,0,0,0,0	to_board	s572
218.945	1.0	0	PA_without_intermediate	n/a	test	ward_and_allport	n/a	-1.0	19.0	n/a	n/a	feedback	s572
219.945	4.128	0	PA_without_intermediate	n/a	test	ward_and_allport	n/a	-1.0	19.0	n/a	n/a	ITI	s572
224.077	3.397	1	PA_without_intermediate	0,0,0,1,2,0,0,0,0	test	ward_and_allport	3,1,0,0,0,0,2,0,0	71.0	20.0	3.397	0,0,0,1,2,3,0,0,0	to_hand	s572
227.476	0.231	0	PA_without_intermediate	3,0,0,1,2,0,0,0,0	test	ward_and_allport	3,1,0,0,0,0,2,0,0	89.0	20.0	0.231	0,0,0,1,2,3,0,0,0	to_board	s572
227.711	0.342	0	PA_without_intermediate	3,0,0,1,0,0,0,0,0	test	ward_and_allport	3,1,0,0,0,0,2,0,0	71.0	20.0	0.342	0,0,0,1,2,3,0,0,0	to_hand	s572
228.054	0.329	0	PA_without_intermediate	3,0,0,1,0,0,2,0,0	test	ward_and_allport	3,1,0,0,0,0,2,0,0	82.0	20.0	0.329	0,0,0,1,2,3,0,0,0	to_board	s572
228.389	0.409	0	PA_without_intermediate	3,0,0,0,0,0,2,0,0	test	ward_and_allport	3,1,0,0,0,0,2,0,0	71.0	20.0	0.409	0,0,0,1,2,3,0,0,0	to_hand	s572
228.799	0.38	0	PA_without_intermediate	3,1,0,0,0,0,2,0,0	test	ward_and_allport	3,1,0,0,0,0,2,0,0	89.0	20.0	0.38	0,0,0,1,2,3,0,0,0	to_board	s572
229.187	1.0	0	PA_without_intermediate	n/a	test	ward_and_allport	n/a	-1.0	20.0	n/a	n/a	feedback	s572
230.187	1.136	0	PA_without_intermediate	n/a	test	ward_and_allport	n/a	-1.0	20.0	n/a	n/a	ITI	s572
231.329	3.991	1	PA_without_intermediate	0,0,0,1,2,0,0,0,0	test	ward_and_allport	1,0,0,0,0,0,3,2,0	71.0	21.0	3.991	0,0,0,1,2,3,0,0,0	to_hand	s572
235.321	0.244	0	PA_without_intermediate	0,0,0,1,2,0,3,0,0	test	ward_and_allport	1,0,0,0,0,0,3,2,0	82.0	21.0	0.244	0,0,0,1,2,3,0,0,0	to_board	s572
235.569	0.436	0	PA_without_intermediate	0,0,0,1,0,0,3,0,0	test	ward_and_allport	1,0,0,0,0,0,3,2,0	71.0	21.0	0.436	0,0,0,1,2,3,0,0,0	to_hand	s572
236.007	0.292	0	PA_without_intermediate	0,0,0,1,0,0,3,2,0	test	ward_and_allport	1,0,0,0,0,0,3,2,0	82.0	21.0	0.292	0,0,0,1,2,3,0,0,0	to_board	s572
236.304	0.459	0	PA_without_intermediate	0,0,0,0,0,0,3,2,0	test	ward_and_allport	1,0,0,0,0,0,3,2,0	71.0	21.0	0.459	0,0,0,1,2,3,0,0,0	to_hand	s572
236.765	0.196	0	PA_without_intermediate	1,0,0,0,0,0,3,2,0	test	ward_and_allport	1,0,0,0,0,0,3,2,0	89.0	21.0	0.196	0,0,0,1,2,3,0,0,0	to_board	s572
236.97	1.0	0	PA_without_intermediate	n/a	test	ward_and_allport	n/a	-1.0	21.0	n/a	n/a	feedback	s572
237.97	4.264	0	PA_without_intermediate	n/a	test	ward_and_allport	n/a	-1.0	21.0	n/a	n/a	ITI	s572
242.238	3.626	1	PA_with_intermediate	1,2,0,0,0,0,0,0,0	test	ward_and_allport	1,0,0,2,3,0,0,0,0	89.0	22.0	3.626	1,2,3,0,0,0,0,0,0	to_hand	s572
245.865	0.26	0	PA_with_intermediate	1,2,0,0,0,0,3,0,0	test	ward_and_allport	1,0,0,2,3,0,0,0,0	82.0	22.0	0.26	1,2,3,0,0,0,0,0,0	to_board	s572
246.131	0.415	0	PA_with_intermediate	1,0,0,0,0,0,3,0,0	test	ward_and_allport	1,0,0,2,3,0,0,0,0	89.0	22.0	0.415	1,2,3,0,0,0,0,0,0	to_hand	s572
246.547	0.204	0	PA_with_intermediate	1,0,0,2,0,0,3,0,0	test	ward_and_allport	1,0,0,2,3,0,0,0,0	71.0	22.0	0.204	1,2,3,0,0,0,0,0,0	to_board	s572
246.757	0.284	0	PA_with_intermediate	1,0,0,2,0,0,0,0,0	test	ward_and_allport	1,0,0,2,3,0,0,0,0	82.0	22.0	0.284	1,2,3,0,0,0,0,0,0	to_hand	s572
247.043	0.243	0	PA_with_intermediate	1,0,0,2,3,0,0,0,0	test	ward_and_allport	1,0,0,2,3,0,0,0,0	71.0	22.0	0.243	1,2,3,0,0,0,0,0,0	to_board	s572
247.293	1.0	0	PA_with_intermediate	n/a	test	ward_and_allport	n/a	-1.0	22.0	n/a	n/a	feedback	s572
248.293	3.04	0	PA_with_intermediate	n/a	test	ward_and_allport	n/a	-1.0	22.0	n/a	n/a	ITI	s572
251.337	3.268	1	PA_with_intermediate	1,2,0,0,0,0,0,0,0	test	ward_and_allport	1,3,0,0,0,0,2,0,0	89.0	23.0	3.268	1,2,3,0,0,0,0,0,0	to_hand	s572
254.606	0.18	0	PA_with_intermediate	1,2,0,3,0,0,0,0,0	test	ward_and_allport	1,3,0,0,0,0,2,0,0	71.0	23.0	0.18	1,2,3,0,0,0,0,0,0	to_board	s572
254.793	0.348	0	PA_with_intermediate	1,0,0,3,0,0,0,0,0	test	ward_and_allport	1,3,0,0,0,0,2,0,0	89.0	23.0	0.348	1,2,3,0,0,0,0,0,0	to_hand	s572
255.141	0.343	0	PA_with_intermediate	1,0,0,3,0,0,2,0,0	test	ward_and_allport	1,3,0,0,0,0,2,0,0	82.0	23.0	0.343	1,2,3,0,0,0,0,0,0	to_board	s572
255.49	0.372	0	PA_with_intermediate	1,0,0,0,0,0,2,0,0	test	ward_and_allport	1,3,0,0,0,0,2,0,0	71.0	23.0	0.372	1,2,3,0,0,0,0,0,0	to_hand	s572
255.863	0.188	0	PA_with_intermediate	1,3,0,0,0,0,2,0,0	test	ward_and_allport	1,3,0,0,0,0,2,0,0	89.0	23.0	0.188	1,2,3,0,0,0,0,0,0	to_board	s572
256.061	1.0	0	PA_with_intermediate	n/a	test	ward_and_allport	n/a	-1.0	23.0	n/a	n/a	feedback	s572
257.061	1.136	0	PA_with_intermediate	n/a	test	ward_and_allport	n/a	-1.0	23.0	n/a	n/a	ITI	s572
258.204	3.185	1	PA_with_intermediate	0,0,0,0,0,0,1,2,0	test	ward_and_allport	0,0,0,2,0,0,1,3,0	82.0	24.0	3.185	0,0,0,0,0,0,1,2,3	to_hand	s572
261.39	0.232	0	PA_with_intermediate	3,0,0,0,0,0,1,2,0	test	ward_and_allport	0,0,0,2,0,0,1,3,0	89.0	24.0	0.232	0,0,0,0,0,0,1,2,3	to_board	s572
261.629	0.328	0	PA_with_intermediate	3,0,0,0,0,0,1,0,0	test	ward_and_allport	0,0,0,2,0,0,1,3,0	82.0	24.0	0.328	0,0,0,0,0,0,1,2,3	to_hand	s572
261.958	0.223	0	PA_with_intermediate	3,0,0,2,0,0,1,0,0	test	ward_and_allport	0,0,0,2,0,0,1,3,0	71.0	24.0	0.223	0,0,0,0,0,0,1,2,3	to_board	s572
262.187	0.349	0	PA_with_intermediate	0,0,0,2,0,0,1,0,0	test	ward_and_allport	0,0,0,2,0,0,1,3,0	89.0	24.0	0.349	0,0,0,0,0,0,1,2,3	to_hand	s572
262.537	0.201	0	PA_with_intermediate	0,0,0,2,0,0,1,3,0	test	ward_and_allport	0,0,0,2,0,0,1,3,0	82.0	24.0	0.201	0,0,0,0,0,0,1,2,3	to_board	s572
262.749	1.0	0	PA_with_intermediate	n/a	test	ward_and_allport	n/a	-1.0	24.0	n/a	n/a	feedback	s572
263.749	1.408	0	PA_with_intermediate	n/a	test	ward_and_allport	n/a	-1.0	24.0	n/a	n/a	ITI	s572
265.164	7.191	1	PA_without_intermediate	0,0,0,1,2,0,0,0,0	test	ward_and_allport	2,0,0,0,0,0,3,1,0	71.0	25.0	7.191	0,0,0,1,2,3,0,0,0	to_hand	s572
272.355	0.258	0	PA_without_intermediate	0,0,0,1,2,0,3,0,0	test	ward_and_allport	2,0,0,0,0,0,3,1,0	82.0	25.0	0.258	0,0,0,1,2,3,0,0,0	to_board	s572
272.619	0.507	0	PA_without_intermediate	0,0,0,1,0,0,3,0,0	test	ward_and_allport	2,0,0,0,0,0,3,1,0	71.0	25.0	0.507	0,0,0,1,2,3,0,0,0	to_hand	s572
273.128	0.272	0	PA_without_intermediate	2,0,0,1,0,0,3,0,0	test	ward_and_allport	2,0,0,0,0,0,3,1,0	89.0	25.0	0.272	0,0,0,1,2,3,0,0,0	to_board	s572
273.406	1.383	0	PA_without_intermediate	2,0,0,1,0,0,0,0,0	test	ward_and_allport	2,0,0,0,0,0,3,1,0	82.0	25.0	1.383	0,0,0,1,2,3,0,0,0	to_hand	s572
274.79	0.219	0	PA_without_intermediate	2,3,0,1,0,0,0,0,0	test	ward_and_allport	2,0,0,0,0,0,3,1,0	89.0	25.0	0.219	0,0,0,1,2,3,0,0,0	to_board	s572
275.015	0.401	0	PA_without_intermediate	2,3,0,0,0,0,0,0,0	test	ward_and_allport	2,0,0,0,0,0,3,1,0	71.0	25.0	0.401	0,0,0,1,2,3,0,0,0	to_hand	s572
275.417	0.244	0	PA_without_intermediate	2,3,0,0,0,0,1,0,0	test	ward_and_allport	2,0,0,0,0,0,3,1,0	82.0	25.0	0.244	0,0,0,1,2,3,0,0,0	to_board	s572
275.667	0.713	0	PA_without_intermediate	2,0,0,0,0,0,1,0,0	test	ward_and_allport	2,0,0,0,0,0,3,1,0	89.0	25.0	0.713	0,0,0,1,2,3,0,0,0	to_hand	s572
276.381	0.23	0	PA_without_intermediate	2,0,0,0,0,0,1,3,0	test	ward_and_allport	2,0,0,0,0,0,3,1,0	82.0	25.0	0.23	0,0,0,1,2,3,0,0,0	to_board	s572
276.617	1.07	0	PA_without_intermediate	2,0,0,0,0,0,1,0,0	test	ward_and_allport	2,0,0,0,0,0,3,1,0	82.0	25.0	1.07	0,0,0,1,2,3,0,0,0	to_hand	s572
277.687	0.27	0	PA_without_intermediate	2,3,0,0,0,0,1,0,0	test	ward_and_allport	2,0,0,0,0,0,3,1,0	89.0	25.0	0.27	0,0,0,1,2,3,0,0,0	to_board	s572
277.963	1.031	0	PA_without_intermediate	2,3,0,0,0,0,0,0,0	test	ward_and_allport	2,0,0,0,0,0,3,1,0	82.0	25.0	1.031	0,0,0,1,2,3,0,0,0	to_hand	s572
278.994	0.167	0	PA_without_intermediate	2,3,0,1,0,0,0,0,0	test	ward_and_allport	2,0,0,0,0,0,3,1,0	71.0	25.0	0.167	0,0,0,1,2,3,0,0,0	to_board	s572
279.166	0.89	0	PA_without_intermediate	2,0,0,1,0,0,0,0,0	test	ward_and_allport	2,0,0,0,0,0,3,1,0	89.0	25.0	0.89	0,0,0,1,2,3,0,0,0	to_hand	s572
280.057	0.299	0	PA_without_intermediate	2,0,0,1,0,0,3,0,0	test	ward_and_allport	2,0,0,0,0,0,3,1,0	82.0	25.0	0.299	0,0,0,1,2,3,0,0,0	to_board	s572
280.361	0.331	0	PA_without_intermediate	2,0,0,0,0,0,3,0,0	test	ward_and_allport	2,0,0,0,0,0,3,1,0	71.0	25.0	0.331	0,0,0,1,2,3,0,0,0	to_hand	s572
280.693	0.207	0	PA_without_intermediate	2,0,0,0,0,0,3,1,0	test	ward_and_allport	2,0,0,0,0,0,3,1,0	82.0	25.0	0.207	0,0,0,1,2,3,0,0,0	to_board	s572
280.907	1.0	0	PA_without_intermediate	n/a	test	ward_and_allport	n/a	-1.0	25.0	n/a	n/a	feedback	s572
281.907	1.68	0	PA_without_intermediate	n/a	test	ward_and_allport	n/a	-1.0	25.0	n/a	n/a	ITI	s572
283.592	4.444	1	PA_with_intermediate	1,2,0,0,0,0,0,0,0	test	ward_and_allport	1,0,0,2,3,0,0,0,0	89.0	26.0	4.444	1,2,3,0,0,0,0,0,0	to_hand	s572
288.037	0.205	0	PA_with_intermediate	1,2,0,0,0,0,3,0,0	test	ward_and_allport	1,0,0,2,3,0,0,0,0	82.0	26.0	0.205	1,2,3,0,0,0,0,0,0	to_board	s572
288.248	0.331	0	PA_with_intermediate	1,0,0,0,0,0,3,0,0	test	ward_and_allport	1,0,0,2,3,0,0,0,0	89.0	26.0	0.331	1,2,3,0,0,0,0,0,0	to_hand	s572
288.58	0.227	0	PA_with_intermediate	1,0,0,2,0,0,3,0,0	test	ward_and_allport	1,0,0,2,3,0,0,0,0	71.0	26.0	0.227	1,2,3,0,0,0,0,0,0	to_board	s572
288.814	0.343	0	PA_with_intermediate	1,0,0,2,0,0,0,0,0	test	ward_and_allport	1,0,0,2,3,0,0,0,0	82.0	26.0	0.343	1,2,3,0,0,0,0,0,0	to_hand	s572
289.159	0.255	0	PA_with_intermediate	1,0,0,2,3,0,0,0,0	test	ward_and_allport	1,0,0,2,3,0,0,0,0	71.0	26.0	0.255	1,2,3,0,0,0,0,0,0	to_board	s572
289.425	1.0	0	PA_with_intermediate	n/a	test	ward_and_allport	n/a	-1.0	26.0	n/a	n/a	feedback	s572
290.425	3.72	0	PA_with_intermediate	n/a	test	ward_and_allport	n/a	-1.0	26.0	n/a	n/a	ITI	s572
294.152	3.634	1	PA_without_intermediate	0,0,0,1,2,0,0,0,0	test	ward_and_allport	1,0,0,0,0,0,3,2,0	71.0	27.0	3.634	0,0,0,1,2,3,0,0,0	to_hand	s572
297.786	0.392	0	PA_without_intermediate	0,0,0,1,2,0,3,0,0	test	ward_and_allport	1,0,0,0,0,0,3,2,0	82.0	27.0	0.392	0,0,0,1,2,3,0,0,0	to_board	s572
298.185	0.363	0	PA_without_intermediate	0,0,0,1,0,0,3,0,0	test	ward_and_allport	1,0,0,0,0,0,3,2,0	71.0	27.0	0.363	0,0,0,1,2,3,0,0,0	to_hand	s572
298.549	0.255	0	PA_without_intermediate	0,0,0,1,0,0,3,2,0	test	ward_and_allport	1,0,0,0,0,0,3,2,0	82.0	27.0	0.255	0,0,0,1,2,3,0,0,0	to_board	s572
298.811	0.322	0	PA_without_intermediate	0,0,0,0,0,0,3,2,0	test	ward_and_allport	1,0,0,0,0,0,3,2,0	71.0	27.0	0.322	0,0,0,1,2,3,0,0,0	to_hand	s572
299.133	0.197	0	PA_without_intermediate	1,0,0,0,0,0,3,2,0	test	ward_and_allport	1,0,0,0,0,0,3,2,0	89.0	27.0	0.197	0,0,0,1,2,3,0,0,0	to_board	s572
299.337	1.0	0	PA_without_intermediate	n/a	test	ward_and_allport	n/a	-1.0	27.0	n/a	n/a	feedback	s572
300.337	2.224	0	PA_without_intermediate	n/a	test	ward_and_allport	n/a	-1.0	27.0	n/a	n/a	ITI	s572
302.568	4.078	1	PA_without_intermediate	0,0,0,1,2,0,0,0,0	test	ward_and_allport	2,0,0,0,0,0,3,1,0	71.0	28.0	4.078	0,0,0,1,2,3,0,0,0	to_hand	s572
306.647	0.199	0	PA_without_intermediate	0,0,0,1,2,0,3,0,0	test	ward_and_allport	2,0,0,0,0,0,3,1,0	82.0	28.0	0.199	0,0,0,1,2,3,0,0,0	to_board	s572
306.853	0.255	0	PA_without_intermediate	0,0,0,1,0,0,3,0,0	test	ward_and_allport	2,0,0,0,0,0,3,1,0	71.0	28.0	0.255	0,0,0,1,2,3,0,0,0	to_hand	s572
307.109	0.275	0	PA_without_intermediate	2,0,0,1,0,0,3,0,0	test	ward_and_allport	2,0,0,0,0,0,3,1,0	89.0	28.0	0.275	0,0,0,1,2,3,0,0,0	to_board	s572
307.391	0.397	0	PA_without_intermediate	2,0,0,0,0,0,3,0,0	test	ward_and_allport	2,0,0,0,0,0,3,1,0	71.0	28.0	0.397	0,0,0,1,2,3,0,0,0	to_hand	s572
307.789	0.219	0	PA_without_intermediate	2,0,0,0,0,0,3,1,0	test	ward_and_allport	2,0,0,0,0,0,3,1,0	82.0	28.0	0.219	0,0,0,1,2,3,0,0,0	to_board	s572
308.017	1.0	0	PA_without_intermediate	n/a	test	ward_and_allport	n/a	-1.0	28.0	n/a	n/a	feedback	s572
309.017	1.272	0	PA_without_intermediate	n/a	test	ward_and_allport	n/a	-1.0	28.0	n/a	n/a	ITI	s572
310.296	3.89	1	PA_with_intermediate	1,2,0,0,0,0,0,0,0	test	ward_and_allport	1,3,0,2,0,0,0,0,0	89.0	29.0	3.89	1,2,3,0,0,0,0,0,0	to_hand	s572
314.188	0.193	0	PA_with_intermediate	1,2,0,0,0,0,3,0,0	test	ward_and_allport	1,3,0,2,0,0,0,0,0	82.0	29.0	0.193	1,2,3,0,0,0,0,0,0	to_board	s572
314.387	0.475	0	PA_with_intermediate	1,0,0,0,0,0,3,0,0	test	ward_and_allport	1,3,0,2,0,0,0,0,0	89.0	29.0	0.475	1,2,3,0,0,0,0,0,0	to_hand	s572
314.864	0.195	0	PA_with_intermediate	1,0,0,2,0,0,3,0,0	test	ward_and_allport	1,3,0,2,0,0,0,0,0	71.0	29.0	0.195	1,2,3,0,0,0,0,0,0	to_board	s572
315.067	0.625	0	PA_with_intermediate	1,0,0,2,0,0,0,0,0	test	ward_and_allport	1,3,0,2,0,0,0,0,0	82.0	29.0	0.625	1,2,3,0,0,0,0,0,0	to_hand	s572
315.693	0.165	0	PA_with_intermediate	1,3,0,2,0,0,0,0,0	test	ward_and_allport	1,3,0,2,0,0,0,0,0	89.0	29.0	0.165	1,2,3,0,0,0,0,0,0	to_board	s572
315.869	1.0	0	PA_with_intermediate	n/a	test	ward_and_allport	n/a	-1.0	29.0	n/a	n/a	feedback	s572
316.869	2.632	0	PA_with_intermediate	n/a	test	ward_and_allport	n/a	-1.0	29.0	n/a	n/a	ITI	s572
324.512	3.436	1	PA_without_intermediate	1,2,0,0,0,0,0,0,0	test	ward_and_allport	0,0,0,1,0,0,3,2,0	89.0	30.0	3.436	1,2,3,0,0,0,0,0,0	to_hand	s572
327.949	0.224	0	PA_without_intermediate	1,2,0,0,0,0,3,0,0	test	ward_and_allport	0,0,0,1,0,0,3,2,0	82.0	30.0	0.224	1,2,3,0,0,0,0,0,0	to_board	s572
328.182	0.38	0	PA_without_intermediate	1,0,0,0,0,0,3,0,0	test	ward_and_allport	0,0,0,1,0,0,3,2,0	89.0	30.0	0.38	1,2,3,0,0,0,0,0,0	to_hand	s572
328.562	0.235	0	PA_without_intermediate	1,0,0,0,0,0,3,2,0	test	ward_and_allport	0,0,0,1,0,0,3,2,0	82.0	30.0	0.235	1,2,3,0,0,0,0,0,0	to_board	s572
328.805	0.371	0	PA_without_intermediate	0,0,0,0,0,0,3,2,0	test	ward_and_allport	0,0,0,1,0,0,3,2,0	89.0	30.0	0.371	1,2,3,0,0,0,0,0,0	to_hand	s572
329.177	0.19	0	PA_without_intermediate	0,0,0,1,0,0,3,2,0	test	ward_and_allport	0,0,0,1,0,0,3,2,0	71.0	30.0	0.19	1,2,3,0,0,0,0,0,0	to_board	s572
329.381	1.0	0	PA_without_intermediate	n/a	test	ward_and_allport	n/a	-1.0	30.0	n/a	n/a	feedback	s572
330.381	1.408	0	PA_without_intermediate	n/a	test	ward_and_allport	n/a	-1.0	30.0	n/a	n/a	ITI	s572
331.797	2.755	1	PA_without_intermediate	1,2,0,0,0,0,0,0,0	test	ward_and_allport	0,0,0,3,1,0,2,0,0	89.0	31.0	2.755	1,2,3,0,0,0,0,0,0	to_hand	s572
334.552	0.232	0	PA_without_intermediate	1,2,0,3,0,0,0,0,0	test	ward_and_allport	0,0,0,3,1,0,2,0,0	71.0	31.0	0.232	1,2,3,0,0,0,0,0,0	to_board	s572
334.79	0.493	0	PA_without_intermediate	1,0,0,3,0,0,0,0,0	test	ward_and_allport	0,0,0,3,1,0,2,0,0	89.0	31.0	0.493	1,2,3,0,0,0,0,0,0	to_hand	s572
335.284	0.409	0	PA_without_intermediate	1,0,0,3,0,0,2,0,0	test	ward_and_allport	0,0,0,3,1,0,2,0,0	82.0	31.0	0.409	1,2,3,0,0,0,0,0,0	to_board	s572
335.7	0.325	0	PA_without_intermediate	0,0,0,3,0,0,2,0,0	test	ward_and_allport	0,0,0,3,1,0,2,0,0	89.0	31.0	0.325	1,2,3,0,0,0,0,0,0	to_hand	s572
336.026	0.171	0	PA_without_intermediate	0,0,0,3,1,0,2,0,0	test	ward_and_allport	0,0,0,3,1,0,2,0,0	71.0	31.0	0.171	1,2,3,0,0,0,0,0,0	to_board	s572
336.21	1.0	0	PA_without_intermediate	n/a	test	ward_and_allport	n/a	-1.0	31.0	n/a	n/a	feedback	s572
337.21	1.0	0	PA_without_intermediate	n/a	test	ward_and_allport	n/a	-1.0	31.0	n/a	n/a	ITI	s572
338.216	3.811	1	PA_with_intermediate	1,2,0,0,0,0,0,0,0	test	ward_and_allport	1,3,0,2,0,0,0,0,0	89.0	32.0	3.811	1,2,3,0,0,0,0,0,0	to_hand	s572
342.029	0.227	0	PA_with_intermediate	1,2,0,0,0,0,3,0,0	test	ward_and_allport	1,3,0,2,0,0,0,0,0	82.0	32.0	0.227	1,2,3,0,0,0,0,0,0	to_board	s572
342.261	0.282	0	PA_with_intermediate	1,0,0,0,0,0,3,0,0	test	ward_and_allport	1,3,0,2,0,0,0,0,0	89.0	32.0	0.282	1,2,3,0,0,0,0,0,0	to_hand	s572
342.544	0.275	0	PA_with_intermediate	1,0,0,2,0,0,3,0,0	test	ward_and_allport	1,3,0,2,0,0,0,0,0	71.0	32.0	0.275	1,2,3,0,0,0,0,0,0	to_board	s572
342.826	0.279	0	PA_with_intermediate	1,0,0,2,0,0,0,0,0	test	ward_and_allport	1,3,0,2,0,0,0,0,0	82.0	32.0	0.279	1,2,3,0,0,0,0,0,0	to_hand	s572
343.106	0.198	0	PA_with_intermediate	1,3,0,2,0,0,0,0,0	test	ward_and_allport	1,3,0,2,0,0,0,0,0	89.0	32.0	0.198	1,2,3,0,0,0,0,0,0	to_board	s572
343.315	1.0	0	PA_with_intermediate	n/a	test	ward_and_allport	n/a	-1.0	32.0	n/a	n/a	feedback	s572
344.315	1.0	0	PA_with_intermediate	n/a	test	ward_and_allport	n/a	-1.0	32.0	n/a	n/a	ITI	s572
345.324	3.979	1	PA_with_intermediate	1,2,0,0,0,0,0,0,0	test	ward_and_allport	1,3,0,0,0,0,2,0,0	89.0	33.0	3.979	1,2,3,0,0,0,0,0,0	to_hand	s572
349.304	0.206	0	PA_with_intermediate	1,2,0,3,0,0,0,0,0	test	ward_and_allport	1,3,0,0,0,0,2,0,0	71.0	33.0	0.206	1,2,3,0,0,0,0,0,0	to_board	s572
349.518	0.392	0	PA_with_intermediate	1,0,0,3,0,0,0,0,0	test	ward_and_allport	1,3,0,0,0,0,2,0,0	89.0	33.0	0.392	1,2,3,0,0,0,0,0,0	to_hand	s572
349.911	0.202	0	PA_with_intermediate	1,0,0,3,0,0,2,0,0	test	ward_and_allport	1,3,0,0,0,0,2,0,0	82.0	33.0	0.202	1,2,3,0,0,0,0,0,0	to_board	s572
350.123	0.457	0	PA_with_intermediate	1,0,0,0,0,0,2,0,0	test	ward_and_allport	1,3,0,0,0,0,2,0,0	71.0	33.0	0.457	1,2,3,0,0,0,0,0,0	to_hand	s572
350.582	0.177	0	PA_with_intermediate	1,3,0,0,0,0,2,0,0	test	ward_and_allport	1,3,0,0,0,0,2,0,0	89.0	33.0	0.177	1,2,3,0,0,0,0,0,0	to_board	s572
350.771	1.0	0	PA_with_intermediate	n/a	test	ward_and_allport	n/a	-1.0	33.0	n/a	n/a	feedback	s572
351.771	1.0	0	PA_with_intermediate	n/a	test	ward_and_allport	n/a	-1.0	33.0	n/a	n/a	ITI	s572
352.779	3.926	1	PA_with_intermediate	0,0,0,1,2,0,0,0,0	test	ward_and_allport	0,0,0,1,3,0,2,0,0	71.0	34.0	3.926	0,0,0,1,2,3,0,0,0	to_hand	s572
356.706	0.19	0	PA_with_intermediate	3,0,0,1,2,0,0,0,0	test	ward_and_allport	0,0,0,1,3,0,2,0,0	89.0	34.0	0.19	0,0,0,1,2,3,0,0,0	to_board	s572
356.902	0.284	0	PA_with_intermediate	3,0,0,1,0,0,0,0,0	test	ward_and_allport	0,0,0,1,3,0,2,0,0	71.0	34.0	0.284	0,0,0,1,2,3,0,0,0	to_hand	s572
357.187	0.252	0	PA_with_intermediate	3,0,0,1,0,0,2,0,0	test	ward_and_allport	0,0,0,1,3,0,2,0,0	82.0	34.0	0.252	0,0,0,1,2,3,0,0,0	to_board	s572
357.446	0.478	0	PA_with_intermediate	0,0,0,1,0,0,2,0,0	test	ward_and_allport	0,0,0,1,3,0,2,0,0	89.0	34.0	0.478	0,0,0,1,2,3,0,0,0	to_hand	s572
357.926	0.201	0	PA_with_intermediate	0,0,0,1,3,0,2,0,0	test	ward_and_allport	0,0,0,1,3,0,2,0,0	71.0	34.0	0.201	0,0,0,1,2,3,0,0,0	to_board	s572
358.139	1.0	0	PA_with_intermediate	n/a	test	ward_and_allport	n/a	-1.0	34.0	n/a	n/a	feedback	s572
359.139	1.408	0	PA_with_intermediate	n/a	test	ward_and_allport	n/a	-1.0	34.0	n/a	n/a	ITI	s572
360.556	4.937	1	PA_without_intermediate	0,0,0,0,0,0,1,2,0	test	ward_and_allport	1,0,0,3,2,0,0,0,0	82.0	35.0	4.937	0,0,0,0,0,0,1,2,3	to_hand	s572
365.495	0.264	0	PA_without_intermediate	0,0,0,3,0,0,1,2,0	test	ward_and_allport	1,0,0,3,2,0,0,0,0	71.0	35.0	0.264	0,0,0,0,0,0,1,2,3	to_board	s572
365.767	0.456	0	PA_without_intermediate	0,0,0,3,0,0,1,0,0	test	ward_and_allport	1,0,0,3,2,0,0,0,0	82.0	35.0	0.456	0,0,0,0,0,0,1,2,3	to_hand	s572
366.225	0.227	0	PA_without_intermediate	0,0,0,3,2,0,1,0,0	test	ward_and_allport	1,0,0,3,2,0,0,0,0	71.0	35.0	0.227	0,0,0,0,0,0,1,2,3	to_board	s572
366.46	0.986	0	PA_without_intermediate	0,0,0,3,2,0,0,0,0	test	ward_and_allport	1,0,0,3,2,0,0,0,0	82.0	35.0	0.986	0,0,0,0,0,0,1,2,3	to_hand	s572
367.447	0.182	0	PA_without_intermediate	1,0,0,3,2,0,0,0,0	test	ward_and_allport	1,0,0,3,2,0,0,0,0	89.0	35.0	0.182	0,0,0,0,0,0,1,2,3	to_board	s572
367.641	1.0	0	PA_without_intermediate	n/a	test	ward_and_allport	n/a	-1.0	35.0	n/a	n/a	feedback	s572
368.641	1.816	0	PA_without_intermediate	n/a	test	ward_and_allport	n/a	-1.0	35.0	n/a	n/a	ITI	s572
370.466	3.526	1	PA_with_intermediate	0,0,0,0,0,0,1,2,0	test	ward_and_allport	2,3,0,0,0,0,1,0,0	82.0	36.0	3.526	0,0,0,0,0,0,1,2,3	to_hand	s572
373.993	0.233	0	PA_with_intermediate	0,0,0,3,0,0,1,2,0	test	ward_and_allport	2,3,0,0,0,0,1,0,0	71.0	36.0	0.233	0,0,0,0,0,0,1,2,3	to_board	s572
374.235	0.389	0	PA_with_intermediate	0,0,0,3,0,0,1,0,0	test	ward_and_allport	2,3,0,0,0,0,1,0,0	82.0	36.0	0.389	0,0,0,0,0,0,1,2,3	to_hand	s572
374.625	0.178	0	PA_with_intermediate	2,0,0,3,0,0,1,0,0	test	ward_and_allport	2,3,0,0,0,0,1,0,0	89.0	36.0	0.178	0,0,0,0,0,0,1,2,3	to_board	s572
374.812	0.388	0	PA_with_intermediate	2,0,0,0,0,0,1,0,0	test	ward_and_allport	2,3,0,0,0,0,1,0,0	71.0	36.0	0.388	0,0,0,0,0,0,1,2,3	to_hand	s572
375.201	0.199	0	PA_with_intermediate	2,3,0,0,0,0,1,0,0	test	ward_and_allport	2,3,0,0,0,0,1,0,0	89.0	36.0	0.199	0,0,0,0,0,0,1,2,3	to_board	s572
375.412	1.0	0	PA_with_intermediate	n/a	test	ward_and_allport	n/a	-1.0	36.0	n/a	n/a	feedback	s572
376.412	3.176	0	PA_with_intermediate	n/a	test	ward_and_allport	n/a	-1.0	36.0	n/a	n/a	ITI	s572
379.594	3.952	1	PA_with_intermediate	0,0,0,0,0,0,1,2,0	test	ward_and_allport	0,0,0,2,3,0,1,0,0	82.0	37.0	3.952	0,0,0,0,0,0,1,2,3	to_hand	s572
383.548	0.202	0	PA_with_intermediate	3,0,0,0,0,0,1,2,0	test	ward_and_allport	0,0,0,2,3,0,1,0,0	89.0	37.0	0.202	0,0,0,0,0,0,1,2,3	to_board	s572
383.757	0.307	0	PA_with_intermediate	3,0,0,0,0,0,1,0,0	test	ward_and_allport	0,0,0,2,3,0,1,0,0	82.0	37.0	0.307	0,0,0,0,0,0,1,2,3	to_hand	s572
384.065	0.214	0	PA_with_intermediate	3,0,0,2,0,0,1,0,0	test	ward_and_allport	0,0,0,2,3,0,1,0,0	71.0	37.0	0.214	0,0,0,0,0,0,1,2,3	to_board	s572
384.289	0.354	0	PA_with_intermediate	0,0,0,2,0,0,1,0,0	test	ward_and_allport	0,0,0,2,3,0,1,0,0	89.0	37.0	0.354	0,0,0,0,0,0,1,2,3	to_hand	s572
384.645	0.185	0	PA_with_intermediate	0,0,0,2,3,0,1,0,0	test	ward_and_allport	0,0,0,2,3,0,1,0,0	71.0	37.0	0.185	0,0,0,0,0,0,1,2,3	to_board	s572
384.842	1.0	0	PA_with_intermediate	n/a	test	ward_and_allport	n/a	-1.0	37.0	n/a	n/a	feedback	s572
385.842	2.36	0	PA_with_intermediate	n/a	test	ward_and_allport	n/a	-1.0	37.0	n/a	n/a	ITI	s572
388.209	4.47	1	PA_with_intermediate	1,2,0,0,0,0,0,0,0	test	ward_and_allport	1,0,0,0,0,0,2,3,0	89.0	38.0	4.47	1,2,3,0,0,0,0,0,0	to_hand	s572
392.68	0.253	0	PA_with_intermediate	1,2,0,3,0,0,0,0,0	test	ward_and_allport	1,0,0,0,0,0,2,3,0	71.0	38.0	0.253	1,2,3,0,0,0,0,0,0	to_board	s572
392.942	0.238	0	PA_with_intermediate	1,0,0,3,0,0,0,0,0	test	ward_and_allport	1,0,0,0,0,0,2,3,0	89.0	38.0	0.238	1,2,3,0,0,0,0,0,0	to_hand	s572
393.181	0.199	0	PA_with_intermediate	1,0,0,3,0,0,2,0,0	test	ward_and_allport	1,0,0,0,0,0,2,3,0	82.0	38.0	0.199	1,2,3,0,0,0,0,0,0	to_board	s572
393.389	0.316	0	PA_with_intermediate	1,0,0,0,0,0,2,0,0	test	ward_and_allport	1,0,0,0,0,0,2,3,0	71.0	38.0	0.316	1,2,3,0,0,0,0,0,0	to_hand	s572
393.706	0.214	0	PA_with_intermediate	1,0,0,0,0,0,2,3,0	test	ward_and_allport	1,0,0,0,0,0,2,3,0	82.0	38.0	0.214	1,2,3,0,0,0,0,0,0	to_board	s572
393.93	1.0	0	PA_with_intermediate	n/a	test	ward_and_allport	n/a	-1.0	38.0	n/a	n/a	feedback	s572
394.93	1.0	0	PA_with_intermediate	n/a	test	ward_and_allport	n/a	-1.0	38.0	n/a	n/a	ITI	s572
395.937	3.92	1	PA_without_intermediate	1,2,0,0,0,0,0,0,0	test	ward_and_allport	0,0,0,3,2,0,1,0,0	89.0	39.0	3.92	1,2,3,0,0,0,0,0,0	to_hand	s572
399.857	0.177	0	PA_without_intermediate	1,2,0,3,0,0,0,0,0	test	ward_and_allport	0,0,0,3,2,0,1,0,0	71.0	39.0	0.177	1,2,3,0,0,0,0,0,0	to_board	s572
400.042	0.342	0	PA_without_intermediate	1,0,0,3,0,0,0,0,0	test	ward_and_allport	0,0,0,3,2,0,1,0,0	89.0	39.0	0.342	1,2,3,0,0,0,0,0,0	to_hand	s572
400.384	0.201	0	PA_without_intermediate	1,0,0,3,2,0,0,0,0	test	ward_and_allport	0,0,0,3,2,0,1,0,0	71.0	39.0	0.201	1,2,3,0,0,0,0,0,0	to_board	s572
400.595	0.332	0	PA_without_intermediate	0,0,0,3,2,0,0,0,0	test	ward_and_allport	0,0,0,3,2,0,1,0,0	89.0	39.0	0.332	1,2,3,0,0,0,0,0,0	to_hand	s572
400.927	0.179	0	PA_without_intermediate	0,0,0,3,2,0,1,0,0	test	ward_and_allport	0,0,0,3,2,0,1,0,0	82.0	39.0	0.179	1,2,3,0,0,0,0,0,0	to_board	s572
401.117	1.0	0	PA_without_intermediate	n/a	test	ward_and_allport	n/a	-1.0	39.0	n/a	n/a	feedback	s572
402.117	1.408	0	PA_without_intermediate	n/a	test	ward_and_allport	n/a	-1.0	39.0	n/a	n/a	ITI	s572
403.532	4.616	1	PA_with_intermediate	0,0,0,1,2,0,0,0,0	test	ward_and_allport	0,0,0,1,3,0,2,0,0	71.0	40.0	4.616	0,0,0,1,2,3,0,0,0	to_hand	s572
408.149	0.171	0	PA_with_intermediate	3,0,0,1,2,0,0,0,0	test	ward_and_allport	0,0,0,1,3,0,2,0,0	89.0	40.0	0.171	0,0,0,1,2,3,0,0,0	to_board	s572
408.327	0.547	0	PA_with_intermediate	3,0,0,1,0,0,0,0,0	test	ward_and_allport	0,0,0,1,3,0,2,0,0	71.0	40.0	0.547	0,0,0,1,2,3,0,0,0	to_hand	s572
408.875	0.192	0	PA_with_intermediate	3,0,0,1,0,0,2,0,0	test	ward_and_allport	0,0,0,1,3,0,2,0,0	82.0	40.0	0.192	0,0,0,1,2,3,0,0,0	to_board	s572
409.075	0.452	0	PA_with_intermediate	0,0,0,1,0,0,2,0,0	test	ward_and_allport	0,0,0,1,3,0,2,0,0	89.0	40.0	0.452	0,0,0,1,2,3,0,0,0	to_hand	s572
409.529	0.156	0	PA_with_intermediate	0,0,0,1,3,0,2,0,0	test	ward_and_allport	0,0,0,1,3,0,2,0,0	71.0	40.0	0.156	0,0,0,1,2,3,0,0,0	to_board	s572
409.696	1.0	0	PA_with_intermediate	n/a	test	ward_and_allport	n/a	-1.0	40.0	n/a	n/a	feedback	s572
410.696	1.816	0	PA_with_intermediate	n/a	test	ward_and_allport	n/a	-1.0	40.0	n/a	n/a	ITI	s572
412.521	3.591	1	PA_without_intermediate	1,2,0,0,0,0,0,0,0	test	ward_and_allport	0,0,0,2,0,0,3,1,0	89.0	41.0	3.591	1,2,3,0,0,0,0,0,0	to_hand	s572
416.114	0.204	0	PA_without_intermediate	1,2,0,0,0,0,3,0,0	test	ward_and_allport	0,0,0,2,0,0,3,1,0	82.0	41.0	0.204	1,2,3,0,0,0,0,0,0	to_board	s572
416.326	0.279	0	PA_without_intermediate	1,0,0,0,0,0,3,0,0	test	ward_and_allport	0,0,0,2,0,0,3,1,0	89.0	41.0	0.279	1,2,3,0,0,0,0,0,0	to_hand	s572
416.606	0.205	0	PA_without_intermediate	1,0,0,2,0,0,3,0,0	test	ward_and_allport	0,0,0,2,0,0,3,1,0	71.0	41.0	0.205	1,2,3,0,0,0,0,0,0	to_board	s572
416.819	0.282	0	PA_without_intermediate	0,0,0,2,0,0,3,0,0	test	ward_and_allport	0,0,0,2,0,0,3,1,0	89.0	41.0	0.282	1,2,3,0,0,0,0,0,0	to_hand	s572
417.102	0.357	0	PA_without_intermediate	0,0,0,2,0,0,3,1,0	test	ward_and_allport	0,0,0,2,0,0,3,1,0	82.0	41.0	0.357	1,2,3,0,0,0,0,0,0	to_board	s572
417.472	1.0	0	PA_without_intermediate	n/a	test	ward_and_allport	n/a	-1.0	41.0	n/a	n/a	feedback	s572
418.472	2.088	0	PA_without_intermediate	n/a	test	ward_and_allport	n/a	-1.0	41.0	n/a	n/a	ITI	s572
420.569	4.571	1	PA_without_intermediate	0,0,0,0,0,0,1,2,0	test	ward_and_allport	2,0,0,3,1,0,0,0,0	82.0	42.0	4.571	0,0,0,0,0,0,1,2,3	to_hand	s572
425.141	0.252	0	PA_without_intermediate	0,0,0,3,0,0,1,2,0	test	ward_and_allport	2,0,0,3,1,0,0,0,0	71.0	42.0	0.252	0,0,0,0,0,0,1,2,3	to_board	s572
425.4	1.237	0	PA_without_intermediate	0,0,0,3,0,0,1,0,0	test	ward_and_allport	2,0,0,3,1,0,0,0,0	82.0	42.0	1.237	0,0,0,0,0,0,1,2,3	to_hand	s572
426.638	0.234	0	PA_without_intermediate	2,0,0,3,0,0,1,0,0	test	ward_and_allport	2,0,0,3,1,0,0,0,0	89.0	42.0	0.234	0,0,0,0,0,0,1,2,3	to_board	s572
426.88	1.201	0	PA_without_intermediate	2,0,0,3,0,0,0,0,0	test	ward_and_allport	2,0,0,3,1,0,0,0,0	82.0	42.0	1.201	0,0,0,0,0,0,1,2,3	to_hand	s572
428.082	0.187	0	PA_without_intermediate	2,0,0,3,1,0,0,0,0	test	ward_and_allport	2,0,0,3,1,0,0,0,0	71.0	42.0	0.187	0,0,0,0,0,0,1,2,3	to_board	s572
428.28	1.0	0	PA_without_intermediate	n/a	test	ward_and_allport	n/a	-1.0	42.0	n/a	n/a	feedback	s572
429.28	1.136	0	PA_without_intermediate	n/a	test	ward_and_allport	n/a	-1.0	42.0	n/a	n/a	ITI	s572
430.424	2.917	1	PA_without_intermediate	0,0,0,1,2,0,0,0,0	test	ward_and_allport	3,2,0,0,0,0,1,0,0	71.0	43.0	2.917	0,0,0,1,2,3,0,0,0	to_hand	s572
433.342	0.207	0	PA_without_intermediate	3,0,0,1,2,0,0,0,0	test	ward_and_allport	3,2,0,0,0,0,1,0,0	89.0	43.0	0.207	0,0,0,1,2,3,0,0,0	to_board	s572
433.557	0.301	0	PA_without_intermediate	3,0,0,1,0,0,0,0,0	test	ward_and_allport	3,2,0,0,0,0,1,0,0	71.0	43.0	0.301	0,0,0,1,2,3,0,0,0	to_hand	s572
433.859	0.259	0	PA_without_intermediate	3,2,0,1,0,0,0,0,0	test	ward_and_allport	3,2,0,0,0,0,1,0,0	89.0	43.0	0.259	0,0,0,1,2,3,0,0,0	to_board	s572
434.129	0.52	0	PA_without_intermediate	3,2,0,0,0,0,0,0,0	test	ward_and_allport	3,2,0,0,0,0,1,0,0	71.0	43.0	0.52	0,0,0,1,2,3,0,0,0	to_hand	s572
434.649	0.211	0	PA_without_intermediate	3,2,0,0,0,0,1,0,0	test	ward_and_allport	3,2,0,0,0,0,1,0,0	82.0	43.0	0.211	0,0,0,1,2,3,0,0,0	to_board	s572
434.87	1.0	0	PA_without_intermediate	n/a	test	ward_and_allport	n/a	-1.0	43.0	n/a	n/a	feedback	s572
435.87	6.168	0	PA_without_intermediate	n/a	test	ward_and_allport	n/a	-1.0	43.0	n/a	n/a	ITI	s572
442.046	4.233	1	PA_without_intermediate	0,0,0,0,0,0,1,2,0	test	ward_and_allport	3,1,0,2,0,0,0,0,0	82.0	44.0	4.233	0,0,0,0,0,0,1,2,3	to_hand	s572
446.28	0.214	0	PA_without_intermediate	3,0,0,0,0,0,1,2,0	test	ward_and_allport	3,1,0,2,0,0,0,0,0	89.0	44.0	0.214	0,0,0,0,0,0,1,2,3	to_board	s572
446.504	0.273	0	PA_without_intermediate	3,0,0,0,0,0,1,0,0	test	ward_and_allport	3,1,0,2,0,0,0,0,0	82.0	44.0	0.273	0,0,0,0,0,0,1,2,3	to_hand	s572
446.778	0.237	0	PA_without_intermediate	3,0,0,2,0,0,1,0,0	test	ward_and_allport	3,1,0,2,0,0,0,0,0	71.0	44.0	0.237	0,0,0,0,0,0,1,2,3	to_board	s572
447.027	0.358	0	PA_without_intermediate	3,0,0,2,0,0,0,0,0	test	ward_and_allport	3,1,0,2,0,0,0,0,0	82.0	44.0	0.358	0,0,0,0,0,0,1,2,3	to_hand	s572
447.386	0.185	0	PA_without_intermediate	3,1,0,2,0,0,0,0,0	test	ward_and_allport	3,1,0,2,0,0,0,0,0	89.0	44.0	0.185	0,0,0,0,0,0,1,2,3	to_board	s572
447.582	1.0	0	PA_without_intermediate	n/a	test	ward_and_allport	n/a	-1.0	44.0	n/a	n/a	feedback	s572
448.582	1.816	0	PA_without_intermediate	n/a	test	ward_and_allport	n/a	-1.0	44.0	n/a	n/a	ITI	s572
455.412	5.204	1	PA_with_intermediate	0,0,0,1,2,0,0,0,0	test	ward_and_allport	2,3,0,1,0,0,0,0,0	71.0	45.0	5.204	0,0,0,1,2,3,0,0,0	to_hand	s572
460.617	0.186	0	PA_with_intermediate	0,0,0,1,2,0,3,0,0	test	ward_and_allport	2,3,0,1,0,0,0,0,0	82.0	45.0	0.186	0,0,0,1,2,3,0,0,0	to_board	s572
460.813	0.293	0	PA_with_intermediate	0,0,0,1,0,0,3,0,0	test	ward_and_allport	2,3,0,1,0,0,0,0,0	71.0	45.0	0.293	0,0,0,1,2,3,0,0,0	to_hand	s572
461.107	0.233	0	PA_with_intermediate	2,0,0,1,0,0,3,0,0	test	ward_and_allport	2,3,0,1,0,0,0,0,0	89.0	45.0	0.233	0,0,0,1,2,3,0,0,0	to_board	s572
461.351	0.641	0	PA_with_intermediate	2,0,0,1,0,0,0,0,0	test	ward_and_allport	2,3,0,1,0,0,0,0,0	82.0	45.0	0.641	0,0,0,1,2,3,0,0,0	to_hand	s572
461.992	0.197	0	PA_with_intermediate	2,3,0,1,0,0,0,0,0	test	ward_and_allport	2,3,0,1,0,0,0,0,0	89.0	45.0	0.197	0,0,0,1,2,3,0,0,0	to_board	s572
462.201	1.0	0	PA_with_intermediate	n/a	test	ward_and_allport	n/a	-1.0	45.0	n/a	n/a	feedback	s572
463.201	1.952	0	PA_with_intermediate	n/a	test	ward_and_allport	n/a	-1.0	45.0	n/a	n/a	ITI	s572
465.162	3.278	1	PA_with_intermediate	0,0,0,1,2,0,0,0,0	test	ward_and_allport	2,0,0,1,3,0,0,0,0	71.0	46.0	3.278	0,0,0,1,2,3,0,0,0	to_hand	s572
468.442	0.163	0	PA_with_intermediate	0,0,0,1,2,0,3,0,0	test	ward_and_allport	2,0,0,1,3,0,0,0,0	82.0	46.0	0.163	0,0,0,1,2,3,0,0,0	to_board	s572
468.612	0.318	0	PA_with_intermediate	0,0,0,1,0,0,3,0,0	test	ward_and_allport	2,0,0,1,3,0,0,0,0	71.0	46.0	0.318	0,0,0,1,2,3,0,0,0	to_hand	s572
468.931	0.194	0	PA_with_intermediate	2,0,0,1,0,0,3,0,0	test	ward_and_allport	2,0,0,1,3,0,0,0,0	89.0	46.0	0.194	0,0,0,1,2,3,0,0,0	to_board	s572
469.134	0.341	0	PA_with_intermediate	2,0,0,1,0,0,0,0,0	test	ward_and_allport	2,0,0,1,3,0,0,0,0	82.0	46.0	0.341	0,0,0,1,2,3,0,0,0	to_hand	s572
469.476	0.171	0	PA_with_intermediate	2,0,0,1,3,0,0,0,0	test	ward_and_allport	2,0,0,1,3,0,0,0,0	71.0	46.0	0.171	0,0,0,1,2,3,0,0,0	to_board	s572
469.658	1.0	0	PA_with_intermediate	n/a	test	ward_and_allport	n/a	-1.0	46.0	n/a	n/a	feedback	s572
470.658	1.136	0	PA_with_intermediate	n/a	test	ward_and_allport	n/a	-1.0	46.0	n/a	n/a	ITI	s572
471.803	3.573	1	PA_without_intermediate	1,2,0,0,0,0,0,0,0	test	ward_and_allport	0,0,0,3,1,0,2,0,0	89.0	47.0	3.573	1,2,3,0,0,0,0,0,0	to_hand	s572
475.376	0.141	0	PA_without_intermediate	1,2,0,3,0,0,0,0,0	test	ward_and_allport	0,0,0,3,1,0,2,0,0	71.0	47.0	0.141	1,2,3,0,0,0,0,0,0	to_board	s572
475.525	0.282	0	PA_without_intermediate	1,0,0,3,0,0,0,0,0	test	ward_and_allport	0,0,0,3,1,0,2,0,0	89.0	47.0	0.282	1,2,3,0,0,0,0,0,0	to_hand	s572
475.807	0.211	0	PA_without_intermediate	1,0,0,3,0,0,2,0,0	test	ward_and_allport	0,0,0,3,1,0,2,0,0	82.0	47.0	0.211	1,2,3,0,0,0,0,0,0	to_board	s572
476.026	0.394	0	PA_without_intermediate	0,0,0,3,0,0,2,0,0	test	ward_and_allport	0,0,0,3,1,0,2,0,0	89.0	47.0	0.394	1,2,3,0,0,0,0,0,0	to_hand	s572
476.421	0.183	0	PA_without_intermediate	0,0,0,3,1,0,2,0,0	test	ward_and_allport	0,0,0,3,1,0,2,0,0	71.0	47.0	0.183	1,2,3,0,0,0,0,0,0	to_board	s572
476.612	1.0	0	PA_without_intermediate	n/a	test	ward_and_allport	n/a	-1.0	47.0	n/a	n/a	feedback	s572
477.612	1.68	0	PA_without_intermediate	n/a	test	ward_and_allport	n/a	-1.0	47.0	n/a	n/a	ITI	s572
n/a	n/a	0	n/a	n/a	n/a	n/a	n/a	n/a	n/a	n/a	n/a	ITI	n/a
