onset	duration	condition	correct	correct_response	experiment_exp_id	key_press	response_time	stim_color	stim_word	trial_type	worker_id
3.515	1.5	incongruent	1.0	82.0	stroop	82	0.78	green	red	incongruent	s596
5.521	1.5	congruent	1.0	82.0	stroop	82	0.613	green	green	congruent	s596
7.525	1.5	incongruent	1.0	71.0	stroop	71	0.408	blue	red	incongruent	s596
9.803	1.5	incongruent	1.0	82.0	stroop	82	0.61	green	red	incongruent	s596
11.805	1.5	congruent	1.0	82.0	stroop	82	0.577	green	green	congruent	s596
13.943	1.5	congruent	1.0	71.0	stroop	71	0.532	blue	blue	congruent	s596
15.945	1.5	congruent	1.0	71.0	stroop	71	0.729	blue	blue	congruent	s596
18.086	1.5	congruent	1.0	71.0	stroop	71	0.544	blue	blue	congruent	s596
20.087	1.5	congruent	1.0	71.0	stroop	71	0.531	blue	blue	congruent	s596
22.092	1.5	incongruent	1.0	82.0	stroop	82	0.62	green	red	incongruent	s596
24.097	1.5	incongruent	1.0	89.0	stroop	89	0.431	red	green	incongruent	s596
26.375	1.5	incongruent	1.0	71.0	stroop	71	0.568	blue	green	incongruent	s596
28.377	1.5	incongruent	1.0	82.0	stroop	82	0.539	green	blue	incongruent	s596
30.516	1.5	congruent	1.0	89.0	stroop	89	0.425	red	red	congruent	s596
32.929	1.5	incongruent	1.0	89.0	stroop	89	0.61	red	blue	incongruent	s596
35.204	1.5	congruent	1.0	89.0	stroop	89	0.519	red	red	congruent	s596
37.89	1.5	congruent	1.0	82.0	stroop	82	0.603	green	green	congruent	s596
39.893	1.5	congruent	1.0	82.0	stroop	82	0.604	green	green	congruent	s596
42.302	1.5	congruent	1.0	89.0	stroop	89	0.543	red	red	congruent	s596
44.442	1.5	incongruent	1.0	71.0	stroop	71	0.633	blue	green	incongruent	s596
47.126	1.5	incongruent	1.0	71.0	stroop	71	0.465	blue	green	incongruent	s596
49.129	1.5	incongruent	1.0	89.0	stroop	89	0.618	red	green	incongruent	s596
51.269	1.5	congruent	1.0	82.0	stroop	82	0.573	green	green	congruent	s596
54.225	1.5	incongruent	1.0	82.0	stroop	82	0.769	green	blue	incongruent	s596
56.227	1.5	incongruent	1.0	71.0	stroop	71	0.982	blue	red	incongruent	s596
58.503	1.5	incongruent	1.0	89.0	stroop	89	0.429	red	blue	incongruent	s596
60.508	1.5	congruent	1.0	71.0	stroop	71	0.64	blue	blue	congruent	s596
62.514	1.5	congruent	1.0	71.0	stroop	71	0.584	blue	blue	congruent	s596
64.52	1.5	incongruent	1.0	82.0	stroop	82	0.578	green	blue	incongruent	s596
66.522	1.5	congruent	1.0	82.0	stroop	82	0.709	green	green	congruent	s596
68.664	1.5	congruent	1.0	71.0	stroop	71	0.806	blue	blue	congruent	s596
70.669	1.5	incongruent	1.0	71.0	stroop	71	0.536	blue	red	incongruent	s596
72.67	1.5	congruent	1.0	82.0	stroop	82	0.854	green	green	congruent	s596
74.814	1.5	incongruent	1.0	89.0	stroop	89	0.414	red	green	incongruent	s596
76.819	1.5	incongruent	1.0	82.0	stroop	82	0.582	green	red	incongruent	s596
78.821	1.5	incongruent	1.0	89.0	stroop	89	0.379	red	blue	incongruent	s596
80.96	1.5	congruent	1.0	82.0	stroop	82	0.417	green	green	congruent	s596
83.102	1.5	congruent	1.0	82.0	stroop	82	0.572	green	green	congruent	s596
85.376	1.5	incongruent	1.0	82.0	stroop	82	0.556	green	red	incongruent	s596
88.057	1.5	congruent	1.0	89.0	stroop	89	0.497	red	red	congruent	s596
90.061	1.5	congruent	1.0	71.0	stroop	71	0.489	blue	blue	congruent	s596
92.067	1.5	incongruent	1.0	89.0	stroop	89	0.759	red	green	incongruent	s596
94.344	1.5	incongruent	1.0	89.0	stroop	89	0.434	red	blue	incongruent	s596
96.35	1.5	congruent	1.0	71.0	stroop	71	0.603	blue	blue	congruent	s596
98.355	1.5	incongruent	1.0	82.0	stroop	82	0.657	green	blue	incongruent	s596
100.361	1.5	incongruent	1.0	71.0	stroop	71	0.59	blue	green	incongruent	s596
102.365	1.5	incongruent	1.0	82.0	stroop	82	0.629	green	red	incongruent	s596
104.367	1.5	incongruent	1.0	82.0	stroop	82	0.628	green	red	incongruent	s596
106.372	1.5	congruent	1.0	89.0	stroop	89	0.508	red	red	congruent	s596
108.648	1.5	incongruent	1.0	71.0	stroop	71	0.554	blue	green	incongruent	s596
110.651	1.5	congruent	1.0	82.0	stroop	82	0.575	green	green	congruent	s596
113.06	1.5	congruent	1.0	71.0	stroop	71	0.542	blue	blue	congruent	s596
115.062	1.5	congruent	1.0	71.0	stroop	71	0.582	blue	blue	congruent	s596
117.204	1.5	congruent	1.0	89.0	stroop	89	0.485	red	red	congruent	s596
119.207	1.5	congruent	1.0	71.0	stroop	71	0.434	blue	blue	congruent	s596
121.209	1.5	incongruent	1.0	89.0	stroop	89	0.702	red	blue	incongruent	s596
123.215	1.5	congruent	1.0	82.0	stroop	82	0.569	green	green	congruent	s596
125.492	1.5	incongruent	1.0	82.0	stroop	82	0.807	green	blue	incongruent	s596
127.498	1.5	incongruent	1.0	89.0	stroop	89	0.525	red	green	incongruent	s596
129.774	1.5	incongruent	1.0	89.0	stroop	89	0.555	red	blue	incongruent	s596
132.052	1.5	incongruent	1.0	71.0	stroop	71	0.53	blue	red	incongruent	s596
134.054	1.5	congruent	1.0	82.0	stroop	82	0.47	green	green	congruent	s596
136.736	1.5	incongruent	1.0	89.0	stroop	89	0.489	red	blue	incongruent	s596
138.74	1.5	congruent	1.0	82.0	stroop	82	0.768	green	green	congruent	s596
141.013	1.5	congruent	1.0	89.0	stroop	89	0.484	red	red	congruent	s596
143.018	1.5	congruent	1.0	82.0	stroop	82	0.54	green	green	congruent	s596
145.023	1.5	incongruent	1.0	71.0	stroop	71	0.412	blue	green	incongruent	s596
147.298	1.5	congruent	1.0	89.0	stroop	89	0.419	red	red	congruent	s596
149.44	1.5	congruent	1.0	89.0	stroop	89	0.525	red	red	congruent	s596
151.986	1.5	incongruent	1.0	82.0	stroop	82	0.536	green	red	incongruent	s596
154.398	1.5	incongruent	1.0	71.0	stroop	71	0.428	blue	red	incongruent	s596
156.403	1.5	incongruent	1.0	71.0	stroop	71	0.518	blue	red	incongruent	s596
158.405	1.5	incongruent	1.0	71.0	stroop	71	0.42	blue	green	incongruent	s596
160.411	1.5	congruent	1.0	71.0	stroop	71	0.441	blue	blue	congruent	s596
162.957	1.5	congruent	1.0	71.0	stroop	71	0.479	blue	blue	congruent	s596
165.094	1.5	congruent	1.0	71.0	stroop	71	0.489	blue	blue	congruent	s596
167.099	1.5	congruent	1.0	82.0	stroop	82	0.511	green	green	congruent	s596
169.1	1.5	congruent	1.0	89.0	stroop	89	0.583	red	red	congruent	s596
171.375	1.5	incongruent	1.0	82.0	stroop	82	0.633	green	blue	incongruent	s596
173.382	1.5	congruent	1.0	82.0	stroop	82	0.563	green	green	congruent	s596
175.384	1.5	incongruent	1.0	89.0	stroop	89	0.524	red	green	incongruent	s596
177.521	1.5	incongruent	1.0	89.0	stroop	89	0.558	red	blue	incongruent	s596
179.524	1.5	incongruent	0.0	82.0	stroop	71	0.642	green	blue	incongruent	s596
181.801	1.5	congruent	1.0	89.0	stroop	89	0.547	red	red	congruent	s596
183.939	1.5	incongruent	1.0	89.0	stroop	89	0.698	red	green	incongruent	s596
186.352	1.5	congruent	1.0	89.0	stroop	89	0.571	red	red	congruent	s596
188.354	1.5	congruent	1.0	89.0	stroop	89	0.536	red	red	congruent	s596
190.358	1.5	incongruent	0.0	71.0	stroop	82	0.562	blue	green	incongruent	s596
193.177	1.5	incongruent	1.0	71.0	stroop	71	0.999	blue	red	incongruent	s596
195.18	1.5	incongruent	1.0	71.0	stroop	71	0.596	blue	red	incongruent	s596
197.182	1.5	congruent	1.0	89.0	stroop	89	0.488	red	red	congruent	s596
199.32	1.5	congruent	1.0	89.0	stroop	89	0.562	red	red	congruent	s596
201.321	1.5	incongruent	1.0	82.0	stroop	82	0.645	green	blue	incongruent	s596
203.326	1.5	congruent	1.0	89.0	stroop	89	0.548	red	red	congruent	s596
205.33	1.5	incongruent	1.0	89.0	stroop	89	0.483	red	green	incongruent	s596
207.334	1.5	congruent	1.0	71.0	stroop	71	0.473	blue	blue	congruent	s596
